key_resp.keys,key_resp.rt,key_resp_2.keys,key_resp_2.rt,slider.response,slider.rt,trials.thisRepN,trials.thisTrialN,trials.thisN,trials.thisIndex,trials.ran,stim,participant,session,date,expName,psychopyVersion,OS,frameRate,key_resp_trial.keys,key_resp_trial.corr,key_resp_trial.rt,trials_2.thisRepN,trials_2.thisTrialN,trials_2.thisN,trials_2.thisIndex,trials_2.ran,stim1,stim2,distance,isCorrect
space,9.781,2,19.276,2.786666667,6.12,0,0,0,3,1,stim/fof_g.wav,60c24c8ec01a8596ba5c8b85,001,2022-03-09_12h08.20.393,vct_new,2021.2.3,MacIntel,12.65822785,,,,,,,,,,,,
,,7,11.45,4.855238095,4.555,0,1,1,6,1,stim/piep_g.wav,60c24c8ec01a8596ba5c8b85,001,2022-03-09_12h08.20.393,vct_new,2021.2.3,MacIntel,12.65822785,,,,,,,,,,,,
,,4,18.06,1.251428571,1.69,0,2,2,4,1,stim/p_schwa_g.wav,60c24c8ec01a8596ba5c8b85,001,2022-03-09_12h08.20.393,vct_new,2021.2.3,MacIntel,12.65822785,,,,,,,,,,,,
,,1,13.285,3.921904762,1.503,0,3,3,1,1,stim/faf_g.wav,60c24c8ec01a8596ba5c8b85,001,2022-03-09_12h08.20.393,vct_new,2021.2.3,MacIntel,12.65822785,,,,,,,,,,,,
,,7,14.272,3.102857143,1.337,0,4,4,0,1,stim/f_schwa_g.wav,60c24c8ec01a8596ba5c8b85,001,2022-03-09_12h08.20.393,vct_new,2021.2.3,MacIntel,12.65822785,,,,,,,,,,,,
,,7,5.518,4.988571429,1.222,0,5,5,2,1,stim/fif_g.wav,60c24c8ec01a8596ba5c8b85,001,2022-03-09_12h08.20.393,vct_new,2021.2.3,MacIntel,12.65822785,,,,,,,,,,,,
,,4,11.161,2.047619048,1.288,0,6,6,7,1,stim/pof_g.wav,60c24c8ec01a8596ba5c8b85,001,2022-03-09_12h08.20.393,vct_new,2021.2.3,MacIntel,12.65822785,,,,,,,,,,,,
,,2,12.584,3.163809524,1.476,0,7,7,5,1,stim/paf_g.wav,60c24c8ec01a8596ba5c8b85,001,2022-03-09_12h08.20.393,vct_new,2021.2.3,MacIntel,12.65822785,,,,,,,,,,,,
,,2,5.652,4.798095238,1.356,1,0,8,3,1,stim/fof_g.wav,60c24c8ec01a8596ba5c8b85,001,2022-03-09_12h08.20.393,vct_new,2021.2.3,MacIntel,12.65822785,,,,,,,,,,,,
,,7,3.902,4.859047619,1.755,1,1,9,2,1,stim/fif_g.wav,60c24c8ec01a8596ba5c8b85,001,2022-03-09_12h08.20.393,vct_new,2021.2.3,MacIntel,12.65822785,,,,,,,,,,,,
,,6,14.884,3.106666667,1.254,1,2,10,0,1,stim/f_schwa_g.wav,60c24c8ec01a8596ba5c8b85,001,2022-03-09_12h08.20.393,vct_new,2021.2.3,MacIntel,12.65822785,,,,,,,,,,,,
,,6,6.866,4.135238095,1.006,1,3,11,4,1,stim/p_schwa_g.wav,60c24c8ec01a8596ba5c8b85,001,2022-03-09_12h08.20.393,vct_new,2021.2.3,MacIntel,12.65822785,,,,,,,,,,,,
,,3,6.539,4.95047619,1.469,1,4,12,6,1,stim/piep_g.wav,60c24c8ec01a8596ba5c8b85,001,2022-03-09_12h08.20.393,vct_new,2021.2.3,MacIntel,12.65822785,,,,,,,,,,,,
,,2,11.532,2.958095238,1.155,1,5,13,5,1,stim/paf_g.wav,60c24c8ec01a8596ba5c8b85,001,2022-03-09_12h08.20.393,vct_new,2021.2.3,MacIntel,12.65822785,,,,,,,,,,,,
,,2,8.686,4.752380952,1.269,1,6,14,7,1,stim/pof_g.wav,60c24c8ec01a8596ba5c8b85,001,2022-03-09_12h08.20.393,vct_new,2021.2.3,MacIntel,12.65822785,,,,,,,,,,,,
,,2,10.63,4.12,0.855,1,7,15,1,1,stim/faf_g.wav,60c24c8ec01a8596ba5c8b85,001,2022-03-09_12h08.20.393,vct_new,2021.2.3,MacIntel,12.65822785,,,,,,,,,,,,
,,5,12.452,4.207619048,0.955,2,0,16,7,1,stim/pof_g.wav,60c24c8ec01a8596ba5c8b85,001,2022-03-09_12h08.20.393,vct_new,2021.2.3,MacIntel,12.65822785,,,,,,,,,,,,
,,5,5.068,4.961904762,3.189,2,1,17,3,1,stim/fof_g.wav,60c24c8ec01a8596ba5c8b85,001,2022-03-09_12h08.20.393,vct_new,2021.2.3,MacIntel,12.65822785,,,,,,,,,,,,
,,6,7.428,4.912380952,1.188,2,2,18,0,1,stim/f_schwa_g.wav,60c24c8ec01a8596ba5c8b85,001,2022-03-09_12h08.20.393,vct_new,2021.2.3,MacIntel,12.65822785,,,,,,,,,,,,
,,2,5.608,4.942857143,0.97,2,3,19,5,1,stim/paf_g.wav,60c24c8ec01a8596ba5c8b85,001,2022-03-09_12h08.20.393,vct_new,2021.2.3,MacIntel,12.65822785,,,,,,,,,,,,
,,1,7.767,4.032380952,1.723,2,4,20,1,1,stim/faf_g.wav,60c24c8ec01a8596ba5c8b85,001,2022-03-09_12h08.20.393,vct_new,2021.2.3,MacIntel,12.65822785,,,,,,,,,,,,
,,3,2.883,4.782857143,1.022,2,5,21,2,1,stim/fif_g.wav,60c24c8ec01a8596ba5c8b85,001,2022-03-09_12h08.20.393,vct_new,2021.2.3,MacIntel,12.65822785,,,,,,,,,,,,
,,4,5.542,4.881904762,1.236,2,6,22,4,1,stim/p_schwa_g.wav,60c24c8ec01a8596ba5c8b85,001,2022-03-09_12h08.20.393,vct_new,2021.2.3,MacIntel,12.65822785,,,,,,,,,,,,
,,3,8.784,4.900952381,1.171,2,7,23,6,1,stim/piep_g.wav,60c24c8ec01a8596ba5c8b85,001,2022-03-09_12h08.20.393,vct_new,2021.2.3,MacIntel,12.65822785,,,,,,,,,,,,
,,,,,,,,,,,,60c24c8ec01a8596ba5c8b85,001,2022-03-09_12h08.20.393,vct_new,2021.2.3,MacIntel,12.65822785,1,1,2.115,0,0,0,39,1,stim/Step_6.wav,stim/Step_5.wav,1,1
,,,,,,,,,,,,60c24c8ec01a8596ba5c8b85,001,2022-03-09_12h08.20.393,vct_new,2021.2.3,MacIntel,12.65822785,0,0,1.767,0,1,1,36,1,stim/Step_6.wav,stim/Step_2.wav,4,1
,,,,,,,,,,,,60c24c8ec01a8596ba5c8b85,001,2022-03-09_12h08.20.393,vct_new,2021.2.3,MacIntel,12.65822785,1,1,1.272,0,2,2,4,1,stim/Step_1.wav,stim/Step_5.wav,-4,1
,,,,,,,,,,,,60c24c8ec01a8596ba5c8b85,001,2022-03-09_12h08.20.393,vct_new,2021.2.3,MacIntel,12.65822785,1,1,1.17,0,3,3,35,1,stim/Step_6.wav,stim/Step_1.wav,5,1
,,,,,,,,,,,,60c24c8ec01a8596ba5c8b85,001,2022-03-09_12h08.20.393,vct_new,2021.2.3,MacIntel,12.65822785,1,1,1.75,0,4,4,28,1,stim/Step_5.wav,stim/Step_1.wav,4,1
,,,,,,,,,,,,60c24c8ec01a8596ba5c8b85,001,2022-03-09_12h08.20.393,vct_new,2021.2.3,MacIntel,12.65822785,1,1,2.02,0,5,5,3,1,stim/Step_1.wav,stim/Step_4.wav,-3,1
,,,,,,,,,,,,60c24c8ec01a8596ba5c8b85,001,2022-03-09_12h08.20.393,vct_new,2021.2.3,MacIntel,12.65822785,0,1,4.149,0,6,6,0,1,stim/Step_1.wav,stim/Step_1.wav,0,0
,,,,,,,,,,,,60c24c8ec01a8596ba5c8b85,001,2022-03-09_12h08.20.393,vct_new,2021.2.3,MacIntel,12.65822785,0,0,1.572,0,7,7,13,1,stim/Step_2.wav,stim/Step_7.wav,-5,1
,,,,,,,,,,,,60c24c8ec01a8596ba5c8b85,001,2022-03-09_12h08.20.393,vct_new,2021.2.3,MacIntel,12.65822785,1,0,1.259,0,8,8,24,1,stim/Step_4.wav,stim/Step_4.wav,0,0
,,,,,,,,,,,,60c24c8ec01a8596ba5c8b85,001,2022-03-09_12h08.20.393,vct_new,2021.2.3,MacIntel,12.65822785,1,1,1.061,0,9,9,14,1,stim/Step_3.wav,stim/Step_1.wav,2,1
,,,,,,,,,,,,60c24c8ec01a8596ba5c8b85,001,2022-03-09_12h08.20.393,vct_new,2021.2.3,MacIntel,12.65822785,0,0,1.374,0,10,10,45,1,stim/Step_7.wav,stim/Step_4.wav,3,1
,,,,,,,,,,,,60c24c8ec01a8596ba5c8b85,001,2022-03-09_12h08.20.393,vct_new,2021.2.3,MacIntel,12.65822785,1,1,1.449,0,11,11,38,1,stim/Step_6.wav,stim/Step_4.wav,2,1
,,,,,,,,,,,,60c24c8ec01a8596ba5c8b85,001,2022-03-09_12h08.20.393,vct_new,2021.2.3,MacIntel,12.65822785,0,0,1.171,0,12,12,20,1,stim/Step_3.wav,stim/Step_7.wav,-4,1
,,,,,,,,,,,,60c24c8ec01a8596ba5c8b85,001,2022-03-09_12h08.20.393,vct_new,2021.2.3,MacIntel,12.65822785,1,1,1.517,0,13,13,21,1,stim/Step_4.wav,stim/Step_1.wav,3,1
,,,,,,,,,,,,60c24c8ec01a8596ba5c8b85,001,2022-03-09_12h08.20.393,vct_new,2021.2.3,MacIntel,12.65822785,1,1,1.198,0,14,14,31,1,stim/Step_5.wav,stim/Step_4.wav,1,1
,,,,,,,,,,,,60c24c8ec01a8596ba5c8b85,001,2022-03-09_12h08.20.393,vct_new,2021.2.3,MacIntel,12.65822785,0,0,1.018,0,15,15,37,1,stim/Step_6.wav,stim/Step_3.wav,3,1
,,,,,,,,,,,,60c24c8ec01a8596ba5c8b85,001,2022-03-09_12h08.20.393,vct_new,2021.2.3,MacIntel,12.65822785,1,1,1.254,0,16,16,17,1,stim/Step_3.wav,stim/Step_4.wav,-1,1
,,,,,,,,,,,,60c24c8ec01a8596ba5c8b85,001,2022-03-09_12h08.20.393,vct_new,2021.2.3,MacIntel,12.65822785,1,0,1.307,0,17,17,8,1,stim/Step_2.wav,stim/Step_2.wav,0,0
,,,,,,,,,,,,60c24c8ec01a8596ba5c8b85,001,2022-03-09_12h08.20.393,vct_new,2021.2.3,MacIntel,12.65822785,0,1,1.286,0,18,18,40,1,stim/Step_6.wav,stim/Step_6.wav,0,0
,,,,,,,,,,,,60c24c8ec01a8596ba5c8b85,001,2022-03-09_12h08.20.393,vct_new,2021.2.3,MacIntel,12.65822785,1,1,1.188,0,19,19,34,1,stim/Step_5.wav,stim/Step_7.wav,-2,1
,,,,,,,,,,,,60c24c8ec01a8596ba5c8b85,001,2022-03-09_12h08.20.393,vct_new,2021.2.3,MacIntel,12.65822785,1,1,1.084,0,20,20,22,1,stim/Step_4.wav,stim/Step_2.wav,2,1
,,,,,,,,,,,,60c24c8ec01a8596ba5c8b85,001,2022-03-09_12h08.20.393,vct_new,2021.2.3,MacIntel,12.65822785,0,0,1.2,0,21,21,42,1,stim/Step_7.wav,stim/Step_1.wav,6,1
,,,,,,,,,,,,60c24c8ec01a8596ba5c8b85,001,2022-03-09_12h08.20.393,vct_new,2021.2.3,MacIntel,12.65822785,1,0,1.465,0,22,22,16,1,stim/Step_3.wav,stim/Step_3.wav,0,0
,,,,,,,,,,,,60c24c8ec01a8596ba5c8b85,001,2022-03-09_12h08.20.393,vct_new,2021.2.3,MacIntel,12.65822785,1,1,2.318,0,23,23,41,1,stim/Step_6.wav,stim/Step_7.wav,-1,1
,,,,,,,,,,,,60c24c8ec01a8596ba5c8b85,001,2022-03-09_12h08.20.393,vct_new,2021.2.3,MacIntel,12.65822785,1,1,1.993,0,24,24,12,1,stim/Step_2.wav,stim/Step_6.wav,-4,1
,,,,,,,,,,,,60c24c8ec01a8596ba5c8b85,001,2022-03-09_12h08.20.393,vct_new,2021.2.3,MacIntel,12.65822785,1,1,1.776,0,25,25,2,1,stim/Step_1.wav,stim/Step_3.wav,-2,1
,,,,,,,,,,,,60c24c8ec01a8596ba5c8b85,001,2022-03-09_12h08.20.393,vct_new,2021.2.3,MacIntel,12.65822785,1,1,1.17,0,26,26,15,1,stim/Step_3.wav,stim/Step_2.wav,1,1
,,,,,,,,,,,,60c24c8ec01a8596ba5c8b85,001,2022-03-09_12h08.20.393,vct_new,2021.2.3,MacIntel,12.65822785,0,0,1.078,0,27,27,7,1,stim/Step_2.wav,stim/Step_1.wav,1,1
,,,,,,,,,,,,60c24c8ec01a8596ba5c8b85,001,2022-03-09_12h08.20.393,vct_new,2021.2.3,MacIntel,12.65822785,0,0,1.699,0,28,28,11,1,stim/Step_2.wav,stim/Step_5.wav,-3,1
,,,,,,,,,,,,60c24c8ec01a8596ba5c8b85,001,2022-03-09_12h08.20.393,vct_new,2021.2.3,MacIntel,12.65822785,1,1,1.1,0,29,29,47,1,stim/Step_7.wav,stim/Step_6.wav,1,1
,,,,,,,,,,,,60c24c8ec01a8596ba5c8b85,001,2022-03-09_12h08.20.393,vct_new,2021.2.3,MacIntel,12.65822785,1,1,1.129,0,30,30,23,1,stim/Step_4.wav,stim/Step_3.wav,1,1
,,,,,,,,,,,,60c24c8ec01a8596ba5c8b85,001,2022-03-09_12h08.20.393,vct_new,2021.2.3,MacIntel,12.65822785,1,0,1.026,0,31,31,32,1,stim/Step_5.wav,stim/Step_5.wav,0,0
,,,,,,,,,,,,60c24c8ec01a8596ba5c8b85,001,2022-03-09_12h08.20.393,vct_new,2021.2.3,MacIntel,12.65822785,0,0,1.224,0,32,32,1,1,stim/Step_1.wav,stim/Step_2.wav,-1,1
,,,,,,,,,,,,60c24c8ec01a8596ba5c8b85,001,2022-03-09_12h08.20.393,vct_new,2021.2.3,MacIntel,12.65822785,0,0,1.451,0,33,33,46,1,stim/Step_7.wav,stim/Step_5.wav,2,1
,,,,,,,,,,,,60c24c8ec01a8596ba5c8b85,001,2022-03-09_12h08.20.393,vct_new,2021.2.3,MacIntel,12.65822785,0,0,0.952,0,34,34,5,1,stim/Step_1.wav,stim/Step_6.wav,-5,1
,,,,,,,,,,,,60c24c8ec01a8596ba5c8b85,001,2022-03-09_12h08.20.393,vct_new,2021.2.3,MacIntel,12.65822785,1,0,1.182,0,35,35,48,1,stim/Step_7.wav,stim/Step_7.wav,0,0
,,,,,,,,,,,,60c24c8ec01a8596ba5c8b85,001,2022-03-09_12h08.20.393,vct_new,2021.2.3,MacIntel,12.65822785,0,0,1.55,0,36,36,30,1,stim/Step_5.wav,stim/Step_3.wav,2,1
,,,,,,,,,,,,60c24c8ec01a8596ba5c8b85,001,2022-03-09_12h08.20.393,vct_new,2021.2.3,MacIntel,12.65822785,0,0,1.049,0,37,37,19,1,stim/Step_3.wav,stim/Step_6.wav,-3,1
,,,,,,,,,,,,60c24c8ec01a8596ba5c8b85,001,2022-03-09_12h08.20.393,vct_new,2021.2.3,MacIntel,12.65822785,1,1,1.819,0,38,38,10,1,stim/Step_2.wav,stim/Step_4.wav,-2,1
,,,,,,,,,,,,60c24c8ec01a8596ba5c8b85,001,2022-03-09_12h08.20.393,vct_new,2021.2.3,MacIntel,12.65822785,1,1,1.725,0,39,39,33,1,stim/Step_5.wav,stim/Step_6.wav,-1,1
,,,,,,,,,,,,60c24c8ec01a8596ba5c8b85,001,2022-03-09_12h08.20.393,vct_new,2021.2.3,MacIntel,12.65822785,0,0,1.674,0,40,40,26,1,stim/Step_4.wav,stim/Step_6.wav,-2,1
,,,,,,,,,,,,60c24c8ec01a8596ba5c8b85,001,2022-03-09_12h08.20.393,vct_new,2021.2.3,MacIntel,12.65822785,0,0,1.385,0,41,41,29,1,stim/Step_5.wav,stim/Step_2.wav,3,1
,,,,,,,,,,,,60c24c8ec01a8596ba5c8b85,001,2022-03-09_12h08.20.393,vct_new,2021.2.3,MacIntel,12.65822785,0,0,1.957,0,42,42,25,1,stim/Step_4.wav,stim/Step_5.wav,-1,1
,,,,,,,,,,,,60c24c8ec01a8596ba5c8b85,001,2022-03-09_12h08.20.393,vct_new,2021.2.3,MacIntel,12.65822785,1,1,0.866,0,43,43,44,1,stim/Step_7.wav,stim/Step_3.wav,4,1
,,,,,,,,,,,,60c24c8ec01a8596ba5c8b85,001,2022-03-09_12h08.20.393,vct_new,2021.2.3,MacIntel,12.65822785,1,1,1.061,0,44,44,9,1,stim/Step_2.wav,stim/Step_3.wav,-1,1
,,,,,,,,,,,,60c24c8ec01a8596ba5c8b85,001,2022-03-09_12h08.20.393,vct_new,2021.2.3,MacIntel,12.65822785,0,0,1.168,0,45,45,27,1,stim/Step_4.wav,stim/Step_7.wav,-3,1
,,,,,,,,,,,,60c24c8ec01a8596ba5c8b85,001,2022-03-09_12h08.20.393,vct_new,2021.2.3,MacIntel,12.65822785,1,1,1.27,0,46,46,43,1,stim/Step_7.wav,stim/Step_2.wav,5,1
,,,,,,,,,,,,60c24c8ec01a8596ba5c8b85,001,2022-03-09_12h08.20.393,vct_new,2021.2.3,MacIntel,12.65822785,0,0,1.039,0,47,47,6,1,stim/Step_1.wav,stim/Step_7.wav,-6,1
,,,,,,,,,,,,60c24c8ec01a8596ba5c8b85,001,2022-03-09_12h08.20.393,vct_new,2021.2.3,MacIntel,12.65822785,0,0,1.017,0,48,48,18,1,stim/Step_3.wav,stim/Step_5.wav,-2,1
,,,,,,,,,,,,60c24c8ec01a8596ba5c8b85,001,2022-03-09_12h08.20.393,vct_new,2021.2.3,MacIntel,12.65822785,1,1,1.411,1,0,49,7,1,stim/Step_2.wav,stim/Step_1.wav,1,1
,,,,,,,,,,,,60c24c8ec01a8596ba5c8b85,001,2022-03-09_12h08.20.393,vct_new,2021.2.3,MacIntel,12.65822785,1,0,2.826,1,1,50,40,1,stim/Step_6.wav,stim/Step_6.wav,0,0
,,,,,,,,,,,,60c24c8ec01a8596ba5c8b85,001,2022-03-09_12h08.20.393,vct_new,2021.2.3,MacIntel,12.65822785,1,1,2.138,1,2,51,2,1,stim/Step_1.wav,stim/Step_3.wav,-2,1
,,,,,,,,,,,,60c24c8ec01a8596ba5c8b85,001,2022-03-09_12h08.20.393,vct_new,2021.2.3,MacIntel,12.65822785,1,1,1.582,1,3,52,1,1,stim/Step_1.wav,stim/Step_2.wav,-1,1
,,,,,,,,,,,,60c24c8ec01a8596ba5c8b85,001,2022-03-09_12h08.20.393,vct_new,2021.2.3,MacIntel,12.65822785,0,0,1.437,1,4,53,30,1,stim/Step_5.wav,stim/Step_3.wav,2,1
,,,,,,,,,,,,60c24c8ec01a8596ba5c8b85,001,2022-03-09_12h08.20.393,vct_new,2021.2.3,MacIntel,12.65822785,1,0,1.72,1,5,54,48,1,stim/Step_7.wav,stim/Step_7.wav,0,0
,,,,,,,,,,,,60c24c8ec01a8596ba5c8b85,001,2022-03-09_12h08.20.393,vct_new,2021.2.3,MacIntel,12.65822785,1,0,1.44,1,6,55,32,1,stim/Step_5.wav,stim/Step_5.wav,0,0
,,,,,,,,,,,,60c24c8ec01a8596ba5c8b85,001,2022-03-09_12h08.20.393,vct_new,2021.2.3,MacIntel,12.65822785,1,0,1.002,1,7,56,0,1,stim/Step_1.wav,stim/Step_1.wav,0,0
,,,,,,,,,,,,60c24c8ec01a8596ba5c8b85,001,2022-03-09_12h08.20.393,vct_new,2021.2.3,MacIntel,12.65822785,0,0,1.595,1,8,57,20,1,stim/Step_3.wav,stim/Step_7.wav,-4,1
,,,,,,,,,,,,60c24c8ec01a8596ba5c8b85,001,2022-03-09_12h08.20.393,vct_new,2021.2.3,MacIntel,12.65822785,1,1,2.034,1,9,58,33,1,stim/Step_5.wav,stim/Step_6.wav,-1,1
,,,,,,,,,,,,60c24c8ec01a8596ba5c8b85,001,2022-03-09_12h08.20.393,vct_new,2021.2.3,MacIntel,12.65822785,0,0,1.159,1,10,59,42,1,stim/Step_7.wav,stim/Step_1.wav,6,1
,,,,,,,,,,,,60c24c8ec01a8596ba5c8b85,001,2022-03-09_12h08.20.393,vct_new,2021.2.3,MacIntel,12.65822785,1,1,2.018,1,11,60,4,1,stim/Step_1.wav,stim/Step_5.wav,-4,1
,,,,,,,,,,,,60c24c8ec01a8596ba5c8b85,001,2022-03-09_12h08.20.393,vct_new,2021.2.3,MacIntel,12.65822785,1,1,2.3,1,12,61,25,1,stim/Step_4.wav,stim/Step_5.wav,-1,1
,,,,,,,,,,,,60c24c8ec01a8596ba5c8b85,001,2022-03-09_12h08.20.393,vct_new,2021.2.3,MacIntel,12.65822785,0,1,1.701,1,13,62,24,1,stim/Step_4.wav,stim/Step_4.wav,0,0
,,,,,,,,,,,,60c24c8ec01a8596ba5c8b85,001,2022-03-09_12h08.20.393,vct_new,2021.2.3,MacIntel,12.65822785,1,1,1.605,1,14,63,23,1,stim/Step_4.wav,stim/Step_3.wav,1,1
,,,,,,,,,,,,60c24c8ec01a8596ba5c8b85,001,2022-03-09_12h08.20.393,vct_new,2021.2.3,MacIntel,12.65822785,0,0,1.842,1,15,64,22,1,stim/Step_4.wav,stim/Step_2.wav,2,1
,,,,,,,,,,,,60c24c8ec01a8596ba5c8b85,001,2022-03-09_12h08.20.393,vct_new,2021.2.3,MacIntel,12.65822785,1,1,0.904,1,16,65,43,1,stim/Step_7.wav,stim/Step_2.wav,5,1
,,,,,,,,,,,,60c24c8ec01a8596ba5c8b85,001,2022-03-09_12h08.20.393,vct_new,2021.2.3,MacIntel,12.65822785,1,1,2.632,1,17,66,12,1,stim/Step_2.wav,stim/Step_6.wav,-4,1
,,,,,,,,,,,,60c24c8ec01a8596ba5c8b85,001,2022-03-09_12h08.20.393,vct_new,2021.2.3,MacIntel,12.65822785,1,1,1.351,1,18,67,47,1,stim/Step_7.wav,stim/Step_6.wav,1,1
,,,,,,,,,,,,60c24c8ec01a8596ba5c8b85,001,2022-03-09_12h08.20.393,vct_new,2021.2.3,MacIntel,12.65822785,1,1,1.022,1,19,68,19,1,stim/Step_3.wav,stim/Step_6.wav,-3,1
,,,,,,,,,,,,60c24c8ec01a8596ba5c8b85,001,2022-03-09_12h08.20.393,vct_new,2021.2.3,MacIntel,12.65822785,1,1,1.076,1,20,69,31,1,stim/Step_5.wav,stim/Step_4.wav,1,1
,,,,,,,,,,,,60c24c8ec01a8596ba5c8b85,001,2022-03-09_12h08.20.393,vct_new,2021.2.3,MacIntel,12.65822785,1,1,1.035,1,21,70,26,1,stim/Step_4.wav,stim/Step_6.wav,-2,1
,,,,,,,,,,,,60c24c8ec01a8596ba5c8b85,001,2022-03-09_12h08.20.393,vct_new,2021.2.3,MacIntel,12.65822785,1,1,1.044,1,22,71,46,1,stim/Step_7.wav,stim/Step_5.wav,2,1
,,,,,,,,,,,,60c24c8ec01a8596ba5c8b85,001,2022-03-09_12h08.20.393,vct_new,2021.2.3,MacIntel,12.65822785,1,1,1.236,1,23,72,41,1,stim/Step_6.wav,stim/Step_7.wav,-1,1
,,,,,,,,,,,,60c24c8ec01a8596ba5c8b85,001,2022-03-09_12h08.20.393,vct_new,2021.2.3,MacIntel,12.65822785,1,1,1.179,1,24,73,10,1,stim/Step_2.wav,stim/Step_4.wav,-2,1
,,,,,,,,,,,,60c24c8ec01a8596ba5c8b85,001,2022-03-09_12h08.20.393,vct_new,2021.2.3,MacIntel,12.65822785,1,1,1.124,1,25,74,39,1,stim/Step_6.wav,stim/Step_5.wav,1,1
,,,,,,,,,,,,60c24c8ec01a8596ba5c8b85,001,2022-03-09_12h08.20.393,vct_new,2021.2.3,MacIntel,12.65822785,1,1,1.09,1,26,75,3,1,stim/Step_1.wav,stim/Step_4.wav,-3,1
,,,,,,,,,,,,60c24c8ec01a8596ba5c8b85,001,2022-03-09_12h08.20.393,vct_new,2021.2.3,MacIntel,12.65822785,1,1,1.12,1,27,76,35,1,stim/Step_6.wav,stim/Step_1.wav,5,1
,,,,,,,,,,,,60c24c8ec01a8596ba5c8b85,001,2022-03-09_12h08.20.393,vct_new,2021.2.3,MacIntel,12.65822785,0,0,1.722,1,28,77,13,1,stim/Step_2.wav,stim/Step_7.wav,-5,1
,,,,,,,,,,,,60c24c8ec01a8596ba5c8b85,001,2022-03-09_12h08.20.393,vct_new,2021.2.3,MacIntel,12.65822785,0,0,1.444,1,29,78,29,1,stim/Step_5.wav,stim/Step_2.wav,3,1
,,,,,,,,,,,,60c24c8ec01a8596ba5c8b85,001,2022-03-09_12h08.20.393,vct_new,2021.2.3,MacIntel,12.65822785,0,0,1.126,1,30,79,21,1,stim/Step_4.wav,stim/Step_1.wav,3,1
,,,,,,,,,,,,60c24c8ec01a8596ba5c8b85,001,2022-03-09_12h08.20.393,vct_new,2021.2.3,MacIntel,12.65822785,0,0,1.418,1,31,80,28,1,stim/Step_5.wav,stim/Step_1.wav,4,1
,,,,,,,,,,,,60c24c8ec01a8596ba5c8b85,001,2022-03-09_12h08.20.393,vct_new,2021.2.3,MacIntel,12.65822785,0,0,2.357,1,32,81,9,1,stim/Step_2.wav,stim/Step_3.wav,-1,1
,,,,,,,,,,,,60c24c8ec01a8596ba5c8b85,001,2022-03-09_12h08.20.393,vct_new,2021.2.3,MacIntel,12.65822785,0,0,1.633,1,33,82,38,1,stim/Step_6.wav,stim/Step_4.wav,2,1
,,,,,,,,,,,,60c24c8ec01a8596ba5c8b85,001,2022-03-09_12h08.20.393,vct_new,2021.2.3,MacIntel,12.65822785,1,1,1.203,1,34,83,17,1,stim/Step_3.wav,stim/Step_4.wav,-1,1
,,,,,,,,,,,,60c24c8ec01a8596ba5c8b85,001,2022-03-09_12h08.20.393,vct_new,2021.2.3,MacIntel,12.65822785,0,0,1.551,1,35,84,45,1,stim/Step_7.wav,stim/Step_4.wav,3,1
,,,,,,,,,,,,60c24c8ec01a8596ba5c8b85,001,2022-03-09_12h08.20.393,vct_new,2021.2.3,MacIntel,12.65822785,0,0,1.276,1,36,85,14,1,stim/Step_3.wav,stim/Step_1.wav,2,1
,,,,,,,,,,,,60c24c8ec01a8596ba5c8b85,001,2022-03-09_12h08.20.393,vct_new,2021.2.3,MacIntel,12.65822785,0,0,1.824,1,37,86,34,1,stim/Step_5.wav,stim/Step_7.wav,-2,1
,,,,,,,,,,,,60c24c8ec01a8596ba5c8b85,001,2022-03-09_12h08.20.393,vct_new,2021.2.3,MacIntel,12.65822785,0,0,2.057,1,38,87,44,1,stim/Step_7.wav,stim/Step_3.wav,4,1
,,,,,,,,,,,,60c24c8ec01a8596ba5c8b85,001,2022-03-09_12h08.20.393,vct_new,2021.2.3,MacIntel,12.65822785,0,0,1.236,1,39,88,6,1,stim/Step_1.wav,stim/Step_7.wav,-6,1
,,,,,,,,,,,,60c24c8ec01a8596ba5c8b85,001,2022-03-09_12h08.20.393,vct_new,2021.2.3,MacIntel,12.65822785,1,0,0.986,1,40,89,16,1,stim/Step_3.wav,stim/Step_3.wav,0,0
,,,,,,,,,,,,60c24c8ec01a8596ba5c8b85,001,2022-03-09_12h08.20.393,vct_new,2021.2.3,MacIntel,12.65822785,0,0,0.901,1,41,90,11,1,stim/Step_2.wav,stim/Step_5.wav,-3,1
,,,,,,,,,,,,60c24c8ec01a8596ba5c8b85,001,2022-03-09_12h08.20.393,vct_new,2021.2.3,MacIntel,12.65822785,1,1,1.253,1,42,91,36,1,stim/Step_6.wav,stim/Step_2.wav,4,1
,,,,,,,,,,,,60c24c8ec01a8596ba5c8b85,001,2022-03-09_12h08.20.393,vct_new,2021.2.3,MacIntel,12.65822785,0,0,1.252,1,43,92,37,1,stim/Step_6.wav,stim/Step_3.wav,3,1
,,,,,,,,,,,,60c24c8ec01a8596ba5c8b85,001,2022-03-09_12h08.20.393,vct_new,2021.2.3,MacIntel,12.65822785,0,0,1.37,1,44,93,15,1,stim/Step_3.wav,stim/Step_2.wav,1,1
,,,,,,,,,,,,60c24c8ec01a8596ba5c8b85,001,2022-03-09_12h08.20.393,vct_new,2021.2.3,MacIntel,12.65822785,0,0,1.019,1,45,94,27,1,stim/Step_4.wav,stim/Step_7.wav,-3,1
,,,,,,,,,,,,60c24c8ec01a8596ba5c8b85,001,2022-03-09_12h08.20.393,vct_new,2021.2.3,MacIntel,12.65822785,0,0,1.684,1,46,95,5,1,stim/Step_1.wav,stim/Step_6.wav,-5,1
,,,,,,,,,,,,60c24c8ec01a8596ba5c8b85,001,2022-03-09_12h08.20.393,vct_new,2021.2.3,MacIntel,12.65822785,0,0,2.165,1,47,96,18,1,stim/Step_3.wav,stim/Step_5.wav,-2,1
,,,,,,,,,,,,60c24c8ec01a8596ba5c8b85,001,2022-03-09_12h08.20.393,vct_new,2021.2.3,MacIntel,12.65822785,1,0,1.184,1,48,97,8,1,stim/Step_2.wav,stim/Step_2.wav,0,0
,,,,,,,,,,,,60c24c8ec01a8596ba5c8b85,001,2022-03-09_12h08.20.393,vct_new,2021.2.3,MacIntel,12.65822785,0,0,1.193,2,0,98,35,1,stim/Step_6.wav,stim/Step_1.wav,5,1
,,,,,,,,,,,,60c24c8ec01a8596ba5c8b85,001,2022-03-09_12h08.20.393,vct_new,2021.2.3,MacIntel,12.65822785,1,0,2.034,2,1,99,0,1,stim/Step_1.wav,stim/Step_1.wav,0,0
,,,,,,,,,,,,60c24c8ec01a8596ba5c8b85,001,2022-03-09_12h08.20.393,vct_new,2021.2.3,MacIntel,12.65822785,0,0,1.46,2,2,100,25,1,stim/Step_4.wav,stim/Step_5.wav,-1,1
,,,,,,,,,,,,60c24c8ec01a8596ba5c8b85,001,2022-03-09_12h08.20.393,vct_new,2021.2.3,MacIntel,12.65822785,1,0,2.071,2,3,101,48,1,stim/Step_7.wav,stim/Step_7.wav,0,0
,,,,,,,,,,,,60c24c8ec01a8596ba5c8b85,001,2022-03-09_12h08.20.393,vct_new,2021.2.3,MacIntel,12.65822785,1,1,1.549,2,4,102,36,1,stim/Step_6.wav,stim/Step_2.wav,4,1
,,,,,,,,,,,,60c24c8ec01a8596ba5c8b85,001,2022-03-09_12h08.20.393,vct_new,2021.2.3,MacIntel,12.65822785,1,0,1.525,2,5,103,24,1,stim/Step_4.wav,stim/Step_4.wav,0,0
,,,,,,,,,,,,60c24c8ec01a8596ba5c8b85,001,2022-03-09_12h08.20.393,vct_new,2021.2.3,MacIntel,12.65822785,0,0,1.072,2,6,104,20,1,stim/Step_3.wav,stim/Step_7.wav,-4,1
,,,,,,,,,,,,60c24c8ec01a8596ba5c8b85,001,2022-03-09_12h08.20.393,vct_new,2021.2.3,MacIntel,12.65822785,0,0,1.871,2,7,105,18,1,stim/Step_3.wav,stim/Step_5.wav,-2,1
,,,,,,,,,,,,60c24c8ec01a8596ba5c8b85,001,2022-03-09_12h08.20.393,vct_new,2021.2.3,MacIntel,12.65822785,0,0,0.958,2,8,106,19,1,stim/Step_3.wav,stim/Step_6.wav,-3,1
,,,,,,,,,,,,60c24c8ec01a8596ba5c8b85,001,2022-03-09_12h08.20.393,vct_new,2021.2.3,MacIntel,12.65822785,0,0,1.276,2,9,107,23,1,stim/Step_4.wav,stim/Step_3.wav,1,1
,,,,,,,,,,,,60c24c8ec01a8596ba5c8b85,001,2022-03-09_12h08.20.393,vct_new,2021.2.3,MacIntel,12.65822785,1,1,1.104,2,10,108,29,1,stim/Step_5.wav,stim/Step_2.wav,3,1
,,,,,,,,,,,,60c24c8ec01a8596ba5c8b85,001,2022-03-09_12h08.20.393,vct_new,2021.2.3,MacIntel,12.65822785,1,1,0.986,2,11,109,10,1,stim/Step_2.wav,stim/Step_4.wav,-2,1
,,,,,,,,,,,,60c24c8ec01a8596ba5c8b85,001,2022-03-09_12h08.20.393,vct_new,2021.2.3,MacIntel,12.65822785,0,0,1.494,2,12,110,43,1,stim/Step_7.wav,stim/Step_2.wav,5,1
,,,,,,,,,,,,60c24c8ec01a8596ba5c8b85,001,2022-03-09_12h08.20.393,vct_new,2021.2.3,MacIntel,12.65822785,0,0,2.379,2,13,111,14,1,stim/Step_3.wav,stim/Step_1.wav,2,1
,,,,,,,,,,,,60c24c8ec01a8596ba5c8b85,001,2022-03-09_12h08.20.393,vct_new,2021.2.3,MacIntel,12.65822785,1,1,1.402,2,14,112,47,1,stim/Step_7.wav,stim/Step_6.wav,1,1
,,,,,,,,,,,,60c24c8ec01a8596ba5c8b85,001,2022-03-09_12h08.20.393,vct_new,2021.2.3,MacIntel,12.65822785,1,1,3.869,2,15,113,15,1,stim/Step_3.wav,stim/Step_2.wav,1,1
,,,,,,,,,,,,60c24c8ec01a8596ba5c8b85,001,2022-03-09_12h08.20.393,vct_new,2021.2.3,MacIntel,12.65822785,0,0,1.215,2,16,114,4,1,stim/Step_1.wav,stim/Step_5.wav,-4,1
,,,,,,,,,,,,60c24c8ec01a8596ba5c8b85,001,2022-03-09_12h08.20.393,vct_new,2021.2.3,MacIntel,12.65822785,1,1,1.177,2,17,115,33,1,stim/Step_5.wav,stim/Step_6.wav,-1,1
,,,,,,,,,,,,60c24c8ec01a8596ba5c8b85,001,2022-03-09_12h08.20.393,vct_new,2021.2.3,MacIntel,12.65822785,0,0,1.652,2,18,116,7,1,stim/Step_2.wav,stim/Step_1.wav,1,1
,,,,,,,,,,,,60c24c8ec01a8596ba5c8b85,001,2022-03-09_12h08.20.393,vct_new,2021.2.3,MacIntel,12.65822785,1,1,0.974,2,19,117,1,1,stim/Step_1.wav,stim/Step_2.wav,-1,1
,,,,,,,,,,,,60c24c8ec01a8596ba5c8b85,001,2022-03-09_12h08.20.393,vct_new,2021.2.3,MacIntel,12.65822785,1,1,1.095,2,20,118,41,1,stim/Step_6.wav,stim/Step_7.wav,-1,1
,,,,,,,,,,,,60c24c8ec01a8596ba5c8b85,001,2022-03-09_12h08.20.393,vct_new,2021.2.3,MacIntel,12.65822785,1,0,1.77,2,21,119,8,1,stim/Step_2.wav,stim/Step_2.wav,0,0
,,,,,,,,,,,,60c24c8ec01a8596ba5c8b85,001,2022-03-09_12h08.20.393,vct_new,2021.2.3,MacIntel,12.65822785,1,1,4.685,2,22,120,31,1,stim/Step_5.wav,stim/Step_4.wav,1,1
,,,,,,,,,,,,60c24c8ec01a8596ba5c8b85,001,2022-03-09_12h08.20.393,vct_new,2021.2.3,MacIntel,12.65822785,1,1,1.471,2,23,121,44,1,stim/Step_7.wav,stim/Step_3.wav,4,1
,,,,,,,,,,,,60c24c8ec01a8596ba5c8b85,001,2022-03-09_12h08.20.393,vct_new,2021.2.3,MacIntel,12.65822785,1,1,0.907,2,24,122,38,1,stim/Step_6.wav,stim/Step_4.wav,2,1
,,,,,,,,,,,,60c24c8ec01a8596ba5c8b85,001,2022-03-09_12h08.20.393,vct_new,2021.2.3,MacIntel,12.65822785,1,1,0.894,2,25,123,30,1,stim/Step_5.wav,stim/Step_3.wav,2,1
,,,,,,,,,,,,60c24c8ec01a8596ba5c8b85,001,2022-03-09_12h08.20.393,vct_new,2021.2.3,MacIntel,12.65822785,1,1,1.084,2,26,124,28,1,stim/Step_5.wav,stim/Step_1.wav,4,1
,,,,,,,,,,,,60c24c8ec01a8596ba5c8b85,001,2022-03-09_12h08.20.393,vct_new,2021.2.3,MacIntel,12.65822785,1,1,1.549,2,27,125,34,1,stim/Step_5.wav,stim/Step_7.wav,-2,1
,,,,,,,,,,,,60c24c8ec01a8596ba5c8b85,001,2022-03-09_12h08.20.393,vct_new,2021.2.3,MacIntel,12.65822785,1,1,0.988,2,28,126,2,1,stim/Step_1.wav,stim/Step_3.wav,-2,1
,,,,,,,,,,,,60c24c8ec01a8596ba5c8b85,001,2022-03-09_12h08.20.393,vct_new,2021.2.3,MacIntel,12.65822785,1,0,0.933,2,29,127,16,1,stim/Step_3.wav,stim/Step_3.wav,0,0
,,,,,,,,,,,,60c24c8ec01a8596ba5c8b85,001,2022-03-09_12h08.20.393,vct_new,2021.2.3,MacIntel,12.65822785,1,1,0.919,2,30,128,11,1,stim/Step_2.wav,stim/Step_5.wav,-3,1
,,,,,,,,,,,,60c24c8ec01a8596ba5c8b85,001,2022-03-09_12h08.20.393,vct_new,2021.2.3,MacIntel,12.65822785,1,0,1.244,2,31,129,32,1,stim/Step_5.wav,stim/Step_5.wav,0,0
,,,,,,,,,,,,60c24c8ec01a8596ba5c8b85,001,2022-03-09_12h08.20.393,vct_new,2021.2.3,MacIntel,12.65822785,1,1,1.06,2,32,130,13,1,stim/Step_2.wav,stim/Step_7.wav,-5,1
,,,,,,,,,,,,60c24c8ec01a8596ba5c8b85,001,2022-03-09_12h08.20.393,vct_new,2021.2.3,MacIntel,12.65822785,1,1,1.627,2,33,131,27,1,stim/Step_4.wav,stim/Step_7.wav,-3,1
,,,,,,,,,,,,60c24c8ec01a8596ba5c8b85,001,2022-03-09_12h08.20.393,vct_new,2021.2.3,MacIntel,12.65822785,1,1,1.208,2,34,132,26,1,stim/Step_4.wav,stim/Step_6.wav,-2,1
,,,,,,,,,,,,60c24c8ec01a8596ba5c8b85,001,2022-03-09_12h08.20.393,vct_new,2021.2.3,MacIntel,12.65822785,1,1,1.783,2,35,133,37,1,stim/Step_6.wav,stim/Step_3.wav,3,1
,,,,,,,,,,,,60c24c8ec01a8596ba5c8b85,001,2022-03-09_12h08.20.393,vct_new,2021.2.3,MacIntel,12.65822785,1,0,3.242,2,36,134,40,1,stim/Step_6.wav,stim/Step_6.wav,0,0
,,,,,,,,,,,,60c24c8ec01a8596ba5c8b85,001,2022-03-09_12h08.20.393,vct_new,2021.2.3,MacIntel,12.65822785,1,1,1.118,2,37,135,46,1,stim/Step_7.wav,stim/Step_5.wav,2,1
,,,,,,,,,,,,60c24c8ec01a8596ba5c8b85,001,2022-03-09_12h08.20.393,vct_new,2021.2.3,MacIntel,12.65822785,1,1,1.84,2,38,136,17,1,stim/Step_3.wav,stim/Step_4.wav,-1,1
,,,,,,,,,,,,60c24c8ec01a8596ba5c8b85,001,2022-03-09_12h08.20.393,vct_new,2021.2.3,MacIntel,12.65822785,0,0,1.018,2,39,137,12,1,stim/Step_2.wav,stim/Step_6.wav,-4,1
,,,,,,,,,,,,60c24c8ec01a8596ba5c8b85,001,2022-03-09_12h08.20.393,vct_new,2021.2.3,MacIntel,12.65822785,0,0,1.109,2,40,138,5,1,stim/Step_1.wav,stim/Step_6.wav,-5,1
,,,,,,,,,,,,60c24c8ec01a8596ba5c8b85,001,2022-03-09_12h08.20.393,vct_new,2021.2.3,MacIntel,12.65822785,0,0,1.054,2,41,139,45,1,stim/Step_7.wav,stim/Step_4.wav,3,1
,,,,,,,,,,,,60c24c8ec01a8596ba5c8b85,001,2022-03-09_12h08.20.393,vct_new,2021.2.3,MacIntel,12.65822785,1,1,1.138,2,42,140,9,1,stim/Step_2.wav,stim/Step_3.wav,-1,1
,,,,,,,,,,,,60c24c8ec01a8596ba5c8b85,001,2022-03-09_12h08.20.393,vct_new,2021.2.3,MacIntel,12.65822785,0,0,1.152,2,43,141,39,1,stim/Step_6.wav,stim/Step_5.wav,1,1
,,,,,,,,,,,,60c24c8ec01a8596ba5c8b85,001,2022-03-09_12h08.20.393,vct_new,2021.2.3,MacIntel,12.65822785,0,0,1.058,2,44,142,22,1,stim/Step_4.wav,stim/Step_2.wav,2,1
,,,,,,,,,,,,60c24c8ec01a8596ba5c8b85,001,2022-03-09_12h08.20.393,vct_new,2021.2.3,MacIntel,12.65822785,0,0,5.433,2,45,143,3,1,stim/Step_1.wav,stim/Step_4.wav,-3,1
,,,,,,,,,,,,60c24c8ec01a8596ba5c8b85,001,2022-03-09_12h08.20.393,vct_new,2021.2.3,MacIntel,12.65822785,0,0,1.175,2,46,144,6,1,stim/Step_1.wav,stim/Step_7.wav,-6,1
,,,,,,,,,,,,60c24c8ec01a8596ba5c8b85,001,2022-03-09_12h08.20.393,vct_new,2021.2.3,MacIntel,12.65822785,0,0,1.336,2,47,145,42,1,stim/Step_7.wav,stim/Step_1.wav,6,1
,,,,,,,,,,,,60c24c8ec01a8596ba5c8b85,001,2022-03-09_12h08.20.393,vct_new,2021.2.3,MacIntel,12.65822785,1,1,0.685,2,48,146,21,1,stim/Step_4.wav,stim/Step_1.wav,3,1
