key_resp.keys,key_resp.rt,key_resp_2.keys,key_resp_2.rt,slider.response,slider.rt,trials.thisRepN,trials.thisTrialN,trials.thisN,trials.thisIndex,trials.ran,stim,participant,session,date,expName,psychopyVersion,OS,frameRate,key_resp_trial.keys,key_resp_trial.corr,key_resp_trial.rt,trials_2.thisRepN,trials_2.thisTrialN,trials_2.thisN,trials_2.thisIndex,trials_2.ran,stim1,stim2,distance,isCorrect
space,1.121,2,4.199,3.975238095,1.279,0,0,0,7,1,stim/pof_g.wav,60c24c8ec01a8596ba5c8b85,001,2022-03-09_12h21.03.000,vct_new,2021.2.3,MacIntel,14.49275362,,,,,,,,,,,,
,,2,8.305,4.779047619,1.019,0,1,1,1,1,stim/faf_g.wav,60c24c8ec01a8596ba5c8b85,001,2022-03-09_12h21.03.000,vct_new,2021.2.3,MacIntel,14.49275362,,,,,,,,,,,,
,,7,3.614,4.779047619,0.624,0,2,2,6,1,stim/piep_g.wav,60c24c8ec01a8596ba5c8b85,001,2022-03-09_12h21.03.000,vct_new,2021.2.3,MacIntel,14.49275362,,,,,,,,,,,,
,,6,2.821,4.005714286,1.739,0,3,3,4,1,stim/p_schwa_g.wav,60c24c8ec01a8596ba5c8b85,001,2022-03-09_12h21.03.000,vct_new,2021.2.3,MacIntel,14.49275362,,,,,,,,,,,,
,,4,16.917,2.939047619,1.87,0,4,4,0,1,stim/f_schwa_g.wav,60c24c8ec01a8596ba5c8b85,001,2022-03-09_12h21.03.000,vct_new,2021.2.3,MacIntel,14.49275362,,,,,,,,,,,,
,,3,3.535,4.885714286,1.191,0,5,5,2,1,stim/fif_g.wav,60c24c8ec01a8596ba5c8b85,001,2022-03-09_12h21.03.000,vct_new,2021.2.3,MacIntel,14.49275362,,,,,,,,,,,,
,,2,5.283,3.994285714,0.788,0,6,6,3,1,stim/fof_g.wav,60c24c8ec01a8596ba5c8b85,001,2022-03-09_12h21.03.000,vct_new,2021.2.3,MacIntel,14.49275362,,,,,,,,,,,,
,,1,6.055,2.219047619,2.194,0,7,7,5,1,stim/paf_g.wav,60c24c8ec01a8596ba5c8b85,001,2022-03-09_12h21.03.000,vct_new,2021.2.3,MacIntel,14.49275362,,,,,,,,,,,,
,,1,4.319,4.874285714,1.942,1,0,8,1,1,stim/faf_g.wav,60c24c8ec01a8596ba5c8b85,001,2022-03-09_12h21.03.000,vct_new,2021.2.3,MacIntel,14.49275362,,,,,,,,,,,,
,,2,13.201,2.44,1.337,1,1,9,5,1,stim/paf_g.wav,60c24c8ec01a8596ba5c8b85,001,2022-03-09_12h21.03.000,vct_new,2021.2.3,MacIntel,14.49275362,,,,,,,,,,,,
,,2,8.591,4.047619048,1.239,1,2,10,7,1,stim/pof_g.wav,60c24c8ec01a8596ba5c8b85,001,2022-03-09_12h21.03.000,vct_new,2021.2.3,MacIntel,14.49275362,,,,,,,,,,,,
,,5,5.496,1.933333333,1.572,1,3,11,3,1,stim/fof_g.wav,60c24c8ec01a8596ba5c8b85,001,2022-03-09_12h21.03.000,vct_new,2021.2.3,MacIntel,14.49275362,,,,,,,,,,,,
,,4,6.194,4.855238095,1.819,1,4,12,0,1,stim/f_schwa_g.wav,60c24c8ec01a8596ba5c8b85,001,2022-03-09_12h21.03.000,vct_new,2021.2.3,MacIntel,14.49275362,,,,,,,,,,,,
,,7,4.088,4.699047619,1.238,1,5,13,6,1,stim/piep_g.wav,60c24c8ec01a8596ba5c8b85,001,2022-03-09_12h21.03.000,vct_new,2021.2.3,MacIntel,14.49275362,,,,,,,,,,,,
,,4,2.417,4.881904762,2.755,1,6,14,4,1,stim/p_schwa_g.wav,60c24c8ec01a8596ba5c8b85,001,2022-03-09_12h21.03.000,vct_new,2021.2.3,MacIntel,14.49275362,,,,,,,,,,,,
,,3,2.809,4.824761905,1.188,1,7,15,2,1,stim/fif_g.wav,60c24c8ec01a8596ba5c8b85,001,2022-03-09_12h21.03.000,vct_new,2021.2.3,MacIntel,14.49275362,,,,,,,,,,,,
,,2,2.44,3.36952381,1.238,2,0,16,1,1,stim/faf_g.wav,60c24c8ec01a8596ba5c8b85,001,2022-03-09_12h21.03.000,vct_new,2021.2.3,MacIntel,14.49275362,,,,,,,,,,,,
,,7,2.933,4.817142857,1.387,2,1,17,2,1,stim/fif_g.wav,60c24c8ec01a8596ba5c8b85,001,2022-03-09_12h21.03.000,vct_new,2021.2.3,MacIntel,14.49275362,,,,,,,,,,,,
,,3,2.333,3.963809524,0.936,2,2,18,6,1,stim/piep_g.wav,60c24c8ec01a8596ba5c8b85,001,2022-03-09_12h21.03.000,vct_new,2021.2.3,MacIntel,14.49275362,,,,,,,,,,,,
,,2,3.296,2.996190476,1.038,2,3,19,5,1,stim/paf_g.wav,60c24c8ec01a8596ba5c8b85,001,2022-03-09_12h21.03.000,vct_new,2021.2.3,MacIntel,14.49275362,,,,,,,,,,,,
,,6,3.193,4.79047619,1.005,2,4,20,4,1,stim/p_schwa_g.wav,60c24c8ec01a8596ba5c8b85,001,2022-03-09_12h21.03.000,vct_new,2021.2.3,MacIntel,14.49275362,,,,,,,,,,,,
,,5,3.911,4.036190476,1.688,2,5,21,3,1,stim/fof_g.wav,60c24c8ec01a8596ba5c8b85,001,2022-03-09_12h21.03.000,vct_new,2021.2.3,MacIntel,14.49275362,,,,,,,,,,,,
,,4,6.719,4.382857143,0.902,2,6,22,0,1,stim/f_schwa_g.wav,60c24c8ec01a8596ba5c8b85,001,2022-03-09_12h21.03.000,vct_new,2021.2.3,MacIntel,14.49275362,,,,,,,,,,,,
,,5,5.334,3.971428571,1.105,2,7,23,7,1,stim/pof_g.wav,60c24c8ec01a8596ba5c8b85,001,2022-03-09_12h21.03.000,vct_new,2021.2.3,MacIntel,14.49275362,,,,,,,,,,,,
,,,,,,,,,,,,60c24c8ec01a8596ba5c8b85,001,2022-03-09_12h21.03.000,vct_new,2021.2.3,MacIntel,14.49275362,1,1,1.283,0,0,0,5,1,stim/Step_1.wav,stim/Step_6.wav,-5,1
,,,,,,,,,,,,60c24c8ec01a8596ba5c8b85,001,2022-03-09_12h21.03.000,vct_new,2021.2.3,MacIntel,14.49275362,1,1,0.918,0,1,1,45,1,stim/Step_7.wav,stim/Step_4.wav,3,1
,,,,,,,,,,,,60c24c8ec01a8596ba5c8b85,001,2022-03-09_12h21.03.000,vct_new,2021.2.3,MacIntel,14.49275362,0,0,1.491,0,2,2,13,1,stim/Step_2.wav,stim/Step_7.wav,-5,1
,,,,,,,,,,,,60c24c8ec01a8596ba5c8b85,001,2022-03-09_12h21.03.000,vct_new,2021.2.3,MacIntel,14.49275362,1,1,0.801,0,3,3,19,1,stim/Step_3.wav,stim/Step_6.wav,-3,1
,,,,,,,,,,,,60c24c8ec01a8596ba5c8b85,001,2022-03-09_12h21.03.000,vct_new,2021.2.3,MacIntel,14.49275362,1,1,0.726,0,4,4,31,1,stim/Step_5.wav,stim/Step_4.wav,1,1
,,,,,,,,,,,,60c24c8ec01a8596ba5c8b85,001,2022-03-09_12h21.03.000,vct_new,2021.2.3,MacIntel,14.49275362,0,0,0.991,0,5,5,12,1,stim/Step_2.wav,stim/Step_6.wav,-4,1
,,,,,,,,,,,,60c24c8ec01a8596ba5c8b85,001,2022-03-09_12h21.03.000,vct_new,2021.2.3,MacIntel,14.49275362,0,1,0.948,0,6,6,48,1,stim/Step_7.wav,stim/Step_7.wav,0,0
,,,,,,,,,,,,60c24c8ec01a8596ba5c8b85,001,2022-03-09_12h21.03.000,vct_new,2021.2.3,MacIntel,14.49275362,1,1,0.855,0,7,7,15,1,stim/Step_3.wav,stim/Step_2.wav,1,1
,,,,,,,,,,,,60c24c8ec01a8596ba5c8b85,001,2022-03-09_12h21.03.000,vct_new,2021.2.3,MacIntel,14.49275362,1,1,0.938,0,8,8,9,1,stim/Step_2.wav,stim/Step_3.wav,-1,1
,,,,,,,,,,,,60c24c8ec01a8596ba5c8b85,001,2022-03-09_12h21.03.000,vct_new,2021.2.3,MacIntel,14.49275362,0,0,1.718,0,9,9,46,1,stim/Step_7.wav,stim/Step_5.wav,2,1
,,,,,,,,,,,,60c24c8ec01a8596ba5c8b85,001,2022-03-09_12h21.03.000,vct_new,2021.2.3,MacIntel,14.49275362,0,0,1.101,0,10,10,42,1,stim/Step_7.wav,stim/Step_1.wav,6,1
,,,,,,,,,,,,60c24c8ec01a8596ba5c8b85,001,2022-03-09_12h21.03.000,vct_new,2021.2.3,MacIntel,14.49275362,1,1,1.102,0,11,11,21,1,stim/Step_4.wav,stim/Step_1.wav,3,1
,,,,,,,,,,,,60c24c8ec01a8596ba5c8b85,001,2022-03-09_12h21.03.000,vct_new,2021.2.3,MacIntel,14.49275362,1,0,1.27,0,12,12,8,1,stim/Step_2.wav,stim/Step_2.wav,0,0
,,,,,,,,,,,,60c24c8ec01a8596ba5c8b85,001,2022-03-09_12h21.03.000,vct_new,2021.2.3,MacIntel,14.49275362,1,1,1.92,0,13,13,30,1,stim/Step_5.wav,stim/Step_3.wav,2,1
,,,,,,,,,,,,60c24c8ec01a8596ba5c8b85,001,2022-03-09_12h21.03.000,vct_new,2021.2.3,MacIntel,14.49275362,1,0,1.183,0,14,14,24,1,stim/Step_4.wav,stim/Step_4.wav,0,0
,,,,,,,,,,,,60c24c8ec01a8596ba5c8b85,001,2022-03-09_12h21.03.000,vct_new,2021.2.3,MacIntel,14.49275362,1,1,2.068,0,15,15,17,1,stim/Step_3.wav,stim/Step_4.wav,-1,1
,,,,,,,,,,,,60c24c8ec01a8596ba5c8b85,001,2022-03-09_12h21.03.000,vct_new,2021.2.3,MacIntel,14.49275362,1,1,1.65,0,16,16,44,1,stim/Step_7.wav,stim/Step_3.wav,4,1
,,,,,,,,,,,,60c24c8ec01a8596ba5c8b85,001,2022-03-09_12h21.03.000,vct_new,2021.2.3,MacIntel,14.49275362,0,0,1.175,0,17,17,37,1,stim/Step_6.wav,stim/Step_3.wav,3,1
,,,,,,,,,,,,60c24c8ec01a8596ba5c8b85,001,2022-03-09_12h21.03.000,vct_new,2021.2.3,MacIntel,14.49275362,1,1,1.053,0,18,18,1,1,stim/Step_1.wav,stim/Step_2.wav,-1,1
,,,,,,,,,,,,60c24c8ec01a8596ba5c8b85,001,2022-03-09_12h21.03.000,vct_new,2021.2.3,MacIntel,14.49275362,0,0,1.252,0,19,19,4,1,stim/Step_1.wav,stim/Step_5.wav,-4,1
,,,,,,,,,,,,60c24c8ec01a8596ba5c8b85,001,2022-03-09_12h21.03.000,vct_new,2021.2.3,MacIntel,14.49275362,1,1,1.15,0,20,20,2,1,stim/Step_1.wav,stim/Step_3.wav,-2,1
,,,,,,,,,,,,60c24c8ec01a8596ba5c8b85,001,2022-03-09_12h21.03.000,vct_new,2021.2.3,MacIntel,14.49275362,1,1,1.61,0,21,21,33,1,stim/Step_5.wav,stim/Step_6.wav,-1,1
,,,,,,,,,,,,60c24c8ec01a8596ba5c8b85,001,2022-03-09_12h21.03.000,vct_new,2021.2.3,MacIntel,14.49275362,1,1,1.404,0,22,22,47,1,stim/Step_7.wav,stim/Step_6.wav,1,1
,,,,,,,,,,,,60c24c8ec01a8596ba5c8b85,001,2022-03-09_12h21.03.000,vct_new,2021.2.3,MacIntel,14.49275362,1,1,1.192,0,23,23,39,1,stim/Step_6.wav,stim/Step_5.wav,1,1
,,,,,,,,,,,,60c24c8ec01a8596ba5c8b85,001,2022-03-09_12h21.03.000,vct_new,2021.2.3,MacIntel,14.49275362,1,1,1.375,0,24,24,41,1,stim/Step_6.wav,stim/Step_7.wav,-1,1
,,,,,,,,,,,,60c24c8ec01a8596ba5c8b85,001,2022-03-09_12h21.03.000,vct_new,2021.2.3,MacIntel,14.49275362,0,0,0.994,0,25,25,3,1,stim/Step_1.wav,stim/Step_4.wav,-3,1
,,,,,,,,,,,,60c24c8ec01a8596ba5c8b85,001,2022-03-09_12h21.03.000,vct_new,2021.2.3,MacIntel,14.49275362,0,0,1.553,0,26,26,20,1,stim/Step_3.wav,stim/Step_7.wav,-4,1
,,,,,,,,,,,,60c24c8ec01a8596ba5c8b85,001,2022-03-09_12h21.03.000,vct_new,2021.2.3,MacIntel,14.49275362,0,0,1.16,0,27,27,35,1,stim/Step_6.wav,stim/Step_1.wav,5,1
,,,,,,,,,,,,60c24c8ec01a8596ba5c8b85,001,2022-03-09_12h21.03.000,vct_new,2021.2.3,MacIntel,14.49275362,1,0,1.151,0,28,28,0,1,stim/Step_1.wav,stim/Step_1.wav,0,0
,,,,,,,,,,,,60c24c8ec01a8596ba5c8b85,001,2022-03-09_12h21.03.000,vct_new,2021.2.3,MacIntel,14.49275362,1,1,1.052,0,29,29,28,1,stim/Step_5.wav,stim/Step_1.wav,4,1
,,,,,,,,,,,,60c24c8ec01a8596ba5c8b85,001,2022-03-09_12h21.03.000,vct_new,2021.2.3,MacIntel,14.49275362,0,0,1.272,0,30,30,38,1,stim/Step_6.wav,stim/Step_4.wav,2,1
,,,,,,,,,,,,60c24c8ec01a8596ba5c8b85,001,2022-03-09_12h21.03.000,vct_new,2021.2.3,MacIntel,14.49275362,0,0,1.351,0,31,31,26,1,stim/Step_4.wav,stim/Step_6.wav,-2,1
,,,,,,,,,,,,60c24c8ec01a8596ba5c8b85,001,2022-03-09_12h21.03.000,vct_new,2021.2.3,MacIntel,14.49275362,0,1,1.922,0,32,32,32,1,stim/Step_5.wav,stim/Step_5.wav,0,0
,,,,,,,,,,,,60c24c8ec01a8596ba5c8b85,001,2022-03-09_12h21.03.000,vct_new,2021.2.3,MacIntel,14.49275362,0,0,1.061,0,33,33,29,1,stim/Step_5.wav,stim/Step_2.wav,3,1
,,,,,,,,,,,,60c24c8ec01a8596ba5c8b85,001,2022-03-09_12h21.03.000,vct_new,2021.2.3,MacIntel,14.49275362,0,0,1.566,0,34,34,18,1,stim/Step_3.wav,stim/Step_5.wav,-2,1
,,,,,,,,,,,,60c24c8ec01a8596ba5c8b85,001,2022-03-09_12h21.03.000,vct_new,2021.2.3,MacIntel,14.49275362,0,0,1.334,0,35,35,22,1,stim/Step_4.wav,stim/Step_2.wav,2,1
,,,,,,,,,,,,60c24c8ec01a8596ba5c8b85,001,2022-03-09_12h21.03.000,vct_new,2021.2.3,MacIntel,14.49275362,0,0,0.971,0,36,36,6,1,stim/Step_1.wav,stim/Step_7.wav,-6,1
,,,,,,,,,,,,60c24c8ec01a8596ba5c8b85,001,2022-03-09_12h21.03.000,vct_new,2021.2.3,MacIntel,14.49275362,1,1,1.101,0,37,37,23,1,stim/Step_4.wav,stim/Step_3.wav,1,1
,,,,,,,,,,,,60c24c8ec01a8596ba5c8b85,001,2022-03-09_12h21.03.000,vct_new,2021.2.3,MacIntel,14.49275362,0,0,1.058,0,38,38,25,1,stim/Step_4.wav,stim/Step_5.wav,-1,1
,,,,,,,,,,,,60c24c8ec01a8596ba5c8b85,001,2022-03-09_12h21.03.000,vct_new,2021.2.3,MacIntel,14.49275362,1,0,1.283,0,39,39,40,1,stim/Step_6.wav,stim/Step_6.wav,0,0
,,,,,,,,,,,,60c24c8ec01a8596ba5c8b85,001,2022-03-09_12h21.03.000,vct_new,2021.2.3,MacIntel,14.49275362,1,1,1.559,0,40,40,36,1,stim/Step_6.wav,stim/Step_2.wav,4,1
,,,,,,,,,,,,60c24c8ec01a8596ba5c8b85,001,2022-03-09_12h21.03.000,vct_new,2021.2.3,MacIntel,14.49275362,1,1,1.177,0,41,41,10,1,stim/Step_2.wav,stim/Step_4.wav,-2,1
,,,,,,,,,,,,60c24c8ec01a8596ba5c8b85,001,2022-03-09_12h21.03.000,vct_new,2021.2.3,MacIntel,14.49275362,0,0,1.183,0,42,42,14,1,stim/Step_3.wav,stim/Step_1.wav,2,1
,,,,,,,,,,,,60c24c8ec01a8596ba5c8b85,001,2022-03-09_12h21.03.000,vct_new,2021.2.3,MacIntel,14.49275362,1,0,1.401,0,43,43,16,1,stim/Step_3.wav,stim/Step_3.wav,0,0
,,,,,,,,,,,,60c24c8ec01a8596ba5c8b85,001,2022-03-09_12h21.03.000,vct_new,2021.2.3,MacIntel,14.49275362,0,0,1.457,0,44,44,43,1,stim/Step_7.wav,stim/Step_2.wav,5,1
,,,,,,,,,,,,60c24c8ec01a8596ba5c8b85,001,2022-03-09_12h21.03.000,vct_new,2021.2.3,MacIntel,14.49275362,1,1,1.736,0,45,45,7,1,stim/Step_2.wav,stim/Step_1.wav,1,1
,,,,,,,,,,,,60c24c8ec01a8596ba5c8b85,001,2022-03-09_12h21.03.000,vct_new,2021.2.3,MacIntel,14.49275362,0,0,2.451,0,46,46,34,1,stim/Step_5.wav,stim/Step_7.wav,-2,1
,,,,,,,,,,,,60c24c8ec01a8596ba5c8b85,001,2022-03-09_12h21.03.000,vct_new,2021.2.3,MacIntel,14.49275362,0,0,1.422,0,47,47,11,1,stim/Step_2.wav,stim/Step_5.wav,-3,1
,,,,,,,,,,,,60c24c8ec01a8596ba5c8b85,001,2022-03-09_12h21.03.000,vct_new,2021.2.3,MacIntel,14.49275362,0,0,1.121,0,48,48,27,1,stim/Step_4.wav,stim/Step_7.wav,-3,1
,,,,,,,,,,,,60c24c8ec01a8596ba5c8b85,001,2022-03-09_12h21.03.000,vct_new,2021.2.3,MacIntel,14.49275362,0,0,1.05,1,0,49,6,1,stim/Step_1.wav,stim/Step_7.wav,-6,1
,,,,,,,,,,,,60c24c8ec01a8596ba5c8b85,001,2022-03-09_12h21.03.000,vct_new,2021.2.3,MacIntel,14.49275362,0,0,1.068,1,1,50,19,1,stim/Step_3.wav,stim/Step_6.wav,-3,1
,,,,,,,,,,,,60c24c8ec01a8596ba5c8b85,001,2022-03-09_12h21.03.000,vct_new,2021.2.3,MacIntel,14.49275362,0,0,1.584,1,2,51,14,1,stim/Step_3.wav,stim/Step_1.wav,2,1
,,,,,,,,,,,,60c24c8ec01a8596ba5c8b85,001,2022-03-09_12h21.03.000,vct_new,2021.2.3,MacIntel,14.49275362,1,1,1.434,1,3,52,2,1,stim/Step_1.wav,stim/Step_3.wav,-2,1
,,,,,,,,,,,,60c24c8ec01a8596ba5c8b85,001,2022-03-09_12h21.03.000,vct_new,2021.2.3,MacIntel,14.49275362,1,0,1.234,1,4,53,16,1,stim/Step_3.wav,stim/Step_3.wav,0,0
,,,,,,,,,,,,60c24c8ec01a8596ba5c8b85,001,2022-03-09_12h21.03.000,vct_new,2021.2.3,MacIntel,14.49275362,0,0,0.869,1,5,54,18,1,stim/Step_3.wav,stim/Step_5.wav,-2,1
,,,,,,,,,,,,60c24c8ec01a8596ba5c8b85,001,2022-03-09_12h21.03.000,vct_new,2021.2.3,MacIntel,14.49275362,0,0,1.599,1,6,55,5,1,stim/Step_1.wav,stim/Step_6.wav,-5,1
,,,,,,,,,,,,60c24c8ec01a8596ba5c8b85,001,2022-03-09_12h21.03.000,vct_new,2021.2.3,MacIntel,14.49275362,0,1,2.318,1,7,56,32,1,stim/Step_5.wav,stim/Step_5.wav,0,0
,,,,,,,,,,,,60c24c8ec01a8596ba5c8b85,001,2022-03-09_12h21.03.000,vct_new,2021.2.3,MacIntel,14.49275362,0,0,1.02,1,8,57,26,1,stim/Step_4.wav,stim/Step_6.wav,-2,1
,,,,,,,,,,,,60c24c8ec01a8596ba5c8b85,001,2022-03-09_12h21.03.000,vct_new,2021.2.3,MacIntel,14.49275362,0,0,1.593,1,9,58,17,1,stim/Step_3.wav,stim/Step_4.wav,-1,1
,,,,,,,,,,,,60c24c8ec01a8596ba5c8b85,001,2022-03-09_12h21.03.000,vct_new,2021.2.3,MacIntel,14.49275362,0,0,0.952,1,10,59,36,1,stim/Step_6.wav,stim/Step_2.wav,4,1
,,,,,,,,,,,,60c24c8ec01a8596ba5c8b85,001,2022-03-09_12h21.03.000,vct_new,2021.2.3,MacIntel,14.49275362,0,0,1.154,1,11,60,23,1,stim/Step_4.wav,stim/Step_3.wav,1,1
,,,,,,,,,,,,60c24c8ec01a8596ba5c8b85,001,2022-03-09_12h21.03.000,vct_new,2021.2.3,MacIntel,14.49275362,0,0,1.037,1,12,61,42,1,stim/Step_7.wav,stim/Step_1.wav,6,1
,,,,,,,,,,,,60c24c8ec01a8596ba5c8b85,001,2022-03-09_12h21.03.000,vct_new,2021.2.3,MacIntel,14.49275362,1,0,1.052,1,13,62,40,1,stim/Step_6.wav,stim/Step_6.wav,0,0
,,,,,,,,,,,,60c24c8ec01a8596ba5c8b85,001,2022-03-09_12h21.03.000,vct_new,2021.2.3,MacIntel,14.49275362,1,1,1.683,1,14,63,27,1,stim/Step_4.wav,stim/Step_7.wav,-3,1
,,,,,,,,,,,,60c24c8ec01a8596ba5c8b85,001,2022-03-09_12h21.03.000,vct_new,2021.2.3,MacIntel,14.49275362,0,0,5.85,1,15,64,22,1,stim/Step_4.wav,stim/Step_2.wav,2,1
,,,,,,,,,,,,60c24c8ec01a8596ba5c8b85,001,2022-03-09_12h21.03.000,vct_new,2021.2.3,MacIntel,14.49275362,1,1,1.052,1,16,65,9,1,stim/Step_2.wav,stim/Step_3.wav,-1,1
,,,,,,,,,,,,60c24c8ec01a8596ba5c8b85,001,2022-03-09_12h21.03.000,vct_new,2021.2.3,MacIntel,14.49275362,1,1,1.071,1,17,66,3,1,stim/Step_1.wav,stim/Step_4.wav,-3,1
,,,,,,,,,,,,60c24c8ec01a8596ba5c8b85,001,2022-03-09_12h21.03.000,vct_new,2021.2.3,MacIntel,14.49275362,0,0,1.601,1,18,67,45,1,stim/Step_7.wav,stim/Step_4.wav,3,1
,,,,,,,,,,,,60c24c8ec01a8596ba5c8b85,001,2022-03-09_12h21.03.000,vct_new,2021.2.3,MacIntel,14.49275362,1,1,1.32,1,19,68,39,1,stim/Step_6.wav,stim/Step_5.wav,1,1
,,,,,,,,,,,,60c24c8ec01a8596ba5c8b85,001,2022-03-09_12h21.03.000,vct_new,2021.2.3,MacIntel,14.49275362,0,0,2.042,1,20,69,13,1,stim/Step_2.wav,stim/Step_7.wav,-5,1
,,,,,,,,,,,,60c24c8ec01a8596ba5c8b85,001,2022-03-09_12h21.03.000,vct_new,2021.2.3,MacIntel,14.49275362,0,0,1.734,1,21,70,38,1,stim/Step_6.wav,stim/Step_4.wav,2,1
,,,,,,,,,,,,60c24c8ec01a8596ba5c8b85,001,2022-03-09_12h21.03.000,vct_new,2021.2.3,MacIntel,14.49275362,1,1,1.353,1,22,71,4,1,stim/Step_1.wav,stim/Step_5.wav,-4,1
,,,,,,,,,,,,60c24c8ec01a8596ba5c8b85,001,2022-03-09_12h21.03.000,vct_new,2021.2.3,MacIntel,14.49275362,1,0,1.06,1,23,72,8,1,stim/Step_2.wav,stim/Step_2.wav,0,0
,,,,,,,,,,,,60c24c8ec01a8596ba5c8b85,001,2022-03-09_12h21.03.000,vct_new,2021.2.3,MacIntel,14.49275362,0,0,0.937,1,24,73,43,1,stim/Step_7.wav,stim/Step_2.wav,5,1
,,,,,,,,,,,,60c24c8ec01a8596ba5c8b85,001,2022-03-09_12h21.03.000,vct_new,2021.2.3,MacIntel,14.49275362,0,0,1.082,1,25,74,25,1,stim/Step_4.wav,stim/Step_5.wav,-1,1
,,,,,,,,,,,,60c24c8ec01a8596ba5c8b85,001,2022-03-09_12h21.03.000,vct_new,2021.2.3,MacIntel,14.49275362,0,0,0.973,1,26,75,29,1,stim/Step_5.wav,stim/Step_2.wav,3,1
,,,,,,,,,,,,60c24c8ec01a8596ba5c8b85,001,2022-03-09_12h21.03.000,vct_new,2021.2.3,MacIntel,14.49275362,0,0,0.897,1,27,76,12,1,stim/Step_2.wav,stim/Step_6.wav,-4,1
,,,,,,,,,,,,60c24c8ec01a8596ba5c8b85,001,2022-03-09_12h21.03.000,vct_new,2021.2.3,MacIntel,14.49275362,0,0,1.003,1,28,77,35,1,stim/Step_6.wav,stim/Step_1.wav,5,1
,,,,,,,,,,,,60c24c8ec01a8596ba5c8b85,001,2022-03-09_12h21.03.000,vct_new,2021.2.3,MacIntel,14.49275362,0,0,0.917,1,29,78,47,1,stim/Step_7.wav,stim/Step_6.wav,1,1
,,,,,,,,,,,,60c24c8ec01a8596ba5c8b85,001,2022-03-09_12h21.03.000,vct_new,2021.2.3,MacIntel,14.49275362,1,1,0.986,1,30,79,41,1,stim/Step_6.wav,stim/Step_7.wav,-1,1
,,,,,,,,,,,,60c24c8ec01a8596ba5c8b85,001,2022-03-09_12h21.03.000,vct_new,2021.2.3,MacIntel,14.49275362,0,0,0.974,1,31,80,21,1,stim/Step_4.wav,stim/Step_1.wav,3,1
,,,,,,,,,,,,60c24c8ec01a8596ba5c8b85,001,2022-03-09_12h21.03.000,vct_new,2021.2.3,MacIntel,14.49275362,1,1,0.976,1,32,81,7,1,stim/Step_2.wav,stim/Step_1.wav,1,1
,,,,,,,,,,,,60c24c8ec01a8596ba5c8b85,001,2022-03-09_12h21.03.000,vct_new,2021.2.3,MacIntel,14.49275362,1,1,1.843,1,33,82,33,1,stim/Step_5.wav,stim/Step_6.wav,-1,1
,,,,,,,,,,,,60c24c8ec01a8596ba5c8b85,001,2022-03-09_12h21.03.000,vct_new,2021.2.3,MacIntel,14.49275362,0,0,3.019,1,34,83,31,1,stim/Step_5.wav,stim/Step_4.wav,1,1
,,,,,,,,,,,,60c24c8ec01a8596ba5c8b85,001,2022-03-09_12h21.03.000,vct_new,2021.2.3,MacIntel,14.49275362,1,1,1.017,1,35,84,34,1,stim/Step_5.wav,stim/Step_7.wav,-2,1
,,,,,,,,,,,,60c24c8ec01a8596ba5c8b85,001,2022-03-09_12h21.03.000,vct_new,2021.2.3,MacIntel,14.49275362,1,0,1.35,1,36,85,48,1,stim/Step_7.wav,stim/Step_7.wav,0,0
,,,,,,,,,,,,60c24c8ec01a8596ba5c8b85,001,2022-03-09_12h21.03.000,vct_new,2021.2.3,MacIntel,14.49275362,0,0,1.286,1,37,86,15,1,stim/Step_3.wav,stim/Step_2.wav,1,1
,,,,,,,,,,,,60c24c8ec01a8596ba5c8b85,001,2022-03-09_12h21.03.000,vct_new,2021.2.3,MacIntel,14.49275362,0,0,1.989,1,38,87,46,1,stim/Step_7.wav,stim/Step_5.wav,2,1
,,,,,,,,,,,,60c24c8ec01a8596ba5c8b85,001,2022-03-09_12h21.03.000,vct_new,2021.2.3,MacIntel,14.49275362,1,1,1.051,1,39,88,10,1,stim/Step_2.wav,stim/Step_4.wav,-2,1
,,,,,,,,,,,,60c24c8ec01a8596ba5c8b85,001,2022-03-09_12h21.03.000,vct_new,2021.2.3,MacIntel,14.49275362,0,0,1.135,1,40,89,28,1,stim/Step_5.wav,stim/Step_1.wav,4,1
,,,,,,,,,,,,60c24c8ec01a8596ba5c8b85,001,2022-03-09_12h21.03.000,vct_new,2021.2.3,MacIntel,14.49275362,0,0,1.415,1,41,90,37,1,stim/Step_6.wav,stim/Step_3.wav,3,1
,,,,,,,,,,,,60c24c8ec01a8596ba5c8b85,001,2022-03-09_12h21.03.000,vct_new,2021.2.3,MacIntel,14.49275362,1,0,1.122,1,42,91,24,1,stim/Step_4.wav,stim/Step_4.wav,0,0
,,,,,,,,,,,,60c24c8ec01a8596ba5c8b85,001,2022-03-09_12h21.03.000,vct_new,2021.2.3,MacIntel,14.49275362,1,0,0.961,1,43,92,0,1,stim/Step_1.wav,stim/Step_1.wav,0,0
,,,,,,,,,,,,60c24c8ec01a8596ba5c8b85,001,2022-03-09_12h21.03.000,vct_new,2021.2.3,MacIntel,14.49275362,1,1,0.905,1,44,93,1,1,stim/Step_1.wav,stim/Step_2.wav,-1,1
,,,,,,,,,,,,60c24c8ec01a8596ba5c8b85,001,2022-03-09_12h21.03.000,vct_new,2021.2.3,MacIntel,14.49275362,0,0,0.822,1,45,94,11,1,stim/Step_2.wav,stim/Step_5.wav,-3,1
,,,,,,,,,,,,60c24c8ec01a8596ba5c8b85,001,2022-03-09_12h21.03.000,vct_new,2021.2.3,MacIntel,14.49275362,0,0,1.22,1,46,95,44,1,stim/Step_7.wav,stim/Step_3.wav,4,1
,,,,,,,,,,,,60c24c8ec01a8596ba5c8b85,001,2022-03-09_12h21.03.000,vct_new,2021.2.3,MacIntel,14.49275362,0,0,1.709,1,47,96,30,1,stim/Step_5.wav,stim/Step_3.wav,2,1
,,,,,,,,,,,,60c24c8ec01a8596ba5c8b85,001,2022-03-09_12h21.03.000,vct_new,2021.2.3,MacIntel,14.49275362,0,0,0.94,1,48,97,20,1,stim/Step_3.wav,stim/Step_7.wav,-4,1
,,,,,,,,,,,,60c24c8ec01a8596ba5c8b85,001,2022-03-09_12h21.03.000,vct_new,2021.2.3,MacIntel,14.49275362,1,1,1.264,2,0,98,34,1,stim/Step_5.wav,stim/Step_7.wav,-2,1
,,,,,,,,,,,,60c24c8ec01a8596ba5c8b85,001,2022-03-09_12h21.03.000,vct_new,2021.2.3,MacIntel,14.49275362,1,1,2.026,2,1,99,13,1,stim/Step_2.wav,stim/Step_7.wav,-5,1
,,,,,,,,,,,,60c24c8ec01a8596ba5c8b85,001,2022-03-09_12h21.03.000,vct_new,2021.2.3,MacIntel,14.49275362,1,1,1.849,2,2,100,6,1,stim/Step_1.wav,stim/Step_7.wav,-6,1
,,,,,,,,,,,,60c24c8ec01a8596ba5c8b85,001,2022-03-09_12h21.03.000,vct_new,2021.2.3,MacIntel,14.49275362,1,0,1.099,2,3,101,8,1,stim/Step_2.wav,stim/Step_2.wav,0,0
,,,,,,,,,,,,60c24c8ec01a8596ba5c8b85,001,2022-03-09_12h21.03.000,vct_new,2021.2.3,MacIntel,14.49275362,0,0,1.531,2,4,102,44,1,stim/Step_7.wav,stim/Step_3.wav,4,1
,,,,,,,,,,,,60c24c8ec01a8596ba5c8b85,001,2022-03-09_12h21.03.000,vct_new,2021.2.3,MacIntel,14.49275362,1,1,1.219,2,5,103,47,1,stim/Step_7.wav,stim/Step_6.wav,1,1
,,,,,,,,,,,,60c24c8ec01a8596ba5c8b85,001,2022-03-09_12h21.03.000,vct_new,2021.2.3,MacIntel,14.49275362,0,0,1.803,2,6,104,20,1,stim/Step_3.wav,stim/Step_7.wav,-4,1
,,,,,,,,,,,,60c24c8ec01a8596ba5c8b85,001,2022-03-09_12h21.03.000,vct_new,2021.2.3,MacIntel,14.49275362,1,1,4.883,2,7,105,19,1,stim/Step_3.wav,stim/Step_6.wav,-3,1
,,,,,,,,,,,,60c24c8ec01a8596ba5c8b85,001,2022-03-09_12h21.03.000,vct_new,2021.2.3,MacIntel,14.49275362,0,0,3.554,2,8,106,18,1,stim/Step_3.wav,stim/Step_5.wav,-2,1
,,,,,,,,,,,,60c24c8ec01a8596ba5c8b85,001,2022-03-09_12h21.03.000,vct_new,2021.2.3,MacIntel,14.49275362,0,0,1.182,2,9,107,36,1,stim/Step_6.wav,stim/Step_2.wav,4,1
,,,,,,,,,,,,60c24c8ec01a8596ba5c8b85,001,2022-03-09_12h21.03.000,vct_new,2021.2.3,MacIntel,14.49275362,1,1,1.197,2,10,108,23,1,stim/Step_4.wav,stim/Step_3.wav,1,1
,,,,,,,,,,,,60c24c8ec01a8596ba5c8b85,001,2022-03-09_12h21.03.000,vct_new,2021.2.3,MacIntel,14.49275362,1,1,1.367,2,11,109,21,1,stim/Step_4.wav,stim/Step_1.wav,3,1
,,,,,,,,,,,,60c24c8ec01a8596ba5c8b85,001,2022-03-09_12h21.03.000,vct_new,2021.2.3,MacIntel,14.49275362,1,1,0.913,2,12,110,22,1,stim/Step_4.wav,stim/Step_2.wav,2,1
,,,,,,,,,,,,60c24c8ec01a8596ba5c8b85,001,2022-03-09_12h21.03.000,vct_new,2021.2.3,MacIntel,14.49275362,1,1,0.97,2,13,111,9,1,stim/Step_2.wav,stim/Step_3.wav,-1,1
,,,,,,,,,,,,60c24c8ec01a8596ba5c8b85,001,2022-03-09_12h21.03.000,vct_new,2021.2.3,MacIntel,14.49275362,1,1,1.026,2,14,112,2,1,stim/Step_1.wav,stim/Step_3.wav,-2,1
,,,,,,,,,,,,60c24c8ec01a8596ba5c8b85,001,2022-03-09_12h21.03.000,vct_new,2021.2.3,MacIntel,14.49275362,1,1,0.985,2,15,113,17,1,stim/Step_3.wav,stim/Step_4.wav,-1,1
,,,,,,,,,,,,60c24c8ec01a8596ba5c8b85,001,2022-03-09_12h21.03.000,vct_new,2021.2.3,MacIntel,14.49275362,0,0,1.258,2,16,114,45,1,stim/Step_7.wav,stim/Step_4.wav,3,1
,,,,,,,,,,,,60c24c8ec01a8596ba5c8b85,001,2022-03-09_12h21.03.000,vct_new,2021.2.3,MacIntel,14.49275362,1,0,1.504,2,17,115,32,1,stim/Step_5.wav,stim/Step_5.wav,0,0
,,,,,,,,,,,,60c24c8ec01a8596ba5c8b85,001,2022-03-09_12h21.03.000,vct_new,2021.2.3,MacIntel,14.49275362,1,1,5.019,2,18,116,43,1,stim/Step_7.wav,stim/Step_2.wav,5,1
,,,,,,,,,,,,60c24c8ec01a8596ba5c8b85,001,2022-03-09_12h21.03.000,vct_new,2021.2.3,MacIntel,14.49275362,1,1,1.166,2,19,117,39,1,stim/Step_6.wav,stim/Step_5.wav,1,1
,,,,,,,,,,,,60c24c8ec01a8596ba5c8b85,001,2022-03-09_12h21.03.000,vct_new,2021.2.3,MacIntel,14.49275362,0,0,1.26,2,20,118,30,1,stim/Step_5.wav,stim/Step_3.wav,2,1
,,,,,,,,,,,,60c24c8ec01a8596ba5c8b85,001,2022-03-09_12h21.03.000,vct_new,2021.2.3,MacIntel,14.49275362,1,0,0.975,2,21,119,16,1,stim/Step_3.wav,stim/Step_3.wav,0,0
,,,,,,,,,,,,60c24c8ec01a8596ba5c8b85,001,2022-03-09_12h21.03.000,vct_new,2021.2.3,MacIntel,14.49275362,1,1,1.04,2,22,120,33,1,stim/Step_5.wav,stim/Step_6.wav,-1,1
,,,,,,,,,,,,60c24c8ec01a8596ba5c8b85,001,2022-03-09_12h21.03.000,vct_new,2021.2.3,MacIntel,14.49275362,1,1,1.036,2,23,121,25,1,stim/Step_4.wav,stim/Step_5.wav,-1,1
,,,,,,,,,,,,60c24c8ec01a8596ba5c8b85,001,2022-03-09_12h21.03.000,vct_new,2021.2.3,MacIntel,14.49275362,1,1,1.007,2,24,122,26,1,stim/Step_4.wav,stim/Step_6.wav,-2,1
,,,,,,,,,,,,60c24c8ec01a8596ba5c8b85,001,2022-03-09_12h21.03.000,vct_new,2021.2.3,MacIntel,14.49275362,1,0,1.125,2,25,123,40,1,stim/Step_6.wav,stim/Step_6.wav,0,0
,,,,,,,,,,,,60c24c8ec01a8596ba5c8b85,001,2022-03-09_12h21.03.000,vct_new,2021.2.3,MacIntel,14.49275362,1,1,1.343,2,26,124,11,1,stim/Step_2.wav,stim/Step_5.wav,-3,1
,,,,,,,,,,,,60c24c8ec01a8596ba5c8b85,001,2022-03-09_12h21.03.000,vct_new,2021.2.3,MacIntel,14.49275362,1,1,2.418,2,27,125,3,1,stim/Step_1.wav,stim/Step_4.wav,-3,1
,,,,,,,,,,,,60c24c8ec01a8596ba5c8b85,001,2022-03-09_12h21.03.000,vct_new,2021.2.3,MacIntel,14.49275362,1,0,1.201,2,28,126,24,1,stim/Step_4.wav,stim/Step_4.wav,0,0
,,,,,,,,,,,,60c24c8ec01a8596ba5c8b85,001,2022-03-09_12h21.03.000,vct_new,2021.2.3,MacIntel,14.49275362,1,1,1.685,2,29,127,29,1,stim/Step_5.wav,stim/Step_2.wav,3,1
,,,,,,,,,,,,60c24c8ec01a8596ba5c8b85,001,2022-03-09_12h21.03.000,vct_new,2021.2.3,MacIntel,14.49275362,1,0,0.985,2,30,128,48,1,stim/Step_7.wav,stim/Step_7.wav,0,0
,,,,,,,,,,,,60c24c8ec01a8596ba5c8b85,001,2022-03-09_12h21.03.000,vct_new,2021.2.3,MacIntel,14.49275362,1,0,0.734,2,31,129,0,1,stim/Step_1.wav,stim/Step_1.wav,0,0
,,,,,,,,,,,,60c24c8ec01a8596ba5c8b85,001,2022-03-09_12h21.03.000,vct_new,2021.2.3,MacIntel,14.49275362,1,1,0.709,2,32,130,41,1,stim/Step_6.wav,stim/Step_7.wav,-1,1
,,,,,,,,,,,,60c24c8ec01a8596ba5c8b85,001,2022-03-09_12h21.03.000,vct_new,2021.2.3,MacIntel,14.49275362,1,1,1.397,2,33,131,28,1,stim/Step_5.wav,stim/Step_1.wav,4,1
,,,,,,,,,,,,60c24c8ec01a8596ba5c8b85,001,2022-03-09_12h21.03.000,vct_new,2021.2.3,MacIntel,14.49275362,1,1,3.267,2,34,132,35,1,stim/Step_6.wav,stim/Step_1.wav,5,1
,,,,,,,,,,,,60c24c8ec01a8596ba5c8b85,001,2022-03-09_12h21.03.000,vct_new,2021.2.3,MacIntel,14.49275362,1,1,1.019,2,35,133,46,1,stim/Step_7.wav,stim/Step_5.wav,2,1
,,,,,,,,,,,,60c24c8ec01a8596ba5c8b85,001,2022-03-09_12h21.03.000,vct_new,2021.2.3,MacIntel,14.49275362,0,0,0.95,2,36,134,14,1,stim/Step_3.wav,stim/Step_1.wav,2,1
,,,,,,,,,,,,60c24c8ec01a8596ba5c8b85,001,2022-03-09_12h21.03.000,vct_new,2021.2.3,MacIntel,14.49275362,1,1,1.117,2,37,135,1,1,stim/Step_1.wav,stim/Step_2.wav,-1,1
,,,,,,,,,,,,60c24c8ec01a8596ba5c8b85,001,2022-03-09_12h21.03.000,vct_new,2021.2.3,MacIntel,14.49275362,0,0,0.903,2,38,136,27,1,stim/Step_4.wav,stim/Step_7.wav,-3,1
,,,,,,,,,,,,60c24c8ec01a8596ba5c8b85,001,2022-03-09_12h21.03.000,vct_new,2021.2.3,MacIntel,14.49275362,0,0,0.773,2,39,137,12,1,stim/Step_2.wav,stim/Step_6.wav,-4,1
,,,,,,,,,,,,60c24c8ec01a8596ba5c8b85,001,2022-03-09_12h21.03.000,vct_new,2021.2.3,MacIntel,14.49275362,1,1,1.118,2,40,138,38,1,stim/Step_6.wav,stim/Step_4.wav,2,1
,,,,,,,,,,,,60c24c8ec01a8596ba5c8b85,001,2022-03-09_12h21.03.000,vct_new,2021.2.3,MacIntel,14.49275362,1,1,0.935,2,41,139,7,1,stim/Step_2.wav,stim/Step_1.wav,1,1
,,,,,,,,,,,,60c24c8ec01a8596ba5c8b85,001,2022-03-09_12h21.03.000,vct_new,2021.2.3,MacIntel,14.49275362,1,1,1.051,2,42,140,10,1,stim/Step_2.wav,stim/Step_4.wav,-2,1
,,,,,,,,,,,,60c24c8ec01a8596ba5c8b85,001,2022-03-09_12h21.03.000,vct_new,2021.2.3,MacIntel,14.49275362,1,1,1.069,2,43,141,15,1,stim/Step_3.wav,stim/Step_2.wav,1,1
,,,,,,,,,,,,60c24c8ec01a8596ba5c8b85,001,2022-03-09_12h21.03.000,vct_new,2021.2.3,MacIntel,14.49275362,0,0,1.232,2,44,142,37,1,stim/Step_6.wav,stim/Step_3.wav,3,1
,,,,,,,,,,,,60c24c8ec01a8596ba5c8b85,001,2022-03-09_12h21.03.000,vct_new,2021.2.3,MacIntel,14.49275362,0,0,5.686,2,45,143,31,1,stim/Step_5.wav,stim/Step_4.wav,1,1
,,,,,,,,,,,,60c24c8ec01a8596ba5c8b85,001,2022-03-09_12h21.03.000,vct_new,2021.2.3,MacIntel,14.49275362,0,0,1.071,2,46,144,4,1,stim/Step_1.wav,stim/Step_5.wav,-4,1
,,,,,,,,,,,,60c24c8ec01a8596ba5c8b85,001,2022-03-09_12h21.03.000,vct_new,2021.2.3,MacIntel,14.49275362,1,1,0.87,2,47,145,42,1,stim/Step_7.wav,stim/Step_1.wav,6,1
,,,,,,,,,,,,60c24c8ec01a8596ba5c8b85,001,2022-03-09_12h21.03.000,vct_new,2021.2.3,MacIntel,14.49275362,0,0,0.947,2,48,146,5,1,stim/Step_1.wav,stim/Step_6.wav,-5,1
