stim,stim1,stim2,distance,isCorrect,trials.thisRepN,trials.thisTrialN,trials.thisN,trials.thisIndex,trials_2.thisRepN,trials_2.thisTrialN,trials_2.thisN,trials_2.thisIndex,key_resp.keys,key_resp.rt,key_resp.started,key_resp.stopped,text.started,text.stopped,fun.started,fun.stopped,fought.started,fought.stopped,feel.started,feel.stopped,fool.started,fool.stopped,son.started,son.stopped,su.started,su.stopped,fin.started,fin.stopped,instructions_task.started,instructions_task.stopped,key_resp_2.keys,key_resp_2.rt,key_resp_2.started,key_resp_2.stopped,stimulus.started,stimulus.stopped,text_2.started,text_2.stopped,slider.response,slider.rt,slider.started,slider.stopped,text_3.started,text_3.stopped,insructions.started,insructions.stopped,sound_stim1.started,sound_stim1.stopped,sound_stim2.started,sound_stim2.stopped,text_response_same.started,text_response_same.stopped,text_response_diff.started,text_response_diff.stopped,key_resp_trial.keys,key_resp_trial.corr,key_resp_trial.started,key_resp_trial.stopped,text_trial_cross.started,text_trial_cross.stopped,key_resp_trial.rt,participant,session,date,expName,psychopyVersion,frameRate,
,,,,,,,,,,,,,space,1.0529319159977604,16.94799229199998,None,,,,,,,,,,,,,,,,,,,,,,,,,,,,,,,,,,,,,,,,,,,,,,,,,,,001,2022_Mar_09_1057,vct_new,2021.2.3,59.57965090657536,
stim/fof_g.wav,,,,,0,0,0,3,,,,,,,,,16.79944416700164,None,18.31352424999932,None,18.31352424999932,None,18.31352424999932,None,18.31352424999932,None,18.31352424999932,None,18.31352424999932,None,18.31352424999932,None,18.075354041997343,None,1,15.151926541999273,18.075354041997343,None,18.363826387499284,None,18.075354041997343,18.280911499998183,3.36,1.3149055409958237,33.262876959001005,None,33.262876959001005,None,,,,,,,,,,,,,,,,,,,001,2022_Mar_09_1057,vct_new,2021.2.3,59.57965090657536,
stim/pof_g.wav,,,,,0,1,1,7,,,,,,,,,,,34.815120792001835,None,34.815120792001835,None,34.815120792001835,None,34.815120792001835,None,34.815120792001835,None,34.815120792001835,None,34.815120792001835,None,34.58031341699825,None,4,2.533903833005752,34.58031341699825,None,34.864068596495784,None,34.58031341699825,34.78128491700045,3.36,0.5982111249977606,37.14846091700019,None,37.14846091700019,None,,,,,,,,,,,,,,,,,,,001,2022_Mar_09_1057,vct_new,2021.2.3,59.57965090657536,
stim/faf_g.wav,,,,,0,2,2,1,,,,,,,,,,,37.99719216700032,None,37.99719216700032,None,37.99719216700032,None,37.99719216700032,None,37.99719216700032,None,37.99719216700032,None,37.99719216700032,None,37.76386483399983,None,1,2.004319875006331,37.76386483399983,None,38.047308304502806,None,37.76386483399983,37.96493704200111,3.128888888888889,0.8479021250022925,39.79758629199932,None,39.79758629199932,None,,,,,,,,,,,,,,,,,,,001,2022_Mar_09_1057,vct_new,2021.2.3,59.57965090657536,
stim/piep_g.wav,,,,,0,3,3,6,,,,,,,,,,,40.89720462499827,None,40.89720462499827,None,40.89720462499827,None,40.89720462499827,None,40.89720462499827,None,40.89720462499827,None,40.89720462499827,None,40.663822666996566,None,7,6.467434291000245,40.663822666996566,None,40.94748313750024,None,40.663822666996566,40.8647633340006,3.351111111111111,1.6474060409964295,47.164064541997504,None,47.164064541997504,None,,,,,,,,,,,,,,,,,,,001,2022_Mar_09_1057,vct_new,2021.2.3,59.57965090657536,
stim/p_schwa_g.wav,,,,,0,4,4,4,,,,,,,,,,,49.06406304200209,None,49.06406304200209,None,49.06406304200209,None,49.06406304200209,None,49.06406304200209,None,49.06406304200209,None,49.06406304200209,None,48.829834333999315,None,5,2.5514405830035685,48.829834333999315,None,49.1146575124978,None,48.829834333999315,49.03138945899991,3.1911111111111112,1.2147205000001122,51.4151665419995,None,51.4151665419995,None,,,,,,,,,,,,,,,,,,,001,2022_Mar_09_1057,vct_new,2021.2.3,59.57965090657536,
stim/fif_g.wav,,,,,0,5,5,2,,,,,,,,,,,52.88109487499605,None,52.88109487499605,None,52.88109487499605,None,52.88109487499605,None,52.88109487499605,None,52.88109487499605,None,52.88109487499605,None,52.64765083399834,None,4,0.660897957997804,52.64765083399834,None,52.93098688750179,None,52.64765083399834,52.84736204199726,3.1911111111111112,0.38123704199824715,53.3310265839973,None,53.3310265839973,None,,,,,,,,,,,,,,,,,,,001,2022_Mar_09_1057,vct_new,2021.2.3,59.57965090657536,
stim/paf_g.wav,,,,,0,6,6,5,,,,,,,,,,,53.96489612499863,None,53.96489612499863,None,53.96489612499863,None,53.96489612499863,None,53.96489612499863,None,53.96489612499863,None,53.96489612499863,None,53.73110158400232,None,4,0.512288375000935,53.73110158400232,None,54.01440267949802,None,53.73110158400232,53.93174824999733,3.1911111111111112,0.2648338330036495,54.27388091699686,None,54.27388091699686,None,,,,,,,,,,,,,,,,,,,001,2022_Mar_09_1057,vct_new,2021.2.3,59.57965090657536,
stim/f_schwa_g.wav,,,,,0,7,7,0,,,,,,,,,,,54.78086333400279,None,54.78086333400279,None,54.78086333400279,None,54.78086333400279,None,54.78086333400279,None,54.78086333400279,None,54.78086333400279,None,54.548716917001,None,4,0.6185169169984874,54.548716917001,None,54.83252901250235,None,54.548716917001,54.74979483400239,3.1911111111111112,0.1815732089962694,55.197863000001234,None,55.197863000001234,None,,,,,,,,,,,,,,,,,,,001,2022_Mar_09_1057,vct_new,2021.2.3,59.57965090657536,
,stim/Step_2.wav,stim/Step_3.wav,-1,1,,,,,0,0,0,9,,,,,,,,,,,,,,,,,,,,,,,,,,,,,,,,,,,,,55.397794750002504,None,56.58099117949605,56.83180454200192,57.331878262502144,57.581932417000644,56.58215279199794,None,56.58215279199794,None,None,0,57.33167012500053,None,56.33424283399654,56.54929779200029,,,001,2022_Mar_09_1057,vct_new,2021.2.3,59.57965090657536,
,stim/Step_4.wav,stim/Step_5.wav,-1,1,,,,,0,1,1,25,,,,,,,,,,,,,,,,,,,,,,,,,,,,,,,,,,,,,,,59.56625251249643,59.83145954200154,60.31538897149876,60.564697333997174,59.565013209001336,None,59.565013209001336,None,0,0,60.315119500002766,None,59.331568166999205,59.53177566699742,1.4271667079956387,,001,2022_Mar_09_1057,vct_new,2021.2.3,59.57965090657536,
,stim/Step_3.wav,stim/Step_1.wav,2,1,,,,,0,2,2,14,,,,,,,,,,,,,,,,,,,,,,,,,,,,,,,,,,,,,,,61.99885467950226,62.24851083399699,62.74820580450178,62.99846154199622,61.998526208997646,None,61.998526208997646,None,1,1,62.749782749997394,None,61.76467012499779,61.9650639169995,0.8962508330005221,,001,2022_Mar_09_1057,vct_new,2021.2.3,59.57965090657536,
,stim/Step_3.wav,stim/Step_7.wav,-4,1,,,,,0,3,3,20,,,,,,,,,,,,,,,,,,,,,,,,,,,,,,,,,,,,,,,63.89960580449697,64.14876312499837,64.64743947149982,64.89841924999928,63.89916266700311,None,63.89916266700311,None,0,0,64.64832816700073,None,63.664595208996616,63.86582425000233,0.9487005420014611,,001,2022_Mar_09_1057,vct_new,2021.2.3,59.57965090657536,
,stim/Step_7.wav,stim/Step_6.wav,1,1,,,,,0,4,4,47,,,,,,,,,,,,,,,,,,,,,,,,,,,,,,,,,,,,,,,65.84896751249762,66.09877520900045,66.59899347149913,66.84912462499778,65.84861629200168,None,65.84861629200168,None,0,0,66.59912770899973,None,65.61516037499678,65.83222112499789,0.7038093329974799,,001,2022_Mar_09_1057,vct_new,2021.2.3,59.57965090657536,
,stim/Step_4.wav,stim/Step_4.wav,0,0,,,,,0,5,5,24,,,,,,,,,,,,,,,,,,,,,,,,,,,,,,,,,,,,,,,67.56658005449863,67.81625550000172,68.31486484650232,68.56554462500208,67.56581824999739,None,67.56581824999739,None,1,0,68.315264208999,None,67.33159475000139,67.53254637499776,0.85797162399831,,001,2022_Mar_09_1057,vct_new,2021.2.3,59.57965090657536,
,stim/Step_6.wav,stim/Step_1.wav,5,1,,,,,0,6,6,35,,,,,,,,,,,,,,,,,,,,,,,,,,,,,,,,,,,,,,,69.4330780964985,69.68330429199705,70.18181217949605,70.43210970899963,69.431283083999,None,69.431283083999,None,0,0,70.18251058399619,None,69.19957441699808,69.41633170899877,1.205466373998206,,001,2022_Mar_09_1057,vct_new,2021.2.3,59.57965090657536,
,stim/Step_1.wav,stim/Step_5.wav,-4,1,,,,,0,7,7,4,,,,,,,,,,,,,,,,,,,,,,,,,,,,,,,,,,,,,,,71.64933759650303,71.89942408399656,72.39898642950284,72.64930837500287,71.64751562500169,None,71.64751562500169,None,1,1,72.39823591699678,None,71.41628366700024,71.6325912090033,0.8538536659980309,,001,2022_Mar_09_1057,vct_new,2021.2.3,59.57965090657536,
,stim/Step_6.wav,stim/Step_3.wav,3,1,,,,,0,8,8,37,,,,,,,,,,,,,,,,,,,,,,,,,,,,,,,,,,,,,,,73.51540067950118,73.76524645899917,74.26566942950303,74.51579541699903,73.51467233400035,None,73.51467233400035,None,0,0,74.26554866699735,None,73.28342433399666,73.49865429200145,0.9184876660001464,,001,2022_Mar_09_1057,vct_new,2021.2.3,59.57965090657536,
,stim/Step_6.wav,stim/Step_4.wav,2,1,,,,,0,9,9,38,,,,,,,,,,,,,,,,,,,,,,,,,,,,,,,,,,,,,,,75.44830126250163,75.69865395899978,76.19883888749901,76.44874991699908,75.44901974999812,None,75.44901974999812,None,0,0,76.19816966699727,None,75.21533425000234,75.41629704200022,0.8791064580000238,,001,2022_Mar_09_1057,vct_new,2021.2.3,59.57965090657536,
,stim/Step_3.wav,stim/Step_4.wav,-1,1,,,,,0,10,10,17,,,,,,,,,,,,,,,,,,,,,,,,,,,,,,,,,,,,,,,77.33208342949656,77.582537125003,78.08224384649948,78.33102541699918,77.33149383399723,None,77.33149383399723,None,1,1,78.0826351249998,None,77.09944141699816,77.29892808399745,0.8194031250022817,,001,2022_Mar_09_1057,vct_new,2021.2.3,59.57965090657536,
,stim/Step_1.wav,stim/Step_2.wav,-1,1,,,,,0,11,11,1,,,,,,,,,,,,,,,,,,,,,,,,,,,,,,,,,,,,,,,79.16607622149895,79.41627087500092,79.91552217949648,80.16479729199636,79.16559579200111,None,79.16559579200111,None,1,1,79.91574112499802,None,78.93220108399692,79.13135087500268,0.7153200419998029,,001,2022_Mar_09_1057,vct_new,2021.2.3,59.57965090657536,
,stim/Step_6.wav,stim/Step_2.wav,4,1,,,,,0,12,12,36,,,,,,,,,,,,,,,,,,,,,,,,,,,,,,,,,,,,,,,80.8814573465017,81.13253554199764,81.63258938749932,81.88226095899881,80.88327270899754,None,80.88327270899754,None,0,0,81.63238483399618,None,80.64831920900178,80.84851320899907,0.8657039999961853,,001,2022_Mar_09_1057,vct_new,2021.2.3,59.57965090657536,
,stim/Step_5.wav,stim/Step_2.wav,3,1,,,,,0,13,13,29,,,,,,,,,,,,,,,,,,,,,,,,,,,,,,,,,,,,,,,82.74904580450239,82.99856329199974,83.49963867949846,83.74968745899969,82.75004225000157,None,82.75004225000157,None,0,0,83.49880033399677,None,82.51592874999915,82.71546891699836,1.0713152079988504,,001,2022_Mar_09_1057,vct_new,2021.2.3,59.57965090657536,
,stim/Step_4.wav,stim/Step_6.wav,-2,1,,,,,0,14,14,26,,,,,,,,,,,,,,,,,,,,,,,,,,,,,,,,,,,,,,,84.83222826249694,85.08217675000196,85.58234976249805,85.8322984999977,84.83280970899796,None,84.83280970899796,None,1,1,85.58294658399973,None,84.59810937500151,84.79936791700311,1.0943125410049106,,001,2022_Mar_09_1057,vct_new,2021.2.3,59.57965090657536,
,stim/Step_2.wav,stim/Step_5.wav,-3,1,,,,,0,15,15,11,,,,,,,,,,,,,,,,,,,,,,,,,,,,,,,,,,,,,,,86.93240351249842,87.18247387500014,87.68144667949964,87.93273345899797,86.93260279199603,None,86.93260279199603,None,0,0,87.68209895899781,None,86.69895208399976,86.8985944169981,0.8861033749999478,,001,2022_Mar_09_1057,vct_new,2021.2.3,59.57965090657536,
,stim/Step_3.wav,stim/Step_3.wav,0,0,,,,,0,16,16,16,,,,,,,,,,,,,,,,,,,,,,,,,,,,,,,,,,,,,,,88.83243042949762,89.08234937499947,89.58290780450189,89.8319074999963,88.83292012500169,None,88.83292012500169,None,1,0,89.58221516699996,None,88.59850745899894,88.7986541249993,1.201693333001458,,001,2022_Mar_09_1057,vct_new,2021.2.3,59.57965090657536,
,stim/Step_3.wav,stim/Step_2.wav,1,1,,,,,0,17,17,15,,,,,,,,,,,,,,,,,,,,,,,,,,,,,,,,,,,,,,,91.0490048465028,91.29961137499777,91.79934722149774,92.04974137499812,91.04900970900053,None,91.04900970900053,None,1,1,91.79915708400222,None,90.81520279200049,91.01599737499782,1.0410473329975503,,001,2022_Mar_09_1057,vct_new,2021.2.3,59.57965090657536,
,stim/Step_1.wav,stim/Step_4.wav,-3,1,,,,,0,18,18,3,,,,,,,,,,,,,,,,,,,,,,,,,,,,,,,,,,,,,,,93.09920463749877,93.34911087500222,93.84885313749983,94.09932179199677,93.09979145899706,None,93.09979145899706,None,0,0,93.84928249999939,None,92.86518495900236,93.06627970899717,0.8309129159970325,,001,2022_Mar_09_1057,vct_new,2021.2.3,59.57965090657536,
,stim/Step_2.wav,stim/Step_7.wav,-5,1,,,,,0,19,19,13,,,,,,,,,,,,,,,,,,,,,,,,,,,,,,,,,,,,,,,94.93246584650042,95.18243829200219,95.68294751250069,95.93276987499848,94.93273279199639,None,94.93273279199639,None,0,0,95.68286433399771,None,94.69866933400044,94.8988673749991,0.9573187499991036,,001,2022_Mar_09_1057,vct_new,2021.2.3,59.57965090657536,
,stim/Step_5.wav,stim/Step_5.wav,0,0,,,,,0,20,20,32,,,,,,,,,,,,,,,,,,,,,,,,,,,,,,,,,,,,,,,96.89907084650186,97.14989149999747,97.64885447149864,97.89945075000287,96.8995884169999,None,96.8995884169999,None,0,1,97.64934616699611,None,96.66620220900222,96.86640862499917,0.7808817909972277,,001,2022_Mar_09_1057,vct_new,2021.2.3,59.57965090657536,
,stim/Step_4.wav,stim/Step_7.wav,-3,1,,,,,0,21,21,27,,,,,,,,,,,,,,,,,,,,,,,,,,,,,,,,,,,,,,,98.68276592949697,98.93306750000193,99.43314717949688,99.68347941699903,98.68345462500292,None,98.68345462500292,None,0,0,99.43277249999664,None,98.44945337499666,98.64930162500241,1.415364499000134,,001,2022_Mar_09_1057,vct_new,2021.2.3,59.57965090657536,
,stim/Step_5.wav,stim/Step_6.wav,-1,1,,,,,0,22,22,33,,,,,,,,,,,,,,,,,,,,,,,,,,,,,,,,,,,,,,,101.0999518874989,101.34981233400322,101.84930517949688,102.09965541699785,101.09914041699813,None,101.09914041699813,None,0,0,101.84903995900095,None,100.86530470899743,101.06629362500098,1.1330250000028173,,001,2022_Mar_09_1057,vct_new,2021.2.3,59.57965090657536,
,stim/Step_5.wav,stim/Step_4.wav,1,1,,,,,0,23,23,31,,,,,,,,,,,,,,,,,,,,,,,,,,,,,,,,,,,,,,,103.2325690125028,103.48336520900193,103.9829265545006,104.23358366700268,103.23285245899751,None,103.23285245899751,None,0,0,103.98311795899644,None,102.99873637499695,103.19976845900237,1.0271260000008624,,001,2022_Mar_09_1057,vct_new,2021.2.3,59.57965090657536,
,stim/Step_3.wav,stim/Step_5.wav,-2,1,,,,,0,24,24,18,,,,,,,,,,,,,,,,,,,,,,,,,,,,,,,,,,,,,,,105.26616601249698,105.51656491700123,106.01661338749837,106.2662877920011,105.26626654199936,None,105.26626654199936,None,0,0,106.01686433400027,None,105.03276470900164,105.23348579199956,0.7561811659979867,,001,2022_Mar_09_1057,vct_new,2021.2.3,59.57965090657536,
,stim/Step_1.wav,stim/Step_6.wav,-5,1,,,,,0,25,25,5,,,,,,,,,,,,,,,,,,,,,,,,,,,,,,,,,,,,,,,107.03312451250095,107.28318333400239,107.78348784650298,108.03336083400063,107.03327666699624,None,107.03327666699624,None,0,0,107.78344566700252,None,106.80040362499858,106.99964620899846,0.9847062080007163,,001,2022_Mar_09_1057,vct_new,2021.2.3,59.57965090657536,
,stim/Step_4.wav,stim/Step_3.wav,1,1,,,,,0,26,26,23,,,,,,,,,,,,,,,,,,,,,,,,,,,,,,,,,,,,,,,109.03352930450201,109.2999246670006,109.78281351249753,110.03358079199825,109.03298129200266,None,109.03298129200266,None,1,1,109.7838902500007,None,108.7993562499978,108.99989074999758,1.3962810829980299,,001,2022_Mar_09_1057,vct_new,2021.2.3,59.57965090657536,
,stim/Step_1.wav,stim/Step_1.wav,0,0,,,,,0,27,27,0,,,,,,,,,,,,,,,,,,,,,,,,,,,,,,,,,,,,,,,111.43333413749788,111.68329924999853,112.18307730449597,112.43371320900042,111.43334508399857,None,111.43334508399857,None,1,0,112.18364420899889,None,111.19899645900296,111.39975945899641,0.8535264999954961,,001,2022_Mar_09_1057,vct_new,2021.2.3,59.57965090657536,
,stim/Step_5.wav,stim/Step_3.wav,2,1,,,,,0,28,28,30,,,,,,,,,,,,,,,,,,,,,,,,,,,,,,,,,,,,,,,113.30003955449793,113.54997545899823,114.04980222149898,114.2999230839996,113.29971166700125,None,113.29971166700125,None,0,0,114.04980166700261,None,113.06601412499731,113.26649400000315,1.1323790829992504,,001,2022_Mar_09_1057,vct_new,2021.2.3,59.57965090657536,
,stim/Step_6.wav,stim/Step_6.wav,0,0,,,,,0,29,29,40,,,,,,,,,,,,,,,,,,,,,,,,,,,,,,,,,,,,,,,115.4334390124961,115.68285487499816,116.18347851249855,116.43317695899896,115.4336645000003,None,115.4336645000003,None,1,0,116.18340400000307,None,115.19833758399909,115.39991079200263,1.1469676240012632,,001,2022_Mar_09_1057,vct_new,2021.2.3,59.57965090657536,
,stim/Step_4.wav,stim/Step_2.wav,2,1,,,,,0,30,30,22,,,,,,,,,,,,,,,,,,,,,,,,,,,,,,,,,,,,,,,117.58312451249658,117.83265579200088,118.33329376249749,118.58322837499873,117.58311208400119,None,117.58311208400119,None,0,0,118.33304074999614,None,117.34936029199889,117.54991449999943,1.5851822499971604,,001,2022_Mar_09_1057,vct_new,2021.2.3,59.57965090657536,
,stim/Step_6.wav,stim/Step_5.wav,1,1,,,,,0,31,31,39,,,,,,,,,,,,,,,,,,,,,,,,,,,,,,,,,,,,,,,120.1831076795017,120.43350816699967,120.9332689294999,121.18348654200236,120.18342283400125,None,120.18342283400125,None,0,0,120.93329408400314,None,119.94938445899606,120.15024358400115,1.3571273330016993,,001,2022_Mar_09_1057,vct_new,2021.2.3,59.57965090657536,
,stim/Step_2.wav,stim/Step_4.wav,-2,1,,,,,0,32,32,10,,,,,,,,,,,,,,,,,,,,,,,,,,,,,,,,,,,,,,,122.55005892949994,122.80008212500252,123.30009509650263,123.5498618749989,122.54980225000327,None,122.54980225000327,None,0,0,123.30019779199938,None,122.31649758399726,122.51643862499623,1.095075999997789,,001,2022_Mar_09_1057,vct_new,2021.2.3,59.57965090657536,
,stim/Step_2.wav,stim/Step_2.wav,0,0,,,,,0,33,33,8,,,,,,,,,,,,,,,,,,,,,,,,,,,,,,,,,,,,,,,124.64996355449985,124.90008379200299,125.40036205450015,125.65052641699731,124.6493357090003,None,124.6493357090003,None,0,1,125.39958712500083,None,124.41616133399657,124.61643637499947,0.9505931249950663,,001,2022_Mar_09_1057,vct_new,2021.2.3,59.57965090657536,
,stim/Step_4.wav,stim/Step_1.wav,3,1,,,,,0,34,34,21,,,,,,,,,,,,,,,,,,,,,,,,,,,,,,,,,,,,,,,126.61641434650228,126.86701149999863,127.36683526249836,127.61639870899671,126.6163311670025,None,126.6163311670025,None,0,0,127.36665766700025,None,126.38390762500057,126.58240325000224,1.0054610419974779,,001,2022_Mar_09_1057,vct_new,2021.2.3,59.57965090657536,
,stim/Step_7.wav,stim/Step_4.wav,3,1,,,,,0,35,35,45,,,,,,,,,,,,,,,,,,,,,,,,,,,,,,,,,,,,,,,128.63295392949948,128.88316591700277,129.3827965964985,129.633456167001,128.63309054199635,None,128.63309054199635,None,0,0,129.3835892499992,None,128.39953650000098,128.60033600000315,1.0716175830020802,,001,2022_Mar_09_1057,vct_new,2021.2.3,59.57965090657536,
,stim/Step_5.wav,stim/Step_7.wav,-2,1,,,,,0,36,36,34,,,,,,,,,,,,,,,,,,,,,,,,,,,,,,,,,,,,,,,130.71744776249687,130.96747066699754,131.46686730449727,131.7171371250006,130.7167322919995,None,130.7167322919995,None,1,1,131.46661049999966,None,130.48263958399912,130.68311329199787,0.7957009169986122,,001,2022_Mar_09_1057,vct_new,2021.2.3,59.57965090657536,
,stim/Step_1.wav,stim/Step_7.wav,-6,1,,,,,0,37,37,6,,,,,,,,,,,,,,,,,,,,,,,,,,,,,,,,,,,,,,,132.51716305449662,132.76674470899889,133.26738176249927,133.51676466700155,132.5166428750017,None,132.5166428750017,None,0,0,133.26677537499927,None,132.2828032499965,132.48290212499705,0.9257406249962514,,001,2022_Mar_09_1057,vct_new,2021.2.3,59.57965090657536,
,stim/Step_7.wav,stim/Step_5.wav,2,1,,,,,0,38,38,46,,,,,,,,,,,,,,,,,,,,,,,,,,,,,,,,,,,,,,,134.45010142949758,134.70054700000037,135.19999405450216,135.45056974999898,134.4502589170006,None,134.4502589170006,None,0,0,135.2005286670028,None,134.21624858400173,134.41708208400087,1.2227340419995016,,001,2022_Mar_09_1057,vct_new,2021.2.3,59.57965090657536,
,stim/Step_7.wav,stim/Step_3.wav,4,1,,,,,0,39,39,44,,,,,,,,,,,,,,,,,,,,,,,,,,,,,,,,,,,,,,,136.68308442949927,136.93368499999633,137.43377613750198,137.68377266699827,136.68327433399827,None,136.68327433399827,None,1,1,137.43340599999647,None,136.44943895899632,136.65016712500073,0.5411173329994199,,001,2022_Mar_09_1057,vct_new,2021.2.3,59.57965090657536,
,stim/Step_6.wav,stim/Step_7.wav,-1,1,,,,,0,40,40,41,,,,,,,,,,,,,,,,,,,,,,,,,,,,,,,,,,,,,,,138.23358126249803,138.48343112500152,138.98378142949804,139.23401829200156,138.23339087500062,None,138.23339087500062,None,1,1,138.9836512089969,None,137.99954925000202,138.20033820899698,0.7224964989945875,,001,2022_Mar_09_1057,vct_new,2021.2.3,59.57965090657536,
,stim/Step_1.wav,stim/Step_3.wav,-2,1,,,,,0,41,41,2,,,,,,,,,,,,,,,,,,,,,,,,,,,,,,,,,,,,,,,139.96640676250098,140.216627875001,140.71659651249792,140.96685612500005,139.966829625002,None,139.966829625002,None,1,1,140.7168998749985,None,139.7336039590009,139.93384454199986,0.6794245409982977,,001,2022_Mar_09_1057,vct_new,2021.2.3,59.57965090657536,
,stim/Step_2.wav,stim/Step_6.wav,-4,1,,,,,0,42,42,12,,,,,,,,,,,,,,,,,,,,,,,,,,,,,,,,,,,,,,,141.6503319715004,141.90051133400266,142.4007347624967,142.65030975000263,141.65080541699717,None,141.65080541699717,None,0,0,142.40037804200256,None,141.4157490419966,141.6170293749965,0.9558121660011238,,001,2022_Mar_09_1057,vct_new,2021.2.3,59.57965090657536,
,stim/Step_5.wav,stim/Step_1.wav,4,1,,,,,0,43,43,28,,,,,,,,,,,,,,,,,,,,,,,,,,,,,,,,,,,,,,,143.61690717949676,143.86748716700095,144.3674668045016,144.61736324999947,143.61680579200038,None,143.61680579200038,None,0,0,144.36802116699982,None,143.38319841700286,143.58389170900045,1.2523773749999236,,001,2022_Mar_09_1057,vct_new,2021.2.3,59.57965090657536,
,stim/Step_7.wav,stim/Step_7.wav,0,0,,,,,0,44,44,48,,,,,,,,,,,,,,,,,,,,,,,,,,,,,,,,,,,,,,,145.88434930450165,146.13444416700077,146.63411367949737,146.8838522090009,145.88366108400078,None,145.88366108400078,None,0,1,146.6347219169984,None,145.6511109589992,145.85120962499786,1.2966340830025729,,001,2022_Mar_09_1057,vct_new,2021.2.3,59.57965090657536,
,stim/Step_7.wav,stim/Step_2.wav,5,1,,,,,0,45,45,43,,,,,,,,,,,,,,,,,,,,,,,,,,,,,,,,,,,,,,,148.1850067215011,148.43476812500012,148.934355721499,149.18461312499858,148.18476275000285,None,148.18476275000285,None,0,0,148.93362187500315,None,147.9500160000025,148.15100208399963,0.8449714579983265,,001,2022_Mar_09_1057,vct_new,2021.2.3,59.57965090657536,
,stim/Step_3.wav,stim/Step_6.wav,-3,1,,,,,0,46,46,19,,,,,,,,,,,,,,,,,,,,,,,,,,,,,,,,,,,,,,,150.0340322215008,150.28395604199613,150.78352080450276,151.03361879199656,150.03463229200133,None,150.03463229200133,None,1,1,150.7844707089971,None,149.80007512500015,150.00056762500026,0.7949139990014373,,001,2022_Mar_09_1057,vct_new,2021.2.3,59.57965090657536,
,stim/Step_2.wav,stim/Step_1.wav,1,1,,,,,0,47,47,7,,,,,,,,,,,,,,,,,,,,,,,,,,,,,,,,,,,,,,,151.8342259294979,152.0839525420015,152.58365851250272,152.83394141699682,151.8341924999986,None,151.8341924999986,None,0,0,152.58500570899923,None,151.5996285000001,151.8007671669984,0.7132806660010829,,001,2022_Mar_09_1057,vct_new,2021.2.3,59.57965090657536,
,stim/Step_7.wav,stim/Step_1.wav,6,1,,,,,0,48,48,42,,,,,,,,,,,,,,,,,,,,,,,,,,,,,,,,,,,,,,,153.5510828875005,153.8161423749989,154.30044638749968,154.55005150000216,153.55092758400133,None,153.55092758400133,None,1,1,154.30018279200158,None,153.31707191700116,153.51669758399657,0.6453191670007072,,001,2022_Mar_09_1057,vct_new,2021.2.3,59.57965090657536,
