key_resp_3.keys,key_resp_3.rt,key_resp_4.keys,key_resp_4.rt,key_resp_2.keys,key_resp_2.rt,slider.response,slider.rt,trials.thisRepN,trials.thisTrialN,trials.thisN,trials.thisIndex,trials.ran,stim,participant,session,date,expName,psychopyVersion,OS,frameRate,key_resp_5.keys,key_resp_5.rt,key_resp.keys,key_resp.rt,slider_2.response,slider_2.rt,trials_2.thisRepN,trials_2.thisTrialN,trials_2.thisN,trials_2.thisIndex,trials_2.ran,key_resp_6.keys,key_resp_6.rt
1,76.1621,space,52.9187,7,19.0501,5,7.2472,0,0,0,5,1,stim/fief_g.wav,5a6d5ae19d65ec00017e9bae,001,2022-03-19_12h43.56.346,task,2021.2.3,Linux x86_64,59.9268892,,,,,,,,,,,,,
,,,,4,6.1403,4.015816346,4.447,0,1,1,0,1,stim/pof_g.wav,5a6d5ae19d65ec00017e9bae,001,2022-03-19_12h43.56.346,task,2021.2.3,Linux x86_64,59.9268892,,,,,,,,,,,,,
,,,,7,9.0636,5,2.9307,0,2,2,1,1,stim/pief_g.wav,5a6d5ae19d65ec00017e9bae,001,2022-03-19_12h43.56.346,task,2021.2.3,Linux x86_64,59.9268892,,,,,,,,,,,,,
,,,,6,12.154,4.990837816,5.2811,0,3,3,2,1,stim/peuf_g.wav,5a6d5ae19d65ec00017e9bae,001,2022-03-19_12h43.56.346,task,2021.2.3,Linux x86_64,59.9268892,,,,,,,,,,,,,
,,,,2,7.9808,4.009451112,0.9843,0,4,4,7,1,stim/f_schwa_g.wav,5a6d5ae19d65ec00017e9bae,001,2022-03-19_12h43.56.346,task,2021.2.3,Linux x86_64,59.9268892,,,,,,,,,,,,,
,,,,4,15.3888,4.028547059,0.8718,0,5,5,4,1,stim/fof_g.wav,5a6d5ae19d65ec00017e9bae,001,2022-03-19_12h43.56.346,task,2021.2.3,Linux x86_64,59.9268892,,,,,,,,,,,,,
,,,,4,4.6323,4.057478943,0.7813,0,6,6,6,1,stim/feuf_g.wav,5a6d5ae19d65ec00017e9bae,001,2022-03-19_12h43.56.346,task,2021.2.3,Linux x86_64,59.9268892,,,,,,,,,,,,,
,,,,1,10.7795,4.998360277,2.4586,0,7,7,3,1,stim/p_schwa_g.wav,5a6d5ae19d65ec00017e9bae,001,2022-03-19_12h43.56.346,task,2021.2.3,Linux x86_64,59.9268892,,,,,,,,,,,,,
,,,,6,8.3467,3.995563661,1.1453,1,0,8,6,1,stim/feuf_g.wav,5a6d5ae19d65ec00017e9bae,001,2022-03-19_12h43.56.346,task,2021.2.3,Linux x86_64,59.9268892,,,,,,,,,,,,,
,,,,6,7.3712,3.008969438,1.1687,1,1,9,2,1,stim/peuf_g.wav,5a6d5ae19d65ec00017e9bae,001,2022-03-19_12h43.56.346,task,2021.2.3,Linux x86_64,59.9268892,,,,,,,,,,,,,
,,,,1,3.408,3.952165224,2.2135,1,2,10,3,1,stim/p_schwa_g.wav,5a6d5ae19d65ec00017e9bae,001,2022-03-19_12h43.56.346,task,2021.2.3,Linux x86_64,59.9268892,,,,,,,,,,,,,
,,,,1,2.2833,4.973478442,1.9136,1,3,11,7,1,stim/f_schwa_g.wav,5a6d5ae19d65ec00017e9bae,001,2022-03-19_12h43.56.346,task,2021.2.3,Linux x86_64,59.9268892,,,,,,,,,,,,,
,,,,5,4.2067,4.054585877,0.7757,1,4,12,0,1,stim/pof_g.wav,5a6d5ae19d65ec00017e9bae,001,2022-03-19_12h43.56.346,task,2021.2.3,Linux x86_64,59.9268892,,,,,,,,,,,,,
,,,,6,8.9131,3.002025102,0.8044,1,5,13,4,1,stim/fof_g.wav,5a6d5ae19d65ec00017e9bae,001,2022-03-19_12h43.56.346,task,2021.2.3,Linux x86_64,59.9268892,,,,,,,,,,,,,
,,,,3,7.6913,3.990934755,1.3983,1,6,14,5,1,stim/fief_g.wav,5a6d5ae19d65ec00017e9bae,001,2022-03-19_12h43.56.346,task,2021.2.3,Linux x86_64,59.9268892,,,,,,,,,,,,,
,,,,7,3.2935,4.919663989,2.1851,1,7,15,1,1,stim/pief_g.wav,5a6d5ae19d65ec00017e9bae,001,2022-03-19_12h43.56.346,task,2021.2.3,Linux x86_64,59.9268892,,,,,,,,,,,,,
,,,,1,4.0485,4.95843352,0.7347,2,0,16,3,1,stim/p_schwa_g.wav,5a6d5ae19d65ec00017e9bae,001,2022-03-19_12h43.56.346,task,2021.2.3,Linux x86_64,59.9268892,,,,,,,,,,,,,
,,,,4,6.5213,3.963737978,0.7699,2,1,17,0,1,stim/pof_g.wav,5a6d5ae19d65ec00017e9bae,001,2022-03-19_12h43.56.346,task,2021.2.3,Linux x86_64,59.9268892,,,,,,,,,,,,,
,,,,6,3.5912,3.993827821,0.7008,2,2,18,2,1,stim/peuf_g.wav,5a6d5ae19d65ec00017e9bae,001,2022-03-19_12h43.56.346,task,2021.2.3,Linux x86_64,59.9268892,,,,,,,,,,,,,
,,,,7,5.3675,3.947536318,0.633,2,3,19,1,1,stim/pief_g.wav,5a6d5ae19d65ec00017e9bae,001,2022-03-19_12h43.56.346,task,2021.2.3,Linux x86_64,59.9268892,,,,,,,,,,,,,
,,,,7,2.7211,4.980422289,1.9842,2,4,20,5,1,stim/fief_g.wav,5a6d5ae19d65ec00017e9bae,001,2022-03-19_12h43.56.346,task,2021.2.3,Linux x86_64,59.9268892,,,,,,,,,,,,,
,,,,1,3.2585,4.964798754,0.703,2,5,21,7,1,stim/f_schwa_g.wav,5a6d5ae19d65ec00017e9bae,001,2022-03-19_12h43.56.346,task,2021.2.3,Linux x86_64,59.9268892,,,,,,,,,,,,,
,,,,4,4.9734,2.992767045,0.5718,2,6,22,6,1,stim/feuf_g.wav,5a6d5ae19d65ec00017e9bae,001,2022-03-19_12h43.56.346,task,2021.2.3,Linux x86_64,59.9268892,,,,,,,,,,,,,
,,,,5,3.624,3.949272158,0.6124,2,7,23,4,1,stim/fof_g.wav,5a6d5ae19d65ec00017e9bae,001,2022-03-19_12h43.56.346,task,2021.2.3,Linux x86_64,59.9268892,,,,,,,,,,,,,
,,,,7,3.3975,4.023917421,0.8647,3,0,24,1,1,stim/pief_g.wav,5a6d5ae19d65ec00017e9bae,001,2022-03-19_12h43.56.346,task,2021.2.3,Linux x86_64,59.9268892,,,,,,,,,,,,,
,,,,7,3.421,3.990356142,1.6137,3,1,25,5,1,stim/fief_g.wav,5a6d5ae19d65ec00017e9bae,001,2022-03-19_12h43.56.346,task,2021.2.3,Linux x86_64,59.9268892,,,,,,,,,,,,,
,,,,5,2.9806,4.033754579,0.6262,3,2,26,4,1,stim/fof_g.wav,5a6d5ae19d65ec00017e9bae,001,2022-03-19_12h43.56.346,task,2021.2.3,Linux x86_64,59.9268892,,,,,,,,,,,,,
,,,,6,5.0933,3.945221133,0.6252,3,3,27,6,1,stim/feuf_g.wav,5a6d5ae19d65ec00017e9bae,001,2022-03-19_12h43.56.346,task,2021.2.3,Linux x86_64,59.9268892,,,,,,,,,,,,,
,,,,6,10.5305,4.047641785,0.5096,3,4,28,2,1,stim/peuf_g.wav,5a6d5ae19d65ec00017e9bae,001,2022-03-19_12h43.56.346,task,2021.2.3,Linux x86_64,59.9268892,,,,,,,,,,,,,
,,,,1,5.6698,4.983894457,2.5345,3,5,29,7,1,stim/f_schwa_g.wav,5a6d5ae19d65ec00017e9bae,001,2022-03-19_12h43.56.346,task,2021.2.3,Linux x86_64,59.9268892,,,,,,,,,,,,,
,,,,1,2.7589,4.990259203,2.4538,3,6,30,3,1,stim/p_schwa_g.wav,5a6d5ae19d65ec00017e9bae,001,2022-03-19_12h43.56.346,task,2021.2.3,Linux x86_64,59.9268892,,,,,,,,,,,,,
,,,,4,3.275,4.011186952,0.6262,3,7,31,0,1,stim/pof_g.wav,5a6d5ae19d65ec00017e9bae,001,2022-03-19_12h43.56.346,task,2021.2.3,Linux x86_64,59.9268892,,,,,,,,,,,,,
,,,,6,2.6498,4.01928827,0.677,4,0,32,6,1,stim/feuf_g.wav,5a6d5ae19d65ec00017e9bae,001,2022-03-19_12h43.56.346,task,2021.2.3,Linux x86_64,59.9268892,,,,,,,,,,,,,
,,,,5,4.0057,3.01301973,0.5778,4,1,33,4,1,stim/fof_g.wav,5a6d5ae19d65ec00017e9bae,001,2022-03-19_12h43.56.346,task,2021.2.3,Linux x86_64,59.9268892,,,,,,,,,,,,,
,,,,1,3.4429,4.973478442,1.7766,4,2,34,7,1,stim/f_schwa_g.wav,5a6d5ae19d65ec00017e9bae,001,2022-03-19_12h43.56.346,task,2021.2.3,Linux x86_64,59.9268892,,,,,,,,,,,,,
,,,,7,7.205,3.931912539,0.5518,4,3,35,1,1,stim/pief_g.wav,5a6d5ae19d65ec00017e9bae,001,2022-03-19_12h43.56.346,task,2021.2.3,Linux x86_64,59.9268892,,,,,,,,,,,,,
,,,,5,6.1973,3.994406435,0.6493,4,4,36,0,1,stim/pof_g.wav,5a6d5ae19d65ec00017e9bae,001,2022-03-19_12h43.56.346,task,2021.2.3,Linux x86_64,59.9268892,,,,,,,,,,,,,
,,,,7,2.9232,4.994888597,3.9732,4,5,37,5,1,stim/fief_g.wav,5a6d5ae19d65ec00017e9bae,001,2022-03-19_12h43.56.346,task,2021.2.3,Linux x86_64,59.9268892,,,,,,,,,,,,,
,,,,6,6.5573,3.956215517,0.6418,4,6,38,2,1,stim/peuf_g.wav,5a6d5ae19d65ec00017e9bae,001,2022-03-19_12h43.56.346,task,2021.2.3,Linux x86_64,59.9268892,,,,,,,,,,,,,
,,,,1,3.0722,4.907512622,1.4888,4,7,39,3,1,stim/p_schwa_g.wav,5a6d5ae19d65ec00017e9bae,001,2022-03-19_12h43.56.346,task,2021.2.3,Linux x86_64,59.9268892,,,,,,,,,,,,,
,,,,,,,,,,,,,stim/pof_f.wav,5a6d5ae19d65ec00017e9bae,001,2022-03-19_12h43.56.346,task,2021.2.3,Linux x86_64,59.9268892,space,4.045,1,5.6263,2.957469438,0.6224,0,0,0,0,1,,
,,,,,,,,,,,,,stim/fif_f.wav,5a6d5ae19d65ec00017e9bae,001,2022-03-19_12h43.56.346,task,2021.2.3,Linux x86_64,59.9268892,,,7,3.2233,4.995467211,0.657,0,1,1,5,1,,
,,,,,,,,,,,,,stim/feuf_f.wav,5a6d5ae19d65ec00017e9bae,001,2022-03-19_12h43.56.346,task,2021.2.3,Linux x86_64,59.9268892,,,6,7.6884,3.944063906,0.6043,0,2,2,6,1,,
,,,,,,,,,,,,,stim/p_schwa_f.wav,5a6d5ae19d65ec00017e9bae,001,2022-03-19_12h43.56.346,task,2021.2.3,Linux x86_64,59.9268892,,,3,33.8356,1.041566269,0.6973,0,3,3,3,1,,
,,,,,,,,,,,,,stim/f_schwa_f.wav,5a6d5ae19d65ec00017e9bae,001,2022-03-19_12h43.56.346,task,2021.2.3,Linux x86_64,59.9268892,,,3,15.171,1.972610566,0.6582,0,4,4,7,1,,
,,,,,,,,,,,,,stim/fof_f.wav,5a6d5ae19d65ec00017e9bae,001,2022-03-19_12h43.56.346,task,2021.2.3,Linux x86_64,59.9268892,,,1,5.976,4.012344178,1.2576,0,5,5,4,1,,
,,,,,,,,,,,,,stim/pif_f.wav,5a6d5ae19d65ec00017e9bae,001,2022-03-19_12h43.56.346,task,2021.2.3,Linux x86_64,59.9268892,,,7,5.5107,4.945124926,0.8136,0,6,6,1,1,,
,,,,,,,,,,,,,stim/peuf_f.wav,5a6d5ae19d65ec00017e9bae,001,2022-03-19_12h43.56.346,task,2021.2.3,Linux x86_64,59.9268892,,,6,5.7464,3.9787829,0.5666,0,7,7,2,1,,
,,,,,,,,,,,,,stim/p_schwa_f.wav,5a6d5ae19d65ec00017e9bae,001,2022-03-19_12h43.56.346,task,2021.2.3,Linux x86_64,59.9268892,,,3,20.1351,1.000482163,2.7174,1,0,8,3,1,,
,,,,,,,,,,,,,stim/feuf_f.wav,5a6d5ae19d65ec00017e9bae,001,2022-03-19_12h43.56.346,task,2021.2.3,Linux x86_64,59.9268892,,,6,4.0391,4.000771425,0.7567,1,1,9,6,1,,
,,,,,,,,,,,,,stim/pif_f.wav,5a6d5ae19d65ec00017e9bae,001,2022-03-19_12h43.56.346,task,2021.2.3,Linux x86_64,59.9268892,,,7,7.52,4.94223186,0.7171,1,2,10,1,1,,
,,,,,,,,,,,,,stim/peuf_f.wav,5a6d5ae19d65ec00017e9bae,001,2022-03-19_12h43.56.346,task,2021.2.3,Linux x86_64,59.9268892,,,6,7.2568,4.007715028,0.5205,1,3,11,2,1,,
,,,,,,,,,,,,,stim/pof_f.wav,5a6d5ae19d65ec00017e9bae,001,2022-03-19_12h43.56.346,task,2021.2.3,Linux x86_64,59.9268892,,,1,5.3233,4.012922792,1.1802,1,4,12,0,1,,
,,,,,,,,,,,,,stim/fif_f.wav,5a6d5ae19d65ec00017e9bae,001,2022-03-19_12h43.56.346,task,2021.2.3,Linux x86_64,59.9268892,,,7,2.7174,4.969428149,0.6215,1,5,13,5,1,,
,,,,,,,,,,,,,stim/fof_f.wav,5a6d5ae19d65ec00017e9bae,001,2022-03-19_12h43.56.346,task,2021.2.3,Linux x86_64,59.9268892,,,1,3.6191,4.994309984,2.4024,1,6,14,4,1,,
,,,,,,,,,,,,,stim/f_schwa_f.wav,5a6d5ae19d65ec00017e9bae,001,2022-03-19_12h43.56.346,task,2021.2.3,Linux x86_64,59.9268892,,,3,3.3746,2.010222748,1.5168,1,7,15,7,1,,
,,,,,,,,,,,,,stim/p_schwa_f.wav,5a6d5ae19d65ec00017e9bae,001,2022-03-19_12h43.56.346,task,2021.2.3,Linux x86_64,59.9268892,,,3,3.0747,1.050245834,1.5825,2,0,16,3,1,,
,,,,,,,,,,,,,stim/f_schwa_f.wav,5a6d5ae19d65ec00017e9bae,001,2022-03-19_12h43.56.346,task,2021.2.3,Linux x86_64,59.9268892,,,3,2.824,1.05834703,1.5227,2,1,17,7,1,,
,,,,,,,,,,,,,stim/peuf_f.wav,5a6d5ae19d65ec00017e9bae,001,2022-03-19_12h43.56.346,task,2021.2.3,Linux x86_64,59.9268892,,,6,8.3158,3.92091791,0.899,2,2,18,2,1,,
,,,,,,,,,,,,,stim/feuf_f.wav,5a6d5ae19d65ec00017e9bae,001,2022-03-19_12h43.56.346,task,2021.2.3,Linux x86_64,59.9268892,,,4,6.5858,3.987462343,0.8001,2,3,19,6,1,,
,,,,,,,,,,,,,stim/fif_f.wav,5a6d5ae19d65ec00017e9bae,001,2022-03-19_12h43.56.346,task,2021.2.3,Linux x86_64,59.9268892,,,7,3.5038,4.976371508,0.6622,2,4,20,5,1,,
,,,,,,,,,,,,,stim/pof_f.wav,5a6d5ae19d65ec00017e9bae,001,2022-03-19_12h43.56.346,task,2021.2.3,Linux x86_64,59.9268892,,,1,6.3647,3.959687441,0.687,2,5,21,0,1,,
,,,,,,,,,,,,,stim/fof_f.wav,5a6d5ae19d65ec00017e9bae,001,2022-03-19_12h43.56.346,task,2021.2.3,Linux x86_64,59.9268892,,,1,2.0434,4.060372254,1.8968,2,6,22,4,1,,
,,,,,,,,,,,,,stim/pif_f.wav,5a6d5ae19d65ec00017e9bae,001,2022-03-19_12h43.56.346,task,2021.2.3,Linux x86_64,59.9268892,,,7,3.1262,3.940591982,0.6475,2,7,23,1,1,,
,,,,,,,,,,,,,stim/pof_f.wav,5a6d5ae19d65ec00017e9bae,001,2022-03-19_12h43.56.346,task,2021.2.3,Linux x86_64,59.9268892,,,1,2.935,4.01928827,0.6681,3,0,24,0,1,,
,,,,,,,,,,,,,stim/p_schwa_f.wav,5a6d5ae19d65ec00017e9bae,001,2022-03-19_12h43.56.346,task,2021.2.3,Linux x86_64,59.9268892,,,3,9.2839,1.982447602,1.2558,3,1,25,3,1,,
,,,,,,,,,,,,,stim/f_schwa_f.wav,5a6d5ae19d65ec00017e9bae,001,2022-03-19_12h43.56.346,task,2021.2.3,Linux x86_64,59.9268892,,,3,1.7993,1.992284638,0.6153,3,2,26,7,1,,
,,,,,,,,,,,,,stim/peuf_f.wav,5a6d5ae19d65ec00017e9bae,001,2022-03-19_12h43.56.346,task,2021.2.3,Linux x86_64,59.9268892,,,4,4.2866,4.011186952,0.5852,3,3,27,2,1,,
,,,,,,,,,,,,,stim/feuf_f.wav,5a6d5ae19d65ec00017e9bae,001,2022-03-19_12h43.56.346,task,2021.2.3,Linux x86_64,59.9268892,,,4,3.9579,3.992091982,0.8542,3,4,28,6,1,,
,,,,,,,,,,,,,stim/fif_f.wav,5a6d5ae19d65ec00017e9bae,001,2022-03-19_12h43.56.346,task,2021.2.3,Linux x86_64,59.9268892,,,7,2.8532,4.945124926,0.6186,3,5,29,5,1,,
,,,,,,,,,,,,,stim/pif_f.wav,5a6d5ae19d65ec00017e9bae,001,2022-03-19_12h43.56.346,task,2021.2.3,Linux x86_64,59.9268892,,,7,3.2089,4.992573656,0.7814,3,6,30,1,1,,
,,,,,,,,,,,,,stim/fof_f.wav,5a6d5ae19d65ec00017e9bae,001,2022-03-19_12h43.56.346,task,2021.2.3,Linux x86_64,59.9268892,,,1,3.8681,4.918506763,0.7107,3,7,31,4,1,,
,,,,,,,,,,,,,stim/pof_f.wav,5a6d5ae19d65ec00017e9bae,001,2022-03-19_12h43.56.346,task,2021.2.3,Linux x86_64,59.9268892,,,1,2.738,4.979265063,0.7149,4,0,32,0,1,,
,,,,,,,,,,,,,stim/peuf_f.wav,5a6d5ae19d65ec00017e9bae,001,2022-03-19_12h43.56.346,task,2021.2.3,Linux x86_64,59.9268892,,,4,4.7089,3.953322451,0.6021,4,1,33,2,1,,
,,,,,,,,,,,,,stim/f_schwa_f.wav,5a6d5ae19d65ec00017e9bae,001,2022-03-19_12h43.56.346,task,2021.2.3,Linux x86_64,59.9268892,,,3,3.8591,1.936734468,0.5792,4,2,34,7,1,,
,,,,,,,,,,,,,stim/pif_f.wav,5a6d5ae19d65ec00017e9bae,001,2022-03-19_12h43.56.346,task,2021.2.3,Linux x86_64,59.9268892,,,7,2.6043,4.964220141,0.6422,4,3,35,1,1,,
,,,,,,,,,,,,,stim/fof_f.wav,5a6d5ae19d65ec00017e9bae,001,2022-03-19_12h43.56.346,task,2021.2.3,Linux x86_64,59.9268892,,,1,3.4268,4.952068774,0.6396,4,4,36,4,1,,
,,,,,,,,,,,,,stim/feuf_f.wav,5a6d5ae19d65ec00017e9bae,001,2022-03-19_12h43.56.346,task,2021.2.3,Linux x86_64,59.9268892,,,4,3.5387,3.959687441,0.5812,4,5,37,6,1,,
,,,,,,,,,,,,,stim/fif_f.wav,5a6d5ae19d65ec00017e9bae,001,2022-03-19_12h43.56.346,task,2021.2.3,Linux x86_64,59.9268892,,,7,2.6162,4.952647387,0.6403,4,6,38,5,1,,
,,,,,,,,,,,,,stim/p_schwa_f.wav,5a6d5ae19d65ec00017e9bae,001,2022-03-19_12h43.56.346,task,2021.2.3,Linux x86_64,59.9268892,,,3,5.5922,1.98939145,1.0258,4,7,39,3,1,,
,,,,,,,,,,,,,,5a6d5ae19d65ec00017e9bae,001,2022-03-19_12h43.56.346,task,2021.2.3,Linux x86_64,59.9268892,,,,,,,,,,,,space,86.9334
