key_resp.keys,key_resp.rt,key_resp_2.keys,key_resp_2.rt,slider.response,slider.rt,trials.thisRepN,trials.thisTrialN,trials.thisN,trials.thisIndex,trials.ran,stim,participant,session,date,expName,psychopyVersion,OS,frameRate,key_resp_trial.keys,key_resp_trial.corr,key_resp_trial.rt,trials_2.thisRepN,trials_2.thisTrialN,trials_2.thisN,trials_2.thisIndex,trials_2.ran,stim1,stim2,distance,isCorrect
space,15.3284,1,12.0111,2.991631944,4.4592,0,0,0,7,1,stim/pof_g.wav,5dc483cf74939e34e55c3619,001,2022-03-09_13h24.25.548,vct_new,2021.2.3,MacIntel,20.00080003,,,,,,,,,,,,
,,4,5.8338,2.991631944,1.3356,0,1,1,0,1,stim/f_schwa_g.wav,5dc483cf74939e34e55c3619,001,2022-03-09_13h24.25.548,vct_new,2021.2.3,MacIntel,20.00080003,,,,,,,,,,,,
,,2,3.1534,2.991631944,1.1366,0,2,2,3,1,stim/fof_g.wav,5dc483cf74939e34e55c3619,001,2022-03-09_13h24.25.548,vct_new,2021.2.3,MacIntel,20.00080003,,,,,,,,,,,,
,,3,2.6787,3.987204861,1.7598,0,3,3,2,1,stim/fif_g.wav,5dc483cf74939e34e55c3619,001,2022-03-09_13h24.25.548,vct_new,2021.2.3,MacIntel,20.00080003,,,,,,,,,,,,
,,2,2.603,2.992239583,1.2769,0,4,4,1,1,stim/faf_g.wav,5dc483cf74939e34e55c3619,001,2022-03-09_13h24.25.548,vct_new,2021.2.3,MacIntel,20.00080003,,,,,,,,,,,,
,,3,5.2456,4.003732639,1.9379,0,5,5,6,1,stim/piep_g.wav,5dc483cf74939e34e55c3619,001,2022-03-09_13h24.25.548,vct_new,2021.2.3,MacIntel,20.00080003,,,,,,,,,,,,
,,4,6.8752,1.984253472,1.7622,0,6,6,4,1,stim/p_schwa_g.wav,5dc483cf74939e34e55c3619,001,2022-03-09_13h24.25.548,vct_new,2021.2.3,MacIntel,20.00080003,,,,,,,,,,,,
,,1,2.5127,3.376579861,3.088,0,7,7,5,1,stim/paf_g.wav,5dc483cf74939e34e55c3619,001,2022-03-09_13h24.25.548,vct_new,2021.2.3,MacIntel,20.00080003,,,,,,,,,,,,
,,1,2.3849,3.376579861,0.7742,1,0,8,5,1,stim/paf_g.wav,5dc483cf74939e34e55c3619,001,2022-03-09_13h24.25.548,vct_new,2021.2.3,MacIntel,20.00080003,,,,,,,,,,,,
,,2,3.3069,2.815017361,1.6213,1,1,9,1,1,stim/faf_g.wav,5dc483cf74939e34e55c3619,001,2022-03-09_13h24.25.548,vct_new,2021.2.3,MacIntel,20.00080003,,,,,,,,,,,,
,,3,2.959,3.876319444,2.4612,1,2,10,6,1,stim/piep_g.wav,5dc483cf74939e34e55c3619,001,2022-03-09_13h24.25.548,vct_new,2021.2.3,MacIntel,20.00080003,,,,,,,,,,,,
,,1,4.7612,3.0946875,1.3659,1,3,11,0,1,stim/f_schwa_g.wav,5dc483cf74939e34e55c3619,001,2022-03-09_13h24.25.548,vct_new,2021.2.3,MacIntel,20.00080003,,,,,,,,,,,,
,,1,3.2306,3.0946875,0.8221,1,4,12,4,1,stim/p_schwa_g.wav,5dc483cf74939e34e55c3619,001,2022-03-09_13h24.25.548,vct_new,2021.2.3,MacIntel,20.00080003,,,,,,,,,,,,
,,3,2.3793,3.960069444,2.1618,1,5,13,2,1,stim/fif_g.wav,5dc483cf74939e34e55c3619,001,2022-03-09_13h24.25.548,vct_new,2021.2.3,MacIntel,20.00080003,,,,,,,,,,,,
,,2,2.6018,2.604149306,1.5826,1,6,14,3,1,stim/fof_g.wav,5dc483cf74939e34e55c3619,001,2022-03-09_13h24.25.548,vct_new,2021.2.3,MacIntel,20.00080003,,,,,,,,,,,,
,,2,3.4793,3.036579861,1.4529,1,7,15,7,1,stim/pof_g.wav,5dc483cf74939e34e55c3619,001,2022-03-09_13h24.25.548,vct_new,2021.2.3,MacIntel,20.00080003,,,,,,,,,,,,
,,2,3.9415,3.303975694,1.5647,2,0,16,7,1,stim/pof_g.wav,5dc483cf74939e34e55c3619,001,2022-03-09_13h24.25.548,vct_new,2021.2.3,MacIntel,20.00080003,,,,,,,,,,,,
,,3,2.3218,4.027743056,2.2051,2,1,17,6,1,stim/piep_g.wav,5dc483cf74939e34e55c3619,001,2022-03-09_13h24.25.548,vct_new,2021.2.3,MacIntel,20.00080003,,,,,,,,,,,,
,,1,2.5663,3.292604167,2.0521,2,2,18,5,1,stim/paf_g.wav,5dc483cf74939e34e55c3619,001,2022-03-09_13h24.25.548,vct_new,2021.2.3,MacIntel,20.00080003,,,,,,,,,,,,
,,1,3.8838,3.135121528,3.1889,2,3,19,3,1,stim/fof_g.wav,5dc483cf74939e34e55c3619,001,2022-03-09_13h24.25.548,vct_new,2021.2.3,MacIntel,20.00080003,,,,,,,,,,,,
,,1,8.1559,2.449045139,1.6442,2,4,20,0,1,stim/f_schwa_g.wav,5dc483cf74939e34e55c3619,001,2022-03-09_13h24.25.548,vct_new,2021.2.3,MacIntel,20.00080003,,,,,,,,,,,,
,,3,2.3381,3.971649306,1.5867,2,5,21,2,1,stim/fif_g.wav,5dc483cf74939e34e55c3619,001,2022-03-09_13h24.25.548,vct_new,2021.2.3,MacIntel,20.00080003,,,,,,,,,,,,
,,2,6.7546,2.340746528,1.4818,2,6,22,4,1,stim/p_schwa_g.wav,5dc483cf74939e34e55c3619,001,2022-03-09_13h24.25.548,vct_new,2021.2.3,MacIntel,20.00080003,,,,,,,,,,,,
,,2,1.9309,2.340746528,0.6085,2,7,23,1,1,stim/faf_g.wav,5dc483cf74939e34e55c3619,001,2022-03-09_13h24.25.548,vct_new,2021.2.3,MacIntel,20.00080003,,,,,,,,,,,,
,,,,,,,,,,,,5dc483cf74939e34e55c3619,001,2022-03-09_13h24.25.548,vct_new,2021.2.3,MacIntel,20.00080003,1,1,1.1702,0,0,0,33,1,stim/Step_5.wav,stim/Step_6.wav,-1,1
,,,,,,,,,,,,5dc483cf74939e34e55c3619,001,2022-03-09_13h24.25.548,vct_new,2021.2.3,MacIntel,20.00080003,1,1,0.775,0,1,1,2,1,stim/Step_1.wav,stim/Step_3.wav,-2,1
,,,,,,,,,,,,5dc483cf74939e34e55c3619,001,2022-03-09_13h24.25.548,vct_new,2021.2.3,MacIntel,20.00080003,0,0,0.784,0,2,2,36,1,stim/Step_6.wav,stim/Step_2.wav,4,1
,,,,,,,,,,,,5dc483cf74939e34e55c3619,001,2022-03-09_13h24.25.548,vct_new,2021.2.3,MacIntel,20.00080003,1,0,0.6727,0,3,3,8,1,stim/Step_2.wav,stim/Step_2.wav,0,0
,,,,,,,,,,,,5dc483cf74939e34e55c3619,001,2022-03-09_13h24.25.548,vct_new,2021.2.3,MacIntel,20.00080003,0,0,0.5828,0,4,4,37,1,stim/Step_6.wav,stim/Step_3.wav,3,1
,,,,,,,,,,,,5dc483cf74939e34e55c3619,001,2022-03-09_13h24.25.548,vct_new,2021.2.3,MacIntel,20.00080003,0,0,0.6778,0,5,5,42,1,stim/Step_7.wav,stim/Step_1.wav,6,1
,,,,,,,,,,,,5dc483cf74939e34e55c3619,001,2022-03-09_13h24.25.548,vct_new,2021.2.3,MacIntel,20.00080003,0,0,0.7763,0,6,6,23,1,stim/Step_4.wav,stim/Step_3.wav,1,1
,,,,,,,,,,,,5dc483cf74939e34e55c3619,001,2022-03-09_13h24.25.548,vct_new,2021.2.3,MacIntel,20.00080003,1,1,0.6707,0,7,7,7,1,stim/Step_2.wav,stim/Step_1.wav,1,1
,,,,,,,,,,,,5dc483cf74939e34e55c3619,001,2022-03-09_13h24.25.548,vct_new,2021.2.3,MacIntel,20.00080003,0,0,0.7527,0,8,8,13,1,stim/Step_2.wav,stim/Step_7.wav,-5,1
,,,,,,,,,,,,5dc483cf74939e34e55c3619,001,2022-03-09_13h24.25.548,vct_new,2021.2.3,MacIntel,20.00080003,1,0,0.6787,0,9,9,0,1,stim/Step_1.wav,stim/Step_1.wav,0,0
,,,,,,,,,,,,5dc483cf74939e34e55c3619,001,2022-03-09_13h24.25.548,vct_new,2021.2.3,MacIntel,20.00080003,1,1,0.6908,0,10,10,45,1,stim/Step_7.wav,stim/Step_4.wav,3,1
,,,,,,,,,,,,5dc483cf74939e34e55c3619,001,2022-03-09_13h24.25.548,vct_new,2021.2.3,MacIntel,20.00080003,0,0,0.5765,0,11,11,12,1,stim/Step_2.wav,stim/Step_6.wav,-4,1
,,,,,,,,,,,,5dc483cf74939e34e55c3619,001,2022-03-09_13h24.25.548,vct_new,2021.2.3,MacIntel,20.00080003,0,0,0.7751,0,12,12,26,1,stim/Step_4.wav,stim/Step_6.wav,-2,1
,,,,,,,,,,,,5dc483cf74939e34e55c3619,001,2022-03-09_13h24.25.548,vct_new,2021.2.3,MacIntel,20.00080003,1,1,0.5828,0,13,13,11,1,stim/Step_2.wav,stim/Step_5.wav,-3,1
,,,,,,,,,,,,5dc483cf74939e34e55c3619,001,2022-03-09_13h24.25.548,vct_new,2021.2.3,MacIntel,20.00080003,0,0,0.682,0,14,14,35,1,stim/Step_6.wav,stim/Step_1.wav,5,1
,,,,,,,,,,,,5dc483cf74939e34e55c3619,001,2022-03-09_13h24.25.548,vct_new,2021.2.3,MacIntel,20.00080003,1,1,0.65,0,15,15,27,1,stim/Step_4.wav,stim/Step_7.wav,-3,1
,,,,,,,,,,,,5dc483cf74939e34e55c3619,001,2022-03-09_13h24.25.548,vct_new,2021.2.3,MacIntel,20.00080003,1,1,0.6777,0,16,16,31,1,stim/Step_5.wav,stim/Step_4.wav,1,1
,,,,,,,,,,,,5dc483cf74939e34e55c3619,001,2022-03-09_13h24.25.548,vct_new,2021.2.3,MacIntel,20.00080003,1,1,0.8787,0,17,17,17,1,stim/Step_3.wav,stim/Step_4.wav,-1,1
,,,,,,,,,,,,5dc483cf74939e34e55c3619,001,2022-03-09_13h24.25.548,vct_new,2021.2.3,MacIntel,20.00080003,1,1,0.8799,0,18,18,30,1,stim/Step_5.wav,stim/Step_3.wav,2,1
,,,,,,,,,,,,5dc483cf74939e34e55c3619,001,2022-03-09_13h24.25.548,vct_new,2021.2.3,MacIntel,20.00080003,0,0,0.7765,0,19,19,19,1,stim/Step_3.wav,stim/Step_6.wav,-3,1
,,,,,,,,,,,,5dc483cf74939e34e55c3619,001,2022-03-09_13h24.25.548,vct_new,2021.2.3,MacIntel,20.00080003,1,1,0.821,0,20,20,1,1,stim/Step_1.wav,stim/Step_2.wav,-1,1
,,,,,,,,,,,,5dc483cf74939e34e55c3619,001,2022-03-09_13h24.25.548,vct_new,2021.2.3,MacIntel,20.00080003,0,0,0.684,0,21,21,18,1,stim/Step_3.wav,stim/Step_5.wav,-2,1
,,,,,,,,,,,,5dc483cf74939e34e55c3619,001,2022-03-09_13h24.25.548,vct_new,2021.2.3,MacIntel,20.00080003,0,0,0.5846,0,22,22,5,1,stim/Step_1.wav,stim/Step_6.wav,-5,1
,,,,,,,,,,,,5dc483cf74939e34e55c3619,001,2022-03-09_13h24.25.548,vct_new,2021.2.3,MacIntel,20.00080003,0,0,0.4785,0,23,23,10,1,stim/Step_2.wav,stim/Step_4.wav,-2,1
,,,,,,,,,,,,5dc483cf74939e34e55c3619,001,2022-03-09_13h24.25.548,vct_new,2021.2.3,MacIntel,20.00080003,0,1,0.5821,0,24,24,24,1,stim/Step_4.wav,stim/Step_4.wav,0,0
,,,,,,,,,,,,5dc483cf74939e34e55c3619,001,2022-03-09_13h24.25.548,vct_new,2021.2.3,MacIntel,20.00080003,1,0,0.4854,0,25,25,32,1,stim/Step_5.wav,stim/Step_5.wav,0,0
,,,,,,,,,,,,5dc483cf74939e34e55c3619,001,2022-03-09_13h24.25.548,vct_new,2021.2.3,MacIntel,20.00080003,1,1,0.5835,0,26,26,21,1,stim/Step_4.wav,stim/Step_1.wav,3,1
,,,,,,,,,,,,5dc483cf74939e34e55c3619,001,2022-03-09_13h24.25.548,vct_new,2021.2.3,MacIntel,20.00080003,0,0,0.5839,0,27,27,39,1,stim/Step_6.wav,stim/Step_5.wav,1,1
,,,,,,,,,,,,5dc483cf74939e34e55c3619,001,2022-03-09_13h24.25.548,vct_new,2021.2.3,MacIntel,20.00080003,1,1,0.6857,0,28,28,14,1,stim/Step_3.wav,stim/Step_1.wav,2,1
,,,,,,,,,,,,5dc483cf74939e34e55c3619,001,2022-03-09_13h24.25.548,vct_new,2021.2.3,MacIntel,20.00080003,0,0,0.7745,0,29,29,6,1,stim/Step_1.wav,stim/Step_7.wav,-6,1
,,,,,,,,,,,,5dc483cf74939e34e55c3619,001,2022-03-09_13h24.25.548,vct_new,2021.2.3,MacIntel,20.00080003,0,0,0.6759,0,30,30,41,1,stim/Step_6.wav,stim/Step_7.wav,-1,1
,,,,,,,,,,,,5dc483cf74939e34e55c3619,001,2022-03-09_13h24.25.548,vct_new,2021.2.3,MacIntel,20.00080003,1,1,0.8771,0,31,31,9,1,stim/Step_2.wav,stim/Step_3.wav,-1,1
,,,,,,,,,,,,5dc483cf74939e34e55c3619,001,2022-03-09_13h24.25.548,vct_new,2021.2.3,MacIntel,20.00080003,0,0,1.0705,0,32,32,29,1,stim/Step_5.wav,stim/Step_2.wav,3,1
,,,,,,,,,,,,5dc483cf74939e34e55c3619,001,2022-03-09_13h24.25.548,vct_new,2021.2.3,MacIntel,20.00080003,1,1,1.0792,0,33,33,34,1,stim/Step_5.wav,stim/Step_7.wav,-2,1
,,,,,,,,,,,,5dc483cf74939e34e55c3619,001,2022-03-09_13h24.25.548,vct_new,2021.2.3,MacIntel,20.00080003,1,1,0.5789,0,34,34,3,1,stim/Step_1.wav,stim/Step_4.wav,-3,1
,,,,,,,,,,,,5dc483cf74939e34e55c3619,001,2022-03-09_13h24.25.548,vct_new,2021.2.3,MacIntel,20.00080003,1,1,0.7821,0,35,35,15,1,stim/Step_3.wav,stim/Step_2.wav,1,1
,,,,,,,,,,,,5dc483cf74939e34e55c3619,001,2022-03-09_13h24.25.548,vct_new,2021.2.3,MacIntel,20.00080003,1,1,0.9722,0,36,36,47,1,stim/Step_7.wav,stim/Step_6.wav,1,1
,,,,,,,,,,,,5dc483cf74939e34e55c3619,001,2022-03-09_13h24.25.548,vct_new,2021.2.3,MacIntel,20.00080003,0,0,0.6812,0,37,37,43,1,stim/Step_7.wav,stim/Step_2.wav,5,1
,,,,,,,,,,,,5dc483cf74939e34e55c3619,001,2022-03-09_13h24.25.548,vct_new,2021.2.3,MacIntel,20.00080003,1,0,0.5807,0,38,38,40,1,stim/Step_6.wav,stim/Step_6.wav,0,0
,,,,,,,,,,,,5dc483cf74939e34e55c3619,001,2022-03-09_13h24.25.548,vct_new,2021.2.3,MacIntel,20.00080003,0,0,0.7888,0,39,39,28,1,stim/Step_5.wav,stim/Step_1.wav,4,1
,,,,,,,,,,,,5dc483cf74939e34e55c3619,001,2022-03-09_13h24.25.548,vct_new,2021.2.3,MacIntel,20.00080003,1,1,1.0742,0,40,40,4,1,stim/Step_1.wav,stim/Step_5.wav,-4,1
,,,,,,,,,,,,5dc483cf74939e34e55c3619,001,2022-03-09_13h24.25.548,vct_new,2021.2.3,MacIntel,20.00080003,1,1,0.9008,0,41,41,25,1,stim/Step_4.wav,stim/Step_5.wav,-1,1
,,,,,,,,,,,,5dc483cf74939e34e55c3619,001,2022-03-09_13h24.25.548,vct_new,2021.2.3,MacIntel,20.00080003,1,0,0.7813,0,42,42,48,1,stim/Step_7.wav,stim/Step_7.wav,0,0
,,,,,,,,,,,,5dc483cf74939e34e55c3619,001,2022-03-09_13h24.25.548,vct_new,2021.2.3,MacIntel,20.00080003,0,0,0.5842,0,43,43,20,1,stim/Step_3.wav,stim/Step_7.wav,-4,1
,,,,,,,,,,,,5dc483cf74939e34e55c3619,001,2022-03-09_13h24.25.548,vct_new,2021.2.3,MacIntel,20.00080003,1,1,0.6741,0,44,44,38,1,stim/Step_6.wav,stim/Step_4.wav,2,1
,,,,,,,,,,,,5dc483cf74939e34e55c3619,001,2022-03-09_13h24.25.548,vct_new,2021.2.3,MacIntel,20.00080003,1,1,0.9753,0,45,45,22,1,stim/Step_4.wav,stim/Step_2.wav,2,1
,,,,,,,,,,,,5dc483cf74939e34e55c3619,001,2022-03-09_13h24.25.548,vct_new,2021.2.3,MacIntel,20.00080003,0,0,0.8778,0,46,46,44,1,stim/Step_7.wav,stim/Step_3.wav,4,1
,,,,,,,,,,,,5dc483cf74939e34e55c3619,001,2022-03-09_13h24.25.548,vct_new,2021.2.3,MacIntel,20.00080003,1,1,0.8832,0,47,47,46,1,stim/Step_7.wav,stim/Step_5.wav,2,1
,,,,,,,,,,,,5dc483cf74939e34e55c3619,001,2022-03-09_13h24.25.548,vct_new,2021.2.3,MacIntel,20.00080003,1,0,0.8785,0,48,48,16,1,stim/Step_3.wav,stim/Step_3.wav,0,0
,,,,,,,,,,,,5dc483cf74939e34e55c3619,001,2022-03-09_13h24.25.548,vct_new,2021.2.3,MacIntel,20.00080003,0,0,0.6776,1,0,49,26,1,stim/Step_4.wav,stim/Step_6.wav,-2,1
,,,,,,,,,,,,5dc483cf74939e34e55c3619,001,2022-03-09_13h24.25.548,vct_new,2021.2.3,MacIntel,20.00080003,1,1,0.8769,1,1,50,42,1,stim/Step_7.wav,stim/Step_1.wav,6,1
,,,,,,,,,,,,5dc483cf74939e34e55c3619,001,2022-03-09_13h24.25.548,vct_new,2021.2.3,MacIntel,20.00080003,0,0,0.7761,1,2,51,39,1,stim/Step_6.wav,stim/Step_5.wav,1,1
,,,,,,,,,,,,5dc483cf74939e34e55c3619,001,2022-03-09_13h24.25.548,vct_new,2021.2.3,MacIntel,20.00080003,0,0,1.1658,1,3,52,43,1,stim/Step_7.wav,stim/Step_2.wav,5,1
,,,,,,,,,,,,5dc483cf74939e34e55c3619,001,2022-03-09_13h24.25.548,vct_new,2021.2.3,MacIntel,20.00080003,1,1,1.1683,1,4,53,41,1,stim/Step_6.wav,stim/Step_7.wav,-1,1
,,,,,,,,,,,,5dc483cf74939e34e55c3619,001,2022-03-09_13h24.25.548,vct_new,2021.2.3,MacIntel,20.00080003,1,1,0.8711,1,5,54,9,1,stim/Step_2.wav,stim/Step_3.wav,-1,1
,,,,,,,,,,,,5dc483cf74939e34e55c3619,001,2022-03-09_13h24.25.548,vct_new,2021.2.3,MacIntel,20.00080003,1,1,0.8755,1,6,55,35,1,stim/Step_6.wav,stim/Step_1.wav,5,1
,,,,,,,,,,,,5dc483cf74939e34e55c3619,001,2022-03-09_13h24.25.548,vct_new,2021.2.3,MacIntel,20.00080003,1,1,0.876,1,7,56,15,1,stim/Step_3.wav,stim/Step_2.wav,1,1
,,,,,,,,,,,,5dc483cf74939e34e55c3619,001,2022-03-09_13h24.25.548,vct_new,2021.2.3,MacIntel,20.00080003,0,0,0.5037,1,8,57,20,1,stim/Step_3.wav,stim/Step_7.wav,-4,1
,,,,,,,,,,,,5dc483cf74939e34e55c3619,001,2022-03-09_13h24.25.548,vct_new,2021.2.3,MacIntel,20.00080003,1,0,0.6797,1,9,58,48,1,stim/Step_7.wav,stim/Step_7.wav,0,0
,,,,,,,,,,,,5dc483cf74939e34e55c3619,001,2022-03-09_13h24.25.548,vct_new,2021.2.3,MacIntel,20.00080003,0,0,0.5786,1,10,59,5,1,stim/Step_1.wav,stim/Step_6.wav,-5,1
,,,,,,,,,,,,5dc483cf74939e34e55c3619,001,2022-03-09_13h24.25.548,vct_new,2021.2.3,MacIntel,20.00080003,1,1,0.6891,1,11,60,21,1,stim/Step_4.wav,stim/Step_1.wav,3,1
,,,,,,,,,,,,5dc483cf74939e34e55c3619,001,2022-03-09_13h24.25.548,vct_new,2021.2.3,MacIntel,20.00080003,0,0,0.8692,1,12,61,44,1,stim/Step_7.wav,stim/Step_3.wav,4,1
,,,,,,,,,,,,5dc483cf74939e34e55c3619,001,2022-03-09_13h24.25.548,vct_new,2021.2.3,MacIntel,20.00080003,0,0,0.6814,1,13,62,19,1,stim/Step_3.wav,stim/Step_6.wav,-3,1
,,,,,,,,,,,,5dc483cf74939e34e55c3619,001,2022-03-09_13h24.25.548,vct_new,2021.2.3,MacIntel,20.00080003,0,0,0.779,1,14,63,3,1,stim/Step_1.wav,stim/Step_4.wav,-3,1
,,,,,,,,,,,,5dc483cf74939e34e55c3619,001,2022-03-09_13h24.25.548,vct_new,2021.2.3,MacIntel,20.00080003,1,1,0.7931,1,15,64,45,1,stim/Step_7.wav,stim/Step_4.wav,3,1
,,,,,,,,,,,,5dc483cf74939e34e55c3619,001,2022-03-09_13h24.25.548,vct_new,2021.2.3,MacIntel,20.00080003,0,0,0.6787,1,16,65,28,1,stim/Step_5.wav,stim/Step_1.wav,4,1
,,,,,,,,,,,,5dc483cf74939e34e55c3619,001,2022-03-09_13h24.25.548,vct_new,2021.2.3,MacIntel,20.00080003,1,1,0.9673,1,17,66,22,1,stim/Step_4.wav,stim/Step_2.wav,2,1
,,,,,,,,,,,,5dc483cf74939e34e55c3619,001,2022-03-09_13h24.25.548,vct_new,2021.2.3,MacIntel,20.00080003,1,1,0.7764,1,18,67,34,1,stim/Step_5.wav,stim/Step_7.wav,-2,1
,,,,,,,,,,,,5dc483cf74939e34e55c3619,001,2022-03-09_13h24.25.548,vct_new,2021.2.3,MacIntel,20.00080003,0,0,0.7744,1,19,68,29,1,stim/Step_5.wav,stim/Step_2.wav,3,1
,,,,,,,,,,,,5dc483cf74939e34e55c3619,001,2022-03-09_13h24.25.548,vct_new,2021.2.3,MacIntel,20.00080003,0,0,0.5794,1,20,69,37,1,stim/Step_6.wav,stim/Step_3.wav,3,1
,,,,,,,,,,,,5dc483cf74939e34e55c3619,001,2022-03-09_13h24.25.548,vct_new,2021.2.3,MacIntel,20.00080003,1,1,0.7869,1,21,70,23,1,stim/Step_4.wav,stim/Step_3.wav,1,1
,,,,,,,,,,,,5dc483cf74939e34e55c3619,001,2022-03-09_13h24.25.548,vct_new,2021.2.3,MacIntel,20.00080003,1,1,0.5734,1,22,71,14,1,stim/Step_3.wav,stim/Step_1.wav,2,1
,,,,,,,,,,,,5dc483cf74939e34e55c3619,001,2022-03-09_13h24.25.548,vct_new,2021.2.3,MacIntel,20.00080003,0,0,0.6722,1,23,72,4,1,stim/Step_1.wav,stim/Step_5.wav,-4,1
,,,,,,,,,,,,5dc483cf74939e34e55c3619,001,2022-03-09_13h24.25.548,vct_new,2021.2.3,MacIntel,20.00080003,1,1,0.8785,1,24,73,38,1,stim/Step_6.wav,stim/Step_4.wav,2,1
,,,,,,,,,,,,5dc483cf74939e34e55c3619,001,2022-03-09_13h24.25.548,vct_new,2021.2.3,MacIntel,20.00080003,1,1,0.8719,1,25,74,18,1,stim/Step_3.wav,stim/Step_5.wav,-2,1
,,,,,,,,,,,,5dc483cf74939e34e55c3619,001,2022-03-09_13h24.25.548,vct_new,2021.2.3,MacIntel,20.00080003,1,1,0.9724,1,26,75,1,1,stim/Step_1.wav,stim/Step_2.wav,-1,1
,,,,,,,,,,,,5dc483cf74939e34e55c3619,001,2022-03-09_13h24.25.548,vct_new,2021.2.3,MacIntel,20.00080003,0,0,0.5829,1,27,76,10,1,stim/Step_2.wav,stim/Step_4.wav,-2,1
,,,,,,,,,,,,5dc483cf74939e34e55c3619,001,2022-03-09_13h24.25.548,vct_new,2021.2.3,MacIntel,20.00080003,1,1,0.8708,1,28,77,7,1,stim/Step_2.wav,stim/Step_1.wav,1,1
,,,,,,,,,,,,5dc483cf74939e34e55c3619,001,2022-03-09_13h24.25.548,vct_new,2021.2.3,MacIntel,20.00080003,0,0,0.5744,1,29,78,36,1,stim/Step_6.wav,stim/Step_2.wav,4,1
,,,,,,,,,,,,5dc483cf74939e34e55c3619,001,2022-03-09_13h24.25.548,vct_new,2021.2.3,MacIntel,20.00080003,0,0,0.4822,1,30,79,17,1,stim/Step_3.wav,stim/Step_4.wav,-1,1
,,,,,,,,,,,,5dc483cf74939e34e55c3619,001,2022-03-09_13h24.25.548,vct_new,2021.2.3,MacIntel,20.00080003,0,0,0.5949,1,31,80,13,1,stim/Step_2.wav,stim/Step_7.wav,-5,1
,,,,,,,,,,,,5dc483cf74939e34e55c3619,001,2022-03-09_13h24.25.548,vct_new,2021.2.3,MacIntel,20.00080003,1,0,0.9608,1,32,81,24,1,stim/Step_4.wav,stim/Step_4.wav,0,0
,,,,,,,,,,,,5dc483cf74939e34e55c3619,001,2022-03-09_13h24.25.548,vct_new,2021.2.3,MacIntel,20.00080003,1,0,0.8834,1,33,82,8,1,stim/Step_2.wav,stim/Step_2.wav,0,0
,,,,,,,,,,,,5dc483cf74939e34e55c3619,001,2022-03-09_13h24.25.548,vct_new,2021.2.3,MacIntel,20.00080003,0,0,0.6776,1,34,83,6,1,stim/Step_1.wav,stim/Step_7.wav,-6,1
,,,,,,,,,,,,5dc483cf74939e34e55c3619,001,2022-03-09_13h24.25.548,vct_new,2021.2.3,MacIntel,20.00080003,1,0,0.9719,1,35,84,40,1,stim/Step_6.wav,stim/Step_6.wav,0,0
,,,,,,,,,,,,5dc483cf74939e34e55c3619,001,2022-03-09_13h24.25.548,vct_new,2021.2.3,MacIntel,20.00080003,0,0,0.4858,1,36,85,12,1,stim/Step_2.wav,stim/Step_6.wav,-4,1
,,,,,,,,,,,,5dc483cf74939e34e55c3619,001,2022-03-09_13h24.25.548,vct_new,2021.2.3,MacIntel,20.00080003,0,0,0.6731,1,37,86,25,1,stim/Step_4.wav,stim/Step_5.wav,-1,1
,,,,,,,,,,,,5dc483cf74939e34e55c3619,001,2022-03-09_13h24.25.548,vct_new,2021.2.3,MacIntel,20.00080003,1,1,0.7731,1,38,87,46,1,stim/Step_7.wav,stim/Step_5.wav,2,1
,,,,,,,,,,,,5dc483cf74939e34e55c3619,001,2022-03-09_13h24.25.548,vct_new,2021.2.3,MacIntel,20.00080003,1,0,1.3511,1,39,88,16,1,stim/Step_3.wav,stim/Step_3.wav,0,0
,,,,,,,,,,,,5dc483cf74939e34e55c3619,001,2022-03-09_13h24.25.548,vct_new,2021.2.3,MacIntel,20.00080003,0,1,1.0603,1,40,89,32,1,stim/Step_5.wav,stim/Step_5.wav,0,0
,,,,,,,,,,,,5dc483cf74939e34e55c3619,001,2022-03-09_13h24.25.548,vct_new,2021.2.3,MacIntel,20.00080003,1,1,1.1693,1,41,90,47,1,stim/Step_7.wav,stim/Step_6.wav,1,1
,,,,,,,,,,,,5dc483cf74939e34e55c3619,001,2022-03-09_13h24.25.548,vct_new,2021.2.3,MacIntel,20.00080003,1,1,0.8728,1,42,91,31,1,stim/Step_5.wav,stim/Step_4.wav,1,1
,,,,,,,,,,,,5dc483cf74939e34e55c3619,001,2022-03-09_13h24.25.548,vct_new,2021.2.3,MacIntel,20.00080003,1,1,0.5736,1,43,92,2,1,stim/Step_1.wav,stim/Step_3.wav,-2,1
,,,,,,,,,,,,5dc483cf74939e34e55c3619,001,2022-03-09_13h24.25.548,vct_new,2021.2.3,MacIntel,20.00080003,0,0,1.2612,1,44,93,30,1,stim/Step_5.wav,stim/Step_3.wav,2,1
,,,,,,,,,,,,5dc483cf74939e34e55c3619,001,2022-03-09_13h24.25.548,vct_new,2021.2.3,MacIntel,20.00080003,1,1,1.0528,1,45,94,27,1,stim/Step_4.wav,stim/Step_7.wav,-3,1
,,,,,,,,,,,,5dc483cf74939e34e55c3619,001,2022-03-09_13h24.25.548,vct_new,2021.2.3,MacIntel,20.00080003,1,1,0.767,1,46,95,33,1,stim/Step_5.wav,stim/Step_6.wav,-1,1
,,,,,,,,,,,,5dc483cf74939e34e55c3619,001,2022-03-09_13h24.25.548,vct_new,2021.2.3,MacIntel,20.00080003,0,0,1.45,1,47,96,11,1,stim/Step_2.wav,stim/Step_5.wav,-3,1
,,,,,,,,,,,,5dc483cf74939e34e55c3619,001,2022-03-09_13h24.25.548,vct_new,2021.2.3,MacIntel,20.00080003,1,0,0.6691,1,48,97,0,1,stim/Step_1.wav,stim/Step_1.wav,0,0
,,,,,,,,,,,,5dc483cf74939e34e55c3619,001,2022-03-09_13h24.25.548,vct_new,2021.2.3,MacIntel,20.00080003,0,0,0.974,2,0,98,6,1,stim/Step_1.wav,stim/Step_7.wav,-6,1
,,,,,,,,,,,,5dc483cf74939e34e55c3619,001,2022-03-09_13h24.25.548,vct_new,2021.2.3,MacIntel,20.00080003,0,0,0.8596,2,1,99,46,1,stim/Step_7.wav,stim/Step_5.wav,2,1
,,,,,,,,,,,,5dc483cf74939e34e55c3619,001,2022-03-09_13h24.25.548,vct_new,2021.2.3,MacIntel,20.00080003,1,1,0.976,2,2,100,15,1,stim/Step_3.wav,stim/Step_2.wav,1,1
,,,,,,,,,,,,5dc483cf74939e34e55c3619,001,2022-03-09_13h24.25.548,vct_new,2021.2.3,MacIntel,20.00080003,0,0,0.7644,2,3,101,3,1,stim/Step_1.wav,stim/Step_4.wav,-3,1
,,,,,,,,,,,,5dc483cf74939e34e55c3619,001,2022-03-09_13h24.25.548,vct_new,2021.2.3,MacIntel,20.00080003,0,0,1.2539,2,4,102,41,1,stim/Step_6.wav,stim/Step_7.wav,-1,1
,,,,,,,,,,,,5dc483cf74939e34e55c3619,001,2022-03-09_13h24.25.548,vct_new,2021.2.3,MacIntel,20.00080003,1,0,0.9631,2,5,103,0,1,stim/Step_1.wav,stim/Step_1.wav,0,0
,,,,,,,,,,,,5dc483cf74939e34e55c3619,001,2022-03-09_13h24.25.548,vct_new,2021.2.3,MacIntel,20.00080003,0,0,0.5617,2,6,104,18,1,stim/Step_3.wav,stim/Step_5.wav,-2,1
,,,,,,,,,,,,5dc483cf74939e34e55c3619,001,2022-03-09_13h24.25.548,vct_new,2021.2.3,MacIntel,20.00080003,1,1,0.6823,2,7,105,17,1,stim/Step_3.wav,stim/Step_4.wav,-1,1
,,,,,,,,,,,,5dc483cf74939e34e55c3619,001,2022-03-09_13h24.25.548,vct_new,2021.2.3,MacIntel,20.00080003,0,0,0.8601,2,8,106,39,1,stim/Step_6.wav,stim/Step_5.wav,1,1
,,,,,,,,,,,,5dc483cf74939e34e55c3619,001,2022-03-09_13h24.25.548,vct_new,2021.2.3,MacIntel,20.00080003,0,0,1.0747,2,9,107,45,1,stim/Step_7.wav,stim/Step_4.wav,3,1
,,,,,,,,,,,,5dc483cf74939e34e55c3619,001,2022-03-09_13h24.25.548,vct_new,2021.2.3,MacIntel,20.00080003,1,1,0.7667,2,10,108,22,1,stim/Step_4.wav,stim/Step_2.wav,2,1
,,,,,,,,,,,,5dc483cf74939e34e55c3619,001,2022-03-09_13h24.25.548,vct_new,2021.2.3,MacIntel,20.00080003,0,0,1.2576,2,11,109,31,1,stim/Step_5.wav,stim/Step_4.wav,1,1
,,,,,,,,,,,,5dc483cf74939e34e55c3619,001,2022-03-09_13h24.25.548,vct_new,2021.2.3,MacIntel,20.00080003,0,0,0.5786,2,12,110,26,1,stim/Step_4.wav,stim/Step_6.wav,-2,1
,,,,,,,,,,,,5dc483cf74939e34e55c3619,001,2022-03-09_13h24.25.548,vct_new,2021.2.3,MacIntel,20.00080003,1,0,0.7685,2,13,111,32,1,stim/Step_5.wav,stim/Step_5.wav,0,0
,,,,,,,,,,,,5dc483cf74939e34e55c3619,001,2022-03-09_13h24.25.548,vct_new,2021.2.3,MacIntel,20.00080003,1,0,0.8641,2,14,112,24,1,stim/Step_4.wav,stim/Step_4.wav,0,0
,,,,,,,,,,,,5dc483cf74939e34e55c3619,001,2022-03-09_13h24.25.548,vct_new,2021.2.3,MacIntel,20.00080003,0,0,0.7665,2,15,113,13,1,stim/Step_2.wav,stim/Step_7.wav,-5,1
,,,,,,,,,,,,5dc483cf74939e34e55c3619,001,2022-03-09_13h24.25.548,vct_new,2021.2.3,MacIntel,20.00080003,1,1,0.7699,2,16,114,7,1,stim/Step_2.wav,stim/Step_1.wav,1,1
,,,,,,,,,,,,5dc483cf74939e34e55c3619,001,2022-03-09_13h24.25.548,vct_new,2021.2.3,MacIntel,20.00080003,0,0,0.7643,2,17,115,19,1,stim/Step_3.wav,stim/Step_6.wav,-3,1
,,,,,,,,,,,,5dc483cf74939e34e55c3619,001,2022-03-09_13h24.25.548,vct_new,2021.2.3,MacIntel,20.00080003,0,0,0.7692,2,18,116,43,1,stim/Step_7.wav,stim/Step_2.wav,5,1
,,,,,,,,,,,,5dc483cf74939e34e55c3619,001,2022-03-09_13h24.25.548,vct_new,2021.2.3,MacIntel,20.00080003,1,1,0.9703,2,19,117,23,1,stim/Step_4.wav,stim/Step_3.wav,1,1
,,,,,,,,,,,,5dc483cf74939e34e55c3619,001,2022-03-09_13h24.25.548,vct_new,2021.2.3,MacIntel,20.00080003,0,0,0.8565,2,20,118,35,1,stim/Step_6.wav,stim/Step_1.wav,5,1
,,,,,,,,,,,,5dc483cf74939e34e55c3619,001,2022-03-09_13h24.25.548,vct_new,2021.2.3,MacIntel,20.00080003,1,1,0.5768,2,21,119,2,1,stim/Step_1.wav,stim/Step_3.wav,-2,1
,,,,,,,,,,,,5dc483cf74939e34e55c3619,001,2022-03-09_13h24.25.548,vct_new,2021.2.3,MacIntel,20.00080003,0,0,0.5717,2,22,120,36,1,stim/Step_6.wav,stim/Step_2.wav,4,1
,,,,,,,,,,,,5dc483cf74939e34e55c3619,001,2022-03-09_13h24.25.548,vct_new,2021.2.3,MacIntel,20.00080003,1,1,0.6639,2,23,121,47,1,stim/Step_7.wav,stim/Step_6.wav,1,1
,,,,,,,,,,,,5dc483cf74939e34e55c3619,001,2022-03-09_13h24.25.548,vct_new,2021.2.3,MacIntel,20.00080003,1,1,0.7596,2,24,122,10,1,stim/Step_2.wav,stim/Step_4.wav,-2,1
,,,,,,,,,,,,5dc483cf74939e34e55c3619,001,2022-03-09_13h24.25.548,vct_new,2021.2.3,MacIntel,20.00080003,0,0,0.6636,2,25,123,37,1,stim/Step_6.wav,stim/Step_3.wav,3,1
,,,,,,,,,,,,5dc483cf74939e34e55c3619,001,2022-03-09_13h24.25.548,vct_new,2021.2.3,MacIntel,20.00080003,1,0,0.6679,2,26,124,16,1,stim/Step_3.wav,stim/Step_3.wav,0,0
,,,,,,,,,,,,5dc483cf74939e34e55c3619,001,2022-03-09_13h24.25.548,vct_new,2021.2.3,MacIntel,20.00080003,0,0,0.852,2,27,125,20,1,stim/Step_3.wav,stim/Step_7.wav,-4,1
,,,,,,,,,,,,5dc483cf74939e34e55c3619,001,2022-03-09_13h24.25.548,vct_new,2021.2.3,MacIntel,20.00080003,0,0,0.8552,2,28,126,34,1,stim/Step_5.wav,stim/Step_7.wav,-2,1
,,,,,,,,,,,,5dc483cf74939e34e55c3619,001,2022-03-09_13h24.25.548,vct_new,2021.2.3,MacIntel,20.00080003,0,0,0.8576,2,29,127,29,1,stim/Step_5.wav,stim/Step_2.wav,3,1
,,,,,,,,,,,,5dc483cf74939e34e55c3619,001,2022-03-09_13h24.25.548,vct_new,2021.2.3,MacIntel,20.00080003,1,1,1.1465,2,30,128,25,1,stim/Step_4.wav,stim/Step_5.wav,-1,1
,,,,,,,,,,,,5dc483cf74939e34e55c3619,001,2022-03-09_13h24.25.548,vct_new,2021.2.3,MacIntel,20.00080003,0,0,0.8619,2,31,129,11,1,stim/Step_2.wav,stim/Step_5.wav,-3,1
,,,,,,,,,,,,5dc483cf74939e34e55c3619,001,2022-03-09_13h24.25.548,vct_new,2021.2.3,MacIntel,20.00080003,0,1,0.8541,2,32,130,48,1,stim/Step_7.wav,stim/Step_7.wav,0,0
,,,,,,,,,,,,5dc483cf74939e34e55c3619,001,2022-03-09_13h24.25.548,vct_new,2021.2.3,MacIntel,20.00080003,0,0,1.1407,2,33,131,21,1,stim/Step_4.wav,stim/Step_1.wav,3,1
,,,,,,,,,,,,5dc483cf74939e34e55c3619,001,2022-03-09_13h24.25.548,vct_new,2021.2.3,MacIntel,20.00080003,0,0,0.8592,2,34,132,12,1,stim/Step_2.wav,stim/Step_6.wav,-4,1
,,,,,,,,,,,,5dc483cf74939e34e55c3619,001,2022-03-09_13h24.25.548,vct_new,2021.2.3,MacIntel,20.00080003,0,0,1.2356,2,35,133,5,1,stim/Step_1.wav,stim/Step_6.wav,-5,1
,,,,,,,,,,,,5dc483cf74939e34e55c3619,001,2022-03-09_13h24.25.548,vct_new,2021.2.3,MacIntel,20.00080003,1,0,0.6615,2,36,134,8,1,stim/Step_2.wav,stim/Step_2.wav,0,0
,,,,,,,,,,,,5dc483cf74939e34e55c3619,001,2022-03-09_13h24.25.548,vct_new,2021.2.3,MacIntel,20.00080003,0,0,0.7721,2,37,135,27,1,stim/Step_4.wav,stim/Step_7.wav,-3,1
,,,,,,,,,,,,5dc483cf74939e34e55c3619,001,2022-03-09_13h24.25.548,vct_new,2021.2.3,MacIntel,20.00080003,1,1,0.6634,2,38,136,44,1,stim/Step_7.wav,stim/Step_3.wav,4,1
,,,,,,,,,,,,5dc483cf74939e34e55c3619,001,2022-03-09_13h24.25.548,vct_new,2021.2.3,MacIntel,20.00080003,1,1,1.6227,2,39,137,14,1,stim/Step_3.wav,stim/Step_1.wav,2,1
,,,,,,,,,,,,5dc483cf74939e34e55c3619,001,2022-03-09_13h24.25.548,vct_new,2021.2.3,MacIntel,20.00080003,1,0,0.7627,2,40,138,40,1,stim/Step_6.wav,stim/Step_6.wav,0,0
,,,,,,,,,,,,5dc483cf74939e34e55c3619,001,2022-03-09_13h24.25.548,vct_new,2021.2.3,MacIntel,20.00080003,1,1,1.2411,2,41,139,9,1,stim/Step_2.wav,stim/Step_3.wav,-1,1
,,,,,,,,,,,,5dc483cf74939e34e55c3619,001,2022-03-09_13h24.25.548,vct_new,2021.2.3,MacIntel,20.00080003,0,0,0.9543,2,42,140,28,1,stim/Step_5.wav,stim/Step_1.wav,4,1
,,,,,,,,,,,,5dc483cf74939e34e55c3619,001,2022-03-09_13h24.25.548,vct_new,2021.2.3,MacIntel,20.00080003,0,0,1.4457,2,43,141,38,1,stim/Step_6.wav,stim/Step_4.wav,2,1
,,,,,,,,,,,,5dc483cf74939e34e55c3619,001,2022-03-09_13h24.25.548,vct_new,2021.2.3,MacIntel,20.00080003,1,1,0.755,2,44,142,42,1,stim/Step_7.wav,stim/Step_1.wav,6,1
,,,,,,,,,,,,5dc483cf74939e34e55c3619,001,2022-03-09_13h24.25.548,vct_new,2021.2.3,MacIntel,20.00080003,1,1,1.1448,2,45,143,33,1,stim/Step_5.wav,stim/Step_6.wav,-1,1
,,,,,,,,,,,,5dc483cf74939e34e55c3619,001,2022-03-09_13h24.25.548,vct_new,2021.2.3,MacIntel,20.00080003,1,1,0.766,2,46,144,1,1,stim/Step_1.wav,stim/Step_2.wav,-1,1
,,,,,,,,,,,,5dc483cf74939e34e55c3619,001,2022-03-09_13h24.25.548,vct_new,2021.2.3,MacIntel,20.00080003,0,0,0.5692,2,47,145,30,1,stim/Step_5.wav,stim/Step_3.wav,2,1
,,,,,,,,,,,,5dc483cf74939e34e55c3619,001,2022-03-09_13h24.25.548,vct_new,2021.2.3,MacIntel,20.00080003,0,0,0.9578,2,48,146,4,1,stim/Step_1.wav,stim/Step_5.wav,-4,1
