key_resp_3.keys,key_resp_3.rt,key_resp_4.keys,key_resp_4.rt,key_resp_2.keys,key_resp_2.rt,slider.response,slider.rt,trials.thisRepN,trials.thisTrialN,trials.thisN,trials.thisIndex,trials.ran,stim,participant,session,date,expName,psychopyVersion,OS,frameRate,key_resp_5.keys,key_resp_5.rt,key_resp.keys,key_resp.rt,slider_2.response,slider_2.rt,trials_2.thisRepN,trials_2.thisTrialN,trials_2.thisN,trials_2.thisIndex,trials_2.ran,key_resp_6.keys,key_resp_6.rt
1,4.9678,space,10.8621,7,5.2125,2.981481481,6.8545,0,0,0,5,1,stim/fief_g.wav,606a4e5bdd2653423459653a,001,2022-03-24_12h11.45.170,task,2021.2.3,Win32,59.8372427,,,,,,,,,,,,,
,,,,7,17.8112,1,5.2061,0,1,1,1,1,stim/pief_g.wav,606a4e5bdd2653423459653a,001,2022-03-24_12h11.45.170,task,2021.2.3,Win32,59.8372427,,,,,,,,,,,,,
,,,,4,7.3906,2.965848453,1.7765,0,2,2,0,1,stim/pof_g.wav,606a4e5bdd2653423459653a,001,2022-03-24_12h11.45.170,task,2021.2.3,Win32,59.8372427,,,,,,,,,,,,,
,,,,6,5.3754,3,1.2002,0,3,3,2,1,stim/peuf_g.wav,606a4e5bdd2653423459653a,001,2022-03-24_12h11.45.170,task,2021.2.3,Win32,59.8372427,,,,,,,,,,,,,
,,,,1,3.3738,3.994663821,1.5152,0,4,4,7,1,stim/f_schwa_g.wav,606a4e5bdd2653423459653a,001,2022-03-24_12h11.45.170,task,2021.2.3,Win32,59.8372427,,,,,,,,,,,,,
,,,,4,4.4914,4.985058698,1.4322,0,5,5,6,1,stim/feuf_g.wav,606a4e5bdd2653423459653a,001,2022-03-24_12h11.45.170,task,2021.2.3,Win32,59.8372427,,,,,,,,,,,,,
,,,,2,2.2178,4.997865528,1.4493,0,6,6,4,1,stim/fof_g.wav,606a4e5bdd2653423459653a,001,2022-03-24_12h11.45.170,task,2021.2.3,Win32,59.8372427,,,,,,,,,,,,,
,,,,5,3.4515,3.004268943,1.2248,0,7,7,3,1,stim/p_schwa_g.wav,606a4e5bdd2653423459653a,001,2022-03-24_12h11.45.170,task,2021.2.3,Win32,59.8372427,,,,,,,,,,,,,
,,,,3,3.0671,3.951974386,1.4655,1,0,8,5,1,stim/fief_g.wav,606a4e5bdd2653423459653a,001,2022-03-24_12h11.45.170,task,2021.2.3,Win32,59.8372427,,,,,,,,,,,,,
,,,,2,1.6691,4.041622199,1.1208,1,1,9,4,1,stim/fof_g.wav,606a4e5bdd2653423459653a,001,2022-03-24_12h11.45.170,task,2021.2.3,Win32,59.8372427,,,,,,,,,,,,,
,,,,6,4.7676,4.024546425,0.83,1,2,10,0,1,stim/pof_g.wav,606a4e5bdd2653423459653a,001,2022-03-24_12h11.45.170,task,2021.2.3,Win32,59.8372427,,,,,,,,,,,,,
,,,,4,2.0966,2.957310566,1.3234,1,3,11,6,1,stim/feuf_g.wav,606a4e5bdd2653423459653a,001,2022-03-24_12h11.45.170,task,2021.2.3,Win32,59.8372427,,,,,,,,,,,,,
,,,,2,2.9002,2.974386339,442.8656,1,4,12,3,1,stim/p_schwa_g.wav,606a4e5bdd2653423459653a,001,2022-03-24_12h11.45.170,task,2021.2.3,Win32,59.8372427,,,,,,,,,,,,,
,,,,4,2.236,2.98719317,1.5075,1,5,13,7,1,stim/f_schwa_g.wav,606a4e5bdd2653423459653a,001,2022-03-24_12h11.45.170,task,2021.2.3,Win32,59.8372427,,,,,,,,,,,,,
,,,,4,2.8972,3.977588047,1.0973,1,6,14,2,1,stim/peuf_g.wav,606a4e5bdd2653423459653a,001,2022-03-24_12h11.45.170,task,2021.2.3,Win32,59.8372427,,,,,,,,,,,,,
,,,,7,3.6575,3.977588047,1.6613,1,7,15,1,1,stim/pief_g.wav,606a4e5bdd2653423459653a,001,2022-03-24_12h11.45.170,task,2021.2.3,Win32,59.8372427,,,,,,,,,,,,,
,,,,6,3.6735,4.067235859,1.3499,2,0,16,6,1,stim/feuf_g.wav,606a4e5bdd2653423459653a,001,2022-03-24_12h11.45.170,task,2021.2.3,Win32,59.8372427,,,,,,,,,,,,,
,,,,1,4.7688,4.011739594,1.2295,2,1,17,0,1,stim/pof_g.wav,606a4e5bdd2653423459653a,001,2022-03-24_12h11.45.170,task,2021.2.3,Win32,59.8372427,,,,,,,,,,,,,
,,,,4,2.1581,4.007470651,0.8247,2,2,18,5,1,stim/fief_g.wav,606a4e5bdd2653423459653a,001,2022-03-24_12h11.45.170,task,2021.2.3,Win32,59.8372427,,,,,,,,,,,,,
,,,,1,3.0839,3.960512273,0.9876,2,3,19,3,1,stim/p_schwa_g.wav,606a4e5bdd2653423459653a,001,2022-03-24_12h11.45.170,task,2021.2.3,Win32,59.8372427,,,,,,,,,,,,,
,,,,2,15.2166,2.961579509,1.6838,2,4,20,1,1,stim/pief_g.wav,606a4e5bdd2653423459653a,001,2022-03-24_12h11.45.170,task,2021.2.3,Win32,59.8372427,,,,,,,,,,,,,
,,,,5,4.2482,4.041622199,1.4154,2,5,21,7,1,stim/f_schwa_g.wav,606a4e5bdd2653423459653a,001,2022-03-24_12h11.45.170,task,2021.2.3,Win32,59.8372427,,,,,,,,,,,,,
,,,,4,2.6361,3.951974386,1.0332,2,6,22,2,1,stim/peuf_g.wav,606a4e5bdd2653423459653a,001,2022-03-24_12h11.45.170,task,2021.2.3,Win32,59.8372427,,,,,,,,,,,,,
,,,,4,2.2915,3.943436499,0.8962,2,7,23,4,1,stim/fof_g.wav,606a4e5bdd2653423459653a,001,2022-03-24_12h11.45.170,task,2021.2.3,Win32,59.8372427,,,,,,,,,,,,,
,,,,4,2.0866,3.986125934,4.3171,3,0,24,6,1,stim/feuf_g.wav,606a4e5bdd2653423459653a,001,2022-03-24_12h11.45.170,task,2021.2.3,Win32,59.8372427,,,,,,,,,,,,,
,,,,1,2.7735,3.977588047,1.4709,3,1,25,7,1,stim/f_schwa_g.wav,606a4e5bdd2653423459653a,001,2022-03-24_12h11.45.170,task,2021.2.3,Win32,59.8372427,,,,,,,,,,,,,
,,,,3,2.0416,4.985058698,1.9937,3,2,26,5,1,stim/fief_g.wav,606a4e5bdd2653423459653a,001,2022-03-24_12h11.45.170,task,2021.2.3,Win32,59.8372427,,,,,,,,,,,,,
,,,,1,3.1892,3.96905016,1.0438,3,3,27,3,1,stim/p_schwa_g.wav,606a4e5bdd2653423459653a,001,2022-03-24_12h11.45.170,task,2021.2.3,Win32,59.8372427,,,,,,,,,,,,,
,,,,4,2.5208,3.994663821,0.9593,3,4,28,2,1,stim/peuf_g.wav,606a4e5bdd2653423459653a,001,2022-03-24_12h11.45.170,task,2021.2.3,Win32,59.8372427,,,,,,,,,,,,,
,,,,6,4.0907,3.994663821,1.3284,3,5,29,0,1,stim/pof_g.wav,606a4e5bdd2653423459653a,001,2022-03-24_12h11.45.170,task,2021.2.3,Win32,59.8372427,,,,,,,,,,,,,
,,,,3,3.7068,3.046958378,1.9112,3,6,30,1,1,stim/pief_g.wav,606a4e5bdd2653423459653a,001,2022-03-24_12h11.45.170,task,2021.2.3,Win32,59.8372427,,,,,,,,,,,,,
,,,,4,11.1571,3.008537887,1.0944,3,7,31,4,1,stim/fof_g.wav,606a4e5bdd2653423459653a,001,2022-03-24_12h11.45.170,task,2021.2.3,Win32,59.8372427,,,,,,,,,,,,,
,,,,4,1.9722,4.007470651,1.897,4,0,32,6,1,stim/feuf_g.wav,606a4e5bdd2653423459653a,001,2022-03-24_12h11.45.170,task,2021.2.3,Win32,59.8372427,,,,,,,,,,,,,
,,,,5,3.3863,3.986125934,0.9583,4,1,33,3,1,stim/p_schwa_g.wav,606a4e5bdd2653423459653a,001,2022-03-24_12h11.45.170,task,2021.2.3,Win32,59.8372427,,,,,,,,,,,,,
,,,,4,2.9384,4.946638207,1.6136,4,2,34,2,1,stim/peuf_g.wav,606a4e5bdd2653423459653a,001,2022-03-24_12h11.45.170,task,2021.2.3,Win32,59.8372427,,,,,,,,,,,,,
,,,,5,2.7504,4.980789755,1.7212,4,3,35,7,1,stim/f_schwa_g.wav,606a4e5bdd2653423459653a,001,2022-03-24_12h11.45.170,task,2021.2.3,Win32,59.8372427,,,,,,,,,,,,,
,,,,3,1.9693,3.986125934,1.348,4,4,36,5,1,stim/fief_g.wav,606a4e5bdd2653423459653a,001,2022-03-24_12h11.45.170,task,2021.2.3,Win32,59.8372427,,,,,,,,,,,,,
,,,,6,2.6908,3.973319104,1.49,4,5,37,4,1,stim/fof_g.wav,606a4e5bdd2653423459653a,001,2022-03-24_12h11.45.170,task,2021.2.3,Win32,59.8372427,,,,,,,,,,,,,
,,,,4,2.6539,3.998932764,2.8539,4,6,38,0,1,stim/pof_g.wav,606a4e5bdd2653423459653a,001,2022-03-24_12h11.45.170,task,2021.2.3,Win32,59.8372427,,,,,,,,,,,,,
,,,,3,6.9839,2.978655283,1.2666,4,7,39,1,1,stim/pief_g.wav,606a4e5bdd2653423459653a,001,2022-03-24_12h11.45.170,task,2021.2.3,Win32,59.8372427,,,,,,,,,,,,,
,,,,,,,,,,,,,stim/f_schwa_f.wav,606a4e5bdd2653423459653a,001,2022-03-24_12h11.45.170,task,2021.2.3,Win32,59.8372427,space,159.3529,2,5.9721,2.005336179,1.3182,0,0,0,7,1,,
,,,,,,,,,,,,,stim/peuf_f.wav,606a4e5bdd2653423459653a,001,2022-03-24_12h11.45.170,task,2021.2.3,Win32,59.8372427,,,4,2.4648,3.990394877,1.2204,0,1,1,2,1,,
,,,,,,,,,,,,,stim/pif_f.wav,606a4e5bdd2653423459653a,001,2022-03-24_12h11.45.170,task,2021.2.3,Win32,59.8372427,,,3,2.9447,2.923159018,1.3251,0,2,2,1,1,,
,,,,,,,,,,,,,stim/p_schwa_f.wav,606a4e5bdd2653423459653a,001,2022-03-24_12h11.45.170,task,2021.2.3,Win32,59.8372427,,,1,3.7479,3,69.4782,0,3,3,3,1,,
,,,,,,,,,,,,,stim/fif_f.wav,606a4e5bdd2653423459653a,001,2022-03-24_12h11.45.170,task,2021.2.3,Win32,59.8372427,,,4,2.8199,3.008537887,1.3543,0,4,4,5,1,,
,,,,,,,,,,,,,stim/pof_f.wav,606a4e5bdd2653423459653a,001,2022-03-24_12h11.45.170,task,2021.2.3,Win32,59.8372427,,,2,2.9696,2.013874066,1.2464,0,5,5,0,1,,
,,,,,,,,,,,,,stim/fof_f.wav,606a4e5bdd2653423459653a,001,2022-03-24_12h11.45.170,task,2021.2.3,Win32,59.8372427,,,5,2.1724,2.065101387,1.3971,0,6,6,4,1,,
,,,,,,,,,,,,,stim/feuf_f.wav,606a4e5bdd2653423459653a,001,2022-03-24_12h11.45.170,task,2021.2.3,Win32,59.8372427,,,4,1.7554,3.95624333,1.1142,0,7,7,6,1,,
,,,,,,,,,,,,,stim/fif_f.wav,606a4e5bdd2653423459653a,001,2022-03-24_12h11.45.170,task,2021.2.3,Win32,59.8372427,,,3,2.3077,2.918890075,0.8985,1,0,8,5,1,,
,,,,,,,,,,,,,stim/f_schwa_f.wav,606a4e5bdd2653423459653a,001,2022-03-24_12h11.45.170,task,2021.2.3,Win32,59.8372427,,,1,2.7768,2.918890075,0.712,1,1,9,7,1,,
,,,,,,,,,,,,,stim/pif_f.wav,606a4e5bdd2653423459653a,001,2022-03-24_12h11.45.170,task,2021.2.3,Win32,59.8372427,,,3,3.0384,2.923159018,15.8646,1,2,10,1,1,,
,,,,,,,,,,,,,stim/pof_f.wav,606a4e5bdd2653423459653a,001,2022-03-24_12h11.45.170,task,2021.2.3,Win32,59.8372427,,,1,2.9364,2.974386339,1.1155,1,3,11,0,1,,
,,,,,,,,,,,,,stim/fof_f.wav,606a4e5bdd2653423459653a,001,2022-03-24_12h11.45.170,task,2021.2.3,Win32,59.8372427,,,1,3.4923,2.995731057,0.9769,1,4,12,4,1,,
,,,,,,,,,,,,,stim/p_schwa_f.wav,606a4e5bdd2653423459653a,001,2022-03-24_12h11.45.170,task,2021.2.3,Win32,59.8372427,,,5,3.6844,2.98719317,0.9815,1,5,13,3,1,,
,,,,,,,,,,,,,stim/feuf_f.wav,606a4e5bdd2653423459653a,001,2022-03-24_12h11.45.170,task,2021.2.3,Win32,59.8372427,,,4,1.9402,3,0.7498,1,6,14,6,1,,
,,,,,,,,,,,,,stim/peuf_f.wav,606a4e5bdd2653423459653a,001,2022-03-24_12h11.45.170,task,2021.2.3,Win32,59.8372427,,,4,2.2567,3,2.929,1,7,15,2,1,,
,,,,,,,,,,,,,stim/peuf_f.wav,606a4e5bdd2653423459653a,001,2022-03-24_12h11.45.170,task,2021.2.3,Win32,59.8372427,,,4,2.694,3,0.5838,2,0,16,2,1,,
,,,,,,,,,,,,,stim/pof_f.wav,606a4e5bdd2653423459653a,001,2022-03-24_12h11.45.170,task,2021.2.3,Win32,59.8372427,,,1,2.9011,2.982924226,0.9283,2,1,17,0,1,,
,,,,,,,,,,,,,stim/pif_f.wav,606a4e5bdd2653423459653a,001,2022-03-24_12h11.45.170,task,2021.2.3,Win32,59.8372427,,,3,10.2355,4.959445037,4.409,2,2,18,1,1,,
,,,,,,,,,,,,,stim/fif_f.wav,606a4e5bdd2653423459653a,001,2022-03-24_12h11.45.170,task,2021.2.3,Win32,59.8372427,,,3,2.0401,4.95090715,1.3707,2,3,19,5,1,,
,,,,,,,,,,,,,stim/f_schwa_f.wav,606a4e5bdd2653423459653a,001,2022-03-24_12h11.45.170,task,2021.2.3,Win32,59.8372427,,,2,2.0594,4.93810032,1.2781,2,4,20,7,1,,
,,,,,,,,,,,,,stim/feuf_f.wav,606a4e5bdd2653423459653a,001,2022-03-24_12h11.45.170,task,2021.2.3,Win32,59.8372427,,,4,2.6801,4.921024546,1.1392,2,5,21,6,1,,
,,,,,,,,,,,,,stim/fof_f.wav,606a4e5bdd2653423459653a,001,2022-03-24_12h11.45.170,task,2021.2.3,Win32,59.8372427,,,6,3.7118,4.908217716,0.9528,2,6,22,4,1,,
,,,,,,,,,,,,,stim/p_schwa_f.wav,606a4e5bdd2653423459653a,001,2022-03-24_12h11.45.170,task,2021.2.3,Win32,59.8372427,,,6,4.0991,4.908217716,0.834,2,7,23,3,1,,
,,,,,,,,,,,,,stim/p_schwa_f.wav,606a4e5bdd2653423459653a,001,2022-03-24_12h11.45.170,task,2021.2.3,Win32,59.8372427,,,6,3.2941,4.020277481,1.1681,3,0,24,3,1,,
,,,,,,,,,,,,,stim/pof_f.wav,606a4e5bdd2653423459653a,001,2022-03-24_12h11.45.170,task,2021.2.3,Win32,59.8372427,,,6,4.3415,3.017075774,97.5496,3,1,25,0,1,,
,,,,,,,,,,,,,stim/feuf_f.wav,606a4e5bdd2653423459653a,001,2022-03-24_12h11.45.170,task,2021.2.3,Win32,59.8372427,,,4,2.2008,2.98719317,0.8724,3,2,26,6,1,,
,,,,,,,,,,,,,stim/pif_f.wav,606a4e5bdd2653423459653a,001,2022-03-24_12h11.45.170,task,2021.2.3,Win32,59.8372427,,,4,10.4373,2.978655283,0.856,3,3,27,1,1,,
,,,,,,,,,,,,,stim/fif_f.wav,606a4e5bdd2653423459653a,001,2022-03-24_12h11.45.170,task,2021.2.3,Win32,59.8372427,,,3,2.0036,2.923159018,1.1651,3,4,28,5,1,,
,,,,,,,,,,,,,stim/f_schwa_f.wav,606a4e5bdd2653423459653a,001,2022-03-24_12h11.45.170,task,2021.2.3,Win32,59.8372427,,,1,5.1977,2.991462113,0.8321,3,5,29,7,1,,
,,,,,,,,,,,,,stim/fof_f.wav,606a4e5bdd2653423459653a,001,2022-03-24_12h11.45.170,task,2021.2.3,Win32,59.8372427,,,2,5.4694,2.914621131,0.8313,3,6,30,4,1,,
,,,,,,,,,,,,,stim/peuf_f.wav,606a4e5bdd2653423459653a,001,2022-03-24_12h11.45.170,task,2021.2.3,Win32,59.8372427,,,6,3.4858,3.064034152,0.8359,3,7,31,2,1,,
,,,,,,,,,,,,,stim/peuf_f.wav,606a4e5bdd2653423459653a,001,2022-03-24_12h11.45.170,task,2021.2.3,Win32,59.8372427,,,4,6.7698,3.064034152,0.7618,4,0,32,2,1,,
,,,,,,,,,,,,,stim/feuf_f.wav,606a4e5bdd2653423459653a,001,2022-03-24_12h11.45.170,task,2021.2.3,Win32,59.8372427,,,4,2.5595,3.055496265,1.4059,4,1,33,6,1,,
,,,,,,,,,,,,,stim/fif_f.wav,606a4e5bdd2653423459653a,001,2022-03-24_12h11.45.170,task,2021.2.3,Win32,59.8372427,,,7,2.674,4.754535752,1.6885,4,2,34,5,1,,
,,,,,,,,,,,,,stim/pif_f.wav,606a4e5bdd2653423459653a,001,2022-03-24_12h11.45.170,task,2021.2.3,Win32,59.8372427,,,7,3.2713,3.67022412,1.1337,4,3,35,1,1,,
,,,,,,,,,,,,,stim/f_schwa_f.wav,606a4e5bdd2653423459653a,001,2022-03-24_12h11.45.170,task,2021.2.3,Win32,59.8372427,,,1,3.9053,3.128068303,1.2008,4,4,36,7,1,,
,,,,,,,,,,,,,stim/pof_f.wav,606a4e5bdd2653423459653a,001,2022-03-24_12h11.45.170,task,2021.2.3,Win32,59.8372427,,,5,5.2124,3.128068303,0.8594,4,5,37,0,1,,
,,,,,,,,,,,,,stim/p_schwa_f.wav,606a4e5bdd2653423459653a,001,2022-03-24_12h11.45.170,task,2021.2.3,Win32,59.8372427,,,2,3.0357,2.995731057,0.6251,4,6,38,3,1,,
,,,,,,,,,,,,,stim/fof_f.wav,606a4e5bdd2653423459653a,001,2022-03-24_12h11.45.170,task,2021.2.3,Win32,59.8372427,,,1,1.9679,2.961579509,0.6394,4,7,39,4,1,,
,,,,,,,,,,,,,,606a4e5bdd2653423459653a,001,2022-03-24_12h11.45.170,task,2021.2.3,Win32,59.8372427,,,,,,,,,,,,space,78.7995
