key_resp.keys,key_resp.rt,key_resp_2.keys,key_resp_2.rt,slider.response,slider.rt,trials.thisRepN,trials.thisTrialN,trials.thisN,trials.thisIndex,trials.ran,stim,participant,session,date,expName,psychopyVersion,OS,frameRate,key_resp_trial.keys,key_resp_trial.corr,key_resp_trial.rt,trials_2.thisRepN,trials_2.thisTrialN,trials_2.thisN,trials_2.thisIndex,trials_2.ran,stim1,stim2,distance,isCorrect
space,1.376,2,3.252,1.492592593,2.128,0,0,0,1,1,stim/faf_g.wav,60b7f09a4462d1d1aa6bbcf6,001,2022-03-09_16h09.02.560,vct_new,2021.2.3,Linux x86_64,59.88023952,,,,,,,,,,,,
,,6,11.047,1.940740741,1.269,0,1,1,4,1,stim/p_schwa_g.wav,60b7f09a4462d1d1aa6bbcf6,001,2022-03-09_16h09.02.560,vct_new,2021.2.3,Linux x86_64,59.88023952,,,,,,,,,,,,
,,3,3.942,3.962962963,1.634,0,2,2,2,1,stim/fif_g.wav,60b7f09a4462d1d1aa6bbcf6,001,2022-03-09_16h09.02.560,vct_new,2021.2.3,Linux x86_64,59.88023952,,,,,,,,,,,,
,,2,4.759,3.248148148,1.535,0,3,3,7,1,stim/pof_g.wav,60b7f09a4462d1d1aa6bbcf6,001,2022-03-09_16h09.02.560,vct_new,2021.2.3,Linux x86_64,59.88023952,,,,,,,,,,,,
,,1,8.226,2.277777778,1.127,0,4,4,0,1,stim/f_schwa_g.wav,60b7f09a4462d1d1aa6bbcf6,001,2022-03-09_16h09.02.560,vct_new,2021.2.3,Linux x86_64,59.88023952,,,,,,,,,,,,
,,5,6.859,2.814814815,0.917,0,5,5,3,1,stim/fof_g.wav,60b7f09a4462d1d1aa6bbcf6,001,2022-03-09_16h09.02.560,vct_new,2021.2.3,Linux x86_64,59.88023952,,,,,,,,,,,,
,,1,5.155,1.962962963,0.985,0,6,6,5,1,stim/paf_g.wav,60b7f09a4462d1d1aa6bbcf6,001,2022-03-09_16h09.02.560,vct_new,2021.2.3,Linux x86_64,59.88023952,,,,,,,,,,,,
,,7,4.377,3.948148148,1.535,0,7,7,6,1,stim/piep_g.wav,60b7f09a4462d1d1aa6bbcf6,001,2022-03-09_16h09.02.560,vct_new,2021.2.3,Linux x86_64,59.88023952,,,,,,,,,,,,
,,7,3.309,4.111111111,0.677,1,0,8,6,1,stim/piep_g.wav,60b7f09a4462d1d1aa6bbcf6,001,2022-03-09_16h09.02.560,vct_new,2021.2.3,Linux x86_64,59.88023952,,,,,,,,,,,,
,,4,5.224,3.192592593,1.173,1,1,9,4,1,stim/p_schwa_g.wav,60b7f09a4462d1d1aa6bbcf6,001,2022-03-09_16h09.02.560,vct_new,2021.2.3,Linux x86_64,59.88023952,,,,,,,,,,,,
,,7,4.975,4.462962963,1.029,1,2,10,2,1,stim/fif_g.wav,60b7f09a4462d1d1aa6bbcf6,001,2022-03-09_16h09.02.560,vct_new,2021.2.3,Linux x86_64,59.88023952,,,,,,,,,,,,
,,1,5.109,2.218518519,1.511,1,3,11,5,1,stim/paf_g.wav,60b7f09a4462d1d1aa6bbcf6,001,2022-03-09_16h09.02.560,vct_new,2021.2.3,Linux x86_64,59.88023952,,,,,,,,,,,,
,,4,4.534,1.674074074,1.436,1,4,12,0,1,stim/f_schwa_g.wav,60b7f09a4462d1d1aa6bbcf6,001,2022-03-09_16h09.02.560,vct_new,2021.2.3,Linux x86_64,59.88023952,,,,,,,,,,,,
,,2,6.11,2.592592593,0.965,1,5,13,7,1,stim/pof_g.wav,60b7f09a4462d1d1aa6bbcf6,001,2022-03-09_16h09.02.560,vct_new,2021.2.3,Linux x86_64,59.88023952,,,,,,,,,,,,
,,2,5.074,3.2,1.015,1,6,14,3,1,stim/fof_g.wav,60b7f09a4462d1d1aa6bbcf6,001,2022-03-09_16h09.02.560,vct_new,2021.2.3,Linux x86_64,59.88023952,,,,,,,,,,,,
,,2,4.463,2.911111111,0.779,1,7,15,1,1,stim/faf_g.wav,60b7f09a4462d1d1aa6bbcf6,001,2022-03-09_16h09.02.560,vct_new,2021.2.3,Linux x86_64,59.88023952,,,,,,,,,,,,
,,3,3.209,3.903703704,1.616,2,0,16,2,1,stim/fif_g.wav,60b7f09a4462d1d1aa6bbcf6,001,2022-03-09_16h09.02.560,vct_new,2021.2.3,Linux x86_64,59.88023952,,,,,,,,,,,,
,,7,2.758,3.388888889,2.477,2,1,17,6,1,stim/piep_g.wav,60b7f09a4462d1d1aa6bbcf6,001,2022-03-09_16h09.02.560,vct_new,2021.2.3,Linux x86_64,59.88023952,,,,,,,,,,,,
,,6,8.363,2.055555556,1.86,2,2,18,4,1,stim/p_schwa_g.wav,60b7f09a4462d1d1aa6bbcf6,001,2022-03-09_16h09.02.560,vct_new,2021.2.3,Linux x86_64,59.88023952,,,,,,,,,,,,
,,1,4.826,2.222222222,1.48,2,3,19,3,1,stim/fof_g.wav,60b7f09a4462d1d1aa6bbcf6,001,2022-03-09_16h09.02.560,vct_new,2021.2.3,Linux x86_64,59.88023952,,,,,,,,,,,,
,,1,1.673,3.051851852,0.928,2,4,20,1,1,stim/faf_g.wav,60b7f09a4462d1d1aa6bbcf6,001,2022-03-09_16h09.02.560,vct_new,2021.2.3,Linux x86_64,59.88023952,,,,,,,,,,,,
,,1,1.229,3.211111111,0.943,2,5,21,7,1,stim/pof_g.wav,60b7f09a4462d1d1aa6bbcf6,001,2022-03-09_16h09.02.560,vct_new,2021.2.3,Linux x86_64,59.88023952,,,,,,,,,,,,
,,6,18.063,2.885185185,1.1,2,6,22,0,1,stim/f_schwa_g.wav,60b7f09a4462d1d1aa6bbcf6,001,2022-03-09_16h09.02.560,vct_new,2021.2.3,Linux x86_64,59.88023952,,,,,,,,,,,,
,,1,3.589,3.540740741,1.199,2,7,23,5,1,stim/paf_g.wav,60b7f09a4462d1d1aa6bbcf6,001,2022-03-09_16h09.02.560,vct_new,2021.2.3,Linux x86_64,59.88023952,,,,,,,,,,,,
,,,,,,,,,,,,60b7f09a4462d1d1aa6bbcf6,001,2022-03-09_16h09.02.560,vct_new,2021.2.3,Linux x86_64,59.88023952,1,1,1.046,0,0,0,47,1,stim/Step_7.wav,stim/Step_6.wav,1,1
,,,,,,,,,,,,60b7f09a4462d1d1aa6bbcf6,001,2022-03-09_16h09.02.560,vct_new,2021.2.3,Linux x86_64,59.88023952,0,0,0.929,0,1,1,20,1,stim/Step_3.wav,stim/Step_7.wav,-4,1
,,,,,,,,,,,,60b7f09a4462d1d1aa6bbcf6,001,2022-03-09_16h09.02.560,vct_new,2021.2.3,Linux x86_64,59.88023952,0,0,1.206,0,2,2,12,1,stim/Step_2.wav,stim/Step_6.wav,-4,1
,,,,,,,,,,,,60b7f09a4462d1d1aa6bbcf6,001,2022-03-09_16h09.02.560,vct_new,2021.2.3,Linux x86_64,59.88023952,0,0,1.555,0,3,3,23,1,stim/Step_4.wav,stim/Step_3.wav,1,1
,,,,,,,,,,,,60b7f09a4462d1d1aa6bbcf6,001,2022-03-09_16h09.02.560,vct_new,2021.2.3,Linux x86_64,59.88023952,1,1,0.913,0,4,4,41,1,stim/Step_6.wav,stim/Step_7.wav,-1,1
,,,,,,,,,,,,60b7f09a4462d1d1aa6bbcf6,001,2022-03-09_16h09.02.560,vct_new,2021.2.3,Linux x86_64,59.88023952,1,1,1.464,0,5,5,22,1,stim/Step_4.wav,stim/Step_2.wav,2,1
,,,,,,,,,,,,60b7f09a4462d1d1aa6bbcf6,001,2022-03-09_16h09.02.560,vct_new,2021.2.3,Linux x86_64,59.88023952,1,1,0.841,0,6,6,17,1,stim/Step_3.wav,stim/Step_4.wav,-1,1
,,,,,,,,,,,,60b7f09a4462d1d1aa6bbcf6,001,2022-03-09_16h09.02.560,vct_new,2021.2.3,Linux x86_64,59.88023952,1,0,0.913,0,7,7,32,1,stim/Step_5.wav,stim/Step_5.wav,0,0
,,,,,,,,,,,,60b7f09a4462d1d1aa6bbcf6,001,2022-03-09_16h09.02.560,vct_new,2021.2.3,Linux x86_64,59.88023952,1,1,0.926,0,8,8,14,1,stim/Step_3.wav,stim/Step_1.wav,2,1
,,,,,,,,,,,,60b7f09a4462d1d1aa6bbcf6,001,2022-03-09_16h09.02.560,vct_new,2021.2.3,Linux x86_64,59.88023952,1,1,0.892,0,9,9,21,1,stim/Step_4.wav,stim/Step_1.wav,3,1
,,,,,,,,,,,,60b7f09a4462d1d1aa6bbcf6,001,2022-03-09_16h09.02.560,vct_new,2021.2.3,Linux x86_64,59.88023952,1,0,0.877,0,10,10,24,1,stim/Step_4.wav,stim/Step_4.wav,0,0
,,,,,,,,,,,,60b7f09a4462d1d1aa6bbcf6,001,2022-03-09_16h09.02.560,vct_new,2021.2.3,Linux x86_64,59.88023952,0,0,0.977,0,11,11,6,1,stim/Step_1.wav,stim/Step_7.wav,-6,1
,,,,,,,,,,,,60b7f09a4462d1d1aa6bbcf6,001,2022-03-09_16h09.02.560,vct_new,2021.2.3,Linux x86_64,59.88023952,0,0,0.81,0,12,12,5,1,stim/Step_1.wav,stim/Step_6.wav,-5,1
,,,,,,,,,,,,60b7f09a4462d1d1aa6bbcf6,001,2022-03-09_16h09.02.560,vct_new,2021.2.3,Linux x86_64,59.88023952,0,0,0.877,0,13,13,4,1,stim/Step_1.wav,stim/Step_5.wav,-4,1
,,,,,,,,,,,,60b7f09a4462d1d1aa6bbcf6,001,2022-03-09_16h09.02.560,vct_new,2021.2.3,Linux x86_64,59.88023952,1,1,1.208,0,14,14,38,1,stim/Step_6.wav,stim/Step_4.wav,2,1
,,,,,,,,,,,,60b7f09a4462d1d1aa6bbcf6,001,2022-03-09_16h09.02.560,vct_new,2021.2.3,Linux x86_64,59.88023952,1,1,1.098,0,15,15,29,1,stim/Step_5.wav,stim/Step_2.wav,3,1
,,,,,,,,,,,,60b7f09a4462d1d1aa6bbcf6,001,2022-03-09_16h09.02.560,vct_new,2021.2.3,Linux x86_64,59.88023952,1,1,0.846,0,16,16,15,1,stim/Step_3.wav,stim/Step_2.wav,1,1
,,,,,,,,,,,,60b7f09a4462d1d1aa6bbcf6,001,2022-03-09_16h09.02.560,vct_new,2021.2.3,Linux x86_64,59.88023952,0,0,0.656,0,17,17,46,1,stim/Step_7.wav,stim/Step_5.wav,2,1
,,,,,,,,,,,,60b7f09a4462d1d1aa6bbcf6,001,2022-03-09_16h09.02.560,vct_new,2021.2.3,Linux x86_64,59.88023952,1,1,0.856,0,18,18,30,1,stim/Step_5.wav,stim/Step_3.wav,2,1
,,,,,,,,,,,,60b7f09a4462d1d1aa6bbcf6,001,2022-03-09_16h09.02.560,vct_new,2021.2.3,Linux x86_64,59.88023952,1,1,0.942,0,19,19,39,1,stim/Step_6.wav,stim/Step_5.wav,1,1
,,,,,,,,,,,,60b7f09a4462d1d1aa6bbcf6,001,2022-03-09_16h09.02.560,vct_new,2021.2.3,Linux x86_64,59.88023952,1,1,0.806,0,20,20,2,1,stim/Step_1.wav,stim/Step_3.wav,-2,1
,,,,,,,,,,,,60b7f09a4462d1d1aa6bbcf6,001,2022-03-09_16h09.02.560,vct_new,2021.2.3,Linux x86_64,59.88023952,0,0,0.727,0,21,21,27,1,stim/Step_4.wav,stim/Step_7.wav,-3,1
,,,,,,,,,,,,60b7f09a4462d1d1aa6bbcf6,001,2022-03-09_16h09.02.560,vct_new,2021.2.3,Linux x86_64,59.88023952,1,1,0.941,0,22,22,3,1,stim/Step_1.wav,stim/Step_4.wav,-3,1
,,,,,,,,,,,,60b7f09a4462d1d1aa6bbcf6,001,2022-03-09_16h09.02.560,vct_new,2021.2.3,Linux x86_64,59.88023952,1,1,1.752,0,23,23,25,1,stim/Step_4.wav,stim/Step_5.wav,-1,1
,,,,,,,,,,,,60b7f09a4462d1d1aa6bbcf6,001,2022-03-09_16h09.02.560,vct_new,2021.2.3,Linux x86_64,59.88023952,0,0,1.329,0,24,24,37,1,stim/Step_6.wav,stim/Step_3.wav,3,1
,,,,,,,,,,,,60b7f09a4462d1d1aa6bbcf6,001,2022-03-09_16h09.02.560,vct_new,2021.2.3,Linux x86_64,59.88023952,1,0,0.998,0,25,25,48,1,stim/Step_7.wav,stim/Step_7.wav,0,0
,,,,,,,,,,,,60b7f09a4462d1d1aa6bbcf6,001,2022-03-09_16h09.02.560,vct_new,2021.2.3,Linux x86_64,59.88023952,0,0,2.107,0,26,26,19,1,stim/Step_3.wav,stim/Step_6.wav,-3,1
,,,,,,,,,,,,60b7f09a4462d1d1aa6bbcf6,001,2022-03-09_16h09.02.560,vct_new,2021.2.3,Linux x86_64,59.88023952,1,1,0.908,0,27,27,1,1,stim/Step_1.wav,stim/Step_2.wav,-1,1
,,,,,,,,,,,,60b7f09a4462d1d1aa6bbcf6,001,2022-03-09_16h09.02.560,vct_new,2021.2.3,Linux x86_64,59.88023952,0,0,2.896,0,28,28,26,1,stim/Step_4.wav,stim/Step_6.wav,-2,1
,,,,,,,,,,,,60b7f09a4462d1d1aa6bbcf6,001,2022-03-09_16h09.02.560,vct_new,2021.2.3,Linux x86_64,59.88023952,1,0,0.857,0,29,29,16,1,stim/Step_3.wav,stim/Step_3.wav,0,0
,,,,,,,,,,,,60b7f09a4462d1d1aa6bbcf6,001,2022-03-09_16h09.02.560,vct_new,2021.2.3,Linux x86_64,59.88023952,1,0,0.666,0,30,30,0,1,stim/Step_1.wav,stim/Step_1.wav,0,0
,,,,,,,,,,,,60b7f09a4462d1d1aa6bbcf6,001,2022-03-09_16h09.02.560,vct_new,2021.2.3,Linux x86_64,59.88023952,1,0,0.66,0,31,31,8,1,stim/Step_2.wav,stim/Step_2.wav,0,0
,,,,,,,,,,,,60b7f09a4462d1d1aa6bbcf6,001,2022-03-09_16h09.02.560,vct_new,2021.2.3,Linux x86_64,59.88023952,1,1,1.112,0,32,32,33,1,stim/Step_5.wav,stim/Step_6.wav,-1,1
,,,,,,,,,,,,60b7f09a4462d1d1aa6bbcf6,001,2022-03-09_16h09.02.560,vct_new,2021.2.3,Linux x86_64,59.88023952,0,0,0.582,0,33,33,13,1,stim/Step_2.wav,stim/Step_7.wav,-5,1
,,,,,,,,,,,,60b7f09a4462d1d1aa6bbcf6,001,2022-03-09_16h09.02.560,vct_new,2021.2.3,Linux x86_64,59.88023952,0,0,1.624,0,34,34,11,1,stim/Step_2.wav,stim/Step_5.wav,-3,1
,,,,,,,,,,,,60b7f09a4462d1d1aa6bbcf6,001,2022-03-09_16h09.02.560,vct_new,2021.2.3,Linux x86_64,59.88023952,0,0,0.727,0,35,35,42,1,stim/Step_7.wav,stim/Step_1.wav,6,1
,,,,,,,,,,,,60b7f09a4462d1d1aa6bbcf6,001,2022-03-09_16h09.02.560,vct_new,2021.2.3,Linux x86_64,59.88023952,0,0,0.576,0,36,36,28,1,stim/Step_5.wav,stim/Step_1.wav,4,1
,,,,,,,,,,,,60b7f09a4462d1d1aa6bbcf6,001,2022-03-09_16h09.02.560,vct_new,2021.2.3,Linux x86_64,59.88023952,1,1,0.873,0,37,37,7,1,stim/Step_2.wav,stim/Step_1.wav,1,1
,,,,,,,,,,,,60b7f09a4462d1d1aa6bbcf6,001,2022-03-09_16h09.02.560,vct_new,2021.2.3,Linux x86_64,59.88023952,0,0,1.693,0,38,38,34,1,stim/Step_5.wav,stim/Step_7.wav,-2,1
,,,,,,,,,,,,60b7f09a4462d1d1aa6bbcf6,001,2022-03-09_16h09.02.560,vct_new,2021.2.3,Linux x86_64,59.88023952,0,0,1.126,0,39,39,18,1,stim/Step_3.wav,stim/Step_5.wav,-2,1
,,,,,,,,,,,,60b7f09a4462d1d1aa6bbcf6,001,2022-03-09_16h09.02.560,vct_new,2021.2.3,Linux x86_64,59.88023952,1,1,1.64,0,40,40,31,1,stim/Step_5.wav,stim/Step_4.wav,1,1
,,,,,,,,,,,,60b7f09a4462d1d1aa6bbcf6,001,2022-03-09_16h09.02.560,vct_new,2021.2.3,Linux x86_64,59.88023952,1,1,1.555,0,41,41,10,1,stim/Step_2.wav,stim/Step_4.wav,-2,1
,,,,,,,,,,,,60b7f09a4462d1d1aa6bbcf6,001,2022-03-09_16h09.02.560,vct_new,2021.2.3,Linux x86_64,59.88023952,0,0,0.962,0,42,42,45,1,stim/Step_7.wav,stim/Step_4.wav,3,1
,,,,,,,,,,,,60b7f09a4462d1d1aa6bbcf6,001,2022-03-09_16h09.02.560,vct_new,2021.2.3,Linux x86_64,59.88023952,0,0,1.797,0,43,43,43,1,stim/Step_7.wav,stim/Step_2.wav,5,1
,,,,,,,,,,,,60b7f09a4462d1d1aa6bbcf6,001,2022-03-09_16h09.02.560,vct_new,2021.2.3,Linux x86_64,59.88023952,0,0,0.81,0,44,44,44,1,stim/Step_7.wav,stim/Step_3.wav,4,1
,,,,,,,,,,,,60b7f09a4462d1d1aa6bbcf6,001,2022-03-09_16h09.02.560,vct_new,2021.2.3,Linux x86_64,59.88023952,0,0,1.04,0,45,45,36,1,stim/Step_6.wav,stim/Step_2.wav,4,1
,,,,,,,,,,,,60b7f09a4462d1d1aa6bbcf6,001,2022-03-09_16h09.02.560,vct_new,2021.2.3,Linux x86_64,59.88023952,1,1,0.962,0,46,46,9,1,stim/Step_2.wav,stim/Step_3.wav,-1,1
,,,,,,,,,,,,60b7f09a4462d1d1aa6bbcf6,001,2022-03-09_16h09.02.560,vct_new,2021.2.3,Linux x86_64,59.88023952,1,0,1.376,0,47,47,40,1,stim/Step_6.wav,stim/Step_6.wav,0,0
,,,,,,,,,,,,60b7f09a4462d1d1aa6bbcf6,001,2022-03-09_16h09.02.560,vct_new,2021.2.3,Linux x86_64,59.88023952,0,0,1.03,0,48,48,35,1,stim/Step_6.wav,stim/Step_1.wav,5,1
,,,,,,,,,,,,60b7f09a4462d1d1aa6bbcf6,001,2022-03-09_16h09.02.560,vct_new,2021.2.3,Linux x86_64,59.88023952,0,0,3.496,1,0,49,20,1,stim/Step_3.wav,stim/Step_7.wav,-4,1
,,,,,,,,,,,,60b7f09a4462d1d1aa6bbcf6,001,2022-03-09_16h09.02.560,vct_new,2021.2.3,Linux x86_64,59.88023952,1,1,1.891,1,1,50,17,1,stim/Step_3.wav,stim/Step_4.wav,-1,1
,,,,,,,,,,,,60b7f09a4462d1d1aa6bbcf6,001,2022-03-09_16h09.02.560,vct_new,2021.2.3,Linux x86_64,59.88023952,1,1,1.041,1,2,51,33,1,stim/Step_5.wav,stim/Step_6.wav,-1,1
,,,,,,,,,,,,60b7f09a4462d1d1aa6bbcf6,001,2022-03-09_16h09.02.560,vct_new,2021.2.3,Linux x86_64,59.88023952,0,0,0.894,1,3,52,6,1,stim/Step_1.wav,stim/Step_7.wav,-6,1
,,,,,,,,,,,,60b7f09a4462d1d1aa6bbcf6,001,2022-03-09_16h09.02.560,vct_new,2021.2.3,Linux x86_64,59.88023952,1,1,1.11,1,4,53,47,1,stim/Step_7.wav,stim/Step_6.wav,1,1
,,,,,,,,,,,,60b7f09a4462d1d1aa6bbcf6,001,2022-03-09_16h09.02.560,vct_new,2021.2.3,Linux x86_64,59.88023952,1,1,1.455,1,5,54,15,1,stim/Step_3.wav,stim/Step_2.wav,1,1
,,,,,,,,,,,,60b7f09a4462d1d1aa6bbcf6,001,2022-03-09_16h09.02.560,vct_new,2021.2.3,Linux x86_64,59.88023952,1,1,1.214,1,6,55,1,1,stim/Step_1.wav,stim/Step_2.wav,-1,1
,,,,,,,,,,,,60b7f09a4462d1d1aa6bbcf6,001,2022-03-09_16h09.02.560,vct_new,2021.2.3,Linux x86_64,59.88023952,0,0,1.047,1,7,56,3,1,stim/Step_1.wav,stim/Step_4.wav,-3,1
,,,,,,,,,,,,60b7f09a4462d1d1aa6bbcf6,001,2022-03-09_16h09.02.560,vct_new,2021.2.3,Linux x86_64,59.88023952,0,1,1.626,1,8,57,16,1,stim/Step_3.wav,stim/Step_3.wav,0,0
,,,,,,,,,,,,60b7f09a4462d1d1aa6bbcf6,001,2022-03-09_16h09.02.560,vct_new,2021.2.3,Linux x86_64,59.88023952,1,1,1.116,1,9,58,46,1,stim/Step_7.wav,stim/Step_5.wav,2,1
,,,,,,,,,,,,60b7f09a4462d1d1aa6bbcf6,001,2022-03-09_16h09.02.560,vct_new,2021.2.3,Linux x86_64,59.88023952,0,0,1.392,1,10,59,14,1,stim/Step_3.wav,stim/Step_1.wav,2,1
,,,,,,,,,,,,60b7f09a4462d1d1aa6bbcf6,001,2022-03-09_16h09.02.560,vct_new,2021.2.3,Linux x86_64,59.88023952,1,1,1.014,1,11,60,39,1,stim/Step_6.wav,stim/Step_5.wav,1,1
,,,,,,,,,,,,60b7f09a4462d1d1aa6bbcf6,001,2022-03-09_16h09.02.560,vct_new,2021.2.3,Linux x86_64,59.88023952,1,1,0.78,1,12,61,34,1,stim/Step_5.wav,stim/Step_7.wav,-2,1
,,,,,,,,,,,,60b7f09a4462d1d1aa6bbcf6,001,2022-03-09_16h09.02.560,vct_new,2021.2.3,Linux x86_64,59.88023952,1,0,1.441,1,13,62,48,1,stim/Step_7.wav,stim/Step_7.wav,0,0
,,,,,,,,,,,,60b7f09a4462d1d1aa6bbcf6,001,2022-03-09_16h09.02.560,vct_new,2021.2.3,Linux x86_64,59.88023952,1,0,0.98,1,14,63,8,1,stim/Step_2.wav,stim/Step_2.wav,0,0
,,,,,,,,,,,,60b7f09a4462d1d1aa6bbcf6,001,2022-03-09_16h09.02.560,vct_new,2021.2.3,Linux x86_64,59.88023952,0,0,0.598,1,15,64,44,1,stim/Step_7.wav,stim/Step_3.wav,4,1
,,,,,,,,,,,,60b7f09a4462d1d1aa6bbcf6,001,2022-03-09_16h09.02.560,vct_new,2021.2.3,Linux x86_64,59.88023952,0,0,1.011,1,16,65,37,1,stim/Step_6.wav,stim/Step_3.wav,3,1
,,,,,,,,,,,,60b7f09a4462d1d1aa6bbcf6,001,2022-03-09_16h09.02.560,vct_new,2021.2.3,Linux x86_64,59.88023952,0,0,1.815,1,17,66,45,1,stim/Step_7.wav,stim/Step_4.wav,3,1
,,,,,,,,,,,,60b7f09a4462d1d1aa6bbcf6,001,2022-03-09_16h09.02.560,vct_new,2021.2.3,Linux x86_64,59.88023952,0,0,0.576,1,18,67,36,1,stim/Step_6.wav,stim/Step_2.wav,4,1
,,,,,,,,,,,,60b7f09a4462d1d1aa6bbcf6,001,2022-03-09_16h09.02.560,vct_new,2021.2.3,Linux x86_64,59.88023952,0,0,1.012,1,19,68,25,1,stim/Step_4.wav,stim/Step_5.wav,-1,1
,,,,,,,,,,,,60b7f09a4462d1d1aa6bbcf6,001,2022-03-09_16h09.02.560,vct_new,2021.2.3,Linux x86_64,59.88023952,0,0,0.657,1,20,69,12,1,stim/Step_2.wav,stim/Step_6.wav,-4,1
,,,,,,,,,,,,60b7f09a4462d1d1aa6bbcf6,001,2022-03-09_16h09.02.560,vct_new,2021.2.3,Linux x86_64,59.88023952,0,0,0.708,1,21,70,10,1,stim/Step_2.wav,stim/Step_4.wav,-2,1
,,,,,,,,,,,,60b7f09a4462d1d1aa6bbcf6,001,2022-03-09_16h09.02.560,vct_new,2021.2.3,Linux x86_64,59.88023952,0,0,0.661,1,22,71,22,1,stim/Step_4.wav,stim/Step_2.wav,2,1
,,,,,,,,,,,,60b7f09a4462d1d1aa6bbcf6,001,2022-03-09_16h09.02.560,vct_new,2021.2.3,Linux x86_64,59.88023952,1,0,0.69,1,23,72,0,1,stim/Step_1.wav,stim/Step_1.wav,0,0
,,,,,,,,,,,,60b7f09a4462d1d1aa6bbcf6,001,2022-03-09_16h09.02.560,vct_new,2021.2.3,Linux x86_64,59.88023952,0,0,1.314,1,24,73,28,1,stim/Step_5.wav,stim/Step_1.wav,4,1
,,,,,,,,,,,,60b7f09a4462d1d1aa6bbcf6,001,2022-03-09_16h09.02.560,vct_new,2021.2.3,Linux x86_64,59.88023952,0,0,1.562,1,25,74,11,1,stim/Step_2.wav,stim/Step_5.wav,-3,1
,,,,,,,,,,,,60b7f09a4462d1d1aa6bbcf6,001,2022-03-09_16h09.02.560,vct_new,2021.2.3,Linux x86_64,59.88023952,1,1,1.93,1,26,75,19,1,stim/Step_3.wav,stim/Step_6.wav,-3,1
,,,,,,,,,,,,60b7f09a4462d1d1aa6bbcf6,001,2022-03-09_16h09.02.560,vct_new,2021.2.3,Linux x86_64,59.88023952,0,0,1.412,1,27,76,29,1,stim/Step_5.wav,stim/Step_2.wav,3,1
,,,,,,,,,,,,60b7f09a4462d1d1aa6bbcf6,001,2022-03-09_16h09.02.560,vct_new,2021.2.3,Linux x86_64,59.88023952,1,1,1.412,1,28,77,35,1,stim/Step_6.wav,stim/Step_1.wav,5,1
,,,,,,,,,,,,60b7f09a4462d1d1aa6bbcf6,001,2022-03-09_16h09.02.560,vct_new,2021.2.3,Linux x86_64,59.88023952,1,1,2.488,1,29,78,26,1,stim/Step_4.wav,stim/Step_6.wav,-2,1
,,,,,,,,,,,,60b7f09a4462d1d1aa6bbcf6,001,2022-03-09_16h09.02.560,vct_new,2021.2.3,Linux x86_64,59.88023952,1,1,1.011,1,30,79,2,1,stim/Step_1.wav,stim/Step_3.wav,-2,1
,,,,,,,,,,,,60b7f09a4462d1d1aa6bbcf6,001,2022-03-09_16h09.02.560,vct_new,2021.2.3,Linux x86_64,59.88023952,0,0,1.513,1,31,80,31,1,stim/Step_5.wav,stim/Step_4.wav,1,1
,,,,,,,,,,,,60b7f09a4462d1d1aa6bbcf6,001,2022-03-09_16h09.02.560,vct_new,2021.2.3,Linux x86_64,59.88023952,1,1,1.247,1,32,81,21,1,stim/Step_4.wav,stim/Step_1.wav,3,1
,,,,,,,,,,,,60b7f09a4462d1d1aa6bbcf6,001,2022-03-09_16h09.02.560,vct_new,2021.2.3,Linux x86_64,59.88023952,1,1,4.128,1,33,82,9,1,stim/Step_2.wav,stim/Step_3.wav,-1,1
,,,,,,,,,,,,60b7f09a4462d1d1aa6bbcf6,001,2022-03-09_16h09.02.560,vct_new,2021.2.3,Linux x86_64,59.88023952,1,1,4.042,1,34,83,18,1,stim/Step_3.wav,stim/Step_5.wav,-2,1
,,,,,,,,,,,,60b7f09a4462d1d1aa6bbcf6,001,2022-03-09_16h09.02.560,vct_new,2021.2.3,Linux x86_64,59.88023952,1,1,1.085,1,35,84,41,1,stim/Step_6.wav,stim/Step_7.wav,-1,1
,,,,,,,,,,,,60b7f09a4462d1d1aa6bbcf6,001,2022-03-09_16h09.02.560,vct_new,2021.2.3,Linux x86_64,59.88023952,0,0,0.655,1,36,85,42,1,stim/Step_7.wav,stim/Step_1.wav,6,1
,,,,,,,,,,,,60b7f09a4462d1d1aa6bbcf6,001,2022-03-09_16h09.02.560,vct_new,2021.2.3,Linux x86_64,59.88023952,0,0,3.086,1,37,86,27,1,stim/Step_4.wav,stim/Step_7.wav,-3,1
,,,,,,,,,,,,60b7f09a4462d1d1aa6bbcf6,001,2022-03-09_16h09.02.560,vct_new,2021.2.3,Linux x86_64,59.88023952,1,0,0.96,1,38,87,32,1,stim/Step_5.wav,stim/Step_5.wav,0,0
,,,,,,,,,,,,60b7f09a4462d1d1aa6bbcf6,001,2022-03-09_16h09.02.560,vct_new,2021.2.3,Linux x86_64,59.88023952,1,1,0.907,1,39,88,7,1,stim/Step_2.wav,stim/Step_1.wav,1,1
,,,,,,,,,,,,60b7f09a4462d1d1aa6bbcf6,001,2022-03-09_16h09.02.560,vct_new,2021.2.3,Linux x86_64,59.88023952,1,1,1.042,1,40,89,23,1,stim/Step_4.wav,stim/Step_3.wav,1,1
,,,,,,,,,,,,60b7f09a4462d1d1aa6bbcf6,001,2022-03-09_16h09.02.560,vct_new,2021.2.3,Linux x86_64,59.88023952,1,0,0.914,1,41,90,40,1,stim/Step_6.wav,stim/Step_6.wav,0,0
,,,,,,,,,,,,60b7f09a4462d1d1aa6bbcf6,001,2022-03-09_16h09.02.560,vct_new,2021.2.3,Linux x86_64,59.88023952,1,0,0.897,1,42,91,24,1,stim/Step_4.wav,stim/Step_4.wav,0,0
,,,,,,,,,,,,60b7f09a4462d1d1aa6bbcf6,001,2022-03-09_16h09.02.560,vct_new,2021.2.3,Linux x86_64,59.88023952,0,0,0.695,1,43,92,30,1,stim/Step_5.wav,stim/Step_3.wav,2,1
,,,,,,,,,,,,60b7f09a4462d1d1aa6bbcf6,001,2022-03-09_16h09.02.560,vct_new,2021.2.3,Linux x86_64,59.88023952,0,0,0.809,1,44,93,38,1,stim/Step_6.wav,stim/Step_4.wav,2,1
,,,,,,,,,,,,60b7f09a4462d1d1aa6bbcf6,001,2022-03-09_16h09.02.560,vct_new,2021.2.3,Linux x86_64,59.88023952,0,0,0.923,1,45,94,4,1,stim/Step_1.wav,stim/Step_5.wav,-4,1
,,,,,,,,,,,,60b7f09a4462d1d1aa6bbcf6,001,2022-03-09_16h09.02.560,vct_new,2021.2.3,Linux x86_64,59.88023952,0,0,1.38,1,46,95,43,1,stim/Step_7.wav,stim/Step_2.wav,5,1
,,,,,,,,,,,,60b7f09a4462d1d1aa6bbcf6,001,2022-03-09_16h09.02.560,vct_new,2021.2.3,Linux x86_64,59.88023952,0,0,2.36,1,47,96,5,1,stim/Step_1.wav,stim/Step_6.wav,-5,1
,,,,,,,,,,,,60b7f09a4462d1d1aa6bbcf6,001,2022-03-09_16h09.02.560,vct_new,2021.2.3,Linux x86_64,59.88023952,0,0,0.864,1,48,97,13,1,stim/Step_2.wav,stim/Step_7.wav,-5,1
,,,,,,,,,,,,60b7f09a4462d1d1aa6bbcf6,001,2022-03-09_16h09.02.560,vct_new,2021.2.3,Linux x86_64,59.88023952,0,0,2.825,2,0,98,29,1,stim/Step_5.wav,stim/Step_2.wav,3,1
,,,,,,,,,,,,60b7f09a4462d1d1aa6bbcf6,001,2022-03-09_16h09.02.560,vct_new,2021.2.3,Linux x86_64,59.88023952,1,0,1.598,2,1,99,32,1,stim/Step_5.wav,stim/Step_5.wav,0,0
,,,,,,,,,,,,60b7f09a4462d1d1aa6bbcf6,001,2022-03-09_16h09.02.560,vct_new,2021.2.3,Linux x86_64,59.88023952,1,0,1.546,2,2,100,0,1,stim/Step_1.wav,stim/Step_1.wav,0,0
,,,,,,,,,,,,60b7f09a4462d1d1aa6bbcf6,001,2022-03-09_16h09.02.560,vct_new,2021.2.3,Linux x86_64,59.88023952,1,1,1.075,2,3,101,36,1,stim/Step_6.wav,stim/Step_2.wav,4,1
,,,,,,,,,,,,60b7f09a4462d1d1aa6bbcf6,001,2022-03-09_16h09.02.560,vct_new,2021.2.3,Linux x86_64,59.88023952,1,1,1.085,2,4,102,33,1,stim/Step_5.wav,stim/Step_6.wav,-1,1
,,,,,,,,,,,,60b7f09a4462d1d1aa6bbcf6,001,2022-03-09_16h09.02.560,vct_new,2021.2.3,Linux x86_64,59.88023952,1,1,0.881,2,5,103,46,1,stim/Step_7.wav,stim/Step_5.wav,2,1
,,,,,,,,,,,,60b7f09a4462d1d1aa6bbcf6,001,2022-03-09_16h09.02.560,vct_new,2021.2.3,Linux x86_64,59.88023952,1,0,0.885,2,6,104,8,1,stim/Step_2.wav,stim/Step_2.wav,0,0
,,,,,,,,,,,,60b7f09a4462d1d1aa6bbcf6,001,2022-03-09_16h09.02.560,vct_new,2021.2.3,Linux x86_64,59.88023952,1,1,0.793,2,7,105,1,1,stim/Step_1.wav,stim/Step_2.wav,-1,1
,,,,,,,,,,,,60b7f09a4462d1d1aa6bbcf6,001,2022-03-09_16h09.02.560,vct_new,2021.2.3,Linux x86_64,59.88023952,0,0,1.848,2,8,106,12,1,stim/Step_2.wav,stim/Step_6.wav,-4,1
,,,,,,,,,,,,60b7f09a4462d1d1aa6bbcf6,001,2022-03-09_16h09.02.560,vct_new,2021.2.3,Linux x86_64,59.88023952,0,0,0.659,2,9,107,20,1,stim/Step_3.wav,stim/Step_7.wav,-4,1
,,,,,,,,,,,,60b7f09a4462d1d1aa6bbcf6,001,2022-03-09_16h09.02.560,vct_new,2021.2.3,Linux x86_64,59.88023952,1,1,0.844,2,10,108,31,1,stim/Step_5.wav,stim/Step_4.wav,1,1
,,,,,,,,,,,,60b7f09a4462d1d1aa6bbcf6,001,2022-03-09_16h09.02.560,vct_new,2021.2.3,Linux x86_64,59.88023952,1,0,1.664,2,11,109,24,1,stim/Step_4.wav,stim/Step_4.wav,0,0
,,,,,,,,,,,,60b7f09a4462d1d1aa6bbcf6,001,2022-03-09_16h09.02.560,vct_new,2021.2.3,Linux x86_64,59.88023952,0,0,0.58,2,12,110,14,1,stim/Step_3.wav,stim/Step_1.wav,2,1
,,,,,,,,,,,,60b7f09a4462d1d1aa6bbcf6,001,2022-03-09_16h09.02.560,vct_new,2021.2.3,Linux x86_64,59.88023952,0,0,0.845,2,13,111,44,1,stim/Step_7.wav,stim/Step_3.wav,4,1
,,,,,,,,,,,,60b7f09a4462d1d1aa6bbcf6,001,2022-03-09_16h09.02.560,vct_new,2021.2.3,Linux x86_64,59.88023952,0,0,0.731,2,14,112,35,1,stim/Step_6.wav,stim/Step_1.wav,5,1
,,,,,,,,,,,,60b7f09a4462d1d1aa6bbcf6,001,2022-03-09_16h09.02.560,vct_new,2021.2.3,Linux x86_64,59.88023952,1,1,1.09,2,15,113,38,1,stim/Step_6.wav,stim/Step_4.wav,2,1
,,,,,,,,,,,,60b7f09a4462d1d1aa6bbcf6,001,2022-03-09_16h09.02.560,vct_new,2021.2.3,Linux x86_64,59.88023952,1,0,0.912,2,16,114,48,1,stim/Step_7.wav,stim/Step_7.wav,0,0
,,,,,,,,,,,,60b7f09a4462d1d1aa6bbcf6,001,2022-03-09_16h09.02.560,vct_new,2021.2.3,Linux x86_64,59.88023952,1,1,0.775,2,17,115,9,1,stim/Step_2.wav,stim/Step_3.wav,-1,1
,,,,,,,,,,,,60b7f09a4462d1d1aa6bbcf6,001,2022-03-09_16h09.02.560,vct_new,2021.2.3,Linux x86_64,59.88023952,1,1,0.727,2,18,116,7,1,stim/Step_2.wav,stim/Step_1.wav,1,1
,,,,,,,,,,,,60b7f09a4462d1d1aa6bbcf6,001,2022-03-09_16h09.02.560,vct_new,2021.2.3,Linux x86_64,59.88023952,0,0,0.86,2,19,117,19,1,stim/Step_3.wav,stim/Step_6.wav,-3,1
,,,,,,,,,,,,60b7f09a4462d1d1aa6bbcf6,001,2022-03-09_16h09.02.560,vct_new,2021.2.3,Linux x86_64,59.88023952,1,1,0.907,2,20,118,34,1,stim/Step_5.wav,stim/Step_7.wav,-2,1
,,,,,,,,,,,,60b7f09a4462d1d1aa6bbcf6,001,2022-03-09_16h09.02.560,vct_new,2021.2.3,Linux x86_64,59.88023952,1,1,1.86,2,21,119,30,1,stim/Step_5.wav,stim/Step_3.wav,2,1
,,,,,,,,,,,,60b7f09a4462d1d1aa6bbcf6,001,2022-03-09_16h09.02.560,vct_new,2021.2.3,Linux x86_64,59.88023952,1,1,1.544,2,22,120,22,1,stim/Step_4.wav,stim/Step_2.wav,2,1
,,,,,,,,,,,,60b7f09a4462d1d1aa6bbcf6,001,2022-03-09_16h09.02.560,vct_new,2021.2.3,Linux x86_64,59.88023952,0,0,1.865,2,23,121,45,1,stim/Step_7.wav,stim/Step_4.wav,3,1
,,,,,,,,,,,,60b7f09a4462d1d1aa6bbcf6,001,2022-03-09_16h09.02.560,vct_new,2021.2.3,Linux x86_64,59.88023952,1,1,1.114,2,24,122,47,1,stim/Step_7.wav,stim/Step_6.wav,1,1
,,,,,,,,,,,,60b7f09a4462d1d1aa6bbcf6,001,2022-03-09_16h09.02.560,vct_new,2021.2.3,Linux x86_64,59.88023952,1,1,1.093,2,25,123,10,1,stim/Step_2.wav,stim/Step_4.wav,-2,1
,,,,,,,,,,,,60b7f09a4462d1d1aa6bbcf6,001,2022-03-09_16h09.02.560,vct_new,2021.2.3,Linux x86_64,59.88023952,1,1,0.86,2,26,124,23,1,stim/Step_4.wav,stim/Step_3.wav,1,1
,,,,,,,,,,,,60b7f09a4462d1d1aa6bbcf6,001,2022-03-09_16h09.02.560,vct_new,2021.2.3,Linux x86_64,59.88023952,0,0,0.591,2,27,125,18,1,stim/Step_3.wav,stim/Step_5.wav,-2,1
,,,,,,,,,,,,60b7f09a4462d1d1aa6bbcf6,001,2022-03-09_16h09.02.560,vct_new,2021.2.3,Linux x86_64,59.88023952,1,1,2.213,2,28,126,2,1,stim/Step_1.wav,stim/Step_3.wav,-2,1
,,,,,,,,,,,,60b7f09a4462d1d1aa6bbcf6,001,2022-03-09_16h09.02.560,vct_new,2021.2.3,Linux x86_64,59.88023952,0,0,0.641,2,29,127,5,1,stim/Step_1.wav,stim/Step_6.wav,-5,1
,,,,,,,,,,,,60b7f09a4462d1d1aa6bbcf6,001,2022-03-09_16h09.02.560,vct_new,2021.2.3,Linux x86_64,59.88023952,0,0,0.963,2,30,128,13,1,stim/Step_2.wav,stim/Step_7.wav,-5,1
,,,,,,,,,,,,60b7f09a4462d1d1aa6bbcf6,001,2022-03-09_16h09.02.560,vct_new,2021.2.3,Linux x86_64,59.88023952,0,0,0.574,2,31,129,11,1,stim/Step_2.wav,stim/Step_5.wav,-3,1
,,,,,,,,,,,,60b7f09a4462d1d1aa6bbcf6,001,2022-03-09_16h09.02.560,vct_new,2021.2.3,Linux x86_64,59.88023952,0,0,0.791,2,32,130,28,1,stim/Step_5.wav,stim/Step_1.wav,4,1
,,,,,,,,,,,,60b7f09a4462d1d1aa6bbcf6,001,2022-03-09_16h09.02.560,vct_new,2021.2.3,Linux x86_64,59.88023952,0,0,1.88,2,33,131,39,1,stim/Step_6.wav,stim/Step_5.wav,1,1
,,,,,,,,,,,,60b7f09a4462d1d1aa6bbcf6,001,2022-03-09_16h09.02.560,vct_new,2021.2.3,Linux x86_64,59.88023952,1,1,0.838,2,34,132,27,1,stim/Step_4.wav,stim/Step_7.wav,-3,1
,,,,,,,,,,,,60b7f09a4462d1d1aa6bbcf6,001,2022-03-09_16h09.02.560,vct_new,2021.2.3,Linux x86_64,59.88023952,0,0,0.771,2,35,133,3,1,stim/Step_1.wav,stim/Step_4.wav,-3,1
,,,,,,,,,,,,60b7f09a4462d1d1aa6bbcf6,001,2022-03-09_16h09.02.560,vct_new,2021.2.3,Linux x86_64,59.88023952,0,0,1.18,2,36,134,26,1,stim/Step_4.wav,stim/Step_6.wav,-2,1
,,,,,,,,,,,,60b7f09a4462d1d1aa6bbcf6,001,2022-03-09_16h09.02.560,vct_new,2021.2.3,Linux x86_64,59.88023952,1,1,0.837,2,37,135,41,1,stim/Step_6.wav,stim/Step_7.wav,-1,1
,,,,,,,,,,,,60b7f09a4462d1d1aa6bbcf6,001,2022-03-09_16h09.02.560,vct_new,2021.2.3,Linux x86_64,59.88023952,1,1,1.183,2,38,136,15,1,stim/Step_3.wav,stim/Step_2.wav,1,1
,,,,,,,,,,,,60b7f09a4462d1d1aa6bbcf6,001,2022-03-09_16h09.02.560,vct_new,2021.2.3,Linux x86_64,59.88023952,1,1,1.496,2,39,137,4,1,stim/Step_1.wav,stim/Step_5.wav,-4,1
,,,,,,,,,,,,60b7f09a4462d1d1aa6bbcf6,001,2022-03-09_16h09.02.560,vct_new,2021.2.3,Linux x86_64,59.88023952,1,0,1.599,2,40,138,16,1,stim/Step_3.wav,stim/Step_3.wav,0,0
,,,,,,,,,,,,60b7f09a4462d1d1aa6bbcf6,001,2022-03-09_16h09.02.560,vct_new,2021.2.3,Linux x86_64,59.88023952,0,0,0.804,2,41,139,43,1,stim/Step_7.wav,stim/Step_2.wav,5,1
,,,,,,,,,,,,60b7f09a4462d1d1aa6bbcf6,001,2022-03-09_16h09.02.560,vct_new,2021.2.3,Linux x86_64,59.88023952,0,0,0.913,2,42,140,6,1,stim/Step_1.wav,stim/Step_7.wav,-6,1
,,,,,,,,,,,,60b7f09a4462d1d1aa6bbcf6,001,2022-03-09_16h09.02.560,vct_new,2021.2.3,Linux x86_64,59.88023952,1,0,1.869,2,43,141,40,1,stim/Step_6.wav,stim/Step_6.wav,0,0
,,,,,,,,,,,,60b7f09a4462d1d1aa6bbcf6,001,2022-03-09_16h09.02.560,vct_new,2021.2.3,Linux x86_64,59.88023952,0,0,0.808,2,44,142,21,1,stim/Step_4.wav,stim/Step_1.wav,3,1
,,,,,,,,,,,,60b7f09a4462d1d1aa6bbcf6,001,2022-03-09_16h09.02.560,vct_new,2021.2.3,Linux x86_64,59.88023952,1,1,1.09,2,45,143,25,1,stim/Step_4.wav,stim/Step_5.wav,-1,1
,,,,,,,,,,,,60b7f09a4462d1d1aa6bbcf6,001,2022-03-09_16h09.02.560,vct_new,2021.2.3,Linux x86_64,59.88023952,0,0,0.83,2,46,144,42,1,stim/Step_7.wav,stim/Step_1.wav,6,1
,,,,,,,,,,,,60b7f09a4462d1d1aa6bbcf6,001,2022-03-09_16h09.02.560,vct_new,2021.2.3,Linux x86_64,59.88023952,1,1,2.092,2,47,145,37,1,stim/Step_6.wav,stim/Step_3.wav,3,1
,,,,,,,,,,,,60b7f09a4462d1d1aa6bbcf6,001,2022-03-09_16h09.02.560,vct_new,2021.2.3,Linux x86_64,59.88023952,1,1,2.997,2,48,146,17,1,stim/Step_3.wav,stim/Step_4.wav,-1,1
