key_resp_3.keys,key_resp_3.rt,key_resp_4.keys,key_resp_4.rt,key_resp_2.keys,key_resp_2.rt,slider.response,slider.rt,trials.thisRepN,trials.thisTrialN,trials.thisN,trials.thisIndex,trials.ran,stim,participant,session,date,expName,psychopyVersion,OS,frameRate,key_resp_5.keys,key_resp_5.rt,key_resp.keys,key_resp.rt,slider_2.response,slider_2.rt,trials_2.thisRepN,trials_2.thisTrialN,trials_2.thisN,trials_2.thisIndex,trials_2.ran,key_resp_6.keys,key_resp_6.rt
1,12.901,space,22.943,6,13.069,5,32.008,0,0,0,4,1,stim/fof_g.wav,60fc741369c95ce0ee91b20e,001,2022-03-18_16h39.02.655,task,2021.2.3,MacIntel,58.82352941,,,,,,,,,,,,,
,,,,6,15.158,4.017777778,5.044,0,1,1,2,1,stim/peuf_g.wav,60fc741369c95ce0ee91b20e,001,2022-03-18_16h39.02.655,task,2021.2.3,MacIntel,58.82352941,,,,,,,,,,,,,
,,,,1,15.982,2.995555556,3.732,0,2,2,0,1,stim/pof_g.wav,60fc741369c95ce0ee91b20e,001,2022-03-18_16h39.02.655,task,2021.2.3,MacIntel,58.82352941,,,,,,,,,,,,,
,,,,3,23.228,4.022222222,2.293,0,3,3,5,1,stim/fief_g.wav,60fc741369c95ce0ee91b20e,001,2022-03-18_16h39.02.655,task,2021.2.3,MacIntel,58.82352941,,,,,,,,,,,,,
,,,,7,8.187,2.524444444,2.04,0,4,4,1,1,stim/pief_g.wav,60fc741369c95ce0ee91b20e,001,2022-03-18_16h39.02.655,task,2021.2.3,MacIntel,58.82352941,,,,,,,,,,,,,
,,,,2,48.884,2.186666667,2.207,0,5,5,7,1,stim/f_schwa_g.wav,60fc741369c95ce0ee91b20e,001,2022-03-18_16h39.02.655,task,2021.2.3,MacIntel,58.82352941,,,,,,,,,,,,,
,,,,7,8.229,3.04,1.539,0,6,6,6,1,stim/feuf_g.wav,60fc741369c95ce0ee91b20e,001,2022-03-18_16h39.02.655,task,2021.2.3,MacIntel,58.82352941,,,,,,,,,,,,,
,,,,1,4.738,3.506666667,1.681,0,7,7,3,1,stim/p_schwa_g.wav,60fc741369c95ce0ee91b20e,001,2022-03-18_16h39.02.655,task,2021.2.3,MacIntel,58.82352941,,,,,,,,,,,,,
,,,,6,3.488,3.657777778,1.953,1,0,8,2,1,stim/peuf_g.wav,60fc741369c95ce0ee91b20e,001,2022-03-18_16h39.02.655,task,2021.2.3,MacIntel,58.82352941,,,,,,,,,,,,,
,,,,1,19.768,3.288888889,1.15,1,1,9,3,1,stim/p_schwa_g.wav,60fc741369c95ce0ee91b20e,001,2022-03-18_16h39.02.655,task,2021.2.3,MacIntel,58.82352941,,,,,,,,,,,,,
,,,,3,8.8,4.133333333,2.012,1,2,10,1,1,stim/pief_g.wav,60fc741369c95ce0ee91b20e,001,2022-03-18_16h39.02.655,task,2021.2.3,MacIntel,58.82352941,,,,,,,,,,,,,
,,,,1,5.301,3.013333333,1.587,1,3,11,7,1,stim/f_schwa_g.wav,60fc741369c95ce0ee91b20e,001,2022-03-18_16h39.02.655,task,2021.2.3,MacIntel,58.82352941,,,,,,,,,,,,,
,,,,4,3.89,3.973333333,1.286,1,4,12,0,1,stim/pof_g.wav,60fc741369c95ce0ee91b20e,001,2022-03-18_16h39.02.655,task,2021.2.3,MacIntel,58.82352941,,,,,,,,,,,,,
,,,,6,3.434,3.008888889,2.688,1,5,13,6,1,stim/feuf_g.wav,60fc741369c95ce0ee91b20e,001,2022-03-18_16h39.02.655,task,2021.2.3,MacIntel,58.82352941,,,,,,,,,,,,,
,,,,3,4.453,3.226666667,1.745,1,6,14,5,1,stim/fief_g.wav,60fc741369c95ce0ee91b20e,001,2022-03-18_16h39.02.655,task,2021.2.3,MacIntel,58.82352941,,,,,,,,,,,,,
,,,,6,9.9,2.991111111,1.943,1,7,15,4,1,stim/fof_g.wav,60fc741369c95ce0ee91b20e,001,2022-03-18_16h39.02.655,task,2021.2.3,MacIntel,58.82352941,,,,,,,,,,,,,
,,,,4,4.646,2.533333333,1.645,2,0,16,6,1,stim/feuf_g.wav,60fc741369c95ce0ee91b20e,001,2022-03-18_16h39.02.655,task,2021.2.3,MacIntel,58.82352941,,,,,,,,,,,,,
,,,,5,13.969,3.977777778,1.775,2,1,17,0,1,stim/pof_g.wav,60fc741369c95ce0ee91b20e,001,2022-03-18_16h39.02.655,task,2021.2.3,MacIntel,58.82352941,,,,,,,,,,,,,
,,,,7,13.508,3.648888889,1.287,2,2,18,5,1,stim/fief_g.wav,60fc741369c95ce0ee91b20e,001,2022-03-18_16h39.02.655,task,2021.2.3,MacIntel,58.82352941,,,,,,,,,,,,,
,,,,3,4.703,4.008888889,1.216,2,3,19,1,1,stim/pief_g.wav,60fc741369c95ce0ee91b20e,001,2022-03-18_16h39.02.655,task,2021.2.3,MacIntel,58.82352941,,,,,,,,,,,,,
,,,,6,3.873,3.333333333,1.279,2,4,20,2,1,stim/peuf_g.wav,60fc741369c95ce0ee91b20e,001,2022-03-18_16h39.02.655,task,2021.2.3,MacIntel,58.82352941,,,,,,,,,,,,,
,,,,1,3.428,3.973333333,1.923,2,5,21,3,1,stim/p_schwa_g.wav,60fc741369c95ce0ee91b20e,001,2022-03-18_16h39.02.655,task,2021.2.3,MacIntel,58.82352941,,,,,,,,,,,,,
,,,,4,9.451,4.204444444,1.189,2,6,22,4,1,stim/fof_g.wav,60fc741369c95ce0ee91b20e,001,2022-03-18_16h39.02.655,task,2021.2.3,MacIntel,58.82352941,,,,,,,,,,,,,
,,,,1,9.668,4.017777778,1.528,2,7,23,7,1,stim/f_schwa_g.wav,60fc741369c95ce0ee91b20e,001,2022-03-18_16h39.02.655,task,2021.2.3,MacIntel,58.82352941,,,,,,,,,,,,,
,,,,6,5.011,3.751111111,1.198,3,0,24,2,1,stim/peuf_g.wav,60fc741369c95ce0ee91b20e,001,2022-03-18_16h39.02.655,task,2021.2.3,MacIntel,58.82352941,,,,,,,,,,,,,
,,,,7,5.414,3.022222222,1.311,3,1,25,1,1,stim/pief_g.wav,60fc741369c95ce0ee91b20e,001,2022-03-18_16h39.02.655,task,2021.2.3,MacIntel,58.82352941,,,,,,,,,,,,,
,,,,5,6.858,3.568888889,1.27,3,2,26,4,1,stim/fof_g.wav,60fc741369c95ce0ee91b20e,001,2022-03-18_16h39.02.655,task,2021.2.3,MacIntel,58.82352941,,,,,,,,,,,,,
,,,,5,4.497,3.04,1.147,3,3,27,0,1,stim/pof_g.wav,60fc741369c95ce0ee91b20e,001,2022-03-18_16h39.02.655,task,2021.2.3,MacIntel,58.82352941,,,,,,,,,,,,,
,,,,3,4.287,3.991111111,1.514,3,4,28,5,1,stim/fief_g.wav,60fc741369c95ce0ee91b20e,001,2022-03-18_16h39.02.655,task,2021.2.3,MacIntel,58.82352941,,,,,,,,,,,,,
,,,,1,3.434,3.937777778,1.022,3,5,29,3,1,stim/p_schwa_g.wav,60fc741369c95ce0ee91b20e,001,2022-03-18_16h39.02.655,task,2021.2.3,MacIntel,58.82352941,,,,,,,,,,,,,
,,,,1,2.448,3.106666667,1.373,3,6,30,7,1,stim/f_schwa_g.wav,60fc741369c95ce0ee91b20e,001,2022-03-18_16h39.02.655,task,2021.2.3,MacIntel,58.82352941,,,,,,,,,,,,,
,,,,6,7.875,4.804444444,1.424,3,7,31,6,1,stim/feuf_g.wav,60fc741369c95ce0ee91b20e,001,2022-03-18_16h39.02.655,task,2021.2.3,MacIntel,58.82352941,,,,,,,,,,,,,
,,,,6,2.838,4.017777778,1.177,4,0,32,6,1,stim/feuf_g.wav,60fc741369c95ce0ee91b20e,001,2022-03-18_16h39.02.655,task,2021.2.3,MacIntel,58.82352941,,,,,,,,,,,,,
,,,,4,5.644,3.08,1.313,4,1,33,0,1,stim/pof_g.wav,60fc741369c95ce0ee91b20e,001,2022-03-18_16h39.02.655,task,2021.2.3,MacIntel,58.82352941,,,,,,,,,,,,,
,,,,1,3.345,4.017777778,1.568,4,2,34,3,1,stim/p_schwa_g.wav,60fc741369c95ce0ee91b20e,001,2022-03-18_16h39.02.655,task,2021.2.3,MacIntel,58.82352941,,,,,,,,,,,,,
,,,,1,1.855,3.977777778,1.339,4,3,35,7,1,stim/f_schwa_g.wav,60fc741369c95ce0ee91b20e,001,2022-03-18_16h39.02.655,task,2021.2.3,MacIntel,58.82352941,,,,,,,,,,,,,
,,,,3,3.929,4.226666667,1.64,4,4,36,5,1,stim/fief_g.wav,60fc741369c95ce0ee91b20e,001,2022-03-18_16h39.02.655,task,2021.2.3,MacIntel,58.82352941,,,,,,,,,,,,,
,,,,4,13.079,2.475555556,1.391,4,5,37,4,1,stim/fof_g.wav,60fc741369c95ce0ee91b20e,001,2022-03-18_16h39.02.655,task,2021.2.3,MacIntel,58.82352941,,,,,,,,,,,,,
,,,,3,3.121,3.933333333,1.051,4,6,38,1,1,stim/pief_g.wav,60fc741369c95ce0ee91b20e,001,2022-03-18_16h39.02.655,task,2021.2.3,MacIntel,58.82352941,,,,,,,,,,,,,
,,,,6,3.258,4.315555556,1.348,4,7,39,2,1,stim/peuf_g.wav,60fc741369c95ce0ee91b20e,001,2022-03-18_16h39.02.655,task,2021.2.3,MacIntel,58.82352941,,,,,,,,,,,,,
,,,,,,,,,,,,,stim/pof_f.wav,60fc741369c95ce0ee91b20e,001,2022-03-18_16h39.02.655,task,2021.2.3,MacIntel,58.82352941,space,3.862,2,3.596,3.004444444,2.467,0,0,0,0,1,,
,,,,,,,,,,,,,stim/p_schwa_f.wav,60fc741369c95ce0ee91b20e,001,2022-03-18_16h39.02.655,task,2021.2.3,MacIntel,58.82352941,,,4,14.788,2.235555556,1.81,0,1,1,3,1,,
,,,,,,,,,,,,,stim/fof_f.wav,60fc741369c95ce0ee91b20e,001,2022-03-18_16h39.02.655,task,2021.2.3,MacIntel,58.82352941,,,5,4.645,4.288888889,1.14,0,2,2,4,1,,
,,,,,,,,,,,,,stim/fif_f.wav,60fc741369c95ce0ee91b20e,001,2022-03-18_16h39.02.655,task,2021.2.3,MacIntel,58.82352941,,,3,5.47,3.728888889,1.679,0,3,3,5,1,,
,,,,,,,,,,,,,stim/peuf_f.wav,60fc741369c95ce0ee91b20e,001,2022-03-18_16h39.02.655,task,2021.2.3,MacIntel,58.82352941,,,6,7.714,4.568888889,1.331,0,4,4,2,1,,
,,,,,,,,,,,,,stim/pif_f.wav,60fc741369c95ce0ee91b20e,001,2022-03-18_16h39.02.655,task,2021.2.3,MacIntel,58.82352941,,,3,3.289,3.844444444,1.601,0,5,5,1,1,,
,,,,,,,,,,,,,stim/feuf_f.wav,60fc741369c95ce0ee91b20e,001,2022-03-18_16h39.02.655,task,2021.2.3,MacIntel,58.82352941,,,6,4.789,3.435555556,1.536,0,6,6,6,1,,
,,,,,,,,,,,,,stim/f_schwa_f.wav,60fc741369c95ce0ee91b20e,001,2022-03-18_16h39.02.655,task,2021.2.3,MacIntel,58.82352941,,,1,9.473,3.746666667,1.889,0,7,7,7,1,,
,,,,,,,,,,,,,stim/peuf_f.wav,60fc741369c95ce0ee91b20e,001,2022-03-18_16h39.02.655,task,2021.2.3,MacIntel,58.82352941,,,4,4.116,3.466666667,1.029,1,0,8,2,1,,
,,,,,,,,,,,,,stim/p_schwa_f.wav,60fc741369c95ce0ee91b20e,001,2022-03-18_16h39.02.655,task,2021.2.3,MacIntel,58.82352941,,,1,9.243,1.942222222,1.553,1,1,9,3,1,,
,,,,,,,,,,,,,stim/pif_f.wav,60fc741369c95ce0ee91b20e,001,2022-03-18_16h39.02.655,task,2021.2.3,MacIntel,58.82352941,,,3,3.355,4.08,1.246,1,2,10,1,1,,
,,,,,,,,,,,,,stim/f_schwa_f.wav,60fc741369c95ce0ee91b20e,001,2022-03-18_16h39.02.655,task,2021.2.3,MacIntel,58.82352941,,,1,7.258,4.008888889,1.243,1,3,11,7,1,,
,,,,,,,,,,,,,stim/fof_f.wav,60fc741369c95ce0ee91b20e,001,2022-03-18_16h39.02.655,task,2021.2.3,MacIntel,58.82352941,,,2,5.467,2.995555556,1.364,1,4,12,4,1,,
,,,,,,,,,,,,,stim/feuf_f.wav,60fc741369c95ce0ee91b20e,001,2022-03-18_16h39.02.655,task,2021.2.3,MacIntel,58.82352941,,,4,3.614,2.902222222,1.673,1,5,13,6,1,,
,,,,,,,,,,,,,stim/pof_f.wav,60fc741369c95ce0ee91b20e,001,2022-03-18_16h39.02.655,task,2021.2.3,MacIntel,58.82352941,,,1,3.515,3.924444444,1.342,1,6,14,0,1,,
,,,,,,,,,,,,,stim/fif_f.wav,60fc741369c95ce0ee91b20e,001,2022-03-18_16h39.02.655,task,2021.2.3,MacIntel,58.82352941,,,3,2.022,4.235555556,1.199,1,7,15,5,1,,
,,,,,,,,,,,,,stim/feuf_f.wav,60fc741369c95ce0ee91b20e,001,2022-03-18_16h39.02.655,task,2021.2.3,MacIntel,58.82352941,,,6,3.477,3.937777778,1.072,2,0,16,6,1,,
,,,,,,,,,,,,,stim/f_schwa_f.wav,60fc741369c95ce0ee91b20e,001,2022-03-18_16h39.02.655,task,2021.2.3,MacIntel,58.82352941,,,1,3.15,3.395555556,1.275,2,1,17,7,1,,
,,,,,,,,,,,,,stim/p_schwa_f.wav,60fc741369c95ce0ee91b20e,001,2022-03-18_16h39.02.655,task,2021.2.3,MacIntel,58.82352941,,,1,3.15,3.666666667,1.302,2,2,18,3,1,,
,,,,,,,,,,,,,stim/fif_f.wav,60fc741369c95ce0ee91b20e,001,2022-03-18_16h39.02.655,task,2021.2.3,MacIntel,58.82352941,,,3,1.951,3.946666667,1.307,2,3,19,5,1,,
,,,,,,,,,,,,,stim/peuf_f.wav,60fc741369c95ce0ee91b20e,001,2022-03-18_16h39.02.655,task,2021.2.3,MacIntel,58.82352941,,,4,3.068,3.982222222,1.037,2,4,20,2,1,,
,,,,,,,,,,,,,stim/pof_f.wav,60fc741369c95ce0ee91b20e,001,2022-03-18_16h39.02.655,task,2021.2.3,MacIntel,58.82352941,,,1,3.662,4.111111111,1.317,2,5,21,0,1,,
,,,,,,,,,,,,,stim/pif_f.wav,60fc741369c95ce0ee91b20e,001,2022-03-18_16h39.02.655,task,2021.2.3,MacIntel,58.82352941,,,3,2.759,3.502222222,1.401,2,6,22,1,1,,
,,,,,,,,,,,,,stim/fof_f.wav,60fc741369c95ce0ee91b20e,001,2022-03-18_16h39.02.655,task,2021.2.3,MacIntel,58.82352941,,,1,2.151,4.484444444,1.314,2,7,23,4,1,,
,,,,,,,,,,,,,stim/fof_f.wav,60fc741369c95ce0ee91b20e,001,2022-03-18_16h39.02.655,task,2021.2.3,MacIntel,58.82352941,,,1,1.654,4.844444444,1.225,3,0,24,4,1,,
,,,,,,,,,,,,,stim/fif_f.wav,60fc741369c95ce0ee91b20e,001,2022-03-18_16h39.02.655,task,2021.2.3,MacIntel,58.82352941,,,3,2.159,4.413333333,1.915,3,1,25,5,1,,
,,,,,,,,,,,,,stim/p_schwa_f.wav,60fc741369c95ce0ee91b20e,001,2022-03-18_16h39.02.655,task,2021.2.3,MacIntel,58.82352941,,,4,12.774,1.804444444,1.319,3,2,26,3,1,,
,,,,,,,,,,,,,stim/pof_f.wav,60fc741369c95ce0ee91b20e,001,2022-03-18_16h39.02.655,task,2021.2.3,MacIntel,58.82352941,,,1,3.326,4.871111111,1.469,3,3,27,0,1,,
,,,,,,,,,,,,,stim/peuf_f.wav,60fc741369c95ce0ee91b20e,001,2022-03-18_16h39.02.655,task,2021.2.3,MacIntel,58.82352941,,,4,3.72,4.533333333,1.341,3,4,28,2,1,,
,,,,,,,,,,,,,stim/feuf_f.wav,60fc741369c95ce0ee91b20e,001,2022-03-18_16h39.02.655,task,2021.2.3,MacIntel,58.82352941,,,4,3.138,4.044444444,1.203,3,5,29,6,1,,
,,,,,,,,,,,,,stim/pif_f.wav,60fc741369c95ce0ee91b20e,001,2022-03-18_16h39.02.655,task,2021.2.3,MacIntel,58.82352941,,,3,2.756,4.515555556,1.173,3,6,30,1,1,,
,,,,,,,,,,,,,stim/f_schwa_f.wav,60fc741369c95ce0ee91b20e,001,2022-03-18_16h39.02.655,task,2021.2.3,MacIntel,58.82352941,,,1,2.451,4.346666667,1.272,3,7,31,7,1,,
,,,,,,,,,,,,,stim/pif_f.wav,60fc741369c95ce0ee91b20e,001,2022-03-18_16h39.02.655,task,2021.2.3,MacIntel,58.82352941,,,3,2.865,4.671111111,1.582,4,0,32,1,1,,
,,,,,,,,,,,,,stim/fif_f.wav,60fc741369c95ce0ee91b20e,001,2022-03-18_16h39.02.655,task,2021.2.3,MacIntel,58.82352941,,,3,1.792,4.675555556,1.223,4,1,33,5,1,,
,,,,,,,,,,,,,stim/feuf_f.wav,60fc741369c95ce0ee91b20e,001,2022-03-18_16h39.02.655,task,2021.2.3,MacIntel,58.82352941,,,4,4.227,4.6,1.364,4,2,34,6,1,,
,,,,,,,,,,,,,stim/f_schwa_f.wav,60fc741369c95ce0ee91b20e,001,2022-03-18_16h39.02.655,task,2021.2.3,MacIntel,58.82352941,,,1,1.954,4.497777778,1.378,4,3,35,7,1,,
,,,,,,,,,,,,,stim/fof_f.wav,60fc741369c95ce0ee91b20e,001,2022-03-18_16h39.02.655,task,2021.2.3,MacIntel,58.82352941,,,5,7.495,4.56,0.947,4,4,36,4,1,,
,,,,,,,,,,,,,stim/peuf_f.wav,60fc741369c95ce0ee91b20e,001,2022-03-18_16h39.02.655,task,2021.2.3,MacIntel,58.82352941,,,4,2.963,3.991111111,1.068,4,5,37,2,1,,
,,,,,,,,,,,,,stim/p_schwa_f.wav,60fc741369c95ce0ee91b20e,001,2022-03-18_16h39.02.655,task,2021.2.3,MacIntel,58.82352941,,,1,6.074,4.16,1.358,4,6,38,3,1,,
,,,,,,,,,,,,,stim/pof_f.wav,60fc741369c95ce0ee91b20e,001,2022-03-18_16h39.02.655,task,2021.2.3,MacIntel,58.82352941,,,1,6.257,3.582222222,1.22,4,7,39,0,1,,
,,,,,,,,,,,,,,60fc741369c95ce0ee91b20e,001,2022-03-18_16h39.02.655,task,2021.2.3,MacIntel,58.82352941,,,,,,,,,,,,space,10.709
