key_resp.keys,key_resp.rt,key_resp_2.keys,key_resp_2.rt,slider.response,slider.rt,trials.thisRepN,trials.thisTrialN,trials.thisN,trials.thisIndex,trials.ran,stim,participant,session,date,expName,psychopyVersion,OS,frameRate,key_resp_trial.keys,key_resp_trial.corr,key_resp_trial.rt,trials_2.thisRepN,trials_2.thisTrialN,trials_2.thisN,trials_2.thisIndex,trials_2.ran,stim1,stim2,distance,isCorrect
space,7.789,1,32.706,2.102222222,7.391,0,0,0,4,1,stim/p_schwa_g.wav,61007de25d1a5d74904865cd,001,2022-03-09_16h58.50.609,vct_new,2021.2.3,MacIntel,58.82352941,,,,,,,,,,,,
,,2,5.254,4.16,3.137,0,1,1,1,1,stim/faf_g.wav,61007de25d1a5d74904865cd,001,2022-03-09_16h58.50.609,vct_new,2021.2.3,MacIntel,58.82352941,,,,,,,,,,,,
,,2,4.868,4.493333333,1.414,0,2,2,3,1,stim/fof_g.wav,61007de25d1a5d74904865cd,001,2022-03-09_16h58.50.609,vct_new,2021.2.3,MacIntel,58.82352941,,,,,,,,,,,,
,,3,10.335,4.857777778,1.913,0,3,3,6,1,stim/piep_g.wav,61007de25d1a5d74904865cd,001,2022-03-09_16h58.50.609,vct_new,2021.2.3,MacIntel,58.82352941,,,,,,,,,,,,
,,1,6.118,2.137777778,2.245,0,4,4,5,1,stim/paf_g.wav,61007de25d1a5d74904865cd,001,2022-03-09_16h58.50.609,vct_new,2021.2.3,MacIntel,58.82352941,,,,,,,,,,,,
,,7,6.867,4.511111111,1.333,0,5,5,2,1,stim/fif_g.wav,61007de25d1a5d74904865cd,001,2022-03-09_16h58.50.609,vct_new,2021.2.3,MacIntel,58.82352941,,,,,,,,,,,,
,,5,5.826,4.075555556,0.964,0,6,6,7,1,stim/pof_g.wav,61007de25d1a5d74904865cd,001,2022-03-09_16h58.50.609,vct_new,2021.2.3,MacIntel,58.82352941,,,,,,,,,,,,
,,1,7.567,1.248888889,1.538,0,7,7,0,1,stim/f_schwa_g.wav,61007de25d1a5d74904865cd,001,2022-03-09_16h58.50.609,vct_new,2021.2.3,MacIntel,58.82352941,,,,,,,,,,,,
,,5,3.639,3.057777778,1.38,1,0,8,3,1,stim/fof_g.wav,61007de25d1a5d74904865cd,001,2022-03-09_16h58.50.609,vct_new,2021.2.3,MacIntel,58.82352941,,,,,,,,,,,,
,,2,5.817,2.346666667,1.187,1,1,9,5,1,stim/paf_g.wav,61007de25d1a5d74904865cd,001,2022-03-09_16h58.50.609,vct_new,2021.2.3,MacIntel,58.82352941,,,,,,,,,,,,
,,1,6.772,3.213333333,2.504,1,2,10,4,1,stim/p_schwa_g.wav,61007de25d1a5d74904865cd,001,2022-03-09_16h58.50.609,vct_new,2021.2.3,MacIntel,58.82352941,,,,,,,,,,,,
,,1,2.621,4.76,1.457,1,3,11,1,1,stim/faf_g.wav,61007de25d1a5d74904865cd,001,2022-03-09_16h58.50.609,vct_new,2021.2.3,MacIntel,58.82352941,,,,,,,,,,,,
,,1,7.899,3.142222222,1.312,1,4,12,0,1,stim/f_schwa_g.wav,61007de25d1a5d74904865cd,001,2022-03-09_16h58.50.609,vct_new,2021.2.3,MacIntel,58.82352941,,,,,,,,,,,,
,,3,2.854,4.946666667,1.671,1,5,13,6,1,stim/piep_g.wav,61007de25d1a5d74904865cd,001,2022-03-09_16h58.50.609,vct_new,2021.2.3,MacIntel,58.82352941,,,,,,,,,,,,
,,7,7.886,4.862222222,1.362,1,6,14,2,1,stim/fif_g.wav,61007de25d1a5d74904865cd,001,2022-03-09_16h58.50.609,vct_new,2021.2.3,MacIntel,58.82352941,,,,,,,,,,,,
,,5,3.341,3.902222222,0.865,1,7,15,7,1,stim/pof_g.wav,61007de25d1a5d74904865cd,001,2022-03-09_16h58.50.609,vct_new,2021.2.3,MacIntel,58.82352941,,,,,,,,,,,,
,,1,6.987,2.075555556,1.113,2,0,16,5,1,stim/paf_g.wav,61007de25d1a5d74904865cd,001,2022-03-09_16h58.50.609,vct_new,2021.2.3,MacIntel,58.82352941,,,,,,,,,,,,
,,2,8.861,3.711111111,1.574,2,1,17,7,1,stim/pof_g.wav,61007de25d1a5d74904865cd,001,2022-03-09_16h58.50.609,vct_new,2021.2.3,MacIntel,58.82352941,,,,,,,,,,,,
,,3,2.801,4.848888889,1.466,2,2,18,6,1,stim/piep_g.wav,61007de25d1a5d74904865cd,001,2022-03-09_16h58.50.609,vct_new,2021.2.3,MacIntel,58.82352941,,,,,,,,,,,,
,,2,6.035,3.773333333,1.121,2,3,19,3,1,stim/fof_g.wav,61007de25d1a5d74904865cd,001,2022-03-09_16h58.50.609,vct_new,2021.2.3,MacIntel,58.82352941,,,,,,,,,,,,
,,2,2.617,3.76,0.633,2,4,20,1,1,stim/faf_g.wav,61007de25d1a5d74904865cd,001,2022-03-09_16h58.50.609,vct_new,2021.2.3,MacIntel,58.82352941,,,,,,,,,,,,
,,3,4.593,4.635555556,1.107,2,5,21,2,1,stim/fif_g.wav,61007de25d1a5d74904865cd,001,2022-03-09_16h58.50.609,vct_new,2021.2.3,MacIntel,58.82352941,,,,,,,,,,,,
,,1,11.145,2.275555556,1.161,2,6,22,4,1,stim/p_schwa_g.wav,61007de25d1a5d74904865cd,001,2022-03-09_16h58.50.609,vct_new,2021.2.3,MacIntel,58.82352941,,,,,,,,,,,,
,,1,2.726,2.782222222,0.796,2,7,23,0,1,stim/f_schwa_g.wav,61007de25d1a5d74904865cd,001,2022-03-09_16h58.50.609,vct_new,2021.2.3,MacIntel,58.82352941,,,,,,,,,,,,
,,,,,,,,,,,,61007de25d1a5d74904865cd,001,2022-03-09_16h58.50.609,vct_new,2021.2.3,MacIntel,58.82352941,1,1,0.867,0,0,0,31,1,stim/Step_5.wav,stim/Step_4.wav,1,1
,,,,,,,,,,,,61007de25d1a5d74904865cd,001,2022-03-09_16h58.50.609,vct_new,2021.2.3,MacIntel,58.82352941,0,0,0.8,0,1,1,6,1,stim/Step_1.wav,stim/Step_7.wav,-6,1
,,,,,,,,,,,,61007de25d1a5d74904865cd,001,2022-03-09_16h58.50.609,vct_new,2021.2.3,MacIntel,58.82352941,1,0,0.683,0,2,2,0,1,stim/Step_1.wav,stim/Step_1.wav,0,0
,,,,,,,,,,,,61007de25d1a5d74904865cd,001,2022-03-09_16h58.50.609,vct_new,2021.2.3,MacIntel,58.82352941,0,0,0.698,0,3,3,5,1,stim/Step_1.wav,stim/Step_6.wav,-5,1
,,,,,,,,,,,,61007de25d1a5d74904865cd,001,2022-03-09_16h58.50.609,vct_new,2021.2.3,MacIntel,58.82352941,1,1,1.267,0,4,4,19,1,stim/Step_3.wav,stim/Step_6.wav,-3,1
,,,,,,,,,,,,61007de25d1a5d74904865cd,001,2022-03-09_16h58.50.609,vct_new,2021.2.3,MacIntel,58.82352941,1,1,0.705,0,5,5,38,1,stim/Step_6.wav,stim/Step_4.wav,2,1
,,,,,,,,,,,,61007de25d1a5d74904865cd,001,2022-03-09_16h58.50.609,vct_new,2021.2.3,MacIntel,58.82352941,1,1,0.925,0,6,6,47,1,stim/Step_7.wav,stim/Step_6.wav,1,1
,,,,,,,,,,,,61007de25d1a5d74904865cd,001,2022-03-09_16h58.50.609,vct_new,2021.2.3,MacIntel,58.82352941,1,1,0.92,0,7,7,41,1,stim/Step_6.wav,stim/Step_7.wav,-1,1
,,,,,,,,,,,,61007de25d1a5d74904865cd,001,2022-03-09_16h58.50.609,vct_new,2021.2.3,MacIntel,58.82352941,1,0,0.642,0,8,8,32,1,stim/Step_5.wav,stim/Step_5.wav,0,0
,,,,,,,,,,,,61007de25d1a5d74904865cd,001,2022-03-09_16h58.50.609,vct_new,2021.2.3,MacIntel,58.82352941,1,0,0.688,0,9,9,24,1,stim/Step_4.wav,stim/Step_4.wav,0,0
,,,,,,,,,,,,61007de25d1a5d74904865cd,001,2022-03-09_16h58.50.609,vct_new,2021.2.3,MacIntel,58.82352941,0,0,0.786,0,10,10,42,1,stim/Step_7.wav,stim/Step_1.wav,6,1
,,,,,,,,,,,,61007de25d1a5d74904865cd,001,2022-03-09_16h58.50.609,vct_new,2021.2.3,MacIntel,58.82352941,0,0,1.201,0,11,11,13,1,stim/Step_2.wav,stim/Step_7.wav,-5,1
,,,,,,,,,,,,61007de25d1a5d74904865cd,001,2022-03-09_16h58.50.609,vct_new,2021.2.3,MacIntel,58.82352941,0,0,0.683,0,12,12,43,1,stim/Step_7.wav,stim/Step_2.wav,5,1
,,,,,,,,,,,,61007de25d1a5d74904865cd,001,2022-03-09_16h58.50.609,vct_new,2021.2.3,MacIntel,58.82352941,1,1,1.034,0,13,13,14,1,stim/Step_3.wav,stim/Step_1.wav,2,1
,,,,,,,,,,,,61007de25d1a5d74904865cd,001,2022-03-09_16h58.50.609,vct_new,2021.2.3,MacIntel,58.82352941,1,1,0.682,0,14,14,33,1,stim/Step_5.wav,stim/Step_6.wav,-1,1
,,,,,,,,,,,,61007de25d1a5d74904865cd,001,2022-03-09_16h58.50.609,vct_new,2021.2.3,MacIntel,58.82352941,0,0,0.733,0,15,15,11,1,stim/Step_2.wav,stim/Step_5.wav,-3,1
,,,,,,,,,,,,61007de25d1a5d74904865cd,001,2022-03-09_16h58.50.609,vct_new,2021.2.3,MacIntel,58.82352941,0,0,1.528,0,16,16,3,1,stim/Step_1.wav,stim/Step_4.wav,-3,1
,,,,,,,,,,,,61007de25d1a5d74904865cd,001,2022-03-09_16h58.50.609,vct_new,2021.2.3,MacIntel,58.82352941,1,1,1.089,0,17,17,23,1,stim/Step_4.wav,stim/Step_3.wav,1,1
,,,,,,,,,,,,61007de25d1a5d74904865cd,001,2022-03-09_16h58.50.609,vct_new,2021.2.3,MacIntel,58.82352941,0,0,0.868,0,18,18,25,1,stim/Step_4.wav,stim/Step_5.wav,-1,1
,,,,,,,,,,,,61007de25d1a5d74904865cd,001,2022-03-09_16h58.50.609,vct_new,2021.2.3,MacIntel,58.82352941,0,0,1.304,0,19,19,21,1,stim/Step_4.wav,stim/Step_1.wav,3,1
,,,,,,,,,,,,61007de25d1a5d74904865cd,001,2022-03-09_16h58.50.609,vct_new,2021.2.3,MacIntel,58.82352941,0,0,0.961,0,20,20,45,1,stim/Step_7.wav,stim/Step_4.wav,3,1
,,,,,,,,,,,,61007de25d1a5d74904865cd,001,2022-03-09_16h58.50.609,vct_new,2021.2.3,MacIntel,58.82352941,0,0,0.909,0,21,21,36,1,stim/Step_6.wav,stim/Step_2.wav,4,1
,,,,,,,,,,,,61007de25d1a5d74904865cd,001,2022-03-09_16h58.50.609,vct_new,2021.2.3,MacIntel,58.82352941,0,0,0.942,0,22,22,20,1,stim/Step_3.wav,stim/Step_7.wav,-4,1
,,,,,,,,,,,,61007de25d1a5d74904865cd,001,2022-03-09_16h58.50.609,vct_new,2021.2.3,MacIntel,58.82352941,0,0,0.718,0,23,23,28,1,stim/Step_5.wav,stim/Step_1.wav,4,1
,,,,,,,,,,,,61007de25d1a5d74904865cd,001,2022-03-09_16h58.50.609,vct_new,2021.2.3,MacIntel,58.82352941,0,0,1.6,0,24,24,4,1,stim/Step_1.wav,stim/Step_5.wav,-4,1
,,,,,,,,,,,,61007de25d1a5d74904865cd,001,2022-03-09_16h58.50.609,vct_new,2021.2.3,MacIntel,58.82352941,1,0,0.671,0,25,25,16,1,stim/Step_3.wav,stim/Step_3.wav,0,0
,,,,,,,,,,,,61007de25d1a5d74904865cd,001,2022-03-09_16h58.50.609,vct_new,2021.2.3,MacIntel,58.82352941,1,1,1.092,0,26,26,2,1,stim/Step_1.wav,stim/Step_3.wav,-2,1
,,,,,,,,,,,,61007de25d1a5d74904865cd,001,2022-03-09_16h58.50.609,vct_new,2021.2.3,MacIntel,58.82352941,1,1,1.27,0,27,27,46,1,stim/Step_7.wav,stim/Step_5.wav,2,1
,,,,,,,,,,,,61007de25d1a5d74904865cd,001,2022-03-09_16h58.50.609,vct_new,2021.2.3,MacIntel,58.82352941,1,0,0.732,0,28,28,8,1,stim/Step_2.wav,stim/Step_2.wav,0,0
,,,,,,,,,,,,61007de25d1a5d74904865cd,001,2022-03-09_16h58.50.609,vct_new,2021.2.3,MacIntel,58.82352941,1,1,0.937,0,29,29,9,1,stim/Step_2.wav,stim/Step_3.wav,-1,1
,,,,,,,,,,,,61007de25d1a5d74904865cd,001,2022-03-09_16h58.50.609,vct_new,2021.2.3,MacIntel,58.82352941,0,0,0.971,0,30,30,29,1,stim/Step_5.wav,stim/Step_2.wav,3,1
,,,,,,,,,,,,61007de25d1a5d74904865cd,001,2022-03-09_16h58.50.609,vct_new,2021.2.3,MacIntel,58.82352941,0,0,2.167,0,31,31,12,1,stim/Step_2.wav,stim/Step_6.wav,-4,1
,,,,,,,,,,,,61007de25d1a5d74904865cd,001,2022-03-09_16h58.50.609,vct_new,2021.2.3,MacIntel,58.82352941,1,1,0.934,0,32,32,17,1,stim/Step_3.wav,stim/Step_4.wav,-1,1
,,,,,,,,,,,,61007de25d1a5d74904865cd,001,2022-03-09_16h58.50.609,vct_new,2021.2.3,MacIntel,58.82352941,0,0,1.11,0,33,33,30,1,stim/Step_5.wav,stim/Step_3.wav,2,1
,,,,,,,,,,,,61007de25d1a5d74904865cd,001,2022-03-09_16h58.50.609,vct_new,2021.2.3,MacIntel,58.82352941,0,0,0.783,0,34,34,35,1,stim/Step_6.wav,stim/Step_1.wav,5,1
,,,,,,,,,,,,61007de25d1a5d74904865cd,001,2022-03-09_16h58.50.609,vct_new,2021.2.3,MacIntel,58.82352941,0,0,0.672,0,35,35,37,1,stim/Step_6.wav,stim/Step_3.wav,3,1
,,,,,,,,,,,,61007de25d1a5d74904865cd,001,2022-03-09_16h58.50.609,vct_new,2021.2.3,MacIntel,58.82352941,1,1,0.95,0,36,36,1,1,stim/Step_1.wav,stim/Step_2.wav,-1,1
,,,,,,,,,,,,61007de25d1a5d74904865cd,001,2022-03-09_16h58.50.609,vct_new,2021.2.3,MacIntel,58.82352941,1,1,0.8,0,37,37,7,1,stim/Step_2.wav,stim/Step_1.wav,1,1
,,,,,,,,,,,,61007de25d1a5d74904865cd,001,2022-03-09_16h58.50.609,vct_new,2021.2.3,MacIntel,58.82352941,1,0,0.653,0,38,38,48,1,stim/Step_7.wav,stim/Step_7.wav,0,0
,,,,,,,,,,,,61007de25d1a5d74904865cd,001,2022-03-09_16h58.50.609,vct_new,2021.2.3,MacIntel,58.82352941,1,1,3.794,0,39,39,18,1,stim/Step_3.wav,stim/Step_5.wav,-2,1
,,,,,,,,,,,,61007de25d1a5d74904865cd,001,2022-03-09_16h58.50.609,vct_new,2021.2.3,MacIntel,58.82352941,1,0,0.902,0,40,40,40,1,stim/Step_6.wav,stim/Step_6.wav,0,0
,,,,,,,,,,,,61007de25d1a5d74904865cd,001,2022-03-09_16h58.50.609,vct_new,2021.2.3,MacIntel,58.82352941,0,0,1.019,0,41,41,27,1,stim/Step_4.wav,stim/Step_7.wav,-3,1
,,,,,,,,,,,,61007de25d1a5d74904865cd,001,2022-03-09_16h58.50.609,vct_new,2021.2.3,MacIntel,58.82352941,0,0,1.499,0,42,42,34,1,stim/Step_5.wav,stim/Step_7.wav,-2,1
,,,,,,,,,,,,61007de25d1a5d74904865cd,001,2022-03-09_16h58.50.609,vct_new,2021.2.3,MacIntel,58.82352941,1,1,0.818,0,43,43,10,1,stim/Step_2.wav,stim/Step_4.wav,-2,1
,,,,,,,,,,,,61007de25d1a5d74904865cd,001,2022-03-09_16h58.50.609,vct_new,2021.2.3,MacIntel,58.82352941,1,1,1.652,0,44,44,26,1,stim/Step_4.wav,stim/Step_6.wav,-2,1
,,,,,,,,,,,,61007de25d1a5d74904865cd,001,2022-03-09_16h58.50.609,vct_new,2021.2.3,MacIntel,58.82352941,0,0,0.859,0,45,45,39,1,stim/Step_6.wav,stim/Step_5.wav,1,1
,,,,,,,,,,,,61007de25d1a5d74904865cd,001,2022-03-09_16h58.50.609,vct_new,2021.2.3,MacIntel,58.82352941,1,1,1.182,0,46,46,15,1,stim/Step_3.wav,stim/Step_2.wav,1,1
,,,,,,,,,,,,61007de25d1a5d74904865cd,001,2022-03-09_16h58.50.609,vct_new,2021.2.3,MacIntel,58.82352941,0,0,0.717,0,47,47,44,1,stim/Step_7.wav,stim/Step_3.wav,4,1
,,,,,,,,,,,,61007de25d1a5d74904865cd,001,2022-03-09_16h58.50.609,vct_new,2021.2.3,MacIntel,58.82352941,1,1,0.969,0,48,48,22,1,stim/Step_4.wav,stim/Step_2.wav,2,1
,,,,,,,,,,,,61007de25d1a5d74904865cd,001,2022-03-09_16h58.50.609,vct_new,2021.2.3,MacIntel,58.82352941,0,0,0.828,1,0,49,18,1,stim/Step_3.wav,stim/Step_5.wav,-2,1
,,,,,,,,,,,,61007de25d1a5d74904865cd,001,2022-03-09_16h58.50.609,vct_new,2021.2.3,MacIntel,58.82352941,1,1,1.377,1,1,50,26,1,stim/Step_4.wav,stim/Step_6.wav,-2,1
,,,,,,,,,,,,61007de25d1a5d74904865cd,001,2022-03-09_16h58.50.609,vct_new,2021.2.3,MacIntel,58.82352941,0,0,1.108,1,2,51,13,1,stim/Step_2.wav,stim/Step_7.wav,-5,1
,,,,,,,,,,,,61007de25d1a5d74904865cd,001,2022-03-09_16h58.50.609,vct_new,2021.2.3,MacIntel,58.82352941,0,0,0.791,1,3,52,29,1,stim/Step_5.wav,stim/Step_2.wav,3,1
,,,,,,,,,,,,61007de25d1a5d74904865cd,001,2022-03-09_16h58.50.609,vct_new,2021.2.3,MacIntel,58.82352941,1,1,1.459,1,4,53,3,1,stim/Step_1.wav,stim/Step_4.wav,-3,1
,,,,,,,,,,,,61007de25d1a5d74904865cd,001,2022-03-09_16h58.50.609,vct_new,2021.2.3,MacIntel,58.82352941,1,1,0.968,1,5,54,47,1,stim/Step_7.wav,stim/Step_6.wav,1,1
,,,,,,,,,,,,61007de25d1a5d74904865cd,001,2022-03-09_16h58.50.609,vct_new,2021.2.3,MacIntel,58.82352941,1,1,1,1,6,55,2,1,stim/Step_1.wav,stim/Step_3.wav,-2,1
,,,,,,,,,,,,61007de25d1a5d74904865cd,001,2022-03-09_16h58.50.609,vct_new,2021.2.3,MacIntel,58.82352941,1,1,1.386,1,7,56,33,1,stim/Step_5.wav,stim/Step_6.wav,-1,1
,,,,,,,,,,,,61007de25d1a5d74904865cd,001,2022-03-09_16h58.50.609,vct_new,2021.2.3,MacIntel,58.82352941,1,1,1.402,1,8,57,34,1,stim/Step_5.wav,stim/Step_7.wav,-2,1
,,,,,,,,,,,,61007de25d1a5d74904865cd,001,2022-03-09_16h58.50.609,vct_new,2021.2.3,MacIntel,58.82352941,1,0,1.004,1,9,58,16,1,stim/Step_3.wav,stim/Step_3.wav,0,0
,,,,,,,,,,,,61007de25d1a5d74904865cd,001,2022-03-09_16h58.50.609,vct_new,2021.2.3,MacIntel,58.82352941,0,0,0.805,1,10,59,6,1,stim/Step_1.wav,stim/Step_7.wav,-6,1
,,,,,,,,,,,,61007de25d1a5d74904865cd,001,2022-03-09_16h58.50.609,vct_new,2021.2.3,MacIntel,58.82352941,1,1,1.019,1,11,60,7,1,stim/Step_2.wav,stim/Step_1.wav,1,1
,,,,,,,,,,,,61007de25d1a5d74904865cd,001,2022-03-09_16h58.50.609,vct_new,2021.2.3,MacIntel,58.82352941,0,0,0.794,1,12,61,35,1,stim/Step_6.wav,stim/Step_1.wav,5,1
,,,,,,,,,,,,61007de25d1a5d74904865cd,001,2022-03-09_16h58.50.609,vct_new,2021.2.3,MacIntel,58.82352941,0,0,0.826,1,13,62,20,1,stim/Step_3.wav,stim/Step_7.wav,-4,1
,,,,,,,,,,,,61007de25d1a5d74904865cd,001,2022-03-09_16h58.50.609,vct_new,2021.2.3,MacIntel,58.82352941,1,1,1.167,1,14,63,15,1,stim/Step_3.wav,stim/Step_2.wav,1,1
,,,,,,,,,,,,61007de25d1a5d74904865cd,001,2022-03-09_16h58.50.609,vct_new,2021.2.3,MacIntel,58.82352941,0,0,0.848,1,15,64,42,1,stim/Step_7.wav,stim/Step_1.wav,6,1
,,,,,,,,,,,,61007de25d1a5d74904865cd,001,2022-03-09_16h58.50.609,vct_new,2021.2.3,MacIntel,58.82352941,0,0,1.459,1,16,65,37,1,stim/Step_6.wav,stim/Step_3.wav,3,1
,,,,,,,,,,,,61007de25d1a5d74904865cd,001,2022-03-09_16h58.50.609,vct_new,2021.2.3,MacIntel,58.82352941,1,1,1.889,1,17,66,39,1,stim/Step_6.wav,stim/Step_5.wav,1,1
,,,,,,,,,,,,61007de25d1a5d74904865cd,001,2022-03-09_16h58.50.609,vct_new,2021.2.3,MacIntel,58.82352941,1,1,1.051,1,18,67,14,1,stim/Step_3.wav,stim/Step_1.wav,2,1
,,,,,,,,,,,,61007de25d1a5d74904865cd,001,2022-03-09_16h58.50.609,vct_new,2021.2.3,MacIntel,58.82352941,1,1,1.684,1,19,68,46,1,stim/Step_7.wav,stim/Step_5.wav,2,1
,,,,,,,,,,,,61007de25d1a5d74904865cd,001,2022-03-09_16h58.50.609,vct_new,2021.2.3,MacIntel,58.82352941,0,0,0.756,1,20,69,30,1,stim/Step_5.wav,stim/Step_3.wav,2,1
,,,,,,,,,,,,61007de25d1a5d74904865cd,001,2022-03-09_16h58.50.609,vct_new,2021.2.3,MacIntel,58.82352941,0,0,0.918,1,21,70,45,1,stim/Step_7.wav,stim/Step_4.wav,3,1
,,,,,,,,,,,,61007de25d1a5d74904865cd,001,2022-03-09_16h58.50.609,vct_new,2021.2.3,MacIntel,58.82352941,0,0,0.631,1,22,71,44,1,stim/Step_7.wav,stim/Step_3.wav,4,1
,,,,,,,,,,,,61007de25d1a5d74904865cd,001,2022-03-09_16h58.50.609,vct_new,2021.2.3,MacIntel,58.82352941,1,1,0.701,1,23,72,22,1,stim/Step_4.wav,stim/Step_2.wav,2,1
,,,,,,,,,,,,61007de25d1a5d74904865cd,001,2022-03-09_16h58.50.609,vct_new,2021.2.3,MacIntel,58.82352941,0,0,1.133,1,24,73,5,1,stim/Step_1.wav,stim/Step_6.wav,-5,1
,,,,,,,,,,,,61007de25d1a5d74904865cd,001,2022-03-09_16h58.50.609,vct_new,2021.2.3,MacIntel,58.82352941,1,0,0.905,1,25,74,48,1,stim/Step_7.wav,stim/Step_7.wav,0,0
,,,,,,,,,,,,61007de25d1a5d74904865cd,001,2022-03-09_16h58.50.609,vct_new,2021.2.3,MacIntel,58.82352941,1,1,1.07,1,26,75,25,1,stim/Step_4.wav,stim/Step_5.wav,-1,1
,,,,,,,,,,,,61007de25d1a5d74904865cd,001,2022-03-09_16h58.50.609,vct_new,2021.2.3,MacIntel,58.82352941,0,0,1.086,1,27,76,19,1,stim/Step_3.wav,stim/Step_6.wav,-3,1
,,,,,,,,,,,,61007de25d1a5d74904865cd,001,2022-03-09_16h58.50.609,vct_new,2021.2.3,MacIntel,58.82352941,0,0,3.417,1,28,77,31,1,stim/Step_5.wav,stim/Step_4.wav,1,1
,,,,,,,,,,,,61007de25d1a5d74904865cd,001,2022-03-09_16h58.50.609,vct_new,2021.2.3,MacIntel,58.82352941,0,0,2.338,1,29,78,11,1,stim/Step_2.wav,stim/Step_5.wav,-3,1
,,,,,,,,,,,,61007de25d1a5d74904865cd,001,2022-03-09_16h58.50.609,vct_new,2021.2.3,MacIntel,58.82352941,1,1,1.132,1,30,79,9,1,stim/Step_2.wav,stim/Step_3.wav,-1,1
,,,,,,,,,,,,61007de25d1a5d74904865cd,001,2022-03-09_16h58.50.609,vct_new,2021.2.3,MacIntel,58.82352941,1,0,0.873,1,31,80,24,1,stim/Step_4.wav,stim/Step_4.wav,0,0
,,,,,,,,,,,,61007de25d1a5d74904865cd,001,2022-03-09_16h58.50.609,vct_new,2021.2.3,MacIntel,58.82352941,1,1,0.919,1,32,81,41,1,stim/Step_6.wav,stim/Step_7.wav,-1,1
,,,,,,,,,,,,61007de25d1a5d74904865cd,001,2022-03-09_16h58.50.609,vct_new,2021.2.3,MacIntel,58.82352941,0,0,1.652,1,33,82,38,1,stim/Step_6.wav,stim/Step_4.wav,2,1
,,,,,,,,,,,,61007de25d1a5d74904865cd,001,2022-03-09_16h58.50.609,vct_new,2021.2.3,MacIntel,58.82352941,0,0,0.982,1,34,83,4,1,stim/Step_1.wav,stim/Step_5.wav,-4,1
,,,,,,,,,,,,61007de25d1a5d74904865cd,001,2022-03-09_16h58.50.609,vct_new,2021.2.3,MacIntel,58.82352941,1,0,0.833,1,35,84,40,1,stim/Step_6.wav,stim/Step_6.wav,0,0
,,,,,,,,,,,,61007de25d1a5d74904865cd,001,2022-03-09_16h58.50.609,vct_new,2021.2.3,MacIntel,58.82352941,1,0,1.144,1,36,85,32,1,stim/Step_5.wav,stim/Step_5.wav,0,0
,,,,,,,,,,,,61007de25d1a5d74904865cd,001,2022-03-09_16h58.50.609,vct_new,2021.2.3,MacIntel,58.82352941,1,0,1.133,1,37,86,8,1,stim/Step_2.wav,stim/Step_2.wav,0,0
,,,,,,,,,,,,61007de25d1a5d74904865cd,001,2022-03-09_16h58.50.609,vct_new,2021.2.3,MacIntel,58.82352941,1,0,0.862,1,38,87,0,1,stim/Step_1.wav,stim/Step_1.wav,0,0
,,,,,,,,,,,,61007de25d1a5d74904865cd,001,2022-03-09_16h58.50.609,vct_new,2021.2.3,MacIntel,58.82352941,1,1,1.455,1,39,88,23,1,stim/Step_4.wav,stim/Step_3.wav,1,1
,,,,,,,,,,,,61007de25d1a5d74904865cd,001,2022-03-09_16h58.50.609,vct_new,2021.2.3,MacIntel,58.82352941,0,0,0.619,1,40,89,28,1,stim/Step_5.wav,stim/Step_1.wav,4,1
,,,,,,,,,,,,61007de25d1a5d74904865cd,001,2022-03-09_16h58.50.609,vct_new,2021.2.3,MacIntel,58.82352941,1,1,1.02,1,41,90,21,1,stim/Step_4.wav,stim/Step_1.wav,3,1
,,,,,,,,,,,,61007de25d1a5d74904865cd,001,2022-03-09_16h58.50.609,vct_new,2021.2.3,MacIntel,58.82352941,0,0,1.165,1,42,91,27,1,stim/Step_4.wav,stim/Step_7.wav,-3,1
,,,,,,,,,,,,61007de25d1a5d74904865cd,001,2022-03-09_16h58.50.609,vct_new,2021.2.3,MacIntel,58.82352941,0,0,1.128,1,43,92,12,1,stim/Step_2.wav,stim/Step_6.wav,-4,1
,,,,,,,,,,,,61007de25d1a5d74904865cd,001,2022-03-09_16h58.50.609,vct_new,2021.2.3,MacIntel,58.82352941,1,1,2.273,1,44,93,17,1,stim/Step_3.wav,stim/Step_4.wav,-1,1
,,,,,,,,,,,,61007de25d1a5d74904865cd,001,2022-03-09_16h58.50.609,vct_new,2021.2.3,MacIntel,58.82352941,0,0,0.772,1,45,94,43,1,stim/Step_7.wav,stim/Step_2.wav,5,1
,,,,,,,,,,,,61007de25d1a5d74904865cd,001,2022-03-09_16h58.50.609,vct_new,2021.2.3,MacIntel,58.82352941,1,1,1.141,1,46,95,10,1,stim/Step_2.wav,stim/Step_4.wav,-2,1
,,,,,,,,,,,,61007de25d1a5d74904865cd,001,2022-03-09_16h58.50.609,vct_new,2021.2.3,MacIntel,58.82352941,0,0,3.51,1,47,96,36,1,stim/Step_6.wav,stim/Step_2.wav,4,1
,,,,,,,,,,,,61007de25d1a5d74904865cd,001,2022-03-09_16h58.50.609,vct_new,2021.2.3,MacIntel,58.82352941,1,1,0.883,1,48,97,1,1,stim/Step_1.wav,stim/Step_2.wav,-1,1
,,,,,,,,,,,,61007de25d1a5d74904865cd,001,2022-03-09_16h58.50.609,vct_new,2021.2.3,MacIntel,58.82352941,1,1,1.892,2,0,98,22,1,stim/Step_4.wav,stim/Step_2.wav,2,1
,,,,,,,,,,,,61007de25d1a5d74904865cd,001,2022-03-09_16h58.50.609,vct_new,2021.2.3,MacIntel,58.82352941,1,1,0.817,2,1,99,9,1,stim/Step_2.wav,stim/Step_3.wav,-1,1
,,,,,,,,,,,,61007de25d1a5d74904865cd,001,2022-03-09_16h58.50.609,vct_new,2021.2.3,MacIntel,58.82352941,1,0,0.853,2,2,100,40,1,stim/Step_6.wav,stim/Step_6.wav,0,0
,,,,,,,,,,,,61007de25d1a5d74904865cd,001,2022-03-09_16h58.50.609,vct_new,2021.2.3,MacIntel,58.82352941,1,1,0.728,2,3,101,23,1,stim/Step_4.wav,stim/Step_3.wav,1,1
,,,,,,,,,,,,61007de25d1a5d74904865cd,001,2022-03-09_16h58.50.609,vct_new,2021.2.3,MacIntel,58.82352941,1,1,0.621,2,4,102,47,1,stim/Step_7.wav,stim/Step_6.wav,1,1
,,,,,,,,,,,,61007de25d1a5d74904865cd,001,2022-03-09_16h58.50.609,vct_new,2021.2.3,MacIntel,58.82352941,1,0,0.905,2,5,103,24,1,stim/Step_4.wav,stim/Step_4.wav,0,0
,,,,,,,,,,,,61007de25d1a5d74904865cd,001,2022-03-09_16h58.50.609,vct_new,2021.2.3,MacIntel,58.82352941,1,1,0.566,2,6,104,1,1,stim/Step_1.wav,stim/Step_2.wav,-1,1
,,,,,,,,,,,,61007de25d1a5d74904865cd,001,2022-03-09_16h58.50.609,vct_new,2021.2.3,MacIntel,58.82352941,0,0,1.404,2,7,105,27,1,stim/Step_4.wav,stim/Step_7.wav,-3,1
,,,,,,,,,,,,61007de25d1a5d74904865cd,001,2022-03-09_16h58.50.609,vct_new,2021.2.3,MacIntel,58.82352941,0,0,1.058,2,8,106,28,1,stim/Step_5.wav,stim/Step_1.wav,4,1
,,,,,,,,,,,,61007de25d1a5d74904865cd,001,2022-03-09_16h58.50.609,vct_new,2021.2.3,MacIntel,58.82352941,0,0,1.284,2,9,107,10,1,stim/Step_2.wav,stim/Step_4.wav,-2,1
,,,,,,,,,,,,61007de25d1a5d74904865cd,001,2022-03-09_16h58.50.609,vct_new,2021.2.3,MacIntel,58.82352941,1,1,1.069,2,10,108,38,1,stim/Step_6.wav,stim/Step_4.wav,2,1
,,,,,,,,,,,,61007de25d1a5d74904865cd,001,2022-03-09_16h58.50.609,vct_new,2021.2.3,MacIntel,58.82352941,0,0,2.742,2,11,109,17,1,stim/Step_3.wav,stim/Step_4.wav,-1,1
,,,,,,,,,,,,61007de25d1a5d74904865cd,001,2022-03-09_16h58.50.609,vct_new,2021.2.3,MacIntel,58.82352941,0,0,0.791,2,12,110,30,1,stim/Step_5.wav,stim/Step_3.wav,2,1
,,,,,,,,,,,,61007de25d1a5d74904865cd,001,2022-03-09_16h58.50.609,vct_new,2021.2.3,MacIntel,58.82352941,0,0,0.782,2,13,111,19,1,stim/Step_3.wav,stim/Step_6.wav,-3,1
,,,,,,,,,,,,61007de25d1a5d74904865cd,001,2022-03-09_16h58.50.609,vct_new,2021.2.3,MacIntel,58.82352941,1,0,0.887,2,14,112,32,1,stim/Step_5.wav,stim/Step_5.wav,0,0
,,,,,,,,,,,,61007de25d1a5d74904865cd,001,2022-03-09_16h58.50.609,vct_new,2021.2.3,MacIntel,58.82352941,1,1,0.886,2,15,113,46,1,stim/Step_7.wav,stim/Step_5.wav,2,1
,,,,,,,,,,,,61007de25d1a5d74904865cd,001,2022-03-09_16h58.50.609,vct_new,2021.2.3,MacIntel,58.82352941,0,0,0.74,2,16,114,45,1,stim/Step_7.wav,stim/Step_4.wav,3,1
,,,,,,,,,,,,61007de25d1a5d74904865cd,001,2022-03-09_16h58.50.609,vct_new,2021.2.3,MacIntel,58.82352941,0,0,0.924,2,17,115,43,1,stim/Step_7.wav,stim/Step_2.wav,5,1
,,,,,,,,,,,,61007de25d1a5d74904865cd,001,2022-03-09_16h58.50.609,vct_new,2021.2.3,MacIntel,58.82352941,0,0,0.784,2,18,116,36,1,stim/Step_6.wav,stim/Step_2.wav,4,1
,,,,,,,,,,,,61007de25d1a5d74904865cd,001,2022-03-09_16h58.50.609,vct_new,2021.2.3,MacIntel,58.82352941,0,0,1.1,2,19,117,31,1,stim/Step_5.wav,stim/Step_4.wav,1,1
,,,,,,,,,,,,61007de25d1a5d74904865cd,001,2022-03-09_16h58.50.609,vct_new,2021.2.3,MacIntel,58.82352941,0,0,0.671,2,20,118,42,1,stim/Step_7.wav,stim/Step_1.wav,6,1
,,,,,,,,,,,,61007de25d1a5d74904865cd,001,2022-03-09_16h58.50.609,vct_new,2021.2.3,MacIntel,58.82352941,1,0,0.678,2,21,119,48,1,stim/Step_7.wav,stim/Step_7.wav,0,0
,,,,,,,,,,,,61007de25d1a5d74904865cd,001,2022-03-09_16h58.50.609,vct_new,2021.2.3,MacIntel,58.82352941,1,1,0.932,2,22,120,2,1,stim/Step_1.wav,stim/Step_3.wav,-2,1
,,,,,,,,,,,,61007de25d1a5d74904865cd,001,2022-03-09_16h58.50.609,vct_new,2021.2.3,MacIntel,58.82352941,1,1,0.731,2,23,121,3,1,stim/Step_1.wav,stim/Step_4.wav,-3,1
,,,,,,,,,,,,61007de25d1a5d74904865cd,001,2022-03-09_16h58.50.609,vct_new,2021.2.3,MacIntel,58.82352941,0,0,0.731,2,24,122,20,1,stim/Step_3.wav,stim/Step_7.wav,-4,1
,,,,,,,,,,,,61007de25d1a5d74904865cd,001,2022-03-09_16h58.50.609,vct_new,2021.2.3,MacIntel,58.82352941,1,1,0.803,2,25,123,7,1,stim/Step_2.wav,stim/Step_1.wav,1,1
,,,,,,,,,,,,61007de25d1a5d74904865cd,001,2022-03-09_16h58.50.609,vct_new,2021.2.3,MacIntel,58.82352941,0,0,0.799,2,26,124,29,1,stim/Step_5.wav,stim/Step_2.wav,3,1
,,,,,,,,,,,,61007de25d1a5d74904865cd,001,2022-03-09_16h58.50.609,vct_new,2021.2.3,MacIntel,58.82352941,1,1,5.067,2,27,125,34,1,stim/Step_5.wav,stim/Step_7.wav,-2,1
,,,,,,,,,,,,61007de25d1a5d74904865cd,001,2022-03-09_16h58.50.609,vct_new,2021.2.3,MacIntel,58.82352941,0,0,1.601,2,28,126,18,1,stim/Step_3.wav,stim/Step_5.wav,-2,1
,,,,,,,,,,,,61007de25d1a5d74904865cd,001,2022-03-09_16h58.50.609,vct_new,2021.2.3,MacIntel,58.82352941,0,0,0.949,2,29,127,13,1,stim/Step_2.wav,stim/Step_7.wav,-5,1
,,,,,,,,,,,,61007de25d1a5d74904865cd,001,2022-03-09_16h58.50.609,vct_new,2021.2.3,MacIntel,58.82352941,1,1,1.076,2,30,128,41,1,stim/Step_6.wav,stim/Step_7.wav,-1,1
,,,,,,,,,,,,61007de25d1a5d74904865cd,001,2022-03-09_16h58.50.609,vct_new,2021.2.3,MacIntel,58.82352941,0,0,0.654,2,31,129,21,1,stim/Step_4.wav,stim/Step_1.wav,3,1
,,,,,,,,,,,,61007de25d1a5d74904865cd,001,2022-03-09_16h58.50.609,vct_new,2021.2.3,MacIntel,58.82352941,1,0,0.837,2,32,130,8,1,stim/Step_2.wav,stim/Step_2.wav,0,0
,,,,,,,,,,,,61007de25d1a5d74904865cd,001,2022-03-09_16h58.50.609,vct_new,2021.2.3,MacIntel,58.82352941,0,0,1.167,2,33,131,44,1,stim/Step_7.wav,stim/Step_3.wav,4,1
,,,,,,,,,,,,61007de25d1a5d74904865cd,001,2022-03-09_16h58.50.609,vct_new,2021.2.3,MacIntel,58.82352941,0,0,1.385,2,34,132,6,1,stim/Step_1.wav,stim/Step_7.wav,-6,1
,,,,,,,,,,,,61007de25d1a5d74904865cd,001,2022-03-09_16h58.50.609,vct_new,2021.2.3,MacIntel,58.82352941,0,0,1.377,2,35,133,26,1,stim/Step_4.wav,stim/Step_6.wav,-2,1
,,,,,,,,,,,,61007de25d1a5d74904865cd,001,2022-03-09_16h58.50.609,vct_new,2021.2.3,MacIntel,58.82352941,1,1,1.426,2,36,134,15,1,stim/Step_3.wav,stim/Step_2.wav,1,1
,,,,,,,,,,,,61007de25d1a5d74904865cd,001,2022-03-09_16h58.50.609,vct_new,2021.2.3,MacIntel,58.82352941,1,1,0.887,2,37,135,33,1,stim/Step_5.wav,stim/Step_6.wav,-1,1
,,,,,,,,,,,,61007de25d1a5d74904865cd,001,2022-03-09_16h58.50.609,vct_new,2021.2.3,MacIntel,58.82352941,0,0,0.983,2,38,136,37,1,stim/Step_6.wav,stim/Step_3.wav,3,1
,,,,,,,,,,,,61007de25d1a5d74904865cd,001,2022-03-09_16h58.50.609,vct_new,2021.2.3,MacIntel,58.82352941,1,0,1.316,2,39,137,16,1,stim/Step_3.wav,stim/Step_3.wav,0,0
,,,,,,,,,,,,61007de25d1a5d74904865cd,001,2022-03-09_16h58.50.609,vct_new,2021.2.3,MacIntel,58.82352941,0,0,0.886,2,40,138,14,1,stim/Step_3.wav,stim/Step_1.wav,2,1
,,,,,,,,,,,,61007de25d1a5d74904865cd,001,2022-03-09_16h58.50.609,vct_new,2021.2.3,MacIntel,58.82352941,0,0,0.966,2,41,139,11,1,stim/Step_2.wav,stim/Step_5.wav,-3,1
,,,,,,,,,,,,61007de25d1a5d74904865cd,001,2022-03-09_16h58.50.609,vct_new,2021.2.3,MacIntel,58.82352941,1,1,0.734,2,42,140,39,1,stim/Step_6.wav,stim/Step_5.wav,1,1
,,,,,,,,,,,,61007de25d1a5d74904865cd,001,2022-03-09_16h58.50.609,vct_new,2021.2.3,MacIntel,58.82352941,0,0,1.316,2,43,141,12,1,stim/Step_2.wav,stim/Step_6.wav,-4,1
,,,,,,,,,,,,61007de25d1a5d74904865cd,001,2022-03-09_16h58.50.609,vct_new,2021.2.3,MacIntel,58.82352941,0,0,1.051,2,44,142,5,1,stim/Step_1.wav,stim/Step_6.wav,-5,1
,,,,,,,,,,,,61007de25d1a5d74904865cd,001,2022-03-09_16h58.50.609,vct_new,2021.2.3,MacIntel,58.82352941,1,0,0.742,2,45,143,0,1,stim/Step_1.wav,stim/Step_1.wav,0,0
,,,,,,,,,,,,61007de25d1a5d74904865cd,001,2022-03-09_16h58.50.609,vct_new,2021.2.3,MacIntel,58.82352941,1,1,1.517,2,46,144,25,1,stim/Step_4.wav,stim/Step_5.wav,-1,1
,,,,,,,,,,,,61007de25d1a5d74904865cd,001,2022-03-09_16h58.50.609,vct_new,2021.2.3,MacIntel,58.82352941,0,0,1,2,47,145,35,1,stim/Step_6.wav,stim/Step_1.wav,5,1
,,,,,,,,,,,,61007de25d1a5d74904865cd,001,2022-03-09_16h58.50.609,vct_new,2021.2.3,MacIntel,58.82352941,0,0,1.442,2,48,146,4,1,stim/Step_1.wav,stim/Step_5.wav,-4,1
