key_resp_3.keys,key_resp_3.rt,key_resp_4.keys,key_resp_4.rt,key_resp_2.keys,key_resp_2.rt,slider.response,slider.rt,trials.thisRepN,trials.thisTrialN,trials.thisN,trials.thisIndex,trials.ran,stim,participant,session,date,expName,psychopyVersion,OS,frameRate,key_resp_5.keys,key_resp_5.rt,key_resp.keys,key_resp.rt,slider_2.response,slider_2.rt,trials_2.thisRepN,trials_2.thisTrialN,trials_2.thisN,trials_2.thisIndex,trials_2.ran,key_resp_6.keys,key_resp_6.rt
1,1.9676,space,13.6261,1,17.9785,4.007973565,8.3914,0,0,0,3,1,stim/p_schwa_g.wav,6107397d50df8745777f484e,001,2022-03-19_21h19.59.916,task,2021.2.3,Linux x86_64,60.03842459,,,,,,,,,,,,,
,,,,6,4.9531,3.983096087,4.4012,0,1,1,4,1,stim/fof_g.wav,6107397d50df8745777f484e,001,2022-03-19_21h19.59.916,task,2021.2.3,Linux x86_64,60.03842459,,,,,,,,,,,,,
,,,,6,7.0249,3.505966187,2.303,0,2,2,2,1,stim/peuf_g.wav,6107397d50df8745777f484e,001,2022-03-19_21h19.59.916,task,2021.2.3,Linux x86_64,60.03842459,,,,,,,,,,,,,
,,,,7,5.3828,4.192163538,1.9603,0,3,3,5,1,stim/fief_g.wav,6107397d50df8745777f484e,001,2022-03-19_21h19.59.916,task,2021.2.3,Linux x86_64,60.03842459,,,,,,,,,,,,,
,,,,4,4.0016,3.078845836,1.3555,0,4,4,0,1,stim/pof_g.wav,6107397d50df8745777f484e,001,2022-03-19_21h19.59.916,task,2021.2.3,Linux x86_64,60.03842459,,,,,,,,,,,,,
,,,,7,8.7688,3.861011646,1.4123,0,5,5,1,1,stim/pief_g.wav,6107397d50df8745777f484e,001,2022-03-19_21h19.59.916,task,2021.2.3,Linux x86_64,60.03842459,,,,,,,,,,,,,
,,,,6,4.5359,3.414636683,1.596,0,6,6,6,1,stim/feuf_g.wav,6107397d50df8745777f484e,001,2022-03-19_21h19.59.916,task,2021.2.3,Linux x86_64,60.03842459,,,,,,,,,,,,,
,,,,2,2.6047,2.92338562,3.9045,0,7,7,7,1,stim/f_schwa_g.wav,6107397d50df8745777f484e,001,2022-03-19_21h19.59.916,task,2021.2.3,Linux x86_64,60.03842459,,,,,,,,,,,,,
,,,,2,1.6902,2.839313366,1.2111,1,0,8,7,1,stim/f_schwa_g.wav,6107397d50df8745777f484e,001,2022-03-19_21h19.59.916,task,2021.2.3,Linux x86_64,60.03842459,,,,,,,,,,,,,
,,,,1,5.3765,3.340864111,0.9592,1,1,9,3,1,stim/p_schwa_g.wav,6107397d50df8745777f484e,001,2022-03-19_21h19.59.916,task,2021.2.3,Linux x86_64,60.03842459,,,,,,,,,,,,,
,,,,3,3.4931,3.952353866,1.4798,1,2,10,1,1,stim/pief_g.wav,6107397d50df8745777f484e,001,2022-03-19_21h19.59.916,task,2021.2.3,Linux x86_64,60.03842459,,,,,,,,,,,,,
,,,,7,3.701,4.079774362,1.212,1,3,11,5,1,stim/fief_g.wav,6107397d50df8745777f484e,001,2022-03-19_21h19.59.916,task,2021.2.3,Linux x86_64,60.03842459,,,,,,,,,,,,,
,,,,4,6.1185,3.841399864,0.7581,1,4,12,2,1,stim/peuf_g.wav,6107397d50df8745777f484e,001,2022-03-19_21h19.59.916,task,2021.2.3,Linux x86_64,60.03842459,,,,,,,,,,,,,
,,,,4,2.7385,2.532799332,0.931,1,5,13,6,1,stim/feuf_g.wav,6107397d50df8745777f484e,001,2022-03-19_21h19.59.916,task,2021.2.3,Linux x86_64,60.03842459,,,,,,,,,,,,,
,,,,4,3.8359,3.496925637,0.9857,1,6,14,4,1,stim/fof_g.wav,6107397d50df8745777f484e,001,2022-03-19_21h19.59.916,task,2021.2.3,Linux x86_64,60.03842459,,,,,,,,,,,,,
,,,,4,2.7025,3.683188827,1.2171,1,7,15,0,1,stim/pof_g.wav,6107397d50df8745777f484e,001,2022-03-19_21h19.59.916,task,2021.2.3,Linux x86_64,60.03842459,,,,,,,,,,,,,
,,,,7,2.4706,4.721805714,2.3601,2,0,16,5,1,stim/fief_g.wav,6107397d50df8745777f484e,001,2022-03-19_21h19.59.916,task,2021.2.3,Linux x86_64,60.03842459,,,,,,,,,,,,,
,,,,6,6.7193,4.328894721,1.2571,2,1,17,6,1,stim/feuf_g.wav,6107397d50df8745777f484e,001,2022-03-19_21h19.59.916,task,2021.2.3,Linux x86_64,60.03842459,,,,,,,,,,,,,
,,,,4,3.1499,3.905643322,0.9846,2,2,18,2,1,stim/peuf_g.wav,6107397d50df8745777f484e,001,2022-03-19_21h19.59.916,task,2021.2.3,Linux x86_64,60.03842459,,,,,,,,,,,,,
,,,,4,3.5545,3.916090224,0.9189,2,3,19,4,1,stim/fof_g.wav,6107397d50df8745777f484e,001,2022-03-19_21h19.59.916,task,2021.2.3,Linux x86_64,60.03842459,,,,,,,,,,,,,
,,,,5,3.1174,4.044949567,1.3382,2,4,20,3,1,stim/p_schwa_g.wav,6107397d50df8745777f484e,001,2022-03-19_21h19.59.916,task,2021.2.3,Linux x86_64,60.03842459,,,,,,,,,,,,,
,,,,3,3.6484,4.289742364,1.5822,2,5,21,1,1,stim/pief_g.wav,6107397d50df8745777f484e,001,2022-03-19_21h19.59.916,task,2021.2.3,Linux x86_64,60.03842459,,,,,,,,,,,,,
,,,,4,4.009,3.75757938,1.2116,2,6,22,0,1,stim/pof_g.wav,6107397d50df8745777f484e,001,2022-03-19_21h19.59.916,task,2021.2.3,Linux x86_64,60.03842459,,,,,,,,,,,,,
,,,,1,3.5703,3.067241245,2.2829,2,7,23,7,1,stim/f_schwa_g.wav,6107397d50df8745777f484e,001,2022-03-19_21h19.59.916,task,2021.2.3,Linux x86_64,60.03842459,,,,,,,,,,,,,
,,,,6,2.8308,3.419710795,0.8261,3,0,24,6,1,stim/feuf_g.wav,6107397d50df8745777f484e,001,2022-03-19_21h19.59.916,task,2021.2.3,Linux x86_64,60.03842459,,,,,,,,,,,,,
,,,,4,5.9555,3.584487632,0.5165,3,1,25,2,1,stim/peuf_g.wav,6107397d50df8745777f484e,001,2022-03-19_21h19.59.916,task,2021.2.3,Linux x86_64,60.03842459,,,,,,,,,,,,,
,,,,5,2.9464,4.031368114,1.7125,3,2,26,7,1,stim/f_schwa_g.wav,6107397d50df8745777f484e,001,2022-03-19_21h19.59.916,task,2021.2.3,Linux x86_64,60.03842459,,,,,,,,,,,,,
,,,,4,1.7518,3.940476312,0.6272,3,3,27,4,1,stim/fof_g.wav,6107397d50df8745777f484e,001,2022-03-19_21h19.59.916,task,2021.2.3,Linux x86_64,60.03842459,,,,,,,,,,,,,
,,,,3,2.526,3.095420837,1.0411,3,4,28,5,1,stim/fief_g.wav,6107397d50df8745777f484e,001,2022-03-19_21h19.59.916,task,2021.2.3,Linux x86_64,60.03842459,,,,,,,,,,,,,
,,,,4,4.7034,3.940832915,0.7659,3,5,29,0,1,stim/pof_g.wav,6107397d50df8745777f484e,001,2022-03-19_21h19.59.916,task,2021.2.3,Linux x86_64,60.03842459,,,,,,,,,,,,,
,,,,3,3.7731,4.42428928,1.4555,3,6,30,1,1,stim/pief_g.wav,6107397d50df8745777f484e,001,2022-03-19_21h19.59.916,task,2021.2.3,Linux x86_64,60.03842459,,,,,,,,,,,,,
,,,,5,7.0684,3.877955401,1.4726,3,7,31,3,1,stim/p_schwa_g.wav,6107397d50df8745777f484e,001,2022-03-19_21h19.59.916,task,2021.2.3,Linux x86_64,60.03842459,,,,,,,,,,,,,
,,,,4,2.6272,3.779076753,0.8631,4,0,32,4,1,stim/fof_g.wav,6107397d50df8745777f484e,001,2022-03-19_21h19.59.916,task,2021.2.3,Linux x86_64,60.03842459,,,,,,,,,,,,,
,,,,2,3.2094,3.65488886,1.0042,4,1,33,7,1,stim/f_schwa_g.wav,6107397d50df8745777f484e,001,2022-03-19_21h19.59.916,task,2021.2.3,Linux x86_64,60.03842459,,,,,,,,,,,,,
,,,,1,5.8817,3.674174556,1.0595,4,2,34,3,1,stim/p_schwa_g.wav,6107397d50df8745777f484e,001,2022-03-19_21h19.59.916,task,2021.2.3,Linux x86_64,60.03842459,,,,,,,,,,,,,
,,,,4,2.0192,3.810182925,1.0969,4,3,35,6,1,stim/feuf_g.wav,6107397d50df8745777f484e,001,2022-03-19_21h19.59.916,task,2021.2.3,Linux x86_64,60.03842459,,,,,,,,,,,,,
,,,,7,2.6556,3.990739045,0.7959,4,4,36,5,1,stim/fief_g.wav,6107397d50df8745777f484e,001,2022-03-19_21h19.59.916,task,2021.2.3,Linux x86_64,60.03842459,,,,,,,,,,,,,
,,,,6,4.2879,2.881906863,1.2075,4,5,37,2,1,stim/peuf_g.wav,6107397d50df8745777f484e,001,2022-03-19_21h19.59.916,task,2021.2.3,Linux x86_64,60.03842459,,,,,,,,,,,,,
,,,,3,3.2004,3.717911049,1.4591,4,6,38,1,1,stim/pief_g.wav,6107397d50df8745777f484e,001,2022-03-19_21h19.59.916,task,2021.2.3,Linux x86_64,60.03842459,,,,,,,,,,,,,
,,,,5,3.9532,1.875997755,0.7496,4,7,39,0,1,stim/pof_g.wav,6107397d50df8745777f484e,001,2022-03-19_21h19.59.916,task,2021.2.3,Linux x86_64,60.03842459,,,,,,,,,,,,,
,,,,,,,,,,,,,stim/pof_f.wav,6107397d50df8745777f484e,001,2022-03-19_21h19.59.916,task,2021.2.3,Linux x86_64,60.03842459,space,3.4138,1,6.6786,2.326676263,1.0783,0,0,0,0,1,,
,,,,,,,,,,,,,stim/p_schwa_f.wav,6107397d50df8745777f484e,001,2022-03-19_21h19.59.916,task,2021.2.3,Linux x86_64,60.03842459,,,2,9.0316,1.222556079,1.3211,0,1,1,3,1,,
,,,,,,,,,,,,,stim/f_schwa_f.wav,6107397d50df8745777f484e,001,2022-03-19_21h19.59.916,task,2021.2.3,Linux x86_64,60.03842459,,,6,5.5554,1.996350041,1.2056,0,2,2,7,1,,
,,,,,,,,,,,,,stim/fif_f.wav,6107397d50df8745777f484e,001,2022-03-19_21h19.59.916,task,2021.2.3,Linux x86_64,60.03842459,,,7,3.106,4.161238776,1.133,0,3,3,5,1,,
,,,,,,,,,,,,,stim/peuf_f.wav,6107397d50df8745777f484e,001,2022-03-19_21h19.59.916,task,2021.2.3,Linux x86_64,60.03842459,,,4,2.966,3.055122093,0.913,0,4,4,2,1,,
,,,,,,,,,,,,,stim/fof_f.wav,6107397d50df8745777f484e,001,2022-03-19_21h19.59.916,task,2021.2.3,Linux x86_64,60.03842459,,,4,3.7019,3.318096867,1.3123,0,5,5,4,1,,
,,,,,,,,,,,,,stim/feuf_f.wav,6107397d50df8745777f484e,001,2022-03-19_21h19.59.916,task,2021.2.3,Linux x86_64,60.03842459,,,4,7.065,2.495083279,1.0102,0,6,6,6,1,,
,,,,,,,,,,,,,stim/pif_f.wav,6107397d50df8745777f484e,001,2022-03-19_21h19.59.916,task,2021.2.3,Linux x86_64,60.03842459,,,7,3.9178,3.136229056,1.3904,0,7,7,1,1,,
,,,,,,,,,,,,,stim/f_schwa_f.wav,6107397d50df8745777f484e,001,2022-03-19_21h19.59.916,task,2021.2.3,Linux x86_64,60.03842459,,,4,5.3349,2.80171684,1.4198,1,0,8,7,1,,
,,,,,,,,,,,,,stim/feuf_f.wav,6107397d50df8745777f484e,001,2022-03-19_21h19.59.916,task,2021.2.3,Linux x86_64,60.03842459,,,6,2.5382,3.184022974,0.7261,1,1,9,6,1,,
,,,,,,,,,,,,,stim/fof_f.wav,6107397d50df8745777f484e,001,2022-03-19_21h19.59.916,task,2021.2.3,Linux x86_64,60.03842459,,,6,8.2671,1.964018363,1.1002,1,2,10,4,1,,
,,,,,,,,,,,,,stim/peuf_f.wav,6107397d50df8745777f484e,001,2022-03-19_21h19.59.916,task,2021.2.3,Linux x86_64,60.03842459,,,6,4.7676,2.906205071,2.0605,1,3,11,2,1,,
,,,,,,,,,,,,,stim/fif_f.wav,6107397d50df8745777f484e,001,2022-03-19_21h19.59.916,task,2021.2.3,Linux x86_64,60.03842459,,,3,6.9004,3.791334082,0.9537,1,4,12,5,1,,
,,,,,,,,,,,,,stim/pif_f.wav,6107397d50df8745777f484e,001,2022-03-19_21h19.59.916,task,2021.2.3,Linux x86_64,60.03842459,,,3,3.2017,3.859857347,0.8633,1,5,13,1,1,,
,,,,,,,,,,,,,stim/p_schwa_f.wav,6107397d50df8745777f484e,001,2022-03-19_21h19.59.916,task,2021.2.3,Linux x86_64,60.03842459,,,4,2.9895,2.042803446,1.9704,1,6,14,3,1,,
,,,,,,,,,,,,,stim/pof_f.wav,6107397d50df8745777f484e,001,2022-03-19_21h19.59.916,task,2021.2.3,Linux x86_64,60.03842459,,,4,3.1858,2.9671888,0.6734,1,7,15,0,1,,
,,,,,,,,,,,,,stim/p_schwa_f.wav,6107397d50df8745777f484e,001,2022-03-19_21h19.59.916,task,2021.2.3,Linux x86_64,60.03842459,,,1,3.6358,2.355849937,1.0163,2,0,16,3,1,,
,,,,,,,,,,,,,stim/pif_f.wav,6107397d50df8745777f484e,001,2022-03-19_21h19.59.916,task,2021.2.3,Linux x86_64,60.03842459,,,7,3.9777,3.638918841,2.181,2,1,17,1,1,,
,,,,,,,,,,,,,stim/fof_f.wav,6107397d50df8745777f484e,001,2022-03-19_21h19.59.916,task,2021.2.3,Linux x86_64,60.03842459,,,4,3.4233,2.660240173,0.7066,2,2,18,4,1,,
,,,,,,,,,,,,,stim/pof_f.wav,6107397d50df8745777f484e,001,2022-03-19_21h19.59.916,task,2021.2.3,Linux x86_64,60.03842459,,,4,2.083,2.648677685,1.0633,2,3,19,0,1,,
,,,,,,,,,,,,,stim/fif_f.wav,6107397d50df8745777f484e,001,2022-03-19_21h19.59.916,task,2021.2.3,Linux x86_64,60.03842459,,,7,2.3559,3.200431259,0.8032,2,4,20,5,1,,
,,,,,,,,,,,,,stim/f_schwa_f.wav,6107397d50df8745777f484e,001,2022-03-19_21h19.59.916,task,2021.2.3,Linux x86_64,60.03842459,,,4,3.5094,2.183986805,1.3751,2,5,21,7,1,,
,,,,,,,,,,,,,stim/feuf_f.wav,6107397d50df8745777f484e,001,2022-03-19_21h19.59.916,task,2021.2.3,Linux x86_64,60.03842459,,,6,2.9086,3.075426737,1.0851,2,6,22,6,1,,
,,,,,,,,,,,,,stim/peuf_f.wav,6107397d50df8745777f484e,001,2022-03-19_21h19.59.916,task,2021.2.3,Linux x86_64,60.03842459,,,4,2.7177,2.225730331,0.7339,2,7,23,2,1,,
,,,,,,,,,,,,,stim/fif_f.wav,6107397d50df8745777f484e,001,2022-03-19_21h19.59.916,task,2021.2.3,Linux x86_64,60.03842459,,,7,2.4376,3.045646102,0.7518,3,0,24,5,1,,
,,,,,,,,,,,,,stim/fof_f.wav,6107397d50df8745777f484e,001,2022-03-19_21h19.59.916,task,2021.2.3,Linux x86_64,60.03842459,,,4,5.7193,2.036775377,0.6554,3,1,25,4,1,,
,,,,,,,,,,,,,stim/p_schwa_f.wav,6107397d50df8745777f484e,001,2022-03-19_21h19.59.916,task,2021.2.3,Linux x86_64,60.03842459,,,2,4.3564,1.917160599,0.9497,3,2,26,3,1,,
,,,,,,,,,,,,,stim/pof_f.wav,6107397d50df8745777f484e,001,2022-03-19_21h19.59.916,task,2021.2.3,Linux x86_64,60.03842459,,,4,2.8588,2.239954913,1.4102,3,3,27,0,1,,
,,,,,,,,,,,,,stim/f_schwa_f.wav,6107397d50df8745777f484e,001,2022-03-19_21h19.59.916,task,2021.2.3,Linux x86_64,60.03842459,,,1,1.5934,2.335236443,1.7501,3,4,28,7,1,,
,,,,,,,,,,,,,stim/pif_f.wav,6107397d50df8745777f484e,001,2022-03-19_21h19.59.916,task,2021.2.3,Linux x86_64,60.03842459,,,7,4.1511,4.480095192,1.8423,3,5,29,1,1,,
,,,,,,,,,,,,,stim/peuf_f.wav,6107397d50df8745777f484e,001,2022-03-19_21h19.59.916,task,2021.2.3,Linux x86_64,60.03842459,,,4,2.669,2.626701355,1.6861,3,6,30,2,1,,
,,,,,,,,,,,,,stim/feuf_f.wav,6107397d50df8745777f484e,001,2022-03-19_21h19.59.916,task,2021.2.3,Linux x86_64,60.03842459,,,4,1.5172,2.597102695,1.0783,3,7,31,6,1,,
,,,,,,,,,,,,,stim/feuf_f.wav,6107397d50df8745777f484e,001,2022-03-19_21h19.59.916,task,2021.2.3,Linux x86_64,60.03842459,,,4,1.211,2.591930531,1.3381,4,0,32,6,1,,
,,,,,,,,,,,,,stim/peuf_f.wav,6107397d50df8745777f484e,001,2022-03-19_21h19.59.916,task,2021.2.3,Linux x86_64,60.03842459,,,6,3.6722,3.391609192,0.7842,4,1,33,2,1,,
,,,,,,,,,,,,,stim/fof_f.wav,6107397d50df8745777f484e,001,2022-03-19_21h19.59.916,task,2021.2.3,Linux x86_64,60.03842459,,,1,4.4907,2.027444345,1.7105,4,2,34,4,1,,
,,,,,,,,,,,,,stim/fif_f.wav,6107397d50df8745777f484e,001,2022-03-19_21h19.59.916,task,2021.2.3,Linux x86_64,60.03842459,,,7,2.6642,3.594278124,1.8123,4,3,35,5,1,,
,,,,,,,,,,,,,stim/pof_f.wav,6107397d50df8745777f484e,001,2022-03-19_21h19.59.916,task,2021.2.3,Linux x86_64,60.03842459,,,5,3.1191,1.065425166,1.9541,4,4,36,0,1,,
,,,,,,,,,,,,,stim/pif_f.wav,6107397d50df8745777f484e,001,2022-03-19_21h19.59.916,task,2021.2.3,Linux x86_64,60.03842459,,,7,2.9033,4.09806852,1.4724,4,5,37,1,1,,
,,,,,,,,,,,,,stim/f_schwa_f.wav,6107397d50df8745777f484e,001,2022-03-19_21h19.59.916,task,2021.2.3,Linux x86_64,60.03842459,,,4,2.9359,2.086389895,0.8585,4,6,38,7,1,,
,,,,,,,,,,,,,stim/p_schwa_f.wav,6107397d50df8745777f484e,001,2022-03-19_21h19.59.916,task,2021.2.3,Linux x86_64,60.03842459,,,4,2.4105,1.85422205,1.8735,4,7,39,3,1,,
,,,,,,,,,,,,,,6107397d50df8745777f484e,001,2022-03-19_21h19.59.916,task,2021.2.3,Linux x86_64,60.03842459,,,,,,,,,,,,space,8.6026
