key_resp.keys,key_resp.rt,key_resp_2.keys,key_resp_2.rt,slider.response,slider.rt,trials.thisRepN,trials.thisTrialN,trials.thisN,trials.thisIndex,trials.ran,stim,participant,session,date,expName,psychopyVersion,OS,frameRate,key_resp_trial.keys,key_resp_trial.corr,key_resp_trial.rt,trials_2.thisRepN,trials_2.thisTrialN,trials_2.thisN,trials_2.thisIndex,trials_2.ran,stim1,stim2,distance,isCorrect
space,18.5155,1,10.9859,4.452432726,4.6219,0,0,0,5,1,stim/paf_g.wav,61089d250225d4a8180ae6b5,001,2022-03-09_17h40.43.890,vct_new,2021.2.3,MacIntel,60.0024001,,,,,,,,,,,,
,,3,9.8821,4.739588759,2.9809,0,1,1,2,1,stim/fif_g.wav,61089d250225d4a8180ae6b5,001,2022-03-09_17h40.43.890,vct_new,2021.2.3,MacIntel,60.0024001,,,,,,,,,,,,
,,1,10.297,2.254514974,1.4455,0,2,2,0,1,stim/f_schwa_g.wav,61089d250225d4a8180ae6b5,001,2022-03-09_17h40.43.890,vct_new,2021.2.3,MacIntel,60.0024001,,,,,,,,,,,,
,,5,5.2781,3.559724935,2.2562,0,3,3,3,1,stim/fof_g.wav,61089d250225d4a8180ae6b5,001,2022-03-09_17h40.43.890,vct_new,2021.2.3,MacIntel,60.0024001,,,,,,,,,,,,
,,1,5.463,3.539106445,1.1237,0,4,4,4,1,stim/p_schwa_g.wav,61089d250225d4a8180ae6b5,001,2022-03-09_17h40.43.890,vct_new,2021.2.3,MacIntel,60.0024001,,,,,,,,,,,,
,,2,5.4004,4.273177083,1.7242,0,5,5,7,1,stim/pof_g.wav,61089d250225d4a8180ae6b5,001,2022-03-09_17h40.43.890,vct_new,2021.2.3,MacIntel,60.0024001,,,,,,,,,,,,
,,3,3.784,4.273177083,1.199,0,6,6,6,1,stim/piep_g.wav,61089d250225d4a8180ae6b5,001,2022-03-09_17h40.43.890,vct_new,2021.2.3,MacIntel,60.0024001,,,,,,,,,,,,
,,1,5.0466,3.682502713,1.3423,0,7,7,1,1,stim/faf_g.wav,61089d250225d4a8180ae6b5,001,2022-03-09_17h40.43.890,vct_new,2021.2.3,MacIntel,60.0024001,,,,,,,,,,,,
,,2,5.616,3.682502713,0.8455,1,0,8,3,1,stim/fof_g.wav,61089d250225d4a8180ae6b5,001,2022-03-09_17h40.43.890,vct_new,2021.2.3,MacIntel,60.0024001,,,,,,,,,,,,
,,1,8.6323,3.682502713,1.3224,1,1,9,5,1,stim/paf_g.wav,61089d250225d4a8180ae6b5,001,2022-03-09_17h40.43.890,vct_new,2021.2.3,MacIntel,60.0024001,,,,,,,,,,,,
,,7,6.0457,3.682502713,1.0048,1,2,10,2,1,stim/fif_g.wav,61089d250225d4a8180ae6b5,001,2022-03-09_17h40.43.890,vct_new,2021.2.3,MacIntel,60.0024001,,,,,,,,,,,,
,,1,5.4391,1.869125163,1.2231,1,3,11,0,1,stim/f_schwa_g.wav,61089d250225d4a8180ae6b5,001,2022-03-09_17h40.43.890,vct_new,2021.2.3,MacIntel,60.0024001,,,,,,,,,,,,
,,1,5.0497,3.727703179,0.7588,1,4,12,1,1,stim/faf_g.wav,61089d250225d4a8180ae6b5,001,2022-03-09_17h40.43.890,vct_new,2021.2.3,MacIntel,60.0024001,,,,,,,,,,,,
,,3,2.8682,4.563382161,6.7373,1,5,13,6,1,stim/piep_g.wav,61089d250225d4a8180ae6b5,001,2022-03-09_17h40.43.890,vct_new,2021.2.3,MacIntel,60.0024001,,,,,,,,,,,,
,,1,10.7507,2.549124078,0.7287,1,6,14,4,1,stim/p_schwa_g.wav,61089d250225d4a8180ae6b5,001,2022-03-09_17h40.43.890,vct_new,2021.2.3,MacIntel,60.0024001,,,,,,,,,,,,
,,2,3.1326,3.225568576,1.3624,1,7,15,7,1,stim/pof_g.wav,61089d250225d4a8180ae6b5,001,2022-03-09_17h40.43.890,vct_new,2021.2.3,MacIntel,60.0024001,,,,,,,,,,,,
,,1,2.5373,1.848520779,2.6436,2,0,16,4,1,stim/p_schwa_g.wav,61089d250225d4a8180ae6b5,001,2022-03-09_17h40.43.890,vct_new,2021.2.3,MacIntel,60.0024001,,,,,,,,,,,,
,,1,2.5568,4.628146159,1.0903,2,1,17,1,1,stim/faf_g.wav,61089d250225d4a8180ae6b5,001,2022-03-09_17h40.43.890,vct_new,2021.2.3,MacIntel,60.0024001,,,,,,,,,,,,
,,2,10.2696,3.226781413,1.6214,2,2,18,3,1,stim/fof_g.wav,61089d250225d4a8180ae6b5,001,2022-03-09_17h40.43.890,vct_new,2021.2.3,MacIntel,60.0024001,,,,,,,,,,,,
,,2,3.2977,4.564856228,1.358,2,3,19,7,1,stim/pof_g.wav,61089d250225d4a8180ae6b5,001,2022-03-09_17h40.43.890,vct_new,2021.2.3,MacIntel,60.0024001,,,,,,,,,,,,
,,7,5.5015,3.595486382,1.004,2,4,20,2,1,stim/fif_g.wav,61089d250225d4a8180ae6b5,001,2022-03-09_17h40.43.890,vct_new,2021.2.3,MacIntel,60.0024001,,,,,,,,,,,,
,,1,3.2491,3.533234049,1.3969,2,5,21,0,1,stim/f_schwa_g.wav,61089d250225d4a8180ae6b5,001,2022-03-09_17h40.43.890,vct_new,2021.2.3,MacIntel,60.0024001,,,,,,,,,,,,
,,2,9.7351,1.673467882,0.9172,2,6,22,5,1,stim/paf_g.wav,61089d250225d4a8180ae6b5,001,2022-03-09_17h40.43.890,vct_new,2021.2.3,MacIntel,60.0024001,,,,,,,,,,,,
,,3,4.7217,2.888198242,1.1644,2,7,23,6,1,stim/piep_g.wav,61089d250225d4a8180ae6b5,001,2022-03-09_17h40.43.890,vct_new,2021.2.3,MacIntel,60.0024001,,,,,,,,,,,,
,,,,,,,,,,,,61089d250225d4a8180ae6b5,001,2022-03-09_17h40.43.890,vct_new,2021.2.3,MacIntel,60.0024001,1,1,1.3776,0,0,0,14,1,stim/Step_3.wav,stim/Step_1.wav,2,1
,,,,,,,,,,,,61089d250225d4a8180ae6b5,001,2022-03-09_17h40.43.890,vct_new,2021.2.3,MacIntel,60.0024001,0,0,0.927,0,1,1,11,1,stim/Step_2.wav,stim/Step_5.wav,-3,1
,,,,,,,,,,,,61089d250225d4a8180ae6b5,001,2022-03-09_17h40.43.890,vct_new,2021.2.3,MacIntel,60.0024001,1,0,1.0429,0,2,2,48,1,stim/Step_7.wav,stim/Step_7.wav,0,0
,,,,,,,,,,,,61089d250225d4a8180ae6b5,001,2022-03-09_17h40.43.890,vct_new,2021.2.3,MacIntel,60.0024001,0,0,0.8886,0,3,3,19,1,stim/Step_3.wav,stim/Step_6.wav,-3,1
,,,,,,,,,,,,61089d250225d4a8180ae6b5,001,2022-03-09_17h40.43.890,vct_new,2021.2.3,MacIntel,60.0024001,0,0,1.2389,0,4,4,6,1,stim/Step_1.wav,stim/Step_7.wav,-6,1
,,,,,,,,,,,,61089d250225d4a8180ae6b5,001,2022-03-09_17h40.43.890,vct_new,2021.2.3,MacIntel,60.0024001,0,0,1.2196,0,5,5,28,1,stim/Step_5.wav,stim/Step_1.wav,4,1
,,,,,,,,,,,,61089d250225d4a8180ae6b5,001,2022-03-09_17h40.43.890,vct_new,2021.2.3,MacIntel,60.0024001,0,0,1.3505,0,6,6,27,1,stim/Step_4.wav,stim/Step_7.wav,-3,1
,,,,,,,,,,,,61089d250225d4a8180ae6b5,001,2022-03-09_17h40.43.890,vct_new,2021.2.3,MacIntel,60.0024001,0,0,1.3104,0,7,7,30,1,stim/Step_5.wav,stim/Step_3.wav,2,1
,,,,,,,,,,,,61089d250225d4a8180ae6b5,001,2022-03-09_17h40.43.890,vct_new,2021.2.3,MacIntel,60.0024001,0,0,1.0273,0,8,8,26,1,stim/Step_4.wav,stim/Step_6.wav,-2,1
,,,,,,,,,,,,61089d250225d4a8180ae6b5,001,2022-03-09_17h40.43.890,vct_new,2021.2.3,MacIntel,60.0024001,0,0,0.9993,0,9,9,20,1,stim/Step_3.wav,stim/Step_7.wav,-4,1
,,,,,,,,,,,,61089d250225d4a8180ae6b5,001,2022-03-09_17h40.43.890,vct_new,2021.2.3,MacIntel,60.0024001,0,0,1.01,0,10,10,35,1,stim/Step_6.wav,stim/Step_1.wav,5,1
,,,,,,,,,,,,61089d250225d4a8180ae6b5,001,2022-03-09_17h40.43.890,vct_new,2021.2.3,MacIntel,60.0024001,0,0,1.0232,0,11,11,43,1,stim/Step_7.wav,stim/Step_2.wav,5,1
,,,,,,,,,,,,61089d250225d4a8180ae6b5,001,2022-03-09_17h40.43.890,vct_new,2021.2.3,MacIntel,60.0024001,1,1,0.9882,0,12,12,9,1,stim/Step_2.wav,stim/Step_3.wav,-1,1
,,,,,,,,,,,,61089d250225d4a8180ae6b5,001,2022-03-09_17h40.43.890,vct_new,2021.2.3,MacIntel,60.0024001,0,0,1.3061,0,13,13,37,1,stim/Step_6.wav,stim/Step_3.wav,3,1
,,,,,,,,,,,,61089d250225d4a8180ae6b5,001,2022-03-09_17h40.43.890,vct_new,2021.2.3,MacIntel,60.0024001,1,1,1.351,0,14,14,38,1,stim/Step_6.wav,stim/Step_4.wav,2,1
,,,,,,,,,,,,61089d250225d4a8180ae6b5,001,2022-03-09_17h40.43.890,vct_new,2021.2.3,MacIntel,60.0024001,1,1,1.3598,0,15,15,1,1,stim/Step_1.wav,stim/Step_2.wav,-1,1
,,,,,,,,,,,,61089d250225d4a8180ae6b5,001,2022-03-09_17h40.43.890,vct_new,2021.2.3,MacIntel,60.0024001,1,0,0.9998,0,16,16,0,1,stim/Step_1.wav,stim/Step_1.wav,0,0
,,,,,,,,,,,,61089d250225d4a8180ae6b5,001,2022-03-09_17h40.43.890,vct_new,2021.2.3,MacIntel,60.0024001,1,1,0.9046,0,17,17,41,1,stim/Step_6.wav,stim/Step_7.wav,-1,1
,,,,,,,,,,,,61089d250225d4a8180ae6b5,001,2022-03-09_17h40.43.890,vct_new,2021.2.3,MacIntel,60.0024001,0,0,1.2713,0,18,18,15,1,stim/Step_3.wav,stim/Step_2.wav,1,1
,,,,,,,,,,,,61089d250225d4a8180ae6b5,001,2022-03-09_17h40.43.890,vct_new,2021.2.3,MacIntel,60.0024001,1,0,1.0834,0,19,19,8,1,stim/Step_2.wav,stim/Step_2.wav,0,0
,,,,,,,,,,,,61089d250225d4a8180ae6b5,001,2022-03-09_17h40.43.890,vct_new,2021.2.3,MacIntel,60.0024001,0,0,1.4145,0,20,20,45,1,stim/Step_7.wav,stim/Step_4.wav,3,1
,,,,,,,,,,,,61089d250225d4a8180ae6b5,001,2022-03-09_17h40.43.890,vct_new,2021.2.3,MacIntel,60.0024001,1,1,1.5816,0,21,21,17,1,stim/Step_3.wav,stim/Step_4.wav,-1,1
,,,,,,,,,,,,61089d250225d4a8180ae6b5,001,2022-03-09_17h40.43.890,vct_new,2021.2.3,MacIntel,60.0024001,0,0,1.2155,0,22,22,3,1,stim/Step_1.wav,stim/Step_4.wav,-3,1
,,,,,,,,,,,,61089d250225d4a8180ae6b5,001,2022-03-09_17h40.43.890,vct_new,2021.2.3,MacIntel,60.0024001,0,0,1.1026,0,23,23,13,1,stim/Step_2.wav,stim/Step_7.wav,-5,1
,,,,,,,,,,,,61089d250225d4a8180ae6b5,001,2022-03-09_17h40.43.890,vct_new,2021.2.3,MacIntel,60.0024001,1,1,1.0414,0,24,24,7,1,stim/Step_2.wav,stim/Step_1.wav,1,1
,,,,,,,,,,,,61089d250225d4a8180ae6b5,001,2022-03-09_17h40.43.890,vct_new,2021.2.3,MacIntel,60.0024001,1,1,1.1811,0,25,25,31,1,stim/Step_5.wav,stim/Step_4.wav,1,1
,,,,,,,,,,,,61089d250225d4a8180ae6b5,001,2022-03-09_17h40.43.890,vct_new,2021.2.3,MacIntel,60.0024001,0,0,0.9325,0,26,26,44,1,stim/Step_7.wav,stim/Step_3.wav,4,1
,,,,,,,,,,,,61089d250225d4a8180ae6b5,001,2022-03-09_17h40.43.890,vct_new,2021.2.3,MacIntel,60.0024001,1,1,1.8992,0,27,27,47,1,stim/Step_7.wav,stim/Step_6.wav,1,1
,,,,,,,,,,,,61089d250225d4a8180ae6b5,001,2022-03-09_17h40.43.890,vct_new,2021.2.3,MacIntel,60.0024001,0,0,0.9382,0,28,28,22,1,stim/Step_4.wav,stim/Step_2.wav,2,1
,,,,,,,,,,,,61089d250225d4a8180ae6b5,001,2022-03-09_17h40.43.890,vct_new,2021.2.3,MacIntel,60.0024001,1,1,1.1205,0,29,29,33,1,stim/Step_5.wav,stim/Step_6.wav,-1,1
,,,,,,,,,,,,61089d250225d4a8180ae6b5,001,2022-03-09_17h40.43.890,vct_new,2021.2.3,MacIntel,60.0024001,1,0,0.9567,0,30,30,32,1,stim/Step_5.wav,stim/Step_5.wav,0,0
,,,,,,,,,,,,61089d250225d4a8180ae6b5,001,2022-03-09_17h40.43.890,vct_new,2021.2.3,MacIntel,60.0024001,0,0,0.9167,0,31,31,21,1,stim/Step_4.wav,stim/Step_1.wav,3,1
,,,,,,,,,,,,61089d250225d4a8180ae6b5,001,2022-03-09_17h40.43.890,vct_new,2021.2.3,MacIntel,60.0024001,0,0,2.1208,0,32,32,29,1,stim/Step_5.wav,stim/Step_2.wav,3,1
,,,,,,,,,,,,61089d250225d4a8180ae6b5,001,2022-03-09_17h40.43.890,vct_new,2021.2.3,MacIntel,60.0024001,0,0,1.1251,0,33,33,10,1,stim/Step_2.wav,stim/Step_4.wav,-2,1
,,,,,,,,,,,,61089d250225d4a8180ae6b5,001,2022-03-09_17h40.43.890,vct_new,2021.2.3,MacIntel,60.0024001,1,0,0.9332,0,34,34,40,1,stim/Step_6.wav,stim/Step_6.wav,0,0
,,,,,,,,,,,,61089d250225d4a8180ae6b5,001,2022-03-09_17h40.43.890,vct_new,2021.2.3,MacIntel,60.0024001,0,0,0.9222,0,35,35,36,1,stim/Step_6.wav,stim/Step_2.wav,4,1
,,,,,,,,,,,,61089d250225d4a8180ae6b5,001,2022-03-09_17h40.43.890,vct_new,2021.2.3,MacIntel,60.0024001,1,0,1.0993,0,36,36,24,1,stim/Step_4.wav,stim/Step_4.wav,0,0
,,,,,,,,,,,,61089d250225d4a8180ae6b5,001,2022-03-09_17h40.43.890,vct_new,2021.2.3,MacIntel,60.0024001,0,0,0.8661,0,37,37,12,1,stim/Step_2.wav,stim/Step_6.wav,-4,1
,,,,,,,,,,,,61089d250225d4a8180ae6b5,001,2022-03-09_17h40.43.890,vct_new,2021.2.3,MacIntel,60.0024001,1,1,1.3633,0,38,38,25,1,stim/Step_4.wav,stim/Step_5.wav,-1,1
,,,,,,,,,,,,61089d250225d4a8180ae6b5,001,2022-03-09_17h40.43.890,vct_new,2021.2.3,MacIntel,60.0024001,0,0,1.4174,0,39,39,4,1,stim/Step_1.wav,stim/Step_5.wav,-4,1
,,,,,,,,,,,,61089d250225d4a8180ae6b5,001,2022-03-09_17h40.43.890,vct_new,2021.2.3,MacIntel,60.0024001,0,0,0.8886,0,40,40,5,1,stim/Step_1.wav,stim/Step_6.wav,-5,1
,,,,,,,,,,,,61089d250225d4a8180ae6b5,001,2022-03-09_17h40.43.890,vct_new,2021.2.3,MacIntel,60.0024001,1,1,1.017,0,41,41,2,1,stim/Step_1.wav,stim/Step_3.wav,-2,1
,,,,,,,,,,,,61089d250225d4a8180ae6b5,001,2022-03-09_17h40.43.890,vct_new,2021.2.3,MacIntel,60.0024001,1,1,1.195,0,42,42,46,1,stim/Step_7.wav,stim/Step_5.wav,2,1
,,,,,,,,,,,,61089d250225d4a8180ae6b5,001,2022-03-09_17h40.43.890,vct_new,2021.2.3,MacIntel,60.0024001,0,0,1.0211,0,43,43,23,1,stim/Step_4.wav,stim/Step_3.wav,1,1
,,,,,,,,,,,,61089d250225d4a8180ae6b5,001,2022-03-09_17h40.43.890,vct_new,2021.2.3,MacIntel,60.0024001,1,0,1.1129,0,44,44,16,1,stim/Step_3.wav,stim/Step_3.wav,0,0
,,,,,,,,,,,,61089d250225d4a8180ae6b5,001,2022-03-09_17h40.43.890,vct_new,2021.2.3,MacIntel,60.0024001,0,0,1.2321,0,45,45,18,1,stim/Step_3.wav,stim/Step_5.wav,-2,1
,,,,,,,,,,,,61089d250225d4a8180ae6b5,001,2022-03-09_17h40.43.890,vct_new,2021.2.3,MacIntel,60.0024001,1,1,0.9673,0,46,46,39,1,stim/Step_6.wav,stim/Step_5.wav,1,1
,,,,,,,,,,,,61089d250225d4a8180ae6b5,001,2022-03-09_17h40.43.890,vct_new,2021.2.3,MacIntel,60.0024001,0,0,0.8826,0,47,47,42,1,stim/Step_7.wav,stim/Step_1.wav,6,1
,,,,,,,,,,,,61089d250225d4a8180ae6b5,001,2022-03-09_17h40.43.890,vct_new,2021.2.3,MacIntel,60.0024001,1,1,1.1995,0,48,48,34,1,stim/Step_5.wav,stim/Step_7.wav,-2,1
,,,,,,,,,,,,61089d250225d4a8180ae6b5,001,2022-03-09_17h40.43.890,vct_new,2021.2.3,MacIntel,60.0024001,0,0,1.1061,1,0,49,44,1,stim/Step_7.wav,stim/Step_3.wav,4,1
,,,,,,,,,,,,61089d250225d4a8180ae6b5,001,2022-03-09_17h40.43.890,vct_new,2021.2.3,MacIntel,60.0024001,1,0,1.0077,1,1,50,40,1,stim/Step_6.wav,stim/Step_6.wav,0,0
,,,,,,,,,,,,61089d250225d4a8180ae6b5,001,2022-03-09_17h40.43.890,vct_new,2021.2.3,MacIntel,60.0024001,1,1,1.0393,1,2,51,34,1,stim/Step_5.wav,stim/Step_7.wav,-2,1
,,,,,,,,,,,,61089d250225d4a8180ae6b5,001,2022-03-09_17h40.43.890,vct_new,2021.2.3,MacIntel,60.0024001,1,1,0.9737,1,3,52,9,1,stim/Step_2.wav,stim/Step_3.wav,-1,1
,,,,,,,,,,,,61089d250225d4a8180ae6b5,001,2022-03-09_17h40.43.890,vct_new,2021.2.3,MacIntel,60.0024001,0,0,0.8491,1,4,53,25,1,stim/Step_4.wav,stim/Step_5.wav,-1,1
,,,,,,,,,,,,61089d250225d4a8180ae6b5,001,2022-03-09_17h40.43.890,vct_new,2021.2.3,MacIntel,60.0024001,1,1,1.4957,1,5,54,10,1,stim/Step_2.wav,stim/Step_4.wav,-2,1
,,,,,,,,,,,,61089d250225d4a8180ae6b5,001,2022-03-09_17h40.43.890,vct_new,2021.2.3,MacIntel,60.0024001,0,0,0.8518,1,6,55,5,1,stim/Step_1.wav,stim/Step_6.wav,-5,1
,,,,,,,,,,,,61089d250225d4a8180ae6b5,001,2022-03-09_17h40.43.890,vct_new,2021.2.3,MacIntel,60.0024001,0,0,1.821,1,7,56,45,1,stim/Step_7.wav,stim/Step_4.wav,3,1
,,,,,,,,,,,,61089d250225d4a8180ae6b5,001,2022-03-09_17h40.43.890,vct_new,2021.2.3,MacIntel,60.0024001,0,0,1.8026,1,8,57,4,1,stim/Step_1.wav,stim/Step_5.wav,-4,1
,,,,,,,,,,,,61089d250225d4a8180ae6b5,001,2022-03-09_17h40.43.890,vct_new,2021.2.3,MacIntel,60.0024001,0,0,1.3268,1,9,58,36,1,stim/Step_6.wav,stim/Step_2.wav,4,1
,,,,,,,,,,,,61089d250225d4a8180ae6b5,001,2022-03-09_17h40.43.890,vct_new,2021.2.3,MacIntel,60.0024001,1,1,0.8379,1,10,59,17,1,stim/Step_3.wav,stim/Step_4.wav,-1,1
,,,,,,,,,,,,61089d250225d4a8180ae6b5,001,2022-03-09_17h40.43.890,vct_new,2021.2.3,MacIntel,60.0024001,1,0,1.338,1,11,60,32,1,stim/Step_5.wav,stim/Step_5.wav,0,0
,,,,,,,,,,,,61089d250225d4a8180ae6b5,001,2022-03-09_17h40.43.890,vct_new,2021.2.3,MacIntel,60.0024001,0,0,0.9294,1,12,61,6,1,stim/Step_1.wav,stim/Step_7.wav,-6,1
,,,,,,,,,,,,61089d250225d4a8180ae6b5,001,2022-03-09_17h40.43.890,vct_new,2021.2.3,MacIntel,60.0024001,1,0,1.1588,1,13,62,16,1,stim/Step_3.wav,stim/Step_3.wav,0,0
,,,,,,,,,,,,61089d250225d4a8180ae6b5,001,2022-03-09_17h40.43.890,vct_new,2021.2.3,MacIntel,60.0024001,0,0,1.0666,1,14,63,46,1,stim/Step_7.wav,stim/Step_5.wav,2,1
,,,,,,,,,,,,61089d250225d4a8180ae6b5,001,2022-03-09_17h40.43.890,vct_new,2021.2.3,MacIntel,60.0024001,0,0,1.3024,1,15,64,11,1,stim/Step_2.wav,stim/Step_5.wav,-3,1
,,,,,,,,,,,,61089d250225d4a8180ae6b5,001,2022-03-09_17h40.43.890,vct_new,2021.2.3,MacIntel,60.0024001,0,0,1.0993,1,16,65,20,1,stim/Step_3.wav,stim/Step_7.wav,-4,1
,,,,,,,,,,,,61089d250225d4a8180ae6b5,001,2022-03-09_17h40.43.890,vct_new,2021.2.3,MacIntel,60.0024001,0,0,1.0236,1,17,66,29,1,stim/Step_5.wav,stim/Step_2.wav,3,1
,,,,,,,,,,,,61089d250225d4a8180ae6b5,001,2022-03-09_17h40.43.890,vct_new,2021.2.3,MacIntel,60.0024001,0,0,0.9226,1,18,67,13,1,stim/Step_2.wav,stim/Step_7.wav,-5,1
,,,,,,,,,,,,61089d250225d4a8180ae6b5,001,2022-03-09_17h40.43.890,vct_new,2021.2.3,MacIntel,60.0024001,0,0,0.9608,1,19,68,12,1,stim/Step_2.wav,stim/Step_6.wav,-4,1
,,,,,,,,,,,,61089d250225d4a8180ae6b5,001,2022-03-09_17h40.43.890,vct_new,2021.2.3,MacIntel,60.0024001,0,0,0.9219,1,20,69,26,1,stim/Step_4.wav,stim/Step_6.wav,-2,1
,,,,,,,,,,,,61089d250225d4a8180ae6b5,001,2022-03-09_17h40.43.890,vct_new,2021.2.3,MacIntel,60.0024001,0,0,1.0053,1,21,70,18,1,stim/Step_3.wav,stim/Step_5.wav,-2,1
,,,,,,,,,,,,61089d250225d4a8180ae6b5,001,2022-03-09_17h40.43.890,vct_new,2021.2.3,MacIntel,60.0024001,0,0,1.037,1,22,71,19,1,stim/Step_3.wav,stim/Step_6.wav,-3,1
,,,,,,,,,,,,61089d250225d4a8180ae6b5,001,2022-03-09_17h40.43.890,vct_new,2021.2.3,MacIntel,60.0024001,0,0,1.0544,1,23,72,30,1,stim/Step_5.wav,stim/Step_3.wav,2,1
,,,,,,,,,,,,61089d250225d4a8180ae6b5,001,2022-03-09_17h40.43.890,vct_new,2021.2.3,MacIntel,60.0024001,1,1,0.9552,1,24,73,33,1,stim/Step_5.wav,stim/Step_6.wav,-1,1
,,,,,,,,,,,,61089d250225d4a8180ae6b5,001,2022-03-09_17h40.43.890,vct_new,2021.2.3,MacIntel,60.0024001,0,0,1.0085,1,25,74,38,1,stim/Step_6.wav,stim/Step_4.wav,2,1
,,,,,,,,,,,,61089d250225d4a8180ae6b5,001,2022-03-09_17h40.43.890,vct_new,2021.2.3,MacIntel,60.0024001,1,1,1.851,1,26,75,31,1,stim/Step_5.wav,stim/Step_4.wav,1,1
,,,,,,,,,,,,61089d250225d4a8180ae6b5,001,2022-03-09_17h40.43.890,vct_new,2021.2.3,MacIntel,60.0024001,0,0,0.989,1,27,76,35,1,stim/Step_6.wav,stim/Step_1.wav,5,1
,,,,,,,,,,,,61089d250225d4a8180ae6b5,001,2022-03-09_17h40.43.890,vct_new,2021.2.3,MacIntel,60.0024001,1,1,1.1411,1,28,77,14,1,stim/Step_3.wav,stim/Step_1.wav,2,1
,,,,,,,,,,,,61089d250225d4a8180ae6b5,001,2022-03-09_17h40.43.890,vct_new,2021.2.3,MacIntel,60.0024001,0,0,1.0642,1,29,78,3,1,stim/Step_1.wav,stim/Step_4.wav,-3,1
,,,,,,,,,,,,61089d250225d4a8180ae6b5,001,2022-03-09_17h40.43.890,vct_new,2021.2.3,MacIntel,60.0024001,1,0,1.2872,1,30,79,24,1,stim/Step_4.wav,stim/Step_4.wav,0,0
,,,,,,,,,,,,61089d250225d4a8180ae6b5,001,2022-03-09_17h40.43.890,vct_new,2021.2.3,MacIntel,60.0024001,1,1,1.0662,1,31,80,2,1,stim/Step_1.wav,stim/Step_3.wav,-2,1
,,,,,,,,,,,,61089d250225d4a8180ae6b5,001,2022-03-09_17h40.43.890,vct_new,2021.2.3,MacIntel,60.0024001,0,0,1.0211,1,32,81,43,1,stim/Step_7.wav,stim/Step_2.wav,5,1
,,,,,,,,,,,,61089d250225d4a8180ae6b5,001,2022-03-09_17h40.43.890,vct_new,2021.2.3,MacIntel,60.0024001,0,0,1.4787,1,33,82,22,1,stim/Step_4.wav,stim/Step_2.wav,2,1
,,,,,,,,,,,,61089d250225d4a8180ae6b5,001,2022-03-09_17h40.43.890,vct_new,2021.2.3,MacIntel,60.0024001,1,1,1.0697,1,34,83,7,1,stim/Step_2.wav,stim/Step_1.wav,1,1
,,,,,,,,,,,,61089d250225d4a8180ae6b5,001,2022-03-09_17h40.43.890,vct_new,2021.2.3,MacIntel,60.0024001,0,0,0.9526,1,35,84,28,1,stim/Step_5.wav,stim/Step_1.wav,4,1
,,,,,,,,,,,,61089d250225d4a8180ae6b5,001,2022-03-09_17h40.43.890,vct_new,2021.2.3,MacIntel,60.0024001,1,0,1.0695,1,36,85,0,1,stim/Step_1.wav,stim/Step_1.wav,0,0
,,,,,,,,,,,,61089d250225d4a8180ae6b5,001,2022-03-09_17h40.43.890,vct_new,2021.2.3,MacIntel,60.0024001,0,0,1.2046,1,37,86,1,1,stim/Step_1.wav,stim/Step_2.wav,-1,1
,,,,,,,,,,,,61089d250225d4a8180ae6b5,001,2022-03-09_17h40.43.890,vct_new,2021.2.3,MacIntel,60.0024001,1,1,1.3335,1,38,87,23,1,stim/Step_4.wav,stim/Step_3.wav,1,1
,,,,,,,,,,,,61089d250225d4a8180ae6b5,001,2022-03-09_17h40.43.890,vct_new,2021.2.3,MacIntel,60.0024001,0,0,1.1906,1,39,88,21,1,stim/Step_4.wav,stim/Step_1.wav,3,1
,,,,,,,,,,,,61089d250225d4a8180ae6b5,001,2022-03-09_17h40.43.890,vct_new,2021.2.3,MacIntel,60.0024001,1,1,1.1512,1,40,89,41,1,stim/Step_6.wav,stim/Step_7.wav,-1,1
,,,,,,,,,,,,61089d250225d4a8180ae6b5,001,2022-03-09_17h40.43.890,vct_new,2021.2.3,MacIntel,60.0024001,0,0,1.0895,1,41,90,37,1,stim/Step_6.wav,stim/Step_3.wav,3,1
,,,,,,,,,,,,61089d250225d4a8180ae6b5,001,2022-03-09_17h40.43.890,vct_new,2021.2.3,MacIntel,60.0024001,1,1,1.5643,1,42,91,15,1,stim/Step_3.wav,stim/Step_2.wav,1,1
,,,,,,,,,,,,61089d250225d4a8180ae6b5,001,2022-03-09_17h40.43.890,vct_new,2021.2.3,MacIntel,60.0024001,1,1,1.2225,1,43,92,39,1,stim/Step_6.wav,stim/Step_5.wav,1,1
,,,,,,,,,,,,61089d250225d4a8180ae6b5,001,2022-03-09_17h40.43.890,vct_new,2021.2.3,MacIntel,60.0024001,1,0,2.0347,1,44,93,48,1,stim/Step_7.wav,stim/Step_7.wav,0,0
,,,,,,,,,,,,61089d250225d4a8180ae6b5,001,2022-03-09_17h40.43.890,vct_new,2021.2.3,MacIntel,60.0024001,1,0,0.9844,1,45,94,8,1,stim/Step_2.wav,stim/Step_2.wav,0,0
,,,,,,,,,,,,61089d250225d4a8180ae6b5,001,2022-03-09_17h40.43.890,vct_new,2021.2.3,MacIntel,60.0024001,1,1,1.0168,1,46,95,47,1,stim/Step_7.wav,stim/Step_6.wav,1,1
,,,,,,,,,,,,61089d250225d4a8180ae6b5,001,2022-03-09_17h40.43.890,vct_new,2021.2.3,MacIntel,60.0024001,0,0,0.9239,1,47,96,27,1,stim/Step_4.wav,stim/Step_7.wav,-3,1
,,,,,,,,,,,,61089d250225d4a8180ae6b5,001,2022-03-09_17h40.43.890,vct_new,2021.2.3,MacIntel,60.0024001,0,0,1.0529,1,48,97,42,1,stim/Step_7.wav,stim/Step_1.wav,6,1
,,,,,,,,,,,,61089d250225d4a8180ae6b5,001,2022-03-09_17h40.43.890,vct_new,2021.2.3,MacIntel,60.0024001,0,0,1.4149,2,0,98,10,1,stim/Step_2.wav,stim/Step_4.wav,-2,1
,,,,,,,,,,,,61089d250225d4a8180ae6b5,001,2022-03-09_17h40.43.890,vct_new,2021.2.3,MacIntel,60.0024001,0,0,1.217,2,1,99,42,1,stim/Step_7.wav,stim/Step_1.wav,6,1
,,,,,,,,,,,,61089d250225d4a8180ae6b5,001,2022-03-09_17h40.43.890,vct_new,2021.2.3,MacIntel,60.0024001,0,0,0.9222,2,2,100,6,1,stim/Step_1.wav,stim/Step_7.wav,-6,1
,,,,,,,,,,,,61089d250225d4a8180ae6b5,001,2022-03-09_17h40.43.890,vct_new,2021.2.3,MacIntel,60.0024001,0,0,1.6104,2,3,101,23,1,stim/Step_4.wav,stim/Step_3.wav,1,1
,,,,,,,,,,,,61089d250225d4a8180ae6b5,001,2022-03-09_17h40.43.890,vct_new,2021.2.3,MacIntel,60.0024001,0,0,1.1544,2,4,102,28,1,stim/Step_5.wav,stim/Step_1.wav,4,1
,,,,,,,,,,,,61089d250225d4a8180ae6b5,001,2022-03-09_17h40.43.890,vct_new,2021.2.3,MacIntel,60.0024001,1,1,1.083,2,5,103,7,1,stim/Step_2.wav,stim/Step_1.wav,1,1
,,,,,,,,,,,,61089d250225d4a8180ae6b5,001,2022-03-09_17h40.43.890,vct_new,2021.2.3,MacIntel,60.0024001,1,1,1.0072,2,6,104,47,1,stim/Step_7.wav,stim/Step_6.wav,1,1
,,,,,,,,,,,,61089d250225d4a8180ae6b5,001,2022-03-09_17h40.43.890,vct_new,2021.2.3,MacIntel,60.0024001,0,0,1.8565,2,7,105,38,1,stim/Step_6.wav,stim/Step_4.wav,2,1
,,,,,,,,,,,,61089d250225d4a8180ae6b5,001,2022-03-09_17h40.43.890,vct_new,2021.2.3,MacIntel,60.0024001,0,0,0.9494,2,8,106,21,1,stim/Step_4.wav,stim/Step_1.wav,3,1
,,,,,,,,,,,,61089d250225d4a8180ae6b5,001,2022-03-09_17h40.43.890,vct_new,2021.2.3,MacIntel,60.0024001,1,0,0.9744,2,9,107,16,1,stim/Step_3.wav,stim/Step_3.wav,0,0
,,,,,,,,,,,,61089d250225d4a8180ae6b5,001,2022-03-09_17h40.43.890,vct_new,2021.2.3,MacIntel,60.0024001,0,0,0.9094,2,10,108,36,1,stim/Step_6.wav,stim/Step_2.wav,4,1
,,,,,,,,,,,,61089d250225d4a8180ae6b5,001,2022-03-09_17h40.43.890,vct_new,2021.2.3,MacIntel,60.0024001,1,1,1.041,2,11,109,15,1,stim/Step_3.wav,stim/Step_2.wav,1,1
,,,,,,,,,,,,61089d250225d4a8180ae6b5,001,2022-03-09_17h40.43.890,vct_new,2021.2.3,MacIntel,60.0024001,1,1,1.0184,2,12,110,46,1,stim/Step_7.wav,stim/Step_5.wav,2,1
,,,,,,,,,,,,61089d250225d4a8180ae6b5,001,2022-03-09_17h40.43.890,vct_new,2021.2.3,MacIntel,60.0024001,0,0,1.5174,2,13,111,35,1,stim/Step_6.wav,stim/Step_1.wav,5,1
,,,,,,,,,,,,61089d250225d4a8180ae6b5,001,2022-03-09_17h40.43.890,vct_new,2021.2.3,MacIntel,60.0024001,0,0,1.7312,2,14,112,17,1,stim/Step_3.wav,stim/Step_4.wav,-1,1
,,,,,,,,,,,,61089d250225d4a8180ae6b5,001,2022-03-09_17h40.43.890,vct_new,2021.2.3,MacIntel,60.0024001,1,1,1.2663,2,15,113,9,1,stim/Step_2.wav,stim/Step_3.wav,-1,1
,,,,,,,,,,,,61089d250225d4a8180ae6b5,001,2022-03-09_17h40.43.890,vct_new,2021.2.3,MacIntel,60.0024001,0,0,1.2008,2,16,114,13,1,stim/Step_2.wav,stim/Step_7.wav,-5,1
,,,,,,,,,,,,61089d250225d4a8180ae6b5,001,2022-03-09_17h40.43.890,vct_new,2021.2.3,MacIntel,60.0024001,1,1,1.0691,2,17,115,39,1,stim/Step_6.wav,stim/Step_5.wav,1,1
,,,,,,,,,,,,61089d250225d4a8180ae6b5,001,2022-03-09_17h40.43.890,vct_new,2021.2.3,MacIntel,60.0024001,0,0,0.9888,2,18,116,29,1,stim/Step_5.wav,stim/Step_2.wav,3,1
,,,,,,,,,,,,61089d250225d4a8180ae6b5,001,2022-03-09_17h40.43.890,vct_new,2021.2.3,MacIntel,60.0024001,1,1,0.9552,2,19,117,1,1,stim/Step_1.wav,stim/Step_2.wav,-1,1
,,,,,,,,,,,,61089d250225d4a8180ae6b5,001,2022-03-09_17h40.43.890,vct_new,2021.2.3,MacIntel,60.0024001,1,0,0.8714,2,20,118,0,1,stim/Step_1.wav,stim/Step_1.wav,0,0
,,,,,,,,,,,,61089d250225d4a8180ae6b5,001,2022-03-09_17h40.43.890,vct_new,2021.2.3,MacIntel,60.0024001,0,0,0.8273,2,21,119,5,1,stim/Step_1.wav,stim/Step_6.wav,-5,1
,,,,,,,,,,,,61089d250225d4a8180ae6b5,001,2022-03-09_17h40.43.890,vct_new,2021.2.3,MacIntel,60.0024001,1,1,0.9216,2,22,120,45,1,stim/Step_7.wav,stim/Step_4.wav,3,1
,,,,,,,,,,,,61089d250225d4a8180ae6b5,001,2022-03-09_17h40.43.890,vct_new,2021.2.3,MacIntel,60.0024001,1,1,2.9447,2,23,121,14,1,stim/Step_3.wav,stim/Step_1.wav,2,1
,,,,,,,,,,,,61089d250225d4a8180ae6b5,001,2022-03-09_17h40.43.890,vct_new,2021.2.3,MacIntel,60.0024001,0,0,1.0343,2,24,122,3,1,stim/Step_1.wav,stim/Step_4.wav,-3,1
,,,,,,,,,,,,61089d250225d4a8180ae6b5,001,2022-03-09_17h40.43.890,vct_new,2021.2.3,MacIntel,60.0024001,1,1,0.99,2,25,123,25,1,stim/Step_4.wav,stim/Step_5.wav,-1,1
,,,,,,,,,,,,61089d250225d4a8180ae6b5,001,2022-03-09_17h40.43.890,vct_new,2021.2.3,MacIntel,60.0024001,1,1,0.8182,2,26,124,26,1,stim/Step_4.wav,stim/Step_6.wav,-2,1
,,,,,,,,,,,,61089d250225d4a8180ae6b5,001,2022-03-09_17h40.43.890,vct_new,2021.2.3,MacIntel,60.0024001,1,0,0.8637,2,27,125,40,1,stim/Step_6.wav,stim/Step_6.wav,0,0
,,,,,,,,,,,,61089d250225d4a8180ae6b5,001,2022-03-09_17h40.43.890,vct_new,2021.2.3,MacIntel,60.0024001,1,1,0.9209,2,28,126,33,1,stim/Step_5.wav,stim/Step_6.wav,-1,1
,,,,,,,,,,,,61089d250225d4a8180ae6b5,001,2022-03-09_17h40.43.890,vct_new,2021.2.3,MacIntel,60.0024001,0,0,0.8006,2,29,127,44,1,stim/Step_7.wav,stim/Step_3.wav,4,1
,,,,,,,,,,,,61089d250225d4a8180ae6b5,001,2022-03-09_17h40.43.890,vct_new,2021.2.3,MacIntel,60.0024001,1,1,0.9027,2,30,128,34,1,stim/Step_5.wav,stim/Step_7.wav,-2,1
,,,,,,,,,,,,61089d250225d4a8180ae6b5,001,2022-03-09_17h40.43.890,vct_new,2021.2.3,MacIntel,60.0024001,0,0,0.8317,2,31,129,43,1,stim/Step_7.wav,stim/Step_2.wav,5,1
,,,,,,,,,,,,61089d250225d4a8180ae6b5,001,2022-03-09_17h40.43.890,vct_new,2021.2.3,MacIntel,60.0024001,0,0,1.2501,2,32,130,22,1,stim/Step_4.wav,stim/Step_2.wav,2,1
,,,,,,,,,,,,61089d250225d4a8180ae6b5,001,2022-03-09_17h40.43.890,vct_new,2021.2.3,MacIntel,60.0024001,0,0,1.1068,2,33,131,30,1,stim/Step_5.wav,stim/Step_3.wav,2,1
,,,,,,,,,,,,61089d250225d4a8180ae6b5,001,2022-03-09_17h40.43.890,vct_new,2021.2.3,MacIntel,60.0024001,1,0,0.971,2,34,132,8,1,stim/Step_2.wav,stim/Step_2.wav,0,0
,,,,,,,,,,,,61089d250225d4a8180ae6b5,001,2022-03-09_17h40.43.890,vct_new,2021.2.3,MacIntel,60.0024001,0,0,1.0659,2,35,133,12,1,stim/Step_2.wav,stim/Step_6.wav,-4,1
,,,,,,,,,,,,61089d250225d4a8180ae6b5,001,2022-03-09_17h40.43.890,vct_new,2021.2.3,MacIntel,60.0024001,0,0,1.0993,2,36,134,27,1,stim/Step_4.wav,stim/Step_7.wav,-3,1
,,,,,,,,,,,,61089d250225d4a8180ae6b5,001,2022-03-09_17h40.43.890,vct_new,2021.2.3,MacIntel,60.0024001,1,0,0.9338,2,37,135,48,1,stim/Step_7.wav,stim/Step_7.wav,0,0
,,,,,,,,,,,,61089d250225d4a8180ae6b5,001,2022-03-09_17h40.43.890,vct_new,2021.2.3,MacIntel,60.0024001,1,1,2.0646,2,38,136,31,1,stim/Step_5.wav,stim/Step_4.wav,1,1
,,,,,,,,,,,,61089d250225d4a8180ae6b5,001,2022-03-09_17h40.43.890,vct_new,2021.2.3,MacIntel,60.0024001,1,1,1.0279,2,39,137,2,1,stim/Step_1.wav,stim/Step_3.wav,-2,1
,,,,,,,,,,,,61089d250225d4a8180ae6b5,001,2022-03-09_17h40.43.890,vct_new,2021.2.3,MacIntel,60.0024001,0,0,1.4212,2,40,138,11,1,stim/Step_2.wav,stim/Step_5.wav,-3,1
,,,,,,,,,,,,61089d250225d4a8180ae6b5,001,2022-03-09_17h40.43.890,vct_new,2021.2.3,MacIntel,60.0024001,0,0,2.8705,2,41,139,37,1,stim/Step_6.wav,stim/Step_3.wav,3,1
,,,,,,,,,,,,61089d250225d4a8180ae6b5,001,2022-03-09_17h40.43.890,vct_new,2021.2.3,MacIntel,60.0024001,0,0,0.9581,2,42,140,18,1,stim/Step_3.wav,stim/Step_5.wav,-2,1
,,,,,,,,,,,,61089d250225d4a8180ae6b5,001,2022-03-09_17h40.43.890,vct_new,2021.2.3,MacIntel,60.0024001,0,0,1.183,2,43,141,4,1,stim/Step_1.wav,stim/Step_5.wav,-4,1
,,,,,,,,,,,,61089d250225d4a8180ae6b5,001,2022-03-09_17h40.43.890,vct_new,2021.2.3,MacIntel,60.0024001,0,0,0.9493,2,44,142,19,1,stim/Step_3.wav,stim/Step_6.wav,-3,1
,,,,,,,,,,,,61089d250225d4a8180ae6b5,001,2022-03-09_17h40.43.890,vct_new,2021.2.3,MacIntel,60.0024001,1,0,1.1285,2,45,143,24,1,stim/Step_4.wav,stim/Step_4.wav,0,0
,,,,,,,,,,,,61089d250225d4a8180ae6b5,001,2022-03-09_17h40.43.890,vct_new,2021.2.3,MacIntel,60.0024001,1,0,0.9958,2,46,144,32,1,stim/Step_5.wav,stim/Step_5.wav,0,0
,,,,,,,,,,,,61089d250225d4a8180ae6b5,001,2022-03-09_17h40.43.890,vct_new,2021.2.3,MacIntel,60.0024001,0,0,0.8673,2,47,145,20,1,stim/Step_3.wav,stim/Step_7.wav,-4,1
,,,,,,,,,,,,61089d250225d4a8180ae6b5,001,2022-03-09_17h40.43.890,vct_new,2021.2.3,MacIntel,60.0024001,1,1,1.0107,2,48,146,41,1,stim/Step_6.wav,stim/Step_7.wav,-1,1
