stim,trials.thisRepN,trials.thisTrialN,trials.thisN,trials.thisIndex,trials_2.thisRepN,trials_2.thisTrialN,trials_2.thisN,trials_2.thisIndex,key_resp_3.keys,key_resp_3.rt,key_resp_3.started,key_resp_3.stopped,text_3.started,text_3.stopped,text_4.started,text_4.stopped,text_5.started,text_5.stopped,ins.started,ins.stopped,key_resp_4.keys,key_resp_4.rt,key_resp_4.started,key_resp_4.stopped,fun.started,fun.stopped,fought.started,fought.stopped,feel.started,feel.stopped,fool.started,fool.stopped,son.started,son.stopped,su.started,su.stopped,fin.started,fin.stopped,instructions_task.started,instructions_task.stopped,key_resp_2.keys,key_resp_2.rt,key_resp_2.started,key_resp_2.stopped,stimulus.started,stimulus.stopped,text_2.started,text_2.stopped,slider.response,slider.rt,slider.started,slider.stopped,text_6.started,text_6.stopped,key_resp_5.keys,key_resp_5.rt,key_resp_5.started,key_resp_5.stopped,text_7.started,text_7.stopped,fun_2.started,fun_2.stopped,fought_2.started,fought_2.stopped,feel_2.started,feel_2.stopped,fool_2.started,fool_2.stopped,son_2.started,son_2.stopped,su_2.started,su_2.stopped,fin_2.started,fin_2.stopped,instructions_task_2.started,instructions_task_2.stopped,key_resp.keys,key_resp.rt,key_resp.started,key_resp.stopped,stimulus_2.started,stimulus_2.stopped,text.started,text.stopped,slider_2.response,slider_2.rt,slider_2.started,slider_2.stopped,text_9.started,text_9.stopped,key_resp_6.keys,key_resp_6.rt,key_resp_6.started,key_resp_6.stopped,text_8.started,text_8.stopped,participant,session,date,expName,psychopyVersion,frameRate,
,,,,,,,,,1,1.3941784999915399,28.25991012499435,None,,,,,,,,,,,,,,,,,,,,,,,,,,,,,,,,,,,,,,,,,,,,,,,,,,,,,,,,,,,,,,,,,,,,,,,,,,,,,,,,,,,,,,001,2022_Mar_13_1118,task,2021.2.3,59.635937515316705,
,,,,,,,,,,,,,28.25991012499435,None,28.25991012499435,None,28.25991012499435,None,29.683129624987487,None,space,0.6983974169997964,29.683129624987487,None,,,,,,,,,,,,,,,,,,,,,,,,,,,,,,,,,,,,,,,,,,,,,,,,,,,,,,,,,,,,,,,,,,,,,,,,,,001,2022_Mar_13_1118,task,2021.2.3,59.635937515316705,
stim/f_schwa_g.wav,0,0,0,7,,,,,,,,,,,,,,,,,,,,,30.648471749998862,None,30.648471749998862,None,30.648471749998862,None,30.648471749998862,None,30.648471749998862,None,30.648471749998862,None,30.648471749998862,None,30.408091958001023,None,1,1.2973595410003327,30.408091958001023,None,30.69885807950923,None,30.408091958001023,30.615901832992677,2.951111111111111,1.2465102079731878,31.733990917011397,None,31.733990917011397,None,,,,,,,,,,,,,,,,,,,,,,,,,,,,,,,,,,,,,,,,,,,,001,2022_Mar_13_1118,task,2021.2.3,59.635937515316705,
stim/pief_g.wav,0,1,1,1,,,,,,,,,,,,,,,,,,,,,33.2318252499972,None,33.2318252499972,None,33.2318252499972,None,33.2318252499972,None,33.2318252499972,None,33.2318252499972,None,33.2318252499972,None,32.99861016700743,None,1,0.4700731659831945,32.99861016700743,None,33.2816800795059,None,32.99861016700743,33.198436332982965,2.951111111111111,0.3482748749956954,33.49833075000788,None,33.49833075000788,None,,,,,,,,,,,,,,,,,,,,,,,,,,,,,,,,,,,,,,,,,,,,001,2022_Mar_13_1118,task,2021.2.3,59.635937515316705,
stim/peuf_g.wav,0,2,2,2,,,,,,,,,,,,,,,,,,,,,34.09896616698825,None,34.09896616698825,None,34.09896616698825,None,34.09896616698825,None,34.09896616698825,None,34.09896616698825,None,34.09896616698825,None,33.86523329198826,None,1,0.46040541600086726,33.86523329198826,None,34.14835149548308,None,33.86523329198826,34.06496308298665,2.951111111111111,0.36516995800775476,34.34872720800922,None,34.34872720800922,None,,,,,,,,,,,,,,,,,,,,,,,,,,,,,,,,,,,,,,,,,,,,001,2022_Mar_13_1118,task,2021.2.3,59.635937515316705,
stim/feuf_g.wav,0,3,3,6,,,,,,,,,,,,,,,,,,,,,34.96582583300187,None,34.96582583300187,None,34.96582583300187,None,34.96582583300187,None,34.96582583300187,None,34.96582583300187,None,34.96582583300187,None,34.73183866700856,None,1,0.39274204202229157,34.73183866700856,None,35.015077454483254,None,34.73183866700856,34.93187699999544,2.951111111111111,0.36443316700751893,35.148677832999965,None,35.148677832999965,None,,,,,,,,,,,,,,,,,,,,,,,,,,,,,,,,,,,,,,,,,,,,001,2022_Mar_13_1118,task,2021.2.3,59.635937515316705,
stim/p_schwa_g.wav,0,4,4,3,,,,,,,,,,,,,,,,,,,,,35.765642666985514,None,35.765642666985514,None,35.765642666985514,None,35.765642666985514,None,35.765642666985514,None,35.765642666985514,None,35.765642666985514,None,35.53179283300415,None,1,0.46767249901313335,35.53179283300415,None,35.81542799549934,None,35.53179283300415,35.73186166700907,2.951111111111111,0.33114183400175534,36.03196720799315,None,36.03196720799315,None,,,,,,,,,,,,,,,,,,,,,,,,,,,,,,,,,,,,,,,,,,,,001,2022_Mar_13_1118,task,2021.2.3,59.635937515316705,
stim/fof_g.wav,0,5,5,4,,,,,,,,,,,,,,,,,,,,,36.61571283300873,None,36.61571283300873,None,36.61571283300873,None,36.61571283300873,None,36.61571283300873,None,36.61571283300873,None,36.61571283300873,None,36.38196266698651,None,1,0.41453637499944307,36.38196266698651,None,36.665276662484395,None,36.38196266698651,36.582687749993056,2.951111111111111,0.29768600000534207,36.81528733301093,None,36.81528733301093,None,,,,,,,,,,,,,,,,,,,,,,,,,,,,,,,,,,,,,,,,,,,,001,2022_Mar_13_1118,task,2021.2.3,59.635937515316705,
stim/fief_g.wav,0,6,6,5,,,,,,,,,,,,,,,,,,,,,37.3651139170106,None,37.3651139170106,None,37.3651139170106,None,37.3651139170106,None,37.3651139170106,None,37.3651139170106,None,37.3651139170106,None,37.13187591699534,None,1,0.43964037401019596,37.13187591699534,None,37.41522982950264,None,37.13187591699534,37.33197516700602,2.951111111111111,0.38112345899571665,37.59800683299545,None,37.59800683299545,None,,,,,,,,,,,,,,,,,,,,,,,,,,,,,,,,,,,,,,,,,,,,001,2022_Mar_13_1118,task,2021.2.3,59.635937515316705,
stim/pof_g.wav,0,7,7,0,,,,,,,,,,,,,,,,,,,,,38.232222124992404,None,38.232222124992404,None,38.232222124992404,None,38.232222124992404,None,38.232222124992404,None,38.232222124992404,None,38.232222124992404,None,37.998640957986936,None,1,0.4217927489953581,37.998640957986936,None,38.28194174549717,None,37.998640957986936,38.19872983300593,2.951111111111111,0.3314505410089623,38.448808332992485,None,38.448808332992485,None,,,,,,,,,,,,,,,,,,,,,,,,,,,,,,,,,,,,,,,,,,,,001,2022_Mar_13_1118,task,2021.2.3,59.635937515316705,
stim/fof_g.wav,1,0,8,4,,,,,,,,,,,,,,,,,,,,,39.03181537499768,None,39.03181537499768,None,39.03181537499768,None,39.03181537499768,None,39.03181537499768,None,39.03181537499768,None,39.03181537499768,None,38.79868645800161,None,1,0.3206902079982683,38.79868645800161,None,39.081793412487606,None,38.79868645800161,38.99951912500546,2.951111111111111,0.3305945839965716,39.14872687499155,None,39.14872687499155,None,,,,,,,,,,,,,,,,,,,,,,,,,,,,,,,,,,,,,,,,,,,,001,2022_Mar_13_1118,task,2021.2.3,59.635937515316705,
stim/peuf_g.wav,1,1,9,2,,,,,,,,,,,,,,,,,,,,,39.73193020798499,None,39.73193020798499,None,39.73193020798499,None,39.73193020798499,None,39.73193020798499,None,39.73193020798499,None,39.73193020798499,None,39.49856862498564,None,1,0.25396287397597916,39.49856862498564,None,39.78212853748992,None,39.49856862498564,39.698042167001404,2.951111111111111,0.3477354169881437,39.78244095799164,None,39.78244095799164,None,,,,,,,,,,,,,,,,,,,,,,,,,,,,,,,,,,,,,,,,,,,,001,2022_Mar_13_1118,task,2021.2.3,59.635937515316705,
stim/pief_g.wav,1,2,10,1,,,,,,,,,,,,,,,,,,,,,None,None,None,None,None,None,None,None,None,None,None,None,None,None,40.14878416698775,None,1,0.168637958006002,40.14878416698775,None,None,None,40.14878416698775,None,2.951111111111111,0.34684220800409093,40.3486775830097,None,40.3486775830097,None,,,,,,,,,,,,,,,,,,,,,,,,,,,,,,,,,,,,,,,,,,,,001,2022_Mar_13_1118,task,2021.2.3,59.635937515316705,
stim/fief_g.wav,1,3,11,5,,,,,,,,,,,,,,,,,,,,,40.949101417005295,None,40.949101417005295,None,40.949101417005295,None,40.949101417005295,None,40.949101417005295,None,40.949101417005295,None,40.949101417005295,None,40.71571774999029,None,1,0.31635933299548924,40.71571774999029,None,40.9988627045037,None,40.71571774999029,40.916100375005044,2.951111111111111,0.3646912499971222,41.049239082989516,None,41.049239082989516,None,,,,,,,,,,,,,,,,,,,,,,,,,,,,,,,,,,,,,,,,,,,,001,2022_Mar_13_1118,task,2021.2.3,59.635937515316705,
stim/p_schwa_g.wav,1,4,12,3,,,,,,,,,,,,,,,,,,,,,41.66548487500404,None,41.66548487500404,None,41.66548487500404,None,41.66548487500404,None,41.66548487500404,None,41.66548487500404,None,41.66548487500404,None,41.4319985829934,None,1,0.5574765829951502,41.4319985829934,None,41.715235829507584,None,41.4319985829934,41.632808374997694,2.951111111111111,0.38115524998283945,42.01564570798655,None,42.01564570798655,None,,,,,,,,,,,,,,,,,,,,,,,,,,,,,,,,,,,,,,,,,,,,001,2022_Mar_13_1118,task,2021.2.3,59.635937515316705,
stim/pof_g.wav,1,5,13,0,,,,,,,,,,,,,,,,,,,,,42.64923058298882,None,42.64923058298882,None,42.64923058298882,None,42.64923058298882,None,42.64923058298882,None,42.64923058298882,None,42.64923058298882,None,42.41566299999249,None,1,0.26515870800358243,42.41566299999249,None,42.69890987050312,None,42.41566299999249,42.616399082995486,2.951111111111111,0.3642616670113057,42.699016583006596,None,42.699016583006596,None,,,,,,,,,,,,,,,,,,,,,,,,,,,,,,,,,,,,,,,,,,,,001,2022_Mar_13_1118,task,2021.2.3,59.635937515316705,
stim/f_schwa_g.wav,1,6,14,7,,,,,,,,,,,,,,,,,,,,,43.31584408300114,None,43.31584408300114,None,43.31584408300114,None,43.31584408300114,None,43.31584408300114,None,43.31584408300114,None,43.31584408300114,None,43.08204191699042,None,1,0.2793603749887552,43.08204191699042,None,43.365795995495866,None,43.08204191699042,43.28312404200551,2.951111111111111,0.3311842500115745,43.38233424999635,None,43.38233424999635,None,,,,,,,,,,,,,,,,,,,,,,,,,,,,,,,,,,,,,,,,,,,,001,2022_Mar_13_1118,task,2021.2.3,59.635937515316705,
stim/feuf_g.wav,1,7,15,6,,,,,,,,,,,,,,,,,,,,,43.96576091699535,None,43.96576091699535,None,43.96576091699535,None,43.96576091699535,None,43.96576091699535,None,43.96576091699535,None,43.96576091699535,None,43.73239033299615,None,1,0.2599462920043152,43.73239033299615,None,44.01562524549954,None,43.73239033299615,43.93260020800517,2.951111111111111,0.31493429199326783,44.01589229199453,None,44.01589229199453,None,,,,,,,,,,,,,,,,,,,,,,,,,,,,,,,,,,,,,,,,,,,,001,2022_Mar_13_1118,task,2021.2.3,59.635937515316705,
stim/fof_g.wav,2,0,16,4,,,,,,,,,,,,,,,,,,,,,44.58253433299251,None,44.58253433299251,None,44.58253433299251,None,44.58253433299251,None,44.58253433299251,None,44.58253433299251,None,44.58253433299251,None,44.348731375008356,None,1,0.3088595409935806,44.348731375008356,None,44.63257957949245,None,44.348731375008356,44.54982933300198,2.951111111111111,0.26484575000358745,44.68232162500499,None,44.68232162500499,None,,,,,,,,,,,,,,,,,,,,,,,,,,,,,,,,,,,,,,,,,,,,001,2022_Mar_13_1118,task,2021.2.3,59.635937515316705,
stim/pief_g.wav,2,1,17,1,,,,,,,,,,,,,,,,,,,,,45.199712625006214,None,45.199712625006214,None,45.199712625006214,None,45.199712625006214,None,45.199712625006214,None,45.199712625006214,None,45.199712625006214,None,44.965629874990555,None,1,0.24997616600012407,44.965629874990555,None,45.248816287503,None,44.965629874990555,45.16648116699071,2.951111111111111,0.2980021669936832,45.249172791984165,None,45.249172791984165,None,,,,,,,,,,,,,,,,,,,,,,,,,,,,,,,,,,,,,,,,,,,,001,2022_Mar_13_1118,task,2021.2.3,59.635937515316705,
stim/fief_g.wav,2,2,18,5,,,,,,,,,,,,,,,,,,,,,45.79889195799478,None,45.79889195799478,None,45.79889195799478,None,45.79889195799478,None,45.79889195799478,None,45.79889195799478,None,45.79889195799478,None,45.56549162499141,None,1,0.26797958300448954,45.56549162499141,None,45.84892974550312,None,45.56549162499141,45.76591091699083,2.951111111111111,0.3141799579898361,45.865689416998066,None,45.865689416998066,None,,,,,,,,,,,,,,,,,,,,,,,,,,,,,,,,,,,,,,,,,,,,001,2022_Mar_13_1118,task,2021.2.3,59.635937515316705,
stim/pof_g.wav,2,3,19,0,,,,,,,,,,,,,,,,,,,,,46.432467457983876,None,46.432467457983876,None,46.432467457983876,None,46.432467457983876,None,46.432467457983876,None,46.432467457983876,None,46.432467457983876,None,46.199090125010116,None,1,0.23337766600889154,46.199090125010116,None,None,None,46.199090125010116,46.39895637499285,2.951111111111111,0.36466758299502544,46.44938779200311,None,46.44938779200311,None,,,,,,,,,,,,,,,,,,,,,,,,,,,,,,,,,,,,,,,,,,,,001,2022_Mar_13_1118,task,2021.2.3,59.635937515316705,
stim/p_schwa_g.wav,2,4,20,3,,,,,,,,,,,,,,,,,,,,,47.06585424998775,None,47.06585424998775,None,47.06585424998775,None,47.06585424998775,None,47.06585424998775,None,47.06585424998775,None,47.06585424998775,None,46.83212158299284,None,1,0.2433495830046013,46.83212158299284,None,None,None,46.83212158299284,47.0326527080033,2.951111111111111,0.3653697079862468,47.099225707992446,None,47.099225707992446,None,,,,,,,,,,,,,,,,,,,,,,,,,,,,,,,,,,,,,,,,,,,,001,2022_Mar_13_1118,task,2021.2.3,59.635937515316705,
stim/feuf_g.wav,2,5,21,6,,,,,,,,,,,,,,,,,,,,,47.716346041997895,None,47.716346041997895,None,47.716346041997895,None,47.716346041997895,None,47.716346041997895,None,47.716346041997895,None,47.716346041997895,None,47.48215166700538,None,1,0.2673244580219034,47.48215166700538,None,47.76574962048617,None,47.48215166700538,47.68259020798723,2.951111111111111,0.2980933329963591,47.78238608301035,None,47.78238608301035,None,,,,,,,,,,,,,,,,,,,,,,,,,,,,,,,,,,,,,,,,,,,,001,2022_Mar_13_1118,task,2021.2.3,59.635937515316705,
stim/peuf_g.wav,2,6,22,2,,,,,,,,,,,,,,,,,,,,,48.3324094999989,None,48.3324094999989,None,48.3324094999989,None,48.3324094999989,None,48.3324094999989,None,48.3324094999989,None,48.3324094999989,None,48.09902629200951,None,1,0.29246974998386577,48.09902629200951,None,48.38249012048764,None,48.09902629200951,48.30011791700963,2.951111111111111,0.3642150420055259,48.415822542010574,None,48.415822542010574,None,,,,,,,,,,,,,,,,,,,,,,,,,,,,,,,,,,,,,,,,,,,,001,2022_Mar_13_1118,task,2021.2.3,59.635937515316705,
stim/f_schwa_g.wav,2,7,23,7,,,,,,,,,,,,,,,,,,,,,49.03192945799674,None,49.03192945799674,None,49.03192945799674,None,49.03192945799674,None,49.03192945799674,None,49.03192945799674,None,49.03192945799674,None,48.79879025000264,None,1,0.28874416602775455,48.79879025000264,None,49.08264453750744,None,48.79879025000264,49.00006900000153,2.951111111111111,0.46489754199865274,49.11600295800599,None,49.11600295800599,None,,,,,,,,,,,,,,,,,,,,,,,,,,,,,,,,,,,,,,,,,,,,001,2022_Mar_13_1118,task,2021.2.3,59.635937515316705,
stim/fof_g.wav,3,0,24,4,,,,,,,,,,,,,,,,,,,,,49.83186841700808,None,49.83186841700808,None,49.83186841700808,None,49.83186841700808,None,49.83186841700808,None,49.83186841700808,None,49.83186841700808,None,49.59934462499223,None,1,0.2230081239831634,49.59934462499223,None,None,None,49.59934462499223,49.799597832985455,2.951111111111111,0.41522041699499823,49.849534292006865,None,49.849534292006865,None,,,,,,,,,,,,,,,,,,,,,,,,,,,,,,,,,,,,,,,,,,,,001,2022_Mar_13_1118,task,2021.2.3,59.635937515316705,
stim/f_schwa_g.wav,3,1,25,7,,,,,,,,,,,,,,,,,,,,,50.51545241699205,None,50.51545241699205,None,50.51545241699205,None,50.51545241699205,None,50.51545241699205,None,50.51545241699205,None,50.51545241699205,None,50.28262199999881,None,1,0.3007955409993883,50.28262199999881,None,50.56598295449803,None,50.28262199999881,50.483454000001075,2.951111111111111,0.3957673750119284,50.61634408298414,None,50.61634408298414,None,,,,,,,,,,,,,,,,,,,,,,,,,,,,,,,,,,,,,,,,,,,,001,2022_Mar_13_1118,task,2021.2.3,59.635937515316705,
stim/fief_g.wav,3,2,26,5,,,,,,,,,,,,,,,,,,,,,None,None,None,None,None,None,None,None,None,None,None,None,None,None,51.032520292006666,None,1,0.15133645801688544,51.032520292006666,None,None,None,51.032520292006666,None,2.951111111111111,0.4800150829833001,51.21605337498477,None,51.21605337498477,None,,,,,,,,,,,,,,,,,,,,,,,,,,,,,,,,,,,,,,,,,,,,001,2022_Mar_13_1118,task,2021.2.3,59.635937515316705,
stim/pof_g.wav,3,3,27,0,,,,,,,,,,,,,,,,,,,,,51.94928008300485,None,51.94928008300485,None,51.94928008300485,None,51.94928008300485,None,51.94928008300485,None,51.94928008300485,None,51.94928008300485,None,51.71561700000893,None,1,0.2880206659901887,51.71561700000893,None,51.999013412490605,None,51.71561700000893,51.91653374998714,2.951111111111111,0.33140866601024754,52.032435667002574,None,52.032435667002574,None,,,,,,,,,,,,,,,,,,,,,,,,,,,,,,,,,,,,,,,,,,,,001,2022_Mar_13_1118,task,2021.2.3,59.635937515316705,
stim/feuf_g.wav,3,4,28,6,,,,,,,,,,,,,,,,,,,,,52.61624808300985,None,52.61624808300985,None,52.61624808300985,None,52.61624808300985,None,52.61624808300985,None,52.61624808300985,None,52.61624808300985,None,52.382289667002624,None,1,0.3421128750196658,52.382289667002624,None,52.6659311204945,None,52.382289667002624,52.5821091250109,2.951111111111111,0.33163370899274014,52.749077624990605,None,52.749077624990605,None,,,,,,,,,,,,,,,,,,,,,,,,,,,,,,,,,,,,,,,,,,,,001,2022_Mar_13_1118,task,2021.2.3,59.635937515316705,
stim/p_schwa_g.wav,3,5,29,3,,,,,,,,,,,,,,,,,,,,,53.33169683298911,None,53.33169683298911,None,53.33169683298911,None,53.33169683298911,None,53.33169683298911,None,53.33169683298911,None,53.33169683298911,None,53.09874933300307,None,1,0.3138039170007687,53.09874933300307,None,53.38240620448196,None,53.09874933300307,53.299786707997555,2.951111111111111,0.2980942080030218,53.4324055420002,None,53.4324055420002,None,,,,,,,,,,,,,,,,,,,,,,,,,,,,,,,,,,,,,,,,,,,,001,2022_Mar_13_1118,task,2021.2.3,59.635937515316705,
stim/pief_g.wav,3,6,30,1,,,,,,,,,,,,,,,,,,,,,53.982683125010226,None,53.982683125010226,None,53.982683125010226,None,53.982683125010226,None,53.982683125010226,None,53.982683125010226,None,53.982683125010226,None,53.748984000005294,None,1,0.3783431249903515,53.748984000005294,None,54.03241791248147,None,53.748984000005294,53.94969745801063,2.951111111111111,0.26435933299944736,54.14925729201059,None,54.14925729201059,None,,,,,,,,,,,,,,,,,,,,,,,,,,,,,,,,,,,,,,,,,,,,001,2022_Mar_13_1118,task,2021.2.3,59.635937515316705,
stim/peuf_g.wav,3,7,31,2,,,,,,,,,,,,,,,,,,,,,54.66578537499299,None,54.66578537499299,None,54.66578537499299,None,54.66578537499299,None,54.66578537499299,None,54.66578537499299,None,54.66578537499299,None,54.43266512500122,None,1,0.5017383750237059,54.43266512500122,None,54.71597566249839,None,54.43266512500122,54.633147541986546,2.951111111111111,0.2310471659875475,54.96582866698736,None,54.96582866698736,None,,,,,,,,,,,,,,,,,,,,,,,,,,,,,,,,,,,,,,,,,,,,001,2022_Mar_13_1118,task,2021.2.3,59.635937515316705,
stim/feuf_g.wav,4,0,32,6,,,,,,,,,,,,,,,,,,,,,55.44897999998648,None,55.44897999998648,None,55.44897999998648,None,55.44897999998648,None,55.44897999998648,None,55.44897999998648,None,55.44897999998648,None,55.21591370800161,None,1,0.4465675829851534,55.21591370800161,None,55.49894241250295,None,55.21591370800161,55.41610041700187,2.951111111111111,0.23114987500593998,55.68257195799379,None,55.68257195799379,None,,,,,,,,,,,,,,,,,,,,,,,,,,,,,,,,,,,,,,,,,,,,001,2022_Mar_13_1118,task,2021.2.3,59.635937515316705,
stim/peuf_g.wav,4,1,33,2,,,,,,,,,,,,,,,,,,,,,56.165544791991124,None,56.165544791991124,None,56.165544791991124,None,56.165544791991124,None,56.165544791991124,None,56.165544791991124,None,56.165544791991124,None,55.93231520798872,None,1,0.47039349999977276,55.93231520798872,None,56.21567182950967,None,55.93231520798872,56.13241154199932,2.951111111111111,0.24708375000045635,56.432521624985384,None,56.432521624985384,None,,,,,,,,,,,,,,,,,,,,,,,,,,,,,,,,,,,,,,,,,,,,001,2022_Mar_13_1118,task,2021.2.3,59.635937515316705,
stim/pief_g.wav,4,2,34,1,,,,,,,,,,,,,,,,,,,,,56.93233237499953,None,56.93233237499953,None,56.93233237499953,None,56.93233237499953,None,56.93233237499953,None,56.93233237499953,None,56.93233237499953,None,56.69920508298674,None,1,0.44426408302388154,56.69920508298674,None,56.98238082949829,None,56.69920508298674,56.89960366699961,2.951111111111111,0.26445212500402704,57.16615254199132,None,57.16615254199132,None,,,,,,,,,,,,,,,,,,,,,,,,,,,,,,,,,,,,,,,,,,,,001,2022_Mar_13_1118,task,2021.2.3,59.635937515316705,
stim/fief_g.wav,4,3,35,5,,,,,,,,,,,,,,,,,,,,,57.68279729198548,None,57.68279729198548,None,57.68279729198548,None,57.68279729198548,None,57.68279729198548,None,57.68279729198548,None,57.68279729198548,None,57.44942383299349,None,1,0.3520891660009511,57.44942383299349,None,57.73257712048653,None,57.44942383299349,57.649847624998074,2.951111111111111,0.29814720901777036,57.83249425000395,None,57.83249425000395,None,,,,,,,,,,,,,,,,,,,,,,,,,,,,,,,,,,,,,,,,,,,,001,2022_Mar_13_1118,task,2021.2.3,59.635937515316705,
stim/fof_g.wav,4,4,36,4,,,,,,,,,,,,,,,,,,,,,58.382591583009344,None,58.382591583009344,None,58.382591583009344,None,58.382591583009344,None,58.382591583009344,None,58.382591583009344,None,58.382591583009344,None,58.14930537500186,None,1,0.2925792080059182,58.14930537500186,None,58.432613079503064,None,58.14930537500186,58.34910112500074,2.951111111111111,0.33085158400353976,58.465945500007365,None,58.465945500007365,None,,,,,,,,,,,,,,,,,,,,,,,,,,,,,,,,,,,,,,,,,,,,001,2022_Mar_13_1118,task,2021.2.3,59.635937515316705,
stim/p_schwa_g.wav,4,5,37,3,,,,,,,,,,,,,,,,,,,,,59.049425417004386,None,59.049425417004386,None,59.049425417004386,None,59.049425417004386,None,59.049425417004386,None,59.049425417004386,None,59.049425417004386,None,58.81587354198564,None,1,0.3025735419942066,58.81587354198564,None,59.09893349550257,None,58.81587354198564,59.016834957990795,2.951111111111111,0.31542254201485775,59.14918383301119,None,59.14918383301119,None,,,,,,,,,,,,,,,,,,,,,,,,,,,,,,,,,,,,,,,,,,,,001,2022_Mar_13_1118,task,2021.2.3,59.635937515316705,
stim/pof_g.wav,4,6,38,0,,,,,,,,,,,,,,,,,,,,,59.71561962499982,None,59.71561962499982,None,59.71561962499982,None,59.71561962499982,None,59.71561962499982,None,59.71561962499982,None,59.71561962499982,None,59.48233633299242,None,1,0.2552483330073301,59.48233633299242,None,59.76639557950839,None,59.48233633299242,59.683578958007274,2.951111111111111,0.38373808399774134,59.76596245798282,None,59.76596245798282,None,,,,,,,,,,,,,,,,,,,,,,,,,,,,,,,,,,,,,,,,,,,,001,2022_Mar_13_1118,task,2021.2.3,59.635937515316705,
stim/f_schwa_g.wav,4,7,39,7,,,,,,,,,,,,,,,,,,,,,60.39946729200892,None,60.39946729200892,None,60.39946729200892,None,60.39946729200892,None,60.39946729200892,None,60.39946729200892,None,60.39946729200892,None,60.16569049999816,None,1,0.28179824899416417,60.16569049999816,None,60.44935832950578,None,60.16569049999816,60.36680962500395,2.951111111111111,0.34769729198887944,60.46593874998507,None,60.46593874998507,None,,,,,,,,,,,,,,,,,,,,,,,,,,,,,,,,,,,,,,,,,,,,001,2022_Mar_13_1118,task,2021.2.3,59.635937515316705,
,,,,,,,,,,,,,,,,,,,,,,,,,,,,,,,,,,,,,,,,,,,,,,,,,,,,,,,space,3.037567999010207,60.831980957998894,None,,,,,,,,,,,,,,,,,,,,,,,,,,,,,,,,,,,,,,,,001,2022_Mar_13_1118,task,2021.2.3,59.635937515316705,
stim/pif_f.wav,,,,,0,0,0,1,,,,,,,,,,,,,,,,,,,,,,,,,,,,,,,,,,,,,,,,,,,,,,,,,,,60.831980957998894,None,64.1492605000094,None,64.1492605000094,None,64.1492605000094,None,64.1492605000094,None,64.1492605000094,None,64.1492605000094,None,64.1492605000094,None,63.9023512499989,None,1,0.7753103750001173,63.9023512499989,None,64.19859416248218,None,63.9023512499989,64.11568304200773,2.951111111111111,0.48089345800690353,64.70061875000829,None,64.70061875000829,None,,,,,,,,001,2022_Mar_13_1118,task,2021.2.3,59.635937515316705,
stim/peuf_f.wav,,,,,0,1,1,2,,,,,,,,,,,,,,,,,,,,,,,,,,,,,,,,,,,,,,,,,,,,,,,,,,,,,65.43322141698445,None,65.43322141698445,None,65.43322141698445,None,65.43322141698445,None,65.43322141698445,None,65.43322141698445,None,65.43322141698445,None,65.19932024998707,None,1,0.41715641602058895,65.19932024998707,None,65.48255707950156,None,65.19932024998707,65.39924154200708,2.951111111111111,0.3315553329885006,65.64936750000925,None,65.64936750000925,None,,,,,,,,001,2022_Mar_13_1118,task,2021.2.3,59.635937515316705,
stim/f_schwa_f.wav,,,,,0,2,2,7,,,,,,,,,,,,,,,,,,,,,,,,,,,,,,,,,,,,,,,,,,,,,,,,,,,,,66.2328151249967,None,66.2328151249967,None,66.2328151249967,None,66.2328151249967,None,66.2328151249967,None,66.2328151249967,None,66.2328151249967,None,65.99914154200815,None,1,0.3883333329868037,65.99914154200815,None,66.28256732950976,None,65.99914154200815,66.19897683299496,2.951111111111111,0.2979591250186786,66.41617287500412,None,66.41617287500412,None,,,,,,,,001,2022_Mar_13_1118,task,2021.2.3,59.635937515316705,
stim/fof_f.wav,,,,,0,3,3,4,,,,,,,,,,,,,,,,,,,,,,,,,,,,,,,,,,,,,,,,,,,,,,,,,,,,,66.96582874999149,None,66.96582874999149,None,66.96582874999149,None,66.96582874999149,None,66.96582874999149,None,66.96582874999149,None,66.96582874999149,None,66.73231358299381,None,1,0.3933157910068985,66.73231358299381,None,67.01568545448535,None,66.73231358299381,66.93277833299362,2.951111111111111,0.33134533299016766,67.14905841700966,None,67.14905841700966,None,,,,,,,,001,2022_Mar_13_1118,task,2021.2.3,59.635937515316705,
stim/p_schwa_f.wav,,,,,0,4,4,3,,,,,,,,,,,,,,,,,,,,,,,,,,,,,,,,,,,,,,,,,,,,,,,,,,,,,67.73268408299191,None,67.73268408299191,None,67.73268408299191,None,67.73268408299191,None,67.73268408299191,None,67.73268408299191,None,67.73268408299191,None,67.49926245800452,None,1,0.36833774999831803,67.49926245800452,None,67.78269237050844,None,67.49926245800452,67.69987650000257,2.951111111111111,0.3480607919918839,67.89925333298743,None,67.89925333298743,None,,,,,,,,001,2022_Mar_13_1118,task,2021.2.3,59.635937515316705,
stim/pof_f.wav,,,,,0,5,5,0,,,,,,,,,,,,,,,,,,,,,,,,,,,,,,,,,,,,,,,,,,,,,,,,,,,,,68.50023616699036,None,68.50023616699036,None,68.50023616699036,None,68.50023616699036,None,68.50023616699036,None,68.50023616699036,None,68.50023616699036,None,68.26587075000862,None,1,0.39571408298797905,68.26587075000862,None,68.549372162504,None,68.26587075000862,68.46583358300268,2.951111111111111,0.28099862500675954,68.68267466698308,None,68.68267466698308,None,,,,,,,,001,2022_Mar_13_1118,task,2021.2.3,59.635937515316705,
stim/feuf_f.wav,,,,,0,6,6,6,,,,,,,,,,,,,,,,,,,,,,,,,,,,,,,,,,,,,,,,,,,,,,,,,,,,,69.21602287498536,None,69.21602287498536,None,69.21602287498536,None,69.21602287498536,None,69.21602287498536,None,69.21602287498536,None,69.21602287498536,None,68.9826586249983,None,1,0.4635264159878716,68.9826586249983,None,69.26600295448733,None,68.9826586249983,69.18237354198936,2.951111111111111,0.38143729098374024,69.46597587500582,None,69.46597587500582,None,,,,,,,,001,2022_Mar_13_1118,task,2021.2.3,59.635937515316705,
stim/fif_f.wav,,,,,0,7,7,5,,,,,,,,,,,,,,,,,,,,,,,,,,,,,,,,,,,,,,,,,,,,,,,,,,,,,70.09882549999747,None,70.09882549999747,None,70.09882549999747,None,70.09882549999747,None,70.09882549999747,None,70.09882549999747,None,70.09882549999747,None,69.86602049999055,None,1,0.3525120000122115,69.86602049999055,None,70.1493278704962,None,69.86602049999055,70.06626875000075,2.951111111111111,0.3479045839922037,70.24931512499461,None,70.24931512499461,None,,,,,,,,001,2022_Mar_13_1118,task,2021.2.3,59.635937515316705,
stim/pof_f.wav,,,,,1,0,8,0,,,,,,,,,,,,,,,,,,,,,,,,,,,,,,,,,,,,,,,,,,,,,,,,,,,,,70.84986795799341,None,70.84986795799341,None,70.84986795799341,None,70.84986795799341,None,70.84986795799341,None,70.84986795799341,None,70.84986795799341,None,70.61645020800643,None,1,0.3619654990034178,70.61645020800643,None,70.89976024549978,None,70.61645020800643,70.81675958298729,2.951111111111111,0.2813403749896679,70.99948008300271,None,70.99948008300271,None,,,,,,,,001,2022_Mar_13_1118,task,2021.2.3,59.635937515316705,
stim/fof_f.wav,,,,,1,1,9,4,,,,,,,,,,,,,,,,,,,,,,,,,,,,,,,,,,,,,,,,,,,,,,,,,,,,,71.53261224998278,None,71.53261224998278,None,71.53261224998278,None,71.53261224998278,None,71.53261224998278,None,71.53261224998278,None,71.53261224998278,None,71.29955845800578,None,1,0.36494129098718986,71.29955845800578,None,71.58294641250686,None,71.29955845800578,71.49920820799889,2.951111111111111,0.28130145801696926,71.68228579199058,None,71.68228579199058,None,,,,,,,,001,2022_Mar_13_1118,task,2021.2.3,59.635937515316705,
stim/f_schwa_f.wav,,,,,1,2,10,7,,,,,,,,,,,,,,,,,,,,,,,,,,,,,,,,,,,,,,,,,,,,,,,,,,,,,72.21602745799464,None,72.21602745799464,None,72.21602745799464,None,72.21602745799464,None,72.21602745799464,None,72.21602745799464,None,72.21602745799464,None,71.98281862499425,None,1,0.36990858300123364,71.98281862499425,None,72.26599966249486,None,71.98281862499425,72.18325070801075,2.951111111111111,0.2648568340227939,72.38313445801032,None,72.38313445801032,None,,,,,,,,001,2022_Mar_13_1118,task,2021.2.3,59.635937515316705,
stim/p_schwa_f.wav,,,,,1,3,11,3,,,,,,,,,,,,,,,,,,,,,,,,,,,,,,,,,,,,,,,,,,,,,,,,,,,,,72.8993828750099,None,72.8993828750099,None,72.8993828750099,None,72.8993828750099,None,72.8993828750099,None,72.8993828750099,None,72.8993828750099,None,72.66595666698413,None,1,0.3385626660019625,72.66595666698413,None,72.94920916250848,None,72.66595666698413,72.86620254200534,2.951111111111111,0.26490204100264236,73.032951125002,None,73.032951125002,None,,,,,,,,001,2022_Mar_13_1118,task,2021.2.3,59.635937515316705,
stim/fif_f.wav,,,,,1,4,12,5,,,,,,,,,,,,,,,,,,,,,,,,,,,,,,,,,,,,,,,,,,,,,,,,,,,,,73.54979991700384,None,73.54979991700384,None,73.54979991700384,None,73.54979991700384,None,73.54979991700384,None,73.54979991700384,None,73.54979991700384,None,73.31607879200601,None,1,0.32348595798248425,73.31607879200601,None,73.59963899549038,None,73.31607879200601,73.51627441699384,2.951111111111111,0.3145252919930499,73.66634624998551,None,73.66634624998551,None,,,,,,,,001,2022_Mar_13_1118,task,2021.2.3,59.635937515316705,
stim/feuf_f.wav,,,,,1,5,13,6,,,,,,,,,,,,,,,,,,,,,,,,,,,,,,,,,,,,,,,,,,,,,,,,,,,,,74.23267862500506,None,74.23267862500506,None,74.23267862500506,None,74.23267862500506,None,74.23267862500506,None,74.23267862500506,None,74.23267862500506,None,73.99877720800578,None,1,0.2987030830117874,73.99877720800578,None,74.28246391248248,None,73.99877720800578,74.1997686669929,2.951111111111111,0.29805983300320804,74.31626145800692,None,74.31626145800692,None,,,,,,,,001,2022_Mar_13_1118,task,2021.2.3,59.635937515316705,
stim/pif_f.wav,,,,,1,6,14,1,,,,,,,,,,,,,,,,,,,,,,,,,,,,,,,,,,,,,,,,,,,,,,,,,,,,,None,None,None,None,None,None,None,None,None,None,None,None,None,None,74.6328778330062,None,1,0.1335170829843264,74.6328778330062,None,None,None,74.6328778330062,None,2.951111111111111,0.4136240420048125,74.78301945800195,None,74.78301945800195,None,,,,,,,,001,2022_Mar_13_1118,task,2021.2.3,59.635937515316705,
stim/peuf_f.wav,,,,,1,7,15,2,,,,,,,,,,,,,,,,,,,,,,,,,,,,,,,,,,,,,,,,,,,,,,,,,,,,,None,None,None,None,None,None,None,None,None,None,None,None,None,None,75.2164169579919,None,1,0.12111529099638574,75.2164169579919,None,None,None,75.2164169579919,None,2.951111111111111,0.34746962500503287,75.36629720800556,None,75.36629720800556,None,,,,,,,,001,2022_Mar_13_1118,task,2021.2.3,59.635937515316705,
stim/peuf_f.wav,,,,,2,0,16,2,,,,,,,,,,,,,,,,,,,,,,,,,,,,,,,,,,,,,,,,,,,,,,,,,,,,,None,None,None,None,None,None,None,None,None,None,None,None,None,None,75.73286333298893,None,1,0.1807618330058176,75.73286333298893,None,None,None,75.73286333298893,None,2.951111111111111,0.28049654100323096,75.93295108299935,None,75.93295108299935,None,,,,,,,,001,2022_Mar_13_1118,task,2021.2.3,59.635937515316705,
stim/p_schwa_f.wav,,,,,2,1,17,3,,,,,,,,,,,,,,,,,,,,,,,,,,,,,,,,,,,,,,,,,,,,,,,,,,,,,76.46691278750367,None,76.46691278750367,None,76.46691278750367,None,76.46691278750367,None,76.46691278750367,None,76.46691278750367,None,76.46691278750367,None,76.23280437500216,None,1,0.21386170797632076,76.23280437500216,None,None,None,76.23280437500216,76.43314524999005,2.951111111111111,0.2803207919932902,76.46638758300105,None,76.46638758300105,None,,,,,,,,001,2022_Mar_13_1118,task,2021.2.3,59.635937515316705,
stim/f_schwa_f.wav,,,,,2,2,18,7,,,,,,,,,,,,,,,,,,,,,,,,,,,,,,,,,,,,,,,,,,,,,,,,,,,,,None,None,None,None,None,None,None,None,None,None,None,None,None,None,76.76620970800286,None,1,0.12421816700953059,76.76620970800286,None,None,None,76.76620970800286,None,2.951111111111111,0.36404899999615736,76.91621450000093,None,76.91621450000093,None,,,,,,,,001,2022_Mar_13_1118,task,2021.2.3,59.635937515316705,
stim/fof_f.wav,,,,,2,3,19,4,,,,,,,,,,,,,,,,,,,,,,,,,,,,,,,,,,,,,,,,,,,,,,,,,,,,,77.5332795830036,None,77.5332795830036,None,77.5332795830036,None,77.5332795830036,None,77.5332795830036,None,77.5332795830036,None,77.5332795830036,None,77.2993345829891,None,1,0.23027095801080577,77.2993345829891,None,None,None,77.2993345829891,77.5000017079874,2.951111111111111,0.2970822090283036,77.54947579200962,None,77.54947579200962,None,,,,,,,,001,2022_Mar_13_1118,task,2021.2.3,59.635937515316705,
stim/fif_f.wav,,,,,2,4,20,5,,,,,,,,,,,,,,,,,,,,,,,,,,,,,,,,,,,,,,,,,,,,,,,,,,,,,78.09943945799023,None,78.09943945799023,None,78.09943945799023,None,78.09943945799023,None,78.09943945799023,None,78.09943945799023,None,78.09943945799023,None,77.86618087498937,None,1,0.2522929580009077,77.86618087498937,None,78.14943387048842,None,77.86618087498937,78.06618704198627,2.951111111111111,0.33141441698535345,78.14934908298892,None,78.14934908298892,None,,,,,,,,001,2022_Mar_13_1118,task,2021.2.3,59.635937515316705,
stim/feuf_f.wav,,,,,2,5,21,6,,,,,,,,,,,,,,,,,,,,,,,,,,,,,,,,,,,,,,,,,,,,,,,,,,,,,78.73292862498784,None,78.73292862498784,None,78.73292862498784,None,78.73292862498784,None,78.73292862498784,None,78.73292862498784,None,78.73292862498784,None,78.49975024999003,None,1,0.2449864580121357,78.49975024999003,None,None,None,78.49975024999003,78.7001004999911,2.951111111111111,0.36479670900735073,78.76636412501102,None,78.76636412501102,None,,,,,,,,001,2022_Mar_13_1118,task,2021.2.3,59.635937515316705,
stim/pif_f.wav,,,,,2,6,22,1,,,,,,,,,,,,,,,,,,,,,,,,,,,,,,,,,,,,,,,,,,,,,,,,,,,,,79.38277454199851,None,79.38277454199851,None,79.38277454199851,None,79.38277454199851,None,79.38277454199851,None,79.38277454199851,None,79.38277454199851,None,79.14948500000173,None,1,0.27394512499449775,79.14948500000173,None,79.43271024549321,None,79.14948500000173,79.34999354201136,2.951111111111111,0.33159454198903404,79.44943008298287,None,79.44943008298287,None,,,,,,,,001,2022_Mar_13_1118,task,2021.2.3,59.635937515316705,
stim/pof_f.wav,,,,,2,7,23,0,,,,,,,,,,,,,,,,,,,,,,,,,,,,,,,,,,,,,,,,,,,,,,,,,,,,,80.03303033299744,None,80.03303033299744,None,80.03303033299744,None,80.03303033299744,None,80.03303033299744,None,80.03303033299744,None,80.03303033299744,None,79.79967354200198,None,1,0.3268342489900533,79.79967354200198,None,80.08263128749385,None,79.79967354200198,79.99955029200646,2.951111111111111,0.3146557910076808,80.14994404200115,None,80.14994404200115,None,,,,,,,,001,2022_Mar_13_1118,task,2021.2.3,59.635937515316705,
stim/f_schwa_f.wav,,,,,3,0,24,7,,,,,,,,,,,,,,,,,,,,,,,,,,,,,,,,,,,,,,,,,,,,,,,,,,,,,None,None,None,None,None,None,None,None,None,None,None,None,None,None,80.48280674999114,None,1,0.12152016599429771,80.48280674999114,None,None,None,80.48280674999114,None,2.951111111111111,0.44795095900190063,80.63349174999166,None,80.63349174999166,None,,,,,,,,001,2022_Mar_13_1118,task,2021.2.3,59.635937515316705,
stim/fof_f.wav,,,,,3,1,25,4,,,,,,,,,,,,,,,,,,,,,,,,,,,,,,,,,,,,,,,,,,,,,,,,,,,,,None,None,None,None,None,None,None,None,None,None,None,None,None,None,81.09968833299354,None,1,0.036748957994859666,81.09968833299354,None,None,None,81.09968833299354,None,2.951111111111111,0.33125133300200105,81.1666400420072,None,81.1666400420072,None,,,,,,,,001,2022_Mar_13_1118,task,2021.2.3,59.635937515316705,
stim/pif_f.wav,,,,,3,2,26,1,,,,,,,,,,,,,,,,,,,,,,,,,,,,,,,,,,,,,,,,,,,,,,,,,,,,,81.74939816698316,None,81.74939816698316,None,81.74939816698316,None,81.74939816698316,None,81.74939816698316,None,81.74939816698316,None,81.74939816698316,None,81.51628733298276,None,1,0.2740448739787098,81.51628733298276,None,81.7996483295079,None,81.51628733298276,81.71658658300294,2.951111111111111,0.29787799998302944,81.81644975001109,None,81.81644975001109,None,,,,,,,,001,2022_Mar_13_1118,task,2021.2.3,59.635937515316705,
stim/feuf_f.wav,,,,,3,3,27,6,,,,,,,,,,,,,,,,,,,,,,,,,,,,,,,,,,,,,,,,,,,,,,,,,,,,,82.36644295800943,None,82.36644295800943,None,82.36644295800943,None,82.36644295800943,None,82.36644295800943,None,82.36644295800943,None,82.36644295800943,None,82.13314858300146,None,1,0.26940304099116474,82.13314858300146,None,82.41653291250404,None,82.13314858300146,82.33298908299184,2.951111111111111,0.3142508330056444,82.43298312500701,None,82.43298312500701,None,,,,,,,,001,2022_Mar_13_1118,task,2021.2.3,59.635937515316705,
stim/p_schwa_f.wav,,,,,3,4,28,3,,,,,,,,,,,,,,,,,,,,,,,,,,,,,,,,,,,,,,,,,,,,,,,,,,,,,83.0000116250012,None,83.0000116250012,None,83.0000116250012,None,83.0000116250012,None,83.0000116250012,None,83.0000116250012,None,83.0000116250012,None,82.76625083299587,None,1,0.3404344169830438,82.76625083299587,None,83.04963857949187,None,82.76625083299587,82.96684370801086,2.951111111111111,0.31416245899163187,83.13369895800133,None,83.13369895800133,None,,,,,,,,001,2022_Mar_13_1118,task,2021.2.3,59.635937515316705,
stim/pof_f.wav,,,,,3,5,29,0,,,,,,,,,,,,,,,,,,,,,,,,,,,,,,,,,,,,,,,,,,,,,,,,,,,,,83.69970408300287,None,83.69970408300287,None,83.69970408300287,None,83.69970408300287,None,83.69970408300287,None,83.69970408300287,None,83.69970408300287,None,83.466617166996,None,1,0.3338543749996461,83.466617166996,None,83.74982170450093,None,83.466617166996,83.6658390419907,2.951111111111111,0.2977819170046132,83.8331558330101,None,83.8331558330101,None,,,,,,,,001,2022_Mar_13_1118,task,2021.2.3,59.635937515316705,
stim/fif_f.wav,,,,,3,6,30,5,,,,,,,,,,,,,,,,,,,,,,,,,,,,,,,,,,,,,,,,,,,,,,,,,,,,,84.38367479198496,None,84.38367479198496,None,84.38367479198496,None,84.38367479198496,None,84.38367479198496,None,84.38367479198496,None,84.38367479198496,None,84.14973720800481,None,1,0.35191045800456777,84.14973720800481,None,84.43338478750374,None,84.14973720800481,84.35012237500632,2.951111111111111,0.28127820798545144,84.53332654200494,None,84.53332654200494,None,,,,,,,,001,2022_Mar_13_1118,task,2021.2.3,59.635937515316705,
stim/peuf_f.wav,,,,,3,7,31,2,,,,,,,,,,,,,,,,,,,,,,,,,,,,,,,,,,,,,,,,,,,,,,,,,,,,,85.06658754200907,None,85.06658754200907,None,85.06658754200907,None,85.06658754200907,None,85.06658754200907,None,85.06658754200907,None,85.06658754200907,None,84.83288554201135,None,1,0.3916244170104619,84.83288554201135,None,85.11634478750929,None,84.83288554201135,85.03406199999154,2.951111111111111,0.28105329201207496,85.24994329200126,None,85.24994329200126,None,,,,,,,,001,2022_Mar_13_1118,task,2021.2.3,59.635937515316705,
stim/peuf_f.wav,,,,,4,0,32,2,,,,,,,,,,,,,,,,,,,,,,,,,,,,,,,,,,,,,,,,,,,,,,,,,,,,,85.78310212498764,None,85.78310212498764,None,85.78310212498764,None,85.78310212498764,None,85.78310212498764,None,85.78310212498764,None,85.78310212498764,None,85.54986279198783,None,1,0.40254904099856503,85.54986279198783,None,85.83345362050167,None,85.54986279198783,85.75012579199392,2.951111111111111,0.2819906669901684,85.98346225000569,None,85.98346225000569,None,,,,,,,,001,2022_Mar_13_1118,task,2021.2.3,59.635937515316705,
stim/fof_f.wav,,,,,4,1,33,4,,,,,,,,,,,,,,,,,,,,,,,,,,,,,,,,,,,,,,,,,,,,,,,,,,,,,86.51679324998986,None,86.51679324998986,None,86.51679324998986,None,86.51679324998986,None,86.51679324998986,None,86.51679324998986,None,86.51679324998986,None,86.28292454199982,None,1,0.3855543329846114,86.28292454199982,None,86.56650866248819,None,86.28292454199982,86.48412433298654,2.951111111111111,0.3152170829998795,86.69972679199418,None,86.69972679199418,None,,,,,,,,001,2022_Mar_13_1118,task,2021.2.3,59.635937515316705,
stim/p_schwa_f.wav,,,,,4,2,34,3,,,,,,,,,,,,,,,,,,,,,,,,,,,,,,,,,,,,,,,,,,,,,,,,,,,,,87.26698662500712,None,87.26698662500712,None,87.26698662500712,None,87.26698662500712,None,87.26698662500712,None,87.26698662500712,None,87.26698662500712,None,87.03306049999082,None,1,0.2554410419834312,87.03306049999082,None,87.31632112048973,None,87.03306049999082,87.23410837500705,2.951111111111111,0.3649952079867944,87.31633299999521,None,87.31633299999521,None,,,,,,,,001,2022_Mar_13_1118,task,2021.2.3,59.635937515316705,
stim/pif_f.wav,,,,,4,3,35,1,,,,,,,,,,,,,,,,,,,,,,,,,,,,,,,,,,,,,,,,,,,,,,,,,,,,,87.93285725000896,None,87.93285725000896,None,87.93285725000896,None,87.93285725000896,None,87.93285725000896,None,87.93285725000896,None,87.93285725000896,None,87.6998204170086,None,1,0.24987733300076798,87.6998204170086,None,None,None,87.6998204170086,87.90020745800575,2.951111111111111,0.3817784999846481,87.96668362501077,None,87.96668362501077,None,,,,,,,,001,2022_Mar_13_1118,task,2021.2.3,59.635937515316705,
stim/feuf_f.wav,,,,,4,4,36,6,,,,,,,,,,,,,,,,,,,,,,,,,,,,,,,,,,,,,,,,,,,,,,,,,,,,,88.60057325000525,None,88.60057325000525,None,88.60057325000525,None,88.60057325000525,None,88.60057325000525,None,88.60057325000525,None,88.60057325000525,None,88.36641054198844,None,1,0.3350940410164185,88.36641054198844,None,88.6498120374832,None,88.36641054198844,88.56734133299324,2.951111111111111,0.28169516698108055,88.73327895801049,None,88.73327895801049,None,,,,,,,,001,2022_Mar_13_1118,task,2021.2.3,59.635937515316705,
stim/f_schwa_f.wav,,,,,4,5,37,7,,,,,,,,,,,,,,,,,,,,,,,,,,,,,,,,,,,,,,,,,,,,,,,,,,,,,89.26695908300462,None,89.26695908300462,None,89.26695908300462,None,89.26695908300462,None,89.26695908300462,None,89.26695908300462,None,89.26695908300462,None,89.0331489169912,None,1,0.3764118750113994,89.0331489169912,None,89.3167060375068,None,89.0331489169912,89.23384529200848,2.951111111111111,0.3141454999858979,89.43364491700777,None,89.43364491700777,None,,,,,,,,001,2022_Mar_13_1118,task,2021.2.3,59.635937515316705,
stim/pof_f.wav,,,,,4,6,38,0,,,,,,,,,,,,,,,,,,,,,,,,,,,,,,,,,,,,,,,,,,,,,,,,,,,,,89.99981429200852,None,89.99981429200852,None,89.99981429200852,None,89.99981429200852,None,89.99981429200852,None,89.99981429200852,None,89.99981429200852,None,89.76645366699086,None,1,0.41714408301049843,89.76645366699086,None,90.04953057948441,None,89.76645366699086,89.96732850000262,2.951111111111111,0.28155954100657254,90.21678245801013,None,90.21678245801013,None,,,,,,,,001,2022_Mar_13_1118,task,2021.2.3,59.635937515316705,
stim/fif_f.wav,,,,,4,7,39,5,,,,,,,,,,,,,,,,,,,,,,,,,,,,,,,,,,,,,,,,,,,,,,,,,,,,,90.75036395800998,None,90.75036395800998,None,90.75036395800998,None,90.75036395800998,None,90.75036395800998,None,90.75036395800998,None,90.75036395800998,None,90.51668749999953,None,1,0.37980279099429026,90.51668749999953,None,90.80004320448788,None,90.51668749999953,90.71640141698299,2.951111111111111,0.3316117500071414,90.9166381249961,None,90.9166381249961,None,,,,,,,,001,2022_Mar_13_1118,task,2021.2.3,59.635937515316705,
,,,,,,,,,,,,,,,,,,,,,,,,,,,,,,,,,,,,,,,,,,,,,,,,,,,,,,,,,,,,,,,,,,,,,,,,,,,,,,,,,,,,,,,,,,,space,2.100928790983744,91.2665089170041,None,,,,001,2022_Mar_13_1118,task,2021.2.3,59.635937515316705,
,,,,,,,,,,,,,,,,,,,,,,,,,,,,,,,,,,,,,,,,,,,,,,,,,,,,,,,,,,,,,,,,,,,,,,,,,,,,,,,,,,,,,,,,,,,,,,,91.2665089170041,None,,,,,,,
