key_resp.keys,key_resp.rt,key_resp_2.keys,key_resp_2.rt,slider.response,slider.rt,trials.thisRepN,trials.thisTrialN,trials.thisN,trials.thisIndex,trials.ran,stim,participant,session,date,expName,psychopyVersion,OS,frameRate,key_resp_trial.keys,key_resp_trial.corr,key_resp_trial.rt,trials_2.thisRepN,trials_2.thisTrialN,trials_2.thisN,trials_2.thisIndex,trials_2.ran,stim1,stim2,distance,isCorrect
space,29.509,6,25.852,3.251851852,7.643,0,0,0,0,1,stim/f_schwa_g.wav,,001,2022-03-09_15h58.04.806,vct_new,2021.2.3,Linux x86_64,59.95203837,,,,,,,,,,,,
,,1,6.857,3.988888889,3.3,0,1,1,5,1,stim/paf_g.wav,,001,2022-03-09_15h58.04.806,vct_new,2021.2.3,Linux x86_64,59.95203837,,,,,,,,,,,,
,,2,9.493,4.022222222,1.153,0,2,2,7,1,stim/pof_g.wav,,001,2022-03-09_15h58.04.806,vct_new,2021.2.3,Linux x86_64,59.95203837,,,,,,,,,,,,
,,2,13.791,3.274074074,1.46,0,3,3,3,1,stim/fof_g.wav,,001,2022-03-09_15h58.04.806,vct_new,2021.2.3,Linux x86_64,59.95203837,,,,,,,,,,,,
,,4,8.628,2.603703704,2.33,0,4,4,4,1,stim/p_schwa_g.wav,,001,2022-03-09_15h58.04.806,vct_new,2021.2.3,Linux x86_64,59.95203837,,,,,,,,,,,,
,,3,3.294,4.222222222,1.852,0,5,5,2,1,stim/fif_g.wav,,001,2022-03-09_15h58.04.806,vct_new,2021.2.3,Linux x86_64,59.95203837,,,,,,,,,,,,
,,3,2.177,4.655555556,1.36,0,6,6,6,1,stim/piep_g.wav,,001,2022-03-09_15h58.04.806,vct_new,2021.2.3,Linux x86_64,59.95203837,,,,,,,,,,,,
,,1,3.029,3.848148148,2.085,0,7,7,1,1,stim/faf_g.wav,,001,2022-03-09_15h58.04.806,vct_new,2021.2.3,Linux x86_64,59.95203837,,,,,,,,,,,,
,,1,3.777,3.877777778,1.294,1,0,8,1,1,stim/faf_g.wav,,001,2022-03-09_15h58.04.806,vct_new,2021.2.3,Linux x86_64,59.95203837,,,,,,,,,,,,
,,6,8.892,2.988888889,1.251,1,1,9,4,1,stim/p_schwa_g.wav,,001,2022-03-09_15h58.04.806,vct_new,2021.2.3,Linux x86_64,59.95203837,,,,,,,,,,,,
,,5,10.806,3.185185185,1.686,1,2,10,7,1,stim/pof_g.wav,,001,2022-03-09_15h58.04.806,vct_new,2021.2.3,Linux x86_64,59.95203837,,,,,,,,,,,,
,,2,12.672,2.962962963,0.884,1,3,11,5,1,stim/paf_g.wav,,001,2022-03-09_15h58.04.806,vct_new,2021.2.3,Linux x86_64,59.95203837,,,,,,,,,,,,
,,3,2.29,3.418518519,3.527,1,4,12,6,1,stim/piep_g.wav,,001,2022-03-09_15h58.04.806,vct_new,2021.2.3,Linux x86_64,59.95203837,,,,,,,,,,,,
,,2,7.025,2.4,1.269,1,5,13,3,1,stim/fof_g.wav,,001,2022-03-09_15h58.04.806,vct_new,2021.2.3,Linux x86_64,59.95203837,,,,,,,,,,,,
,,7,2.791,4.066666667,1.343,1,6,14,2,1,stim/fif_g.wav,,001,2022-03-09_15h58.04.806,vct_new,2021.2.3,Linux x86_64,59.95203837,,,,,,,,,,,,
,,1,12.277,1.540740741,1.569,1,7,15,0,1,stim/f_schwa_g.wav,,001,2022-03-09_15h58.04.806,vct_new,2021.2.3,Linux x86_64,59.95203837,,,,,,,,,,,,
,,5,18.042,3.011111111,1.568,2,0,16,7,1,stim/pof_g.wav,,001,2022-03-09_15h58.04.806,vct_new,2021.2.3,Linux x86_64,59.95203837,,,,,,,,,,,,
,,1,2.657,3.1,0.952,2,1,17,5,1,stim/paf_g.wav,,001,2022-03-09_15h58.04.806,vct_new,2021.2.3,Linux x86_64,59.95203837,,,,,,,,,,,,
,,7,3.209,4.385185185,6.004,2,2,18,6,1,stim/piep_g.wav,,001,2022-03-09_15h58.04.806,vct_new,2021.2.3,Linux x86_64,59.95203837,,,,,,,,,,,,
,,7,2.354,4.581481481,1.247,2,3,19,2,1,stim/fif_g.wav,,001,2022-03-09_15h58.04.806,vct_new,2021.2.3,Linux x86_64,59.95203837,,,,,,,,,,,,
,,6,8.711,3.074074074,1.701,2,4,20,4,1,stim/p_schwa_g.wav,,001,2022-03-09_15h58.04.806,vct_new,2021.2.3,Linux x86_64,59.95203837,,,,,,,,,,,,
,,2,5.308,2.377777778,1.581,2,5,21,3,1,stim/fof_g.wav,,001,2022-03-09_15h58.04.806,vct_new,2021.2.3,Linux x86_64,59.95203837,,,,,,,,,,,,
,,4,3.925,2.366666667,1.036,2,6,22,0,1,stim/f_schwa_g.wav,,001,2022-03-09_15h58.04.806,vct_new,2021.2.3,Linux x86_64,59.95203837,,,,,,,,,,,,
,,1,2.373,3.633333333,1.098,2,7,23,1,1,stim/faf_g.wav,,001,2022-03-09_15h58.04.806,vct_new,2021.2.3,Linux x86_64,59.95203837,,,,,,,,,,,,
,,,,,,,,,,,,,001,2022-03-09_15h58.04.806,vct_new,2021.2.3,Linux x86_64,59.95203837,1,0,1.413,0,0,0,32,1,stim/Step_5.wav,stim/Step_5.wav,0,0
,,,,,,,,,,,,,001,2022-03-09_15h58.04.806,vct_new,2021.2.3,Linux x86_64,59.95203837,0,0,1.08,0,1,1,20,1,stim/Step_3.wav,stim/Step_7.wav,-4,1
,,,,,,,,,,,,,001,2022-03-09_15h58.04.806,vct_new,2021.2.3,Linux x86_64,59.95203837,1,0,1.363,0,2,2,40,1,stim/Step_6.wav,stim/Step_6.wav,0,0
,,,,,,,,,,,,,001,2022-03-09_15h58.04.806,vct_new,2021.2.3,Linux x86_64,59.95203837,0,0,1.075,0,3,3,28,1,stim/Step_5.wav,stim/Step_1.wav,4,1
,,,,,,,,,,,,,001,2022-03-09_15h58.04.806,vct_new,2021.2.3,Linux x86_64,59.95203837,1,1,1.012,0,4,4,47,1,stim/Step_7.wav,stim/Step_6.wav,1,1
,,,,,,,,,,,,,001,2022-03-09_15h58.04.806,vct_new,2021.2.3,Linux x86_64,59.95203837,0,0,0.932,0,5,5,19,1,stim/Step_3.wav,stim/Step_6.wav,-3,1
,,,,,,,,,,,,,001,2022-03-09_15h58.04.806,vct_new,2021.2.3,Linux x86_64,59.95203837,1,1,1.597,0,6,6,46,1,stim/Step_7.wav,stim/Step_5.wav,2,1
,,,,,,,,,,,,,001,2022-03-09_15h58.04.806,vct_new,2021.2.3,Linux x86_64,59.95203837,0,0,0.964,0,7,7,36,1,stim/Step_6.wav,stim/Step_2.wav,4,1
,,,,,,,,,,,,,001,2022-03-09_15h58.04.806,vct_new,2021.2.3,Linux x86_64,59.95203837,0,0,1.046,0,8,8,5,1,stim/Step_1.wav,stim/Step_6.wav,-5,1
,,,,,,,,,,,,,001,2022-03-09_15h58.04.806,vct_new,2021.2.3,Linux x86_64,59.95203837,1,1,1.114,0,9,9,7,1,stim/Step_2.wav,stim/Step_1.wav,1,1
,,,,,,,,,,,,,001,2022-03-09_15h58.04.806,vct_new,2021.2.3,Linux x86_64,59.95203837,1,0,1.148,0,10,10,16,1,stim/Step_3.wav,stim/Step_3.wav,0,0
,,,,,,,,,,,,,001,2022-03-09_15h58.04.806,vct_new,2021.2.3,Linux x86_64,59.95203837,1,0,1.256,0,11,11,24,1,stim/Step_4.wav,stim/Step_4.wav,0,0
,,,,,,,,,,,,,001,2022-03-09_15h58.04.806,vct_new,2021.2.3,Linux x86_64,59.95203837,0,0,0.822,0,12,12,12,1,stim/Step_2.wav,stim/Step_6.wav,-4,1
,,,,,,,,,,,,,001,2022-03-09_15h58.04.806,vct_new,2021.2.3,Linux x86_64,59.95203837,1,1,1.38,0,13,13,14,1,stim/Step_3.wav,stim/Step_1.wav,2,1
,,,,,,,,,,,,,001,2022-03-09_15h58.04.806,vct_new,2021.2.3,Linux x86_64,59.95203837,0,0,1.363,0,14,14,6,1,stim/Step_1.wav,stim/Step_7.wav,-6,1
,,,,,,,,,,,,,001,2022-03-09_15h58.04.806,vct_new,2021.2.3,Linux x86_64,59.95203837,0,0,0.911,0,15,15,35,1,stim/Step_6.wav,stim/Step_1.wav,5,1
,,,,,,,,,,,,,001,2022-03-09_15h58.04.806,vct_new,2021.2.3,Linux x86_64,59.95203837,1,1,0.828,0,16,16,1,1,stim/Step_1.wav,stim/Step_2.wav,-1,1
,,,,,,,,,,,,,001,2022-03-09_15h58.04.806,vct_new,2021.2.3,Linux x86_64,59.95203837,1,1,0.863,0,17,17,9,1,stim/Step_2.wav,stim/Step_3.wav,-1,1
,,,,,,,,,,,,,001,2022-03-09_15h58.04.806,vct_new,2021.2.3,Linux x86_64,59.95203837,1,1,0.909,0,18,18,17,1,stim/Step_3.wav,stim/Step_4.wav,-1,1
,,,,,,,,,,,,,001,2022-03-09_15h58.04.806,vct_new,2021.2.3,Linux x86_64,59.95203837,0,0,0.959,0,19,19,30,1,stim/Step_5.wav,stim/Step_3.wav,2,1
,,,,,,,,,,,,,001,2022-03-09_15h58.04.806,vct_new,2021.2.3,Linux x86_64,59.95203837,0,0,1.047,0,20,20,2,1,stim/Step_1.wav,stim/Step_3.wav,-2,1
,,,,,,,,,,,,,001,2022-03-09_15h58.04.806,vct_new,2021.2.3,Linux x86_64,59.95203837,1,0,0.894,0,21,21,0,1,stim/Step_1.wav,stim/Step_1.wav,0,0
,,,,,,,,,,,,,001,2022-03-09_15h58.04.806,vct_new,2021.2.3,Linux x86_64,59.95203837,1,1,1.207,0,22,22,21,1,stim/Step_4.wav,stim/Step_1.wav,3,1
,,,,,,,,,,,,,001,2022-03-09_15h58.04.806,vct_new,2021.2.3,Linux x86_64,59.95203837,0,0,0.814,0,23,23,27,1,stim/Step_4.wav,stim/Step_7.wav,-3,1
,,,,,,,,,,,,,001,2022-03-09_15h58.04.806,vct_new,2021.2.3,Linux x86_64,59.95203837,0,0,0.909,0,24,24,4,1,stim/Step_1.wav,stim/Step_5.wav,-4,1
,,,,,,,,,,,,,001,2022-03-09_15h58.04.806,vct_new,2021.2.3,Linux x86_64,59.95203837,0,0,0.861,0,25,25,26,1,stim/Step_4.wav,stim/Step_6.wav,-2,1
,,,,,,,,,,,,,001,2022-03-09_15h58.04.806,vct_new,2021.2.3,Linux x86_64,59.95203837,0,0,0.815,0,26,26,29,1,stim/Step_5.wav,stim/Step_2.wav,3,1
,,,,,,,,,,,,,001,2022-03-09_15h58.04.806,vct_new,2021.2.3,Linux x86_64,59.95203837,0,0,1.047,0,27,27,43,1,stim/Step_7.wav,stim/Step_2.wav,5,1
,,,,,,,,,,,,,001,2022-03-09_15h58.04.806,vct_new,2021.2.3,Linux x86_64,59.95203837,0,0,0.758,0,28,28,31,1,stim/Step_5.wav,stim/Step_4.wav,1,1
,,,,,,,,,,,,,001,2022-03-09_15h58.04.806,vct_new,2021.2.3,Linux x86_64,59.95203837,1,1,0.929,0,29,29,45,1,stim/Step_7.wav,stim/Step_4.wav,3,1
,,,,,,,,,,,,,001,2022-03-09_15h58.04.806,vct_new,2021.2.3,Linux x86_64,59.95203837,1,1,0.815,0,30,30,25,1,stim/Step_4.wav,stim/Step_5.wav,-1,1
,,,,,,,,,,,,,001,2022-03-09_15h58.04.806,vct_new,2021.2.3,Linux x86_64,59.95203837,1,0,1.008,0,31,31,8,1,stim/Step_2.wav,stim/Step_2.wav,0,0
,,,,,,,,,,,,,001,2022-03-09_15h58.04.806,vct_new,2021.2.3,Linux x86_64,59.95203837,0,0,0.797,0,32,32,37,1,stim/Step_6.wav,stim/Step_3.wav,3,1
,,,,,,,,,,,,,001,2022-03-09_15h58.04.806,vct_new,2021.2.3,Linux x86_64,59.95203837,0,0,1.346,0,33,33,18,1,stim/Step_3.wav,stim/Step_5.wav,-2,1
,,,,,,,,,,,,,001,2022-03-09_15h58.04.806,vct_new,2021.2.3,Linux x86_64,59.95203837,1,1,1.179,0,34,34,41,1,stim/Step_6.wav,stim/Step_7.wav,-1,1
,,,,,,,,,,,,,001,2022-03-09_15h58.04.806,vct_new,2021.2.3,Linux x86_64,59.95203837,0,0,0.843,0,35,35,11,1,stim/Step_2.wav,stim/Step_5.wav,-3,1
,,,,,,,,,,,,,001,2022-03-09_15h58.04.806,vct_new,2021.2.3,Linux x86_64,59.95203837,1,1,1.213,0,36,36,44,1,stim/Step_7.wav,stim/Step_3.wav,4,1
,,,,,,,,,,,,,001,2022-03-09_15h58.04.806,vct_new,2021.2.3,Linux x86_64,59.95203837,0,0,1.682,0,37,37,34,1,stim/Step_5.wav,stim/Step_7.wav,-2,1
,,,,,,,,,,,,,001,2022-03-09_15h58.04.806,vct_new,2021.2.3,Linux x86_64,59.95203837,0,0,0.852,0,38,38,13,1,stim/Step_2.wav,stim/Step_7.wav,-5,1
,,,,,,,,,,,,,001,2022-03-09_15h58.04.806,vct_new,2021.2.3,Linux x86_64,59.95203837,0,0,0.824,0,39,39,38,1,stim/Step_6.wav,stim/Step_4.wav,2,1
,,,,,,,,,,,,,001,2022-03-09_15h58.04.806,vct_new,2021.2.3,Linux x86_64,59.95203837,1,1,1.13,0,40,40,15,1,stim/Step_3.wav,stim/Step_2.wav,1,1
,,,,,,,,,,,,,001,2022-03-09_15h58.04.806,vct_new,2021.2.3,Linux x86_64,59.95203837,0,0,1.98,0,41,41,33,1,stim/Step_5.wav,stim/Step_6.wav,-1,1
,,,,,,,,,,,,,001,2022-03-09_15h58.04.806,vct_new,2021.2.3,Linux x86_64,59.95203837,0,0,0.859,0,42,42,10,1,stim/Step_2.wav,stim/Step_4.wav,-2,1
,,,,,,,,,,,,,001,2022-03-09_15h58.04.806,vct_new,2021.2.3,Linux x86_64,59.95203837,1,1,1.089,0,43,43,22,1,stim/Step_4.wav,stim/Step_2.wav,2,1
,,,,,,,,,,,,,001,2022-03-09_15h58.04.806,vct_new,2021.2.3,Linux x86_64,59.95203837,0,0,3.928,0,44,44,39,1,stim/Step_6.wav,stim/Step_5.wav,1,1
,,,,,,,,,,,,,001,2022-03-09_15h58.04.806,vct_new,2021.2.3,Linux x86_64,59.95203837,0,1,1.063,0,45,45,48,1,stim/Step_7.wav,stim/Step_7.wav,0,0
,,,,,,,,,,,,,001,2022-03-09_15h58.04.806,vct_new,2021.2.3,Linux x86_64,59.95203837,0,0,1.181,0,46,46,3,1,stim/Step_1.wav,stim/Step_4.wav,-3,1
,,,,,,,,,,,,,001,2022-03-09_15h58.04.806,vct_new,2021.2.3,Linux x86_64,59.95203837,0,0,1.058,0,47,47,42,1,stim/Step_7.wav,stim/Step_1.wav,6,1
,,,,,,,,,,,,,001,2022-03-09_15h58.04.806,vct_new,2021.2.3,Linux x86_64,59.95203837,1,1,0.777,0,48,48,23,1,stim/Step_4.wav,stim/Step_3.wav,1,1
,,,,,,,,,,,,,001,2022-03-09_15h58.04.806,vct_new,2021.2.3,Linux x86_64,59.95203837,1,1,0.792,1,0,49,15,1,stim/Step_3.wav,stim/Step_2.wav,1,1
,,,,,,,,,,,,,001,2022-03-09_15h58.04.806,vct_new,2021.2.3,Linux x86_64,59.95203837,1,1,0.807,1,1,50,14,1,stim/Step_3.wav,stim/Step_1.wav,2,1
,,,,,,,,,,,,,001,2022-03-09_15h58.04.806,vct_new,2021.2.3,Linux x86_64,59.95203837,0,0,0.68,1,2,51,38,1,stim/Step_6.wav,stim/Step_4.wav,2,1
,,,,,,,,,,,,,001,2022-03-09_15h58.04.806,vct_new,2021.2.3,Linux x86_64,59.95203837,1,1,1.731,1,3,52,22,1,stim/Step_4.wav,stim/Step_2.wav,2,1
,,,,,,,,,,,,,001,2022-03-09_15h58.04.806,vct_new,2021.2.3,Linux x86_64,59.95203837,0,0,0.859,1,4,53,36,1,stim/Step_6.wav,stim/Step_2.wav,4,1
,,,,,,,,,,,,,001,2022-03-09_15h58.04.806,vct_new,2021.2.3,Linux x86_64,59.95203837,1,1,1.173,1,5,54,39,1,stim/Step_6.wav,stim/Step_5.wav,1,1
,,,,,,,,,,,,,001,2022-03-09_15h58.04.806,vct_new,2021.2.3,Linux x86_64,59.95203837,0,0,0.86,1,6,55,13,1,stim/Step_2.wav,stim/Step_7.wav,-5,1
,,,,,,,,,,,,,001,2022-03-09_15h58.04.806,vct_new,2021.2.3,Linux x86_64,59.95203837,0,0,1.413,1,7,56,26,1,stim/Step_4.wav,stim/Step_6.wav,-2,1
,,,,,,,,,,,,,001,2022-03-09_15h58.04.806,vct_new,2021.2.3,Linux x86_64,59.95203837,1,1,0.922,1,8,57,1,1,stim/Step_1.wav,stim/Step_2.wav,-1,1
,,,,,,,,,,,,,001,2022-03-09_15h58.04.806,vct_new,2021.2.3,Linux x86_64,59.95203837,0,0,0.856,1,9,58,20,1,stim/Step_3.wav,stim/Step_7.wav,-4,1
,,,,,,,,,,,,,001,2022-03-09_15h58.04.806,vct_new,2021.2.3,Linux x86_64,59.95203837,0,0,1.279,1,10,59,28,1,stim/Step_5.wav,stim/Step_1.wav,4,1
,,,,,,,,,,,,,001,2022-03-09_15h58.04.806,vct_new,2021.2.3,Linux x86_64,59.95203837,1,0,1.196,1,11,60,40,1,stim/Step_6.wav,stim/Step_6.wav,0,0
,,,,,,,,,,,,,001,2022-03-09_15h58.04.806,vct_new,2021.2.3,Linux x86_64,59.95203837,1,1,0.741,1,12,61,33,1,stim/Step_5.wav,stim/Step_6.wav,-1,1
,,,,,,,,,,,,,001,2022-03-09_15h58.04.806,vct_new,2021.2.3,Linux x86_64,59.95203837,1,1,0.895,1,13,62,41,1,stim/Step_6.wav,stim/Step_7.wav,-1,1
,,,,,,,,,,,,,001,2022-03-09_15h58.04.806,vct_new,2021.2.3,Linux x86_64,59.95203837,0,0,0.831,1,14,63,29,1,stim/Step_5.wav,stim/Step_2.wav,3,1
,,,,,,,,,,,,,001,2022-03-09_15h58.04.806,vct_new,2021.2.3,Linux x86_64,59.95203837,1,1,1.073,1,15,64,46,1,stim/Step_7.wav,stim/Step_5.wav,2,1
,,,,,,,,,,,,,001,2022-03-09_15h58.04.806,vct_new,2021.2.3,Linux x86_64,59.95203837,0,0,0.712,1,16,65,42,1,stim/Step_7.wav,stim/Step_1.wav,6,1
,,,,,,,,,,,,,001,2022-03-09_15h58.04.806,vct_new,2021.2.3,Linux x86_64,59.95203837,1,1,0.975,1,17,66,9,1,stim/Step_2.wav,stim/Step_3.wav,-1,1
,,,,,,,,,,,,,001,2022-03-09_15h58.04.806,vct_new,2021.2.3,Linux x86_64,59.95203837,1,1,1.212,1,18,67,17,1,stim/Step_3.wav,stim/Step_4.wav,-1,1
,,,,,,,,,,,,,001,2022-03-09_15h58.04.806,vct_new,2021.2.3,Linux x86_64,59.95203837,1,1,1.278,1,19,68,45,1,stim/Step_7.wav,stim/Step_4.wav,3,1
,,,,,,,,,,,,,001,2022-03-09_15h58.04.806,vct_new,2021.2.3,Linux x86_64,59.95203837,0,0,0.614,1,20,69,5,1,stim/Step_1.wav,stim/Step_6.wav,-5,1
,,,,,,,,,,,,,001,2022-03-09_15h58.04.806,vct_new,2021.2.3,Linux x86_64,59.95203837,1,0,1.048,1,21,70,24,1,stim/Step_4.wav,stim/Step_4.wav,0,0
,,,,,,,,,,,,,001,2022-03-09_15h58.04.806,vct_new,2021.2.3,Linux x86_64,59.95203837,1,1,0.907,1,22,71,31,1,stim/Step_5.wav,stim/Step_4.wav,1,1
,,,,,,,,,,,,,001,2022-03-09_15h58.04.806,vct_new,2021.2.3,Linux x86_64,59.95203837,1,0,0.763,1,23,72,48,1,stim/Step_7.wav,stim/Step_7.wav,0,0
,,,,,,,,,,,,,001,2022-03-09_15h58.04.806,vct_new,2021.2.3,Linux x86_64,59.95203837,0,0,0.713,1,24,73,44,1,stim/Step_7.wav,stim/Step_3.wav,4,1
,,,,,,,,,,,,,001,2022-03-09_15h58.04.806,vct_new,2021.2.3,Linux x86_64,59.95203837,1,1,1.395,1,25,74,25,1,stim/Step_4.wav,stim/Step_5.wav,-1,1
,,,,,,,,,,,,,001,2022-03-09_15h58.04.806,vct_new,2021.2.3,Linux x86_64,59.95203837,0,0,0.862,1,26,75,4,1,stim/Step_1.wav,stim/Step_5.wav,-4,1
,,,,,,,,,,,,,001,2022-03-09_15h58.04.806,vct_new,2021.2.3,Linux x86_64,59.95203837,0,0,0.895,1,27,76,43,1,stim/Step_7.wav,stim/Step_2.wav,5,1
,,,,,,,,,,,,,001,2022-03-09_15h58.04.806,vct_new,2021.2.3,Linux x86_64,59.95203837,1,1,0.758,1,28,77,7,1,stim/Step_2.wav,stim/Step_1.wav,1,1
,,,,,,,,,,,,,001,2022-03-09_15h58.04.806,vct_new,2021.2.3,Linux x86_64,59.95203837,1,1,0.898,1,29,78,23,1,stim/Step_4.wav,stim/Step_3.wav,1,1
,,,,,,,,,,,,,001,2022-03-09_15h58.04.806,vct_new,2021.2.3,Linux x86_64,59.95203837,0,1,0.644,1,30,79,32,1,stim/Step_5.wav,stim/Step_5.wav,0,0
,,,,,,,,,,,,,001,2022-03-09_15h58.04.806,vct_new,2021.2.3,Linux x86_64,59.95203837,0,0,0.956,1,31,80,27,1,stim/Step_4.wav,stim/Step_7.wav,-3,1
,,,,,,,,,,,,,001,2022-03-09_15h58.04.806,vct_new,2021.2.3,Linux x86_64,59.95203837,1,1,2.859,1,32,81,47,1,stim/Step_7.wav,stim/Step_6.wav,1,1
,,,,,,,,,,,,,001,2022-03-09_15h58.04.806,vct_new,2021.2.3,Linux x86_64,59.95203837,0,0,0.791,1,33,82,35,1,stim/Step_6.wav,stim/Step_1.wav,5,1
,,,,,,,,,,,,,001,2022-03-09_15h58.04.806,vct_new,2021.2.3,Linux x86_64,59.95203837,0,0,0.777,1,34,83,18,1,stim/Step_3.wav,stim/Step_5.wav,-2,1
,,,,,,,,,,,,,001,2022-03-09_15h58.04.806,vct_new,2021.2.3,Linux x86_64,59.95203837,0,0,0.756,1,35,84,12,1,stim/Step_2.wav,stim/Step_6.wav,-4,1
,,,,,,,,,,,,,001,2022-03-09_15h58.04.806,vct_new,2021.2.3,Linux x86_64,59.95203837,0,0,1.231,1,36,85,21,1,stim/Step_4.wav,stim/Step_1.wav,3,1
,,,,,,,,,,,,,001,2022-03-09_15h58.04.806,vct_new,2021.2.3,Linux x86_64,59.95203837,1,1,0.876,1,37,86,2,1,stim/Step_1.wav,stim/Step_3.wav,-2,1
,,,,,,,,,,,,,001,2022-03-09_15h58.04.806,vct_new,2021.2.3,Linux x86_64,59.95203837,1,0,0.773,1,38,87,8,1,stim/Step_2.wav,stim/Step_2.wav,0,0
,,,,,,,,,,,,,001,2022-03-09_15h58.04.806,vct_new,2021.2.3,Linux x86_64,59.95203837,0,0,0.68,1,39,88,6,1,stim/Step_1.wav,stim/Step_7.wav,-6,1
,,,,,,,,,,,,,001,2022-03-09_15h58.04.806,vct_new,2021.2.3,Linux x86_64,59.95203837,0,0,1.63,1,40,89,3,1,stim/Step_1.wav,stim/Step_4.wav,-3,1
,,,,,,,,,,,,,001,2022-03-09_15h58.04.806,vct_new,2021.2.3,Linux x86_64,59.95203837,1,0,0.931,1,41,90,0,1,stim/Step_1.wav,stim/Step_1.wav,0,0
,,,,,,,,,,,,,001,2022-03-09_15h58.04.806,vct_new,2021.2.3,Linux x86_64,59.95203837,0,0,1.547,1,42,91,10,1,stim/Step_2.wav,stim/Step_4.wav,-2,1
,,,,,,,,,,,,,001,2022-03-09_15h58.04.806,vct_new,2021.2.3,Linux x86_64,59.95203837,0,0,1.462,1,43,92,34,1,stim/Step_5.wav,stim/Step_7.wav,-2,1
,,,,,,,,,,,,,001,2022-03-09_15h58.04.806,vct_new,2021.2.3,Linux x86_64,59.95203837,0,0,1.093,1,44,93,30,1,stim/Step_5.wav,stim/Step_3.wav,2,1
,,,,,,,,,,,,,001,2022-03-09_15h58.04.806,vct_new,2021.2.3,Linux x86_64,59.95203837,0,0,0.679,1,45,94,11,1,stim/Step_2.wav,stim/Step_5.wav,-3,1
,,,,,,,,,,,,,001,2022-03-09_15h58.04.806,vct_new,2021.2.3,Linux x86_64,59.95203837,1,0,1.363,1,46,95,16,1,stim/Step_3.wav,stim/Step_3.wav,0,0
,,,,,,,,,,,,,001,2022-03-09_15h58.04.806,vct_new,2021.2.3,Linux x86_64,59.95203837,0,0,1.057,1,47,96,37,1,stim/Step_6.wav,stim/Step_3.wav,3,1
,,,,,,,,,,,,,001,2022-03-09_15h58.04.806,vct_new,2021.2.3,Linux x86_64,59.95203837,0,0,1.738,1,48,97,19,1,stim/Step_3.wav,stim/Step_6.wav,-3,1
,,,,,,,,,,,,,001,2022-03-09_15h58.04.806,vct_new,2021.2.3,Linux x86_64,59.95203837,1,1,0.923,2,0,98,47,1,stim/Step_7.wav,stim/Step_6.wav,1,1
,,,,,,,,,,,,,001,2022-03-09_15h58.04.806,vct_new,2021.2.3,Linux x86_64,59.95203837,1,1,1.245,2,1,99,45,1,stim/Step_7.wav,stim/Step_4.wav,3,1
,,,,,,,,,,,,,001,2022-03-09_15h58.04.806,vct_new,2021.2.3,Linux x86_64,59.95203837,1,1,0.815,2,2,100,27,1,stim/Step_4.wav,stim/Step_7.wav,-3,1
,,,,,,,,,,,,,001,2022-03-09_15h58.04.806,vct_new,2021.2.3,Linux x86_64,59.95203837,1,1,1.024,2,3,101,18,1,stim/Step_3.wav,stim/Step_5.wav,-2,1
,,,,,,,,,,,,,001,2022-03-09_15h58.04.806,vct_new,2021.2.3,Linux x86_64,59.95203837,1,0,0.845,2,4,102,48,1,stim/Step_7.wav,stim/Step_7.wav,0,0
,,,,,,,,,,,,,001,2022-03-09_15h58.04.806,vct_new,2021.2.3,Linux x86_64,59.95203837,1,0,0.892,2,5,103,40,1,stim/Step_6.wav,stim/Step_6.wav,0,0
,,,,,,,,,,,,,001,2022-03-09_15h58.04.806,vct_new,2021.2.3,Linux x86_64,59.95203837,0,0,0.744,2,6,104,35,1,stim/Step_6.wav,stim/Step_1.wav,5,1
,,,,,,,,,,,,,001,2022-03-09_15h58.04.806,vct_new,2021.2.3,Linux x86_64,59.95203837,0,0,0.985,2,7,105,42,1,stim/Step_7.wav,stim/Step_1.wav,6,1
,,,,,,,,,,,,,001,2022-03-09_15h58.04.806,vct_new,2021.2.3,Linux x86_64,59.95203837,1,0,1.032,2,8,106,0,1,stim/Step_1.wav,stim/Step_1.wav,0,0
,,,,,,,,,,,,,001,2022-03-09_15h58.04.806,vct_new,2021.2.3,Linux x86_64,59.95203837,1,1,0.929,2,9,107,10,1,stim/Step_2.wav,stim/Step_4.wav,-2,1
,,,,,,,,,,,,,001,2022-03-09_15h58.04.806,vct_new,2021.2.3,Linux x86_64,59.95203837,1,1,1.108,2,10,108,21,1,stim/Step_4.wav,stim/Step_1.wav,3,1
,,,,,,,,,,,,,001,2022-03-09_15h58.04.806,vct_new,2021.2.3,Linux x86_64,59.95203837,1,1,1.192,2,11,109,31,1,stim/Step_5.wav,stim/Step_4.wav,1,1
,,,,,,,,,,,,,001,2022-03-09_15h58.04.806,vct_new,2021.2.3,Linux x86_64,59.95203837,0,0,0.894,2,12,110,36,1,stim/Step_6.wav,stim/Step_2.wav,4,1
,,,,,,,,,,,,,001,2022-03-09_15h58.04.806,vct_new,2021.2.3,Linux x86_64,59.95203837,0,0,0.696,2,13,111,11,1,stim/Step_2.wav,stim/Step_5.wav,-3,1
,,,,,,,,,,,,,001,2022-03-09_15h58.04.806,vct_new,2021.2.3,Linux x86_64,59.95203837,0,0,0.96,2,14,112,13,1,stim/Step_2.wav,stim/Step_7.wav,-5,1
,,,,,,,,,,,,,001,2022-03-09_15h58.04.806,vct_new,2021.2.3,Linux x86_64,59.95203837,0,0,0.912,2,15,113,17,1,stim/Step_3.wav,stim/Step_4.wav,-1,1
,,,,,,,,,,,,,001,2022-03-09_15h58.04.806,vct_new,2021.2.3,Linux x86_64,59.95203837,1,1,1.043,2,16,114,46,1,stim/Step_7.wav,stim/Step_5.wav,2,1
,,,,,,,,,,,,,001,2022-03-09_15h58.04.806,vct_new,2021.2.3,Linux x86_64,59.95203837,0,0,0.723,2,17,115,4,1,stim/Step_1.wav,stim/Step_5.wav,-4,1
,,,,,,,,,,,,,001,2022-03-09_15h58.04.806,vct_new,2021.2.3,Linux x86_64,59.95203837,1,1,0.968,2,18,116,39,1,stim/Step_6.wav,stim/Step_5.wav,1,1
,,,,,,,,,,,,,001,2022-03-09_15h58.04.806,vct_new,2021.2.3,Linux x86_64,59.95203837,0,0,0.81,2,19,117,5,1,stim/Step_1.wav,stim/Step_6.wav,-5,1
,,,,,,,,,,,,,001,2022-03-09_15h58.04.806,vct_new,2021.2.3,Linux x86_64,59.95203837,0,0,0.859,2,20,118,25,1,stim/Step_4.wav,stim/Step_5.wav,-1,1
,,,,,,,,,,,,,001,2022-03-09_15h58.04.806,vct_new,2021.2.3,Linux x86_64,59.95203837,0,0,0.779,2,21,119,19,1,stim/Step_3.wav,stim/Step_6.wav,-3,1
,,,,,,,,,,,,,001,2022-03-09_15h58.04.806,vct_new,2021.2.3,Linux x86_64,59.95203837,1,1,0.811,2,22,120,7,1,stim/Step_2.wav,stim/Step_1.wav,1,1
,,,,,,,,,,,,,001,2022-03-09_15h58.04.806,vct_new,2021.2.3,Linux x86_64,59.95203837,1,1,0.948,2,23,121,41,1,stim/Step_6.wav,stim/Step_7.wav,-1,1
,,,,,,,,,,,,,001,2022-03-09_15h58.04.806,vct_new,2021.2.3,Linux x86_64,59.95203837,1,1,0.798,2,24,122,38,1,stim/Step_6.wav,stim/Step_4.wav,2,1
,,,,,,,,,,,,,001,2022-03-09_15h58.04.806,vct_new,2021.2.3,Linux x86_64,59.95203837,0,0,0.956,2,25,123,15,1,stim/Step_3.wav,stim/Step_2.wav,1,1
,,,,,,,,,,,,,001,2022-03-09_15h58.04.806,vct_new,2021.2.3,Linux x86_64,59.95203837,1,1,1.398,2,26,124,12,1,stim/Step_2.wav,stim/Step_6.wav,-4,1
,,,,,,,,,,,,,001,2022-03-09_15h58.04.806,vct_new,2021.2.3,Linux x86_64,59.95203837,1,0,0.949,2,27,125,16,1,stim/Step_3.wav,stim/Step_3.wav,0,0
,,,,,,,,,,,,,001,2022-03-09_15h58.04.806,vct_new,2021.2.3,Linux x86_64,59.95203837,1,0,0.822,2,28,126,32,1,stim/Step_5.wav,stim/Step_5.wav,0,0
,,,,,,,,,,,,,001,2022-03-09_15h58.04.806,vct_new,2021.2.3,Linux x86_64,59.95203837,1,1,0.946,2,29,127,22,1,stim/Step_4.wav,stim/Step_2.wav,2,1
,,,,,,,,,,,,,001,2022-03-09_15h58.04.806,vct_new,2021.2.3,Linux x86_64,59.95203837,1,1,0.726,2,30,128,9,1,stim/Step_2.wav,stim/Step_3.wav,-1,1
,,,,,,,,,,,,,001,2022-03-09_15h58.04.806,vct_new,2021.2.3,Linux x86_64,59.95203837,1,1,0.545,2,31,129,1,1,stim/Step_1.wav,stim/Step_2.wav,-1,1
,,,,,,,,,,,,,001,2022-03-09_15h58.04.806,vct_new,2021.2.3,Linux x86_64,59.95203837,1,1,0.828,2,32,130,23,1,stim/Step_4.wav,stim/Step_3.wav,1,1
,,,,,,,,,,,,,001,2022-03-09_15h58.04.806,vct_new,2021.2.3,Linux x86_64,59.95203837,0,0,0.756,2,33,131,26,1,stim/Step_4.wav,stim/Step_6.wav,-2,1
,,,,,,,,,,,,,001,2022-03-09_15h58.04.806,vct_new,2021.2.3,Linux x86_64,59.95203837,0,0,0.796,2,34,132,20,1,stim/Step_3.wav,stim/Step_7.wav,-4,1
,,,,,,,,,,,,,001,2022-03-09_15h58.04.806,vct_new,2021.2.3,Linux x86_64,59.95203837,0,0,0.977,2,35,133,28,1,stim/Step_5.wav,stim/Step_1.wav,4,1
,,,,,,,,,,,,,001,2022-03-09_15h58.04.806,vct_new,2021.2.3,Linux x86_64,59.95203837,0,0,0.709,2,36,134,2,1,stim/Step_1.wav,stim/Step_3.wav,-2,1
,,,,,,,,,,,,,001,2022-03-09_15h58.04.806,vct_new,2021.2.3,Linux x86_64,59.95203837,0,0,0.878,2,37,135,6,1,stim/Step_1.wav,stim/Step_7.wav,-6,1
,,,,,,,,,,,,,001,2022-03-09_15h58.04.806,vct_new,2021.2.3,Linux x86_64,59.95203837,0,0,0.887,2,38,136,30,1,stim/Step_5.wav,stim/Step_3.wav,2,1
,,,,,,,,,,,,,001,2022-03-09_15h58.04.806,vct_new,2021.2.3,Linux x86_64,59.95203837,0,0,2.317,2,39,137,33,1,stim/Step_5.wav,stim/Step_6.wav,-1,1
,,,,,,,,,,,,,001,2022-03-09_15h58.04.806,vct_new,2021.2.3,Linux x86_64,59.95203837,0,0,0.697,2,40,138,29,1,stim/Step_5.wav,stim/Step_2.wav,3,1
,,,,,,,,,,,,,001,2022-03-09_15h58.04.806,vct_new,2021.2.3,Linux x86_64,59.95203837,0,1,0.772,2,41,139,8,1,stim/Step_2.wav,stim/Step_2.wav,0,0
,,,,,,,,,,,,,001,2022-03-09_15h58.04.806,vct_new,2021.2.3,Linux x86_64,59.95203837,0,0,1.578,2,42,140,34,1,stim/Step_5.wav,stim/Step_7.wav,-2,1
,,,,,,,,,,,,,001,2022-03-09_15h58.04.806,vct_new,2021.2.3,Linux x86_64,59.95203837,0,0,0.793,2,43,141,44,1,stim/Step_7.wav,stim/Step_3.wav,4,1
,,,,,,,,,,,,,001,2022-03-09_15h58.04.806,vct_new,2021.2.3,Linux x86_64,59.95203837,1,0,0.709,2,44,142,24,1,stim/Step_4.wav,stim/Step_4.wav,0,0
,,,,,,,,,,,,,001,2022-03-09_15h58.04.806,vct_new,2021.2.3,Linux x86_64,59.95203837,0,0,0.774,2,45,143,37,1,stim/Step_6.wav,stim/Step_3.wav,3,1
,,,,,,,,,,,,,001,2022-03-09_15h58.04.806,vct_new,2021.2.3,Linux x86_64,59.95203837,1,1,0.868,2,46,144,14,1,stim/Step_3.wav,stim/Step_1.wav,2,1
,,,,,,,,,,,,,001,2022-03-09_15h58.04.806,vct_new,2021.2.3,Linux x86_64,59.95203837,0,0,0.523,2,47,145,43,1,stim/Step_7.wav,stim/Step_2.wav,5,1
,,,,,,,,,,,,,001,2022-03-09_15h58.04.806,vct_new,2021.2.3,Linux x86_64,59.95203837,0,0,1.009,2,48,146,3,1,stim/Step_1.wav,stim/Step_4.wav,-3,1
