check.keys,check.rt,key_resp_7.keys,key_resp_7.rt,key_resp_2.keys,key_resp_2.rt,slider.response,slider.rt,trials.thisRepN,trials.thisTrialN,trials.thisN,trials.thisIndex,trials.ran,stim,participant,session,date,expName,psychopyVersion,OS,frameRate,key_resp_5.keys,key_resp_5.rt,key_resp.keys,key_resp.rt,slider_2.response,slider_2.rt,trials_2.thisRepN,trials_2.thisTrialN,trials_2.thisN,trials_2.thisIndex,trials_2.ran
2,3.2151,space,39.0579,7,9.7089,2.025926095,7.1278,0,0,0,3,1,stim/p_schwa_g.wav,5c0048442213be0001c2d579,001,2022-03-29_14h26.24.609,exp_mono_sp,2021.2.3,Win32,59.95922773,,,,,,,,,,,
,,,,7,10.8394,3.929629573,1.6355,0,1,1,6,1,stim/feuf_g.wav,5c0048442213be0001c2d579,001,2022-03-29_14h26.24.609,exp_mono_sp,2021.2.3,Win32,59.95922773,,,,,,,,,,,
,,,,7,5.1671,2.062963133,1.4375,0,2,2,1,1,stim/pief_g.wav,5c0048442213be0001c2d579,001,2022-03-29_14h26.24.609,exp_mono_sp,2021.2.3,Win32,59.95922773,,,,,,,,,,,
,,,,6,4.8162,2.070370427,0.8319,0,3,3,0,1,stim/pof_g.wav,5c0048442213be0001c2d579,001,2022-03-29_14h26.24.609,exp_mono_sp,2021.2.3,Win32,59.95922773,,,,,,,,,,,
,,,,7,2.5659,4.09629624,0.5562,0,4,4,5,1,stim/fief_g.wav,5c0048442213be0001c2d579,001,2022-03-29_14h26.24.609,exp_mono_sp,2021.2.3,Win32,59.95922773,,,,,,,,,,,
,,,,6,84.982,2.06666678,2.7509,0,5,5,7,1,stim/f_schwa_g.wav,5c0048442213be0001c2d579,001,2022-03-29_14h26.24.609,exp_mono_sp,2021.2.3,Win32,59.95922773,,,,,,,,,,,
,,,,5,7.7811,1.948148092,1.0469,0,6,6,2,1,stim/peuf_g.wav,5c0048442213be0001c2d579,001,2022-03-29_14h26.24.609,exp_mono_sp,2021.2.3,Win32,59.95922773,,,,,,,,,,,
,,,,7,2.2023,2.974074187,1.0876,0,7,7,4,1,stim/fof_g.wav,5c0048442213be0001c2d579,001,2022-03-29_14h26.24.609,exp_mono_sp,2021.2.3,Win32,59.95922773,,,,,,,,,,,
,,,,7,1.9698,2.944444444,0.6024,1,0,8,4,1,stim/fof_g.wav,5c0048442213be0001c2d579,001,2022-03-29_14h26.24.609,exp_mono_sp,2021.2.3,Win32,59.95922773,,,,,,,,,,,
,,,,7,1.9518,4.118518688,0.4816,1,1,9,6,1,stim/feuf_g.wav,5c0048442213be0001c2d579,001,2022-03-29_14h26.24.609,exp_mono_sp,2021.2.3,Win32,59.95922773,,,,,,,,,,,
,,,,6,3.2561,2.292592649,0.594,1,2,10,3,1,stim/p_schwa_g.wav,5c0048442213be0001c2d579,001,2022-03-29_14h26.24.609,exp_mono_sp,2021.2.3,Win32,59.95922773,,,,,,,,,,,
,,,,6,4.1842,3.148148148,1.7066,1,3,11,2,1,stim/peuf_g.wav,5c0048442213be0001c2d579,001,2022-03-29_14h26.24.609,exp_mono_sp,2021.2.3,Win32,59.95922773,,,,,,,,,,,
,,,,5,65.6915,2.081481651,1.0575,1,4,12,1,1,stim/pief_g.wav,5c0048442213be0001c2d579,001,2022-03-29_14h26.24.609,exp_mono_sp,2021.2.3,Win32,59.95922773,,,,,,,,,,,
,,,,6,5.085,2.929629573,0.7485,1,5,13,0,1,stim/pof_g.wav,5c0048442213be0001c2d579,001,2022-03-29_14h26.24.609,exp_mono_sp,2021.2.3,Win32,59.95922773,,,,,,,,,,,
,,,,7,3.9328,4.107407464,1.0243,1,6,14,5,1,stim/fief_g.wav,5c0048442213be0001c2d579,001,2022-03-29_14h26.24.609,exp_mono_sp,2021.2.3,Win32,59.95922773,,,,,,,,,,,
,,,,7,4.8748,3.037037037,0.4817,1,7,15,7,1,stim/f_schwa_g.wav,5c0048442213be0001c2d579,001,2022-03-29_14h26.24.609,exp_mono_sp,2021.2.3,Win32,59.95922773,,,,,,,,,,,
,,,,5,4.0344,1.996296353,0.7067,2,0,16,3,1,stim/p_schwa_g.wav,5c0048442213be0001c2d579,001,2022-03-29_14h26.24.609,exp_mono_sp,2021.2.3,Win32,59.95922773,,,,,,,,,,,
,,,,6,3.4768,1.851851852,1.799,2,1,17,2,1,stim/peuf_g.wav,5c0048442213be0001c2d579,001,2022-03-29_14h26.24.609,exp_mono_sp,2021.2.3,Win32,59.95922773,,,,,,,,,,,
,,,,5,3.1919,2.207407351,0.5971,2,2,18,4,1,stim/fof_g.wav,5c0048442213be0001c2d579,001,2022-03-29_14h26.24.609,exp_mono_sp,2021.2.3,Win32,59.95922773,,,,,,,,,,,
,,,,7,2.2731,3.940740797,0.8674,2,3,19,5,1,stim/fief_g.wav,5c0048442213be0001c2d579,001,2022-03-29_14h26.24.609,exp_mono_sp,2021.2.3,Win32,59.95922773,,,,,,,,,,,
,,,,7,11.7537,2.90370376,5.7408,2,4,20,0,1,stim/pof_g.wav,5c0048442213be0001c2d579,001,2022-03-29_14h26.24.609,exp_mono_sp,2021.2.3,Win32,59.95922773,,,,,,,,,,,
,,,,7,3.4541,4.103703817,0.4709,2,5,21,7,1,stim/f_schwa_g.wav,5c0048442213be0001c2d579,001,2022-03-29_14h26.24.609,exp_mono_sp,2021.2.3,Win32,59.95922773,,,,,,,,,,,
,,,,7,3.6891,3.007407577,0.4969,2,6,22,1,1,stim/pief_g.wav,5c0048442213be0001c2d579,001,2022-03-29_14h26.24.609,exp_mono_sp,2021.2.3,Win32,59.95922773,,,,,,,,,,,
,,,,6,2.6166,3.888888889,0.8277,2,7,23,6,1,stim/feuf_g.wav,5c0048442213be0001c2d579,001,2022-03-29_14h26.24.609,exp_mono_sp,2021.2.3,Win32,59.95922773,,,,,,,,,,,
,,,,,,,,,,,,,stim/p_schwa_f.wav,5c0048442213be0001c2d579,001,2022-03-29_14h26.24.609,exp_mono_sp,2021.2.3,Win32,59.95922773,space,21.1701,6,7.8526,2.022222166,1.1266,0,0,0,3,1
,,,,,,,,,,,,,stim/pif_f.wav,5c0048442213be0001c2d579,001,2022-03-29_14h26.24.609,exp_mono_sp,2021.2.3,Win32,59.95922773,,,6,4.0662,1.944444444,0.6255,0,1,1,1,1
,,,,,,,,,,,,,stim/feuf_f.wav,5c0048442213be0001c2d579,001,2022-03-29_14h26.24.609,exp_mono_sp,2021.2.3,Win32,59.95922773,,,6,3.4339,4.037037037,0.9684,0,2,2,6,1
,,,,,,,,,,,,,stim/f_schwa_f.wav,5c0048442213be0001c2d579,001,2022-03-29_14h26.24.609,exp_mono_sp,2021.2.3,Win32,59.95922773,,,5,4.6377,1.940740797,0.6399,0,3,3,7,1
,,,,,,,,,,,,,stim/peuf_f.wav,5c0048442213be0001c2d579,001,2022-03-29_14h26.24.609,exp_mono_sp,2021.2.3,Win32,59.95922773,,,6,3.619,3.240740741,0.5774,0,4,4,2,1
,,,,,,,,,,,,,stim/fof_f.wav,5c0048442213be0001c2d579,001,2022-03-29_14h26.24.609,exp_mono_sp,2021.2.3,Win32,59.95922773,,,5,2.9454,3.844444557,0.8152,0,5,5,4,1
,,,,,,,,,,,,,stim/pof_f.wav,5c0048442213be0001c2d579,001,2022-03-29_14h26.24.609,exp_mono_sp,2021.2.3,Win32,59.95922773,,,7,4.914,1.022222307,1.2737,0,6,6,0,1
,,,,,,,,,,,,,stim/fif_f.wav,5c0048442213be0001c2d579,001,2022-03-29_14h26.24.609,exp_mono_sp,2021.2.3,Win32,59.95922773,,,6,3.9909,4.981481481,1.6027,0,7,7,5,1
,,,,,,,,,,,,,stim/f_schwa_f.wav,5c0048442213be0001c2d579,001,2022-03-29_14h26.24.609,exp_mono_sp,2021.2.3,Win32,59.95922773,,,5,3.8041,3.044444614,0.6108,1,0,8,7,1
,,,,,,,,,,,,,stim/peuf_f.wav,5c0048442213be0001c2d579,001,2022-03-29_14h26.24.609,exp_mono_sp,2021.2.3,Win32,59.95922773,,,6,2.9739,3.59629624,0.4887,1,1,9,2,1
,,,,,,,,,,,,,stim/p_schwa_f.wav,5c0048442213be0001c2d579,001,2022-03-29_14h26.24.609,exp_mono_sp,2021.2.3,Win32,59.95922773,,,5,4.0188,3.162963019,0.5962,1,2,10,3,1
,,,,,,,,,,,,,stim/feuf_f.wav,5c0048442213be0001c2d579,001,2022-03-29_14h26.24.609,exp_mono_sp,2021.2.3,Win32,59.95922773,,,6,2.1173,3.84074091,0.511,1,3,11,6,1
,,,,,,,,,,,,,stim/pof_f.wav,5c0048442213be0001c2d579,001,2022-03-29_14h26.24.609,exp_mono_sp,2021.2.3,Win32,59.95922773,,,7,2.8618,3.603703817,0.6041,1,4,12,0,1
,,,,,,,,,,,,,stim/fif_f.wav,5c0048442213be0001c2d579,001,2022-03-29_14h26.24.609,exp_mono_sp,2021.2.3,Win32,59.95922773,,,5,2.0164,2.225925869,0.5983,1,5,13,5,1
,,,,,,,,,,,,,stim/pif_f.wav,5c0048442213be0001c2d579,001,2022-03-29_14h26.24.609,exp_mono_sp,2021.2.3,Win32,59.95922773,,,7,3.6333,4.140740854,0.5624,1,6,14,1,1
,,,,,,,,,,,,,stim/fof_f.wav,5c0048442213be0001c2d579,001,2022-03-29_14h26.24.609,exp_mono_sp,2021.2.3,Win32,59.95922773,,,6,2.2324,2.933333503,0.5157,1,7,15,4,1
,,,,,,,,,,,,,stim/pof_f.wav,5c0048442213be0001c2d579,001,2022-03-29_14h26.24.609,exp_mono_sp,2021.2.3,Win32,59.95922773,,,7,2.9612,1.08148151,0.5667,2,0,16,0,1
,,,,,,,,,,,,,stim/fof_f.wav,5c0048442213be0001c2d579,001,2022-03-29_14h26.24.609,exp_mono_sp,2021.2.3,Win32,59.95922773,,,5,2.7862,2.503703647,1.5933,2,1,17,4,1
,,,,,,,,,,,,,stim/feuf_f.wav,5c0048442213be0001c2d579,001,2022-03-29_14h26.24.609,exp_mono_sp,2021.2.3,Win32,59.95922773,,,6,1.3774,2.96666661,0.6723,2,2,18,6,1
,,,,,,,,,,,,,stim/p_schwa_f.wav,5c0048442213be0001c2d579,001,2022-03-29_14h26.24.609,exp_mono_sp,2021.2.3,Win32,59.95922773,,,7,3.406,1.055555556,2.2006,2,3,19,3,1
,,,,,,,,,,,,,stim/pif_f.wav,5c0048442213be0001c2d579,001,2022-03-29_14h26.24.609,exp_mono_sp,2021.2.3,Win32,59.95922773,,,7,3.1491,2.962962963,0.6668,2,4,20,1,1
,,,,,,,,,,,,,stim/fif_f.wav,5c0048442213be0001c2d579,001,2022-03-29_14h26.24.609,exp_mono_sp,2021.2.3,Win32,59.95922773,,,6,2.6132,3.977777834,1.4924,2,5,21,5,1
,,,,,,,,,,,,,stim/f_schwa_f.wav,5c0048442213be0001c2d579,001,2022-03-29_14h26.24.609,exp_mono_sp,2021.2.3,Win32,59.95922773,,,6,2.0948,4.8740743,1.3849,2,6,22,7,1
,,,,,,,,,,,,,stim/peuf_f.wav,5c0048442213be0001c2d579,001,2022-03-29_14h26.24.609,exp_mono_sp,2021.2.3,Win32,59.95922773,,,5,135.98,2.80740752,1.4349,2,7,23,2,1
