check.keys,check.rt,key_resp_7.keys,key_resp_7.rt,key_resp_2.keys,key_resp_2.rt,slider.response,slider.rt,trials.thisRepN,trials.thisTrialN,trials.thisN,trials.thisIndex,trials.ran,stim,participant,session,date,expName,psychopyVersion,OS,frameRate,key_resp_5.keys,key_resp_5.rt,key_resp.keys,key_resp.rt,slider_2.response,slider_2.rt,trials_2.thisRepN,trials_2.thisTrialN,trials_2.thisN,trials_2.thisIndex,trials_2.ran
1,2.5109,space,447.1511,6,5.4539,4.016393443,2.0361,0,0,0,1,1,stim/pief_g.wav,60f4ada8ac902f28300ab7e0,001,2022-03-29_15h27.47.812,exp_mono_sp,2021.2.3,Win32,59.64096141,,,,,,,,,,,
,,,,5,11.8223,4.016393443,3.1273,0,1,1,6,1,stim/feuf_g.wav,60f4ada8ac902f28300ab7e0,001,2022-03-29_15h27.47.812,exp_mono_sp,2021.2.3,Win32,59.64096141,,,,,,,,,,,
,,,,7,2.9023,4.036065574,4.733,0,2,2,5,1,stim/fief_g.wav,60f4ada8ac902f28300ab7e0,001,2022-03-29_15h27.47.812,exp_mono_sp,2021.2.3,Win32,59.64096141,,,,,,,,,,,
,,,,7,10.5546,4.036065574,2.5309,0,3,3,3,1,stim/p_schwa_g.wav,60f4ada8ac902f28300ab7e0,001,2022-03-29_15h27.47.812,exp_mono_sp,2021.2.3,Win32,59.64096141,,,,,,,,,,,
,,,,6,6.1029,4.036065574,1.0508,0,4,4,4,1,stim/fof_g.wav,60f4ada8ac902f28300ab7e0,001,2022-03-29_15h27.47.812,exp_mono_sp,2021.2.3,Win32,59.64096141,,,,,,,,,,,
,,,,7,4.3233,4.036065574,1.1578,0,5,5,7,1,stim/f_schwa_g.wav,60f4ada8ac902f28300ab7e0,001,2022-03-29_15h27.47.812,exp_mono_sp,2021.2.3,Win32,59.64096141,,,,,,,,,,,
,,,,5,5.1243,2.986885246,2.2962,0,6,6,2,1,stim/peuf_g.wav,60f4ada8ac902f28300ab7e0,001,2022-03-29_15h27.47.812,exp_mono_sp,2021.2.3,Win32,59.64096141,,,,,,,,,,,
,,,,6,6.3385,4.049180328,1.8059,0,7,7,0,1,stim/pof_g.wav,60f4ada8ac902f28300ab7e0,001,2022-03-29_15h27.47.812,exp_mono_sp,2021.2.3,Win32,59.64096141,,,,,,,,,,,
,,,,6,3.3238,3.970491803,2.0927,1,0,8,6,1,stim/feuf_g.wav,60f4ada8ac902f28300ab7e0,001,2022-03-29_15h27.47.812,exp_mono_sp,2021.2.3,Win32,59.64096141,,,,,,,,,,,
,,,,5,6.2481,2.081967213,2.048,1,1,9,0,1,stim/pof_g.wav,60f4ada8ac902f28300ab7e0,001,2022-03-29_15h27.47.812,exp_mono_sp,2021.2.3,Win32,59.64096141,,,,,,,,,,,
,,,,7,2.3574,4.08852459,1.5765,1,2,10,5,1,stim/fief_g.wav,60f4ada8ac902f28300ab7e0,001,2022-03-29_15h27.47.812,exp_mono_sp,2021.2.3,Win32,59.64096141,,,,,,,,,,,
,,,,6,5.3938,2.960655738,2.4789,1,3,11,1,1,stim/pief_g.wav,60f4ada8ac902f28300ab7e0,001,2022-03-29_15h27.47.812,exp_mono_sp,2021.2.3,Win32,59.64096141,,,,,,,,,,,
,,,,5,3.5335,2.973770492,2.0574,1,4,12,3,1,stim/p_schwa_g.wav,60f4ada8ac902f28300ab7e0,001,2022-03-29_15h27.47.812,exp_mono_sp,2021.2.3,Win32,59.64096141,,,,,,,,,,,
,,,,7,4.4291,1.97704918,3.5252,1,5,13,2,1,stim/peuf_g.wav,60f4ada8ac902f28300ab7e0,001,2022-03-29_15h27.47.812,exp_mono_sp,2021.2.3,Win32,59.64096141,,,,,,,,,,,
,,,,7,2.9375,4.009836066,1.8422,1,6,14,4,1,stim/fof_g.wav,60f4ada8ac902f28300ab7e0,001,2022-03-29_15h27.47.812,exp_mono_sp,2021.2.3,Win32,59.64096141,,,,,,,,,,,
,,,,7,2.2396,4.009836066,2.6661,1,7,15,7,1,stim/f_schwa_g.wav,60f4ada8ac902f28300ab7e0,001,2022-03-29_15h27.47.812,exp_mono_sp,2021.2.3,Win32,59.64096141,,,,,,,,,,,
,,,,7,2.072,2.954098361,25.9607,2,0,16,4,1,stim/fof_g.wav,60f4ada8ac902f28300ab7e0,001,2022-03-29_15h27.47.812,exp_mono_sp,2021.2.3,Win32,59.64096141,,,,,,,,,,,
,,,,6,3.2565,2.973770492,1.6396,2,1,17,5,1,stim/fief_g.wav,60f4ada8ac902f28300ab7e0,001,2022-03-29_15h27.47.812,exp_mono_sp,2021.2.3,Win32,59.64096141,,,,,,,,,,,
,,,,7,4.0482,4.009836066,2.1091,2,2,18,1,1,stim/pief_g.wav,60f4ada8ac902f28300ab7e0,001,2022-03-29_15h27.47.812,exp_mono_sp,2021.2.3,Win32,59.64096141,,,,,,,,,,,
,,,,7,4.5112,2.02295082,9.2231,2,3,19,3,1,stim/p_schwa_g.wav,60f4ada8ac902f28300ab7e0,001,2022-03-29_15h27.47.812,exp_mono_sp,2021.2.3,Win32,59.64096141,,,,,,,,,,,
,,,,5,7.094,2.009836066,1.8996,2,4,20,7,1,stim/f_schwa_g.wav,60f4ada8ac902f28300ab7e0,001,2022-03-29_15h27.47.812,exp_mono_sp,2021.2.3,Win32,59.64096141,,,,,,,,,,,
,,,,6,20.4911,2.986885246,1.2922,2,5,21,2,1,stim/peuf_g.wav,60f4ada8ac902f28300ab7e0,001,2022-03-29_15h27.47.812,exp_mono_sp,2021.2.3,Win32,59.64096141,,,,,,,,,,,
,,,,6,5.6005,2.986885246,17.0898,2,6,22,6,1,stim/feuf_g.wav,60f4ada8ac902f28300ab7e0,001,2022-03-29_15h27.47.812,exp_mono_sp,2021.2.3,Win32,59.64096141,,,,,,,,,,,
,,,,6,9.9793,2.980327869,1.7659,2,7,23,0,1,stim/pof_g.wav,60f4ada8ac902f28300ab7e0,001,2022-03-29_15h27.47.812,exp_mono_sp,2021.2.3,Win32,59.64096141,,,,,,,,,,,
,,,,,,,,,,,,,stim/peuf_f.wav,60f4ada8ac902f28300ab7e0,001,2022-03-29_15h27.47.812,exp_mono_sp,2021.2.3,Win32,59.64096141,space,7.3811,6,12.6551,3.032786885,1.5104,0,0,0,2,1
,,,,,,,,,,,,,stim/feuf_f.wav,60f4ada8ac902f28300ab7e0,001,2022-03-29_15h27.47.812,exp_mono_sp,2021.2.3,Win32,59.64096141,,,7,3.0187,2.993442623,1.7331,0,1,1,6,1
,,,,,,,,,,,,,stim/pof_f.wav,60f4ada8ac902f28300ab7e0,001,2022-03-29_15h27.47.812,exp_mono_sp,2021.2.3,Win32,59.64096141,,,5,3.102,4.016393443,3.3686,0,2,2,0,1
,,,,,,,,,,,,,stim/f_schwa_f.wav,60f4ada8ac902f28300ab7e0,001,2022-03-29_15h27.47.812,exp_mono_sp,2021.2.3,Win32,59.64096141,,,6,19.6704,4.016393443,0.9385,0,3,3,7,1
,,,,,,,,,,,,,stim/fof_f.wav,60f4ada8ac902f28300ab7e0,001,2022-03-29_15h27.47.812,exp_mono_sp,2021.2.3,Win32,59.64096141,,,5,2.9511,2.947540984,1.4659,0,4,4,4,1
,,,,,,,,,,,,,stim/p_schwa_f.wav,60f4ada8ac902f28300ab7e0,001,2022-03-29_15h27.47.812,exp_mono_sp,2021.2.3,Win32,59.64096141,,,7,4.7463,3,1.685,0,5,5,3,1
,,,,,,,,,,,,,stim/fif_f.wav,60f4ada8ac902f28300ab7e0,001,2022-03-29_15h27.47.812,exp_mono_sp,2021.2.3,Win32,59.64096141,,,6,2.9705,2.003278689,1.4891,0,6,6,5,1
,,,,,,,,,,,,,stim/pif_f.wav,60f4ada8ac902f28300ab7e0,001,2022-03-29_15h27.47.812,exp_mono_sp,2021.2.3,Win32,59.64096141,,,7,3.2234,3.996721311,1.4414,0,7,7,1,1
,,,,,,,,,,,,,stim/feuf_f.wav,60f4ada8ac902f28300ab7e0,001,2022-03-29_15h27.47.812,exp_mono_sp,2021.2.3,Win32,59.64096141,,,6,2.3795,3.996721311,1.9629,1,0,8,6,1
,,,,,,,,,,,,,stim/pif_f.wav,60f4ada8ac902f28300ab7e0,001,2022-03-29_15h27.47.812,exp_mono_sp,2021.2.3,Win32,59.64096141,,,7,2.9979,4.049180328,1.2251,1,1,9,1,1
,,,,,,,,,,,,,stim/f_schwa_f.wav,60f4ada8ac902f28300ab7e0,001,2022-03-29_15h27.47.812,exp_mono_sp,2021.2.3,Win32,59.64096141,,,7,13.2286,3.037094281,30.0363,1,2,10,7,1
,,,,,,,,,,,,,stim/fif_f.wav,60f4ada8ac902f28300ab7e0,001,2022-03-29_15h27.47.812,exp_mono_sp,2021.2.3,Win32,59.64096141,,,7,2.489,4.081916538,1.3134,1,3,11,5,1
,,,,,,,,,,,,,stim/peuf_f.wav,60f4ada8ac902f28300ab7e0,001,2022-03-29_15h27.47.812,exp_mono_sp,2021.2.3,Win32,59.64096141,,,5,2.9501,2.969088099,2.7378,1,4,12,2,1
,,,,,,,,,,,,,stim/pof_f.wav,60f4ada8ac902f28300ab7e0,001,2022-03-29_15h27.47.812,exp_mono_sp,2021.2.3,Win32,59.64096141,,,5,2.6829,3.982998454,1.5996,1,5,13,0,1
,,,,,,,,,,,,,stim/p_schwa_f.wav,60f4ada8ac902f28300ab7e0,001,2022-03-29_15h27.47.812,exp_mono_sp,2021.2.3,Win32,59.64096141,,,7,3.7282,2.041731066,3.1459,1,6,14,3,1
,,,,,,,,,,,,,stim/fof_f.wav,60f4ada8ac902f28300ab7e0,001,2022-03-29_15h27.47.812,exp_mono_sp,2021.2.3,Win32,59.64096141,,,7,2.8358,1.918083462,2.092,1,7,15,4,1
,,,,,,,,,,,,,stim/fif_f.wav,60f4ada8ac902f28300ab7e0,001,2022-03-29_15h27.47.812,exp_mono_sp,2021.2.3,Win32,59.64096141,,,7,2.3139,3.964451314,2.0817,2,0,16,5,1
,,,,,,,,,,,,,stim/pof_f.wav,60f4ada8ac902f28300ab7e0,001,2022-03-29_15h27.47.812,exp_mono_sp,2021.2.3,Win32,59.64096141,,,5,3.1753,2.99381762,1.536,2,1,17,0,1
,,,,,,,,,,,,,stim/fof_f.wav,60f4ada8ac902f28300ab7e0,001,2022-03-29_15h27.47.812,exp_mono_sp,2021.2.3,Win32,59.64096141,,,5,3.0688,3,3.3592,2,2,18,4,1
,,,,,,,,,,,,,stim/f_schwa_f.wav,60f4ada8ac902f28300ab7e0,001,2022-03-29_15h27.47.812,exp_mono_sp,2021.2.3,Win32,59.64096141,,,5,2.1725,3.043276662,2.4571,2,3,19,7,1
,,,,,,,,,,,,,stim/p_schwa_f.wav,60f4ada8ac902f28300ab7e0,001,2022-03-29_15h27.47.812,exp_mono_sp,2021.2.3,Win32,59.64096141,,,5,4.7428,2.035548686,1.8153,2,4,20,3,1
,,,,,,,,,,,,,stim/peuf_f.wav,60f4ada8ac902f28300ab7e0,001,2022-03-29_15h27.47.812,exp_mono_sp,2021.2.3,Win32,59.64096141,,,6,2.6676,3.061823802,4.3212,2,5,21,2,1
,,,,,,,,,,,,,stim/pif_f.wav,60f4ada8ac902f28300ab7e0,001,2022-03-29_15h27.47.812,exp_mono_sp,2021.2.3,Win32,59.64096141,,,7,2.8687,3.970633694,2.8804,2,6,22,1,1
,,,,,,,,,,,,,stim/feuf_f.wav,60f4ada8ac902f28300ab7e0,001,2022-03-29_15h27.47.812,exp_mono_sp,2021.2.3,Win32,59.64096141,,,6,2.0754,3.970633694,0.9441,2,7,23,6,1
