check.keys,check.rt,key_resp_7.keys,key_resp_7.rt,key_resp_2.keys,key_resp_2.rt,slider.response,slider.rt,trials.thisRepN,trials.thisTrialN,trials.thisN,trials.thisIndex,trials.ran,stim,participant,session,date,expName,psychopyVersion,OS,frameRate,key_resp_5.keys,key_resp_5.rt,key_resp.keys,key_resp.rt,slider_2.response,slider_2.rt,trials_2.thisRepN,trials_2.thisTrialN,trials_2.thisN,trials_2.thisIndex,trials_2.ran
1,8.4136,space,18.9477,5,22.0178,1.026041667,13.9206,0,0,0,0,1,stim/pof_g.wav,613cc843c0b56b1567b14534,001,2022-03-29_14h14.09.079,exp_mono_sp,2021.2.3,Win32,59.83366242,,,,,,,,,,,
,,,,7,5.0692,2.989583333,7.1827,0,1,1,7,1,stim/f_schwa_g.wav,613cc843c0b56b1567b14534,001,2022-03-29_14h14.09.079,exp_mono_sp,2021.2.3,Win32,59.83366242,,,,,,,,,,,
,,,,6,5.9785,2.010416667,2.0643,0,2,2,6,1,stim/feuf_g.wav,613cc843c0b56b1567b14534,001,2022-03-29_14h14.09.079,exp_mono_sp,2021.2.3,Win32,59.83366242,,,,,,,,,,,
,,,,5,12.8647,1.973958333,2.0005,0,3,3,4,1,stim/fof_g.wav,613cc843c0b56b1567b14534,001,2022-03-29_14h14.09.079,exp_mono_sp,2021.2.3,Win32,59.83366242,,,,,,,,,,,
,,,,5,7.9336,1.979166667,3.0574,0,4,4,3,1,stim/p_schwa_g.wav,613cc843c0b56b1567b14534,001,2022-03-29_14h14.09.079,exp_mono_sp,2021.2.3,Win32,59.83366242,,,,,,,,,,,
,,,,6,9.6742,2.0625,1.6281,0,5,5,2,1,stim/peuf_g.wav,613cc843c0b56b1567b14534,001,2022-03-29_14h14.09.079,exp_mono_sp,2021.2.3,Win32,59.83366242,,,,,,,,,,,
,,,,7,4.3031,2.119791667,1.7468,0,6,6,1,1,stim/pief_g.wav,613cc843c0b56b1567b14534,001,2022-03-29_14h14.09.079,exp_mono_sp,2021.2.3,Win32,59.83366242,,,,,,,,,,,
,,,,5,4.8327,2.984375,1.8688,0,7,7,5,1,stim/fief_g.wav,613cc843c0b56b1567b14534,001,2022-03-29_14h14.09.079,exp_mono_sp,2021.2.3,Win32,59.83366242,,,,,,,,,,,
,,,,5,4.6797,2.036458333,1.6152,1,0,8,0,1,stim/pof_g.wav,613cc843c0b56b1567b14534,001,2022-03-29_14h14.09.079,exp_mono_sp,2021.2.3,Win32,59.83366242,,,,,,,,,,,
,,,,6,3.6637,1.984375,1.65,1,1,9,2,1,stim/peuf_g.wav,613cc843c0b56b1567b14534,001,2022-03-29_14h14.09.079,exp_mono_sp,2021.2.3,Win32,59.83366242,,,,,,,,,,,
,,,,5,3.6804,2.255208333,2.0055,1,2,10,4,1,stim/fof_g.wav,613cc843c0b56b1567b14534,001,2022-03-29_14h14.09.079,exp_mono_sp,2021.2.3,Win32,59.83366242,,,,,,,,,,,
,,,,5,6.9609,1.145833333,3.0639,1,3,11,3,1,stim/p_schwa_g.wav,613cc843c0b56b1567b14534,001,2022-03-29_14h14.09.079,exp_mono_sp,2021.2.3,Win32,59.83366242,,,,,,,,,,,
,,,,7,5.4232,1.177083333,5.049,1,4,12,1,1,stim/pief_g.wav,613cc843c0b56b1567b14534,001,2022-03-29_14h14.09.079,exp_mono_sp,2021.2.3,Win32,59.83366242,,,,,,,,,,,
,,,,6,4.9913,2.567708333,2.6013,1,5,13,7,1,stim/f_schwa_g.wav,613cc843c0b56b1567b14534,001,2022-03-29_14h14.09.079,exp_mono_sp,2021.2.3,Win32,59.83366242,,,,,,,,,,,
,,,,7,3.1646,1.994791667,9.8822,1,6,14,5,1,stim/fief_g.wav,613cc843c0b56b1567b14534,001,2022-03-29_14h14.09.079,exp_mono_sp,2021.2.3,Win32,59.83366242,,,,,,,,,,,
,,,,6,5.0795,2.75,1.9908,1,7,15,6,1,stim/feuf_g.wav,613cc843c0b56b1567b14534,001,2022-03-29_14h14.09.079,exp_mono_sp,2021.2.3,Win32,59.83366242,,,,,,,,,,,
,,,,7,2.8336,2.145833333,2.3883,2,0,16,5,1,stim/fief_g.wav,613cc843c0b56b1567b14534,001,2022-03-29_14h14.09.079,exp_mono_sp,2021.2.3,Win32,59.83366242,,,,,,,,,,,
,,,,7,1.3969,2.145833333,2.1815,2,1,17,7,1,stim/f_schwa_g.wav,613cc843c0b56b1567b14534,001,2022-03-29_14h14.09.079,exp_mono_sp,2021.2.3,Win32,59.83366242,,,,,,,,,,,
,,,,7,2.3805,3.197916667,2.0228,2,2,18,6,1,stim/feuf_g.wav,613cc843c0b56b1567b14534,001,2022-03-29_14h14.09.079,exp_mono_sp,2021.2.3,Win32,59.83366242,,,,,,,,,,,
,,,,5,3.0134,2.286458333,2.3677,2,3,19,2,1,stim/peuf_g.wav,613cc843c0b56b1567b14534,001,2022-03-29_14h14.09.079,exp_mono_sp,2021.2.3,Win32,59.83366242,,,,,,,,,,,
,,,,5,3.2478,2.380208333,2.2649,2,4,20,1,1,stim/pief_g.wav,613cc843c0b56b1567b14534,001,2022-03-29_14h14.09.079,exp_mono_sp,2021.2.3,Win32,59.83366242,,,,,,,,,,,
,,,,6,2.9537,2.734375,1.4373,2,5,21,3,1,stim/p_schwa_g.wav,613cc843c0b56b1567b14534,001,2022-03-29_14h14.09.079,exp_mono_sp,2021.2.3,Win32,59.83366242,,,,,,,,,,,
,,,,5,5.4288,1.536458333,1.7158,2,6,22,4,1,stim/fof_g.wav,613cc843c0b56b1567b14534,001,2022-03-29_14h14.09.079,exp_mono_sp,2021.2.3,Win32,59.83366242,,,,,,,,,,,
,,,,7,5.8621,2.984375,3.0267,2,7,23,0,1,stim/pof_g.wav,613cc843c0b56b1567b14534,001,2022-03-29_14h14.09.079,exp_mono_sp,2021.2.3,Win32,59.83366242,,,,,,,,,,,
,,,,,,,,,,,,,stim/fif_f.wav,613cc843c0b56b1567b14534,001,2022-03-29_14h14.09.079,exp_mono_sp,2021.2.3,Win32,59.83366242,space,4.9742,5,3.7638,2.401041667,1.6587,0,0,0,5,1
,,,,,,,,,,,,,stim/peuf_f.wav,613cc843c0b56b1567b14534,001,2022-03-29_14h14.09.079,exp_mono_sp,2021.2.3,Win32,59.83366242,,,6,4.0391,2.401041667,0.7548,0,1,1,2,1
,,,,,,,,,,,,,stim/pif_f.wav,613cc843c0b56b1567b14534,001,2022-03-29_14h14.09.079,exp_mono_sp,2021.2.3,Win32,59.83366242,,,5,3.2145,2.401041667,0.4832,0,2,2,1,1
,,,,,,,,,,,,,stim/fof_f.wav,613cc843c0b56b1567b14534,001,2022-03-29_14h14.09.079,exp_mono_sp,2021.2.3,Win32,59.83366242,,,5,14.6308,2.604166667,1.8852,0,3,3,4,1
,,,,,,,,,,,,,stim/f_schwa_f.wav,613cc843c0b56b1567b14534,001,2022-03-29_14h14.09.079,exp_mono_sp,2021.2.3,Win32,59.83366242,,,6,3.498,2.604166667,1.0542,0,4,4,7,1
,,,,,,,,,,,,,stim/feuf_f.wav,613cc843c0b56b1567b14534,001,2022-03-29_14h14.09.079,exp_mono_sp,2021.2.3,Win32,59.83366242,,,6,2.8413,2.604166667,0.6495,0,5,5,6,1
,,,,,,,,,,,,,stim/p_schwa_f.wav,613cc843c0b56b1567b14534,001,2022-03-29_14h14.09.079,exp_mono_sp,2021.2.3,Win32,59.83366242,,,5,4.2133,3.375,1.7326,0,6,6,3,1
,,,,,,,,,,,,,stim/pof_f.wav,613cc843c0b56b1567b14534,001,2022-03-29_14h14.09.079,exp_mono_sp,2021.2.3,Win32,59.83366242,,,6,4.7397,3.375,0.4716,0,7,7,0,1
,,,,,,,,,,,,,stim/peuf_f.wav,613cc843c0b56b1567b14534,001,2022-03-29_14h14.09.079,exp_mono_sp,2021.2.3,Win32,59.83366242,,,7,3.4471,2.46875,2.3487,1,0,8,2,1
,,,,,,,,,,,,,stim/p_schwa_f.wav,613cc843c0b56b1567b14534,001,2022-03-29_14h14.09.079,exp_mono_sp,2021.2.3,Win32,59.83366242,,,6,3.8303,2.46875,0.5173,1,1,9,3,1
,,,,,,,,,,,,,stim/feuf_f.wav,613cc843c0b56b1567b14534,001,2022-03-29_14h14.09.079,exp_mono_sp,2021.2.3,Win32,59.83366242,,,6,3.4525,2.46875,0.5372,1,2,10,6,1
,,,,,,,,,,,,,stim/fof_f.wav,613cc843c0b56b1567b14534,001,2022-03-29_14h14.09.079,exp_mono_sp,2021.2.3,Win32,59.83366242,,,7,2.2984,3.239583333,1.7808,1,3,11,4,1
,,,,,,,,,,,,,stim/pif_f.wav,613cc843c0b56b1567b14534,001,2022-03-29_14h14.09.079,exp_mono_sp,2021.2.3,Win32,59.83366242,,,7,2.6661,3.239583333,0.865,1,4,12,1,1
,,,,,,,,,,,,,stim/fif_f.wav,613cc843c0b56b1567b14534,001,2022-03-29_14h14.09.079,exp_mono_sp,2021.2.3,Win32,59.83366242,,,7,1.6659,3.75,1.3694,1,5,13,5,1
,,,,,,,,,,,,,stim/pof_f.wav,613cc843c0b56b1567b14534,001,2022-03-29_14h14.09.079,exp_mono_sp,2021.2.3,Win32,59.83366242,,,5,2.3323,2.286458333,1.1147,1,6,14,0,1
,,,,,,,,,,,,,stim/f_schwa_f.wav,613cc843c0b56b1567b14534,001,2022-03-29_14h14.09.079,exp_mono_sp,2021.2.3,Win32,59.83366242,,,6,1.9027,2.286458333,0.6866,1,7,15,7,1
,,,,,,,,,,,,,stim/pof_f.wav,613cc843c0b56b1567b14534,001,2022-03-29_14h14.09.079,exp_mono_sp,2021.2.3,Win32,59.83366242,,,5,2.2879,2.286458333,0.5365,2,0,16,0,1
,,,,,,,,,,,,,stim/pif_f.wav,613cc843c0b56b1567b14534,001,2022-03-29_14h14.09.079,exp_mono_sp,2021.2.3,Win32,59.83366242,,,7,2.1991,3.401041667,2.8786,2,1,17,1,1
,,,,,,,,,,,,,stim/fof_f.wav,613cc843c0b56b1567b14534,001,2022-03-29_14h14.09.079,exp_mono_sp,2021.2.3,Win32,59.83366242,,,6,3.317,3.401041667,0.6699,2,2,18,4,1
,,,,,,,,,,,,,stim/f_schwa_f.wav,613cc843c0b56b1567b14534,001,2022-03-29_14h14.09.079,exp_mono_sp,2021.2.3,Win32,59.83366242,,,6,2.5541,2.526041667,2.0205,2,3,19,7,1
,,,,,,,,,,,,,stim/peuf_f.wav,613cc843c0b56b1567b14534,001,2022-03-29_14h14.09.079,exp_mono_sp,2021.2.3,Win32,59.83366242,,,7,3.6816,2.526041667,0.5891,2,4,20,2,1
,,,,,,,,,,,,,stim/fif_f.wav,613cc843c0b56b1567b14534,001,2022-03-29_14h14.09.079,exp_mono_sp,2021.2.3,Win32,59.83366242,,,7,1.6322,2.526041667,0.4887,2,5,21,5,1
,,,,,,,,,,,,,stim/feuf_f.wav,613cc843c0b56b1567b14534,001,2022-03-29_14h14.09.079,exp_mono_sp,2021.2.3,Win32,59.83366242,,,7,1.7012,3.723958333,1.5484,2,6,22,6,1
,,,,,,,,,,,,,stim/p_schwa_f.wav,613cc843c0b56b1567b14534,001,2022-03-29_14h14.09.079,exp_mono_sp,2021.2.3,Win32,59.83366242,,,5,3.0313,2.510416667,2.1639,2,7,23,3,1
