check.keys,check.rt,key_resp_7.keys,key_resp_7.rt,key_resp_2.keys,key_resp_2.rt,slider.response,slider.rt,trials.thisRepN,trials.thisTrialN,trials.thisN,trials.thisIndex,trials.ran,stim,participant,session,date,expName,psychopyVersion,OS,frameRate,key_resp_5.keys,key_resp_5.rt,key_resp.keys,key_resp.rt,slider_2.response,slider_2.rt,trials_2.thisRepN,trials_2.thisTrialN,trials_2.thisN,trials_2.thisIndex,trials_2.ran
2,3.2313,space,40.0097,5,30.0654,2.880208333,13.1434,0,0,0,7,1,stim/f_schwa_g.wav,6161425f649f50a9d8dc0fbb,001,2022-03-29_15h19.26.304,exp_mono_sp,2021.2.3,Win32,61.71315725,,,,,,,,,,,
,,,,6,16.8758,4.026041667,3.2206,0,1,1,5,1,stim/fief_g.wav,6161425f649f50a9d8dc0fbb,001,2022-03-29_15h19.26.304,exp_mono_sp,2021.2.3,Win32,61.71315725,,,,,,,,,,,
,,,,6,4.8357,3.973958333,2.3792,0,2,2,0,1,stim/pof_g.wav,6161425f649f50a9d8dc0fbb,001,2022-03-29_15h19.26.304,exp_mono_sp,2021.2.3,Win32,61.71315725,,,,,,,,,,,
,,,,6,4.8347,4.03125,1.9726,0,3,3,2,1,stim/peuf_g.wav,6161425f649f50a9d8dc0fbb,001,2022-03-29_15h19.26.304,exp_mono_sp,2021.2.3,Win32,61.71315725,,,,,,,,,,,
,,,,5,2.8674,4.979166667,1.6739,0,4,4,4,1,stim/fof_g.wav,6161425f649f50a9d8dc0fbb,001,2022-03-29_15h19.26.304,exp_mono_sp,2021.2.3,Win32,61.71315725,,,,,,,,,,,
,,,,7,4.7009,4.036458333,1.7928,0,5,5,3,1,stim/p_schwa_g.wav,6161425f649f50a9d8dc0fbb,001,2022-03-29_15h19.26.304,exp_mono_sp,2021.2.3,Win32,61.71315725,,,,,,,,,,,
,,,,6,3.0011,3.942708333,5.4961,0,6,6,6,1,stim/feuf_g.wav,6161425f649f50a9d8dc0fbb,001,2022-03-29_15h19.26.304,exp_mono_sp,2021.2.3,Win32,61.71315725,,,,,,,,,,,
,,,,7,3.6172,4.9375,1.8825,0,7,7,1,1,stim/pief_g.wav,6161425f649f50a9d8dc0fbb,001,2022-03-29_15h19.26.304,exp_mono_sp,2021.2.3,Win32,61.71315725,,,,,,,,,,,
,,,,6,2.4675,3.96875,1.3871,1,0,8,4,1,stim/fof_g.wav,6161425f649f50a9d8dc0fbb,001,2022-03-29_15h19.26.304,exp_mono_sp,2021.2.3,Win32,61.71315725,,,,,,,,,,,
,,,,7,3.1084,2.973958333,1.8743,1,1,9,1,1,stim/pief_g.wav,6161425f649f50a9d8dc0fbb,001,2022-03-29_15h19.26.304,exp_mono_sp,2021.2.3,Win32,61.71315725,,,,,,,,,,,
,,,,6,5.6358,1.046875,2.0772,1,2,10,3,1,stim/p_schwa_g.wav,6161425f649f50a9d8dc0fbb,001,2022-03-29_15h19.26.304,exp_mono_sp,2021.2.3,Win32,61.71315725,,,,,,,,,,,
,,,,7,5.1095,2,1.8525,1,3,11,7,1,stim/f_schwa_g.wav,6161425f649f50a9d8dc0fbb,001,2022-03-29_15h19.26.304,exp_mono_sp,2021.2.3,Win32,61.71315725,,,,,,,,,,,
,,,,6,13.8076,3.03125,1.3283,1,4,12,2,1,stim/peuf_g.wav,6161425f649f50a9d8dc0fbb,001,2022-03-29_15h19.26.304,exp_mono_sp,2021.2.3,Win32,61.71315725,,,,,,,,,,,
,,,,5,2.8913,3.963541667,1.5037,1,5,13,0,1,stim/pof_g.wav,6161425f649f50a9d8dc0fbb,001,2022-03-29_15h19.26.304,exp_mono_sp,2021.2.3,Win32,61.71315725,,,,,,,,,,,
,,,,7,1.9757,3.963541667,1.6494,1,6,14,5,1,stim/fief_g.wav,6161425f649f50a9d8dc0fbb,001,2022-03-29_15h19.26.304,exp_mono_sp,2021.2.3,Win32,61.71315725,,,,,,,,,,,
,,,,6,2.0662,4.911458333,1.2665,1,7,15,6,1,stim/feuf_g.wav,6161425f649f50a9d8dc0fbb,001,2022-03-29_15h19.26.304,exp_mono_sp,2021.2.3,Win32,61.71315725,,,,,,,,,,,
,,,,7,5.2013,1.916666667,1.8254,2,0,16,3,1,stim/p_schwa_g.wav,6161425f649f50a9d8dc0fbb,001,2022-03-29_15h19.26.304,exp_mono_sp,2021.2.3,Win32,61.71315725,,,,,,,,,,,
,,,,5,2.1867,4.994791667,2.9575,2,1,17,4,1,stim/fof_g.wav,6161425f649f50a9d8dc0fbb,001,2022-03-29_15h19.26.304,exp_mono_sp,2021.2.3,Win32,61.71315725,,,,,,,,,,,
,,,,6,16.6007,3.0625,2.5236,2,2,18,6,1,stim/feuf_g.wav,6161425f649f50a9d8dc0fbb,001,2022-03-29_15h19.26.304,exp_mono_sp,2021.2.3,Win32,61.71315725,,,,,,,,,,,
,,,,7,1.8769,4.916666667,1.5533,2,3,19,5,1,stim/fief_g.wav,6161425f649f50a9d8dc0fbb,001,2022-03-29_15h19.26.304,exp_mono_sp,2021.2.3,Win32,61.71315725,,,,,,,,,,,
,,,,5,2.5508,4.953125,1.7765,2,4,20,0,1,stim/pof_g.wav,6161425f649f50a9d8dc0fbb,001,2022-03-29_15h19.26.304,exp_mono_sp,2021.2.3,Win32,61.71315725,,,,,,,,,,,
,,,,6,2.5905,4.010416667,1.5057,2,5,21,2,1,stim/peuf_g.wav,6161425f649f50a9d8dc0fbb,001,2022-03-29_15h19.26.304,exp_mono_sp,2021.2.3,Win32,61.71315725,,,,,,,,,,,
,,,,5,2.5008,1.083333333,1.553,2,6,22,7,1,stim/f_schwa_g.wav,6161425f649f50a9d8dc0fbb,001,2022-03-29_15h19.26.304,exp_mono_sp,2021.2.3,Win32,61.71315725,,,,,,,,,,,
,,,,7,2.8048,4.942708333,1.473,2,7,23,1,1,stim/pief_g.wav,6161425f649f50a9d8dc0fbb,001,2022-03-29_15h19.26.304,exp_mono_sp,2021.2.3,Win32,61.71315725,,,,,,,,,,,
,,,,,,,,,,,,,stim/p_schwa_f.wav,6161425f649f50a9d8dc0fbb,001,2022-03-29_15h19.26.304,exp_mono_sp,2021.2.3,Win32,61.71315725,space,4.1025,6,55.1265,2.036458333,1.571,0,0,0,3,1
,,,,,,,,,,,,,stim/f_schwa_f.wav,6161425f649f50a9d8dc0fbb,001,2022-03-29_15h19.26.304,exp_mono_sp,2021.2.3,Win32,61.71315725,,,6,2.8485,1.989583333,2.8084,0,1,1,7,1
,,,,,,,,,,,,,stim/peuf_f.wav,6161425f649f50a9d8dc0fbb,001,2022-03-29_15h19.26.304,exp_mono_sp,2021.2.3,Win32,61.71315725,,,7,3.0987,3.96875,2.3569,0,2,2,2,1
,,,,,,,,,,,,,stim/feuf_f.wav,6161425f649f50a9d8dc0fbb,001,2022-03-29_15h19.26.304,exp_mono_sp,2021.2.3,Win32,61.71315725,,,6,2.208,4.020833333,2.0025,0,3,3,6,1
,,,,,,,,,,,,,stim/pif_f.wav,6161425f649f50a9d8dc0fbb,001,2022-03-29_15h19.26.304,exp_mono_sp,2021.2.3,Win32,61.71315725,,,7,54.7585,2.026041667,1.3753,0,4,4,1,1
,,,,,,,,,,,,,stim/fif_f.wav,6161425f649f50a9d8dc0fbb,001,2022-03-29_15h19.26.304,exp_mono_sp,2021.2.3,Win32,61.71315725,,,6,2.1032,2.994791667,1.8968,0,5,5,5,1
,,,,,,,,,,,,,stim/fof_f.wav,6161425f649f50a9d8dc0fbb,001,2022-03-29_15h19.26.304,exp_mono_sp,2021.2.3,Win32,61.71315725,,,5,2.6339,4.036458333,1.7052,0,6,6,4,1
,,,,,,,,,,,,,stim/pof_f.wav,6161425f649f50a9d8dc0fbb,001,2022-03-29_15h19.26.304,exp_mono_sp,2021.2.3,Win32,61.71315725,,,5,3.2,4.052083333,2.1119,0,7,7,0,1
,,,,,,,,,,,,,stim/pof_f.wav,6161425f649f50a9d8dc0fbb,001,2022-03-29_15h19.26.304,exp_mono_sp,2021.2.3,Win32,61.71315725,,,5,2.7174,4.984375,2.4494,1,0,8,0,1
,,,,,,,,,,,,,stim/peuf_f.wav,6161425f649f50a9d8dc0fbb,001,2022-03-29_15h19.26.304,exp_mono_sp,2021.2.3,Win32,61.71315725,,,6,2.7953,3.875,2.5846,1,1,9,2,1
,,,,,,,,,,,,,stim/f_schwa_f.wav,6161425f649f50a9d8dc0fbb,001,2022-03-29_15h19.26.304,exp_mono_sp,2021.2.3,Win32,61.71315725,,,6,2.2331,3.078125,1.8789,1,2,10,7,1
,,,,,,,,,,,,,stim/p_schwa_f.wav,6161425f649f50a9d8dc0fbb,001,2022-03-29_15h19.26.304,exp_mono_sp,2021.2.3,Win32,61.71315725,,,5,2.6798,3.958333333,2.8505,1,3,11,3,1
,,,,,,,,,,,,,stim/feuf_f.wav,6161425f649f50a9d8dc0fbb,001,2022-03-29_15h19.26.304,exp_mono_sp,2021.2.3,Win32,61.71315725,,,6,1.7007,4.932291667,1.3345,1,4,12,6,1
,,,,,,,,,,,,,stim/pif_f.wav,6161425f649f50a9d8dc0fbb,001,2022-03-29_15h19.26.304,exp_mono_sp,2021.2.3,Win32,61.71315725,,,6,2.8347,4.078125,3.1775,1,5,13,1,1
,,,,,,,,,,,,,stim/fif_f.wav,6161425f649f50a9d8dc0fbb,001,2022-03-29_15h19.26.304,exp_mono_sp,2021.2.3,Win32,61.71315725,,,6,1.8809,4.921875,5.97,1,6,14,5,1
,,,,,,,,,,,,,stim/fof_f.wav,6161425f649f50a9d8dc0fbb,001,2022-03-29_15h19.26.304,exp_mono_sp,2021.2.3,Win32,61.71315725,,,5,2.0456,4.03125,17.3497,1,7,15,4,1
,,,,,,,,,,,,,stim/peuf_f.wav,6161425f649f50a9d8dc0fbb,001,2022-03-29_15h19.26.304,exp_mono_sp,2021.2.3,Win32,61.71315725,,,6,2.2082,4.020833333,1.3099,2,0,16,2,1
,,,,,,,,,,,,,stim/p_schwa_f.wav,6161425f649f50a9d8dc0fbb,001,2022-03-29_15h19.26.304,exp_mono_sp,2021.2.3,Win32,61.71315725,,,5,2.5664,2.994791667,77.7995,2,1,17,3,1
,,,,,,,,,,,,,stim/fif_f.wav,6161425f649f50a9d8dc0fbb,001,2022-03-29_15h19.26.304,exp_mono_sp,2021.2.3,Win32,61.71315725,,,6,2.0101,3.989583333,2.5748,2,2,18,5,1
,,,,,,,,,,,,,stim/fof_f.wav,6161425f649f50a9d8dc0fbb,001,2022-03-29_15h19.26.304,exp_mono_sp,2021.2.3,Win32,61.71315725,,,5,1.9178,3.989583333,1.4016,2,3,19,4,1
,,,,,,,,,,,,,stim/f_schwa_f.wav,6161425f649f50a9d8dc0fbb,001,2022-03-29_15h19.26.304,exp_mono_sp,2021.2.3,Win32,61.71315725,,,5,2.5171,2.916666667,1.3678,2,4,20,7,1
,,,,,,,,,,,,,stim/pif_f.wav,6161425f649f50a9d8dc0fbb,001,2022-03-29_15h19.26.304,exp_mono_sp,2021.2.3,Win32,61.71315725,,,6,6.484,4.036458333,2.0355,2,5,21,1,1
,,,,,,,,,,,,,stim/feuf_f.wav,6161425f649f50a9d8dc0fbb,001,2022-03-29_15h19.26.304,exp_mono_sp,2021.2.3,Win32,61.71315725,,,6,1.8391,4.036458333,1.3041,2,6,22,6,1
,,,,,,,,,,,,,stim/pof_f.wav,6161425f649f50a9d8dc0fbb,001,2022-03-29_15h19.26.304,exp_mono_sp,2021.2.3,Win32,61.71315725,,,5,2.4874,4.776041667,1.6195,2,7,23,0,1
