check.keys,check.rt,key_resp_7.keys,key_resp_7.rt,key_resp_2.keys,key_resp_2.rt,slider.response,slider.rt,trials.thisRepN,trials.thisTrialN,trials.thisN,trials.thisIndex,trials.ran,stim,participant,session,date,expName,psychopyVersion,OS,frameRate,key_resp_5.keys,key_resp_5.rt,key_resp.keys,key_resp.rt,slider_2.response,slider_2.rt,trials_2.thisRepN,trials_2.thisTrialN,trials_2.thisN,trials_2.thisIndex,trials_2.ran
2,8.9492,space,42.8317,5,22.2402,1.988888889,16.1149,0,0,0,7,1,stim/f_schwa_g.wav,,001,2022-03-29_15h37.00.904,exp_mono_sp,2021.2.3,Win32,60.0024001,,,,,,,,,,,
,,,,7,5.5124,3.988888889,7.0367,0,1,1,1,1,stim/pief_g.wav,,001,2022-03-29_15h37.00.904,exp_mono_sp,2021.2.3,Win32,60.0024001,,,,,,,,,,,
,,,,6,3.6787,3.974074074,5.6764,0,2,2,6,1,stim/feuf_g.wav,,001,2022-03-29_15h37.00.904,exp_mono_sp,2021.2.3,Win32,60.0024001,,,,,,,,,,,
,,,,7,2.9064,4.996296296,4.7165,0,3,3,5,1,stim/fief_g.wav,,001,2022-03-29_15h37.00.904,exp_mono_sp,2021.2.3,Win32,60.0024001,,,,,,,,,,,
,,,,7,10.349,1.025925926,1.8173,0,4,4,3,1,stim/p_schwa_g.wav,,001,2022-03-29_15h37.00.904,exp_mono_sp,2021.2.3,Win32,60.0024001,,,,,,,,,,,
,,,,6,3.9648,4.048148148,1.9889,0,5,5,0,1,stim/pof_g.wav,,001,2022-03-29_15h37.00.904,exp_mono_sp,2021.2.3,Win32,60.0024001,,,,,,,,,,,
,,,,6,2.0268,4.988888889,0.837,0,6,6,4,1,stim/fof_g.wav,,001,2022-03-29_15h37.00.904,exp_mono_sp,2021.2.3,Win32,60.0024001,,,,,,,,,,,
,,,,6,4.4858,4.833333333,1.5652,0,7,7,2,1,stim/peuf_g.wav,,001,2022-03-29_15h37.00.904,exp_mono_sp,2021.2.3,Win32,60.0024001,,,,,,,,,,,
,,,,7,2.8149,4.862962963,1.3526,1,0,8,1,1,stim/pief_g.wav,,001,2022-03-29_15h37.00.904,exp_mono_sp,2021.2.3,Win32,60.0024001,,,,,,,,,,,
,,,,6,2.0767,4.862962963,0.6196,1,1,9,4,1,stim/fof_g.wav,,001,2022-03-29_15h37.00.904,exp_mono_sp,2021.2.3,Win32,60.0024001,,,,,,,,,,,
,,,,6,2.6511,4.925925926,0.6249,1,2,10,6,1,stim/feuf_g.wav,,001,2022-03-29_15h37.00.904,exp_mono_sp,2021.2.3,Win32,60.0024001,,,,,,,,,,,
,,,,5,9.9821,1.177777778,1.1304,1,3,11,3,1,stim/p_schwa_g.wav,,001,2022-03-29_15h37.00.904,exp_mono_sp,2021.2.3,Win32,60.0024001,,,,,,,,,,,
,,,,6,3.3556,4.355555556,0.9586,1,4,12,0,1,stim/pof_g.wav,,001,2022-03-29_15h37.00.904,exp_mono_sp,2021.2.3,Win32,60.0024001,,,,,,,,,,,
,,,,7,1.9484,4.507407407,0.9186,1,5,13,5,1,stim/fief_g.wav,,001,2022-03-29_15h37.00.904,exp_mono_sp,2021.2.3,Win32,60.0024001,,,,,,,,,,,
,,,,6,2.3724,4.618518519,0.9692,1,6,14,2,1,stim/peuf_g.wav,,001,2022-03-29_15h37.00.904,exp_mono_sp,2021.2.3,Win32,60.0024001,,,,,,,,,,,
,,,,5,5.007,1.12962963,1.0726,1,7,15,7,1,stim/f_schwa_g.wav,,001,2022-03-29_15h37.00.904,exp_mono_sp,2021.2.3,Win32,60.0024001,,,,,,,,,,,
,,,,7,2.8231,4.948148148,2.0079,2,0,16,5,1,stim/fief_g.wav,,001,2022-03-29_15h37.00.904,exp_mono_sp,2021.2.3,Win32,60.0024001,,,,,,,,,,,
,,,,6,2.7855,4.707407407,0.8575,2,1,17,2,1,stim/peuf_g.wav,,001,2022-03-29_15h37.00.904,exp_mono_sp,2021.2.3,Win32,60.0024001,,,,,,,,,,,
,,,,6,2.3397,4.603703704,0.689,2,2,18,4,1,stim/fof_g.wav,,001,2022-03-29_15h37.00.904,exp_mono_sp,2021.2.3,Win32,60.0024001,,,,,,,,,,,
,,,,5,6.2781,2.985185185,0.9955,2,3,19,0,1,stim/pof_g.wav,,001,2022-03-29_15h37.00.904,exp_mono_sp,2021.2.3,Win32,60.0024001,,,,,,,,,,,
,,,,7,3.2481,4.977777778,1.1321,2,4,20,1,1,stim/pief_g.wav,,001,2022-03-29_15h37.00.904,exp_mono_sp,2021.2.3,Win32,60.0024001,,,,,,,,,,,
,,,,7,10.2816,2.977777778,1.8158,2,5,21,7,1,stim/f_schwa_g.wav,,001,2022-03-29_15h37.00.904,exp_mono_sp,2021.2.3,Win32,60.0024001,,,,,,,,,,,
,,,,6,9.5531,2.02962963,2.9205,2,6,22,6,1,stim/feuf_g.wav,,001,2022-03-29_15h37.00.904,exp_mono_sp,2021.2.3,Win32,60.0024001,,,,,,,,,,,
,,,,5,6.0652,3.981481481,2.4187,2,7,23,3,1,stim/p_schwa_g.wav,,001,2022-03-29_15h37.00.904,exp_mono_sp,2021.2.3,Win32,60.0024001,,,,,,,,,,,
,,,,,,,,,,,,,stim/fof_f.wav,,001,2022-03-29_15h37.00.904,exp_mono_sp,2021.2.3,Win32,60.0024001,space,31.1556,6,4.6112,3.97037037,2.0069,0,0,0,4,1
,,,,,,,,,,,,,stim/f_schwa_f.wav,,001,2022-03-29_15h37.00.904,exp_mono_sp,2021.2.3,Win32,60.0024001,,,7,7.3079,2.974074074,0.7352,0,1,1,7,1
,,,,,,,,,,,,,stim/pof_f.wav,,001,2022-03-29_15h37.00.904,exp_mono_sp,2021.2.3,Win32,60.0024001,,,5,6.9288,1.985185185,0.6904,0,2,2,0,1
,,,,,,,,,,,,,stim/pif_f.wav,,001,2022-03-29_15h37.00.904,exp_mono_sp,2021.2.3,Win32,60.0024001,,,7,3.2893,4.97037037,1.9356,0,3,3,1,1
,,,,,,,,,,,,,stim/p_schwa_f.wav,,001,2022-03-29_15h37.00.904,exp_mono_sp,2021.2.3,Win32,60.0024001,,,6,3.9864,2.988888889,1.0204,0,4,4,3,1
,,,,,,,,,,,,,stim/peuf_f.wav,,001,2022-03-29_15h37.00.904,exp_mono_sp,2021.2.3,Win32,60.0024001,,,6,3.6435,4.018518519,0.815,0,5,5,2,1
,,,,,,,,,,,,,stim/feuf_f.wav,,001,2022-03-29_15h37.00.904,exp_mono_sp,2021.2.3,Win32,60.0024001,,,6,2.0055,4.977777778,0.8736,0,6,6,6,1
,,,,,,,,,,,,,stim/fif_f.wav,,001,2022-03-29_15h37.00.904,exp_mono_sp,2021.2.3,Win32,60.0024001,,,7,2.4997,4.992592593,0.8074,0,7,7,5,1
,,,,,,,,,,,,,stim/pif_f.wav,,001,2022-03-29_15h37.00.904,exp_mono_sp,2021.2.3,Win32,60.0024001,,,7,2.8505,4.992592593,0.5194,1,0,8,1,1
,,,,,,,,,,,,,stim/peuf_f.wav,,001,2022-03-29_15h37.00.904,exp_mono_sp,2021.2.3,Win32,60.0024001,,,6,2.7454,4.992592593,0.6374,1,1,9,2,1
,,,,,,,,,,,,,stim/f_schwa_f.wav,,001,2022-03-29_15h37.00.904,exp_mono_sp,2021.2.3,Win32,60.0024001,,,7,4.0277,1.966666667,1.0166,1,2,10,7,1
,,,,,,,,,,,,,stim/p_schwa_f.wav,,001,2022-03-29_15h37.00.904,exp_mono_sp,2021.2.3,Win32,60.0024001,,,7,8.3152,1.966666667,0.6143,1,3,11,3,1
,,,,,,,,,,,,,stim/feuf_f.wav,,001,2022-03-29_15h37.00.904,exp_mono_sp,2021.2.3,Win32,60.0024001,,,6,3.1148,4.959259259,1.6119,1,4,12,6,1
,,,,,,,,,,,,,stim/fof_f.wav,,001,2022-03-29_15h37.00.904,exp_mono_sp,2021.2.3,Win32,60.0024001,,,5,3.2368,4.981481481,0.7203,1,5,13,4,1
,,,,,,,,,,,,,stim/fif_f.wav,,001,2022-03-29_15h37.00.904,exp_mono_sp,2021.2.3,Win32,60.0024001,,,7,2.1649,4.996296296,0.5266,1,6,14,5,1
,,,,,,,,,,,,,stim/pof_f.wav,,001,2022-03-29_15h37.00.904,exp_mono_sp,2021.2.3,Win32,60.0024001,,,5,3.4191,4.981481481,1.2459,1,7,15,0,1
,,,,,,,,,,,,,stim/feuf_f.wav,,001,2022-03-29_15h37.00.904,exp_mono_sp,2021.2.3,Win32,60.0024001,,,6,2.0412,3.774074074,1.4688,2,0,16,6,1
,,,,,,,,,,,,,stim/pof_f.wav,,001,2022-03-29_15h37.00.904,exp_mono_sp,2021.2.3,Win32,60.0024001,,,5,3.1206,4.992592593,0.9809,2,1,17,0,1
,,,,,,,,,,,,,stim/fof_f.wav,,001,2022-03-29_15h37.00.904,exp_mono_sp,2021.2.3,Win32,60.0024001,,,5,1.9815,4.992592593,0.4686,2,2,18,4,1
,,,,,,,,,,,,,stim/pif_f.wav,,001,2022-03-29_15h37.00.904,exp_mono_sp,2021.2.3,Win32,60.0024001,,,7,3.0701,4.992592593,0.4073,2,3,19,1,1
,,,,,,,,,,,,,stim/f_schwa_f.wav,,001,2022-03-29_15h37.00.904,exp_mono_sp,2021.2.3,Win32,60.0024001,,,5,4.0785,1.974074074,1.1545,2,4,20,7,1
,,,,,,,,,,,,,stim/fif_f.wav,,001,2022-03-29_15h37.00.904,exp_mono_sp,2021.2.3,Win32,60.0024001,,,7,2.6485,4.97037037,0.8628,2,5,21,5,1
,,,,,,,,,,,,,stim/p_schwa_f.wav,,001,2022-03-29_15h37.00.904,exp_mono_sp,2021.2.3,Win32,60.0024001,,,5,8.6909,1.303703704,0.8249,2,6,22,3,1
,,,,,,,,,,,,,stim/peuf_f.wav,,001,2022-03-29_15h37.00.904,exp_mono_sp,2021.2.3,Win32,60.0024001,,,6,2.6717,4.525925926,0.8796,2,7,23,2,1
