check.keys,check.rt,key_resp_7.keys,key_resp_7.rt,key_resp_2.keys,key_resp_2.rt,slider.response,slider.rt,trials.thisRepN,trials.thisTrialN,trials.thisN,trials.thisIndex,trials.ran,stim,participant,session,date,expName,psychopyVersion,OS,frameRate,key_resp_5.keys,key_resp_5.rt,key_resp.keys,key_resp.rt,slider_2.response,slider_2.rt,trials_2.thisRepN,trials_2.thisTrialN,trials_2.thisN,trials_2.thisIndex,trials_2.ran
2,2.832,space,11.408,7,10.352,3.022222222,6.6,0,0,0,4,1,stim/fof_g.wav,sebastian,001,2022-03-29_16h01.19.965,exp_mono_sp,2021.2.3,Win32,59.95203837,,,,,,,,,,,
,,,,7,3.166,4.014814815,1.678,0,1,1,5,1,stim/fief_g.wav,sebastian,001,2022-03-29_16h01.19.965,exp_mono_sp,2021.2.3,Win32,59.95203837,,,,,,,,,,,
,,,,6,6.924,3.02962963,1.971,0,2,2,0,1,stim/pof_g.wav,sebastian,001,2022-03-29_16h01.19.965,exp_mono_sp,2021.2.3,Win32,59.95203837,,,,,,,,,,,
,,,,6,2.531,3.011111111,0.555,0,3,3,6,1,stim/feuf_g.wav,sebastian,001,2022-03-29_16h01.19.965,exp_mono_sp,2021.2.3,Win32,59.95203837,,,,,,,,,,,
,,,,7,3.796,2.933333333,1.457,0,4,4,1,1,stim/pief_g.wav,sebastian,001,2022-03-29_16h01.19.965,exp_mono_sp,2021.2.3,Win32,59.95203837,,,,,,,,,,,
,,,,5,5.517,1.022222222,1.503,0,5,5,7,1,stim/f_schwa_g.wav,sebastian,001,2022-03-29_16h01.19.965,exp_mono_sp,2021.2.3,Win32,59.95203837,,,,,,,,,,,
,,,,6,4.462,1.985185185,1.184,0,6,6,2,1,stim/peuf_g.wav,sebastian,001,2022-03-29_16h01.19.965,exp_mono_sp,2021.2.3,Win32,59.95203837,,,,,,,,,,,
,,,,6,9.61,1.977777778,1.695,0,7,7,3,1,stim/p_schwa_g.wav,sebastian,001,2022-03-29_16h01.19.965,exp_mono_sp,2021.2.3,Win32,59.95203837,,,,,,,,,,,
,,,,6,3.422,2.974074074,0.713,1,0,8,3,1,stim/p_schwa_g.wav,sebastian,001,2022-03-29_16h01.19.965,exp_mono_sp,2021.2.3,Win32,59.95203837,,,,,,,,,,,
,,,,6,2.838,2.133333333,0.53,1,1,9,2,1,stim/peuf_g.wav,sebastian,001,2022-03-29_16h01.19.965,exp_mono_sp,2021.2.3,Win32,59.95203837,,,,,,,,,,,
,,,,6,2.586,2.448148148,0.556,1,2,10,0,1,stim/pof_g.wav,sebastian,001,2022-03-29_16h01.19.965,exp_mono_sp,2021.2.3,Win32,59.95203837,,,,,,,,,,,
,,,,5,2.812,2.385185185,0.565,1,3,11,4,1,stim/fof_g.wav,sebastian,001,2022-03-29_16h01.19.965,exp_mono_sp,2021.2.3,Win32,59.95203837,,,,,,,,,,,
,,,,5,5.707,2.148148148,0.634,1,4,12,7,1,stim/f_schwa_g.wav,sebastian,001,2022-03-29_16h01.19.965,exp_mono_sp,2021.2.3,Win32,59.95203837,,,,,,,,,,,
,,,,6,2.211,2.674074074,0.683,1,5,13,6,1,stim/feuf_g.wav,sebastian,001,2022-03-29_16h01.19.965,exp_mono_sp,2021.2.3,Win32,59.95203837,,,,,,,,,,,
,,,,7,1.518,3.692592593,0.86,1,6,14,5,1,stim/fief_g.wav,sebastian,001,2022-03-29_16h01.19.965,exp_mono_sp,2021.2.3,Win32,59.95203837,,,,,,,,,,,
,,,,7,2.34,4.037037037,0.675,1,7,15,1,1,stim/pief_g.wav,sebastian,001,2022-03-29_16h01.19.965,exp_mono_sp,2021.2.3,Win32,59.95203837,,,,,,,,,,,
,,,,6,2.956,3.062962963,0.743,2,0,16,2,1,stim/peuf_g.wav,sebastian,001,2022-03-29_16h01.19.965,exp_mono_sp,2021.2.3,Win32,59.95203837,,,,,,,,,,,
,,,,5,2.688,2.003703704,0.61,2,1,17,3,1,stim/p_schwa_g.wav,sebastian,001,2022-03-29_16h01.19.965,exp_mono_sp,2021.2.3,Win32,59.95203837,,,,,,,,,,,
,,,,5,1.443,3.018518519,0.71,2,2,18,4,1,stim/fof_g.wav,sebastian,001,2022-03-29_16h01.19.965,exp_mono_sp,2021.2.3,Win32,59.95203837,,,,,,,,,,,
,,,,5,1.961,2.951851852,1.219,2,3,19,0,1,stim/pof_g.wav,sebastian,001,2022-03-29_16h01.19.965,exp_mono_sp,2021.2.3,Win32,59.95203837,,,,,,,,,,,
,,,,7,2.295,3.925925926,0.773,2,4,20,5,1,stim/fief_g.wav,sebastian,001,2022-03-29_16h01.19.965,exp_mono_sp,2021.2.3,Win32,59.95203837,,,,,,,,,,,
,,,,5,2.673,2.955555556,0.504,2,5,21,7,1,stim/f_schwa_g.wav,sebastian,001,2022-03-29_16h01.19.965,exp_mono_sp,2021.2.3,Win32,59.95203837,,,,,,,,,,,
,,,,7,2.306,3.12962963,0.608,2,6,22,1,1,stim/pief_g.wav,sebastian,001,2022-03-29_16h01.19.965,exp_mono_sp,2021.2.3,Win32,59.95203837,,,,,,,,,,,
,,,,5,1.345,2.233333333,0.399,2,7,23,6,1,stim/feuf_g.wav,sebastian,001,2022-03-29_16h01.19.965,exp_mono_sp,2021.2.3,Win32,59.95203837,,,,,,,,,,,
,,,,,,,,,,,,,stim/f_schwa_f.wav,sebastian,001,2022-03-29_16h01.19.965,exp_mono_sp,2021.2.3,Win32,59.95203837,space,4.358,7,1.972,3.118518519,0.592,0,0,0,7,1
,,,,,,,,,,,,,stim/fif_f.wav,sebastian,001,2022-03-29_16h01.19.965,exp_mono_sp,2021.2.3,Win32,59.95203837,,,7,1.757,2.948148148,0.443,0,1,1,5,1
,,,,,,,,,,,,,stim/pof_f.wav,sebastian,001,2022-03-29_16h01.19.965,exp_mono_sp,2021.2.3,Win32,59.95203837,,,6,4.285,3.025925926,0.408,0,2,2,0,1
,,,,,,,,,,,,,stim/pif_f.wav,sebastian,001,2022-03-29_16h01.19.965,exp_mono_sp,2021.2.3,Win32,59.95203837,,,7,2.511,3.003703704,1.332,0,3,3,1,1
,,,,,,,,,,,,,stim/fof_f.wav,sebastian,001,2022-03-29_16h01.19.965,exp_mono_sp,2021.2.3,Win32,59.95203837,,,6,1.717,2.055555556,0.58,0,4,4,4,1
,,,,,,,,,,,,,stim/peuf_f.wav,sebastian,001,2022-03-29_16h01.19.965,exp_mono_sp,2021.2.3,Win32,59.95203837,,,6,2.525,2.988888889,0.635,0,5,5,2,1
,,,,,,,,,,,,,stim/p_schwa_f.wav,sebastian,001,2022-03-29_16h01.19.965,exp_mono_sp,2021.2.3,Win32,59.95203837,,,5,3.611,2.97037037,0.894,0,6,6,3,1
,,,,,,,,,,,,,stim/feuf_f.wav,sebastian,001,2022-03-29_16h01.19.965,exp_mono_sp,2021.2.3,Win32,59.95203837,,,6,1.665,2.125925926,0.935,0,7,7,6,1
,,,,,,,,,,,,,stim/fif_f.wav,sebastian,001,2022-03-29_16h01.19.965,exp_mono_sp,2021.2.3,Win32,59.95203837,,,7,1.456,2.974074074,1.395,1,0,8,5,1
,,,,,,,,,,,,,stim/pof_f.wav,sebastian,001,2022-03-29_16h01.19.965,exp_mono_sp,2021.2.3,Win32,59.95203837,,,5,2.223,2.103703704,0.441,1,1,9,0,1
,,,,,,,,,,,,,stim/peuf_f.wav,sebastian,001,2022-03-29_16h01.19.965,exp_mono_sp,2021.2.3,Win32,59.95203837,,,6,2.406,2.988888889,0.36,1,2,10,2,1
,,,,,,,,,,,,,stim/fof_f.wav,sebastian,001,2022-03-29_16h01.19.965,exp_mono_sp,2021.2.3,Win32,59.95203837,,,5,2.054,2.244444444,0.402,1,3,11,4,1
,,,,,,,,,,,,,stim/feuf_f.wav,sebastian,001,2022-03-29_16h01.19.965,exp_mono_sp,2021.2.3,Win32,59.95203837,,,6,1.746,3.02962963,0.211,1,4,12,6,1
,,,,,,,,,,,,,stim/p_schwa_f.wav,sebastian,001,2022-03-29_16h01.19.965,exp_mono_sp,2021.2.3,Win32,59.95203837,,,6,2.278,3.062962963,0.443,1,5,13,3,1
,,,,,,,,,,,,,stim/f_schwa_f.wav,sebastian,001,2022-03-29_16h01.19.965,exp_mono_sp,2021.2.3,Win32,59.95203837,,,6,1.737,3.125925926,0.295,1,6,14,7,1
,,,,,,,,,,,,,stim/pif_f.wav,sebastian,001,2022-03-29_16h01.19.965,exp_mono_sp,2021.2.3,Win32,59.95203837,,,7,2.251,2.911111111,1.147,1,7,15,1,1
,,,,,,,,,,,,,stim/pof_f.wav,sebastian,001,2022-03-29_16h01.19.965,exp_mono_sp,2021.2.3,Win32,59.95203837,,,5,2.728,2.118518519,0.5,2,0,16,0,1
,,,,,,,,,,,,,stim/fof_f.wav,sebastian,001,2022-03-29_16h01.19.965,exp_mono_sp,2021.2.3,Win32,59.95203837,,,6,1.907,2.907407407,0.366,2,1,17,4,1
,,,,,,,,,,,,,stim/feuf_f.wav,sebastian,001,2022-03-29_16h01.19.965,exp_mono_sp,2021.2.3,Win32,59.95203837,,,6,1.497,2.981481481,0.24,2,2,18,6,1
,,,,,,,,,,,,,stim/peuf_f.wav,sebastian,001,2022-03-29_16h01.19.965,exp_mono_sp,2021.2.3,Win32,59.95203837,,,6,1.987,2.97037037,0.265,2,3,19,2,1
,,,,,,,,,,,,,stim/p_schwa_f.wav,sebastian,001,2022-03-29_16h01.19.965,exp_mono_sp,2021.2.3,Win32,59.95203837,,,6,1.894,3.051851852,0.361,2,4,20,3,1
,,,,,,,,,,,,,stim/pif_f.wav,sebastian,001,2022-03-29_16h01.19.965,exp_mono_sp,2021.2.3,Win32,59.95203837,,,7,2.017,3.837037037,0.459,2,5,21,1,1
,,,,,,,,,,,,,stim/f_schwa_f.wav,sebastian,001,2022-03-29_16h01.19.965,exp_mono_sp,2021.2.3,Win32,59.95203837,,,6,1.499,2.922222222,0.245,2,6,22,7,1
,,,,,,,,,,,,,stim/fif_f.wav,sebastian,001,2022-03-29_16h01.19.965,exp_mono_sp,2021.2.3,Win32,59.95203837,,,7,1.338,4.062962963,0.358,2,7,23,5,1
