check.keys,check.rt,key_resp_7.keys,key_resp_7.rt,key_resp_2.keys,key_resp_2.rt,slider.response,slider.rt,trials.thisRepN,trials.thisTrialN,trials.thisN,trials.thisIndex,trials.ran,stim,participant,session,date,expName,psychopyVersion,OS,frameRate,key_resp_5.keys,key_resp_5.rt,key_resp.keys,key_resp.rt,slider_2.response,slider_2.rt,trials_2.thisRepN,trials_2.thisTrialN,trials_2.thisN,trials_2.thisIndex,trials_2.ran
1,25.261,space,47.541,7,14.087,3.015,13.452,0,0,0,5,1,stim/fief_g.wav,t,001,2022-03-29_15h36.10.408,exp_mono_sp,2021.2.3,Win32,60.0024001,,,,,,,,,,,
,,,,5,13.13,1.985,4.164,0,1,1,0,1,stim/pof_g.wav,t,001,2022-03-29_15h36.10.408,exp_mono_sp,2021.2.3,Win32,60.0024001,,,,,,,,,,,
,,,,7,9.704,1.985,2.642,0,2,2,4,1,stim/fof_g.wav,t,001,2022-03-29_15h36.10.408,exp_mono_sp,2021.2.3,Win32,60.0024001,,,,,,,,,,,
,,,,7,18.32,3.005,5.282,0,3,3,1,1,stim/pief_g.wav,t,001,2022-03-29_15h36.10.408,exp_mono_sp,2021.2.3,Win32,60.0024001,,,,,,,,,,,
,,,,5,16.607,1.04,4.943,0,4,4,6,1,stim/feuf_g.wav,t,001,2022-03-29_15h36.10.408,exp_mono_sp,2021.2.3,Win32,60.0024001,,,,,,,,,,,
,,,,7,12.954,1,1.56,0,5,5,3,1,stim/p_schwa_g.wav,t,001,2022-03-29_15h36.10.408,exp_mono_sp,2021.2.3,Win32,60.0024001,,,,,,,,,,,
,,,,7,8.735,2.01,1.218,0,6,6,2,1,stim/peuf_g.wav,t,001,2022-03-29_15h36.10.408,exp_mono_sp,2021.2.3,Win32,60.0024001,,,,,,,,,,,
,,,,7,4.457,2.015,2.057,0,7,7,7,1,stim/f_schwa_g.wav,t,001,2022-03-29_15h36.10.408,exp_mono_sp,2021.2.3,Win32,60.0024001,,,,,,,,,,,
,,,,7,6.651,2.005,3.305,1,0,8,1,1,stim/pief_g.wav,t,001,2022-03-29_15h36.10.408,exp_mono_sp,2021.2.3,Win32,60.0024001,,,,,,,,,,,
,,,,7,5.041,3.04,3.362,1,1,9,2,1,stim/peuf_g.wav,t,001,2022-03-29_15h36.10.408,exp_mono_sp,2021.2.3,Win32,60.0024001,,,,,,,,,,,
,,,,7,3.369,2.765,1.907,1,2,10,4,1,stim/fof_g.wav,t,001,2022-03-29_15h36.10.408,exp_mono_sp,2021.2.3,Win32,60.0024001,,,,,,,,,,,
,,,,7,8.732,3.035,16.44,1,3,11,7,1,stim/f_schwa_g.wav,t,001,2022-03-29_15h36.10.408,exp_mono_sp,2021.2.3,Win32,60.0024001,,,,,,,,,,,
,,,,5,6.43,1.01,3.303,1,4,12,3,1,stim/p_schwa_g.wav,t,001,2022-03-29_15h36.10.408,exp_mono_sp,2021.2.3,Win32,60.0024001,,,,,,,,,,,
,,,,7,3.705,2.985,2.373,1,5,13,0,1,stim/pof_g.wav,t,001,2022-03-29_15h36.10.408,exp_mono_sp,2021.2.3,Win32,60.0024001,,,,,,,,,,,
,,,,7,5.504,2.595,1.815,1,6,14,6,1,stim/feuf_g.wav,t,001,2022-03-29_15h36.10.408,exp_mono_sp,2021.2.3,Win32,60.0024001,,,,,,,,,,,
,,,,7,3.452,3.015,2.102,1,7,15,5,1,stim/fief_g.wav,t,001,2022-03-29_15h36.10.408,exp_mono_sp,2021.2.3,Win32,60.0024001,,,,,,,,,,,
,,,,7,2.633,4.025,3.467,2,0,16,5,1,stim/fief_g.wav,t,001,2022-03-29_15h36.10.408,exp_mono_sp,2021.2.3,Win32,60.0024001,,,,,,,,,,,
,,,,7,6.929,2.97,3.918,2,1,17,0,1,stim/pof_g.wav,t,001,2022-03-29_15h36.10.408,exp_mono_sp,2021.2.3,Win32,60.0024001,,,,,,,,,,,
,,,,7,6.977,1.955,1.763,2,2,18,3,1,stim/p_schwa_g.wav,t,001,2022-03-29_15h36.10.408,exp_mono_sp,2021.2.3,Win32,60.0024001,,,,,,,,,,,
,,,,7,7.238,1.955,1.303,2,3,19,1,1,stim/pief_g.wav,t,001,2022-03-29_15h36.10.408,exp_mono_sp,2021.2.3,Win32,60.0024001,,,,,,,,,,,
,,,,5,5.602,1.045,2.003,2,4,20,2,1,stim/peuf_g.wav,t,001,2022-03-29_15h36.10.408,exp_mono_sp,2021.2.3,Win32,60.0024001,,,,,,,,,,,
,,,,7,4.287,1,3.938,2,5,21,7,1,stim/f_schwa_g.wav,t,001,2022-03-29_15h36.10.408,exp_mono_sp,2021.2.3,Win32,60.0024001,,,,,,,,,,,
,,,,7,2.859,3.03,1.99,2,6,22,6,1,stim/feuf_g.wav,t,001,2022-03-29_15h36.10.408,exp_mono_sp,2021.2.3,Win32,60.0024001,,,,,,,,,,,
,,,,7,5.042,2.06,2.825,2,7,23,4,1,stim/fof_g.wav,t,001,2022-03-29_15h36.10.408,exp_mono_sp,2021.2.3,Win32,60.0024001,,,,,,,,,,,
,,,,,,,,,,,,,stim/f_schwa_f.wav,t,001,2022-03-29_15h36.10.408,exp_mono_sp,2021.2.3,Win32,60.0024001,space,8.502,7,6.403,1.015,6.472,0,0,0,7,1
,,,,,,,,,,,,,stim/fif_f.wav,t,001,2022-03-29_15h36.10.408,exp_mono_sp,2021.2.3,Win32,60.0024001,,,7,4.444,2.025,2.016,0,1,1,5,1
,,,,,,,,,,,,,stim/pif_f.wav,t,001,2022-03-29_15h36.10.408,exp_mono_sp,2021.2.3,Win32,60.0024001,,,7,4.443,1.02,2.114,0,2,2,1,1
,,,,,,,,,,,,,stim/p_schwa_f.wav,t,001,2022-03-29_15h36.10.408,exp_mono_sp,2021.2.3,Win32,60.0024001,,,7,6.889,1.02,3.05,0,3,3,3,1
,,,,,,,,,,,,,stim/peuf_f.wav,t,001,2022-03-29_15h36.10.408,exp_mono_sp,2021.2.3,Win32,60.0024001,,,7,8.348,2.015,1.937,0,4,4,2,1
,,,,,,,,,,,,,stim/fof_f.wav,t,001,2022-03-29_15h36.10.408,exp_mono_sp,2021.2.3,Win32,60.0024001,,,7,3.416,3.035,2.196,0,5,5,4,1
,,,,,,,,,,,,,stim/pof_f.wav,t,001,2022-03-29_15h36.10.408,exp_mono_sp,2021.2.3,Win32,60.0024001,,,7,4.089,1.065,3.422,0,6,6,0,1
,,,,,,,,,,,,,stim/feuf_f.wav,t,001,2022-03-29_15h36.10.408,exp_mono_sp,2021.2.3,Win32,60.0024001,,,7,3.875,1.045,2.929,0,7,7,6,1
,,,,,,,,,,,,,stim/fif_f.wav,t,001,2022-03-29_15h36.10.408,exp_mono_sp,2021.2.3,Win32,60.0024001,,,7,3.155,4.01,2.628,1,0,8,5,1
,,,,,,,,,,,,,stim/peuf_f.wav,t,001,2022-03-29_15h36.10.408,exp_mono_sp,2021.2.3,Win32,60.0024001,,,7,3.647,2.985,1.442,1,1,9,2,1
,,,,,,,,,,,,,stim/feuf_f.wav,t,001,2022-03-29_15h36.10.408,exp_mono_sp,2021.2.3,Win32,60.0024001,,,7,3.533,2.04,1.538,1,2,10,6,1
,,,,,,,,,,,,,stim/pif_f.wav,t,001,2022-03-29_15h36.10.408,exp_mono_sp,2021.2.3,Win32,60.0024001,,,7,3.652,2,2.152,1,3,11,1,1
,,,,,,,,,,,,,stim/p_schwa_f.wav,t,001,2022-03-29_15h36.10.408,exp_mono_sp,2021.2.3,Win32,60.0024001,,,7,3.4,1.045,2.716,1,4,12,3,1
,,,,,,,,,,,,,stim/f_schwa_f.wav,t,001,2022-03-29_15h36.10.408,exp_mono_sp,2021.2.3,Win32,60.0024001,,,7,25.924,1.005,2.21,1,5,13,7,1
,,,,,,,,,,,,,stim/fof_f.wav,t,001,2022-03-29_15h36.10.408,exp_mono_sp,2021.2.3,Win32,60.0024001,,,7,2.497,1.01,2.064,1,6,14,4,1
,,,,,,,,,,,,,stim/pof_f.wav,t,001,2022-03-29_15h36.10.408,exp_mono_sp,2021.2.3,Win32,60.0024001,,,7,15.689,1.01,1.532,1,7,15,0,1
,,,,,,,,,,,,,stim/f_schwa_f.wav,t,001,2022-03-29_15h36.10.408,exp_mono_sp,2021.2.3,Win32,60.0024001,,,7,2.316,1.08,4.373,2,0,16,7,1
,,,,,,,,,,,,,stim/fif_f.wav,t,001,2022-03-29_15h36.10.408,exp_mono_sp,2021.2.3,Win32,60.0024001,,,7,2.29,1.965,1.524,2,1,17,5,1
,,,,,,,,,,,,,stim/p_schwa_f.wav,t,001,2022-03-29_15h36.10.408,exp_mono_sp,2021.2.3,Win32,60.0024001,,,7,3.019,1.005,1.171,2,2,18,3,1
,,,,,,,,,,,,,stim/feuf_f.wav,t,001,2022-03-29_15h36.10.408,exp_mono_sp,2021.2.3,Win32,60.0024001,,,7,2.253,1.975,1.158,2,3,19,6,1
,,,,,,,,,,,,,stim/peuf_f.wav,t,001,2022-03-29_15h36.10.408,exp_mono_sp,2021.2.3,Win32,60.0024001,,,7,2.962,1.015,4.948,2,4,20,2,1
,,,,,,,,,,,,,stim/pif_f.wav,t,001,2022-03-29_15h36.10.408,exp_mono_sp,2021.2.3,Win32,60.0024001,,,7,3.14,1.995,1.774,2,5,21,1,1
,,,,,,,,,,,,,stim/pof_f.wav,t,001,2022-03-29_15h36.10.408,exp_mono_sp,2021.2.3,Win32,60.0024001,,,7,2.462,1.005,3.048,2,6,22,0,1
,,,,,,,,,,,,,stim/fof_f.wav,t,001,2022-03-29_15h36.10.408,exp_mono_sp,2021.2.3,Win32,60.0024001,,,7,2.747,1.995,2.286,2,7,23,4,1
