instructions_2afc_loop.thisRepN,instructions_2afc_loop.thisTrialN,instructions_2afc_loop.thisN,instructions_2afc_loop.thisIndex,instructions_2afc_loop.ran,instructions_text,continue_text,participant,study_id,session,I am most familiar with Spanish from...*,What part of the US are you from?*,At what age did you begin learning Spanish?*,Are you proficient in any languages other than English/Spanish?*,date,expName,psychopyVersion,OS,frameRate,key_resp_2afc_practice.keys,key_resp_2afc_practice.corr,key_resp_2afc_practice.rt,trials_2afc_practice_loop.thisRepN,trials_2afc_practice_loop.thisTrialN,trials_2afc_practice_loop.thisN,trials_2afc_practice_loop.thisIndex,trials_2afc_practice_loop.ran,path,correct_response,the_col,key_resp_2afc_trial.keys,key_resp_2afc_trial.corr,key_resp_2afc_trial.rt,trials_2afc_loop.thisRepN,trials_2afc_loop.thisTrialN,trials_2afc_loop.thisN,trials_2afc_loop.thisIndex,trials_2afc_loop.ran,item_num,andalusian,argentine,castilian,chilean,cuban,mexican,peruvian,puertorican,key_resp_ac1.keys,key_resp_ac1.corr,key_resp_ac1.rt,ac1_loop.thisRepN,ac1_loop.thisTrialN,ac1_loop.thisN,ac1_loop.thisIndex,ac1_loop.ran,instructions_lextale_loop.thisRepN,instructions_lextale_loop.thisTrialN,instructions_lextale_loop.thisN,instructions_lextale_loop.thisIndex,instructions_lextale_loop.ran,key_resp_lextale_practice.keys,key_resp_lextale_practice.corr,key_resp_lextale_practice.rt,trials_lextale_practice_loop.thisRepN,trials_lextale_practice_loop.thisTrialN,trials_lextale_practice_loop.thisN,trials_lextale_practice_loop.thisIndex,trials_lextale_practice_loop.ran,stim,word,prac_button_real,prac_button_false,key_resp_lextale_trial.keys,key_resp_lextale_trial.corr,key_resp_lextale_trial.rt,trials_lextale_loop.thisRepN,trials_lextale_loop.thisTrialN,trials_lextale_loop.thisN,trials_lextale_loop.thisIndex,trials_lextale_loop.ran,button_real,button_false,key_resp_ac2.keys,key_resp_ac2.corr,key_resp_ac2.rt,check_pass,check_fails,ac2_loop.thisRepN,ac2_loop.thisTrialN,ac2_loop.thisN,ac2_loop.thisIndex,ac2_loop.ran,slider_eq_trial.response,trials_eq_loop.thisRepN,trials_eq_loop.thisTrialN,trials_eq_loop.thisN,trials_eq_loop.thisIndex,trials_eq_loop.ran,item,is_test_item,is_distractor,is_agree_score,is_disagree_score
0,0,0,0,1,"In the following task you are going to hear a series of utterances. 

  You will decide if the utterances sound like questions or not using your keyboard.",(press the spacebar to continue),5658000ca9872d0011e1ba26,60568611ec04488a9e9da93b,6056af9d0471f67178732251,I am not familiar with Spanish,Midwest,NA,no,2021-03-20_22h31.21.331,empathy_intonation_perc,2020.2.10,Win32,60,,,,,,,,,,,,,,,,,,,,,,,,,,,,,,,,,,,,,,,,,,,,,,,,,,,,,,,,,,,,,,,,,,,,,,,,,,,,,,,,,,,,
0,1,1,1,1,"If you believe the utterance is a question, type '1' (for 'yes') and if you do not 
  believe it is a question type '0' (for 'no').

  Let's practice a bit...",(press the spacebar to continue),5658000ca9872d0011e1ba26,60568611ec04488a9e9da93b,6056af9d0471f67178732251,I am not familiar with Spanish,Midwest,NA,no,2021-03-20_22h31.21.331,empathy_intonation_perc,2020.2.10,Win32,60,,,,,,,,,,,,,,,,,,,,,,,,,,,,,,,,,,,,,,,,,,,,,,,,,,,,,,,,,,,,,,,,,,,,,,,,,,,,,,,,,,,,
,,,,,,,5658000ca9872d0011e1ba26,60568611ec04488a9e9da93b,6056af9d0471f67178732251,I am not familiar with Spanish,Midwest,NA,no,2021-03-20_22h31.21.331,empathy_intonation_perc,2020.2.10,Win32,60,1,1,2.701,0,0,0,3,1,./stim/wavs/mexican_question_filler_Felipe-no-tiene-contrasena.wav,1,,,,,,,,,,,,,,,,,,,,,,,,,,,,,,,,,,,,,,,,,,,,,,,,,,,,,,,,,,,,,,,,,,,,,,,,,,
,,,,,,,5658000ca9872d0011e1ba26,60568611ec04488a9e9da93b,6056af9d0471f67178732251,I am not familiar with Spanish,Midwest,NA,no,2021-03-20_22h31.21.331,empathy_intonation_perc,2020.2.10,Win32,60,0,1,2.543,0,1,1,4,1,./stim/wavs/cuban_statement_filler_Cocinabas-por-la-noche.wav,0,,,,,,,,,,,,,,,,,,,,,,,,,,,,,,,,,,,,,,,,,,,,,,,,,,,,,,,,,,,,,,,,,,,,,,,,,,
,,,,,,,5658000ca9872d0011e1ba26,60568611ec04488a9e9da93b,6056af9d0471f67178732251,I am not familiar with Spanish,Midwest,NA,no,2021-03-20_22h31.21.331,empathy_intonation_perc,2020.2.10,Win32,60,1,1,2.333,0,2,2,1,1,./stim/wavs/argentine_question_filler_Mi-vecino-habla-mucho.wav,1,,,,,,,,,,,,,,,,,,,,,,,,,,,,,,,,,,,,,,,,,,,,,,,,,,,,,,,,,,,,,,,,,,,,,,,,,,
,,,,,,,5658000ca9872d0011e1ba26,60568611ec04488a9e9da93b,6056af9d0471f67178732251,I am not familiar with Spanish,Midwest,NA,no,2021-03-20_22h31.21.331,empathy_intonation_perc,2020.2.10,Win32,60,0,1,2.997,0,3,3,7,1,./stim/wavs/puertorican_statement_filler_La-nina-pinta-con-su-amiga.wav,0,,,,,,,,,,,,,,,,,,,,,,,,,,,,,,,,,,,,,,,,,,,,,,,,,,,,,,,,,,,,,,,,,,,,,,,,,,
,,,,,,,5658000ca9872d0011e1ba26,60568611ec04488a9e9da93b,6056af9d0471f67178732251,I am not familiar with Spanish,Midwest,NA,no,2021-03-20_22h31.21.331,empathy_intonation_perc,2020.2.10,Win32,60,0,1,2.819,0,4,4,6,1,./stim/wavs/peruvian_statement_filler_El-nino-habla-con-su-madre.wav,0,,,,,,,,,,,,,,,,,,,,,,,,,,,,,,,,,,,,,,,,,,,,,,,,,,,,,,,,,,,,,,,,,,,,,,,,,,
,,,,,,,5658000ca9872d0011e1ba26,60568611ec04488a9e9da93b,6056af9d0471f67178732251,I am not familiar with Spanish,Midwest,NA,no,2021-03-20_22h31.21.331,empathy_intonation_perc,2020.2.10,Win32,60,1,1,2.501,0,5,5,0,1,./stim/wavs/castilian_question_filler_Mi-esposo-conoce-al-chico.wav,1,,,,,,,,,,,,,,,,,,,,,,,,,,,,,,,,,,,,,,,,,,,,,,,,,,,,,,,,,,,,,,,,,,,,,,,,,,
,,,,,,,5658000ca9872d0011e1ba26,60568611ec04488a9e9da93b,6056af9d0471f67178732251,I am not familiar with Spanish,Midwest,NA,no,2021-03-20_22h31.21.331,empathy_intonation_perc,2020.2.10,Win32,60,0,0,2.902,0,6,6,2,1,./stim/wavs/chilean_question_filler_Mi-padre-cantaba-bien.wav,1,,,,,,,,,,,,,,,,,,,,,,,,,,,,,,,,,,,,,,,,,,,,,,,,,,,,,,,,,,,,,,,,,,,,,,,,,,
,,,,,,,5658000ca9872d0011e1ba26,60568611ec04488a9e9da93b,6056af9d0471f67178732251,I am not familiar with Spanish,Midwest,NA,no,2021-03-20_22h31.21.331,empathy_intonation_perc,2020.2.10,Win32,60,0,1,2.247,0,7,7,5,1,./stim/wavs/andalusian_statement_filler_Alberto-nunca-se-afeita.wav,0,,,,,,,,,,,,,,,,,,,,,,,,,,,,,,,,,,,,,,,,,,,,,,,,,,,,,,,,,,,,,,,,,,,,,,,,,,
,,,,,,,5658000ca9872d0011e1ba26,60568611ec04488a9e9da93b,6056af9d0471f67178732251,I am not familiar with Spanish,Midwest,NA,no,2021-03-20_22h31.21.331,empathy_intonation_perc,2020.2.10,Win32,60,,,,,,,,,,0,argentine,0,1,2.093,0,0,0,3,1,4,./stim/wavs/andalusian_match_declarative-broad-focus_Emilio-ama-la-marcha.wav,./stim/wavs/argentine_match_declarative-broad-focus_Emilio-ama-la-marcha.wav,./stim/wavs/castilian_match_declarative-broad-focus_Emilio-ama-la-marcha.wav,./stim/wavs/chilean_match_declarative-broad-focus_Emilio-ama-la-marcha.wav,./stim/wavs/cuban_match_declarative-broad-focus_Emilio-ama-la-marcha.wav,./stim/wavs/mexican_match_declarative-broad-focus_Emilio-ama-la-marcha.wav,./stim/wavs/peruvian_match_declarative-broad-focus_Emilio-ama-la-marcha.wav,./stim/wavs/puertorican_match_declarative-broad-focus_Emilio-ama-la-marcha.wav,,,,,,,,,,,,,,,,,,,,,,,,,,,,,,,,,,,,,,,,,,,,,,,,,,,,,,,,
,,,,,,,5658000ca9872d0011e1ba26,60568611ec04488a9e9da93b,6056af9d0471f67178732251,I am not familiar with Spanish,Midwest,NA,no,2021-03-20_22h31.21.331,empathy_intonation_perc,2020.2.10,Win32,60,,,,,,,,,,0,peruvian,0,1,2.134,0,1,1,4,1,5,./stim/wavs/andalusian_match_declarative-broad-focus_Manuela-vende-el-carro.wav,./stim/wavs/argentine_match_declarative-broad-focus_Manuela-vende-el-carro.wav,./stim/wavs/castilian_match_declarative-broad-focus_Manuela-vende-el-carro.wav,./stim/wavs/chilean_match_declarative-broad-focus_Manuela-vende-el-carro.wav,./stim/wavs/cuban_match_declarative-broad-focus_Manuela-vende-el-carro.wav,./stim/wavs/mexican_match_declarative-broad-focus_Manuela-vende-el-carro.wav,./stim/wavs/peruvian_match_declarative-broad-focus_Manuela-vende-el-carro.wav,./stim/wavs/puertorican_match_declarative-broad-focus_Manuela-vende-el-carro.wav,,,,,,,,,,,,,,,,,,,,,,,,,,,,,,,,,,,,,,,,,,,,,,,,,,,,,,,,
,,,,,,,5658000ca9872d0011e1ba26,60568611ec04488a9e9da93b,6056af9d0471f67178732251,I am not familiar with Spanish,Midwest,NA,no,2021-03-20_22h31.21.331,empathy_intonation_perc,2020.2.10,Win32,60,,,,,,,,,,0,cuban,0,1,1.83,0,2,2,36,1,37,./stim/wavs/andalusian_mismatch_declarative-broad-focus_La-nina-lava-el-plato.wav,./stim/wavs/argentine_mismatch_declarative-broad-focus_La-nina-lava-el-plato.wav,./stim/wavs/castilian_mismatch_declarative-broad-focus_La-nina-lava-el-plato.wav,./stim/wavs/chilean_mismatch_declarative-broad-focus_La-nina-lava-el-plato.wav,./stim/wavs/cuban_mismatch_declarative-broad-focus_La-nina-lava-el-plato.wav,./stim/wavs/mexican_mismatch_declarative-broad-focus_La-nina-lava-el-plato.wav,./stim/wavs/peruvian_mismatch_declarative-broad-focus_La-nina-lava-el-plato.wav,./stim/wavs/puertorican_mismatch_declarative-broad-focus_La-nina-lava-el-plato.wav,,,,,,,,,,,,,,,,,,,,,,,,,,,,,,,,,,,,,,,,,,,,,,,,,,,,,,,,
,,,,,,,5658000ca9872d0011e1ba26,60568611ec04488a9e9da93b,6056af9d0471f67178732251,I am not familiar with Spanish,Midwest,NA,no,2021-03-20_22h31.21.331,empathy_intonation_perc,2020.2.10,Win32,60,,,,,,,,,,1,andalusian,1,1,3.259,0,3,3,56,1,57,./stim/wavs/andalusian_mismatch_interrogative-total-yn_El-bebe-comia-muy-bien.wav,./stim/wavs/argentine_mismatch_interrogative-total-yn_El-bebe-comia-muy-bien.wav,./stim/wavs/castilian_mismatch_interrogative-total-yn_El-bebe-comia-muy-bien.wav,./stim/wavs/chilean_mismatch_interrogative-total-yn_El-bebe-comia-muy-bien.wav,./stim/wavs/cuban_mismatch_interrogative-total-yn_El-bebe-comia-muy-bien.wav,./stim/wavs/mexican_mismatch_interrogative-total-yn_El-bebe-comia-muy-bien.wav,./stim/wavs/peruvian_mismatch_interrogative-total-yn_El-bebe-comia-muy-bien.wav,./stim/wavs/puertorican_mismatch_interrogative-total-yn_El-bebe-comia-muy-bien.wav,,,,,,,,,,,,,,,,,,,,,,,,,,,,,,,,,,,,,,,,,,,,,,,,,,,,,,,,
,,,,,,,5658000ca9872d0011e1ba26,60568611ec04488a9e9da93b,6056af9d0471f67178732251,I am not familiar with Spanish,Midwest,NA,no,2021-03-20_22h31.21.331,empathy_intonation_perc,2020.2.10,Win32,60,,,,,,,,,,1,cuban,0,0,3.181,0,4,4,48,1,49,./stim/wavs/andalusian_mismatch_interrogative-partial-wh_Cuando-comia-la-fruta.wav,./stim/wavs/argentine_mismatch_interrogative-partial-wh_Cuando-comia-la-fruta.wav,./stim/wavs/castilian_mismatch_interrogative-partial-wh_Cuando-comia-la-fruta.wav,./stim/wavs/chilean_mismatch_interrogative-partial-wh_Cuando-comia-la-fruta.wav,./stim/wavs/cuban_mismatch_interrogative-partial-wh_Cuando-comia-la-fruta.wav,./stim/wavs/mexican_mismatch_interrogative-partial-wh_Cuando-comia-la-fruta.wav,./stim/wavs/peruvian_mismatch_interrogative-partial-wh_Cuando-comia-la-fruta.wav,./stim/wavs/puertorican_mismatch_interrogative-partial-wh_Cuando-comia-la-fruta.wav,,,,,,,,,,,,,,,,,,,,,,,,,,,,,,,,,,,,,,,,,,,,,,,,,,,,,,,,
,,,,,,,5658000ca9872d0011e1ba26,60568611ec04488a9e9da93b,6056af9d0471f67178732251,I am not familiar with Spanish,Midwest,NA,no,2021-03-20_22h31.21.331,empathy_intonation_perc,2020.2.10,Win32,60,,,,,,,,,,1,chilean,1,1,3.302,0,5,5,26,1,27,./stim/wavs/andalusian_match_interrogative-total-yn_David-leia-el-libro.wav,./stim/wavs/argentine_match_interrogative-total-yn_David-leia-el-libro.wav,./stim/wavs/castilian_match_interrogative-total-yn_David-leia-el-libro.wav,./stim/wavs/chilean_match_interrogative-total-yn_David-leia-el-libro.wav,./stim/wavs/cuban_match_interrogative-total-yn_David-leia-el-libro.wav,./stim/wavs/mexican_match_interrogative-total-yn_David-leia-el-libro.wav,./stim/wavs/peruvian_match_interrogative-total-yn_David-leia-el-libro.wav,./stim/wavs/puertorican_match_interrogative-total-yn_David-leia-el-libro.wav,,,,,,,,,,,,,,,,,,,,,,,,,,,,,,,,,,,,,,,,,,,,,,,,,,,,,,,,
,,,,,,,5658000ca9872d0011e1ba26,60568611ec04488a9e9da93b,6056af9d0471f67178732251,I am not familiar with Spanish,Midwest,NA,no,2021-03-20_22h31.21.331,empathy_intonation_perc,2020.2.10,Win32,60,,,,,,,,,,0,argentine,0,1,3.177,0,6,6,37,1,38,./stim/wavs/andalusian_mismatch_declarative-broad-focus_Mi-madre-come-la-fruta.wav,./stim/wavs/argentine_mismatch_declarative-broad-focus_Mi-madre-come-la-fruta.wav,./stim/wavs/castilian_mismatch_declarative-broad-focus_Mi-madre-come-la-fruta.wav,./stim/wavs/chilean_mismatch_declarative-broad-focus_Mi-madre-come-la-fruta.wav,./stim/wavs/cuban_mismatch_declarative-broad-focus_Mi-madre-come-la-fruta.wav,./stim/wavs/mexican_mismatch_declarative-broad-focus_Mi-madre-come-la-fruta.wav,./stim/wavs/peruvian_mismatch_declarative-broad-focus_Mi-madre-come-la-fruta.wav,./stim/wavs/puertorican_mismatch_declarative-broad-focus_Mi-madre-come-la-fruta.wav,,,,,,,,,,,,,,,,,,,,,,,,,,,,,,,,,,,,,,,,,,,,,,,,,,,,,,,,
,,,,,,,5658000ca9872d0011e1ba26,60568611ec04488a9e9da93b,6056af9d0471f67178732251,I am not familiar with Spanish,Midwest,NA,no,2021-03-20_22h31.21.331,empathy_intonation_perc,2020.2.10,Win32,60,,,,,,,,,,0,argentine,0,1,2.101,0,7,7,11,1,12,./stim/wavs/andalusian_match_declarative-narrow-focus_Emilio-ama-la-marcha.wav,./stim/wavs/argentine_match_declarative-narrow-focus_Emilio-ama-la-marcha.wav,./stim/wavs/castilian_match_declarative-narrow-focus_Emilio-ama-la-marcha.wav,./stim/wavs/chilean_match_declarative-narrow-focus_Emilio-ama-la-marcha.wav,./stim/wavs/cuban_match_declarative-narrow-focus_Emilio-ama-la-marcha.wav,./stim/wavs/mexican_match_declarative-narrow-focus_Emilio-ama-la-marcha.wav,./stim/wavs/peruvian_match_declarative-narrow-focus_Emilio-ama-la-marcha.wav,./stim/wavs/puertorican_match_declarative-narrow-focus_Emilio-ama-la-marcha.wav,,,,,,,,,,,,,,,,,,,,,,,,,,,,,,,,,,,,,,,,,,,,,,,,,,,,,,,,
,,,,,,,5658000ca9872d0011e1ba26,60568611ec04488a9e9da93b,6056af9d0471f67178732251,I am not familiar with Spanish,Midwest,NA,no,2021-03-20_22h31.21.331,empathy_intonation_perc,2020.2.10,Win32,60,,,,,,,,,,1,argentine,0,0,2.451,0,8,8,19,1,20,./stim/wavs/andalusian_match_interrogative-partial-wh_Cuando-vendia-el-carro.wav,./stim/wavs/argentine_match_interrogative-partial-wh_Cuando-vendia-el-carro.wav,./stim/wavs/castilian_match_interrogative-partial-wh_Cuando-vendia-el-carro.wav,./stim/wavs/chilean_match_interrogative-partial-wh_Cuando-vendia-el-carro.wav,./stim/wavs/cuban_match_interrogative-partial-wh_Cuando-vendia-el-carro.wav,./stim/wavs/mexican_match_interrogative-partial-wh_Cuando-vendia-el-carro.wav,./stim/wavs/peruvian_match_interrogative-partial-wh_Cuando-vendia-el-carro.wav,./stim/wavs/puertorican_match_interrogative-partial-wh_Cuando-vendia-el-carro.wav,,,,,,,,,,,,,,,,,,,,,,,,,,,,,,,,,,,,,,,,,,,,,,,,,,,,,,,,
,,,,,,,5658000ca9872d0011e1ba26,60568611ec04488a9e9da93b,6056af9d0471f67178732251,I am not familiar with Spanish,Midwest,NA,no,2021-03-20_22h31.21.331,empathy_intonation_perc,2020.2.10,Win32,60,,,,,,,,,,0,mexican,0,1,1.906,0,9,9,33,1,34,./stim/wavs/andalusian_mismatch_declarative-broad-focus_El-hombre-mira-la-luna.wav,./stim/wavs/argentine_mismatch_declarative-broad-focus_El-hombre-mira-la-luna.wav,./stim/wavs/castilian_mismatch_declarative-broad-focus_El-hombre-mira-la-luna.wav,./stim/wavs/chilean_mismatch_declarative-broad-focus_El-hombre-mira-la-luna.wav,./stim/wavs/cuban_mismatch_declarative-broad-focus_El-hombre-mira-la-luna.wav,./stim/wavs/mexican_mismatch_declarative-broad-focus_El-hombre-mira-la-luna.wav,./stim/wavs/peruvian_mismatch_declarative-broad-focus_El-hombre-mira-la-luna.wav,./stim/wavs/puertorican_mismatch_declarative-broad-focus_El-hombre-mira-la-luna.wav,,,,,,,,,,,,,,,,,,,,,,,,,,,,,,,,,,,,,,,,,,,,,,,,,,,,,,,,
,,,,,,,5658000ca9872d0011e1ba26,60568611ec04488a9e9da93b,6056af9d0471f67178732251,I am not familiar with Spanish,Midwest,NA,no,2021-03-20_22h31.21.331,empathy_intonation_perc,2020.2.10,Win32,60,,,,,,,,,,1,andalusian,1,1,2.411,0,10,10,23,1,24,./stim/wavs/andalusian_match_interrogative-partial-wh_Por-que-iba-a-Bolivia.wav,./stim/wavs/argentine_match_interrogative-partial-wh_Por-que-iba-a-Bolivia.wav,./stim/wavs/castilian_match_interrogative-partial-wh_Por-que-iba-a-Bolivia.wav,./stim/wavs/chilean_match_interrogative-partial-wh_Por-que-iba-a-Bolivia.wav,./stim/wavs/cuban_match_interrogative-partial-wh_Por-que-iba-a-Bolivia.wav,./stim/wavs/mexican_match_interrogative-partial-wh_Por-que-iba-a-Bolivia.wav,./stim/wavs/peruvian_match_interrogative-partial-wh_Por-que-iba-a-Bolivia.wav,./stim/wavs/puertorican_match_interrogative-partial-wh_Por-que-iba-a-Bolivia.wav,,,,,,,,,,,,,,,,,,,,,,,,,,,,,,,,,,,,,,,,,,,,,,,,,,,,,,,,
,,,,,,,5658000ca9872d0011e1ba26,60568611ec04488a9e9da93b,6056af9d0471f67178732251,I am not familiar with Spanish,Midwest,NA,no,2021-03-20_22h31.21.331,empathy_intonation_perc,2020.2.10,Win32,60,,,,,,,,,,0,chilean,0,1,2.414,0,11,11,45,1,46,./stim/wavs/andalusian_mismatch_declarative-narrow-focus_Mi-madre-come-la-fruta.wav,./stim/wavs/argentine_mismatch_declarative-narrow-focus_Mi-madre-come-la-fruta.wav,./stim/wavs/castilian_mismatch_declarative-narrow-focus_Mi-madre-come-la-fruta.wav,./stim/wavs/chilean_mismatch_declarative-narrow-focus_Mi-madre-come-la-fruta.wav,./stim/wavs/cuban_mismatch_declarative-narrow-focus_Mi-madre-come-la-fruta.wav,./stim/wavs/mexican_mismatch_declarative-narrow-focus_Mi-madre-come-la-fruta.wav,./stim/wavs/peruvian_mismatch_declarative-narrow-focus_Mi-madre-come-la-fruta.wav,./stim/wavs/puertorican_mismatch_declarative-narrow-focus_Mi-madre-come-la-fruta.wav,,,,,,,,,,,,,,,,,,,,,,,,,,,,,,,,,,,,,,,,,,,,,,,,,,,,,,,,
,,,,,,,5658000ca9872d0011e1ba26,60568611ec04488a9e9da93b,6056af9d0471f67178732251,I am not familiar with Spanish,Midwest,NA,no,2021-03-20_22h31.21.331,empathy_intonation_perc,2020.2.10,Win32,60,,,,,,,,,,0,chilean,0,1,2.056,0,12,12,8,1,9,./stim/wavs/andalusian_match_declarative-narrow-focus_Ana-lleva-el-abrigo.wav,./stim/wavs/argentine_match_declarative-narrow-focus_Ana-lleva-el-abrigo.wav,./stim/wavs/castilian_match_declarative-narrow-focus_Ana-lleva-el-abrigo.wav,./stim/wavs/chilean_match_declarative-narrow-focus_Ana-lleva-el-abrigo.wav,./stim/wavs/cuban_match_declarative-narrow-focus_Ana-lleva-el-abrigo.wav,./stim/wavs/mexican_match_declarative-narrow-focus_Ana-lleva-el-abrigo.wav,./stim/wavs/peruvian_match_declarative-narrow-focus_Ana-lleva-el-abrigo.wav,./stim/wavs/puertorican_match_declarative-narrow-focus_Ana-lleva-el-abrigo.wav,,,,,,,,,,,,,,,,,,,,,,,,,,,,,,,,,,,,,,,,,,,,,,,,,,,,,,,,
,,,,,,,5658000ca9872d0011e1ba26,60568611ec04488a9e9da93b,6056af9d0471f67178732251,I am not familiar with Spanish,Midwest,NA,no,2021-03-20_22h31.21.331,empathy_intonation_perc,2020.2.10,Win32,60,,,,,,,,,,0,mexican,0,1,2.109,0,13,13,9,1,10,./stim/wavs/andalusian_match_declarative-narrow-focus_Daniel-iba-a-Bolivia.wav,./stim/wavs/argentine_match_declarative-narrow-focus_Daniel-iba-a-Bolivia.wav,./stim/wavs/castilian_match_declarative-narrow-focus_Daniel-iba-a-Bolivia.wav,./stim/wavs/chilean_match_declarative-narrow-focus_Daniel-iba-a-Bolivia.wav,./stim/wavs/cuban_match_declarative-narrow-focus_Daniel-iba-a-Bolivia.wav,./stim/wavs/mexican_match_declarative-narrow-focus_Daniel-iba-a-Bolivia.wav,./stim/wavs/peruvian_match_declarative-narrow-focus_Daniel-iba-a-Bolivia.wav,./stim/wavs/puertorican_match_declarative-narrow-focus_Daniel-iba-a-Bolivia.wav,,,,,,,,,,,,,,,,,,,,,,,,,,,,,,,,,,,,,,,,,,,,,,,,,,,,,,,,
,,,,,,,5658000ca9872d0011e1ba26,60568611ec04488a9e9da93b,6056af9d0471f67178732251,I am not familiar with Spanish,Midwest,NA,no,2021-03-20_22h31.21.331,empathy_intonation_perc,2020.2.10,Win32,60,,,,,,,,,,1,puertorican,0,0,2.631,0,14,14,30,1,31,./stim/wavs/andalusian_match_interrogative-total-yn_Mariano-habla-del-tiempo.wav,./stim/wavs/argentine_match_interrogative-total-yn_Mariano-habla-del-tiempo.wav,./stim/wavs/castilian_match_interrogative-total-yn_Mariano-habla-del-tiempo.wav,./stim/wavs/chilean_match_interrogative-total-yn_Mariano-habla-del-tiempo.wav,./stim/wavs/cuban_match_interrogative-total-yn_Mariano-habla-del-tiempo.wav,./stim/wavs/mexican_match_interrogative-total-yn_Mariano-habla-del-tiempo.wav,./stim/wavs/peruvian_match_interrogative-total-yn_Mariano-habla-del-tiempo.wav,./stim/wavs/puertorican_match_interrogative-total-yn_Mariano-habla-del-tiempo.wav,,,,,,,,,,,,,,,,,,,,,,,,,,,,,,,,,,,,,,,,,,,,,,,,,,,,,,,,
,,,,,,,5658000ca9872d0011e1ba26,60568611ec04488a9e9da93b,6056af9d0471f67178732251,I am not familiar with Spanish,Midwest,NA,no,2021-03-20_22h31.21.331,empathy_intonation_perc,2020.2.10,Win32,60,,,,,,,,,,0,cuban,0,1,1.913,0,15,15,12,1,13,./stim/wavs/andalusian_match_declarative-narrow-focus_Manuela-vende-el-carro.wav,./stim/wavs/argentine_match_declarative-narrow-focus_Manuela-vende-el-carro.wav,./stim/wavs/castilian_match_declarative-narrow-focus_Manuela-vende-el-carro.wav,./stim/wavs/chilean_match_declarative-narrow-focus_Manuela-vende-el-carro.wav,./stim/wavs/cuban_match_declarative-narrow-focus_Manuela-vende-el-carro.wav,./stim/wavs/mexican_match_declarative-narrow-focus_Manuela-vende-el-carro.wav,./stim/wavs/peruvian_match_declarative-narrow-focus_Manuela-vende-el-carro.wav,./stim/wavs/puertorican_match_declarative-narrow-focus_Manuela-vende-el-carro.wav,,,,,,,,,,,,,,,,,,,,,,,,,,,,,,,,,,,,,,,,,,,,,,,,,,,,,,,,
,,,,,,,5658000ca9872d0011e1ba26,60568611ec04488a9e9da93b,6056af9d0471f67178732251,I am not familiar with Spanish,Midwest,NA,no,2021-03-20_22h31.21.331,empathy_intonation_perc,2020.2.10,Win32,60,,,,,,,,,,1,peruvian,1,1,3.704,0,16,16,18,1,19,./stim/wavs/andalusian_match_interrogative-partial-wh_Cuando-lleva-el-abrigo.wav,./stim/wavs/argentine_match_interrogative-partial-wh_Cuando-lleva-el-abrigo.wav,./stim/wavs/castilian_match_interrogative-partial-wh_Cuando-lleva-el-abrigo.wav,./stim/wavs/chilean_match_interrogative-partial-wh_Cuando-lleva-el-abrigo.wav,./stim/wavs/cuban_match_interrogative-partial-wh_Cuando-lleva-el-abrigo.wav,./stim/wavs/mexican_match_interrogative-partial-wh_Cuando-lleva-el-abrigo.wav,./stim/wavs/peruvian_match_interrogative-partial-wh_Cuando-lleva-el-abrigo.wav,./stim/wavs/puertorican_match_interrogative-partial-wh_Cuando-lleva-el-abrigo.wav,,,,,,,,,,,,,,,,,,,,,,,,,,,,,,,,,,,,,,,,,,,,,,,,,,,,,,,,
,,,,,,,5658000ca9872d0011e1ba26,60568611ec04488a9e9da93b,6056af9d0471f67178732251,I am not familiar with Spanish,Midwest,NA,no,2021-03-20_22h31.21.331,empathy_intonation_perc,2020.2.10,Win32,60,,,,,,,,,,0,castilian,0,1,3.819,0,17,17,35,1,36,./stim/wavs/andalusian_mismatch_declarative-broad-focus_La-maestra-vive-en-Paris.wav,./stim/wavs/argentine_mismatch_declarative-broad-focus_La-maestra-vive-en-Paris.wav,./stim/wavs/castilian_mismatch_declarative-broad-focus_La-maestra-vive-en-Paris.wav,./stim/wavs/chilean_mismatch_declarative-broad-focus_La-maestra-vive-en-Paris.wav,./stim/wavs/cuban_mismatch_declarative-broad-focus_La-maestra-vive-en-Paris.wav,./stim/wavs/mexican_mismatch_declarative-broad-focus_La-maestra-vive-en-Paris.wav,./stim/wavs/peruvian_mismatch_declarative-broad-focus_La-maestra-vive-en-Paris.wav,./stim/wavs/puertorican_mismatch_declarative-broad-focus_La-maestra-vive-en-Paris.wav,,,,,,,,,,,,,,,,,,,,,,,,,,,,,,,,,,,,,,,,,,,,,,,,,,,,,,,,
,,,,,,,5658000ca9872d0011e1ba26,60568611ec04488a9e9da93b,6056af9d0471f67178732251,I am not familiar with Spanish,Midwest,NA,no,2021-03-20_22h31.21.331,empathy_intonation_perc,2020.2.10,Win32,60,,,,,,,,,,1,chilean,0,0,2.33,0,18,18,53,1,54,./stim/wavs/andalusian_mismatch_interrogative-partial-wh_Por-que-oia-el-rio.wav,./stim/wavs/argentine_mismatch_interrogative-partial-wh_Por-que-oia-el-rio.wav,./stim/wavs/castilian_mismatch_interrogative-partial-wh_Por-que-oia-el-rio.wav,./stim/wavs/chilean_mismatch_interrogative-partial-wh_Por-que-oia-el-rio.wav,./stim/wavs/cuban_mismatch_interrogative-partial-wh_Por-que-oia-el-rio.wav,./stim/wavs/mexican_mismatch_interrogative-partial-wh_Por-que-oia-el-rio.wav,./stim/wavs/peruvian_mismatch_interrogative-partial-wh_Por-que-oia-el-rio.wav,./stim/wavs/puertorican_mismatch_interrogative-partial-wh_Por-que-oia-el-rio.wav,,,,,,,,,,,,,,,,,,,,,,,,,,,,,,,,,,,,,,,,,,,,,,,,,,,,,,,,
,,,,,,,5658000ca9872d0011e1ba26,60568611ec04488a9e9da93b,6056af9d0471f67178732251,I am not familiar with Spanish,Midwest,NA,no,2021-03-20_22h31.21.331,empathy_intonation_perc,2020.2.10,Win32,60,,,,,,,,,,0,mexican,0,1,2.293,0,19,19,13,1,14,./stim/wavs/andalusian_match_declarative-narrow-focus_Maria-bebe-el-vino.wav,./stim/wavs/argentine_match_declarative-narrow-focus_Maria-bebe-el-vino.wav,./stim/wavs/castilian_match_declarative-narrow-focus_Maria-bebe-el-vino.wav,./stim/wavs/chilean_match_declarative-narrow-focus_Maria-bebe-el-vino.wav,./stim/wavs/cuban_match_declarative-narrow-focus_Maria-bebe-el-vino.wav,./stim/wavs/mexican_match_declarative-narrow-focus_Maria-bebe-el-vino.wav,./stim/wavs/peruvian_match_declarative-narrow-focus_Maria-bebe-el-vino.wav,./stim/wavs/puertorican_match_declarative-narrow-focus_Maria-bebe-el-vino.wav,,,,,,,,,,,,,,,,,,,,,,,,,,,,,,,,,,,,,,,,,,,,,,,,,,,,,,,,
,,,,,,,5658000ca9872d0011e1ba26,60568611ec04488a9e9da93b,6056af9d0471f67178732251,I am not familiar with Spanish,Midwest,NA,no,2021-03-20_22h31.21.331,empathy_intonation_perc,2020.2.10,Win32,60,,,,,,,,,,0,puertorican,0,1,2.058,0,20,20,7,1,8,./stim/wavs/andalusian_match_declarative-broad-focus_Marta-abre-el-regalo.wav,./stim/wavs/argentine_match_declarative-broad-focus_Marta-abre-el-regalo.wav,./stim/wavs/castilian_match_declarative-broad-focus_Marta-abre-el-regalo.wav,./stim/wavs/chilean_match_declarative-broad-focus_Marta-abre-el-regalo.wav,./stim/wavs/cuban_match_declarative-broad-focus_Marta-abre-el-regalo.wav,./stim/wavs/mexican_match_declarative-broad-focus_Marta-abre-el-regalo.wav,./stim/wavs/peruvian_match_declarative-broad-focus_Marta-abre-el-regalo.wav,./stim/wavs/puertorican_match_declarative-broad-focus_Marta-abre-el-regalo.wav,,,,,,,,,,,,,,,,,,,,,,,,,,,,,,,,,,,,,,,,,,,,,,,,,,,,,,,,
,,,,,,,5658000ca9872d0011e1ba26,60568611ec04488a9e9da93b,6056af9d0471f67178732251,I am not familiar with Spanish,Midwest,NA,no,2021-03-20_22h31.21.331,empathy_intonation_perc,2020.2.10,Win32,60,,,,,,,,,,1,peruvian,0,0,3.972,0,21,21,21,1,22,./stim/wavs/andalusian_match_interrogative-partial-wh_Por-que-ama-la-navidad.wav,./stim/wavs/argentine_match_interrogative-partial-wh_Por-que-ama-la-navidad.wav,./stim/wavs/castilian_match_interrogative-partial-wh_Por-que-ama-la-navidad.wav,./stim/wavs/chilean_match_interrogative-partial-wh_Por-que-ama-la-navidad.wav,./stim/wavs/cuban_match_interrogative-partial-wh_Por-que-ama-la-navidad.wav,./stim/wavs/mexican_match_interrogative-partial-wh_Por-que-ama-la-navidad.wav,./stim/wavs/peruvian_match_interrogative-partial-wh_Por-que-ama-la-navidad.wav,./stim/wavs/puertorican_match_interrogative-partial-wh_Por-que-ama-la-navidad.wav,,,,,,,,,,,,,,,,,,,,,,,,,,,,,,,,,,,,,,,,,,,,,,,,,,,,,,,,
,,,,,,,5658000ca9872d0011e1ba26,60568611ec04488a9e9da93b,6056af9d0471f67178732251,I am not familiar with Spanish,Midwest,NA,no,2021-03-20_22h31.21.331,empathy_intonation_perc,2020.2.10,Win32,60,,,,,,,,,,1,chilean,1,1,2.334,0,22,22,61,1,62,./stim/wavs/andalusian_mismatch_interrogative-total-yn_Mi-madre-come-la-fruta.wav,./stim/wavs/argentine_mismatch_interrogative-total-yn_Mi-madre-come-la-fruta.wav,./stim/wavs/castilian_mismatch_interrogative-total-yn_Mi-madre-come-la-fruta.wav,./stim/wavs/chilean_mismatch_interrogative-total-yn_Mi-madre-come-la-fruta.wav,./stim/wavs/cuban_mismatch_interrogative-total-yn_Mi-madre-come-la-fruta.wav,./stim/wavs/mexican_mismatch_interrogative-total-yn_Mi-madre-come-la-fruta.wav,./stim/wavs/peruvian_mismatch_interrogative-total-yn_Mi-madre-come-la-fruta.wav,./stim/wavs/puertorican_mismatch_interrogative-total-yn_Mi-madre-come-la-fruta.wav,,,,,,,,,,,,,,,,,,,,,,,,,,,,,,,,,,,,,,,,,,,,,,,,,,,,,,,,
,,,,,,,5658000ca9872d0011e1ba26,60568611ec04488a9e9da93b,6056af9d0471f67178732251,I am not familiar with Spanish,Midwest,NA,no,2021-03-20_22h31.21.331,empathy_intonation_perc,2020.2.10,Win32,60,,,,,,,,,,1,andalusian,1,1,3.897,0,23,23,17,1,18,./stim/wavs/andalusian_match_interrogative-partial-wh_Cuando-leia-el-libro.wav,./stim/wavs/argentine_match_interrogative-partial-wh_Cuando-leia-el-libro.wav,./stim/wavs/castilian_match_interrogative-partial-wh_Cuando-leia-el-libro.wav,./stim/wavs/chilean_match_interrogative-partial-wh_Cuando-leia-el-libro.wav,./stim/wavs/cuban_match_interrogative-partial-wh_Cuando-leia-el-libro.wav,./stim/wavs/mexican_match_interrogative-partial-wh_Cuando-leia-el-libro.wav,./stim/wavs/peruvian_match_interrogative-partial-wh_Cuando-leia-el-libro.wav,./stim/wavs/puertorican_match_interrogative-partial-wh_Cuando-leia-el-libro.wav,,,,,,,,,,,,,,,,,,,,,,,,,,,,,,,,,,,,,,,,,,,,,,,,,,,,,,,,
,,,,,,,5658000ca9872d0011e1ba26,60568611ec04488a9e9da93b,6056af9d0471f67178732251,I am not familiar with Spanish,Midwest,NA,no,2021-03-20_22h31.21.331,empathy_intonation_perc,2020.2.10,Win32,60,,,,,,,,,,0,chilean,0,1,3.056,0,24,24,14,1,15,./stim/wavs/andalusian_match_declarative-narrow-focus_Mariano-habla-del-tiempo.wav,./stim/wavs/argentine_match_declarative-narrow-focus_Mariano-habla-del-tiempo.wav,./stim/wavs/castilian_match_declarative-narrow-focus_Mariano-habla-del-tiempo.wav,./stim/wavs/chilean_match_declarative-narrow-focus_Mariano-habla-del-tiempo.wav,./stim/wavs/cuban_match_declarative-narrow-focus_Mariano-habla-del-tiempo.wav,./stim/wavs/mexican_match_declarative-narrow-focus_Mariano-habla-del-tiempo.wav,./stim/wavs/peruvian_match_declarative-narrow-focus_Mariano-habla-del-tiempo.wav,./stim/wavs/puertorican_match_declarative-narrow-focus_Mariano-habla-del-tiempo.wav,,,,,,,,,,,,,,,,,,,,,,,,,,,,,,,,,,,,,,,,,,,,,,,,,,,,,,,,
,,,,,,,5658000ca9872d0011e1ba26,60568611ec04488a9e9da93b,6056af9d0471f67178732251,I am not familiar with Spanish,Midwest,NA,no,2021-03-20_22h31.21.331,empathy_intonation_perc,2020.2.10,Win32,60,,,,,,,,,,1,castilian,1,1,2.798,0,25,25,59,1,60,./stim/wavs/andalusian_mismatch_interrogative-total-yn_La-maestra-vive-en-Paris.wav,./stim/wavs/argentine_mismatch_interrogative-total-yn_La-maestra-vive-en-Paris.wav,./stim/wavs/castilian_mismatch_interrogative-total-yn_La-maestra-vive-en-Paris.wav,./stim/wavs/chilean_mismatch_interrogative-total-yn_La-maestra-vive-en-Paris.wav,./stim/wavs/cuban_mismatch_interrogative-total-yn_La-maestra-vive-en-Paris.wav,./stim/wavs/mexican_mismatch_interrogative-total-yn_La-maestra-vive-en-Paris.wav,./stim/wavs/peruvian_mismatch_interrogative-total-yn_La-maestra-vive-en-Paris.wav,./stim/wavs/puertorican_mismatch_interrogative-total-yn_La-maestra-vive-en-Paris.wav,,,,,,,,,,,,,,,,,,,,,,,,,,,,,,,,,,,,,,,,,,,,,,,,,,,,,,,,
,,,,,,,5658000ca9872d0011e1ba26,60568611ec04488a9e9da93b,6056af9d0471f67178732251,I am not familiar with Spanish,Midwest,NA,no,2021-03-20_22h31.21.331,empathy_intonation_perc,2020.2.10,Win32,60,,,,,,,,,,1,puertorican,0,0,2.385,0,26,26,28,1,29,./stim/wavs/andalusian_match_interrogative-total-yn_Manuela-vende-el-carro.wav,./stim/wavs/argentine_match_interrogative-total-yn_Manuela-vende-el-carro.wav,./stim/wavs/castilian_match_interrogative-total-yn_Manuela-vende-el-carro.wav,./stim/wavs/chilean_match_interrogative-total-yn_Manuela-vende-el-carro.wav,./stim/wavs/cuban_match_interrogative-total-yn_Manuela-vende-el-carro.wav,./stim/wavs/mexican_match_interrogative-total-yn_Manuela-vende-el-carro.wav,./stim/wavs/peruvian_match_interrogative-total-yn_Manuela-vende-el-carro.wav,./stim/wavs/puertorican_match_interrogative-total-yn_Manuela-vende-el-carro.wav,,,,,,,,,,,,,,,,,,,,,,,,,,,,,,,,,,,,,,,,,,,,,,,,,,,,,,,,
,,,,,,,5658000ca9872d0011e1ba26,60568611ec04488a9e9da93b,6056af9d0471f67178732251,I am not familiar with Spanish,Midwest,NA,no,2021-03-20_22h31.21.331,empathy_intonation_perc,2020.2.10,Win32,60,,,,,,,,,,0,peruvian,0,1,2.114,0,27,27,15,1,16,./stim/wavs/andalusian_match_declarative-narrow-focus_Marta-abre-el-regalo.wav,./stim/wavs/argentine_match_declarative-narrow-focus_Marta-abre-el-regalo.wav,./stim/wavs/castilian_match_declarative-narrow-focus_Marta-abre-el-regalo.wav,./stim/wavs/chilean_match_declarative-narrow-focus_Marta-abre-el-regalo.wav,./stim/wavs/cuban_match_declarative-narrow-focus_Marta-abre-el-regalo.wav,./stim/wavs/mexican_match_declarative-narrow-focus_Marta-abre-el-regalo.wav,./stim/wavs/peruvian_match_declarative-narrow-focus_Marta-abre-el-regalo.wav,./stim/wavs/puertorican_match_declarative-narrow-focus_Marta-abre-el-regalo.wav,,,,,,,,,,,,,,,,,,,,,,,,,,,,,,,,,,,,,,,,,,,,,,,,,,,,,,,,
,,,,,,,5658000ca9872d0011e1ba26,60568611ec04488a9e9da93b,6056af9d0471f67178732251,I am not familiar with Spanish,Midwest,NA,no,2021-03-20_22h31.21.331,empathy_intonation_perc,2020.2.10,Win32,60,,,,,,,,,,1,cuban,0,0,1.818,0,28,28,27,1,28,./stim/wavs/andalusian_match_interrogative-total-yn_Emilio-ama-la-marcha.wav,./stim/wavs/argentine_match_interrogative-total-yn_Emilio-ama-la-marcha.wav,./stim/wavs/castilian_match_interrogative-total-yn_Emilio-ama-la-marcha.wav,./stim/wavs/chilean_match_interrogative-total-yn_Emilio-ama-la-marcha.wav,./stim/wavs/cuban_match_interrogative-total-yn_Emilio-ama-la-marcha.wav,./stim/wavs/mexican_match_interrogative-total-yn_Emilio-ama-la-marcha.wav,./stim/wavs/peruvian_match_interrogative-total-yn_Emilio-ama-la-marcha.wav,./stim/wavs/puertorican_match_interrogative-total-yn_Emilio-ama-la-marcha.wav,,,,,,,,,,,,,,,,,,,,,,,,,,,,,,,,,,,,,,,,,,,,,,,,,,,,,,,,
,,,,,,,5658000ca9872d0011e1ba26,60568611ec04488a9e9da93b,6056af9d0471f67178732251,I am not familiar with Spanish,Midwest,NA,no,2021-03-20_22h31.21.331,empathy_intonation_perc,2020.2.10,Win32,60,,,,,,,,,,1,andalusian,1,1,2.19,0,29,29,55,1,56,./stim/wavs/andalusian_mismatch_interrogative-partial-wh_Por-que-vivia-en-Paris.wav,./stim/wavs/argentine_mismatch_interrogative-partial-wh_Por-que-vivia-en-Paris.wav,./stim/wavs/castilian_mismatch_interrogative-partial-wh_Por-que-vivia-en-Paris.wav,./stim/wavs/chilean_mismatch_interrogative-partial-wh_Por-que-vivia-en-Paris.wav,./stim/wavs/cuban_mismatch_interrogative-partial-wh_Por-que-vivia-en-Paris.wav,./stim/wavs/mexican_mismatch_interrogative-partial-wh_Por-que-vivia-en-Paris.wav,./stim/wavs/peruvian_mismatch_interrogative-partial-wh_Por-que-vivia-en-Paris.wav,./stim/wavs/puertorican_mismatch_interrogative-partial-wh_Por-que-vivia-en-Paris.wav,,,,,,,,,,,,,,,,,,,,,,,,,,,,,,,,,,,,,,,,,,,,,,,,,,,,,,,,
,,,,,,,5658000ca9872d0011e1ba26,60568611ec04488a9e9da93b,6056af9d0471f67178732251,I am not familiar with Spanish,Midwest,NA,no,2021-03-20_22h31.21.331,empathy_intonation_perc,2020.2.10,Win32,60,,,,,,,,,,1,cuban,0,0,2.377,0,30,30,63,1,64,./stim/wavs/andalusian_mismatch_interrogative-total-yn_Mi-tia-odia-la-lluvia.wav,./stim/wavs/argentine_mismatch_interrogative-total-yn_Mi-tia-odia-la-lluvia.wav,./stim/wavs/castilian_mismatch_interrogative-total-yn_Mi-tia-odia-la-lluvia.wav,./stim/wavs/chilean_mismatch_interrogative-total-yn_Mi-tia-odia-la-lluvia.wav,./stim/wavs/cuban_mismatch_interrogative-total-yn_Mi-tia-odia-la-lluvia.wav,./stim/wavs/mexican_mismatch_interrogative-total-yn_Mi-tia-odia-la-lluvia.wav,./stim/wavs/peruvian_mismatch_interrogative-total-yn_Mi-tia-odia-la-lluvia.wav,./stim/wavs/puertorican_mismatch_interrogative-total-yn_Mi-tia-odia-la-lluvia.wav,,,,,,,,,,,,,,,,,,,,,,,,,,,,,,,,,,,,,,,,,,,,,,,,,,,,,,,,
,,,,,,,5658000ca9872d0011e1ba26,60568611ec04488a9e9da93b,6056af9d0471f67178732251,I am not familiar with Spanish,Midwest,NA,no,2021-03-20_22h31.21.331,empathy_intonation_perc,2020.2.10,Win32,60,,,,,,,,,,1,andalusian,1,1,3.201,0,31,31,54,1,55,./stim/wavs/andalusian_mismatch_interrogative-partial-wh_Por-que-venia-del-lago.wav,./stim/wavs/argentine_mismatch_interrogative-partial-wh_Por-que-venia-del-lago.wav,./stim/wavs/castilian_mismatch_interrogative-partial-wh_Por-que-venia-del-lago.wav,./stim/wavs/chilean_mismatch_interrogative-partial-wh_Por-que-venia-del-lago.wav,./stim/wavs/cuban_mismatch_interrogative-partial-wh_Por-que-venia-del-lago.wav,./stim/wavs/mexican_mismatch_interrogative-partial-wh_Por-que-venia-del-lago.wav,./stim/wavs/peruvian_mismatch_interrogative-partial-wh_Por-que-venia-del-lago.wav,./stim/wavs/puertorican_mismatch_interrogative-partial-wh_Por-que-venia-del-lago.wav,,,,,,,,,,,,,,,,,,,,,,,,,,,,,,,,,,,,,,,,,,,,,,,,,,,,,,,,
,,,,,,,5658000ca9872d0011e1ba26,60568611ec04488a9e9da93b,6056af9d0471f67178732251,I am not familiar with Spanish,Midwest,NA,no,2021-03-20_22h31.21.331,empathy_intonation_perc,2020.2.10,Win32,60,,,,,,,,,,0,chilean,0,1,3.213,0,32,32,44,1,45,./stim/wavs/andalusian_mismatch_declarative-narrow-focus_La-nina-lava-el-plato.wav,./stim/wavs/argentine_mismatch_declarative-narrow-focus_La-nina-lava-el-plato.wav,./stim/wavs/castilian_mismatch_declarative-narrow-focus_La-nina-lava-el-plato.wav,./stim/wavs/chilean_mismatch_declarative-narrow-focus_La-nina-lava-el-plato.wav,./stim/wavs/cuban_mismatch_declarative-narrow-focus_La-nina-lava-el-plato.wav,./stim/wavs/mexican_mismatch_declarative-narrow-focus_La-nina-lava-el-plato.wav,./stim/wavs/peruvian_mismatch_declarative-narrow-focus_La-nina-lava-el-plato.wav,./stim/wavs/puertorican_mismatch_declarative-narrow-focus_La-nina-lava-el-plato.wav,,,,,,,,,,,,,,,,,,,,,,,,,,,,,,,,,,,,,,,,,,,,,,,,,,,,,,,,
,,,,,,,5658000ca9872d0011e1ba26,60568611ec04488a9e9da93b,6056af9d0471f67178732251,I am not familiar with Spanish,Midwest,NA,no,2021-03-20_22h31.21.331,empathy_intonation_perc,2020.2.10,Win32,60,,,,,,,,,,1,argentine,1,1,5.795,0,33,33,16,1,17,./stim/wavs/andalusian_match_interrogative-partial-wh_Cuando-bebia-el-vino.wav,./stim/wavs/argentine_match_interrogative-partial-wh_Cuando-bebia-el-vino.wav,./stim/wavs/castilian_match_interrogative-partial-wh_Cuando-bebia-el-vino.wav,./stim/wavs/chilean_match_interrogative-partial-wh_Cuando-bebia-el-vino.wav,./stim/wavs/cuban_match_interrogative-partial-wh_Cuando-bebia-el-vino.wav,./stim/wavs/mexican_match_interrogative-partial-wh_Cuando-bebia-el-vino.wav,./stim/wavs/peruvian_match_interrogative-partial-wh_Cuando-bebia-el-vino.wav,./stim/wavs/puertorican_match_interrogative-partial-wh_Cuando-bebia-el-vino.wav,,,,,,,,,,,,,,,,,,,,,,,,,,,,,,,,,,,,,,,,,,,,,,,,,,,,,,,,
,,,,,,,5658000ca9872d0011e1ba26,60568611ec04488a9e9da93b,6056af9d0471f67178732251,I am not familiar with Spanish,Midwest,NA,no,2021-03-20_22h31.21.331,empathy_intonation_perc,2020.2.10,Win32,60,,,,,,,,,,1,argentine,1,1,2.727,0,34,34,24,1,25,./stim/wavs/andalusian_match_interrogative-total-yn_Ana-lleva-el-abrigo.wav,./stim/wavs/argentine_match_interrogative-total-yn_Ana-lleva-el-abrigo.wav,./stim/wavs/castilian_match_interrogative-total-yn_Ana-lleva-el-abrigo.wav,./stim/wavs/chilean_match_interrogative-total-yn_Ana-lleva-el-abrigo.wav,./stim/wavs/cuban_match_interrogative-total-yn_Ana-lleva-el-abrigo.wav,./stim/wavs/mexican_match_interrogative-total-yn_Ana-lleva-el-abrigo.wav,./stim/wavs/peruvian_match_interrogative-total-yn_Ana-lleva-el-abrigo.wav,./stim/wavs/puertorican_match_interrogative-total-yn_Ana-lleva-el-abrigo.wav,,,,,,,,,,,,,,,,,,,,,,,,,,,,,,,,,,,,,,,,,,,,,,,,,,,,,,,,
,,,,,,,5658000ca9872d0011e1ba26,60568611ec04488a9e9da93b,6056af9d0471f67178732251,I am not familiar with Spanish,Midwest,NA,no,2021-03-20_22h31.21.331,empathy_intonation_perc,2020.2.10,Win32,60,,,,,,,,,,0,mexican,0,1,3.122,0,35,35,34,1,35,./stim/wavs/andalusian_mismatch_declarative-broad-focus_El-nino-oye-el-rio.wav,./stim/wavs/argentine_mismatch_declarative-broad-focus_El-nino-oye-el-rio.wav,./stim/wavs/castilian_mismatch_declarative-broad-focus_El-nino-oye-el-rio.wav,./stim/wavs/chilean_mismatch_declarative-broad-focus_El-nino-oye-el-rio.wav,./stim/wavs/cuban_mismatch_declarative-broad-focus_El-nino-oye-el-rio.wav,./stim/wavs/mexican_mismatch_declarative-broad-focus_El-nino-oye-el-rio.wav,./stim/wavs/peruvian_mismatch_declarative-broad-focus_El-nino-oye-el-rio.wav,./stim/wavs/puertorican_mismatch_declarative-broad-focus_El-nino-oye-el-rio.wav,,,,,,,,,,,,,,,,,,,,,,,,,,,,,,,,,,,,,,,,,,,,,,,,,,,,,,,,
,,,,,,,5658000ca9872d0011e1ba26,60568611ec04488a9e9da93b,6056af9d0471f67178732251,I am not familiar with Spanish,Midwest,NA,no,2021-03-20_22h31.21.331,empathy_intonation_perc,2020.2.10,Win32,60,,,,,,,,,,1,andalusian,0,0,3.981,0,36,36,20,1,21,./stim/wavs/andalusian_match_interrogative-partial-wh_Por-que-abre-el-regalo.wav,./stim/wavs/argentine_match_interrogative-partial-wh_Por-que-abre-el-regalo.wav,./stim/wavs/castilian_match_interrogative-partial-wh_Por-que-abre-el-regalo.wav,./stim/wavs/chilean_match_interrogative-partial-wh_Por-que-abre-el-regalo.wav,./stim/wavs/cuban_match_interrogative-partial-wh_Por-que-abre-el-regalo.wav,./stim/wavs/mexican_match_interrogative-partial-wh_Por-que-abre-el-regalo.wav,./stim/wavs/peruvian_match_interrogative-partial-wh_Por-que-abre-el-regalo.wav,./stim/wavs/puertorican_match_interrogative-partial-wh_Por-que-abre-el-regalo.wav,,,,,,,,,,,,,,,,,,,,,,,,,,,,,,,,,,,,,,,,,,,,,,,,,,,,,,,,
,,,,,,,5658000ca9872d0011e1ba26,60568611ec04488a9e9da93b,6056af9d0471f67178732251,I am not familiar with Spanish,Midwest,NA,no,2021-03-20_22h31.21.331,empathy_intonation_perc,2020.2.10,Win32,60,,,,,,,,,,1,castilian,1,1,2.336,0,37,37,25,1,26,./stim/wavs/andalusian_match_interrogative-total-yn_Daniel-iba-a-Bolivia.wav,./stim/wavs/argentine_match_interrogative-total-yn_Daniel-iba-a-Bolivia.wav,./stim/wavs/castilian_match_interrogative-total-yn_Daniel-iba-a-Bolivia.wav,./stim/wavs/chilean_match_interrogative-total-yn_Daniel-iba-a-Bolivia.wav,./stim/wavs/cuban_match_interrogative-total-yn_Daniel-iba-a-Bolivia.wav,./stim/wavs/mexican_match_interrogative-total-yn_Daniel-iba-a-Bolivia.wav,./stim/wavs/peruvian_match_interrogative-total-yn_Daniel-iba-a-Bolivia.wav,./stim/wavs/puertorican_match_interrogative-total-yn_Daniel-iba-a-Bolivia.wav,,,,,,,,,,,,,,,,,,,,,,,,,,,,,,,,,,,,,,,,,,,,,,,,,,,,,,,,
,,,,,,,5658000ca9872d0011e1ba26,60568611ec04488a9e9da93b,6056af9d0471f67178732251,I am not familiar with Spanish,Midwest,NA,no,2021-03-20_22h31.21.331,empathy_intonation_perc,2020.2.10,Win32,60,,,,,,,,,,1,mexican,1,1,1.972,0,38,38,50,1,51,./stim/wavs/andalusian_mismatch_interrogative-partial-wh_Cuando-miraba-la-luna.wav,./stim/wavs/argentine_mismatch_interrogative-partial-wh_Cuando-miraba-la-luna.wav,./stim/wavs/castilian_mismatch_interrogative-partial-wh_Cuando-miraba-la-luna.wav,./stim/wavs/chilean_mismatch_interrogative-partial-wh_Cuando-miraba-la-luna.wav,./stim/wavs/cuban_mismatch_interrogative-partial-wh_Cuando-miraba-la-luna.wav,./stim/wavs/mexican_mismatch_interrogative-partial-wh_Cuando-miraba-la-luna.wav,./stim/wavs/peruvian_mismatch_interrogative-partial-wh_Cuando-miraba-la-luna.wav,./stim/wavs/puertorican_mismatch_interrogative-partial-wh_Cuando-miraba-la-luna.wav,,,,,,,,,,,,,,,,,,,,,,,,,,,,,,,,,,,,,,,,,,,,,,,,,,,,,,,,
,,,,,,,5658000ca9872d0011e1ba26,60568611ec04488a9e9da93b,6056af9d0471f67178732251,I am not familiar with Spanish,Midwest,NA,no,2021-03-20_22h31.21.331,empathy_intonation_perc,2020.2.10,Win32,60,,,,,,,,,,1,castilian,1,1,2.61,0,39,39,22,1,23,./stim/wavs/andalusian_match_interrogative-partial-wh_Por-que-hablaba-del-agua.wav,./stim/wavs/argentine_match_interrogative-partial-wh_Por-que-hablaba-del-agua.wav,./stim/wavs/castilian_match_interrogative-partial-wh_Por-que-hablaba-del-agua.wav,./stim/wavs/chilean_match_interrogative-partial-wh_Por-que-hablaba-del-agua.wav,./stim/wavs/cuban_match_interrogative-partial-wh_Por-que-hablaba-del-agua.wav,./stim/wavs/mexican_match_interrogative-partial-wh_Por-que-hablaba-del-agua.wav,./stim/wavs/peruvian_match_interrogative-partial-wh_Por-que-hablaba-del-agua.wav,./stim/wavs/puertorican_match_interrogative-partial-wh_Por-que-hablaba-del-agua.wav,,,,,,,,,,,,,,,,,,,,,,,,,,,,,,,,,,,,,,,,,,,,,,,,,,,,,,,,
,,,,,,,5658000ca9872d0011e1ba26,60568611ec04488a9e9da93b,6056af9d0471f67178732251,I am not familiar with Spanish,Midwest,NA,no,2021-03-20_22h31.21.331,empathy_intonation_perc,2020.2.10,Win32,60,,,,,,,,,,1,castilian,1,1,2.077,0,40,40,57,1,58,./stim/wavs/andalusian_mismatch_interrogative-total-yn_El-hombre-mira-la-luna.wav,./stim/wavs/argentine_mismatch_interrogative-total-yn_El-hombre-mira-la-luna.wav,./stim/wavs/castilian_mismatch_interrogative-total-yn_El-hombre-mira-la-luna.wav,./stim/wavs/chilean_mismatch_interrogative-total-yn_El-hombre-mira-la-luna.wav,./stim/wavs/cuban_mismatch_interrogative-total-yn_El-hombre-mira-la-luna.wav,./stim/wavs/mexican_mismatch_interrogative-total-yn_El-hombre-mira-la-luna.wav,./stim/wavs/peruvian_mismatch_interrogative-total-yn_El-hombre-mira-la-luna.wav,./stim/wavs/puertorican_mismatch_interrogative-total-yn_El-hombre-mira-la-luna.wav,,,,,,,,,,,,,,,,,,,,,,,,,,,,,,,,,,,,,,,,,,,,,,,,,,,,,,,,
,,,,,,,5658000ca9872d0011e1ba26,60568611ec04488a9e9da93b,6056af9d0471f67178732251,I am not familiar with Spanish,Midwest,NA,no,2021-03-20_22h31.21.331,empathy_intonation_perc,2020.2.10,Win32,60,,,,,,,,,,1,puertorican,0,0,2.068,0,41,41,58,1,59,./stim/wavs/andalusian_mismatch_interrogative-total-yn_El-nino-oye-el-rio.wav,./stim/wavs/argentine_mismatch_interrogative-total-yn_El-nino-oye-el-rio.wav,./stim/wavs/castilian_mismatch_interrogative-total-yn_El-nino-oye-el-rio.wav,./stim/wavs/chilean_mismatch_interrogative-total-yn_El-nino-oye-el-rio.wav,./stim/wavs/cuban_mismatch_interrogative-total-yn_El-nino-oye-el-rio.wav,./stim/wavs/mexican_mismatch_interrogative-total-yn_El-nino-oye-el-rio.wav,./stim/wavs/peruvian_mismatch_interrogative-total-yn_El-nino-oye-el-rio.wav,./stim/wavs/puertorican_mismatch_interrogative-total-yn_El-nino-oye-el-rio.wav,,,,,,,,,,,,,,,,,,,,,,,,,,,,,,,,,,,,,,,,,,,,,,,,,,,,,,,,
,,,,,,,5658000ca9872d0011e1ba26,60568611ec04488a9e9da93b,6056af9d0471f67178732251,I am not familiar with Spanish,Midwest,NA,no,2021-03-20_22h31.21.331,empathy_intonation_perc,2020.2.10,Win32,60,,,,,,,,,,0,chilean,0,1,3.489,0,42,42,40,1,41,./stim/wavs/andalusian_mismatch_declarative-narrow-focus_El-bebe-comia-muy-bien.wav,./stim/wavs/argentine_mismatch_declarative-narrow-focus_El-bebe-comia-muy-bien.wav,./stim/wavs/castilian_mismatch_declarative-narrow-focus_El-bebe-comia-muy-bien.wav,./stim/wavs/chilean_mismatch_declarative-narrow-focus_El-bebe-comia-muy-bien.wav,./stim/wavs/cuban_mismatch_declarative-narrow-focus_El-bebe-comia-muy-bien.wav,./stim/wavs/mexican_mismatch_declarative-narrow-focus_El-bebe-comia-muy-bien.wav,./stim/wavs/peruvian_mismatch_declarative-narrow-focus_El-bebe-comia-muy-bien.wav,./stim/wavs/puertorican_mismatch_declarative-narrow-focus_El-bebe-comia-muy-bien.wav,,,,,,,,,,,,,,,,,,,,,,,,,,,,,,,,,,,,,,,,,,,,,,,,,,,,,,,,
,,,,,,,5658000ca9872d0011e1ba26,60568611ec04488a9e9da93b,6056af9d0471f67178732251,I am not familiar with Spanish,Midwest,NA,no,2021-03-20_22h31.21.331,empathy_intonation_perc,2020.2.10,Win32,60,,,,,,,,,,1,chilean,0,0,3.16,0,43,43,29,1,30,./stim/wavs/andalusian_match_interrogative-total-yn_Maria-bebe-el-vino.wav,./stim/wavs/argentine_match_interrogative-total-yn_Maria-bebe-el-vino.wav,./stim/wavs/castilian_match_interrogative-total-yn_Maria-bebe-el-vino.wav,./stim/wavs/chilean_match_interrogative-total-yn_Maria-bebe-el-vino.wav,./stim/wavs/cuban_match_interrogative-total-yn_Maria-bebe-el-vino.wav,./stim/wavs/mexican_match_interrogative-total-yn_Maria-bebe-el-vino.wav,./stim/wavs/peruvian_match_interrogative-total-yn_Maria-bebe-el-vino.wav,./stim/wavs/puertorican_match_interrogative-total-yn_Maria-bebe-el-vino.wav,,,,,,,,,,,,,,,,,,,,,,,,,,,,,,,,,,,,,,,,,,,,,,,,,,,,,,,,
,,,,,,,5658000ca9872d0011e1ba26,60568611ec04488a9e9da93b,6056af9d0471f67178732251,I am not familiar with Spanish,Midwest,NA,no,2021-03-20_22h31.21.331,empathy_intonation_perc,2020.2.10,Win32,60,,,,,,,,,,1,castilian,0,0,2.66,0,44,44,62,1,63,./stim/wavs/andalusian_mismatch_interrogative-total-yn_Mi-novio-viene-del-lago.wav,./stim/wavs/argentine_mismatch_interrogative-total-yn_Mi-novio-viene-del-lago.wav,./stim/wavs/castilian_mismatch_interrogative-total-yn_Mi-novio-viene-del-lago.wav,./stim/wavs/chilean_mismatch_interrogative-total-yn_Mi-novio-viene-del-lago.wav,./stim/wavs/cuban_mismatch_interrogative-total-yn_Mi-novio-viene-del-lago.wav,./stim/wavs/mexican_mismatch_interrogative-total-yn_Mi-novio-viene-del-lago.wav,./stim/wavs/peruvian_mismatch_interrogative-total-yn_Mi-novio-viene-del-lago.wav,./stim/wavs/puertorican_mismatch_interrogative-total-yn_Mi-novio-viene-del-lago.wav,,,,,,,,,,,,,,,,,,,,,,,,,,,,,,,,,,,,,,,,,,,,,,,,,,,,,,,,
,,,,,,,5658000ca9872d0011e1ba26,60568611ec04488a9e9da93b,6056af9d0471f67178732251,I am not familiar with Spanish,Midwest,NA,no,2021-03-20_22h31.21.331,empathy_intonation_perc,2020.2.10,Win32,60,,,,,,,,,,0,chilean,0,1,2.17,0,45,45,1,1,2,./stim/wavs/andalusian_match_declarative-broad-focus_Daniel-iba-a-Bolivia.wav,./stim/wavs/argentine_match_declarative-broad-focus_Daniel-iba-a-Bolivia.wav,./stim/wavs/castilian_match_declarative-broad-focus_Daniel-iba-a-Bolivia.wav,./stim/wavs/chilean_match_declarative-broad-focus_Daniel-iba-a-Bolivia.wav,./stim/wavs/cuban_match_declarative-broad-focus_Daniel-iba-a-Bolivia.wav,./stim/wavs/mexican_match_declarative-broad-focus_Daniel-iba-a-Bolivia.wav,./stim/wavs/peruvian_match_declarative-broad-focus_Daniel-iba-a-Bolivia.wav,./stim/wavs/puertorican_match_declarative-broad-focus_Daniel-iba-a-Bolivia.wav,,,,,,,,,,,,,,,,,,,,,,,,,,,,,,,,,,,,,,,,,,,,,,,,,,,,,,,,
,,,,,,,5658000ca9872d0011e1ba26,60568611ec04488a9e9da93b,6056af9d0471f67178732251,I am not familiar with Spanish,Midwest,NA,no,2021-03-20_22h31.21.331,empathy_intonation_perc,2020.2.10,Win32,60,,,,,,,,,,0,andalusian,0,1,2.255,0,46,46,42,1,43,./stim/wavs/andalusian_mismatch_declarative-narrow-focus_El-nino-oye-el-rio.wav,./stim/wavs/argentine_mismatch_declarative-narrow-focus_El-nino-oye-el-rio.wav,./stim/wavs/castilian_mismatch_declarative-narrow-focus_El-nino-oye-el-rio.wav,./stim/wavs/chilean_mismatch_declarative-narrow-focus_El-nino-oye-el-rio.wav,./stim/wavs/cuban_mismatch_declarative-narrow-focus_El-nino-oye-el-rio.wav,./stim/wavs/mexican_mismatch_declarative-narrow-focus_El-nino-oye-el-rio.wav,./stim/wavs/peruvian_mismatch_declarative-narrow-focus_El-nino-oye-el-rio.wav,./stim/wavs/puertorican_mismatch_declarative-narrow-focus_El-nino-oye-el-rio.wav,,,,,,,,,,,,,,,,,,,,,,,,,,,,,,,,,,,,,,,,,,,,,,,,,,,,,,,,
,,,,,,,5658000ca9872d0011e1ba26,60568611ec04488a9e9da93b,6056af9d0471f67178732251,I am not familiar with Spanish,Midwest,NA,no,2021-03-20_22h31.21.331,empathy_intonation_perc,2020.2.10,Win32,60,,,,,,,,,,1,chilean,1,1,2.181,0,47,47,51,1,52,./stim/wavs/andalusian_mismatch_interrogative-partial-wh_Por-que-desayuna-muy-bien.wav,./stim/wavs/argentine_mismatch_interrogative-partial-wh_Por-que-desayuna-muy-bien.wav,./stim/wavs/castilian_mismatch_interrogative-partial-wh_Por-que-desayuna-muy-bien.wav,./stim/wavs/chilean_mismatch_interrogative-partial-wh_Por-que-desayuna-muy-bien.wav,./stim/wavs/cuban_mismatch_interrogative-partial-wh_Por-que-desayuna-muy-bien.wav,./stim/wavs/mexican_mismatch_interrogative-partial-wh_Por-que-desayuna-muy-bien.wav,./stim/wavs/peruvian_mismatch_interrogative-partial-wh_Por-que-desayuna-muy-bien.wav,./stim/wavs/puertorican_mismatch_interrogative-partial-wh_Por-que-desayuna-muy-bien.wav,,,,,,,,,,,,,,,,,,,,,,,,,,,,,,,,,,,,,,,,,,,,,,,,,,,,,,,,
,,,,,,,5658000ca9872d0011e1ba26,60568611ec04488a9e9da93b,6056af9d0471f67178732251,I am not familiar with Spanish,Midwest,NA,no,2021-03-20_22h31.21.331,empathy_intonation_perc,2020.2.10,Win32,60,,,,,,,,,,0,castilian,0,1,2.368,0,48,48,0,1,1,./stim/wavs/andalusian_match_declarative-broad-focus_Ana-lleva-el-abrigo.wav,./stim/wavs/argentine_match_declarative-broad-focus_Ana-lleva-el-abrigo.wav,./stim/wavs/castilian_match_declarative-broad-focus_Ana-lleva-el-abrigo.wav,./stim/wavs/chilean_match_declarative-broad-focus_Ana-lleva-el-abrigo.wav,./stim/wavs/cuban_match_declarative-broad-focus_Ana-lleva-el-abrigo.wav,./stim/wavs/mexican_match_declarative-broad-focus_Ana-lleva-el-abrigo.wav,./stim/wavs/peruvian_match_declarative-broad-focus_Ana-lleva-el-abrigo.wav,./stim/wavs/puertorican_match_declarative-broad-focus_Ana-lleva-el-abrigo.wav,,,,,,,,,,,,,,,,,,,,,,,,,,,,,,,,,,,,,,,,,,,,,,,,,,,,,,,,
,,,,,,,5658000ca9872d0011e1ba26,60568611ec04488a9e9da93b,6056af9d0471f67178732251,I am not familiar with Spanish,Midwest,NA,no,2021-03-20_22h31.21.331,empathy_intonation_perc,2020.2.10,Win32,60,,,,,,,,,,0,cuban,0,1,1.952,0,49,49,38,1,39,./stim/wavs/andalusian_mismatch_declarative-broad-focus_Mi-novio-viene-del-lago.wav,./stim/wavs/argentine_mismatch_declarative-broad-focus_Mi-novio-viene-del-lago.wav,./stim/wavs/castilian_mismatch_declarative-broad-focus_Mi-novio-viene-del-lago.wav,./stim/wavs/chilean_mismatch_declarative-broad-focus_Mi-novio-viene-del-lago.wav,./stim/wavs/cuban_mismatch_declarative-broad-focus_Mi-novio-viene-del-lago.wav,./stim/wavs/mexican_mismatch_declarative-broad-focus_Mi-novio-viene-del-lago.wav,./stim/wavs/peruvian_mismatch_declarative-broad-focus_Mi-novio-viene-del-lago.wav,./stim/wavs/puertorican_mismatch_declarative-broad-focus_Mi-novio-viene-del-lago.wav,,,,,,,,,,,,,,,,,,,,,,,,,,,,,,,,,,,,,,,,,,,,,,,,,,,,,,,,
,,,,,,,5658000ca9872d0011e1ba26,60568611ec04488a9e9da93b,6056af9d0471f67178732251,I am not familiar with Spanish,Midwest,NA,no,2021-03-20_22h31.21.331,empathy_intonation_perc,2020.2.10,Win32,60,,,,,,,,,,0,chilean,0,1,1.786,0,50,50,41,1,42,./stim/wavs/andalusian_mismatch_declarative-narrow-focus_El-hombre-mira-la-luna.wav,./stim/wavs/argentine_mismatch_declarative-narrow-focus_El-hombre-mira-la-luna.wav,./stim/wavs/castilian_mismatch_declarative-narrow-focus_El-hombre-mira-la-luna.wav,./stim/wavs/chilean_mismatch_declarative-narrow-focus_El-hombre-mira-la-luna.wav,./stim/wavs/cuban_mismatch_declarative-narrow-focus_El-hombre-mira-la-luna.wav,./stim/wavs/mexican_mismatch_declarative-narrow-focus_El-hombre-mira-la-luna.wav,./stim/wavs/peruvian_mismatch_declarative-narrow-focus_El-hombre-mira-la-luna.wav,./stim/wavs/puertorican_mismatch_declarative-narrow-focus_El-hombre-mira-la-luna.wav,,,,,,,,,,,,,,,,,,,,,,,,,,,,,,,,,,,,,,,,,,,,,,,,,,,,,,,,
,,,,,,,5658000ca9872d0011e1ba26,60568611ec04488a9e9da93b,6056af9d0471f67178732251,I am not familiar with Spanish,Midwest,NA,no,2021-03-20_22h31.21.331,empathy_intonation_perc,2020.2.10,Win32,60,,,,,,,,,,0,castilian,0,1,1.982,0,51,51,32,1,33,./stim/wavs/andalusian_mismatch_declarative-broad-focus_El-bebe-comia-muy-bien.wav,./stim/wavs/argentine_mismatch_declarative-broad-focus_El-bebe-comia-muy-bien.wav,./stim/wavs/castilian_mismatch_declarative-broad-focus_El-bebe-comia-muy-bien.wav,./stim/wavs/chilean_mismatch_declarative-broad-focus_El-bebe-comia-muy-bien.wav,./stim/wavs/cuban_mismatch_declarative-broad-focus_El-bebe-comia-muy-bien.wav,./stim/wavs/mexican_mismatch_declarative-broad-focus_El-bebe-comia-muy-bien.wav,./stim/wavs/peruvian_mismatch_declarative-broad-focus_El-bebe-comia-muy-bien.wav,./stim/wavs/puertorican_mismatch_declarative-broad-focus_El-bebe-comia-muy-bien.wav,,,,,,,,,,,,,,,,,,,,,,,,,,,,,,,,,,,,,,,,,,,,,,,,,,,,,,,,
,,,,,,,5658000ca9872d0011e1ba26,60568611ec04488a9e9da93b,6056af9d0471f67178732251,I am not familiar with Spanish,Midwest,NA,no,2021-03-20_22h31.21.331,empathy_intonation_perc,2020.2.10,Win32,60,,,,,,,,,,0,peruvian,0,1,2.105,0,52,52,39,1,40,./stim/wavs/andalusian_mismatch_declarative-broad-focus_Mi-tia-odia-la-lluvia.wav,./stim/wavs/argentine_mismatch_declarative-broad-focus_Mi-tia-odia-la-lluvia.wav,./stim/wavs/castilian_mismatch_declarative-broad-focus_Mi-tia-odia-la-lluvia.wav,./stim/wavs/chilean_mismatch_declarative-broad-focus_Mi-tia-odia-la-lluvia.wav,./stim/wavs/cuban_mismatch_declarative-broad-focus_Mi-tia-odia-la-lluvia.wav,./stim/wavs/mexican_mismatch_declarative-broad-focus_Mi-tia-odia-la-lluvia.wav,./stim/wavs/peruvian_mismatch_declarative-broad-focus_Mi-tia-odia-la-lluvia.wav,./stim/wavs/puertorican_mismatch_declarative-broad-focus_Mi-tia-odia-la-lluvia.wav,,,,,,,,,,,,,,,,,,,,,,,,,,,,,,,,,,,,,,,,,,,,,,,,,,,,,,,,
,,,,,,,5658000ca9872d0011e1ba26,60568611ec04488a9e9da93b,6056af9d0471f67178732251,I am not familiar with Spanish,Midwest,NA,no,2021-03-20_22h31.21.331,empathy_intonation_perc,2020.2.10,Win32,60,,,,,,,,,,1,cuban,0,0,2.201,0,53,53,60,1,61,./stim/wavs/andalusian_mismatch_interrogative-total-yn_La-nina-lava-el-plato.wav,./stim/wavs/argentine_mismatch_interrogative-total-yn_La-nina-lava-el-plato.wav,./stim/wavs/castilian_mismatch_interrogative-total-yn_La-nina-lava-el-plato.wav,./stim/wavs/chilean_mismatch_interrogative-total-yn_La-nina-lava-el-plato.wav,./stim/wavs/cuban_mismatch_interrogative-total-yn_La-nina-lava-el-plato.wav,./stim/wavs/mexican_mismatch_interrogative-total-yn_La-nina-lava-el-plato.wav,./stim/wavs/peruvian_mismatch_interrogative-total-yn_La-nina-lava-el-plato.wav,./stim/wavs/puertorican_mismatch_interrogative-total-yn_La-nina-lava-el-plato.wav,,,,,,,,,,,,,,,,,,,,,,,,,,,,,,,,,,,,,,,,,,,,,,,,,,,,,,,,
,,,,,,,5658000ca9872d0011e1ba26,60568611ec04488a9e9da93b,6056af9d0471f67178732251,I am not familiar with Spanish,Midwest,NA,no,2021-03-20_22h31.21.331,empathy_intonation_perc,2020.2.10,Win32,60,,,,,,,,,,0,mexican,0,1,2.067,0,54,54,6,1,7,./stim/wavs/andalusian_match_declarative-broad-focus_Mariano-habla-del-tiempo.wav,./stim/wavs/argentine_match_declarative-broad-focus_Mariano-habla-del-tiempo.wav,./stim/wavs/castilian_match_declarative-broad-focus_Mariano-habla-del-tiempo.wav,./stim/wavs/chilean_match_declarative-broad-focus_Mariano-habla-del-tiempo.wav,./stim/wavs/cuban_match_declarative-broad-focus_Mariano-habla-del-tiempo.wav,./stim/wavs/mexican_match_declarative-broad-focus_Mariano-habla-del-tiempo.wav,./stim/wavs/peruvian_match_declarative-broad-focus_Mariano-habla-del-tiempo.wav,./stim/wavs/puertorican_match_declarative-broad-focus_Mariano-habla-del-tiempo.wav,,,,,,,,,,,,,,,,,,,,,,,,,,,,,,,,,,,,,,,,,,,,,,,,,,,,,,,,
,,,,,,,5658000ca9872d0011e1ba26,60568611ec04488a9e9da93b,6056af9d0471f67178732251,I am not familiar with Spanish,Midwest,NA,no,2021-03-20_22h31.21.331,empathy_intonation_perc,2020.2.10,Win32,60,,,,,,,,,,0,andalusian,0,1,1.993,0,55,55,5,1,6,./stim/wavs/andalusian_match_declarative-broad-focus_Maria-bebe-el-vino.wav,./stim/wavs/argentine_match_declarative-broad-focus_Maria-bebe-el-vino.wav,./stim/wavs/castilian_match_declarative-broad-focus_Maria-bebe-el-vino.wav,./stim/wavs/chilean_match_declarative-broad-focus_Maria-bebe-el-vino.wav,./stim/wavs/cuban_match_declarative-broad-focus_Maria-bebe-el-vino.wav,./stim/wavs/mexican_match_declarative-broad-focus_Maria-bebe-el-vino.wav,./stim/wavs/peruvian_match_declarative-broad-focus_Maria-bebe-el-vino.wav,./stim/wavs/puertorican_match_declarative-broad-focus_Maria-bebe-el-vino.wav,,,,,,,,,,,,,,,,,,,,,,,,,,,,,,,,,,,,,,,,,,,,,,,,,,,,,,,,
,,,,,,,5658000ca9872d0011e1ba26,60568611ec04488a9e9da93b,6056af9d0471f67178732251,I am not familiar with Spanish,Midwest,NA,no,2021-03-20_22h31.21.331,empathy_intonation_perc,2020.2.10,Win32,60,,,,,,,,,,0,cuban,0,1,1.884,0,56,56,10,1,11,./stim/wavs/andalusian_match_declarative-narrow-focus_David-leia-el-libro.wav,./stim/wavs/argentine_match_declarative-narrow-focus_David-leia-el-libro.wav,./stim/wavs/castilian_match_declarative-narrow-focus_David-leia-el-libro.wav,./stim/wavs/chilean_match_declarative-narrow-focus_David-leia-el-libro.wav,./stim/wavs/cuban_match_declarative-narrow-focus_David-leia-el-libro.wav,./stim/wavs/mexican_match_declarative-narrow-focus_David-leia-el-libro.wav,./stim/wavs/peruvian_match_declarative-narrow-focus_David-leia-el-libro.wav,./stim/wavs/puertorican_match_declarative-narrow-focus_David-leia-el-libro.wav,,,,,,,,,,,,,,,,,,,,,,,,,,,,,,,,,,,,,,,,,,,,,,,,,,,,,,,,
,,,,,,,5658000ca9872d0011e1ba26,60568611ec04488a9e9da93b,6056af9d0471f67178732251,I am not familiar with Spanish,Midwest,NA,no,2021-03-20_22h31.21.331,empathy_intonation_perc,2020.2.10,Win32,60,,,,,,,,,,0,castilian,0,1,2.427,0,57,57,43,1,44,./stim/wavs/andalusian_mismatch_declarative-narrow-focus_La-maestra-vive-en-Paris.wav,./stim/wavs/argentine_mismatch_declarative-narrow-focus_La-maestra-vive-en-Paris.wav,./stim/wavs/castilian_mismatch_declarative-narrow-focus_La-maestra-vive-en-Paris.wav,./stim/wavs/chilean_mismatch_declarative-narrow-focus_La-maestra-vive-en-Paris.wav,./stim/wavs/cuban_mismatch_declarative-narrow-focus_La-maestra-vive-en-Paris.wav,./stim/wavs/mexican_mismatch_declarative-narrow-focus_La-maestra-vive-en-Paris.wav,./stim/wavs/peruvian_mismatch_declarative-narrow-focus_La-maestra-vive-en-Paris.wav,./stim/wavs/puertorican_mismatch_declarative-narrow-focus_La-maestra-vive-en-Paris.wav,,,,,,,,,,,,,,,,,,,,,,,,,,,,,,,,,,,,,,,,,,,,,,,,,,,,,,,,
,,,,,,,5658000ca9872d0011e1ba26,60568611ec04488a9e9da93b,6056af9d0471f67178732251,I am not familiar with Spanish,Midwest,NA,no,2021-03-20_22h31.21.331,empathy_intonation_perc,2020.2.10,Win32,60,,,,,,,,,,1,castilian,1,1,2.051,0,58,58,49,1,50,./stim/wavs/andalusian_mismatch_interrogative-partial-wh_Cuando-lavaba-el-plato.wav,./stim/wavs/argentine_mismatch_interrogative-partial-wh_Cuando-lavaba-el-plato.wav,./stim/wavs/castilian_mismatch_interrogative-partial-wh_Cuando-lavaba-el-plato.wav,./stim/wavs/chilean_mismatch_interrogative-partial-wh_Cuando-lavaba-el-plato.wav,./stim/wavs/cuban_mismatch_interrogative-partial-wh_Cuando-lavaba-el-plato.wav,./stim/wavs/mexican_mismatch_interrogative-partial-wh_Cuando-lavaba-el-plato.wav,./stim/wavs/peruvian_mismatch_interrogative-partial-wh_Cuando-lavaba-el-plato.wav,./stim/wavs/puertorican_mismatch_interrogative-partial-wh_Cuando-lavaba-el-plato.wav,,,,,,,,,,,,,,,,,,,,,,,,,,,,,,,,,,,,,,,,,,,,,,,,,,,,,,,,
,,,,,,,5658000ca9872d0011e1ba26,60568611ec04488a9e9da93b,6056af9d0471f67178732251,I am not familiar with Spanish,Midwest,NA,no,2021-03-20_22h31.21.331,empathy_intonation_perc,2020.2.10,Win32,60,,,,,,,,,,0,peruvian,0,1,2.555,0,59,59,46,1,47,./stim/wavs/andalusian_mismatch_declarative-narrow-focus_Mi-novio-viene-del-lago.wav,./stim/wavs/argentine_mismatch_declarative-narrow-focus_Mi-novio-viene-del-lago.wav,./stim/wavs/castilian_mismatch_declarative-narrow-focus_Mi-novio-viene-del-lago.wav,./stim/wavs/chilean_mismatch_declarative-narrow-focus_Mi-novio-viene-del-lago.wav,./stim/wavs/cuban_mismatch_declarative-narrow-focus_Mi-novio-viene-del-lago.wav,./stim/wavs/mexican_mismatch_declarative-narrow-focus_Mi-novio-viene-del-lago.wav,./stim/wavs/peruvian_mismatch_declarative-narrow-focus_Mi-novio-viene-del-lago.wav,./stim/wavs/puertorican_mismatch_declarative-narrow-focus_Mi-novio-viene-del-lago.wav,,,,,,,,,,,,,,,,,,,,,,,,,,,,,,,,,,,,,,,,,,,,,,,,,,,,,,,,
,,,,,,,5658000ca9872d0011e1ba26,60568611ec04488a9e9da93b,6056af9d0471f67178732251,I am not familiar with Spanish,Midwest,NA,no,2021-03-20_22h31.21.331,empathy_intonation_perc,2020.2.10,Win32,60,,,,,,,,,,0,peruvian,0,1,2.613,0,60,60,47,1,48,./stim/wavs/andalusian_mismatch_declarative-narrow-focus_Mi-tia-odia-la-lluvia.wav,./stim/wavs/argentine_mismatch_declarative-narrow-focus_Mi-tia-odia-la-lluvia.wav,./stim/wavs/castilian_mismatch_declarative-narrow-focus_Mi-tia-odia-la-lluvia.wav,./stim/wavs/chilean_mismatch_declarative-narrow-focus_Mi-tia-odia-la-lluvia.wav,./stim/wavs/cuban_mismatch_declarative-narrow-focus_Mi-tia-odia-la-lluvia.wav,./stim/wavs/mexican_mismatch_declarative-narrow-focus_Mi-tia-odia-la-lluvia.wav,./stim/wavs/peruvian_mismatch_declarative-narrow-focus_Mi-tia-odia-la-lluvia.wav,./stim/wavs/puertorican_mismatch_declarative-narrow-focus_Mi-tia-odia-la-lluvia.wav,,,,,,,,,,,,,,,,,,,,,,,,,,,,,,,,,,,,,,,,,,,,,,,,,,,,,,,,
,,,,,,,5658000ca9872d0011e1ba26,60568611ec04488a9e9da93b,6056af9d0471f67178732251,I am not familiar with Spanish,Midwest,NA,no,2021-03-20_22h31.21.331,empathy_intonation_perc,2020.2.10,Win32,60,,,,,,,,,,1,mexican,1,1,2.259,0,61,61,31,1,32,./stim/wavs/andalusian_match_interrogative-total-yn_Marta-abre-el-regalo.wav,./stim/wavs/argentine_match_interrogative-total-yn_Marta-abre-el-regalo.wav,./stim/wavs/castilian_match_interrogative-total-yn_Marta-abre-el-regalo.wav,./stim/wavs/chilean_match_interrogative-total-yn_Marta-abre-el-regalo.wav,./stim/wavs/cuban_match_interrogative-total-yn_Marta-abre-el-regalo.wav,./stim/wavs/mexican_match_interrogative-total-yn_Marta-abre-el-regalo.wav,./stim/wavs/peruvian_match_interrogative-total-yn_Marta-abre-el-regalo.wav,./stim/wavs/puertorican_match_interrogative-total-yn_Marta-abre-el-regalo.wav,,,,,,,,,,,,,,,,,,,,,,,,,,,,,,,,,,,,,,,,,,,,,,,,,,,,,,,,
,,,,,,,5658000ca9872d0011e1ba26,60568611ec04488a9e9da93b,6056af9d0471f67178732251,I am not familiar with Spanish,Midwest,NA,no,2021-03-20_22h31.21.331,empathy_intonation_perc,2020.2.10,Win32,60,,,,,,,,,,0,argentine,0,1,2.523,0,62,62,2,1,3,./stim/wavs/andalusian_match_declarative-broad-focus_David-leia-el-libro.wav,./stim/wavs/argentine_match_declarative-broad-focus_David-leia-el-libro.wav,./stim/wavs/castilian_match_declarative-broad-focus_David-leia-el-libro.wav,./stim/wavs/chilean_match_declarative-broad-focus_David-leia-el-libro.wav,./stim/wavs/cuban_match_declarative-broad-focus_David-leia-el-libro.wav,./stim/wavs/mexican_match_declarative-broad-focus_David-leia-el-libro.wav,./stim/wavs/peruvian_match_declarative-broad-focus_David-leia-el-libro.wav,./stim/wavs/puertorican_match_declarative-broad-focus_David-leia-el-libro.wav,,,,,,,,,,,,,,,,,,,,,,,,,,,,,,,,,,,,,,,,,,,,,,,,,,,,,,,,
,,,,,,,5658000ca9872d0011e1ba26,60568611ec04488a9e9da93b,6056af9d0471f67178732251,I am not familiar with Spanish,Midwest,NA,no,2021-03-20_22h31.21.331,empathy_intonation_perc,2020.2.10,Win32,60,,,,,,,,,,1,puertorican,0,0,1.926,0,63,63,52,1,53,./stim/wavs/andalusian_mismatch_interrogative-partial-wh_Por-que-odiaba-la-lluvia.wav,./stim/wavs/argentine_mismatch_interrogative-partial-wh_Por-que-odiaba-la-lluvia.wav,./stim/wavs/castilian_mismatch_interrogative-partial-wh_Por-que-odiaba-la-lluvia.wav,./stim/wavs/chilean_mismatch_interrogative-partial-wh_Por-que-odiaba-la-lluvia.wav,./stim/wavs/cuban_mismatch_interrogative-partial-wh_Por-que-odiaba-la-lluvia.wav,./stim/wavs/mexican_mismatch_interrogative-partial-wh_Por-que-odiaba-la-lluvia.wav,./stim/wavs/peruvian_mismatch_interrogative-partial-wh_Por-que-odiaba-la-lluvia.wav,./stim/wavs/puertorican_mismatch_interrogative-partial-wh_Por-que-odiaba-la-lluvia.wav,,,,,,,,,,,,,,,,,,,,,,,,,,,,,,,,,,,,,,,,,,,,,,,,,,,,,,,,
,,,,,,,5658000ca9872d0011e1ba26,60568611ec04488a9e9da93b,6056af9d0471f67178732251,I am not familiar with Spanish,Midwest,NA,no,2021-03-20_22h31.21.331,empathy_intonation_perc,2020.2.10,Win32,60,,,,,,,,,,,,,,,,,,,,,,,,,,,,,h,1,5.952,0,0,0,0,1,,,,,,,,,,,,,,,,,,,,,,,,,,,,,,,,,,,,,,,,,,,,,,,,
,,,,,"Great! Now we will move on. The next task consists of about 60 trials, in each of which you will see a string of letters. 
  
  Your task is to decide whether this is a real Spanish word or not.",(press the spacebar to continue),5658000ca9872d0011e1ba26,60568611ec04488a9e9da93b,6056af9d0471f67178732251,I am not familiar with Spanish,Midwest,NA,no,2021-03-20_22h31.21.331,empathy_intonation_perc,2020.2.10,Win32,60,,,,,,,,,,,,,,,,,,,,,,,,,,,,,,,,,,,,,0,0,0,0,1,,,,,,,,,,,,,,,,,,,,,,,,,,,,,,,,,,,,,,,,,,,
,,,,,"If you think it is an existing Spanish word, you type '1' (for 'REAL'), and if you think it is not an existing Spanish word, you type '0' (for 'FAKE').",(press the spacebar to continue),5658000ca9872d0011e1ba26,60568611ec04488a9e9da93b,6056af9d0471f67178732251,I am not familiar with Spanish,Midwest,NA,no,2021-03-20_22h31.21.331,empathy_intonation_perc,2020.2.10,Win32,60,,,,,,,,,,,,,,,,,,,,,,,,,,,,,,,,,,,,,0,1,1,1,1,,,,,,,,,,,,,,,,,,,,,,,,,,,,,,,,,,,,,,,,,,,
,,,,,"If you are sure that the word exists, even though you dont know its exact meaning, you may still respond '1' (REAL). 
  
  But if you are not sure if it is an existing word, you should respond '0' (FAKE).
  
  Let's do a practice round...",(press the spacebar to continue),5658000ca9872d0011e1ba26,60568611ec04488a9e9da93b,6056af9d0471f67178732251,I am not familiar with Spanish,Midwest,NA,no,2021-03-20_22h31.21.331,empathy_intonation_perc,2020.2.10,Win32,60,,,,,,,,,,,,,,,,,,,,,,,,,,,,,,,,,,,,,0,2,2,2,1,,,,,,,,,,,,,,,,,,,,,,,,,,,,,,,,,,,,,,,,,,,
,,,,,,,5658000ca9872d0011e1ba26,60568611ec04488a9e9da93b,6056af9d0471f67178732251,I am not familiar with Spanish,Midwest,NA,no,2021-03-20_22h31.21.331,empathy_intonation_perc,2020.2.10,Win32,60,,,,,,,,,,0,,,,,,,,,,,,,,,,,,,,,,,,,,,,,,,,1,0,3.196,0,0,0,0,1,0,depiste,REAL,FAKE,,,,,,,,,,,,,,,,,,,,,,,,,,,,,,,
,,,,,,,5658000ca9872d0011e1ba26,60568611ec04488a9e9da93b,6056af9d0471f67178732251,I am not familiar with Spanish,Midwest,NA,no,2021-03-20_22h31.21.331,empathy_intonation_perc,2020.2.10,Win32,60,,,,,,,,,,1,,,,,,,,,,,,,,,,,,,,,,,,,,,,,,,,1,1,1.904,0,1,1,1,1,0,s,REAL,FAKE,,,,,,,,,,,,,,,,,,,,,,,,,,,,,,,
,,,,,,,5658000ca9872d0011e1ba26,60568611ec04488a9e9da93b,6056af9d0471f67178732251,I am not familiar with Spanish,Midwest,NA,no,2021-03-20_22h31.21.331,empathy_intonation_perc,2020.2.10,Win32,60,,,,,,,,,,0,,,,,,,,,,,,,,,,,,,,,,,,,,,,,,,,0,1,1.387,0,2,2,2,1,0,con,REAL,FAKE,,,,,,,,,,,,,,,,,,,,,,,,,,,,,,,
,,,,,,,5658000ca9872d0011e1ba26,60568611ec04488a9e9da93b,6056af9d0471f67178732251,I am not familiar with Spanish,Midwest,NA,no,2021-03-20_22h31.21.331,empathy_intonation_perc,2020.2.10,Win32,60,,,,,,,,,,0,,,,,,,,,,,,,,,,,,,,,,,,,,,,,,,,1,0,1.629,0,3,3,3,1,0,calpar,REAL,FAKE,,,,,,,,,,,,,,,,,,,,,,,,,,,,,,,
,,,,,,,5658000ca9872d0011e1ba26,60568611ec04488a9e9da93b,6056af9d0471f67178732251,I am not familiar with Spanish,Midwest,NA,no,2021-03-20_22h31.21.331,empathy_intonation_perc,2020.2.10,Win32,60,,,,,,,,,,0,,,,,,,,,,,,,,,,,,,,,,,,,,,,,,,,1,0,1.883,0,4,4,4,1,0,joten,REAL,FAKE,,,,,,,,,,,,,,,,,,,,,,,,,,,,,,,
,,,,,,,5658000ca9872d0011e1ba26,60568611ec04488a9e9da93b,6056af9d0471f67178732251,I am not familiar with Spanish,Midwest,NA,no,2021-03-20_22h31.21.331,empathy_intonation_perc,2020.2.10,Win32,60,,,,,,,,,,1,,,,,,,,,,,,,,,,,,,,,,,,,,,,,,,,0,0,2.994,0,5,5,5,1,0,sacapuntas,REAL,FAKE,,,,,,,,,,,,,,,,,,,,,,,,,,,,,,,
,,,,,,,5658000ca9872d0011e1ba26,60568611ec04488a9e9da93b,6056af9d0471f67178732251,I am not familiar with Spanish,Midwest,NA,no,2021-03-20_22h31.21.331,empathy_intonation_perc,2020.2.10,Win32,60,,,,,,,,,,0,,,,,,,,,,,,,,,,,,,,,,,,,,,,,,,,0,1,1.407,0,6,6,6,1,0,priba,REAL,FAKE,,,,,,,,,,,,,,,,,,,,,,,,,,,,,,,
,,,,,,,5658000ca9872d0011e1ba26,60568611ec04488a9e9da93b,6056af9d0471f67178732251,I am not familiar with Spanish,Midwest,NA,no,2021-03-20_22h31.21.331,empathy_intonation_perc,2020.2.10,Win32,60,,,,,,,,,,0,,,,,,,,,,,,,,,,,,,,,,,,,,,,,,,,0,1,2.578,0,7,7,7,1,0,pelasula,REAL,FAKE,,,,,,,,,,,,,,,,,,,,,,,,,,,,,,,
,,,,,,,5658000ca9872d0011e1ba26,60568611ec04488a9e9da93b,6056af9d0471f67178732251,I am not familiar with Spanish,Midwest,NA,no,2021-03-20_22h31.21.331,empathy_intonation_perc,2020.2.10,Win32,60,,,,,,,,,,1,,,,,,,,,,,,,,,,,,,,,,,,,,,,,,,,1,1,0.887,0,8,8,8,1,0,bien,REAL,FAKE,,,,,,,,,,,,,,,,,,,,,,,,,,,,,,,
,,,,,,,5658000ca9872d0011e1ba26,60568611ec04488a9e9da93b,6056af9d0471f67178732251,I am not familiar with Spanish,Midwest,NA,no,2021-03-20_22h31.21.331,empathy_intonation_perc,2020.2.10,Win32,60,,,,,,,,,,1,,,,,,,,,,,,,,,,,,,,,,,,,,,,,,,,1,1,0.987,0,9,9,9,1,0,casa,REAL,FAKE,,,,,,,,,,,,,,,,,,,,,,,,,,,,,,,
,,,,,,,5658000ca9872d0011e1ba26,60568611ec04488a9e9da93b,6056af9d0471f67178732251,I am not familiar with Spanish,Midwest,NA,no,2021-03-20_22h31.21.331,empathy_intonation_perc,2020.2.10,Win32,60,,,,,,,,,,0,,,,,,,,,,,,,,,,,,,,,,,,,,,,,,,,1,0,1.025,0,10,10,10,1,0,lejo,REAL,FAKE,,,,,,,,,,,,,,,,,,,,,,,,,,,,,,,
,,,,,,,5658000ca9872d0011e1ba26,60568611ec04488a9e9da93b,6056af9d0471f67178732251,I am not familiar with Spanish,Midwest,NA,no,2021-03-20_22h31.21.331,empathy_intonation_perc,2020.2.10,Win32,60,,,,,,,,,,0,,,,,,,,,,,,,,,,,,,,,,,,,,,,,,,,0,1,1.375,0,11,11,11,1,0,pretantas,REAL,FAKE,,,,,,,,,,,,,,,,,,,,,,,,,,,,,,,
,,,,,,,5658000ca9872d0011e1ba26,60568611ec04488a9e9da93b,6056af9d0471f67178732251,I am not familiar with Spanish,Midwest,NA,no,2021-03-20_22h31.21.331,empathy_intonation_perc,2020.2.10,Win32,60,,,,,,,,,,1,,,,,,,,,,,,,,,,,,,,,,,,,,,,,,,,,,,,,,,,85,lad,,,0,0,1.134,0,0,0,84,1,REAL,FAKE,,,,,,,,,,,,,,,,,,,,,
,,,,,,,5658000ca9872d0011e1ba26,60568611ec04488a9e9da93b,6056af9d0471f67178732251,I am not familiar with Spanish,Midwest,NA,no,2021-03-20_22h31.21.331,empathy_intonation_perc,2020.2.10,Win32,60,,,,,,,,,,0,,,,,,,,,,,,,,,,,,,,,,,,,,,,,,,,,,,,,,,,4,batilln,,,1,0,1.09,0,1,1,3,1,REAL,FAKE,,,,,,,,,,,,,,,,,,,,,
,,,,,,,5658000ca9872d0011e1ba26,60568611ec04488a9e9da93b,6056af9d0471f67178732251,I am not familiar with Spanish,Midwest,NA,no,2021-03-20_22h31.21.331,empathy_intonation_perc,2020.2.10,Win32,60,,,,,,,,,,0,,,,,,,,,,,,,,,,,,,,,,,,,,,,,,,,,,,,,,,,82,empirador,,,1,0,1.627,0,2,2,81,1,REAL,FAKE,,,,,,,,,,,,,,,,,,,,,
,,,,,,,5658000ca9872d0011e1ba26,60568611ec04488a9e9da93b,6056af9d0471f67178732251,I am not familiar with Spanish,Midwest,NA,no,2021-03-20_22h31.21.331,empathy_intonation_perc,2020.2.10,Win32,60,,,,,,,,,,0,,,,,,,,,,,,,,,,,,,,,,,,,,,,,,,,,,,,,,,,84,escuto,,,0,1,1.683,0,3,3,83,1,REAL,FAKE,,,,,,,,,,,,,,,,,,,,,
,,,,,,,5658000ca9872d0011e1ba26,60568611ec04488a9e9da93b,6056af9d0471f67178732251,I am not familiar with Spanish,Midwest,NA,no,2021-03-20_22h31.21.331,empathy_intonation_perc,2020.2.10,Win32,60,,,,,,,,,,1,,,,,,,,,,,,,,,,,,,,,,,,,,,,,,,,,,,,,,,,31,pandilla,,,0,0,2.38,0,4,4,30,1,REAL,FAKE,,,,,,,,,,,,,,,,,,,,,
,,,,,,,5658000ca9872d0011e1ba26,60568611ec04488a9e9da93b,6056af9d0471f67178732251,I am not familiar with Spanish,Midwest,NA,no,2021-03-20_22h31.21.331,empathy_intonation_perc,2020.2.10,Win32,60,,,,,,,,,,0,,,,,,,,,,,,,,,,,,,,,,,,,,,,,,,,,,,,,,,,10,antar,,,0,1,1.342,0,5,5,9,1,REAL,FAKE,,,,,,,,,,,,,,,,,,,,,
,,,,,,,5658000ca9872d0011e1ba26,60568611ec04488a9e9da93b,6056af9d0471f67178732251,I am not familiar with Spanish,Midwest,NA,no,2021-03-20_22h31.21.331,empathy_intonation_perc,2020.2.10,Win32,60,,,,,,,,,,0,,,,,,,,,,,,,,,,,,,,,,,,,,,,,,,,,,,,,,,,1,terzo,,,0,1,1.903,0,6,6,0,1,REAL,FAKE,,,,,,,,,,,,,,,,,,,,,
,,,,,,,5658000ca9872d0011e1ba26,60568611ec04488a9e9da93b,6056af9d0471f67178732251,I am not familiar with Spanish,Midwest,NA,no,2021-03-20_22h31.21.331,empathy_intonation_perc,2020.2.10,Win32,60,,,,,,,,,,1,,,,,,,,,,,,,,,,,,,,,,,,,,,,,,,,,,,,,,,,13,helar,,,0,0,1.004,0,7,7,12,1,REAL,FAKE,,,,,,,,,,,,,,,,,,,,,
,,,,,,,5658000ca9872d0011e1ba26,60568611ec04488a9e9da93b,6056af9d0471f67178732251,I am not familiar with Spanish,Midwest,NA,no,2021-03-20_22h31.21.331,empathy_intonation_perc,2020.2.10,Win32,60,,,,,,,,,,1,,,,,,,,,,,,,,,,,,,,,,,,,,,,,,,,,,,,,,,,6,tergiversar,,,0,0,2.601,0,8,8,5,1,REAL,FAKE,,,,,,,,,,,,,,,,,,,,,
,,,,,,,5658000ca9872d0011e1ba26,60568611ec04488a9e9da93b,6056af9d0471f67178732251,I am not familiar with Spanish,Midwest,NA,no,2021-03-20_22h31.21.331,empathy_intonation_perc,2020.2.10,Win32,60,,,,,,,,,,0,,,,,,,,,,,,,,,,,,,,,,,,,,,,,,,,,,,,,,,,63,esposante,,,0,1,2.32,0,9,9,62,1,REAL,FAKE,,,,,,,,,,,,,,,,,,,,,
,,,,,,,5658000ca9872d0011e1ba26,60568611ec04488a9e9da93b,6056af9d0471f67178732251,I am not familiar with Spanish,Midwest,NA,no,2021-03-20_22h31.21.331,empathy_intonation_perc,2020.2.10,Win32,60,,,,,,,,,,0,,,,,,,,,,,,,,,,,,,,,,,,,,,,,,,,,,,,,,,,23,lampera,,,0,1,1.253,0,10,10,22,1,REAL,FAKE,,,,,,,,,,,,,,,,,,,,,
,,,,,,,5658000ca9872d0011e1ba26,60568611ec04488a9e9da93b,6056af9d0471f67178732251,I am not familiar with Spanish,Midwest,NA,no,2021-03-20_22h31.21.331,empathy_intonation_perc,2020.2.10,Win32,60,,,,,,,,,,1,,,,,,,,,,,,,,,,,,,,,,,,,,,,,,,,,,,,,,,,15,regar,,,0,0,0.891,0,11,11,14,1,REAL,FAKE,,,,,,,,,,,,,,,,,,,,,
,,,,,,,5658000ca9872d0011e1ba26,60568611ec04488a9e9da93b,6056af9d0471f67178732251,I am not familiar with Spanish,Midwest,NA,no,2021-03-20_22h31.21.331,empathy_intonation_perc,2020.2.10,Win32,60,,,,,,,,,,0,,,,,,,,,,,,,,,,,,,,,,,,,,,,,,,,,,,,,,,,35,rompido,,,1,0,1.22,0,12,12,34,1,REAL,FAKE,,,,,,,,,,,,,,,,,,,,,
,,,,,,,5658000ca9872d0011e1ba26,60568611ec04488a9e9da93b,6056af9d0471f67178732251,I am not familiar with Spanish,Midwest,NA,no,2021-03-20_22h31.21.331,empathy_intonation_perc,2020.2.10,Win32,60,,,,,,,,,,0,,,,,,,,,,,,,,,,,,,,,,,,,,,,,,,,,,,,,,,,16,abracer,,,0,1,1.496,0,13,13,15,1,REAL,FAKE,,,,,,,,,,,,,,,,,,,,,
,,,,,,,5658000ca9872d0011e1ba26,60568611ec04488a9e9da93b,6056af9d0471f67178732251,I am not familiar with Spanish,Midwest,NA,no,2021-03-20_22h31.21.331,empathy_intonation_perc,2020.2.10,Win32,60,,,,,,,,,,1,,,,,,,,,,,,,,,,,,,,,,,,,,,,,,,,,,,,,,,,44,cuchara,,,0,0,0.837,0,14,14,43,1,REAL,FAKE,,,,,,,,,,,,,,,,,,,,,
,,,,,,,5658000ca9872d0011e1ba26,60568611ec04488a9e9da93b,6056af9d0471f67178732251,I am not familiar with Spanish,Midwest,NA,no,2021-03-20_22h31.21.331,empathy_intonation_perc,2020.2.10,Win32,60,,,,,,,,,,1,,,,,,,,,,,,,,,,,,,,,,,,,,,,,,,,,,,,,,,,80,hormiga,,,0,0,1.609,0,15,15,79,1,REAL,FAKE,,,,,,,,,,,,,,,,,,,,,
,,,,,,,5658000ca9872d0011e1ba26,60568611ec04488a9e9da93b,6056af9d0471f67178732251,I am not familiar with Spanish,Midwest,NA,no,2021-03-20_22h31.21.331,empathy_intonation_perc,2020.2.10,Win32,60,,,,,,,,,,1,,,,,,,,,,,,,,,,,,,,,,,,,,,,,,,,,,,,,,,,75,yacer,,,0,0,1.108,0,16,16,74,1,REAL,FAKE,,,,,,,,,,,,,,,,,,,,,
,,,,,,,5658000ca9872d0011e1ba26,60568611ec04488a9e9da93b,6056af9d0471f67178732251,I am not familiar with Spanish,Midwest,NA,no,2021-03-20_22h31.21.331,empathy_intonation_perc,2020.2.10,Win32,60,,,,,,,,,,1,,,,,,,,,,,,,,,,,,,,,,,,,,,,,,,,,,,,,,,,57,tacao,,,0,0,1.042,0,17,17,56,1,REAL,FAKE,,,,,,,,,,,,,,,,,,,,,
,,,,,,,5658000ca9872d0011e1ba26,60568611ec04488a9e9da93b,6056af9d0471f67178732251,I am not familiar with Spanish,Midwest,NA,no,2021-03-20_22h31.21.331,empathy_intonation_perc,2020.2.10,Win32,60,,,,,,,,,,1,,,,,,,,,,,,,,,,,,,,,,,,,,,,,,,,,,,,,,,,5,zapato,,,1,1,1.375,0,18,18,4,1,REAL,FAKE,,,,,,,,,,,,,,,,,,,,,
,,,,,,,5658000ca9872d0011e1ba26,60568611ec04488a9e9da93b,6056af9d0471f67178732251,I am not familiar with Spanish,Midwest,NA,no,2021-03-20_22h31.21.331,empathy_intonation_perc,2020.2.10,Win32,60,,,,,,,,,,0,,,,,,,,,,,,,,,,,,,,,,,,,,,,,,,,,,,,,,,,58,plaudir,,,1,0,3.346,0,19,19,57,1,REAL,FAKE,,,,,,,,,,,,,,,,,,,,,
,,,,,,,5658000ca9872d0011e1ba26,60568611ec04488a9e9da93b,6056af9d0471f67178732251,I am not familiar with Spanish,Midwest,NA,no,2021-03-20_22h31.21.331,empathy_intonation_perc,2020.2.10,Win32,60,,,,,,,,,,0,,,,,,,,,,,,,,,,,,,,,,,,,,,,,,,,,,,,,,,,29,decar,,,0,1,1.134,0,20,20,28,1,REAL,FAKE,,,,,,,,,,,,,,,,,,,,,
,,,,,,,5658000ca9872d0011e1ba26,60568611ec04488a9e9da93b,6056af9d0471f67178732251,I am not familiar with Spanish,Midwest,NA,no,2021-03-20_22h31.21.331,empathy_intonation_perc,2020.2.10,Win32,60,,,,,,,,,,1,,,,,,,,,,,,,,,,,,,,,,,,,,,,,,,,,,,,,,,,88,acantilado,,,0,0,1.654,0,21,21,87,1,REAL,FAKE,,,,,,,,,,,,,,,,,,,,,
,,,,,,,5658000ca9872d0011e1ba26,60568611ec04488a9e9da93b,6056af9d0471f67178732251,I am not familiar with Spanish,Midwest,NA,no,2021-03-20_22h31.21.331,empathy_intonation_perc,2020.2.10,Win32,60,,,,,,,,,,1,,,,,,,,,,,,,,,,,,,,,,,,,,,,,,,,,,,,,,,,73,hervidor,,,0,0,1.507,0,22,22,72,1,REAL,FAKE,,,,,,,,,,,,,,,,,,,,,
,,,,,,,5658000ca9872d0011e1ba26,60568611ec04488a9e9da93b,6056af9d0471f67178732251,I am not familiar with Spanish,Midwest,NA,no,2021-03-20_22h31.21.331,empathy_intonation_perc,2020.2.10,Win32,60,,,,,,,,,,1,,,,,,,,,,,,,,,,,,,,,,,,,,,,,,,,,,,,,,,,59,besar,,,0,0,1.213,0,23,23,58,1,REAL,FAKE,,,,,,,,,,,,,,,,,,,,,
,,,,,,,5658000ca9872d0011e1ba26,60568611ec04488a9e9da93b,6056af9d0471f67178732251,I am not familiar with Spanish,Midwest,NA,no,2021-03-20_22h31.21.331,empathy_intonation_perc,2020.2.10,Win32,60,,,,,,,,,,1,,,,,,,,,,,,,,,,,,,,,,,,,,,,,,,,,,,,,,,,62,flaco,,,0,0,1.121,0,24,24,61,1,REAL,FAKE,,,,,,,,,,,,,,,,,,,,,
,,,,,,,5658000ca9872d0011e1ba26,60568611ec04488a9e9da93b,6056af9d0471f67178732251,I am not familiar with Spanish,Midwest,NA,no,2021-03-20_22h31.21.331,empathy_intonation_perc,2020.2.10,Win32,60,,,,,,,,,,1,,,,,,,,,,,,,,,,,,,,,,,,,,,,,,,,,,,,,,,,61,seda,,,0,0,1.41,0,25,25,60,1,REAL,FAKE,,,,,,,,,,,,,,,,,,,,,
,,,,,,,5658000ca9872d0011e1ba26,60568611ec04488a9e9da93b,6056af9d0471f67178732251,I am not familiar with Spanish,Midwest,NA,no,2021-03-20_22h31.21.331,empathy_intonation_perc,2020.2.10,Win32,60,,,,,,,,,,1,,,,,,,,,,,,,,,,,,,,,,,,,,,,,,,,,,,,,,,,89,prisa,,,0,0,0.949,0,26,26,88,1,REAL,FAKE,,,,,,,,,,,,,,,,,,,,,
,,,,,,,5658000ca9872d0011e1ba26,60568611ec04488a9e9da93b,6056af9d0471f67178732251,I am not familiar with Spanish,Midwest,NA,no,2021-03-20_22h31.21.331,empathy_intonation_perc,2020.2.10,Win32,60,,,,,,,,,,1,,,,,,,,,,,,,,,,,,,,,,,,,,,,,,,,,,,,,,,,36,loro,,,0,0,0.65,0,27,27,35,1,REAL,FAKE,,,,,,,,,,,,,,,,,,,,,
,,,,,,,5658000ca9872d0011e1ba26,60568611ec04488a9e9da93b,6056af9d0471f67178732251,I am not familiar with Spanish,Midwest,NA,no,2021-03-20_22h31.21.331,empathy_intonation_perc,2020.2.10,Win32,60,,,,,,,,,,1,,,,,,,,,,,,,,,,,,,,,,,,,,,,,,,,,,,,,,,,3,pulmones,,,1,1,1.965,0,28,28,2,1,REAL,FAKE,,,,,,,,,,,,,,,,,,,,,
,,,,,,,5658000ca9872d0011e1ba26,60568611ec04488a9e9da93b,6056af9d0471f67178732251,I am not familiar with Spanish,Midwest,NA,no,2021-03-20_22h31.21.331,empathy_intonation_perc,2020.2.10,Win32,60,,,,,,,,,,1,,,,,,,,,,,,,,,,,,,,,,,,,,,,,,,,,,,,,,,,38,estornudar,,,0,0,1.981,0,29,29,37,1,REAL,FAKE,,,,,,,,,,,,,,,,,,,,,
,,,,,,,5658000ca9872d0011e1ba26,60568611ec04488a9e9da93b,6056af9d0471f67178732251,I am not familiar with Spanish,Midwest,NA,no,2021-03-20_22h31.21.331,empathy_intonation_perc,2020.2.10,Win32,60,,,,,,,,,,0,,,,,,,,,,,,,,,,,,,,,,,,,,,,,,,,,,,,,,,,66,hacido,,,0,1,0.968,0,30,30,65,1,REAL,FAKE,,,,,,,,,,,,,,,,,,,,,
,,,,,,,5658000ca9872d0011e1ba26,60568611ec04488a9e9da93b,6056af9d0471f67178732251,I am not familiar with Spanish,Midwest,NA,no,2021-03-20_22h31.21.331,empathy_intonation_perc,2020.2.10,Win32,60,,,,,,,,,,1,,,,,,,,,,,,,,,,,,,,,,,,,,,,,,,,,,,,,,,,64,orgulloso,,,0,0,0.891,0,31,31,63,1,REAL,FAKE,,,,,,,,,,,,,,,,,,,,,
,,,,,,,5658000ca9872d0011e1ba26,60568611ec04488a9e9da93b,6056af9d0471f67178732251,I am not familiar with Spanish,Midwest,NA,no,2021-03-20_22h31.21.331,empathy_intonation_perc,2020.2.10,Win32,60,,,,,,,,,,1,,,,,,,,,,,,,,,,,,,,,,,,,,,,,,,,,,,,,,,,60,matar,,,0,0,0.933,0,32,32,59,1,REAL,FAKE,,,,,,,,,,,,,,,,,,,,,
,,,,,,,5658000ca9872d0011e1ba26,60568611ec04488a9e9da93b,6056af9d0471f67178732251,I am not familiar with Spanish,Midwest,NA,no,2021-03-20_22h31.21.331,empathy_intonation_perc,2020.2.10,Win32,60,,,,,,,,,,0,,,,,,,,,,,,,,,,,,,,,,,,,,,,,,,,,,,,,,,,53,vegada,,,0,1,1.056,0,33,33,52,1,REAL,FAKE,,,,,,,,,,,,,,,,,,,,,
,,,,,,,5658000ca9872d0011e1ba26,60568611ec04488a9e9da93b,6056af9d0471f67178732251,I am not familiar with Spanish,Midwest,NA,no,2021-03-20_22h31.21.331,empathy_intonation_perc,2020.2.10,Win32,60,,,,,,,,,,0,,,,,,,,,,,,,,,,,,,,,,,,,,,,,,,,,,,,,,,,42,cadallo,,,0,1,1.047,0,34,34,41,1,REAL,FAKE,,,,,,,,,,,,,,,,,,,,,
,,,,,,,5658000ca9872d0011e1ba26,60568611ec04488a9e9da93b,6056af9d0471f67178732251,I am not familiar with Spanish,Midwest,NA,no,2021-03-20_22h31.21.331,empathy_intonation_perc,2020.2.10,Win32,60,,,,,,,,,,0,,,,,,,,,,,,,,,,,,,,,,,,,,,,,,,,,,,,,,,,47,cartinar,,,0,1,1.058,0,35,35,46,1,REAL,FAKE,,,,,,,,,,,,,,,,,,,,,
,,,,,,,5658000ca9872d0011e1ba26,60568611ec04488a9e9da93b,6056af9d0471f67178732251,I am not familiar with Spanish,Midwest,NA,no,2021-03-20_22h31.21.331,empathy_intonation_perc,2020.2.10,Win32,60,,,,,,,,,,1,,,,,,,,,,,,,,,,,,,,,,,,,,,,,,,,,,,,,,,,55,nevar,,,0,0,1.553,0,36,36,54,1,REAL,FAKE,,,,,,,,,,,,,,,,,,,,,
,,,,,,,5658000ca9872d0011e1ba26,60568611ec04488a9e9da93b,6056af9d0471f67178732251,I am not familiar with Spanish,Midwest,NA,no,2021-03-20_22h31.21.331,empathy_intonation_perc,2020.2.10,Win32,60,,,,,,,,,,0,,,,,,,,,,,,,,,,,,,,,,,,,,,,,,,,,,,,,,,,33,pauca,,,0,1,0.726,0,37,37,32,1,REAL,FAKE,,,,,,,,,,,,,,,,,,,,,
,,,,,,,5658000ca9872d0011e1ba26,60568611ec04488a9e9da93b,6056af9d0471f67178732251,I am not familiar with Spanish,Midwest,NA,no,2021-03-20_22h31.21.331,empathy_intonation_perc,2020.2.10,Win32,60,,,,,,,,,,1,,,,,,,,,,,,,,,,,,,,,,,,,,,,,,,,,,,,,,,,51,candado,,,0,0,0.669,0,38,38,50,1,REAL,FAKE,,,,,,,,,,,,,,,,,,,,,
,,,,,,,5658000ca9872d0011e1ba26,60568611ec04488a9e9da93b,6056af9d0471f67178732251,I am not familiar with Spanish,Midwest,NA,no,2021-03-20_22h31.21.331,empathy_intonation_perc,2020.2.10,Win32,60,,,,,,,,,,1,,,,,,,,,,,,,,,,,,,,,,,,,,,,,,,,,,,,,,,,11,cenefa,,,0,0,0.584,0,39,39,10,1,REAL,FAKE,,,,,,,,,,,,,,,,,,,,,
,,,,,,,5658000ca9872d0011e1ba26,60568611ec04488a9e9da93b,6056af9d0471f67178732251,I am not familiar with Spanish,Midwest,NA,no,2021-03-20_22h31.21.331,empathy_intonation_perc,2020.2.10,Win32,60,,,,,,,,,,1,,,,,,,,,,,,,,,,,,,,,,,,,,,,,,,,,,,,,,,,68,alegre,,,0,0,0.604,0,40,40,67,1,REAL,FAKE,,,,,,,,,,,,,,,,,,,,,
,,,,,,,5658000ca9872d0011e1ba26,60568611ec04488a9e9da93b,6056af9d0471f67178732251,I am not familiar with Spanish,Midwest,NA,no,2021-03-20_22h31.21.331,empathy_intonation_perc,2020.2.10,Win32,60,,,,,,,,,,0,,,,,,,,,,,,,,,,,,,,,,,,,,,,,,,,,,,,,,,,70,temblo,,,0,1,0.904,0,41,41,69,1,REAL,FAKE,,,,,,,,,,,,,,,,,,,,,
,,,,,,,5658000ca9872d0011e1ba26,60568611ec04488a9e9da93b,6056af9d0471f67178732251,I am not familiar with Spanish,Midwest,NA,no,2021-03-20_22h31.21.331,empathy_intonation_perc,2020.2.10,Win32,60,,,,,,,,,,0,,,,,,,,,,,,,,,,,,,,,,,,,,,,,,,,,,,,,,,,8,cadea,,,0,1,0.837,0,42,42,7,1,REAL,FAKE,,,,,,,,,,,,,,,,,,,,,
,,,,,,,5658000ca9872d0011e1ba26,60568611ec04488a9e9da93b,6056af9d0471f67178732251,I am not familiar with Spanish,Midwest,NA,no,2021-03-20_22h31.21.331,empathy_intonation_perc,2020.2.10,Win32,60,,,,,,,,,,0,,,,,,,,,,,,,,,,,,,,,,,,,,,,,,,,,,,,,,,,21,capillo,,,1,0,1.412,0,43,43,20,1,REAL,FAKE,,,,,,,,,,,,,,,,,,,,,
,,,,,,,5658000ca9872d0011e1ba26,60568611ec04488a9e9da93b,6056af9d0471f67178732251,I am not familiar with Spanish,Midwest,NA,no,2021-03-20_22h31.21.331,empathy_intonation_perc,2020.2.10,Win32,60,,,,,,,,,,1,,,,,,,,,,,,,,,,,,,,,,,,,,,,,,,,,,,,,,,,86,barato,,,0,0,1.947,0,44,44,85,1,REAL,FAKE,,,,,,,,,,,,,,,,,,,,,
,,,,,,,5658000ca9872d0011e1ba26,60568611ec04488a9e9da93b,6056af9d0471f67178732251,I am not familiar with Spanish,Midwest,NA,no,2021-03-20_22h31.21.331,empathy_intonation_perc,2020.2.10,Win32,60,,,,,,,,,,1,,,,,,,,,,,,,,,,,,,,,,,,,,,,,,,,,,,,,,,,46,martillo,,,1,1,2.113,0,45,45,45,1,REAL,FAKE,,,,,,,,,,,,,,,,,,,,,
,,,,,,,5658000ca9872d0011e1ba26,60568611ec04488a9e9da93b,6056af9d0471f67178732251,I am not familiar with Spanish,Midwest,NA,no,2021-03-20_22h31.21.331,empathy_intonation_perc,2020.2.10,Win32,60,,,,,,,,,,1,,,,,,,,,,,,,,,,,,,,,,,,,,,,,,,,,,,,,,,,12,asesinato,,,0,0,1.169,0,46,46,11,1,REAL,FAKE,,,,,,,,,,,,,,,,,,,,,
,,,,,,,5658000ca9872d0011e1ba26,60568611ec04488a9e9da93b,6056af9d0471f67178732251,I am not familiar with Spanish,Midwest,NA,no,2021-03-20_22h31.21.331,empathy_intonation_perc,2020.2.10,Win32,60,,,,,,,,,,1,,,,,,,,,,,,,,,,,,,,,,,,,,,,,,,,,,,,,,,,49,ganar,,,0,0,2.592,0,47,47,48,1,REAL,FAKE,,,,,,,,,,,,,,,,,,,,,
,,,,,,,5658000ca9872d0011e1ba26,60568611ec04488a9e9da93b,6056af9d0471f67178732251,I am not familiar with Spanish,Midwest,NA,no,2021-03-20_22h31.21.331,empathy_intonation_perc,2020.2.10,Win32,60,,,,,,,,,,1,,,,,,,,,,,,,,,,,,,,,,,,,,,,,,,,,,,,,,,,9,hacha,,,1,1,2.109,0,48,48,8,1,REAL,FAKE,,,,,,,,,,,,,,,,,,,,,
,,,,,,,5658000ca9872d0011e1ba26,60568611ec04488a9e9da93b,6056af9d0471f67178732251,I am not familiar with Spanish,Midwest,NA,no,2021-03-20_22h31.21.331,empathy_intonation_perc,2020.2.10,Win32,60,,,,,,,,,,1,,,,,,,,,,,,,,,,,,,,,,,,,,,,,,,,,,,,,,,,77,tiburn,,,1,1,3.914,0,49,49,76,1,REAL,FAKE,,,,,,,,,,,,,,,,,,,,,
,,,,,,,5658000ca9872d0011e1ba26,60568611ec04488a9e9da93b,6056af9d0471f67178732251,I am not familiar with Spanish,Midwest,NA,no,2021-03-20_22h31.21.331,empathy_intonation_perc,2020.2.10,Win32,60,,,,,,,,,,1,,,,,,,,,,,,,,,,,,,,,,,,,,,,,,,,,,,,,,,,65,bizcocho,,,0,0,1.07,0,50,50,64,1,REAL,FAKE,,,,,,,,,,,,,,,,,,,,,
,,,,,,,5658000ca9872d0011e1ba26,60568611ec04488a9e9da93b,6056af9d0471f67178732251,I am not familiar with Spanish,Midwest,NA,no,2021-03-20_22h31.21.331,empathy_intonation_perc,2020.2.10,Win32,60,,,,,,,,,,0,,,,,,,,,,,,,,,,,,,,,,,,,,,,,,,,,,,,,,,,18,arsa,,,0,1,4.388,0,51,51,17,1,REAL,FAKE,,,,,,,,,,,,,,,,,,,,,
,,,,,,,5658000ca9872d0011e1ba26,60568611ec04488a9e9da93b,6056af9d0471f67178732251,I am not familiar with Spanish,Midwest,NA,no,2021-03-20_22h31.21.331,empathy_intonation_perc,2020.2.10,Win32,60,,,,,,,,,,1,,,,,,,,,,,,,,,,,,,,,,,,,,,,,,,,,,,,,,,,52,camisa,,,1,1,1.418,0,52,52,51,1,REAL,FAKE,,,,,,,,,,,,,,,,,,,,,
,,,,,,,5658000ca9872d0011e1ba26,60568611ec04488a9e9da93b,6056af9d0471f67178732251,I am not familiar with Spanish,Midwest,NA,no,2021-03-20_22h31.21.331,empathy_intonation_perc,2020.2.10,Win32,60,,,,,,,,,,1,,,,,,,,,,,,,,,,,,,,,,,,,,,,,,,,,,,,,,,,7,psimo,,,1,1,2.792,0,53,53,6,1,REAL,FAKE,,,,,,,,,,,,,,,,,,,,,
,,,,,,,5658000ca9872d0011e1ba26,60568611ec04488a9e9da93b,6056af9d0471f67178732251,I am not familiar with Spanish,Midwest,NA,no,2021-03-20_22h31.21.331,empathy_intonation_perc,2020.2.10,Win32,60,,,,,,,,,,1,,,,,,,,,,,,,,,,,,,,,,,,,,,,,,,,,,,,,,,,56,musgo,,,0,0,1.331,0,54,54,55,1,REAL,FAKE,,,,,,,,,,,,,,,,,,,,,
,,,,,,,5658000ca9872d0011e1ba26,60568611ec04488a9e9da93b,6056af9d0471f67178732251,I am not familiar with Spanish,Midwest,NA,no,2021-03-20_22h31.21.331,empathy_intonation_perc,2020.2.10,Win32,60,,,,,,,,,,1,,,,,,,,,,,,,,,,,,,,,,,,,,,,,,,,,,,,,,,,69,engatusar,,,0,0,1.637,0,55,55,68,1,REAL,FAKE,,,,,,,,,,,,,,,,,,,,,
,,,,,,,5658000ca9872d0011e1ba26,60568611ec04488a9e9da93b,6056af9d0471f67178732251,I am not familiar with Spanish,Midwest,NA,no,2021-03-20_22h31.21.331,empathy_intonation_perc,2020.2.10,Win32,60,,,,,,,,,,1,,,,,,,,,,,,,,,,,,,,,,,,,,,,,,,,,,,,,,,,71,polvoriento,,,0,0,1.862,0,56,56,70,1,REAL,FAKE,,,,,,,,,,,,,,,,,,,,,
,,,,,,,5658000ca9872d0011e1ba26,60568611ec04488a9e9da93b,6056af9d0471f67178732251,I am not familiar with Spanish,Midwest,NA,no,2021-03-20_22h31.21.331,empathy_intonation_perc,2020.2.10,Win32,60,,,,,,,,,,1,,,,,,,,,,,,,,,,,,,,,,,,,,,,,,,,,,,,,,,,39,torpe,,,1,1,1.273,0,57,57,38,1,REAL,FAKE,,,,,,,,,,,,,,,,,,,,,
,,,,,,,5658000ca9872d0011e1ba26,60568611ec04488a9e9da93b,6056af9d0471f67178732251,I am not familiar with Spanish,Midwest,NA,no,2021-03-20_22h31.21.331,empathy_intonation_perc,2020.2.10,Win32,60,,,,,,,,,,0,,,,,,,,,,,,,,,,,,,,,,,,,,,,,,,,,,,,,,,,87,grodo,,,0,1,1.355,0,58,58,86,1,REAL,FAKE,,,,,,,,,,,,,,,,,,,,,
,,,,,,,5658000ca9872d0011e1ba26,60568611ec04488a9e9da93b,6056af9d0471f67178732251,I am not familiar with Spanish,Midwest,NA,no,2021-03-20_22h31.21.331,empathy_intonation_perc,2020.2.10,Win32,60,,,,,,,,,,1,,,,,,,,,,,,,,,,,,,,,,,,,,,,,,,,,,,,,,,,76,atar,,,0,0,0.858,0,59,59,75,1,REAL,FAKE,,,,,,,,,,,,,,,,,,,,,
,,,,,,,5658000ca9872d0011e1ba26,60568611ec04488a9e9da93b,6056af9d0471f67178732251,I am not familiar with Spanish,Midwest,NA,no,2021-03-20_22h31.21.331,empathy_intonation_perc,2020.2.10,Win32,60,,,,,,,,,,1,,,,,,,,,,,,,,,,,,,,,,,,,,,,,,,,,,,,,,,,41,rebuscar,,,1,1,1.679,0,60,60,40,1,REAL,FAKE,,,,,,,,,,,,,,,,,,,,,
,,,,,,,5658000ca9872d0011e1ba26,60568611ec04488a9e9da93b,6056af9d0471f67178732251,I am not familiar with Spanish,Midwest,NA,no,2021-03-20_22h31.21.331,empathy_intonation_perc,2020.2.10,Win32,60,,,,,,,,,,1,,,,,,,,,,,,,,,,,,,,,,,,,,,,,,,,,,,,,,,,26,secuestro,,,0,0,1.435,0,61,61,25,1,REAL,FAKE,,,,,,,,,,,,,,,,,,,,,
,,,,,,,5658000ca9872d0011e1ba26,60568611ec04488a9e9da93b,6056af9d0471f67178732251,I am not familiar with Spanish,Midwest,NA,no,2021-03-20_22h31.21.331,empathy_intonation_perc,2020.2.10,Win32,60,,,,,,,,,,1,,,,,,,,,,,,,,,,,,,,,,,,,,,,,,,,,,,,,,,,25,bisagra,,,0,0,1.077,0,62,62,24,1,REAL,FAKE,,,,,,,,,,,,,,,,,,,,,
,,,,,,,5658000ca9872d0011e1ba26,60568611ec04488a9e9da93b,6056af9d0471f67178732251,I am not familiar with Spanish,Midwest,NA,no,2021-03-20_22h31.21.331,empathy_intonation_perc,2020.2.10,Win32,60,,,,,,,,,,0,,,,,,,,,,,,,,,,,,,,,,,,,,,,,,,,,,,,,,,,74,cintro,,,0,1,0.892,0,63,63,73,1,REAL,FAKE,,,,,,,,,,,,,,,,,,,,,
,,,,,,,5658000ca9872d0011e1ba26,60568611ec04488a9e9da93b,6056af9d0471f67178732251,I am not familiar with Spanish,Midwest,NA,no,2021-03-20_22h31.21.331,empathy_intonation_perc,2020.2.10,Win32,60,,,,,,,,,,1,,,,,,,,,,,,,,,,,,,,,,,,,,,,,,,,,,,,,,,,83,guante,,,0,0,0.792,0,64,64,82,1,REAL,FAKE,,,,,,,,,,,,,,,,,,,,,
,,,,,,,5658000ca9872d0011e1ba26,60568611ec04488a9e9da93b,6056af9d0471f67178732251,I am not familiar with Spanish,Midwest,NA,no,2021-03-20_22h31.21.331,empathy_intonation_perc,2020.2.10,Win32,60,,,,,,,,,,1,,,,,,,,,,,,,,,,,,,,,,,,,,,,,,,,,,,,,,,,40,alfombra,,,0,0,1.024,0,65,65,39,1,REAL,FAKE,,,,,,,,,,,,,,,,,,,,,
,,,,,,,5658000ca9872d0011e1ba26,60568611ec04488a9e9da93b,6056af9d0471f67178732251,I am not familiar with Spanish,Midwest,NA,no,2021-03-20_22h31.21.331,empathy_intonation_perc,2020.2.10,Win32,60,,,,,,,,,,1,,,,,,,,,,,,,,,,,,,,,,,,,,,,,,,,,,,,,,,,34,aviso,,,1,1,1.191,0,66,66,33,1,REAL,FAKE,,,,,,,,,,,,,,,,,,,,,
,,,,,,,5658000ca9872d0011e1ba26,60568611ec04488a9e9da93b,6056af9d0471f67178732251,I am not familiar with Spanish,Midwest,NA,no,2021-03-20_22h31.21.331,empathy_intonation_perc,2020.2.10,Win32,60,,,,,,,,,,1,,,,,,,,,,,,,,,,,,,,,,,,,,,,,,,,,,,,,,,,67,cabello,,,1,1,1.433,0,67,67,66,1,REAL,FAKE,,,,,,,,,,,,,,,,,,,,,
,,,,,,,5658000ca9872d0011e1ba26,60568611ec04488a9e9da93b,6056af9d0471f67178732251,I am not familiar with Spanish,Midwest,NA,no,2021-03-20_22h31.21.331,empathy_intonation_perc,2020.2.10,Win32,60,,,,,,,,,,1,,,,,,,,,,,,,,,,,,,,,,,,,,,,,,,,,,,,,,,,45,jilguero,,,0,0,2.219,0,68,68,44,1,REAL,FAKE,,,,,,,,,,,,,,,,,,,,,
,,,,,,,5658000ca9872d0011e1ba26,60568611ec04488a9e9da93b,6056af9d0471f67178732251,I am not familiar with Spanish,Midwest,NA,no,2021-03-20_22h31.21.331,empathy_intonation_perc,2020.2.10,Win32,60,,,,,,,,,,0,,,,,,,,,,,,,,,,,,,,,,,,,,,,,,,,,,,,,,,,32,fatacidad,,,0,1,1.179,0,69,69,31,1,REAL,FAKE,,,,,,,,,,,,,,,,,,,,,
,,,,,,,5658000ca9872d0011e1ba26,60568611ec04488a9e9da93b,6056af9d0471f67178732251,I am not familiar with Spanish,Midwest,NA,no,2021-03-20_22h31.21.331,empathy_intonation_perc,2020.2.10,Win32,60,,,,,,,,,,0,,,,,,,,,,,,,,,,,,,,,,,,,,,,,,,,,,,,,,,,79,tropaje,,,0,1,0.987,0,70,70,78,1,REAL,FAKE,,,,,,,,,,,,,,,,,,,,,
,,,,,,,5658000ca9872d0011e1ba26,60568611ec04488a9e9da93b,6056af9d0471f67178732251,I am not familiar with Spanish,Midwest,NA,no,2021-03-20_22h31.21.331,empathy_intonation_perc,2020.2.10,Win32,60,,,,,,,,,,1,,,,,,,,,,,,,,,,,,,,,,,,,,,,,,,,,,,,,,,,90,clavel,,,0,0,1.221,0,71,71,89,1,REAL,FAKE,,,,,,,,,,,,,,,,,,,,,
,,,,,,,5658000ca9872d0011e1ba26,60568611ec04488a9e9da93b,6056af9d0471f67178732251,I am not familiar with Spanish,Midwest,NA,no,2021-03-20_22h31.21.331,empathy_intonation_perc,2020.2.10,Win32,60,,,,,,,,,,1,,,,,,,,,,,,,,,,,,,,,,,,,,,,,,,,,,,,,,,,48,ladrn,,,0,0,1.07,0,72,72,47,1,REAL,FAKE,,,,,,,,,,,,,,,,,,,,,
,,,,,,,5658000ca9872d0011e1ba26,60568611ec04488a9e9da93b,6056af9d0471f67178732251,I am not familiar with Spanish,Midwest,NA,no,2021-03-20_22h31.21.331,empathy_intonation_perc,2020.2.10,Win32,60,,,,,,,,,,0,,,,,,,,,,,,,,,,,,,,,,,,,,,,,,,,,,,,,,,,19,brecedad,,,0,1,0.946,0,73,73,18,1,REAL,FAKE,,,,,,,,,,,,,,,,,,,,,
,,,,,,,5658000ca9872d0011e1ba26,60568611ec04488a9e9da93b,6056af9d0471f67178732251,I am not familiar with Spanish,Midwest,NA,no,2021-03-20_22h31.21.331,empathy_intonation_perc,2020.2.10,Win32,60,,,,,,,,,,0,,,,,,,,,,,,,,,,,,,,,,,,,,,,,,,,,,,,,,,,17,floroso,,,1,0,2.825,0,74,74,16,1,REAL,FAKE,,,,,,,,,,,,,,,,,,,,,
,,,,,,,5658000ca9872d0011e1ba26,60568611ec04488a9e9da93b,6056af9d0471f67178732251,I am not familiar with Spanish,Midwest,NA,no,2021-03-20_22h31.21.331,empathy_intonation_perc,2020.2.10,Win32,60,,,,,,,,,,1,,,,,,,,,,,,,,,,,,,,,,,,,,,,,,,,,,,,,,,,20,vido,,,0,0,0.916,0,75,75,19,1,REAL,FAKE,,,,,,,,,,,,,,,,,,,,,
,,,,,,,5658000ca9872d0011e1ba26,60568611ec04488a9e9da93b,6056af9d0471f67178732251,I am not familiar with Spanish,Midwest,NA,no,2021-03-20_22h31.21.331,empathy_intonation_perc,2020.2.10,Win32,60,,,,,,,,,,0,,,,,,,,,,,,,,,,,,,,,,,,,,,,,,,,,,,,,,,,50,flamida,,,0,1,0.879,0,76,76,49,1,REAL,FAKE,,,,,,,,,,,,,,,,,,,,,
,,,,,,,5658000ca9872d0011e1ba26,60568611ec04488a9e9da93b,6056af9d0471f67178732251,I am not familiar with Spanish,Midwest,NA,no,2021-03-20_22h31.21.331,empathy_intonation_perc,2020.2.10,Win32,60,,,,,,,,,,0,,,,,,,,,,,,,,,,,,,,,,,,,,,,,,,,,,,,,,,,27,acutacin,,,0,1,2.64,0,77,77,26,1,REAL,FAKE,,,,,,,,,,,,,,,,,,,,,
,,,,,,,5658000ca9872d0011e1ba26,60568611ec04488a9e9da93b,6056af9d0471f67178732251,I am not familiar with Spanish,Midwest,NA,no,2021-03-20_22h31.21.331,empathy_intonation_perc,2020.2.10,Win32,60,,,,,,,,,,0,,,,,,,,,,,,,,,,,,,,,,,,,,,,,,,,,,,,,,,,30,alardio,,,0,1,0.724,0,78,78,29,1,REAL,FAKE,,,,,,,,,,,,,,,,,,,,,
,,,,,,,5658000ca9872d0011e1ba26,60568611ec04488a9e9da93b,6056af9d0471f67178732251,I am not familiar with Spanish,Midwest,NA,no,2021-03-20_22h31.21.331,empathy_intonation_perc,2020.2.10,Win32,60,,,,,,,,,,1,,,,,,,,,,,,,,,,,,,,,,,,,,,,,,,,,,,,,,,,78,frondoso,,,0,0,0.935,0,79,79,77,1,REAL,FAKE,,,,,,,,,,,,,,,,,,,,,
,,,,,,,5658000ca9872d0011e1ba26,60568611ec04488a9e9da93b,6056af9d0471f67178732251,I am not familiar with Spanish,Midwest,NA,no,2021-03-20_22h31.21.331,empathy_intonation_perc,2020.2.10,Win32,60,,,,,,,,,,1,,,,,,,,,,,,,,,,,,,,,,,,,,,,,,,,,,,,,,,,14,yunque,,,0,0,0.782,0,80,80,13,1,REAL,FAKE,,,,,,,,,,,,,,,,,,,,,
,,,,,,,5658000ca9872d0011e1ba26,60568611ec04488a9e9da93b,6056af9d0471f67178732251,I am not familiar with Spanish,Midwest,NA,no,2021-03-20_22h31.21.331,empathy_intonation_perc,2020.2.10,Win32,60,,,,,,,,,,0,,,,,,,,,,,,,,,,,,,,,,,,,,,,,,,,,,,,,,,,72,pemicin,,,0,1,1.378,0,81,81,71,1,REAL,FAKE,,,,,,,,,,,,,,,,,,,,,
,,,,,,,5658000ca9872d0011e1ba26,60568611ec04488a9e9da93b,6056af9d0471f67178732251,I am not familiar with Spanish,Midwest,NA,no,2021-03-20_22h31.21.331,empathy_intonation_perc,2020.2.10,Win32,60,,,,,,,,,,1,,,,,,,,,,,,,,,,,,,,,,,,,,,,,,,,,,,,,,,,24,ltigo,,,0,0,0.831,0,82,82,23,1,REAL,FAKE,,,,,,,,,,,,,,,,,,,,,
,,,,,,,5658000ca9872d0011e1ba26,60568611ec04488a9e9da93b,6056af9d0471f67178732251,I am not familiar with Spanish,Midwest,NA,no,2021-03-20_22h31.21.331,empathy_intonation_perc,2020.2.10,Win32,60,,,,,,,,,,1,,,,,,,,,,,,,,,,,,,,,,,,,,,,,,,,,,,,,,,,28,merodear,,,0,0,0.759,0,83,83,27,1,REAL,FAKE,,,,,,,,,,,,,,,,,,,,,
,,,,,,,5658000ca9872d0011e1ba26,60568611ec04488a9e9da93b,6056af9d0471f67178732251,I am not familiar with Spanish,Midwest,NA,no,2021-03-20_22h31.21.331,empathy_intonation_perc,2020.2.10,Win32,60,,,,,,,,,,1,,,,,,,,,,,,,,,,,,,,,,,,,,,,,,,,,,,,,,,,81,pozo,,,0,0,0.718,0,84,84,80,1,REAL,FAKE,,,,,,,,,,,,,,,,,,,,,
,,,,,,,5658000ca9872d0011e1ba26,60568611ec04488a9e9da93b,6056af9d0471f67178732251,I am not familiar with Spanish,Midwest,NA,no,2021-03-20_22h31.21.331,empathy_intonation_perc,2020.2.10,Win32,60,,,,,,,,,,1,,,,,,,,,,,,,,,,,,,,,,,,,,,,,,,,,,,,,,,,54,fomentar,,,0,0,0.75,0,85,85,53,1,REAL,FAKE,,,,,,,,,,,,,,,,,,,,,
,,,,,,,5658000ca9872d0011e1ba26,60568611ec04488a9e9da93b,6056af9d0471f67178732251,I am not familiar with Spanish,Midwest,NA,no,2021-03-20_22h31.21.331,empathy_intonation_perc,2020.2.10,Win32,60,,,,,,,,,,1,,,,,,,,,,,,,,,,,,,,,,,,,,,,,,,,,,,,,,,,43,canela,,,0,0,0.629,0,86,86,42,1,REAL,FAKE,,,,,,,,,,,,,,,,,,,,,
,,,,,,,5658000ca9872d0011e1ba26,60568611ec04488a9e9da93b,6056af9d0471f67178732251,I am not familiar with Spanish,Midwest,NA,no,2021-03-20_22h31.21.331,empathy_intonation_perc,2020.2.10,Win32,60,,,,,,,,,,1,,,,,,,,,,,,,,,,,,,,,,,,,,,,,,,,,,,,,,,,22,lacayo,,,0,0,1.102,0,87,87,21,1,REAL,FAKE,,,,,,,,,,,,,,,,,,,,,
,,,,,,,5658000ca9872d0011e1ba26,60568611ec04488a9e9da93b,6056af9d0471f67178732251,I am not familiar with Spanish,Midwest,NA,no,2021-03-20_22h31.21.331,empathy_intonation_perc,2020.2.10,Win32,60,,,,,,,,,,1,,,,,,,,,,,,,,,,,,,,,,,,,,,,,,,,,,,,,,,,37,granuja,,,0,0,0.904,0,88,88,36,1,REAL,FAKE,,,,,,,,,,,,,,,,,,,,,
,,,,,,,5658000ca9872d0011e1ba26,60568611ec04488a9e9da93b,6056af9d0471f67178732251,I am not familiar with Spanish,Midwest,NA,no,2021-03-20_22h31.21.331,empathy_intonation_perc,2020.2.10,Win32,60,,,,,,,,,,1,,,,,,,,,,,,,,,,,,,,,,,,,,,,,,,,,,,,,,,,2,pellizcar,,,0,0,1.892,0,89,89,1,1,REAL,FAKE,,,,,,,,,,,,,,,,,,,,,
,,,,,,,5658000ca9872d0011e1ba26,60568611ec04488a9e9da93b,6056af9d0471f67178732251,I am not familiar with Spanish,Midwest,NA,no,2021-03-20_22h31.21.331,empathy_intonation_perc,2020.2.10,Win32,60,,,,,,,,,,,,,,,,,,,,,,,,,,,,,,,,,,,,,,,,,,,,,,,,,,,,,,,,,,,,,,,,4,1,5.659,1,0,0,0,0,0,1,,,,,,,,,,,
,,,,,,,5658000ca9872d0011e1ba26,60568611ec04488a9e9da93b,6056af9d0471f67178732251,I am not familiar with Spanish,Midwest,NA,no,2021-03-20_22h31.21.331,empathy_intonation_perc,2020.2.10,Win32,60,,,,,,,,,,,,,,,,,,,,1,,,,,,,,,,,,,,,,,,,,,,,,,,,,,,,,,,,,,,,,,,,,,,,,,,,,,,1,0,0,0,0,1,I can easily tell if someone else wants to enter a conversation.,1,0,1,0
,,,,,,,5658000ca9872d0011e1ba26,60568611ec04488a9e9da93b,6056af9d0471f67178732251,I am not familiar with Spanish,Midwest,NA,no,2021-03-20_22h31.21.331,empathy_intonation_perc,2020.2.10,Win32,60,,,,,,,,,,,,,,,,,,,,2,,,,,,,,,,,,,,,,,,,,,,,,,,,,,,,,,,,,,,,,,,,,,,,,,,,,,,2,0,1,1,1,1,I prefer animals to humans.,0,1,0,0
