instructions_2afc_loop.thisRepN,instructions_2afc_loop.thisTrialN,instructions_2afc_loop.thisN,instructions_2afc_loop.thisIndex,instructions_2afc_loop.ran,instructions_text,continue_text,participant,study_id,session,I am most familiar with Spanish from...*,What part of the US are you from?*,At what age did you begin learning Spanish?*,Are you proficient in any languages other than English/Spanish?*,date,expName,psychopyVersion,OS,frameRate,key_resp_2afc_practice.keys,key_resp_2afc_practice.corr,key_resp_2afc_practice.rt,trials_2afc_practice_loop.thisRepN,trials_2afc_practice_loop.thisTrialN,trials_2afc_practice_loop.thisN,trials_2afc_practice_loop.thisIndex,trials_2afc_practice_loop.ran,path,correct_response,the_col,key_resp_2afc_trial.keys,key_resp_2afc_trial.corr,key_resp_2afc_trial.rt,trials_2afc_loop.thisRepN,trials_2afc_loop.thisTrialN,trials_2afc_loop.thisN,trials_2afc_loop.thisIndex,trials_2afc_loop.ran,item_num,andalusian,argentine,castilian,chilean,cuban,mexican,peruvian,puertorican,key_resp_ac1.keys,key_resp_ac1.corr,key_resp_ac1.rt,ac1_loop.thisRepN,ac1_loop.thisTrialN,ac1_loop.thisN,ac1_loop.thisIndex,ac1_loop.ran,instructions_lextale_loop.thisRepN,instructions_lextale_loop.thisTrialN,instructions_lextale_loop.thisN,instructions_lextale_loop.thisIndex,instructions_lextale_loop.ran,key_resp_lextale_practice.keys,key_resp_lextale_practice.corr,key_resp_lextale_practice.rt,trials_lextale_practice_loop.thisRepN,trials_lextale_practice_loop.thisTrialN,trials_lextale_practice_loop.thisN,trials_lextale_practice_loop.thisIndex,trials_lextale_practice_loop.ran,stim,word,prac_button_real,prac_button_false,key_resp_lextale_trial.keys,key_resp_lextale_trial.corr,key_resp_lextale_trial.rt,trials_lextale_loop.thisRepN,trials_lextale_loop.thisTrialN,trials_lextale_loop.thisN,trials_lextale_loop.thisIndex,trials_lextale_loop.ran,button_real,button_false,key_resp_ac2.keys,key_resp_ac2.corr,key_resp_ac2.rt,check_pass,check_fails,ac2_loop.thisRepN,ac2_loop.thisTrialN,ac2_loop.thisN,ac2_loop.thisIndex,ac2_loop.ran,slider_eq_trial.response,trials_eq_loop.thisRepN,trials_eq_loop.thisTrialN,trials_eq_loop.thisN,trials_eq_loop.thisIndex,trials_eq_loop.ran,item,is_test_item,is_distractor,is_agree_score,is_disagree_score
0,0,0,0,1,"In the following task you are going to hear a series of utterances. 

  You will decide if the utterances sound like questions or not using your keyboard.",(press the spacebar to continue),56e6a66af6ed900006a5867c,605b45a4d25f287719a41696,605b88dd3cdc9ad62c3c1934,United States,Midwest,13 or older,no,2021-03-24_14h46.41.634,empathy_intonation_perc,2020.2.10,Win32,60,,,,,,,,,,,,,,,,,,,,,,,,,,,,,,,,,,,,,,,,,,,,,,,,,,,,,,,,,,,,,,,,,,,,,,,,,,,,,,,,,,,,
0,1,1,1,1,"If you believe the utterance is a question, type '1' (for 'yes') and if you do not 
  believe it is a question type '0' (for 'no').

  Let's practice a bit...",(press the spacebar to continue),56e6a66af6ed900006a5867c,605b45a4d25f287719a41696,605b88dd3cdc9ad62c3c1934,United States,Midwest,13 or older,no,2021-03-24_14h46.41.634,empathy_intonation_perc,2020.2.10,Win32,60,,,,,,,,,,,,,,,,,,,,,,,,,,,,,,,,,,,,,,,,,,,,,,,,,,,,,,,,,,,,,,,,,,,,,,,,,,,,,,,,,,,,
,,,,,,,56e6a66af6ed900006a5867c,605b45a4d25f287719a41696,605b88dd3cdc9ad62c3c1934,United States,Midwest,13 or older,no,2021-03-24_14h46.41.634,empathy_intonation_perc,2020.2.10,Win32,60,0,1,3.816,0,0,0,5,1,./stim/wavs/andalusian_statement_filler_Alberto-nunca-se-afeita.wav,0,,,,,,,,,,,,,,,,,,,,,,,,,,,,,,,,,,,,,,,,,,,,,,,,,,,,,,,,,,,,,,,,,,,,,,,,,,
,,,,,,,56e6a66af6ed900006a5867c,605b45a4d25f287719a41696,605b88dd3cdc9ad62c3c1934,United States,Midwest,13 or older,no,2021-03-24_14h46.41.634,empathy_intonation_perc,2020.2.10,Win32,60,0,1,2.406,0,1,1,7,1,./stim/wavs/puertorican_statement_filler_La-nina-pinta-con-su-amiga.wav,0,,,,,,,,,,,,,,,,,,,,,,,,,,,,,,,,,,,,,,,,,,,,,,,,,,,,,,,,,,,,,,,,,,,,,,,,,,
,,,,,,,56e6a66af6ed900006a5867c,605b45a4d25f287719a41696,605b88dd3cdc9ad62c3c1934,United States,Midwest,13 or older,no,2021-03-24_14h46.41.634,empathy_intonation_perc,2020.2.10,Win32,60,1,1,2.799,0,2,2,0,1,./stim/wavs/castilian_question_filler_Mi-esposo-conoce-al-chico.wav,1,,,,,,,,,,,,,,,,,,,,,,,,,,,,,,,,,,,,,,,,,,,,,,,,,,,,,,,,,,,,,,,,,,,,,,,,,,
,,,,,,,56e6a66af6ed900006a5867c,605b45a4d25f287719a41696,605b88dd3cdc9ad62c3c1934,United States,Midwest,13 or older,no,2021-03-24_14h46.41.634,empathy_intonation_perc,2020.2.10,Win32,60,0,1,2.687,0,3,3,6,1,./stim/wavs/peruvian_statement_filler_El-nino-habla-con-su-madre.wav,0,,,,,,,,,,,,,,,,,,,,,,,,,,,,,,,,,,,,,,,,,,,,,,,,,,,,,,,,,,,,,,,,,,,,,,,,,,
,,,,,,,56e6a66af6ed900006a5867c,605b45a4d25f287719a41696,605b88dd3cdc9ad62c3c1934,United States,Midwest,13 or older,no,2021-03-24_14h46.41.634,empathy_intonation_perc,2020.2.10,Win32,60,1,1,5.322,0,4,4,3,1,./stim/wavs/mexican_question_filler_Felipe-no-tiene-contrasena.wav,1,,,,,,,,,,,,,,,,,,,,,,,,,,,,,,,,,,,,,,,,,,,,,,,,,,,,,,,,,,,,,,,,,,,,,,,,,,
,,,,,,,56e6a66af6ed900006a5867c,605b45a4d25f287719a41696,605b88dd3cdc9ad62c3c1934,United States,Midwest,13 or older,no,2021-03-24_14h46.41.634,empathy_intonation_perc,2020.2.10,Win32,60,0,0,2.706,0,5,5,2,1,./stim/wavs/chilean_question_filler_Mi-padre-cantaba-bien.wav,1,,,,,,,,,,,,,,,,,,,,,,,,,,,,,,,,,,,,,,,,,,,,,,,,,,,,,,,,,,,,,,,,,,,,,,,,,,
,,,,,,,56e6a66af6ed900006a5867c,605b45a4d25f287719a41696,605b88dd3cdc9ad62c3c1934,United States,Midwest,13 or older,no,2021-03-24_14h46.41.634,empathy_intonation_perc,2020.2.10,Win32,60,1,1,1.854,0,6,6,1,1,./stim/wavs/argentine_question_filler_Mi-vecino-habla-mucho.wav,1,,,,,,,,,,,,,,,,,,,,,,,,,,,,,,,,,,,,,,,,,,,,,,,,,,,,,,,,,,,,,,,,,,,,,,,,,,
,,,,,,,56e6a66af6ed900006a5867c,605b45a4d25f287719a41696,605b88dd3cdc9ad62c3c1934,United States,Midwest,13 or older,no,2021-03-24_14h46.41.634,empathy_intonation_perc,2020.2.10,Win32,60,0,1,2.478,0,7,7,4,1,./stim/wavs/cuban_statement_filler_Cocinabas-por-la-noche.wav,0,,,,,,,,,,,,,,,,,,,,,,,,,,,,,,,,,,,,,,,,,,,,,,,,,,,,,,,,,,,,,,,,,,,,,,,,,,
,,,,,,,56e6a66af6ed900006a5867c,605b45a4d25f287719a41696,605b88dd3cdc9ad62c3c1934,United States,Midwest,13 or older,no,2021-03-24_14h46.41.634,empathy_intonation_perc,2020.2.10,Win32,60,,,,,,,,,,1,chilean,1,1,3.174,0,0,0,57,1,58,./stim/wavs/andalusian_mismatch_interrogative-total-yn_El-hombre-mira-la-luna.wav,./stim/wavs/argentine_mismatch_interrogative-total-yn_El-hombre-mira-la-luna.wav,./stim/wavs/castilian_mismatch_interrogative-total-yn_El-hombre-mira-la-luna.wav,./stim/wavs/chilean_mismatch_interrogative-total-yn_El-hombre-mira-la-luna.wav,./stim/wavs/cuban_mismatch_interrogative-total-yn_El-hombre-mira-la-luna.wav,./stim/wavs/mexican_mismatch_interrogative-total-yn_El-hombre-mira-la-luna.wav,./stim/wavs/peruvian_mismatch_interrogative-total-yn_El-hombre-mira-la-luna.wav,./stim/wavs/puertorican_mismatch_interrogative-total-yn_El-hombre-mira-la-luna.wav,,,,,,,,,,,,,,,,,,,,,,,,,,,,,,,,,,,,,,,,,,,,,,,,,,,,,,,,
,,,,,,,56e6a66af6ed900006a5867c,605b45a4d25f287719a41696,605b88dd3cdc9ad62c3c1934,United States,Midwest,13 or older,no,2021-03-24_14h46.41.634,empathy_intonation_perc,2020.2.10,Win32,60,,,,,,,,,,1,mexican,1,1,2.936,0,1,1,27,1,28,./stim/wavs/andalusian_match_interrogative-total-yn_Emilio-ama-la-marcha.wav,./stim/wavs/argentine_match_interrogative-total-yn_Emilio-ama-la-marcha.wav,./stim/wavs/castilian_match_interrogative-total-yn_Emilio-ama-la-marcha.wav,./stim/wavs/chilean_match_interrogative-total-yn_Emilio-ama-la-marcha.wav,./stim/wavs/cuban_match_interrogative-total-yn_Emilio-ama-la-marcha.wav,./stim/wavs/mexican_match_interrogative-total-yn_Emilio-ama-la-marcha.wav,./stim/wavs/peruvian_match_interrogative-total-yn_Emilio-ama-la-marcha.wav,./stim/wavs/puertorican_match_interrogative-total-yn_Emilio-ama-la-marcha.wav,,,,,,,,,,,,,,,,,,,,,,,,,,,,,,,,,,,,,,,,,,,,,,,,,,,,,,,,
,,,,,,,56e6a66af6ed900006a5867c,605b45a4d25f287719a41696,605b88dd3cdc9ad62c3c1934,United States,Midwest,13 or older,no,2021-03-24_14h46.41.634,empathy_intonation_perc,2020.2.10,Win32,60,,,,,,,,,,1,cuban,0,0,2.584,0,2,2,16,1,17,./stim/wavs/andalusian_match_interrogative-partial-wh_Cuando-bebia-el-vino.wav,./stim/wavs/argentine_match_interrogative-partial-wh_Cuando-bebia-el-vino.wav,./stim/wavs/castilian_match_interrogative-partial-wh_Cuando-bebia-el-vino.wav,./stim/wavs/chilean_match_interrogative-partial-wh_Cuando-bebia-el-vino.wav,./stim/wavs/cuban_match_interrogative-partial-wh_Cuando-bebia-el-vino.wav,./stim/wavs/mexican_match_interrogative-partial-wh_Cuando-bebia-el-vino.wav,./stim/wavs/peruvian_match_interrogative-partial-wh_Cuando-bebia-el-vino.wav,./stim/wavs/puertorican_match_interrogative-partial-wh_Cuando-bebia-el-vino.wav,,,,,,,,,,,,,,,,,,,,,,,,,,,,,,,,,,,,,,,,,,,,,,,,,,,,,,,,
,,,,,,,56e6a66af6ed900006a5867c,605b45a4d25f287719a41696,605b88dd3cdc9ad62c3c1934,United States,Midwest,13 or older,no,2021-03-24_14h46.41.634,empathy_intonation_perc,2020.2.10,Win32,60,,,,,,,,,,0,chilean,0,1,3.638,0,3,3,14,1,15,./stim/wavs/andalusian_match_declarative-narrow-focus_Mariano-habla-del-tiempo.wav,./stim/wavs/argentine_match_declarative-narrow-focus_Mariano-habla-del-tiempo.wav,./stim/wavs/castilian_match_declarative-narrow-focus_Mariano-habla-del-tiempo.wav,./stim/wavs/chilean_match_declarative-narrow-focus_Mariano-habla-del-tiempo.wav,./stim/wavs/cuban_match_declarative-narrow-focus_Mariano-habla-del-tiempo.wav,./stim/wavs/mexican_match_declarative-narrow-focus_Mariano-habla-del-tiempo.wav,./stim/wavs/peruvian_match_declarative-narrow-focus_Mariano-habla-del-tiempo.wav,./stim/wavs/puertorican_match_declarative-narrow-focus_Mariano-habla-del-tiempo.wav,,,,,,,,,,,,,,,,,,,,,,,,,,,,,,,,,,,,,,,,,,,,,,,,,,,,,,,,
,,,,,,,56e6a66af6ed900006a5867c,605b45a4d25f287719a41696,605b88dd3cdc9ad62c3c1934,United States,Midwest,13 or older,no,2021-03-24_14h46.41.634,empathy_intonation_perc,2020.2.10,Win32,60,,,,,,,,,,0,andalusian,1,0,2.179,0,4,4,46,1,47,./stim/wavs/andalusian_mismatch_declarative-narrow-focus_Mi-novio-viene-del-lago.wav,./stim/wavs/argentine_mismatch_declarative-narrow-focus_Mi-novio-viene-del-lago.wav,./stim/wavs/castilian_mismatch_declarative-narrow-focus_Mi-novio-viene-del-lago.wav,./stim/wavs/chilean_mismatch_declarative-narrow-focus_Mi-novio-viene-del-lago.wav,./stim/wavs/cuban_mismatch_declarative-narrow-focus_Mi-novio-viene-del-lago.wav,./stim/wavs/mexican_mismatch_declarative-narrow-focus_Mi-novio-viene-del-lago.wav,./stim/wavs/peruvian_mismatch_declarative-narrow-focus_Mi-novio-viene-del-lago.wav,./stim/wavs/puertorican_mismatch_declarative-narrow-focus_Mi-novio-viene-del-lago.wav,,,,,,,,,,,,,,,,,,,,,,,,,,,,,,,,,,,,,,,,,,,,,,,,,,,,,,,,
,,,,,,,56e6a66af6ed900006a5867c,605b45a4d25f287719a41696,605b88dd3cdc9ad62c3c1934,United States,Midwest,13 or older,no,2021-03-24_14h46.41.634,empathy_intonation_perc,2020.2.10,Win32,60,,,,,,,,,,1,andalusian,0,0,2.334,0,5,5,54,1,55,./stim/wavs/andalusian_mismatch_interrogative-partial-wh_Por-que-venia-del-lago.wav,./stim/wavs/argentine_mismatch_interrogative-partial-wh_Por-que-venia-del-lago.wav,./stim/wavs/castilian_mismatch_interrogative-partial-wh_Por-que-venia-del-lago.wav,./stim/wavs/chilean_mismatch_interrogative-partial-wh_Por-que-venia-del-lago.wav,./stim/wavs/cuban_mismatch_interrogative-partial-wh_Por-que-venia-del-lago.wav,./stim/wavs/mexican_mismatch_interrogative-partial-wh_Por-que-venia-del-lago.wav,./stim/wavs/peruvian_mismatch_interrogative-partial-wh_Por-que-venia-del-lago.wav,./stim/wavs/puertorican_mismatch_interrogative-partial-wh_Por-que-venia-del-lago.wav,,,,,,,,,,,,,,,,,,,,,,,,,,,,,,,,,,,,,,,,,,,,,,,,,,,,,,,,
,,,,,,,56e6a66af6ed900006a5867c,605b45a4d25f287719a41696,605b88dd3cdc9ad62c3c1934,United States,Midwest,13 or older,no,2021-03-24_14h46.41.634,empathy_intonation_perc,2020.2.10,Win32,60,,,,,,,,,,0,cuban,0,1,2.152,0,6,6,44,1,45,./stim/wavs/andalusian_mismatch_declarative-narrow-focus_La-nina-lava-el-plato.wav,./stim/wavs/argentine_mismatch_declarative-narrow-focus_La-nina-lava-el-plato.wav,./stim/wavs/castilian_mismatch_declarative-narrow-focus_La-nina-lava-el-plato.wav,./stim/wavs/chilean_mismatch_declarative-narrow-focus_La-nina-lava-el-plato.wav,./stim/wavs/cuban_mismatch_declarative-narrow-focus_La-nina-lava-el-plato.wav,./stim/wavs/mexican_mismatch_declarative-narrow-focus_La-nina-lava-el-plato.wav,./stim/wavs/peruvian_mismatch_declarative-narrow-focus_La-nina-lava-el-plato.wav,./stim/wavs/puertorican_mismatch_declarative-narrow-focus_La-nina-lava-el-plato.wav,,,,,,,,,,,,,,,,,,,,,,,,,,,,,,,,,,,,,,,,,,,,,,,,,,,,,,,,
,,,,,,,56e6a66af6ed900006a5867c,605b45a4d25f287719a41696,605b88dd3cdc9ad62c3c1934,United States,Midwest,13 or older,no,2021-03-24_14h46.41.634,empathy_intonation_perc,2020.2.10,Win32,60,,,,,,,,,,1,puertorican,0,0,2.595,0,7,7,55,1,56,./stim/wavs/andalusian_mismatch_interrogative-partial-wh_Por-que-vivia-en-Paris.wav,./stim/wavs/argentine_mismatch_interrogative-partial-wh_Por-que-vivia-en-Paris.wav,./stim/wavs/castilian_mismatch_interrogative-partial-wh_Por-que-vivia-en-Paris.wav,./stim/wavs/chilean_mismatch_interrogative-partial-wh_Por-que-vivia-en-Paris.wav,./stim/wavs/cuban_mismatch_interrogative-partial-wh_Por-que-vivia-en-Paris.wav,./stim/wavs/mexican_mismatch_interrogative-partial-wh_Por-que-vivia-en-Paris.wav,./stim/wavs/peruvian_mismatch_interrogative-partial-wh_Por-que-vivia-en-Paris.wav,./stim/wavs/puertorican_mismatch_interrogative-partial-wh_Por-que-vivia-en-Paris.wav,,,,,,,,,,,,,,,,,,,,,,,,,,,,,,,,,,,,,,,,,,,,,,,,,,,,,,,,
,,,,,,,56e6a66af6ed900006a5867c,605b45a4d25f287719a41696,605b88dd3cdc9ad62c3c1934,United States,Midwest,13 or older,no,2021-03-24_14h46.41.634,empathy_intonation_perc,2020.2.10,Win32,60,,,,,,,,,,0,chilean,1,0,3.318,0,8,8,43,1,44,./stim/wavs/andalusian_mismatch_declarative-narrow-focus_La-maestra-vive-en-Paris.wav,./stim/wavs/argentine_mismatch_declarative-narrow-focus_La-maestra-vive-en-Paris.wav,./stim/wavs/castilian_mismatch_declarative-narrow-focus_La-maestra-vive-en-Paris.wav,./stim/wavs/chilean_mismatch_declarative-narrow-focus_La-maestra-vive-en-Paris.wav,./stim/wavs/cuban_mismatch_declarative-narrow-focus_La-maestra-vive-en-Paris.wav,./stim/wavs/mexican_mismatch_declarative-narrow-focus_La-maestra-vive-en-Paris.wav,./stim/wavs/peruvian_mismatch_declarative-narrow-focus_La-maestra-vive-en-Paris.wav,./stim/wavs/puertorican_mismatch_declarative-narrow-focus_La-maestra-vive-en-Paris.wav,,,,,,,,,,,,,,,,,,,,,,,,,,,,,,,,,,,,,,,,,,,,,,,,,,,,,,,,
,,,,,,,56e6a66af6ed900006a5867c,605b45a4d25f287719a41696,605b88dd3cdc9ad62c3c1934,United States,Midwest,13 or older,no,2021-03-24_14h46.41.634,empathy_intonation_perc,2020.2.10,Win32,60,,,,,,,,,,0,chilean,1,0,2.093,0,9,9,39,1,40,./stim/wavs/andalusian_mismatch_declarative-broad-focus_Mi-tia-odia-la-lluvia.wav,./stim/wavs/argentine_mismatch_declarative-broad-focus_Mi-tia-odia-la-lluvia.wav,./stim/wavs/castilian_mismatch_declarative-broad-focus_Mi-tia-odia-la-lluvia.wav,./stim/wavs/chilean_mismatch_declarative-broad-focus_Mi-tia-odia-la-lluvia.wav,./stim/wavs/cuban_mismatch_declarative-broad-focus_Mi-tia-odia-la-lluvia.wav,./stim/wavs/mexican_mismatch_declarative-broad-focus_Mi-tia-odia-la-lluvia.wav,./stim/wavs/peruvian_mismatch_declarative-broad-focus_Mi-tia-odia-la-lluvia.wav,./stim/wavs/puertorican_mismatch_declarative-broad-focus_Mi-tia-odia-la-lluvia.wav,,,,,,,,,,,,,,,,,,,,,,,,,,,,,,,,,,,,,,,,,,,,,,,,,,,,,,,,
,,,,,,,56e6a66af6ed900006a5867c,605b45a4d25f287719a41696,605b88dd3cdc9ad62c3c1934,United States,Midwest,13 or older,no,2021-03-24_14h46.41.634,empathy_intonation_perc,2020.2.10,Win32,60,,,,,,,,,,0,puertorican,1,0,2.395,0,10,10,13,1,14,./stim/wavs/andalusian_match_declarative-narrow-focus_Maria-bebe-el-vino.wav,./stim/wavs/argentine_match_declarative-narrow-focus_Maria-bebe-el-vino.wav,./stim/wavs/castilian_match_declarative-narrow-focus_Maria-bebe-el-vino.wav,./stim/wavs/chilean_match_declarative-narrow-focus_Maria-bebe-el-vino.wav,./stim/wavs/cuban_match_declarative-narrow-focus_Maria-bebe-el-vino.wav,./stim/wavs/mexican_match_declarative-narrow-focus_Maria-bebe-el-vino.wav,./stim/wavs/peruvian_match_declarative-narrow-focus_Maria-bebe-el-vino.wav,./stim/wavs/puertorican_match_declarative-narrow-focus_Maria-bebe-el-vino.wav,,,,,,,,,,,,,,,,,,,,,,,,,,,,,,,,,,,,,,,,,,,,,,,,,,,,,,,,
,,,,,,,56e6a66af6ed900006a5867c,605b45a4d25f287719a41696,605b88dd3cdc9ad62c3c1934,United States,Midwest,13 or older,no,2021-03-24_14h46.41.634,empathy_intonation_perc,2020.2.10,Win32,60,,,,,,,,,,1,castilian,1,1,2.329,0,11,11,25,1,26,./stim/wavs/andalusian_match_interrogative-total-yn_Daniel-iba-a-Bolivia.wav,./stim/wavs/argentine_match_interrogative-total-yn_Daniel-iba-a-Bolivia.wav,./stim/wavs/castilian_match_interrogative-total-yn_Daniel-iba-a-Bolivia.wav,./stim/wavs/chilean_match_interrogative-total-yn_Daniel-iba-a-Bolivia.wav,./stim/wavs/cuban_match_interrogative-total-yn_Daniel-iba-a-Bolivia.wav,./stim/wavs/mexican_match_interrogative-total-yn_Daniel-iba-a-Bolivia.wav,./stim/wavs/peruvian_match_interrogative-total-yn_Daniel-iba-a-Bolivia.wav,./stim/wavs/puertorican_match_interrogative-total-yn_Daniel-iba-a-Bolivia.wav,,,,,,,,,,,,,,,,,,,,,,,,,,,,,,,,,,,,,,,,,,,,,,,,,,,,,,,,
,,,,,,,56e6a66af6ed900006a5867c,605b45a4d25f287719a41696,605b88dd3cdc9ad62c3c1934,United States,Midwest,13 or older,no,2021-03-24_14h46.41.634,empathy_intonation_perc,2020.2.10,Win32,60,,,,,,,,,,0,argentine,1,0,3.461,0,12,12,9,1,10,./stim/wavs/andalusian_match_declarative-narrow-focus_Daniel-iba-a-Bolivia.wav,./stim/wavs/argentine_match_declarative-narrow-focus_Daniel-iba-a-Bolivia.wav,./stim/wavs/castilian_match_declarative-narrow-focus_Daniel-iba-a-Bolivia.wav,./stim/wavs/chilean_match_declarative-narrow-focus_Daniel-iba-a-Bolivia.wav,./stim/wavs/cuban_match_declarative-narrow-focus_Daniel-iba-a-Bolivia.wav,./stim/wavs/mexican_match_declarative-narrow-focus_Daniel-iba-a-Bolivia.wav,./stim/wavs/peruvian_match_declarative-narrow-focus_Daniel-iba-a-Bolivia.wav,./stim/wavs/puertorican_match_declarative-narrow-focus_Daniel-iba-a-Bolivia.wav,,,,,,,,,,,,,,,,,,,,,,,,,,,,,,,,,,,,,,,,,,,,,,,,,,,,,,,,
,,,,,,,56e6a66af6ed900006a5867c,605b45a4d25f287719a41696,605b88dd3cdc9ad62c3c1934,United States,Midwest,13 or older,no,2021-03-24_14h46.41.634,empathy_intonation_perc,2020.2.10,Win32,60,,,,,,,,,,1,chilean,1,1,2.41,0,13,13,60,1,61,./stim/wavs/andalusian_mismatch_interrogative-total-yn_La-nina-lava-el-plato.wav,./stim/wavs/argentine_mismatch_interrogative-total-yn_La-nina-lava-el-plato.wav,./stim/wavs/castilian_mismatch_interrogative-total-yn_La-nina-lava-el-plato.wav,./stim/wavs/chilean_mismatch_interrogative-total-yn_La-nina-lava-el-plato.wav,./stim/wavs/cuban_mismatch_interrogative-total-yn_La-nina-lava-el-plato.wav,./stim/wavs/mexican_mismatch_interrogative-total-yn_La-nina-lava-el-plato.wav,./stim/wavs/peruvian_mismatch_interrogative-total-yn_La-nina-lava-el-plato.wav,./stim/wavs/puertorican_mismatch_interrogative-total-yn_La-nina-lava-el-plato.wav,,,,,,,,,,,,,,,,,,,,,,,,,,,,,,,,,,,,,,,,,,,,,,,,,,,,,,,,
,,,,,,,56e6a66af6ed900006a5867c,605b45a4d25f287719a41696,605b88dd3cdc9ad62c3c1934,United States,Midwest,13 or older,no,2021-03-24_14h46.41.634,empathy_intonation_perc,2020.2.10,Win32,60,,,,,,,,,,0,peruvian,0,1,2.051,0,14,14,15,1,16,./stim/wavs/andalusian_match_declarative-narrow-focus_Marta-abre-el-regalo.wav,./stim/wavs/argentine_match_declarative-narrow-focus_Marta-abre-el-regalo.wav,./stim/wavs/castilian_match_declarative-narrow-focus_Marta-abre-el-regalo.wav,./stim/wavs/chilean_match_declarative-narrow-focus_Marta-abre-el-regalo.wav,./stim/wavs/cuban_match_declarative-narrow-focus_Marta-abre-el-regalo.wav,./stim/wavs/mexican_match_declarative-narrow-focus_Marta-abre-el-regalo.wav,./stim/wavs/peruvian_match_declarative-narrow-focus_Marta-abre-el-regalo.wav,./stim/wavs/puertorican_match_declarative-narrow-focus_Marta-abre-el-regalo.wav,,,,,,,,,,,,,,,,,,,,,,,,,,,,,,,,,,,,,,,,,,,,,,,,,,,,,,,,
,,,,,,,56e6a66af6ed900006a5867c,605b45a4d25f287719a41696,605b88dd3cdc9ad62c3c1934,United States,Midwest,13 or older,no,2021-03-24_14h46.41.634,empathy_intonation_perc,2020.2.10,Win32,60,,,,,,,,,,1,cuban,0,0,2.486,0,15,15,62,1,63,./stim/wavs/andalusian_mismatch_interrogative-total-yn_Mi-novio-viene-del-lago.wav,./stim/wavs/argentine_mismatch_interrogative-total-yn_Mi-novio-viene-del-lago.wav,./stim/wavs/castilian_mismatch_interrogative-total-yn_Mi-novio-viene-del-lago.wav,./stim/wavs/chilean_mismatch_interrogative-total-yn_Mi-novio-viene-del-lago.wav,./stim/wavs/cuban_mismatch_interrogative-total-yn_Mi-novio-viene-del-lago.wav,./stim/wavs/mexican_mismatch_interrogative-total-yn_Mi-novio-viene-del-lago.wav,./stim/wavs/peruvian_mismatch_interrogative-total-yn_Mi-novio-viene-del-lago.wav,./stim/wavs/puertorican_mismatch_interrogative-total-yn_Mi-novio-viene-del-lago.wav,,,,,,,,,,,,,,,,,,,,,,,,,,,,,,,,,,,,,,,,,,,,,,,,,,,,,,,,
,,,,,,,56e6a66af6ed900006a5867c,605b45a4d25f287719a41696,605b88dd3cdc9ad62c3c1934,United States,Midwest,13 or older,no,2021-03-24_14h46.41.634,empathy_intonation_perc,2020.2.10,Win32,60,,,,,,,,,,0,mexican,0,1,3.071,0,16,16,11,1,12,./stim/wavs/andalusian_match_declarative-narrow-focus_Emilio-ama-la-marcha.wav,./stim/wavs/argentine_match_declarative-narrow-focus_Emilio-ama-la-marcha.wav,./stim/wavs/castilian_match_declarative-narrow-focus_Emilio-ama-la-marcha.wav,./stim/wavs/chilean_match_declarative-narrow-focus_Emilio-ama-la-marcha.wav,./stim/wavs/cuban_match_declarative-narrow-focus_Emilio-ama-la-marcha.wav,./stim/wavs/mexican_match_declarative-narrow-focus_Emilio-ama-la-marcha.wav,./stim/wavs/peruvian_match_declarative-narrow-focus_Emilio-ama-la-marcha.wav,./stim/wavs/puertorican_match_declarative-narrow-focus_Emilio-ama-la-marcha.wav,,,,,,,,,,,,,,,,,,,,,,,,,,,,,,,,,,,,,,,,,,,,,,,,,,,,,,,,
,,,,,,,56e6a66af6ed900006a5867c,605b45a4d25f287719a41696,605b88dd3cdc9ad62c3c1934,United States,Midwest,13 or older,no,2021-03-24_14h46.41.634,empathy_intonation_perc,2020.2.10,Win32,60,,,,,,,,,,1,chilean,1,1,2.052,0,17,17,20,1,21,./stim/wavs/andalusian_match_interrogative-partial-wh_Por-que-abre-el-regalo.wav,./stim/wavs/argentine_match_interrogative-partial-wh_Por-que-abre-el-regalo.wav,./stim/wavs/castilian_match_interrogative-partial-wh_Por-que-abre-el-regalo.wav,./stim/wavs/chilean_match_interrogative-partial-wh_Por-que-abre-el-regalo.wav,./stim/wavs/cuban_match_interrogative-partial-wh_Por-que-abre-el-regalo.wav,./stim/wavs/mexican_match_interrogative-partial-wh_Por-que-abre-el-regalo.wav,./stim/wavs/peruvian_match_interrogative-partial-wh_Por-que-abre-el-regalo.wav,./stim/wavs/puertorican_match_interrogative-partial-wh_Por-que-abre-el-regalo.wav,,,,,,,,,,,,,,,,,,,,,,,,,,,,,,,,,,,,,,,,,,,,,,,,,,,,,,,,
,,,,,,,56e6a66af6ed900006a5867c,605b45a4d25f287719a41696,605b88dd3cdc9ad62c3c1934,United States,Midwest,13 or older,no,2021-03-24_14h46.41.634,empathy_intonation_perc,2020.2.10,Win32,60,,,,,,,,,,1,castilian,1,1,2.093,0,18,18,28,1,29,./stim/wavs/andalusian_match_interrogative-total-yn_Manuela-vende-el-carro.wav,./stim/wavs/argentine_match_interrogative-total-yn_Manuela-vende-el-carro.wav,./stim/wavs/castilian_match_interrogative-total-yn_Manuela-vende-el-carro.wav,./stim/wavs/chilean_match_interrogative-total-yn_Manuela-vende-el-carro.wav,./stim/wavs/cuban_match_interrogative-total-yn_Manuela-vende-el-carro.wav,./stim/wavs/mexican_match_interrogative-total-yn_Manuela-vende-el-carro.wav,./stim/wavs/peruvian_match_interrogative-total-yn_Manuela-vende-el-carro.wav,./stim/wavs/puertorican_match_interrogative-total-yn_Manuela-vende-el-carro.wav,,,,,,,,,,,,,,,,,,,,,,,,,,,,,,,,,,,,,,,,,,,,,,,,,,,,,,,,
,,,,,,,56e6a66af6ed900006a5867c,605b45a4d25f287719a41696,605b88dd3cdc9ad62c3c1934,United States,Midwest,13 or older,no,2021-03-24_14h46.41.634,empathy_intonation_perc,2020.2.10,Win32,60,,,,,,,,,,1,peruvian,1,1,5.185,0,19,19,24,1,25,./stim/wavs/andalusian_match_interrogative-total-yn_Ana-lleva-el-abrigo.wav,./stim/wavs/argentine_match_interrogative-total-yn_Ana-lleva-el-abrigo.wav,./stim/wavs/castilian_match_interrogative-total-yn_Ana-lleva-el-abrigo.wav,./stim/wavs/chilean_match_interrogative-total-yn_Ana-lleva-el-abrigo.wav,./stim/wavs/cuban_match_interrogative-total-yn_Ana-lleva-el-abrigo.wav,./stim/wavs/mexican_match_interrogative-total-yn_Ana-lleva-el-abrigo.wav,./stim/wavs/peruvian_match_interrogative-total-yn_Ana-lleva-el-abrigo.wav,./stim/wavs/puertorican_match_interrogative-total-yn_Ana-lleva-el-abrigo.wav,,,,,,,,,,,,,,,,,,,,,,,,,,,,,,,,,,,,,,,,,,,,,,,,,,,,,,,,
,,,,,,,56e6a66af6ed900006a5867c,605b45a4d25f287719a41696,605b88dd3cdc9ad62c3c1934,United States,Midwest,13 or older,no,2021-03-24_14h46.41.634,empathy_intonation_perc,2020.2.10,Win32,60,,,,,,,,,,1,castilian,1,1,2.022,0,20,20,49,1,50,./stim/wavs/andalusian_mismatch_interrogative-partial-wh_Cuando-lavaba-el-plato.wav,./stim/wavs/argentine_mismatch_interrogative-partial-wh_Cuando-lavaba-el-plato.wav,./stim/wavs/castilian_mismatch_interrogative-partial-wh_Cuando-lavaba-el-plato.wav,./stim/wavs/chilean_mismatch_interrogative-partial-wh_Cuando-lavaba-el-plato.wav,./stim/wavs/cuban_mismatch_interrogative-partial-wh_Cuando-lavaba-el-plato.wav,./stim/wavs/mexican_mismatch_interrogative-partial-wh_Cuando-lavaba-el-plato.wav,./stim/wavs/peruvian_mismatch_interrogative-partial-wh_Cuando-lavaba-el-plato.wav,./stim/wavs/puertorican_mismatch_interrogative-partial-wh_Cuando-lavaba-el-plato.wav,,,,,,,,,,,,,,,,,,,,,,,,,,,,,,,,,,,,,,,,,,,,,,,,,,,,,,,,
,,,,,,,56e6a66af6ed900006a5867c,605b45a4d25f287719a41696,605b88dd3cdc9ad62c3c1934,United States,Midwest,13 or older,no,2021-03-24_14h46.41.634,empathy_intonation_perc,2020.2.10,Win32,60,,,,,,,,,,1,argentine,1,1,2.036,0,21,21,61,1,62,./stim/wavs/andalusian_mismatch_interrogative-total-yn_Mi-madre-come-la-fruta.wav,./stim/wavs/argentine_mismatch_interrogative-total-yn_Mi-madre-come-la-fruta.wav,./stim/wavs/castilian_mismatch_interrogative-total-yn_Mi-madre-come-la-fruta.wav,./stim/wavs/chilean_mismatch_interrogative-total-yn_Mi-madre-come-la-fruta.wav,./stim/wavs/cuban_mismatch_interrogative-total-yn_Mi-madre-come-la-fruta.wav,./stim/wavs/mexican_mismatch_interrogative-total-yn_Mi-madre-come-la-fruta.wav,./stim/wavs/peruvian_mismatch_interrogative-total-yn_Mi-madre-come-la-fruta.wav,./stim/wavs/puertorican_mismatch_interrogative-total-yn_Mi-madre-come-la-fruta.wav,,,,,,,,,,,,,,,,,,,,,,,,,,,,,,,,,,,,,,,,,,,,,,,,,,,,,,,,
,,,,,,,56e6a66af6ed900006a5867c,605b45a4d25f287719a41696,605b88dd3cdc9ad62c3c1934,United States,Midwest,13 or older,no,2021-03-24_14h46.41.634,empathy_intonation_perc,2020.2.10,Win32,60,,,,,,,,,,1,cuban,0,0,2.084,0,22,22,23,1,24,./stim/wavs/andalusian_match_interrogative-partial-wh_Por-que-iba-a-Bolivia.wav,./stim/wavs/argentine_match_interrogative-partial-wh_Por-que-iba-a-Bolivia.wav,./stim/wavs/castilian_match_interrogative-partial-wh_Por-que-iba-a-Bolivia.wav,./stim/wavs/chilean_match_interrogative-partial-wh_Por-que-iba-a-Bolivia.wav,./stim/wavs/cuban_match_interrogative-partial-wh_Por-que-iba-a-Bolivia.wav,./stim/wavs/mexican_match_interrogative-partial-wh_Por-que-iba-a-Bolivia.wav,./stim/wavs/peruvian_match_interrogative-partial-wh_Por-que-iba-a-Bolivia.wav,./stim/wavs/puertorican_match_interrogative-partial-wh_Por-que-iba-a-Bolivia.wav,,,,,,,,,,,,,,,,,,,,,,,,,,,,,,,,,,,,,,,,,,,,,,,,,,,,,,,,
,,,,,,,56e6a66af6ed900006a5867c,605b45a4d25f287719a41696,605b88dd3cdc9ad62c3c1934,United States,Midwest,13 or older,no,2021-03-24_14h46.41.634,empathy_intonation_perc,2020.2.10,Win32,60,,,,,,,,,,0,argentine,0,1,2.239,0,23,23,3,1,4,./stim/wavs/andalusian_match_declarative-broad-focus_Emilio-ama-la-marcha.wav,./stim/wavs/argentine_match_declarative-broad-focus_Emilio-ama-la-marcha.wav,./stim/wavs/castilian_match_declarative-broad-focus_Emilio-ama-la-marcha.wav,./stim/wavs/chilean_match_declarative-broad-focus_Emilio-ama-la-marcha.wav,./stim/wavs/cuban_match_declarative-broad-focus_Emilio-ama-la-marcha.wav,./stim/wavs/mexican_match_declarative-broad-focus_Emilio-ama-la-marcha.wav,./stim/wavs/peruvian_match_declarative-broad-focus_Emilio-ama-la-marcha.wav,./stim/wavs/puertorican_match_declarative-broad-focus_Emilio-ama-la-marcha.wav,,,,,,,,,,,,,,,,,,,,,,,,,,,,,,,,,,,,,,,,,,,,,,,,,,,,,,,,
,,,,,,,56e6a66af6ed900006a5867c,605b45a4d25f287719a41696,605b88dd3cdc9ad62c3c1934,United States,Midwest,13 or older,no,2021-03-24_14h46.41.634,empathy_intonation_perc,2020.2.10,Win32,60,,,,,,,,,,1,andalusian,0,0,2.211,0,24,24,52,1,53,./stim/wavs/andalusian_mismatch_interrogative-partial-wh_Por-que-odiaba-la-lluvia.wav,./stim/wavs/argentine_mismatch_interrogative-partial-wh_Por-que-odiaba-la-lluvia.wav,./stim/wavs/castilian_mismatch_interrogative-partial-wh_Por-que-odiaba-la-lluvia.wav,./stim/wavs/chilean_mismatch_interrogative-partial-wh_Por-que-odiaba-la-lluvia.wav,./stim/wavs/cuban_mismatch_interrogative-partial-wh_Por-que-odiaba-la-lluvia.wav,./stim/wavs/mexican_mismatch_interrogative-partial-wh_Por-que-odiaba-la-lluvia.wav,./stim/wavs/peruvian_mismatch_interrogative-partial-wh_Por-que-odiaba-la-lluvia.wav,./stim/wavs/puertorican_mismatch_interrogative-partial-wh_Por-que-odiaba-la-lluvia.wav,,,,,,,,,,,,,,,,,,,,,,,,,,,,,,,,,,,,,,,,,,,,,,,,,,,,,,,,
,,,,,,,56e6a66af6ed900006a5867c,605b45a4d25f287719a41696,605b88dd3cdc9ad62c3c1934,United States,Midwest,13 or older,no,2021-03-24_14h46.41.634,empathy_intonation_perc,2020.2.10,Win32,60,,,,,,,,,,1,puertorican,0,0,2.034,0,25,25,58,1,59,./stim/wavs/andalusian_mismatch_interrogative-total-yn_El-nino-oye-el-rio.wav,./stim/wavs/argentine_mismatch_interrogative-total-yn_El-nino-oye-el-rio.wav,./stim/wavs/castilian_mismatch_interrogative-total-yn_El-nino-oye-el-rio.wav,./stim/wavs/chilean_mismatch_interrogative-total-yn_El-nino-oye-el-rio.wav,./stim/wavs/cuban_mismatch_interrogative-total-yn_El-nino-oye-el-rio.wav,./stim/wavs/mexican_mismatch_interrogative-total-yn_El-nino-oye-el-rio.wav,./stim/wavs/peruvian_mismatch_interrogative-total-yn_El-nino-oye-el-rio.wav,./stim/wavs/puertorican_mismatch_interrogative-total-yn_El-nino-oye-el-rio.wav,,,,,,,,,,,,,,,,,,,,,,,,,,,,,,,,,,,,,,,,,,,,,,,,,,,,,,,,
,,,,,,,56e6a66af6ed900006a5867c,605b45a4d25f287719a41696,605b88dd3cdc9ad62c3c1934,United States,Midwest,13 or older,no,2021-03-24_14h46.41.634,empathy_intonation_perc,2020.2.10,Win32,60,,,,,,,,,,1,argentine,1,1,2.319,0,26,26,59,1,60,./stim/wavs/andalusian_mismatch_interrogative-total-yn_La-maestra-vive-en-Paris.wav,./stim/wavs/argentine_mismatch_interrogative-total-yn_La-maestra-vive-en-Paris.wav,./stim/wavs/castilian_mismatch_interrogative-total-yn_La-maestra-vive-en-Paris.wav,./stim/wavs/chilean_mismatch_interrogative-total-yn_La-maestra-vive-en-Paris.wav,./stim/wavs/cuban_mismatch_interrogative-total-yn_La-maestra-vive-en-Paris.wav,./stim/wavs/mexican_mismatch_interrogative-total-yn_La-maestra-vive-en-Paris.wav,./stim/wavs/peruvian_mismatch_interrogative-total-yn_La-maestra-vive-en-Paris.wav,./stim/wavs/puertorican_mismatch_interrogative-total-yn_La-maestra-vive-en-Paris.wav,,,,,,,,,,,,,,,,,,,,,,,,,,,,,,,,,,,,,,,,,,,,,,,,,,,,,,,,
,,,,,,,56e6a66af6ed900006a5867c,605b45a4d25f287719a41696,605b88dd3cdc9ad62c3c1934,United States,Midwest,13 or older,no,2021-03-24_14h46.41.634,empathy_intonation_perc,2020.2.10,Win32,60,,,,,,,,,,1,chilean,1,1,2.373,0,27,27,63,1,64,./stim/wavs/andalusian_mismatch_interrogative-total-yn_Mi-tia-odia-la-lluvia.wav,./stim/wavs/argentine_mismatch_interrogative-total-yn_Mi-tia-odia-la-lluvia.wav,./stim/wavs/castilian_mismatch_interrogative-total-yn_Mi-tia-odia-la-lluvia.wav,./stim/wavs/chilean_mismatch_interrogative-total-yn_Mi-tia-odia-la-lluvia.wav,./stim/wavs/cuban_mismatch_interrogative-total-yn_Mi-tia-odia-la-lluvia.wav,./stim/wavs/mexican_mismatch_interrogative-total-yn_Mi-tia-odia-la-lluvia.wav,./stim/wavs/peruvian_mismatch_interrogative-total-yn_Mi-tia-odia-la-lluvia.wav,./stim/wavs/puertorican_mismatch_interrogative-total-yn_Mi-tia-odia-la-lluvia.wav,,,,,,,,,,,,,,,,,,,,,,,,,,,,,,,,,,,,,,,,,,,,,,,,,,,,,,,,
,,,,,,,56e6a66af6ed900006a5867c,605b45a4d25f287719a41696,605b88dd3cdc9ad62c3c1934,United States,Midwest,13 or older,no,2021-03-24_14h46.41.634,empathy_intonation_perc,2020.2.10,Win32,60,,,,,,,,,,0,chilean,0,1,2.011,0,28,28,35,1,36,./stim/wavs/andalusian_mismatch_declarative-broad-focus_La-maestra-vive-en-Paris.wav,./stim/wavs/argentine_mismatch_declarative-broad-focus_La-maestra-vive-en-Paris.wav,./stim/wavs/castilian_mismatch_declarative-broad-focus_La-maestra-vive-en-Paris.wav,./stim/wavs/chilean_mismatch_declarative-broad-focus_La-maestra-vive-en-Paris.wav,./stim/wavs/cuban_mismatch_declarative-broad-focus_La-maestra-vive-en-Paris.wav,./stim/wavs/mexican_mismatch_declarative-broad-focus_La-maestra-vive-en-Paris.wav,./stim/wavs/peruvian_mismatch_declarative-broad-focus_La-maestra-vive-en-Paris.wav,./stim/wavs/puertorican_mismatch_declarative-broad-focus_La-maestra-vive-en-Paris.wav,,,,,,,,,,,,,,,,,,,,,,,,,,,,,,,,,,,,,,,,,,,,,,,,,,,,,,,,
,,,,,,,56e6a66af6ed900006a5867c,605b45a4d25f287719a41696,605b88dd3cdc9ad62c3c1934,United States,Midwest,13 or older,no,2021-03-24_14h46.41.634,empathy_intonation_perc,2020.2.10,Win32,60,,,,,,,,,,0,chilean,0,1,2.484,0,29,29,34,1,35,./stim/wavs/andalusian_mismatch_declarative-broad-focus_El-nino-oye-el-rio.wav,./stim/wavs/argentine_mismatch_declarative-broad-focus_El-nino-oye-el-rio.wav,./stim/wavs/castilian_mismatch_declarative-broad-focus_El-nino-oye-el-rio.wav,./stim/wavs/chilean_mismatch_declarative-broad-focus_El-nino-oye-el-rio.wav,./stim/wavs/cuban_mismatch_declarative-broad-focus_El-nino-oye-el-rio.wav,./stim/wavs/mexican_mismatch_declarative-broad-focus_El-nino-oye-el-rio.wav,./stim/wavs/peruvian_mismatch_declarative-broad-focus_El-nino-oye-el-rio.wav,./stim/wavs/puertorican_mismatch_declarative-broad-focus_El-nino-oye-el-rio.wav,,,,,,,,,,,,,,,,,,,,,,,,,,,,,,,,,,,,,,,,,,,,,,,,,,,,,,,,
,,,,,,,56e6a66af6ed900006a5867c,605b45a4d25f287719a41696,605b88dd3cdc9ad62c3c1934,United States,Midwest,13 or older,no,2021-03-24_14h46.41.634,empathy_intonation_perc,2020.2.10,Win32,60,,,,,,,,,,1,cuban,0,0,2.712,0,30,30,22,1,23,./stim/wavs/andalusian_match_interrogative-partial-wh_Por-que-hablaba-del-agua.wav,./stim/wavs/argentine_match_interrogative-partial-wh_Por-que-hablaba-del-agua.wav,./stim/wavs/castilian_match_interrogative-partial-wh_Por-que-hablaba-del-agua.wav,./stim/wavs/chilean_match_interrogative-partial-wh_Por-que-hablaba-del-agua.wav,./stim/wavs/cuban_match_interrogative-partial-wh_Por-que-hablaba-del-agua.wav,./stim/wavs/mexican_match_interrogative-partial-wh_Por-que-hablaba-del-agua.wav,./stim/wavs/peruvian_match_interrogative-partial-wh_Por-que-hablaba-del-agua.wav,./stim/wavs/puertorican_match_interrogative-partial-wh_Por-que-hablaba-del-agua.wav,,,,,,,,,,,,,,,,,,,,,,,,,,,,,,,,,,,,,,,,,,,,,,,,,,,,,,,,
,,,,,,,56e6a66af6ed900006a5867c,605b45a4d25f287719a41696,605b88dd3cdc9ad62c3c1934,United States,Midwest,13 or older,no,2021-03-24_14h46.41.634,empathy_intonation_perc,2020.2.10,Win32,60,,,,,,,,,,0,argentine,0,1,1.882,0,31,31,5,1,6,./stim/wavs/andalusian_match_declarative-broad-focus_Maria-bebe-el-vino.wav,./stim/wavs/argentine_match_declarative-broad-focus_Maria-bebe-el-vino.wav,./stim/wavs/castilian_match_declarative-broad-focus_Maria-bebe-el-vino.wav,./stim/wavs/chilean_match_declarative-broad-focus_Maria-bebe-el-vino.wav,./stim/wavs/cuban_match_declarative-broad-focus_Maria-bebe-el-vino.wav,./stim/wavs/mexican_match_declarative-broad-focus_Maria-bebe-el-vino.wav,./stim/wavs/peruvian_match_declarative-broad-focus_Maria-bebe-el-vino.wav,./stim/wavs/puertorican_match_declarative-broad-focus_Maria-bebe-el-vino.wav,,,,,,,,,,,,,,,,,,,,,,,,,,,,,,,,,,,,,,,,,,,,,,,,,,,,,,,,
,,,,,,,56e6a66af6ed900006a5867c,605b45a4d25f287719a41696,605b88dd3cdc9ad62c3c1934,United States,Midwest,13 or older,no,2021-03-24_14h46.41.634,empathy_intonation_perc,2020.2.10,Win32,60,,,,,,,,,,1,argentine,1,1,2.105,0,32,32,30,1,31,./stim/wavs/andalusian_match_interrogative-total-yn_Mariano-habla-del-tiempo.wav,./stim/wavs/argentine_match_interrogative-total-yn_Mariano-habla-del-tiempo.wav,./stim/wavs/castilian_match_interrogative-total-yn_Mariano-habla-del-tiempo.wav,./stim/wavs/chilean_match_interrogative-total-yn_Mariano-habla-del-tiempo.wav,./stim/wavs/cuban_match_interrogative-total-yn_Mariano-habla-del-tiempo.wav,./stim/wavs/mexican_match_interrogative-total-yn_Mariano-habla-del-tiempo.wav,./stim/wavs/peruvian_match_interrogative-total-yn_Mariano-habla-del-tiempo.wav,./stim/wavs/puertorican_match_interrogative-total-yn_Mariano-habla-del-tiempo.wav,,,,,,,,,,,,,,,,,,,,,,,,,,,,,,,,,,,,,,,,,,,,,,,,,,,,,,,,
,,,,,,,56e6a66af6ed900006a5867c,605b45a4d25f287719a41696,605b88dd3cdc9ad62c3c1934,United States,Midwest,13 or older,no,2021-03-24_14h46.41.634,empathy_intonation_perc,2020.2.10,Win32,60,,,,,,,,,,0,mexican,0,1,4.41,0,33,33,2,1,3,./stim/wavs/andalusian_match_declarative-broad-focus_David-leia-el-libro.wav,./stim/wavs/argentine_match_declarative-broad-focus_David-leia-el-libro.wav,./stim/wavs/castilian_match_declarative-broad-focus_David-leia-el-libro.wav,./stim/wavs/chilean_match_declarative-broad-focus_David-leia-el-libro.wav,./stim/wavs/cuban_match_declarative-broad-focus_David-leia-el-libro.wav,./stim/wavs/mexican_match_declarative-broad-focus_David-leia-el-libro.wav,./stim/wavs/peruvian_match_declarative-broad-focus_David-leia-el-libro.wav,./stim/wavs/puertorican_match_declarative-broad-focus_David-leia-el-libro.wav,,,,,,,,,,,,,,,,,,,,,,,,,,,,,,,,,,,,,,,,,,,,,,,,,,,,,,,,
,,,,,,,56e6a66af6ed900006a5867c,605b45a4d25f287719a41696,605b88dd3cdc9ad62c3c1934,United States,Midwest,13 or older,no,2021-03-24_14h46.41.634,empathy_intonation_perc,2020.2.10,Win32,60,,,,,,,,,,0,andalusian,0,1,4.175,0,34,34,45,1,46,./stim/wavs/andalusian_mismatch_declarative-narrow-focus_Mi-madre-come-la-fruta.wav,./stim/wavs/argentine_mismatch_declarative-narrow-focus_Mi-madre-come-la-fruta.wav,./stim/wavs/castilian_mismatch_declarative-narrow-focus_Mi-madre-come-la-fruta.wav,./stim/wavs/chilean_mismatch_declarative-narrow-focus_Mi-madre-come-la-fruta.wav,./stim/wavs/cuban_mismatch_declarative-narrow-focus_Mi-madre-come-la-fruta.wav,./stim/wavs/mexican_mismatch_declarative-narrow-focus_Mi-madre-come-la-fruta.wav,./stim/wavs/peruvian_mismatch_declarative-narrow-focus_Mi-madre-come-la-fruta.wav,./stim/wavs/puertorican_mismatch_declarative-narrow-focus_Mi-madre-come-la-fruta.wav,,,,,,,,,,,,,,,,,,,,,,,,,,,,,,,,,,,,,,,,,,,,,,,,,,,,,,,,
,,,,,,,56e6a66af6ed900006a5867c,605b45a4d25f287719a41696,605b88dd3cdc9ad62c3c1934,United States,Midwest,13 or older,no,2021-03-24_14h46.41.634,empathy_intonation_perc,2020.2.10,Win32,60,,,,,,,,,,0,argentine,0,1,1.934,0,35,35,8,1,9,./stim/wavs/andalusian_match_declarative-narrow-focus_Ana-lleva-el-abrigo.wav,./stim/wavs/argentine_match_declarative-narrow-focus_Ana-lleva-el-abrigo.wav,./stim/wavs/castilian_match_declarative-narrow-focus_Ana-lleva-el-abrigo.wav,./stim/wavs/chilean_match_declarative-narrow-focus_Ana-lleva-el-abrigo.wav,./stim/wavs/cuban_match_declarative-narrow-focus_Ana-lleva-el-abrigo.wav,./stim/wavs/mexican_match_declarative-narrow-focus_Ana-lleva-el-abrigo.wav,./stim/wavs/peruvian_match_declarative-narrow-focus_Ana-lleva-el-abrigo.wav,./stim/wavs/puertorican_match_declarative-narrow-focus_Ana-lleva-el-abrigo.wav,,,,,,,,,,,,,,,,,,,,,,,,,,,,,,,,,,,,,,,,,,,,,,,,,,,,,,,,
,,,,,,,56e6a66af6ed900006a5867c,605b45a4d25f287719a41696,605b88dd3cdc9ad62c3c1934,United States,Midwest,13 or older,no,2021-03-24_14h46.41.634,empathy_intonation_perc,2020.2.10,Win32,60,,,,,,,,,,0,cuban,0,1,1.94,0,36,36,40,1,41,./stim/wavs/andalusian_mismatch_declarative-narrow-focus_El-bebe-comia-muy-bien.wav,./stim/wavs/argentine_mismatch_declarative-narrow-focus_El-bebe-comia-muy-bien.wav,./stim/wavs/castilian_mismatch_declarative-narrow-focus_El-bebe-comia-muy-bien.wav,./stim/wavs/chilean_mismatch_declarative-narrow-focus_El-bebe-comia-muy-bien.wav,./stim/wavs/cuban_mismatch_declarative-narrow-focus_El-bebe-comia-muy-bien.wav,./stim/wavs/mexican_mismatch_declarative-narrow-focus_El-bebe-comia-muy-bien.wav,./stim/wavs/peruvian_mismatch_declarative-narrow-focus_El-bebe-comia-muy-bien.wav,./stim/wavs/puertorican_mismatch_declarative-narrow-focus_El-bebe-comia-muy-bien.wav,,,,,,,,,,,,,,,,,,,,,,,,,,,,,,,,,,,,,,,,,,,,,,,,,,,,,,,,
,,,,,,,56e6a66af6ed900006a5867c,605b45a4d25f287719a41696,605b88dd3cdc9ad62c3c1934,United States,Midwest,13 or older,no,2021-03-24_14h46.41.634,empathy_intonation_perc,2020.2.10,Win32,60,,,,,,,,,,1,mexican,1,1,2.335,0,37,37,50,1,51,./stim/wavs/andalusian_mismatch_interrogative-partial-wh_Cuando-miraba-la-luna.wav,./stim/wavs/argentine_mismatch_interrogative-partial-wh_Cuando-miraba-la-luna.wav,./stim/wavs/castilian_mismatch_interrogative-partial-wh_Cuando-miraba-la-luna.wav,./stim/wavs/chilean_mismatch_interrogative-partial-wh_Cuando-miraba-la-luna.wav,./stim/wavs/cuban_mismatch_interrogative-partial-wh_Cuando-miraba-la-luna.wav,./stim/wavs/mexican_mismatch_interrogative-partial-wh_Cuando-miraba-la-luna.wav,./stim/wavs/peruvian_mismatch_interrogative-partial-wh_Cuando-miraba-la-luna.wav,./stim/wavs/puertorican_mismatch_interrogative-partial-wh_Cuando-miraba-la-luna.wav,,,,,,,,,,,,,,,,,,,,,,,,,,,,,,,,,,,,,,,,,,,,,,,,,,,,,,,,
,,,,,,,56e6a66af6ed900006a5867c,605b45a4d25f287719a41696,605b88dd3cdc9ad62c3c1934,United States,Midwest,13 or older,no,2021-03-24_14h46.41.634,empathy_intonation_perc,2020.2.10,Win32,60,,,,,,,,,,0,cuban,0,1,2.173,0,38,38,38,1,39,./stim/wavs/andalusian_mismatch_declarative-broad-focus_Mi-novio-viene-del-lago.wav,./stim/wavs/argentine_mismatch_declarative-broad-focus_Mi-novio-viene-del-lago.wav,./stim/wavs/castilian_mismatch_declarative-broad-focus_Mi-novio-viene-del-lago.wav,./stim/wavs/chilean_mismatch_declarative-broad-focus_Mi-novio-viene-del-lago.wav,./stim/wavs/cuban_mismatch_declarative-broad-focus_Mi-novio-viene-del-lago.wav,./stim/wavs/mexican_mismatch_declarative-broad-focus_Mi-novio-viene-del-lago.wav,./stim/wavs/peruvian_mismatch_declarative-broad-focus_Mi-novio-viene-del-lago.wav,./stim/wavs/puertorican_mismatch_declarative-broad-focus_Mi-novio-viene-del-lago.wav,,,,,,,,,,,,,,,,,,,,,,,,,,,,,,,,,,,,,,,,,,,,,,,,,,,,,,,,
,,,,,,,56e6a66af6ed900006a5867c,605b45a4d25f287719a41696,605b88dd3cdc9ad62c3c1934,United States,Midwest,13 or older,no,2021-03-24_14h46.41.634,empathy_intonation_perc,2020.2.10,Win32,60,,,,,,,,,,0,castilian,0,1,2.719,0,39,39,32,1,33,./stim/wavs/andalusian_mismatch_declarative-broad-focus_El-bebe-comia-muy-bien.wav,./stim/wavs/argentine_mismatch_declarative-broad-focus_El-bebe-comia-muy-bien.wav,./stim/wavs/castilian_mismatch_declarative-broad-focus_El-bebe-comia-muy-bien.wav,./stim/wavs/chilean_mismatch_declarative-broad-focus_El-bebe-comia-muy-bien.wav,./stim/wavs/cuban_mismatch_declarative-broad-focus_El-bebe-comia-muy-bien.wav,./stim/wavs/mexican_mismatch_declarative-broad-focus_El-bebe-comia-muy-bien.wav,./stim/wavs/peruvian_mismatch_declarative-broad-focus_El-bebe-comia-muy-bien.wav,./stim/wavs/puertorican_mismatch_declarative-broad-focus_El-bebe-comia-muy-bien.wav,,,,,,,,,,,,,,,,,,,,,,,,,,,,,,,,,,,,,,,,,,,,,,,,,,,,,,,,
,,,,,,,56e6a66af6ed900006a5867c,605b45a4d25f287719a41696,605b88dd3cdc9ad62c3c1934,United States,Midwest,13 or older,no,2021-03-24_14h46.41.634,empathy_intonation_perc,2020.2.10,Win32,60,,,,,,,,,,1,mexican,1,1,3.053,0,40,40,17,1,18,./stim/wavs/andalusian_match_interrogative-partial-wh_Cuando-leia-el-libro.wav,./stim/wavs/argentine_match_interrogative-partial-wh_Cuando-leia-el-libro.wav,./stim/wavs/castilian_match_interrogative-partial-wh_Cuando-leia-el-libro.wav,./stim/wavs/chilean_match_interrogative-partial-wh_Cuando-leia-el-libro.wav,./stim/wavs/cuban_match_interrogative-partial-wh_Cuando-leia-el-libro.wav,./stim/wavs/mexican_match_interrogative-partial-wh_Cuando-leia-el-libro.wav,./stim/wavs/peruvian_match_interrogative-partial-wh_Cuando-leia-el-libro.wav,./stim/wavs/puertorican_match_interrogative-partial-wh_Cuando-leia-el-libro.wav,,,,,,,,,,,,,,,,,,,,,,,,,,,,,,,,,,,,,,,,,,,,,,,,,,,,,,,,
,,,,,,,56e6a66af6ed900006a5867c,605b45a4d25f287719a41696,605b88dd3cdc9ad62c3c1934,United States,Midwest,13 or older,no,2021-03-24_14h46.41.634,empathy_intonation_perc,2020.2.10,Win32,60,,,,,,,,,,0,chilean,0,1,2.634,0,41,41,47,1,48,./stim/wavs/andalusian_mismatch_declarative-narrow-focus_Mi-tia-odia-la-lluvia.wav,./stim/wavs/argentine_mismatch_declarative-narrow-focus_Mi-tia-odia-la-lluvia.wav,./stim/wavs/castilian_mismatch_declarative-narrow-focus_Mi-tia-odia-la-lluvia.wav,./stim/wavs/chilean_mismatch_declarative-narrow-focus_Mi-tia-odia-la-lluvia.wav,./stim/wavs/cuban_mismatch_declarative-narrow-focus_Mi-tia-odia-la-lluvia.wav,./stim/wavs/mexican_mismatch_declarative-narrow-focus_Mi-tia-odia-la-lluvia.wav,./stim/wavs/peruvian_mismatch_declarative-narrow-focus_Mi-tia-odia-la-lluvia.wav,./stim/wavs/puertorican_mismatch_declarative-narrow-focus_Mi-tia-odia-la-lluvia.wav,,,,,,,,,,,,,,,,,,,,,,,,,,,,,,,,,,,,,,,,,,,,,,,,,,,,,,,,
,,,,,,,56e6a66af6ed900006a5867c,605b45a4d25f287719a41696,605b88dd3cdc9ad62c3c1934,United States,Midwest,13 or older,no,2021-03-24_14h46.41.634,empathy_intonation_perc,2020.2.10,Win32,60,,,,,,,,,,1,chilean,1,1,2.568,0,42,42,56,1,57,./stim/wavs/andalusian_mismatch_interrogative-total-yn_El-bebe-comia-muy-bien.wav,./stim/wavs/argentine_mismatch_interrogative-total-yn_El-bebe-comia-muy-bien.wav,./stim/wavs/castilian_mismatch_interrogative-total-yn_El-bebe-comia-muy-bien.wav,./stim/wavs/chilean_mismatch_interrogative-total-yn_El-bebe-comia-muy-bien.wav,./stim/wavs/cuban_mismatch_interrogative-total-yn_El-bebe-comia-muy-bien.wav,./stim/wavs/mexican_mismatch_interrogative-total-yn_El-bebe-comia-muy-bien.wav,./stim/wavs/peruvian_mismatch_interrogative-total-yn_El-bebe-comia-muy-bien.wav,./stim/wavs/puertorican_mismatch_interrogative-total-yn_El-bebe-comia-muy-bien.wav,,,,,,,,,,,,,,,,,,,,,,,,,,,,,,,,,,,,,,,,,,,,,,,,,,,,,,,,
,,,,,,,56e6a66af6ed900006a5867c,605b45a4d25f287719a41696,605b88dd3cdc9ad62c3c1934,United States,Midwest,13 or older,no,2021-03-24_14h46.41.634,empathy_intonation_perc,2020.2.10,Win32,60,,,,,,,,,,0,peruvian,0,1,2.751,0,43,43,0,1,1,./stim/wavs/andalusian_match_declarative-broad-focus_Ana-lleva-el-abrigo.wav,./stim/wavs/argentine_match_declarative-broad-focus_Ana-lleva-el-abrigo.wav,./stim/wavs/castilian_match_declarative-broad-focus_Ana-lleva-el-abrigo.wav,./stim/wavs/chilean_match_declarative-broad-focus_Ana-lleva-el-abrigo.wav,./stim/wavs/cuban_match_declarative-broad-focus_Ana-lleva-el-abrigo.wav,./stim/wavs/mexican_match_declarative-broad-focus_Ana-lleva-el-abrigo.wav,./stim/wavs/peruvian_match_declarative-broad-focus_Ana-lleva-el-abrigo.wav,./stim/wavs/puertorican_match_declarative-broad-focus_Ana-lleva-el-abrigo.wav,,,,,,,,,,,,,,,,,,,,,,,,,,,,,,,,,,,,,,,,,,,,,,,,,,,,,,,,
,,,,,,,56e6a66af6ed900006a5867c,605b45a4d25f287719a41696,605b88dd3cdc9ad62c3c1934,United States,Midwest,13 or older,no,2021-03-24_14h46.41.634,empathy_intonation_perc,2020.2.10,Win32,60,,,,,,,,,,0,cuban,0,1,2.084,0,44,44,36,1,37,./stim/wavs/andalusian_mismatch_declarative-broad-focus_La-nina-lava-el-plato.wav,./stim/wavs/argentine_mismatch_declarative-broad-focus_La-nina-lava-el-plato.wav,./stim/wavs/castilian_mismatch_declarative-broad-focus_La-nina-lava-el-plato.wav,./stim/wavs/chilean_mismatch_declarative-broad-focus_La-nina-lava-el-plato.wav,./stim/wavs/cuban_mismatch_declarative-broad-focus_La-nina-lava-el-plato.wav,./stim/wavs/mexican_mismatch_declarative-broad-focus_La-nina-lava-el-plato.wav,./stim/wavs/peruvian_mismatch_declarative-broad-focus_La-nina-lava-el-plato.wav,./stim/wavs/puertorican_mismatch_declarative-broad-focus_La-nina-lava-el-plato.wav,,,,,,,,,,,,,,,,,,,,,,,,,,,,,,,,,,,,,,,,,,,,,,,,,,,,,,,,
,,,,,,,56e6a66af6ed900006a5867c,605b45a4d25f287719a41696,605b88dd3cdc9ad62c3c1934,United States,Midwest,13 or older,no,2021-03-24_14h46.41.634,empathy_intonation_perc,2020.2.10,Win32,60,,,,,,,,,,0,mexican,0,1,2.236,0,45,45,12,1,13,./stim/wavs/andalusian_match_declarative-narrow-focus_Manuela-vende-el-carro.wav,./stim/wavs/argentine_match_declarative-narrow-focus_Manuela-vende-el-carro.wav,./stim/wavs/castilian_match_declarative-narrow-focus_Manuela-vende-el-carro.wav,./stim/wavs/chilean_match_declarative-narrow-focus_Manuela-vende-el-carro.wav,./stim/wavs/cuban_match_declarative-narrow-focus_Manuela-vende-el-carro.wav,./stim/wavs/mexican_match_declarative-narrow-focus_Manuela-vende-el-carro.wav,./stim/wavs/peruvian_match_declarative-narrow-focus_Manuela-vende-el-carro.wav,./stim/wavs/puertorican_match_declarative-narrow-focus_Manuela-vende-el-carro.wav,,,,,,,,,,,,,,,,,,,,,,,,,,,,,,,,,,,,,,,,,,,,,,,,,,,,,,,,
,,,,,,,56e6a66af6ed900006a5867c,605b45a4d25f287719a41696,605b88dd3cdc9ad62c3c1934,United States,Midwest,13 or older,no,2021-03-24_14h46.41.634,empathy_intonation_perc,2020.2.10,Win32,60,,,,,,,,,,0,andalusian,0,1,2.434,0,46,46,33,1,34,./stim/wavs/andalusian_mismatch_declarative-broad-focus_El-hombre-mira-la-luna.wav,./stim/wavs/argentine_mismatch_declarative-broad-focus_El-hombre-mira-la-luna.wav,./stim/wavs/castilian_mismatch_declarative-broad-focus_El-hombre-mira-la-luna.wav,./stim/wavs/chilean_mismatch_declarative-broad-focus_El-hombre-mira-la-luna.wav,./stim/wavs/cuban_mismatch_declarative-broad-focus_El-hombre-mira-la-luna.wav,./stim/wavs/mexican_mismatch_declarative-broad-focus_El-hombre-mira-la-luna.wav,./stim/wavs/peruvian_mismatch_declarative-broad-focus_El-hombre-mira-la-luna.wav,./stim/wavs/puertorican_mismatch_declarative-broad-focus_El-hombre-mira-la-luna.wav,,,,,,,,,,,,,,,,,,,,,,,,,,,,,,,,,,,,,,,,,,,,,,,,,,,,,,,,
,,,,,,,56e6a66af6ed900006a5867c,605b45a4d25f287719a41696,605b88dd3cdc9ad62c3c1934,United States,Midwest,13 or older,no,2021-03-24_14h46.41.634,empathy_intonation_perc,2020.2.10,Win32,60,,,,,,,,,,0,peruvian,0,1,2.623,0,47,47,41,1,42,./stim/wavs/andalusian_mismatch_declarative-narrow-focus_El-hombre-mira-la-luna.wav,./stim/wavs/argentine_mismatch_declarative-narrow-focus_El-hombre-mira-la-luna.wav,./stim/wavs/castilian_mismatch_declarative-narrow-focus_El-hombre-mira-la-luna.wav,./stim/wavs/chilean_mismatch_declarative-narrow-focus_El-hombre-mira-la-luna.wav,./stim/wavs/cuban_mismatch_declarative-narrow-focus_El-hombre-mira-la-luna.wav,./stim/wavs/mexican_mismatch_declarative-narrow-focus_El-hombre-mira-la-luna.wav,./stim/wavs/peruvian_mismatch_declarative-narrow-focus_El-hombre-mira-la-luna.wav,./stim/wavs/puertorican_mismatch_declarative-narrow-focus_El-hombre-mira-la-luna.wav,,,,,,,,,,,,,,,,,,,,,,,,,,,,,,,,,,,,,,,,,,,,,,,,,,,,,,,,
,,,,,,,56e6a66af6ed900006a5867c,605b45a4d25f287719a41696,605b88dd3cdc9ad62c3c1934,United States,Midwest,13 or older,no,2021-03-24_14h46.41.634,empathy_intonation_perc,2020.2.10,Win32,60,,,,,,,,,,1,chilean,1,1,1.873,0,48,48,21,1,22,./stim/wavs/andalusian_match_interrogative-partial-wh_Por-que-ama-la-navidad.wav,./stim/wavs/argentine_match_interrogative-partial-wh_Por-que-ama-la-navidad.wav,./stim/wavs/castilian_match_interrogative-partial-wh_Por-que-ama-la-navidad.wav,./stim/wavs/chilean_match_interrogative-partial-wh_Por-que-ama-la-navidad.wav,./stim/wavs/cuban_match_interrogative-partial-wh_Por-que-ama-la-navidad.wav,./stim/wavs/mexican_match_interrogative-partial-wh_Por-que-ama-la-navidad.wav,./stim/wavs/peruvian_match_interrogative-partial-wh_Por-que-ama-la-navidad.wav,./stim/wavs/puertorican_match_interrogative-partial-wh_Por-que-ama-la-navidad.wav,,,,,,,,,,,,,,,,,,,,,,,,,,,,,,,,,,,,,,,,,,,,,,,,,,,,,,,,
,,,,,,,56e6a66af6ed900006a5867c,605b45a4d25f287719a41696,605b88dd3cdc9ad62c3c1934,United States,Midwest,13 or older,no,2021-03-24_14h46.41.634,empathy_intonation_perc,2020.2.10,Win32,60,,,,,,,,,,1,andalusian,0,0,2.373,0,49,49,53,1,54,./stim/wavs/andalusian_mismatch_interrogative-partial-wh_Por-que-oia-el-rio.wav,./stim/wavs/argentine_mismatch_interrogative-partial-wh_Por-que-oia-el-rio.wav,./stim/wavs/castilian_mismatch_interrogative-partial-wh_Por-que-oia-el-rio.wav,./stim/wavs/chilean_mismatch_interrogative-partial-wh_Por-que-oia-el-rio.wav,./stim/wavs/cuban_mismatch_interrogative-partial-wh_Por-que-oia-el-rio.wav,./stim/wavs/mexican_mismatch_interrogative-partial-wh_Por-que-oia-el-rio.wav,./stim/wavs/peruvian_mismatch_interrogative-partial-wh_Por-que-oia-el-rio.wav,./stim/wavs/puertorican_mismatch_interrogative-partial-wh_Por-que-oia-el-rio.wav,,,,,,,,,,,,,,,,,,,,,,,,,,,,,,,,,,,,,,,,,,,,,,,,,,,,,,,,
,,,,,,,56e6a66af6ed900006a5867c,605b45a4d25f287719a41696,605b88dd3cdc9ad62c3c1934,United States,Midwest,13 or older,no,2021-03-24_14h46.41.634,empathy_intonation_perc,2020.2.10,Win32,60,,,,,,,,,,0,cuban,0,1,2.553,0,50,50,6,1,7,./stim/wavs/andalusian_match_declarative-broad-focus_Mariano-habla-del-tiempo.wav,./stim/wavs/argentine_match_declarative-broad-focus_Mariano-habla-del-tiempo.wav,./stim/wavs/castilian_match_declarative-broad-focus_Mariano-habla-del-tiempo.wav,./stim/wavs/chilean_match_declarative-broad-focus_Mariano-habla-del-tiempo.wav,./stim/wavs/cuban_match_declarative-broad-focus_Mariano-habla-del-tiempo.wav,./stim/wavs/mexican_match_declarative-broad-focus_Mariano-habla-del-tiempo.wav,./stim/wavs/peruvian_match_declarative-broad-focus_Mariano-habla-del-tiempo.wav,./stim/wavs/puertorican_match_declarative-broad-focus_Mariano-habla-del-tiempo.wav,,,,,,,,,,,,,,,,,,,,,,,,,,,,,,,,,,,,,,,,,,,,,,,,,,,,,,,,
,,,,,,,56e6a66af6ed900006a5867c,605b45a4d25f287719a41696,605b88dd3cdc9ad62c3c1934,United States,Midwest,13 or older,no,2021-03-24_14h46.41.634,empathy_intonation_perc,2020.2.10,Win32,60,,,,,,,,,,0,argentine,1,0,2.385,0,51,51,1,1,2,./stim/wavs/andalusian_match_declarative-broad-focus_Daniel-iba-a-Bolivia.wav,./stim/wavs/argentine_match_declarative-broad-focus_Daniel-iba-a-Bolivia.wav,./stim/wavs/castilian_match_declarative-broad-focus_Daniel-iba-a-Bolivia.wav,./stim/wavs/chilean_match_declarative-broad-focus_Daniel-iba-a-Bolivia.wav,./stim/wavs/cuban_match_declarative-broad-focus_Daniel-iba-a-Bolivia.wav,./stim/wavs/mexican_match_declarative-broad-focus_Daniel-iba-a-Bolivia.wav,./stim/wavs/peruvian_match_declarative-broad-focus_Daniel-iba-a-Bolivia.wav,./stim/wavs/puertorican_match_declarative-broad-focus_Daniel-iba-a-Bolivia.wav,,,,,,,,,,,,,,,,,,,,,,,,,,,,,,,,,,,,,,,,,,,,,,,,,,,,,,,,
,,,,,,,56e6a66af6ed900006a5867c,605b45a4d25f287719a41696,605b88dd3cdc9ad62c3c1934,United States,Midwest,13 or older,no,2021-03-24_14h46.41.634,empathy_intonation_perc,2020.2.10,Win32,60,,,,,,,,,,0,andalusian,0,1,2.97,0,52,52,42,1,43,./stim/wavs/andalusian_mismatch_declarative-narrow-focus_El-nino-oye-el-rio.wav,./stim/wavs/argentine_mismatch_declarative-narrow-focus_El-nino-oye-el-rio.wav,./stim/wavs/castilian_mismatch_declarative-narrow-focus_El-nino-oye-el-rio.wav,./stim/wavs/chilean_mismatch_declarative-narrow-focus_El-nino-oye-el-rio.wav,./stim/wavs/cuban_mismatch_declarative-narrow-focus_El-nino-oye-el-rio.wav,./stim/wavs/mexican_mismatch_declarative-narrow-focus_El-nino-oye-el-rio.wav,./stim/wavs/peruvian_mismatch_declarative-narrow-focus_El-nino-oye-el-rio.wav,./stim/wavs/puertorican_mismatch_declarative-narrow-focus_El-nino-oye-el-rio.wav,,,,,,,,,,,,,,,,,,,,,,,,,,,,,,,,,,,,,,,,,,,,,,,,,,,,,,,,
,,,,,,,56e6a66af6ed900006a5867c,605b45a4d25f287719a41696,605b88dd3cdc9ad62c3c1934,United States,Midwest,13 or older,no,2021-03-24_14h46.41.634,empathy_intonation_perc,2020.2.10,Win32,60,,,,,,,,,,1,cuban,0,0,2.217,0,53,53,51,1,52,./stim/wavs/andalusian_mismatch_interrogative-partial-wh_Por-que-desayuna-muy-bien.wav,./stim/wavs/argentine_mismatch_interrogative-partial-wh_Por-que-desayuna-muy-bien.wav,./stim/wavs/castilian_mismatch_interrogative-partial-wh_Por-que-desayuna-muy-bien.wav,./stim/wavs/chilean_mismatch_interrogative-partial-wh_Por-que-desayuna-muy-bien.wav,./stim/wavs/cuban_mismatch_interrogative-partial-wh_Por-que-desayuna-muy-bien.wav,./stim/wavs/mexican_mismatch_interrogative-partial-wh_Por-que-desayuna-muy-bien.wav,./stim/wavs/peruvian_mismatch_interrogative-partial-wh_Por-que-desayuna-muy-bien.wav,./stim/wavs/puertorican_mismatch_interrogative-partial-wh_Por-que-desayuna-muy-bien.wav,,,,,,,,,,,,,,,,,,,,,,,,,,,,,,,,,,,,,,,,,,,,,,,,,,,,,,,,
,,,,,,,56e6a66af6ed900006a5867c,605b45a4d25f287719a41696,605b88dd3cdc9ad62c3c1934,United States,Midwest,13 or older,no,2021-03-24_14h46.41.634,empathy_intonation_perc,2020.2.10,Win32,60,,,,,,,,,,0,puertorican,1,0,2.851,0,54,54,7,1,8,./stim/wavs/andalusian_match_declarative-broad-focus_Marta-abre-el-regalo.wav,./stim/wavs/argentine_match_declarative-broad-focus_Marta-abre-el-regalo.wav,./stim/wavs/castilian_match_declarative-broad-focus_Marta-abre-el-regalo.wav,./stim/wavs/chilean_match_declarative-broad-focus_Marta-abre-el-regalo.wav,./stim/wavs/cuban_match_declarative-broad-focus_Marta-abre-el-regalo.wav,./stim/wavs/mexican_match_declarative-broad-focus_Marta-abre-el-regalo.wav,./stim/wavs/peruvian_match_declarative-broad-focus_Marta-abre-el-regalo.wav,./stim/wavs/puertorican_match_declarative-broad-focus_Marta-abre-el-regalo.wav,,,,,,,,,,,,,,,,,,,,,,,,,,,,,,,,,,,,,,,,,,,,,,,,,,,,,,,,
,,,,,,,56e6a66af6ed900006a5867c,605b45a4d25f287719a41696,605b88dd3cdc9ad62c3c1934,United States,Midwest,13 or older,no,2021-03-24_14h46.41.634,empathy_intonation_perc,2020.2.10,Win32,60,,,,,,,,,,0,argentine,0,1,2.153,0,55,55,4,1,5,./stim/wavs/andalusian_match_declarative-broad-focus_Manuela-vende-el-carro.wav,./stim/wavs/argentine_match_declarative-broad-focus_Manuela-vende-el-carro.wav,./stim/wavs/castilian_match_declarative-broad-focus_Manuela-vende-el-carro.wav,./stim/wavs/chilean_match_declarative-broad-focus_Manuela-vende-el-carro.wav,./stim/wavs/cuban_match_declarative-broad-focus_Manuela-vende-el-carro.wav,./stim/wavs/mexican_match_declarative-broad-focus_Manuela-vende-el-carro.wav,./stim/wavs/peruvian_match_declarative-broad-focus_Manuela-vende-el-carro.wav,./stim/wavs/puertorican_match_declarative-broad-focus_Manuela-vende-el-carro.wav,,,,,,,,,,,,,,,,,,,,,,,,,,,,,,,,,,,,,,,,,,,,,,,,,,,,,,,,
,,,,,,,56e6a66af6ed900006a5867c,605b45a4d25f287719a41696,605b88dd3cdc9ad62c3c1934,United States,Midwest,13 or older,no,2021-03-24_14h46.41.634,empathy_intonation_perc,2020.2.10,Win32,60,,,,,,,,,,1,peruvian,1,1,3.344,0,56,56,48,1,49,./stim/wavs/andalusian_mismatch_interrogative-partial-wh_Cuando-comia-la-fruta.wav,./stim/wavs/argentine_mismatch_interrogative-partial-wh_Cuando-comia-la-fruta.wav,./stim/wavs/castilian_mismatch_interrogative-partial-wh_Cuando-comia-la-fruta.wav,./stim/wavs/chilean_mismatch_interrogative-partial-wh_Cuando-comia-la-fruta.wav,./stim/wavs/cuban_mismatch_interrogative-partial-wh_Cuando-comia-la-fruta.wav,./stim/wavs/mexican_mismatch_interrogative-partial-wh_Cuando-comia-la-fruta.wav,./stim/wavs/peruvian_mismatch_interrogative-partial-wh_Cuando-comia-la-fruta.wav,./stim/wavs/puertorican_mismatch_interrogative-partial-wh_Cuando-comia-la-fruta.wav,,,,,,,,,,,,,,,,,,,,,,,,,,,,,,,,,,,,,,,,,,,,,,,,,,,,,,,,
,,,,,,,56e6a66af6ed900006a5867c,605b45a4d25f287719a41696,605b88dd3cdc9ad62c3c1934,United States,Midwest,13 or older,no,2021-03-24_14h46.41.634,empathy_intonation_perc,2020.2.10,Win32,60,,,,,,,,,,1,cuban,0,0,7.155,0,57,57,31,1,32,./stim/wavs/andalusian_match_interrogative-total-yn_Marta-abre-el-regalo.wav,./stim/wavs/argentine_match_interrogative-total-yn_Marta-abre-el-regalo.wav,./stim/wavs/castilian_match_interrogative-total-yn_Marta-abre-el-regalo.wav,./stim/wavs/chilean_match_interrogative-total-yn_Marta-abre-el-regalo.wav,./stim/wavs/cuban_match_interrogative-total-yn_Marta-abre-el-regalo.wav,./stim/wavs/mexican_match_interrogative-total-yn_Marta-abre-el-regalo.wav,./stim/wavs/peruvian_match_interrogative-total-yn_Marta-abre-el-regalo.wav,./stim/wavs/puertorican_match_interrogative-total-yn_Marta-abre-el-regalo.wav,,,,,,,,,,,,,,,,,,,,,,,,,,,,,,,,,,,,,,,,,,,,,,,,,,,,,,,,
,,,,,,,56e6a66af6ed900006a5867c,605b45a4d25f287719a41696,605b88dd3cdc9ad62c3c1934,United States,Midwest,13 or older,no,2021-03-24_14h46.41.634,empathy_intonation_perc,2020.2.10,Win32,60,,,,,,,,,,1,andalusian,0,0,2.526,0,58,58,26,1,27,./stim/wavs/andalusian_match_interrogative-total-yn_David-leia-el-libro.wav,./stim/wavs/argentine_match_interrogative-total-yn_David-leia-el-libro.wav,./stim/wavs/castilian_match_interrogative-total-yn_David-leia-el-libro.wav,./stim/wavs/chilean_match_interrogative-total-yn_David-leia-el-libro.wav,./stim/wavs/cuban_match_interrogative-total-yn_David-leia-el-libro.wav,./stim/wavs/mexican_match_interrogative-total-yn_David-leia-el-libro.wav,./stim/wavs/peruvian_match_interrogative-total-yn_David-leia-el-libro.wav,./stim/wavs/puertorican_match_interrogative-total-yn_David-leia-el-libro.wav,,,,,,,,,,,,,,,,,,,,,,,,,,,,,,,,,,,,,,,,,,,,,,,,,,,,,,,,
,,,,,,,56e6a66af6ed900006a5867c,605b45a4d25f287719a41696,605b88dd3cdc9ad62c3c1934,United States,Midwest,13 or older,no,2021-03-24_14h46.41.634,empathy_intonation_perc,2020.2.10,Win32,60,,,,,,,,,,1,cuban,1,1,2.674,0,59,59,19,1,20,./stim/wavs/andalusian_match_interrogative-partial-wh_Cuando-vendia-el-carro.wav,./stim/wavs/argentine_match_interrogative-partial-wh_Cuando-vendia-el-carro.wav,./stim/wavs/castilian_match_interrogative-partial-wh_Cuando-vendia-el-carro.wav,./stim/wavs/chilean_match_interrogative-partial-wh_Cuando-vendia-el-carro.wav,./stim/wavs/cuban_match_interrogative-partial-wh_Cuando-vendia-el-carro.wav,./stim/wavs/mexican_match_interrogative-partial-wh_Cuando-vendia-el-carro.wav,./stim/wavs/peruvian_match_interrogative-partial-wh_Cuando-vendia-el-carro.wav,./stim/wavs/puertorican_match_interrogative-partial-wh_Cuando-vendia-el-carro.wav,,,,,,,,,,,,,,,,,,,,,,,,,,,,,,,,,,,,,,,,,,,,,,,,,,,,,,,,
,,,,,,,56e6a66af6ed900006a5867c,605b45a4d25f287719a41696,605b88dd3cdc9ad62c3c1934,United States,Midwest,13 or older,no,2021-03-24_14h46.41.634,empathy_intonation_perc,2020.2.10,Win32,60,,,,,,,,,,1,andalusian,1,1,1.939,0,60,60,18,1,19,./stim/wavs/andalusian_match_interrogative-partial-wh_Cuando-lleva-el-abrigo.wav,./stim/wavs/argentine_match_interrogative-partial-wh_Cuando-lleva-el-abrigo.wav,./stim/wavs/castilian_match_interrogative-partial-wh_Cuando-lleva-el-abrigo.wav,./stim/wavs/chilean_match_interrogative-partial-wh_Cuando-lleva-el-abrigo.wav,./stim/wavs/cuban_match_interrogative-partial-wh_Cuando-lleva-el-abrigo.wav,./stim/wavs/mexican_match_interrogative-partial-wh_Cuando-lleva-el-abrigo.wav,./stim/wavs/peruvian_match_interrogative-partial-wh_Cuando-lleva-el-abrigo.wav,./stim/wavs/puertorican_match_interrogative-partial-wh_Cuando-lleva-el-abrigo.wav,,,,,,,,,,,,,,,,,,,,,,,,,,,,,,,,,,,,,,,,,,,,,,,,,,,,,,,,
,,,,,,,56e6a66af6ed900006a5867c,605b45a4d25f287719a41696,605b88dd3cdc9ad62c3c1934,United States,Midwest,13 or older,no,2021-03-24_14h46.41.634,empathy_intonation_perc,2020.2.10,Win32,60,,,,,,,,,,1,mexican,1,1,2.3,0,61,61,29,1,30,./stim/wavs/andalusian_match_interrogative-total-yn_Maria-bebe-el-vino.wav,./stim/wavs/argentine_match_interrogative-total-yn_Maria-bebe-el-vino.wav,./stim/wavs/castilian_match_interrogative-total-yn_Maria-bebe-el-vino.wav,./stim/wavs/chilean_match_interrogative-total-yn_Maria-bebe-el-vino.wav,./stim/wavs/cuban_match_interrogative-total-yn_Maria-bebe-el-vino.wav,./stim/wavs/mexican_match_interrogative-total-yn_Maria-bebe-el-vino.wav,./stim/wavs/peruvian_match_interrogative-total-yn_Maria-bebe-el-vino.wav,./stim/wavs/puertorican_match_interrogative-total-yn_Maria-bebe-el-vino.wav,,,,,,,,,,,,,,,,,,,,,,,,,,,,,,,,,,,,,,,,,,,,,,,,,,,,,,,,
,,,,,,,56e6a66af6ed900006a5867c,605b45a4d25f287719a41696,605b88dd3cdc9ad62c3c1934,United States,Midwest,13 or older,no,2021-03-24_14h46.41.634,empathy_intonation_perc,2020.2.10,Win32,60,,,,,,,,,,0,castilian,0,1,2.551,0,62,62,37,1,38,./stim/wavs/andalusian_mismatch_declarative-broad-focus_Mi-madre-come-la-fruta.wav,./stim/wavs/argentine_mismatch_declarative-broad-focus_Mi-madre-come-la-fruta.wav,./stim/wavs/castilian_mismatch_declarative-broad-focus_Mi-madre-come-la-fruta.wav,./stim/wavs/chilean_mismatch_declarative-broad-focus_Mi-madre-come-la-fruta.wav,./stim/wavs/cuban_mismatch_declarative-broad-focus_Mi-madre-come-la-fruta.wav,./stim/wavs/mexican_mismatch_declarative-broad-focus_Mi-madre-come-la-fruta.wav,./stim/wavs/peruvian_mismatch_declarative-broad-focus_Mi-madre-come-la-fruta.wav,./stim/wavs/puertorican_mismatch_declarative-broad-focus_Mi-madre-come-la-fruta.wav,,,,,,,,,,,,,,,,,,,,,,,,,,,,,,,,,,,,,,,,,,,,,,,,,,,,,,,,
,,,,,,,56e6a66af6ed900006a5867c,605b45a4d25f287719a41696,605b88dd3cdc9ad62c3c1934,United States,Midwest,13 or older,no,2021-03-24_14h46.41.634,empathy_intonation_perc,2020.2.10,Win32,60,,,,,,,,,,0,puertorican,0,1,2.56,0,63,63,10,1,11,./stim/wavs/andalusian_match_declarative-narrow-focus_David-leia-el-libro.wav,./stim/wavs/argentine_match_declarative-narrow-focus_David-leia-el-libro.wav,./stim/wavs/castilian_match_declarative-narrow-focus_David-leia-el-libro.wav,./stim/wavs/chilean_match_declarative-narrow-focus_David-leia-el-libro.wav,./stim/wavs/cuban_match_declarative-narrow-focus_David-leia-el-libro.wav,./stim/wavs/mexican_match_declarative-narrow-focus_David-leia-el-libro.wav,./stim/wavs/peruvian_match_declarative-narrow-focus_David-leia-el-libro.wav,./stim/wavs/puertorican_match_declarative-narrow-focus_David-leia-el-libro.wav,,,,,,,,,,,,,,,,,,,,,,,,,,,,,,,,,,,,,,,,,,,,,,,,,,,,,,,,
,,,,,,,56e6a66af6ed900006a5867c,605b45a4d25f287719a41696,605b88dd3cdc9ad62c3c1934,United States,Midwest,13 or older,no,2021-03-24_14h46.41.634,empathy_intonation_perc,2020.2.10,Win32,60,,,,,,,,,,,,,,,,,,,,,,,,,,,,,h,1,17.934,0,0,0,0,1,,,,,,,,,,,,,,,,,,,,,,,,,,,,,,,,,,,,,,,,,,,,,,,,
,,,,,"Great! Now we will move on. The next task consists of about 60 trials, in each of which you will see a string of letters. 
  
  Your task is to decide whether this is a real Spanish word or not.",(press the spacebar to continue),56e6a66af6ed900006a5867c,605b45a4d25f287719a41696,605b88dd3cdc9ad62c3c1934,United States,Midwest,13 or older,no,2021-03-24_14h46.41.634,empathy_intonation_perc,2020.2.10,Win32,60,,,,,,,,,,,,,,,,,,,,,,,,,,,,,,,,,,,,,0,0,0,0,1,,,,,,,,,,,,,,,,,,,,,,,,,,,,,,,,,,,,,,,,,,,
,,,,,"If you think it is an existing Spanish word, you type '1' (for 'REAL'), and if you think it is not an existing Spanish word, you type '0' (for 'FAKE').",(press the spacebar to continue),56e6a66af6ed900006a5867c,605b45a4d25f287719a41696,605b88dd3cdc9ad62c3c1934,United States,Midwest,13 or older,no,2021-03-24_14h46.41.634,empathy_intonation_perc,2020.2.10,Win32,60,,,,,,,,,,,,,,,,,,,,,,,,,,,,,,,,,,,,,0,1,1,1,1,,,,,,,,,,,,,,,,,,,,,,,,,,,,,,,,,,,,,,,,,,,
,,,,,"If you are sure that the word exists, even though you dont know its exact meaning, you may still respond '1' (REAL). 
  
  But if you are not sure if it is an existing word, you should respond '0' (FAKE).
  
  Let's do a practice round...",(press the spacebar to continue),56e6a66af6ed900006a5867c,605b45a4d25f287719a41696,605b88dd3cdc9ad62c3c1934,United States,Midwest,13 or older,no,2021-03-24_14h46.41.634,empathy_intonation_perc,2020.2.10,Win32,60,,,,,,,,,,,,,,,,,,,,,,,,,,,,,,,,,,,,,0,2,2,2,1,,,,,,,,,,,,,,,,,,,,,,,,,,,,,,,,,,,,,,,,,,,
,,,,,,,56e6a66af6ed900006a5867c,605b45a4d25f287719a41696,605b88dd3cdc9ad62c3c1934,United States,Midwest,13 or older,no,2021-03-24_14h46.41.634,empathy_intonation_perc,2020.2.10,Win32,60,,,,,,,,,,0,,,,,,,,,,,,,,,,,,,,,,,,,,,,,,,,1,0,21.186,0,0,0,0,1,0,depiste,REAL,FAKE,,,,,,,,,,,,,,,,,,,,,,,,,,,,,,,
,,,,,,,56e6a66af6ed900006a5867c,605b45a4d25f287719a41696,605b88dd3cdc9ad62c3c1934,United States,Midwest,13 or older,no,2021-03-24_14h46.41.634,empathy_intonation_perc,2020.2.10,Win32,60,,,,,,,,,,1,,,,,,,,,,,,,,,,,,,,,,,,,,,,,,,,1,1,2.899,0,1,1,1,1,0,s,REAL,FAKE,,,,,,,,,,,,,,,,,,,,,,,,,,,,,,,
,,,,,,,56e6a66af6ed900006a5867c,605b45a4d25f287719a41696,605b88dd3cdc9ad62c3c1934,United States,Midwest,13 or older,no,2021-03-24_14h46.41.634,empathy_intonation_perc,2020.2.10,Win32,60,,,,,,,,,,0,,,,,,,,,,,,,,,,,,,,,,,,,,,,,,,,0,1,1.824,0,2,2,2,1,0,con,REAL,FAKE,,,,,,,,,,,,,,,,,,,,,,,,,,,,,,,
,,,,,,,56e6a66af6ed900006a5867c,605b45a4d25f287719a41696,605b88dd3cdc9ad62c3c1934,United States,Midwest,13 or older,no,2021-03-24_14h46.41.634,empathy_intonation_perc,2020.2.10,Win32,60,,,,,,,,,,0,,,,,,,,,,,,,,,,,,,,,,,,,,,,,,,,0,1,1.485,0,3,3,3,1,0,calpar,REAL,FAKE,,,,,,,,,,,,,,,,,,,,,,,,,,,,,,,
,,,,,,,56e6a66af6ed900006a5867c,605b45a4d25f287719a41696,605b88dd3cdc9ad62c3c1934,United States,Midwest,13 or older,no,2021-03-24_14h46.41.634,empathy_intonation_perc,2020.2.10,Win32,60,,,,,,,,,,0,,,,,,,,,,,,,,,,,,,,,,,,,,,,,,,,0,1,1.484,0,4,4,4,1,0,joten,REAL,FAKE,,,,,,,,,,,,,,,,,,,,,,,,,,,,,,,
,,,,,,,56e6a66af6ed900006a5867c,605b45a4d25f287719a41696,605b88dd3cdc9ad62c3c1934,United States,Midwest,13 or older,no,2021-03-24_14h46.41.634,empathy_intonation_perc,2020.2.10,Win32,60,,,,,,,,,,1,,,,,,,,,,,,,,,,,,,,,,,,,,,,,,,,1,1,1.785,0,5,5,5,1,0,sacapuntas,REAL,FAKE,,,,,,,,,,,,,,,,,,,,,,,,,,,,,,,
,,,,,,,56e6a66af6ed900006a5867c,605b45a4d25f287719a41696,605b88dd3cdc9ad62c3c1934,United States,Midwest,13 or older,no,2021-03-24_14h46.41.634,empathy_intonation_perc,2020.2.10,Win32,60,,,,,,,,,,0,,,,,,,,,,,,,,,,,,,,,,,,,,,,,,,,0,1,1.726,0,6,6,6,1,0,priba,REAL,FAKE,,,,,,,,,,,,,,,,,,,,,,,,,,,,,,,
,,,,,,,56e6a66af6ed900006a5867c,605b45a4d25f287719a41696,605b88dd3cdc9ad62c3c1934,United States,Midwest,13 or older,no,2021-03-24_14h46.41.634,empathy_intonation_perc,2020.2.10,Win32,60,,,,,,,,,,0,,,,,,,,,,,,,,,,,,,,,,,,,,,,,,,,1,0,2.182,0,7,7,7,1,0,pelasula,REAL,FAKE,,,,,,,,,,,,,,,,,,,,,,,,,,,,,,,
,,,,,,,56e6a66af6ed900006a5867c,605b45a4d25f287719a41696,605b88dd3cdc9ad62c3c1934,United States,Midwest,13 or older,no,2021-03-24_14h46.41.634,empathy_intonation_perc,2020.2.10,Win32,60,,,,,,,,,,1,,,,,,,,,,,,,,,,,,,,,,,,,,,,,,,,1,1,1.525,0,8,8,8,1,0,bien,REAL,FAKE,,,,,,,,,,,,,,,,,,,,,,,,,,,,,,,
,,,,,,,56e6a66af6ed900006a5867c,605b45a4d25f287719a41696,605b88dd3cdc9ad62c3c1934,United States,Midwest,13 or older,no,2021-03-24_14h46.41.634,empathy_intonation_perc,2020.2.10,Win32,60,,,,,,,,,,1,,,,,,,,,,,,,,,,,,,,,,,,,,,,,,,,1,1,1.125,0,9,9,9,1,0,casa,REAL,FAKE,,,,,,,,,,,,,,,,,,,,,,,,,,,,,,,
,,,,,,,56e6a66af6ed900006a5867c,605b45a4d25f287719a41696,605b88dd3cdc9ad62c3c1934,United States,Midwest,13 or older,no,2021-03-24_14h46.41.634,empathy_intonation_perc,2020.2.10,Win32,60,,,,,,,,,,0,,,,,,,,,,,,,,,,,,,,,,,,,,,,,,,,0,1,1.142,0,10,10,10,1,0,lejo,REAL,FAKE,,,,,,,,,,,,,,,,,,,,,,,,,,,,,,,
,,,,,,,56e6a66af6ed900006a5867c,605b45a4d25f287719a41696,605b88dd3cdc9ad62c3c1934,United States,Midwest,13 or older,no,2021-03-24_14h46.41.634,empathy_intonation_perc,2020.2.10,Win32,60,,,,,,,,,,0,,,,,,,,,,,,,,,,,,,,,,,,,,,,,,,,1,0,1.022,0,11,11,11,1,0,pretantas,REAL,FAKE,,,,,,,,,,,,,,,,,,,,,,,,,,,,,,,
,,,,,,,56e6a66af6ed900006a5867c,605b45a4d25f287719a41696,605b88dd3cdc9ad62c3c1934,United States,Midwest,13 or older,no,2021-03-24_14h46.41.634,empathy_intonation_perc,2020.2.10,Win32,60,,,,,,,,,,1,,,,,,,,,,,,,,,,,,,,,,,,,,,,,,,,,,,,,,,,7,psimo,,,1,1,4.102,0,0,0,6,1,REAL,FAKE,,,,,,,,,,,,,,,,,,,,,
,,,,,,,56e6a66af6ed900006a5867c,605b45a4d25f287719a41696,605b88dd3cdc9ad62c3c1934,United States,Midwest,13 or older,no,2021-03-24_14h46.41.634,empathy_intonation_perc,2020.2.10,Win32,60,,,,,,,,,,1,,,,,,,,,,,,,,,,,,,,,,,,,,,,,,,,,,,,,,,,22,lacayo,,,0,0,0.999,0,1,1,21,1,REAL,FAKE,,,,,,,,,,,,,,,,,,,,,
,,,,,,,56e6a66af6ed900006a5867c,605b45a4d25f287719a41696,605b88dd3cdc9ad62c3c1934,United States,Midwest,13 or older,no,2021-03-24_14h46.41.634,empathy_intonation_perc,2020.2.10,Win32,60,,,,,,,,,,1,,,,,,,,,,,,,,,,,,,,,,,,,,,,,,,,,,,,,,,,48,ladrn,,,0,0,1.448,0,2,2,47,1,REAL,FAKE,,,,,,,,,,,,,,,,,,,,,
,,,,,,,56e6a66af6ed900006a5867c,605b45a4d25f287719a41696,605b88dd3cdc9ad62c3c1934,United States,Midwest,13 or older,no,2021-03-24_14h46.41.634,empathy_intonation_perc,2020.2.10,Win32,60,,,,,,,,,,1,,,,,,,,,,,,,,,,,,,,,,,,,,,,,,,,,,,,,,,,46,martillo,,,1,1,1.184,0,3,3,45,1,REAL,FAKE,,,,,,,,,,,,,,,,,,,,,
,,,,,,,56e6a66af6ed900006a5867c,605b45a4d25f287719a41696,605b88dd3cdc9ad62c3c1934,United States,Midwest,13 or older,no,2021-03-24_14h46.41.634,empathy_intonation_perc,2020.2.10,Win32,60,,,,,,,,,,1,,,,,,,,,,,,,,,,,,,,,,,,,,,,,,,,,,,,,,,,36,loro,,,0,0,1.099,0,4,4,35,1,REAL,FAKE,,,,,,,,,,,,,,,,,,,,,
,,,,,,,56e6a66af6ed900006a5867c,605b45a4d25f287719a41696,605b88dd3cdc9ad62c3c1934,United States,Midwest,13 or older,no,2021-03-24_14h46.41.634,empathy_intonation_perc,2020.2.10,Win32,60,,,,,,,,,,1,,,,,,,,,,,,,,,,,,,,,,,,,,,,,,,,,,,,,,,,3,pulmones,,,1,1,1.121,0,5,5,2,1,REAL,FAKE,,,,,,,,,,,,,,,,,,,,,
,,,,,,,56e6a66af6ed900006a5867c,605b45a4d25f287719a41696,605b88dd3cdc9ad62c3c1934,United States,Midwest,13 or older,no,2021-03-24_14h46.41.634,empathy_intonation_perc,2020.2.10,Win32,60,,,,,,,,,,1,,,,,,,,,,,,,,,,,,,,,,,,,,,,,,,,,,,,,,,,9,hacha,,,1,1,1.265,0,6,6,8,1,REAL,FAKE,,,,,,,,,,,,,,,,,,,,,
,,,,,,,56e6a66af6ed900006a5867c,605b45a4d25f287719a41696,605b88dd3cdc9ad62c3c1934,United States,Midwest,13 or older,no,2021-03-24_14h46.41.634,empathy_intonation_perc,2020.2.10,Win32,60,,,,,,,,,,1,,,,,,,,,,,,,,,,,,,,,,,,,,,,,,,,,,,,,,,,37,granuja,,,1,1,1.124,0,7,7,36,1,REAL,FAKE,,,,,,,,,,,,,,,,,,,,,
,,,,,,,56e6a66af6ed900006a5867c,605b45a4d25f287719a41696,605b88dd3cdc9ad62c3c1934,United States,Midwest,13 or older,no,2021-03-24_14h46.41.634,empathy_intonation_perc,2020.2.10,Win32,60,,,,,,,,,,1,,,,,,,,,,,,,,,,,,,,,,,,,,,,,,,,,,,,,,,,65,bizcocho,,,0,0,1.342,0,8,8,64,1,REAL,FAKE,,,,,,,,,,,,,,,,,,,,,
,,,,,,,56e6a66af6ed900006a5867c,605b45a4d25f287719a41696,605b88dd3cdc9ad62c3c1934,United States,Midwest,13 or older,no,2021-03-24_14h46.41.634,empathy_intonation_perc,2020.2.10,Win32,60,,,,,,,,,,1,,,,,,,,,,,,,,,,,,,,,,,,,,,,,,,,,,,,,,,,75,yacer,,,0,0,1.052,0,9,9,74,1,REAL,FAKE,,,,,,,,,,,,,,,,,,,,,
,,,,,,,56e6a66af6ed900006a5867c,605b45a4d25f287719a41696,605b88dd3cdc9ad62c3c1934,United States,Midwest,13 or older,no,2021-03-24_14h46.41.634,empathy_intonation_perc,2020.2.10,Win32,60,,,,,,,,,,0,,,,,,,,,,,,,,,,,,,,,,,,,,,,,,,,,,,,,,,,23,lampera,,,1,0,0.986,0,10,10,22,1,REAL,FAKE,,,,,,,,,,,,,,,,,,,,,
,,,,,,,56e6a66af6ed900006a5867c,605b45a4d25f287719a41696,605b88dd3cdc9ad62c3c1934,United States,Midwest,13 or older,no,2021-03-24_14h46.41.634,empathy_intonation_perc,2020.2.10,Win32,60,,,,,,,,,,1,,,,,,,,,,,,,,,,,,,,,,,,,,,,,,,,,,,,,,,,85,lad,,,1,1,1.105,0,11,11,84,1,REAL,FAKE,,,,,,,,,,,,,,,,,,,,,
,,,,,,,56e6a66af6ed900006a5867c,605b45a4d25f287719a41696,605b88dd3cdc9ad62c3c1934,United States,Midwest,13 or older,no,2021-03-24_14h46.41.634,empathy_intonation_perc,2020.2.10,Win32,60,,,,,,,,,,1,,,,,,,,,,,,,,,,,,,,,,,,,,,,,,,,,,,,,,,,52,camisa,,,1,1,1.137,0,12,12,51,1,REAL,FAKE,,,,,,,,,,,,,,,,,,,,,
,,,,,,,56e6a66af6ed900006a5867c,605b45a4d25f287719a41696,605b88dd3cdc9ad62c3c1934,United States,Midwest,13 or older,no,2021-03-24_14h46.41.634,empathy_intonation_perc,2020.2.10,Win32,60,,,,,,,,,,0,,,,,,,,,,,,,,,,,,,,,,,,,,,,,,,,,,,,,,,,4,batilln,,,0,1,1.249,0,13,13,3,1,REAL,FAKE,,,,,,,,,,,,,,,,,,,,,
,,,,,,,56e6a66af6ed900006a5867c,605b45a4d25f287719a41696,605b88dd3cdc9ad62c3c1934,United States,Midwest,13 or older,no,2021-03-24_14h46.41.634,empathy_intonation_perc,2020.2.10,Win32,60,,,,,,,,,,1,,,,,,,,,,,,,,,,,,,,,,,,,,,,,,,,,,,,,,,,49,ganar,,,0,0,0.957,0,14,14,48,1,REAL,FAKE,,,,,,,,,,,,,,,,,,,,,
,,,,,,,56e6a66af6ed900006a5867c,605b45a4d25f287719a41696,605b88dd3cdc9ad62c3c1934,United States,Midwest,13 or older,no,2021-03-24_14h46.41.634,empathy_intonation_perc,2020.2.10,Win32,60,,,,,,,,,,0,,,,,,,,,,,,,,,,,,,,,,,,,,,,,,,,,,,,,,,,32,fatacidad,,,0,1,1.209,0,15,15,31,1,REAL,FAKE,,,,,,,,,,,,,,,,,,,,,
,,,,,,,56e6a66af6ed900006a5867c,605b45a4d25f287719a41696,605b88dd3cdc9ad62c3c1934,United States,Midwest,13 or older,no,2021-03-24_14h46.41.634,empathy_intonation_perc,2020.2.10,Win32,60,,,,,,,,,,0,,,,,,,,,,,,,,,,,,,,,,,,,,,,,,,,,,,,,,,,70,temblo,,,1,0,0.871,0,16,16,69,1,REAL,FAKE,,,,,,,,,,,,,,,,,,,,,
,,,,,,,56e6a66af6ed900006a5867c,605b45a4d25f287719a41696,605b88dd3cdc9ad62c3c1934,United States,Midwest,13 or older,no,2021-03-24_14h46.41.634,empathy_intonation_perc,2020.2.10,Win32,60,,,,,,,,,,1,,,,,,,,,,,,,,,,,,,,,,,,,,,,,,,,,,,,,,,,40,alfombra,,,0,0,1.203,0,17,17,39,1,REAL,FAKE,,,,,,,,,,,,,,,,,,,,,
,,,,,,,56e6a66af6ed900006a5867c,605b45a4d25f287719a41696,605b88dd3cdc9ad62c3c1934,United States,Midwest,13 or older,no,2021-03-24_14h46.41.634,empathy_intonation_perc,2020.2.10,Win32,60,,,,,,,,,,0,,,,,,,,,,,,,,,,,,,,,,,,,,,,,,,,,,,,,,,,74,cintro,,,1,0,1.055,0,18,18,73,1,REAL,FAKE,,,,,,,,,,,,,,,,,,,,,
,,,,,,,56e6a66af6ed900006a5867c,605b45a4d25f287719a41696,605b88dd3cdc9ad62c3c1934,United States,Midwest,13 or older,no,2021-03-24_14h46.41.634,empathy_intonation_perc,2020.2.10,Win32,60,,,,,,,,,,1,,,,,,,,,,,,,,,,,,,,,,,,,,,,,,,,,,,,,,,,12,asesinato,,,1,1,1.353,0,19,19,11,1,REAL,FAKE,,,,,,,,,,,,,,,,,,,,,
,,,,,,,56e6a66af6ed900006a5867c,605b45a4d25f287719a41696,605b88dd3cdc9ad62c3c1934,United States,Midwest,13 or older,no,2021-03-24_14h46.41.634,empathy_intonation_perc,2020.2.10,Win32,60,,,,,,,,,,1,,,,,,,,,,,,,,,,,,,,,,,,,,,,,,,,,,,,,,,,81,pozo,,,0,0,0.969,0,20,20,80,1,REAL,FAKE,,,,,,,,,,,,,,,,,,,,,
,,,,,,,56e6a66af6ed900006a5867c,605b45a4d25f287719a41696,605b88dd3cdc9ad62c3c1934,United States,Midwest,13 or older,no,2021-03-24_14h46.41.634,empathy_intonation_perc,2020.2.10,Win32,60,,,,,,,,,,1,,,,,,,,,,,,,,,,,,,,,,,,,,,,,,,,,,,,,,,,62,flaco,,,0,0,1.533,0,21,21,61,1,REAL,FAKE,,,,,,,,,,,,,,,,,,,,,
,,,,,,,56e6a66af6ed900006a5867c,605b45a4d25f287719a41696,605b88dd3cdc9ad62c3c1934,United States,Midwest,13 or older,no,2021-03-24_14h46.41.634,empathy_intonation_perc,2020.2.10,Win32,60,,,,,,,,,,1,,,,,,,,,,,,,,,,,,,,,,,,,,,,,,,,,,,,,,,,11,cenefa,,,1,1,1.001,0,22,22,10,1,REAL,FAKE,,,,,,,,,,,,,,,,,,,,,
,,,,,,,56e6a66af6ed900006a5867c,605b45a4d25f287719a41696,605b88dd3cdc9ad62c3c1934,United States,Midwest,13 or older,no,2021-03-24_14h46.41.634,empathy_intonation_perc,2020.2.10,Win32,60,,,,,,,,,,1,,,,,,,,,,,,,,,,,,,,,,,,,,,,,,,,,,,,,,,,25,bisagra,,,0,0,0.95,0,23,23,24,1,REAL,FAKE,,,,,,,,,,,,,,,,,,,,,
,,,,,,,56e6a66af6ed900006a5867c,605b45a4d25f287719a41696,605b88dd3cdc9ad62c3c1934,United States,Midwest,13 or older,no,2021-03-24_14h46.41.634,empathy_intonation_perc,2020.2.10,Win32,60,,,,,,,,,,0,,,,,,,,,,,,,,,,,,,,,,,,,,,,,,,,,,,,,,,,18,arsa,,,0,1,1.054,0,24,24,17,1,REAL,FAKE,,,,,,,,,,,,,,,,,,,,,
,,,,,,,56e6a66af6ed900006a5867c,605b45a4d25f287719a41696,605b88dd3cdc9ad62c3c1934,United States,Midwest,13 or older,no,2021-03-24_14h46.41.634,empathy_intonation_perc,2020.2.10,Win32,60,,,,,,,,,,1,,,,,,,,,,,,,,,,,,,,,,,,,,,,,,,,,,,,,,,,86,barato,,,1,1,0.74,0,25,25,85,1,REAL,FAKE,,,,,,,,,,,,,,,,,,,,,
,,,,,,,56e6a66af6ed900006a5867c,605b45a4d25f287719a41696,605b88dd3cdc9ad62c3c1934,United States,Midwest,13 or older,no,2021-03-24_14h46.41.634,empathy_intonation_perc,2020.2.10,Win32,60,,,,,,,,,,1,,,,,,,,,,,,,,,,,,,,,,,,,,,,,,,,,,,,,,,,57,tacao,,,1,1,1.209,0,26,26,56,1,REAL,FAKE,,,,,,,,,,,,,,,,,,,,,
,,,,,,,56e6a66af6ed900006a5867c,605b45a4d25f287719a41696,605b88dd3cdc9ad62c3c1934,United States,Midwest,13 or older,no,2021-03-24_14h46.41.634,empathy_intonation_perc,2020.2.10,Win32,60,,,,,,,,,,1,,,,,,,,,,,,,,,,,,,,,,,,,,,,,,,,,,,,,,,,13,helar,,,0,0,0.941,0,27,27,12,1,REAL,FAKE,,,,,,,,,,,,,,,,,,,,,
,,,,,,,56e6a66af6ed900006a5867c,605b45a4d25f287719a41696,605b88dd3cdc9ad62c3c1934,United States,Midwest,13 or older,no,2021-03-24_14h46.41.634,empathy_intonation_perc,2020.2.10,Win32,60,,,,,,,,,,1,,,,,,,,,,,,,,,,,,,,,,,,,,,,,,,,,,,,,,,,31,pandilla,,,1,1,1.082,0,28,28,30,1,REAL,FAKE,,,,,,,,,,,,,,,,,,,,,
,,,,,,,56e6a66af6ed900006a5867c,605b45a4d25f287719a41696,605b88dd3cdc9ad62c3c1934,United States,Midwest,13 or older,no,2021-03-24_14h46.41.634,empathy_intonation_perc,2020.2.10,Win32,60,,,,,,,,,,0,,,,,,,,,,,,,,,,,,,,,,,,,,,,,,,,,,,,,,,,53,vegada,,,1,0,1.45,0,29,29,52,1,REAL,FAKE,,,,,,,,,,,,,,,,,,,,,
,,,,,,,56e6a66af6ed900006a5867c,605b45a4d25f287719a41696,605b88dd3cdc9ad62c3c1934,United States,Midwest,13 or older,no,2021-03-24_14h46.41.634,empathy_intonation_perc,2020.2.10,Win32,60,,,,,,,,,,1,,,,,,,,,,,,,,,,,,,,,,,,,,,,,,,,,,,,,,,,14,yunque,,,0,0,1.217,0,30,30,13,1,REAL,FAKE,,,,,,,,,,,,,,,,,,,,,
,,,,,,,56e6a66af6ed900006a5867c,605b45a4d25f287719a41696,605b88dd3cdc9ad62c3c1934,United States,Midwest,13 or older,no,2021-03-24_14h46.41.634,empathy_intonation_perc,2020.2.10,Win32,60,,,,,,,,,,0,,,,,,,,,,,,,,,,,,,,,,,,,,,,,,,,,,,,,,,,21,capillo,,,1,0,1.135,0,31,31,20,1,REAL,FAKE,,,,,,,,,,,,,,,,,,,,,
,,,,,,,56e6a66af6ed900006a5867c,605b45a4d25f287719a41696,605b88dd3cdc9ad62c3c1934,United States,Midwest,13 or older,no,2021-03-24_14h46.41.634,empathy_intonation_perc,2020.2.10,Win32,60,,,,,,,,,,1,,,,,,,,,,,,,,,,,,,,,,,,,,,,,,,,,,,,,,,,2,pellizcar,,,0,0,1.333,0,32,32,1,1,REAL,FAKE,,,,,,,,,,,,,,,,,,,,,
,,,,,,,56e6a66af6ed900006a5867c,605b45a4d25f287719a41696,605b88dd3cdc9ad62c3c1934,United States,Midwest,13 or older,no,2021-03-24_14h46.41.634,empathy_intonation_perc,2020.2.10,Win32,60,,,,,,,,,,0,,,,,,,,,,,,,,,,,,,,,,,,,,,,,,,,,,,,,,,,29,decar,,,1,0,1.394,0,33,33,28,1,REAL,FAKE,,,,,,,,,,,,,,,,,,,,,
,,,,,,,56e6a66af6ed900006a5867c,605b45a4d25f287719a41696,605b88dd3cdc9ad62c3c1934,United States,Midwest,13 or older,no,2021-03-24_14h46.41.634,empathy_intonation_perc,2020.2.10,Win32,60,,,,,,,,,,0,,,,,,,,,,,,,,,,,,,,,,,,,,,,,,,,,,,,,,,,63,esposante,,,1,0,1.601,0,34,34,62,1,REAL,FAKE,,,,,,,,,,,,,,,,,,,,,
,,,,,,,56e6a66af6ed900006a5867c,605b45a4d25f287719a41696,605b88dd3cdc9ad62c3c1934,United States,Midwest,13 or older,no,2021-03-24_14h46.41.634,empathy_intonation_perc,2020.2.10,Win32,60,,,,,,,,,,1,,,,,,,,,,,,,,,,,,,,,,,,,,,,,,,,,,,,,,,,71,polvoriento,,,0,0,0.911,0,35,35,70,1,REAL,FAKE,,,,,,,,,,,,,,,,,,,,,
,,,,,,,56e6a66af6ed900006a5867c,605b45a4d25f287719a41696,605b88dd3cdc9ad62c3c1934,United States,Midwest,13 or older,no,2021-03-24_14h46.41.634,empathy_intonation_perc,2020.2.10,Win32,60,,,,,,,,,,0,,,,,,,,,,,,,,,,,,,,,,,,,,,,,,,,,,,,,,,,10,antar,,,0,1,1.395,0,36,36,9,1,REAL,FAKE,,,,,,,,,,,,,,,,,,,,,
,,,,,,,56e6a66af6ed900006a5867c,605b45a4d25f287719a41696,605b88dd3cdc9ad62c3c1934,United States,Midwest,13 or older,no,2021-03-24_14h46.41.634,empathy_intonation_perc,2020.2.10,Win32,60,,,,,,,,,,1,,,,,,,,,,,,,,,,,,,,,,,,,,,,,,,,,,,,,,,,83,guante,,,1,1,0.824,0,37,37,82,1,REAL,FAKE,,,,,,,,,,,,,,,,,,,,,
,,,,,,,56e6a66af6ed900006a5867c,605b45a4d25f287719a41696,605b88dd3cdc9ad62c3c1934,United States,Midwest,13 or older,no,2021-03-24_14h46.41.634,empathy_intonation_perc,2020.2.10,Win32,60,,,,,,,,,,1,,,,,,,,,,,,,,,,,,,,,,,,,,,,,,,,,,,,,,,,89,prisa,,,0,0,1.009,0,38,38,88,1,REAL,FAKE,,,,,,,,,,,,,,,,,,,,,
,,,,,,,56e6a66af6ed900006a5867c,605b45a4d25f287719a41696,605b88dd3cdc9ad62c3c1934,United States,Midwest,13 or older,no,2021-03-24_14h46.41.634,empathy_intonation_perc,2020.2.10,Win32,60,,,,,,,,,,0,,,,,,,,,,,,,,,,,,,,,,,,,,,,,,,,,,,,,,,,87,grodo,,,1,0,1.567,0,39,39,86,1,REAL,FAKE,,,,,,,,,,,,,,,,,,,,,
,,,,,,,56e6a66af6ed900006a5867c,605b45a4d25f287719a41696,605b88dd3cdc9ad62c3c1934,United States,Midwest,13 or older,no,2021-03-24_14h46.41.634,empathy_intonation_perc,2020.2.10,Win32,60,,,,,,,,,,1,,,,,,,,,,,,,,,,,,,,,,,,,,,,,,,,,,,,,,,,68,alegre,,,0,0,2.05,0,40,40,67,1,REAL,FAKE,,,,,,,,,,,,,,,,,,,,,
,,,,,,,56e6a66af6ed900006a5867c,605b45a4d25f287719a41696,605b88dd3cdc9ad62c3c1934,United States,Midwest,13 or older,no,2021-03-24_14h46.41.634,empathy_intonation_perc,2020.2.10,Win32,60,,,,,,,,,,0,,,,,,,,,,,,,,,,,,,,,,,,,,,,,,,,,,,,,,,,47,cartinar,,,1,0,1.318,0,41,41,46,1,REAL,FAKE,,,,,,,,,,,,,,,,,,,,,
,,,,,,,56e6a66af6ed900006a5867c,605b45a4d25f287719a41696,605b88dd3cdc9ad62c3c1934,United States,Midwest,13 or older,no,2021-03-24_14h46.41.634,empathy_intonation_perc,2020.2.10,Win32,60,,,,,,,,,,1,,,,,,,,,,,,,,,,,,,,,,,,,,,,,,,,,,,,,,,,5,zapato,,,0,0,0.982,0,42,42,4,1,REAL,FAKE,,,,,,,,,,,,,,,,,,,,,
,,,,,,,56e6a66af6ed900006a5867c,605b45a4d25f287719a41696,605b88dd3cdc9ad62c3c1934,United States,Midwest,13 or older,no,2021-03-24_14h46.41.634,empathy_intonation_perc,2020.2.10,Win32,60,,,,,,,,,,1,,,,,,,,,,,,,,,,,,,,,,,,,,,,,,,,,,,,,,,,88,acantilado,,,1,1,1.067,0,43,43,87,1,REAL,FAKE,,,,,,,,,,,,,,,,,,,,,
,,,,,,,56e6a66af6ed900006a5867c,605b45a4d25f287719a41696,605b88dd3cdc9ad62c3c1934,United States,Midwest,13 or older,no,2021-03-24_14h46.41.634,empathy_intonation_perc,2020.2.10,Win32,60,,,,,,,,,,1,,,,,,,,,,,,,,,,,,,,,,,,,,,,,,,,,,,,,,,,78,frondoso,,,0,0,1.439,0,44,44,77,1,REAL,FAKE,,,,,,,,,,,,,,,,,,,,,
,,,,,,,56e6a66af6ed900006a5867c,605b45a4d25f287719a41696,605b88dd3cdc9ad62c3c1934,United States,Midwest,13 or older,no,2021-03-24_14h46.41.634,empathy_intonation_perc,2020.2.10,Win32,60,,,,,,,,,,0,,,,,,,,,,,,,,,,,,,,,,,,,,,,,,,,,,,,,,,,42,cadallo,,,1,0,0.951,0,45,45,41,1,REAL,FAKE,,,,,,,,,,,,,,,,,,,,,
,,,,,,,56e6a66af6ed900006a5867c,605b45a4d25f287719a41696,605b88dd3cdc9ad62c3c1934,United States,Midwest,13 or older,no,2021-03-24_14h46.41.634,empathy_intonation_perc,2020.2.10,Win32,60,,,,,,,,,,0,,,,,,,,,,,,,,,,,,,,,,,,,,,,,,,,,,,,,,,,50,flamida,,,0,1,0.966,0,46,46,49,1,REAL,FAKE,,,,,,,,,,,,,,,,,,,,,
,,,,,,,56e6a66af6ed900006a5867c,605b45a4d25f287719a41696,605b88dd3cdc9ad62c3c1934,United States,Midwest,13 or older,no,2021-03-24_14h46.41.634,empathy_intonation_perc,2020.2.10,Win32,60,,,,,,,,,,1,,,,,,,,,,,,,,,,,,,,,,,,,,,,,,,,,,,,,,,,39,torpe,,,0,0,0.97,0,47,47,38,1,REAL,FAKE,,,,,,,,,,,,,,,,,,,,,
,,,,,,,56e6a66af6ed900006a5867c,605b45a4d25f287719a41696,605b88dd3cdc9ad62c3c1934,United States,Midwest,13 or older,no,2021-03-24_14h46.41.634,empathy_intonation_perc,2020.2.10,Win32,60,,,,,,,,,,1,,,,,,,,,,,,,,,,,,,,,,,,,,,,,,,,,,,,,,,,28,merodear,,,1,1,1.05,0,48,48,27,1,REAL,FAKE,,,,,,,,,,,,,,,,,,,,,
,,,,,,,56e6a66af6ed900006a5867c,605b45a4d25f287719a41696,605b88dd3cdc9ad62c3c1934,United States,Midwest,13 or older,no,2021-03-24_14h46.41.634,empathy_intonation_perc,2020.2.10,Win32,60,,,,,,,,,,0,,,,,,,,,,,,,,,,,,,,,,,,,,,,,,,,,,,,,,,,27,acutacin,,,0,1,1.693,0,49,49,26,1,REAL,FAKE,,,,,,,,,,,,,,,,,,,,,
,,,,,,,56e6a66af6ed900006a5867c,605b45a4d25f287719a41696,605b88dd3cdc9ad62c3c1934,United States,Midwest,13 or older,no,2021-03-24_14h46.41.634,empathy_intonation_perc,2020.2.10,Win32,60,,,,,,,,,,0,,,,,,,,,,,,,,,,,,,,,,,,,,,,,,,,,,,,,,,,66,hacido,,,1,0,1.089,0,50,50,65,1,REAL,FAKE,,,,,,,,,,,,,,,,,,,,,
,,,,,,,56e6a66af6ed900006a5867c,605b45a4d25f287719a41696,605b88dd3cdc9ad62c3c1934,United States,Midwest,13 or older,no,2021-03-24_14h46.41.634,empathy_intonation_perc,2020.2.10,Win32,60,,,,,,,,,,1,,,,,,,,,,,,,,,,,,,,,,,,,,,,,,,,,,,,,,,,77,tiburn,,,0,0,1.218,0,51,51,76,1,REAL,FAKE,,,,,,,,,,,,,,,,,,,,,
,,,,,,,56e6a66af6ed900006a5867c,605b45a4d25f287719a41696,605b88dd3cdc9ad62c3c1934,United States,Midwest,13 or older,no,2021-03-24_14h46.41.634,empathy_intonation_perc,2020.2.10,Win32,60,,,,,,,,,,1,,,,,,,,,,,,,,,,,,,,,,,,,,,,,,,,,,,,,,,,60,matar,,,1,1,1.284,0,52,52,59,1,REAL,FAKE,,,,,,,,,,,,,,,,,,,,,
,,,,,,,56e6a66af6ed900006a5867c,605b45a4d25f287719a41696,605b88dd3cdc9ad62c3c1934,United States,Midwest,13 or older,no,2021-03-24_14h46.41.634,empathy_intonation_perc,2020.2.10,Win32,60,,,,,,,,,,1,,,,,,,,,,,,,,,,,,,,,,,,,,,,,,,,,,,,,,,,61,seda,,,1,1,0.773,0,53,53,60,1,REAL,FAKE,,,,,,,,,,,,,,,,,,,,,
,,,,,,,56e6a66af6ed900006a5867c,605b45a4d25f287719a41696,605b88dd3cdc9ad62c3c1934,United States,Midwest,13 or older,no,2021-03-24_14h46.41.634,empathy_intonation_perc,2020.2.10,Win32,60,,,,,,,,,,1,,,,,,,,,,,,,,,,,,,,,,,,,,,,,,,,,,,,,,,,80,hormiga,,,0,0,1.068,0,54,54,79,1,REAL,FAKE,,,,,,,,,,,,,,,,,,,,,
,,,,,,,56e6a66af6ed900006a5867c,605b45a4d25f287719a41696,605b88dd3cdc9ad62c3c1934,United States,Midwest,13 or older,no,2021-03-24_14h46.41.634,empathy_intonation_perc,2020.2.10,Win32,60,,,,,,,,,,1,,,,,,,,,,,,,,,,,,,,,,,,,,,,,,,,,,,,,,,,54,fomentar,,,1,1,1.384,0,55,55,53,1,REAL,FAKE,,,,,,,,,,,,,,,,,,,,,
,,,,,,,56e6a66af6ed900006a5867c,605b45a4d25f287719a41696,605b88dd3cdc9ad62c3c1934,United States,Midwest,13 or older,no,2021-03-24_14h46.41.634,empathy_intonation_perc,2020.2.10,Win32,60,,,,,,,,,,1,,,,,,,,,,,,,,,,,,,,,,,,,,,,,,,,,,,,,,,,55,nevar,,,1,1,1.635,0,56,56,54,1,REAL,FAKE,,,,,,,,,,,,,,,,,,,,,
,,,,,,,56e6a66af6ed900006a5867c,605b45a4d25f287719a41696,605b88dd3cdc9ad62c3c1934,United States,Midwest,13 or older,no,2021-03-24_14h46.41.634,empathy_intonation_perc,2020.2.10,Win32,60,,,,,,,,,,0,,,,,,,,,,,,,,,,,,,,,,,,,,,,,,,,,,,,,,,,79,tropaje,,,0,1,0.966,0,57,57,78,1,REAL,FAKE,,,,,,,,,,,,,,,,,,,,,
,,,,,,,56e6a66af6ed900006a5867c,605b45a4d25f287719a41696,605b88dd3cdc9ad62c3c1934,United States,Midwest,13 or older,no,2021-03-24_14h46.41.634,empathy_intonation_perc,2020.2.10,Win32,60,,,,,,,,,,0,,,,,,,,,,,,,,,,,,,,,,,,,,,,,,,,,,,,,,,,1,terzo,,,0,1,0.918,0,58,58,0,1,REAL,FAKE,,,,,,,,,,,,,,,,,,,,,
,,,,,,,56e6a66af6ed900006a5867c,605b45a4d25f287719a41696,605b88dd3cdc9ad62c3c1934,United States,Midwest,13 or older,no,2021-03-24_14h46.41.634,empathy_intonation_perc,2020.2.10,Win32,60,,,,,,,,,,1,,,,,,,,,,,,,,,,,,,,,,,,,,,,,,,,,,,,,,,,67,cabello,,,1,1,0.956,0,59,59,66,1,REAL,FAKE,,,,,,,,,,,,,,,,,,,,,
,,,,,,,56e6a66af6ed900006a5867c,605b45a4d25f287719a41696,605b88dd3cdc9ad62c3c1934,United States,Midwest,13 or older,no,2021-03-24_14h46.41.634,empathy_intonation_perc,2020.2.10,Win32,60,,,,,,,,,,0,,,,,,,,,,,,,,,,,,,,,,,,,,,,,,,,,,,,,,,,84,escuto,,,0,1,0.883,0,60,60,83,1,REAL,FAKE,,,,,,,,,,,,,,,,,,,,,
,,,,,,,56e6a66af6ed900006a5867c,605b45a4d25f287719a41696,605b88dd3cdc9ad62c3c1934,United States,Midwest,13 or older,no,2021-03-24_14h46.41.634,empathy_intonation_perc,2020.2.10,Win32,60,,,,,,,,,,1,,,,,,,,,,,,,,,,,,,,,,,,,,,,,,,,,,,,,,,,20,vido,,,1,1,0.867,0,61,61,19,1,REAL,FAKE,,,,,,,,,,,,,,,,,,,,,
,,,,,,,56e6a66af6ed900006a5867c,605b45a4d25f287719a41696,605b88dd3cdc9ad62c3c1934,United States,Midwest,13 or older,no,2021-03-24_14h46.41.634,empathy_intonation_perc,2020.2.10,Win32,60,,,,,,,,,,0,,,,,,,,,,,,,,,,,,,,,,,,,,,,,,,,,,,,,,,,17,floroso,,,0,1,0.834,0,62,62,16,1,REAL,FAKE,,,,,,,,,,,,,,,,,,,,,
,,,,,,,56e6a66af6ed900006a5867c,605b45a4d25f287719a41696,605b88dd3cdc9ad62c3c1934,United States,Midwest,13 or older,no,2021-03-24_14h46.41.634,empathy_intonation_perc,2020.2.10,Win32,60,,,,,,,,,,0,,,,,,,,,,,,,,,,,,,,,,,,,,,,,,,,,,,,,,,,19,brecedad,,,1,0,1.244,0,63,63,18,1,REAL,FAKE,,,,,,,,,,,,,,,,,,,,,
,,,,,,,56e6a66af6ed900006a5867c,605b45a4d25f287719a41696,605b88dd3cdc9ad62c3c1934,United States,Midwest,13 or older,no,2021-03-24_14h46.41.634,empathy_intonation_perc,2020.2.10,Win32,60,,,,,,,,,,1,,,,,,,,,,,,,,,,,,,,,,,,,,,,,,,,,,,,,,,,38,estornudar,,,0,0,0.816,0,64,64,37,1,REAL,FAKE,,,,,,,,,,,,,,,,,,,,,
,,,,,,,56e6a66af6ed900006a5867c,605b45a4d25f287719a41696,605b88dd3cdc9ad62c3c1934,United States,Midwest,13 or older,no,2021-03-24_14h46.41.634,empathy_intonation_perc,2020.2.10,Win32,60,,,,,,,,,,1,,,,,,,,,,,,,,,,,,,,,,,,,,,,,,,,,,,,,,,,64,orgulloso,,,0,0,1.034,0,65,65,63,1,REAL,FAKE,,,,,,,,,,,,,,,,,,,,,
,,,,,,,56e6a66af6ed900006a5867c,605b45a4d25f287719a41696,605b88dd3cdc9ad62c3c1934,United States,Midwest,13 or older,no,2021-03-24_14h46.41.634,empathy_intonation_perc,2020.2.10,Win32,60,,,,,,,,,,1,,,,,,,,,,,,,,,,,,,,,,,,,,,,,,,,,,,,,,,,69,engatusar,,,0,0,0.939,0,66,66,68,1,REAL,FAKE,,,,,,,,,,,,,,,,,,,,,
,,,,,,,56e6a66af6ed900006a5867c,605b45a4d25f287719a41696,605b88dd3cdc9ad62c3c1934,United States,Midwest,13 or older,no,2021-03-24_14h46.41.634,empathy_intonation_perc,2020.2.10,Win32,60,,,,,,,,,,1,,,,,,,,,,,,,,,,,,,,,,,,,,,,,,,,,,,,,,,,90,clavel,,,1,1,0.833,0,67,67,89,1,REAL,FAKE,,,,,,,,,,,,,,,,,,,,,
,,,,,,,56e6a66af6ed900006a5867c,605b45a4d25f287719a41696,605b88dd3cdc9ad62c3c1934,United States,Midwest,13 or older,no,2021-03-24_14h46.41.634,empathy_intonation_perc,2020.2.10,Win32,60,,,,,,,,,,1,,,,,,,,,,,,,,,,,,,,,,,,,,,,,,,,,,,,,,,,59,besar,,,0,0,0.8,0,68,68,58,1,REAL,FAKE,,,,,,,,,,,,,,,,,,,,,
,,,,,,,56e6a66af6ed900006a5867c,605b45a4d25f287719a41696,605b88dd3cdc9ad62c3c1934,United States,Midwest,13 or older,no,2021-03-24_14h46.41.634,empathy_intonation_perc,2020.2.10,Win32,60,,,,,,,,,,1,,,,,,,,,,,,,,,,,,,,,,,,,,,,,,,,,,,,,,,,15,regar,,,0,0,1.275,0,69,69,14,1,REAL,FAKE,,,,,,,,,,,,,,,,,,,,,
,,,,,,,56e6a66af6ed900006a5867c,605b45a4d25f287719a41696,605b88dd3cdc9ad62c3c1934,United States,Midwest,13 or older,no,2021-03-24_14h46.41.634,empathy_intonation_perc,2020.2.10,Win32,60,,,,,,,,,,0,,,,,,,,,,,,,,,,,,,,,,,,,,,,,,,,,,,,,,,,8,cadea,,,1,0,1.043,0,70,70,7,1,REAL,FAKE,,,,,,,,,,,,,,,,,,,,,
,,,,,,,56e6a66af6ed900006a5867c,605b45a4d25f287719a41696,605b88dd3cdc9ad62c3c1934,United States,Midwest,13 or older,no,2021-03-24_14h46.41.634,empathy_intonation_perc,2020.2.10,Win32,60,,,,,,,,,,1,,,,,,,,,,,,,,,,,,,,,,,,,,,,,,,,,,,,,,,,41,rebuscar,,,0,0,0.935,0,71,71,40,1,REAL,FAKE,,,,,,,,,,,,,,,,,,,,,
,,,,,,,56e6a66af6ed900006a5867c,605b45a4d25f287719a41696,605b88dd3cdc9ad62c3c1934,United States,Midwest,13 or older,no,2021-03-24_14h46.41.634,empathy_intonation_perc,2020.2.10,Win32,60,,,,,,,,,,1,,,,,,,,,,,,,,,,,,,,,,,,,,,,,,,,,,,,,,,,43,canela,,,1,1,0.924,0,72,72,42,1,REAL,FAKE,,,,,,,,,,,,,,,,,,,,,
,,,,,,,56e6a66af6ed900006a5867c,605b45a4d25f287719a41696,605b88dd3cdc9ad62c3c1934,United States,Midwest,13 or older,no,2021-03-24_14h46.41.634,empathy_intonation_perc,2020.2.10,Win32,60,,,,,,,,,,1,,,,,,,,,,,,,,,,,,,,,,,,,,,,,,,,,,,,,,,,56,musgo,,,0,0,0.899,0,73,73,55,1,REAL,FAKE,,,,,,,,,,,,,,,,,,,,,
,,,,,,,56e6a66af6ed900006a5867c,605b45a4d25f287719a41696,605b88dd3cdc9ad62c3c1934,United States,Midwest,13 or older,no,2021-03-24_14h46.41.634,empathy_intonation_perc,2020.2.10,Win32,60,,,,,,,,,,0,,,,,,,,,,,,,,,,,,,,,,,,,,,,,,,,,,,,,,,,33,pauca,,,0,1,1.352,0,74,74,32,1,REAL,FAKE,,,,,,,,,,,,,,,,,,,,,
,,,,,,,56e6a66af6ed900006a5867c,605b45a4d25f287719a41696,605b88dd3cdc9ad62c3c1934,United States,Midwest,13 or older,no,2021-03-24_14h46.41.634,empathy_intonation_perc,2020.2.10,Win32,60,,,,,,,,,,0,,,,,,,,,,,,,,,,,,,,,,,,,,,,,,,,,,,,,,,,35,rompido,,,1,0,0.767,0,75,75,34,1,REAL,FAKE,,,,,,,,,,,,,,,,,,,,,
,,,,,,,56e6a66af6ed900006a5867c,605b45a4d25f287719a41696,605b88dd3cdc9ad62c3c1934,United States,Midwest,13 or older,no,2021-03-24_14h46.41.634,empathy_intonation_perc,2020.2.10,Win32,60,,,,,,,,,,1,,,,,,,,,,,,,,,,,,,,,,,,,,,,,,,,,,,,,,,,26,secuestro,,,1,1,1.093,0,76,76,25,1,REAL,FAKE,,,,,,,,,,,,,,,,,,,,,
,,,,,,,56e6a66af6ed900006a5867c,605b45a4d25f287719a41696,605b88dd3cdc9ad62c3c1934,United States,Midwest,13 or older,no,2021-03-24_14h46.41.634,empathy_intonation_perc,2020.2.10,Win32,60,,,,,,,,,,0,,,,,,,,,,,,,,,,,,,,,,,,,,,,,,,,,,,,,,,,16,abracer,,,0,1,1.226,0,77,77,15,1,REAL,FAKE,,,,,,,,,,,,,,,,,,,,,
,,,,,,,56e6a66af6ed900006a5867c,605b45a4d25f287719a41696,605b88dd3cdc9ad62c3c1934,United States,Midwest,13 or older,no,2021-03-24_14h46.41.634,empathy_intonation_perc,2020.2.10,Win32,60,,,,,,,,,,0,,,,,,,,,,,,,,,,,,,,,,,,,,,,,,,,,,,,,,,,58,plaudir,,,0,1,1.053,0,78,78,57,1,REAL,FAKE,,,,,,,,,,,,,,,,,,,,,
,,,,,,,56e6a66af6ed900006a5867c,605b45a4d25f287719a41696,605b88dd3cdc9ad62c3c1934,United States,Midwest,13 or older,no,2021-03-24_14h46.41.634,empathy_intonation_perc,2020.2.10,Win32,60,,,,,,,,,,1,,,,,,,,,,,,,,,,,,,,,,,,,,,,,,,,,,,,,,,,51,candado,,,1,1,0.873,0,79,79,50,1,REAL,FAKE,,,,,,,,,,,,,,,,,,,,,
,,,,,,,56e6a66af6ed900006a5867c,605b45a4d25f287719a41696,605b88dd3cdc9ad62c3c1934,United States,Midwest,13 or older,no,2021-03-24_14h46.41.634,empathy_intonation_perc,2020.2.10,Win32,60,,,,,,,,,,1,,,,,,,,,,,,,,,,,,,,,,,,,,,,,,,,,,,,,,,,76,atar,,,0,0,1.16,0,80,80,75,1,REAL,FAKE,,,,,,,,,,,,,,,,,,,,,
,,,,,,,56e6a66af6ed900006a5867c,605b45a4d25f287719a41696,605b88dd3cdc9ad62c3c1934,United States,Midwest,13 or older,no,2021-03-24_14h46.41.634,empathy_intonation_perc,2020.2.10,Win32,60,,,,,,,,,,1,,,,,,,,,,,,,,,,,,,,,,,,,,,,,,,,,,,,,,,,34,aviso,,,0,0,0.987,0,81,81,33,1,REAL,FAKE,,,,,,,,,,,,,,,,,,,,,
,,,,,,,56e6a66af6ed900006a5867c,605b45a4d25f287719a41696,605b88dd3cdc9ad62c3c1934,United States,Midwest,13 or older,no,2021-03-24_14h46.41.634,empathy_intonation_perc,2020.2.10,Win32,60,,,,,,,,,,0,,,,,,,,,,,,,,,,,,,,,,,,,,,,,,,,,,,,,,,,30,alardio,,,1,0,0.87,0,82,82,29,1,REAL,FAKE,,,,,,,,,,,,,,,,,,,,,
,,,,,,,56e6a66af6ed900006a5867c,605b45a4d25f287719a41696,605b88dd3cdc9ad62c3c1934,United States,Midwest,13 or older,no,2021-03-24_14h46.41.634,empathy_intonation_perc,2020.2.10,Win32,60,,,,,,,,,,0,,,,,,,,,,,,,,,,,,,,,,,,,,,,,,,,,,,,,,,,72,pemicin,,,1,0,1.095,0,83,83,71,1,REAL,FAKE,,,,,,,,,,,,,,,,,,,,,
,,,,,,,56e6a66af6ed900006a5867c,605b45a4d25f287719a41696,605b88dd3cdc9ad62c3c1934,United States,Midwest,13 or older,no,2021-03-24_14h46.41.634,empathy_intonation_perc,2020.2.10,Win32,60,,,,,,,,,,1,,,,,,,,,,,,,,,,,,,,,,,,,,,,,,,,,,,,,,,,6,tergiversar,,,0,0,1.088,0,84,84,5,1,REAL,FAKE,,,,,,,,,,,,,,,,,,,,,
,,,,,,,56e6a66af6ed900006a5867c,605b45a4d25f287719a41696,605b88dd3cdc9ad62c3c1934,United States,Midwest,13 or older,no,2021-03-24_14h46.41.634,empathy_intonation_perc,2020.2.10,Win32,60,,,,,,,,,,1,,,,,,,,,,,,,,,,,,,,,,,,,,,,,,,,,,,,,,,,44,cuchara,,,0,0,1.01,0,85,85,43,1,REAL,FAKE,,,,,,,,,,,,,,,,,,,,,
,,,,,,,56e6a66af6ed900006a5867c,605b45a4d25f287719a41696,605b88dd3cdc9ad62c3c1934,United States,Midwest,13 or older,no,2021-03-24_14h46.41.634,empathy_intonation_perc,2020.2.10,Win32,60,,,,,,,,,,1,,,,,,,,,,,,,,,,,,,,,,,,,,,,,,,,,,,,,,,,45,jilguero,,,1,1,1.317,0,86,86,44,1,REAL,FAKE,,,,,,,,,,,,,,,,,,,,,
,,,,,,,56e6a66af6ed900006a5867c,605b45a4d25f287719a41696,605b88dd3cdc9ad62c3c1934,United States,Midwest,13 or older,no,2021-03-24_14h46.41.634,empathy_intonation_perc,2020.2.10,Win32,60,,,,,,,,,,0,,,,,,,,,,,,,,,,,,,,,,,,,,,,,,,,,,,,,,,,82,empirador,,,1,0,1.35,0,87,87,81,1,REAL,FAKE,,,,,,,,,,,,,,,,,,,,,
,,,,,,,56e6a66af6ed900006a5867c,605b45a4d25f287719a41696,605b88dd3cdc9ad62c3c1934,United States,Midwest,13 or older,no,2021-03-24_14h46.41.634,empathy_intonation_perc,2020.2.10,Win32,60,,,,,,,,,,1,,,,,,,,,,,,,,,,,,,,,,,,,,,,,,,,,,,,,,,,73,hervidor,,,1,1,0.843,0,88,88,72,1,REAL,FAKE,,,,,,,,,,,,,,,,,,,,,
,,,,,,,56e6a66af6ed900006a5867c,605b45a4d25f287719a41696,605b88dd3cdc9ad62c3c1934,United States,Midwest,13 or older,no,2021-03-24_14h46.41.634,empathy_intonation_perc,2020.2.10,Win32,60,,,,,,,,,,1,,,,,,,,,,,,,,,,,,,,,,,,,,,,,,,,,,,,,,,,24,ltigo,,,0,0,0.82,0,89,89,23,1,REAL,FAKE,,,,,,,,,,,,,,,,,,,,,
,,,,,,,56e6a66af6ed900006a5867c,605b45a4d25f287719a41696,605b88dd3cdc9ad62c3c1934,United States,Midwest,13 or older,no,2021-03-24_14h46.41.634,empathy_intonation_perc,2020.2.10,Win32,60,,,,,,,,,,,,,,,,,,,,,,,,,,,,,,,,,,,,,,,,,,,,,,,,,,,,,,,,,,,,,,,,4,1,4.905,1,0,0,0,0,0,1,,,,,,,,,,,
,,,,,,,56e6a66af6ed900006a5867c,605b45a4d25f287719a41696,605b88dd3cdc9ad62c3c1934,United States,Midwest,13 or older,no,2021-03-24_14h46.41.634,empathy_intonation_perc,2020.2.10,Win32,60,,,,,,,,,,,,,,,,,,,,1,,,,,,,,,,,,,,,,,,,,,,,,,,,,,,,,,,,,,,,,,,,,,,,,,,,,,,2,0,0,0,0,1,I can easily tell if someone else wants to enter a conversation.,1,0,1,0
,,,,,,,56e6a66af6ed900006a5867c,605b45a4d25f287719a41696,605b88dd3cdc9ad62c3c1934,United States,Midwest,13 or older,no,2021-03-24_14h46.41.634,empathy_intonation_perc,2020.2.10,Win32,60,,,,,,,,,,,,,,,,,,,,2,,,,,,,,,,,,,,,,,,,,,,,,,,,,,,,,,,,,,,,,,,,,,,,,,,,,,,2,0,1,1,1,1,I prefer animals to humans.,0,1,0,0
,,,,,,,56e6a66af6ed900006a5867c,605b45a4d25f287719a41696,605b88dd3cdc9ad62c3c1934,United States,Midwest,13 or older,no,2021-03-24_14h46.41.634,empathy_intonation_perc,2020.2.10,Win32,60,,,,,,,,,,,,,,,,,,,,3,,,,,,,,,,,,,,,,,,,,,,,,,,,,,,,,,,,,,,,,,,,,,,,,,,,,,,4,0,2,2,2,1,I try to keep up with the current trends and fashions.,0,1,0,0
,,,,,,,56e6a66af6ed900006a5867c,605b45a4d25f287719a41696,605b88dd3cdc9ad62c3c1934,United States,Midwest,13 or older,no,2021-03-24_14h46.41.634,empathy_intonation_perc,2020.2.10,Win32,60,,,,,,,,,,,,,,,,,,,,4,,,,,,,,,,,,,,,,,,,,,,,,,,,,,,,,,,,,,,,,,,,,,,,,,,,,,,5,0,3,3,3,1,"I find it difficult to explain to others things that I understand easily, 
  when they dont understand it first time.",1,0,0,1
,,,,,,,56e6a66af6ed900006a5867c,605b45a4d25f287719a41696,605b88dd3cdc9ad62c3c1934,United States,Midwest,13 or older,no,2021-03-24_14h46.41.634,empathy_intonation_perc,2020.2.10,Win32,60,,,,,,,,,,,,,,,,,,,,5,,,,,,,,,,,,,,,,,,,,,,,,,,,,,,,,,,,,,,,,,,,,,,,,,,,,,,5,0,4,4,4,1,I dream most nights.,0,1,0,0
,,,,,,,56e6a66af6ed900006a5867c,605b45a4d25f287719a41696,605b88dd3cdc9ad62c3c1934,United States,Midwest,13 or older,no,2021-03-24_14h46.41.634,empathy_intonation_perc,2020.2.10,Win32,60,,,,,,,,,,,,,,,,,,,,6,,,,,,,,,,,,,,,,,,,,,,,,,,,,,,,,,,,,,,,,,,,,,,,,,,,,,,2,0,5,5,5,1,I really enjoy caring for other people.,1,0,1,0
