instructions_2afc_loop.thisRepN,instructions_2afc_loop.thisTrialN,instructions_2afc_loop.thisN,instructions_2afc_loop.thisIndex,instructions_2afc_loop.ran,instructions_text,continue_text,participant,study_id,session,I am most familiar with Spanish from...*,What part of the US are you from?*,At what age did you begin learning Spanish?*,Are you proficient in any languages other than English/Spanish?*,date,expName,psychopyVersion,OS,frameRate,key_resp_2afc_practice.keys,key_resp_2afc_practice.corr,key_resp_2afc_practice.rt,trials_2afc_practice_loop.thisRepN,trials_2afc_practice_loop.thisTrialN,trials_2afc_practice_loop.thisN,trials_2afc_practice_loop.thisIndex,trials_2afc_practice_loop.ran,path,correct_response,the_col,key_resp_2afc_trial.keys,key_resp_2afc_trial.corr,key_resp_2afc_trial.rt,trials_2afc_loop.thisRepN,trials_2afc_loop.thisTrialN,trials_2afc_loop.thisN,trials_2afc_loop.thisIndex,trials_2afc_loop.ran,item_num,andalusian,argentine,castilian,chilean,cuban,mexican,peruvian,puertorican,key_resp_ac1.keys,key_resp_ac1.corr,key_resp_ac1.rt,ac1_loop.thisRepN,ac1_loop.thisTrialN,ac1_loop.thisN,ac1_loop.thisIndex,ac1_loop.ran,instructions_lextale_loop.thisRepN,instructions_lextale_loop.thisTrialN,instructions_lextale_loop.thisN,instructions_lextale_loop.thisIndex,instructions_lextale_loop.ran,key_resp_lextale_practice.keys,key_resp_lextale_practice.corr,key_resp_lextale_practice.rt,trials_lextale_practice_loop.thisRepN,trials_lextale_practice_loop.thisTrialN,trials_lextale_practice_loop.thisN,trials_lextale_practice_loop.thisIndex,trials_lextale_practice_loop.ran,stim,word,prac_button_real,prac_button_false,key_resp_lextale_trial.keys,key_resp_lextale_trial.corr,key_resp_lextale_trial.rt,trials_lextale_loop.thisRepN,trials_lextale_loop.thisTrialN,trials_lextale_loop.thisN,trials_lextale_loop.thisIndex,trials_lextale_loop.ran,button_real,button_false,key_resp_ac2.keys,key_resp_ac2.corr,key_resp_ac2.rt,check_pass,check_fails,ac2_loop.thisRepN,ac2_loop.thisTrialN,ac2_loop.thisN,ac2_loop.thisIndex,ac2_loop.ran,slider_eq_trial.response,trials_eq_loop.thisRepN,trials_eq_loop.thisTrialN,trials_eq_loop.thisN,trials_eq_loop.thisIndex,trials_eq_loop.ran,item,is_test_item,is_distractor,is_agree_score,is_disagree_score
0,0,0,0,1,"In the following task you are going to hear a series of utterances. 

  You will decide if the utterances sound like questions or not using your keyboard.",(press the spacebar to continue),5727aecae386b9000f4000cd,60568611ec04488a9e9da93b,6056b518969601947a68554a,I am not familiar with Spanish,South,NA,no,2021-03-20_21h53.59.218,empathy_intonation_perc,2020.2.10,Win32,60,,,,,,,,,,,,,,,,,,,,,,,,,,,,,,,,,,,,,,,,,,,,,,,,,,,,,,,,,,,,,,,,,,,,,,,,,,,,,,,,,,,,
0,1,1,1,1,"If you believe the utterance is a question, type '1' (for 'yes') and if you do not 
  believe it is a question type '0' (for 'no').

  Let's practice a bit...",(press the spacebar to continue),5727aecae386b9000f4000cd,60568611ec04488a9e9da93b,6056b518969601947a68554a,I am not familiar with Spanish,South,NA,no,2021-03-20_21h53.59.218,empathy_intonation_perc,2020.2.10,Win32,60,,,,,,,,,,,,,,,,,,,,,,,,,,,,,,,,,,,,,,,,,,,,,,,,,,,,,,,,,,,,,,,,,,,,,,,,,,,,,,,,,,,,
,,,,,,,5727aecae386b9000f4000cd,60568611ec04488a9e9da93b,6056b518969601947a68554a,I am not familiar with Spanish,South,NA,no,2021-03-20_21h53.59.218,empathy_intonation_perc,2020.2.10,Win32,60,0,1,4.05865,0,0,0,4,1,./stim/wavs/cuban_statement_filler_Cocinabas-por-la-noche.wav,0,,,,,,,,,,,,,,,,,,,,,,,,,,,,,,,,,,,,,,,,,,,,,,,,,,,,,,,,,,,,,,,,,,,,,,,,,,
,,,,,,,5727aecae386b9000f4000cd,60568611ec04488a9e9da93b,6056b518969601947a68554a,I am not familiar with Spanish,South,NA,no,2021-03-20_21h53.59.218,empathy_intonation_perc,2020.2.10,Win32,60,0,1,2.51898,0,1,1,7,1,./stim/wavs/puertorican_statement_filler_La-nina-pinta-con-su-amiga.wav,0,,,,,,,,,,,,,,,,,,,,,,,,,,,,,,,,,,,,,,,,,,,,,,,,,,,,,,,,,,,,,,,,,,,,,,,,,,
,,,,,,,5727aecae386b9000f4000cd,60568611ec04488a9e9da93b,6056b518969601947a68554a,I am not familiar with Spanish,South,NA,no,2021-03-20_21h53.59.218,empathy_intonation_perc,2020.2.10,Win32,60,1,1,2.108005,0,2,2,0,1,./stim/wavs/castilian_question_filler_Mi-esposo-conoce-al-chico.wav,1,,,,,,,,,,,,,,,,,,,,,,,,,,,,,,,,,,,,,,,,,,,,,,,,,,,,,,,,,,,,,,,,,,,,,,,,,,
,,,,,,,5727aecae386b9000f4000cd,60568611ec04488a9e9da93b,6056b518969601947a68554a,I am not familiar with Spanish,South,NA,no,2021-03-20_21h53.59.218,empathy_intonation_perc,2020.2.10,Win32,60,1,1,2.004985,0,3,3,2,1,./stim/wavs/chilean_question_filler_Mi-padre-cantaba-bien.wav,1,,,,,,,,,,,,,,,,,,,,,,,,,,,,,,,,,,,,,,,,,,,,,,,,,,,,,,,,,,,,,,,,,,,,,,,,,,
,,,,,,,5727aecae386b9000f4000cd,60568611ec04488a9e9da93b,6056b518969601947a68554a,I am not familiar with Spanish,South,NA,no,2021-03-20_21h53.59.218,empathy_intonation_perc,2020.2.10,Win32,60,1,1,1.7333,0,4,4,3,1,./stim/wavs/mexican_question_filler_Felipe-no-tiene-contrasena.wav,1,,,,,,,,,,,,,,,,,,,,,,,,,,,,,,,,,,,,,,,,,,,,,,,,,,,,,,,,,,,,,,,,,,,,,,,,,,
,,,,,,,5727aecae386b9000f4000cd,60568611ec04488a9e9da93b,6056b518969601947a68554a,I am not familiar with Spanish,South,NA,no,2021-03-20_21h53.59.218,empathy_intonation_perc,2020.2.10,Win32,60,0,1,2.325915,0,5,5,6,1,./stim/wavs/peruvian_statement_filler_El-nino-habla-con-su-madre.wav,0,,,,,,,,,,,,,,,,,,,,,,,,,,,,,,,,,,,,,,,,,,,,,,,,,,,,,,,,,,,,,,,,,,,,,,,,,,
,,,,,,,5727aecae386b9000f4000cd,60568611ec04488a9e9da93b,6056b518969601947a68554a,I am not familiar with Spanish,South,NA,no,2021-03-20_21h53.59.218,empathy_intonation_perc,2020.2.10,Win32,60,0,1,1.657885,0,6,6,5,1,./stim/wavs/andalusian_statement_filler_Alberto-nunca-se-afeita.wav,0,,,,,,,,,,,,,,,,,,,,,,,,,,,,,,,,,,,,,,,,,,,,,,,,,,,,,,,,,,,,,,,,,,,,,,,,,,
,,,,,,,5727aecae386b9000f4000cd,60568611ec04488a9e9da93b,6056b518969601947a68554a,I am not familiar with Spanish,South,NA,no,2021-03-20_21h53.59.218,empathy_intonation_perc,2020.2.10,Win32,60,1,1,1.551175,0,7,7,1,1,./stim/wavs/argentine_question_filler_Mi-vecino-habla-mucho.wav,1,,,,,,,,,,,,,,,,,,,,,,,,,,,,,,,,,,,,,,,,,,,,,,,,,,,,,,,,,,,,,,,,,,,,,,,,,,
,,,,,,,5727aecae386b9000f4000cd,60568611ec04488a9e9da93b,6056b518969601947a68554a,I am not familiar with Spanish,South,NA,no,2021-03-20_21h53.59.218,empathy_intonation_perc,2020.2.10,Win32,60,,,,,,,,,,0,argentine,0,1,2.86563,0,0,0,38,1,39,./stim/wavs/andalusian_mismatch_declarative-broad-focus_Mi-novio-viene-del-lago.wav,./stim/wavs/argentine_mismatch_declarative-broad-focus_Mi-novio-viene-del-lago.wav,./stim/wavs/castilian_mismatch_declarative-broad-focus_Mi-novio-viene-del-lago.wav,./stim/wavs/chilean_mismatch_declarative-broad-focus_Mi-novio-viene-del-lago.wav,./stim/wavs/cuban_mismatch_declarative-broad-focus_Mi-novio-viene-del-lago.wav,./stim/wavs/mexican_mismatch_declarative-broad-focus_Mi-novio-viene-del-lago.wav,./stim/wavs/peruvian_mismatch_declarative-broad-focus_Mi-novio-viene-del-lago.wav,./stim/wavs/puertorican_mismatch_declarative-broad-focus_Mi-novio-viene-del-lago.wav,,,,,,,,,,,,,,,,,,,,,,,,,,,,,,,,,,,,,,,,,,,,,,,,,,,,,,,,
,,,,,,,5727aecae386b9000f4000cd,60568611ec04488a9e9da93b,6056b518969601947a68554a,I am not familiar with Spanish,South,NA,no,2021-03-20_21h53.59.218,empathy_intonation_perc,2020.2.10,Win32,60,,,,,,,,,,1,argentine,0,0,1.615955,0,1,1,22,1,23,./stim/wavs/andalusian_match_interrogative-partial-wh_Por-que-hablaba-del-agua.wav,./stim/wavs/argentine_match_interrogative-partial-wh_Por-que-hablaba-del-agua.wav,./stim/wavs/castilian_match_interrogative-partial-wh_Por-que-hablaba-del-agua.wav,./stim/wavs/chilean_match_interrogative-partial-wh_Por-que-hablaba-del-agua.wav,./stim/wavs/cuban_match_interrogative-partial-wh_Por-que-hablaba-del-agua.wav,./stim/wavs/mexican_match_interrogative-partial-wh_Por-que-hablaba-del-agua.wav,./stim/wavs/peruvian_match_interrogative-partial-wh_Por-que-hablaba-del-agua.wav,./stim/wavs/puertorican_match_interrogative-partial-wh_Por-que-hablaba-del-agua.wav,,,,,,,,,,,,,,,,,,,,,,,,,,,,,,,,,,,,,,,,,,,,,,,,,,,,,,,,
,,,,,,,5727aecae386b9000f4000cd,60568611ec04488a9e9da93b,6056b518969601947a68554a,I am not familiar with Spanish,South,NA,no,2021-03-20_21h53.59.218,empathy_intonation_perc,2020.2.10,Win32,60,,,,,,,,,,0,argentine,0,1,1.567125,0,2,2,6,1,7,./stim/wavs/andalusian_match_declarative-broad-focus_Mariano-habla-del-tiempo.wav,./stim/wavs/argentine_match_declarative-broad-focus_Mariano-habla-del-tiempo.wav,./stim/wavs/castilian_match_declarative-broad-focus_Mariano-habla-del-tiempo.wav,./stim/wavs/chilean_match_declarative-broad-focus_Mariano-habla-del-tiempo.wav,./stim/wavs/cuban_match_declarative-broad-focus_Mariano-habla-del-tiempo.wav,./stim/wavs/mexican_match_declarative-broad-focus_Mariano-habla-del-tiempo.wav,./stim/wavs/peruvian_match_declarative-broad-focus_Mariano-habla-del-tiempo.wav,./stim/wavs/puertorican_match_declarative-broad-focus_Mariano-habla-del-tiempo.wav,,,,,,,,,,,,,,,,,,,,,,,,,,,,,,,,,,,,,,,,,,,,,,,,,,,,,,,,
,,,,,,,5727aecae386b9000f4000cd,60568611ec04488a9e9da93b,6056b518969601947a68554a,I am not familiar with Spanish,South,NA,no,2021-03-20_21h53.59.218,empathy_intonation_perc,2020.2.10,Win32,60,,,,,,,,,,1,castilian,1,1,1.820765,0,3,3,28,1,29,./stim/wavs/andalusian_match_interrogative-total-yn_Manuela-vende-el-carro.wav,./stim/wavs/argentine_match_interrogative-total-yn_Manuela-vende-el-carro.wav,./stim/wavs/castilian_match_interrogative-total-yn_Manuela-vende-el-carro.wav,./stim/wavs/chilean_match_interrogative-total-yn_Manuela-vende-el-carro.wav,./stim/wavs/cuban_match_interrogative-total-yn_Manuela-vende-el-carro.wav,./stim/wavs/mexican_match_interrogative-total-yn_Manuela-vende-el-carro.wav,./stim/wavs/peruvian_match_interrogative-total-yn_Manuela-vende-el-carro.wav,./stim/wavs/puertorican_match_interrogative-total-yn_Manuela-vende-el-carro.wav,,,,,,,,,,,,,,,,,,,,,,,,,,,,,,,,,,,,,,,,,,,,,,,,,,,,,,,,
,,,,,,,5727aecae386b9000f4000cd,60568611ec04488a9e9da93b,6056b518969601947a68554a,I am not familiar with Spanish,South,NA,no,2021-03-20_21h53.59.218,empathy_intonation_perc,2020.2.10,Win32,60,,,,,,,,,,1,peruvian,1,1,1.972475,0,4,4,20,1,21,./stim/wavs/andalusian_match_interrogative-partial-wh_Por-que-abre-el-regalo.wav,./stim/wavs/argentine_match_interrogative-partial-wh_Por-que-abre-el-regalo.wav,./stim/wavs/castilian_match_interrogative-partial-wh_Por-que-abre-el-regalo.wav,./stim/wavs/chilean_match_interrogative-partial-wh_Por-que-abre-el-regalo.wav,./stim/wavs/cuban_match_interrogative-partial-wh_Por-que-abre-el-regalo.wav,./stim/wavs/mexican_match_interrogative-partial-wh_Por-que-abre-el-regalo.wav,./stim/wavs/peruvian_match_interrogative-partial-wh_Por-que-abre-el-regalo.wav,./stim/wavs/puertorican_match_interrogative-partial-wh_Por-que-abre-el-regalo.wav,,,,,,,,,,,,,,,,,,,,,,,,,,,,,,,,,,,,,,,,,,,,,,,,,,,,,,,,
,,,,,,,5727aecae386b9000f4000cd,60568611ec04488a9e9da93b,6056b518969601947a68554a,I am not familiar with Spanish,South,NA,no,2021-03-20_21h53.59.218,empathy_intonation_perc,2020.2.10,Win32,60,,,,,,,,,,0,castilian,0,1,1.83201,0,5,5,11,1,12,./stim/wavs/andalusian_match_declarative-narrow-focus_Emilio-ama-la-marcha.wav,./stim/wavs/argentine_match_declarative-narrow-focus_Emilio-ama-la-marcha.wav,./stim/wavs/castilian_match_declarative-narrow-focus_Emilio-ama-la-marcha.wav,./stim/wavs/chilean_match_declarative-narrow-focus_Emilio-ama-la-marcha.wav,./stim/wavs/cuban_match_declarative-narrow-focus_Emilio-ama-la-marcha.wav,./stim/wavs/mexican_match_declarative-narrow-focus_Emilio-ama-la-marcha.wav,./stim/wavs/peruvian_match_declarative-narrow-focus_Emilio-ama-la-marcha.wav,./stim/wavs/puertorican_match_declarative-narrow-focus_Emilio-ama-la-marcha.wav,,,,,,,,,,,,,,,,,,,,,,,,,,,,,,,,,,,,,,,,,,,,,,,,,,,,,,,,
,,,,,,,5727aecae386b9000f4000cd,60568611ec04488a9e9da93b,6056b518969601947a68554a,I am not familiar with Spanish,South,NA,no,2021-03-20_21h53.59.218,empathy_intonation_perc,2020.2.10,Win32,60,,,,,,,,,,1,peruvian,0,0,1.65015,0,6,6,23,1,24,./stim/wavs/andalusian_match_interrogative-partial-wh_Por-que-iba-a-Bolivia.wav,./stim/wavs/argentine_match_interrogative-partial-wh_Por-que-iba-a-Bolivia.wav,./stim/wavs/castilian_match_interrogative-partial-wh_Por-que-iba-a-Bolivia.wav,./stim/wavs/chilean_match_interrogative-partial-wh_Por-que-iba-a-Bolivia.wav,./stim/wavs/cuban_match_interrogative-partial-wh_Por-que-iba-a-Bolivia.wav,./stim/wavs/mexican_match_interrogative-partial-wh_Por-que-iba-a-Bolivia.wav,./stim/wavs/peruvian_match_interrogative-partial-wh_Por-que-iba-a-Bolivia.wav,./stim/wavs/puertorican_match_interrogative-partial-wh_Por-que-iba-a-Bolivia.wav,,,,,,,,,,,,,,,,,,,,,,,,,,,,,,,,,,,,,,,,,,,,,,,,,,,,,,,,
,,,,,,,5727aecae386b9000f4000cd,60568611ec04488a9e9da93b,6056b518969601947a68554a,I am not familiar with Spanish,South,NA,no,2021-03-20_21h53.59.218,empathy_intonation_perc,2020.2.10,Win32,60,,,,,,,,,,0,mexican,0,1,1.916765,0,7,7,37,1,38,./stim/wavs/andalusian_mismatch_declarative-broad-focus_Mi-madre-come-la-fruta.wav,./stim/wavs/argentine_mismatch_declarative-broad-focus_Mi-madre-come-la-fruta.wav,./stim/wavs/castilian_mismatch_declarative-broad-focus_Mi-madre-come-la-fruta.wav,./stim/wavs/chilean_mismatch_declarative-broad-focus_Mi-madre-come-la-fruta.wav,./stim/wavs/cuban_mismatch_declarative-broad-focus_Mi-madre-come-la-fruta.wav,./stim/wavs/mexican_mismatch_declarative-broad-focus_Mi-madre-come-la-fruta.wav,./stim/wavs/peruvian_mismatch_declarative-broad-focus_Mi-madre-come-la-fruta.wav,./stim/wavs/puertorican_mismatch_declarative-broad-focus_Mi-madre-come-la-fruta.wav,,,,,,,,,,,,,,,,,,,,,,,,,,,,,,,,,,,,,,,,,,,,,,,,,,,,,,,,
,,,,,,,5727aecae386b9000f4000cd,60568611ec04488a9e9da93b,6056b518969601947a68554a,I am not familiar with Spanish,South,NA,no,2021-03-20_21h53.59.218,empathy_intonation_perc,2020.2.10,Win32,60,,,,,,,,,,1,puertorican,1,1,1.5668,0,8,8,17,1,18,./stim/wavs/andalusian_match_interrogative-partial-wh_Cuando-leia-el-libro.wav,./stim/wavs/argentine_match_interrogative-partial-wh_Cuando-leia-el-libro.wav,./stim/wavs/castilian_match_interrogative-partial-wh_Cuando-leia-el-libro.wav,./stim/wavs/chilean_match_interrogative-partial-wh_Cuando-leia-el-libro.wav,./stim/wavs/cuban_match_interrogative-partial-wh_Cuando-leia-el-libro.wav,./stim/wavs/mexican_match_interrogative-partial-wh_Cuando-leia-el-libro.wav,./stim/wavs/peruvian_match_interrogative-partial-wh_Cuando-leia-el-libro.wav,./stim/wavs/puertorican_match_interrogative-partial-wh_Cuando-leia-el-libro.wav,,,,,,,,,,,,,,,,,,,,,,,,,,,,,,,,,,,,,,,,,,,,,,,,,,,,,,,,
,,,,,,,5727aecae386b9000f4000cd,60568611ec04488a9e9da93b,6056b518969601947a68554a,I am not familiar with Spanish,South,NA,no,2021-03-20_21h53.59.218,empathy_intonation_perc,2020.2.10,Win32,60,,,,,,,,,,0,mexican,0,1,1.568285,0,9,9,43,1,44,./stim/wavs/andalusian_mismatch_declarative-narrow-focus_La-maestra-vive-en-Paris.wav,./stim/wavs/argentine_mismatch_declarative-narrow-focus_La-maestra-vive-en-Paris.wav,./stim/wavs/castilian_mismatch_declarative-narrow-focus_La-maestra-vive-en-Paris.wav,./stim/wavs/chilean_mismatch_declarative-narrow-focus_La-maestra-vive-en-Paris.wav,./stim/wavs/cuban_mismatch_declarative-narrow-focus_La-maestra-vive-en-Paris.wav,./stim/wavs/mexican_mismatch_declarative-narrow-focus_La-maestra-vive-en-Paris.wav,./stim/wavs/peruvian_mismatch_declarative-narrow-focus_La-maestra-vive-en-Paris.wav,./stim/wavs/puertorican_mismatch_declarative-narrow-focus_La-maestra-vive-en-Paris.wav,,,,,,,,,,,,,,,,,,,,,,,,,,,,,,,,,,,,,,,,,,,,,,,,,,,,,,,,
,,,,,,,5727aecae386b9000f4000cd,60568611ec04488a9e9da93b,6056b518969601947a68554a,I am not familiar with Spanish,South,NA,no,2021-03-20_21h53.59.218,empathy_intonation_perc,2020.2.10,Win32,60,,,,,,,,,,0,castilian,0,1,1.783495,0,10,10,45,1,46,./stim/wavs/andalusian_mismatch_declarative-narrow-focus_Mi-madre-come-la-fruta.wav,./stim/wavs/argentine_mismatch_declarative-narrow-focus_Mi-madre-come-la-fruta.wav,./stim/wavs/castilian_mismatch_declarative-narrow-focus_Mi-madre-come-la-fruta.wav,./stim/wavs/chilean_mismatch_declarative-narrow-focus_Mi-madre-come-la-fruta.wav,./stim/wavs/cuban_mismatch_declarative-narrow-focus_Mi-madre-come-la-fruta.wav,./stim/wavs/mexican_mismatch_declarative-narrow-focus_Mi-madre-come-la-fruta.wav,./stim/wavs/peruvian_mismatch_declarative-narrow-focus_Mi-madre-come-la-fruta.wav,./stim/wavs/puertorican_mismatch_declarative-narrow-focus_Mi-madre-come-la-fruta.wav,,,,,,,,,,,,,,,,,,,,,,,,,,,,,,,,,,,,,,,,,,,,,,,,,,,,,,,,
,,,,,,,5727aecae386b9000f4000cd,60568611ec04488a9e9da93b,6056b518969601947a68554a,I am not familiar with Spanish,South,NA,no,2021-03-20_21h53.59.218,empathy_intonation_perc,2020.2.10,Win32,60,,,,,,,,,,1,castilian,1,1,1.676115,0,11,11,21,1,22,./stim/wavs/andalusian_match_interrogative-partial-wh_Por-que-ama-la-navidad.wav,./stim/wavs/argentine_match_interrogative-partial-wh_Por-que-ama-la-navidad.wav,./stim/wavs/castilian_match_interrogative-partial-wh_Por-que-ama-la-navidad.wav,./stim/wavs/chilean_match_interrogative-partial-wh_Por-que-ama-la-navidad.wav,./stim/wavs/cuban_match_interrogative-partial-wh_Por-que-ama-la-navidad.wav,./stim/wavs/mexican_match_interrogative-partial-wh_Por-que-ama-la-navidad.wav,./stim/wavs/peruvian_match_interrogative-partial-wh_Por-que-ama-la-navidad.wav,./stim/wavs/puertorican_match_interrogative-partial-wh_Por-que-ama-la-navidad.wav,,,,,,,,,,,,,,,,,,,,,,,,,,,,,,,,,,,,,,,,,,,,,,,,,,,,,,,,
,,,,,,,5727aecae386b9000f4000cd,60568611ec04488a9e9da93b,6056b518969601947a68554a,I am not familiar with Spanish,South,NA,no,2021-03-20_21h53.59.218,empathy_intonation_perc,2020.2.10,Win32,60,,,,,,,,,,1,argentine,1,1,1.710765,0,12,12,59,1,60,./stim/wavs/andalusian_mismatch_interrogative-total-yn_La-maestra-vive-en-Paris.wav,./stim/wavs/argentine_mismatch_interrogative-total-yn_La-maestra-vive-en-Paris.wav,./stim/wavs/castilian_mismatch_interrogative-total-yn_La-maestra-vive-en-Paris.wav,./stim/wavs/chilean_mismatch_interrogative-total-yn_La-maestra-vive-en-Paris.wav,./stim/wavs/cuban_mismatch_interrogative-total-yn_La-maestra-vive-en-Paris.wav,./stim/wavs/mexican_mismatch_interrogative-total-yn_La-maestra-vive-en-Paris.wav,./stim/wavs/peruvian_mismatch_interrogative-total-yn_La-maestra-vive-en-Paris.wav,./stim/wavs/puertorican_mismatch_interrogative-total-yn_La-maestra-vive-en-Paris.wav,,,,,,,,,,,,,,,,,,,,,,,,,,,,,,,,,,,,,,,,,,,,,,,,,,,,,,,,
,,,,,,,5727aecae386b9000f4000cd,60568611ec04488a9e9da93b,6056b518969601947a68554a,I am not familiar with Spanish,South,NA,no,2021-03-20_21h53.59.218,empathy_intonation_perc,2020.2.10,Win32,60,,,,,,,,,,0,argentine,0,1,1.907835,0,13,13,32,1,33,./stim/wavs/andalusian_mismatch_declarative-broad-focus_El-bebe-comia-muy-bien.wav,./stim/wavs/argentine_mismatch_declarative-broad-focus_El-bebe-comia-muy-bien.wav,./stim/wavs/castilian_mismatch_declarative-broad-focus_El-bebe-comia-muy-bien.wav,./stim/wavs/chilean_mismatch_declarative-broad-focus_El-bebe-comia-muy-bien.wav,./stim/wavs/cuban_mismatch_declarative-broad-focus_El-bebe-comia-muy-bien.wav,./stim/wavs/mexican_mismatch_declarative-broad-focus_El-bebe-comia-muy-bien.wav,./stim/wavs/peruvian_mismatch_declarative-broad-focus_El-bebe-comia-muy-bien.wav,./stim/wavs/puertorican_mismatch_declarative-broad-focus_El-bebe-comia-muy-bien.wav,,,,,,,,,,,,,,,,,,,,,,,,,,,,,,,,,,,,,,,,,,,,,,,,,,,,,,,,
,,,,,,,5727aecae386b9000f4000cd,60568611ec04488a9e9da93b,6056b518969601947a68554a,I am not familiar with Spanish,South,NA,no,2021-03-20_21h53.59.218,empathy_intonation_perc,2020.2.10,Win32,60,,,,,,,,,,0,puertorican,0,1,1.388825,0,14,14,41,1,42,./stim/wavs/andalusian_mismatch_declarative-narrow-focus_El-hombre-mira-la-luna.wav,./stim/wavs/argentine_mismatch_declarative-narrow-focus_El-hombre-mira-la-luna.wav,./stim/wavs/castilian_mismatch_declarative-narrow-focus_El-hombre-mira-la-luna.wav,./stim/wavs/chilean_mismatch_declarative-narrow-focus_El-hombre-mira-la-luna.wav,./stim/wavs/cuban_mismatch_declarative-narrow-focus_El-hombre-mira-la-luna.wav,./stim/wavs/mexican_mismatch_declarative-narrow-focus_El-hombre-mira-la-luna.wav,./stim/wavs/peruvian_mismatch_declarative-narrow-focus_El-hombre-mira-la-luna.wav,./stim/wavs/puertorican_mismatch_declarative-narrow-focus_El-hombre-mira-la-luna.wav,,,,,,,,,,,,,,,,,,,,,,,,,,,,,,,,,,,,,,,,,,,,,,,,,,,,,,,,
,,,,,,,5727aecae386b9000f4000cd,60568611ec04488a9e9da93b,6056b518969601947a68554a,I am not familiar with Spanish,South,NA,no,2021-03-20_21h53.59.218,empathy_intonation_perc,2020.2.10,Win32,60,,,,,,,,,,1,andalusian,0,0,1.4765,0,15,15,18,1,19,./stim/wavs/andalusian_match_interrogative-partial-wh_Cuando-lleva-el-abrigo.wav,./stim/wavs/argentine_match_interrogative-partial-wh_Cuando-lleva-el-abrigo.wav,./stim/wavs/castilian_match_interrogative-partial-wh_Cuando-lleva-el-abrigo.wav,./stim/wavs/chilean_match_interrogative-partial-wh_Cuando-lleva-el-abrigo.wav,./stim/wavs/cuban_match_interrogative-partial-wh_Cuando-lleva-el-abrigo.wav,./stim/wavs/mexican_match_interrogative-partial-wh_Cuando-lleva-el-abrigo.wav,./stim/wavs/peruvian_match_interrogative-partial-wh_Cuando-lleva-el-abrigo.wav,./stim/wavs/puertorican_match_interrogative-partial-wh_Cuando-lleva-el-abrigo.wav,,,,,,,,,,,,,,,,,,,,,,,,,,,,,,,,,,,,,,,,,,,,,,,,,,,,,,,,
,,,,,,,5727aecae386b9000f4000cd,60568611ec04488a9e9da93b,6056b518969601947a68554a,I am not familiar with Spanish,South,NA,no,2021-03-20_21h53.59.218,empathy_intonation_perc,2020.2.10,Win32,60,,,,,,,,,,0,andalusian,0,1,1.62289,0,16,16,2,1,3,./stim/wavs/andalusian_match_declarative-broad-focus_David-leia-el-libro.wav,./stim/wavs/argentine_match_declarative-broad-focus_David-leia-el-libro.wav,./stim/wavs/castilian_match_declarative-broad-focus_David-leia-el-libro.wav,./stim/wavs/chilean_match_declarative-broad-focus_David-leia-el-libro.wav,./stim/wavs/cuban_match_declarative-broad-focus_David-leia-el-libro.wav,./stim/wavs/mexican_match_declarative-broad-focus_David-leia-el-libro.wav,./stim/wavs/peruvian_match_declarative-broad-focus_David-leia-el-libro.wav,./stim/wavs/puertorican_match_declarative-broad-focus_David-leia-el-libro.wav,,,,,,,,,,,,,,,,,,,,,,,,,,,,,,,,,,,,,,,,,,,,,,,,,,,,,,,,
,,,,,,,5727aecae386b9000f4000cd,60568611ec04488a9e9da93b,6056b518969601947a68554a,I am not familiar with Spanish,South,NA,no,2021-03-20_21h53.59.218,empathy_intonation_perc,2020.2.10,Win32,60,,,,,,,,,,1,peruvian,1,1,1.96242,0,17,17,56,1,57,./stim/wavs/andalusian_mismatch_interrogative-total-yn_El-bebe-comia-muy-bien.wav,./stim/wavs/argentine_mismatch_interrogative-total-yn_El-bebe-comia-muy-bien.wav,./stim/wavs/castilian_mismatch_interrogative-total-yn_El-bebe-comia-muy-bien.wav,./stim/wavs/chilean_mismatch_interrogative-total-yn_El-bebe-comia-muy-bien.wav,./stim/wavs/cuban_mismatch_interrogative-total-yn_El-bebe-comia-muy-bien.wav,./stim/wavs/mexican_mismatch_interrogative-total-yn_El-bebe-comia-muy-bien.wav,./stim/wavs/peruvian_mismatch_interrogative-total-yn_El-bebe-comia-muy-bien.wav,./stim/wavs/puertorican_mismatch_interrogative-total-yn_El-bebe-comia-muy-bien.wav,,,,,,,,,,,,,,,,,,,,,,,,,,,,,,,,,,,,,,,,,,,,,,,,,,,,,,,,
,,,,,,,5727aecae386b9000f4000cd,60568611ec04488a9e9da93b,6056b518969601947a68554a,I am not familiar with Spanish,South,NA,no,2021-03-20_21h53.59.218,empathy_intonation_perc,2020.2.10,Win32,60,,,,,,,,,,1,castilian,1,1,1.70556,0,18,18,63,1,64,./stim/wavs/andalusian_mismatch_interrogative-total-yn_Mi-tia-odia-la-lluvia.wav,./stim/wavs/argentine_mismatch_interrogative-total-yn_Mi-tia-odia-la-lluvia.wav,./stim/wavs/castilian_mismatch_interrogative-total-yn_Mi-tia-odia-la-lluvia.wav,./stim/wavs/chilean_mismatch_interrogative-total-yn_Mi-tia-odia-la-lluvia.wav,./stim/wavs/cuban_mismatch_interrogative-total-yn_Mi-tia-odia-la-lluvia.wav,./stim/wavs/mexican_mismatch_interrogative-total-yn_Mi-tia-odia-la-lluvia.wav,./stim/wavs/peruvian_mismatch_interrogative-total-yn_Mi-tia-odia-la-lluvia.wav,./stim/wavs/puertorican_mismatch_interrogative-total-yn_Mi-tia-odia-la-lluvia.wav,,,,,,,,,,,,,,,,,,,,,,,,,,,,,,,,,,,,,,,,,,,,,,,,,,,,,,,,
,,,,,,,5727aecae386b9000f4000cd,60568611ec04488a9e9da93b,6056b518969601947a68554a,I am not familiar with Spanish,South,NA,no,2021-03-20_21h53.59.218,empathy_intonation_perc,2020.2.10,Win32,60,,,,,,,,,,1,peruvian,1,1,1.604345,0,19,19,58,1,59,./stim/wavs/andalusian_mismatch_interrogative-total-yn_El-nino-oye-el-rio.wav,./stim/wavs/argentine_mismatch_interrogative-total-yn_El-nino-oye-el-rio.wav,./stim/wavs/castilian_mismatch_interrogative-total-yn_El-nino-oye-el-rio.wav,./stim/wavs/chilean_mismatch_interrogative-total-yn_El-nino-oye-el-rio.wav,./stim/wavs/cuban_mismatch_interrogative-total-yn_El-nino-oye-el-rio.wav,./stim/wavs/mexican_mismatch_interrogative-total-yn_El-nino-oye-el-rio.wav,./stim/wavs/peruvian_mismatch_interrogative-total-yn_El-nino-oye-el-rio.wav,./stim/wavs/puertorican_mismatch_interrogative-total-yn_El-nino-oye-el-rio.wav,,,,,,,,,,,,,,,,,,,,,,,,,,,,,,,,,,,,,,,,,,,,,,,,,,,,,,,,
,,,,,,,5727aecae386b9000f4000cd,60568611ec04488a9e9da93b,6056b518969601947a68554a,I am not familiar with Spanish,South,NA,no,2021-03-20_21h53.59.218,empathy_intonation_perc,2020.2.10,Win32,60,,,,,,,,,,1,puertorican,0,0,1.7514,0,20,20,49,1,50,./stim/wavs/andalusian_mismatch_interrogative-partial-wh_Cuando-lavaba-el-plato.wav,./stim/wavs/argentine_mismatch_interrogative-partial-wh_Cuando-lavaba-el-plato.wav,./stim/wavs/castilian_mismatch_interrogative-partial-wh_Cuando-lavaba-el-plato.wav,./stim/wavs/chilean_mismatch_interrogative-partial-wh_Cuando-lavaba-el-plato.wav,./stim/wavs/cuban_mismatch_interrogative-partial-wh_Cuando-lavaba-el-plato.wav,./stim/wavs/mexican_mismatch_interrogative-partial-wh_Cuando-lavaba-el-plato.wav,./stim/wavs/peruvian_mismatch_interrogative-partial-wh_Cuando-lavaba-el-plato.wav,./stim/wavs/puertorican_mismatch_interrogative-partial-wh_Cuando-lavaba-el-plato.wav,,,,,,,,,,,,,,,,,,,,,,,,,,,,,,,,,,,,,,,,,,,,,,,,,,,,,,,,
,,,,,,,5727aecae386b9000f4000cd,60568611ec04488a9e9da93b,6056b518969601947a68554a,I am not familiar with Spanish,South,NA,no,2021-03-20_21h53.59.218,empathy_intonation_perc,2020.2.10,Win32,60,,,,,,,,,,1,andalusian,0,0,1.52577,0,21,21,52,1,53,./stim/wavs/andalusian_mismatch_interrogative-partial-wh_Por-que-odiaba-la-lluvia.wav,./stim/wavs/argentine_mismatch_interrogative-partial-wh_Por-que-odiaba-la-lluvia.wav,./stim/wavs/castilian_mismatch_interrogative-partial-wh_Por-que-odiaba-la-lluvia.wav,./stim/wavs/chilean_mismatch_interrogative-partial-wh_Por-que-odiaba-la-lluvia.wav,./stim/wavs/cuban_mismatch_interrogative-partial-wh_Por-que-odiaba-la-lluvia.wav,./stim/wavs/mexican_mismatch_interrogative-partial-wh_Por-que-odiaba-la-lluvia.wav,./stim/wavs/peruvian_mismatch_interrogative-partial-wh_Por-que-odiaba-la-lluvia.wav,./stim/wavs/puertorican_mismatch_interrogative-partial-wh_Por-que-odiaba-la-lluvia.wav,,,,,,,,,,,,,,,,,,,,,,,,,,,,,,,,,,,,,,,,,,,,,,,,,,,,,,,,
,,,,,,,5727aecae386b9000f4000cd,60568611ec04488a9e9da93b,6056b518969601947a68554a,I am not familiar with Spanish,South,NA,no,2021-03-20_21h53.59.218,empathy_intonation_perc,2020.2.10,Win32,60,,,,,,,,,,0,castilian,0,1,1.641705,0,22,22,12,1,13,./stim/wavs/andalusian_match_declarative-narrow-focus_Manuela-vende-el-carro.wav,./stim/wavs/argentine_match_declarative-narrow-focus_Manuela-vende-el-carro.wav,./stim/wavs/castilian_match_declarative-narrow-focus_Manuela-vende-el-carro.wav,./stim/wavs/chilean_match_declarative-narrow-focus_Manuela-vende-el-carro.wav,./stim/wavs/cuban_match_declarative-narrow-focus_Manuela-vende-el-carro.wav,./stim/wavs/mexican_match_declarative-narrow-focus_Manuela-vende-el-carro.wav,./stim/wavs/peruvian_match_declarative-narrow-focus_Manuela-vende-el-carro.wav,./stim/wavs/puertorican_match_declarative-narrow-focus_Manuela-vende-el-carro.wav,,,,,,,,,,,,,,,,,,,,,,,,,,,,,,,,,,,,,,,,,,,,,,,,,,,,,,,,
,,,,,,,5727aecae386b9000f4000cd,60568611ec04488a9e9da93b,6056b518969601947a68554a,I am not familiar with Spanish,South,NA,no,2021-03-20_21h53.59.218,empathy_intonation_perc,2020.2.10,Win32,60,,,,,,,,,,0,peruvian,0,1,1.599775,0,23,23,8,1,9,./stim/wavs/andalusian_match_declarative-narrow-focus_Ana-lleva-el-abrigo.wav,./stim/wavs/argentine_match_declarative-narrow-focus_Ana-lleva-el-abrigo.wav,./stim/wavs/castilian_match_declarative-narrow-focus_Ana-lleva-el-abrigo.wav,./stim/wavs/chilean_match_declarative-narrow-focus_Ana-lleva-el-abrigo.wav,./stim/wavs/cuban_match_declarative-narrow-focus_Ana-lleva-el-abrigo.wav,./stim/wavs/mexican_match_declarative-narrow-focus_Ana-lleva-el-abrigo.wav,./stim/wavs/peruvian_match_declarative-narrow-focus_Ana-lleva-el-abrigo.wav,./stim/wavs/puertorican_match_declarative-narrow-focus_Ana-lleva-el-abrigo.wav,,,,,,,,,,,,,,,,,,,,,,,,,,,,,,,,,,,,,,,,,,,,,,,,,,,,,,,,
,,,,,,,5727aecae386b9000f4000cd,60568611ec04488a9e9da93b,6056b518969601947a68554a,I am not familiar with Spanish,South,NA,no,2021-03-20_21h53.59.218,empathy_intonation_perc,2020.2.10,Win32,60,,,,,,,,,,1,puertorican,0,0,1.44236,0,24,24,25,1,26,./stim/wavs/andalusian_match_interrogative-total-yn_Daniel-iba-a-Bolivia.wav,./stim/wavs/argentine_match_interrogative-total-yn_Daniel-iba-a-Bolivia.wav,./stim/wavs/castilian_match_interrogative-total-yn_Daniel-iba-a-Bolivia.wav,./stim/wavs/chilean_match_interrogative-total-yn_Daniel-iba-a-Bolivia.wav,./stim/wavs/cuban_match_interrogative-total-yn_Daniel-iba-a-Bolivia.wav,./stim/wavs/mexican_match_interrogative-total-yn_Daniel-iba-a-Bolivia.wav,./stim/wavs/peruvian_match_interrogative-total-yn_Daniel-iba-a-Bolivia.wav,./stim/wavs/puertorican_match_interrogative-total-yn_Daniel-iba-a-Bolivia.wav,,,,,,,,,,,,,,,,,,,,,,,,,,,,,,,,,,,,,,,,,,,,,,,,,,,,,,,,
,,,,,,,5727aecae386b9000f4000cd,60568611ec04488a9e9da93b,6056b518969601947a68554a,I am not familiar with Spanish,South,NA,no,2021-03-20_21h53.59.218,empathy_intonation_perc,2020.2.10,Win32,60,,,,,,,,,,1,castilian,1,1,1.62658,0,25,25,48,1,49,./stim/wavs/andalusian_mismatch_interrogative-partial-wh_Cuando-comia-la-fruta.wav,./stim/wavs/argentine_mismatch_interrogative-partial-wh_Cuando-comia-la-fruta.wav,./stim/wavs/castilian_mismatch_interrogative-partial-wh_Cuando-comia-la-fruta.wav,./stim/wavs/chilean_mismatch_interrogative-partial-wh_Cuando-comia-la-fruta.wav,./stim/wavs/cuban_mismatch_interrogative-partial-wh_Cuando-comia-la-fruta.wav,./stim/wavs/mexican_mismatch_interrogative-partial-wh_Cuando-comia-la-fruta.wav,./stim/wavs/peruvian_mismatch_interrogative-partial-wh_Cuando-comia-la-fruta.wav,./stim/wavs/puertorican_mismatch_interrogative-partial-wh_Cuando-comia-la-fruta.wav,,,,,,,,,,,,,,,,,,,,,,,,,,,,,,,,,,,,,,,,,,,,,,,,,,,,,,,,
,,,,,,,5727aecae386b9000f4000cd,60568611ec04488a9e9da93b,6056b518969601947a68554a,I am not familiar with Spanish,South,NA,no,2021-03-20_21h53.59.218,empathy_intonation_perc,2020.2.10,Win32,60,,,,,,,,,,0,mexican,0,1,1.433935,0,26,26,0,1,1,./stim/wavs/andalusian_match_declarative-broad-focus_Ana-lleva-el-abrigo.wav,./stim/wavs/argentine_match_declarative-broad-focus_Ana-lleva-el-abrigo.wav,./stim/wavs/castilian_match_declarative-broad-focus_Ana-lleva-el-abrigo.wav,./stim/wavs/chilean_match_declarative-broad-focus_Ana-lleva-el-abrigo.wav,./stim/wavs/cuban_match_declarative-broad-focus_Ana-lleva-el-abrigo.wav,./stim/wavs/mexican_match_declarative-broad-focus_Ana-lleva-el-abrigo.wav,./stim/wavs/peruvian_match_declarative-broad-focus_Ana-lleva-el-abrigo.wav,./stim/wavs/puertorican_match_declarative-broad-focus_Ana-lleva-el-abrigo.wav,,,,,,,,,,,,,,,,,,,,,,,,,,,,,,,,,,,,,,,,,,,,,,,,,,,,,,,,
,,,,,,,5727aecae386b9000f4000cd,60568611ec04488a9e9da93b,6056b518969601947a68554a,I am not familiar with Spanish,South,NA,no,2021-03-20_21h53.59.218,empathy_intonation_perc,2020.2.10,Win32,60,,,,,,,,,,1,argentine,0,0,1.792325,0,27,27,24,1,25,./stim/wavs/andalusian_match_interrogative-total-yn_Ana-lleva-el-abrigo.wav,./stim/wavs/argentine_match_interrogative-total-yn_Ana-lleva-el-abrigo.wav,./stim/wavs/castilian_match_interrogative-total-yn_Ana-lleva-el-abrigo.wav,./stim/wavs/chilean_match_interrogative-total-yn_Ana-lleva-el-abrigo.wav,./stim/wavs/cuban_match_interrogative-total-yn_Ana-lleva-el-abrigo.wav,./stim/wavs/mexican_match_interrogative-total-yn_Ana-lleva-el-abrigo.wav,./stim/wavs/peruvian_match_interrogative-total-yn_Ana-lleva-el-abrigo.wav,./stim/wavs/puertorican_match_interrogative-total-yn_Ana-lleva-el-abrigo.wav,,,,,,,,,,,,,,,,,,,,,,,,,,,,,,,,,,,,,,,,,,,,,,,,,,,,,,,,
,,,,,,,5727aecae386b9000f4000cd,60568611ec04488a9e9da93b,6056b518969601947a68554a,I am not familiar with Spanish,South,NA,no,2021-03-20_21h53.59.218,empathy_intonation_perc,2020.2.10,Win32,60,,,,,,,,,,0,peruvian,0,1,1.607575,0,28,28,33,1,34,./stim/wavs/andalusian_mismatch_declarative-broad-focus_El-hombre-mira-la-luna.wav,./stim/wavs/argentine_mismatch_declarative-broad-focus_El-hombre-mira-la-luna.wav,./stim/wavs/castilian_mismatch_declarative-broad-focus_El-hombre-mira-la-luna.wav,./stim/wavs/chilean_mismatch_declarative-broad-focus_El-hombre-mira-la-luna.wav,./stim/wavs/cuban_mismatch_declarative-broad-focus_El-hombre-mira-la-luna.wav,./stim/wavs/mexican_mismatch_declarative-broad-focus_El-hombre-mira-la-luna.wav,./stim/wavs/peruvian_mismatch_declarative-broad-focus_El-hombre-mira-la-luna.wav,./stim/wavs/puertorican_mismatch_declarative-broad-focus_El-hombre-mira-la-luna.wav,,,,,,,,,,,,,,,,,,,,,,,,,,,,,,,,,,,,,,,,,,,,,,,,,,,,,,,,
,,,,,,,5727aecae386b9000f4000cd,60568611ec04488a9e9da93b,6056b518969601947a68554a,I am not familiar with Spanish,South,NA,no,2021-03-20_21h53.59.218,empathy_intonation_perc,2020.2.10,Win32,60,,,,,,,,,,1,chilean,1,1,1.76176,0,29,29,19,1,20,./stim/wavs/andalusian_match_interrogative-partial-wh_Cuando-vendia-el-carro.wav,./stim/wavs/argentine_match_interrogative-partial-wh_Cuando-vendia-el-carro.wav,./stim/wavs/castilian_match_interrogative-partial-wh_Cuando-vendia-el-carro.wav,./stim/wavs/chilean_match_interrogative-partial-wh_Cuando-vendia-el-carro.wav,./stim/wavs/cuban_match_interrogative-partial-wh_Cuando-vendia-el-carro.wav,./stim/wavs/mexican_match_interrogative-partial-wh_Cuando-vendia-el-carro.wav,./stim/wavs/peruvian_match_interrogative-partial-wh_Cuando-vendia-el-carro.wav,./stim/wavs/puertorican_match_interrogative-partial-wh_Cuando-vendia-el-carro.wav,,,,,,,,,,,,,,,,,,,,,,,,,,,,,,,,,,,,,,,,,,,,,,,,,,,,,,,,
,,,,,,,5727aecae386b9000f4000cd,60568611ec04488a9e9da93b,6056b518969601947a68554a,I am not familiar with Spanish,South,NA,no,2021-03-20_21h53.59.218,empathy_intonation_perc,2020.2.10,Win32,60,,,,,,,,,,0,cuban,0,1,1.61273,0,30,30,44,1,45,./stim/wavs/andalusian_mismatch_declarative-narrow-focus_La-nina-lava-el-plato.wav,./stim/wavs/argentine_mismatch_declarative-narrow-focus_La-nina-lava-el-plato.wav,./stim/wavs/castilian_mismatch_declarative-narrow-focus_La-nina-lava-el-plato.wav,./stim/wavs/chilean_mismatch_declarative-narrow-focus_La-nina-lava-el-plato.wav,./stim/wavs/cuban_mismatch_declarative-narrow-focus_La-nina-lava-el-plato.wav,./stim/wavs/mexican_mismatch_declarative-narrow-focus_La-nina-lava-el-plato.wav,./stim/wavs/peruvian_mismatch_declarative-narrow-focus_La-nina-lava-el-plato.wav,./stim/wavs/puertorican_mismatch_declarative-narrow-focus_La-nina-lava-el-plato.wav,,,,,,,,,,,,,,,,,,,,,,,,,,,,,,,,,,,,,,,,,,,,,,,,,,,,,,,,
,,,,,,,5727aecae386b9000f4000cd,60568611ec04488a9e9da93b,6056b518969601947a68554a,I am not familiar with Spanish,South,NA,no,2021-03-20_21h53.59.218,empathy_intonation_perc,2020.2.10,Win32,60,,,,,,,,,,1,mexican,1,1,1.784545,0,31,31,27,1,28,./stim/wavs/andalusian_match_interrogative-total-yn_Emilio-ama-la-marcha.wav,./stim/wavs/argentine_match_interrogative-total-yn_Emilio-ama-la-marcha.wav,./stim/wavs/castilian_match_interrogative-total-yn_Emilio-ama-la-marcha.wav,./stim/wavs/chilean_match_interrogative-total-yn_Emilio-ama-la-marcha.wav,./stim/wavs/cuban_match_interrogative-total-yn_Emilio-ama-la-marcha.wav,./stim/wavs/mexican_match_interrogative-total-yn_Emilio-ama-la-marcha.wav,./stim/wavs/peruvian_match_interrogative-total-yn_Emilio-ama-la-marcha.wav,./stim/wavs/puertorican_match_interrogative-total-yn_Emilio-ama-la-marcha.wav,,,,,,,,,,,,,,,,,,,,,,,,,,,,,,,,,,,,,,,,,,,,,,,,,,,,,,,,
,,,,,,,5727aecae386b9000f4000cd,60568611ec04488a9e9da93b,6056b518969601947a68554a,I am not familiar with Spanish,South,NA,no,2021-03-20_21h53.59.218,empathy_intonation_perc,2020.2.10,Win32,60,,,,,,,,,,1,chilean,1,1,1.43281,0,32,32,57,1,58,./stim/wavs/andalusian_mismatch_interrogative-total-yn_El-hombre-mira-la-luna.wav,./stim/wavs/argentine_mismatch_interrogative-total-yn_El-hombre-mira-la-luna.wav,./stim/wavs/castilian_mismatch_interrogative-total-yn_El-hombre-mira-la-luna.wav,./stim/wavs/chilean_mismatch_interrogative-total-yn_El-hombre-mira-la-luna.wav,./stim/wavs/cuban_mismatch_interrogative-total-yn_El-hombre-mira-la-luna.wav,./stim/wavs/mexican_mismatch_interrogative-total-yn_El-hombre-mira-la-luna.wav,./stim/wavs/peruvian_mismatch_interrogative-total-yn_El-hombre-mira-la-luna.wav,./stim/wavs/puertorican_mismatch_interrogative-total-yn_El-hombre-mira-la-luna.wav,,,,,,,,,,,,,,,,,,,,,,,,,,,,,,,,,,,,,,,,,,,,,,,,,,,,,,,,
,,,,,,,5727aecae386b9000f4000cd,60568611ec04488a9e9da93b,6056b518969601947a68554a,I am not familiar with Spanish,South,NA,no,2021-03-20_21h53.59.218,empathy_intonation_perc,2020.2.10,Win32,60,,,,,,,,,,0,mexican,0,1,1.50296,0,33,33,4,1,5,./stim/wavs/andalusian_match_declarative-broad-focus_Manuela-vende-el-carro.wav,./stim/wavs/argentine_match_declarative-broad-focus_Manuela-vende-el-carro.wav,./stim/wavs/castilian_match_declarative-broad-focus_Manuela-vende-el-carro.wav,./stim/wavs/chilean_match_declarative-broad-focus_Manuela-vende-el-carro.wav,./stim/wavs/cuban_match_declarative-broad-focus_Manuela-vende-el-carro.wav,./stim/wavs/mexican_match_declarative-broad-focus_Manuela-vende-el-carro.wav,./stim/wavs/peruvian_match_declarative-broad-focus_Manuela-vende-el-carro.wav,./stim/wavs/puertorican_match_declarative-broad-focus_Manuela-vende-el-carro.wav,,,,,,,,,,,,,,,,,,,,,,,,,,,,,,,,,,,,,,,,,,,,,,,,,,,,,,,,
,,,,,,,5727aecae386b9000f4000cd,60568611ec04488a9e9da93b,6056b518969601947a68554a,I am not familiar with Spanish,South,NA,no,2021-03-20_21h53.59.218,empathy_intonation_perc,2020.2.10,Win32,60,,,,,,,,,,1,cuban,0,0,1.47457,0,34,34,16,1,17,./stim/wavs/andalusian_match_interrogative-partial-wh_Cuando-bebia-el-vino.wav,./stim/wavs/argentine_match_interrogative-partial-wh_Cuando-bebia-el-vino.wav,./stim/wavs/castilian_match_interrogative-partial-wh_Cuando-bebia-el-vino.wav,./stim/wavs/chilean_match_interrogative-partial-wh_Cuando-bebia-el-vino.wav,./stim/wavs/cuban_match_interrogative-partial-wh_Cuando-bebia-el-vino.wav,./stim/wavs/mexican_match_interrogative-partial-wh_Cuando-bebia-el-vino.wav,./stim/wavs/peruvian_match_interrogative-partial-wh_Cuando-bebia-el-vino.wav,./stim/wavs/puertorican_match_interrogative-partial-wh_Cuando-bebia-el-vino.wav,,,,,,,,,,,,,,,,,,,,,,,,,,,,,,,,,,,,,,,,,,,,,,,,,,,,,,,,
,,,,,,,5727aecae386b9000f4000cd,60568611ec04488a9e9da93b,6056b518969601947a68554a,I am not familiar with Spanish,South,NA,no,2021-03-20_21h53.59.218,empathy_intonation_perc,2020.2.10,Win32,60,,,,,,,,,,0,andalusian,0,1,1.98081,0,35,35,14,1,15,./stim/wavs/andalusian_match_declarative-narrow-focus_Mariano-habla-del-tiempo.wav,./stim/wavs/argentine_match_declarative-narrow-focus_Mariano-habla-del-tiempo.wav,./stim/wavs/castilian_match_declarative-narrow-focus_Mariano-habla-del-tiempo.wav,./stim/wavs/chilean_match_declarative-narrow-focus_Mariano-habla-del-tiempo.wav,./stim/wavs/cuban_match_declarative-narrow-focus_Mariano-habla-del-tiempo.wav,./stim/wavs/mexican_match_declarative-narrow-focus_Mariano-habla-del-tiempo.wav,./stim/wavs/peruvian_match_declarative-narrow-focus_Mariano-habla-del-tiempo.wav,./stim/wavs/puertorican_match_declarative-narrow-focus_Mariano-habla-del-tiempo.wav,,,,,,,,,,,,,,,,,,,,,,,,,,,,,,,,,,,,,,,,,,,,,,,,,,,,,,,,
,,,,,,,5727aecae386b9000f4000cd,60568611ec04488a9e9da93b,6056b518969601947a68554a,I am not familiar with Spanish,South,NA,no,2021-03-20_21h53.59.218,empathy_intonation_perc,2020.2.10,Win32,60,,,,,,,,,,0,puertorican,0,1,1.56722,0,36,36,13,1,14,./stim/wavs/andalusian_match_declarative-narrow-focus_Maria-bebe-el-vino.wav,./stim/wavs/argentine_match_declarative-narrow-focus_Maria-bebe-el-vino.wav,./stim/wavs/castilian_match_declarative-narrow-focus_Maria-bebe-el-vino.wav,./stim/wavs/chilean_match_declarative-narrow-focus_Maria-bebe-el-vino.wav,./stim/wavs/cuban_match_declarative-narrow-focus_Maria-bebe-el-vino.wav,./stim/wavs/mexican_match_declarative-narrow-focus_Maria-bebe-el-vino.wav,./stim/wavs/peruvian_match_declarative-narrow-focus_Maria-bebe-el-vino.wav,./stim/wavs/puertorican_match_declarative-narrow-focus_Maria-bebe-el-vino.wav,,,,,,,,,,,,,,,,,,,,,,,,,,,,,,,,,,,,,,,,,,,,,,,,,,,,,,,,
,,,,,,,5727aecae386b9000f4000cd,60568611ec04488a9e9da93b,6056b518969601947a68554a,I am not familiar with Spanish,South,NA,no,2021-03-20_21h53.59.218,empathy_intonation_perc,2020.2.10,Win32,60,,,,,,,,,,0,andalusian,0,1,1.69958,0,37,37,42,1,43,./stim/wavs/andalusian_mismatch_declarative-narrow-focus_El-nino-oye-el-rio.wav,./stim/wavs/argentine_mismatch_declarative-narrow-focus_El-nino-oye-el-rio.wav,./stim/wavs/castilian_mismatch_declarative-narrow-focus_El-nino-oye-el-rio.wav,./stim/wavs/chilean_mismatch_declarative-narrow-focus_El-nino-oye-el-rio.wav,./stim/wavs/cuban_mismatch_declarative-narrow-focus_El-nino-oye-el-rio.wav,./stim/wavs/mexican_mismatch_declarative-narrow-focus_El-nino-oye-el-rio.wav,./stim/wavs/peruvian_mismatch_declarative-narrow-focus_El-nino-oye-el-rio.wav,./stim/wavs/puertorican_mismatch_declarative-narrow-focus_El-nino-oye-el-rio.wav,,,,,,,,,,,,,,,,,,,,,,,,,,,,,,,,,,,,,,,,,,,,,,,,,,,,,,,,
,,,,,,,5727aecae386b9000f4000cd,60568611ec04488a9e9da93b,6056b518969601947a68554a,I am not familiar with Spanish,South,NA,no,2021-03-20_21h53.59.218,empathy_intonation_perc,2020.2.10,Win32,60,,,,,,,,,,0,peruvian,0,1,1.684275,0,38,38,7,1,8,./stim/wavs/andalusian_match_declarative-broad-focus_Marta-abre-el-regalo.wav,./stim/wavs/argentine_match_declarative-broad-focus_Marta-abre-el-regalo.wav,./stim/wavs/castilian_match_declarative-broad-focus_Marta-abre-el-regalo.wav,./stim/wavs/chilean_match_declarative-broad-focus_Marta-abre-el-regalo.wav,./stim/wavs/cuban_match_declarative-broad-focus_Marta-abre-el-regalo.wav,./stim/wavs/mexican_match_declarative-broad-focus_Marta-abre-el-regalo.wav,./stim/wavs/peruvian_match_declarative-broad-focus_Marta-abre-el-regalo.wav,./stim/wavs/puertorican_match_declarative-broad-focus_Marta-abre-el-regalo.wav,,,,,,,,,,,,,,,,,,,,,,,,,,,,,,,,,,,,,,,,,,,,,,,,,,,,,,,,
,,,,,,,5727aecae386b9000f4000cd,60568611ec04488a9e9da93b,6056b518969601947a68554a,I am not familiar with Spanish,South,NA,no,2021-03-20_21h53.59.218,empathy_intonation_perc,2020.2.10,Win32,60,,,,,,,,,,0,andalusian,0,1,1.50027,0,39,39,3,1,4,./stim/wavs/andalusian_match_declarative-broad-focus_Emilio-ama-la-marcha.wav,./stim/wavs/argentine_match_declarative-broad-focus_Emilio-ama-la-marcha.wav,./stim/wavs/castilian_match_declarative-broad-focus_Emilio-ama-la-marcha.wav,./stim/wavs/chilean_match_declarative-broad-focus_Emilio-ama-la-marcha.wav,./stim/wavs/cuban_match_declarative-broad-focus_Emilio-ama-la-marcha.wav,./stim/wavs/mexican_match_declarative-broad-focus_Emilio-ama-la-marcha.wav,./stim/wavs/peruvian_match_declarative-broad-focus_Emilio-ama-la-marcha.wav,./stim/wavs/puertorican_match_declarative-broad-focus_Emilio-ama-la-marcha.wav,,,,,,,,,,,,,,,,,,,,,,,,,,,,,,,,,,,,,,,,,,,,,,,,,,,,,,,,
,,,,,,,5727aecae386b9000f4000cd,60568611ec04488a9e9da93b,6056b518969601947a68554a,I am not familiar with Spanish,South,NA,no,2021-03-20_21h53.59.218,empathy_intonation_perc,2020.2.10,Win32,60,,,,,,,,,,1,peruvian,0,0,1.68199,0,40,40,53,1,54,./stim/wavs/andalusian_mismatch_interrogative-partial-wh_Por-que-oia-el-rio.wav,./stim/wavs/argentine_mismatch_interrogative-partial-wh_Por-que-oia-el-rio.wav,./stim/wavs/castilian_mismatch_interrogative-partial-wh_Por-que-oia-el-rio.wav,./stim/wavs/chilean_mismatch_interrogative-partial-wh_Por-que-oia-el-rio.wav,./stim/wavs/cuban_mismatch_interrogative-partial-wh_Por-que-oia-el-rio.wav,./stim/wavs/mexican_mismatch_interrogative-partial-wh_Por-que-oia-el-rio.wav,./stim/wavs/peruvian_mismatch_interrogative-partial-wh_Por-que-oia-el-rio.wav,./stim/wavs/puertorican_mismatch_interrogative-partial-wh_Por-que-oia-el-rio.wav,,,,,,,,,,,,,,,,,,,,,,,,,,,,,,,,,,,,,,,,,,,,,,,,,,,,,,,,
,,,,,,,5727aecae386b9000f4000cd,60568611ec04488a9e9da93b,6056b518969601947a68554a,I am not familiar with Spanish,South,NA,no,2021-03-20_21h53.59.218,empathy_intonation_perc,2020.2.10,Win32,60,,,,,,,,,,1,chilean,1,1,1.583865,0,41,41,62,1,63,./stim/wavs/andalusian_mismatch_interrogative-total-yn_Mi-novio-viene-del-lago.wav,./stim/wavs/argentine_mismatch_interrogative-total-yn_Mi-novio-viene-del-lago.wav,./stim/wavs/castilian_mismatch_interrogative-total-yn_Mi-novio-viene-del-lago.wav,./stim/wavs/chilean_mismatch_interrogative-total-yn_Mi-novio-viene-del-lago.wav,./stim/wavs/cuban_mismatch_interrogative-total-yn_Mi-novio-viene-del-lago.wav,./stim/wavs/mexican_mismatch_interrogative-total-yn_Mi-novio-viene-del-lago.wav,./stim/wavs/peruvian_mismatch_interrogative-total-yn_Mi-novio-viene-del-lago.wav,./stim/wavs/puertorican_mismatch_interrogative-total-yn_Mi-novio-viene-del-lago.wav,,,,,,,,,,,,,,,,,,,,,,,,,,,,,,,,,,,,,,,,,,,,,,,,,,,,,,,,
,,,,,,,5727aecae386b9000f4000cd,60568611ec04488a9e9da93b,6056b518969601947a68554a,I am not familiar with Spanish,South,NA,no,2021-03-20_21h53.59.218,empathy_intonation_perc,2020.2.10,Win32,60,,,,,,,,,,0,cuban,0,1,1.671865,0,42,42,35,1,36,./stim/wavs/andalusian_mismatch_declarative-broad-focus_La-maestra-vive-en-Paris.wav,./stim/wavs/argentine_mismatch_declarative-broad-focus_La-maestra-vive-en-Paris.wav,./stim/wavs/castilian_mismatch_declarative-broad-focus_La-maestra-vive-en-Paris.wav,./stim/wavs/chilean_mismatch_declarative-broad-focus_La-maestra-vive-en-Paris.wav,./stim/wavs/cuban_mismatch_declarative-broad-focus_La-maestra-vive-en-Paris.wav,./stim/wavs/mexican_mismatch_declarative-broad-focus_La-maestra-vive-en-Paris.wav,./stim/wavs/peruvian_mismatch_declarative-broad-focus_La-maestra-vive-en-Paris.wav,./stim/wavs/puertorican_mismatch_declarative-broad-focus_La-maestra-vive-en-Paris.wav,,,,,,,,,,,,,,,,,,,,,,,,,,,,,,,,,,,,,,,,,,,,,,,,,,,,,,,,
,,,,,,,5727aecae386b9000f4000cd,60568611ec04488a9e9da93b,6056b518969601947a68554a,I am not familiar with Spanish,South,NA,no,2021-03-20_21h53.59.218,empathy_intonation_perc,2020.2.10,Win32,60,,,,,,,,,,0,mexican,0,1,1.54397,0,43,43,40,1,41,./stim/wavs/andalusian_mismatch_declarative-narrow-focus_El-bebe-comia-muy-bien.wav,./stim/wavs/argentine_mismatch_declarative-narrow-focus_El-bebe-comia-muy-bien.wav,./stim/wavs/castilian_mismatch_declarative-narrow-focus_El-bebe-comia-muy-bien.wav,./stim/wavs/chilean_mismatch_declarative-narrow-focus_El-bebe-comia-muy-bien.wav,./stim/wavs/cuban_mismatch_declarative-narrow-focus_El-bebe-comia-muy-bien.wav,./stim/wavs/mexican_mismatch_declarative-narrow-focus_El-bebe-comia-muy-bien.wav,./stim/wavs/peruvian_mismatch_declarative-narrow-focus_El-bebe-comia-muy-bien.wav,./stim/wavs/puertorican_mismatch_declarative-narrow-focus_El-bebe-comia-muy-bien.wav,,,,,,,,,,,,,,,,,,,,,,,,,,,,,,,,,,,,,,,,,,,,,,,,,,,,,,,,
,,,,,,,5727aecae386b9000f4000cd,60568611ec04488a9e9da93b,6056b518969601947a68554a,I am not familiar with Spanish,South,NA,no,2021-03-20_21h53.59.218,empathy_intonation_perc,2020.2.10,Win32,60,,,,,,,,,,1,puertorican,0,0,1.51804,0,44,44,54,1,55,./stim/wavs/andalusian_mismatch_interrogative-partial-wh_Por-que-venia-del-lago.wav,./stim/wavs/argentine_mismatch_interrogative-partial-wh_Por-que-venia-del-lago.wav,./stim/wavs/castilian_mismatch_interrogative-partial-wh_Por-que-venia-del-lago.wav,./stim/wavs/chilean_mismatch_interrogative-partial-wh_Por-que-venia-del-lago.wav,./stim/wavs/cuban_mismatch_interrogative-partial-wh_Por-que-venia-del-lago.wav,./stim/wavs/mexican_mismatch_interrogative-partial-wh_Por-que-venia-del-lago.wav,./stim/wavs/peruvian_mismatch_interrogative-partial-wh_Por-que-venia-del-lago.wav,./stim/wavs/puertorican_mismatch_interrogative-partial-wh_Por-que-venia-del-lago.wav,,,,,,,,,,,,,,,,,,,,,,,,,,,,,,,,,,,,,,,,,,,,,,,,,,,,,,,,
,,,,,,,5727aecae386b9000f4000cd,60568611ec04488a9e9da93b,6056b518969601947a68554a,I am not familiar with Spanish,South,NA,no,2021-03-20_21h53.59.218,empathy_intonation_perc,2020.2.10,Win32,60,,,,,,,,,,1,cuban,0,0,1.54026,0,45,45,51,1,52,./stim/wavs/andalusian_mismatch_interrogative-partial-wh_Por-que-desayuna-muy-bien.wav,./stim/wavs/argentine_mismatch_interrogative-partial-wh_Por-que-desayuna-muy-bien.wav,./stim/wavs/castilian_mismatch_interrogative-partial-wh_Por-que-desayuna-muy-bien.wav,./stim/wavs/chilean_mismatch_interrogative-partial-wh_Por-que-desayuna-muy-bien.wav,./stim/wavs/cuban_mismatch_interrogative-partial-wh_Por-que-desayuna-muy-bien.wav,./stim/wavs/mexican_mismatch_interrogative-partial-wh_Por-que-desayuna-muy-bien.wav,./stim/wavs/peruvian_mismatch_interrogative-partial-wh_Por-que-desayuna-muy-bien.wav,./stim/wavs/puertorican_mismatch_interrogative-partial-wh_Por-que-desayuna-muy-bien.wav,,,,,,,,,,,,,,,,,,,,,,,,,,,,,,,,,,,,,,,,,,,,,,,,,,,,,,,,
,,,,,,,5727aecae386b9000f4000cd,60568611ec04488a9e9da93b,6056b518969601947a68554a,I am not familiar with Spanish,South,NA,no,2021-03-20_21h53.59.218,empathy_intonation_perc,2020.2.10,Win32,60,,,,,,,,,,0,puertorican,0,1,1.723335,0,46,46,1,1,2,./stim/wavs/andalusian_match_declarative-broad-focus_Daniel-iba-a-Bolivia.wav,./stim/wavs/argentine_match_declarative-broad-focus_Daniel-iba-a-Bolivia.wav,./stim/wavs/castilian_match_declarative-broad-focus_Daniel-iba-a-Bolivia.wav,./stim/wavs/chilean_match_declarative-broad-focus_Daniel-iba-a-Bolivia.wav,./stim/wavs/cuban_match_declarative-broad-focus_Daniel-iba-a-Bolivia.wav,./stim/wavs/mexican_match_declarative-broad-focus_Daniel-iba-a-Bolivia.wav,./stim/wavs/peruvian_match_declarative-broad-focus_Daniel-iba-a-Bolivia.wav,./stim/wavs/puertorican_match_declarative-broad-focus_Daniel-iba-a-Bolivia.wav,,,,,,,,,,,,,,,,,,,,,,,,,,,,,,,,,,,,,,,,,,,,,,,,,,,,,,,,
,,,,,,,5727aecae386b9000f4000cd,60568611ec04488a9e9da93b,6056b518969601947a68554a,I am not familiar with Spanish,South,NA,no,2021-03-20_21h53.59.218,empathy_intonation_perc,2020.2.10,Win32,60,,,,,,,,,,1,argentine,0,0,3.269,0,47,47,61,1,62,./stim/wavs/andalusian_mismatch_interrogative-total-yn_Mi-madre-come-la-fruta.wav,./stim/wavs/argentine_mismatch_interrogative-total-yn_Mi-madre-come-la-fruta.wav,./stim/wavs/castilian_mismatch_interrogative-total-yn_Mi-madre-come-la-fruta.wav,./stim/wavs/chilean_mismatch_interrogative-total-yn_Mi-madre-come-la-fruta.wav,./stim/wavs/cuban_mismatch_interrogative-total-yn_Mi-madre-come-la-fruta.wav,./stim/wavs/mexican_mismatch_interrogative-total-yn_Mi-madre-come-la-fruta.wav,./stim/wavs/peruvian_mismatch_interrogative-total-yn_Mi-madre-come-la-fruta.wav,./stim/wavs/puertorican_mismatch_interrogative-total-yn_Mi-madre-come-la-fruta.wav,,,,,,,,,,,,,,,,,,,,,,,,,,,,,,,,,,,,,,,,,,,,,,,,,,,,,,,,
,,,,,,,5727aecae386b9000f4000cd,60568611ec04488a9e9da93b,6056b518969601947a68554a,I am not familiar with Spanish,South,NA,no,2021-03-20_21h53.59.218,empathy_intonation_perc,2020.2.10,Win32,60,,,,,,,,,,1,mexican,1,1,2.22452,0,48,48,60,1,61,./stim/wavs/andalusian_mismatch_interrogative-total-yn_La-nina-lava-el-plato.wav,./stim/wavs/argentine_mismatch_interrogative-total-yn_La-nina-lava-el-plato.wav,./stim/wavs/castilian_mismatch_interrogative-total-yn_La-nina-lava-el-plato.wav,./stim/wavs/chilean_mismatch_interrogative-total-yn_La-nina-lava-el-plato.wav,./stim/wavs/cuban_mismatch_interrogative-total-yn_La-nina-lava-el-plato.wav,./stim/wavs/mexican_mismatch_interrogative-total-yn_La-nina-lava-el-plato.wav,./stim/wavs/peruvian_mismatch_interrogative-total-yn_La-nina-lava-el-plato.wav,./stim/wavs/puertorican_mismatch_interrogative-total-yn_La-nina-lava-el-plato.wav,,,,,,,,,,,,,,,,,,,,,,,,,,,,,,,,,,,,,,,,,,,,,,,,,,,,,,,,
,,,,,,,5727aecae386b9000f4000cd,60568611ec04488a9e9da93b,6056b518969601947a68554a,I am not familiar with Spanish,South,NA,no,2021-03-20_21h53.59.218,empathy_intonation_perc,2020.2.10,Win32,60,,,,,,,,,,0,peruvian,0,1,1.91766,0,49,49,15,1,16,./stim/wavs/andalusian_match_declarative-narrow-focus_Marta-abre-el-regalo.wav,./stim/wavs/argentine_match_declarative-narrow-focus_Marta-abre-el-regalo.wav,./stim/wavs/castilian_match_declarative-narrow-focus_Marta-abre-el-regalo.wav,./stim/wavs/chilean_match_declarative-narrow-focus_Marta-abre-el-regalo.wav,./stim/wavs/cuban_match_declarative-narrow-focus_Marta-abre-el-regalo.wav,./stim/wavs/mexican_match_declarative-narrow-focus_Marta-abre-el-regalo.wav,./stim/wavs/peruvian_match_declarative-narrow-focus_Marta-abre-el-regalo.wav,./stim/wavs/puertorican_match_declarative-narrow-focus_Marta-abre-el-regalo.wav,,,,,,,,,,,,,,,,,,,,,,,,,,,,,,,,,,,,,,,,,,,,,,,,,,,,,,,,
,,,,,,,5727aecae386b9000f4000cd,60568611ec04488a9e9da93b,6056b518969601947a68554a,I am not familiar with Spanish,South,NA,no,2021-03-20_21h53.59.218,empathy_intonation_perc,2020.2.10,Win32,60,,,,,,,,,,1,cuban,0,0,1.640885,0,50,50,55,1,56,./stim/wavs/andalusian_mismatch_interrogative-partial-wh_Por-que-vivia-en-Paris.wav,./stim/wavs/argentine_mismatch_interrogative-partial-wh_Por-que-vivia-en-Paris.wav,./stim/wavs/castilian_mismatch_interrogative-partial-wh_Por-que-vivia-en-Paris.wav,./stim/wavs/chilean_mismatch_interrogative-partial-wh_Por-que-vivia-en-Paris.wav,./stim/wavs/cuban_mismatch_interrogative-partial-wh_Por-que-vivia-en-Paris.wav,./stim/wavs/mexican_mismatch_interrogative-partial-wh_Por-que-vivia-en-Paris.wav,./stim/wavs/peruvian_mismatch_interrogative-partial-wh_Por-que-vivia-en-Paris.wav,./stim/wavs/puertorican_mismatch_interrogative-partial-wh_Por-que-vivia-en-Paris.wav,,,,,,,,,,,,,,,,,,,,,,,,,,,,,,,,,,,,,,,,,,,,,,,,,,,,,,,,
,,,,,,,5727aecae386b9000f4000cd,60568611ec04488a9e9da93b,6056b518969601947a68554a,I am not familiar with Spanish,South,NA,no,2021-03-20_21h53.59.218,empathy_intonation_perc,2020.2.10,Win32,60,,,,,,,,,,1,cuban,0,0,2.03454,0,51,51,31,1,32,./stim/wavs/andalusian_match_interrogative-total-yn_Marta-abre-el-regalo.wav,./stim/wavs/argentine_match_interrogative-total-yn_Marta-abre-el-regalo.wav,./stim/wavs/castilian_match_interrogative-total-yn_Marta-abre-el-regalo.wav,./stim/wavs/chilean_match_interrogative-total-yn_Marta-abre-el-regalo.wav,./stim/wavs/cuban_match_interrogative-total-yn_Marta-abre-el-regalo.wav,./stim/wavs/mexican_match_interrogative-total-yn_Marta-abre-el-regalo.wav,./stim/wavs/peruvian_match_interrogative-total-yn_Marta-abre-el-regalo.wav,./stim/wavs/puertorican_match_interrogative-total-yn_Marta-abre-el-regalo.wav,,,,,,,,,,,,,,,,,,,,,,,,,,,,,,,,,,,,,,,,,,,,,,,,,,,,,,,,
,,,,,,,5727aecae386b9000f4000cd,60568611ec04488a9e9da93b,6056b518969601947a68554a,I am not familiar with Spanish,South,NA,no,2021-03-20_21h53.59.218,empathy_intonation_perc,2020.2.10,Win32,60,,,,,,,,,,0,andalusian,0,1,1.60252,0,52,52,46,1,47,./stim/wavs/andalusian_mismatch_declarative-narrow-focus_Mi-novio-viene-del-lago.wav,./stim/wavs/argentine_mismatch_declarative-narrow-focus_Mi-novio-viene-del-lago.wav,./stim/wavs/castilian_mismatch_declarative-narrow-focus_Mi-novio-viene-del-lago.wav,./stim/wavs/chilean_mismatch_declarative-narrow-focus_Mi-novio-viene-del-lago.wav,./stim/wavs/cuban_mismatch_declarative-narrow-focus_Mi-novio-viene-del-lago.wav,./stim/wavs/mexican_mismatch_declarative-narrow-focus_Mi-novio-viene-del-lago.wav,./stim/wavs/peruvian_mismatch_declarative-narrow-focus_Mi-novio-viene-del-lago.wav,./stim/wavs/puertorican_mismatch_declarative-narrow-focus_Mi-novio-viene-del-lago.wav,,,,,,,,,,,,,,,,,,,,,,,,,,,,,,,,,,,,,,,,,,,,,,,,,,,,,,,,
,,,,,,,5727aecae386b9000f4000cd,60568611ec04488a9e9da93b,6056b518969601947a68554a,I am not familiar with Spanish,South,NA,no,2021-03-20_21h53.59.218,empathy_intonation_perc,2020.2.10,Win32,60,,,,,,,,,,0,chilean,0,1,1.41975,0,53,53,10,1,11,./stim/wavs/andalusian_match_declarative-narrow-focus_David-leia-el-libro.wav,./stim/wavs/argentine_match_declarative-narrow-focus_David-leia-el-libro.wav,./stim/wavs/castilian_match_declarative-narrow-focus_David-leia-el-libro.wav,./stim/wavs/chilean_match_declarative-narrow-focus_David-leia-el-libro.wav,./stim/wavs/cuban_match_declarative-narrow-focus_David-leia-el-libro.wav,./stim/wavs/mexican_match_declarative-narrow-focus_David-leia-el-libro.wav,./stim/wavs/peruvian_match_declarative-narrow-focus_David-leia-el-libro.wav,./stim/wavs/puertorican_match_declarative-narrow-focus_David-leia-el-libro.wav,,,,,,,,,,,,,,,,,,,,,,,,,,,,,,,,,,,,,,,,,,,,,,,,,,,,,,,,
,,,,,,,5727aecae386b9000f4000cd,60568611ec04488a9e9da93b,6056b518969601947a68554a,I am not familiar with Spanish,South,NA,no,2021-03-20_21h53.59.218,empathy_intonation_perc,2020.2.10,Win32,60,,,,,,,,,,0,mexican,0,1,1.726425,0,54,54,9,1,10,./stim/wavs/andalusian_match_declarative-narrow-focus_Daniel-iba-a-Bolivia.wav,./stim/wavs/argentine_match_declarative-narrow-focus_Daniel-iba-a-Bolivia.wav,./stim/wavs/castilian_match_declarative-narrow-focus_Daniel-iba-a-Bolivia.wav,./stim/wavs/chilean_match_declarative-narrow-focus_Daniel-iba-a-Bolivia.wav,./stim/wavs/cuban_match_declarative-narrow-focus_Daniel-iba-a-Bolivia.wav,./stim/wavs/mexican_match_declarative-narrow-focus_Daniel-iba-a-Bolivia.wav,./stim/wavs/peruvian_match_declarative-narrow-focus_Daniel-iba-a-Bolivia.wav,./stim/wavs/puertorican_match_declarative-narrow-focus_Daniel-iba-a-Bolivia.wav,,,,,,,,,,,,,,,,,,,,,,,,,,,,,,,,,,,,,,,,,,,,,,,,,,,,,,,,
,,,,,,,5727aecae386b9000f4000cd,60568611ec04488a9e9da93b,6056b518969601947a68554a,I am not familiar with Spanish,South,NA,no,2021-03-20_21h53.59.218,empathy_intonation_perc,2020.2.10,Win32,60,,,,,,,,,,0,puertorican,0,1,1.6832,0,55,55,39,1,40,./stim/wavs/andalusian_mismatch_declarative-broad-focus_Mi-tia-odia-la-lluvia.wav,./stim/wavs/argentine_mismatch_declarative-broad-focus_Mi-tia-odia-la-lluvia.wav,./stim/wavs/castilian_mismatch_declarative-broad-focus_Mi-tia-odia-la-lluvia.wav,./stim/wavs/chilean_mismatch_declarative-broad-focus_Mi-tia-odia-la-lluvia.wav,./stim/wavs/cuban_mismatch_declarative-broad-focus_Mi-tia-odia-la-lluvia.wav,./stim/wavs/mexican_mismatch_declarative-broad-focus_Mi-tia-odia-la-lluvia.wav,./stim/wavs/peruvian_mismatch_declarative-broad-focus_Mi-tia-odia-la-lluvia.wav,./stim/wavs/puertorican_mismatch_declarative-broad-focus_Mi-tia-odia-la-lluvia.wav,,,,,,,,,,,,,,,,,,,,,,,,,,,,,,,,,,,,,,,,,,,,,,,,,,,,,,,,
,,,,,,,5727aecae386b9000f4000cd,60568611ec04488a9e9da93b,6056b518969601947a68554a,I am not familiar with Spanish,South,NA,no,2021-03-20_21h53.59.218,empathy_intonation_perc,2020.2.10,Win32,60,,,,,,,,,,1,chilean,1,1,1.53847,0,56,56,50,1,51,./stim/wavs/andalusian_mismatch_interrogative-partial-wh_Cuando-miraba-la-luna.wav,./stim/wavs/argentine_mismatch_interrogative-partial-wh_Cuando-miraba-la-luna.wav,./stim/wavs/castilian_mismatch_interrogative-partial-wh_Cuando-miraba-la-luna.wav,./stim/wavs/chilean_mismatch_interrogative-partial-wh_Cuando-miraba-la-luna.wav,./stim/wavs/cuban_mismatch_interrogative-partial-wh_Cuando-miraba-la-luna.wav,./stim/wavs/mexican_mismatch_interrogative-partial-wh_Cuando-miraba-la-luna.wav,./stim/wavs/peruvian_mismatch_interrogative-partial-wh_Cuando-miraba-la-luna.wav,./stim/wavs/puertorican_mismatch_interrogative-partial-wh_Cuando-miraba-la-luna.wav,,,,,,,,,,,,,,,,,,,,,,,,,,,,,,,,,,,,,,,,,,,,,,,,,,,,,,,,
,,,,,,,5727aecae386b9000f4000cd,60568611ec04488a9e9da93b,6056b518969601947a68554a,I am not familiar with Spanish,South,NA,no,2021-03-20_21h53.59.218,empathy_intonation_perc,2020.2.10,Win32,60,,,,,,,,,,0,chilean,0,1,1.476795,0,57,57,36,1,37,./stim/wavs/andalusian_mismatch_declarative-broad-focus_La-nina-lava-el-plato.wav,./stim/wavs/argentine_mismatch_declarative-broad-focus_La-nina-lava-el-plato.wav,./stim/wavs/castilian_mismatch_declarative-broad-focus_La-nina-lava-el-plato.wav,./stim/wavs/chilean_mismatch_declarative-broad-focus_La-nina-lava-el-plato.wav,./stim/wavs/cuban_mismatch_declarative-broad-focus_La-nina-lava-el-plato.wav,./stim/wavs/mexican_mismatch_declarative-broad-focus_La-nina-lava-el-plato.wav,./stim/wavs/peruvian_mismatch_declarative-broad-focus_La-nina-lava-el-plato.wav,./stim/wavs/puertorican_mismatch_declarative-broad-focus_La-nina-lava-el-plato.wav,,,,,,,,,,,,,,,,,,,,,,,,,,,,,,,,,,,,,,,,,,,,,,,,,,,,,,,,
,,,,,,,5727aecae386b9000f4000cd,60568611ec04488a9e9da93b,6056b518969601947a68554a,I am not familiar with Spanish,South,NA,no,2021-03-20_21h53.59.218,empathy_intonation_perc,2020.2.10,Win32,60,,,,,,,,,,1,chilean,0,0,2.25088,0,58,58,30,1,31,./stim/wavs/andalusian_match_interrogative-total-yn_Mariano-habla-del-tiempo.wav,./stim/wavs/argentine_match_interrogative-total-yn_Mariano-habla-del-tiempo.wav,./stim/wavs/castilian_match_interrogative-total-yn_Mariano-habla-del-tiempo.wav,./stim/wavs/chilean_match_interrogative-total-yn_Mariano-habla-del-tiempo.wav,./stim/wavs/cuban_match_interrogative-total-yn_Mariano-habla-del-tiempo.wav,./stim/wavs/mexican_match_interrogative-total-yn_Mariano-habla-del-tiempo.wav,./stim/wavs/peruvian_match_interrogative-total-yn_Mariano-habla-del-tiempo.wav,./stim/wavs/puertorican_match_interrogative-total-yn_Mariano-habla-del-tiempo.wav,,,,,,,,,,,,,,,,,,,,,,,,,,,,,,,,,,,,,,,,,,,,,,,,,,,,,,,,
,,,,,,,5727aecae386b9000f4000cd,60568611ec04488a9e9da93b,6056b518969601947a68554a,I am not familiar with Spanish,South,NA,no,2021-03-20_21h53.59.218,empathy_intonation_perc,2020.2.10,Win32,60,,,,,,,,,,1,puertorican,0,0,1.841675,0,59,59,26,1,27,./stim/wavs/andalusian_match_interrogative-total-yn_David-leia-el-libro.wav,./stim/wavs/argentine_match_interrogative-total-yn_David-leia-el-libro.wav,./stim/wavs/castilian_match_interrogative-total-yn_David-leia-el-libro.wav,./stim/wavs/chilean_match_interrogative-total-yn_David-leia-el-libro.wav,./stim/wavs/cuban_match_interrogative-total-yn_David-leia-el-libro.wav,./stim/wavs/mexican_match_interrogative-total-yn_David-leia-el-libro.wav,./stim/wavs/peruvian_match_interrogative-total-yn_David-leia-el-libro.wav,./stim/wavs/puertorican_match_interrogative-total-yn_David-leia-el-libro.wav,,,,,,,,,,,,,,,,,,,,,,,,,,,,,,,,,,,,,,,,,,,,,,,,,,,,,,,,
,,,,,,,5727aecae386b9000f4000cd,60568611ec04488a9e9da93b,6056b518969601947a68554a,I am not familiar with Spanish,South,NA,no,2021-03-20_21h53.59.218,empathy_intonation_perc,2020.2.10,Win32,60,,,,,,,,,,0,mexican,0,1,1.53566,0,60,60,47,1,48,./stim/wavs/andalusian_mismatch_declarative-narrow-focus_Mi-tia-odia-la-lluvia.wav,./stim/wavs/argentine_mismatch_declarative-narrow-focus_Mi-tia-odia-la-lluvia.wav,./stim/wavs/castilian_mismatch_declarative-narrow-focus_Mi-tia-odia-la-lluvia.wav,./stim/wavs/chilean_mismatch_declarative-narrow-focus_Mi-tia-odia-la-lluvia.wav,./stim/wavs/cuban_mismatch_declarative-narrow-focus_Mi-tia-odia-la-lluvia.wav,./stim/wavs/mexican_mismatch_declarative-narrow-focus_Mi-tia-odia-la-lluvia.wav,./stim/wavs/peruvian_mismatch_declarative-narrow-focus_Mi-tia-odia-la-lluvia.wav,./stim/wavs/puertorican_mismatch_declarative-narrow-focus_Mi-tia-odia-la-lluvia.wav,,,,,,,,,,,,,,,,,,,,,,,,,,,,,,,,,,,,,,,,,,,,,,,,,,,,,,,,
,,,,,,,5727aecae386b9000f4000cd,60568611ec04488a9e9da93b,6056b518969601947a68554a,I am not familiar with Spanish,South,NA,no,2021-03-20_21h53.59.218,empathy_intonation_perc,2020.2.10,Win32,60,,,,,,,,,,0,castilian,0,1,1.755255,0,61,61,34,1,35,./stim/wavs/andalusian_mismatch_declarative-broad-focus_El-nino-oye-el-rio.wav,./stim/wavs/argentine_mismatch_declarative-broad-focus_El-nino-oye-el-rio.wav,./stim/wavs/castilian_mismatch_declarative-broad-focus_El-nino-oye-el-rio.wav,./stim/wavs/chilean_mismatch_declarative-broad-focus_El-nino-oye-el-rio.wav,./stim/wavs/cuban_mismatch_declarative-broad-focus_El-nino-oye-el-rio.wav,./stim/wavs/mexican_mismatch_declarative-broad-focus_El-nino-oye-el-rio.wav,./stim/wavs/peruvian_mismatch_declarative-broad-focus_El-nino-oye-el-rio.wav,./stim/wavs/puertorican_mismatch_declarative-broad-focus_El-nino-oye-el-rio.wav,,,,,,,,,,,,,,,,,,,,,,,,,,,,,,,,,,,,,,,,,,,,,,,,,,,,,,,,
,,,,,,,5727aecae386b9000f4000cd,60568611ec04488a9e9da93b,6056b518969601947a68554a,I am not familiar with Spanish,South,NA,no,2021-03-20_21h53.59.218,empathy_intonation_perc,2020.2.10,Win32,60,,,,,,,,,,1,castilian,1,1,1.667525,0,62,62,29,1,30,./stim/wavs/andalusian_match_interrogative-total-yn_Maria-bebe-el-vino.wav,./stim/wavs/argentine_match_interrogative-total-yn_Maria-bebe-el-vino.wav,./stim/wavs/castilian_match_interrogative-total-yn_Maria-bebe-el-vino.wav,./stim/wavs/chilean_match_interrogative-total-yn_Maria-bebe-el-vino.wav,./stim/wavs/cuban_match_interrogative-total-yn_Maria-bebe-el-vino.wav,./stim/wavs/mexican_match_interrogative-total-yn_Maria-bebe-el-vino.wav,./stim/wavs/peruvian_match_interrogative-total-yn_Maria-bebe-el-vino.wav,./stim/wavs/puertorican_match_interrogative-total-yn_Maria-bebe-el-vino.wav,,,,,,,,,,,,,,,,,,,,,,,,,,,,,,,,,,,,,,,,,,,,,,,,,,,,,,,,
,,,,,,,5727aecae386b9000f4000cd,60568611ec04488a9e9da93b,6056b518969601947a68554a,I am not familiar with Spanish,South,NA,no,2021-03-20_21h53.59.218,empathy_intonation_perc,2020.2.10,Win32,60,,,,,,,,,,0,puertorican,0,1,1.6735,0,63,63,5,1,6,./stim/wavs/andalusian_match_declarative-broad-focus_Maria-bebe-el-vino.wav,./stim/wavs/argentine_match_declarative-broad-focus_Maria-bebe-el-vino.wav,./stim/wavs/castilian_match_declarative-broad-focus_Maria-bebe-el-vino.wav,./stim/wavs/chilean_match_declarative-broad-focus_Maria-bebe-el-vino.wav,./stim/wavs/cuban_match_declarative-broad-focus_Maria-bebe-el-vino.wav,./stim/wavs/mexican_match_declarative-broad-focus_Maria-bebe-el-vino.wav,./stim/wavs/peruvian_match_declarative-broad-focus_Maria-bebe-el-vino.wav,./stim/wavs/puertorican_match_declarative-broad-focus_Maria-bebe-el-vino.wav,,,,,,,,,,,,,,,,,,,,,,,,,,,,,,,,,,,,,,,,,,,,,,,,,,,,,,,,
,,,,,,,5727aecae386b9000f4000cd,60568611ec04488a9e9da93b,6056b518969601947a68554a,I am not familiar with Spanish,South,NA,no,2021-03-20_21h53.59.218,empathy_intonation_perc,2020.2.10,Win32,60,,,,,,,,,,,,,,,,,,,,,,,,,,,,,h,1,6.64448,0,0,0,0,1,,,,,,,,,,,,,,,,,,,,,,,,,,,,,,,,,,,,,,,,,,,,,,,,
,,,,,"Great! Now we will move on. The next task consists of about 60 trials, in each of which you will see a string of letters. 
  
  Your task is to decide whether this is a real Spanish word or not.",(press the spacebar to continue),5727aecae386b9000f4000cd,60568611ec04488a9e9da93b,6056b518969601947a68554a,I am not familiar with Spanish,South,NA,no,2021-03-20_21h53.59.218,empathy_intonation_perc,2020.2.10,Win32,60,,,,,,,,,,,,,,,,,,,,,,,,,,,,,,,,,,,,,0,0,0,0,1,,,,,,,,,,,,,,,,,,,,,,,,,,,,,,,,,,,,,,,,,,,
,,,,,"If you think it is an existing Spanish word, you type '1' (for 'REAL'), and if you think it is not an existing Spanish word, you type '0' (for 'FAKE').",(press the spacebar to continue),5727aecae386b9000f4000cd,60568611ec04488a9e9da93b,6056b518969601947a68554a,I am not familiar with Spanish,South,NA,no,2021-03-20_21h53.59.218,empathy_intonation_perc,2020.2.10,Win32,60,,,,,,,,,,,,,,,,,,,,,,,,,,,,,,,,,,,,,0,1,1,1,1,,,,,,,,,,,,,,,,,,,,,,,,,,,,,,,,,,,,,,,,,,,
,,,,,"If you are sure that the word exists, even though you dont know its exact meaning, you may still respond '1' (REAL). 
  
  But if you are not sure if it is an existing word, you should respond '0' (FAKE).
  
  Let's do a practice round...",(press the spacebar to continue),5727aecae386b9000f4000cd,60568611ec04488a9e9da93b,6056b518969601947a68554a,I am not familiar with Spanish,South,NA,no,2021-03-20_21h53.59.218,empathy_intonation_perc,2020.2.10,Win32,60,,,,,,,,,,,,,,,,,,,,,,,,,,,,,,,,,,,,,0,2,2,2,1,,,,,,,,,,,,,,,,,,,,,,,,,,,,,,,,,,,,,,,,,,,
,,,,,,,5727aecae386b9000f4000cd,60568611ec04488a9e9da93b,6056b518969601947a68554a,I am not familiar with Spanish,South,NA,no,2021-03-20_21h53.59.218,empathy_intonation_perc,2020.2.10,Win32,60,,,,,,,,,,0,,,,,,,,,,,,,,,,,,,,,,,,,,,,,,,,0,1,3.996885,0,0,0,0,1,0,depiste,REAL,FAKE,,,,,,,,,,,,,,,,,,,,,,,,,,,,,,,
,,,,,,,5727aecae386b9000f4000cd,60568611ec04488a9e9da93b,6056b518969601947a68554a,I am not familiar with Spanish,South,NA,no,2021-03-20_21h53.59.218,empathy_intonation_perc,2020.2.10,Win32,60,,,,,,,,,,1,,,,,,,,,,,,,,,,,,,,,,,,,,,,,,,,1,1,1.043645,0,1,1,1,1,0,s,REAL,FAKE,,,,,,,,,,,,,,,,,,,,,,,,,,,,,,,
,,,,,,,5727aecae386b9000f4000cd,60568611ec04488a9e9da93b,6056b518969601947a68554a,I am not familiar with Spanish,South,NA,no,2021-03-20_21h53.59.218,empathy_intonation_perc,2020.2.10,Win32,60,,,,,,,,,,0,,,,,,,,,,,,,,,,,,,,,,,,,,,,,,,,0,1,1.827235,0,2,2,2,1,0,con,REAL,FAKE,,,,,,,,,,,,,,,,,,,,,,,,,,,,,,,
,,,,,,,5727aecae386b9000f4000cd,60568611ec04488a9e9da93b,6056b518969601947a68554a,I am not familiar with Spanish,South,NA,no,2021-03-20_21h53.59.218,empathy_intonation_perc,2020.2.10,Win32,60,,,,,,,,,,0,,,,,,,,,,,,,,,,,,,,,,,,,,,,,,,,0,1,1.2316,0,3,3,3,1,0,calpar,REAL,FAKE,,,,,,,,,,,,,,,,,,,,,,,,,,,,,,,
,,,,,,,5727aecae386b9000f4000cd,60568611ec04488a9e9da93b,6056b518969601947a68554a,I am not familiar with Spanish,South,NA,no,2021-03-20_21h53.59.218,empathy_intonation_perc,2020.2.10,Win32,60,,,,,,,,,,0,,,,,,,,,,,,,,,,,,,,,,,,,,,,,,,,0,1,0.89506,0,4,4,4,1,0,joten,REAL,FAKE,,,,,,,,,,,,,,,,,,,,,,,,,,,,,,,
,,,,,,,5727aecae386b9000f4000cd,60568611ec04488a9e9da93b,6056b518969601947a68554a,I am not familiar with Spanish,South,NA,no,2021-03-20_21h53.59.218,empathy_intonation_perc,2020.2.10,Win32,60,,,,,,,,,,1,,,,,,,,,,,,,,,,,,,,,,,,,,,,,,,,0,0,1.997195,0,5,5,5,1,0,sacapuntas,REAL,FAKE,,,,,,,,,,,,,,,,,,,,,,,,,,,,,,,
,,,,,,,5727aecae386b9000f4000cd,60568611ec04488a9e9da93b,6056b518969601947a68554a,I am not familiar with Spanish,South,NA,no,2021-03-20_21h53.59.218,empathy_intonation_perc,2020.2.10,Win32,60,,,,,,,,,,0,,,,,,,,,,,,,,,,,,,,,,,,,,,,,,,,0,1,0.9399,0,6,6,6,1,0,priba,REAL,FAKE,,,,,,,,,,,,,,,,,,,,,,,,,,,,,,,
,,,,,,,5727aecae386b9000f4000cd,60568611ec04488a9e9da93b,6056b518969601947a68554a,I am not familiar with Spanish,South,NA,no,2021-03-20_21h53.59.218,empathy_intonation_perc,2020.2.10,Win32,60,,,,,,,,,,0,,,,,,,,,,,,,,,,,,,,,,,,,,,,,,,,0,1,1.394815,0,7,7,7,1,0,pelasula,REAL,FAKE,,,,,,,,,,,,,,,,,,,,,,,,,,,,,,,
,,,,,,,5727aecae386b9000f4000cd,60568611ec04488a9e9da93b,6056b518969601947a68554a,I am not familiar with Spanish,South,NA,no,2021-03-20_21h53.59.218,empathy_intonation_perc,2020.2.10,Win32,60,,,,,,,,,,1,,,,,,,,,,,,,,,,,,,,,,,,,,,,,,,,1,1,0.678925,0,8,8,8,1,0,bien,REAL,FAKE,,,,,,,,,,,,,,,,,,,,,,,,,,,,,,,
,,,,,,,5727aecae386b9000f4000cd,60568611ec04488a9e9da93b,6056b518969601947a68554a,I am not familiar with Spanish,South,NA,no,2021-03-20_21h53.59.218,empathy_intonation_perc,2020.2.10,Win32,60,,,,,,,,,,1,,,,,,,,,,,,,,,,,,,,,,,,,,,,,,,,1,1,0.711675,0,9,9,9,1,0,casa,REAL,FAKE,,,,,,,,,,,,,,,,,,,,,,,,,,,,,,,
,,,,,,,5727aecae386b9000f4000cd,60568611ec04488a9e9da93b,6056b518969601947a68554a,I am not familiar with Spanish,South,NA,no,2021-03-20_21h53.59.218,empathy_intonation_perc,2020.2.10,Win32,60,,,,,,,,,,0,,,,,,,,,,,,,,,,,,,,,,,,,,,,,,,,0,1,1.05934,0,10,10,10,1,0,lejo,REAL,FAKE,,,,,,,,,,,,,,,,,,,,,,,,,,,,,,,
,,,,,,,5727aecae386b9000f4000cd,60568611ec04488a9e9da93b,6056b518969601947a68554a,I am not familiar with Spanish,South,NA,no,2021-03-20_21h53.59.218,empathy_intonation_perc,2020.2.10,Win32,60,,,,,,,,,,0,,,,,,,,,,,,,,,,,,,,,,,,,,,,,,,,0,1,1.52519,0,11,11,11,1,0,pretantas,REAL,FAKE,,,,,,,,,,,,,,,,,,,,,,,,,,,,,,,
,,,,,,,5727aecae386b9000f4000cd,60568611ec04488a9e9da93b,6056b518969601947a68554a,I am not familiar with Spanish,South,NA,no,2021-03-20_21h53.59.218,empathy_intonation_perc,2020.2.10,Win32,60,,,,,,,,,,0,,,,,,,,,,,,,,,,,,,,,,,,,,,,,,,,,,,,,,,,79,tropaje,,,0,1,0.89767,0,0,0,78,1,REAL,FAKE,,,,,,,,,,,,,,,,,,,,,
,,,,,,,5727aecae386b9000f4000cd,60568611ec04488a9e9da93b,6056b518969601947a68554a,I am not familiar with Spanish,South,NA,no,2021-03-20_21h53.59.218,empathy_intonation_perc,2020.2.10,Win32,60,,,,,,,,,,1,,,,,,,,,,,,,,,,,,,,,,,,,,,,,,,,,,,,,,,,15,regar,,,0,0,0.842795,0,1,1,14,1,REAL,FAKE,,,,,,,,,,,,,,,,,,,,,
,,,,,,,5727aecae386b9000f4000cd,60568611ec04488a9e9da93b,6056b518969601947a68554a,I am not familiar with Spanish,South,NA,no,2021-03-20_21h53.59.218,empathy_intonation_perc,2020.2.10,Win32,60,,,,,,,,,,1,,,,,,,,,,,,,,,,,,,,,,,,,,,,,,,,,,,,,,,,77,tiburn,,,1,1,1.520675,0,2,2,76,1,REAL,FAKE,,,,,,,,,,,,,,,,,,,,,
,,,,,,,5727aecae386b9000f4000cd,60568611ec04488a9e9da93b,6056b518969601947a68554a,I am not familiar with Spanish,South,NA,no,2021-03-20_21h53.59.218,empathy_intonation_perc,2020.2.10,Win32,60,,,,,,,,,,1,,,,,,,,,,,,,,,,,,,,,,,,,,,,,,,,,,,,,,,,36,loro,,,0,0,1.004855,0,3,3,35,1,REAL,FAKE,,,,,,,,,,,,,,,,,,,,,
,,,,,,,5727aecae386b9000f4000cd,60568611ec04488a9e9da93b,6056b518969601947a68554a,I am not familiar with Spanish,South,NA,no,2021-03-20_21h53.59.218,empathy_intonation_perc,2020.2.10,Win32,60,,,,,,,,,,1,,,,,,,,,,,,,,,,,,,,,,,,,,,,,,,,,,,,,,,,78,frondoso,,,0,0,1.16061,0,4,4,77,1,REAL,FAKE,,,,,,,,,,,,,,,,,,,,,
,,,,,,,5727aecae386b9000f4000cd,60568611ec04488a9e9da93b,6056b518969601947a68554a,I am not familiar with Spanish,South,NA,no,2021-03-20_21h53.59.218,empathy_intonation_perc,2020.2.10,Win32,60,,,,,,,,,,0,,,,,,,,,,,,,,,,,,,,,,,,,,,,,,,,,,,,,,,,17,floroso,,,0,1,1.91236,0,5,5,16,1,REAL,FAKE,,,,,,,,,,,,,,,,,,,,,
,,,,,,,5727aecae386b9000f4000cd,60568611ec04488a9e9da93b,6056b518969601947a68554a,I am not familiar with Spanish,South,NA,no,2021-03-20_21h53.59.218,empathy_intonation_perc,2020.2.10,Win32,60,,,,,,,,,,1,,,,,,,,,,,,,,,,,,,,,,,,,,,,,,,,,,,,,,,,65,bizcocho,,,0,0,1.545165,0,6,6,64,1,REAL,FAKE,,,,,,,,,,,,,,,,,,,,,
,,,,,,,5727aecae386b9000f4000cd,60568611ec04488a9e9da93b,6056b518969601947a68554a,I am not familiar with Spanish,South,NA,no,2021-03-20_21h53.59.218,empathy_intonation_perc,2020.2.10,Win32,60,,,,,,,,,,1,,,,,,,,,,,,,,,,,,,,,,,,,,,,,,,,,,,,,,,,2,pellizcar,,,0,0,0.929705,0,7,7,1,1,REAL,FAKE,,,,,,,,,,,,,,,,,,,,,
,,,,,,,5727aecae386b9000f4000cd,60568611ec04488a9e9da93b,6056b518969601947a68554a,I am not familiar with Spanish,South,NA,no,2021-03-20_21h53.59.218,empathy_intonation_perc,2020.2.10,Win32,60,,,,,,,,,,1,,,,,,,,,,,,,,,,,,,,,,,,,,,,,,,,,,,,,,,,89,prisa,,,0,0,0.869465,0,8,8,88,1,REAL,FAKE,,,,,,,,,,,,,,,,,,,,,
,,,,,,,5727aecae386b9000f4000cd,60568611ec04488a9e9da93b,6056b518969601947a68554a,I am not familiar with Spanish,South,NA,no,2021-03-20_21h53.59.218,empathy_intonation_perc,2020.2.10,Win32,60,,,,,,,,,,1,,,,,,,,,,,,,,,,,,,,,,,,,,,,,,,,,,,,,,,,3,pulmones,,,0,0,0.867165,0,9,9,2,1,REAL,FAKE,,,,,,,,,,,,,,,,,,,,,
,,,,,,,5727aecae386b9000f4000cd,60568611ec04488a9e9da93b,6056b518969601947a68554a,I am not familiar with Spanish,South,NA,no,2021-03-20_21h53.59.218,empathy_intonation_perc,2020.2.10,Win32,60,,,,,,,,,,0,,,,,,,,,,,,,,,,,,,,,,,,,,,,,,,,,,,,,,,,63,esposante,,,1,0,1.916955,0,10,10,62,1,REAL,FAKE,,,,,,,,,,,,,,,,,,,,,
,,,,,,,5727aecae386b9000f4000cd,60568611ec04488a9e9da93b,6056b518969601947a68554a,I am not familiar with Spanish,South,NA,no,2021-03-20_21h53.59.218,empathy_intonation_perc,2020.2.10,Win32,60,,,,,,,,,,1,,,,,,,,,,,,,,,,,,,,,,,,,,,,,,,,,,,,,,,,55,nevar,,,0,0,0.679615,0,11,11,54,1,REAL,FAKE,,,,,,,,,,,,,,,,,,,,,
,,,,,,,5727aecae386b9000f4000cd,60568611ec04488a9e9da93b,6056b518969601947a68554a,I am not familiar with Spanish,South,NA,no,2021-03-20_21h53.59.218,empathy_intonation_perc,2020.2.10,Win32,60,,,,,,,,,,1,,,,,,,,,,,,,,,,,,,,,,,,,,,,,,,,,,,,,,,,6,tergiversar,,,0,0,2.109355,0,12,12,5,1,REAL,FAKE,,,,,,,,,,,,,,,,,,,,,
,,,,,,,5727aecae386b9000f4000cd,60568611ec04488a9e9da93b,6056b518969601947a68554a,I am not familiar with Spanish,South,NA,no,2021-03-20_21h53.59.218,empathy_intonation_perc,2020.2.10,Win32,60,,,,,,,,,,1,,,,,,,,,,,,,,,,,,,,,,,,,,,,,,,,,,,,,,,,12,asesinato,,,0,0,1.02341,0,13,13,11,1,REAL,FAKE,,,,,,,,,,,,,,,,,,,,,
,,,,,,,5727aecae386b9000f4000cd,60568611ec04488a9e9da93b,6056b518969601947a68554a,I am not familiar with Spanish,South,NA,no,2021-03-20_21h53.59.218,empathy_intonation_perc,2020.2.10,Win32,60,,,,,,,,,,1,,,,,,,,,,,,,,,,,,,,,,,,,,,,,,,,,,,,,,,,37,granuja,,,0,0,1.196505,0,14,14,36,1,REAL,FAKE,,,,,,,,,,,,,,,,,,,,,
,,,,,,,5727aecae386b9000f4000cd,60568611ec04488a9e9da93b,6056b518969601947a68554a,I am not familiar with Spanish,South,NA,no,2021-03-20_21h53.59.218,empathy_intonation_perc,2020.2.10,Win32,60,,,,,,,,,,1,,,,,,,,,,,,,,,,,,,,,,,,,,,,,,,,,,,,,,,,40,alfombra,,,0,0,0.62068,0,15,15,39,1,REAL,FAKE,,,,,,,,,,,,,,,,,,,,,
,,,,,,,5727aecae386b9000f4000cd,60568611ec04488a9e9da93b,6056b518969601947a68554a,I am not familiar with Spanish,South,NA,no,2021-03-20_21h53.59.218,empathy_intonation_perc,2020.2.10,Win32,60,,,,,,,,,,1,,,,,,,,,,,,,,,,,,,,,,,,,,,,,,,,,,,,,,,,39,torpe,,,0,0,0.735915,0,16,16,38,1,REAL,FAKE,,,,,,,,,,,,,,,,,,,,,
,,,,,,,5727aecae386b9000f4000cd,60568611ec04488a9e9da93b,6056b518969601947a68554a,I am not familiar with Spanish,South,NA,no,2021-03-20_21h53.59.218,empathy_intonation_perc,2020.2.10,Win32,60,,,,,,,,,,1,,,,,,,,,,,,,,,,,,,,,,,,,,,,,,,,,,,,,,,,31,pandilla,,,0,0,0.834105,0,17,17,30,1,REAL,FAKE,,,,,,,,,,,,,,,,,,,,,
,,,,,,,5727aecae386b9000f4000cd,60568611ec04488a9e9da93b,6056b518969601947a68554a,I am not familiar with Spanish,South,NA,no,2021-03-20_21h53.59.218,empathy_intonation_perc,2020.2.10,Win32,60,,,,,,,,,,0,,,,,,,,,,,,,,,,,,,,,,,,,,,,,,,,,,,,,,,,35,rompido,,,0,1,0.837055,0,18,18,34,1,REAL,FAKE,,,,,,,,,,,,,,,,,,,,,
,,,,,,,5727aecae386b9000f4000cd,60568611ec04488a9e9da93b,6056b518969601947a68554a,I am not familiar with Spanish,South,NA,no,2021-03-20_21h53.59.218,empathy_intonation_perc,2020.2.10,Win32,60,,,,,,,,,,1,,,,,,,,,,,,,,,,,,,,,,,,,,,,,,,,,,,,,,,,46,martillo,,,0,0,0.91905,0,19,19,45,1,REAL,FAKE,,,,,,,,,,,,,,,,,,,,,
,,,,,,,5727aecae386b9000f4000cd,60568611ec04488a9e9da93b,6056b518969601947a68554a,I am not familiar with Spanish,South,NA,no,2021-03-20_21h53.59.218,empathy_intonation_perc,2020.2.10,Win32,60,,,,,,,,,,1,,,,,,,,,,,,,,,,,,,,,,,,,,,,,,,,,,,,,,,,52,camisa,,,0,0,1.0342,0,20,20,51,1,REAL,FAKE,,,,,,,,,,,,,,,,,,,,,
,,,,,,,5727aecae386b9000f4000cd,60568611ec04488a9e9da93b,6056b518969601947a68554a,I am not familiar with Spanish,South,NA,no,2021-03-20_21h53.59.218,empathy_intonation_perc,2020.2.10,Win32,60,,,,,,,,,,1,,,,,,,,,,,,,,,,,,,,,,,,,,,,,,,,,,,,,,,,85,lad,,,0,0,0.83011,0,21,21,84,1,REAL,FAKE,,,,,,,,,,,,,,,,,,,,,
,,,,,,,5727aecae386b9000f4000cd,60568611ec04488a9e9da93b,6056b518969601947a68554a,I am not familiar with Spanish,South,NA,no,2021-03-20_21h53.59.218,empathy_intonation_perc,2020.2.10,Win32,60,,,,,,,,,,1,,,,,,,,,,,,,,,,,,,,,,,,,,,,,,,,,,,,,,,,28,merodear,,,0,0,0.777415,0,22,22,27,1,REAL,FAKE,,,,,,,,,,,,,,,,,,,,,
,,,,,,,5727aecae386b9000f4000cd,60568611ec04488a9e9da93b,6056b518969601947a68554a,I am not familiar with Spanish,South,NA,no,2021-03-20_21h53.59.218,empathy_intonation_perc,2020.2.10,Win32,60,,,,,,,,,,1,,,,,,,,,,,,,,,,,,,,,,,,,,,,,,,,,,,,,,,,60,matar,,,0,0,1.74113,0,23,23,59,1,REAL,FAKE,,,,,,,,,,,,,,,,,,,,,
,,,,,,,5727aecae386b9000f4000cd,60568611ec04488a9e9da93b,6056b518969601947a68554a,I am not familiar with Spanish,South,NA,no,2021-03-20_21h53.59.218,empathy_intonation_perc,2020.2.10,Win32,60,,,,,,,,,,1,,,,,,,,,,,,,,,,,,,,,,,,,,,,,,,,,,,,,,,,44,cuchara,,,0,0,0.84533,0,24,24,43,1,REAL,FAKE,,,,,,,,,,,,,,,,,,,,,
,,,,,,,5727aecae386b9000f4000cd,60568611ec04488a9e9da93b,6056b518969601947a68554a,I am not familiar with Spanish,South,NA,no,2021-03-20_21h53.59.218,empathy_intonation_perc,2020.2.10,Win32,60,,,,,,,,,,1,,,,,,,,,,,,,,,,,,,,,,,,,,,,,,,,,,,,,,,,73,hervidor,,,0,0,1.186225,0,25,25,72,1,REAL,FAKE,,,,,,,,,,,,,,,,,,,,,
,,,,,,,5727aecae386b9000f4000cd,60568611ec04488a9e9da93b,6056b518969601947a68554a,I am not familiar with Spanish,South,NA,no,2021-03-20_21h53.59.218,empathy_intonation_perc,2020.2.10,Win32,60,,,,,,,,,,1,,,,,,,,,,,,,,,,,,,,,,,,,,,,,,,,,,,,,,,,24,ltigo,,,0,0,1.027605,0,26,26,23,1,REAL,FAKE,,,,,,,,,,,,,,,,,,,,,
,,,,,,,5727aecae386b9000f4000cd,60568611ec04488a9e9da93b,6056b518969601947a68554a,I am not familiar with Spanish,South,NA,no,2021-03-20_21h53.59.218,empathy_intonation_perc,2020.2.10,Win32,60,,,,,,,,,,0,,,,,,,,,,,,,,,,,,,,,,,,,,,,,,,,,,,,,,,,47,cartinar,,,0,1,1.12118,0,27,27,46,1,REAL,FAKE,,,,,,,,,,,,,,,,,,,,,
,,,,,,,5727aecae386b9000f4000cd,60568611ec04488a9e9da93b,6056b518969601947a68554a,I am not familiar with Spanish,South,NA,no,2021-03-20_21h53.59.218,empathy_intonation_perc,2020.2.10,Win32,60,,,,,,,,,,1,,,,,,,,,,,,,,,,,,,,,,,,,,,,,,,,,,,,,,,,75,yacer,,,0,0,1.17439,0,28,28,74,1,REAL,FAKE,,,,,,,,,,,,,,,,,,,,,
,,,,,,,5727aecae386b9000f4000cd,60568611ec04488a9e9da93b,6056b518969601947a68554a,I am not familiar with Spanish,South,NA,no,2021-03-20_21h53.59.218,empathy_intonation_perc,2020.2.10,Win32,60,,,,,,,,,,1,,,,,,,,,,,,,,,,,,,,,,,,,,,,,,,,,,,,,,,,69,engatusar,,,0,0,0.84379,0,29,29,68,1,REAL,FAKE,,,,,,,,,,,,,,,,,,,,,
,,,,,,,5727aecae386b9000f4000cd,60568611ec04488a9e9da93b,6056b518969601947a68554a,I am not familiar with Spanish,South,NA,no,2021-03-20_21h53.59.218,empathy_intonation_perc,2020.2.10,Win32,60,,,,,,,,,,0,,,,,,,,,,,,,,,,,,,,,,,,,,,,,,,,,,,,,,,,19,brecedad,,,0,1,0.910975,0,30,30,18,1,REAL,FAKE,,,,,,,,,,,,,,,,,,,,,
,,,,,,,5727aecae386b9000f4000cd,60568611ec04488a9e9da93b,6056b518969601947a68554a,I am not familiar with Spanish,South,NA,no,2021-03-20_21h53.59.218,empathy_intonation_perc,2020.2.10,Win32,60,,,,,,,,,,1,,,,,,,,,,,,,,,,,,,,,,,,,,,,,,,,,,,,,,,,25,bisagra,,,0,0,0.819015,0,31,31,24,1,REAL,FAKE,,,,,,,,,,,,,,,,,,,,,
,,,,,,,5727aecae386b9000f4000cd,60568611ec04488a9e9da93b,6056b518969601947a68554a,I am not familiar with Spanish,South,NA,no,2021-03-20_21h53.59.218,empathy_intonation_perc,2020.2.10,Win32,60,,,,,,,,,,1,,,,,,,,,,,,,,,,,,,,,,,,,,,,,,,,,,,,,,,,62,flaco,,,0,0,0.79121,0,32,32,61,1,REAL,FAKE,,,,,,,,,,,,,,,,,,,,,
,,,,,,,5727aecae386b9000f4000cd,60568611ec04488a9e9da93b,6056b518969601947a68554a,I am not familiar with Spanish,South,NA,no,2021-03-20_21h53.59.218,empathy_intonation_perc,2020.2.10,Win32,60,,,,,,,,,,0,,,,,,,,,,,,,,,,,,,,,,,,,,,,,,,,,,,,,,,,4,batilln,,,0,1,0.786065,0,33,33,3,1,REAL,FAKE,,,,,,,,,,,,,,,,,,,,,
,,,,,,,5727aecae386b9000f4000cd,60568611ec04488a9e9da93b,6056b518969601947a68554a,I am not familiar with Spanish,South,NA,no,2021-03-20_21h53.59.218,empathy_intonation_perc,2020.2.10,Win32,60,,,,,,,,,,1,,,,,,,,,,,,,,,,,,,,,,,,,,,,,,,,,,,,,,,,57,tacao,,,0,0,1.147625,0,34,34,56,1,REAL,FAKE,,,,,,,,,,,,,,,,,,,,,
,,,,,,,5727aecae386b9000f4000cd,60568611ec04488a9e9da93b,6056b518969601947a68554a,I am not familiar with Spanish,South,NA,no,2021-03-20_21h53.59.218,empathy_intonation_perc,2020.2.10,Win32,60,,,,,,,,,,0,,,,,,,,,,,,,,,,,,,,,,,,,,,,,,,,,,,,,,,,70,temblo,,,0,1,1.055125,0,35,35,69,1,REAL,FAKE,,,,,,,,,,,,,,,,,,,,,
,,,,,,,5727aecae386b9000f4000cd,60568611ec04488a9e9da93b,6056b518969601947a68554a,I am not familiar with Spanish,South,NA,no,2021-03-20_21h53.59.218,empathy_intonation_perc,2020.2.10,Win32,60,,,,,,,,,,1,,,,,,,,,,,,,,,,,,,,,,,,,,,,,,,,,,,,,,,,43,canela,,,0,0,0.756505,0,36,36,42,1,REAL,FAKE,,,,,,,,,,,,,,,,,,,,,
,,,,,,,5727aecae386b9000f4000cd,60568611ec04488a9e9da93b,6056b518969601947a68554a,I am not familiar with Spanish,South,NA,no,2021-03-20_21h53.59.218,empathy_intonation_perc,2020.2.10,Win32,60,,,,,,,,,,0,,,,,,,,,,,,,,,,,,,,,,,,,,,,,,,,,,,,,,,,53,vegada,,,0,1,1.04557,0,37,37,52,1,REAL,FAKE,,,,,,,,,,,,,,,,,,,,,
,,,,,,,5727aecae386b9000f4000cd,60568611ec04488a9e9da93b,6056b518969601947a68554a,I am not familiar with Spanish,South,NA,no,2021-03-20_21h53.59.218,empathy_intonation_perc,2020.2.10,Win32,60,,,,,,,,,,1,,,,,,,,,,,,,,,,,,,,,,,,,,,,,,,,,,,,,,,,22,lacayo,,,0,0,0.96942,0,38,38,21,1,REAL,FAKE,,,,,,,,,,,,,,,,,,,,,
,,,,,,,5727aecae386b9000f4000cd,60568611ec04488a9e9da93b,6056b518969601947a68554a,I am not familiar with Spanish,South,NA,no,2021-03-20_21h53.59.218,empathy_intonation_perc,2020.2.10,Win32,60,,,,,,,,,,1,,,,,,,,,,,,,,,,,,,,,,,,,,,,,,,,,,,,,,,,26,secuestro,,,0,0,0.819175,0,39,39,25,1,REAL,FAKE,,,,,,,,,,,,,,,,,,,,,
,,,,,,,5727aecae386b9000f4000cd,60568611ec04488a9e9da93b,6056b518969601947a68554a,I am not familiar with Spanish,South,NA,no,2021-03-20_21h53.59.218,empathy_intonation_perc,2020.2.10,Win32,60,,,,,,,,,,0,,,,,,,,,,,,,,,,,,,,,,,,,,,,,,,,,,,,,,,,21,capillo,,,0,1,0.768485,0,40,40,20,1,REAL,FAKE,,,,,,,,,,,,,,,,,,,,,
,,,,,,,5727aecae386b9000f4000cd,60568611ec04488a9e9da93b,6056b518969601947a68554a,I am not familiar with Spanish,South,NA,no,2021-03-20_21h53.59.218,empathy_intonation_perc,2020.2.10,Win32,60,,,,,,,,,,0,,,,,,,,,,,,,,,,,,,,,,,,,,,,,,,,,,,,,,,,8,cadea,,,0,1,0.76863,0,41,41,7,1,REAL,FAKE,,,,,,,,,,,,,,,,,,,,,
,,,,,,,5727aecae386b9000f4000cd,60568611ec04488a9e9da93b,6056b518969601947a68554a,I am not familiar with Spanish,South,NA,no,2021-03-20_21h53.59.218,empathy_intonation_perc,2020.2.10,Win32,60,,,,,,,,,,1,,,,,,,,,,,,,,,,,,,,,,,,,,,,,,,,,,,,,,,,14,yunque,,,0,0,0.93778,0,42,42,13,1,REAL,FAKE,,,,,,,,,,,,,,,,,,,,,
,,,,,,,5727aecae386b9000f4000cd,60568611ec04488a9e9da93b,6056b518969601947a68554a,I am not familiar with Spanish,South,NA,no,2021-03-20_21h53.59.218,empathy_intonation_perc,2020.2.10,Win32,60,,,,,,,,,,0,,,,,,,,,,,,,,,,,,,,,,,,,,,,,,,,,,,,,,,,72,pemicin,,,0,1,0.752205,0,43,43,71,1,REAL,FAKE,,,,,,,,,,,,,,,,,,,,,
,,,,,,,5727aecae386b9000f4000cd,60568611ec04488a9e9da93b,6056b518969601947a68554a,I am not familiar with Spanish,South,NA,no,2021-03-20_21h53.59.218,empathy_intonation_perc,2020.2.10,Win32,60,,,,,,,,,,1,,,,,,,,,,,,,,,,,,,,,,,,,,,,,,,,,,,,,,,,54,fomentar,,,0,0,1.226455,0,44,44,53,1,REAL,FAKE,,,,,,,,,,,,,,,,,,,,,
,,,,,,,5727aecae386b9000f4000cd,60568611ec04488a9e9da93b,6056b518969601947a68554a,I am not familiar with Spanish,South,NA,no,2021-03-20_21h53.59.218,empathy_intonation_perc,2020.2.10,Win32,60,,,,,,,,,,1,,,,,,,,,,,,,,,,,,,,,,,,,,,,,,,,,,,,,,,,81,pozo,,,0,0,0.82566,0,45,45,80,1,REAL,FAKE,,,,,,,,,,,,,,,,,,,,,
,,,,,,,5727aecae386b9000f4000cd,60568611ec04488a9e9da93b,6056b518969601947a68554a,I am not familiar with Spanish,South,NA,no,2021-03-20_21h53.59.218,empathy_intonation_perc,2020.2.10,Win32,60,,,,,,,,,,1,,,,,,,,,,,,,,,,,,,,,,,,,,,,,,,,,,,,,,,,80,hormiga,,,0,0,0.969465,0,46,46,79,1,REAL,FAKE,,,,,,,,,,,,,,,,,,,,,
,,,,,,,5727aecae386b9000f4000cd,60568611ec04488a9e9da93b,6056b518969601947a68554a,I am not familiar with Spanish,South,NA,no,2021-03-20_21h53.59.218,empathy_intonation_perc,2020.2.10,Win32,60,,,,,,,,,,0,,,,,,,,,,,,,,,,,,,,,,,,,,,,,,,,,,,,,,,,74,cintro,,,0,1,1.46833,0,47,47,73,1,REAL,FAKE,,,,,,,,,,,,,,,,,,,,,
,,,,,,,5727aecae386b9000f4000cd,60568611ec04488a9e9da93b,6056b518969601947a68554a,I am not familiar with Spanish,South,NA,no,2021-03-20_21h53.59.218,empathy_intonation_perc,2020.2.10,Win32,60,,,,,,,,,,0,,,,,,,,,,,,,,,,,,,,,,,,,,,,,,,,,,,,,,,,84,escuto,,,0,1,0.917725,0,48,48,83,1,REAL,FAKE,,,,,,,,,,,,,,,,,,,,,
,,,,,,,5727aecae386b9000f4000cd,60568611ec04488a9e9da93b,6056b518969601947a68554a,I am not familiar with Spanish,South,NA,no,2021-03-20_21h53.59.218,empathy_intonation_perc,2020.2.10,Win32,60,,,,,,,,,,1,,,,,,,,,,,,,,,,,,,,,,,,,,,,,,,,,,,,,,,,41,rebuscar,,,0,0,1.14504,0,49,49,40,1,REAL,FAKE,,,,,,,,,,,,,,,,,,,,,
,,,,,,,5727aecae386b9000f4000cd,60568611ec04488a9e9da93b,6056b518969601947a68554a,I am not familiar with Spanish,South,NA,no,2021-03-20_21h53.59.218,empathy_intonation_perc,2020.2.10,Win32,60,,,,,,,,,,1,,,,,,,,,,,,,,,,,,,,,,,,,,,,,,,,,,,,,,,,7,psimo,,,0,0,2.118135,0,50,50,6,1,REAL,FAKE,,,,,,,,,,,,,,,,,,,,,
,,,,,,,5727aecae386b9000f4000cd,60568611ec04488a9e9da93b,6056b518969601947a68554a,I am not familiar with Spanish,South,NA,no,2021-03-20_21h53.59.218,empathy_intonation_perc,2020.2.10,Win32,60,,,,,,,,,,1,,,,,,,,,,,,,,,,,,,,,,,,,,,,,,,,,,,,,,,,49,ganar,,,0,0,0.884805,0,51,51,48,1,REAL,FAKE,,,,,,,,,,,,,,,,,,,,,
,,,,,,,5727aecae386b9000f4000cd,60568611ec04488a9e9da93b,6056b518969601947a68554a,I am not familiar with Spanish,South,NA,no,2021-03-20_21h53.59.218,empathy_intonation_perc,2020.2.10,Win32,60,,,,,,,,,,1,,,,,,,,,,,,,,,,,,,,,,,,,,,,,,,,,,,,,,,,5,zapato,,,0,0,0.821315,0,52,52,4,1,REAL,FAKE,,,,,,,,,,,,,,,,,,,,,
,,,,,,,5727aecae386b9000f4000cd,60568611ec04488a9e9da93b,6056b518969601947a68554a,I am not familiar with Spanish,South,NA,no,2021-03-20_21h53.59.218,empathy_intonation_perc,2020.2.10,Win32,60,,,,,,,,,,0,,,,,,,,,,,,,,,,,,,,,,,,,,,,,,,,,,,,,,,,42,cadallo,,,0,1,0.596165,0,53,53,41,1,REAL,FAKE,,,,,,,,,,,,,,,,,,,,,
,,,,,,,5727aecae386b9000f4000cd,60568611ec04488a9e9da93b,6056b518969601947a68554a,I am not familiar with Spanish,South,NA,no,2021-03-20_21h53.59.218,empathy_intonation_perc,2020.2.10,Win32,60,,,,,,,,,,1,,,,,,,,,,,,,,,,,,,,,,,,,,,,,,,,,,,,,,,,11,cenefa,,,0,0,0.47487,0,54,54,10,1,REAL,FAKE,,,,,,,,,,,,,,,,,,,,,
,,,,,,,5727aecae386b9000f4000cd,60568611ec04488a9e9da93b,6056b518969601947a68554a,I am not familiar with Spanish,South,NA,no,2021-03-20_21h53.59.218,empathy_intonation_perc,2020.2.10,Win32,60,,,,,,,,,,1,,,,,,,,,,,,,,,,,,,,,,,,,,,,,,,,,,,,,,,,76,atar,,,0,0,0.628935,0,55,55,75,1,REAL,FAKE,,,,,,,,,,,,,,,,,,,,,
,,,,,,,5727aecae386b9000f4000cd,60568611ec04488a9e9da93b,6056b518969601947a68554a,I am not familiar with Spanish,South,NA,no,2021-03-20_21h53.59.218,empathy_intonation_perc,2020.2.10,Win32,60,,,,,,,,,,1,,,,,,,,,,,,,,,,,,,,,,,,,,,,,,,,,,,,,,,,68,alegre,,,0,0,0.686095,0,56,56,67,1,REAL,FAKE,,,,,,,,,,,,,,,,,,,,,
,,,,,,,5727aecae386b9000f4000cd,60568611ec04488a9e9da93b,6056b518969601947a68554a,I am not familiar with Spanish,South,NA,no,2021-03-20_21h53.59.218,empathy_intonation_perc,2020.2.10,Win32,60,,,,,,,,,,1,,,,,,,,,,,,,,,,,,,,,,,,,,,,,,,,,,,,,,,,48,ladrn,,,0,0,0.75153,0,57,57,47,1,REAL,FAKE,,,,,,,,,,,,,,,,,,,,,
,,,,,,,5727aecae386b9000f4000cd,60568611ec04488a9e9da93b,6056b518969601947a68554a,I am not familiar with Spanish,South,NA,no,2021-03-20_21h53.59.218,empathy_intonation_perc,2020.2.10,Win32,60,,,,,,,,,,0,,,,,,,,,,,,,,,,,,,,,,,,,,,,,,,,,,,,,,,,16,abracer,,,0,1,0.627065,0,58,58,15,1,REAL,FAKE,,,,,,,,,,,,,,,,,,,,,
,,,,,,,5727aecae386b9000f4000cd,60568611ec04488a9e9da93b,6056b518969601947a68554a,I am not familiar with Spanish,South,NA,no,2021-03-20_21h53.59.218,empathy_intonation_perc,2020.2.10,Win32,60,,,,,,,,,,0,,,,,,,,,,,,,,,,,,,,,,,,,,,,,,,,,,,,,,,,10,antar,,,0,1,0.50216,0,59,59,9,1,REAL,FAKE,,,,,,,,,,,,,,,,,,,,,
,,,,,,,5727aecae386b9000f4000cd,60568611ec04488a9e9da93b,6056b518969601947a68554a,I am not familiar with Spanish,South,NA,no,2021-03-20_21h53.59.218,empathy_intonation_perc,2020.2.10,Win32,60,,,,,,,,,,0,,,,,,,,,,,,,,,,,,,,,,,,,,,,,,,,,,,,,,,,18,arsa,,,0,1,0.54019,0,60,60,17,1,REAL,FAKE,,,,,,,,,,,,,,,,,,,,,
,,,,,,,5727aecae386b9000f4000cd,60568611ec04488a9e9da93b,6056b518969601947a68554a,I am not familiar with Spanish,South,NA,no,2021-03-20_21h53.59.218,empathy_intonation_perc,2020.2.10,Win32,60,,,,,,,,,,1,,,,,,,,,,,,,,,,,,,,,,,,,,,,,,,,,,,,,,,,34,aviso,,,0,0,0.590185,0,61,61,33,1,REAL,FAKE,,,,,,,,,,,,,,,,,,,,,
,,,,,,,5727aecae386b9000f4000cd,60568611ec04488a9e9da93b,6056b518969601947a68554a,I am not familiar with Spanish,South,NA,no,2021-03-20_21h53.59.218,empathy_intonation_perc,2020.2.10,Win32,60,,,,,,,,,,1,,,,,,,,,,,,,,,,,,,,,,,,,,,,,,,,,,,,,,,,71,polvoriento,,,0,0,0.65149,0,62,62,70,1,REAL,FAKE,,,,,,,,,,,,,,,,,,,,,
,,,,,,,5727aecae386b9000f4000cd,60568611ec04488a9e9da93b,6056b518969601947a68554a,I am not familiar with Spanish,South,NA,no,2021-03-20_21h53.59.218,empathy_intonation_perc,2020.2.10,Win32,60,,,,,,,,,,0,,,,,,,,,,,,,,,,,,,,,,,,,,,,,,,,,,,,,,,,66,hacido,,,0,1,0.833065,0,63,63,65,1,REAL,FAKE,,,,,,,,,,,,,,,,,,,,,
,,,,,,,5727aecae386b9000f4000cd,60568611ec04488a9e9da93b,6056b518969601947a68554a,I am not familiar with Spanish,South,NA,no,2021-03-20_21h53.59.218,empathy_intonation_perc,2020.2.10,Win32,60,,,,,,,,,,1,,,,,,,,,,,,,,,,,,,,,,,,,,,,,,,,,,,,,,,,59,besar,,,0,0,0.701075,0,64,64,58,1,REAL,FAKE,,,,,,,,,,,,,,,,,,,,,
,,,,,,,5727aecae386b9000f4000cd,60568611ec04488a9e9da93b,6056b518969601947a68554a,I am not familiar with Spanish,South,NA,no,2021-03-20_21h53.59.218,empathy_intonation_perc,2020.2.10,Win32,60,,,,,,,,,,1,,,,,,,,,,,,,,,,,,,,,,,,,,,,,,,,,,,,,,,,45,jilguero,,,0,0,0.55196,0,65,65,44,1,REAL,FAKE,,,,,,,,,,,,,,,,,,,,,
,,,,,,,5727aecae386b9000f4000cd,60568611ec04488a9e9da93b,6056b518969601947a68554a,I am not familiar with Spanish,South,NA,no,2021-03-20_21h53.59.218,empathy_intonation_perc,2020.2.10,Win32,60,,,,,,,,,,0,,,,,,,,,,,,,,,,,,,,,,,,,,,,,,,,,,,,,,,,23,lampera,,,0,1,0.62257,0,66,66,22,1,REAL,FAKE,,,,,,,,,,,,,,,,,,,,,
,,,,,,,5727aecae386b9000f4000cd,60568611ec04488a9e9da93b,6056b518969601947a68554a,I am not familiar with Spanish,South,NA,no,2021-03-20_21h53.59.218,empathy_intonation_perc,2020.2.10,Win32,60,,,,,,,,,,0,,,,,,,,,,,,,,,,,,,,,,,,,,,,,,,,,,,,,,,,1,terzo,,,0,1,0.5298,0,67,67,0,1,REAL,FAKE,,,,,,,,,,,,,,,,,,,,,
,,,,,,,5727aecae386b9000f4000cd,60568611ec04488a9e9da93b,6056b518969601947a68554a,I am not familiar with Spanish,South,NA,no,2021-03-20_21h53.59.218,empathy_intonation_perc,2020.2.10,Win32,60,,,,,,,,,,1,,,,,,,,,,,,,,,,,,,,,,,,,,,,,,,,,,,,,,,,9,hacha,,,0,0,0.7465,0,68,68,8,1,REAL,FAKE,,,,,,,,,,,,,,,,,,,,,
,,,,,,,5727aecae386b9000f4000cd,60568611ec04488a9e9da93b,6056b518969601947a68554a,I am not familiar with Spanish,South,NA,no,2021-03-20_21h53.59.218,empathy_intonation_perc,2020.2.10,Win32,60,,,,,,,,,,1,,,,,,,,,,,,,,,,,,,,,,,,,,,,,,,,,,,,,,,,61,seda,,,0,0,0.624215,0,69,69,60,1,REAL,FAKE,,,,,,,,,,,,,,,,,,,,,
,,,,,,,5727aecae386b9000f4000cd,60568611ec04488a9e9da93b,6056b518969601947a68554a,I am not familiar with Spanish,South,NA,no,2021-03-20_21h53.59.218,empathy_intonation_perc,2020.2.10,Win32,60,,,,,,,,,,0,,,,,,,,,,,,,,,,,,,,,,,,,,,,,,,,,,,,,,,,30,alardio,,,0,1,0.58735,0,70,70,29,1,REAL,FAKE,,,,,,,,,,,,,,,,,,,,,
,,,,,,,5727aecae386b9000f4000cd,60568611ec04488a9e9da93b,6056b518969601947a68554a,I am not familiar with Spanish,South,NA,no,2021-03-20_21h53.59.218,empathy_intonation_perc,2020.2.10,Win32,60,,,,,,,,,,0,,,,,,,,,,,,,,,,,,,,,,,,,,,,,,,,,,,,,,,,29,decar,,,0,1,0.735445,0,71,71,28,1,REAL,FAKE,,,,,,,,,,,,,,,,,,,,,
,,,,,,,5727aecae386b9000f4000cd,60568611ec04488a9e9da93b,6056b518969601947a68554a,I am not familiar with Spanish,South,NA,no,2021-03-20_21h53.59.218,empathy_intonation_perc,2020.2.10,Win32,60,,,,,,,,,,1,,,,,,,,,,,,,,,,,,,,,,,,,,,,,,,,,,,,,,,,13,helar,,,0,0,0.520245,0,72,72,12,1,REAL,FAKE,,,,,,,,,,,,,,,,,,,,,
,,,,,,,5727aecae386b9000f4000cd,60568611ec04488a9e9da93b,6056b518969601947a68554a,I am not familiar with Spanish,South,NA,no,2021-03-20_21h53.59.218,empathy_intonation_perc,2020.2.10,Win32,60,,,,,,,,,,0,,,,,,,,,,,,,,,,,,,,,,,,,,,,,,,,,,,,,,,,33,pauca,,,0,1,0.50156,0,73,73,32,1,REAL,FAKE,,,,,,,,,,,,,,,,,,,,,
,,,,,,,5727aecae386b9000f4000cd,60568611ec04488a9e9da93b,6056b518969601947a68554a,I am not familiar with Spanish,South,NA,no,2021-03-20_21h53.59.218,empathy_intonation_perc,2020.2.10,Win32,60,,,,,,,,,,1,,,,,,,,,,,,,,,,,,,,,,,,,,,,,,,,,,,,,,,,86,barato,,,0,0,0.72147,0,74,74,85,1,REAL,FAKE,,,,,,,,,,,,,,,,,,,,,
,,,,,,,5727aecae386b9000f4000cd,60568611ec04488a9e9da93b,6056b518969601947a68554a,I am not familiar with Spanish,South,NA,no,2021-03-20_21h53.59.218,empathy_intonation_perc,2020.2.10,Win32,60,,,,,,,,,,0,,,,,,,,,,,,,,,,,,,,,,,,,,,,,,,,,,,,,,,,27,acutacin,,,0,1,0.919365,0,75,75,26,1,REAL,FAKE,,,,,,,,,,,,,,,,,,,,,
,,,,,,,5727aecae386b9000f4000cd,60568611ec04488a9e9da93b,6056b518969601947a68554a,I am not familiar with Spanish,South,NA,no,2021-03-20_21h53.59.218,empathy_intonation_perc,2020.2.10,Win32,60,,,,,,,,,,1,,,,,,,,,,,,,,,,,,,,,,,,,,,,,,,,,,,,,,,,88,acantilado,,,0,0,0.800225,0,76,76,87,1,REAL,FAKE,,,,,,,,,,,,,,,,,,,,,
,,,,,,,5727aecae386b9000f4000cd,60568611ec04488a9e9da93b,6056b518969601947a68554a,I am not familiar with Spanish,South,NA,no,2021-03-20_21h53.59.218,empathy_intonation_perc,2020.2.10,Win32,60,,,,,,,,,,1,,,,,,,,,,,,,,,,,,,,,,,,,,,,,,,,,,,,,,,,38,estornudar,,,0,0,0.757045,0,77,77,37,1,REAL,FAKE,,,,,,,,,,,,,,,,,,,,,
,,,,,,,5727aecae386b9000f4000cd,60568611ec04488a9e9da93b,6056b518969601947a68554a,I am not familiar with Spanish,South,NA,no,2021-03-20_21h53.59.218,empathy_intonation_perc,2020.2.10,Win32,60,,,,,,,,,,0,,,,,,,,,,,,,,,,,,,,,,,,,,,,,,,,,,,,,,,,50,flamida,,,0,1,0.851275,0,78,78,49,1,REAL,FAKE,,,,,,,,,,,,,,,,,,,,,
,,,,,,,5727aecae386b9000f4000cd,60568611ec04488a9e9da93b,6056b518969601947a68554a,I am not familiar with Spanish,South,NA,no,2021-03-20_21h53.59.218,empathy_intonation_perc,2020.2.10,Win32,60,,,,,,,,,,0,,,,,,,,,,,,,,,,,,,,,,,,,,,,,,,,,,,,,,,,58,plaudir,,,0,1,0.63818,0,79,79,57,1,REAL,FAKE,,,,,,,,,,,,,,,,,,,,,
,,,,,,,5727aecae386b9000f4000cd,60568611ec04488a9e9da93b,6056b518969601947a68554a,I am not familiar with Spanish,South,NA,no,2021-03-20_21h53.59.218,empathy_intonation_perc,2020.2.10,Win32,60,,,,,,,,,,1,,,,,,,,,,,,,,,,,,,,,,,,,,,,,,,,,,,,,,,,64,orgulloso,,,0,0,0.51904,0,80,80,63,1,REAL,FAKE,,,,,,,,,,,,,,,,,,,,,
,,,,,,,5727aecae386b9000f4000cd,60568611ec04488a9e9da93b,6056b518969601947a68554a,I am not familiar with Spanish,South,NA,no,2021-03-20_21h53.59.218,empathy_intonation_perc,2020.2.10,Win32,60,,,,,,,,,,0,,,,,,,,,,,,,,,,,,,,,,,,,,,,,,,,,,,,,,,,82,empirador,,,0,1,1.302275,0,81,81,81,1,REAL,FAKE,,,,,,,,,,,,,,,,,,,,,
,,,,,,,5727aecae386b9000f4000cd,60568611ec04488a9e9da93b,6056b518969601947a68554a,I am not familiar with Spanish,South,NA,no,2021-03-20_21h53.59.218,empathy_intonation_perc,2020.2.10,Win32,60,,,,,,,,,,1,,,,,,,,,,,,,,,,,,,,,,,,,,,,,,,,,,,,,,,,20,vido,,,0,0,0.740615,0,82,82,19,1,REAL,FAKE,,,,,,,,,,,,,,,,,,,,,
,,,,,,,5727aecae386b9000f4000cd,60568611ec04488a9e9da93b,6056b518969601947a68554a,I am not familiar with Spanish,South,NA,no,2021-03-20_21h53.59.218,empathy_intonation_perc,2020.2.10,Win32,60,,,,,,,,,,0,,,,,,,,,,,,,,,,,,,,,,,,,,,,,,,,,,,,,,,,32,fatacidad,,,0,1,0.81234,0,83,83,31,1,REAL,FAKE,,,,,,,,,,,,,,,,,,,,,
,,,,,,,5727aecae386b9000f4000cd,60568611ec04488a9e9da93b,6056b518969601947a68554a,I am not familiar with Spanish,South,NA,no,2021-03-20_21h53.59.218,empathy_intonation_perc,2020.2.10,Win32,60,,,,,,,,,,1,,,,,,,,,,,,,,,,,,,,,,,,,,,,,,,,,,,,,,,,67,cabello,,,0,0,1.018975,0,84,84,66,1,REAL,FAKE,,,,,,,,,,,,,,,,,,,,,
,,,,,,,5727aecae386b9000f4000cd,60568611ec04488a9e9da93b,6056b518969601947a68554a,I am not familiar with Spanish,South,NA,no,2021-03-20_21h53.59.218,empathy_intonation_perc,2020.2.10,Win32,60,,,,,,,,,,1,,,,,,,,,,,,,,,,,,,,,,,,,,,,,,,,,,,,,,,,90,clavel,,,0,0,7.50339,0,85,85,89,1,REAL,FAKE,,,,,,,,,,,,,,,,,,,,,
,,,,,,,5727aecae386b9000f4000cd,60568611ec04488a9e9da93b,6056b518969601947a68554a,I am not familiar with Spanish,South,NA,no,2021-03-20_21h53.59.218,empathy_intonation_perc,2020.2.10,Win32,60,,,,,,,,,,1,,,,,,,,,,,,,,,,,,,,,,,,,,,,,,,,,,,,,,,,83,guante,,,0,0,0.86834,0,86,86,82,1,REAL,FAKE,,,,,,,,,,,,,,,,,,,,,
,,,,,,,5727aecae386b9000f4000cd,60568611ec04488a9e9da93b,6056b518969601947a68554a,I am not familiar with Spanish,South,NA,no,2021-03-20_21h53.59.218,empathy_intonation_perc,2020.2.10,Win32,60,,,,,,,,,,1,,,,,,,,,,,,,,,,,,,,,,,,,,,,,,,,,,,,,,,,51,candado,,,0,0,1.53091,0,87,87,50,1,REAL,FAKE,,,,,,,,,,,,,,,,,,,,,
,,,,,,,5727aecae386b9000f4000cd,60568611ec04488a9e9da93b,6056b518969601947a68554a,I am not familiar with Spanish,South,NA,no,2021-03-20_21h53.59.218,empathy_intonation_perc,2020.2.10,Win32,60,,,,,,,,,,0,,,,,,,,,,,,,,,,,,,,,,,,,,,,,,,,,,,,,,,,87,grodo,,,0,1,1.054865,0,88,88,86,1,REAL,FAKE,,,,,,,,,,,,,,,,,,,,,
,,,,,,,5727aecae386b9000f4000cd,60568611ec04488a9e9da93b,6056b518969601947a68554a,I am not familiar with Spanish,South,NA,no,2021-03-20_21h53.59.218,empathy_intonation_perc,2020.2.10,Win32,60,,,,,,,,,,1,,,,,,,,,,,,,,,,,,,,,,,,,,,,,,,,,,,,,,,,56,musgo,,,0,0,0.723745,0,89,89,55,1,REAL,FAKE,,,,,,,,,,,,,,,,,,,,,
,,,,,,,5727aecae386b9000f4000cd,60568611ec04488a9e9da93b,6056b518969601947a68554a,I am not familiar with Spanish,South,NA,no,2021-03-20_21h53.59.218,empathy_intonation_perc,2020.2.10,Win32,60,,,,,,,,,,,,,,,,,,,,,,,,,,,,,,,,,,,,,,,,,,,,,,,,,,,,,,,,,,,,,,,,4,1,3.535395,1,0,0,0,0,0,1,,,,,,,,,,,
,,,,,,,5727aecae386b9000f4000cd,60568611ec04488a9e9da93b,6056b518969601947a68554a,I am not familiar with Spanish,South,NA,no,2021-03-20_21h53.59.218,empathy_intonation_perc,2020.2.10,Win32,60,,,,,,,,,,,,,,,,,,,,1,,,,,,,,,,,,,,,,,,,,,,,,,,,,,,,,,,,,,,,,,,,,,,,,,,,,,,2,0,0,0,0,1,I can easily tell if someone else wants to enter a conversation.,1,0,1,0
,,,,,,,5727aecae386b9000f4000cd,60568611ec04488a9e9da93b,6056b518969601947a68554a,I am not familiar with Spanish,South,NA,no,2021-03-20_21h53.59.218,empathy_intonation_perc,2020.2.10,Win32,60,,,,,,,,,,,,,,,,,,,,2,,,,,,,,,,,,,,,,,,,,,,,,,,,,,,,,,,,,,,,,,,,,,,,,,,,,,,2,0,1,1,1,1,I prefer animals to humans.,0,1,0,0
