instructions_2afc_loop.thisRepN,instructions_2afc_loop.thisTrialN,instructions_2afc_loop.thisN,instructions_2afc_loop.thisIndex,instructions_2afc_loop.ran,instructions_text,continue_text,participant,study_id,session,I am most familiar with Spanish from...*,What part of the US are you from?*,At what age did you begin learning Spanish?*,Are you proficient in any languages other than English/Spanish?*,date,expName,psychopyVersion,OS,frameRate,key_resp_2afc_practice.keys,key_resp_2afc_practice.corr,key_resp_2afc_practice.rt,trials_2afc_practice_loop.thisRepN,trials_2afc_practice_loop.thisTrialN,trials_2afc_practice_loop.thisN,trials_2afc_practice_loop.thisIndex,trials_2afc_practice_loop.ran,path,correct_response,the_col,key_resp_2afc_trial.keys,key_resp_2afc_trial.corr,key_resp_2afc_trial.rt,trials_2afc_loop.thisRepN,trials_2afc_loop.thisTrialN,trials_2afc_loop.thisN,trials_2afc_loop.thisIndex,trials_2afc_loop.ran,item_num,andalusian,argentine,castilian,chilean,cuban,mexican,peruvian,puertorican,key_resp_ac1.keys,key_resp_ac1.corr,key_resp_ac1.rt,ac1_loop.thisRepN,ac1_loop.thisTrialN,ac1_loop.thisN,ac1_loop.thisIndex,ac1_loop.ran,instructions_lextale_loop.thisRepN,instructions_lextale_loop.thisTrialN,instructions_lextale_loop.thisN,instructions_lextale_loop.thisIndex,instructions_lextale_loop.ran,key_resp_lextale_practice.keys,key_resp_lextale_practice.corr,key_resp_lextale_practice.rt,trials_lextale_practice_loop.thisRepN,trials_lextale_practice_loop.thisTrialN,trials_lextale_practice_loop.thisN,trials_lextale_practice_loop.thisIndex,trials_lextale_practice_loop.ran,stim,word,prac_button_real,prac_button_false,key_resp_lextale_trial.keys,key_resp_lextale_trial.corr,key_resp_lextale_trial.rt,trials_lextale_loop.thisRepN,trials_lextale_loop.thisTrialN,trials_lextale_loop.thisN,trials_lextale_loop.thisIndex,trials_lextale_loop.ran,button_real,button_false,key_resp_ac2.keys,key_resp_ac2.corr,key_resp_ac2.rt,check_pass,check_fails,ac2_loop.thisRepN,ac2_loop.thisTrialN,ac2_loop.thisN,ac2_loop.thisIndex,ac2_loop.ran,slider_eq_trial.response,trials_eq_loop.thisRepN,trials_eq_loop.thisTrialN,trials_eq_loop.thisN,trials_eq_loop.thisIndex,trials_eq_loop.ran,item,is_test_item,is_distractor,is_agree_score,is_disagree_score
0,0,0,0,1,"In the following task you are going to hear a series of utterances. 

  You will decide if the utterances sound like questions or not using your keyboard.",(press the spacebar to continue),57901207c9abeb0001af353e,60568611ec04488a9e9da93b,6056ac2d4f57565217066250,I am not familiar with Spanish,Midwest,NA,no,2021-03-20_21h32.56.656,empathy_intonation_perc,2020.2.10,Win32,60,,,,,,,,,,,,,,,,,,,,,,,,,,,,,,,,,,,,,,,,,,,,,,,,,,,,,,,,,,,,,,,,,,,,,,,,,,,,,,,,,,,,
0,1,1,1,1,"If you believe the utterance is a question, type '1' (for 'yes') and if you do not 
  believe it is a question type '0' (for 'no').

  Let's practice a bit...",(press the spacebar to continue),57901207c9abeb0001af353e,60568611ec04488a9e9da93b,6056ac2d4f57565217066250,I am not familiar with Spanish,Midwest,NA,no,2021-03-20_21h32.56.656,empathy_intonation_perc,2020.2.10,Win32,60,,,,,,,,,,,,,,,,,,,,,,,,,,,,,,,,,,,,,,,,,,,,,,,,,,,,,,,,,,,,,,,,,,,,,,,,,,,,,,,,,,,,
,,,,,,,57901207c9abeb0001af353e,60568611ec04488a9e9da93b,6056ac2d4f57565217066250,I am not familiar with Spanish,Midwest,NA,no,2021-03-20_21h32.56.656,empathy_intonation_perc,2020.2.10,Win32,60,1,1,1.849,0,0,0,1,1,./stim/wavs/argentine_question_filler_Mi-vecino-habla-mucho.wav,1,,,,,,,,,,,,,,,,,,,,,,,,,,,,,,,,,,,,,,,,,,,,,,,,,,,,,,,,,,,,,,,,,,,,,,,,,,
,,,,,,,57901207c9abeb0001af353e,60568611ec04488a9e9da93b,6056ac2d4f57565217066250,I am not familiar with Spanish,Midwest,NA,no,2021-03-20_21h32.56.656,empathy_intonation_perc,2020.2.10,Win32,60,0,1,2.199,0,1,1,7,1,./stim/wavs/puertorican_statement_filler_La-nina-pinta-con-su-amiga.wav,0,,,,,,,,,,,,,,,,,,,,,,,,,,,,,,,,,,,,,,,,,,,,,,,,,,,,,,,,,,,,,,,,,,,,,,,,,,
,,,,,,,57901207c9abeb0001af353e,60568611ec04488a9e9da93b,6056ac2d4f57565217066250,I am not familiar with Spanish,Midwest,NA,no,2021-03-20_21h32.56.656,empathy_intonation_perc,2020.2.10,Win32,60,1,1,2.105,0,2,2,0,1,./stim/wavs/castilian_question_filler_Mi-esposo-conoce-al-chico.wav,1,,,,,,,,,,,,,,,,,,,,,,,,,,,,,,,,,,,,,,,,,,,,,,,,,,,,,,,,,,,,,,,,,,,,,,,,,,
,,,,,,,57901207c9abeb0001af353e,60568611ec04488a9e9da93b,6056ac2d4f57565217066250,I am not familiar with Spanish,Midwest,NA,no,2021-03-20_21h32.56.656,empathy_intonation_perc,2020.2.10,Win32,60,0,1,1.823,0,3,3,4,1,./stim/wavs/cuban_statement_filler_Cocinabas-por-la-noche.wav,0,,,,,,,,,,,,,,,,,,,,,,,,,,,,,,,,,,,,,,,,,,,,,,,,,,,,,,,,,,,,,,,,,,,,,,,,,,
,,,,,,,57901207c9abeb0001af353e,60568611ec04488a9e9da93b,6056ac2d4f57565217066250,I am not familiar with Spanish,Midwest,NA,no,2021-03-20_21h32.56.656,empathy_intonation_perc,2020.2.10,Win32,60,0,1,2.933,0,4,4,5,1,./stim/wavs/andalusian_statement_filler_Alberto-nunca-se-afeita.wav,0,,,,,,,,,,,,,,,,,,,,,,,,,,,,,,,,,,,,,,,,,,,,,,,,,,,,,,,,,,,,,,,,,,,,,,,,,,
,,,,,,,57901207c9abeb0001af353e,60568611ec04488a9e9da93b,6056ac2d4f57565217066250,I am not familiar with Spanish,Midwest,NA,no,2021-03-20_21h32.56.656,empathy_intonation_perc,2020.2.10,Win32,60,0,1,2.488,0,5,5,6,1,./stim/wavs/peruvian_statement_filler_El-nino-habla-con-su-madre.wav,0,,,,,,,,,,,,,,,,,,,,,,,,,,,,,,,,,,,,,,,,,,,,,,,,,,,,,,,,,,,,,,,,,,,,,,,,,,
,,,,,,,57901207c9abeb0001af353e,60568611ec04488a9e9da93b,6056ac2d4f57565217066250,I am not familiar with Spanish,Midwest,NA,no,2021-03-20_21h32.56.656,empathy_intonation_perc,2020.2.10,Win32,60,1,1,2.052,0,6,6,3,1,./stim/wavs/mexican_question_filler_Felipe-no-tiene-contrasena.wav,1,,,,,,,,,,,,,,,,,,,,,,,,,,,,,,,,,,,,,,,,,,,,,,,,,,,,,,,,,,,,,,,,,,,,,,,,,,
,,,,,,,57901207c9abeb0001af353e,60568611ec04488a9e9da93b,6056ac2d4f57565217066250,I am not familiar with Spanish,Midwest,NA,no,2021-03-20_21h32.56.656,empathy_intonation_perc,2020.2.10,Win32,60,0,0,2.674,0,7,7,2,1,./stim/wavs/chilean_question_filler_Mi-padre-cantaba-bien.wav,1,,,,,,,,,,,,,,,,,,,,,,,,,,,,,,,,,,,,,,,,,,,,,,,,,,,,,,,,,,,,,,,,,,,,,,,,,,
,,,,,,,57901207c9abeb0001af353e,60568611ec04488a9e9da93b,6056ac2d4f57565217066250,I am not familiar with Spanish,Midwest,NA,no,2021-03-20_21h32.56.656,empathy_intonation_perc,2020.2.10,Win32,60,,,,,,,,,,1,mexican,0,0,2.808,0,0,0,17,1,18,./stim/wavs/andalusian_match_interrogative-partial-wh_Cuando-leia-el-libro.wav,./stim/wavs/argentine_match_interrogative-partial-wh_Cuando-leia-el-libro.wav,./stim/wavs/castilian_match_interrogative-partial-wh_Cuando-leia-el-libro.wav,./stim/wavs/chilean_match_interrogative-partial-wh_Cuando-leia-el-libro.wav,./stim/wavs/cuban_match_interrogative-partial-wh_Cuando-leia-el-libro.wav,./stim/wavs/mexican_match_interrogative-partial-wh_Cuando-leia-el-libro.wav,./stim/wavs/peruvian_match_interrogative-partial-wh_Cuando-leia-el-libro.wav,./stim/wavs/puertorican_match_interrogative-partial-wh_Cuando-leia-el-libro.wav,,,,,,,,,,,,,,,,,,,,,,,,,,,,,,,,,,,,,,,,,,,,,,,,,,,,,,,,
,,,,,,,57901207c9abeb0001af353e,60568611ec04488a9e9da93b,6056ac2d4f57565217066250,I am not familiar with Spanish,Midwest,NA,no,2021-03-20_21h32.56.656,empathy_intonation_perc,2020.2.10,Win32,60,,,,,,,,,,0,argentine,0,1,2.551,0,1,1,8,1,9,./stim/wavs/andalusian_match_declarative-narrow-focus_Ana-lleva-el-abrigo.wav,./stim/wavs/argentine_match_declarative-narrow-focus_Ana-lleva-el-abrigo.wav,./stim/wavs/castilian_match_declarative-narrow-focus_Ana-lleva-el-abrigo.wav,./stim/wavs/chilean_match_declarative-narrow-focus_Ana-lleva-el-abrigo.wav,./stim/wavs/cuban_match_declarative-narrow-focus_Ana-lleva-el-abrigo.wav,./stim/wavs/mexican_match_declarative-narrow-focus_Ana-lleva-el-abrigo.wav,./stim/wavs/peruvian_match_declarative-narrow-focus_Ana-lleva-el-abrigo.wav,./stim/wavs/puertorican_match_declarative-narrow-focus_Ana-lleva-el-abrigo.wav,,,,,,,,,,,,,,,,,,,,,,,,,,,,,,,,,,,,,,,,,,,,,,,,,,,,,,,,
,,,,,,,57901207c9abeb0001af353e,60568611ec04488a9e9da93b,6056ac2d4f57565217066250,I am not familiar with Spanish,Midwest,NA,no,2021-03-20_21h32.56.656,empathy_intonation_perc,2020.2.10,Win32,60,,,,,,,,,,0,andalusian,0,1,2.165,0,2,2,3,1,4,./stim/wavs/andalusian_match_declarative-broad-focus_Emilio-ama-la-marcha.wav,./stim/wavs/argentine_match_declarative-broad-focus_Emilio-ama-la-marcha.wav,./stim/wavs/castilian_match_declarative-broad-focus_Emilio-ama-la-marcha.wav,./stim/wavs/chilean_match_declarative-broad-focus_Emilio-ama-la-marcha.wav,./stim/wavs/cuban_match_declarative-broad-focus_Emilio-ama-la-marcha.wav,./stim/wavs/mexican_match_declarative-broad-focus_Emilio-ama-la-marcha.wav,./stim/wavs/peruvian_match_declarative-broad-focus_Emilio-ama-la-marcha.wav,./stim/wavs/puertorican_match_declarative-broad-focus_Emilio-ama-la-marcha.wav,,,,,,,,,,,,,,,,,,,,,,,,,,,,,,,,,,,,,,,,,,,,,,,,,,,,,,,,
,,,,,,,57901207c9abeb0001af353e,60568611ec04488a9e9da93b,6056ac2d4f57565217066250,I am not familiar with Spanish,Midwest,NA,no,2021-03-20_21h32.56.656,empathy_intonation_perc,2020.2.10,Win32,60,,,,,,,,,,1,cuban,0,0,2.386,0,3,3,30,1,31,./stim/wavs/andalusian_match_interrogative-total-yn_Mariano-habla-del-tiempo.wav,./stim/wavs/argentine_match_interrogative-total-yn_Mariano-habla-del-tiempo.wav,./stim/wavs/castilian_match_interrogative-total-yn_Mariano-habla-del-tiempo.wav,./stim/wavs/chilean_match_interrogative-total-yn_Mariano-habla-del-tiempo.wav,./stim/wavs/cuban_match_interrogative-total-yn_Mariano-habla-del-tiempo.wav,./stim/wavs/mexican_match_interrogative-total-yn_Mariano-habla-del-tiempo.wav,./stim/wavs/peruvian_match_interrogative-total-yn_Mariano-habla-del-tiempo.wav,./stim/wavs/puertorican_match_interrogative-total-yn_Mariano-habla-del-tiempo.wav,,,,,,,,,,,,,,,,,,,,,,,,,,,,,,,,,,,,,,,,,,,,,,,,,,,,,,,,
,,,,,,,57901207c9abeb0001af353e,60568611ec04488a9e9da93b,6056ac2d4f57565217066250,I am not familiar with Spanish,Midwest,NA,no,2021-03-20_21h32.56.656,empathy_intonation_perc,2020.2.10,Win32,60,,,,,,,,,,0,argentine,0,1,2.306,0,4,4,37,1,38,./stim/wavs/andalusian_mismatch_declarative-broad-focus_Mi-madre-come-la-fruta.wav,./stim/wavs/argentine_mismatch_declarative-broad-focus_Mi-madre-come-la-fruta.wav,./stim/wavs/castilian_mismatch_declarative-broad-focus_Mi-madre-come-la-fruta.wav,./stim/wavs/chilean_mismatch_declarative-broad-focus_Mi-madre-come-la-fruta.wav,./stim/wavs/cuban_mismatch_declarative-broad-focus_Mi-madre-come-la-fruta.wav,./stim/wavs/mexican_mismatch_declarative-broad-focus_Mi-madre-come-la-fruta.wav,./stim/wavs/peruvian_mismatch_declarative-broad-focus_Mi-madre-come-la-fruta.wav,./stim/wavs/puertorican_mismatch_declarative-broad-focus_Mi-madre-come-la-fruta.wav,,,,,,,,,,,,,,,,,,,,,,,,,,,,,,,,,,,,,,,,,,,,,,,,,,,,,,,,
,,,,,,,57901207c9abeb0001af353e,60568611ec04488a9e9da93b,6056ac2d4f57565217066250,I am not familiar with Spanish,Midwest,NA,no,2021-03-20_21h32.56.656,empathy_intonation_perc,2020.2.10,Win32,60,,,,,,,,,,0,argentine,1,0,3.468,0,5,5,4,1,5,./stim/wavs/andalusian_match_declarative-broad-focus_Manuela-vende-el-carro.wav,./stim/wavs/argentine_match_declarative-broad-focus_Manuela-vende-el-carro.wav,./stim/wavs/castilian_match_declarative-broad-focus_Manuela-vende-el-carro.wav,./stim/wavs/chilean_match_declarative-broad-focus_Manuela-vende-el-carro.wav,./stim/wavs/cuban_match_declarative-broad-focus_Manuela-vende-el-carro.wav,./stim/wavs/mexican_match_declarative-broad-focus_Manuela-vende-el-carro.wav,./stim/wavs/peruvian_match_declarative-broad-focus_Manuela-vende-el-carro.wav,./stim/wavs/puertorican_match_declarative-broad-focus_Manuela-vende-el-carro.wav,,,,,,,,,,,,,,,,,,,,,,,,,,,,,,,,,,,,,,,,,,,,,,,,,,,,,,,,
,,,,,,,57901207c9abeb0001af353e,60568611ec04488a9e9da93b,6056ac2d4f57565217066250,I am not familiar with Spanish,Midwest,NA,no,2021-03-20_21h32.56.656,empathy_intonation_perc,2020.2.10,Win32,60,,,,,,,,,,0,andalusian,1,0,2.04,0,6,6,41,1,42,./stim/wavs/andalusian_mismatch_declarative-narrow-focus_El-hombre-mira-la-luna.wav,./stim/wavs/argentine_mismatch_declarative-narrow-focus_El-hombre-mira-la-luna.wav,./stim/wavs/castilian_mismatch_declarative-narrow-focus_El-hombre-mira-la-luna.wav,./stim/wavs/chilean_mismatch_declarative-narrow-focus_El-hombre-mira-la-luna.wav,./stim/wavs/cuban_mismatch_declarative-narrow-focus_El-hombre-mira-la-luna.wav,./stim/wavs/mexican_mismatch_declarative-narrow-focus_El-hombre-mira-la-luna.wav,./stim/wavs/peruvian_mismatch_declarative-narrow-focus_El-hombre-mira-la-luna.wav,./stim/wavs/puertorican_mismatch_declarative-narrow-focus_El-hombre-mira-la-luna.wav,,,,,,,,,,,,,,,,,,,,,,,,,,,,,,,,,,,,,,,,,,,,,,,,,,,,,,,,
,,,,,,,57901207c9abeb0001af353e,60568611ec04488a9e9da93b,6056ac2d4f57565217066250,I am not familiar with Spanish,Midwest,NA,no,2021-03-20_21h32.56.656,empathy_intonation_perc,2020.2.10,Win32,60,,,,,,,,,,1,peruvian,0,0,2.57,0,7,7,52,1,53,./stim/wavs/andalusian_mismatch_interrogative-partial-wh_Por-que-odiaba-la-lluvia.wav,./stim/wavs/argentine_mismatch_interrogative-partial-wh_Por-que-odiaba-la-lluvia.wav,./stim/wavs/castilian_mismatch_interrogative-partial-wh_Por-que-odiaba-la-lluvia.wav,./stim/wavs/chilean_mismatch_interrogative-partial-wh_Por-que-odiaba-la-lluvia.wav,./stim/wavs/cuban_mismatch_interrogative-partial-wh_Por-que-odiaba-la-lluvia.wav,./stim/wavs/mexican_mismatch_interrogative-partial-wh_Por-que-odiaba-la-lluvia.wav,./stim/wavs/peruvian_mismatch_interrogative-partial-wh_Por-que-odiaba-la-lluvia.wav,./stim/wavs/puertorican_mismatch_interrogative-partial-wh_Por-que-odiaba-la-lluvia.wav,,,,,,,,,,,,,,,,,,,,,,,,,,,,,,,,,,,,,,,,,,,,,,,,,,,,,,,,
,,,,,,,57901207c9abeb0001af353e,60568611ec04488a9e9da93b,6056ac2d4f57565217066250,I am not familiar with Spanish,Midwest,NA,no,2021-03-20_21h32.56.656,empathy_intonation_perc,2020.2.10,Win32,60,,,,,,,,,,1,chilean,1,1,1.685,0,8,8,25,1,26,./stim/wavs/andalusian_match_interrogative-total-yn_Daniel-iba-a-Bolivia.wav,./stim/wavs/argentine_match_interrogative-total-yn_Daniel-iba-a-Bolivia.wav,./stim/wavs/castilian_match_interrogative-total-yn_Daniel-iba-a-Bolivia.wav,./stim/wavs/chilean_match_interrogative-total-yn_Daniel-iba-a-Bolivia.wav,./stim/wavs/cuban_match_interrogative-total-yn_Daniel-iba-a-Bolivia.wav,./stim/wavs/mexican_match_interrogative-total-yn_Daniel-iba-a-Bolivia.wav,./stim/wavs/peruvian_match_interrogative-total-yn_Daniel-iba-a-Bolivia.wav,./stim/wavs/puertorican_match_interrogative-total-yn_Daniel-iba-a-Bolivia.wav,,,,,,,,,,,,,,,,,,,,,,,,,,,,,,,,,,,,,,,,,,,,,,,,,,,,,,,,
,,,,,,,57901207c9abeb0001af353e,60568611ec04488a9e9da93b,6056ac2d4f57565217066250,I am not familiar with Spanish,Midwest,NA,no,2021-03-20_21h32.56.656,empathy_intonation_perc,2020.2.10,Win32,60,,,,,,,,,,1,cuban,0,0,2.102,0,9,9,55,1,56,./stim/wavs/andalusian_mismatch_interrogative-partial-wh_Por-que-vivia-en-Paris.wav,./stim/wavs/argentine_mismatch_interrogative-partial-wh_Por-que-vivia-en-Paris.wav,./stim/wavs/castilian_mismatch_interrogative-partial-wh_Por-que-vivia-en-Paris.wav,./stim/wavs/chilean_mismatch_interrogative-partial-wh_Por-que-vivia-en-Paris.wav,./stim/wavs/cuban_mismatch_interrogative-partial-wh_Por-que-vivia-en-Paris.wav,./stim/wavs/mexican_mismatch_interrogative-partial-wh_Por-que-vivia-en-Paris.wav,./stim/wavs/peruvian_mismatch_interrogative-partial-wh_Por-que-vivia-en-Paris.wav,./stim/wavs/puertorican_mismatch_interrogative-partial-wh_Por-que-vivia-en-Paris.wav,,,,,,,,,,,,,,,,,,,,,,,,,,,,,,,,,,,,,,,,,,,,,,,,,,,,,,,,
,,,,,,,57901207c9abeb0001af353e,60568611ec04488a9e9da93b,6056ac2d4f57565217066250,I am not familiar with Spanish,Midwest,NA,no,2021-03-20_21h32.56.656,empathy_intonation_perc,2020.2.10,Win32,60,,,,,,,,,,1,argentine,1,1,1.987,0,10,10,28,1,29,./stim/wavs/andalusian_match_interrogative-total-yn_Manuela-vende-el-carro.wav,./stim/wavs/argentine_match_interrogative-total-yn_Manuela-vende-el-carro.wav,./stim/wavs/castilian_match_interrogative-total-yn_Manuela-vende-el-carro.wav,./stim/wavs/chilean_match_interrogative-total-yn_Manuela-vende-el-carro.wav,./stim/wavs/cuban_match_interrogative-total-yn_Manuela-vende-el-carro.wav,./stim/wavs/mexican_match_interrogative-total-yn_Manuela-vende-el-carro.wav,./stim/wavs/peruvian_match_interrogative-total-yn_Manuela-vende-el-carro.wav,./stim/wavs/puertorican_match_interrogative-total-yn_Manuela-vende-el-carro.wav,,,,,,,,,,,,,,,,,,,,,,,,,,,,,,,,,,,,,,,,,,,,,,,,,,,,,,,,
,,,,,,,57901207c9abeb0001af353e,60568611ec04488a9e9da93b,6056ac2d4f57565217066250,I am not familiar with Spanish,Midwest,NA,no,2021-03-20_21h32.56.656,empathy_intonation_perc,2020.2.10,Win32,60,,,,,,,,,,1,chilean,1,1,1.985,0,11,11,63,1,64,./stim/wavs/andalusian_mismatch_interrogative-total-yn_Mi-tia-odia-la-lluvia.wav,./stim/wavs/argentine_mismatch_interrogative-total-yn_Mi-tia-odia-la-lluvia.wav,./stim/wavs/castilian_mismatch_interrogative-total-yn_Mi-tia-odia-la-lluvia.wav,./stim/wavs/chilean_mismatch_interrogative-total-yn_Mi-tia-odia-la-lluvia.wav,./stim/wavs/cuban_mismatch_interrogative-total-yn_Mi-tia-odia-la-lluvia.wav,./stim/wavs/mexican_mismatch_interrogative-total-yn_Mi-tia-odia-la-lluvia.wav,./stim/wavs/peruvian_mismatch_interrogative-total-yn_Mi-tia-odia-la-lluvia.wav,./stim/wavs/puertorican_mismatch_interrogative-total-yn_Mi-tia-odia-la-lluvia.wav,,,,,,,,,,,,,,,,,,,,,,,,,,,,,,,,,,,,,,,,,,,,,,,,,,,,,,,,
,,,,,,,57901207c9abeb0001af353e,60568611ec04488a9e9da93b,6056ac2d4f57565217066250,I am not familiar with Spanish,Midwest,NA,no,2021-03-20_21h32.56.656,empathy_intonation_perc,2020.2.10,Win32,60,,,,,,,,,,0,mexican,0,1,1.951,0,12,12,38,1,39,./stim/wavs/andalusian_mismatch_declarative-broad-focus_Mi-novio-viene-del-lago.wav,./stim/wavs/argentine_mismatch_declarative-broad-focus_Mi-novio-viene-del-lago.wav,./stim/wavs/castilian_mismatch_declarative-broad-focus_Mi-novio-viene-del-lago.wav,./stim/wavs/chilean_mismatch_declarative-broad-focus_Mi-novio-viene-del-lago.wav,./stim/wavs/cuban_mismatch_declarative-broad-focus_Mi-novio-viene-del-lago.wav,./stim/wavs/mexican_mismatch_declarative-broad-focus_Mi-novio-viene-del-lago.wav,./stim/wavs/peruvian_mismatch_declarative-broad-focus_Mi-novio-viene-del-lago.wav,./stim/wavs/puertorican_mismatch_declarative-broad-focus_Mi-novio-viene-del-lago.wav,,,,,,,,,,,,,,,,,,,,,,,,,,,,,,,,,,,,,,,,,,,,,,,,,,,,,,,,
,,,,,,,57901207c9abeb0001af353e,60568611ec04488a9e9da93b,6056ac2d4f57565217066250,I am not familiar with Spanish,Midwest,NA,no,2021-03-20_21h32.56.656,empathy_intonation_perc,2020.2.10,Win32,60,,,,,,,,,,0,peruvian,0,1,2.535,0,13,13,43,1,44,./stim/wavs/andalusian_mismatch_declarative-narrow-focus_La-maestra-vive-en-Paris.wav,./stim/wavs/argentine_mismatch_declarative-narrow-focus_La-maestra-vive-en-Paris.wav,./stim/wavs/castilian_mismatch_declarative-narrow-focus_La-maestra-vive-en-Paris.wav,./stim/wavs/chilean_mismatch_declarative-narrow-focus_La-maestra-vive-en-Paris.wav,./stim/wavs/cuban_mismatch_declarative-narrow-focus_La-maestra-vive-en-Paris.wav,./stim/wavs/mexican_mismatch_declarative-narrow-focus_La-maestra-vive-en-Paris.wav,./stim/wavs/peruvian_mismatch_declarative-narrow-focus_La-maestra-vive-en-Paris.wav,./stim/wavs/puertorican_mismatch_declarative-narrow-focus_La-maestra-vive-en-Paris.wav,,,,,,,,,,,,,,,,,,,,,,,,,,,,,,,,,,,,,,,,,,,,,,,,,,,,,,,,
,,,,,,,57901207c9abeb0001af353e,60568611ec04488a9e9da93b,6056ac2d4f57565217066250,I am not familiar with Spanish,Midwest,NA,no,2021-03-20_21h32.56.656,empathy_intonation_perc,2020.2.10,Win32,60,,,,,,,,,,0,argentine,0,1,2.085,0,14,14,10,1,11,./stim/wavs/andalusian_match_declarative-narrow-focus_David-leia-el-libro.wav,./stim/wavs/argentine_match_declarative-narrow-focus_David-leia-el-libro.wav,./stim/wavs/castilian_match_declarative-narrow-focus_David-leia-el-libro.wav,./stim/wavs/chilean_match_declarative-narrow-focus_David-leia-el-libro.wav,./stim/wavs/cuban_match_declarative-narrow-focus_David-leia-el-libro.wav,./stim/wavs/mexican_match_declarative-narrow-focus_David-leia-el-libro.wav,./stim/wavs/peruvian_match_declarative-narrow-focus_David-leia-el-libro.wav,./stim/wavs/puertorican_match_declarative-narrow-focus_David-leia-el-libro.wav,,,,,,,,,,,,,,,,,,,,,,,,,,,,,,,,,,,,,,,,,,,,,,,,,,,,,,,,
,,,,,,,57901207c9abeb0001af353e,60568611ec04488a9e9da93b,6056ac2d4f57565217066250,I am not familiar with Spanish,Midwest,NA,no,2021-03-20_21h32.56.656,empathy_intonation_perc,2020.2.10,Win32,60,,,,,,,,,,0,chilean,0,1,2.668,0,15,15,6,1,7,./stim/wavs/andalusian_match_declarative-broad-focus_Mariano-habla-del-tiempo.wav,./stim/wavs/argentine_match_declarative-broad-focus_Mariano-habla-del-tiempo.wav,./stim/wavs/castilian_match_declarative-broad-focus_Mariano-habla-del-tiempo.wav,./stim/wavs/chilean_match_declarative-broad-focus_Mariano-habla-del-tiempo.wav,./stim/wavs/cuban_match_declarative-broad-focus_Mariano-habla-del-tiempo.wav,./stim/wavs/mexican_match_declarative-broad-focus_Mariano-habla-del-tiempo.wav,./stim/wavs/peruvian_match_declarative-broad-focus_Mariano-habla-del-tiempo.wav,./stim/wavs/puertorican_match_declarative-broad-focus_Mariano-habla-del-tiempo.wav,,,,,,,,,,,,,,,,,,,,,,,,,,,,,,,,,,,,,,,,,,,,,,,,,,,,,,,,
,,,,,,,57901207c9abeb0001af353e,60568611ec04488a9e9da93b,6056ac2d4f57565217066250,I am not familiar with Spanish,Midwest,NA,no,2021-03-20_21h32.56.656,empathy_intonation_perc,2020.2.10,Win32,60,,,,,,,,,,0,mexican,0,1,1.919,0,16,16,9,1,10,./stim/wavs/andalusian_match_declarative-narrow-focus_Daniel-iba-a-Bolivia.wav,./stim/wavs/argentine_match_declarative-narrow-focus_Daniel-iba-a-Bolivia.wav,./stim/wavs/castilian_match_declarative-narrow-focus_Daniel-iba-a-Bolivia.wav,./stim/wavs/chilean_match_declarative-narrow-focus_Daniel-iba-a-Bolivia.wav,./stim/wavs/cuban_match_declarative-narrow-focus_Daniel-iba-a-Bolivia.wav,./stim/wavs/mexican_match_declarative-narrow-focus_Daniel-iba-a-Bolivia.wav,./stim/wavs/peruvian_match_declarative-narrow-focus_Daniel-iba-a-Bolivia.wav,./stim/wavs/puertorican_match_declarative-narrow-focus_Daniel-iba-a-Bolivia.wav,,,,,,,,,,,,,,,,,,,,,,,,,,,,,,,,,,,,,,,,,,,,,,,,,,,,,,,,
,,,,,,,57901207c9abeb0001af353e,60568611ec04488a9e9da93b,6056ac2d4f57565217066250,I am not familiar with Spanish,Midwest,NA,no,2021-03-20_21h32.56.656,empathy_intonation_perc,2020.2.10,Win32,60,,,,,,,,,,0,castilian,0,1,2.133,0,17,17,40,1,41,./stim/wavs/andalusian_mismatch_declarative-narrow-focus_El-bebe-comia-muy-bien.wav,./stim/wavs/argentine_mismatch_declarative-narrow-focus_El-bebe-comia-muy-bien.wav,./stim/wavs/castilian_mismatch_declarative-narrow-focus_El-bebe-comia-muy-bien.wav,./stim/wavs/chilean_mismatch_declarative-narrow-focus_El-bebe-comia-muy-bien.wav,./stim/wavs/cuban_mismatch_declarative-narrow-focus_El-bebe-comia-muy-bien.wav,./stim/wavs/mexican_mismatch_declarative-narrow-focus_El-bebe-comia-muy-bien.wav,./stim/wavs/peruvian_mismatch_declarative-narrow-focus_El-bebe-comia-muy-bien.wav,./stim/wavs/puertorican_mismatch_declarative-narrow-focus_El-bebe-comia-muy-bien.wav,,,,,,,,,,,,,,,,,,,,,,,,,,,,,,,,,,,,,,,,,,,,,,,,,,,,,,,,
,,,,,,,57901207c9abeb0001af353e,60568611ec04488a9e9da93b,6056ac2d4f57565217066250,I am not familiar with Spanish,Midwest,NA,no,2021-03-20_21h32.56.656,empathy_intonation_perc,2020.2.10,Win32,60,,,,,,,,,,1,puertorican,0,0,2.281,0,18,18,61,1,62,./stim/wavs/andalusian_mismatch_interrogative-total-yn_Mi-madre-come-la-fruta.wav,./stim/wavs/argentine_mismatch_interrogative-total-yn_Mi-madre-come-la-fruta.wav,./stim/wavs/castilian_mismatch_interrogative-total-yn_Mi-madre-come-la-fruta.wav,./stim/wavs/chilean_mismatch_interrogative-total-yn_Mi-madre-come-la-fruta.wav,./stim/wavs/cuban_mismatch_interrogative-total-yn_Mi-madre-come-la-fruta.wav,./stim/wavs/mexican_mismatch_interrogative-total-yn_Mi-madre-come-la-fruta.wav,./stim/wavs/peruvian_mismatch_interrogative-total-yn_Mi-madre-come-la-fruta.wav,./stim/wavs/puertorican_mismatch_interrogative-total-yn_Mi-madre-come-la-fruta.wav,,,,,,,,,,,,,,,,,,,,,,,,,,,,,,,,,,,,,,,,,,,,,,,,,,,,,,,,
,,,,,,,57901207c9abeb0001af353e,60568611ec04488a9e9da93b,6056ac2d4f57565217066250,I am not familiar with Spanish,Midwest,NA,no,2021-03-20_21h32.56.656,empathy_intonation_perc,2020.2.10,Win32,60,,,,,,,,,,0,puertorican,0,1,1.95,0,19,19,39,1,40,./stim/wavs/andalusian_mismatch_declarative-broad-focus_Mi-tia-odia-la-lluvia.wav,./stim/wavs/argentine_mismatch_declarative-broad-focus_Mi-tia-odia-la-lluvia.wav,./stim/wavs/castilian_mismatch_declarative-broad-focus_Mi-tia-odia-la-lluvia.wav,./stim/wavs/chilean_mismatch_declarative-broad-focus_Mi-tia-odia-la-lluvia.wav,./stim/wavs/cuban_mismatch_declarative-broad-focus_Mi-tia-odia-la-lluvia.wav,./stim/wavs/mexican_mismatch_declarative-broad-focus_Mi-tia-odia-la-lluvia.wav,./stim/wavs/peruvian_mismatch_declarative-broad-focus_Mi-tia-odia-la-lluvia.wav,./stim/wavs/puertorican_mismatch_declarative-broad-focus_Mi-tia-odia-la-lluvia.wav,,,,,,,,,,,,,,,,,,,,,,,,,,,,,,,,,,,,,,,,,,,,,,,,,,,,,,,,
,,,,,,,57901207c9abeb0001af353e,60568611ec04488a9e9da93b,6056ac2d4f57565217066250,I am not familiar with Spanish,Midwest,NA,no,2021-03-20_21h32.56.656,empathy_intonation_perc,2020.2.10,Win32,60,,,,,,,,,,0,mexican,1,0,2.233,0,20,20,32,1,33,./stim/wavs/andalusian_mismatch_declarative-broad-focus_El-bebe-comia-muy-bien.wav,./stim/wavs/argentine_mismatch_declarative-broad-focus_El-bebe-comia-muy-bien.wav,./stim/wavs/castilian_mismatch_declarative-broad-focus_El-bebe-comia-muy-bien.wav,./stim/wavs/chilean_mismatch_declarative-broad-focus_El-bebe-comia-muy-bien.wav,./stim/wavs/cuban_mismatch_declarative-broad-focus_El-bebe-comia-muy-bien.wav,./stim/wavs/mexican_mismatch_declarative-broad-focus_El-bebe-comia-muy-bien.wav,./stim/wavs/peruvian_mismatch_declarative-broad-focus_El-bebe-comia-muy-bien.wav,./stim/wavs/puertorican_mismatch_declarative-broad-focus_El-bebe-comia-muy-bien.wav,,,,,,,,,,,,,,,,,,,,,,,,,,,,,,,,,,,,,,,,,,,,,,,,,,,,,,,,
,,,,,,,57901207c9abeb0001af353e,60568611ec04488a9e9da93b,6056ac2d4f57565217066250,I am not familiar with Spanish,Midwest,NA,no,2021-03-20_21h32.56.656,empathy_intonation_perc,2020.2.10,Win32,60,,,,,,,,,,1,puertorican,1,1,1.768,0,21,21,19,1,20,./stim/wavs/andalusian_match_interrogative-partial-wh_Cuando-vendia-el-carro.wav,./stim/wavs/argentine_match_interrogative-partial-wh_Cuando-vendia-el-carro.wav,./stim/wavs/castilian_match_interrogative-partial-wh_Cuando-vendia-el-carro.wav,./stim/wavs/chilean_match_interrogative-partial-wh_Cuando-vendia-el-carro.wav,./stim/wavs/cuban_match_interrogative-partial-wh_Cuando-vendia-el-carro.wav,./stim/wavs/mexican_match_interrogative-partial-wh_Cuando-vendia-el-carro.wav,./stim/wavs/peruvian_match_interrogative-partial-wh_Cuando-vendia-el-carro.wav,./stim/wavs/puertorican_match_interrogative-partial-wh_Cuando-vendia-el-carro.wav,,,,,,,,,,,,,,,,,,,,,,,,,,,,,,,,,,,,,,,,,,,,,,,,,,,,,,,,
,,,,,,,57901207c9abeb0001af353e,60568611ec04488a9e9da93b,6056ac2d4f57565217066250,I am not familiar with Spanish,Midwest,NA,no,2021-03-20_21h32.56.656,empathy_intonation_perc,2020.2.10,Win32,60,,,,,,,,,,0,puertorican,0,1,2.25,0,22,22,45,1,46,./stim/wavs/andalusian_mismatch_declarative-narrow-focus_Mi-madre-come-la-fruta.wav,./stim/wavs/argentine_mismatch_declarative-narrow-focus_Mi-madre-come-la-fruta.wav,./stim/wavs/castilian_mismatch_declarative-narrow-focus_Mi-madre-come-la-fruta.wav,./stim/wavs/chilean_mismatch_declarative-narrow-focus_Mi-madre-come-la-fruta.wav,./stim/wavs/cuban_mismatch_declarative-narrow-focus_Mi-madre-come-la-fruta.wav,./stim/wavs/mexican_mismatch_declarative-narrow-focus_Mi-madre-come-la-fruta.wav,./stim/wavs/peruvian_mismatch_declarative-narrow-focus_Mi-madre-come-la-fruta.wav,./stim/wavs/puertorican_mismatch_declarative-narrow-focus_Mi-madre-come-la-fruta.wav,,,,,,,,,,,,,,,,,,,,,,,,,,,,,,,,,,,,,,,,,,,,,,,,,,,,,,,,
,,,,,,,57901207c9abeb0001af353e,60568611ec04488a9e9da93b,6056ac2d4f57565217066250,I am not familiar with Spanish,Midwest,NA,no,2021-03-20_21h32.56.656,empathy_intonation_perc,2020.2.10,Win32,60,,,,,,,,,,1,argentine,1,1,1.771,0,23,23,56,1,57,./stim/wavs/andalusian_mismatch_interrogative-total-yn_El-bebe-comia-muy-bien.wav,./stim/wavs/argentine_mismatch_interrogative-total-yn_El-bebe-comia-muy-bien.wav,./stim/wavs/castilian_mismatch_interrogative-total-yn_El-bebe-comia-muy-bien.wav,./stim/wavs/chilean_mismatch_interrogative-total-yn_El-bebe-comia-muy-bien.wav,./stim/wavs/cuban_mismatch_interrogative-total-yn_El-bebe-comia-muy-bien.wav,./stim/wavs/mexican_mismatch_interrogative-total-yn_El-bebe-comia-muy-bien.wav,./stim/wavs/peruvian_mismatch_interrogative-total-yn_El-bebe-comia-muy-bien.wav,./stim/wavs/puertorican_mismatch_interrogative-total-yn_El-bebe-comia-muy-bien.wav,,,,,,,,,,,,,,,,,,,,,,,,,,,,,,,,,,,,,,,,,,,,,,,,,,,,,,,,
,,,,,,,57901207c9abeb0001af353e,60568611ec04488a9e9da93b,6056ac2d4f57565217066250,I am not familiar with Spanish,Midwest,NA,no,2021-03-20_21h32.56.656,empathy_intonation_perc,2020.2.10,Win32,60,,,,,,,,,,1,peruvian,1,1,1.97,0,24,24,58,1,59,./stim/wavs/andalusian_mismatch_interrogative-total-yn_El-nino-oye-el-rio.wav,./stim/wavs/argentine_mismatch_interrogative-total-yn_El-nino-oye-el-rio.wav,./stim/wavs/castilian_mismatch_interrogative-total-yn_El-nino-oye-el-rio.wav,./stim/wavs/chilean_mismatch_interrogative-total-yn_El-nino-oye-el-rio.wav,./stim/wavs/cuban_mismatch_interrogative-total-yn_El-nino-oye-el-rio.wav,./stim/wavs/mexican_mismatch_interrogative-total-yn_El-nino-oye-el-rio.wav,./stim/wavs/peruvian_mismatch_interrogative-total-yn_El-nino-oye-el-rio.wav,./stim/wavs/puertorican_mismatch_interrogative-total-yn_El-nino-oye-el-rio.wav,,,,,,,,,,,,,,,,,,,,,,,,,,,,,,,,,,,,,,,,,,,,,,,,,,,,,,,,
,,,,,,,57901207c9abeb0001af353e,60568611ec04488a9e9da93b,6056ac2d4f57565217066250,I am not familiar with Spanish,Midwest,NA,no,2021-03-20_21h32.56.656,empathy_intonation_perc,2020.2.10,Win32,60,,,,,,,,,,1,chilean,1,1,2.067,0,25,25,51,1,52,./stim/wavs/andalusian_mismatch_interrogative-partial-wh_Por-que-desayuna-muy-bien.wav,./stim/wavs/argentine_mismatch_interrogative-partial-wh_Por-que-desayuna-muy-bien.wav,./stim/wavs/castilian_mismatch_interrogative-partial-wh_Por-que-desayuna-muy-bien.wav,./stim/wavs/chilean_mismatch_interrogative-partial-wh_Por-que-desayuna-muy-bien.wav,./stim/wavs/cuban_mismatch_interrogative-partial-wh_Por-que-desayuna-muy-bien.wav,./stim/wavs/mexican_mismatch_interrogative-partial-wh_Por-que-desayuna-muy-bien.wav,./stim/wavs/peruvian_mismatch_interrogative-partial-wh_Por-que-desayuna-muy-bien.wav,./stim/wavs/puertorican_mismatch_interrogative-partial-wh_Por-que-desayuna-muy-bien.wav,,,,,,,,,,,,,,,,,,,,,,,,,,,,,,,,,,,,,,,,,,,,,,,,,,,,,,,,
,,,,,,,57901207c9abeb0001af353e,60568611ec04488a9e9da93b,6056ac2d4f57565217066250,I am not familiar with Spanish,Midwest,NA,no,2021-03-20_21h32.56.656,empathy_intonation_perc,2020.2.10,Win32,60,,,,,,,,,,0,cuban,0,1,1.918,0,26,26,46,1,47,./stim/wavs/andalusian_mismatch_declarative-narrow-focus_Mi-novio-viene-del-lago.wav,./stim/wavs/argentine_mismatch_declarative-narrow-focus_Mi-novio-viene-del-lago.wav,./stim/wavs/castilian_mismatch_declarative-narrow-focus_Mi-novio-viene-del-lago.wav,./stim/wavs/chilean_mismatch_declarative-narrow-focus_Mi-novio-viene-del-lago.wav,./stim/wavs/cuban_mismatch_declarative-narrow-focus_Mi-novio-viene-del-lago.wav,./stim/wavs/mexican_mismatch_declarative-narrow-focus_Mi-novio-viene-del-lago.wav,./stim/wavs/peruvian_mismatch_declarative-narrow-focus_Mi-novio-viene-del-lago.wav,./stim/wavs/puertorican_mismatch_declarative-narrow-focus_Mi-novio-viene-del-lago.wav,,,,,,,,,,,,,,,,,,,,,,,,,,,,,,,,,,,,,,,,,,,,,,,,,,,,,,,,
,,,,,,,57901207c9abeb0001af353e,60568611ec04488a9e9da93b,6056ac2d4f57565217066250,I am not familiar with Spanish,Midwest,NA,no,2021-03-20_21h32.56.656,empathy_intonation_perc,2020.2.10,Win32,60,,,,,,,,,,0,andalusian,0,1,2.2,0,27,27,44,1,45,./stim/wavs/andalusian_mismatch_declarative-narrow-focus_La-nina-lava-el-plato.wav,./stim/wavs/argentine_mismatch_declarative-narrow-focus_La-nina-lava-el-plato.wav,./stim/wavs/castilian_mismatch_declarative-narrow-focus_La-nina-lava-el-plato.wav,./stim/wavs/chilean_mismatch_declarative-narrow-focus_La-nina-lava-el-plato.wav,./stim/wavs/cuban_mismatch_declarative-narrow-focus_La-nina-lava-el-plato.wav,./stim/wavs/mexican_mismatch_declarative-narrow-focus_La-nina-lava-el-plato.wav,./stim/wavs/peruvian_mismatch_declarative-narrow-focus_La-nina-lava-el-plato.wav,./stim/wavs/puertorican_mismatch_declarative-narrow-focus_La-nina-lava-el-plato.wav,,,,,,,,,,,,,,,,,,,,,,,,,,,,,,,,,,,,,,,,,,,,,,,,,,,,,,,,
,,,,,,,57901207c9abeb0001af353e,60568611ec04488a9e9da93b,6056ac2d4f57565217066250,I am not familiar with Spanish,Midwest,NA,no,2021-03-20_21h32.56.656,empathy_intonation_perc,2020.2.10,Win32,60,,,,,,,,,,1,peruvian,1,1,2.286,0,28,28,24,1,25,./stim/wavs/andalusian_match_interrogative-total-yn_Ana-lleva-el-abrigo.wav,./stim/wavs/argentine_match_interrogative-total-yn_Ana-lleva-el-abrigo.wav,./stim/wavs/castilian_match_interrogative-total-yn_Ana-lleva-el-abrigo.wav,./stim/wavs/chilean_match_interrogative-total-yn_Ana-lleva-el-abrigo.wav,./stim/wavs/cuban_match_interrogative-total-yn_Ana-lleva-el-abrigo.wav,./stim/wavs/mexican_match_interrogative-total-yn_Ana-lleva-el-abrigo.wav,./stim/wavs/peruvian_match_interrogative-total-yn_Ana-lleva-el-abrigo.wav,./stim/wavs/puertorican_match_interrogative-total-yn_Ana-lleva-el-abrigo.wav,,,,,,,,,,,,,,,,,,,,,,,,,,,,,,,,,,,,,,,,,,,,,,,,,,,,,,,,
,,,,,,,57901207c9abeb0001af353e,60568611ec04488a9e9da93b,6056ac2d4f57565217066250,I am not familiar with Spanish,Midwest,NA,no,2021-03-20_21h32.56.656,empathy_intonation_perc,2020.2.10,Win32,60,,,,,,,,,,0,andalusian,1,0,2.284,0,29,29,33,1,34,./stim/wavs/andalusian_mismatch_declarative-broad-focus_El-hombre-mira-la-luna.wav,./stim/wavs/argentine_mismatch_declarative-broad-focus_El-hombre-mira-la-luna.wav,./stim/wavs/castilian_mismatch_declarative-broad-focus_El-hombre-mira-la-luna.wav,./stim/wavs/chilean_mismatch_declarative-broad-focus_El-hombre-mira-la-luna.wav,./stim/wavs/cuban_mismatch_declarative-broad-focus_El-hombre-mira-la-luna.wav,./stim/wavs/mexican_mismatch_declarative-broad-focus_El-hombre-mira-la-luna.wav,./stim/wavs/peruvian_mismatch_declarative-broad-focus_El-hombre-mira-la-luna.wav,./stim/wavs/puertorican_mismatch_declarative-broad-focus_El-hombre-mira-la-luna.wav,,,,,,,,,,,,,,,,,,,,,,,,,,,,,,,,,,,,,,,,,,,,,,,,,,,,,,,,
,,,,,,,57901207c9abeb0001af353e,60568611ec04488a9e9da93b,6056ac2d4f57565217066250,I am not familiar with Spanish,Midwest,NA,no,2021-03-20_21h32.56.656,empathy_intonation_perc,2020.2.10,Win32,60,,,,,,,,,,1,andalusian,1,1,2.65,0,30,30,57,1,58,./stim/wavs/andalusian_mismatch_interrogative-total-yn_El-hombre-mira-la-luna.wav,./stim/wavs/argentine_mismatch_interrogative-total-yn_El-hombre-mira-la-luna.wav,./stim/wavs/castilian_mismatch_interrogative-total-yn_El-hombre-mira-la-luna.wav,./stim/wavs/chilean_mismatch_interrogative-total-yn_El-hombre-mira-la-luna.wav,./stim/wavs/cuban_mismatch_interrogative-total-yn_El-hombre-mira-la-luna.wav,./stim/wavs/mexican_mismatch_interrogative-total-yn_El-hombre-mira-la-luna.wav,./stim/wavs/peruvian_mismatch_interrogative-total-yn_El-hombre-mira-la-luna.wav,./stim/wavs/puertorican_mismatch_interrogative-total-yn_El-hombre-mira-la-luna.wav,,,,,,,,,,,,,,,,,,,,,,,,,,,,,,,,,,,,,,,,,,,,,,,,,,,,,,,,
,,,,,,,57901207c9abeb0001af353e,60568611ec04488a9e9da93b,6056ac2d4f57565217066250,I am not familiar with Spanish,Midwest,NA,no,2021-03-20_21h32.56.656,empathy_intonation_perc,2020.2.10,Win32,60,,,,,,,,,,1,andalusian,0,0,2.068,0,31,31,23,1,24,./stim/wavs/andalusian_match_interrogative-partial-wh_Por-que-iba-a-Bolivia.wav,./stim/wavs/argentine_match_interrogative-partial-wh_Por-que-iba-a-Bolivia.wav,./stim/wavs/castilian_match_interrogative-partial-wh_Por-que-iba-a-Bolivia.wav,./stim/wavs/chilean_match_interrogative-partial-wh_Por-que-iba-a-Bolivia.wav,./stim/wavs/cuban_match_interrogative-partial-wh_Por-que-iba-a-Bolivia.wav,./stim/wavs/mexican_match_interrogative-partial-wh_Por-que-iba-a-Bolivia.wav,./stim/wavs/peruvian_match_interrogative-partial-wh_Por-que-iba-a-Bolivia.wav,./stim/wavs/puertorican_match_interrogative-partial-wh_Por-que-iba-a-Bolivia.wav,,,,,,,,,,,,,,,,,,,,,,,,,,,,,,,,,,,,,,,,,,,,,,,,,,,,,,,,
,,,,,,,57901207c9abeb0001af353e,60568611ec04488a9e9da93b,6056ac2d4f57565217066250,I am not familiar with Spanish,Midwest,NA,no,2021-03-20_21h32.56.656,empathy_intonation_perc,2020.2.10,Win32,60,,,,,,,,,,1,mexican,1,1,2.068,0,32,32,26,1,27,./stim/wavs/andalusian_match_interrogative-total-yn_David-leia-el-libro.wav,./stim/wavs/argentine_match_interrogative-total-yn_David-leia-el-libro.wav,./stim/wavs/castilian_match_interrogative-total-yn_David-leia-el-libro.wav,./stim/wavs/chilean_match_interrogative-total-yn_David-leia-el-libro.wav,./stim/wavs/cuban_match_interrogative-total-yn_David-leia-el-libro.wav,./stim/wavs/mexican_match_interrogative-total-yn_David-leia-el-libro.wav,./stim/wavs/peruvian_match_interrogative-total-yn_David-leia-el-libro.wav,./stim/wavs/puertorican_match_interrogative-total-yn_David-leia-el-libro.wav,,,,,,,,,,,,,,,,,,,,,,,,,,,,,,,,,,,,,,,,,,,,,,,,,,,,,,,,
,,,,,,,57901207c9abeb0001af353e,60568611ec04488a9e9da93b,6056ac2d4f57565217066250,I am not familiar with Spanish,Midwest,NA,no,2021-03-20_21h32.56.656,empathy_intonation_perc,2020.2.10,Win32,60,,,,,,,,,,0,castilian,0,1,2.502,0,33,33,42,1,43,./stim/wavs/andalusian_mismatch_declarative-narrow-focus_El-nino-oye-el-rio.wav,./stim/wavs/argentine_mismatch_declarative-narrow-focus_El-nino-oye-el-rio.wav,./stim/wavs/castilian_mismatch_declarative-narrow-focus_El-nino-oye-el-rio.wav,./stim/wavs/chilean_mismatch_declarative-narrow-focus_El-nino-oye-el-rio.wav,./stim/wavs/cuban_mismatch_declarative-narrow-focus_El-nino-oye-el-rio.wav,./stim/wavs/mexican_mismatch_declarative-narrow-focus_El-nino-oye-el-rio.wav,./stim/wavs/peruvian_mismatch_declarative-narrow-focus_El-nino-oye-el-rio.wav,./stim/wavs/puertorican_mismatch_declarative-narrow-focus_El-nino-oye-el-rio.wav,,,,,,,,,,,,,,,,,,,,,,,,,,,,,,,,,,,,,,,,,,,,,,,,,,,,,,,,
,,,,,,,57901207c9abeb0001af353e,60568611ec04488a9e9da93b,6056ac2d4f57565217066250,I am not familiar with Spanish,Midwest,NA,no,2021-03-20_21h32.56.656,empathy_intonation_perc,2020.2.10,Win32,60,,,,,,,,,,1,cuban,0,0,2.133,0,34,34,31,1,32,./stim/wavs/andalusian_match_interrogative-total-yn_Marta-abre-el-regalo.wav,./stim/wavs/argentine_match_interrogative-total-yn_Marta-abre-el-regalo.wav,./stim/wavs/castilian_match_interrogative-total-yn_Marta-abre-el-regalo.wav,./stim/wavs/chilean_match_interrogative-total-yn_Marta-abre-el-regalo.wav,./stim/wavs/cuban_match_interrogative-total-yn_Marta-abre-el-regalo.wav,./stim/wavs/mexican_match_interrogative-total-yn_Marta-abre-el-regalo.wav,./stim/wavs/peruvian_match_interrogative-total-yn_Marta-abre-el-regalo.wav,./stim/wavs/puertorican_match_interrogative-total-yn_Marta-abre-el-regalo.wav,,,,,,,,,,,,,,,,,,,,,,,,,,,,,,,,,,,,,,,,,,,,,,,,,,,,,,,,
,,,,,,,57901207c9abeb0001af353e,60568611ec04488a9e9da93b,6056ac2d4f57565217066250,I am not familiar with Spanish,Midwest,NA,no,2021-03-20_21h32.56.656,empathy_intonation_perc,2020.2.10,Win32,60,,,,,,,,,,1,peruvian,1,1,2.202,0,35,35,62,1,63,./stim/wavs/andalusian_mismatch_interrogative-total-yn_Mi-novio-viene-del-lago.wav,./stim/wavs/argentine_mismatch_interrogative-total-yn_Mi-novio-viene-del-lago.wav,./stim/wavs/castilian_mismatch_interrogative-total-yn_Mi-novio-viene-del-lago.wav,./stim/wavs/chilean_mismatch_interrogative-total-yn_Mi-novio-viene-del-lago.wav,./stim/wavs/cuban_mismatch_interrogative-total-yn_Mi-novio-viene-del-lago.wav,./stim/wavs/mexican_mismatch_interrogative-total-yn_Mi-novio-viene-del-lago.wav,./stim/wavs/peruvian_mismatch_interrogative-total-yn_Mi-novio-viene-del-lago.wav,./stim/wavs/puertorican_mismatch_interrogative-total-yn_Mi-novio-viene-del-lago.wav,,,,,,,,,,,,,,,,,,,,,,,,,,,,,,,,,,,,,,,,,,,,,,,,,,,,,,,,
,,,,,,,57901207c9abeb0001af353e,60568611ec04488a9e9da93b,6056ac2d4f57565217066250,I am not familiar with Spanish,Midwest,NA,no,2021-03-20_21h32.56.656,empathy_intonation_perc,2020.2.10,Win32,60,,,,,,,,,,0,puertorican,0,1,2.816,0,36,36,34,1,35,./stim/wavs/andalusian_mismatch_declarative-broad-focus_El-nino-oye-el-rio.wav,./stim/wavs/argentine_mismatch_declarative-broad-focus_El-nino-oye-el-rio.wav,./stim/wavs/castilian_mismatch_declarative-broad-focus_El-nino-oye-el-rio.wav,./stim/wavs/chilean_mismatch_declarative-broad-focus_El-nino-oye-el-rio.wav,./stim/wavs/cuban_mismatch_declarative-broad-focus_El-nino-oye-el-rio.wav,./stim/wavs/mexican_mismatch_declarative-broad-focus_El-nino-oye-el-rio.wav,./stim/wavs/peruvian_mismatch_declarative-broad-focus_El-nino-oye-el-rio.wav,./stim/wavs/puertorican_mismatch_declarative-broad-focus_El-nino-oye-el-rio.wav,,,,,,,,,,,,,,,,,,,,,,,,,,,,,,,,,,,,,,,,,,,,,,,,,,,,,,,,
,,,,,,,57901207c9abeb0001af353e,60568611ec04488a9e9da93b,6056ac2d4f57565217066250,I am not familiar with Spanish,Midwest,NA,no,2021-03-20_21h32.56.656,empathy_intonation_perc,2020.2.10,Win32,60,,,,,,,,,,1,castilian,1,1,2.249,0,37,37,54,1,55,./stim/wavs/andalusian_mismatch_interrogative-partial-wh_Por-que-venia-del-lago.wav,./stim/wavs/argentine_mismatch_interrogative-partial-wh_Por-que-venia-del-lago.wav,./stim/wavs/castilian_mismatch_interrogative-partial-wh_Por-que-venia-del-lago.wav,./stim/wavs/chilean_mismatch_interrogative-partial-wh_Por-que-venia-del-lago.wav,./stim/wavs/cuban_mismatch_interrogative-partial-wh_Por-que-venia-del-lago.wav,./stim/wavs/mexican_mismatch_interrogative-partial-wh_Por-que-venia-del-lago.wav,./stim/wavs/peruvian_mismatch_interrogative-partial-wh_Por-que-venia-del-lago.wav,./stim/wavs/puertorican_mismatch_interrogative-partial-wh_Por-que-venia-del-lago.wav,,,,,,,,,,,,,,,,,,,,,,,,,,,,,,,,,,,,,,,,,,,,,,,,,,,,,,,,
,,,,,,,57901207c9abeb0001af353e,60568611ec04488a9e9da93b,6056ac2d4f57565217066250,I am not familiar with Spanish,Midwest,NA,no,2021-03-20_21h32.56.656,empathy_intonation_perc,2020.2.10,Win32,60,,,,,,,,,,1,cuban,0,0,2.382,0,38,38,18,1,19,./stim/wavs/andalusian_match_interrogative-partial-wh_Cuando-lleva-el-abrigo.wav,./stim/wavs/argentine_match_interrogative-partial-wh_Cuando-lleva-el-abrigo.wav,./stim/wavs/castilian_match_interrogative-partial-wh_Cuando-lleva-el-abrigo.wav,./stim/wavs/chilean_match_interrogative-partial-wh_Cuando-lleva-el-abrigo.wav,./stim/wavs/cuban_match_interrogative-partial-wh_Cuando-lleva-el-abrigo.wav,./stim/wavs/mexican_match_interrogative-partial-wh_Cuando-lleva-el-abrigo.wav,./stim/wavs/peruvian_match_interrogative-partial-wh_Cuando-lleva-el-abrigo.wav,./stim/wavs/puertorican_match_interrogative-partial-wh_Cuando-lleva-el-abrigo.wav,,,,,,,,,,,,,,,,,,,,,,,,,,,,,,,,,,,,,,,,,,,,,,,,,,,,,,,,
,,,,,,,57901207c9abeb0001af353e,60568611ec04488a9e9da93b,6056ac2d4f57565217066250,I am not familiar with Spanish,Midwest,NA,no,2021-03-20_21h32.56.656,empathy_intonation_perc,2020.2.10,Win32,60,,,,,,,,,,1,argentine,0,0,2.321,0,39,39,48,1,49,./stim/wavs/andalusian_mismatch_interrogative-partial-wh_Cuando-comia-la-fruta.wav,./stim/wavs/argentine_mismatch_interrogative-partial-wh_Cuando-comia-la-fruta.wav,./stim/wavs/castilian_mismatch_interrogative-partial-wh_Cuando-comia-la-fruta.wav,./stim/wavs/chilean_mismatch_interrogative-partial-wh_Cuando-comia-la-fruta.wav,./stim/wavs/cuban_mismatch_interrogative-partial-wh_Cuando-comia-la-fruta.wav,./stim/wavs/mexican_mismatch_interrogative-partial-wh_Cuando-comia-la-fruta.wav,./stim/wavs/peruvian_mismatch_interrogative-partial-wh_Cuando-comia-la-fruta.wav,./stim/wavs/puertorican_mismatch_interrogative-partial-wh_Cuando-comia-la-fruta.wav,,,,,,,,,,,,,,,,,,,,,,,,,,,,,,,,,,,,,,,,,,,,,,,,,,,,,,,,
,,,,,,,57901207c9abeb0001af353e,60568611ec04488a9e9da93b,6056ac2d4f57565217066250,I am not familiar with Spanish,Midwest,NA,no,2021-03-20_21h32.56.656,empathy_intonation_perc,2020.2.10,Win32,60,,,,,,,,,,0,castilian,0,1,4.256,0,40,40,0,1,1,./stim/wavs/andalusian_match_declarative-broad-focus_Ana-lleva-el-abrigo.wav,./stim/wavs/argentine_match_declarative-broad-focus_Ana-lleva-el-abrigo.wav,./stim/wavs/castilian_match_declarative-broad-focus_Ana-lleva-el-abrigo.wav,./stim/wavs/chilean_match_declarative-broad-focus_Ana-lleva-el-abrigo.wav,./stim/wavs/cuban_match_declarative-broad-focus_Ana-lleva-el-abrigo.wav,./stim/wavs/mexican_match_declarative-broad-focus_Ana-lleva-el-abrigo.wav,./stim/wavs/peruvian_match_declarative-broad-focus_Ana-lleva-el-abrigo.wav,./stim/wavs/puertorican_match_declarative-broad-focus_Ana-lleva-el-abrigo.wav,,,,,,,,,,,,,,,,,,,,,,,,,,,,,,,,,,,,,,,,,,,,,,,,,,,,,,,,
,,,,,,,57901207c9abeb0001af353e,60568611ec04488a9e9da93b,6056ac2d4f57565217066250,I am not familiar with Spanish,Midwest,NA,no,2021-03-20_21h32.56.656,empathy_intonation_perc,2020.2.10,Win32,60,,,,,,,,,,1,castilian,1,1,2.106,0,41,41,60,1,61,./stim/wavs/andalusian_mismatch_interrogative-total-yn_La-nina-lava-el-plato.wav,./stim/wavs/argentine_mismatch_interrogative-total-yn_La-nina-lava-el-plato.wav,./stim/wavs/castilian_mismatch_interrogative-total-yn_La-nina-lava-el-plato.wav,./stim/wavs/chilean_mismatch_interrogative-total-yn_La-nina-lava-el-plato.wav,./stim/wavs/cuban_mismatch_interrogative-total-yn_La-nina-lava-el-plato.wav,./stim/wavs/mexican_mismatch_interrogative-total-yn_La-nina-lava-el-plato.wav,./stim/wavs/peruvian_mismatch_interrogative-total-yn_La-nina-lava-el-plato.wav,./stim/wavs/puertorican_mismatch_interrogative-total-yn_La-nina-lava-el-plato.wav,,,,,,,,,,,,,,,,,,,,,,,,,,,,,,,,,,,,,,,,,,,,,,,,,,,,,,,,
,,,,,,,57901207c9abeb0001af353e,60568611ec04488a9e9da93b,6056ac2d4f57565217066250,I am not familiar with Spanish,Midwest,NA,no,2021-03-20_21h32.56.656,empathy_intonation_perc,2020.2.10,Win32,60,,,,,,,,,,1,cuban,0,0,1.876,0,42,42,27,1,28,./stim/wavs/andalusian_match_interrogative-total-yn_Emilio-ama-la-marcha.wav,./stim/wavs/argentine_match_interrogative-total-yn_Emilio-ama-la-marcha.wav,./stim/wavs/castilian_match_interrogative-total-yn_Emilio-ama-la-marcha.wav,./stim/wavs/chilean_match_interrogative-total-yn_Emilio-ama-la-marcha.wav,./stim/wavs/cuban_match_interrogative-total-yn_Emilio-ama-la-marcha.wav,./stim/wavs/mexican_match_interrogative-total-yn_Emilio-ama-la-marcha.wav,./stim/wavs/peruvian_match_interrogative-total-yn_Emilio-ama-la-marcha.wav,./stim/wavs/puertorican_match_interrogative-total-yn_Emilio-ama-la-marcha.wav,,,,,,,,,,,,,,,,,,,,,,,,,,,,,,,,,,,,,,,,,,,,,,,,,,,,,,,,
,,,,,,,57901207c9abeb0001af353e,60568611ec04488a9e9da93b,6056ac2d4f57565217066250,I am not familiar with Spanish,Midwest,NA,no,2021-03-20_21h32.56.656,empathy_intonation_perc,2020.2.10,Win32,60,,,,,,,,,,0,cuban,0,1,2.249,0,43,43,12,1,13,./stim/wavs/andalusian_match_declarative-narrow-focus_Manuela-vende-el-carro.wav,./stim/wavs/argentine_match_declarative-narrow-focus_Manuela-vende-el-carro.wav,./stim/wavs/castilian_match_declarative-narrow-focus_Manuela-vende-el-carro.wav,./stim/wavs/chilean_match_declarative-narrow-focus_Manuela-vende-el-carro.wav,./stim/wavs/cuban_match_declarative-narrow-focus_Manuela-vende-el-carro.wav,./stim/wavs/mexican_match_declarative-narrow-focus_Manuela-vende-el-carro.wav,./stim/wavs/peruvian_match_declarative-narrow-focus_Manuela-vende-el-carro.wav,./stim/wavs/puertorican_match_declarative-narrow-focus_Manuela-vende-el-carro.wav,,,,,,,,,,,,,,,,,,,,,,,,,,,,,,,,,,,,,,,,,,,,,,,,,,,,,,,,
,,,,,,,57901207c9abeb0001af353e,60568611ec04488a9e9da93b,6056ac2d4f57565217066250,I am not familiar with Spanish,Midwest,NA,no,2021-03-20_21h32.56.656,empathy_intonation_perc,2020.2.10,Win32,60,,,,,,,,,,1,castilian,1,1,1.835,0,44,44,50,1,51,./stim/wavs/andalusian_mismatch_interrogative-partial-wh_Cuando-miraba-la-luna.wav,./stim/wavs/argentine_mismatch_interrogative-partial-wh_Cuando-miraba-la-luna.wav,./stim/wavs/castilian_mismatch_interrogative-partial-wh_Cuando-miraba-la-luna.wav,./stim/wavs/chilean_mismatch_interrogative-partial-wh_Cuando-miraba-la-luna.wav,./stim/wavs/cuban_mismatch_interrogative-partial-wh_Cuando-miraba-la-luna.wav,./stim/wavs/mexican_mismatch_interrogative-partial-wh_Cuando-miraba-la-luna.wav,./stim/wavs/peruvian_mismatch_interrogative-partial-wh_Cuando-miraba-la-luna.wav,./stim/wavs/puertorican_mismatch_interrogative-partial-wh_Cuando-miraba-la-luna.wav,,,,,,,,,,,,,,,,,,,,,,,,,,,,,,,,,,,,,,,,,,,,,,,,,,,,,,,,
,,,,,,,57901207c9abeb0001af353e,60568611ec04488a9e9da93b,6056ac2d4f57565217066250,I am not familiar with Spanish,Midwest,NA,no,2021-03-20_21h32.56.656,empathy_intonation_perc,2020.2.10,Win32,60,,,,,,,,,,0,castilian,0,1,2.206,0,45,45,2,1,3,./stim/wavs/andalusian_match_declarative-broad-focus_David-leia-el-libro.wav,./stim/wavs/argentine_match_declarative-broad-focus_David-leia-el-libro.wav,./stim/wavs/castilian_match_declarative-broad-focus_David-leia-el-libro.wav,./stim/wavs/chilean_match_declarative-broad-focus_David-leia-el-libro.wav,./stim/wavs/cuban_match_declarative-broad-focus_David-leia-el-libro.wav,./stim/wavs/mexican_match_declarative-broad-focus_David-leia-el-libro.wav,./stim/wavs/peruvian_match_declarative-broad-focus_David-leia-el-libro.wav,./stim/wavs/puertorican_match_declarative-broad-focus_David-leia-el-libro.wav,,,,,,,,,,,,,,,,,,,,,,,,,,,,,,,,,,,,,,,,,,,,,,,,,,,,,,,,
,,,,,,,57901207c9abeb0001af353e,60568611ec04488a9e9da93b,6056ac2d4f57565217066250,I am not familiar with Spanish,Midwest,NA,no,2021-03-20_21h32.56.656,empathy_intonation_perc,2020.2.10,Win32,60,,,,,,,,,,0,andalusian,0,1,2.419,0,46,46,36,1,37,./stim/wavs/andalusian_mismatch_declarative-broad-focus_La-nina-lava-el-plato.wav,./stim/wavs/argentine_mismatch_declarative-broad-focus_La-nina-lava-el-plato.wav,./stim/wavs/castilian_mismatch_declarative-broad-focus_La-nina-lava-el-plato.wav,./stim/wavs/chilean_mismatch_declarative-broad-focus_La-nina-lava-el-plato.wav,./stim/wavs/cuban_mismatch_declarative-broad-focus_La-nina-lava-el-plato.wav,./stim/wavs/mexican_mismatch_declarative-broad-focus_La-nina-lava-el-plato.wav,./stim/wavs/peruvian_mismatch_declarative-broad-focus_La-nina-lava-el-plato.wav,./stim/wavs/puertorican_mismatch_declarative-broad-focus_La-nina-lava-el-plato.wav,,,,,,,,,,,,,,,,,,,,,,,,,,,,,,,,,,,,,,,,,,,,,,,,,,,,,,,,
,,,,,,,57901207c9abeb0001af353e,60568611ec04488a9e9da93b,6056ac2d4f57565217066250,I am not familiar with Spanish,Midwest,NA,no,2021-03-20_21h32.56.656,empathy_intonation_perc,2020.2.10,Win32,60,,,,,,,,,,1,peruvian,1,1,2.898,0,47,47,21,1,22,./stim/wavs/andalusian_match_interrogative-partial-wh_Por-que-ama-la-navidad.wav,./stim/wavs/argentine_match_interrogative-partial-wh_Por-que-ama-la-navidad.wav,./stim/wavs/castilian_match_interrogative-partial-wh_Por-que-ama-la-navidad.wav,./stim/wavs/chilean_match_interrogative-partial-wh_Por-que-ama-la-navidad.wav,./stim/wavs/cuban_match_interrogative-partial-wh_Por-que-ama-la-navidad.wav,./stim/wavs/mexican_match_interrogative-partial-wh_Por-que-ama-la-navidad.wav,./stim/wavs/peruvian_match_interrogative-partial-wh_Por-que-ama-la-navidad.wav,./stim/wavs/puertorican_match_interrogative-partial-wh_Por-que-ama-la-navidad.wav,,,,,,,,,,,,,,,,,,,,,,,,,,,,,,,,,,,,,,,,,,,,,,,,,,,,,,,,
,,,,,,,57901207c9abeb0001af353e,60568611ec04488a9e9da93b,6056ac2d4f57565217066250,I am not familiar with Spanish,Midwest,NA,no,2021-03-20_21h32.56.656,empathy_intonation_perc,2020.2.10,Win32,60,,,,,,,,,,1,argentine,0,0,3.838,0,48,48,22,1,23,./stim/wavs/andalusian_match_interrogative-partial-wh_Por-que-hablaba-del-agua.wav,./stim/wavs/argentine_match_interrogative-partial-wh_Por-que-hablaba-del-agua.wav,./stim/wavs/castilian_match_interrogative-partial-wh_Por-que-hablaba-del-agua.wav,./stim/wavs/chilean_match_interrogative-partial-wh_Por-que-hablaba-del-agua.wav,./stim/wavs/cuban_match_interrogative-partial-wh_Por-que-hablaba-del-agua.wav,./stim/wavs/mexican_match_interrogative-partial-wh_Por-que-hablaba-del-agua.wav,./stim/wavs/peruvian_match_interrogative-partial-wh_Por-que-hablaba-del-agua.wav,./stim/wavs/puertorican_match_interrogative-partial-wh_Por-que-hablaba-del-agua.wav,,,,,,,,,,,,,,,,,,,,,,,,,,,,,,,,,,,,,,,,,,,,,,,,,,,,,,,,
,,,,,,,57901207c9abeb0001af353e,60568611ec04488a9e9da93b,6056ac2d4f57565217066250,I am not familiar with Spanish,Midwest,NA,no,2021-03-20_21h32.56.656,empathy_intonation_perc,2020.2.10,Win32,60,,,,,,,,,,0,chilean,0,1,2.051,0,49,49,5,1,6,./stim/wavs/andalusian_match_declarative-broad-focus_Maria-bebe-el-vino.wav,./stim/wavs/argentine_match_declarative-broad-focus_Maria-bebe-el-vino.wav,./stim/wavs/castilian_match_declarative-broad-focus_Maria-bebe-el-vino.wav,./stim/wavs/chilean_match_declarative-broad-focus_Maria-bebe-el-vino.wav,./stim/wavs/cuban_match_declarative-broad-focus_Maria-bebe-el-vino.wav,./stim/wavs/mexican_match_declarative-broad-focus_Maria-bebe-el-vino.wav,./stim/wavs/peruvian_match_declarative-broad-focus_Maria-bebe-el-vino.wav,./stim/wavs/puertorican_match_declarative-broad-focus_Maria-bebe-el-vino.wav,,,,,,,,,,,,,,,,,,,,,,,,,,,,,,,,,,,,,,,,,,,,,,,,,,,,,,,,
,,,,,,,57901207c9abeb0001af353e,60568611ec04488a9e9da93b,6056ac2d4f57565217066250,I am not familiar with Spanish,Midwest,NA,no,2021-03-20_21h32.56.656,empathy_intonation_perc,2020.2.10,Win32,60,,,,,,,,,,1,argentine,0,0,2.18,0,50,50,16,1,17,./stim/wavs/andalusian_match_interrogative-partial-wh_Cuando-bebia-el-vino.wav,./stim/wavs/argentine_match_interrogative-partial-wh_Cuando-bebia-el-vino.wav,./stim/wavs/castilian_match_interrogative-partial-wh_Cuando-bebia-el-vino.wav,./stim/wavs/chilean_match_interrogative-partial-wh_Cuando-bebia-el-vino.wav,./stim/wavs/cuban_match_interrogative-partial-wh_Cuando-bebia-el-vino.wav,./stim/wavs/mexican_match_interrogative-partial-wh_Cuando-bebia-el-vino.wav,./stim/wavs/peruvian_match_interrogative-partial-wh_Cuando-bebia-el-vino.wav,./stim/wavs/puertorican_match_interrogative-partial-wh_Cuando-bebia-el-vino.wav,,,,,,,,,,,,,,,,,,,,,,,,,,,,,,,,,,,,,,,,,,,,,,,,,,,,,,,,
,,,,,,,57901207c9abeb0001af353e,60568611ec04488a9e9da93b,6056ac2d4f57565217066250,I am not familiar with Spanish,Midwest,NA,no,2021-03-20_21h32.56.656,empathy_intonation_perc,2020.2.10,Win32,60,,,,,,,,,,0,peruvian,0,1,2.817,0,51,51,7,1,8,./stim/wavs/andalusian_match_declarative-broad-focus_Marta-abre-el-regalo.wav,./stim/wavs/argentine_match_declarative-broad-focus_Marta-abre-el-regalo.wav,./stim/wavs/castilian_match_declarative-broad-focus_Marta-abre-el-regalo.wav,./stim/wavs/chilean_match_declarative-broad-focus_Marta-abre-el-regalo.wav,./stim/wavs/cuban_match_declarative-broad-focus_Marta-abre-el-regalo.wav,./stim/wavs/mexican_match_declarative-broad-focus_Marta-abre-el-regalo.wav,./stim/wavs/peruvian_match_declarative-broad-focus_Marta-abre-el-regalo.wav,./stim/wavs/puertorican_match_declarative-broad-focus_Marta-abre-el-regalo.wav,,,,,,,,,,,,,,,,,,,,,,,,,,,,,,,,,,,,,,,,,,,,,,,,,,,,,,,,
,,,,,,,57901207c9abeb0001af353e,60568611ec04488a9e9da93b,6056ac2d4f57565217066250,I am not familiar with Spanish,Midwest,NA,no,2021-03-20_21h32.56.656,empathy_intonation_perc,2020.2.10,Win32,60,,,,,,,,,,0,peruvian,0,1,2.638,0,52,52,35,1,36,./stim/wavs/andalusian_mismatch_declarative-broad-focus_La-maestra-vive-en-Paris.wav,./stim/wavs/argentine_mismatch_declarative-broad-focus_La-maestra-vive-en-Paris.wav,./stim/wavs/castilian_mismatch_declarative-broad-focus_La-maestra-vive-en-Paris.wav,./stim/wavs/chilean_mismatch_declarative-broad-focus_La-maestra-vive-en-Paris.wav,./stim/wavs/cuban_mismatch_declarative-broad-focus_La-maestra-vive-en-Paris.wav,./stim/wavs/mexican_mismatch_declarative-broad-focus_La-maestra-vive-en-Paris.wav,./stim/wavs/peruvian_mismatch_declarative-broad-focus_La-maestra-vive-en-Paris.wav,./stim/wavs/puertorican_mismatch_declarative-broad-focus_La-maestra-vive-en-Paris.wav,,,,,,,,,,,,,,,,,,,,,,,,,,,,,,,,,,,,,,,,,,,,,,,,,,,,,,,,
,,,,,,,57901207c9abeb0001af353e,60568611ec04488a9e9da93b,6056ac2d4f57565217066250,I am not familiar with Spanish,Midwest,NA,no,2021-03-20_21h32.56.656,empathy_intonation_perc,2020.2.10,Win32,60,,,,,,,,,,1,castilian,1,1,2.439,0,53,53,59,1,60,./stim/wavs/andalusian_mismatch_interrogative-total-yn_La-maestra-vive-en-Paris.wav,./stim/wavs/argentine_mismatch_interrogative-total-yn_La-maestra-vive-en-Paris.wav,./stim/wavs/castilian_mismatch_interrogative-total-yn_La-maestra-vive-en-Paris.wav,./stim/wavs/chilean_mismatch_interrogative-total-yn_La-maestra-vive-en-Paris.wav,./stim/wavs/cuban_mismatch_interrogative-total-yn_La-maestra-vive-en-Paris.wav,./stim/wavs/mexican_mismatch_interrogative-total-yn_La-maestra-vive-en-Paris.wav,./stim/wavs/peruvian_mismatch_interrogative-total-yn_La-maestra-vive-en-Paris.wav,./stim/wavs/puertorican_mismatch_interrogative-total-yn_La-maestra-vive-en-Paris.wav,,,,,,,,,,,,,,,,,,,,,,,,,,,,,,,,,,,,,,,,,,,,,,,,,,,,,,,,
,,,,,,,57901207c9abeb0001af353e,60568611ec04488a9e9da93b,6056ac2d4f57565217066250,I am not familiar with Spanish,Midwest,NA,no,2021-03-20_21h32.56.656,empathy_intonation_perc,2020.2.10,Win32,60,,,,,,,,,,0,argentine,0,1,2.386,0,54,54,11,1,12,./stim/wavs/andalusian_match_declarative-narrow-focus_Emilio-ama-la-marcha.wav,./stim/wavs/argentine_match_declarative-narrow-focus_Emilio-ama-la-marcha.wav,./stim/wavs/castilian_match_declarative-narrow-focus_Emilio-ama-la-marcha.wav,./stim/wavs/chilean_match_declarative-narrow-focus_Emilio-ama-la-marcha.wav,./stim/wavs/cuban_match_declarative-narrow-focus_Emilio-ama-la-marcha.wav,./stim/wavs/mexican_match_declarative-narrow-focus_Emilio-ama-la-marcha.wav,./stim/wavs/peruvian_match_declarative-narrow-focus_Emilio-ama-la-marcha.wav,./stim/wavs/puertorican_match_declarative-narrow-focus_Emilio-ama-la-marcha.wav,,,,,,,,,,,,,,,,,,,,,,,,,,,,,,,,,,,,,,,,,,,,,,,,,,,,,,,,
,,,,,,,57901207c9abeb0001af353e,60568611ec04488a9e9da93b,6056ac2d4f57565217066250,I am not familiar with Spanish,Midwest,NA,no,2021-03-20_21h32.56.656,empathy_intonation_perc,2020.2.10,Win32,60,,,,,,,,,,0,puertorican,0,1,3.317,0,55,55,15,1,16,./stim/wavs/andalusian_match_declarative-narrow-focus_Marta-abre-el-regalo.wav,./stim/wavs/argentine_match_declarative-narrow-focus_Marta-abre-el-regalo.wav,./stim/wavs/castilian_match_declarative-narrow-focus_Marta-abre-el-regalo.wav,./stim/wavs/chilean_match_declarative-narrow-focus_Marta-abre-el-regalo.wav,./stim/wavs/cuban_match_declarative-narrow-focus_Marta-abre-el-regalo.wav,./stim/wavs/mexican_match_declarative-narrow-focus_Marta-abre-el-regalo.wav,./stim/wavs/peruvian_match_declarative-narrow-focus_Marta-abre-el-regalo.wav,./stim/wavs/puertorican_match_declarative-narrow-focus_Marta-abre-el-regalo.wav,,,,,,,,,,,,,,,,,,,,,,,,,,,,,,,,,,,,,,,,,,,,,,,,,,,,,,,,
,,,,,,,57901207c9abeb0001af353e,60568611ec04488a9e9da93b,6056ac2d4f57565217066250,I am not familiar with Spanish,Midwest,NA,no,2021-03-20_21h32.56.656,empathy_intonation_perc,2020.2.10,Win32,60,,,,,,,,,,1,cuban,1,1,3.758,0,56,56,49,1,50,./stim/wavs/andalusian_mismatch_interrogative-partial-wh_Cuando-lavaba-el-plato.wav,./stim/wavs/argentine_mismatch_interrogative-partial-wh_Cuando-lavaba-el-plato.wav,./stim/wavs/castilian_mismatch_interrogative-partial-wh_Cuando-lavaba-el-plato.wav,./stim/wavs/chilean_mismatch_interrogative-partial-wh_Cuando-lavaba-el-plato.wav,./stim/wavs/cuban_mismatch_interrogative-partial-wh_Cuando-lavaba-el-plato.wav,./stim/wavs/mexican_mismatch_interrogative-partial-wh_Cuando-lavaba-el-plato.wav,./stim/wavs/peruvian_mismatch_interrogative-partial-wh_Cuando-lavaba-el-plato.wav,./stim/wavs/puertorican_mismatch_interrogative-partial-wh_Cuando-lavaba-el-plato.wav,,,,,,,,,,,,,,,,,,,,,,,,,,,,,,,,,,,,,,,,,,,,,,,,,,,,,,,,
,,,,,,,57901207c9abeb0001af353e,60568611ec04488a9e9da93b,6056ac2d4f57565217066250,I am not familiar with Spanish,Midwest,NA,no,2021-03-20_21h32.56.656,empathy_intonation_perc,2020.2.10,Win32,60,,,,,,,,,,1,andalusian,0,0,2.086,0,57,57,20,1,21,./stim/wavs/andalusian_match_interrogative-partial-wh_Por-que-abre-el-regalo.wav,./stim/wavs/argentine_match_interrogative-partial-wh_Por-que-abre-el-regalo.wav,./stim/wavs/castilian_match_interrogative-partial-wh_Por-que-abre-el-regalo.wav,./stim/wavs/chilean_match_interrogative-partial-wh_Por-que-abre-el-regalo.wav,./stim/wavs/cuban_match_interrogative-partial-wh_Por-que-abre-el-regalo.wav,./stim/wavs/mexican_match_interrogative-partial-wh_Por-que-abre-el-regalo.wav,./stim/wavs/peruvian_match_interrogative-partial-wh_Por-que-abre-el-regalo.wav,./stim/wavs/puertorican_match_interrogative-partial-wh_Por-que-abre-el-regalo.wav,,,,,,,,,,,,,,,,,,,,,,,,,,,,,,,,,,,,,,,,,,,,,,,,,,,,,,,,
,,,,,,,57901207c9abeb0001af353e,60568611ec04488a9e9da93b,6056ac2d4f57565217066250,I am not familiar with Spanish,Midwest,NA,no,2021-03-20_21h32.56.656,empathy_intonation_perc,2020.2.10,Win32,60,,,,,,,,,,1,argentine,1,1,3.638,0,58,58,53,1,54,./stim/wavs/andalusian_mismatch_interrogative-partial-wh_Por-que-oia-el-rio.wav,./stim/wavs/argentine_mismatch_interrogative-partial-wh_Por-que-oia-el-rio.wav,./stim/wavs/castilian_mismatch_interrogative-partial-wh_Por-que-oia-el-rio.wav,./stim/wavs/chilean_mismatch_interrogative-partial-wh_Por-que-oia-el-rio.wav,./stim/wavs/cuban_mismatch_interrogative-partial-wh_Por-que-oia-el-rio.wav,./stim/wavs/mexican_mismatch_interrogative-partial-wh_Por-que-oia-el-rio.wav,./stim/wavs/peruvian_mismatch_interrogative-partial-wh_Por-que-oia-el-rio.wav,./stim/wavs/puertorican_mismatch_interrogative-partial-wh_Por-que-oia-el-rio.wav,,,,,,,,,,,,,,,,,,,,,,,,,,,,,,,,,,,,,,,,,,,,,,,,,,,,,,,,
,,,,,,,57901207c9abeb0001af353e,60568611ec04488a9e9da93b,6056ac2d4f57565217066250,I am not familiar with Spanish,Midwest,NA,no,2021-03-20_21h32.56.656,empathy_intonation_perc,2020.2.10,Win32,60,,,,,,,,,,1,mexican,1,1,2.338,0,59,59,29,1,30,./stim/wavs/andalusian_match_interrogative-total-yn_Maria-bebe-el-vino.wav,./stim/wavs/argentine_match_interrogative-total-yn_Maria-bebe-el-vino.wav,./stim/wavs/castilian_match_interrogative-total-yn_Maria-bebe-el-vino.wav,./stim/wavs/chilean_match_interrogative-total-yn_Maria-bebe-el-vino.wav,./stim/wavs/cuban_match_interrogative-total-yn_Maria-bebe-el-vino.wav,./stim/wavs/mexican_match_interrogative-total-yn_Maria-bebe-el-vino.wav,./stim/wavs/peruvian_match_interrogative-total-yn_Maria-bebe-el-vino.wav,./stim/wavs/puertorican_match_interrogative-total-yn_Maria-bebe-el-vino.wav,,,,,,,,,,,,,,,,,,,,,,,,,,,,,,,,,,,,,,,,,,,,,,,,,,,,,,,,
,,,,,,,57901207c9abeb0001af353e,60568611ec04488a9e9da93b,6056ac2d4f57565217066250,I am not familiar with Spanish,Midwest,NA,no,2021-03-20_21h32.56.656,empathy_intonation_perc,2020.2.10,Win32,60,,,,,,,,,,0,argentine,1,0,3.068,0,60,60,13,1,14,./stim/wavs/andalusian_match_declarative-narrow-focus_Maria-bebe-el-vino.wav,./stim/wavs/argentine_match_declarative-narrow-focus_Maria-bebe-el-vino.wav,./stim/wavs/castilian_match_declarative-narrow-focus_Maria-bebe-el-vino.wav,./stim/wavs/chilean_match_declarative-narrow-focus_Maria-bebe-el-vino.wav,./stim/wavs/cuban_match_declarative-narrow-focus_Maria-bebe-el-vino.wav,./stim/wavs/mexican_match_declarative-narrow-focus_Maria-bebe-el-vino.wav,./stim/wavs/peruvian_match_declarative-narrow-focus_Maria-bebe-el-vino.wav,./stim/wavs/puertorican_match_declarative-narrow-focus_Maria-bebe-el-vino.wav,,,,,,,,,,,,,,,,,,,,,,,,,,,,,,,,,,,,,,,,,,,,,,,,,,,,,,,,
,,,,,,,57901207c9abeb0001af353e,60568611ec04488a9e9da93b,6056ac2d4f57565217066250,I am not familiar with Spanish,Midwest,NA,no,2021-03-20_21h32.56.656,empathy_intonation_perc,2020.2.10,Win32,60,,,,,,,,,,0,peruvian,0,1,2.6,0,61,61,1,1,2,./stim/wavs/andalusian_match_declarative-broad-focus_Daniel-iba-a-Bolivia.wav,./stim/wavs/argentine_match_declarative-broad-focus_Daniel-iba-a-Bolivia.wav,./stim/wavs/castilian_match_declarative-broad-focus_Daniel-iba-a-Bolivia.wav,./stim/wavs/chilean_match_declarative-broad-focus_Daniel-iba-a-Bolivia.wav,./stim/wavs/cuban_match_declarative-broad-focus_Daniel-iba-a-Bolivia.wav,./stim/wavs/mexican_match_declarative-broad-focus_Daniel-iba-a-Bolivia.wav,./stim/wavs/peruvian_match_declarative-broad-focus_Daniel-iba-a-Bolivia.wav,./stim/wavs/puertorican_match_declarative-broad-focus_Daniel-iba-a-Bolivia.wav,,,,,,,,,,,,,,,,,,,,,,,,,,,,,,,,,,,,,,,,,,,,,,,,,,,,,,,,
,,,,,,,57901207c9abeb0001af353e,60568611ec04488a9e9da93b,6056ac2d4f57565217066250,I am not familiar with Spanish,Midwest,NA,no,2021-03-20_21h32.56.656,empathy_intonation_perc,2020.2.10,Win32,60,,,,,,,,,,0,chilean,0,1,2.805,0,62,62,47,1,48,./stim/wavs/andalusian_mismatch_declarative-narrow-focus_Mi-tia-odia-la-lluvia.wav,./stim/wavs/argentine_mismatch_declarative-narrow-focus_Mi-tia-odia-la-lluvia.wav,./stim/wavs/castilian_mismatch_declarative-narrow-focus_Mi-tia-odia-la-lluvia.wav,./stim/wavs/chilean_mismatch_declarative-narrow-focus_Mi-tia-odia-la-lluvia.wav,./stim/wavs/cuban_mismatch_declarative-narrow-focus_Mi-tia-odia-la-lluvia.wav,./stim/wavs/mexican_mismatch_declarative-narrow-focus_Mi-tia-odia-la-lluvia.wav,./stim/wavs/peruvian_mismatch_declarative-narrow-focus_Mi-tia-odia-la-lluvia.wav,./stim/wavs/puertorican_mismatch_declarative-narrow-focus_Mi-tia-odia-la-lluvia.wav,,,,,,,,,,,,,,,,,,,,,,,,,,,,,,,,,,,,,,,,,,,,,,,,,,,,,,,,
,,,,,,,57901207c9abeb0001af353e,60568611ec04488a9e9da93b,6056ac2d4f57565217066250,I am not familiar with Spanish,Midwest,NA,no,2021-03-20_21h32.56.656,empathy_intonation_perc,2020.2.10,Win32,60,,,,,,,,,,0,peruvian,0,1,2.634,0,63,63,14,1,15,./stim/wavs/andalusian_match_declarative-narrow-focus_Mariano-habla-del-tiempo.wav,./stim/wavs/argentine_match_declarative-narrow-focus_Mariano-habla-del-tiempo.wav,./stim/wavs/castilian_match_declarative-narrow-focus_Mariano-habla-del-tiempo.wav,./stim/wavs/chilean_match_declarative-narrow-focus_Mariano-habla-del-tiempo.wav,./stim/wavs/cuban_match_declarative-narrow-focus_Mariano-habla-del-tiempo.wav,./stim/wavs/mexican_match_declarative-narrow-focus_Mariano-habla-del-tiempo.wav,./stim/wavs/peruvian_match_declarative-narrow-focus_Mariano-habla-del-tiempo.wav,./stim/wavs/puertorican_match_declarative-narrow-focus_Mariano-habla-del-tiempo.wav,,,,,,,,,,,,,,,,,,,,,,,,,,,,,,,,,,,,,,,,,,,,,,,,,,,,,,,,
,,,,,,,57901207c9abeb0001af353e,60568611ec04488a9e9da93b,6056ac2d4f57565217066250,I am not familiar with Spanish,Midwest,NA,no,2021-03-20_21h32.56.656,empathy_intonation_perc,2020.2.10,Win32,60,,,,,,,,,,,,,,,,,,,,,,,,,,,,,h,1,3.386,0,0,0,0,1,,,,,,,,,,,,,,,,,,,,,,,,,,,,,,,,,,,,,,,,,,,,,,,,
,,,,,"Great! Now we will move on. The next task consists of about 60 trials, in each of which you will see a string of letters. 
  
  Your task is to decide whether this is a real Spanish word or not.",(press the spacebar to continue),57901207c9abeb0001af353e,60568611ec04488a9e9da93b,6056ac2d4f57565217066250,I am not familiar with Spanish,Midwest,NA,no,2021-03-20_21h32.56.656,empathy_intonation_perc,2020.2.10,Win32,60,,,,,,,,,,,,,,,,,,,,,,,,,,,,,,,,,,,,,0,0,0,0,1,,,,,,,,,,,,,,,,,,,,,,,,,,,,,,,,,,,,,,,,,,,
,,,,,"If you think it is an existing Spanish word, you type '1' (for 'REAL'), and if you think it is not an existing Spanish word, you type '0' (for 'FAKE').",(press the spacebar to continue),57901207c9abeb0001af353e,60568611ec04488a9e9da93b,6056ac2d4f57565217066250,I am not familiar with Spanish,Midwest,NA,no,2021-03-20_21h32.56.656,empathy_intonation_perc,2020.2.10,Win32,60,,,,,,,,,,,,,,,,,,,,,,,,,,,,,,,,,,,,,0,1,1,1,1,,,,,,,,,,,,,,,,,,,,,,,,,,,,,,,,,,,,,,,,,,,
,,,,,"If you are sure that the word exists, even though you dont know its exact meaning, you may still respond '1' (REAL). 
  
  But if you are not sure if it is an existing word, you should respond '0' (FAKE).
  
  Let's do a practice round...",(press the spacebar to continue),57901207c9abeb0001af353e,60568611ec04488a9e9da93b,6056ac2d4f57565217066250,I am not familiar with Spanish,Midwest,NA,no,2021-03-20_21h32.56.656,empathy_intonation_perc,2020.2.10,Win32,60,,,,,,,,,,,,,,,,,,,,,,,,,,,,,,,,,,,,,0,2,2,2,1,,,,,,,,,,,,,,,,,,,,,,,,,,,,,,,,,,,,,,,,,,,
,,,,,,,57901207c9abeb0001af353e,60568611ec04488a9e9da93b,6056ac2d4f57565217066250,I am not familiar with Spanish,Midwest,NA,no,2021-03-20_21h32.56.656,empathy_intonation_perc,2020.2.10,Win32,60,,,,,,,,,,0,,,,,,,,,,,,,,,,,,,,,,,,,,,,,,,,1,0,3.986,0,0,0,0,1,0,depiste,REAL,FAKE,,,,,,,,,,,,,,,,,,,,,,,,,,,,,,,
,,,,,,,57901207c9abeb0001af353e,60568611ec04488a9e9da93b,6056ac2d4f57565217066250,I am not familiar with Spanish,Midwest,NA,no,2021-03-20_21h32.56.656,empathy_intonation_perc,2020.2.10,Win32,60,,,,,,,,,,1,,,,,,,,,,,,,,,,,,,,,,,,,,,,,,,,1,1,0.935,0,1,1,1,1,0,s,REAL,FAKE,,,,,,,,,,,,,,,,,,,,,,,,,,,,,,,
,,,,,,,57901207c9abeb0001af353e,60568611ec04488a9e9da93b,6056ac2d4f57565217066250,I am not familiar with Spanish,Midwest,NA,no,2021-03-20_21h32.56.656,empathy_intonation_perc,2020.2.10,Win32,60,,,,,,,,,,0,,,,,,,,,,,,,,,,,,,,,,,,,,,,,,,,1,0,0.753,0,2,2,2,1,0,con,REAL,FAKE,,,,,,,,,,,,,,,,,,,,,,,,,,,,,,,
,,,,,,,57901207c9abeb0001af353e,60568611ec04488a9e9da93b,6056ac2d4f57565217066250,I am not familiar with Spanish,Midwest,NA,no,2021-03-20_21h32.56.656,empathy_intonation_perc,2020.2.10,Win32,60,,,,,,,,,,0,,,,,,,,,,,,,,,,,,,,,,,,,,,,,,,,0,1,0.886,0,3,3,3,1,0,calpar,REAL,FAKE,,,,,,,,,,,,,,,,,,,,,,,,,,,,,,,
,,,,,,,57901207c9abeb0001af353e,60568611ec04488a9e9da93b,6056ac2d4f57565217066250,I am not familiar with Spanish,Midwest,NA,no,2021-03-20_21h32.56.656,empathy_intonation_perc,2020.2.10,Win32,60,,,,,,,,,,0,,,,,,,,,,,,,,,,,,,,,,,,,,,,,,,,0,1,0.93,0,4,4,4,1,0,joten,REAL,FAKE,,,,,,,,,,,,,,,,,,,,,,,,,,,,,,,
,,,,,,,57901207c9abeb0001af353e,60568611ec04488a9e9da93b,6056ac2d4f57565217066250,I am not familiar with Spanish,Midwest,NA,no,2021-03-20_21h32.56.656,empathy_intonation_perc,2020.2.10,Win32,60,,,,,,,,,,1,,,,,,,,,,,,,,,,,,,,,,,,,,,,,,,,1,1,1.397,0,5,5,5,1,0,sacapuntas,REAL,FAKE,,,,,,,,,,,,,,,,,,,,,,,,,,,,,,,
,,,,,,,57901207c9abeb0001af353e,60568611ec04488a9e9da93b,6056ac2d4f57565217066250,I am not familiar with Spanish,Midwest,NA,no,2021-03-20_21h32.56.656,empathy_intonation_perc,2020.2.10,Win32,60,,,,,,,,,,0,,,,,,,,,,,,,,,,,,,,,,,,,,,,,,,,1,0,1.098,0,6,6,6,1,0,priba,REAL,FAKE,,,,,,,,,,,,,,,,,,,,,,,,,,,,,,,
,,,,,,,57901207c9abeb0001af353e,60568611ec04488a9e9da93b,6056ac2d4f57565217066250,I am not familiar with Spanish,Midwest,NA,no,2021-03-20_21h32.56.656,empathy_intonation_perc,2020.2.10,Win32,60,,,,,,,,,,0,,,,,,,,,,,,,,,,,,,,,,,,,,,,,,,,1,0,1.138,0,7,7,7,1,0,pelasula,REAL,FAKE,,,,,,,,,,,,,,,,,,,,,,,,,,,,,,,
,,,,,,,57901207c9abeb0001af353e,60568611ec04488a9e9da93b,6056ac2d4f57565217066250,I am not familiar with Spanish,Midwest,NA,no,2021-03-20_21h32.56.656,empathy_intonation_perc,2020.2.10,Win32,60,,,,,,,,,,1,,,,,,,,,,,,,,,,,,,,,,,,,,,,,,,,1,1,0.854,0,8,8,8,1,0,bien,REAL,FAKE,,,,,,,,,,,,,,,,,,,,,,,,,,,,,,,
,,,,,,,57901207c9abeb0001af353e,60568611ec04488a9e9da93b,6056ac2d4f57565217066250,I am not familiar with Spanish,Midwest,NA,no,2021-03-20_21h32.56.656,empathy_intonation_perc,2020.2.10,Win32,60,,,,,,,,,,1,,,,,,,,,,,,,,,,,,,,,,,,,,,,,,,,1,1,0.665,0,9,9,9,1,0,casa,REAL,FAKE,,,,,,,,,,,,,,,,,,,,,,,,,,,,,,,
,,,,,,,57901207c9abeb0001af353e,60568611ec04488a9e9da93b,6056ac2d4f57565217066250,I am not familiar with Spanish,Midwest,NA,no,2021-03-20_21h32.56.656,empathy_intonation_perc,2020.2.10,Win32,60,,,,,,,,,,0,,,,,,,,,,,,,,,,,,,,,,,,,,,,,,,,0,1,0.699,0,10,10,10,1,0,lejo,REAL,FAKE,,,,,,,,,,,,,,,,,,,,,,,,,,,,,,,
,,,,,,,57901207c9abeb0001af353e,60568611ec04488a9e9da93b,6056ac2d4f57565217066250,I am not familiar with Spanish,Midwest,NA,no,2021-03-20_21h32.56.656,empathy_intonation_perc,2020.2.10,Win32,60,,,,,,,,,,0,,,,,,,,,,,,,,,,,,,,,,,,,,,,,,,,0,1,1.315,0,11,11,11,1,0,pretantas,REAL,FAKE,,,,,,,,,,,,,,,,,,,,,,,,,,,,,,,
,,,,,,,57901207c9abeb0001af353e,60568611ec04488a9e9da93b,6056ac2d4f57565217066250,I am not familiar with Spanish,Midwest,NA,no,2021-03-20_21h32.56.656,empathy_intonation_perc,2020.2.10,Win32,60,,,,,,,,,,1,,,,,,,,,,,,,,,,,,,,,,,,,,,,,,,,,,,,,,,,34,aviso,,,0,0,1.135,0,0,0,33,1,REAL,FAKE,,,,,,,,,,,,,,,,,,,,,
,,,,,,,57901207c9abeb0001af353e,60568611ec04488a9e9da93b,6056ac2d4f57565217066250,I am not familiar with Spanish,Midwest,NA,no,2021-03-20_21h32.56.656,empathy_intonation_perc,2020.2.10,Win32,60,,,,,,,,,,0,,,,,,,,,,,,,,,,,,,,,,,,,,,,,,,,,,,,,,,,63,esposante,,,1,0,0.756,0,1,1,62,1,REAL,FAKE,,,,,,,,,,,,,,,,,,,,,
,,,,,,,57901207c9abeb0001af353e,60568611ec04488a9e9da93b,6056ac2d4f57565217066250,I am not familiar with Spanish,Midwest,NA,no,2021-03-20_21h32.56.656,empathy_intonation_perc,2020.2.10,Win32,60,,,,,,,,,,1,,,,,,,,,,,,,,,,,,,,,,,,,,,,,,,,,,,,,,,,56,musgo,,,0,0,1.03,0,2,2,55,1,REAL,FAKE,,,,,,,,,,,,,,,,,,,,,
,,,,,,,57901207c9abeb0001af353e,60568611ec04488a9e9da93b,6056ac2d4f57565217066250,I am not familiar with Spanish,Midwest,NA,no,2021-03-20_21h32.56.656,empathy_intonation_perc,2020.2.10,Win32,60,,,,,,,,,,1,,,,,,,,,,,,,,,,,,,,,,,,,,,,,,,,,,,,,,,,46,martillo,,,0,0,0.866,0,3,3,45,1,REAL,FAKE,,,,,,,,,,,,,,,,,,,,,
,,,,,,,57901207c9abeb0001af353e,60568611ec04488a9e9da93b,6056ac2d4f57565217066250,I am not familiar with Spanish,Midwest,NA,no,2021-03-20_21h32.56.656,empathy_intonation_perc,2020.2.10,Win32,60,,,,,,,,,,1,,,,,,,,,,,,,,,,,,,,,,,,,,,,,,,,,,,,,,,,12,asesinato,,,1,1,1.111,0,4,4,11,1,REAL,FAKE,,,,,,,,,,,,,,,,,,,,,
,,,,,,,57901207c9abeb0001af353e,60568611ec04488a9e9da93b,6056ac2d4f57565217066250,I am not familiar with Spanish,Midwest,NA,no,2021-03-20_21h32.56.656,empathy_intonation_perc,2020.2.10,Win32,60,,,,,,,,,,1,,,,,,,,,,,,,,,,,,,,,,,,,,,,,,,,,,,,,,,,59,besar,,,0,0,1.418,0,5,5,58,1,REAL,FAKE,,,,,,,,,,,,,,,,,,,,,
,,,,,,,57901207c9abeb0001af353e,60568611ec04488a9e9da93b,6056ac2d4f57565217066250,I am not familiar with Spanish,Midwest,NA,no,2021-03-20_21h32.56.656,empathy_intonation_perc,2020.2.10,Win32,60,,,,,,,,,,0,,,,,,,,,,,,,,,,,,,,,,,,,,,,,,,,,,,,,,,,32,fatacidad,,,0,1,1.18,0,6,6,31,1,REAL,FAKE,,,,,,,,,,,,,,,,,,,,,
,,,,,,,57901207c9abeb0001af353e,60568611ec04488a9e9da93b,6056ac2d4f57565217066250,I am not familiar with Spanish,Midwest,NA,no,2021-03-20_21h32.56.656,empathy_intonation_perc,2020.2.10,Win32,60,,,,,,,,,,0,,,,,,,,,,,,,,,,,,,,,,,,,,,,,,,,,,,,,,,,47,cartinar,,,0,1,1.797,0,7,7,46,1,REAL,FAKE,,,,,,,,,,,,,,,,,,,,,
,,,,,,,57901207c9abeb0001af353e,60568611ec04488a9e9da93b,6056ac2d4f57565217066250,I am not familiar with Spanish,Midwest,NA,no,2021-03-20_21h32.56.656,empathy_intonation_perc,2020.2.10,Win32,60,,,,,,,,,,0,,,,,,,,,,,,,,,,,,,,,,,,,,,,,,,,,,,,,,,,19,brecedad,,,0,1,1.131,0,8,8,18,1,REAL,FAKE,,,,,,,,,,,,,,,,,,,,,
,,,,,,,57901207c9abeb0001af353e,60568611ec04488a9e9da93b,6056ac2d4f57565217066250,I am not familiar with Spanish,Midwest,NA,no,2021-03-20_21h32.56.656,empathy_intonation_perc,2020.2.10,Win32,60,,,,,,,,,,0,,,,,,,,,,,,,,,,,,,,,,,,,,,,,,,,,,,,,,,,23,lampera,,,1,0,1.505,0,9,9,22,1,REAL,FAKE,,,,,,,,,,,,,,,,,,,,,
,,,,,,,57901207c9abeb0001af353e,60568611ec04488a9e9da93b,6056ac2d4f57565217066250,I am not familiar with Spanish,Midwest,NA,no,2021-03-20_21h32.56.656,empathy_intonation_perc,2020.2.10,Win32,60,,,,,,,,,,1,,,,,,,,,,,,,,,,,,,,,,,,,,,,,,,,,,,,,,,,73,hervidor,,,1,1,1.917,0,10,10,72,1,REAL,FAKE,,,,,,,,,,,,,,,,,,,,,
,,,,,,,57901207c9abeb0001af353e,60568611ec04488a9e9da93b,6056ac2d4f57565217066250,I am not familiar with Spanish,Midwest,NA,no,2021-03-20_21h32.56.656,empathy_intonation_perc,2020.2.10,Win32,60,,,,,,,,,,0,,,,,,,,,,,,,,,,,,,,,,,,,,,,,,,,,,,,,,,,17,floroso,,,0,1,1.016,0,11,11,16,1,REAL,FAKE,,,,,,,,,,,,,,,,,,,,,
,,,,,,,57901207c9abeb0001af353e,60568611ec04488a9e9da93b,6056ac2d4f57565217066250,I am not familiar with Spanish,Midwest,NA,no,2021-03-20_21h32.56.656,empathy_intonation_perc,2020.2.10,Win32,60,,,,,,,,,,0,,,,,,,,,,,,,,,,,,,,,,,,,,,,,,,,,,,,,,,,87,grodo,,,1,0,1.23,0,12,12,86,1,REAL,FAKE,,,,,,,,,,,,,,,,,,,,,
,,,,,,,57901207c9abeb0001af353e,60568611ec04488a9e9da93b,6056ac2d4f57565217066250,I am not familiar with Spanish,Midwest,NA,no,2021-03-20_21h32.56.656,empathy_intonation_perc,2020.2.10,Win32,60,,,,,,,,,,1,,,,,,,,,,,,,,,,,,,,,,,,,,,,,,,,,,,,,,,,14,yunque,,,0,0,0.824,0,13,13,13,1,REAL,FAKE,,,,,,,,,,,,,,,,,,,,,
,,,,,,,57901207c9abeb0001af353e,60568611ec04488a9e9da93b,6056ac2d4f57565217066250,I am not familiar with Spanish,Midwest,NA,no,2021-03-20_21h32.56.656,empathy_intonation_perc,2020.2.10,Win32,60,,,,,,,,,,1,,,,,,,,,,,,,,,,,,,,,,,,,,,,,,,,,,,,,,,,22,lacayo,,,1,1,1.329,0,14,14,21,1,REAL,FAKE,,,,,,,,,,,,,,,,,,,,,
,,,,,,,57901207c9abeb0001af353e,60568611ec04488a9e9da93b,6056ac2d4f57565217066250,I am not familiar with Spanish,Midwest,NA,no,2021-03-20_21h32.56.656,empathy_intonation_perc,2020.2.10,Win32,60,,,,,,,,,,0,,,,,,,,,,,,,,,,,,,,,,,,,,,,,,,,,,,,,,,,35,rompido,,,0,1,0.719,0,15,15,34,1,REAL,FAKE,,,,,,,,,,,,,,,,,,,,,
,,,,,,,57901207c9abeb0001af353e,60568611ec04488a9e9da93b,6056ac2d4f57565217066250,I am not familiar with Spanish,Midwest,NA,no,2021-03-20_21h32.56.656,empathy_intonation_perc,2020.2.10,Win32,60,,,,,,,,,,1,,,,,,,,,,,,,,,,,,,,,,,,,,,,,,,,,,,,,,,,9,hacha,,,1,1,1.103,0,16,16,8,1,REAL,FAKE,,,,,,,,,,,,,,,,,,,,,
,,,,,,,57901207c9abeb0001af353e,60568611ec04488a9e9da93b,6056ac2d4f57565217066250,I am not familiar with Spanish,Midwest,NA,no,2021-03-20_21h32.56.656,empathy_intonation_perc,2020.2.10,Win32,60,,,,,,,,,,0,,,,,,,,,,,,,,,,,,,,,,,,,,,,,,,,,,,,,,,,1,terzo,,,1,0,0.934,0,17,17,0,1,REAL,FAKE,,,,,,,,,,,,,,,,,,,,,
,,,,,,,57901207c9abeb0001af353e,60568611ec04488a9e9da93b,6056ac2d4f57565217066250,I am not familiar with Spanish,Midwest,NA,no,2021-03-20_21h32.56.656,empathy_intonation_perc,2020.2.10,Win32,60,,,,,,,,,,1,,,,,,,,,,,,,,,,,,,,,,,,,,,,,,,,,,,,,,,,89,prisa,,,1,1,0.733,0,18,18,88,1,REAL,FAKE,,,,,,,,,,,,,,,,,,,,,
,,,,,,,57901207c9abeb0001af353e,60568611ec04488a9e9da93b,6056ac2d4f57565217066250,I am not familiar with Spanish,Midwest,NA,no,2021-03-20_21h32.56.656,empathy_intonation_perc,2020.2.10,Win32,60,,,,,,,,,,0,,,,,,,,,,,,,,,,,,,,,,,,,,,,,,,,,,,,,,,,16,abracer,,,0,1,0.701,0,19,19,15,1,REAL,FAKE,,,,,,,,,,,,,,,,,,,,,
,,,,,,,57901207c9abeb0001af353e,60568611ec04488a9e9da93b,6056ac2d4f57565217066250,I am not familiar with Spanish,Midwest,NA,no,2021-03-20_21h32.56.656,empathy_intonation_perc,2020.2.10,Win32,60,,,,,,,,,,1,,,,,,,,,,,,,,,,,,,,,,,,,,,,,,,,,,,,,,,,5,zapato,,,0,0,1.314,0,20,20,4,1,REAL,FAKE,,,,,,,,,,,,,,,,,,,,,
,,,,,,,57901207c9abeb0001af353e,60568611ec04488a9e9da93b,6056ac2d4f57565217066250,I am not familiar with Spanish,Midwest,NA,no,2021-03-20_21h32.56.656,empathy_intonation_perc,2020.2.10,Win32,60,,,,,,,,,,1,,,,,,,,,,,,,,,,,,,,,,,,,,,,,,,,,,,,,,,,57,tacao,,,1,1,0.75,0,21,21,56,1,REAL,FAKE,,,,,,,,,,,,,,,,,,,,,
,,,,,,,57901207c9abeb0001af353e,60568611ec04488a9e9da93b,6056ac2d4f57565217066250,I am not familiar with Spanish,Midwest,NA,no,2021-03-20_21h32.56.656,empathy_intonation_perc,2020.2.10,Win32,60,,,,,,,,,,1,,,,,,,,,,,,,,,,,,,,,,,,,,,,,,,,,,,,,,,,65,bizcocho,,,0,0,1.214,0,22,22,64,1,REAL,FAKE,,,,,,,,,,,,,,,,,,,,,
,,,,,,,57901207c9abeb0001af353e,60568611ec04488a9e9da93b,6056ac2d4f57565217066250,I am not familiar with Spanish,Midwest,NA,no,2021-03-20_21h32.56.656,empathy_intonation_perc,2020.2.10,Win32,60,,,,,,,,,,1,,,,,,,,,,,,,,,,,,,,,,,,,,,,,,,,,,,,,,,,13,helar,,,0,0,0.927,0,23,23,12,1,REAL,FAKE,,,,,,,,,,,,,,,,,,,,,
,,,,,,,57901207c9abeb0001af353e,60568611ec04488a9e9da93b,6056ac2d4f57565217066250,I am not familiar with Spanish,Midwest,NA,no,2021-03-20_21h32.56.656,empathy_intonation_perc,2020.2.10,Win32,60,,,,,,,,,,1,,,,,,,,,,,,,,,,,,,,,,,,,,,,,,,,,,,,,,,,61,seda,,,0,0,1.346,0,24,24,60,1,REAL,FAKE,,,,,,,,,,,,,,,,,,,,,
,,,,,,,57901207c9abeb0001af353e,60568611ec04488a9e9da93b,6056ac2d4f57565217066250,I am not familiar with Spanish,Midwest,NA,no,2021-03-20_21h32.56.656,empathy_intonation_perc,2020.2.10,Win32,60,,,,,,,,,,0,,,,,,,,,,,,,,,,,,,,,,,,,,,,,,,,,,,,,,,,53,vegada,,,1,0,1.867,0,25,25,52,1,REAL,FAKE,,,,,,,,,,,,,,,,,,,,,
,,,,,,,57901207c9abeb0001af353e,60568611ec04488a9e9da93b,6056ac2d4f57565217066250,I am not familiar with Spanish,Midwest,NA,no,2021-03-20_21h32.56.656,empathy_intonation_perc,2020.2.10,Win32,60,,,,,,,,,,1,,,,,,,,,,,,,,,,,,,,,,,,,,,,,,,,,,,,,,,,69,engatusar,,,0,0,1.366,0,26,26,68,1,REAL,FAKE,,,,,,,,,,,,,,,,,,,,,
,,,,,,,57901207c9abeb0001af353e,60568611ec04488a9e9da93b,6056ac2d4f57565217066250,I am not familiar with Spanish,Midwest,NA,no,2021-03-20_21h32.56.656,empathy_intonation_perc,2020.2.10,Win32,60,,,,,,,,,,0,,,,,,,,,,,,,,,,,,,,,,,,,,,,,,,,,,,,,,,,82,empirador,,,0,1,1.899,0,27,27,81,1,REAL,FAKE,,,,,,,,,,,,,,,,,,,,,
,,,,,,,57901207c9abeb0001af353e,60568611ec04488a9e9da93b,6056ac2d4f57565217066250,I am not familiar with Spanish,Midwest,NA,no,2021-03-20_21h32.56.656,empathy_intonation_perc,2020.2.10,Win32,60,,,,,,,,,,1,,,,,,,,,,,,,,,,,,,,,,,,,,,,,,,,,,,,,,,,52,camisa,,,1,1,0.729,0,28,28,51,1,REAL,FAKE,,,,,,,,,,,,,,,,,,,,,
,,,,,,,57901207c9abeb0001af353e,60568611ec04488a9e9da93b,6056ac2d4f57565217066250,I am not familiar with Spanish,Midwest,NA,no,2021-03-20_21h32.56.656,empathy_intonation_perc,2020.2.10,Win32,60,,,,,,,,,,1,,,,,,,,,,,,,,,,,,,,,,,,,,,,,,,,,,,,,,,,88,acantilado,,,1,1,1.96,0,29,29,87,1,REAL,FAKE,,,,,,,,,,,,,,,,,,,,,
,,,,,,,57901207c9abeb0001af353e,60568611ec04488a9e9da93b,6056ac2d4f57565217066250,I am not familiar with Spanish,Midwest,NA,no,2021-03-20_21h32.56.656,empathy_intonation_perc,2020.2.10,Win32,60,,,,,,,,,,1,,,,,,,,,,,,,,,,,,,,,,,,,,,,,,,,,,,,,,,,38,estornudar,,,0,0,1.699,0,30,30,37,1,REAL,FAKE,,,,,,,,,,,,,,,,,,,,,
,,,,,,,57901207c9abeb0001af353e,60568611ec04488a9e9da93b,6056ac2d4f57565217066250,I am not familiar with Spanish,Midwest,NA,no,2021-03-20_21h32.56.656,empathy_intonation_perc,2020.2.10,Win32,60,,,,,,,,,,0,,,,,,,,,,,,,,,,,,,,,,,,,,,,,,,,,,,,,,,,58,plaudir,,,0,1,1.112,0,31,31,57,1,REAL,FAKE,,,,,,,,,,,,,,,,,,,,,
,,,,,,,57901207c9abeb0001af353e,60568611ec04488a9e9da93b,6056ac2d4f57565217066250,I am not familiar with Spanish,Midwest,NA,no,2021-03-20_21h32.56.656,empathy_intonation_perc,2020.2.10,Win32,60,,,,,,,,,,1,,,,,,,,,,,,,,,,,,,,,,,,,,,,,,,,,,,,,,,,68,alegre,,,0,0,1.015,0,32,32,67,1,REAL,FAKE,,,,,,,,,,,,,,,,,,,,,
,,,,,,,57901207c9abeb0001af353e,60568611ec04488a9e9da93b,6056ac2d4f57565217066250,I am not familiar with Spanish,Midwest,NA,no,2021-03-20_21h32.56.656,empathy_intonation_perc,2020.2.10,Win32,60,,,,,,,,,,0,,,,,,,,,,,,,,,,,,,,,,,,,,,,,,,,,,,,,,,,70,temblo,,,0,1,1.446,0,33,33,69,1,REAL,FAKE,,,,,,,,,,,,,,,,,,,,,
,,,,,,,57901207c9abeb0001af353e,60568611ec04488a9e9da93b,6056ac2d4f57565217066250,I am not familiar with Spanish,Midwest,NA,no,2021-03-20_21h32.56.656,empathy_intonation_perc,2020.2.10,Win32,60,,,,,,,,,,1,,,,,,,,,,,,,,,,,,,,,,,,,,,,,,,,,,,,,,,,11,cenefa,,,0,0,1.247,0,34,34,10,1,REAL,FAKE,,,,,,,,,,,,,,,,,,,,,
,,,,,,,57901207c9abeb0001af353e,60568611ec04488a9e9da93b,6056ac2d4f57565217066250,I am not familiar with Spanish,Midwest,NA,no,2021-03-20_21h32.56.656,empathy_intonation_perc,2020.2.10,Win32,60,,,,,,,,,,1,,,,,,,,,,,,,,,,,,,,,,,,,,,,,,,,,,,,,,,,26,secuestro,,,0,0,1.646,0,35,35,25,1,REAL,FAKE,,,,,,,,,,,,,,,,,,,,,
,,,,,,,57901207c9abeb0001af353e,60568611ec04488a9e9da93b,6056ac2d4f57565217066250,I am not familiar with Spanish,Midwest,NA,no,2021-03-20_21h32.56.656,empathy_intonation_perc,2020.2.10,Win32,60,,,,,,,,,,1,,,,,,,,,,,,,,,,,,,,,,,,,,,,,,,,,,,,,,,,71,polvoriento,,,1,1,1.55,0,36,36,70,1,REAL,FAKE,,,,,,,,,,,,,,,,,,,,,
,,,,,,,57901207c9abeb0001af353e,60568611ec04488a9e9da93b,6056ac2d4f57565217066250,I am not familiar with Spanish,Midwest,NA,no,2021-03-20_21h32.56.656,empathy_intonation_perc,2020.2.10,Win32,60,,,,,,,,,,1,,,,,,,,,,,,,,,,,,,,,,,,,,,,,,,,,,,,,,,,86,barato,,,0,0,1.048,0,37,37,85,1,REAL,FAKE,,,,,,,,,,,,,,,,,,,,,
,,,,,,,57901207c9abeb0001af353e,60568611ec04488a9e9da93b,6056ac2d4f57565217066250,I am not familiar with Spanish,Midwest,NA,no,2021-03-20_21h32.56.656,empathy_intonation_perc,2020.2.10,Win32,60,,,,,,,,,,1,,,,,,,,,,,,,,,,,,,,,,,,,,,,,,,,,,,,,,,,62,flaco,,,1,1,1.076,0,38,38,61,1,REAL,FAKE,,,,,,,,,,,,,,,,,,,,,
,,,,,,,57901207c9abeb0001af353e,60568611ec04488a9e9da93b,6056ac2d4f57565217066250,I am not familiar with Spanish,Midwest,NA,no,2021-03-20_21h32.56.656,empathy_intonation_perc,2020.2.10,Win32,60,,,,,,,,,,0,,,,,,,,,,,,,,,,,,,,,,,,,,,,,,,,,,,,,,,,4,batilln,,,1,0,2.195,0,39,39,3,1,REAL,FAKE,,,,,,,,,,,,,,,,,,,,,
,,,,,,,57901207c9abeb0001af353e,60568611ec04488a9e9da93b,6056ac2d4f57565217066250,I am not familiar with Spanish,Midwest,NA,no,2021-03-20_21h32.56.656,empathy_intonation_perc,2020.2.10,Win32,60,,,,,,,,,,1,,,,,,,,,,,,,,,,,,,,,,,,,,,,,,,,,,,,,,,,25,bisagra,,,0,0,0.915,0,40,40,24,1,REAL,FAKE,,,,,,,,,,,,,,,,,,,,,
,,,,,,,57901207c9abeb0001af353e,60568611ec04488a9e9da93b,6056ac2d4f57565217066250,I am not familiar with Spanish,Midwest,NA,no,2021-03-20_21h32.56.656,empathy_intonation_perc,2020.2.10,Win32,60,,,,,,,,,,0,,,,,,,,,,,,,,,,,,,,,,,,,,,,,,,,,,,,,,,,21,capillo,,,0,1,0.848,0,41,41,20,1,REAL,FAKE,,,,,,,,,,,,,,,,,,,,,
,,,,,,,57901207c9abeb0001af353e,60568611ec04488a9e9da93b,6056ac2d4f57565217066250,I am not familiar with Spanish,Midwest,NA,no,2021-03-20_21h32.56.656,empathy_intonation_perc,2020.2.10,Win32,60,,,,,,,,,,1,,,,,,,,,,,,,,,,,,,,,,,,,,,,,,,,,,,,,,,,40,alfombra,,,0,0,1.111,0,42,42,39,1,REAL,FAKE,,,,,,,,,,,,,,,,,,,,,
,,,,,,,57901207c9abeb0001af353e,60568611ec04488a9e9da93b,6056ac2d4f57565217066250,I am not familiar with Spanish,Midwest,NA,no,2021-03-20_21h32.56.656,empathy_intonation_perc,2020.2.10,Win32,60,,,,,,,,,,1,,,,,,,,,,,,,,,,,,,,,,,,,,,,,,,,,,,,,,,,37,granuja,,,0,0,2.171,0,43,43,36,1,REAL,FAKE,,,,,,,,,,,,,,,,,,,,,
,,,,,,,57901207c9abeb0001af353e,60568611ec04488a9e9da93b,6056ac2d4f57565217066250,I am not familiar with Spanish,Midwest,NA,no,2021-03-20_21h32.56.656,empathy_intonation_perc,2020.2.10,Win32,60,,,,,,,,,,1,,,,,,,,,,,,,,,,,,,,,,,,,,,,,,,,,,,,,,,,76,atar,,,0,0,1.191,0,44,44,75,1,REAL,FAKE,,,,,,,,,,,,,,,,,,,,,
,,,,,,,57901207c9abeb0001af353e,60568611ec04488a9e9da93b,6056ac2d4f57565217066250,I am not familiar with Spanish,Midwest,NA,no,2021-03-20_21h32.56.656,empathy_intonation_perc,2020.2.10,Win32,60,,,,,,,,,,0,,,,,,,,,,,,,,,,,,,,,,,,,,,,,,,,,,,,,,,,72,pemicin,,,1,0,1.714,0,45,45,71,1,REAL,FAKE,,,,,,,,,,,,,,,,,,,,,
,,,,,,,57901207c9abeb0001af353e,60568611ec04488a9e9da93b,6056ac2d4f57565217066250,I am not familiar with Spanish,Midwest,NA,no,2021-03-20_21h32.56.656,empathy_intonation_perc,2020.2.10,Win32,60,,,,,,,,,,0,,,,,,,,,,,,,,,,,,,,,,,,,,,,,,,,,,,,,,,,8,cadea,,,1,0,0.998,0,46,46,7,1,REAL,FAKE,,,,,,,,,,,,,,,,,,,,,
,,,,,,,57901207c9abeb0001af353e,60568611ec04488a9e9da93b,6056ac2d4f57565217066250,I am not familiar with Spanish,Midwest,NA,no,2021-03-20_21h32.56.656,empathy_intonation_perc,2020.2.10,Win32,60,,,,,,,,,,1,,,,,,,,,,,,,,,,,,,,,,,,,,,,,,,,,,,,,,,,80,hormiga,,,0,0,0.763,0,47,47,79,1,REAL,FAKE,,,,,,,,,,,,,,,,,,,,,
,,,,,,,57901207c9abeb0001af353e,60568611ec04488a9e9da93b,6056ac2d4f57565217066250,I am not familiar with Spanish,Midwest,NA,no,2021-03-20_21h32.56.656,empathy_intonation_perc,2020.2.10,Win32,60,,,,,,,,,,1,,,,,,,,,,,,,,,,,,,,,,,,,,,,,,,,,,,,,,,,51,candado,,,0,0,0.988,0,48,48,50,1,REAL,FAKE,,,,,,,,,,,,,,,,,,,,,
,,,,,,,57901207c9abeb0001af353e,60568611ec04488a9e9da93b,6056ac2d4f57565217066250,I am not familiar with Spanish,Midwest,NA,no,2021-03-20_21h32.56.656,empathy_intonation_perc,2020.2.10,Win32,60,,,,,,,,,,1,,,,,,,,,,,,,,,,,,,,,,,,,,,,,,,,,,,,,,,,75,yacer,,,0,0,0.668,0,49,49,74,1,REAL,FAKE,,,,,,,,,,,,,,,,,,,,,
,,,,,,,57901207c9abeb0001af353e,60568611ec04488a9e9da93b,6056ac2d4f57565217066250,I am not familiar with Spanish,Midwest,NA,no,2021-03-20_21h32.56.656,empathy_intonation_perc,2020.2.10,Win32,60,,,,,,,,,,1,,,,,,,,,,,,,,,,,,,,,,,,,,,,,,,,,,,,,,,,31,pandilla,,,0,0,1.016,0,50,50,30,1,REAL,FAKE,,,,,,,,,,,,,,,,,,,,,
,,,,,,,57901207c9abeb0001af353e,60568611ec04488a9e9da93b,6056ac2d4f57565217066250,I am not familiar with Spanish,Midwest,NA,no,2021-03-20_21h32.56.656,empathy_intonation_perc,2020.2.10,Win32,60,,,,,,,,,,1,,,,,,,,,,,,,,,,,,,,,,,,,,,,,,,,,,,,,,,,48,ladrn,,,1,1,0.712,0,51,51,47,1,REAL,FAKE,,,,,,,,,,,,,,,,,,,,,
,,,,,,,57901207c9abeb0001af353e,60568611ec04488a9e9da93b,6056ac2d4f57565217066250,I am not familiar with Spanish,Midwest,NA,no,2021-03-20_21h32.56.656,empathy_intonation_perc,2020.2.10,Win32,60,,,,,,,,,,1,,,,,,,,,,,,,,,,,,,,,,,,,,,,,,,,,,,,,,,,83,guante,,,0,0,1.751,0,52,52,82,1,REAL,FAKE,,,,,,,,,,,,,,,,,,,,,
,,,,,,,57901207c9abeb0001af353e,60568611ec04488a9e9da93b,6056ac2d4f57565217066250,I am not familiar with Spanish,Midwest,NA,no,2021-03-20_21h32.56.656,empathy_intonation_perc,2020.2.10,Win32,60,,,,,,,,,,1,,,,,,,,,,,,,,,,,,,,,,,,,,,,,,,,,,,,,,,,3,pulmones,,,0,0,1.902,0,53,53,2,1,REAL,FAKE,,,,,,,,,,,,,,,,,,,,,
,,,,,,,57901207c9abeb0001af353e,60568611ec04488a9e9da93b,6056ac2d4f57565217066250,I am not familiar with Spanish,Midwest,NA,no,2021-03-20_21h32.56.656,empathy_intonation_perc,2020.2.10,Win32,60,,,,,,,,,,1,,,,,,,,,,,,,,,,,,,,,,,,,,,,,,,,,,,,,,,,85,lad,,,1,1,0.733,0,54,54,84,1,REAL,FAKE,,,,,,,,,,,,,,,,,,,,,
,,,,,,,57901207c9abeb0001af353e,60568611ec04488a9e9da93b,6056ac2d4f57565217066250,I am not familiar with Spanish,Midwest,NA,no,2021-03-20_21h32.56.656,empathy_intonation_perc,2020.2.10,Win32,60,,,,,,,,,,1,,,,,,,,,,,,,,,,,,,,,,,,,,,,,,,,,,,,,,,,6,tergiversar,,,0,0,0.633,0,55,55,5,1,REAL,FAKE,,,,,,,,,,,,,,,,,,,,,
,,,,,,,57901207c9abeb0001af353e,60568611ec04488a9e9da93b,6056ac2d4f57565217066250,I am not familiar with Spanish,Midwest,NA,no,2021-03-20_21h32.56.656,empathy_intonation_perc,2020.2.10,Win32,60,,,,,,,,,,0,,,,,,,,,,,,,,,,,,,,,,,,,,,,,,,,,,,,,,,,42,cadallo,,,0,1,0.916,0,56,56,41,1,REAL,FAKE,,,,,,,,,,,,,,,,,,,,,
,,,,,,,57901207c9abeb0001af353e,60568611ec04488a9e9da93b,6056ac2d4f57565217066250,I am not familiar with Spanish,Midwest,NA,no,2021-03-20_21h32.56.656,empathy_intonation_perc,2020.2.10,Win32,60,,,,,,,,,,1,,,,,,,,,,,,,,,,,,,,,,,,,,,,,,,,,,,,,,,,28,merodear,,,0,0,1.515,0,57,57,27,1,REAL,FAKE,,,,,,,,,,,,,,,,,,,,,
,,,,,,,57901207c9abeb0001af353e,60568611ec04488a9e9da93b,6056ac2d4f57565217066250,I am not familiar with Spanish,Midwest,NA,no,2021-03-20_21h32.56.656,empathy_intonation_perc,2020.2.10,Win32,60,,,,,,,,,,1,,,,,,,,,,,,,,,,,,,,,,,,,,,,,,,,,,,,,,,,15,regar,,,0,0,1.35,0,58,58,14,1,REAL,FAKE,,,,,,,,,,,,,,,,,,,,,
,,,,,,,57901207c9abeb0001af353e,60568611ec04488a9e9da93b,6056ac2d4f57565217066250,I am not familiar with Spanish,Midwest,NA,no,2021-03-20_21h32.56.656,empathy_intonation_perc,2020.2.10,Win32,60,,,,,,,,,,0,,,,,,,,,,,,,,,,,,,,,,,,,,,,,,,,,,,,,,,,30,alardio,,,0,1,1.359,0,59,59,29,1,REAL,FAKE,,,,,,,,,,,,,,,,,,,,,
,,,,,,,57901207c9abeb0001af353e,60568611ec04488a9e9da93b,6056ac2d4f57565217066250,I am not familiar with Spanish,Midwest,NA,no,2021-03-20_21h32.56.656,empathy_intonation_perc,2020.2.10,Win32,60,,,,,,,,,,0,,,,,,,,,,,,,,,,,,,,,,,,,,,,,,,,,,,,,,,,84,escuto,,,0,1,1.587,0,60,60,83,1,REAL,FAKE,,,,,,,,,,,,,,,,,,,,,
,,,,,,,57901207c9abeb0001af353e,60568611ec04488a9e9da93b,6056ac2d4f57565217066250,I am not familiar with Spanish,Midwest,NA,no,2021-03-20_21h32.56.656,empathy_intonation_perc,2020.2.10,Win32,60,,,,,,,,,,1,,,,,,,,,,,,,,,,,,,,,,,,,,,,,,,,,,,,,,,,55,nevar,,,0,0,2.018,0,61,61,54,1,REAL,FAKE,,,,,,,,,,,,,,,,,,,,,
,,,,,,,57901207c9abeb0001af353e,60568611ec04488a9e9da93b,6056ac2d4f57565217066250,I am not familiar with Spanish,Midwest,NA,no,2021-03-20_21h32.56.656,empathy_intonation_perc,2020.2.10,Win32,60,,,,,,,,,,1,,,,,,,,,,,,,,,,,,,,,,,,,,,,,,,,,,,,,,,,43,canela,,,1,1,1.037,0,62,62,42,1,REAL,FAKE,,,,,,,,,,,,,,,,,,,,,
,,,,,,,57901207c9abeb0001af353e,60568611ec04488a9e9da93b,6056ac2d4f57565217066250,I am not familiar with Spanish,Midwest,NA,no,2021-03-20_21h32.56.656,empathy_intonation_perc,2020.2.10,Win32,60,,,,,,,,,,1,,,,,,,,,,,,,,,,,,,,,,,,,,,,,,,,,,,,,,,,49,ganar,,,0,0,1.299,0,63,63,48,1,REAL,FAKE,,,,,,,,,,,,,,,,,,,,,
,,,,,,,57901207c9abeb0001af353e,60568611ec04488a9e9da93b,6056ac2d4f57565217066250,I am not familiar with Spanish,Midwest,NA,no,2021-03-20_21h32.56.656,empathy_intonation_perc,2020.2.10,Win32,60,,,,,,,,,,1,,,,,,,,,,,,,,,,,,,,,,,,,,,,,,,,,,,,,,,,36,loro,,,1,1,1.749,0,64,64,35,1,REAL,FAKE,,,,,,,,,,,,,,,,,,,,,
,,,,,,,57901207c9abeb0001af353e,60568611ec04488a9e9da93b,6056ac2d4f57565217066250,I am not familiar with Spanish,Midwest,NA,no,2021-03-20_21h32.56.656,empathy_intonation_perc,2020.2.10,Win32,60,,,,,,,,,,1,,,,,,,,,,,,,,,,,,,,,,,,,,,,,,,,,,,,,,,,60,matar,,,1,1,0.998,0,65,65,59,1,REAL,FAKE,,,,,,,,,,,,,,,,,,,,,
,,,,,,,57901207c9abeb0001af353e,60568611ec04488a9e9da93b,6056ac2d4f57565217066250,I am not familiar with Spanish,Midwest,NA,no,2021-03-20_21h32.56.656,empathy_intonation_perc,2020.2.10,Win32,60,,,,,,,,,,0,,,,,,,,,,,,,,,,,,,,,,,,,,,,,,,,,,,,,,,,74,cintro,,,1,0,0.88,0,66,66,73,1,REAL,FAKE,,,,,,,,,,,,,,,,,,,,,
,,,,,,,57901207c9abeb0001af353e,60568611ec04488a9e9da93b,6056ac2d4f57565217066250,I am not familiar with Spanish,Midwest,NA,no,2021-03-20_21h32.56.656,empathy_intonation_perc,2020.2.10,Win32,60,,,,,,,,,,1,,,,,,,,,,,,,,,,,,,,,,,,,,,,,,,,,,,,,,,,81,pozo,,,0,0,1.252,0,67,67,80,1,REAL,FAKE,,,,,,,,,,,,,,,,,,,,,
,,,,,,,57901207c9abeb0001af353e,60568611ec04488a9e9da93b,6056ac2d4f57565217066250,I am not familiar with Spanish,Midwest,NA,no,2021-03-20_21h32.56.656,empathy_intonation_perc,2020.2.10,Win32,60,,,,,,,,,,1,,,,,,,,,,,,,,,,,,,,,,,,,,,,,,,,,,,,,,,,45,jilguero,,,0,0,0.73,0,68,68,44,1,REAL,FAKE,,,,,,,,,,,,,,,,,,,,,
,,,,,,,57901207c9abeb0001af353e,60568611ec04488a9e9da93b,6056ac2d4f57565217066250,I am not familiar with Spanish,Midwest,NA,no,2021-03-20_21h32.56.656,empathy_intonation_perc,2020.2.10,Win32,60,,,,,,,,,,1,,,,,,,,,,,,,,,,,,,,,,,,,,,,,,,,,,,,,,,,77,tiburn,,,1,1,0.745,0,69,69,76,1,REAL,FAKE,,,,,,,,,,,,,,,,,,,,,
,,,,,,,57901207c9abeb0001af353e,60568611ec04488a9e9da93b,6056ac2d4f57565217066250,I am not familiar with Spanish,Midwest,NA,no,2021-03-20_21h32.56.656,empathy_intonation_perc,2020.2.10,Win32,60,,,,,,,,,,0,,,,,,,,,,,,,,,,,,,,,,,,,,,,,,,,,,,,,,,,18,arsa,,,0,1,1.085,0,70,70,17,1,REAL,FAKE,,,,,,,,,,,,,,,,,,,,,
,,,,,,,57901207c9abeb0001af353e,60568611ec04488a9e9da93b,6056ac2d4f57565217066250,I am not familiar with Spanish,Midwest,NA,no,2021-03-20_21h32.56.656,empathy_intonation_perc,2020.2.10,Win32,60,,,,,,,,,,1,,,,,,,,,,,,,,,,,,,,,,,,,,,,,,,,,,,,,,,,41,rebuscar,,,0,0,1.166,0,71,71,40,1,REAL,FAKE,,,,,,,,,,,,,,,,,,,,,
,,,,,,,57901207c9abeb0001af353e,60568611ec04488a9e9da93b,6056ac2d4f57565217066250,I am not familiar with Spanish,Midwest,NA,no,2021-03-20_21h32.56.656,empathy_intonation_perc,2020.2.10,Win32,60,,,,,,,,,,1,,,,,,,,,,,,,,,,,,,,,,,,,,,,,,,,,,,,,,,,2,pellizcar,,,0,0,1.169,0,72,72,1,1,REAL,FAKE,,,,,,,,,,,,,,,,,,,,,
,,,,,,,57901207c9abeb0001af353e,60568611ec04488a9e9da93b,6056ac2d4f57565217066250,I am not familiar with Spanish,Midwest,NA,no,2021-03-20_21h32.56.656,empathy_intonation_perc,2020.2.10,Win32,60,,,,,,,,,,0,,,,,,,,,,,,,,,,,,,,,,,,,,,,,,,,,,,,,,,,66,hacido,,,1,0,1.421,0,73,73,65,1,REAL,FAKE,,,,,,,,,,,,,,,,,,,,,
,,,,,,,57901207c9abeb0001af353e,60568611ec04488a9e9da93b,6056ac2d4f57565217066250,I am not familiar with Spanish,Midwest,NA,no,2021-03-20_21h32.56.656,empathy_intonation_perc,2020.2.10,Win32,60,,,,,,,,,,0,,,,,,,,,,,,,,,,,,,,,,,,,,,,,,,,,,,,,,,,33,pauca,,,0,1,1.026,0,74,74,32,1,REAL,FAKE,,,,,,,,,,,,,,,,,,,,,
,,,,,,,57901207c9abeb0001af353e,60568611ec04488a9e9da93b,6056ac2d4f57565217066250,I am not familiar with Spanish,Midwest,NA,no,2021-03-20_21h32.56.656,empathy_intonation_perc,2020.2.10,Win32,60,,,,,,,,,,1,,,,,,,,,,,,,,,,,,,,,,,,,,,,,,,,,,,,,,,,39,torpe,,,1,1,0.8,0,75,75,38,1,REAL,FAKE,,,,,,,,,,,,,,,,,,,,,
,,,,,,,57901207c9abeb0001af353e,60568611ec04488a9e9da93b,6056ac2d4f57565217066250,I am not familiar with Spanish,Midwest,NA,no,2021-03-20_21h32.56.656,empathy_intonation_perc,2020.2.10,Win32,60,,,,,,,,,,1,,,,,,,,,,,,,,,,,,,,,,,,,,,,,,,,,,,,,,,,54,fomentar,,,0,0,1.179,0,76,76,53,1,REAL,FAKE,,,,,,,,,,,,,,,,,,,,,
,,,,,,,57901207c9abeb0001af353e,60568611ec04488a9e9da93b,6056ac2d4f57565217066250,I am not familiar with Spanish,Midwest,NA,no,2021-03-20_21h32.56.656,empathy_intonation_perc,2020.2.10,Win32,60,,,,,,,,,,1,,,,,,,,,,,,,,,,,,,,,,,,,,,,,,,,,,,,,,,,7,psimo,,,1,1,1.051,0,77,77,6,1,REAL,FAKE,,,,,,,,,,,,,,,,,,,,,
,,,,,,,57901207c9abeb0001af353e,60568611ec04488a9e9da93b,6056ac2d4f57565217066250,I am not familiar with Spanish,Midwest,NA,no,2021-03-20_21h32.56.656,empathy_intonation_perc,2020.2.10,Win32,60,,,,,,,,,,1,,,,,,,,,,,,,,,,,,,,,,,,,,,,,,,,,,,,,,,,78,frondoso,,,1,1,2.137,0,78,78,77,1,REAL,FAKE,,,,,,,,,,,,,,,,,,,,,
,,,,,,,57901207c9abeb0001af353e,60568611ec04488a9e9da93b,6056ac2d4f57565217066250,I am not familiar with Spanish,Midwest,NA,no,2021-03-20_21h32.56.656,empathy_intonation_perc,2020.2.10,Win32,60,,,,,,,,,,0,,,,,,,,,,,,,,,,,,,,,,,,,,,,,,,,,,,,,,,,79,tropaje,,,0,1,1.365,0,79,79,78,1,REAL,FAKE,,,,,,,,,,,,,,,,,,,,,
,,,,,,,57901207c9abeb0001af353e,60568611ec04488a9e9da93b,6056ac2d4f57565217066250,I am not familiar with Spanish,Midwest,NA,no,2021-03-20_21h32.56.656,empathy_intonation_perc,2020.2.10,Win32,60,,,,,,,,,,1,,,,,,,,,,,,,,,,,,,,,,,,,,,,,,,,,,,,,,,,90,clavel,,,0,0,0.95,0,80,80,89,1,REAL,FAKE,,,,,,,,,,,,,,,,,,,,,
,,,,,,,57901207c9abeb0001af353e,60568611ec04488a9e9da93b,6056ac2d4f57565217066250,I am not familiar with Spanish,Midwest,NA,no,2021-03-20_21h32.56.656,empathy_intonation_perc,2020.2.10,Win32,60,,,,,,,,,,0,,,,,,,,,,,,,,,,,,,,,,,,,,,,,,,,,,,,,,,,10,antar,,,0,1,0.697,0,81,81,9,1,REAL,FAKE,,,,,,,,,,,,,,,,,,,,,
,,,,,,,57901207c9abeb0001af353e,60568611ec04488a9e9da93b,6056ac2d4f57565217066250,I am not familiar with Spanish,Midwest,NA,no,2021-03-20_21h32.56.656,empathy_intonation_perc,2020.2.10,Win32,60,,,,,,,,,,1,,,,,,,,,,,,,,,,,,,,,,,,,,,,,,,,,,,,,,,,44,cuchara,,,0,0,0.884,0,82,82,43,1,REAL,FAKE,,,,,,,,,,,,,,,,,,,,,
,,,,,,,57901207c9abeb0001af353e,60568611ec04488a9e9da93b,6056ac2d4f57565217066250,I am not familiar with Spanish,Midwest,NA,no,2021-03-20_21h32.56.656,empathy_intonation_perc,2020.2.10,Win32,60,,,,,,,,,,1,,,,,,,,,,,,,,,,,,,,,,,,,,,,,,,,,,,,,,,,24,ltigo,,,1,1,0.899,0,83,83,23,1,REAL,FAKE,,,,,,,,,,,,,,,,,,,,,
,,,,,,,57901207c9abeb0001af353e,60568611ec04488a9e9da93b,6056ac2d4f57565217066250,I am not familiar with Spanish,Midwest,NA,no,2021-03-20_21h32.56.656,empathy_intonation_perc,2020.2.10,Win32,60,,,,,,,,,,0,,,,,,,,,,,,,,,,,,,,,,,,,,,,,,,,,,,,,,,,50,flamida,,,0,1,0.831,0,84,84,49,1,REAL,FAKE,,,,,,,,,,,,,,,,,,,,,
,,,,,,,57901207c9abeb0001af353e,60568611ec04488a9e9da93b,6056ac2d4f57565217066250,I am not familiar with Spanish,Midwest,NA,no,2021-03-20_21h32.56.656,empathy_intonation_perc,2020.2.10,Win32,60,,,,,,,,,,0,,,,,,,,,,,,,,,,,,,,,,,,,,,,,,,,,,,,,,,,29,decar,,,1,0,1.515,0,85,85,28,1,REAL,FAKE,,,,,,,,,,,,,,,,,,,,,
,,,,,,,57901207c9abeb0001af353e,60568611ec04488a9e9da93b,6056ac2d4f57565217066250,I am not familiar with Spanish,Midwest,NA,no,2021-03-20_21h32.56.656,empathy_intonation_perc,2020.2.10,Win32,60,,,,,,,,,,1,,,,,,,,,,,,,,,,,,,,,,,,,,,,,,,,,,,,,,,,64,orgulloso,,,0,0,0.716,0,86,86,63,1,REAL,FAKE,,,,,,,,,,,,,,,,,,,,,
,,,,,,,57901207c9abeb0001af353e,60568611ec04488a9e9da93b,6056ac2d4f57565217066250,I am not familiar with Spanish,Midwest,NA,no,2021-03-20_21h32.56.656,empathy_intonation_perc,2020.2.10,Win32,60,,,,,,,,,,1,,,,,,,,,,,,,,,,,,,,,,,,,,,,,,,,,,,,,,,,20,vido,,,1,1,0.949,0,87,87,19,1,REAL,FAKE,,,,,,,,,,,,,,,,,,,,,
,,,,,,,57901207c9abeb0001af353e,60568611ec04488a9e9da93b,6056ac2d4f57565217066250,I am not familiar with Spanish,Midwest,NA,no,2021-03-20_21h32.56.656,empathy_intonation_perc,2020.2.10,Win32,60,,,,,,,,,,1,,,,,,,,,,,,,,,,,,,,,,,,,,,,,,,,,,,,,,,,67,cabello,,,0,0,0.878,0,88,88,66,1,REAL,FAKE,,,,,,,,,,,,,,,,,,,,,
,,,,,,,57901207c9abeb0001af353e,60568611ec04488a9e9da93b,6056ac2d4f57565217066250,I am not familiar with Spanish,Midwest,NA,no,2021-03-20_21h32.56.656,empathy_intonation_perc,2020.2.10,Win32,60,,,,,,,,,,0,,,,,,,,,,,,,,,,,,,,,,,,,,,,,,,,,,,,,,,,27,acutacin,,,1,0,1.768,0,89,89,26,1,REAL,FAKE,,,,,,,,,,,,,,,,,,,,,
,,,,,,,57901207c9abeb0001af353e,60568611ec04488a9e9da93b,6056ac2d4f57565217066250,I am not familiar with Spanish,Midwest,NA,no,2021-03-20_21h32.56.656,empathy_intonation_perc,2020.2.10,Win32,60,,,,,,,,,,,,,,,,,,,,,,,,,,,,,,,,,,,,,,,,,,,,,,,,,,,,,,,,,,,,,,,,4,1,4.141,1,0,0,0,0,0,1,,,,,,,,,,,
,,,,,,,57901207c9abeb0001af353e,60568611ec04488a9e9da93b,6056ac2d4f57565217066250,I am not familiar with Spanish,Midwest,NA,no,2021-03-20_21h32.56.656,empathy_intonation_perc,2020.2.10,Win32,60,,,,,,,,,,,,,,,,,,,,1,,,,,,,,,,,,,,,,,,,,,,,,,,,,,,,,,,,,,,,,,,,,,,,,,,,,,,1,0,0,0,0,1,I can easily tell if someone else wants to enter a conversation.,1,0,1,0
,,,,,,,57901207c9abeb0001af353e,60568611ec04488a9e9da93b,6056ac2d4f57565217066250,I am not familiar with Spanish,Midwest,NA,no,2021-03-20_21h32.56.656,empathy_intonation_perc,2020.2.10,Win32,60,,,,,,,,,,,,,,,,,,,,2,,,,,,,,,,,,,,,,,,,,,,,,,,,,,,,,,,,,,,,,,,,,,,,,,,,,,,2,0,1,1,1,1,I prefer animals to humans.,0,1,0,0
