instructions_2afc_loop.thisRepN,instructions_2afc_loop.thisTrialN,instructions_2afc_loop.thisN,instructions_2afc_loop.thisIndex,instructions_2afc_loop.ran,instructions_text,continue_text,participant,study_id,session,I am most familiar with Spanish from...*,What part of the US are you from?*,At what age did you begin learning Spanish?*,Are you proficient in any languages other than English/Spanish?*,date,expName,psychopyVersion,OS,frameRate,key_resp_2afc_practice.keys,key_resp_2afc_practice.corr,key_resp_2afc_practice.rt,trials_2afc_practice_loop.thisRepN,trials_2afc_practice_loop.thisTrialN,trials_2afc_practice_loop.thisN,trials_2afc_practice_loop.thisIndex,trials_2afc_practice_loop.ran,path,correct_response,the_col,key_resp_2afc_trial.keys,key_resp_2afc_trial.corr,key_resp_2afc_trial.rt,trials_2afc_loop.thisRepN,trials_2afc_loop.thisTrialN,trials_2afc_loop.thisN,trials_2afc_loop.thisIndex,trials_2afc_loop.ran,item_num,andalusian,argentine,castilian,chilean,cuban,mexican,peruvian,puertorican,key_resp_ac1.keys,key_resp_ac1.corr,key_resp_ac1.rt,ac1_loop.thisRepN,ac1_loop.thisTrialN,ac1_loop.thisN,ac1_loop.thisIndex,ac1_loop.ran,instructions_lextale_loop.thisRepN,instructions_lextale_loop.thisTrialN,instructions_lextale_loop.thisN,instructions_lextale_loop.thisIndex,instructions_lextale_loop.ran,key_resp_lextale_practice.keys,key_resp_lextale_practice.corr,key_resp_lextale_practice.rt,trials_lextale_practice_loop.thisRepN,trials_lextale_practice_loop.thisTrialN,trials_lextale_practice_loop.thisN,trials_lextale_practice_loop.thisIndex,trials_lextale_practice_loop.ran,stim,word,prac_button_real,prac_button_false,key_resp_lextale_trial.keys,key_resp_lextale_trial.corr,key_resp_lextale_trial.rt,trials_lextale_loop.thisRepN,trials_lextale_loop.thisTrialN,trials_lextale_loop.thisN,trials_lextale_loop.thisIndex,trials_lextale_loop.ran,button_real,button_false,key_resp_ac2.keys,key_resp_ac2.corr,key_resp_ac2.rt,check_pass,check_fails,ac2_loop.thisRepN,ac2_loop.thisTrialN,ac2_loop.thisN,ac2_loop.thisIndex,ac2_loop.ran,slider_eq_trial.response,trials_eq_loop.thisRepN,trials_eq_loop.thisTrialN,trials_eq_loop.thisN,trials_eq_loop.thisIndex,trials_eq_loop.ran,item,is_test_item,is_distractor,is_agree_score,is_disagree_score
0,0,0,0,1,"In the following task you are going to hear a series of utterances. 

  You will decide if the utterances sound like questions or not using your keyboard.",(press the spacebar to continue),5844812dc5bc3a0001a4d553,605b45a4d25f287719a41696,605fb6d9b3d3a7719bc0b1a2,Mexico,East coast,13 or older,no,2021-03-27_17h51.39.795,empathy_intonation_perc,2020.2.10,MacIntel,60,,,,,,,,,,,,,,,,,,,,,,,,,,,,,,,,,,,,,,,,,,,,,,,,,,,,,,,,,,,,,,,,,,,,,,,,,,,,,,,,,,,,
0,1,1,1,1,"If you believe the utterance is a question, type '1' (for 'yes') and if you do not 
  believe it is a question type '0' (for 'no').

  Let's practice a bit...",(press the spacebar to continue),5844812dc5bc3a0001a4d553,605b45a4d25f287719a41696,605fb6d9b3d3a7719bc0b1a2,Mexico,East coast,13 or older,no,2021-03-27_17h51.39.795,empathy_intonation_perc,2020.2.10,MacIntel,60,,,,,,,,,,,,,,,,,,,,,,,,,,,,,,,,,,,,,,,,,,,,,,,,,,,,,,,,,,,,,,,,,,,,,,,,,,,,,,,,,,,,
,,,,,,,5844812dc5bc3a0001a4d553,605b45a4d25f287719a41696,605fb6d9b3d3a7719bc0b1a2,Mexico,East coast,13 or older,no,2021-03-27_17h51.39.795,empathy_intonation_perc,2020.2.10,MacIntel,60,0,0,6.859135,0,0,0,0,1,./stim/wavs/castilian_question_filler_Mi-esposo-conoce-al-chico.wav,1,,,,,,,,,,,,,,,,,,,,,,,,,,,,,,,,,,,,,,,,,,,,,,,,,,,,,,,,,,,,,,,,,,,,,,,,,,
,,,,,,,5844812dc5bc3a0001a4d553,605b45a4d25f287719a41696,605fb6d9b3d3a7719bc0b1a2,Mexico,East coast,13 or older,no,2021-03-27_17h51.39.795,empathy_intonation_perc,2020.2.10,MacIntel,60,1,1,1.44221,0,1,1,1,1,./stim/wavs/argentine_question_filler_Mi-vecino-habla-mucho.wav,1,,,,,,,,,,,,,,,,,,,,,,,,,,,,,,,,,,,,,,,,,,,,,,,,,,,,,,,,,,,,,,,,,,,,,,,,,,
,,,,,,,5844812dc5bc3a0001a4d553,605b45a4d25f287719a41696,605fb6d9b3d3a7719bc0b1a2,Mexico,East coast,13 or older,no,2021-03-27_17h51.39.795,empathy_intonation_perc,2020.2.10,MacIntel,60,1,0,2.144325,0,2,2,7,1,./stim/wavs/puertorican_statement_filler_La-nina-pinta-con-su-amiga.wav,0,,,,,,,,,,,,,,,,,,,,,,,,,,,,,,,,,,,,,,,,,,,,,,,,,,,,,,,,,,,,,,,,,,,,,,,,,,
,,,,,,,5844812dc5bc3a0001a4d553,605b45a4d25f287719a41696,605fb6d9b3d3a7719bc0b1a2,Mexico,East coast,13 or older,no,2021-03-27_17h51.39.795,empathy_intonation_perc,2020.2.10,MacIntel,60,0,0,1.929705,0,3,3,2,1,./stim/wavs/chilean_question_filler_Mi-padre-cantaba-bien.wav,1,,,,,,,,,,,,,,,,,,,,,,,,,,,,,,,,,,,,,,,,,,,,,,,,,,,,,,,,,,,,,,,,,,,,,,,,,,
,,,,,,,5844812dc5bc3a0001a4d553,605b45a4d25f287719a41696,605fb6d9b3d3a7719bc0b1a2,Mexico,East coast,13 or older,no,2021-03-27_17h51.39.795,empathy_intonation_perc,2020.2.10,MacIntel,60,1,1,2.007935,0,4,4,3,1,./stim/wavs/mexican_question_filler_Felipe-no-tiene-contrasena.wav,1,,,,,,,,,,,,,,,,,,,,,,,,,,,,,,,,,,,,,,,,,,,,,,,,,,,,,,,,,,,,,,,,,,,,,,,,,,
,,,,,,,5844812dc5bc3a0001a4d553,605b45a4d25f287719a41696,605fb6d9b3d3a7719bc0b1a2,Mexico,East coast,13 or older,no,2021-03-27_17h51.39.795,empathy_intonation_perc,2020.2.10,MacIntel,60,0,1,1.79212,0,5,5,4,1,./stim/wavs/cuban_statement_filler_Cocinabas-por-la-noche.wav,0,,,,,,,,,,,,,,,,,,,,,,,,,,,,,,,,,,,,,,,,,,,,,,,,,,,,,,,,,,,,,,,,,,,,,,,,,,
,,,,,,,5844812dc5bc3a0001a4d553,605b45a4d25f287719a41696,605fb6d9b3d3a7719bc0b1a2,Mexico,East coast,13 or older,no,2021-03-27_17h51.39.795,empathy_intonation_perc,2020.2.10,MacIntel,60,0,1,1.84068,0,6,6,5,1,./stim/wavs/andalusian_statement_filler_Alberto-nunca-se-afeita.wav,0,,,,,,,,,,,,,,,,,,,,,,,,,,,,,,,,,,,,,,,,,,,,,,,,,,,,,,,,,,,,,,,,,,,,,,,,,,
,,,,,,,5844812dc5bc3a0001a4d553,605b45a4d25f287719a41696,605fb6d9b3d3a7719bc0b1a2,Mexico,East coast,13 or older,no,2021-03-27_17h51.39.795,empathy_intonation_perc,2020.2.10,MacIntel,60,0,1,2.61309,0,7,7,6,1,./stim/wavs/peruvian_statement_filler_El-nino-habla-con-su-madre.wav,0,,,,,,,,,,,,,,,,,,,,,,,,,,,,,,,,,,,,,,,,,,,,,,,,,,,,,,,,,,,,,,,,,,,,,,,,,,
,,,,,,,5844812dc5bc3a0001a4d553,605b45a4d25f287719a41696,605fb6d9b3d3a7719bc0b1a2,Mexico,East coast,13 or older,no,2021-03-27_17h51.39.795,empathy_intonation_perc,2020.2.10,MacIntel,60,,,,,,,,,,0,castilian,0,1,1.72361,0,0,0,3,1,4,./stim/wavs/andalusian_match_declarative-broad-focus_Emilio-ama-la-marcha.wav,./stim/wavs/argentine_match_declarative-broad-focus_Emilio-ama-la-marcha.wav,./stim/wavs/castilian_match_declarative-broad-focus_Emilio-ama-la-marcha.wav,./stim/wavs/chilean_match_declarative-broad-focus_Emilio-ama-la-marcha.wav,./stim/wavs/cuban_match_declarative-broad-focus_Emilio-ama-la-marcha.wav,./stim/wavs/mexican_match_declarative-broad-focus_Emilio-ama-la-marcha.wav,./stim/wavs/peruvian_match_declarative-broad-focus_Emilio-ama-la-marcha.wav,./stim/wavs/puertorican_match_declarative-broad-focus_Emilio-ama-la-marcha.wav,,,,,,,,,,,,,,,,,,,,,,,,,,,,,,,,,,,,,,,,,,,,,,,,,,,,,,,,
,,,,,,,5844812dc5bc3a0001a4d553,605b45a4d25f287719a41696,605fb6d9b3d3a7719bc0b1a2,Mexico,East coast,13 or older,no,2021-03-27_17h51.39.795,empathy_intonation_perc,2020.2.10,MacIntel,60,,,,,,,,,,0,argentine,0,1,1.623315,0,1,1,4,1,5,./stim/wavs/andalusian_match_declarative-broad-focus_Manuela-vende-el-carro.wav,./stim/wavs/argentine_match_declarative-broad-focus_Manuela-vende-el-carro.wav,./stim/wavs/castilian_match_declarative-broad-focus_Manuela-vende-el-carro.wav,./stim/wavs/chilean_match_declarative-broad-focus_Manuela-vende-el-carro.wav,./stim/wavs/cuban_match_declarative-broad-focus_Manuela-vende-el-carro.wav,./stim/wavs/mexican_match_declarative-broad-focus_Manuela-vende-el-carro.wav,./stim/wavs/peruvian_match_declarative-broad-focus_Manuela-vende-el-carro.wav,./stim/wavs/puertorican_match_declarative-broad-focus_Manuela-vende-el-carro.wav,,,,,,,,,,,,,,,,,,,,,,,,,,,,,,,,,,,,,,,,,,,,,,,,,,,,,,,,
,,,,,,,5844812dc5bc3a0001a4d553,605b45a4d25f287719a41696,605fb6d9b3d3a7719bc0b1a2,Mexico,East coast,13 or older,no,2021-03-27_17h51.39.795,empathy_intonation_perc,2020.2.10,MacIntel,60,,,,,,,,,,0,peruvian,0,1,1.573455,0,2,2,8,1,9,./stim/wavs/andalusian_match_declarative-narrow-focus_Ana-lleva-el-abrigo.wav,./stim/wavs/argentine_match_declarative-narrow-focus_Ana-lleva-el-abrigo.wav,./stim/wavs/castilian_match_declarative-narrow-focus_Ana-lleva-el-abrigo.wav,./stim/wavs/chilean_match_declarative-narrow-focus_Ana-lleva-el-abrigo.wav,./stim/wavs/cuban_match_declarative-narrow-focus_Ana-lleva-el-abrigo.wav,./stim/wavs/mexican_match_declarative-narrow-focus_Ana-lleva-el-abrigo.wav,./stim/wavs/peruvian_match_declarative-narrow-focus_Ana-lleva-el-abrigo.wav,./stim/wavs/puertorican_match_declarative-narrow-focus_Ana-lleva-el-abrigo.wav,,,,,,,,,,,,,,,,,,,,,,,,,,,,,,,,,,,,,,,,,,,,,,,,,,,,,,,,
,,,,,,,5844812dc5bc3a0001a4d553,605b45a4d25f287719a41696,605fb6d9b3d3a7719bc0b1a2,Mexico,East coast,13 or older,no,2021-03-27_17h51.39.795,empathy_intonation_perc,2020.2.10,MacIntel,60,,,,,,,,,,0,argentine,0,1,1.64409,0,3,3,35,1,36,./stim/wavs/andalusian_mismatch_declarative-broad-focus_La-maestra-vive-en-Paris.wav,./stim/wavs/argentine_mismatch_declarative-broad-focus_La-maestra-vive-en-Paris.wav,./stim/wavs/castilian_mismatch_declarative-broad-focus_La-maestra-vive-en-Paris.wav,./stim/wavs/chilean_mismatch_declarative-broad-focus_La-maestra-vive-en-Paris.wav,./stim/wavs/cuban_mismatch_declarative-broad-focus_La-maestra-vive-en-Paris.wav,./stim/wavs/mexican_mismatch_declarative-broad-focus_La-maestra-vive-en-Paris.wav,./stim/wavs/peruvian_mismatch_declarative-broad-focus_La-maestra-vive-en-Paris.wav,./stim/wavs/puertorican_mismatch_declarative-broad-focus_La-maestra-vive-en-Paris.wav,,,,,,,,,,,,,,,,,,,,,,,,,,,,,,,,,,,,,,,,,,,,,,,,,,,,,,,,
,,,,,,,5844812dc5bc3a0001a4d553,605b45a4d25f287719a41696,605fb6d9b3d3a7719bc0b1a2,Mexico,East coast,13 or older,no,2021-03-27_17h51.39.795,empathy_intonation_perc,2020.2.10,MacIntel,60,,,,,,,,,,1,puertorican,0,0,1.622045,0,4,4,24,1,25,./stim/wavs/andalusian_match_interrogative-total-yn_Ana-lleva-el-abrigo.wav,./stim/wavs/argentine_match_interrogative-total-yn_Ana-lleva-el-abrigo.wav,./stim/wavs/castilian_match_interrogative-total-yn_Ana-lleva-el-abrigo.wav,./stim/wavs/chilean_match_interrogative-total-yn_Ana-lleva-el-abrigo.wav,./stim/wavs/cuban_match_interrogative-total-yn_Ana-lleva-el-abrigo.wav,./stim/wavs/mexican_match_interrogative-total-yn_Ana-lleva-el-abrigo.wav,./stim/wavs/peruvian_match_interrogative-total-yn_Ana-lleva-el-abrigo.wav,./stim/wavs/puertorican_match_interrogative-total-yn_Ana-lleva-el-abrigo.wav,,,,,,,,,,,,,,,,,,,,,,,,,,,,,,,,,,,,,,,,,,,,,,,,,,,,,,,,
,,,,,,,5844812dc5bc3a0001a4d553,605b45a4d25f287719a41696,605fb6d9b3d3a7719bc0b1a2,Mexico,East coast,13 or older,no,2021-03-27_17h51.39.795,empathy_intonation_perc,2020.2.10,MacIntel,60,,,,,,,,,,1,argentine,1,1,1.304035,0,5,5,20,1,21,./stim/wavs/andalusian_match_interrogative-partial-wh_Por-que-abre-el-regalo.wav,./stim/wavs/argentine_match_interrogative-partial-wh_Por-que-abre-el-regalo.wav,./stim/wavs/castilian_match_interrogative-partial-wh_Por-que-abre-el-regalo.wav,./stim/wavs/chilean_match_interrogative-partial-wh_Por-que-abre-el-regalo.wav,./stim/wavs/cuban_match_interrogative-partial-wh_Por-que-abre-el-regalo.wav,./stim/wavs/mexican_match_interrogative-partial-wh_Por-que-abre-el-regalo.wav,./stim/wavs/peruvian_match_interrogative-partial-wh_Por-que-abre-el-regalo.wav,./stim/wavs/puertorican_match_interrogative-partial-wh_Por-que-abre-el-regalo.wav,,,,,,,,,,,,,,,,,,,,,,,,,,,,,,,,,,,,,,,,,,,,,,,,,,,,,,,,
,,,,,,,5844812dc5bc3a0001a4d553,605b45a4d25f287719a41696,605fb6d9b3d3a7719bc0b1a2,Mexico,East coast,13 or older,no,2021-03-27_17h51.39.795,empathy_intonation_perc,2020.2.10,MacIntel,60,,,,,,,,,,1,mexican,1,1,1.505745,0,6,6,31,1,32,./stim/wavs/andalusian_match_interrogative-total-yn_Marta-abre-el-regalo.wav,./stim/wavs/argentine_match_interrogative-total-yn_Marta-abre-el-regalo.wav,./stim/wavs/castilian_match_interrogative-total-yn_Marta-abre-el-regalo.wav,./stim/wavs/chilean_match_interrogative-total-yn_Marta-abre-el-regalo.wav,./stim/wavs/cuban_match_interrogative-total-yn_Marta-abre-el-regalo.wav,./stim/wavs/mexican_match_interrogative-total-yn_Marta-abre-el-regalo.wav,./stim/wavs/peruvian_match_interrogative-total-yn_Marta-abre-el-regalo.wav,./stim/wavs/puertorican_match_interrogative-total-yn_Marta-abre-el-regalo.wav,,,,,,,,,,,,,,,,,,,,,,,,,,,,,,,,,,,,,,,,,,,,,,,,,,,,,,,,
,,,,,,,5844812dc5bc3a0001a4d553,605b45a4d25f287719a41696,605fb6d9b3d3a7719bc0b1a2,Mexico,East coast,13 or older,no,2021-03-27_17h51.39.795,empathy_intonation_perc,2020.2.10,MacIntel,60,,,,,,,,,,1,castilian,1,1,1.54296,0,7,7,49,1,50,./stim/wavs/andalusian_mismatch_interrogative-partial-wh_Cuando-lavaba-el-plato.wav,./stim/wavs/argentine_mismatch_interrogative-partial-wh_Cuando-lavaba-el-plato.wav,./stim/wavs/castilian_mismatch_interrogative-partial-wh_Cuando-lavaba-el-plato.wav,./stim/wavs/chilean_mismatch_interrogative-partial-wh_Cuando-lavaba-el-plato.wav,./stim/wavs/cuban_mismatch_interrogative-partial-wh_Cuando-lavaba-el-plato.wav,./stim/wavs/mexican_mismatch_interrogative-partial-wh_Cuando-lavaba-el-plato.wav,./stim/wavs/peruvian_mismatch_interrogative-partial-wh_Cuando-lavaba-el-plato.wav,./stim/wavs/puertorican_mismatch_interrogative-partial-wh_Cuando-lavaba-el-plato.wav,,,,,,,,,,,,,,,,,,,,,,,,,,,,,,,,,,,,,,,,,,,,,,,,,,,,,,,,
,,,,,,,5844812dc5bc3a0001a4d553,605b45a4d25f287719a41696,605fb6d9b3d3a7719bc0b1a2,Mexico,East coast,13 or older,no,2021-03-27_17h51.39.795,empathy_intonation_perc,2020.2.10,MacIntel,60,,,,,,,,,,0,cuban,0,1,1.355225,0,8,8,32,1,33,./stim/wavs/andalusian_mismatch_declarative-broad-focus_El-bebe-comia-muy-bien.wav,./stim/wavs/argentine_mismatch_declarative-broad-focus_El-bebe-comia-muy-bien.wav,./stim/wavs/castilian_mismatch_declarative-broad-focus_El-bebe-comia-muy-bien.wav,./stim/wavs/chilean_mismatch_declarative-broad-focus_El-bebe-comia-muy-bien.wav,./stim/wavs/cuban_mismatch_declarative-broad-focus_El-bebe-comia-muy-bien.wav,./stim/wavs/mexican_mismatch_declarative-broad-focus_El-bebe-comia-muy-bien.wav,./stim/wavs/peruvian_mismatch_declarative-broad-focus_El-bebe-comia-muy-bien.wav,./stim/wavs/puertorican_mismatch_declarative-broad-focus_El-bebe-comia-muy-bien.wav,,,,,,,,,,,,,,,,,,,,,,,,,,,,,,,,,,,,,,,,,,,,,,,,,,,,,,,,
,,,,,,,5844812dc5bc3a0001a4d553,605b45a4d25f287719a41696,605fb6d9b3d3a7719bc0b1a2,Mexico,East coast,13 or older,no,2021-03-27_17h51.39.795,empathy_intonation_perc,2020.2.10,MacIntel,60,,,,,,,,,,0,argentine,0,1,1.49233,0,9,9,14,1,15,./stim/wavs/andalusian_match_declarative-narrow-focus_Mariano-habla-del-tiempo.wav,./stim/wavs/argentine_match_declarative-narrow-focus_Mariano-habla-del-tiempo.wav,./stim/wavs/castilian_match_declarative-narrow-focus_Mariano-habla-del-tiempo.wav,./stim/wavs/chilean_match_declarative-narrow-focus_Mariano-habla-del-tiempo.wav,./stim/wavs/cuban_match_declarative-narrow-focus_Mariano-habla-del-tiempo.wav,./stim/wavs/mexican_match_declarative-narrow-focus_Mariano-habla-del-tiempo.wav,./stim/wavs/peruvian_match_declarative-narrow-focus_Mariano-habla-del-tiempo.wav,./stim/wavs/puertorican_match_declarative-narrow-focus_Mariano-habla-del-tiempo.wav,,,,,,,,,,,,,,,,,,,,,,,,,,,,,,,,,,,,,,,,,,,,,,,,,,,,,,,,
,,,,,,,5844812dc5bc3a0001a4d553,605b45a4d25f287719a41696,605fb6d9b3d3a7719bc0b1a2,Mexico,East coast,13 or older,no,2021-03-27_17h51.39.795,empathy_intonation_perc,2020.2.10,MacIntel,60,,,,,,,,,,0,argentine,0,1,1.42652,0,10,10,15,1,16,./stim/wavs/andalusian_match_declarative-narrow-focus_Marta-abre-el-regalo.wav,./stim/wavs/argentine_match_declarative-narrow-focus_Marta-abre-el-regalo.wav,./stim/wavs/castilian_match_declarative-narrow-focus_Marta-abre-el-regalo.wav,./stim/wavs/chilean_match_declarative-narrow-focus_Marta-abre-el-regalo.wav,./stim/wavs/cuban_match_declarative-narrow-focus_Marta-abre-el-regalo.wav,./stim/wavs/mexican_match_declarative-narrow-focus_Marta-abre-el-regalo.wav,./stim/wavs/peruvian_match_declarative-narrow-focus_Marta-abre-el-regalo.wav,./stim/wavs/puertorican_match_declarative-narrow-focus_Marta-abre-el-regalo.wav,,,,,,,,,,,,,,,,,,,,,,,,,,,,,,,,,,,,,,,,,,,,,,,,,,,,,,,,
,,,,,,,5844812dc5bc3a0001a4d553,605b45a4d25f287719a41696,605fb6d9b3d3a7719bc0b1a2,Mexico,East coast,13 or older,no,2021-03-27_17h51.39.795,empathy_intonation_perc,2020.2.10,MacIntel,60,,,,,,,,,,0,peruvian,0,1,1.69192,0,11,11,12,1,13,./stim/wavs/andalusian_match_declarative-narrow-focus_Manuela-vende-el-carro.wav,./stim/wavs/argentine_match_declarative-narrow-focus_Manuela-vende-el-carro.wav,./stim/wavs/castilian_match_declarative-narrow-focus_Manuela-vende-el-carro.wav,./stim/wavs/chilean_match_declarative-narrow-focus_Manuela-vende-el-carro.wav,./stim/wavs/cuban_match_declarative-narrow-focus_Manuela-vende-el-carro.wav,./stim/wavs/mexican_match_declarative-narrow-focus_Manuela-vende-el-carro.wav,./stim/wavs/peruvian_match_declarative-narrow-focus_Manuela-vende-el-carro.wav,./stim/wavs/puertorican_match_declarative-narrow-focus_Manuela-vende-el-carro.wav,,,,,,,,,,,,,,,,,,,,,,,,,,,,,,,,,,,,,,,,,,,,,,,,,,,,,,,,
,,,,,,,5844812dc5bc3a0001a4d553,605b45a4d25f287719a41696,605fb6d9b3d3a7719bc0b1a2,Mexico,East coast,13 or older,no,2021-03-27_17h51.39.795,empathy_intonation_perc,2020.2.10,MacIntel,60,,,,,,,,,,0,mexican,0,1,1.69238,0,12,12,40,1,41,./stim/wavs/andalusian_mismatch_declarative-narrow-focus_El-bebe-comia-muy-bien.wav,./stim/wavs/argentine_mismatch_declarative-narrow-focus_El-bebe-comia-muy-bien.wav,./stim/wavs/castilian_mismatch_declarative-narrow-focus_El-bebe-comia-muy-bien.wav,./stim/wavs/chilean_mismatch_declarative-narrow-focus_El-bebe-comia-muy-bien.wav,./stim/wavs/cuban_mismatch_declarative-narrow-focus_El-bebe-comia-muy-bien.wav,./stim/wavs/mexican_mismatch_declarative-narrow-focus_El-bebe-comia-muy-bien.wav,./stim/wavs/peruvian_mismatch_declarative-narrow-focus_El-bebe-comia-muy-bien.wav,./stim/wavs/puertorican_mismatch_declarative-narrow-focus_El-bebe-comia-muy-bien.wav,,,,,,,,,,,,,,,,,,,,,,,,,,,,,,,,,,,,,,,,,,,,,,,,,,,,,,,,
,,,,,,,5844812dc5bc3a0001a4d553,605b45a4d25f287719a41696,605fb6d9b3d3a7719bc0b1a2,Mexico,East coast,13 or older,no,2021-03-27_17h51.39.795,empathy_intonation_perc,2020.2.10,MacIntel,60,,,,,,,,,,0,puertorican,0,1,1.639655,0,13,13,5,1,6,./stim/wavs/andalusian_match_declarative-broad-focus_Maria-bebe-el-vino.wav,./stim/wavs/argentine_match_declarative-broad-focus_Maria-bebe-el-vino.wav,./stim/wavs/castilian_match_declarative-broad-focus_Maria-bebe-el-vino.wav,./stim/wavs/chilean_match_declarative-broad-focus_Maria-bebe-el-vino.wav,./stim/wavs/cuban_match_declarative-broad-focus_Maria-bebe-el-vino.wav,./stim/wavs/mexican_match_declarative-broad-focus_Maria-bebe-el-vino.wav,./stim/wavs/peruvian_match_declarative-broad-focus_Maria-bebe-el-vino.wav,./stim/wavs/puertorican_match_declarative-broad-focus_Maria-bebe-el-vino.wav,,,,,,,,,,,,,,,,,,,,,,,,,,,,,,,,,,,,,,,,,,,,,,,,,,,,,,,,
,,,,,,,5844812dc5bc3a0001a4d553,605b45a4d25f287719a41696,605fb6d9b3d3a7719bc0b1a2,Mexico,East coast,13 or older,no,2021-03-27_17h51.39.795,empathy_intonation_perc,2020.2.10,MacIntel,60,,,,,,,,,,0,castilian,0,1,1.73126,0,14,14,47,1,48,./stim/wavs/andalusian_mismatch_declarative-narrow-focus_Mi-tia-odia-la-lluvia.wav,./stim/wavs/argentine_mismatch_declarative-narrow-focus_Mi-tia-odia-la-lluvia.wav,./stim/wavs/castilian_mismatch_declarative-narrow-focus_Mi-tia-odia-la-lluvia.wav,./stim/wavs/chilean_mismatch_declarative-narrow-focus_Mi-tia-odia-la-lluvia.wav,./stim/wavs/cuban_mismatch_declarative-narrow-focus_Mi-tia-odia-la-lluvia.wav,./stim/wavs/mexican_mismatch_declarative-narrow-focus_Mi-tia-odia-la-lluvia.wav,./stim/wavs/peruvian_mismatch_declarative-narrow-focus_Mi-tia-odia-la-lluvia.wav,./stim/wavs/puertorican_mismatch_declarative-narrow-focus_Mi-tia-odia-la-lluvia.wav,,,,,,,,,,,,,,,,,,,,,,,,,,,,,,,,,,,,,,,,,,,,,,,,,,,,,,,,
,,,,,,,5844812dc5bc3a0001a4d553,605b45a4d25f287719a41696,605fb6d9b3d3a7719bc0b1a2,Mexico,East coast,13 or older,no,2021-03-27_17h51.39.795,empathy_intonation_perc,2020.2.10,MacIntel,60,,,,,,,,,,1,andalusian,0,0,1.5895,0,15,15,53,1,54,./stim/wavs/andalusian_mismatch_interrogative-partial-wh_Por-que-oia-el-rio.wav,./stim/wavs/argentine_mismatch_interrogative-partial-wh_Por-que-oia-el-rio.wav,./stim/wavs/castilian_mismatch_interrogative-partial-wh_Por-que-oia-el-rio.wav,./stim/wavs/chilean_mismatch_interrogative-partial-wh_Por-que-oia-el-rio.wav,./stim/wavs/cuban_mismatch_interrogative-partial-wh_Por-que-oia-el-rio.wav,./stim/wavs/mexican_mismatch_interrogative-partial-wh_Por-que-oia-el-rio.wav,./stim/wavs/peruvian_mismatch_interrogative-partial-wh_Por-que-oia-el-rio.wav,./stim/wavs/puertorican_mismatch_interrogative-partial-wh_Por-que-oia-el-rio.wav,,,,,,,,,,,,,,,,,,,,,,,,,,,,,,,,,,,,,,,,,,,,,,,,,,,,,,,,
,,,,,,,5844812dc5bc3a0001a4d553,605b45a4d25f287719a41696,605fb6d9b3d3a7719bc0b1a2,Mexico,East coast,13 or older,no,2021-03-27_17h51.39.795,empathy_intonation_perc,2020.2.10,MacIntel,60,,,,,,,,,,1,chilean,0,0,1.74028,0,16,16,62,1,63,./stim/wavs/andalusian_mismatch_interrogative-total-yn_Mi-novio-viene-del-lago.wav,./stim/wavs/argentine_mismatch_interrogative-total-yn_Mi-novio-viene-del-lago.wav,./stim/wavs/castilian_mismatch_interrogative-total-yn_Mi-novio-viene-del-lago.wav,./stim/wavs/chilean_mismatch_interrogative-total-yn_Mi-novio-viene-del-lago.wav,./stim/wavs/cuban_mismatch_interrogative-total-yn_Mi-novio-viene-del-lago.wav,./stim/wavs/mexican_mismatch_interrogative-total-yn_Mi-novio-viene-del-lago.wav,./stim/wavs/peruvian_mismatch_interrogative-total-yn_Mi-novio-viene-del-lago.wav,./stim/wavs/puertorican_mismatch_interrogative-total-yn_Mi-novio-viene-del-lago.wav,,,,,,,,,,,,,,,,,,,,,,,,,,,,,,,,,,,,,,,,,,,,,,,,,,,,,,,,
,,,,,,,5844812dc5bc3a0001a4d553,605b45a4d25f287719a41696,605fb6d9b3d3a7719bc0b1a2,Mexico,East coast,13 or older,no,2021-03-27_17h51.39.795,empathy_intonation_perc,2020.2.10,MacIntel,60,,,,,,,,,,1,mexican,1,1,1.355735,0,17,17,54,1,55,./stim/wavs/andalusian_mismatch_interrogative-partial-wh_Por-que-venia-del-lago.wav,./stim/wavs/argentine_mismatch_interrogative-partial-wh_Por-que-venia-del-lago.wav,./stim/wavs/castilian_mismatch_interrogative-partial-wh_Por-que-venia-del-lago.wav,./stim/wavs/chilean_mismatch_interrogative-partial-wh_Por-que-venia-del-lago.wav,./stim/wavs/cuban_mismatch_interrogative-partial-wh_Por-que-venia-del-lago.wav,./stim/wavs/mexican_mismatch_interrogative-partial-wh_Por-que-venia-del-lago.wav,./stim/wavs/peruvian_mismatch_interrogative-partial-wh_Por-que-venia-del-lago.wav,./stim/wavs/puertorican_mismatch_interrogative-partial-wh_Por-que-venia-del-lago.wav,,,,,,,,,,,,,,,,,,,,,,,,,,,,,,,,,,,,,,,,,,,,,,,,,,,,,,,,
,,,,,,,5844812dc5bc3a0001a4d553,605b45a4d25f287719a41696,605fb6d9b3d3a7719bc0b1a2,Mexico,East coast,13 or older,no,2021-03-27_17h51.39.795,empathy_intonation_perc,2020.2.10,MacIntel,60,,,,,,,,,,1,puertorican,1,1,1.092855,0,18,18,16,1,17,./stim/wavs/andalusian_match_interrogative-partial-wh_Cuando-bebia-el-vino.wav,./stim/wavs/argentine_match_interrogative-partial-wh_Cuando-bebia-el-vino.wav,./stim/wavs/castilian_match_interrogative-partial-wh_Cuando-bebia-el-vino.wav,./stim/wavs/chilean_match_interrogative-partial-wh_Cuando-bebia-el-vino.wav,./stim/wavs/cuban_match_interrogative-partial-wh_Cuando-bebia-el-vino.wav,./stim/wavs/mexican_match_interrogative-partial-wh_Cuando-bebia-el-vino.wav,./stim/wavs/peruvian_match_interrogative-partial-wh_Cuando-bebia-el-vino.wav,./stim/wavs/puertorican_match_interrogative-partial-wh_Cuando-bebia-el-vino.wav,,,,,,,,,,,,,,,,,,,,,,,,,,,,,,,,,,,,,,,,,,,,,,,,,,,,,,,,
,,,,,,,5844812dc5bc3a0001a4d553,605b45a4d25f287719a41696,605fb6d9b3d3a7719bc0b1a2,Mexico,East coast,13 or older,no,2021-03-27_17h51.39.795,empathy_intonation_perc,2020.2.10,MacIntel,60,,,,,,,,,,0,chilean,0,1,1.740395,0,19,19,43,1,44,./stim/wavs/andalusian_mismatch_declarative-narrow-focus_La-maestra-vive-en-Paris.wav,./stim/wavs/argentine_mismatch_declarative-narrow-focus_La-maestra-vive-en-Paris.wav,./stim/wavs/castilian_mismatch_declarative-narrow-focus_La-maestra-vive-en-Paris.wav,./stim/wavs/chilean_mismatch_declarative-narrow-focus_La-maestra-vive-en-Paris.wav,./stim/wavs/cuban_mismatch_declarative-narrow-focus_La-maestra-vive-en-Paris.wav,./stim/wavs/mexican_mismatch_declarative-narrow-focus_La-maestra-vive-en-Paris.wav,./stim/wavs/peruvian_mismatch_declarative-narrow-focus_La-maestra-vive-en-Paris.wav,./stim/wavs/puertorican_mismatch_declarative-narrow-focus_La-maestra-vive-en-Paris.wav,,,,,,,,,,,,,,,,,,,,,,,,,,,,,,,,,,,,,,,,,,,,,,,,,,,,,,,,
,,,,,,,5844812dc5bc3a0001a4d553,605b45a4d25f287719a41696,605fb6d9b3d3a7719bc0b1a2,Mexico,East coast,13 or older,no,2021-03-27_17h51.39.795,empathy_intonation_perc,2020.2.10,MacIntel,60,,,,,,,,,,0,cuban,0,1,2.142845,0,20,20,1,1,2,./stim/wavs/andalusian_match_declarative-broad-focus_Daniel-iba-a-Bolivia.wav,./stim/wavs/argentine_match_declarative-broad-focus_Daniel-iba-a-Bolivia.wav,./stim/wavs/castilian_match_declarative-broad-focus_Daniel-iba-a-Bolivia.wav,./stim/wavs/chilean_match_declarative-broad-focus_Daniel-iba-a-Bolivia.wav,./stim/wavs/cuban_match_declarative-broad-focus_Daniel-iba-a-Bolivia.wav,./stim/wavs/mexican_match_declarative-broad-focus_Daniel-iba-a-Bolivia.wav,./stim/wavs/peruvian_match_declarative-broad-focus_Daniel-iba-a-Bolivia.wav,./stim/wavs/puertorican_match_declarative-broad-focus_Daniel-iba-a-Bolivia.wav,,,,,,,,,,,,,,,,,,,,,,,,,,,,,,,,,,,,,,,,,,,,,,,,,,,,,,,,
,,,,,,,5844812dc5bc3a0001a4d553,605b45a4d25f287719a41696,605fb6d9b3d3a7719bc0b1a2,Mexico,East coast,13 or older,no,2021-03-27_17h51.39.795,empathy_intonation_perc,2020.2.10,MacIntel,60,,,,,,,,,,1,andalusian,0,0,1.506525,0,21,21,55,1,56,./stim/wavs/andalusian_mismatch_interrogative-partial-wh_Por-que-vivia-en-Paris.wav,./stim/wavs/argentine_mismatch_interrogative-partial-wh_Por-que-vivia-en-Paris.wav,./stim/wavs/castilian_mismatch_interrogative-partial-wh_Por-que-vivia-en-Paris.wav,./stim/wavs/chilean_mismatch_interrogative-partial-wh_Por-que-vivia-en-Paris.wav,./stim/wavs/cuban_mismatch_interrogative-partial-wh_Por-que-vivia-en-Paris.wav,./stim/wavs/mexican_mismatch_interrogative-partial-wh_Por-que-vivia-en-Paris.wav,./stim/wavs/peruvian_mismatch_interrogative-partial-wh_Por-que-vivia-en-Paris.wav,./stim/wavs/puertorican_mismatch_interrogative-partial-wh_Por-que-vivia-en-Paris.wav,,,,,,,,,,,,,,,,,,,,,,,,,,,,,,,,,,,,,,,,,,,,,,,,,,,,,,,,
,,,,,,,5844812dc5bc3a0001a4d553,605b45a4d25f287719a41696,605fb6d9b3d3a7719bc0b1a2,Mexico,East coast,13 or older,no,2021-03-27_17h51.39.795,empathy_intonation_perc,2020.2.10,MacIntel,60,,,,,,,,,,0,peruvian,0,1,1.942265,0,22,22,38,1,39,./stim/wavs/andalusian_mismatch_declarative-broad-focus_Mi-novio-viene-del-lago.wav,./stim/wavs/argentine_mismatch_declarative-broad-focus_Mi-novio-viene-del-lago.wav,./stim/wavs/castilian_mismatch_declarative-broad-focus_Mi-novio-viene-del-lago.wav,./stim/wavs/chilean_mismatch_declarative-broad-focus_Mi-novio-viene-del-lago.wav,./stim/wavs/cuban_mismatch_declarative-broad-focus_Mi-novio-viene-del-lago.wav,./stim/wavs/mexican_mismatch_declarative-broad-focus_Mi-novio-viene-del-lago.wav,./stim/wavs/peruvian_mismatch_declarative-broad-focus_Mi-novio-viene-del-lago.wav,./stim/wavs/puertorican_mismatch_declarative-broad-focus_Mi-novio-viene-del-lago.wav,,,,,,,,,,,,,,,,,,,,,,,,,,,,,,,,,,,,,,,,,,,,,,,,,,,,,,,,
,,,,,,,5844812dc5bc3a0001a4d553,605b45a4d25f287719a41696,605fb6d9b3d3a7719bc0b1a2,Mexico,East coast,13 or older,no,2021-03-27_17h51.39.795,empathy_intonation_perc,2020.2.10,MacIntel,60,,,,,,,,,,0,peruvian,0,1,1.44055,0,23,23,46,1,47,./stim/wavs/andalusian_mismatch_declarative-narrow-focus_Mi-novio-viene-del-lago.wav,./stim/wavs/argentine_mismatch_declarative-narrow-focus_Mi-novio-viene-del-lago.wav,./stim/wavs/castilian_mismatch_declarative-narrow-focus_Mi-novio-viene-del-lago.wav,./stim/wavs/chilean_mismatch_declarative-narrow-focus_Mi-novio-viene-del-lago.wav,./stim/wavs/cuban_mismatch_declarative-narrow-focus_Mi-novio-viene-del-lago.wav,./stim/wavs/mexican_mismatch_declarative-narrow-focus_Mi-novio-viene-del-lago.wav,./stim/wavs/peruvian_mismatch_declarative-narrow-focus_Mi-novio-viene-del-lago.wav,./stim/wavs/puertorican_mismatch_declarative-narrow-focus_Mi-novio-viene-del-lago.wav,,,,,,,,,,,,,,,,,,,,,,,,,,,,,,,,,,,,,,,,,,,,,,,,,,,,,,,,
,,,,,,,5844812dc5bc3a0001a4d553,605b45a4d25f287719a41696,605fb6d9b3d3a7719bc0b1a2,Mexico,East coast,13 or older,no,2021-03-27_17h51.39.795,empathy_intonation_perc,2020.2.10,MacIntel,60,,,,,,,,,,0,andalusian,0,1,1.92533,0,24,24,6,1,7,./stim/wavs/andalusian_match_declarative-broad-focus_Mariano-habla-del-tiempo.wav,./stim/wavs/argentine_match_declarative-broad-focus_Mariano-habla-del-tiempo.wav,./stim/wavs/castilian_match_declarative-broad-focus_Mariano-habla-del-tiempo.wav,./stim/wavs/chilean_match_declarative-broad-focus_Mariano-habla-del-tiempo.wav,./stim/wavs/cuban_match_declarative-broad-focus_Mariano-habla-del-tiempo.wav,./stim/wavs/mexican_match_declarative-broad-focus_Mariano-habla-del-tiempo.wav,./stim/wavs/peruvian_match_declarative-broad-focus_Mariano-habla-del-tiempo.wav,./stim/wavs/puertorican_match_declarative-broad-focus_Mariano-habla-del-tiempo.wav,,,,,,,,,,,,,,,,,,,,,,,,,,,,,,,,,,,,,,,,,,,,,,,,,,,,,,,,
,,,,,,,5844812dc5bc3a0001a4d553,605b45a4d25f287719a41696,605fb6d9b3d3a7719bc0b1a2,Mexico,East coast,13 or older,no,2021-03-27_17h51.39.795,empathy_intonation_perc,2020.2.10,MacIntel,60,,,,,,,,,,1,andalusian,1,1,1.18795,0,25,25,29,1,30,./stim/wavs/andalusian_match_interrogative-total-yn_Maria-bebe-el-vino.wav,./stim/wavs/argentine_match_interrogative-total-yn_Maria-bebe-el-vino.wav,./stim/wavs/castilian_match_interrogative-total-yn_Maria-bebe-el-vino.wav,./stim/wavs/chilean_match_interrogative-total-yn_Maria-bebe-el-vino.wav,./stim/wavs/cuban_match_interrogative-total-yn_Maria-bebe-el-vino.wav,./stim/wavs/mexican_match_interrogative-total-yn_Maria-bebe-el-vino.wav,./stim/wavs/peruvian_match_interrogative-total-yn_Maria-bebe-el-vino.wav,./stim/wavs/puertorican_match_interrogative-total-yn_Maria-bebe-el-vino.wav,,,,,,,,,,,,,,,,,,,,,,,,,,,,,,,,,,,,,,,,,,,,,,,,,,,,,,,,
,,,,,,,5844812dc5bc3a0001a4d553,605b45a4d25f287719a41696,605fb6d9b3d3a7719bc0b1a2,Mexico,East coast,13 or older,no,2021-03-27_17h51.39.795,empathy_intonation_perc,2020.2.10,MacIntel,60,,,,,,,,,,1,peruvian,1,1,2.442985,0,26,26,21,1,22,./stim/wavs/andalusian_match_interrogative-partial-wh_Por-que-ama-la-navidad.wav,./stim/wavs/argentine_match_interrogative-partial-wh_Por-que-ama-la-navidad.wav,./stim/wavs/castilian_match_interrogative-partial-wh_Por-que-ama-la-navidad.wav,./stim/wavs/chilean_match_interrogative-partial-wh_Por-que-ama-la-navidad.wav,./stim/wavs/cuban_match_interrogative-partial-wh_Por-que-ama-la-navidad.wav,./stim/wavs/mexican_match_interrogative-partial-wh_Por-que-ama-la-navidad.wav,./stim/wavs/peruvian_match_interrogative-partial-wh_Por-que-ama-la-navidad.wav,./stim/wavs/puertorican_match_interrogative-partial-wh_Por-que-ama-la-navidad.wav,,,,,,,,,,,,,,,,,,,,,,,,,,,,,,,,,,,,,,,,,,,,,,,,,,,,,,,,
,,,,,,,5844812dc5bc3a0001a4d553,605b45a4d25f287719a41696,605fb6d9b3d3a7719bc0b1a2,Mexico,East coast,13 or older,no,2021-03-27_17h51.39.795,empathy_intonation_perc,2020.2.10,MacIntel,60,,,,,,,,,,0,peruvian,0,1,1.774175,0,27,27,44,1,45,./stim/wavs/andalusian_mismatch_declarative-narrow-focus_La-nina-lava-el-plato.wav,./stim/wavs/argentine_mismatch_declarative-narrow-focus_La-nina-lava-el-plato.wav,./stim/wavs/castilian_mismatch_declarative-narrow-focus_La-nina-lava-el-plato.wav,./stim/wavs/chilean_mismatch_declarative-narrow-focus_La-nina-lava-el-plato.wav,./stim/wavs/cuban_mismatch_declarative-narrow-focus_La-nina-lava-el-plato.wav,./stim/wavs/mexican_mismatch_declarative-narrow-focus_La-nina-lava-el-plato.wav,./stim/wavs/peruvian_mismatch_declarative-narrow-focus_La-nina-lava-el-plato.wav,./stim/wavs/puertorican_mismatch_declarative-narrow-focus_La-nina-lava-el-plato.wav,,,,,,,,,,,,,,,,,,,,,,,,,,,,,,,,,,,,,,,,,,,,,,,,,,,,,,,,
,,,,,,,5844812dc5bc3a0001a4d553,605b45a4d25f287719a41696,605fb6d9b3d3a7719bc0b1a2,Mexico,East coast,13 or older,no,2021-03-27_17h51.39.795,empathy_intonation_perc,2020.2.10,MacIntel,60,,,,,,,,,,1,peruvian,1,1,1.545355,0,28,28,25,1,26,./stim/wavs/andalusian_match_interrogative-total-yn_Daniel-iba-a-Bolivia.wav,./stim/wavs/argentine_match_interrogative-total-yn_Daniel-iba-a-Bolivia.wav,./stim/wavs/castilian_match_interrogative-total-yn_Daniel-iba-a-Bolivia.wav,./stim/wavs/chilean_match_interrogative-total-yn_Daniel-iba-a-Bolivia.wav,./stim/wavs/cuban_match_interrogative-total-yn_Daniel-iba-a-Bolivia.wav,./stim/wavs/mexican_match_interrogative-total-yn_Daniel-iba-a-Bolivia.wav,./stim/wavs/peruvian_match_interrogative-total-yn_Daniel-iba-a-Bolivia.wav,./stim/wavs/puertorican_match_interrogative-total-yn_Daniel-iba-a-Bolivia.wav,,,,,,,,,,,,,,,,,,,,,,,,,,,,,,,,,,,,,,,,,,,,,,,,,,,,,,,,
,,,,,,,5844812dc5bc3a0001a4d553,605b45a4d25f287719a41696,605fb6d9b3d3a7719bc0b1a2,Mexico,East coast,13 or older,no,2021-03-27_17h51.39.795,empathy_intonation_perc,2020.2.10,MacIntel,60,,,,,,,,,,0,castilian,0,1,1.706675,0,29,29,45,1,46,./stim/wavs/andalusian_mismatch_declarative-narrow-focus_Mi-madre-come-la-fruta.wav,./stim/wavs/argentine_mismatch_declarative-narrow-focus_Mi-madre-come-la-fruta.wav,./stim/wavs/castilian_mismatch_declarative-narrow-focus_Mi-madre-come-la-fruta.wav,./stim/wavs/chilean_mismatch_declarative-narrow-focus_Mi-madre-come-la-fruta.wav,./stim/wavs/cuban_mismatch_declarative-narrow-focus_Mi-madre-come-la-fruta.wav,./stim/wavs/mexican_mismatch_declarative-narrow-focus_Mi-madre-come-la-fruta.wav,./stim/wavs/peruvian_mismatch_declarative-narrow-focus_Mi-madre-come-la-fruta.wav,./stim/wavs/puertorican_mismatch_declarative-narrow-focus_Mi-madre-come-la-fruta.wav,,,,,,,,,,,,,,,,,,,,,,,,,,,,,,,,,,,,,,,,,,,,,,,,,,,,,,,,
,,,,,,,5844812dc5bc3a0001a4d553,605b45a4d25f287719a41696,605fb6d9b3d3a7719bc0b1a2,Mexico,East coast,13 or older,no,2021-03-27_17h51.39.795,empathy_intonation_perc,2020.2.10,MacIntel,60,,,,,,,,,,0,puertorican,0,1,1.60781,0,30,30,0,1,1,./stim/wavs/andalusian_match_declarative-broad-focus_Ana-lleva-el-abrigo.wav,./stim/wavs/argentine_match_declarative-broad-focus_Ana-lleva-el-abrigo.wav,./stim/wavs/castilian_match_declarative-broad-focus_Ana-lleva-el-abrigo.wav,./stim/wavs/chilean_match_declarative-broad-focus_Ana-lleva-el-abrigo.wav,./stim/wavs/cuban_match_declarative-broad-focus_Ana-lleva-el-abrigo.wav,./stim/wavs/mexican_match_declarative-broad-focus_Ana-lleva-el-abrigo.wav,./stim/wavs/peruvian_match_declarative-broad-focus_Ana-lleva-el-abrigo.wav,./stim/wavs/puertorican_match_declarative-broad-focus_Ana-lleva-el-abrigo.wav,,,,,,,,,,,,,,,,,,,,,,,,,,,,,,,,,,,,,,,,,,,,,,,,,,,,,,,,
,,,,,,,5844812dc5bc3a0001a4d553,605b45a4d25f287719a41696,605fb6d9b3d3a7719bc0b1a2,Mexico,East coast,13 or older,no,2021-03-27_17h51.39.795,empathy_intonation_perc,2020.2.10,MacIntel,60,,,,,,,,,,0,castilian,0,1,1.691715,0,31,31,7,1,8,./stim/wavs/andalusian_match_declarative-broad-focus_Marta-abre-el-regalo.wav,./stim/wavs/argentine_match_declarative-broad-focus_Marta-abre-el-regalo.wav,./stim/wavs/castilian_match_declarative-broad-focus_Marta-abre-el-regalo.wav,./stim/wavs/chilean_match_declarative-broad-focus_Marta-abre-el-regalo.wav,./stim/wavs/cuban_match_declarative-broad-focus_Marta-abre-el-regalo.wav,./stim/wavs/mexican_match_declarative-broad-focus_Marta-abre-el-regalo.wav,./stim/wavs/peruvian_match_declarative-broad-focus_Marta-abre-el-regalo.wav,./stim/wavs/puertorican_match_declarative-broad-focus_Marta-abre-el-regalo.wav,,,,,,,,,,,,,,,,,,,,,,,,,,,,,,,,,,,,,,,,,,,,,,,,,,,,,,,,
,,,,,,,5844812dc5bc3a0001a4d553,605b45a4d25f287719a41696,605fb6d9b3d3a7719bc0b1a2,Mexico,East coast,13 or older,no,2021-03-27_17h51.39.795,empathy_intonation_perc,2020.2.10,MacIntel,60,,,,,,,,,,0,puertorican,0,1,1.83954,0,32,32,9,1,10,./stim/wavs/andalusian_match_declarative-narrow-focus_Daniel-iba-a-Bolivia.wav,./stim/wavs/argentine_match_declarative-narrow-focus_Daniel-iba-a-Bolivia.wav,./stim/wavs/castilian_match_declarative-narrow-focus_Daniel-iba-a-Bolivia.wav,./stim/wavs/chilean_match_declarative-narrow-focus_Daniel-iba-a-Bolivia.wav,./stim/wavs/cuban_match_declarative-narrow-focus_Daniel-iba-a-Bolivia.wav,./stim/wavs/mexican_match_declarative-narrow-focus_Daniel-iba-a-Bolivia.wav,./stim/wavs/peruvian_match_declarative-narrow-focus_Daniel-iba-a-Bolivia.wav,./stim/wavs/puertorican_match_declarative-narrow-focus_Daniel-iba-a-Bolivia.wav,,,,,,,,,,,,,,,,,,,,,,,,,,,,,,,,,,,,,,,,,,,,,,,,,,,,,,,,
,,,,,,,5844812dc5bc3a0001a4d553,605b45a4d25f287719a41696,605fb6d9b3d3a7719bc0b1a2,Mexico,East coast,13 or older,no,2021-03-27_17h51.39.795,empathy_intonation_perc,2020.2.10,MacIntel,60,,,,,,,,,,1,castilian,0,0,1.656735,0,33,33,30,1,31,./stim/wavs/andalusian_match_interrogative-total-yn_Mariano-habla-del-tiempo.wav,./stim/wavs/argentine_match_interrogative-total-yn_Mariano-habla-del-tiempo.wav,./stim/wavs/castilian_match_interrogative-total-yn_Mariano-habla-del-tiempo.wav,./stim/wavs/chilean_match_interrogative-total-yn_Mariano-habla-del-tiempo.wav,./stim/wavs/cuban_match_interrogative-total-yn_Mariano-habla-del-tiempo.wav,./stim/wavs/mexican_match_interrogative-total-yn_Mariano-habla-del-tiempo.wav,./stim/wavs/peruvian_match_interrogative-total-yn_Mariano-habla-del-tiempo.wav,./stim/wavs/puertorican_match_interrogative-total-yn_Mariano-habla-del-tiempo.wav,,,,,,,,,,,,,,,,,,,,,,,,,,,,,,,,,,,,,,,,,,,,,,,,,,,,,,,,
,,,,,,,5844812dc5bc3a0001a4d553,605b45a4d25f287719a41696,605fb6d9b3d3a7719bc0b1a2,Mexico,East coast,13 or older,no,2021-03-27_17h51.39.795,empathy_intonation_perc,2020.2.10,MacIntel,60,,,,,,,,,,1,puertorican,1,1,2.209955,0,34,34,60,1,61,./stim/wavs/andalusian_mismatch_interrogative-total-yn_La-nina-lava-el-plato.wav,./stim/wavs/argentine_mismatch_interrogative-total-yn_La-nina-lava-el-plato.wav,./stim/wavs/castilian_mismatch_interrogative-total-yn_La-nina-lava-el-plato.wav,./stim/wavs/chilean_mismatch_interrogative-total-yn_La-nina-lava-el-plato.wav,./stim/wavs/cuban_mismatch_interrogative-total-yn_La-nina-lava-el-plato.wav,./stim/wavs/mexican_mismatch_interrogative-total-yn_La-nina-lava-el-plato.wav,./stim/wavs/peruvian_mismatch_interrogative-total-yn_La-nina-lava-el-plato.wav,./stim/wavs/puertorican_mismatch_interrogative-total-yn_La-nina-lava-el-plato.wav,,,,,,,,,,,,,,,,,,,,,,,,,,,,,,,,,,,,,,,,,,,,,,,,,,,,,,,,
,,,,,,,5844812dc5bc3a0001a4d553,605b45a4d25f287719a41696,605fb6d9b3d3a7719bc0b1a2,Mexico,East coast,13 or older,no,2021-03-27_17h51.39.795,empathy_intonation_perc,2020.2.10,MacIntel,60,,,,,,,,,,0,peruvian,0,1,1.42232,0,35,35,13,1,14,./stim/wavs/andalusian_match_declarative-narrow-focus_Maria-bebe-el-vino.wav,./stim/wavs/argentine_match_declarative-narrow-focus_Maria-bebe-el-vino.wav,./stim/wavs/castilian_match_declarative-narrow-focus_Maria-bebe-el-vino.wav,./stim/wavs/chilean_match_declarative-narrow-focus_Maria-bebe-el-vino.wav,./stim/wavs/cuban_match_declarative-narrow-focus_Maria-bebe-el-vino.wav,./stim/wavs/mexican_match_declarative-narrow-focus_Maria-bebe-el-vino.wav,./stim/wavs/peruvian_match_declarative-narrow-focus_Maria-bebe-el-vino.wav,./stim/wavs/puertorican_match_declarative-narrow-focus_Maria-bebe-el-vino.wav,,,,,,,,,,,,,,,,,,,,,,,,,,,,,,,,,,,,,,,,,,,,,,,,,,,,,,,,
,,,,,,,5844812dc5bc3a0001a4d553,605b45a4d25f287719a41696,605fb6d9b3d3a7719bc0b1a2,Mexico,East coast,13 or older,no,2021-03-27_17h51.39.795,empathy_intonation_perc,2020.2.10,MacIntel,60,,,,,,,,,,0,castilian,0,1,1.72382,0,36,36,42,1,43,./stim/wavs/andalusian_mismatch_declarative-narrow-focus_El-nino-oye-el-rio.wav,./stim/wavs/argentine_mismatch_declarative-narrow-focus_El-nino-oye-el-rio.wav,./stim/wavs/castilian_mismatch_declarative-narrow-focus_El-nino-oye-el-rio.wav,./stim/wavs/chilean_mismatch_declarative-narrow-focus_El-nino-oye-el-rio.wav,./stim/wavs/cuban_mismatch_declarative-narrow-focus_El-nino-oye-el-rio.wav,./stim/wavs/mexican_mismatch_declarative-narrow-focus_El-nino-oye-el-rio.wav,./stim/wavs/peruvian_mismatch_declarative-narrow-focus_El-nino-oye-el-rio.wav,./stim/wavs/puertorican_mismatch_declarative-narrow-focus_El-nino-oye-el-rio.wav,,,,,,,,,,,,,,,,,,,,,,,,,,,,,,,,,,,,,,,,,,,,,,,,,,,,,,,,
,,,,,,,5844812dc5bc3a0001a4d553,605b45a4d25f287719a41696,605fb6d9b3d3a7719bc0b1a2,Mexico,East coast,13 or older,no,2021-03-27_17h51.39.795,empathy_intonation_perc,2020.2.10,MacIntel,60,,,,,,,,,,1,chilean,1,1,1.708375,0,37,37,22,1,23,./stim/wavs/andalusian_match_interrogative-partial-wh_Por-que-hablaba-del-agua.wav,./stim/wavs/argentine_match_interrogative-partial-wh_Por-que-hablaba-del-agua.wav,./stim/wavs/castilian_match_interrogative-partial-wh_Por-que-hablaba-del-agua.wav,./stim/wavs/chilean_match_interrogative-partial-wh_Por-que-hablaba-del-agua.wav,./stim/wavs/cuban_match_interrogative-partial-wh_Por-que-hablaba-del-agua.wav,./stim/wavs/mexican_match_interrogative-partial-wh_Por-que-hablaba-del-agua.wav,./stim/wavs/peruvian_match_interrogative-partial-wh_Por-que-hablaba-del-agua.wav,./stim/wavs/puertorican_match_interrogative-partial-wh_Por-que-hablaba-del-agua.wav,,,,,,,,,,,,,,,,,,,,,,,,,,,,,,,,,,,,,,,,,,,,,,,,,,,,,,,,
,,,,,,,5844812dc5bc3a0001a4d553,605b45a4d25f287719a41696,605fb6d9b3d3a7719bc0b1a2,Mexico,East coast,13 or older,no,2021-03-27_17h51.39.795,empathy_intonation_perc,2020.2.10,MacIntel,60,,,,,,,,,,1,andalusian,1,1,1.67674,0,38,38,50,1,51,./stim/wavs/andalusian_mismatch_interrogative-partial-wh_Cuando-miraba-la-luna.wav,./stim/wavs/argentine_mismatch_interrogative-partial-wh_Cuando-miraba-la-luna.wav,./stim/wavs/castilian_mismatch_interrogative-partial-wh_Cuando-miraba-la-luna.wav,./stim/wavs/chilean_mismatch_interrogative-partial-wh_Cuando-miraba-la-luna.wav,./stim/wavs/cuban_mismatch_interrogative-partial-wh_Cuando-miraba-la-luna.wav,./stim/wavs/mexican_mismatch_interrogative-partial-wh_Cuando-miraba-la-luna.wav,./stim/wavs/peruvian_mismatch_interrogative-partial-wh_Cuando-miraba-la-luna.wav,./stim/wavs/puertorican_mismatch_interrogative-partial-wh_Cuando-miraba-la-luna.wav,,,,,,,,,,,,,,,,,,,,,,,,,,,,,,,,,,,,,,,,,,,,,,,,,,,,,,,,
,,,,,,,5844812dc5bc3a0001a4d553,605b45a4d25f287719a41696,605fb6d9b3d3a7719bc0b1a2,Mexico,East coast,13 or older,no,2021-03-27_17h51.39.795,empathy_intonation_perc,2020.2.10,MacIntel,60,,,,,,,,,,1,argentine,1,1,1.84227,0,39,39,26,1,27,./stim/wavs/andalusian_match_interrogative-total-yn_David-leia-el-libro.wav,./stim/wavs/argentine_match_interrogative-total-yn_David-leia-el-libro.wav,./stim/wavs/castilian_match_interrogative-total-yn_David-leia-el-libro.wav,./stim/wavs/chilean_match_interrogative-total-yn_David-leia-el-libro.wav,./stim/wavs/cuban_match_interrogative-total-yn_David-leia-el-libro.wav,./stim/wavs/mexican_match_interrogative-total-yn_David-leia-el-libro.wav,./stim/wavs/peruvian_match_interrogative-total-yn_David-leia-el-libro.wav,./stim/wavs/puertorican_match_interrogative-total-yn_David-leia-el-libro.wav,,,,,,,,,,,,,,,,,,,,,,,,,,,,,,,,,,,,,,,,,,,,,,,,,,,,,,,,
,,,,,,,5844812dc5bc3a0001a4d553,605b45a4d25f287719a41696,605fb6d9b3d3a7719bc0b1a2,Mexico,East coast,13 or older,no,2021-03-27_17h51.39.795,empathy_intonation_perc,2020.2.10,MacIntel,60,,,,,,,,,,0,argentine,0,1,1.48948,0,40,40,36,1,37,./stim/wavs/andalusian_mismatch_declarative-broad-focus_La-nina-lava-el-plato.wav,./stim/wavs/argentine_mismatch_declarative-broad-focus_La-nina-lava-el-plato.wav,./stim/wavs/castilian_mismatch_declarative-broad-focus_La-nina-lava-el-plato.wav,./stim/wavs/chilean_mismatch_declarative-broad-focus_La-nina-lava-el-plato.wav,./stim/wavs/cuban_mismatch_declarative-broad-focus_La-nina-lava-el-plato.wav,./stim/wavs/mexican_mismatch_declarative-broad-focus_La-nina-lava-el-plato.wav,./stim/wavs/peruvian_mismatch_declarative-broad-focus_La-nina-lava-el-plato.wav,./stim/wavs/puertorican_mismatch_declarative-broad-focus_La-nina-lava-el-plato.wav,,,,,,,,,,,,,,,,,,,,,,,,,,,,,,,,,,,,,,,,,,,,,,,,,,,,,,,,
,,,,,,,5844812dc5bc3a0001a4d553,605b45a4d25f287719a41696,605fb6d9b3d3a7719bc0b1a2,Mexico,East coast,13 or older,no,2021-03-27_17h51.39.795,empathy_intonation_perc,2020.2.10,MacIntel,60,,,,,,,,,,0,argentine,0,1,1.707775,0,41,41,34,1,35,./stim/wavs/andalusian_mismatch_declarative-broad-focus_El-nino-oye-el-rio.wav,./stim/wavs/argentine_mismatch_declarative-broad-focus_El-nino-oye-el-rio.wav,./stim/wavs/castilian_mismatch_declarative-broad-focus_El-nino-oye-el-rio.wav,./stim/wavs/chilean_mismatch_declarative-broad-focus_El-nino-oye-el-rio.wav,./stim/wavs/cuban_mismatch_declarative-broad-focus_El-nino-oye-el-rio.wav,./stim/wavs/mexican_mismatch_declarative-broad-focus_El-nino-oye-el-rio.wav,./stim/wavs/peruvian_mismatch_declarative-broad-focus_El-nino-oye-el-rio.wav,./stim/wavs/puertorican_mismatch_declarative-broad-focus_El-nino-oye-el-rio.wav,,,,,,,,,,,,,,,,,,,,,,,,,,,,,,,,,,,,,,,,,,,,,,,,,,,,,,,,
,,,,,,,5844812dc5bc3a0001a4d553,605b45a4d25f287719a41696,605fb6d9b3d3a7719bc0b1a2,Mexico,East coast,13 or older,no,2021-03-27_17h51.39.795,empathy_intonation_perc,2020.2.10,MacIntel,60,,,,,,,,,,0,argentine,0,1,1.58998,0,42,42,2,1,3,./stim/wavs/andalusian_match_declarative-broad-focus_David-leia-el-libro.wav,./stim/wavs/argentine_match_declarative-broad-focus_David-leia-el-libro.wav,./stim/wavs/castilian_match_declarative-broad-focus_David-leia-el-libro.wav,./stim/wavs/chilean_match_declarative-broad-focus_David-leia-el-libro.wav,./stim/wavs/cuban_match_declarative-broad-focus_David-leia-el-libro.wav,./stim/wavs/mexican_match_declarative-broad-focus_David-leia-el-libro.wav,./stim/wavs/peruvian_match_declarative-broad-focus_David-leia-el-libro.wav,./stim/wavs/puertorican_match_declarative-broad-focus_David-leia-el-libro.wav,,,,,,,,,,,,,,,,,,,,,,,,,,,,,,,,,,,,,,,,,,,,,,,,,,,,,,,,
,,,,,,,5844812dc5bc3a0001a4d553,605b45a4d25f287719a41696,605fb6d9b3d3a7719bc0b1a2,Mexico,East coast,13 or older,no,2021-03-27_17h51.39.795,empathy_intonation_perc,2020.2.10,MacIntel,60,,,,,,,,,,0,peruvian,0,1,1.576125,0,43,43,11,1,12,./stim/wavs/andalusian_match_declarative-narrow-focus_Emilio-ama-la-marcha.wav,./stim/wavs/argentine_match_declarative-narrow-focus_Emilio-ama-la-marcha.wav,./stim/wavs/castilian_match_declarative-narrow-focus_Emilio-ama-la-marcha.wav,./stim/wavs/chilean_match_declarative-narrow-focus_Emilio-ama-la-marcha.wav,./stim/wavs/cuban_match_declarative-narrow-focus_Emilio-ama-la-marcha.wav,./stim/wavs/mexican_match_declarative-narrow-focus_Emilio-ama-la-marcha.wav,./stim/wavs/peruvian_match_declarative-narrow-focus_Emilio-ama-la-marcha.wav,./stim/wavs/puertorican_match_declarative-narrow-focus_Emilio-ama-la-marcha.wav,,,,,,,,,,,,,,,,,,,,,,,,,,,,,,,,,,,,,,,,,,,,,,,,,,,,,,,,
,,,,,,,5844812dc5bc3a0001a4d553,605b45a4d25f287719a41696,605fb6d9b3d3a7719bc0b1a2,Mexico,East coast,13 or older,no,2021-03-27_17h51.39.795,empathy_intonation_perc,2020.2.10,MacIntel,60,,,,,,,,,,1,andalusian,1,1,0.95412,0,44,44,48,1,49,./stim/wavs/andalusian_mismatch_interrogative-partial-wh_Cuando-comia-la-fruta.wav,./stim/wavs/argentine_mismatch_interrogative-partial-wh_Cuando-comia-la-fruta.wav,./stim/wavs/castilian_mismatch_interrogative-partial-wh_Cuando-comia-la-fruta.wav,./stim/wavs/chilean_mismatch_interrogative-partial-wh_Cuando-comia-la-fruta.wav,./stim/wavs/cuban_mismatch_interrogative-partial-wh_Cuando-comia-la-fruta.wav,./stim/wavs/mexican_mismatch_interrogative-partial-wh_Cuando-comia-la-fruta.wav,./stim/wavs/peruvian_mismatch_interrogative-partial-wh_Cuando-comia-la-fruta.wav,./stim/wavs/puertorican_mismatch_interrogative-partial-wh_Cuando-comia-la-fruta.wav,,,,,,,,,,,,,,,,,,,,,,,,,,,,,,,,,,,,,,,,,,,,,,,,,,,,,,,,
,,,,,,,5844812dc5bc3a0001a4d553,605b45a4d25f287719a41696,605fb6d9b3d3a7719bc0b1a2,Mexico,East coast,13 or older,no,2021-03-27_17h51.39.795,empathy_intonation_perc,2020.2.10,MacIntel,60,,,,,,,,,,0,puertorican,0,1,1.40555,0,45,45,39,1,40,./stim/wavs/andalusian_mismatch_declarative-broad-focus_Mi-tia-odia-la-lluvia.wav,./stim/wavs/argentine_mismatch_declarative-broad-focus_Mi-tia-odia-la-lluvia.wav,./stim/wavs/castilian_mismatch_declarative-broad-focus_Mi-tia-odia-la-lluvia.wav,./stim/wavs/chilean_mismatch_declarative-broad-focus_Mi-tia-odia-la-lluvia.wav,./stim/wavs/cuban_mismatch_declarative-broad-focus_Mi-tia-odia-la-lluvia.wav,./stim/wavs/mexican_mismatch_declarative-broad-focus_Mi-tia-odia-la-lluvia.wav,./stim/wavs/peruvian_mismatch_declarative-broad-focus_Mi-tia-odia-la-lluvia.wav,./stim/wavs/puertorican_mismatch_declarative-broad-focus_Mi-tia-odia-la-lluvia.wav,,,,,,,,,,,,,,,,,,,,,,,,,,,,,,,,,,,,,,,,,,,,,,,,,,,,,,,,
,,,,,,,5844812dc5bc3a0001a4d553,605b45a4d25f287719a41696,605fb6d9b3d3a7719bc0b1a2,Mexico,East coast,13 or older,no,2021-03-27_17h51.39.795,empathy_intonation_perc,2020.2.10,MacIntel,60,,,,,,,,,,1,chilean,1,1,0.920575,0,46,46,19,1,20,./stim/wavs/andalusian_match_interrogative-partial-wh_Cuando-vendia-el-carro.wav,./stim/wavs/argentine_match_interrogative-partial-wh_Cuando-vendia-el-carro.wav,./stim/wavs/castilian_match_interrogative-partial-wh_Cuando-vendia-el-carro.wav,./stim/wavs/chilean_match_interrogative-partial-wh_Cuando-vendia-el-carro.wav,./stim/wavs/cuban_match_interrogative-partial-wh_Cuando-vendia-el-carro.wav,./stim/wavs/mexican_match_interrogative-partial-wh_Cuando-vendia-el-carro.wav,./stim/wavs/peruvian_match_interrogative-partial-wh_Cuando-vendia-el-carro.wav,./stim/wavs/puertorican_match_interrogative-partial-wh_Cuando-vendia-el-carro.wav,,,,,,,,,,,,,,,,,,,,,,,,,,,,,,,,,,,,,,,,,,,,,,,,,,,,,,,,
,,,,,,,5844812dc5bc3a0001a4d553,605b45a4d25f287719a41696,605fb6d9b3d3a7719bc0b1a2,Mexico,East coast,13 or older,no,2021-03-27_17h51.39.795,empathy_intonation_perc,2020.2.10,MacIntel,60,,,,,,,,,,0,argentine,0,1,1.188265,0,47,47,37,1,38,./stim/wavs/andalusian_mismatch_declarative-broad-focus_Mi-madre-come-la-fruta.wav,./stim/wavs/argentine_mismatch_declarative-broad-focus_Mi-madre-come-la-fruta.wav,./stim/wavs/castilian_mismatch_declarative-broad-focus_Mi-madre-come-la-fruta.wav,./stim/wavs/chilean_mismatch_declarative-broad-focus_Mi-madre-come-la-fruta.wav,./stim/wavs/cuban_mismatch_declarative-broad-focus_Mi-madre-come-la-fruta.wav,./stim/wavs/mexican_mismatch_declarative-broad-focus_Mi-madre-come-la-fruta.wav,./stim/wavs/peruvian_mismatch_declarative-broad-focus_Mi-madre-come-la-fruta.wav,./stim/wavs/puertorican_mismatch_declarative-broad-focus_Mi-madre-come-la-fruta.wav,,,,,,,,,,,,,,,,,,,,,,,,,,,,,,,,,,,,,,,,,,,,,,,,,,,,,,,,
,,,,,,,5844812dc5bc3a0001a4d553,605b45a4d25f287719a41696,605fb6d9b3d3a7719bc0b1a2,Mexico,East coast,13 or older,no,2021-03-27_17h51.39.795,empathy_intonation_perc,2020.2.10,MacIntel,60,,,,,,,,,,1,andalusian,1,1,1.63966,0,48,48,63,1,64,./stim/wavs/andalusian_mismatch_interrogative-total-yn_Mi-tia-odia-la-lluvia.wav,./stim/wavs/argentine_mismatch_interrogative-total-yn_Mi-tia-odia-la-lluvia.wav,./stim/wavs/castilian_mismatch_interrogative-total-yn_Mi-tia-odia-la-lluvia.wav,./stim/wavs/chilean_mismatch_interrogative-total-yn_Mi-tia-odia-la-lluvia.wav,./stim/wavs/cuban_mismatch_interrogative-total-yn_Mi-tia-odia-la-lluvia.wav,./stim/wavs/mexican_mismatch_interrogative-total-yn_Mi-tia-odia-la-lluvia.wav,./stim/wavs/peruvian_mismatch_interrogative-total-yn_Mi-tia-odia-la-lluvia.wav,./stim/wavs/puertorican_mismatch_interrogative-total-yn_Mi-tia-odia-la-lluvia.wav,,,,,,,,,,,,,,,,,,,,,,,,,,,,,,,,,,,,,,,,,,,,,,,,,,,,,,,,
,,,,,,,5844812dc5bc3a0001a4d553,605b45a4d25f287719a41696,605fb6d9b3d3a7719bc0b1a2,Mexico,East coast,13 or older,no,2021-03-27_17h51.39.795,empathy_intonation_perc,2020.2.10,MacIntel,60,,,,,,,,,,1,castilian,1,1,1.52833,0,49,49,58,1,59,./stim/wavs/andalusian_mismatch_interrogative-total-yn_El-nino-oye-el-rio.wav,./stim/wavs/argentine_mismatch_interrogative-total-yn_El-nino-oye-el-rio.wav,./stim/wavs/castilian_mismatch_interrogative-total-yn_El-nino-oye-el-rio.wav,./stim/wavs/chilean_mismatch_interrogative-total-yn_El-nino-oye-el-rio.wav,./stim/wavs/cuban_mismatch_interrogative-total-yn_El-nino-oye-el-rio.wav,./stim/wavs/mexican_mismatch_interrogative-total-yn_El-nino-oye-el-rio.wav,./stim/wavs/peruvian_mismatch_interrogative-total-yn_El-nino-oye-el-rio.wav,./stim/wavs/puertorican_mismatch_interrogative-total-yn_El-nino-oye-el-rio.wav,,,,,,,,,,,,,,,,,,,,,,,,,,,,,,,,,,,,,,,,,,,,,,,,,,,,,,,,
,,,,,,,5844812dc5bc3a0001a4d553,605b45a4d25f287719a41696,605fb6d9b3d3a7719bc0b1a2,Mexico,East coast,13 or older,no,2021-03-27_17h51.39.795,empathy_intonation_perc,2020.2.10,MacIntel,60,,,,,,,,,,1,chilean,1,1,1.58962,0,50,50,28,1,29,./stim/wavs/andalusian_match_interrogative-total-yn_Manuela-vende-el-carro.wav,./stim/wavs/argentine_match_interrogative-total-yn_Manuela-vende-el-carro.wav,./stim/wavs/castilian_match_interrogative-total-yn_Manuela-vende-el-carro.wav,./stim/wavs/chilean_match_interrogative-total-yn_Manuela-vende-el-carro.wav,./stim/wavs/cuban_match_interrogative-total-yn_Manuela-vende-el-carro.wav,./stim/wavs/mexican_match_interrogative-total-yn_Manuela-vende-el-carro.wav,./stim/wavs/peruvian_match_interrogative-total-yn_Manuela-vende-el-carro.wav,./stim/wavs/puertorican_match_interrogative-total-yn_Manuela-vende-el-carro.wav,,,,,,,,,,,,,,,,,,,,,,,,,,,,,,,,,,,,,,,,,,,,,,,,,,,,,,,,
,,,,,,,5844812dc5bc3a0001a4d553,605b45a4d25f287719a41696,605fb6d9b3d3a7719bc0b1a2,Mexico,East coast,13 or older,no,2021-03-27_17h51.39.795,empathy_intonation_perc,2020.2.10,MacIntel,60,,,,,,,,,,1,cuban,1,1,0.87219,0,51,51,52,1,53,./stim/wavs/andalusian_mismatch_interrogative-partial-wh_Por-que-odiaba-la-lluvia.wav,./stim/wavs/argentine_mismatch_interrogative-partial-wh_Por-que-odiaba-la-lluvia.wav,./stim/wavs/castilian_mismatch_interrogative-partial-wh_Por-que-odiaba-la-lluvia.wav,./stim/wavs/chilean_mismatch_interrogative-partial-wh_Por-que-odiaba-la-lluvia.wav,./stim/wavs/cuban_mismatch_interrogative-partial-wh_Por-que-odiaba-la-lluvia.wav,./stim/wavs/mexican_mismatch_interrogative-partial-wh_Por-que-odiaba-la-lluvia.wav,./stim/wavs/peruvian_mismatch_interrogative-partial-wh_Por-que-odiaba-la-lluvia.wav,./stim/wavs/puertorican_mismatch_interrogative-partial-wh_Por-que-odiaba-la-lluvia.wav,,,,,,,,,,,,,,,,,,,,,,,,,,,,,,,,,,,,,,,,,,,,,,,,,,,,,,,,
,,,,,,,5844812dc5bc3a0001a4d553,605b45a4d25f287719a41696,605fb6d9b3d3a7719bc0b1a2,Mexico,East coast,13 or older,no,2021-03-27_17h51.39.795,empathy_intonation_perc,2020.2.10,MacIntel,60,,,,,,,,,,0,cuban,0,1,0.891585,0,52,52,41,1,42,./stim/wavs/andalusian_mismatch_declarative-narrow-focus_El-hombre-mira-la-luna.wav,./stim/wavs/argentine_mismatch_declarative-narrow-focus_El-hombre-mira-la-luna.wav,./stim/wavs/castilian_mismatch_declarative-narrow-focus_El-hombre-mira-la-luna.wav,./stim/wavs/chilean_mismatch_declarative-narrow-focus_El-hombre-mira-la-luna.wav,./stim/wavs/cuban_mismatch_declarative-narrow-focus_El-hombre-mira-la-luna.wav,./stim/wavs/mexican_mismatch_declarative-narrow-focus_El-hombre-mira-la-luna.wav,./stim/wavs/peruvian_mismatch_declarative-narrow-focus_El-hombre-mira-la-luna.wav,./stim/wavs/puertorican_mismatch_declarative-narrow-focus_El-hombre-mira-la-luna.wav,,,,,,,,,,,,,,,,,,,,,,,,,,,,,,,,,,,,,,,,,,,,,,,,,,,,,,,,
,,,,,,,5844812dc5bc3a0001a4d553,605b45a4d25f287719a41696,605fb6d9b3d3a7719bc0b1a2,Mexico,East coast,13 or older,no,2021-03-27_17h51.39.795,empathy_intonation_perc,2020.2.10,MacIntel,60,,,,,,,,,,1,peruvian,1,1,1.624635,0,53,53,23,1,24,./stim/wavs/andalusian_match_interrogative-partial-wh_Por-que-iba-a-Bolivia.wav,./stim/wavs/argentine_match_interrogative-partial-wh_Por-que-iba-a-Bolivia.wav,./stim/wavs/castilian_match_interrogative-partial-wh_Por-que-iba-a-Bolivia.wav,./stim/wavs/chilean_match_interrogative-partial-wh_Por-que-iba-a-Bolivia.wav,./stim/wavs/cuban_match_interrogative-partial-wh_Por-que-iba-a-Bolivia.wav,./stim/wavs/mexican_match_interrogative-partial-wh_Por-que-iba-a-Bolivia.wav,./stim/wavs/peruvian_match_interrogative-partial-wh_Por-que-iba-a-Bolivia.wav,./stim/wavs/puertorican_match_interrogative-partial-wh_Por-que-iba-a-Bolivia.wav,,,,,,,,,,,,,,,,,,,,,,,,,,,,,,,,,,,,,,,,,,,,,,,,,,,,,,,,
,,,,,,,5844812dc5bc3a0001a4d553,605b45a4d25f287719a41696,605fb6d9b3d3a7719bc0b1a2,Mexico,East coast,13 or older,no,2021-03-27_17h51.39.795,empathy_intonation_perc,2020.2.10,MacIntel,60,,,,,,,,,,1,cuban,0,0,1.17184,0,54,54,59,1,60,./stim/wavs/andalusian_mismatch_interrogative-total-yn_La-maestra-vive-en-Paris.wav,./stim/wavs/argentine_mismatch_interrogative-total-yn_La-maestra-vive-en-Paris.wav,./stim/wavs/castilian_mismatch_interrogative-total-yn_La-maestra-vive-en-Paris.wav,./stim/wavs/chilean_mismatch_interrogative-total-yn_La-maestra-vive-en-Paris.wav,./stim/wavs/cuban_mismatch_interrogative-total-yn_La-maestra-vive-en-Paris.wav,./stim/wavs/mexican_mismatch_interrogative-total-yn_La-maestra-vive-en-Paris.wav,./stim/wavs/peruvian_mismatch_interrogative-total-yn_La-maestra-vive-en-Paris.wav,./stim/wavs/puertorican_mismatch_interrogative-total-yn_La-maestra-vive-en-Paris.wav,,,,,,,,,,,,,,,,,,,,,,,,,,,,,,,,,,,,,,,,,,,,,,,,,,,,,,,,
,,,,,,,5844812dc5bc3a0001a4d553,605b45a4d25f287719a41696,605fb6d9b3d3a7719bc0b1a2,Mexico,East coast,13 or older,no,2021-03-27_17h51.39.795,empathy_intonation_perc,2020.2.10,MacIntel,60,,,,,,,,,,1,andalusian,1,1,1.327505,0,55,55,56,1,57,./stim/wavs/andalusian_mismatch_interrogative-total-yn_El-bebe-comia-muy-bien.wav,./stim/wavs/argentine_mismatch_interrogative-total-yn_El-bebe-comia-muy-bien.wav,./stim/wavs/castilian_mismatch_interrogative-total-yn_El-bebe-comia-muy-bien.wav,./stim/wavs/chilean_mismatch_interrogative-total-yn_El-bebe-comia-muy-bien.wav,./stim/wavs/cuban_mismatch_interrogative-total-yn_El-bebe-comia-muy-bien.wav,./stim/wavs/mexican_mismatch_interrogative-total-yn_El-bebe-comia-muy-bien.wav,./stim/wavs/peruvian_mismatch_interrogative-total-yn_El-bebe-comia-muy-bien.wav,./stim/wavs/puertorican_mismatch_interrogative-total-yn_El-bebe-comia-muy-bien.wav,,,,,,,,,,,,,,,,,,,,,,,,,,,,,,,,,,,,,,,,,,,,,,,,,,,,,,,,
,,,,,,,5844812dc5bc3a0001a4d553,605b45a4d25f287719a41696,605fb6d9b3d3a7719bc0b1a2,Mexico,East coast,13 or older,no,2021-03-27_17h51.39.795,empathy_intonation_perc,2020.2.10,MacIntel,60,,,,,,,,,,0,chilean,0,1,1.28729,0,56,56,10,1,11,./stim/wavs/andalusian_match_declarative-narrow-focus_David-leia-el-libro.wav,./stim/wavs/argentine_match_declarative-narrow-focus_David-leia-el-libro.wav,./stim/wavs/castilian_match_declarative-narrow-focus_David-leia-el-libro.wav,./stim/wavs/chilean_match_declarative-narrow-focus_David-leia-el-libro.wav,./stim/wavs/cuban_match_declarative-narrow-focus_David-leia-el-libro.wav,./stim/wavs/mexican_match_declarative-narrow-focus_David-leia-el-libro.wav,./stim/wavs/peruvian_match_declarative-narrow-focus_David-leia-el-libro.wav,./stim/wavs/puertorican_match_declarative-narrow-focus_David-leia-el-libro.wav,,,,,,,,,,,,,,,,,,,,,,,,,,,,,,,,,,,,,,,,,,,,,,,,,,,,,,,,
,,,,,,,5844812dc5bc3a0001a4d553,605b45a4d25f287719a41696,605fb6d9b3d3a7719bc0b1a2,Mexico,East coast,13 or older,no,2021-03-27_17h51.39.795,empathy_intonation_perc,2020.2.10,MacIntel,60,,,,,,,,,,1,andalusian,1,1,1.489435,0,57,57,57,1,58,./stim/wavs/andalusian_mismatch_interrogative-total-yn_El-hombre-mira-la-luna.wav,./stim/wavs/argentine_mismatch_interrogative-total-yn_El-hombre-mira-la-luna.wav,./stim/wavs/castilian_mismatch_interrogative-total-yn_El-hombre-mira-la-luna.wav,./stim/wavs/chilean_mismatch_interrogative-total-yn_El-hombre-mira-la-luna.wav,./stim/wavs/cuban_mismatch_interrogative-total-yn_El-hombre-mira-la-luna.wav,./stim/wavs/mexican_mismatch_interrogative-total-yn_El-hombre-mira-la-luna.wav,./stim/wavs/peruvian_mismatch_interrogative-total-yn_El-hombre-mira-la-luna.wav,./stim/wavs/puertorican_mismatch_interrogative-total-yn_El-hombre-mira-la-luna.wav,,,,,,,,,,,,,,,,,,,,,,,,,,,,,,,,,,,,,,,,,,,,,,,,,,,,,,,,
,,,,,,,5844812dc5bc3a0001a4d553,605b45a4d25f287719a41696,605fb6d9b3d3a7719bc0b1a2,Mexico,East coast,13 or older,no,2021-03-27_17h51.39.795,empathy_intonation_perc,2020.2.10,MacIntel,60,,,,,,,,,,1,argentine,1,1,1.04234,0,58,58,51,1,52,./stim/wavs/andalusian_mismatch_interrogative-partial-wh_Por-que-desayuna-muy-bien.wav,./stim/wavs/argentine_mismatch_interrogative-partial-wh_Por-que-desayuna-muy-bien.wav,./stim/wavs/castilian_mismatch_interrogative-partial-wh_Por-que-desayuna-muy-bien.wav,./stim/wavs/chilean_mismatch_interrogative-partial-wh_Por-que-desayuna-muy-bien.wav,./stim/wavs/cuban_mismatch_interrogative-partial-wh_Por-que-desayuna-muy-bien.wav,./stim/wavs/mexican_mismatch_interrogative-partial-wh_Por-que-desayuna-muy-bien.wav,./stim/wavs/peruvian_mismatch_interrogative-partial-wh_Por-que-desayuna-muy-bien.wav,./stim/wavs/puertorican_mismatch_interrogative-partial-wh_Por-que-desayuna-muy-bien.wav,,,,,,,,,,,,,,,,,,,,,,,,,,,,,,,,,,,,,,,,,,,,,,,,,,,,,,,,
,,,,,,,5844812dc5bc3a0001a4d553,605b45a4d25f287719a41696,605fb6d9b3d3a7719bc0b1a2,Mexico,East coast,13 or older,no,2021-03-27_17h51.39.795,empathy_intonation_perc,2020.2.10,MacIntel,60,,,,,,,,,,1,chilean,0,0,0.874785,0,59,59,61,1,62,./stim/wavs/andalusian_mismatch_interrogative-total-yn_Mi-madre-come-la-fruta.wav,./stim/wavs/argentine_mismatch_interrogative-total-yn_Mi-madre-come-la-fruta.wav,./stim/wavs/castilian_mismatch_interrogative-total-yn_Mi-madre-come-la-fruta.wav,./stim/wavs/chilean_mismatch_interrogative-total-yn_Mi-madre-come-la-fruta.wav,./stim/wavs/cuban_mismatch_interrogative-total-yn_Mi-madre-come-la-fruta.wav,./stim/wavs/mexican_mismatch_interrogative-total-yn_Mi-madre-come-la-fruta.wav,./stim/wavs/peruvian_mismatch_interrogative-total-yn_Mi-madre-come-la-fruta.wav,./stim/wavs/puertorican_mismatch_interrogative-total-yn_Mi-madre-come-la-fruta.wav,,,,,,,,,,,,,,,,,,,,,,,,,,,,,,,,,,,,,,,,,,,,,,,,,,,,,,,,
,,,,,,,5844812dc5bc3a0001a4d553,605b45a4d25f287719a41696,605fb6d9b3d3a7719bc0b1a2,Mexico,East coast,13 or older,no,2021-03-27_17h51.39.795,empathy_intonation_perc,2020.2.10,MacIntel,60,,,,,,,,,,1,andalusian,1,1,0.87102,0,60,60,18,1,19,./stim/wavs/andalusian_match_interrogative-partial-wh_Cuando-lleva-el-abrigo.wav,./stim/wavs/argentine_match_interrogative-partial-wh_Cuando-lleva-el-abrigo.wav,./stim/wavs/castilian_match_interrogative-partial-wh_Cuando-lleva-el-abrigo.wav,./stim/wavs/chilean_match_interrogative-partial-wh_Cuando-lleva-el-abrigo.wav,./stim/wavs/cuban_match_interrogative-partial-wh_Cuando-lleva-el-abrigo.wav,./stim/wavs/mexican_match_interrogative-partial-wh_Cuando-lleva-el-abrigo.wav,./stim/wavs/peruvian_match_interrogative-partial-wh_Cuando-lleva-el-abrigo.wav,./stim/wavs/puertorican_match_interrogative-partial-wh_Cuando-lleva-el-abrigo.wav,,,,,,,,,,,,,,,,,,,,,,,,,,,,,,,,,,,,,,,,,,,,,,,,,,,,,,,,
,,,,,,,5844812dc5bc3a0001a4d553,605b45a4d25f287719a41696,605fb6d9b3d3a7719bc0b1a2,Mexico,East coast,13 or older,no,2021-03-27_17h51.39.795,empathy_intonation_perc,2020.2.10,MacIntel,60,,,,,,,,,,1,puertorican,1,1,0.669285,0,61,61,17,1,18,./stim/wavs/andalusian_match_interrogative-partial-wh_Cuando-leia-el-libro.wav,./stim/wavs/argentine_match_interrogative-partial-wh_Cuando-leia-el-libro.wav,./stim/wavs/castilian_match_interrogative-partial-wh_Cuando-leia-el-libro.wav,./stim/wavs/chilean_match_interrogative-partial-wh_Cuando-leia-el-libro.wav,./stim/wavs/cuban_match_interrogative-partial-wh_Cuando-leia-el-libro.wav,./stim/wavs/mexican_match_interrogative-partial-wh_Cuando-leia-el-libro.wav,./stim/wavs/peruvian_match_interrogative-partial-wh_Cuando-leia-el-libro.wav,./stim/wavs/puertorican_match_interrogative-partial-wh_Cuando-leia-el-libro.wav,,,,,,,,,,,,,,,,,,,,,,,,,,,,,,,,,,,,,,,,,,,,,,,,,,,,,,,,
,,,,,,,5844812dc5bc3a0001a4d553,605b45a4d25f287719a41696,605fb6d9b3d3a7719bc0b1a2,Mexico,East coast,13 or older,no,2021-03-27_17h51.39.795,empathy_intonation_perc,2020.2.10,MacIntel,60,,,,,,,,,,1,castilian,1,1,1.27174,0,62,62,27,1,28,./stim/wavs/andalusian_match_interrogative-total-yn_Emilio-ama-la-marcha.wav,./stim/wavs/argentine_match_interrogative-total-yn_Emilio-ama-la-marcha.wav,./stim/wavs/castilian_match_interrogative-total-yn_Emilio-ama-la-marcha.wav,./stim/wavs/chilean_match_interrogative-total-yn_Emilio-ama-la-marcha.wav,./stim/wavs/cuban_match_interrogative-total-yn_Emilio-ama-la-marcha.wav,./stim/wavs/mexican_match_interrogative-total-yn_Emilio-ama-la-marcha.wav,./stim/wavs/peruvian_match_interrogative-total-yn_Emilio-ama-la-marcha.wav,./stim/wavs/puertorican_match_interrogative-total-yn_Emilio-ama-la-marcha.wav,,,,,,,,,,,,,,,,,,,,,,,,,,,,,,,,,,,,,,,,,,,,,,,,,,,,,,,,
,,,,,,,5844812dc5bc3a0001a4d553,605b45a4d25f287719a41696,605fb6d9b3d3a7719bc0b1a2,Mexico,East coast,13 or older,no,2021-03-27_17h51.39.795,empathy_intonation_perc,2020.2.10,MacIntel,60,,,,,,,,,,0,puertorican,0,1,2.426515,0,63,63,33,1,34,./stim/wavs/andalusian_mismatch_declarative-broad-focus_El-hombre-mira-la-luna.wav,./stim/wavs/argentine_mismatch_declarative-broad-focus_El-hombre-mira-la-luna.wav,./stim/wavs/castilian_mismatch_declarative-broad-focus_El-hombre-mira-la-luna.wav,./stim/wavs/chilean_mismatch_declarative-broad-focus_El-hombre-mira-la-luna.wav,./stim/wavs/cuban_mismatch_declarative-broad-focus_El-hombre-mira-la-luna.wav,./stim/wavs/mexican_mismatch_declarative-broad-focus_El-hombre-mira-la-luna.wav,./stim/wavs/peruvian_mismatch_declarative-broad-focus_El-hombre-mira-la-luna.wav,./stim/wavs/puertorican_mismatch_declarative-broad-focus_El-hombre-mira-la-luna.wav,,,,,,,,,,,,,,,,,,,,,,,,,,,,,,,,,,,,,,,,,,,,,,,,,,,,,,,,
,,,,,,,5844812dc5bc3a0001a4d553,605b45a4d25f287719a41696,605fb6d9b3d3a7719bc0b1a2,Mexico,East coast,13 or older,no,2021-03-27_17h51.39.795,empathy_intonation_perc,2020.2.10,MacIntel,60,,,,,,,,,,,,,,,,,,,,,,,,,,,,,h,1,8.900155,0,0,0,0,1,,,,,,,,,,,,,,,,,,,,,,,,,,,,,,,,,,,,,,,,,,,,,,,,
,,,,,"Great! Now we will move on. The next task consists of about 60 trials, in each of which you will see a string of letters. 
  
  Your task is to decide whether this is a real Spanish word or not.",(press the spacebar to continue),5844812dc5bc3a0001a4d553,605b45a4d25f287719a41696,605fb6d9b3d3a7719bc0b1a2,Mexico,East coast,13 or older,no,2021-03-27_17h51.39.795,empathy_intonation_perc,2020.2.10,MacIntel,60,,,,,,,,,,,,,,,,,,,,,,,,,,,,,,,,,,,,,0,0,0,0,1,,,,,,,,,,,,,,,,,,,,,,,,,,,,,,,,,,,,,,,,,,,
,,,,,"If you think it is an existing Spanish word, you type '1' (for 'REAL'), and if you think it is not an existing Spanish word, you type '0' (for 'FAKE').",(press the spacebar to continue),5844812dc5bc3a0001a4d553,605b45a4d25f287719a41696,605fb6d9b3d3a7719bc0b1a2,Mexico,East coast,13 or older,no,2021-03-27_17h51.39.795,empathy_intonation_perc,2020.2.10,MacIntel,60,,,,,,,,,,,,,,,,,,,,,,,,,,,,,,,,,,,,,0,1,1,1,1,,,,,,,,,,,,,,,,,,,,,,,,,,,,,,,,,,,,,,,,,,,
,,,,,"If you are sure that the word exists, even though you dont know its exact meaning, you may still respond '1' (REAL). 
  
  But if you are not sure if it is an existing word, you should respond '0' (FAKE).
  
  Let's do a practice round...",(press the spacebar to continue),5844812dc5bc3a0001a4d553,605b45a4d25f287719a41696,605fb6d9b3d3a7719bc0b1a2,Mexico,East coast,13 or older,no,2021-03-27_17h51.39.795,empathy_intonation_perc,2020.2.10,MacIntel,60,,,,,,,,,,,,,,,,,,,,,,,,,,,,,,,,,,,,,0,2,2,2,1,,,,,,,,,,,,,,,,,,,,,,,,,,,,,,,,,,,,,,,,,,,
,,,,,,,5844812dc5bc3a0001a4d553,605b45a4d25f287719a41696,605fb6d9b3d3a7719bc0b1a2,Mexico,East coast,13 or older,no,2021-03-27_17h51.39.795,empathy_intonation_perc,2020.2.10,MacIntel,60,,,,,,,,,,0,,,,,,,,,,,,,,,,,,,,,,,,,,,,,,,,0,1,1.887055,0,0,0,0,1,0,depiste,REAL,FAKE,,,,,,,,,,,,,,,,,,,,,,,,,,,,,,,
,,,,,,,5844812dc5bc3a0001a4d553,605b45a4d25f287719a41696,605fb6d9b3d3a7719bc0b1a2,Mexico,East coast,13 or older,no,2021-03-27_17h51.39.795,empathy_intonation_perc,2020.2.10,MacIntel,60,,,,,,,,,,1,,,,,,,,,,,,,,,,,,,,,,,,,,,,,,,,1,1,1.206235,0,1,1,1,1,0,s,REAL,FAKE,,,,,,,,,,,,,,,,,,,,,,,,,,,,,,,
,,,,,,,5844812dc5bc3a0001a4d553,605b45a4d25f287719a41696,605fb6d9b3d3a7719bc0b1a2,Mexico,East coast,13 or older,no,2021-03-27_17h51.39.795,empathy_intonation_perc,2020.2.10,MacIntel,60,,,,,,,,,,0,,,,,,,,,,,,,,,,,,,,,,,,,,,,,,,,1,0,1.826015,0,2,2,2,1,0,con,REAL,FAKE,,,,,,,,,,,,,,,,,,,,,,,,,,,,,,,
,,,,,,,5844812dc5bc3a0001a4d553,605b45a4d25f287719a41696,605fb6d9b3d3a7719bc0b1a2,Mexico,East coast,13 or older,no,2021-03-27_17h51.39.795,empathy_intonation_perc,2020.2.10,MacIntel,60,,,,,,,,,,0,,,,,,,,,,,,,,,,,,,,,,,,,,,,,,,,0,1,1.37349,0,3,3,3,1,0,calpar,REAL,FAKE,,,,,,,,,,,,,,,,,,,,,,,,,,,,,,,
,,,,,,,5844812dc5bc3a0001a4d553,605b45a4d25f287719a41696,605fb6d9b3d3a7719bc0b1a2,Mexico,East coast,13 or older,no,2021-03-27_17h51.39.795,empathy_intonation_perc,2020.2.10,MacIntel,60,,,,,,,,,,0,,,,,,,,,,,,,,,,,,,,,,,,,,,,,,,,0,1,1.72349,0,4,4,4,1,0,joten,REAL,FAKE,,,,,,,,,,,,,,,,,,,,,,,,,,,,,,,
,,,,,,,5844812dc5bc3a0001a4d553,605b45a4d25f287719a41696,605fb6d9b3d3a7719bc0b1a2,Mexico,East coast,13 or older,no,2021-03-27_17h51.39.795,empathy_intonation_perc,2020.2.10,MacIntel,60,,,,,,,,,,1,,,,,,,,,,,,,,,,,,,,,,,,,,,,,,,,0,0,1.409005,0,5,5,5,1,0,sacapuntas,REAL,FAKE,,,,,,,,,,,,,,,,,,,,,,,,,,,,,,,
,,,,,,,5844812dc5bc3a0001a4d553,605b45a4d25f287719a41696,605fb6d9b3d3a7719bc0b1a2,Mexico,East coast,13 or older,no,2021-03-27_17h51.39.795,empathy_intonation_perc,2020.2.10,MacIntel,60,,,,,,,,,,0,,,,,,,,,,,,,,,,,,,,,,,,,,,,,,,,1,0,1.32278,0,6,6,6,1,0,priba,REAL,FAKE,,,,,,,,,,,,,,,,,,,,,,,,,,,,,,,
,,,,,,,5844812dc5bc3a0001a4d553,605b45a4d25f287719a41696,605fb6d9b3d3a7719bc0b1a2,Mexico,East coast,13 or older,no,2021-03-27_17h51.39.795,empathy_intonation_perc,2020.2.10,MacIntel,60,,,,,,,,,,0,,,,,,,,,,,,,,,,,,,,,,,,,,,,,,,,1,0,2.742785,0,7,7,7,1,0,pelasula,REAL,FAKE,,,,,,,,,,,,,,,,,,,,,,,,,,,,,,,
,,,,,,,5844812dc5bc3a0001a4d553,605b45a4d25f287719a41696,605fb6d9b3d3a7719bc0b1a2,Mexico,East coast,13 or older,no,2021-03-27_17h51.39.795,empathy_intonation_perc,2020.2.10,MacIntel,60,,,,,,,,,,1,,,,,,,,,,,,,,,,,,,,,,,,,,,,,,,,1,1,0.80374,0,8,8,8,1,0,bien,REAL,FAKE,,,,,,,,,,,,,,,,,,,,,,,,,,,,,,,
,,,,,,,5844812dc5bc3a0001a4d553,605b45a4d25f287719a41696,605fb6d9b3d3a7719bc0b1a2,Mexico,East coast,13 or older,no,2021-03-27_17h51.39.795,empathy_intonation_perc,2020.2.10,MacIntel,60,,,,,,,,,,1,,,,,,,,,,,,,,,,,,,,,,,,,,,,,,,,1,1,1.23831,0,9,9,9,1,0,casa,REAL,FAKE,,,,,,,,,,,,,,,,,,,,,,,,,,,,,,,
,,,,,,,5844812dc5bc3a0001a4d553,605b45a4d25f287719a41696,605fb6d9b3d3a7719bc0b1a2,Mexico,East coast,13 or older,no,2021-03-27_17h51.39.795,empathy_intonation_perc,2020.2.10,MacIntel,60,,,,,,,,,,0,,,,,,,,,,,,,,,,,,,,,,,,,,,,,,,,1,0,1.0211,0,10,10,10,1,0,lejo,REAL,FAKE,,,,,,,,,,,,,,,,,,,,,,,,,,,,,,,
,,,,,,,5844812dc5bc3a0001a4d553,605b45a4d25f287719a41696,605fb6d9b3d3a7719bc0b1a2,Mexico,East coast,13 or older,no,2021-03-27_17h51.39.795,empathy_intonation_perc,2020.2.10,MacIntel,60,,,,,,,,,,0,,,,,,,,,,,,,,,,,,,,,,,,,,,,,,,,1,0,3.64873,0,11,11,11,1,0,pretantas,REAL,FAKE,,,,,,,,,,,,,,,,,,,,,,,,,,,,,,,
,,,,,,,5844812dc5bc3a0001a4d553,605b45a4d25f287719a41696,605fb6d9b3d3a7719bc0b1a2,Mexico,East coast,13 or older,no,2021-03-27_17h51.39.795,empathy_intonation_perc,2020.2.10,MacIntel,60,,,,,,,,,,0,,,,,,,,,,,,,,,,,,,,,,,,,,,,,,,,,,,,,,,,58,plaudir,,,0,1,1.990165,0,0,0,57,1,REAL,FAKE,,,,,,,,,,,,,,,,,,,,,
,,,,,,,5844812dc5bc3a0001a4d553,605b45a4d25f287719a41696,605fb6d9b3d3a7719bc0b1a2,Mexico,East coast,13 or older,no,2021-03-27_17h51.39.795,empathy_intonation_perc,2020.2.10,MacIntel,60,,,,,,,,,,0,,,,,,,,,,,,,,,,,,,,,,,,,,,,,,,,,,,,,,,,18,arsa,,,0,1,1.40701,0,1,1,17,1,REAL,FAKE,,,,,,,,,,,,,,,,,,,,,
,,,,,,,5844812dc5bc3a0001a4d553,605b45a4d25f287719a41696,605fb6d9b3d3a7719bc0b1a2,Mexico,East coast,13 or older,no,2021-03-27_17h51.39.795,empathy_intonation_perc,2020.2.10,MacIntel,60,,,,,,,,,,1,,,,,,,,,,,,,,,,,,,,,,,,,,,,,,,,,,,,,,,,71,polvoriento,,,1,1,2.01336,0,2,2,70,1,REAL,FAKE,,,,,,,,,,,,,,,,,,,,,
,,,,,,,5844812dc5bc3a0001a4d553,605b45a4d25f287719a41696,605fb6d9b3d3a7719bc0b1a2,Mexico,East coast,13 or older,no,2021-03-27_17h51.39.795,empathy_intonation_perc,2020.2.10,MacIntel,60,,,,,,,,,,1,,,,,,,,,,,,,,,,,,,,,,,,,,,,,,,,,,,,,,,,60,matar,,,1,1,1.538355,0,3,3,59,1,REAL,FAKE,,,,,,,,,,,,,,,,,,,,,
,,,,,,,5844812dc5bc3a0001a4d553,605b45a4d25f287719a41696,605fb6d9b3d3a7719bc0b1a2,Mexico,East coast,13 or older,no,2021-03-27_17h51.39.795,empathy_intonation_perc,2020.2.10,MacIntel,60,,,,,,,,,,1,,,,,,,,,,,,,,,,,,,,,,,,,,,,,,,,,,,,,,,,2,pellizcar,,,0,0,0.9369,0,4,4,1,1,REAL,FAKE,,,,,,,,,,,,,,,,,,,,,
,,,,,,,5844812dc5bc3a0001a4d553,605b45a4d25f287719a41696,605fb6d9b3d3a7719bc0b1a2,Mexico,East coast,13 or older,no,2021-03-27_17h51.39.795,empathy_intonation_perc,2020.2.10,MacIntel,60,,,,,,,,,,0,,,,,,,,,,,,,,,,,,,,,,,,,,,,,,,,,,,,,,,,47,cartinar,,,1,0,2.05995,0,5,5,46,1,REAL,FAKE,,,,,,,,,,,,,,,,,,,,,
,,,,,,,5844812dc5bc3a0001a4d553,605b45a4d25f287719a41696,605fb6d9b3d3a7719bc0b1a2,Mexico,East coast,13 or older,no,2021-03-27_17h51.39.795,empathy_intonation_perc,2020.2.10,MacIntel,60,,,,,,,,,,1,,,,,,,,,,,,,,,,,,,,,,,,,,,,,,,,,,,,,,,,54,fomentar,,,1,1,1.357205,0,6,6,53,1,REAL,FAKE,,,,,,,,,,,,,,,,,,,,,
,,,,,,,5844812dc5bc3a0001a4d553,605b45a4d25f287719a41696,605fb6d9b3d3a7719bc0b1a2,Mexico,East coast,13 or older,no,2021-03-27_17h51.39.795,empathy_intonation_perc,2020.2.10,MacIntel,60,,,,,,,,,,1,,,,,,,,,,,,,,,,,,,,,,,,,,,,,,,,,,,,,,,,34,aviso,,,1,1,0.98736,0,7,7,33,1,REAL,FAKE,,,,,,,,,,,,,,,,,,,,,
,,,,,,,5844812dc5bc3a0001a4d553,605b45a4d25f287719a41696,605fb6d9b3d3a7719bc0b1a2,Mexico,East coast,13 or older,no,2021-03-27_17h51.39.795,empathy_intonation_perc,2020.2.10,MacIntel,60,,,,,,,,,,1,,,,,,,,,,,,,,,,,,,,,,,,,,,,,,,,,,,,,,,,85,lad,,,0,0,0.76767,0,8,8,84,1,REAL,FAKE,,,,,,,,,,,,,,,,,,,,,
,,,,,,,5844812dc5bc3a0001a4d553,605b45a4d25f287719a41696,605fb6d9b3d3a7719bc0b1a2,Mexico,East coast,13 or older,no,2021-03-27_17h51.39.795,empathy_intonation_perc,2020.2.10,MacIntel,60,,,,,,,,,,1,,,,,,,,,,,,,,,,,,,,,,,,,,,,,,,,,,,,,,,,67,cabello,,,0,0,2.112035,0,9,9,66,1,REAL,FAKE,,,,,,,,,,,,,,,,,,,,,
,,,,,,,5844812dc5bc3a0001a4d553,605b45a4d25f287719a41696,605fb6d9b3d3a7719bc0b1a2,Mexico,East coast,13 or older,no,2021-03-27_17h51.39.795,empathy_intonation_perc,2020.2.10,MacIntel,60,,,,,,,,,,0,,,,,,,,,,,,,,,,,,,,,,,,,,,,,,,,,,,,,,,,16,abracer,,,1,0,1.00639,0,10,10,15,1,REAL,FAKE,,,,,,,,,,,,,,,,,,,,,
,,,,,,,5844812dc5bc3a0001a4d553,605b45a4d25f287719a41696,605fb6d9b3d3a7719bc0b1a2,Mexico,East coast,13 or older,no,2021-03-27_17h51.39.795,empathy_intonation_perc,2020.2.10,MacIntel,60,,,,,,,,,,1,,,,,,,,,,,,,,,,,,,,,,,,,,,,,,,,,,,,,,,,12,asesinato,,,1,1,1.25354,0,11,11,11,1,REAL,FAKE,,,,,,,,,,,,,,,,,,,,,
,,,,,,,5844812dc5bc3a0001a4d553,605b45a4d25f287719a41696,605fb6d9b3d3a7719bc0b1a2,Mexico,East coast,13 or older,no,2021-03-27_17h51.39.795,empathy_intonation_perc,2020.2.10,MacIntel,60,,,,,,,,,,1,,,,,,,,,,,,,,,,,,,,,,,,,,,,,,,,,,,,,,,,48,ladrn,,,0,0,1.220925,0,12,12,47,1,REAL,FAKE,,,,,,,,,,,,,,,,,,,,,
,,,,,,,5844812dc5bc3a0001a4d553,605b45a4d25f287719a41696,605fb6d9b3d3a7719bc0b1a2,Mexico,East coast,13 or older,no,2021-03-27_17h51.39.795,empathy_intonation_perc,2020.2.10,MacIntel,60,,,,,,,,,,1,,,,,,,,,,,,,,,,,,,,,,,,,,,,,,,,,,,,,,,,65,bizcocho,,,1,1,1.55724,0,13,13,64,1,REAL,FAKE,,,,,,,,,,,,,,,,,,,,,
,,,,,,,5844812dc5bc3a0001a4d553,605b45a4d25f287719a41696,605fb6d9b3d3a7719bc0b1a2,Mexico,East coast,13 or older,no,2021-03-27_17h51.39.795,empathy_intonation_perc,2020.2.10,MacIntel,60,,,,,,,,,,0,,,,,,,,,,,,,,,,,,,,,,,,,,,,,,,,,,,,,,,,84,escuto,,,1,0,1.27323,0,14,14,83,1,REAL,FAKE,,,,,,,,,,,,,,,,,,,,,
,,,,,,,5844812dc5bc3a0001a4d553,605b45a4d25f287719a41696,605fb6d9b3d3a7719bc0b1a2,Mexico,East coast,13 or older,no,2021-03-27_17h51.39.795,empathy_intonation_perc,2020.2.10,MacIntel,60,,,,,,,,,,1,,,,,,,,,,,,,,,,,,,,,,,,,,,,,,,,,,,,,,,,46,martillo,,,1,1,2.127765,0,15,15,45,1,REAL,FAKE,,,,,,,,,,,,,,,,,,,,,
,,,,,,,5844812dc5bc3a0001a4d553,605b45a4d25f287719a41696,605fb6d9b3d3a7719bc0b1a2,Mexico,East coast,13 or older,no,2021-03-27_17h51.39.795,empathy_intonation_perc,2020.2.10,MacIntel,60,,,,,,,,,,1,,,,,,,,,,,,,,,,,,,,,,,,,,,,,,,,,,,,,,,,20,vido,,,1,1,0.903705,0,16,16,19,1,REAL,FAKE,,,,,,,,,,,,,,,,,,,,,
,,,,,,,5844812dc5bc3a0001a4d553,605b45a4d25f287719a41696,605fb6d9b3d3a7719bc0b1a2,Mexico,East coast,13 or older,no,2021-03-27_17h51.39.795,empathy_intonation_perc,2020.2.10,MacIntel,60,,,,,,,,,,1,,,,,,,,,,,,,,,,,,,,,,,,,,,,,,,,,,,,,,,,13,helar,,,1,1,0.785615,0,17,17,12,1,REAL,FAKE,,,,,,,,,,,,,,,,,,,,,
,,,,,,,5844812dc5bc3a0001a4d553,605b45a4d25f287719a41696,605fb6d9b3d3a7719bc0b1a2,Mexico,East coast,13 or older,no,2021-03-27_17h51.39.795,empathy_intonation_perc,2020.2.10,MacIntel,60,,,,,,,,,,0,,,,,,,,,,,,,,,,,,,,,,,,,,,,,,,,,,,,,,,,42,cadallo,,,0,1,0.97078,0,18,18,41,1,REAL,FAKE,,,,,,,,,,,,,,,,,,,,,
,,,,,,,5844812dc5bc3a0001a4d553,605b45a4d25f287719a41696,605fb6d9b3d3a7719bc0b1a2,Mexico,East coast,13 or older,no,2021-03-27_17h51.39.795,empathy_intonation_perc,2020.2.10,MacIntel,60,,,,,,,,,,0,,,,,,,,,,,,,,,,,,,,,,,,,,,,,,,,,,,,,,,,23,lampera,,,1,0,1.05311,0,19,19,22,1,REAL,FAKE,,,,,,,,,,,,,,,,,,,,,
,,,,,,,5844812dc5bc3a0001a4d553,605b45a4d25f287719a41696,605fb6d9b3d3a7719bc0b1a2,Mexico,East coast,13 or older,no,2021-03-27_17h51.39.795,empathy_intonation_perc,2020.2.10,MacIntel,60,,,,,,,,,,1,,,,,,,,,,,,,,,,,,,,,,,,,,,,,,,,,,,,,,,,28,merodear,,,0,0,1.86418,0,20,20,27,1,REAL,FAKE,,,,,,,,,,,,,,,,,,,,,
,,,,,,,5844812dc5bc3a0001a4d553,605b45a4d25f287719a41696,605fb6d9b3d3a7719bc0b1a2,Mexico,East coast,13 or older,no,2021-03-27_17h51.39.795,empathy_intonation_perc,2020.2.10,MacIntel,60,,,,,,,,,,1,,,,,,,,,,,,,,,,,,,,,,,,,,,,,,,,,,,,,,,,77,tiburn,,,1,1,1.50507,0,21,21,76,1,REAL,FAKE,,,,,,,,,,,,,,,,,,,,,
,,,,,,,5844812dc5bc3a0001a4d553,605b45a4d25f287719a41696,605fb6d9b3d3a7719bc0b1a2,Mexico,East coast,13 or older,no,2021-03-27_17h51.39.795,empathy_intonation_perc,2020.2.10,MacIntel,60,,,,,,,,,,1,,,,,,,,,,,,,,,,,,,,,,,,,,,,,,,,,,,,,,,,88,acantilado,,,1,1,1.037775,0,22,22,87,1,REAL,FAKE,,,,,,,,,,,,,,,,,,,,,
,,,,,,,5844812dc5bc3a0001a4d553,605b45a4d25f287719a41696,605fb6d9b3d3a7719bc0b1a2,Mexico,East coast,13 or older,no,2021-03-27_17h51.39.795,empathy_intonation_perc,2020.2.10,MacIntel,60,,,,,,,,,,1,,,,,,,,,,,,,,,,,,,,,,,,,,,,,,,,,,,,,,,,7,psimo,,,1,1,0.70724,0,23,23,6,1,REAL,FAKE,,,,,,,,,,,,,,,,,,,,,
,,,,,,,5844812dc5bc3a0001a4d553,605b45a4d25f287719a41696,605fb6d9b3d3a7719bc0b1a2,Mexico,East coast,13 or older,no,2021-03-27_17h51.39.795,empathy_intonation_perc,2020.2.10,MacIntel,60,,,,,,,,,,1,,,,,,,,,,,,,,,,,,,,,,,,,,,,,,,,,,,,,,,,36,loro,,,0,0,0.88722,0,24,24,35,1,REAL,FAKE,,,,,,,,,,,,,,,,,,,,,
,,,,,,,5844812dc5bc3a0001a4d553,605b45a4d25f287719a41696,605fb6d9b3d3a7719bc0b1a2,Mexico,East coast,13 or older,no,2021-03-27_17h51.39.795,empathy_intonation_perc,2020.2.10,MacIntel,60,,,,,,,,,,1,,,,,,,,,,,,,,,,,,,,,,,,,,,,,,,,,,,,,,,,75,yacer,,,0,0,1.104645,0,25,25,74,1,REAL,FAKE,,,,,,,,,,,,,,,,,,,,,
,,,,,,,5844812dc5bc3a0001a4d553,605b45a4d25f287719a41696,605fb6d9b3d3a7719bc0b1a2,Mexico,East coast,13 or older,no,2021-03-27_17h51.39.795,empathy_intonation_perc,2020.2.10,MacIntel,60,,,,,,,,,,0,,,,,,,,,,,,,,,,,,,,,,,,,,,,,,,,,,,,,,,,19,brecedad,,,1,0,1.59132,0,26,26,18,1,REAL,FAKE,,,,,,,,,,,,,,,,,,,,,
,,,,,,,5844812dc5bc3a0001a4d553,605b45a4d25f287719a41696,605fb6d9b3d3a7719bc0b1a2,Mexico,East coast,13 or older,no,2021-03-27_17h51.39.795,empathy_intonation_perc,2020.2.10,MacIntel,60,,,,,,,,,,1,,,,,,,,,,,,,,,,,,,,,,,,,,,,,,,,,,,,,,,,81,pozo,,,1,1,0.67065,0,27,27,80,1,REAL,FAKE,,,,,,,,,,,,,,,,,,,,,
,,,,,,,5844812dc5bc3a0001a4d553,605b45a4d25f287719a41696,605fb6d9b3d3a7719bc0b1a2,Mexico,East coast,13 or older,no,2021-03-27_17h51.39.795,empathy_intonation_perc,2020.2.10,MacIntel,60,,,,,,,,,,1,,,,,,,,,,,,,,,,,,,,,,,,,,,,,,,,,,,,,,,,44,cuchara,,,1,1,1.071605,0,28,28,43,1,REAL,FAKE,,,,,,,,,,,,,,,,,,,,,
,,,,,,,5844812dc5bc3a0001a4d553,605b45a4d25f287719a41696,605fb6d9b3d3a7719bc0b1a2,Mexico,East coast,13 or older,no,2021-03-27_17h51.39.795,empathy_intonation_perc,2020.2.10,MacIntel,60,,,,,,,,,,1,,,,,,,,,,,,,,,,,,,,,,,,,,,,,,,,,,,,,,,,68,alegre,,,1,1,0.853515,0,29,29,67,1,REAL,FAKE,,,,,,,,,,,,,,,,,,,,,
,,,,,,,5844812dc5bc3a0001a4d553,605b45a4d25f287719a41696,605fb6d9b3d3a7719bc0b1a2,Mexico,East coast,13 or older,no,2021-03-27_17h51.39.795,empathy_intonation_perc,2020.2.10,MacIntel,60,,,,,,,,,,0,,,,,,,,,,,,,,,,,,,,,,,,,,,,,,,,,,,,,,,,79,tropaje,,,1,0,0.75309,0,30,30,78,1,REAL,FAKE,,,,,,,,,,,,,,,,,,,,,
,,,,,,,5844812dc5bc3a0001a4d553,605b45a4d25f287719a41696,605fb6d9b3d3a7719bc0b1a2,Mexico,East coast,13 or older,no,2021-03-27_17h51.39.795,empathy_intonation_perc,2020.2.10,MacIntel,60,,,,,,,,,,1,,,,,,,,,,,,,,,,,,,,,,,,,,,,,,,,,,,,,,,,76,atar,,,1,1,0.62054,0,31,31,75,1,REAL,FAKE,,,,,,,,,,,,,,,,,,,,,
,,,,,,,5844812dc5bc3a0001a4d553,605b45a4d25f287719a41696,605fb6d9b3d3a7719bc0b1a2,Mexico,East coast,13 or older,no,2021-03-27_17h51.39.795,empathy_intonation_perc,2020.2.10,MacIntel,60,,,,,,,,,,1,,,,,,,,,,,,,,,,,,,,,,,,,,,,,,,,,,,,,,,,31,pandilla,,,1,1,0.820325,0,32,32,30,1,REAL,FAKE,,,,,,,,,,,,,,,,,,,,,
,,,,,,,5844812dc5bc3a0001a4d553,605b45a4d25f287719a41696,605fb6d9b3d3a7719bc0b1a2,Mexico,East coast,13 or older,no,2021-03-27_17h51.39.795,empathy_intonation_perc,2020.2.10,MacIntel,60,,,,,,,,,,1,,,,,,,,,,,,,,,,,,,,,,,,,,,,,,,,,,,,,,,,22,lacayo,,,0,0,0.620045,0,33,33,21,1,REAL,FAKE,,,,,,,,,,,,,,,,,,,,,
,,,,,,,5844812dc5bc3a0001a4d553,605b45a4d25f287719a41696,605fb6d9b3d3a7719bc0b1a2,Mexico,East coast,13 or older,no,2021-03-27_17h51.39.795,empathy_intonation_perc,2020.2.10,MacIntel,60,,,,,,,,,,0,,,,,,,,,,,,,,,,,,,,,,,,,,,,,,,,,,,,,,,,27,acutacin,,,1,0,1.92431,0,34,34,26,1,REAL,FAKE,,,,,,,,,,,,,,,,,,,,,
,,,,,,,5844812dc5bc3a0001a4d553,605b45a4d25f287719a41696,605fb6d9b3d3a7719bc0b1a2,Mexico,East coast,13 or older,no,2021-03-27_17h51.39.795,empathy_intonation_perc,2020.2.10,MacIntel,60,,,,,,,,,,0,,,,,,,,,,,,,,,,,,,,,,,,,,,,,,,,,,,,,,,,33,pauca,,,0,1,0.85599,0,35,35,32,1,REAL,FAKE,,,,,,,,,,,,,,,,,,,,,
,,,,,,,5844812dc5bc3a0001a4d553,605b45a4d25f287719a41696,605fb6d9b3d3a7719bc0b1a2,Mexico,East coast,13 or older,no,2021-03-27_17h51.39.795,empathy_intonation_perc,2020.2.10,MacIntel,60,,,,,,,,,,1,,,,,,,,,,,,,,,,,,,,,,,,,,,,,,,,,,,,,,,,6,tergiversar,,,0,0,1.157745,0,36,36,5,1,REAL,FAKE,,,,,,,,,,,,,,,,,,,,,
,,,,,,,5844812dc5bc3a0001a4d553,605b45a4d25f287719a41696,605fb6d9b3d3a7719bc0b1a2,Mexico,East coast,13 or older,no,2021-03-27_17h51.39.795,empathy_intonation_perc,2020.2.10,MacIntel,60,,,,,,,,,,1,,,,,,,,,,,,,,,,,,,,,,,,,,,,,,,,,,,,,,,,80,hormiga,,,1,1,1.00339,0,37,37,79,1,REAL,FAKE,,,,,,,,,,,,,,,,,,,,,
,,,,,,,5844812dc5bc3a0001a4d553,605b45a4d25f287719a41696,605fb6d9b3d3a7719bc0b1a2,Mexico,East coast,13 or older,no,2021-03-27_17h51.39.795,empathy_intonation_perc,2020.2.10,MacIntel,60,,,,,,,,,,1,,,,,,,,,,,,,,,,,,,,,,,,,,,,,,,,,,,,,,,,52,camisa,,,1,1,0.935775,0,38,38,51,1,REAL,FAKE,,,,,,,,,,,,,,,,,,,,,
,,,,,,,5844812dc5bc3a0001a4d553,605b45a4d25f287719a41696,605fb6d9b3d3a7719bc0b1a2,Mexico,East coast,13 or older,no,2021-03-27_17h51.39.795,empathy_intonation_perc,2020.2.10,MacIntel,60,,,,,,,,,,0,,,,,,,,,,,,,,,,,,,,,,,,,,,,,,,,,,,,,,,,82,empirador,,,1,0,0.687575,0,39,39,81,1,REAL,FAKE,,,,,,,,,,,,,,,,,,,,,
,,,,,,,5844812dc5bc3a0001a4d553,605b45a4d25f287719a41696,605fb6d9b3d3a7719bc0b1a2,Mexico,East coast,13 or older,no,2021-03-27_17h51.39.795,empathy_intonation_perc,2020.2.10,MacIntel,60,,,,,,,,,,1,,,,,,,,,,,,,,,,,,,,,,,,,,,,,,,,,,,,,,,,64,orgulloso,,,0,0,1.122585,0,40,40,63,1,REAL,FAKE,,,,,,,,,,,,,,,,,,,,,
,,,,,,,5844812dc5bc3a0001a4d553,605b45a4d25f287719a41696,605fb6d9b3d3a7719bc0b1a2,Mexico,East coast,13 or older,no,2021-03-27_17h51.39.795,empathy_intonation_perc,2020.2.10,MacIntel,60,,,,,,,,,,1,,,,,,,,,,,,,,,,,,,,,,,,,,,,,,,,,,,,,,,,45,jilguero,,,1,1,1.372275,0,41,41,44,1,REAL,FAKE,,,,,,,,,,,,,,,,,,,,,
,,,,,,,5844812dc5bc3a0001a4d553,605b45a4d25f287719a41696,605fb6d9b3d3a7719bc0b1a2,Mexico,East coast,13 or older,no,2021-03-27_17h51.39.795,empathy_intonation_perc,2020.2.10,MacIntel,60,,,,,,,,,,0,,,,,,,,,,,,,,,,,,,,,,,,,,,,,,,,,,,,,,,,72,pemicin,,,0,1,0.970495,0,42,42,71,1,REAL,FAKE,,,,,,,,,,,,,,,,,,,,,
,,,,,,,5844812dc5bc3a0001a4d553,605b45a4d25f287719a41696,605fb6d9b3d3a7719bc0b1a2,Mexico,East coast,13 or older,no,2021-03-27_17h51.39.795,empathy_intonation_perc,2020.2.10,MacIntel,60,,,,,,,,,,0,,,,,,,,,,,,,,,,,,,,,,,,,,,,,,,,,,,,,,,,21,capillo,,,1,0,0.95475,0,43,43,20,1,REAL,FAKE,,,,,,,,,,,,,,,,,,,,,
,,,,,,,5844812dc5bc3a0001a4d553,605b45a4d25f287719a41696,605fb6d9b3d3a7719bc0b1a2,Mexico,East coast,13 or older,no,2021-03-27_17h51.39.795,empathy_intonation_perc,2020.2.10,MacIntel,60,,,,,,,,,,0,,,,,,,,,,,,,,,,,,,,,,,,,,,,,,,,,,,,,,,,10,antar,,,0,1,1.25553,0,44,44,9,1,REAL,FAKE,,,,,,,,,,,,,,,,,,,,,
,,,,,,,5844812dc5bc3a0001a4d553,605b45a4d25f287719a41696,605fb6d9b3d3a7719bc0b1a2,Mexico,East coast,13 or older,no,2021-03-27_17h51.39.795,empathy_intonation_perc,2020.2.10,MacIntel,60,,,,,,,,,,1,,,,,,,,,,,,,,,,,,,,,,,,,,,,,,,,,,,,,,,,39,torpe,,,0,0,0.956125,0,45,45,38,1,REAL,FAKE,,,,,,,,,,,,,,,,,,,,,
,,,,,,,5844812dc5bc3a0001a4d553,605b45a4d25f287719a41696,605fb6d9b3d3a7719bc0b1a2,Mexico,East coast,13 or older,no,2021-03-27_17h51.39.795,empathy_intonation_perc,2020.2.10,MacIntel,60,,,,,,,,,,1,,,,,,,,,,,,,,,,,,,,,,,,,,,,,,,,,,,,,,,,56,musgo,,,0,0,0.842345,0,46,46,55,1,REAL,FAKE,,,,,,,,,,,,,,,,,,,,,
,,,,,,,5844812dc5bc3a0001a4d553,605b45a4d25f287719a41696,605fb6d9b3d3a7719bc0b1a2,Mexico,East coast,13 or older,no,2021-03-27_17h51.39.795,empathy_intonation_perc,2020.2.10,MacIntel,60,,,,,,,,,,1,,,,,,,,,,,,,,,,,,,,,,,,,,,,,,,,,,,,,,,,86,barato,,,1,1,0.71977,0,47,47,85,1,REAL,FAKE,,,,,,,,,,,,,,,,,,,,,
,,,,,,,5844812dc5bc3a0001a4d553,605b45a4d25f287719a41696,605fb6d9b3d3a7719bc0b1a2,Mexico,East coast,13 or older,no,2021-03-27_17h51.39.795,empathy_intonation_perc,2020.2.10,MacIntel,60,,,,,,,,,,0,,,,,,,,,,,,,,,,,,,,,,,,,,,,,,,,,,,,,,,,70,temblo,,,0,1,1.020185,0,48,48,69,1,REAL,FAKE,,,,,,,,,,,,,,,,,,,,,
,,,,,,,5844812dc5bc3a0001a4d553,605b45a4d25f287719a41696,605fb6d9b3d3a7719bc0b1a2,Mexico,East coast,13 or older,no,2021-03-27_17h51.39.795,empathy_intonation_perc,2020.2.10,MacIntel,60,,,,,,,,,,1,,,,,,,,,,,,,,,,,,,,,,,,,,,,,,,,,,,,,,,,26,secuestro,,,1,1,1.153605,0,49,49,25,1,REAL,FAKE,,,,,,,,,,,,,,,,,,,,,
,,,,,,,5844812dc5bc3a0001a4d553,605b45a4d25f287719a41696,605fb6d9b3d3a7719bc0b1a2,Mexico,East coast,13 or older,no,2021-03-27_17h51.39.795,empathy_intonation_perc,2020.2.10,MacIntel,60,,,,,,,,,,1,,,,,,,,,,,,,,,,,,,,,,,,,,,,,,,,,,,,,,,,62,flaco,,,1,1,0.8539,0,50,50,61,1,REAL,FAKE,,,,,,,,,,,,,,,,,,,,,
,,,,,,,5844812dc5bc3a0001a4d553,605b45a4d25f287719a41696,605fb6d9b3d3a7719bc0b1a2,Mexico,East coast,13 or older,no,2021-03-27_17h51.39.795,empathy_intonation_perc,2020.2.10,MacIntel,60,,,,,,,,,,0,,,,,,,,,,,,,,,,,,,,,,,,,,,,,,,,,,,,,,,,35,rompido,,,1,0,1.337245,0,51,51,34,1,REAL,FAKE,,,,,,,,,,,,,,,,,,,,,
,,,,,,,5844812dc5bc3a0001a4d553,605b45a4d25f287719a41696,605fb6d9b3d3a7719bc0b1a2,Mexico,East coast,13 or older,no,2021-03-27_17h51.39.795,empathy_intonation_perc,2020.2.10,MacIntel,60,,,,,,,,,,1,,,,,,,,,,,,,,,,,,,,,,,,,,,,,,,,,,,,,,,,78,frondoso,,,0,0,0.719795,0,52,52,77,1,REAL,FAKE,,,,,,,,,,,,,,,,,,,,,
,,,,,,,5844812dc5bc3a0001a4d553,605b45a4d25f287719a41696,605fb6d9b3d3a7719bc0b1a2,Mexico,East coast,13 or older,no,2021-03-27_17h51.39.795,empathy_intonation_perc,2020.2.10,MacIntel,60,,,,,,,,,,1,,,,,,,,,,,,,,,,,,,,,,,,,,,,,,,,,,,,,,,,89,prisa,,,1,1,1.47329,0,53,53,88,1,REAL,FAKE,,,,,,,,,,,,,,,,,,,,,
,,,,,,,5844812dc5bc3a0001a4d553,605b45a4d25f287719a41696,605fb6d9b3d3a7719bc0b1a2,Mexico,East coast,13 or older,no,2021-03-27_17h51.39.795,empathy_intonation_perc,2020.2.10,MacIntel,60,,,,,,,,,,1,,,,,,,,,,,,,,,,,,,,,,,,,,,,,,,,,,,,,,,,11,cenefa,,,0,0,0.75364,0,54,54,10,1,REAL,FAKE,,,,,,,,,,,,,,,,,,,,,
,,,,,,,5844812dc5bc3a0001a4d553,605b45a4d25f287719a41696,605fb6d9b3d3a7719bc0b1a2,Mexico,East coast,13 or older,no,2021-03-27_17h51.39.795,empathy_intonation_perc,2020.2.10,MacIntel,60,,,,,,,,,,1,,,,,,,,,,,,,,,,,,,,,,,,,,,,,,,,,,,,,,,,38,estornudar,,,0,0,1.389045,0,55,55,37,1,REAL,FAKE,,,,,,,,,,,,,,,,,,,,,
,,,,,,,5844812dc5bc3a0001a4d553,605b45a4d25f287719a41696,605fb6d9b3d3a7719bc0b1a2,Mexico,East coast,13 or older,no,2021-03-27_17h51.39.795,empathy_intonation_perc,2020.2.10,MacIntel,60,,,,,,,,,,0,,,,,,,,,,,,,,,,,,,,,,,,,,,,,,,,,,,,,,,,50,flamida,,,0,1,1.087615,0,56,56,49,1,REAL,FAKE,,,,,,,,,,,,,,,,,,,,,
,,,,,,,5844812dc5bc3a0001a4d553,605b45a4d25f287719a41696,605fb6d9b3d3a7719bc0b1a2,Mexico,East coast,13 or older,no,2021-03-27_17h51.39.795,empathy_intonation_perc,2020.2.10,MacIntel,60,,,,,,,,,,0,,,,,,,,,,,,,,,,,,,,,,,,,,,,,,,,,,,,,,,,4,batilln,,,1,0,0.837065,0,57,57,3,1,REAL,FAKE,,,,,,,,,,,,,,,,,,,,,
,,,,,,,5844812dc5bc3a0001a4d553,605b45a4d25f287719a41696,605fb6d9b3d3a7719bc0b1a2,Mexico,East coast,13 or older,no,2021-03-27_17h51.39.795,empathy_intonation_perc,2020.2.10,MacIntel,60,,,,,,,,,,0,,,,,,,,,,,,,,,,,,,,,,,,,,,,,,,,,,,,,,,,17,floroso,,,1,0,0.776305,0,58,58,16,1,REAL,FAKE,,,,,,,,,,,,,,,,,,,,,
,,,,,,,5844812dc5bc3a0001a4d553,605b45a4d25f287719a41696,605fb6d9b3d3a7719bc0b1a2,Mexico,East coast,13 or older,no,2021-03-27_17h51.39.795,empathy_intonation_perc,2020.2.10,MacIntel,60,,,,,,,,,,0,,,,,,,,,,,,,,,,,,,,,,,,,,,,,,,,,,,,,,,,63,esposante,,,1,0,1.019695,0,59,59,62,1,REAL,FAKE,,,,,,,,,,,,,,,,,,,,,
,,,,,,,5844812dc5bc3a0001a4d553,605b45a4d25f287719a41696,605fb6d9b3d3a7719bc0b1a2,Mexico,East coast,13 or older,no,2021-03-27_17h51.39.795,empathy_intonation_perc,2020.2.10,MacIntel,60,,,,,,,,,,1,,,,,,,,,,,,,,,,,,,,,,,,,,,,,,,,,,,,,,,,55,nevar,,,0,0,0.904035,0,60,60,54,1,REAL,FAKE,,,,,,,,,,,,,,,,,,,,,
,,,,,,,5844812dc5bc3a0001a4d553,605b45a4d25f287719a41696,605fb6d9b3d3a7719bc0b1a2,Mexico,East coast,13 or older,no,2021-03-27_17h51.39.795,empathy_intonation_perc,2020.2.10,MacIntel,60,,,,,,,,,,0,,,,,,,,,,,,,,,,,,,,,,,,,,,,,,,,,,,,,,,,66,hacido,,,1,0,1.03799,0,61,61,65,1,REAL,FAKE,,,,,,,,,,,,,,,,,,,,,
,,,,,,,5844812dc5bc3a0001a4d553,605b45a4d25f287719a41696,605fb6d9b3d3a7719bc0b1a2,Mexico,East coast,13 or older,no,2021-03-27_17h51.39.795,empathy_intonation_perc,2020.2.10,MacIntel,60,,,,,,,,,,1,,,,,,,,,,,,,,,,,,,,,,,,,,,,,,,,,,,,,,,,73,hervidor,,,1,1,0.769845,0,62,62,72,1,REAL,FAKE,,,,,,,,,,,,,,,,,,,,,
,,,,,,,5844812dc5bc3a0001a4d553,605b45a4d25f287719a41696,605fb6d9b3d3a7719bc0b1a2,Mexico,East coast,13 or older,no,2021-03-27_17h51.39.795,empathy_intonation_perc,2020.2.10,MacIntel,60,,,,,,,,,,1,,,,,,,,,,,,,,,,,,,,,,,,,,,,,,,,,,,,,,,,40,alfombra,,,0,0,0.71989,0,63,63,39,1,REAL,FAKE,,,,,,,,,,,,,,,,,,,,,
,,,,,,,5844812dc5bc3a0001a4d553,605b45a4d25f287719a41696,605fb6d9b3d3a7719bc0b1a2,Mexico,East coast,13 or older,no,2021-03-27_17h51.39.795,empathy_intonation_perc,2020.2.10,MacIntel,60,,,,,,,,,,0,,,,,,,,,,,,,,,,,,,,,,,,,,,,,,,,,,,,,,,,30,alardio,,,0,1,1.07451,0,64,64,29,1,REAL,FAKE,,,,,,,,,,,,,,,,,,,,,
,,,,,,,5844812dc5bc3a0001a4d553,605b45a4d25f287719a41696,605fb6d9b3d3a7719bc0b1a2,Mexico,East coast,13 or older,no,2021-03-27_17h51.39.795,empathy_intonation_perc,2020.2.10,MacIntel,60,,,,,,,,,,0,,,,,,,,,,,,,,,,,,,,,,,,,,,,,,,,,,,,,,,,53,vegada,,,0,1,0.869795,0,65,65,52,1,REAL,FAKE,,,,,,,,,,,,,,,,,,,,,
,,,,,,,5844812dc5bc3a0001a4d553,605b45a4d25f287719a41696,605fb6d9b3d3a7719bc0b1a2,Mexico,East coast,13 or older,no,2021-03-27_17h51.39.795,empathy_intonation_perc,2020.2.10,MacIntel,60,,,,,,,,,,1,,,,,,,,,,,,,,,,,,,,,,,,,,,,,,,,,,,,,,,,37,granuja,,,1,1,0.90269,0,66,66,36,1,REAL,FAKE,,,,,,,,,,,,,,,,,,,,,
,,,,,,,5844812dc5bc3a0001a4d553,605b45a4d25f287719a41696,605fb6d9b3d3a7719bc0b1a2,Mexico,East coast,13 or older,no,2021-03-27_17h51.39.795,empathy_intonation_perc,2020.2.10,MacIntel,60,,,,,,,,,,1,,,,,,,,,,,,,,,,,,,,,,,,,,,,,,,,,,,,,,,,57,tacao,,,0,0,0.95298,0,67,67,56,1,REAL,FAKE,,,,,,,,,,,,,,,,,,,,,
,,,,,,,5844812dc5bc3a0001a4d553,605b45a4d25f287719a41696,605fb6d9b3d3a7719bc0b1a2,Mexico,East coast,13 or older,no,2021-03-27_17h51.39.795,empathy_intonation_perc,2020.2.10,MacIntel,60,,,,,,,,,,0,,,,,,,,,,,,,,,,,,,,,,,,,,,,,,,,,,,,,,,,29,decar,,,1,0,0.68631,0,68,68,28,1,REAL,FAKE,,,,,,,,,,,,,,,,,,,,,
,,,,,,,5844812dc5bc3a0001a4d553,605b45a4d25f287719a41696,605fb6d9b3d3a7719bc0b1a2,Mexico,East coast,13 or older,no,2021-03-27_17h51.39.795,empathy_intonation_perc,2020.2.10,MacIntel,60,,,,,,,,,,1,,,,,,,,,,,,,,,,,,,,,,,,,,,,,,,,,,,,,,,,90,clavel,,,0,0,1.05363,0,69,69,89,1,REAL,FAKE,,,,,,,,,,,,,,,,,,,,,
,,,,,,,5844812dc5bc3a0001a4d553,605b45a4d25f287719a41696,605fb6d9b3d3a7719bc0b1a2,Mexico,East coast,13 or older,no,2021-03-27_17h51.39.795,empathy_intonation_perc,2020.2.10,MacIntel,60,,,,,,,,,,1,,,,,,,,,,,,,,,,,,,,,,,,,,,,,,,,,,,,,,,,14,yunque,,,0,0,0.65501,0,70,70,13,1,REAL,FAKE,,,,,,,,,,,,,,,,,,,,,
,,,,,,,5844812dc5bc3a0001a4d553,605b45a4d25f287719a41696,605fb6d9b3d3a7719bc0b1a2,Mexico,East coast,13 or older,no,2021-03-27_17h51.39.795,empathy_intonation_perc,2020.2.10,MacIntel,60,,,,,,,,,,1,,,,,,,,,,,,,,,,,,,,,,,,,,,,,,,,,,,,,,,,9,hacha,,,1,1,0.754755,0,71,71,8,1,REAL,FAKE,,,,,,,,,,,,,,,,,,,,,
,,,,,,,5844812dc5bc3a0001a4d553,605b45a4d25f287719a41696,605fb6d9b3d3a7719bc0b1a2,Mexico,East coast,13 or older,no,2021-03-27_17h51.39.795,empathy_intonation_perc,2020.2.10,MacIntel,60,,,,,,,,,,1,,,,,,,,,,,,,,,,,,,,,,,,,,,,,,,,,,,,,,,,25,bisagra,,,0,0,1.206295,0,72,72,24,1,REAL,FAKE,,,,,,,,,,,,,,,,,,,,,
,,,,,,,5844812dc5bc3a0001a4d553,605b45a4d25f287719a41696,605fb6d9b3d3a7719bc0b1a2,Mexico,East coast,13 or older,no,2021-03-27_17h51.39.795,empathy_intonation_perc,2020.2.10,MacIntel,60,,,,,,,,,,1,,,,,,,,,,,,,,,,,,,,,,,,,,,,,,,,,,,,,,,,61,seda,,,0,0,1.18689,0,73,73,60,1,REAL,FAKE,,,,,,,,,,,,,,,,,,,,,
,,,,,,,5844812dc5bc3a0001a4d553,605b45a4d25f287719a41696,605fb6d9b3d3a7719bc0b1a2,Mexico,East coast,13 or older,no,2021-03-27_17h51.39.795,empathy_intonation_perc,2020.2.10,MacIntel,60,,,,,,,,,,1,,,,,,,,,,,,,,,,,,,,,,,,,,,,,,,,,,,,,,,,5,zapato,,,1,1,0.756715,0,74,74,4,1,REAL,FAKE,,,,,,,,,,,,,,,,,,,,,
,,,,,,,5844812dc5bc3a0001a4d553,605b45a4d25f287719a41696,605fb6d9b3d3a7719bc0b1a2,Mexico,East coast,13 or older,no,2021-03-27_17h51.39.795,empathy_intonation_perc,2020.2.10,MacIntel,60,,,,,,,,,,0,,,,,,,,,,,,,,,,,,,,,,,,,,,,,,,,,,,,,,,,74,cintro,,,0,1,0.95624,0,75,75,73,1,REAL,FAKE,,,,,,,,,,,,,,,,,,,,,
,,,,,,,5844812dc5bc3a0001a4d553,605b45a4d25f287719a41696,605fb6d9b3d3a7719bc0b1a2,Mexico,East coast,13 or older,no,2021-03-27_17h51.39.795,empathy_intonation_perc,2020.2.10,MacIntel,60,,,,,,,,,,1,,,,,,,,,,,,,,,,,,,,,,,,,,,,,,,,,,,,,,,,49,ganar,,,0,0,0.79905,0,76,76,48,1,REAL,FAKE,,,,,,,,,,,,,,,,,,,,,
,,,,,,,5844812dc5bc3a0001a4d553,605b45a4d25f287719a41696,605fb6d9b3d3a7719bc0b1a2,Mexico,East coast,13 or older,no,2021-03-27_17h51.39.795,empathy_intonation_perc,2020.2.10,MacIntel,60,,,,,,,,,,0,,,,,,,,,,,,,,,,,,,,,,,,,,,,,,,,,,,,,,,,87,grodo,,,0,1,0.77003,0,77,77,86,1,REAL,FAKE,,,,,,,,,,,,,,,,,,,,,
,,,,,,,5844812dc5bc3a0001a4d553,605b45a4d25f287719a41696,605fb6d9b3d3a7719bc0b1a2,Mexico,East coast,13 or older,no,2021-03-27_17h51.39.795,empathy_intonation_perc,2020.2.10,MacIntel,60,,,,,,,,,,1,,,,,,,,,,,,,,,,,,,,,,,,,,,,,,,,,,,,,,,,69,engatusar,,,0,0,0.726685,0,78,78,68,1,REAL,FAKE,,,,,,,,,,,,,,,,,,,,,
,,,,,,,5844812dc5bc3a0001a4d553,605b45a4d25f287719a41696,605fb6d9b3d3a7719bc0b1a2,Mexico,East coast,13 or older,no,2021-03-27_17h51.39.795,empathy_intonation_perc,2020.2.10,MacIntel,60,,,,,,,,,,1,,,,,,,,,,,,,,,,,,,,,,,,,,,,,,,,,,,,,,,,41,rebuscar,,,0,0,0.636315,0,79,79,40,1,REAL,FAKE,,,,,,,,,,,,,,,,,,,,,
,,,,,,,5844812dc5bc3a0001a4d553,605b45a4d25f287719a41696,605fb6d9b3d3a7719bc0b1a2,Mexico,East coast,13 or older,no,2021-03-27_17h51.39.795,empathy_intonation_perc,2020.2.10,MacIntel,60,,,,,,,,,,1,,,,,,,,,,,,,,,,,,,,,,,,,,,,,,,,,,,,,,,,24,ltigo,,,0,0,0.98981,0,80,80,23,1,REAL,FAKE,,,,,,,,,,,,,,,,,,,,,
,,,,,,,5844812dc5bc3a0001a4d553,605b45a4d25f287719a41696,605fb6d9b3d3a7719bc0b1a2,Mexico,East coast,13 or older,no,2021-03-27_17h51.39.795,empathy_intonation_perc,2020.2.10,MacIntel,60,,,,,,,,,,0,,,,,,,,,,,,,,,,,,,,,,,,,,,,,,,,,,,,,,,,8,cadea,,,1,0,0.820025,0,81,81,7,1,REAL,FAKE,,,,,,,,,,,,,,,,,,,,,
,,,,,,,5844812dc5bc3a0001a4d553,605b45a4d25f287719a41696,605fb6d9b3d3a7719bc0b1a2,Mexico,East coast,13 or older,no,2021-03-27_17h51.39.795,empathy_intonation_perc,2020.2.10,MacIntel,60,,,,,,,,,,0,,,,,,,,,,,,,,,,,,,,,,,,,,,,,,,,,,,,,,,,32,fatacidad,,,0,1,0.904685,0,82,82,31,1,REAL,FAKE,,,,,,,,,,,,,,,,,,,,,
,,,,,,,5844812dc5bc3a0001a4d553,605b45a4d25f287719a41696,605fb6d9b3d3a7719bc0b1a2,Mexico,East coast,13 or older,no,2021-03-27_17h51.39.795,empathy_intonation_perc,2020.2.10,MacIntel,60,,,,,,,,,,1,,,,,,,,,,,,,,,,,,,,,,,,,,,,,,,,,,,,,,,,83,guante,,,1,1,0.904115,0,83,83,82,1,REAL,FAKE,,,,,,,,,,,,,,,,,,,,,
,,,,,,,5844812dc5bc3a0001a4d553,605b45a4d25f287719a41696,605fb6d9b3d3a7719bc0b1a2,Mexico,East coast,13 or older,no,2021-03-27_17h51.39.795,empathy_intonation_perc,2020.2.10,MacIntel,60,,,,,,,,,,1,,,,,,,,,,,,,,,,,,,,,,,,,,,,,,,,,,,,,,,,3,pulmones,,,0,0,0.853765,0,84,84,2,1,REAL,FAKE,,,,,,,,,,,,,,,,,,,,,
,,,,,,,5844812dc5bc3a0001a4d553,605b45a4d25f287719a41696,605fb6d9b3d3a7719bc0b1a2,Mexico,East coast,13 or older,no,2021-03-27_17h51.39.795,empathy_intonation_perc,2020.2.10,MacIntel,60,,,,,,,,,,0,,,,,,,,,,,,,,,,,,,,,,,,,,,,,,,,,,,,,,,,1,terzo,,,0,1,0.852625,0,85,85,0,1,REAL,FAKE,,,,,,,,,,,,,,,,,,,,,
,,,,,,,5844812dc5bc3a0001a4d553,605b45a4d25f287719a41696,605fb6d9b3d3a7719bc0b1a2,Mexico,East coast,13 or older,no,2021-03-27_17h51.39.795,empathy_intonation_perc,2020.2.10,MacIntel,60,,,,,,,,,,1,,,,,,,,,,,,,,,,,,,,,,,,,,,,,,,,,,,,,,,,51,candado,,,1,1,1.22457,0,86,86,50,1,REAL,FAKE,,,,,,,,,,,,,,,,,,,,,
,,,,,,,5844812dc5bc3a0001a4d553,605b45a4d25f287719a41696,605fb6d9b3d3a7719bc0b1a2,Mexico,East coast,13 or older,no,2021-03-27_17h51.39.795,empathy_intonation_perc,2020.2.10,MacIntel,60,,,,,,,,,,1,,,,,,,,,,,,,,,,,,,,,,,,,,,,,,,,,,,,,,,,15,regar,,,1,1,2.42665,0,87,87,14,1,REAL,FAKE,,,,,,,,,,,,,,,,,,,,,
,,,,,,,5844812dc5bc3a0001a4d553,605b45a4d25f287719a41696,605fb6d9b3d3a7719bc0b1a2,Mexico,East coast,13 or older,no,2021-03-27_17h51.39.795,empathy_intonation_perc,2020.2.10,MacIntel,60,,,,,,,,,,1,,,,,,,,,,,,,,,,,,,,,,,,,,,,,,,,,,,,,,,,43,canela,,,1,1,0.719995,0,88,88,42,1,REAL,FAKE,,,,,,,,,,,,,,,,,,,,,
,,,,,,,5844812dc5bc3a0001a4d553,605b45a4d25f287719a41696,605fb6d9b3d3a7719bc0b1a2,Mexico,East coast,13 or older,no,2021-03-27_17h51.39.795,empathy_intonation_perc,2020.2.10,MacIntel,60,,,,,,,,,,1,,,,,,,,,,,,,,,,,,,,,,,,,,,,,,,,,,,,,,,,59,besar,,,1,1,0.9747,0,89,89,58,1,REAL,FAKE,,,,,,,,,,,,,,,,,,,,,
,,,,,,,5844812dc5bc3a0001a4d553,605b45a4d25f287719a41696,605fb6d9b3d3a7719bc0b1a2,Mexico,East coast,13 or older,no,2021-03-27_17h51.39.795,empathy_intonation_perc,2020.2.10,MacIntel,60,,,,,,,,,,,,,,,,,,,,,,,,,,,,,,,,,,,,,,,,,,,,,,,,,,,,,,,,,,,,,,,,4,1,3.948315,1,0,0,0,0,0,1,,,,,,,,,,,
,,,,,,,5844812dc5bc3a0001a4d553,605b45a4d25f287719a41696,605fb6d9b3d3a7719bc0b1a2,Mexico,East coast,13 or older,no,2021-03-27_17h51.39.795,empathy_intonation_perc,2020.2.10,MacIntel,60,,,,,,,,,,,,,,,,,,,,1,,,,,,,,,,,,,,,,,,,,,,,,,,,,,,,,,,,,,,,,,,,,,,,,,,,,,,1,0,0,0,0,1,I can easily tell if someone else wants to enter a conversation.,1,0,1,0
,,,,,,,5844812dc5bc3a0001a4d553,605b45a4d25f287719a41696,605fb6d9b3d3a7719bc0b1a2,Mexico,East coast,13 or older,no,2021-03-27_17h51.39.795,empathy_intonation_perc,2020.2.10,MacIntel,60,,,,,,,,,,,,,,,,,,,,2,,,,,,,,,,,,,,,,,,,,,,,,,,,,,,,,,,,,,,,,,,,,,,,,,,,,,,1,0,1,1,1,1,I prefer animals to humans.,0,1,0,0
,,,,,,,5844812dc5bc3a0001a4d553,605b45a4d25f287719a41696,605fb6d9b3d3a7719bc0b1a2,Mexico,East coast,13 or older,no,2021-03-27_17h51.39.795,empathy_intonation_perc,2020.2.10,MacIntel,60,,,,,,,,,,,,,,,,,,,,3,,,,,,,,,,,,,,,,,,,,,,,,,,,,,,,,,,,,,,,,,,,,,,,,,,,,,,4,0,2,2,2,1,I try to keep up with the current trends and fashions.,0,1,0,0
,,,,,,,5844812dc5bc3a0001a4d553,605b45a4d25f287719a41696,605fb6d9b3d3a7719bc0b1a2,Mexico,East coast,13 or older,no,2021-03-27_17h51.39.795,empathy_intonation_perc,2020.2.10,MacIntel,60,,,,,,,,,,,,,,,,,,,,4,,,,,,,,,,,,,,,,,,,,,,,,,,,,,,,,,,,,,,,,,,,,,,,,,,,,,,3,0,3,3,3,1,"I find it difficult to explain to others things that I understand easily, 
  when they dont understand it first time.",1,0,0,1
,,,,,,,5844812dc5bc3a0001a4d553,605b45a4d25f287719a41696,605fb6d9b3d3a7719bc0b1a2,Mexico,East coast,13 or older,no,2021-03-27_17h51.39.795,empathy_intonation_perc,2020.2.10,MacIntel,60,,,,,,,,,,,,,,,,,,,,5,,,,,,,,,,,,,,,,,,,,,,,,,,,,,,,,,,,,,,,,,,,,,,,,,,,,,,1,0,4,4,4,1,I dream most nights.,0,1,0,0
