instructions_2afc_loop.thisRepN,instructions_2afc_loop.thisTrialN,instructions_2afc_loop.thisN,instructions_2afc_loop.thisIndex,instructions_2afc_loop.ran,instructions_text,continue_text,participant,study_id,session,I am most familiar with Spanish from...*,What part of the US are you from?*,At what age did you begin learning Spanish?*,Are you proficient in any languages other than English/Spanish?*,date,expName,psychopyVersion,OS,frameRate,key_resp_2afc_practice.keys,key_resp_2afc_practice.corr,key_resp_2afc_practice.rt,trials_2afc_practice_loop.thisRepN,trials_2afc_practice_loop.thisTrialN,trials_2afc_practice_loop.thisN,trials_2afc_practice_loop.thisIndex,trials_2afc_practice_loop.ran,path,correct_response,the_col,key_resp_2afc_trial.keys,key_resp_2afc_trial.corr,key_resp_2afc_trial.rt,trials_2afc_loop.thisRepN,trials_2afc_loop.thisTrialN,trials_2afc_loop.thisN,trials_2afc_loop.thisIndex,trials_2afc_loop.ran,item_num,andalusian,argentine,castilian,chilean,cuban,mexican,peruvian,puertorican,key_resp_ac1.keys,key_resp_ac1.corr,key_resp_ac1.rt,ac1_loop.thisRepN,ac1_loop.thisTrialN,ac1_loop.thisN,ac1_loop.thisIndex,ac1_loop.ran,instructions_lextale_loop.thisRepN,instructions_lextale_loop.thisTrialN,instructions_lextale_loop.thisN,instructions_lextale_loop.thisIndex,instructions_lextale_loop.ran,key_resp_lextale_practice.keys,key_resp_lextale_practice.corr,key_resp_lextale_practice.rt,trials_lextale_practice_loop.thisRepN,trials_lextale_practice_loop.thisTrialN,trials_lextale_practice_loop.thisN,trials_lextale_practice_loop.thisIndex,trials_lextale_practice_loop.ran,stim,word,prac_button_real,prac_button_false,key_resp_lextale_trial.keys,key_resp_lextale_trial.corr,key_resp_lextale_trial.rt,trials_lextale_loop.thisRepN,trials_lextale_loop.thisTrialN,trials_lextale_loop.thisN,trials_lextale_loop.thisIndex,trials_lextale_loop.ran,button_real,button_false,key_resp_ac2.keys,key_resp_ac2.corr,key_resp_ac2.rt,check_pass,check_fails,ac2_loop.thisRepN,ac2_loop.thisTrialN,ac2_loop.thisN,ac2_loop.thisIndex,ac2_loop.ran,slider_eq_trial.response,trials_eq_loop.thisRepN,trials_eq_loop.thisTrialN,trials_eq_loop.thisN,trials_eq_loop.thisIndex,trials_eq_loop.ran,item,is_test_item,is_distractor,is_agree_score,is_disagree_score
0,0,0,0,1,"In the following task you are going to hear a series of utterances. 

  You will decide if the utterances sound like questions or not using your keyboard.",(press the spacebar to continue),58a5cf959e040a0001399f07,605b45a4d25f287719a41696,605cce6ff978a6a2135b3a74,Spain,Midwest,13 or older,no,2021-03-25_14h00.53.382,empathy_intonation_perc,2020.2.10,Win32,60,,,,,,,,,,,,,,,,,,,,,,,,,,,,,,,,,,,,,,,,,,,,,,,,,,,,,,,,,,,,,,,,,,,,,,,,,,,,,,,,,,,,
0,1,1,1,1,"If you believe the utterance is a question, type '1' (for 'yes') and if you do not 
  believe it is a question type '0' (for 'no').

  Let's practice a bit...",(press the spacebar to continue),58a5cf959e040a0001399f07,605b45a4d25f287719a41696,605cce6ff978a6a2135b3a74,Spain,Midwest,13 or older,no,2021-03-25_14h00.53.382,empathy_intonation_perc,2020.2.10,Win32,60,,,,,,,,,,,,,,,,,,,,,,,,,,,,,,,,,,,,,,,,,,,,,,,,,,,,,,,,,,,,,,,,,,,,,,,,,,,,,,,,,,,,
,,,,,,,58a5cf959e040a0001399f07,605b45a4d25f287719a41696,605cce6ff978a6a2135b3a74,Spain,Midwest,13 or older,no,2021-03-25_14h00.53.382,empathy_intonation_perc,2020.2.10,Win32,60,1,1,1.55512,0,0,0,1,1,./stim/wavs/argentine_question_filler_Mi-vecino-habla-mucho.wav,1,,,,,,,,,,,,,,,,,,,,,,,,,,,,,,,,,,,,,,,,,,,,,,,,,,,,,,,,,,,,,,,,,,,,,,,,,,
,,,,,,,58a5cf959e040a0001399f07,605b45a4d25f287719a41696,605cce6ff978a6a2135b3a74,Spain,Midwest,13 or older,no,2021-03-25_14h00.53.382,empathy_intonation_perc,2020.2.10,Win32,60,0,1,1.66739,0,1,1,4,1,./stim/wavs/cuban_statement_filler_Cocinabas-por-la-noche.wav,0,,,,,,,,,,,,,,,,,,,,,,,,,,,,,,,,,,,,,,,,,,,,,,,,,,,,,,,,,,,,,,,,,,,,,,,,,,
,,,,,,,58a5cf959e040a0001399f07,605b45a4d25f287719a41696,605cce6ff978a6a2135b3a74,Spain,Midwest,13 or older,no,2021-03-25_14h00.53.382,empathy_intonation_perc,2020.2.10,Win32,60,0,1,1.82839,0,2,2,7,1,./stim/wavs/puertorican_statement_filler_La-nina-pinta-con-su-amiga.wav,0,,,,,,,,,,,,,,,,,,,,,,,,,,,,,,,,,,,,,,,,,,,,,,,,,,,,,,,,,,,,,,,,,,,,,,,,,,
,,,,,,,58a5cf959e040a0001399f07,605b45a4d25f287719a41696,605cce6ff978a6a2135b3a74,Spain,Midwest,13 or older,no,2021-03-25_14h00.53.382,empathy_intonation_perc,2020.2.10,Win32,60,0,0,1.703585,0,3,3,2,1,./stim/wavs/chilean_question_filler_Mi-padre-cantaba-bien.wav,1,,,,,,,,,,,,,,,,,,,,,,,,,,,,,,,,,,,,,,,,,,,,,,,,,,,,,,,,,,,,,,,,,,,,,,,,,,
,,,,,,,58a5cf959e040a0001399f07,605b45a4d25f287719a41696,605cce6ff978a6a2135b3a74,Spain,Midwest,13 or older,no,2021-03-25_14h00.53.382,empathy_intonation_perc,2020.2.10,Win32,60,0,1,2.186795,0,4,4,6,1,./stim/wavs/peruvian_statement_filler_El-nino-habla-con-su-madre.wav,0,,,,,,,,,,,,,,,,,,,,,,,,,,,,,,,,,,,,,,,,,,,,,,,,,,,,,,,,,,,,,,,,,,,,,,,,,,
,,,,,,,58a5cf959e040a0001399f07,605b45a4d25f287719a41696,605cce6ff978a6a2135b3a74,Spain,Midwest,13 or older,no,2021-03-25_14h00.53.382,empathy_intonation_perc,2020.2.10,Win32,60,1,1,1.82269,0,5,5,3,1,./stim/wavs/mexican_question_filler_Felipe-no-tiene-contrasena.wav,1,,,,,,,,,,,,,,,,,,,,,,,,,,,,,,,,,,,,,,,,,,,,,,,,,,,,,,,,,,,,,,,,,,,,,,,,,,
,,,,,,,58a5cf959e040a0001399f07,605b45a4d25f287719a41696,605cce6ff978a6a2135b3a74,Spain,Midwest,13 or older,no,2021-03-25_14h00.53.382,empathy_intonation_perc,2020.2.10,Win32,60,0,1,1.740465,0,6,6,5,1,./stim/wavs/andalusian_statement_filler_Alberto-nunca-se-afeita.wav,0,,,,,,,,,,,,,,,,,,,,,,,,,,,,,,,,,,,,,,,,,,,,,,,,,,,,,,,,,,,,,,,,,,,,,,,,,,
,,,,,,,58a5cf959e040a0001399f07,605b45a4d25f287719a41696,605cce6ff978a6a2135b3a74,Spain,Midwest,13 or older,no,2021-03-25_14h00.53.382,empathy_intonation_perc,2020.2.10,Win32,60,1,1,1.809525,0,7,7,0,1,./stim/wavs/castilian_question_filler_Mi-esposo-conoce-al-chico.wav,1,,,,,,,,,,,,,,,,,,,,,,,,,,,,,,,,,,,,,,,,,,,,,,,,,,,,,,,,,,,,,,,,,,,,,,,,,,
,,,,,,,58a5cf959e040a0001399f07,605b45a4d25f287719a41696,605cce6ff978a6a2135b3a74,Spain,Midwest,13 or older,no,2021-03-25_14h00.53.382,empathy_intonation_perc,2020.2.10,Win32,60,,,,,,,,,,1,peruvian,1,1,1.60747,0,0,0,24,1,25,./stim/wavs/andalusian_match_interrogative-total-yn_Ana-lleva-el-abrigo.wav,./stim/wavs/argentine_match_interrogative-total-yn_Ana-lleva-el-abrigo.wav,./stim/wavs/castilian_match_interrogative-total-yn_Ana-lleva-el-abrigo.wav,./stim/wavs/chilean_match_interrogative-total-yn_Ana-lleva-el-abrigo.wav,./stim/wavs/cuban_match_interrogative-total-yn_Ana-lleva-el-abrigo.wav,./stim/wavs/mexican_match_interrogative-total-yn_Ana-lleva-el-abrigo.wav,./stim/wavs/peruvian_match_interrogative-total-yn_Ana-lleva-el-abrigo.wav,./stim/wavs/puertorican_match_interrogative-total-yn_Ana-lleva-el-abrigo.wav,,,,,,,,,,,,,,,,,,,,,,,,,,,,,,,,,,,,,,,,,,,,,,,,,,,,,,,,
,,,,,,,58a5cf959e040a0001399f07,605b45a4d25f287719a41696,605cce6ff978a6a2135b3a74,Spain,Midwest,13 or older,no,2021-03-25_14h00.53.382,empathy_intonation_perc,2020.2.10,Win32,60,,,,,,,,,,1,argentine,0,0,1.720515,0,1,1,22,1,23,./stim/wavs/andalusian_match_interrogative-partial-wh_Por-que-hablaba-del-agua.wav,./stim/wavs/argentine_match_interrogative-partial-wh_Por-que-hablaba-del-agua.wav,./stim/wavs/castilian_match_interrogative-partial-wh_Por-que-hablaba-del-agua.wav,./stim/wavs/chilean_match_interrogative-partial-wh_Por-que-hablaba-del-agua.wav,./stim/wavs/cuban_match_interrogative-partial-wh_Por-que-hablaba-del-agua.wav,./stim/wavs/mexican_match_interrogative-partial-wh_Por-que-hablaba-del-agua.wav,./stim/wavs/peruvian_match_interrogative-partial-wh_Por-que-hablaba-del-agua.wav,./stim/wavs/puertorican_match_interrogative-partial-wh_Por-que-hablaba-del-agua.wav,,,,,,,,,,,,,,,,,,,,,,,,,,,,,,,,,,,,,,,,,,,,,,,,,,,,,,,,
,,,,,,,58a5cf959e040a0001399f07,605b45a4d25f287719a41696,605cce6ff978a6a2135b3a74,Spain,Midwest,13 or older,no,2021-03-25_14h00.53.382,empathy_intonation_perc,2020.2.10,Win32,60,,,,,,,,,,0,peruvian,0,1,1.800315,0,2,2,10,1,11,./stim/wavs/andalusian_match_declarative-narrow-focus_David-leia-el-libro.wav,./stim/wavs/argentine_match_declarative-narrow-focus_David-leia-el-libro.wav,./stim/wavs/castilian_match_declarative-narrow-focus_David-leia-el-libro.wav,./stim/wavs/chilean_match_declarative-narrow-focus_David-leia-el-libro.wav,./stim/wavs/cuban_match_declarative-narrow-focus_David-leia-el-libro.wav,./stim/wavs/mexican_match_declarative-narrow-focus_David-leia-el-libro.wav,./stim/wavs/peruvian_match_declarative-narrow-focus_David-leia-el-libro.wav,./stim/wavs/puertorican_match_declarative-narrow-focus_David-leia-el-libro.wav,,,,,,,,,,,,,,,,,,,,,,,,,,,,,,,,,,,,,,,,,,,,,,,,,,,,,,,,
,,,,,,,58a5cf959e040a0001399f07,605b45a4d25f287719a41696,605cce6ff978a6a2135b3a74,Spain,Midwest,13 or older,no,2021-03-25_14h00.53.382,empathy_intonation_perc,2020.2.10,Win32,60,,,,,,,,,,0,cuban,0,1,1.703445,0,3,3,4,1,5,./stim/wavs/andalusian_match_declarative-broad-focus_Manuela-vende-el-carro.wav,./stim/wavs/argentine_match_declarative-broad-focus_Manuela-vende-el-carro.wav,./stim/wavs/castilian_match_declarative-broad-focus_Manuela-vende-el-carro.wav,./stim/wavs/chilean_match_declarative-broad-focus_Manuela-vende-el-carro.wav,./stim/wavs/cuban_match_declarative-broad-focus_Manuela-vende-el-carro.wav,./stim/wavs/mexican_match_declarative-broad-focus_Manuela-vende-el-carro.wav,./stim/wavs/peruvian_match_declarative-broad-focus_Manuela-vende-el-carro.wav,./stim/wavs/puertorican_match_declarative-broad-focus_Manuela-vende-el-carro.wav,,,,,,,,,,,,,,,,,,,,,,,,,,,,,,,,,,,,,,,,,,,,,,,,,,,,,,,,
,,,,,,,58a5cf959e040a0001399f07,605b45a4d25f287719a41696,605cce6ff978a6a2135b3a74,Spain,Midwest,13 or older,no,2021-03-25_14h00.53.382,empathy_intonation_perc,2020.2.10,Win32,60,,,,,,,,,,1,chilean,1,1,1.653235,0,4,4,51,1,52,./stim/wavs/andalusian_mismatch_interrogative-partial-wh_Por-que-desayuna-muy-bien.wav,./stim/wavs/argentine_mismatch_interrogative-partial-wh_Por-que-desayuna-muy-bien.wav,./stim/wavs/castilian_mismatch_interrogative-partial-wh_Por-que-desayuna-muy-bien.wav,./stim/wavs/chilean_mismatch_interrogative-partial-wh_Por-que-desayuna-muy-bien.wav,./stim/wavs/cuban_mismatch_interrogative-partial-wh_Por-que-desayuna-muy-bien.wav,./stim/wavs/mexican_mismatch_interrogative-partial-wh_Por-que-desayuna-muy-bien.wav,./stim/wavs/peruvian_mismatch_interrogative-partial-wh_Por-que-desayuna-muy-bien.wav,./stim/wavs/puertorican_mismatch_interrogative-partial-wh_Por-que-desayuna-muy-bien.wav,,,,,,,,,,,,,,,,,,,,,,,,,,,,,,,,,,,,,,,,,,,,,,,,,,,,,,,,
,,,,,,,58a5cf959e040a0001399f07,605b45a4d25f287719a41696,605cce6ff978a6a2135b3a74,Spain,Midwest,13 or older,no,2021-03-25_14h00.53.382,empathy_intonation_perc,2020.2.10,Win32,60,,,,,,,,,,1,castilian,1,1,1.74996,0,5,5,48,1,49,./stim/wavs/andalusian_mismatch_interrogative-partial-wh_Cuando-comia-la-fruta.wav,./stim/wavs/argentine_mismatch_interrogative-partial-wh_Cuando-comia-la-fruta.wav,./stim/wavs/castilian_mismatch_interrogative-partial-wh_Cuando-comia-la-fruta.wav,./stim/wavs/chilean_mismatch_interrogative-partial-wh_Cuando-comia-la-fruta.wav,./stim/wavs/cuban_mismatch_interrogative-partial-wh_Cuando-comia-la-fruta.wav,./stim/wavs/mexican_mismatch_interrogative-partial-wh_Cuando-comia-la-fruta.wav,./stim/wavs/peruvian_mismatch_interrogative-partial-wh_Cuando-comia-la-fruta.wav,./stim/wavs/puertorican_mismatch_interrogative-partial-wh_Cuando-comia-la-fruta.wav,,,,,,,,,,,,,,,,,,,,,,,,,,,,,,,,,,,,,,,,,,,,,,,,,,,,,,,,
,,,,,,,58a5cf959e040a0001399f07,605b45a4d25f287719a41696,605cce6ff978a6a2135b3a74,Spain,Midwest,13 or older,no,2021-03-25_14h00.53.382,empathy_intonation_perc,2020.2.10,Win32,60,,,,,,,,,,1,mexican,1,1,1.591555,0,6,6,26,1,27,./stim/wavs/andalusian_match_interrogative-total-yn_David-leia-el-libro.wav,./stim/wavs/argentine_match_interrogative-total-yn_David-leia-el-libro.wav,./stim/wavs/castilian_match_interrogative-total-yn_David-leia-el-libro.wav,./stim/wavs/chilean_match_interrogative-total-yn_David-leia-el-libro.wav,./stim/wavs/cuban_match_interrogative-total-yn_David-leia-el-libro.wav,./stim/wavs/mexican_match_interrogative-total-yn_David-leia-el-libro.wav,./stim/wavs/peruvian_match_interrogative-total-yn_David-leia-el-libro.wav,./stim/wavs/puertorican_match_interrogative-total-yn_David-leia-el-libro.wav,,,,,,,,,,,,,,,,,,,,,,,,,,,,,,,,,,,,,,,,,,,,,,,,,,,,,,,,
,,,,,,,58a5cf959e040a0001399f07,605b45a4d25f287719a41696,605cce6ff978a6a2135b3a74,Spain,Midwest,13 or older,no,2021-03-25_14h00.53.382,empathy_intonation_perc,2020.2.10,Win32,60,,,,,,,,,,1,peruvian,1,1,1.596545,0,7,7,19,1,20,./stim/wavs/andalusian_match_interrogative-partial-wh_Cuando-vendia-el-carro.wav,./stim/wavs/argentine_match_interrogative-partial-wh_Cuando-vendia-el-carro.wav,./stim/wavs/castilian_match_interrogative-partial-wh_Cuando-vendia-el-carro.wav,./stim/wavs/chilean_match_interrogative-partial-wh_Cuando-vendia-el-carro.wav,./stim/wavs/cuban_match_interrogative-partial-wh_Cuando-vendia-el-carro.wav,./stim/wavs/mexican_match_interrogative-partial-wh_Cuando-vendia-el-carro.wav,./stim/wavs/peruvian_match_interrogative-partial-wh_Cuando-vendia-el-carro.wav,./stim/wavs/puertorican_match_interrogative-partial-wh_Cuando-vendia-el-carro.wav,,,,,,,,,,,,,,,,,,,,,,,,,,,,,,,,,,,,,,,,,,,,,,,,,,,,,,,,
,,,,,,,58a5cf959e040a0001399f07,605b45a4d25f287719a41696,605cce6ff978a6a2135b3a74,Spain,Midwest,13 or older,no,2021-03-25_14h00.53.382,empathy_intonation_perc,2020.2.10,Win32,60,,,,,,,,,,0,chilean,0,1,1.98799,0,8,8,43,1,44,./stim/wavs/andalusian_mismatch_declarative-narrow-focus_La-maestra-vive-en-Paris.wav,./stim/wavs/argentine_mismatch_declarative-narrow-focus_La-maestra-vive-en-Paris.wav,./stim/wavs/castilian_mismatch_declarative-narrow-focus_La-maestra-vive-en-Paris.wav,./stim/wavs/chilean_mismatch_declarative-narrow-focus_La-maestra-vive-en-Paris.wav,./stim/wavs/cuban_mismatch_declarative-narrow-focus_La-maestra-vive-en-Paris.wav,./stim/wavs/mexican_mismatch_declarative-narrow-focus_La-maestra-vive-en-Paris.wav,./stim/wavs/peruvian_mismatch_declarative-narrow-focus_La-maestra-vive-en-Paris.wav,./stim/wavs/puertorican_mismatch_declarative-narrow-focus_La-maestra-vive-en-Paris.wav,,,,,,,,,,,,,,,,,,,,,,,,,,,,,,,,,,,,,,,,,,,,,,,,,,,,,,,,
,,,,,,,58a5cf959e040a0001399f07,605b45a4d25f287719a41696,605cce6ff978a6a2135b3a74,Spain,Midwest,13 or older,no,2021-03-25_14h00.53.382,empathy_intonation_perc,2020.2.10,Win32,60,,,,,,,,,,1,chilean,0,0,1.90955,0,9,9,53,1,54,./stim/wavs/andalusian_mismatch_interrogative-partial-wh_Por-que-oia-el-rio.wav,./stim/wavs/argentine_mismatch_interrogative-partial-wh_Por-que-oia-el-rio.wav,./stim/wavs/castilian_mismatch_interrogative-partial-wh_Por-que-oia-el-rio.wav,./stim/wavs/chilean_mismatch_interrogative-partial-wh_Por-que-oia-el-rio.wav,./stim/wavs/cuban_mismatch_interrogative-partial-wh_Por-que-oia-el-rio.wav,./stim/wavs/mexican_mismatch_interrogative-partial-wh_Por-que-oia-el-rio.wav,./stim/wavs/peruvian_mismatch_interrogative-partial-wh_Por-que-oia-el-rio.wav,./stim/wavs/puertorican_mismatch_interrogative-partial-wh_Por-que-oia-el-rio.wav,,,,,,,,,,,,,,,,,,,,,,,,,,,,,,,,,,,,,,,,,,,,,,,,,,,,,,,,
,,,,,,,58a5cf959e040a0001399f07,605b45a4d25f287719a41696,605cce6ff978a6a2135b3a74,Spain,Midwest,13 or older,no,2021-03-25_14h00.53.382,empathy_intonation_perc,2020.2.10,Win32,60,,,,,,,,,,1,castilian,1,1,1.452275,0,10,10,21,1,22,./stim/wavs/andalusian_match_interrogative-partial-wh_Por-que-ama-la-navidad.wav,./stim/wavs/argentine_match_interrogative-partial-wh_Por-que-ama-la-navidad.wav,./stim/wavs/castilian_match_interrogative-partial-wh_Por-que-ama-la-navidad.wav,./stim/wavs/chilean_match_interrogative-partial-wh_Por-que-ama-la-navidad.wav,./stim/wavs/cuban_match_interrogative-partial-wh_Por-que-ama-la-navidad.wav,./stim/wavs/mexican_match_interrogative-partial-wh_Por-que-ama-la-navidad.wav,./stim/wavs/peruvian_match_interrogative-partial-wh_Por-que-ama-la-navidad.wav,./stim/wavs/puertorican_match_interrogative-partial-wh_Por-que-ama-la-navidad.wav,,,,,,,,,,,,,,,,,,,,,,,,,,,,,,,,,,,,,,,,,,,,,,,,,,,,,,,,
,,,,,,,58a5cf959e040a0001399f07,605b45a4d25f287719a41696,605cce6ff978a6a2135b3a74,Spain,Midwest,13 or older,no,2021-03-25_14h00.53.382,empathy_intonation_perc,2020.2.10,Win32,60,,,,,,,,,,1,chilean,1,1,1.336535,0,11,11,25,1,26,./stim/wavs/andalusian_match_interrogative-total-yn_Daniel-iba-a-Bolivia.wav,./stim/wavs/argentine_match_interrogative-total-yn_Daniel-iba-a-Bolivia.wav,./stim/wavs/castilian_match_interrogative-total-yn_Daniel-iba-a-Bolivia.wav,./stim/wavs/chilean_match_interrogative-total-yn_Daniel-iba-a-Bolivia.wav,./stim/wavs/cuban_match_interrogative-total-yn_Daniel-iba-a-Bolivia.wav,./stim/wavs/mexican_match_interrogative-total-yn_Daniel-iba-a-Bolivia.wav,./stim/wavs/peruvian_match_interrogative-total-yn_Daniel-iba-a-Bolivia.wav,./stim/wavs/puertorican_match_interrogative-total-yn_Daniel-iba-a-Bolivia.wav,,,,,,,,,,,,,,,,,,,,,,,,,,,,,,,,,,,,,,,,,,,,,,,,,,,,,,,,
,,,,,,,58a5cf959e040a0001399f07,605b45a4d25f287719a41696,605cce6ff978a6a2135b3a74,Spain,Midwest,13 or older,no,2021-03-25_14h00.53.382,empathy_intonation_perc,2020.2.10,Win32,60,,,,,,,,,,1,chilean,1,1,1.45257,0,12,12,49,1,50,./stim/wavs/andalusian_mismatch_interrogative-partial-wh_Cuando-lavaba-el-plato.wav,./stim/wavs/argentine_mismatch_interrogative-partial-wh_Cuando-lavaba-el-plato.wav,./stim/wavs/castilian_mismatch_interrogative-partial-wh_Cuando-lavaba-el-plato.wav,./stim/wavs/chilean_mismatch_interrogative-partial-wh_Cuando-lavaba-el-plato.wav,./stim/wavs/cuban_mismatch_interrogative-partial-wh_Cuando-lavaba-el-plato.wav,./stim/wavs/mexican_mismatch_interrogative-partial-wh_Cuando-lavaba-el-plato.wav,./stim/wavs/peruvian_mismatch_interrogative-partial-wh_Cuando-lavaba-el-plato.wav,./stim/wavs/puertorican_mismatch_interrogative-partial-wh_Cuando-lavaba-el-plato.wav,,,,,,,,,,,,,,,,,,,,,,,,,,,,,,,,,,,,,,,,,,,,,,,,,,,,,,,,
,,,,,,,58a5cf959e040a0001399f07,605b45a4d25f287719a41696,605cce6ff978a6a2135b3a74,Spain,Midwest,13 or older,no,2021-03-25_14h00.53.382,empathy_intonation_perc,2020.2.10,Win32,60,,,,,,,,,,1,cuban,1,1,1.418335,0,13,13,17,1,18,./stim/wavs/andalusian_match_interrogative-partial-wh_Cuando-leia-el-libro.wav,./stim/wavs/argentine_match_interrogative-partial-wh_Cuando-leia-el-libro.wav,./stim/wavs/castilian_match_interrogative-partial-wh_Cuando-leia-el-libro.wav,./stim/wavs/chilean_match_interrogative-partial-wh_Cuando-leia-el-libro.wav,./stim/wavs/cuban_match_interrogative-partial-wh_Cuando-leia-el-libro.wav,./stim/wavs/mexican_match_interrogative-partial-wh_Cuando-leia-el-libro.wav,./stim/wavs/peruvian_match_interrogative-partial-wh_Cuando-leia-el-libro.wav,./stim/wavs/puertorican_match_interrogative-partial-wh_Cuando-leia-el-libro.wav,,,,,,,,,,,,,,,,,,,,,,,,,,,,,,,,,,,,,,,,,,,,,,,,,,,,,,,,
,,,,,,,58a5cf959e040a0001399f07,605b45a4d25f287719a41696,605cce6ff978a6a2135b3a74,Spain,Midwest,13 or older,no,2021-03-25_14h00.53.382,empathy_intonation_perc,2020.2.10,Win32,60,,,,,,,,,,0,chilean,0,1,1.671695,0,14,14,41,1,42,./stim/wavs/andalusian_mismatch_declarative-narrow-focus_El-hombre-mira-la-luna.wav,./stim/wavs/argentine_mismatch_declarative-narrow-focus_El-hombre-mira-la-luna.wav,./stim/wavs/castilian_mismatch_declarative-narrow-focus_El-hombre-mira-la-luna.wav,./stim/wavs/chilean_mismatch_declarative-narrow-focus_El-hombre-mira-la-luna.wav,./stim/wavs/cuban_mismatch_declarative-narrow-focus_El-hombre-mira-la-luna.wav,./stim/wavs/mexican_mismatch_declarative-narrow-focus_El-hombre-mira-la-luna.wav,./stim/wavs/peruvian_mismatch_declarative-narrow-focus_El-hombre-mira-la-luna.wav,./stim/wavs/puertorican_mismatch_declarative-narrow-focus_El-hombre-mira-la-luna.wav,,,,,,,,,,,,,,,,,,,,,,,,,,,,,,,,,,,,,,,,,,,,,,,,,,,,,,,,
,,,,,,,58a5cf959e040a0001399f07,605b45a4d25f287719a41696,605cce6ff978a6a2135b3a74,Spain,Midwest,13 or older,no,2021-03-25_14h00.53.382,empathy_intonation_perc,2020.2.10,Win32,60,,,,,,,,,,0,puertorican,0,1,1.56862,0,15,15,38,1,39,./stim/wavs/andalusian_mismatch_declarative-broad-focus_Mi-novio-viene-del-lago.wav,./stim/wavs/argentine_mismatch_declarative-broad-focus_Mi-novio-viene-del-lago.wav,./stim/wavs/castilian_mismatch_declarative-broad-focus_Mi-novio-viene-del-lago.wav,./stim/wavs/chilean_mismatch_declarative-broad-focus_Mi-novio-viene-del-lago.wav,./stim/wavs/cuban_mismatch_declarative-broad-focus_Mi-novio-viene-del-lago.wav,./stim/wavs/mexican_mismatch_declarative-broad-focus_Mi-novio-viene-del-lago.wav,./stim/wavs/peruvian_mismatch_declarative-broad-focus_Mi-novio-viene-del-lago.wav,./stim/wavs/puertorican_mismatch_declarative-broad-focus_Mi-novio-viene-del-lago.wav,,,,,,,,,,,,,,,,,,,,,,,,,,,,,,,,,,,,,,,,,,,,,,,,,,,,,,,,
,,,,,,,58a5cf959e040a0001399f07,605b45a4d25f287719a41696,605cce6ff978a6a2135b3a74,Spain,Midwest,13 or older,no,2021-03-25_14h00.53.382,empathy_intonation_perc,2020.2.10,Win32,60,,,,,,,,,,0,mexican,0,1,1.50168,0,16,16,9,1,10,./stim/wavs/andalusian_match_declarative-narrow-focus_Daniel-iba-a-Bolivia.wav,./stim/wavs/argentine_match_declarative-narrow-focus_Daniel-iba-a-Bolivia.wav,./stim/wavs/castilian_match_declarative-narrow-focus_Daniel-iba-a-Bolivia.wav,./stim/wavs/chilean_match_declarative-narrow-focus_Daniel-iba-a-Bolivia.wav,./stim/wavs/cuban_match_declarative-narrow-focus_Daniel-iba-a-Bolivia.wav,./stim/wavs/mexican_match_declarative-narrow-focus_Daniel-iba-a-Bolivia.wav,./stim/wavs/peruvian_match_declarative-narrow-focus_Daniel-iba-a-Bolivia.wav,./stim/wavs/puertorican_match_declarative-narrow-focus_Daniel-iba-a-Bolivia.wav,,,,,,,,,,,,,,,,,,,,,,,,,,,,,,,,,,,,,,,,,,,,,,,,,,,,,,,,
,,,,,,,58a5cf959e040a0001399f07,605b45a4d25f287719a41696,605cce6ff978a6a2135b3a74,Spain,Midwest,13 or older,no,2021-03-25_14h00.53.382,empathy_intonation_perc,2020.2.10,Win32,60,,,,,,,,,,0,puertorican,0,1,1.418585,0,17,17,15,1,16,./stim/wavs/andalusian_match_declarative-narrow-focus_Marta-abre-el-regalo.wav,./stim/wavs/argentine_match_declarative-narrow-focus_Marta-abre-el-regalo.wav,./stim/wavs/castilian_match_declarative-narrow-focus_Marta-abre-el-regalo.wav,./stim/wavs/chilean_match_declarative-narrow-focus_Marta-abre-el-regalo.wav,./stim/wavs/cuban_match_declarative-narrow-focus_Marta-abre-el-regalo.wav,./stim/wavs/mexican_match_declarative-narrow-focus_Marta-abre-el-regalo.wav,./stim/wavs/peruvian_match_declarative-narrow-focus_Marta-abre-el-regalo.wav,./stim/wavs/puertorican_match_declarative-narrow-focus_Marta-abre-el-regalo.wav,,,,,,,,,,,,,,,,,,,,,,,,,,,,,,,,,,,,,,,,,,,,,,,,,,,,,,,,
,,,,,,,58a5cf959e040a0001399f07,605b45a4d25f287719a41696,605cce6ff978a6a2135b3a74,Spain,Midwest,13 or older,no,2021-03-25_14h00.53.382,empathy_intonation_perc,2020.2.10,Win32,60,,,,,,,,,,1,mexican,1,1,1.40207,0,18,18,55,1,56,./stim/wavs/andalusian_mismatch_interrogative-partial-wh_Por-que-vivia-en-Paris.wav,./stim/wavs/argentine_mismatch_interrogative-partial-wh_Por-que-vivia-en-Paris.wav,./stim/wavs/castilian_mismatch_interrogative-partial-wh_Por-que-vivia-en-Paris.wav,./stim/wavs/chilean_mismatch_interrogative-partial-wh_Por-que-vivia-en-Paris.wav,./stim/wavs/cuban_mismatch_interrogative-partial-wh_Por-que-vivia-en-Paris.wav,./stim/wavs/mexican_mismatch_interrogative-partial-wh_Por-que-vivia-en-Paris.wav,./stim/wavs/peruvian_mismatch_interrogative-partial-wh_Por-que-vivia-en-Paris.wav,./stim/wavs/puertorican_mismatch_interrogative-partial-wh_Por-que-vivia-en-Paris.wav,,,,,,,,,,,,,,,,,,,,,,,,,,,,,,,,,,,,,,,,,,,,,,,,,,,,,,,,
,,,,,,,58a5cf959e040a0001399f07,605b45a4d25f287719a41696,605cce6ff978a6a2135b3a74,Spain,Midwest,13 or older,no,2021-03-25_14h00.53.382,empathy_intonation_perc,2020.2.10,Win32,60,,,,,,,,,,1,andalusian,1,1,1.502025,0,19,19,20,1,21,./stim/wavs/andalusian_match_interrogative-partial-wh_Por-que-abre-el-regalo.wav,./stim/wavs/argentine_match_interrogative-partial-wh_Por-que-abre-el-regalo.wav,./stim/wavs/castilian_match_interrogative-partial-wh_Por-que-abre-el-regalo.wav,./stim/wavs/chilean_match_interrogative-partial-wh_Por-que-abre-el-regalo.wav,./stim/wavs/cuban_match_interrogative-partial-wh_Por-que-abre-el-regalo.wav,./stim/wavs/mexican_match_interrogative-partial-wh_Por-que-abre-el-regalo.wav,./stim/wavs/peruvian_match_interrogative-partial-wh_Por-que-abre-el-regalo.wav,./stim/wavs/puertorican_match_interrogative-partial-wh_Por-que-abre-el-regalo.wav,,,,,,,,,,,,,,,,,,,,,,,,,,,,,,,,,,,,,,,,,,,,,,,,,,,,,,,,
,,,,,,,58a5cf959e040a0001399f07,605b45a4d25f287719a41696,605cce6ff978a6a2135b3a74,Spain,Midwest,13 or older,no,2021-03-25_14h00.53.382,empathy_intonation_perc,2020.2.10,Win32,60,,,,,,,,,,0,peruvian,0,1,1.56879,0,20,20,33,1,34,./stim/wavs/andalusian_mismatch_declarative-broad-focus_El-hombre-mira-la-luna.wav,./stim/wavs/argentine_mismatch_declarative-broad-focus_El-hombre-mira-la-luna.wav,./stim/wavs/castilian_mismatch_declarative-broad-focus_El-hombre-mira-la-luna.wav,./stim/wavs/chilean_mismatch_declarative-broad-focus_El-hombre-mira-la-luna.wav,./stim/wavs/cuban_mismatch_declarative-broad-focus_El-hombre-mira-la-luna.wav,./stim/wavs/mexican_mismatch_declarative-broad-focus_El-hombre-mira-la-luna.wav,./stim/wavs/peruvian_mismatch_declarative-broad-focus_El-hombre-mira-la-luna.wav,./stim/wavs/puertorican_mismatch_declarative-broad-focus_El-hombre-mira-la-luna.wav,,,,,,,,,,,,,,,,,,,,,,,,,,,,,,,,,,,,,,,,,,,,,,,,,,,,,,,,
,,,,,,,58a5cf959e040a0001399f07,605b45a4d25f287719a41696,605cce6ff978a6a2135b3a74,Spain,Midwest,13 or older,no,2021-03-25_14h00.53.382,empathy_intonation_perc,2020.2.10,Win32,60,,,,,,,,,,0,castilian,0,1,1.66803,0,21,21,12,1,13,./stim/wavs/andalusian_match_declarative-narrow-focus_Manuela-vende-el-carro.wav,./stim/wavs/argentine_match_declarative-narrow-focus_Manuela-vende-el-carro.wav,./stim/wavs/castilian_match_declarative-narrow-focus_Manuela-vende-el-carro.wav,./stim/wavs/chilean_match_declarative-narrow-focus_Manuela-vende-el-carro.wav,./stim/wavs/cuban_match_declarative-narrow-focus_Manuela-vende-el-carro.wav,./stim/wavs/mexican_match_declarative-narrow-focus_Manuela-vende-el-carro.wav,./stim/wavs/peruvian_match_declarative-narrow-focus_Manuela-vende-el-carro.wav,./stim/wavs/puertorican_match_declarative-narrow-focus_Manuela-vende-el-carro.wav,,,,,,,,,,,,,,,,,,,,,,,,,,,,,,,,,,,,,,,,,,,,,,,,,,,,,,,,
,,,,,,,58a5cf959e040a0001399f07,605b45a4d25f287719a41696,605cce6ff978a6a2135b3a74,Spain,Midwest,13 or older,no,2021-03-25_14h00.53.382,empathy_intonation_perc,2020.2.10,Win32,60,,,,,,,,,,0,cuban,0,1,1.552775,0,22,22,37,1,38,./stim/wavs/andalusian_mismatch_declarative-broad-focus_Mi-madre-come-la-fruta.wav,./stim/wavs/argentine_mismatch_declarative-broad-focus_Mi-madre-come-la-fruta.wav,./stim/wavs/castilian_mismatch_declarative-broad-focus_Mi-madre-come-la-fruta.wav,./stim/wavs/chilean_mismatch_declarative-broad-focus_Mi-madre-come-la-fruta.wav,./stim/wavs/cuban_mismatch_declarative-broad-focus_Mi-madre-come-la-fruta.wav,./stim/wavs/mexican_mismatch_declarative-broad-focus_Mi-madre-come-la-fruta.wav,./stim/wavs/peruvian_mismatch_declarative-broad-focus_Mi-madre-come-la-fruta.wav,./stim/wavs/puertorican_mismatch_declarative-broad-focus_Mi-madre-come-la-fruta.wav,,,,,,,,,,,,,,,,,,,,,,,,,,,,,,,,,,,,,,,,,,,,,,,,,,,,,,,,
,,,,,,,58a5cf959e040a0001399f07,605b45a4d25f287719a41696,605cce6ff978a6a2135b3a74,Spain,Midwest,13 or older,no,2021-03-25_14h00.53.382,empathy_intonation_perc,2020.2.10,Win32,60,,,,,,,,,,0,chilean,0,1,1.359715,0,23,23,5,1,6,./stim/wavs/andalusian_match_declarative-broad-focus_Maria-bebe-el-vino.wav,./stim/wavs/argentine_match_declarative-broad-focus_Maria-bebe-el-vino.wav,./stim/wavs/castilian_match_declarative-broad-focus_Maria-bebe-el-vino.wav,./stim/wavs/chilean_match_declarative-broad-focus_Maria-bebe-el-vino.wav,./stim/wavs/cuban_match_declarative-broad-focus_Maria-bebe-el-vino.wav,./stim/wavs/mexican_match_declarative-broad-focus_Maria-bebe-el-vino.wav,./stim/wavs/peruvian_match_declarative-broad-focus_Maria-bebe-el-vino.wav,./stim/wavs/puertorican_match_declarative-broad-focus_Maria-bebe-el-vino.wav,,,,,,,,,,,,,,,,,,,,,,,,,,,,,,,,,,,,,,,,,,,,,,,,,,,,,,,,
,,,,,,,58a5cf959e040a0001399f07,605b45a4d25f287719a41696,605cce6ff978a6a2135b3a74,Spain,Midwest,13 or older,no,2021-03-25_14h00.53.382,empathy_intonation_perc,2020.2.10,Win32,60,,,,,,,,,,0,andalusian,0,1,1.71913,0,24,24,35,1,36,./stim/wavs/andalusian_mismatch_declarative-broad-focus_La-maestra-vive-en-Paris.wav,./stim/wavs/argentine_mismatch_declarative-broad-focus_La-maestra-vive-en-Paris.wav,./stim/wavs/castilian_mismatch_declarative-broad-focus_La-maestra-vive-en-Paris.wav,./stim/wavs/chilean_mismatch_declarative-broad-focus_La-maestra-vive-en-Paris.wav,./stim/wavs/cuban_mismatch_declarative-broad-focus_La-maestra-vive-en-Paris.wav,./stim/wavs/mexican_mismatch_declarative-broad-focus_La-maestra-vive-en-Paris.wav,./stim/wavs/peruvian_mismatch_declarative-broad-focus_La-maestra-vive-en-Paris.wav,./stim/wavs/puertorican_mismatch_declarative-broad-focus_La-maestra-vive-en-Paris.wav,,,,,,,,,,,,,,,,,,,,,,,,,,,,,,,,,,,,,,,,,,,,,,,,,,,,,,,,
,,,,,,,58a5cf959e040a0001399f07,605b45a4d25f287719a41696,605cce6ff978a6a2135b3a74,Spain,Midwest,13 or older,no,2021-03-25_14h00.53.382,empathy_intonation_perc,2020.2.10,Win32,60,,,,,,,,,,1,mexican,0,0,1.36538,0,25,25,61,1,62,./stim/wavs/andalusian_mismatch_interrogative-total-yn_Mi-madre-come-la-fruta.wav,./stim/wavs/argentine_mismatch_interrogative-total-yn_Mi-madre-come-la-fruta.wav,./stim/wavs/castilian_mismatch_interrogative-total-yn_Mi-madre-come-la-fruta.wav,./stim/wavs/chilean_mismatch_interrogative-total-yn_Mi-madre-come-la-fruta.wav,./stim/wavs/cuban_mismatch_interrogative-total-yn_Mi-madre-come-la-fruta.wav,./stim/wavs/mexican_mismatch_interrogative-total-yn_Mi-madre-come-la-fruta.wav,./stim/wavs/peruvian_mismatch_interrogative-total-yn_Mi-madre-come-la-fruta.wav,./stim/wavs/puertorican_mismatch_interrogative-total-yn_Mi-madre-come-la-fruta.wav,,,,,,,,,,,,,,,,,,,,,,,,,,,,,,,,,,,,,,,,,,,,,,,,,,,,,,,,
,,,,,,,58a5cf959e040a0001399f07,605b45a4d25f287719a41696,605cce6ff978a6a2135b3a74,Spain,Midwest,13 or older,no,2021-03-25_14h00.53.382,empathy_intonation_perc,2020.2.10,Win32,60,,,,,,,,,,1,peruvian,1,1,2.352005,0,26,26,56,1,57,./stim/wavs/andalusian_mismatch_interrogative-total-yn_El-bebe-comia-muy-bien.wav,./stim/wavs/argentine_mismatch_interrogative-total-yn_El-bebe-comia-muy-bien.wav,./stim/wavs/castilian_mismatch_interrogative-total-yn_El-bebe-comia-muy-bien.wav,./stim/wavs/chilean_mismatch_interrogative-total-yn_El-bebe-comia-muy-bien.wav,./stim/wavs/cuban_mismatch_interrogative-total-yn_El-bebe-comia-muy-bien.wav,./stim/wavs/mexican_mismatch_interrogative-total-yn_El-bebe-comia-muy-bien.wav,./stim/wavs/peruvian_mismatch_interrogative-total-yn_El-bebe-comia-muy-bien.wav,./stim/wavs/puertorican_mismatch_interrogative-total-yn_El-bebe-comia-muy-bien.wav,,,,,,,,,,,,,,,,,,,,,,,,,,,,,,,,,,,,,,,,,,,,,,,,,,,,,,,,
,,,,,,,58a5cf959e040a0001399f07,605b45a4d25f287719a41696,605cce6ff978a6a2135b3a74,Spain,Midwest,13 or older,no,2021-03-25_14h00.53.382,empathy_intonation_perc,2020.2.10,Win32,60,,,,,,,,,,1,castilian,1,1,1.85373,0,27,27,28,1,29,./stim/wavs/andalusian_match_interrogative-total-yn_Manuela-vende-el-carro.wav,./stim/wavs/argentine_match_interrogative-total-yn_Manuela-vende-el-carro.wav,./stim/wavs/castilian_match_interrogative-total-yn_Manuela-vende-el-carro.wav,./stim/wavs/chilean_match_interrogative-total-yn_Manuela-vende-el-carro.wav,./stim/wavs/cuban_match_interrogative-total-yn_Manuela-vende-el-carro.wav,./stim/wavs/mexican_match_interrogative-total-yn_Manuela-vende-el-carro.wav,./stim/wavs/peruvian_match_interrogative-total-yn_Manuela-vende-el-carro.wav,./stim/wavs/puertorican_match_interrogative-total-yn_Manuela-vende-el-carro.wav,,,,,,,,,,,,,,,,,,,,,,,,,,,,,,,,,,,,,,,,,,,,,,,,,,,,,,,,
,,,,,,,58a5cf959e040a0001399f07,605b45a4d25f287719a41696,605cce6ff978a6a2135b3a74,Spain,Midwest,13 or older,no,2021-03-25_14h00.53.382,empathy_intonation_perc,2020.2.10,Win32,60,,,,,,,,,,1,andalusian,0,0,2.23601,0,28,28,59,1,60,./stim/wavs/andalusian_mismatch_interrogative-total-yn_La-maestra-vive-en-Paris.wav,./stim/wavs/argentine_mismatch_interrogative-total-yn_La-maestra-vive-en-Paris.wav,./stim/wavs/castilian_mismatch_interrogative-total-yn_La-maestra-vive-en-Paris.wav,./stim/wavs/chilean_mismatch_interrogative-total-yn_La-maestra-vive-en-Paris.wav,./stim/wavs/cuban_mismatch_interrogative-total-yn_La-maestra-vive-en-Paris.wav,./stim/wavs/mexican_mismatch_interrogative-total-yn_La-maestra-vive-en-Paris.wav,./stim/wavs/peruvian_mismatch_interrogative-total-yn_La-maestra-vive-en-Paris.wav,./stim/wavs/puertorican_mismatch_interrogative-total-yn_La-maestra-vive-en-Paris.wav,,,,,,,,,,,,,,,,,,,,,,,,,,,,,,,,,,,,,,,,,,,,,,,,,,,,,,,,
,,,,,,,58a5cf959e040a0001399f07,605b45a4d25f287719a41696,605cce6ff978a6a2135b3a74,Spain,Midwest,13 or older,no,2021-03-25_14h00.53.382,empathy_intonation_perc,2020.2.10,Win32,60,,,,,,,,,,0,argentine,0,1,1.600975,0,29,29,36,1,37,./stim/wavs/andalusian_mismatch_declarative-broad-focus_La-nina-lava-el-plato.wav,./stim/wavs/argentine_mismatch_declarative-broad-focus_La-nina-lava-el-plato.wav,./stim/wavs/castilian_mismatch_declarative-broad-focus_La-nina-lava-el-plato.wav,./stim/wavs/chilean_mismatch_declarative-broad-focus_La-nina-lava-el-plato.wav,./stim/wavs/cuban_mismatch_declarative-broad-focus_La-nina-lava-el-plato.wav,./stim/wavs/mexican_mismatch_declarative-broad-focus_La-nina-lava-el-plato.wav,./stim/wavs/peruvian_mismatch_declarative-broad-focus_La-nina-lava-el-plato.wav,./stim/wavs/puertorican_mismatch_declarative-broad-focus_La-nina-lava-el-plato.wav,,,,,,,,,,,,,,,,,,,,,,,,,,,,,,,,,,,,,,,,,,,,,,,,,,,,,,,,
,,,,,,,58a5cf959e040a0001399f07,605b45a4d25f287719a41696,605cce6ff978a6a2135b3a74,Spain,Midwest,13 or older,no,2021-03-25_14h00.53.382,empathy_intonation_perc,2020.2.10,Win32,60,,,,,,,,,,1,argentine,1,1,1.43212,0,30,30,50,1,51,./stim/wavs/andalusian_mismatch_interrogative-partial-wh_Cuando-miraba-la-luna.wav,./stim/wavs/argentine_mismatch_interrogative-partial-wh_Cuando-miraba-la-luna.wav,./stim/wavs/castilian_mismatch_interrogative-partial-wh_Cuando-miraba-la-luna.wav,./stim/wavs/chilean_mismatch_interrogative-partial-wh_Cuando-miraba-la-luna.wav,./stim/wavs/cuban_mismatch_interrogative-partial-wh_Cuando-miraba-la-luna.wav,./stim/wavs/mexican_mismatch_interrogative-partial-wh_Cuando-miraba-la-luna.wav,./stim/wavs/peruvian_mismatch_interrogative-partial-wh_Cuando-miraba-la-luna.wav,./stim/wavs/puertorican_mismatch_interrogative-partial-wh_Cuando-miraba-la-luna.wav,,,,,,,,,,,,,,,,,,,,,,,,,,,,,,,,,,,,,,,,,,,,,,,,,,,,,,,,
,,,,,,,58a5cf959e040a0001399f07,605b45a4d25f287719a41696,605cce6ff978a6a2135b3a74,Spain,Midwest,13 or older,no,2021-03-25_14h00.53.382,empathy_intonation_perc,2020.2.10,Win32,60,,,,,,,,,,1,mexican,0,0,1.503455,0,31,31,27,1,28,./stim/wavs/andalusian_match_interrogative-total-yn_Emilio-ama-la-marcha.wav,./stim/wavs/argentine_match_interrogative-total-yn_Emilio-ama-la-marcha.wav,./stim/wavs/castilian_match_interrogative-total-yn_Emilio-ama-la-marcha.wav,./stim/wavs/chilean_match_interrogative-total-yn_Emilio-ama-la-marcha.wav,./stim/wavs/cuban_match_interrogative-total-yn_Emilio-ama-la-marcha.wav,./stim/wavs/mexican_match_interrogative-total-yn_Emilio-ama-la-marcha.wav,./stim/wavs/peruvian_match_interrogative-total-yn_Emilio-ama-la-marcha.wav,./stim/wavs/puertorican_match_interrogative-total-yn_Emilio-ama-la-marcha.wav,,,,,,,,,,,,,,,,,,,,,,,,,,,,,,,,,,,,,,,,,,,,,,,,,,,,,,,,
,,,,,,,58a5cf959e040a0001399f07,605b45a4d25f287719a41696,605cce6ff978a6a2135b3a74,Spain,Midwest,13 or older,no,2021-03-25_14h00.53.382,empathy_intonation_perc,2020.2.10,Win32,60,,,,,,,,,,1,andalusian,0,0,1.552465,0,32,32,18,1,19,./stim/wavs/andalusian_match_interrogative-partial-wh_Cuando-lleva-el-abrigo.wav,./stim/wavs/argentine_match_interrogative-partial-wh_Cuando-lleva-el-abrigo.wav,./stim/wavs/castilian_match_interrogative-partial-wh_Cuando-lleva-el-abrigo.wav,./stim/wavs/chilean_match_interrogative-partial-wh_Cuando-lleva-el-abrigo.wav,./stim/wavs/cuban_match_interrogative-partial-wh_Cuando-lleva-el-abrigo.wav,./stim/wavs/mexican_match_interrogative-partial-wh_Cuando-lleva-el-abrigo.wav,./stim/wavs/peruvian_match_interrogative-partial-wh_Cuando-lleva-el-abrigo.wav,./stim/wavs/puertorican_match_interrogative-partial-wh_Cuando-lleva-el-abrigo.wav,,,,,,,,,,,,,,,,,,,,,,,,,,,,,,,,,,,,,,,,,,,,,,,,,,,,,,,,
,,,,,,,58a5cf959e040a0001399f07,605b45a4d25f287719a41696,605cce6ff978a6a2135b3a74,Spain,Midwest,13 or older,no,2021-03-25_14h00.53.382,empathy_intonation_perc,2020.2.10,Win32,60,,,,,,,,,,1,puertorican,1,1,1.25301,0,33,33,16,1,17,./stim/wavs/andalusian_match_interrogative-partial-wh_Cuando-bebia-el-vino.wav,./stim/wavs/argentine_match_interrogative-partial-wh_Cuando-bebia-el-vino.wav,./stim/wavs/castilian_match_interrogative-partial-wh_Cuando-bebia-el-vino.wav,./stim/wavs/chilean_match_interrogative-partial-wh_Cuando-bebia-el-vino.wav,./stim/wavs/cuban_match_interrogative-partial-wh_Cuando-bebia-el-vino.wav,./stim/wavs/mexican_match_interrogative-partial-wh_Cuando-bebia-el-vino.wav,./stim/wavs/peruvian_match_interrogative-partial-wh_Cuando-bebia-el-vino.wav,./stim/wavs/puertorican_match_interrogative-partial-wh_Cuando-bebia-el-vino.wav,,,,,,,,,,,,,,,,,,,,,,,,,,,,,,,,,,,,,,,,,,,,,,,,,,,,,,,,
,,,,,,,58a5cf959e040a0001399f07,605b45a4d25f287719a41696,605cce6ff978a6a2135b3a74,Spain,Midwest,13 or older,no,2021-03-25_14h00.53.382,empathy_intonation_perc,2020.2.10,Win32,60,,,,,,,,,,1,castilian,1,1,1.63556,0,34,34,52,1,53,./stim/wavs/andalusian_mismatch_interrogative-partial-wh_Por-que-odiaba-la-lluvia.wav,./stim/wavs/argentine_mismatch_interrogative-partial-wh_Por-que-odiaba-la-lluvia.wav,./stim/wavs/castilian_mismatch_interrogative-partial-wh_Por-que-odiaba-la-lluvia.wav,./stim/wavs/chilean_mismatch_interrogative-partial-wh_Por-que-odiaba-la-lluvia.wav,./stim/wavs/cuban_mismatch_interrogative-partial-wh_Por-que-odiaba-la-lluvia.wav,./stim/wavs/mexican_mismatch_interrogative-partial-wh_Por-que-odiaba-la-lluvia.wav,./stim/wavs/peruvian_mismatch_interrogative-partial-wh_Por-que-odiaba-la-lluvia.wav,./stim/wavs/puertorican_mismatch_interrogative-partial-wh_Por-que-odiaba-la-lluvia.wav,,,,,,,,,,,,,,,,,,,,,,,,,,,,,,,,,,,,,,,,,,,,,,,,,,,,,,,,
,,,,,,,58a5cf959e040a0001399f07,605b45a4d25f287719a41696,605cce6ff978a6a2135b3a74,Spain,Midwest,13 or older,no,2021-03-25_14h00.53.382,empathy_intonation_perc,2020.2.10,Win32,60,,,,,,,,,,1,mexican,0,0,1.40922,0,35,35,58,1,59,./stim/wavs/andalusian_mismatch_interrogative-total-yn_El-nino-oye-el-rio.wav,./stim/wavs/argentine_mismatch_interrogative-total-yn_El-nino-oye-el-rio.wav,./stim/wavs/castilian_mismatch_interrogative-total-yn_El-nino-oye-el-rio.wav,./stim/wavs/chilean_mismatch_interrogative-total-yn_El-nino-oye-el-rio.wav,./stim/wavs/cuban_mismatch_interrogative-total-yn_El-nino-oye-el-rio.wav,./stim/wavs/mexican_mismatch_interrogative-total-yn_El-nino-oye-el-rio.wav,./stim/wavs/peruvian_mismatch_interrogative-total-yn_El-nino-oye-el-rio.wav,./stim/wavs/puertorican_mismatch_interrogative-total-yn_El-nino-oye-el-rio.wav,,,,,,,,,,,,,,,,,,,,,,,,,,,,,,,,,,,,,,,,,,,,,,,,,,,,,,,,
,,,,,,,58a5cf959e040a0001399f07,605b45a4d25f287719a41696,605cce6ff978a6a2135b3a74,Spain,Midwest,13 or older,no,2021-03-25_14h00.53.382,empathy_intonation_perc,2020.2.10,Win32,60,,,,,,,,,,0,puertorican,0,1,1.518075,0,36,36,6,1,7,./stim/wavs/andalusian_match_declarative-broad-focus_Mariano-habla-del-tiempo.wav,./stim/wavs/argentine_match_declarative-broad-focus_Mariano-habla-del-tiempo.wav,./stim/wavs/castilian_match_declarative-broad-focus_Mariano-habla-del-tiempo.wav,./stim/wavs/chilean_match_declarative-broad-focus_Mariano-habla-del-tiempo.wav,./stim/wavs/cuban_match_declarative-broad-focus_Mariano-habla-del-tiempo.wav,./stim/wavs/mexican_match_declarative-broad-focus_Mariano-habla-del-tiempo.wav,./stim/wavs/peruvian_match_declarative-broad-focus_Mariano-habla-del-tiempo.wav,./stim/wavs/puertorican_match_declarative-broad-focus_Mariano-habla-del-tiempo.wav,,,,,,,,,,,,,,,,,,,,,,,,,,,,,,,,,,,,,,,,,,,,,,,,,,,,,,,,
,,,,,,,58a5cf959e040a0001399f07,605b45a4d25f287719a41696,605cce6ff978a6a2135b3a74,Spain,Midwest,13 or older,no,2021-03-25_14h00.53.382,empathy_intonation_perc,2020.2.10,Win32,60,,,,,,,,,,1,argentine,0,0,1.75129,0,37,37,60,1,61,./stim/wavs/andalusian_mismatch_interrogative-total-yn_La-nina-lava-el-plato.wav,./stim/wavs/argentine_mismatch_interrogative-total-yn_La-nina-lava-el-plato.wav,./stim/wavs/castilian_mismatch_interrogative-total-yn_La-nina-lava-el-plato.wav,./stim/wavs/chilean_mismatch_interrogative-total-yn_La-nina-lava-el-plato.wav,./stim/wavs/cuban_mismatch_interrogative-total-yn_La-nina-lava-el-plato.wav,./stim/wavs/mexican_mismatch_interrogative-total-yn_La-nina-lava-el-plato.wav,./stim/wavs/peruvian_mismatch_interrogative-total-yn_La-nina-lava-el-plato.wav,./stim/wavs/puertorican_mismatch_interrogative-total-yn_La-nina-lava-el-plato.wav,,,,,,,,,,,,,,,,,,,,,,,,,,,,,,,,,,,,,,,,,,,,,,,,,,,,,,,,
,,,,,,,58a5cf959e040a0001399f07,605b45a4d25f287719a41696,605cce6ff978a6a2135b3a74,Spain,Midwest,13 or older,no,2021-03-25_14h00.53.382,empathy_intonation_perc,2020.2.10,Win32,60,,,,,,,,,,1,puertorican,0,0,1.52818,0,38,38,31,1,32,./stim/wavs/andalusian_match_interrogative-total-yn_Marta-abre-el-regalo.wav,./stim/wavs/argentine_match_interrogative-total-yn_Marta-abre-el-regalo.wav,./stim/wavs/castilian_match_interrogative-total-yn_Marta-abre-el-regalo.wav,./stim/wavs/chilean_match_interrogative-total-yn_Marta-abre-el-regalo.wav,./stim/wavs/cuban_match_interrogative-total-yn_Marta-abre-el-regalo.wav,./stim/wavs/mexican_match_interrogative-total-yn_Marta-abre-el-regalo.wav,./stim/wavs/peruvian_match_interrogative-total-yn_Marta-abre-el-regalo.wav,./stim/wavs/puertorican_match_interrogative-total-yn_Marta-abre-el-regalo.wav,,,,,,,,,,,,,,,,,,,,,,,,,,,,,,,,,,,,,,,,,,,,,,,,,,,,,,,,
,,,,,,,58a5cf959e040a0001399f07,605b45a4d25f287719a41696,605cce6ff978a6a2135b3a74,Spain,Midwest,13 or older,no,2021-03-25_14h00.53.382,empathy_intonation_perc,2020.2.10,Win32,60,,,,,,,,,,0,mexican,0,1,1.579025,0,39,39,47,1,48,./stim/wavs/andalusian_mismatch_declarative-narrow-focus_Mi-tia-odia-la-lluvia.wav,./stim/wavs/argentine_mismatch_declarative-narrow-focus_Mi-tia-odia-la-lluvia.wav,./stim/wavs/castilian_mismatch_declarative-narrow-focus_Mi-tia-odia-la-lluvia.wav,./stim/wavs/chilean_mismatch_declarative-narrow-focus_Mi-tia-odia-la-lluvia.wav,./stim/wavs/cuban_mismatch_declarative-narrow-focus_Mi-tia-odia-la-lluvia.wav,./stim/wavs/mexican_mismatch_declarative-narrow-focus_Mi-tia-odia-la-lluvia.wav,./stim/wavs/peruvian_mismatch_declarative-narrow-focus_Mi-tia-odia-la-lluvia.wav,./stim/wavs/puertorican_mismatch_declarative-narrow-focus_Mi-tia-odia-la-lluvia.wav,,,,,,,,,,,,,,,,,,,,,,,,,,,,,,,,,,,,,,,,,,,,,,,,,,,,,,,,
,,,,,,,58a5cf959e040a0001399f07,605b45a4d25f287719a41696,605cce6ff978a6a2135b3a74,Spain,Midwest,13 or older,no,2021-03-25_14h00.53.382,empathy_intonation_perc,2020.2.10,Win32,60,,,,,,,,,,0,peruvian,0,1,1.56821,0,40,40,13,1,14,./stim/wavs/andalusian_match_declarative-narrow-focus_Maria-bebe-el-vino.wav,./stim/wavs/argentine_match_declarative-narrow-focus_Maria-bebe-el-vino.wav,./stim/wavs/castilian_match_declarative-narrow-focus_Maria-bebe-el-vino.wav,./stim/wavs/chilean_match_declarative-narrow-focus_Maria-bebe-el-vino.wav,./stim/wavs/cuban_match_declarative-narrow-focus_Maria-bebe-el-vino.wav,./stim/wavs/mexican_match_declarative-narrow-focus_Maria-bebe-el-vino.wav,./stim/wavs/peruvian_match_declarative-narrow-focus_Maria-bebe-el-vino.wav,./stim/wavs/puertorican_match_declarative-narrow-focus_Maria-bebe-el-vino.wav,,,,,,,,,,,,,,,,,,,,,,,,,,,,,,,,,,,,,,,,,,,,,,,,,,,,,,,,
,,,,,,,58a5cf959e040a0001399f07,605b45a4d25f287719a41696,605cce6ff978a6a2135b3a74,Spain,Midwest,13 or older,no,2021-03-25_14h00.53.382,empathy_intonation_perc,2020.2.10,Win32,60,,,,,,,,,,1,peruvian,0,0,1.74322,0,41,41,30,1,31,./stim/wavs/andalusian_match_interrogative-total-yn_Mariano-habla-del-tiempo.wav,./stim/wavs/argentine_match_interrogative-total-yn_Mariano-habla-del-tiempo.wav,./stim/wavs/castilian_match_interrogative-total-yn_Mariano-habla-del-tiempo.wav,./stim/wavs/chilean_match_interrogative-total-yn_Mariano-habla-del-tiempo.wav,./stim/wavs/cuban_match_interrogative-total-yn_Mariano-habla-del-tiempo.wav,./stim/wavs/mexican_match_interrogative-total-yn_Mariano-habla-del-tiempo.wav,./stim/wavs/peruvian_match_interrogative-total-yn_Mariano-habla-del-tiempo.wav,./stim/wavs/puertorican_match_interrogative-total-yn_Mariano-habla-del-tiempo.wav,,,,,,,,,,,,,,,,,,,,,,,,,,,,,,,,,,,,,,,,,,,,,,,,,,,,,,,,
,,,,,,,58a5cf959e040a0001399f07,605b45a4d25f287719a41696,605cce6ff978a6a2135b3a74,Spain,Midwest,13 or older,no,2021-03-25_14h00.53.382,empathy_intonation_perc,2020.2.10,Win32,60,,,,,,,,,,1,puertorican,1,1,1.262085,0,42,42,23,1,24,./stim/wavs/andalusian_match_interrogative-partial-wh_Por-que-iba-a-Bolivia.wav,./stim/wavs/argentine_match_interrogative-partial-wh_Por-que-iba-a-Bolivia.wav,./stim/wavs/castilian_match_interrogative-partial-wh_Por-que-iba-a-Bolivia.wav,./stim/wavs/chilean_match_interrogative-partial-wh_Por-que-iba-a-Bolivia.wav,./stim/wavs/cuban_match_interrogative-partial-wh_Por-que-iba-a-Bolivia.wav,./stim/wavs/mexican_match_interrogative-partial-wh_Por-que-iba-a-Bolivia.wav,./stim/wavs/peruvian_match_interrogative-partial-wh_Por-que-iba-a-Bolivia.wav,./stim/wavs/puertorican_match_interrogative-partial-wh_Por-que-iba-a-Bolivia.wav,,,,,,,,,,,,,,,,,,,,,,,,,,,,,,,,,,,,,,,,,,,,,,,,,,,,,,,,
,,,,,,,58a5cf959e040a0001399f07,605b45a4d25f287719a41696,605cce6ff978a6a2135b3a74,Spain,Midwest,13 or older,no,2021-03-25_14h00.53.382,empathy_intonation_perc,2020.2.10,Win32,60,,,,,,,,,,0,mexican,0,1,1.30157,0,43,43,7,1,8,./stim/wavs/andalusian_match_declarative-broad-focus_Marta-abre-el-regalo.wav,./stim/wavs/argentine_match_declarative-broad-focus_Marta-abre-el-regalo.wav,./stim/wavs/castilian_match_declarative-broad-focus_Marta-abre-el-regalo.wav,./stim/wavs/chilean_match_declarative-broad-focus_Marta-abre-el-regalo.wav,./stim/wavs/cuban_match_declarative-broad-focus_Marta-abre-el-regalo.wav,./stim/wavs/mexican_match_declarative-broad-focus_Marta-abre-el-regalo.wav,./stim/wavs/peruvian_match_declarative-broad-focus_Marta-abre-el-regalo.wav,./stim/wavs/puertorican_match_declarative-broad-focus_Marta-abre-el-regalo.wav,,,,,,,,,,,,,,,,,,,,,,,,,,,,,,,,,,,,,,,,,,,,,,,,,,,,,,,,
,,,,,,,58a5cf959e040a0001399f07,605b45a4d25f287719a41696,605cce6ff978a6a2135b3a74,Spain,Midwest,13 or older,no,2021-03-25_14h00.53.382,empathy_intonation_perc,2020.2.10,Win32,60,,,,,,,,,,0,andalusian,0,1,1.501795,0,44,44,45,1,46,./stim/wavs/andalusian_mismatch_declarative-narrow-focus_Mi-madre-come-la-fruta.wav,./stim/wavs/argentine_mismatch_declarative-narrow-focus_Mi-madre-come-la-fruta.wav,./stim/wavs/castilian_mismatch_declarative-narrow-focus_Mi-madre-come-la-fruta.wav,./stim/wavs/chilean_mismatch_declarative-narrow-focus_Mi-madre-come-la-fruta.wav,./stim/wavs/cuban_mismatch_declarative-narrow-focus_Mi-madre-come-la-fruta.wav,./stim/wavs/mexican_mismatch_declarative-narrow-focus_Mi-madre-come-la-fruta.wav,./stim/wavs/peruvian_mismatch_declarative-narrow-focus_Mi-madre-come-la-fruta.wav,./stim/wavs/puertorican_mismatch_declarative-narrow-focus_Mi-madre-come-la-fruta.wav,,,,,,,,,,,,,,,,,,,,,,,,,,,,,,,,,,,,,,,,,,,,,,,,,,,,,,,,
,,,,,,,58a5cf959e040a0001399f07,605b45a4d25f287719a41696,605cce6ff978a6a2135b3a74,Spain,Midwest,13 or older,no,2021-03-25_14h00.53.382,empathy_intonation_perc,2020.2.10,Win32,60,,,,,,,,,,0,peruvian,0,1,1.57955,0,45,45,2,1,3,./stim/wavs/andalusian_match_declarative-broad-focus_David-leia-el-libro.wav,./stim/wavs/argentine_match_declarative-broad-focus_David-leia-el-libro.wav,./stim/wavs/castilian_match_declarative-broad-focus_David-leia-el-libro.wav,./stim/wavs/chilean_match_declarative-broad-focus_David-leia-el-libro.wav,./stim/wavs/cuban_match_declarative-broad-focus_David-leia-el-libro.wav,./stim/wavs/mexican_match_declarative-broad-focus_David-leia-el-libro.wav,./stim/wavs/peruvian_match_declarative-broad-focus_David-leia-el-libro.wav,./stim/wavs/puertorican_match_declarative-broad-focus_David-leia-el-libro.wav,,,,,,,,,,,,,,,,,,,,,,,,,,,,,,,,,,,,,,,,,,,,,,,,,,,,,,,,
,,,,,,,58a5cf959e040a0001399f07,605b45a4d25f287719a41696,605cce6ff978a6a2135b3a74,Spain,Midwest,13 or older,no,2021-03-25_14h00.53.382,empathy_intonation_perc,2020.2.10,Win32,60,,,,,,,,,,0,argentine,0,1,1.41933,0,46,46,1,1,2,./stim/wavs/andalusian_match_declarative-broad-focus_Daniel-iba-a-Bolivia.wav,./stim/wavs/argentine_match_declarative-broad-focus_Daniel-iba-a-Bolivia.wav,./stim/wavs/castilian_match_declarative-broad-focus_Daniel-iba-a-Bolivia.wav,./stim/wavs/chilean_match_declarative-broad-focus_Daniel-iba-a-Bolivia.wav,./stim/wavs/cuban_match_declarative-broad-focus_Daniel-iba-a-Bolivia.wav,./stim/wavs/mexican_match_declarative-broad-focus_Daniel-iba-a-Bolivia.wav,./stim/wavs/peruvian_match_declarative-broad-focus_Daniel-iba-a-Bolivia.wav,./stim/wavs/puertorican_match_declarative-broad-focus_Daniel-iba-a-Bolivia.wav,,,,,,,,,,,,,,,,,,,,,,,,,,,,,,,,,,,,,,,,,,,,,,,,,,,,,,,,
,,,,,,,58a5cf959e040a0001399f07,605b45a4d25f287719a41696,605cce6ff978a6a2135b3a74,Spain,Midwest,13 or older,no,2021-03-25_14h00.53.382,empathy_intonation_perc,2020.2.10,Win32,60,,,,,,,,,,1,cuban,1,1,1.412625,0,47,47,54,1,55,./stim/wavs/andalusian_mismatch_interrogative-partial-wh_Por-que-venia-del-lago.wav,./stim/wavs/argentine_mismatch_interrogative-partial-wh_Por-que-venia-del-lago.wav,./stim/wavs/castilian_mismatch_interrogative-partial-wh_Por-que-venia-del-lago.wav,./stim/wavs/chilean_mismatch_interrogative-partial-wh_Por-que-venia-del-lago.wav,./stim/wavs/cuban_mismatch_interrogative-partial-wh_Por-que-venia-del-lago.wav,./stim/wavs/mexican_mismatch_interrogative-partial-wh_Por-que-venia-del-lago.wav,./stim/wavs/peruvian_mismatch_interrogative-partial-wh_Por-que-venia-del-lago.wav,./stim/wavs/puertorican_mismatch_interrogative-partial-wh_Por-que-venia-del-lago.wav,,,,,,,,,,,,,,,,,,,,,,,,,,,,,,,,,,,,,,,,,,,,,,,,,,,,,,,,
,,,,,,,58a5cf959e040a0001399f07,605b45a4d25f287719a41696,605cce6ff978a6a2135b3a74,Spain,Midwest,13 or older,no,2021-03-25_14h00.53.382,empathy_intonation_perc,2020.2.10,Win32,60,,,,,,,,,,0,chilean,0,1,1.50176,0,48,48,32,1,33,./stim/wavs/andalusian_mismatch_declarative-broad-focus_El-bebe-comia-muy-bien.wav,./stim/wavs/argentine_mismatch_declarative-broad-focus_El-bebe-comia-muy-bien.wav,./stim/wavs/castilian_mismatch_declarative-broad-focus_El-bebe-comia-muy-bien.wav,./stim/wavs/chilean_mismatch_declarative-broad-focus_El-bebe-comia-muy-bien.wav,./stim/wavs/cuban_mismatch_declarative-broad-focus_El-bebe-comia-muy-bien.wav,./stim/wavs/mexican_mismatch_declarative-broad-focus_El-bebe-comia-muy-bien.wav,./stim/wavs/peruvian_mismatch_declarative-broad-focus_El-bebe-comia-muy-bien.wav,./stim/wavs/puertorican_mismatch_declarative-broad-focus_El-bebe-comia-muy-bien.wav,,,,,,,,,,,,,,,,,,,,,,,,,,,,,,,,,,,,,,,,,,,,,,,,,,,,,,,,
,,,,,,,58a5cf959e040a0001399f07,605b45a4d25f287719a41696,605cce6ff978a6a2135b3a74,Spain,Midwest,13 or older,no,2021-03-25_14h00.53.382,empathy_intonation_perc,2020.2.10,Win32,60,,,,,,,,,,1,cuban,0,0,1.663595,0,49,49,57,1,58,./stim/wavs/andalusian_mismatch_interrogative-total-yn_El-hombre-mira-la-luna.wav,./stim/wavs/argentine_mismatch_interrogative-total-yn_El-hombre-mira-la-luna.wav,./stim/wavs/castilian_mismatch_interrogative-total-yn_El-hombre-mira-la-luna.wav,./stim/wavs/chilean_mismatch_interrogative-total-yn_El-hombre-mira-la-luna.wav,./stim/wavs/cuban_mismatch_interrogative-total-yn_El-hombre-mira-la-luna.wav,./stim/wavs/mexican_mismatch_interrogative-total-yn_El-hombre-mira-la-luna.wav,./stim/wavs/peruvian_mismatch_interrogative-total-yn_El-hombre-mira-la-luna.wav,./stim/wavs/puertorican_mismatch_interrogative-total-yn_El-hombre-mira-la-luna.wav,,,,,,,,,,,,,,,,,,,,,,,,,,,,,,,,,,,,,,,,,,,,,,,,,,,,,,,,
,,,,,,,58a5cf959e040a0001399f07,605b45a4d25f287719a41696,605cce6ff978a6a2135b3a74,Spain,Midwest,13 or older,no,2021-03-25_14h00.53.382,empathy_intonation_perc,2020.2.10,Win32,60,,,,,,,,,,0,mexican,0,1,1.43589,0,50,50,11,1,12,./stim/wavs/andalusian_match_declarative-narrow-focus_Emilio-ama-la-marcha.wav,./stim/wavs/argentine_match_declarative-narrow-focus_Emilio-ama-la-marcha.wav,./stim/wavs/castilian_match_declarative-narrow-focus_Emilio-ama-la-marcha.wav,./stim/wavs/chilean_match_declarative-narrow-focus_Emilio-ama-la-marcha.wav,./stim/wavs/cuban_match_declarative-narrow-focus_Emilio-ama-la-marcha.wav,./stim/wavs/mexican_match_declarative-narrow-focus_Emilio-ama-la-marcha.wav,./stim/wavs/peruvian_match_declarative-narrow-focus_Emilio-ama-la-marcha.wav,./stim/wavs/puertorican_match_declarative-narrow-focus_Emilio-ama-la-marcha.wav,,,,,,,,,,,,,,,,,,,,,,,,,,,,,,,,,,,,,,,,,,,,,,,,,,,,,,,,
,,,,,,,58a5cf959e040a0001399f07,605b45a4d25f287719a41696,605cce6ff978a6a2135b3a74,Spain,Midwest,13 or older,no,2021-03-25_14h00.53.382,empathy_intonation_perc,2020.2.10,Win32,60,,,,,,,,,,0,andalusian,0,1,1.41796,0,51,51,8,1,9,./stim/wavs/andalusian_match_declarative-narrow-focus_Ana-lleva-el-abrigo.wav,./stim/wavs/argentine_match_declarative-narrow-focus_Ana-lleva-el-abrigo.wav,./stim/wavs/castilian_match_declarative-narrow-focus_Ana-lleva-el-abrigo.wav,./stim/wavs/chilean_match_declarative-narrow-focus_Ana-lleva-el-abrigo.wav,./stim/wavs/cuban_match_declarative-narrow-focus_Ana-lleva-el-abrigo.wav,./stim/wavs/mexican_match_declarative-narrow-focus_Ana-lleva-el-abrigo.wav,./stim/wavs/peruvian_match_declarative-narrow-focus_Ana-lleva-el-abrigo.wav,./stim/wavs/puertorican_match_declarative-narrow-focus_Ana-lleva-el-abrigo.wav,,,,,,,,,,,,,,,,,,,,,,,,,,,,,,,,,,,,,,,,,,,,,,,,,,,,,,,,
,,,,,,,58a5cf959e040a0001399f07,605b45a4d25f287719a41696,605cce6ff978a6a2135b3a74,Spain,Midwest,13 or older,no,2021-03-25_14h00.53.382,empathy_intonation_perc,2020.2.10,Win32,60,,,,,,,,,,0,mexican,0,1,1.435435,0,52,52,46,1,47,./stim/wavs/andalusian_mismatch_declarative-narrow-focus_Mi-novio-viene-del-lago.wav,./stim/wavs/argentine_mismatch_declarative-narrow-focus_Mi-novio-viene-del-lago.wav,./stim/wavs/castilian_mismatch_declarative-narrow-focus_Mi-novio-viene-del-lago.wav,./stim/wavs/chilean_mismatch_declarative-narrow-focus_Mi-novio-viene-del-lago.wav,./stim/wavs/cuban_mismatch_declarative-narrow-focus_Mi-novio-viene-del-lago.wav,./stim/wavs/mexican_mismatch_declarative-narrow-focus_Mi-novio-viene-del-lago.wav,./stim/wavs/peruvian_mismatch_declarative-narrow-focus_Mi-novio-viene-del-lago.wav,./stim/wavs/puertorican_mismatch_declarative-narrow-focus_Mi-novio-viene-del-lago.wav,,,,,,,,,,,,,,,,,,,,,,,,,,,,,,,,,,,,,,,,,,,,,,,,,,,,,,,,
,,,,,,,58a5cf959e040a0001399f07,605b45a4d25f287719a41696,605cce6ff978a6a2135b3a74,Spain,Midwest,13 or older,no,2021-03-25_14h00.53.382,empathy_intonation_perc,2020.2.10,Win32,60,,,,,,,,,,0,mexican,0,1,1.28501,0,53,53,0,1,1,./stim/wavs/andalusian_match_declarative-broad-focus_Ana-lleva-el-abrigo.wav,./stim/wavs/argentine_match_declarative-broad-focus_Ana-lleva-el-abrigo.wav,./stim/wavs/castilian_match_declarative-broad-focus_Ana-lleva-el-abrigo.wav,./stim/wavs/chilean_match_declarative-broad-focus_Ana-lleva-el-abrigo.wav,./stim/wavs/cuban_match_declarative-broad-focus_Ana-lleva-el-abrigo.wav,./stim/wavs/mexican_match_declarative-broad-focus_Ana-lleva-el-abrigo.wav,./stim/wavs/peruvian_match_declarative-broad-focus_Ana-lleva-el-abrigo.wav,./stim/wavs/puertorican_match_declarative-broad-focus_Ana-lleva-el-abrigo.wav,,,,,,,,,,,,,,,,,,,,,,,,,,,,,,,,,,,,,,,,,,,,,,,,,,,,,,,,
,,,,,,,58a5cf959e040a0001399f07,605b45a4d25f287719a41696,605cce6ff978a6a2135b3a74,Spain,Midwest,13 or older,no,2021-03-25_14h00.53.382,empathy_intonation_perc,2020.2.10,Win32,60,,,,,,,,,,0,mexican,0,1,1.42054,0,54,54,39,1,40,./stim/wavs/andalusian_mismatch_declarative-broad-focus_Mi-tia-odia-la-lluvia.wav,./stim/wavs/argentine_mismatch_declarative-broad-focus_Mi-tia-odia-la-lluvia.wav,./stim/wavs/castilian_mismatch_declarative-broad-focus_Mi-tia-odia-la-lluvia.wav,./stim/wavs/chilean_mismatch_declarative-broad-focus_Mi-tia-odia-la-lluvia.wav,./stim/wavs/cuban_mismatch_declarative-broad-focus_Mi-tia-odia-la-lluvia.wav,./stim/wavs/mexican_mismatch_declarative-broad-focus_Mi-tia-odia-la-lluvia.wav,./stim/wavs/peruvian_mismatch_declarative-broad-focus_Mi-tia-odia-la-lluvia.wav,./stim/wavs/puertorican_mismatch_declarative-broad-focus_Mi-tia-odia-la-lluvia.wav,,,,,,,,,,,,,,,,,,,,,,,,,,,,,,,,,,,,,,,,,,,,,,,,,,,,,,,,
,,,,,,,58a5cf959e040a0001399f07,605b45a4d25f287719a41696,605cce6ff978a6a2135b3a74,Spain,Midwest,13 or older,no,2021-03-25_14h00.53.382,empathy_intonation_perc,2020.2.10,Win32,60,,,,,,,,,,0,peruvian,0,1,1.852575,0,55,55,44,1,45,./stim/wavs/andalusian_mismatch_declarative-narrow-focus_La-nina-lava-el-plato.wav,./stim/wavs/argentine_mismatch_declarative-narrow-focus_La-nina-lava-el-plato.wav,./stim/wavs/castilian_mismatch_declarative-narrow-focus_La-nina-lava-el-plato.wav,./stim/wavs/chilean_mismatch_declarative-narrow-focus_La-nina-lava-el-plato.wav,./stim/wavs/cuban_mismatch_declarative-narrow-focus_La-nina-lava-el-plato.wav,./stim/wavs/mexican_mismatch_declarative-narrow-focus_La-nina-lava-el-plato.wav,./stim/wavs/peruvian_mismatch_declarative-narrow-focus_La-nina-lava-el-plato.wav,./stim/wavs/puertorican_mismatch_declarative-narrow-focus_La-nina-lava-el-plato.wav,,,,,,,,,,,,,,,,,,,,,,,,,,,,,,,,,,,,,,,,,,,,,,,,,,,,,,,,
,,,,,,,58a5cf959e040a0001399f07,605b45a4d25f287719a41696,605cce6ff978a6a2135b3a74,Spain,Midwest,13 or older,no,2021-03-25_14h00.53.382,empathy_intonation_perc,2020.2.10,Win32,60,,,,,,,,,,1,castilian,0,0,1.62524,0,56,56,62,1,63,./stim/wavs/andalusian_mismatch_interrogative-total-yn_Mi-novio-viene-del-lago.wav,./stim/wavs/argentine_mismatch_interrogative-total-yn_Mi-novio-viene-del-lago.wav,./stim/wavs/castilian_mismatch_interrogative-total-yn_Mi-novio-viene-del-lago.wav,./stim/wavs/chilean_mismatch_interrogative-total-yn_Mi-novio-viene-del-lago.wav,./stim/wavs/cuban_mismatch_interrogative-total-yn_Mi-novio-viene-del-lago.wav,./stim/wavs/mexican_mismatch_interrogative-total-yn_Mi-novio-viene-del-lago.wav,./stim/wavs/peruvian_mismatch_interrogative-total-yn_Mi-novio-viene-del-lago.wav,./stim/wavs/puertorican_mismatch_interrogative-total-yn_Mi-novio-viene-del-lago.wav,,,,,,,,,,,,,,,,,,,,,,,,,,,,,,,,,,,,,,,,,,,,,,,,,,,,,,,,
,,,,,,,58a5cf959e040a0001399f07,605b45a4d25f287719a41696,605cce6ff978a6a2135b3a74,Spain,Midwest,13 or older,no,2021-03-25_14h00.53.382,empathy_intonation_perc,2020.2.10,Win32,60,,,,,,,,,,1,chilean,0,0,1.75181,0,57,57,63,1,64,./stim/wavs/andalusian_mismatch_interrogative-total-yn_Mi-tia-odia-la-lluvia.wav,./stim/wavs/argentine_mismatch_interrogative-total-yn_Mi-tia-odia-la-lluvia.wav,./stim/wavs/castilian_mismatch_interrogative-total-yn_Mi-tia-odia-la-lluvia.wav,./stim/wavs/chilean_mismatch_interrogative-total-yn_Mi-tia-odia-la-lluvia.wav,./stim/wavs/cuban_mismatch_interrogative-total-yn_Mi-tia-odia-la-lluvia.wav,./stim/wavs/mexican_mismatch_interrogative-total-yn_Mi-tia-odia-la-lluvia.wav,./stim/wavs/peruvian_mismatch_interrogative-total-yn_Mi-tia-odia-la-lluvia.wav,./stim/wavs/puertorican_mismatch_interrogative-total-yn_Mi-tia-odia-la-lluvia.wav,,,,,,,,,,,,,,,,,,,,,,,,,,,,,,,,,,,,,,,,,,,,,,,,,,,,,,,,
,,,,,,,58a5cf959e040a0001399f07,605b45a4d25f287719a41696,605cce6ff978a6a2135b3a74,Spain,Midwest,13 or older,no,2021-03-25_14h00.53.382,empathy_intonation_perc,2020.2.10,Win32,60,,,,,,,,,,0,andalusian,0,1,1.48,0,58,58,34,1,35,./stim/wavs/andalusian_mismatch_declarative-broad-focus_El-nino-oye-el-rio.wav,./stim/wavs/argentine_mismatch_declarative-broad-focus_El-nino-oye-el-rio.wav,./stim/wavs/castilian_mismatch_declarative-broad-focus_El-nino-oye-el-rio.wav,./stim/wavs/chilean_mismatch_declarative-broad-focus_El-nino-oye-el-rio.wav,./stim/wavs/cuban_mismatch_declarative-broad-focus_El-nino-oye-el-rio.wav,./stim/wavs/mexican_mismatch_declarative-broad-focus_El-nino-oye-el-rio.wav,./stim/wavs/peruvian_mismatch_declarative-broad-focus_El-nino-oye-el-rio.wav,./stim/wavs/puertorican_mismatch_declarative-broad-focus_El-nino-oye-el-rio.wav,,,,,,,,,,,,,,,,,,,,,,,,,,,,,,,,,,,,,,,,,,,,,,,,,,,,,,,,
,,,,,,,58a5cf959e040a0001399f07,605b45a4d25f287719a41696,605cce6ff978a6a2135b3a74,Spain,Midwest,13 or older,no,2021-03-25_14h00.53.382,empathy_intonation_perc,2020.2.10,Win32,60,,,,,,,,,,0,puertorican,0,1,1.33016,0,59,59,42,1,43,./stim/wavs/andalusian_mismatch_declarative-narrow-focus_El-nino-oye-el-rio.wav,./stim/wavs/argentine_mismatch_declarative-narrow-focus_El-nino-oye-el-rio.wav,./stim/wavs/castilian_mismatch_declarative-narrow-focus_El-nino-oye-el-rio.wav,./stim/wavs/chilean_mismatch_declarative-narrow-focus_El-nino-oye-el-rio.wav,./stim/wavs/cuban_mismatch_declarative-narrow-focus_El-nino-oye-el-rio.wav,./stim/wavs/mexican_mismatch_declarative-narrow-focus_El-nino-oye-el-rio.wav,./stim/wavs/peruvian_mismatch_declarative-narrow-focus_El-nino-oye-el-rio.wav,./stim/wavs/puertorican_mismatch_declarative-narrow-focus_El-nino-oye-el-rio.wav,,,,,,,,,,,,,,,,,,,,,,,,,,,,,,,,,,,,,,,,,,,,,,,,,,,,,,,,
,,,,,,,58a5cf959e040a0001399f07,605b45a4d25f287719a41696,605cce6ff978a6a2135b3a74,Spain,Midwest,13 or older,no,2021-03-25_14h00.53.382,empathy_intonation_perc,2020.2.10,Win32,60,,,,,,,,,,0,mexican,0,1,1.503765,0,60,60,14,1,15,./stim/wavs/andalusian_match_declarative-narrow-focus_Mariano-habla-del-tiempo.wav,./stim/wavs/argentine_match_declarative-narrow-focus_Mariano-habla-del-tiempo.wav,./stim/wavs/castilian_match_declarative-narrow-focus_Mariano-habla-del-tiempo.wav,./stim/wavs/chilean_match_declarative-narrow-focus_Mariano-habla-del-tiempo.wav,./stim/wavs/cuban_match_declarative-narrow-focus_Mariano-habla-del-tiempo.wav,./stim/wavs/mexican_match_declarative-narrow-focus_Mariano-habla-del-tiempo.wav,./stim/wavs/peruvian_match_declarative-narrow-focus_Mariano-habla-del-tiempo.wav,./stim/wavs/puertorican_match_declarative-narrow-focus_Mariano-habla-del-tiempo.wav,,,,,,,,,,,,,,,,,,,,,,,,,,,,,,,,,,,,,,,,,,,,,,,,,,,,,,,,
,,,,,,,58a5cf959e040a0001399f07,605b45a4d25f287719a41696,605cce6ff978a6a2135b3a74,Spain,Midwest,13 or older,no,2021-03-25_14h00.53.382,empathy_intonation_perc,2020.2.10,Win32,60,,,,,,,,,,0,mexican,0,1,1.55166,0,61,61,3,1,4,./stim/wavs/andalusian_match_declarative-broad-focus_Emilio-ama-la-marcha.wav,./stim/wavs/argentine_match_declarative-broad-focus_Emilio-ama-la-marcha.wav,./stim/wavs/castilian_match_declarative-broad-focus_Emilio-ama-la-marcha.wav,./stim/wavs/chilean_match_declarative-broad-focus_Emilio-ama-la-marcha.wav,./stim/wavs/cuban_match_declarative-broad-focus_Emilio-ama-la-marcha.wav,./stim/wavs/mexican_match_declarative-broad-focus_Emilio-ama-la-marcha.wav,./stim/wavs/peruvian_match_declarative-broad-focus_Emilio-ama-la-marcha.wav,./stim/wavs/puertorican_match_declarative-broad-focus_Emilio-ama-la-marcha.wav,,,,,,,,,,,,,,,,,,,,,,,,,,,,,,,,,,,,,,,,,,,,,,,,,,,,,,,,
,,,,,,,58a5cf959e040a0001399f07,605b45a4d25f287719a41696,605cce6ff978a6a2135b3a74,Spain,Midwest,13 or older,no,2021-03-25_14h00.53.382,empathy_intonation_perc,2020.2.10,Win32,60,,,,,,,,,,1,castilian,1,1,1.627495,0,62,62,29,1,30,./stim/wavs/andalusian_match_interrogative-total-yn_Maria-bebe-el-vino.wav,./stim/wavs/argentine_match_interrogative-total-yn_Maria-bebe-el-vino.wav,./stim/wavs/castilian_match_interrogative-total-yn_Maria-bebe-el-vino.wav,./stim/wavs/chilean_match_interrogative-total-yn_Maria-bebe-el-vino.wav,./stim/wavs/cuban_match_interrogative-total-yn_Maria-bebe-el-vino.wav,./stim/wavs/mexican_match_interrogative-total-yn_Maria-bebe-el-vino.wav,./stim/wavs/peruvian_match_interrogative-total-yn_Maria-bebe-el-vino.wav,./stim/wavs/puertorican_match_interrogative-total-yn_Maria-bebe-el-vino.wav,,,,,,,,,,,,,,,,,,,,,,,,,,,,,,,,,,,,,,,,,,,,,,,,,,,,,,,,
,,,,,,,58a5cf959e040a0001399f07,605b45a4d25f287719a41696,605cce6ff978a6a2135b3a74,Spain,Midwest,13 or older,no,2021-03-25_14h00.53.382,empathy_intonation_perc,2020.2.10,Win32,60,,,,,,,,,,0,cuban,0,1,1.303355,0,63,63,40,1,41,./stim/wavs/andalusian_mismatch_declarative-narrow-focus_El-bebe-comia-muy-bien.wav,./stim/wavs/argentine_mismatch_declarative-narrow-focus_El-bebe-comia-muy-bien.wav,./stim/wavs/castilian_mismatch_declarative-narrow-focus_El-bebe-comia-muy-bien.wav,./stim/wavs/chilean_mismatch_declarative-narrow-focus_El-bebe-comia-muy-bien.wav,./stim/wavs/cuban_mismatch_declarative-narrow-focus_El-bebe-comia-muy-bien.wav,./stim/wavs/mexican_mismatch_declarative-narrow-focus_El-bebe-comia-muy-bien.wav,./stim/wavs/peruvian_mismatch_declarative-narrow-focus_El-bebe-comia-muy-bien.wav,./stim/wavs/puertorican_mismatch_declarative-narrow-focus_El-bebe-comia-muy-bien.wav,,,,,,,,,,,,,,,,,,,,,,,,,,,,,,,,,,,,,,,,,,,,,,,,,,,,,,,,
,,,,,,,58a5cf959e040a0001399f07,605b45a4d25f287719a41696,605cce6ff978a6a2135b3a74,Spain,Midwest,13 or older,no,2021-03-25_14h00.53.382,empathy_intonation_perc,2020.2.10,Win32,60,,,,,,,,,,,,,,,,,,,,,,,,,,,,,h,1,19.570815,0,0,0,0,1,,,,,,,,,,,,,,,,,,,,,,,,,,,,,,,,,,,,,,,,,,,,,,,,
,,,,,"Great! Now we will move on. The next task consists of about 60 trials, in each of which you will see a string of letters. 
  
  Your task is to decide whether this is a real Spanish word or not.",(press the spacebar to continue),58a5cf959e040a0001399f07,605b45a4d25f287719a41696,605cce6ff978a6a2135b3a74,Spain,Midwest,13 or older,no,2021-03-25_14h00.53.382,empathy_intonation_perc,2020.2.10,Win32,60,,,,,,,,,,,,,,,,,,,,,,,,,,,,,,,,,,,,,0,0,0,0,1,,,,,,,,,,,,,,,,,,,,,,,,,,,,,,,,,,,,,,,,,,,
,,,,,"If you think it is an existing Spanish word, you type '1' (for 'REAL'), and if you think it is not an existing Spanish word, you type '0' (for 'FAKE').",(press the spacebar to continue),58a5cf959e040a0001399f07,605b45a4d25f287719a41696,605cce6ff978a6a2135b3a74,Spain,Midwest,13 or older,no,2021-03-25_14h00.53.382,empathy_intonation_perc,2020.2.10,Win32,60,,,,,,,,,,,,,,,,,,,,,,,,,,,,,,,,,,,,,0,1,1,1,1,,,,,,,,,,,,,,,,,,,,,,,,,,,,,,,,,,,,,,,,,,,
,,,,,"If you are sure that the word exists, even though you dont know its exact meaning, you may still respond '1' (REAL). 
  
  But if you are not sure if it is an existing word, you should respond '0' (FAKE).
  
  Let's do a practice round...",(press the spacebar to continue),58a5cf959e040a0001399f07,605b45a4d25f287719a41696,605cce6ff978a6a2135b3a74,Spain,Midwest,13 or older,no,2021-03-25_14h00.53.382,empathy_intonation_perc,2020.2.10,Win32,60,,,,,,,,,,,,,,,,,,,,,,,,,,,,,,,,,,,,,0,2,2,2,1,,,,,,,,,,,,,,,,,,,,,,,,,,,,,,,,,,,,,,,,,,,
,,,,,,,58a5cf959e040a0001399f07,605b45a4d25f287719a41696,605cce6ff978a6a2135b3a74,Spain,Midwest,13 or older,no,2021-03-25_14h00.53.382,empathy_intonation_perc,2020.2.10,Win32,60,,,,,,,,,,0,,,,,,,,,,,,,,,,,,,,,,,,,,,,,,,,0,1,1.26144,0,0,0,0,1,0,depiste,REAL,FAKE,,,,,,,,,,,,,,,,,,,,,,,,,,,,,,,
,,,,,,,58a5cf959e040a0001399f07,605b45a4d25f287719a41696,605cce6ff978a6a2135b3a74,Spain,Midwest,13 or older,no,2021-03-25_14h00.53.382,empathy_intonation_perc,2020.2.10,Win32,60,,,,,,,,,,1,,,,,,,,,,,,,,,,,,,,,,,,,,,,,,,,1,1,0.68397,0,1,1,1,1,0,s,REAL,FAKE,,,,,,,,,,,,,,,,,,,,,,,,,,,,,,,
,,,,,,,58a5cf959e040a0001399f07,605b45a4d25f287719a41696,605cce6ff978a6a2135b3a74,Spain,Midwest,13 or older,no,2021-03-25_14h00.53.382,empathy_intonation_perc,2020.2.10,Win32,60,,,,,,,,,,0,,,,,,,,,,,,,,,,,,,,,,,,,,,,,,,,0,1,0.9323,0,2,2,2,1,0,con,REAL,FAKE,,,,,,,,,,,,,,,,,,,,,,,,,,,,,,,
,,,,,,,58a5cf959e040a0001399f07,605b45a4d25f287719a41696,605cce6ff978a6a2135b3a74,Spain,Midwest,13 or older,no,2021-03-25_14h00.53.382,empathy_intonation_perc,2020.2.10,Win32,60,,,,,,,,,,0,,,,,,,,,,,,,,,,,,,,,,,,,,,,,,,,0,1,0.820135,0,3,3,3,1,0,calpar,REAL,FAKE,,,,,,,,,,,,,,,,,,,,,,,,,,,,,,,
,,,,,,,58a5cf959e040a0001399f07,605b45a4d25f287719a41696,605cce6ff978a6a2135b3a74,Spain,Midwest,13 or older,no,2021-03-25_14h00.53.382,empathy_intonation_perc,2020.2.10,Win32,60,,,,,,,,,,0,,,,,,,,,,,,,,,,,,,,,,,,,,,,,,,,0,1,0.668645,0,4,4,4,1,0,joten,REAL,FAKE,,,,,,,,,,,,,,,,,,,,,,,,,,,,,,,
,,,,,,,58a5cf959e040a0001399f07,605b45a4d25f287719a41696,605cce6ff978a6a2135b3a74,Spain,Midwest,13 or older,no,2021-03-25_14h00.53.382,empathy_intonation_perc,2020.2.10,Win32,60,,,,,,,,,,1,,,,,,,,,,,,,,,,,,,,,,,,,,,,,,,,0,0,0.719055,0,5,5,5,1,0,sacapuntas,REAL,FAKE,,,,,,,,,,,,,,,,,,,,,,,,,,,,,,,
,,,,,,,58a5cf959e040a0001399f07,605b45a4d25f287719a41696,605cce6ff978a6a2135b3a74,Spain,Midwest,13 or older,no,2021-03-25_14h00.53.382,empathy_intonation_perc,2020.2.10,Win32,60,,,,,,,,,,0,,,,,,,,,,,,,,,,,,,,,,,,,,,,,,,,0,1,0.846545,0,6,6,6,1,0,priba,REAL,FAKE,,,,,,,,,,,,,,,,,,,,,,,,,,,,,,,
,,,,,,,58a5cf959e040a0001399f07,605b45a4d25f287719a41696,605cce6ff978a6a2135b3a74,Spain,Midwest,13 or older,no,2021-03-25_14h00.53.382,empathy_intonation_perc,2020.2.10,Win32,60,,,,,,,,,,0,,,,,,,,,,,,,,,,,,,,,,,,,,,,,,,,0,1,1.21703,0,7,7,7,1,0,pelasula,REAL,FAKE,,,,,,,,,,,,,,,,,,,,,,,,,,,,,,,
,,,,,,,58a5cf959e040a0001399f07,605b45a4d25f287719a41696,605cce6ff978a6a2135b3a74,Spain,Midwest,13 or older,no,2021-03-25_14h00.53.382,empathy_intonation_perc,2020.2.10,Win32,60,,,,,,,,,,1,,,,,,,,,,,,,,,,,,,,,,,,,,,,,,,,1,1,0.63427,0,8,8,8,1,0,bien,REAL,FAKE,,,,,,,,,,,,,,,,,,,,,,,,,,,,,,,
,,,,,,,58a5cf959e040a0001399f07,605b45a4d25f287719a41696,605cce6ff978a6a2135b3a74,Spain,Midwest,13 or older,no,2021-03-25_14h00.53.382,empathy_intonation_perc,2020.2.10,Win32,60,,,,,,,,,,1,,,,,,,,,,,,,,,,,,,,,,,,,,,,,,,,1,1,0.515665,0,9,9,9,1,0,casa,REAL,FAKE,,,,,,,,,,,,,,,,,,,,,,,,,,,,,,,
,,,,,,,58a5cf959e040a0001399f07,605b45a4d25f287719a41696,605cce6ff978a6a2135b3a74,Spain,Midwest,13 or older,no,2021-03-25_14h00.53.382,empathy_intonation_perc,2020.2.10,Win32,60,,,,,,,,,,0,,,,,,,,,,,,,,,,,,,,,,,,,,,,,,,,0,1,0.601155,0,10,10,10,1,0,lejo,REAL,FAKE,,,,,,,,,,,,,,,,,,,,,,,,,,,,,,,
,,,,,,,58a5cf959e040a0001399f07,605b45a4d25f287719a41696,605cce6ff978a6a2135b3a74,Spain,Midwest,13 or older,no,2021-03-25_14h00.53.382,empathy_intonation_perc,2020.2.10,Win32,60,,,,,,,,,,0,,,,,,,,,,,,,,,,,,,,,,,,,,,,,,,,0,1,0.71774,0,11,11,11,1,0,pretantas,REAL,FAKE,,,,,,,,,,,,,,,,,,,,,,,,,,,,,,,
,,,,,,,58a5cf959e040a0001399f07,605b45a4d25f287719a41696,605cce6ff978a6a2135b3a74,Spain,Midwest,13 or older,no,2021-03-25_14h00.53.382,empathy_intonation_perc,2020.2.10,Win32,60,,,,,,,,,,1,,,,,,,,,,,,,,,,,,,,,,,,,,,,,,,,,,,,,,,,44,cuchara,,,1,1,1.014695,0,0,0,43,1,REAL,FAKE,,,,,,,,,,,,,,,,,,,,,
,,,,,,,58a5cf959e040a0001399f07,605b45a4d25f287719a41696,605cce6ff978a6a2135b3a74,Spain,Midwest,13 or older,no,2021-03-25_14h00.53.382,empathy_intonation_perc,2020.2.10,Win32,60,,,,,,,,,,1,,,,,,,,,,,,,,,,,,,,,,,,,,,,,,,,,,,,,,,,80,hormiga,,,0,0,0.696125,0,1,1,79,1,REAL,FAKE,,,,,,,,,,,,,,,,,,,,,
,,,,,,,58a5cf959e040a0001399f07,605b45a4d25f287719a41696,605cce6ff978a6a2135b3a74,Spain,Midwest,13 or older,no,2021-03-25_14h00.53.382,empathy_intonation_perc,2020.2.10,Win32,60,,,,,,,,,,1,,,,,,,,,,,,,,,,,,,,,,,,,,,,,,,,,,,,,,,,81,pozo,,,0,0,0.56898,0,2,2,80,1,REAL,FAKE,,,,,,,,,,,,,,,,,,,,,
,,,,,,,58a5cf959e040a0001399f07,605b45a4d25f287719a41696,605cce6ff978a6a2135b3a74,Spain,Midwest,13 or older,no,2021-03-25_14h00.53.382,empathy_intonation_perc,2020.2.10,Win32,60,,,,,,,,,,0,,,,,,,,,,,,,,,,,,,,,,,,,,,,,,,,,,,,,,,,33,pauca,,,0,1,0.65137,0,3,3,32,1,REAL,FAKE,,,,,,,,,,,,,,,,,,,,,
,,,,,,,58a5cf959e040a0001399f07,605b45a4d25f287719a41696,605cce6ff978a6a2135b3a74,Spain,Midwest,13 or older,no,2021-03-25_14h00.53.382,empathy_intonation_perc,2020.2.10,Win32,60,,,,,,,,,,0,,,,,,,,,,,,,,,,,,,,,,,,,,,,,,,,,,,,,,,,42,cadallo,,,0,1,0.7287,0,4,4,41,1,REAL,FAKE,,,,,,,,,,,,,,,,,,,,,
,,,,,,,58a5cf959e040a0001399f07,605b45a4d25f287719a41696,605cce6ff978a6a2135b3a74,Spain,Midwest,13 or older,no,2021-03-25_14h00.53.382,empathy_intonation_perc,2020.2.10,Win32,60,,,,,,,,,,1,,,,,,,,,,,,,,,,,,,,,,,,,,,,,,,,,,,,,,,,28,merodear,,,0,0,0.947275,0,5,5,27,1,REAL,FAKE,,,,,,,,,,,,,,,,,,,,,
,,,,,,,58a5cf959e040a0001399f07,605b45a4d25f287719a41696,605cce6ff978a6a2135b3a74,Spain,Midwest,13 or older,no,2021-03-25_14h00.53.382,empathy_intonation_perc,2020.2.10,Win32,60,,,,,,,,,,1,,,,,,,,,,,,,,,,,,,,,,,,,,,,,,,,,,,,,,,,88,acantilado,,,0,0,1.454855,0,6,6,87,1,REAL,FAKE,,,,,,,,,,,,,,,,,,,,,
,,,,,,,58a5cf959e040a0001399f07,605b45a4d25f287719a41696,605cce6ff978a6a2135b3a74,Spain,Midwest,13 or older,no,2021-03-25_14h00.53.382,empathy_intonation_perc,2020.2.10,Win32,60,,,,,,,,,,1,,,,,,,,,,,,,,,,,,,,,,,,,,,,,,,,,,,,,,,,45,jilguero,,,0,0,0.75961,0,7,7,44,1,REAL,FAKE,,,,,,,,,,,,,,,,,,,,,
,,,,,,,58a5cf959e040a0001399f07,605b45a4d25f287719a41696,605cce6ff978a6a2135b3a74,Spain,Midwest,13 or older,no,2021-03-25_14h00.53.382,empathy_intonation_perc,2020.2.10,Win32,60,,,,,,,,,,1,,,,,,,,,,,,,,,,,,,,,,,,,,,,,,,,,,,,,,,,37,granuja,,,0,0,0.92915,0,8,8,36,1,REAL,FAKE,,,,,,,,,,,,,,,,,,,,,
,,,,,,,58a5cf959e040a0001399f07,605b45a4d25f287719a41696,605cce6ff978a6a2135b3a74,Spain,Midwest,13 or older,no,2021-03-25_14h00.53.382,empathy_intonation_perc,2020.2.10,Win32,60,,,,,,,,,,1,,,,,,,,,,,,,,,,,,,,,,,,,,,,,,,,,,,,,,,,65,bizcocho,,,0,0,0.66217,0,9,9,64,1,REAL,FAKE,,,,,,,,,,,,,,,,,,,,,
,,,,,,,58a5cf959e040a0001399f07,605b45a4d25f287719a41696,605cce6ff978a6a2135b3a74,Spain,Midwest,13 or older,no,2021-03-25_14h00.53.382,empathy_intonation_perc,2020.2.10,Win32,60,,,,,,,,,,0,,,,,,,,,,,,,,,,,,,,,,,,,,,,,,,,,,,,,,,,58,plaudir,,,0,1,0.613025,0,10,10,57,1,REAL,FAKE,,,,,,,,,,,,,,,,,,,,,
,,,,,,,58a5cf959e040a0001399f07,605b45a4d25f287719a41696,605cce6ff978a6a2135b3a74,Spain,Midwest,13 or older,no,2021-03-25_14h00.53.382,empathy_intonation_perc,2020.2.10,Win32,60,,,,,,,,,,1,,,,,,,,,,,,,,,,,,,,,,,,,,,,,,,,,,,,,,,,11,cenefa,,,0,0,0.870095,0,11,11,10,1,REAL,FAKE,,,,,,,,,,,,,,,,,,,,,
,,,,,,,58a5cf959e040a0001399f07,605b45a4d25f287719a41696,605cce6ff978a6a2135b3a74,Spain,Midwest,13 or older,no,2021-03-25_14h00.53.382,empathy_intonation_perc,2020.2.10,Win32,60,,,,,,,,,,1,,,,,,,,,,,,,,,,,,,,,,,,,,,,,,,,,,,,,,,,6,tergiversar,,,0,0,0.760315,0,12,12,5,1,REAL,FAKE,,,,,,,,,,,,,,,,,,,,,
,,,,,,,58a5cf959e040a0001399f07,605b45a4d25f287719a41696,605cce6ff978a6a2135b3a74,Spain,Midwest,13 or older,no,2021-03-25_14h00.53.382,empathy_intonation_perc,2020.2.10,Win32,60,,,,,,,,,,1,,,,,,,,,,,,,,,,,,,,,,,,,,,,,,,,,,,,,,,,68,alegre,,,1,1,0.783245,0,13,13,67,1,REAL,FAKE,,,,,,,,,,,,,,,,,,,,,
,,,,,,,58a5cf959e040a0001399f07,605b45a4d25f287719a41696,605cce6ff978a6a2135b3a74,Spain,Midwest,13 or older,no,2021-03-25_14h00.53.382,empathy_intonation_perc,2020.2.10,Win32,60,,,,,,,,,,1,,,,,,,,,,,,,,,,,,,,,,,,,,,,,,,,,,,,,,,,77,tiburn,,,0,0,0.699865,0,14,14,76,1,REAL,FAKE,,,,,,,,,,,,,,,,,,,,,
,,,,,,,58a5cf959e040a0001399f07,605b45a4d25f287719a41696,605cce6ff978a6a2135b3a74,Spain,Midwest,13 or older,no,2021-03-25_14h00.53.382,empathy_intonation_perc,2020.2.10,Win32,60,,,,,,,,,,0,,,,,,,,,,,,,,,,,,,,,,,,,,,,,,,,,,,,,,,,21,capillo,,,0,1,0.91836,0,15,15,20,1,REAL,FAKE,,,,,,,,,,,,,,,,,,,,,
,,,,,,,58a5cf959e040a0001399f07,605b45a4d25f287719a41696,605cce6ff978a6a2135b3a74,Spain,Midwest,13 or older,no,2021-03-25_14h00.53.382,empathy_intonation_perc,2020.2.10,Win32,60,,,,,,,,,,1,,,,,,,,,,,,,,,,,,,,,,,,,,,,,,,,,,,,,,,,31,pandilla,,,0,0,1.297075,0,16,16,30,1,REAL,FAKE,,,,,,,,,,,,,,,,,,,,,
,,,,,,,58a5cf959e040a0001399f07,605b45a4d25f287719a41696,605cce6ff978a6a2135b3a74,Spain,Midwest,13 or older,no,2021-03-25_14h00.53.382,empathy_intonation_perc,2020.2.10,Win32,60,,,,,,,,,,1,,,,,,,,,,,,,,,,,,,,,,,,,,,,,,,,,,,,,,,,59,besar,,,1,1,0.87186,0,17,17,58,1,REAL,FAKE,,,,,,,,,,,,,,,,,,,,,
,,,,,,,58a5cf959e040a0001399f07,605b45a4d25f287719a41696,605cce6ff978a6a2135b3a74,Spain,Midwest,13 or older,no,2021-03-25_14h00.53.382,empathy_intonation_perc,2020.2.10,Win32,60,,,,,,,,,,1,,,,,,,,,,,,,,,,,,,,,,,,,,,,,,,,,,,,,,,,12,asesinato,,,0,0,1.045875,0,18,18,11,1,REAL,FAKE,,,,,,,,,,,,,,,,,,,,,
,,,,,,,58a5cf959e040a0001399f07,605b45a4d25f287719a41696,605cce6ff978a6a2135b3a74,Spain,Midwest,13 or older,no,2021-03-25_14h00.53.382,empathy_intonation_perc,2020.2.10,Win32,60,,,,,,,,,,0,,,,,,,,,,,,,,,,,,,,,,,,,,,,,,,,,,,,,,,,10,antar,,,1,0,0.988205,0,19,19,9,1,REAL,FAKE,,,,,,,,,,,,,,,,,,,,,
,,,,,,,58a5cf959e040a0001399f07,605b45a4d25f287719a41696,605cce6ff978a6a2135b3a74,Spain,Midwest,13 or older,no,2021-03-25_14h00.53.382,empathy_intonation_perc,2020.2.10,Win32,60,,,,,,,,,,1,,,,,,,,,,,,,,,,,,,,,,,,,,,,,,,,,,,,,,,,43,canela,,,0,0,0.62867,0,20,20,42,1,REAL,FAKE,,,,,,,,,,,,,,,,,,,,,
,,,,,,,58a5cf959e040a0001399f07,605b45a4d25f287719a41696,605cce6ff978a6a2135b3a74,Spain,Midwest,13 or older,no,2021-03-25_14h00.53.382,empathy_intonation_perc,2020.2.10,Win32,60,,,,,,,,,,0,,,,,,,,,,,,,,,,,,,,,,,,,,,,,,,,,,,,,,,,72,pemicin,,,0,1,1.067105,0,21,21,71,1,REAL,FAKE,,,,,,,,,,,,,,,,,,,,,
,,,,,,,58a5cf959e040a0001399f07,605b45a4d25f287719a41696,605cce6ff978a6a2135b3a74,Spain,Midwest,13 or older,no,2021-03-25_14h00.53.382,empathy_intonation_perc,2020.2.10,Win32,60,,,,,,,,,,1,,,,,,,,,,,,,,,,,,,,,,,,,,,,,,,,,,,,,,,,20,vido,,,0,0,1.22885,0,22,22,19,1,REAL,FAKE,,,,,,,,,,,,,,,,,,,,,
,,,,,,,58a5cf959e040a0001399f07,605b45a4d25f287719a41696,605cce6ff978a6a2135b3a74,Spain,Midwest,13 or older,no,2021-03-25_14h00.53.382,empathy_intonation_perc,2020.2.10,Win32,60,,,,,,,,,,0,,,,,,,,,,,,,,,,,,,,,,,,,,,,,,,,,,,,,,,,29,decar,,,0,1,0.938375,0,23,23,28,1,REAL,FAKE,,,,,,,,,,,,,,,,,,,,,
,,,,,,,58a5cf959e040a0001399f07,605b45a4d25f287719a41696,605cce6ff978a6a2135b3a74,Spain,Midwest,13 or older,no,2021-03-25_14h00.53.382,empathy_intonation_perc,2020.2.10,Win32,60,,,,,,,,,,1,,,,,,,,,,,,,,,,,,,,,,,,,,,,,,,,,,,,,,,,5,zapato,,,1,1,1.02312,0,24,24,4,1,REAL,FAKE,,,,,,,,,,,,,,,,,,,,,
,,,,,,,58a5cf959e040a0001399f07,605b45a4d25f287719a41696,605cce6ff978a6a2135b3a74,Spain,Midwest,13 or older,no,2021-03-25_14h00.53.382,empathy_intonation_perc,2020.2.10,Win32,60,,,,,,,,,,1,,,,,,,,,,,,,,,,,,,,,,,,,,,,,,,,,,,,,,,,60,matar,,,1,1,0.79113,0,25,25,59,1,REAL,FAKE,,,,,,,,,,,,,,,,,,,,,
,,,,,,,58a5cf959e040a0001399f07,605b45a4d25f287719a41696,605cce6ff978a6a2135b3a74,Spain,Midwest,13 or older,no,2021-03-25_14h00.53.382,empathy_intonation_perc,2020.2.10,Win32,60,,,,,,,,,,1,,,,,,,,,,,,,,,,,,,,,,,,,,,,,,,,,,,,,,,,83,guante,,,0,0,0.94113,0,26,26,82,1,REAL,FAKE,,,,,,,,,,,,,,,,,,,,,
,,,,,,,58a5cf959e040a0001399f07,605b45a4d25f287719a41696,605cce6ff978a6a2135b3a74,Spain,Midwest,13 or older,no,2021-03-25_14h00.53.382,empathy_intonation_perc,2020.2.10,Win32,60,,,,,,,,,,1,,,,,,,,,,,,,,,,,,,,,,,,,,,,,,,,,,,,,,,,3,pulmones,,,0,0,0.645335,0,27,27,2,1,REAL,FAKE,,,,,,,,,,,,,,,,,,,,,
,,,,,,,58a5cf959e040a0001399f07,605b45a4d25f287719a41696,605cce6ff978a6a2135b3a74,Spain,Midwest,13 or older,no,2021-03-25_14h00.53.382,empathy_intonation_perc,2020.2.10,Win32,60,,,,,,,,,,1,,,,,,,,,,,,,,,,,,,,,,,,,,,,,,,,,,,,,,,,2,pellizcar,,,0,0,0.615645,0,28,28,1,1,REAL,FAKE,,,,,,,,,,,,,,,,,,,,,
,,,,,,,58a5cf959e040a0001399f07,605b45a4d25f287719a41696,605cce6ff978a6a2135b3a74,Spain,Midwest,13 or older,no,2021-03-25_14h00.53.382,empathy_intonation_perc,2020.2.10,Win32,60,,,,,,,,,,0,,,,,,,,,,,,,,,,,,,,,,,,,,,,,,,,,,,,,,,,63,esposante,,,1,0,1.0988,0,29,29,62,1,REAL,FAKE,,,,,,,,,,,,,,,,,,,,,
,,,,,,,58a5cf959e040a0001399f07,605b45a4d25f287719a41696,605cce6ff978a6a2135b3a74,Spain,Midwest,13 or older,no,2021-03-25_14h00.53.382,empathy_intonation_perc,2020.2.10,Win32,60,,,,,,,,,,1,,,,,,,,,,,,,,,,,,,,,,,,,,,,,,,,,,,,,,,,54,fomentar,,,1,1,0.923575,0,30,30,53,1,REAL,FAKE,,,,,,,,,,,,,,,,,,,,,
,,,,,,,58a5cf959e040a0001399f07,605b45a4d25f287719a41696,605cce6ff978a6a2135b3a74,Spain,Midwest,13 or older,no,2021-03-25_14h00.53.382,empathy_intonation_perc,2020.2.10,Win32,60,,,,,,,,,,1,,,,,,,,,,,,,,,,,,,,,,,,,,,,,,,,,,,,,,,,24,ltigo,,,0,0,0.74501,0,31,31,23,1,REAL,FAKE,,,,,,,,,,,,,,,,,,,,,
,,,,,,,58a5cf959e040a0001399f07,605b45a4d25f287719a41696,605cce6ff978a6a2135b3a74,Spain,Midwest,13 or older,no,2021-03-25_14h00.53.382,empathy_intonation_perc,2020.2.10,Win32,60,,,,,,,,,,1,,,,,,,,,,,,,,,,,,,,,,,,,,,,,,,,,,,,,,,,22,lacayo,,,0,0,0.639215,0,32,32,21,1,REAL,FAKE,,,,,,,,,,,,,,,,,,,,,
,,,,,,,58a5cf959e040a0001399f07,605b45a4d25f287719a41696,605cce6ff978a6a2135b3a74,Spain,Midwest,13 or older,no,2021-03-25_14h00.53.382,empathy_intonation_perc,2020.2.10,Win32,60,,,,,,,,,,1,,,,,,,,,,,,,,,,,,,,,,,,,,,,,,,,,,,,,,,,61,seda,,,0,0,0.946075,0,33,33,60,1,REAL,FAKE,,,,,,,,,,,,,,,,,,,,,
,,,,,,,58a5cf959e040a0001399f07,605b45a4d25f287719a41696,605cce6ff978a6a2135b3a74,Spain,Midwest,13 or older,no,2021-03-25_14h00.53.382,empathy_intonation_perc,2020.2.10,Win32,60,,,,,,,,,,0,,,,,,,,,,,,,,,,,,,,,,,,,,,,,,,,,,,,,,,,23,lampera,,,0,1,0.931995,0,34,34,22,1,REAL,FAKE,,,,,,,,,,,,,,,,,,,,,
,,,,,,,58a5cf959e040a0001399f07,605b45a4d25f287719a41696,605cce6ff978a6a2135b3a74,Spain,Midwest,13 or older,no,2021-03-25_14h00.53.382,empathy_intonation_perc,2020.2.10,Win32,60,,,,,,,,,,1,,,,,,,,,,,,,,,,,,,,,,,,,,,,,,,,,,,,,,,,75,yacer,,,0,0,0.622875,0,35,35,74,1,REAL,FAKE,,,,,,,,,,,,,,,,,,,,,
,,,,,,,58a5cf959e040a0001399f07,605b45a4d25f287719a41696,605cce6ff978a6a2135b3a74,Spain,Midwest,13 or older,no,2021-03-25_14h00.53.382,empathy_intonation_perc,2020.2.10,Win32,60,,,,,,,,,,1,,,,,,,,,,,,,,,,,,,,,,,,,,,,,,,,,,,,,,,,56,musgo,,,0,0,0.799315,0,36,36,55,1,REAL,FAKE,,,,,,,,,,,,,,,,,,,,,
,,,,,,,58a5cf959e040a0001399f07,605b45a4d25f287719a41696,605cce6ff978a6a2135b3a74,Spain,Midwest,13 or older,no,2021-03-25_14h00.53.382,empathy_intonation_perc,2020.2.10,Win32,60,,,,,,,,,,0,,,,,,,,,,,,,,,,,,,,,,,,,,,,,,,,,,,,,,,,16,abracer,,,1,0,0.92942,0,37,37,15,1,REAL,FAKE,,,,,,,,,,,,,,,,,,,,,
,,,,,,,58a5cf959e040a0001399f07,605b45a4d25f287719a41696,605cce6ff978a6a2135b3a74,Spain,Midwest,13 or older,no,2021-03-25_14h00.53.382,empathy_intonation_perc,2020.2.10,Win32,60,,,,,,,,,,1,,,,,,,,,,,,,,,,,,,,,,,,,,,,,,,,,,,,,,,,71,polvoriento,,,0,0,1.03339,0,38,38,70,1,REAL,FAKE,,,,,,,,,,,,,,,,,,,,,
,,,,,,,58a5cf959e040a0001399f07,605b45a4d25f287719a41696,605cce6ff978a6a2135b3a74,Spain,Midwest,13 or older,no,2021-03-25_14h00.53.382,empathy_intonation_perc,2020.2.10,Win32,60,,,,,,,,,,0,,,,,,,,,,,,,,,,,,,,,,,,,,,,,,,,,,,,,,,,66,hacido,,,1,0,0.81977,0,39,39,65,1,REAL,FAKE,,,,,,,,,,,,,,,,,,,,,
,,,,,,,58a5cf959e040a0001399f07,605b45a4d25f287719a41696,605cce6ff978a6a2135b3a74,Spain,Midwest,13 or older,no,2021-03-25_14h00.53.382,empathy_intonation_perc,2020.2.10,Win32,60,,,,,,,,,,1,,,,,,,,,,,,,,,,,,,,,,,,,,,,,,,,,,,,,,,,86,barato,,,0,0,0.70002,0,40,40,85,1,REAL,FAKE,,,,,,,,,,,,,,,,,,,,,
,,,,,,,58a5cf959e040a0001399f07,605b45a4d25f287719a41696,605cce6ff978a6a2135b3a74,Spain,Midwest,13 or older,no,2021-03-25_14h00.53.382,empathy_intonation_perc,2020.2.10,Win32,60,,,,,,,,,,1,,,,,,,,,,,,,,,,,,,,,,,,,,,,,,,,,,,,,,,,55,nevar,,,0,0,0.96791,0,41,41,54,1,REAL,FAKE,,,,,,,,,,,,,,,,,,,,,
,,,,,,,58a5cf959e040a0001399f07,605b45a4d25f287719a41696,605cce6ff978a6a2135b3a74,Spain,Midwest,13 or older,no,2021-03-25_14h00.53.382,empathy_intonation_perc,2020.2.10,Win32,60,,,,,,,,,,1,,,,,,,,,,,,,,,,,,,,,,,,,,,,,,,,,,,,,,,,39,torpe,,,0,0,1.322455,0,42,42,38,1,REAL,FAKE,,,,,,,,,,,,,,,,,,,,,
,,,,,,,58a5cf959e040a0001399f07,605b45a4d25f287719a41696,605cce6ff978a6a2135b3a74,Spain,Midwest,13 or older,no,2021-03-25_14h00.53.382,empathy_intonation_perc,2020.2.10,Win32,60,,,,,,,,,,1,,,,,,,,,,,,,,,,,,,,,,,,,,,,,,,,,,,,,,,,90,clavel,,,0,0,1.032935,0,43,43,89,1,REAL,FAKE,,,,,,,,,,,,,,,,,,,,,
,,,,,,,58a5cf959e040a0001399f07,605b45a4d25f287719a41696,605cce6ff978a6a2135b3a74,Spain,Midwest,13 or older,no,2021-03-25_14h00.53.382,empathy_intonation_perc,2020.2.10,Win32,60,,,,,,,,,,1,,,,,,,,,,,,,,,,,,,,,,,,,,,,,,,,,,,,,,,,48,ladrn,,,0,0,0.6619,0,44,44,47,1,REAL,FAKE,,,,,,,,,,,,,,,,,,,,,
,,,,,,,58a5cf959e040a0001399f07,605b45a4d25f287719a41696,605cce6ff978a6a2135b3a74,Spain,Midwest,13 or older,no,2021-03-25_14h00.53.382,empathy_intonation_perc,2020.2.10,Win32,60,,,,,,,,,,1,,,,,,,,,,,,,,,,,,,,,,,,,,,,,,,,,,,,,,,,46,martillo,,,0,0,0.99774,0,45,45,45,1,REAL,FAKE,,,,,,,,,,,,,,,,,,,,,
,,,,,,,58a5cf959e040a0001399f07,605b45a4d25f287719a41696,605cce6ff978a6a2135b3a74,Spain,Midwest,13 or older,no,2021-03-25_14h00.53.382,empathy_intonation_perc,2020.2.10,Win32,60,,,,,,,,,,0,,,,,,,,,,,,,,,,,,,,,,,,,,,,,,,,,,,,,,,,4,batilln,,,0,1,0.846665,0,46,46,3,1,REAL,FAKE,,,,,,,,,,,,,,,,,,,,,
,,,,,,,58a5cf959e040a0001399f07,605b45a4d25f287719a41696,605cce6ff978a6a2135b3a74,Spain,Midwest,13 or older,no,2021-03-25_14h00.53.382,empathy_intonation_perc,2020.2.10,Win32,60,,,,,,,,,,1,,,,,,,,,,,,,,,,,,,,,,,,,,,,,,,,,,,,,,,,9,hacha,,,0,0,0.830645,0,47,47,8,1,REAL,FAKE,,,,,,,,,,,,,,,,,,,,,
,,,,,,,58a5cf959e040a0001399f07,605b45a4d25f287719a41696,605cce6ff978a6a2135b3a74,Spain,Midwest,13 or older,no,2021-03-25_14h00.53.382,empathy_intonation_perc,2020.2.10,Win32,60,,,,,,,,,,1,,,,,,,,,,,,,,,,,,,,,,,,,,,,,,,,,,,,,,,,73,hervidor,,,0,0,0.73977,0,48,48,72,1,REAL,FAKE,,,,,,,,,,,,,,,,,,,,,
,,,,,,,58a5cf959e040a0001399f07,605b45a4d25f287719a41696,605cce6ff978a6a2135b3a74,Spain,Midwest,13 or older,no,2021-03-25_14h00.53.382,empathy_intonation_perc,2020.2.10,Win32,60,,,,,,,,,,0,,,,,,,,,,,,,,,,,,,,,,,,,,,,,,,,,,,,,,,,19,brecedad,,,0,1,0.830045,0,49,49,18,1,REAL,FAKE,,,,,,,,,,,,,,,,,,,,,
,,,,,,,58a5cf959e040a0001399f07,605b45a4d25f287719a41696,605cce6ff978a6a2135b3a74,Spain,Midwest,13 or older,no,2021-03-25_14h00.53.382,empathy_intonation_perc,2020.2.10,Win32,60,,,,,,,,,,0,,,,,,,,,,,,,,,,,,,,,,,,,,,,,,,,,,,,,,,,17,floroso,,,0,1,0.848835,0,50,50,16,1,REAL,FAKE,,,,,,,,,,,,,,,,,,,,,
,,,,,,,58a5cf959e040a0001399f07,605b45a4d25f287719a41696,605cce6ff978a6a2135b3a74,Spain,Midwest,13 or older,no,2021-03-25_14h00.53.382,empathy_intonation_perc,2020.2.10,Win32,60,,,,,,,,,,1,,,,,,,,,,,,,,,,,,,,,,,,,,,,,,,,,,,,,,,,57,tacao,,,0,0,0.97314,0,51,51,56,1,REAL,FAKE,,,,,,,,,,,,,,,,,,,,,
,,,,,,,58a5cf959e040a0001399f07,605b45a4d25f287719a41696,605cce6ff978a6a2135b3a74,Spain,Midwest,13 or older,no,2021-03-25_14h00.53.382,empathy_intonation_perc,2020.2.10,Win32,60,,,,,,,,,,1,,,,,,,,,,,,,,,,,,,,,,,,,,,,,,,,,,,,,,,,76,atar,,,0,0,0.817475,0,52,52,75,1,REAL,FAKE,,,,,,,,,,,,,,,,,,,,,
,,,,,,,58a5cf959e040a0001399f07,605b45a4d25f287719a41696,605cce6ff978a6a2135b3a74,Spain,Midwest,13 or older,no,2021-03-25_14h00.53.382,empathy_intonation_perc,2020.2.10,Win32,60,,,,,,,,,,0,,,,,,,,,,,,,,,,,,,,,,,,,,,,,,,,,,,,,,,,53,vegada,,,0,1,0.813705,0,53,53,52,1,REAL,FAKE,,,,,,,,,,,,,,,,,,,,,
,,,,,,,58a5cf959e040a0001399f07,605b45a4d25f287719a41696,605cce6ff978a6a2135b3a74,Spain,Midwest,13 or older,no,2021-03-25_14h00.53.382,empathy_intonation_perc,2020.2.10,Win32,60,,,,,,,,,,1,,,,,,,,,,,,,,,,,,,,,,,,,,,,,,,,,,,,,,,,64,orgulloso,,,0,0,0.596905,0,54,54,63,1,REAL,FAKE,,,,,,,,,,,,,,,,,,,,,
,,,,,,,58a5cf959e040a0001399f07,605b45a4d25f287719a41696,605cce6ff978a6a2135b3a74,Spain,Midwest,13 or older,no,2021-03-25_14h00.53.382,empathy_intonation_perc,2020.2.10,Win32,60,,,,,,,,,,1,,,,,,,,,,,,,,,,,,,,,,,,,,,,,,,,,,,,,,,,36,loro,,,0,0,0.84781,0,55,55,35,1,REAL,FAKE,,,,,,,,,,,,,,,,,,,,,
,,,,,,,58a5cf959e040a0001399f07,605b45a4d25f287719a41696,605cce6ff978a6a2135b3a74,Spain,Midwest,13 or older,no,2021-03-25_14h00.53.382,empathy_intonation_perc,2020.2.10,Win32,60,,,,,,,,,,0,,,,,,,,,,,,,,,,,,,,,,,,,,,,,,,,,,,,,,,,74,cintro,,,1,0,0.829035,0,56,56,73,1,REAL,FAKE,,,,,,,,,,,,,,,,,,,,,
,,,,,,,58a5cf959e040a0001399f07,605b45a4d25f287719a41696,605cce6ff978a6a2135b3a74,Spain,Midwest,13 or older,no,2021-03-25_14h00.53.382,empathy_intonation_perc,2020.2.10,Win32,60,,,,,,,,,,1,,,,,,,,,,,,,,,,,,,,,,,,,,,,,,,,,,,,,,,,34,aviso,,,0,0,0.728465,0,57,57,33,1,REAL,FAKE,,,,,,,,,,,,,,,,,,,,,
,,,,,,,58a5cf959e040a0001399f07,605b45a4d25f287719a41696,605cce6ff978a6a2135b3a74,Spain,Midwest,13 or older,no,2021-03-25_14h00.53.382,empathy_intonation_perc,2020.2.10,Win32,60,,,,,,,,,,0,,,,,,,,,,,,,,,,,,,,,,,,,,,,,,,,,,,,,,,,84,escuto,,,0,1,0.855765,0,58,58,83,1,REAL,FAKE,,,,,,,,,,,,,,,,,,,,,
,,,,,,,58a5cf959e040a0001399f07,605b45a4d25f287719a41696,605cce6ff978a6a2135b3a74,Spain,Midwest,13 or older,no,2021-03-25_14h00.53.382,empathy_intonation_perc,2020.2.10,Win32,60,,,,,,,,,,1,,,,,,,,,,,,,,,,,,,,,,,,,,,,,,,,,,,,,,,,25,bisagra,,,0,0,0.82901,0,59,59,24,1,REAL,FAKE,,,,,,,,,,,,,,,,,,,,,
,,,,,,,58a5cf959e040a0001399f07,605b45a4d25f287719a41696,605cce6ff978a6a2135b3a74,Spain,Midwest,13 or older,no,2021-03-25_14h00.53.382,empathy_intonation_perc,2020.2.10,Win32,60,,,,,,,,,,0,,,,,,,,,,,,,,,,,,,,,,,,,,,,,,,,,,,,,,,,70,temblo,,,0,1,0.57491,0,60,60,69,1,REAL,FAKE,,,,,,,,,,,,,,,,,,,,,
,,,,,,,58a5cf959e040a0001399f07,605b45a4d25f287719a41696,605cce6ff978a6a2135b3a74,Spain,Midwest,13 or older,no,2021-03-25_14h00.53.382,empathy_intonation_perc,2020.2.10,Win32,60,,,,,,,,,,1,,,,,,,,,,,,,,,,,,,,,,,,,,,,,,,,,,,,,,,,67,cabello,,,1,1,0.912075,0,61,61,66,1,REAL,FAKE,,,,,,,,,,,,,,,,,,,,,
,,,,,,,58a5cf959e040a0001399f07,605b45a4d25f287719a41696,605cce6ff978a6a2135b3a74,Spain,Midwest,13 or older,no,2021-03-25_14h00.53.382,empathy_intonation_perc,2020.2.10,Win32,60,,,,,,,,,,1,,,,,,,,,,,,,,,,,,,,,,,,,,,,,,,,,,,,,,,,40,alfombra,,,0,0,0.84635,0,62,62,39,1,REAL,FAKE,,,,,,,,,,,,,,,,,,,,,
,,,,,,,58a5cf959e040a0001399f07,605b45a4d25f287719a41696,605cce6ff978a6a2135b3a74,Spain,Midwest,13 or older,no,2021-03-25_14h00.53.382,empathy_intonation_perc,2020.2.10,Win32,60,,,,,,,,,,1,,,,,,,,,,,,,,,,,,,,,,,,,,,,,,,,,,,,,,,,13,helar,,,0,0,0.54576,0,63,63,12,1,REAL,FAKE,,,,,,,,,,,,,,,,,,,,,
,,,,,,,58a5cf959e040a0001399f07,605b45a4d25f287719a41696,605cce6ff978a6a2135b3a74,Spain,Midwest,13 or older,no,2021-03-25_14h00.53.382,empathy_intonation_perc,2020.2.10,Win32,60,,,,,,,,,,0,,,,,,,,,,,,,,,,,,,,,,,,,,,,,,,,,,,,,,,,32,fatacidad,,,0,1,1.2111,0,64,64,31,1,REAL,FAKE,,,,,,,,,,,,,,,,,,,,,
,,,,,,,58a5cf959e040a0001399f07,605b45a4d25f287719a41696,605cce6ff978a6a2135b3a74,Spain,Midwest,13 or older,no,2021-03-25_14h00.53.382,empathy_intonation_perc,2020.2.10,Win32,60,,,,,,,,,,1,,,,,,,,,,,,,,,,,,,,,,,,,,,,,,,,,,,,,,,,89,prisa,,,1,1,0.74952,0,65,65,88,1,REAL,FAKE,,,,,,,,,,,,,,,,,,,,,
,,,,,,,58a5cf959e040a0001399f07,605b45a4d25f287719a41696,605cce6ff978a6a2135b3a74,Spain,Midwest,13 or older,no,2021-03-25_14h00.53.382,empathy_intonation_perc,2020.2.10,Win32,60,,,,,,,,,,0,,,,,,,,,,,,,,,,,,,,,,,,,,,,,,,,,,,,,,,,1,terzo,,,0,1,0.579155,0,66,66,0,1,REAL,FAKE,,,,,,,,,,,,,,,,,,,,,
,,,,,,,58a5cf959e040a0001399f07,605b45a4d25f287719a41696,605cce6ff978a6a2135b3a74,Spain,Midwest,13 or older,no,2021-03-25_14h00.53.382,empathy_intonation_perc,2020.2.10,Win32,60,,,,,,,,,,1,,,,,,,,,,,,,,,,,,,,,,,,,,,,,,,,,,,,,,,,7,psimo,,,0,0,0.86754,0,67,67,6,1,REAL,FAKE,,,,,,,,,,,,,,,,,,,,,
,,,,,,,58a5cf959e040a0001399f07,605b45a4d25f287719a41696,605cce6ff978a6a2135b3a74,Spain,Midwest,13 or older,no,2021-03-25_14h00.53.382,empathy_intonation_perc,2020.2.10,Win32,60,,,,,,,,,,0,,,,,,,,,,,,,,,,,,,,,,,,,,,,,,,,,,,,,,,,30,alardio,,,0,1,0.7453,0,68,68,29,1,REAL,FAKE,,,,,,,,,,,,,,,,,,,,,
,,,,,,,58a5cf959e040a0001399f07,605b45a4d25f287719a41696,605cce6ff978a6a2135b3a74,Spain,Midwest,13 or older,no,2021-03-25_14h00.53.382,empathy_intonation_perc,2020.2.10,Win32,60,,,,,,,,,,0,,,,,,,,,,,,,,,,,,,,,,,,,,,,,,,,,,,,,,,,35,rompido,,,0,1,0.796595,0,69,69,34,1,REAL,FAKE,,,,,,,,,,,,,,,,,,,,,
,,,,,,,58a5cf959e040a0001399f07,605b45a4d25f287719a41696,605cce6ff978a6a2135b3a74,Spain,Midwest,13 or older,no,2021-03-25_14h00.53.382,empathy_intonation_perc,2020.2.10,Win32,60,,,,,,,,,,0,,,,,,,,,,,,,,,,,,,,,,,,,,,,,,,,,,,,,,,,50,flamida,,,0,1,0.88716,0,70,70,49,1,REAL,FAKE,,,,,,,,,,,,,,,,,,,,,
,,,,,,,58a5cf959e040a0001399f07,605b45a4d25f287719a41696,605cce6ff978a6a2135b3a74,Spain,Midwest,13 or older,no,2021-03-25_14h00.53.382,empathy_intonation_perc,2020.2.10,Win32,60,,,,,,,,,,1,,,,,,,,,,,,,,,,,,,,,,,,,,,,,,,,,,,,,,,,49,ganar,,,1,1,0.726265,0,71,71,48,1,REAL,FAKE,,,,,,,,,,,,,,,,,,,,,
,,,,,,,58a5cf959e040a0001399f07,605b45a4d25f287719a41696,605cce6ff978a6a2135b3a74,Spain,Midwest,13 or older,no,2021-03-25_14h00.53.382,empathy_intonation_perc,2020.2.10,Win32,60,,,,,,,,,,1,,,,,,,,,,,,,,,,,,,,,,,,,,,,,,,,,,,,,,,,51,candado,,,1,1,0.97234,0,72,72,50,1,REAL,FAKE,,,,,,,,,,,,,,,,,,,,,
,,,,,,,58a5cf959e040a0001399f07,605b45a4d25f287719a41696,605cce6ff978a6a2135b3a74,Spain,Midwest,13 or older,no,2021-03-25_14h00.53.382,empathy_intonation_perc,2020.2.10,Win32,60,,,,,,,,,,1,,,,,,,,,,,,,,,,,,,,,,,,,,,,,,,,,,,,,,,,38,estornudar,,,0,0,0.84004,0,73,73,37,1,REAL,FAKE,,,,,,,,,,,,,,,,,,,,,
,,,,,,,58a5cf959e040a0001399f07,605b45a4d25f287719a41696,605cce6ff978a6a2135b3a74,Spain,Midwest,13 or older,no,2021-03-25_14h00.53.382,empathy_intonation_perc,2020.2.10,Win32,60,,,,,,,,,,1,,,,,,,,,,,,,,,,,,,,,,,,,,,,,,,,,,,,,,,,52,camisa,,,0,0,0.812225,0,74,74,51,1,REAL,FAKE,,,,,,,,,,,,,,,,,,,,,
,,,,,,,58a5cf959e040a0001399f07,605b45a4d25f287719a41696,605cce6ff978a6a2135b3a74,Spain,Midwest,13 or older,no,2021-03-25_14h00.53.382,empathy_intonation_perc,2020.2.10,Win32,60,,,,,,,,,,1,,,,,,,,,,,,,,,,,,,,,,,,,,,,,,,,,,,,,,,,78,frondoso,,,0,0,0.727185,0,75,75,77,1,REAL,FAKE,,,,,,,,,,,,,,,,,,,,,
,,,,,,,58a5cf959e040a0001399f07,605b45a4d25f287719a41696,605cce6ff978a6a2135b3a74,Spain,Midwest,13 or older,no,2021-03-25_14h00.53.382,empathy_intonation_perc,2020.2.10,Win32,60,,,,,,,,,,1,,,,,,,,,,,,,,,,,,,,,,,,,,,,,,,,,,,,,,,,14,yunque,,,0,0,0.631465,0,76,76,13,1,REAL,FAKE,,,,,,,,,,,,,,,,,,,,,
,,,,,,,58a5cf959e040a0001399f07,605b45a4d25f287719a41696,605cce6ff978a6a2135b3a74,Spain,Midwest,13 or older,no,2021-03-25_14h00.53.382,empathy_intonation_perc,2020.2.10,Win32,60,,,,,,,,,,0,,,,,,,,,,,,,,,,,,,,,,,,,,,,,,,,,,,,,,,,82,empirador,,,1,0,1.746,0,77,77,81,1,REAL,FAKE,,,,,,,,,,,,,,,,,,,,,
,,,,,,,58a5cf959e040a0001399f07,605b45a4d25f287719a41696,605cce6ff978a6a2135b3a74,Spain,Midwest,13 or older,no,2021-03-25_14h00.53.382,empathy_intonation_perc,2020.2.10,Win32,60,,,,,,,,,,0,,,,,,,,,,,,,,,,,,,,,,,,,,,,,,,,,,,,,,,,79,tropaje,,,0,1,1.856205,0,78,78,78,1,REAL,FAKE,,,,,,,,,,,,,,,,,,,,,
,,,,,,,58a5cf959e040a0001399f07,605b45a4d25f287719a41696,605cce6ff978a6a2135b3a74,Spain,Midwest,13 or older,no,2021-03-25_14h00.53.382,empathy_intonation_perc,2020.2.10,Win32,60,,,,,,,,,,1,,,,,,,,,,,,,,,,,,,,,,,,,,,,,,,,,,,,,,,,85,lad,,,0,0,0.556485,0,79,79,84,1,REAL,FAKE,,,,,,,,,,,,,,,,,,,,,
,,,,,,,58a5cf959e040a0001399f07,605b45a4d25f287719a41696,605cce6ff978a6a2135b3a74,Spain,Midwest,13 or older,no,2021-03-25_14h00.53.382,empathy_intonation_perc,2020.2.10,Win32,60,,,,,,,,,,1,,,,,,,,,,,,,,,,,,,,,,,,,,,,,,,,,,,,,,,,26,secuestro,,,0,0,0.7694,0,80,80,25,1,REAL,FAKE,,,,,,,,,,,,,,,,,,,,,
,,,,,,,58a5cf959e040a0001399f07,605b45a4d25f287719a41696,605cce6ff978a6a2135b3a74,Spain,Midwest,13 or older,no,2021-03-25_14h00.53.382,empathy_intonation_perc,2020.2.10,Win32,60,,,,,,,,,,0,,,,,,,,,,,,,,,,,,,,,,,,,,,,,,,,,,,,,,,,8,cadea,,,1,0,1.49571,0,81,81,7,1,REAL,FAKE,,,,,,,,,,,,,,,,,,,,,
,,,,,,,58a5cf959e040a0001399f07,605b45a4d25f287719a41696,605cce6ff978a6a2135b3a74,Spain,Midwest,13 or older,no,2021-03-25_14h00.53.382,empathy_intonation_perc,2020.2.10,Win32,60,,,,,,,,,,1,,,,,,,,,,,,,,,,,,,,,,,,,,,,,,,,,,,,,,,,62,flaco,,,0,0,0.512,0,82,82,61,1,REAL,FAKE,,,,,,,,,,,,,,,,,,,,,
,,,,,,,58a5cf959e040a0001399f07,605b45a4d25f287719a41696,605cce6ff978a6a2135b3a74,Spain,Midwest,13 or older,no,2021-03-25_14h00.53.382,empathy_intonation_perc,2020.2.10,Win32,60,,,,,,,,,,1,,,,,,,,,,,,,,,,,,,,,,,,,,,,,,,,,,,,,,,,69,engatusar,,,0,0,0.830235,0,83,83,68,1,REAL,FAKE,,,,,,,,,,,,,,,,,,,,,
,,,,,,,58a5cf959e040a0001399f07,605b45a4d25f287719a41696,605cce6ff978a6a2135b3a74,Spain,Midwest,13 or older,no,2021-03-25_14h00.53.382,empathy_intonation_perc,2020.2.10,Win32,60,,,,,,,,,,0,,,,,,,,,,,,,,,,,,,,,,,,,,,,,,,,,,,,,,,,18,arsa,,,0,1,0.66279,0,84,84,17,1,REAL,FAKE,,,,,,,,,,,,,,,,,,,,,
,,,,,,,58a5cf959e040a0001399f07,605b45a4d25f287719a41696,605cce6ff978a6a2135b3a74,Spain,Midwest,13 or older,no,2021-03-25_14h00.53.382,empathy_intonation_perc,2020.2.10,Win32,60,,,,,,,,,,1,,,,,,,,,,,,,,,,,,,,,,,,,,,,,,,,,,,,,,,,15,regar,,,0,0,0.59068,0,85,85,14,1,REAL,FAKE,,,,,,,,,,,,,,,,,,,,,
,,,,,,,58a5cf959e040a0001399f07,605b45a4d25f287719a41696,605cce6ff978a6a2135b3a74,Spain,Midwest,13 or older,no,2021-03-25_14h00.53.382,empathy_intonation_perc,2020.2.10,Win32,60,,,,,,,,,,1,,,,,,,,,,,,,,,,,,,,,,,,,,,,,,,,,,,,,,,,41,rebuscar,,,0,0,0.69613,0,86,86,40,1,REAL,FAKE,,,,,,,,,,,,,,,,,,,,,
,,,,,,,58a5cf959e040a0001399f07,605b45a4d25f287719a41696,605cce6ff978a6a2135b3a74,Spain,Midwest,13 or older,no,2021-03-25_14h00.53.382,empathy_intonation_perc,2020.2.10,Win32,60,,,,,,,,,,0,,,,,,,,,,,,,,,,,,,,,,,,,,,,,,,,,,,,,,,,87,grodo,,,0,1,1.047385,0,87,87,86,1,REAL,FAKE,,,,,,,,,,,,,,,,,,,,,
,,,,,,,58a5cf959e040a0001399f07,605b45a4d25f287719a41696,605cce6ff978a6a2135b3a74,Spain,Midwest,13 or older,no,2021-03-25_14h00.53.382,empathy_intonation_perc,2020.2.10,Win32,60,,,,,,,,,,0,,,,,,,,,,,,,,,,,,,,,,,,,,,,,,,,,,,,,,,,47,cartinar,,,0,1,0.866455,0,88,88,46,1,REAL,FAKE,,,,,,,,,,,,,,,,,,,,,
,,,,,,,58a5cf959e040a0001399f07,605b45a4d25f287719a41696,605cce6ff978a6a2135b3a74,Spain,Midwest,13 or older,no,2021-03-25_14h00.53.382,empathy_intonation_perc,2020.2.10,Win32,60,,,,,,,,,,0,,,,,,,,,,,,,,,,,,,,,,,,,,,,,,,,,,,,,,,,27,acutacin,,,0,1,1.095215,0,89,89,26,1,REAL,FAKE,,,,,,,,,,,,,,,,,,,,,
,,,,,,,58a5cf959e040a0001399f07,605b45a4d25f287719a41696,605cce6ff978a6a2135b3a74,Spain,Midwest,13 or older,no,2021-03-25_14h00.53.382,empathy_intonation_perc,2020.2.10,Win32,60,,,,,,,,,,,,,,,,,,,,,,,,,,,,,,,,,,,,,,,,,,,,,,,,,,,,,,,,,,,,,,,,4,1,3.391905,1,0,0,0,0,0,1,,,,,,,,,,,
,,,,,,,58a5cf959e040a0001399f07,605b45a4d25f287719a41696,605cce6ff978a6a2135b3a74,Spain,Midwest,13 or older,no,2021-03-25_14h00.53.382,empathy_intonation_perc,2020.2.10,Win32,60,,,,,,,,,,,,,,,,,,,,1,,,,,,,,,,,,,,,,,,,,,,,,,,,,,,,,,,,,,,,,,,,,,,,,,,,,,,1,0,0,0,0,1,I can easily tell if someone else wants to enter a conversation.,1,0,1,0
,,,,,,,58a5cf959e040a0001399f07,605b45a4d25f287719a41696,605cce6ff978a6a2135b3a74,Spain,Midwest,13 or older,no,2021-03-25_14h00.53.382,empathy_intonation_perc,2020.2.10,Win32,60,,,,,,,,,,,,,,,,,,,,2,,,,,,,,,,,,,,,,,,,,,,,,,,,,,,,,,,,,,,,,,,,,,,,,,,,,,,3,0,1,1,1,1,I prefer animals to humans.,0,1,0,0
,,,,,,,58a5cf959e040a0001399f07,605b45a4d25f287719a41696,605cce6ff978a6a2135b3a74,Spain,Midwest,13 or older,no,2021-03-25_14h00.53.382,empathy_intonation_perc,2020.2.10,Win32,60,,,,,,,,,,,,,,,,,,,,3,,,,,,,,,,,,,,,,,,,,,,,,,,,,,,,,,,,,,,,,,,,,,,,,,,,,,,5,0,2,2,2,1,I try to keep up with the current trends and fashions.,0,1,0,0
,,,,,,,58a5cf959e040a0001399f07,605b45a4d25f287719a41696,605cce6ff978a6a2135b3a74,Spain,Midwest,13 or older,no,2021-03-25_14h00.53.382,empathy_intonation_perc,2020.2.10,Win32,60,,,,,,,,,,,,,,,,,,,,4,,,,,,,,,,,,,,,,,,,,,,,,,,,,,,,,,,,,,,,,,,,,,,,,,,,,,,3,0,3,3,3,1,"I find it difficult to explain to others things that I understand easily, 
  when they dont understand it first time.",1,0,0,1
,,,,,,,58a5cf959e040a0001399f07,605b45a4d25f287719a41696,605cce6ff978a6a2135b3a74,Spain,Midwest,13 or older,no,2021-03-25_14h00.53.382,empathy_intonation_perc,2020.2.10,Win32,60,,,,,,,,,,,,,,,,,,,,5,,,,,,,,,,,,,,,,,,,,,,,,,,,,,,,,,,,,,,,,,,,,,,,,,,,,,,2,0,4,4,4,1,I dream most nights.,0,1,0,0
,,,,,,,58a5cf959e040a0001399f07,605b45a4d25f287719a41696,605cce6ff978a6a2135b3a74,Spain,Midwest,13 or older,no,2021-03-25_14h00.53.382,empathy_intonation_perc,2020.2.10,Win32,60,,,,,,,,,,,,,,,,,,,,6,,,,,,,,,,,,,,,,,,,,,,,,,,,,,,,,,,,,,,,,,,,,,,,,,,,,,,1,0,5,5,5,1,I really enjoy caring for other people.,1,0,1,0
,,,,,,,58a5cf959e040a0001399f07,605b45a4d25f287719a41696,605cce6ff978a6a2135b3a74,Spain,Midwest,13 or older,no,2021-03-25_14h00.53.382,empathy_intonation_perc,2020.2.10,Win32,60,,,,,,,,,,,,,,,,,,,,7,,,,,,,,,,,,,,,,,,,,,,,,,,,,,,,,,,,,,,,,,,,,,,,,,,,,,,3,0,6,6,6,1,I try to solve my own problems rather than discussing them with others.,0,1,0,0
,,,,,,,58a5cf959e040a0001399f07,605b45a4d25f287719a41696,605cce6ff978a6a2135b3a74,Spain,Midwest,13 or older,no,2021-03-25_14h00.53.382,empathy_intonation_perc,2020.2.10,Win32,60,,,,,,,,,,,,,,,,,,,,8,,,,,,,,,,,,,,,,,,,,,,,,,,,,,,,,,,,,,,,,,,,,,,,,,,,,,,4,0,7,7,7,1,I find it hard to know what to do in a social situation.,1,0,0,1
,,,,,,,58a5cf959e040a0001399f07,605b45a4d25f287719a41696,605cce6ff978a6a2135b3a74,Spain,Midwest,13 or older,no,2021-03-25_14h00.53.382,empathy_intonation_perc,2020.2.10,Win32,60,,,,,,,,,,,,,,,,,,,,9,,,,,,,,,,,,,,,,,,,,,,,,,,,,,,,,,,,,,,,,,,,,,,,,,,,,,,5,0,8,8,8,1,I am at my best first thing in the morning.,0,1,0,0
,,,,,,,58a5cf959e040a0001399f07,605b45a4d25f287719a41696,605cce6ff978a6a2135b3a74,Spain,Midwest,13 or older,no,2021-03-25_14h00.53.382,empathy_intonation_perc,2020.2.10,Win32,60,,,,,,,,,,,,,,,,,,,,10,,,,,,,,,,,,,,,,,,,,,,,,,,,,,,,,,,,,,,,,,,,,,,,,,,,,,,5,0,9,9,9,1,"People often tell me that I went too far in driving my point home in a 
