instructions_2afc_loop.thisRepN,instructions_2afc_loop.thisTrialN,instructions_2afc_loop.thisN,instructions_2afc_loop.thisIndex,instructions_2afc_loop.ran,instructions_text,continue_text,participant,study_id,session,I am most familiar with Spanish from...*,What part of the US are you from?*,At what age did you begin learning Spanish?*,Are you proficient in any languages other than English/Spanish?*,date,expName,psychopyVersion,OS,frameRate,key_resp_2afc_practice.keys,key_resp_2afc_practice.corr,key_resp_2afc_practice.rt,trials_2afc_practice_loop.thisRepN,trials_2afc_practice_loop.thisTrialN,trials_2afc_practice_loop.thisN,trials_2afc_practice_loop.thisIndex,trials_2afc_practice_loop.ran,path,correct_response,the_col,key_resp_2afc_trial.keys,key_resp_2afc_trial.corr,key_resp_2afc_trial.rt,trials_2afc_loop.thisRepN,trials_2afc_loop.thisTrialN,trials_2afc_loop.thisN,trials_2afc_loop.thisIndex,trials_2afc_loop.ran,item_num,andalusian,argentine,castilian,chilean,cuban,mexican,peruvian,puertorican,key_resp_ac1.keys,key_resp_ac1.corr,key_resp_ac1.rt,ac1_loop.thisRepN,ac1_loop.thisTrialN,ac1_loop.thisN,ac1_loop.thisIndex,ac1_loop.ran,instructions_lextale_loop.thisRepN,instructions_lextale_loop.thisTrialN,instructions_lextale_loop.thisN,instructions_lextale_loop.thisIndex,instructions_lextale_loop.ran,key_resp_lextale_practice.keys,key_resp_lextale_practice.corr,key_resp_lextale_practice.rt,trials_lextale_practice_loop.thisRepN,trials_lextale_practice_loop.thisTrialN,trials_lextale_practice_loop.thisN,trials_lextale_practice_loop.thisIndex,trials_lextale_practice_loop.ran,stim,word,prac_button_real,prac_button_false,key_resp_lextale_trial.keys,key_resp_lextale_trial.corr,key_resp_lextale_trial.rt,trials_lextale_loop.thisRepN,trials_lextale_loop.thisTrialN,trials_lextale_loop.thisN,trials_lextale_loop.thisIndex,trials_lextale_loop.ran,button_real,button_false,key_resp_ac2.keys,key_resp_ac2.corr,key_resp_ac2.rt,check_pass,check_fails,ac2_loop.thisRepN,ac2_loop.thisTrialN,ac2_loop.thisN,ac2_loop.thisIndex,ac2_loop.ran,slider_eq_trial.response,trials_eq_loop.thisRepN,trials_eq_loop.thisTrialN,trials_eq_loop.thisN,trials_eq_loop.thisIndex,trials_eq_loop.ran,item,is_test_item,is_distractor,is_agree_score,is_disagree_score
0,0,0,0,1,"In the following task you are going to hear a series of utterances. 

  You will decide if the utterances sound like questions or not using your keyboard.",(press the spacebar to continue),5a0502cb517dfb00013db4a3,605b45a4d25f287719a41696,605f879fe07174737d4d6ba2,United States,Northeast,12 or younger,no,2021-03-27_15h30.09.455,empathy_intonation_perc,2020.2.10,Win32,60,,,,,,,,,,,,,,,,,,,,,,,,,,,,,,,,,,,,,,,,,,,,,,,,,,,,,,,,,,,,,,,,,,,,,,,,,,,,,,,,,,,,
0,1,1,1,1,"If you believe the utterance is a question, type '1' (for 'yes') and if you do not 
  believe it is a question type '0' (for 'no').

  Let's practice a bit...",(press the spacebar to continue),5a0502cb517dfb00013db4a3,605b45a4d25f287719a41696,605f879fe07174737d4d6ba2,United States,Northeast,12 or younger,no,2021-03-27_15h30.09.455,empathy_intonation_perc,2020.2.10,Win32,60,,,,,,,,,,,,,,,,,,,,,,,,,,,,,,,,,,,,,,,,,,,,,,,,,,,,,,,,,,,,,,,,,,,,,,,,,,,,,,,,,,,,
,,,,,,,5a0502cb517dfb00013db4a3,605b45a4d25f287719a41696,605f879fe07174737d4d6ba2,United States,Northeast,12 or younger,no,2021-03-27_15h30.09.455,empathy_intonation_perc,2020.2.10,Win32,60,0,0,6.6597,0,0,0,1,1,./stim/wavs/argentine_question_filler_Mi-vecino-habla-mucho.wav,1,,,,,,,,,,,,,,,,,,,,,,,,,,,,,,,,,,,,,,,,,,,,,,,,,,,,,,,,,,,,,,,,,,,,,,,,,,
,,,,,,,5a0502cb517dfb00013db4a3,605b45a4d25f287719a41696,605f879fe07174737d4d6ba2,United States,Northeast,12 or younger,no,2021-03-27_15h30.09.455,empathy_intonation_perc,2020.2.10,Win32,60,0,0,1.887655,0,1,1,2,1,./stim/wavs/chilean_question_filler_Mi-padre-cantaba-bien.wav,1,,,,,,,,,,,,,,,,,,,,,,,,,,,,,,,,,,,,,,,,,,,,,,,,,,,,,,,,,,,,,,,,,,,,,,,,,,
,,,,,,,5a0502cb517dfb00013db4a3,605b45a4d25f287719a41696,605f879fe07174737d4d6ba2,United States,Northeast,12 or younger,no,2021-03-27_15h30.09.455,empathy_intonation_perc,2020.2.10,Win32,60,1,1,2.192805,0,2,2,3,1,./stim/wavs/mexican_question_filler_Felipe-no-tiene-contrasena.wav,1,,,,,,,,,,,,,,,,,,,,,,,,,,,,,,,,,,,,,,,,,,,,,,,,,,,,,,,,,,,,,,,,,,,,,,,,,,
,,,,,,,5a0502cb517dfb00013db4a3,605b45a4d25f287719a41696,605f879fe07174737d4d6ba2,United States,Northeast,12 or younger,no,2021-03-27_15h30.09.455,empathy_intonation_perc,2020.2.10,Win32,60,1,1,2.244585,0,3,3,0,1,./stim/wavs/castilian_question_filler_Mi-esposo-conoce-al-chico.wav,1,,,,,,,,,,,,,,,,,,,,,,,,,,,,,,,,,,,,,,,,,,,,,,,,,,,,,,,,,,,,,,,,,,,,,,,,,,
,,,,,,,5a0502cb517dfb00013db4a3,605b45a4d25f287719a41696,605f879fe07174737d4d6ba2,United States,Northeast,12 or younger,no,2021-03-27_15h30.09.455,empathy_intonation_perc,2020.2.10,Win32,60,0,1,1.86679,0,4,4,7,1,./stim/wavs/puertorican_statement_filler_La-nina-pinta-con-su-amiga.wav,0,,,,,,,,,,,,,,,,,,,,,,,,,,,,,,,,,,,,,,,,,,,,,,,,,,,,,,,,,,,,,,,,,,,,,,,,,,
,,,,,,,5a0502cb517dfb00013db4a3,605b45a4d25f287719a41696,605f879fe07174737d4d6ba2,United States,Northeast,12 or younger,no,2021-03-27_15h30.09.455,empathy_intonation_perc,2020.2.10,Win32,60,0,1,2.222485,0,5,5,5,1,./stim/wavs/andalusian_statement_filler_Alberto-nunca-se-afeita.wav,0,,,,,,,,,,,,,,,,,,,,,,,,,,,,,,,,,,,,,,,,,,,,,,,,,,,,,,,,,,,,,,,,,,,,,,,,,,
,,,,,,,5a0502cb517dfb00013db4a3,605b45a4d25f287719a41696,605f879fe07174737d4d6ba2,United States,Northeast,12 or younger,no,2021-03-27_15h30.09.455,empathy_intonation_perc,2020.2.10,Win32,60,0,1,2.137655,0,6,6,4,1,./stim/wavs/cuban_statement_filler_Cocinabas-por-la-noche.wav,0,,,,,,,,,,,,,,,,,,,,,,,,,,,,,,,,,,,,,,,,,,,,,,,,,,,,,,,,,,,,,,,,,,,,,,,,,,
,,,,,,,5a0502cb517dfb00013db4a3,605b45a4d25f287719a41696,605f879fe07174737d4d6ba2,United States,Northeast,12 or younger,no,2021-03-27_15h30.09.455,empathy_intonation_perc,2020.2.10,Win32,60,0,1,2.524505,0,7,7,6,1,./stim/wavs/peruvian_statement_filler_El-nino-habla-con-su-madre.wav,0,,,,,,,,,,,,,,,,,,,,,,,,,,,,,,,,,,,,,,,,,,,,,,,,,,,,,,,,,,,,,,,,,,,,,,,,,,
,,,,,,,5a0502cb517dfb00013db4a3,605b45a4d25f287719a41696,605f879fe07174737d4d6ba2,United States,Northeast,12 or younger,no,2021-03-27_15h30.09.455,empathy_intonation_perc,2020.2.10,Win32,60,,,,,,,,,,0,puertorican,0,1,2.46004,0,0,0,11,1,12,./stim/wavs/andalusian_match_declarative-narrow-focus_Emilio-ama-la-marcha.wav,./stim/wavs/argentine_match_declarative-narrow-focus_Emilio-ama-la-marcha.wav,./stim/wavs/castilian_match_declarative-narrow-focus_Emilio-ama-la-marcha.wav,./stim/wavs/chilean_match_declarative-narrow-focus_Emilio-ama-la-marcha.wav,./stim/wavs/cuban_match_declarative-narrow-focus_Emilio-ama-la-marcha.wav,./stim/wavs/mexican_match_declarative-narrow-focus_Emilio-ama-la-marcha.wav,./stim/wavs/peruvian_match_declarative-narrow-focus_Emilio-ama-la-marcha.wav,./stim/wavs/puertorican_match_declarative-narrow-focus_Emilio-ama-la-marcha.wav,,,,,,,,,,,,,,,,,,,,,,,,,,,,,,,,,,,,,,,,,,,,,,,,,,,,,,,,
,,,,,,,5a0502cb517dfb00013db4a3,605b45a4d25f287719a41696,605f879fe07174737d4d6ba2,United States,Northeast,12 or younger,no,2021-03-27_15h30.09.455,empathy_intonation_perc,2020.2.10,Win32,60,,,,,,,,,,0,castilian,0,1,1.935305,0,1,1,6,1,7,./stim/wavs/andalusian_match_declarative-broad-focus_Mariano-habla-del-tiempo.wav,./stim/wavs/argentine_match_declarative-broad-focus_Mariano-habla-del-tiempo.wav,./stim/wavs/castilian_match_declarative-broad-focus_Mariano-habla-del-tiempo.wav,./stim/wavs/chilean_match_declarative-broad-focus_Mariano-habla-del-tiempo.wav,./stim/wavs/cuban_match_declarative-broad-focus_Mariano-habla-del-tiempo.wav,./stim/wavs/mexican_match_declarative-broad-focus_Mariano-habla-del-tiempo.wav,./stim/wavs/peruvian_match_declarative-broad-focus_Mariano-habla-del-tiempo.wav,./stim/wavs/puertorican_match_declarative-broad-focus_Mariano-habla-del-tiempo.wav,,,,,,,,,,,,,,,,,,,,,,,,,,,,,,,,,,,,,,,,,,,,,,,,,,,,,,,,
,,,,,,,5a0502cb517dfb00013db4a3,605b45a4d25f287719a41696,605f879fe07174737d4d6ba2,United States,Northeast,12 or younger,no,2021-03-27_15h30.09.455,empathy_intonation_perc,2020.2.10,Win32,60,,,,,,,,,,1,peruvian,0,0,1.89944,0,2,2,62,1,63,./stim/wavs/andalusian_mismatch_interrogative-total-yn_Mi-novio-viene-del-lago.wav,./stim/wavs/argentine_mismatch_interrogative-total-yn_Mi-novio-viene-del-lago.wav,./stim/wavs/castilian_mismatch_interrogative-total-yn_Mi-novio-viene-del-lago.wav,./stim/wavs/chilean_mismatch_interrogative-total-yn_Mi-novio-viene-del-lago.wav,./stim/wavs/cuban_mismatch_interrogative-total-yn_Mi-novio-viene-del-lago.wav,./stim/wavs/mexican_mismatch_interrogative-total-yn_Mi-novio-viene-del-lago.wav,./stim/wavs/peruvian_mismatch_interrogative-total-yn_Mi-novio-viene-del-lago.wav,./stim/wavs/puertorican_mismatch_interrogative-total-yn_Mi-novio-viene-del-lago.wav,,,,,,,,,,,,,,,,,,,,,,,,,,,,,,,,,,,,,,,,,,,,,,,,,,,,,,,,
,,,,,,,5a0502cb517dfb00013db4a3,605b45a4d25f287719a41696,605f879fe07174737d4d6ba2,United States,Northeast,12 or younger,no,2021-03-27_15h30.09.455,empathy_intonation_perc,2020.2.10,Win32,60,,,,,,,,,,1,chilean,1,1,1.68387,0,3,3,30,1,31,./stim/wavs/andalusian_match_interrogative-total-yn_Mariano-habla-del-tiempo.wav,./stim/wavs/argentine_match_interrogative-total-yn_Mariano-habla-del-tiempo.wav,./stim/wavs/castilian_match_interrogative-total-yn_Mariano-habla-del-tiempo.wav,./stim/wavs/chilean_match_interrogative-total-yn_Mariano-habla-del-tiempo.wav,./stim/wavs/cuban_match_interrogative-total-yn_Mariano-habla-del-tiempo.wav,./stim/wavs/mexican_match_interrogative-total-yn_Mariano-habla-del-tiempo.wav,./stim/wavs/peruvian_match_interrogative-total-yn_Mariano-habla-del-tiempo.wav,./stim/wavs/puertorican_match_interrogative-total-yn_Mariano-habla-del-tiempo.wav,,,,,,,,,,,,,,,,,,,,,,,,,,,,,,,,,,,,,,,,,,,,,,,,,,,,,,,,
,,,,,,,5a0502cb517dfb00013db4a3,605b45a4d25f287719a41696,605f879fe07174737d4d6ba2,United States,Northeast,12 or younger,no,2021-03-27_15h30.09.455,empathy_intonation_perc,2020.2.10,Win32,60,,,,,,,,,,0,castilian,0,1,1.98502,0,4,4,44,1,45,./stim/wavs/andalusian_mismatch_declarative-narrow-focus_La-nina-lava-el-plato.wav,./stim/wavs/argentine_mismatch_declarative-narrow-focus_La-nina-lava-el-plato.wav,./stim/wavs/castilian_mismatch_declarative-narrow-focus_La-nina-lava-el-plato.wav,./stim/wavs/chilean_mismatch_declarative-narrow-focus_La-nina-lava-el-plato.wav,./stim/wavs/cuban_mismatch_declarative-narrow-focus_La-nina-lava-el-plato.wav,./stim/wavs/mexican_mismatch_declarative-narrow-focus_La-nina-lava-el-plato.wav,./stim/wavs/peruvian_mismatch_declarative-narrow-focus_La-nina-lava-el-plato.wav,./stim/wavs/puertorican_mismatch_declarative-narrow-focus_La-nina-lava-el-plato.wav,,,,,,,,,,,,,,,,,,,,,,,,,,,,,,,,,,,,,,,,,,,,,,,,,,,,,,,,
,,,,,,,5a0502cb517dfb00013db4a3,605b45a4d25f287719a41696,605f879fe07174737d4d6ba2,United States,Northeast,12 or younger,no,2021-03-27_15h30.09.455,empathy_intonation_perc,2020.2.10,Win32,60,,,,,,,,,,0,castilian,1,0,1.862025,0,5,5,12,1,13,./stim/wavs/andalusian_match_declarative-narrow-focus_Manuela-vende-el-carro.wav,./stim/wavs/argentine_match_declarative-narrow-focus_Manuela-vende-el-carro.wav,./stim/wavs/castilian_match_declarative-narrow-focus_Manuela-vende-el-carro.wav,./stim/wavs/chilean_match_declarative-narrow-focus_Manuela-vende-el-carro.wav,./stim/wavs/cuban_match_declarative-narrow-focus_Manuela-vende-el-carro.wav,./stim/wavs/mexican_match_declarative-narrow-focus_Manuela-vende-el-carro.wav,./stim/wavs/peruvian_match_declarative-narrow-focus_Manuela-vende-el-carro.wav,./stim/wavs/puertorican_match_declarative-narrow-focus_Manuela-vende-el-carro.wav,,,,,,,,,,,,,,,,,,,,,,,,,,,,,,,,,,,,,,,,,,,,,,,,,,,,,,,,
,,,,,,,5a0502cb517dfb00013db4a3,605b45a4d25f287719a41696,605f879fe07174737d4d6ba2,United States,Northeast,12 or younger,no,2021-03-27_15h30.09.455,empathy_intonation_perc,2020.2.10,Win32,60,,,,,,,,,,1,chilean,1,1,1.57499,0,6,6,50,1,51,./stim/wavs/andalusian_mismatch_interrogative-partial-wh_Cuando-miraba-la-luna.wav,./stim/wavs/argentine_mismatch_interrogative-partial-wh_Cuando-miraba-la-luna.wav,./stim/wavs/castilian_mismatch_interrogative-partial-wh_Cuando-miraba-la-luna.wav,./stim/wavs/chilean_mismatch_interrogative-partial-wh_Cuando-miraba-la-luna.wav,./stim/wavs/cuban_mismatch_interrogative-partial-wh_Cuando-miraba-la-luna.wav,./stim/wavs/mexican_mismatch_interrogative-partial-wh_Cuando-miraba-la-luna.wav,./stim/wavs/peruvian_mismatch_interrogative-partial-wh_Cuando-miraba-la-luna.wav,./stim/wavs/puertorican_mismatch_interrogative-partial-wh_Cuando-miraba-la-luna.wav,,,,,,,,,,,,,,,,,,,,,,,,,,,,,,,,,,,,,,,,,,,,,,,,,,,,,,,,
,,,,,,,5a0502cb517dfb00013db4a3,605b45a4d25f287719a41696,605f879fe07174737d4d6ba2,United States,Northeast,12 or younger,no,2021-03-27_15h30.09.455,empathy_intonation_perc,2020.2.10,Win32,60,,,,,,,,,,1,castilian,1,1,1.83452,0,7,7,26,1,27,./stim/wavs/andalusian_match_interrogative-total-yn_David-leia-el-libro.wav,./stim/wavs/argentine_match_interrogative-total-yn_David-leia-el-libro.wav,./stim/wavs/castilian_match_interrogative-total-yn_David-leia-el-libro.wav,./stim/wavs/chilean_match_interrogative-total-yn_David-leia-el-libro.wav,./stim/wavs/cuban_match_interrogative-total-yn_David-leia-el-libro.wav,./stim/wavs/mexican_match_interrogative-total-yn_David-leia-el-libro.wav,./stim/wavs/peruvian_match_interrogative-total-yn_David-leia-el-libro.wav,./stim/wavs/puertorican_match_interrogative-total-yn_David-leia-el-libro.wav,,,,,,,,,,,,,,,,,,,,,,,,,,,,,,,,,,,,,,,,,,,,,,,,,,,,,,,,
,,,,,,,5a0502cb517dfb00013db4a3,605b45a4d25f287719a41696,605f879fe07174737d4d6ba2,United States,Northeast,12 or younger,no,2021-03-27_15h30.09.455,empathy_intonation_perc,2020.2.10,Win32,60,,,,,,,,,,1,argentine,1,1,1.406495,0,8,8,16,1,17,./stim/wavs/andalusian_match_interrogative-partial-wh_Cuando-bebia-el-vino.wav,./stim/wavs/argentine_match_interrogative-partial-wh_Cuando-bebia-el-vino.wav,./stim/wavs/castilian_match_interrogative-partial-wh_Cuando-bebia-el-vino.wav,./stim/wavs/chilean_match_interrogative-partial-wh_Cuando-bebia-el-vino.wav,./stim/wavs/cuban_match_interrogative-partial-wh_Cuando-bebia-el-vino.wav,./stim/wavs/mexican_match_interrogative-partial-wh_Cuando-bebia-el-vino.wav,./stim/wavs/peruvian_match_interrogative-partial-wh_Cuando-bebia-el-vino.wav,./stim/wavs/puertorican_match_interrogative-partial-wh_Cuando-bebia-el-vino.wav,,,,,,,,,,,,,,,,,,,,,,,,,,,,,,,,,,,,,,,,,,,,,,,,,,,,,,,,
,,,,,,,5a0502cb517dfb00013db4a3,605b45a4d25f287719a41696,605f879fe07174737d4d6ba2,United States,Northeast,12 or younger,no,2021-03-27_15h30.09.455,empathy_intonation_perc,2020.2.10,Win32,60,,,,,,,,,,1,peruvian,1,1,1.906305,0,9,9,52,1,53,./stim/wavs/andalusian_mismatch_interrogative-partial-wh_Por-que-odiaba-la-lluvia.wav,./stim/wavs/argentine_mismatch_interrogative-partial-wh_Por-que-odiaba-la-lluvia.wav,./stim/wavs/castilian_mismatch_interrogative-partial-wh_Por-que-odiaba-la-lluvia.wav,./stim/wavs/chilean_mismatch_interrogative-partial-wh_Por-que-odiaba-la-lluvia.wav,./stim/wavs/cuban_mismatch_interrogative-partial-wh_Por-que-odiaba-la-lluvia.wav,./stim/wavs/mexican_mismatch_interrogative-partial-wh_Por-que-odiaba-la-lluvia.wav,./stim/wavs/peruvian_mismatch_interrogative-partial-wh_Por-que-odiaba-la-lluvia.wav,./stim/wavs/puertorican_mismatch_interrogative-partial-wh_Por-que-odiaba-la-lluvia.wav,,,,,,,,,,,,,,,,,,,,,,,,,,,,,,,,,,,,,,,,,,,,,,,,,,,,,,,,
,,,,,,,5a0502cb517dfb00013db4a3,605b45a4d25f287719a41696,605f879fe07174737d4d6ba2,United States,Northeast,12 or younger,no,2021-03-27_15h30.09.455,empathy_intonation_perc,2020.2.10,Win32,60,,,,,,,,,,0,castilian,0,1,1.655265,0,10,10,13,1,14,./stim/wavs/andalusian_match_declarative-narrow-focus_Maria-bebe-el-vino.wav,./stim/wavs/argentine_match_declarative-narrow-focus_Maria-bebe-el-vino.wav,./stim/wavs/castilian_match_declarative-narrow-focus_Maria-bebe-el-vino.wav,./stim/wavs/chilean_match_declarative-narrow-focus_Maria-bebe-el-vino.wav,./stim/wavs/cuban_match_declarative-narrow-focus_Maria-bebe-el-vino.wav,./stim/wavs/mexican_match_declarative-narrow-focus_Maria-bebe-el-vino.wav,./stim/wavs/peruvian_match_declarative-narrow-focus_Maria-bebe-el-vino.wav,./stim/wavs/puertorican_match_declarative-narrow-focus_Maria-bebe-el-vino.wav,,,,,,,,,,,,,,,,,,,,,,,,,,,,,,,,,,,,,,,,,,,,,,,,,,,,,,,,
,,,,,,,5a0502cb517dfb00013db4a3,605b45a4d25f287719a41696,605f879fe07174737d4d6ba2,United States,Northeast,12 or younger,no,2021-03-27_15h30.09.455,empathy_intonation_perc,2020.2.10,Win32,60,,,,,,,,,,0,mexican,0,1,1.41264,0,11,11,40,1,41,./stim/wavs/andalusian_mismatch_declarative-narrow-focus_El-bebe-comia-muy-bien.wav,./stim/wavs/argentine_mismatch_declarative-narrow-focus_El-bebe-comia-muy-bien.wav,./stim/wavs/castilian_mismatch_declarative-narrow-focus_El-bebe-comia-muy-bien.wav,./stim/wavs/chilean_mismatch_declarative-narrow-focus_El-bebe-comia-muy-bien.wav,./stim/wavs/cuban_mismatch_declarative-narrow-focus_El-bebe-comia-muy-bien.wav,./stim/wavs/mexican_mismatch_declarative-narrow-focus_El-bebe-comia-muy-bien.wav,./stim/wavs/peruvian_mismatch_declarative-narrow-focus_El-bebe-comia-muy-bien.wav,./stim/wavs/puertorican_mismatch_declarative-narrow-focus_El-bebe-comia-muy-bien.wav,,,,,,,,,,,,,,,,,,,,,,,,,,,,,,,,,,,,,,,,,,,,,,,,,,,,,,,,
,,,,,,,5a0502cb517dfb00013db4a3,605b45a4d25f287719a41696,605f879fe07174737d4d6ba2,United States,Northeast,12 or younger,no,2021-03-27_15h30.09.455,empathy_intonation_perc,2020.2.10,Win32,60,,,,,,,,,,1,mexican,0,0,1.56837,0,12,12,27,1,28,./stim/wavs/andalusian_match_interrogative-total-yn_Emilio-ama-la-marcha.wav,./stim/wavs/argentine_match_interrogative-total-yn_Emilio-ama-la-marcha.wav,./stim/wavs/castilian_match_interrogative-total-yn_Emilio-ama-la-marcha.wav,./stim/wavs/chilean_match_interrogative-total-yn_Emilio-ama-la-marcha.wav,./stim/wavs/cuban_match_interrogative-total-yn_Emilio-ama-la-marcha.wav,./stim/wavs/mexican_match_interrogative-total-yn_Emilio-ama-la-marcha.wav,./stim/wavs/peruvian_match_interrogative-total-yn_Emilio-ama-la-marcha.wav,./stim/wavs/puertorican_match_interrogative-total-yn_Emilio-ama-la-marcha.wav,,,,,,,,,,,,,,,,,,,,,,,,,,,,,,,,,,,,,,,,,,,,,,,,,,,,,,,,
,,,,,,,5a0502cb517dfb00013db4a3,605b45a4d25f287719a41696,605f879fe07174737d4d6ba2,United States,Northeast,12 or younger,no,2021-03-27_15h30.09.455,empathy_intonation_perc,2020.2.10,Win32,60,,,,,,,,,,0,mexican,0,1,1.75681,0,13,13,42,1,43,./stim/wavs/andalusian_mismatch_declarative-narrow-focus_El-nino-oye-el-rio.wav,./stim/wavs/argentine_mismatch_declarative-narrow-focus_El-nino-oye-el-rio.wav,./stim/wavs/castilian_mismatch_declarative-narrow-focus_El-nino-oye-el-rio.wav,./stim/wavs/chilean_mismatch_declarative-narrow-focus_El-nino-oye-el-rio.wav,./stim/wavs/cuban_mismatch_declarative-narrow-focus_El-nino-oye-el-rio.wav,./stim/wavs/mexican_mismatch_declarative-narrow-focus_El-nino-oye-el-rio.wav,./stim/wavs/peruvian_mismatch_declarative-narrow-focus_El-nino-oye-el-rio.wav,./stim/wavs/puertorican_mismatch_declarative-narrow-focus_El-nino-oye-el-rio.wav,,,,,,,,,,,,,,,,,,,,,,,,,,,,,,,,,,,,,,,,,,,,,,,,,,,,,,,,
,,,,,,,5a0502cb517dfb00013db4a3,605b45a4d25f287719a41696,605f879fe07174737d4d6ba2,United States,Northeast,12 or younger,no,2021-03-27_15h30.09.455,empathy_intonation_perc,2020.2.10,Win32,60,,,,,,,,,,1,peruvian,0,0,1.935555,0,14,14,63,1,64,./stim/wavs/andalusian_mismatch_interrogative-total-yn_Mi-tia-odia-la-lluvia.wav,./stim/wavs/argentine_mismatch_interrogative-total-yn_Mi-tia-odia-la-lluvia.wav,./stim/wavs/castilian_mismatch_interrogative-total-yn_Mi-tia-odia-la-lluvia.wav,./stim/wavs/chilean_mismatch_interrogative-total-yn_Mi-tia-odia-la-lluvia.wav,./stim/wavs/cuban_mismatch_interrogative-total-yn_Mi-tia-odia-la-lluvia.wav,./stim/wavs/mexican_mismatch_interrogative-total-yn_Mi-tia-odia-la-lluvia.wav,./stim/wavs/peruvian_mismatch_interrogative-total-yn_Mi-tia-odia-la-lluvia.wav,./stim/wavs/puertorican_mismatch_interrogative-total-yn_Mi-tia-odia-la-lluvia.wav,,,,,,,,,,,,,,,,,,,,,,,,,,,,,,,,,,,,,,,,,,,,,,,,,,,,,,,,
,,,,,,,5a0502cb517dfb00013db4a3,605b45a4d25f287719a41696,605f879fe07174737d4d6ba2,United States,Northeast,12 or younger,no,2021-03-27_15h30.09.455,empathy_intonation_perc,2020.2.10,Win32,60,,,,,,,,,,0,peruvian,0,1,1.910925,0,15,15,4,1,5,./stim/wavs/andalusian_match_declarative-broad-focus_Manuela-vende-el-carro.wav,./stim/wavs/argentine_match_declarative-broad-focus_Manuela-vende-el-carro.wav,./stim/wavs/castilian_match_declarative-broad-focus_Manuela-vende-el-carro.wav,./stim/wavs/chilean_match_declarative-broad-focus_Manuela-vende-el-carro.wav,./stim/wavs/cuban_match_declarative-broad-focus_Manuela-vende-el-carro.wav,./stim/wavs/mexican_match_declarative-broad-focus_Manuela-vende-el-carro.wav,./stim/wavs/peruvian_match_declarative-broad-focus_Manuela-vende-el-carro.wav,./stim/wavs/puertorican_match_declarative-broad-focus_Manuela-vende-el-carro.wav,,,,,,,,,,,,,,,,,,,,,,,,,,,,,,,,,,,,,,,,,,,,,,,,,,,,,,,,
,,,,,,,5a0502cb517dfb00013db4a3,605b45a4d25f287719a41696,605f879fe07174737d4d6ba2,United States,Northeast,12 or younger,no,2021-03-27_15h30.09.455,empathy_intonation_perc,2020.2.10,Win32,60,,,,,,,,,,0,andalusian,0,1,1.778725,0,16,16,39,1,40,./stim/wavs/andalusian_mismatch_declarative-broad-focus_Mi-tia-odia-la-lluvia.wav,./stim/wavs/argentine_mismatch_declarative-broad-focus_Mi-tia-odia-la-lluvia.wav,./stim/wavs/castilian_mismatch_declarative-broad-focus_Mi-tia-odia-la-lluvia.wav,./stim/wavs/chilean_mismatch_declarative-broad-focus_Mi-tia-odia-la-lluvia.wav,./stim/wavs/cuban_mismatch_declarative-broad-focus_Mi-tia-odia-la-lluvia.wav,./stim/wavs/mexican_mismatch_declarative-broad-focus_Mi-tia-odia-la-lluvia.wav,./stim/wavs/peruvian_mismatch_declarative-broad-focus_Mi-tia-odia-la-lluvia.wav,./stim/wavs/puertorican_mismatch_declarative-broad-focus_Mi-tia-odia-la-lluvia.wav,,,,,,,,,,,,,,,,,,,,,,,,,,,,,,,,,,,,,,,,,,,,,,,,,,,,,,,,
,,,,,,,5a0502cb517dfb00013db4a3,605b45a4d25f287719a41696,605f879fe07174737d4d6ba2,United States,Northeast,12 or younger,no,2021-03-27_15h30.09.455,empathy_intonation_perc,2020.2.10,Win32,60,,,,,,,,,,0,mexican,0,1,1.669495,0,17,17,43,1,44,./stim/wavs/andalusian_mismatch_declarative-narrow-focus_La-maestra-vive-en-Paris.wav,./stim/wavs/argentine_mismatch_declarative-narrow-focus_La-maestra-vive-en-Paris.wav,./stim/wavs/castilian_mismatch_declarative-narrow-focus_La-maestra-vive-en-Paris.wav,./stim/wavs/chilean_mismatch_declarative-narrow-focus_La-maestra-vive-en-Paris.wav,./stim/wavs/cuban_mismatch_declarative-narrow-focus_La-maestra-vive-en-Paris.wav,./stim/wavs/mexican_mismatch_declarative-narrow-focus_La-maestra-vive-en-Paris.wav,./stim/wavs/peruvian_mismatch_declarative-narrow-focus_La-maestra-vive-en-Paris.wav,./stim/wavs/puertorican_mismatch_declarative-narrow-focus_La-maestra-vive-en-Paris.wav,,,,,,,,,,,,,,,,,,,,,,,,,,,,,,,,,,,,,,,,,,,,,,,,,,,,,,,,
,,,,,,,5a0502cb517dfb00013db4a3,605b45a4d25f287719a41696,605f879fe07174737d4d6ba2,United States,Northeast,12 or younger,no,2021-03-27_15h30.09.455,empathy_intonation_perc,2020.2.10,Win32,60,,,,,,,,,,0,peruvian,0,1,2.051345,0,18,18,38,1,39,./stim/wavs/andalusian_mismatch_declarative-broad-focus_Mi-novio-viene-del-lago.wav,./stim/wavs/argentine_mismatch_declarative-broad-focus_Mi-novio-viene-del-lago.wav,./stim/wavs/castilian_mismatch_declarative-broad-focus_Mi-novio-viene-del-lago.wav,./stim/wavs/chilean_mismatch_declarative-broad-focus_Mi-novio-viene-del-lago.wav,./stim/wavs/cuban_mismatch_declarative-broad-focus_Mi-novio-viene-del-lago.wav,./stim/wavs/mexican_mismatch_declarative-broad-focus_Mi-novio-viene-del-lago.wav,./stim/wavs/peruvian_mismatch_declarative-broad-focus_Mi-novio-viene-del-lago.wav,./stim/wavs/puertorican_mismatch_declarative-broad-focus_Mi-novio-viene-del-lago.wav,,,,,,,,,,,,,,,,,,,,,,,,,,,,,,,,,,,,,,,,,,,,,,,,,,,,,,,,
,,,,,,,5a0502cb517dfb00013db4a3,605b45a4d25f287719a41696,605f879fe07174737d4d6ba2,United States,Northeast,12 or younger,no,2021-03-27_15h30.09.455,empathy_intonation_perc,2020.2.10,Win32,60,,,,,,,,,,0,argentine,0,1,1.7523,0,19,19,15,1,16,./stim/wavs/andalusian_match_declarative-narrow-focus_Marta-abre-el-regalo.wav,./stim/wavs/argentine_match_declarative-narrow-focus_Marta-abre-el-regalo.wav,./stim/wavs/castilian_match_declarative-narrow-focus_Marta-abre-el-regalo.wav,./stim/wavs/chilean_match_declarative-narrow-focus_Marta-abre-el-regalo.wav,./stim/wavs/cuban_match_declarative-narrow-focus_Marta-abre-el-regalo.wav,./stim/wavs/mexican_match_declarative-narrow-focus_Marta-abre-el-regalo.wav,./stim/wavs/peruvian_match_declarative-narrow-focus_Marta-abre-el-regalo.wav,./stim/wavs/puertorican_match_declarative-narrow-focus_Marta-abre-el-regalo.wav,,,,,,,,,,,,,,,,,,,,,,,,,,,,,,,,,,,,,,,,,,,,,,,,,,,,,,,,
,,,,,,,5a0502cb517dfb00013db4a3,605b45a4d25f287719a41696,605f879fe07174737d4d6ba2,United States,Northeast,12 or younger,no,2021-03-27_15h30.09.455,empathy_intonation_perc,2020.2.10,Win32,60,,,,,,,,,,1,castilian,1,1,1.74947,0,20,20,19,1,20,./stim/wavs/andalusian_match_interrogative-partial-wh_Cuando-vendia-el-carro.wav,./stim/wavs/argentine_match_interrogative-partial-wh_Cuando-vendia-el-carro.wav,./stim/wavs/castilian_match_interrogative-partial-wh_Cuando-vendia-el-carro.wav,./stim/wavs/chilean_match_interrogative-partial-wh_Cuando-vendia-el-carro.wav,./stim/wavs/cuban_match_interrogative-partial-wh_Cuando-vendia-el-carro.wav,./stim/wavs/mexican_match_interrogative-partial-wh_Cuando-vendia-el-carro.wav,./stim/wavs/peruvian_match_interrogative-partial-wh_Cuando-vendia-el-carro.wav,./stim/wavs/puertorican_match_interrogative-partial-wh_Cuando-vendia-el-carro.wav,,,,,,,,,,,,,,,,,,,,,,,,,,,,,,,,,,,,,,,,,,,,,,,,,,,,,,,,
,,,,,,,5a0502cb517dfb00013db4a3,605b45a4d25f287719a41696,605f879fe07174737d4d6ba2,United States,Northeast,12 or younger,no,2021-03-27_15h30.09.455,empathy_intonation_perc,2020.2.10,Win32,60,,,,,,,,,,0,andalusian,0,1,1.727705,0,21,21,2,1,3,./stim/wavs/andalusian_match_declarative-broad-focus_David-leia-el-libro.wav,./stim/wavs/argentine_match_declarative-broad-focus_David-leia-el-libro.wav,./stim/wavs/castilian_match_declarative-broad-focus_David-leia-el-libro.wav,./stim/wavs/chilean_match_declarative-broad-focus_David-leia-el-libro.wav,./stim/wavs/cuban_match_declarative-broad-focus_David-leia-el-libro.wav,./stim/wavs/mexican_match_declarative-broad-focus_David-leia-el-libro.wav,./stim/wavs/peruvian_match_declarative-broad-focus_David-leia-el-libro.wav,./stim/wavs/puertorican_match_declarative-broad-focus_David-leia-el-libro.wav,,,,,,,,,,,,,,,,,,,,,,,,,,,,,,,,,,,,,,,,,,,,,,,,,,,,,,,,
,,,,,,,5a0502cb517dfb00013db4a3,605b45a4d25f287719a41696,605f879fe07174737d4d6ba2,United States,Northeast,12 or younger,no,2021-03-27_15h30.09.455,empathy_intonation_perc,2020.2.10,Win32,60,,,,,,,,,,1,castilian,1,1,1.756,0,22,22,48,1,49,./stim/wavs/andalusian_mismatch_interrogative-partial-wh_Cuando-comia-la-fruta.wav,./stim/wavs/argentine_mismatch_interrogative-partial-wh_Cuando-comia-la-fruta.wav,./stim/wavs/castilian_mismatch_interrogative-partial-wh_Cuando-comia-la-fruta.wav,./stim/wavs/chilean_mismatch_interrogative-partial-wh_Cuando-comia-la-fruta.wav,./stim/wavs/cuban_mismatch_interrogative-partial-wh_Cuando-comia-la-fruta.wav,./stim/wavs/mexican_mismatch_interrogative-partial-wh_Cuando-comia-la-fruta.wav,./stim/wavs/peruvian_mismatch_interrogative-partial-wh_Cuando-comia-la-fruta.wav,./stim/wavs/puertorican_mismatch_interrogative-partial-wh_Cuando-comia-la-fruta.wav,,,,,,,,,,,,,,,,,,,,,,,,,,,,,,,,,,,,,,,,,,,,,,,,,,,,,,,,
,,,,,,,5a0502cb517dfb00013db4a3,605b45a4d25f287719a41696,605f879fe07174737d4d6ba2,United States,Northeast,12 or younger,no,2021-03-27_15h30.09.455,empathy_intonation_perc,2020.2.10,Win32,60,,,,,,,,,,1,puertorican,0,0,1.68451,0,23,23,22,1,23,./stim/wavs/andalusian_match_interrogative-partial-wh_Por-que-hablaba-del-agua.wav,./stim/wavs/argentine_match_interrogative-partial-wh_Por-que-hablaba-del-agua.wav,./stim/wavs/castilian_match_interrogative-partial-wh_Por-que-hablaba-del-agua.wav,./stim/wavs/chilean_match_interrogative-partial-wh_Por-que-hablaba-del-agua.wav,./stim/wavs/cuban_match_interrogative-partial-wh_Por-que-hablaba-del-agua.wav,./stim/wavs/mexican_match_interrogative-partial-wh_Por-que-hablaba-del-agua.wav,./stim/wavs/peruvian_match_interrogative-partial-wh_Por-que-hablaba-del-agua.wav,./stim/wavs/puertorican_match_interrogative-partial-wh_Por-que-hablaba-del-agua.wav,,,,,,,,,,,,,,,,,,,,,,,,,,,,,,,,,,,,,,,,,,,,,,,,,,,,,,,,
,,,,,,,5a0502cb517dfb00013db4a3,605b45a4d25f287719a41696,605f879fe07174737d4d6ba2,United States,Northeast,12 or younger,no,2021-03-27_15h30.09.455,empathy_intonation_perc,2020.2.10,Win32,60,,,,,,,,,,1,peruvian,1,1,1.76979,0,24,24,20,1,21,./stim/wavs/andalusian_match_interrogative-partial-wh_Por-que-abre-el-regalo.wav,./stim/wavs/argentine_match_interrogative-partial-wh_Por-que-abre-el-regalo.wav,./stim/wavs/castilian_match_interrogative-partial-wh_Por-que-abre-el-regalo.wav,./stim/wavs/chilean_match_interrogative-partial-wh_Por-que-abre-el-regalo.wav,./stim/wavs/cuban_match_interrogative-partial-wh_Por-que-abre-el-regalo.wav,./stim/wavs/mexican_match_interrogative-partial-wh_Por-que-abre-el-regalo.wav,./stim/wavs/peruvian_match_interrogative-partial-wh_Por-que-abre-el-regalo.wav,./stim/wavs/puertorican_match_interrogative-partial-wh_Por-que-abre-el-regalo.wav,,,,,,,,,,,,,,,,,,,,,,,,,,,,,,,,,,,,,,,,,,,,,,,,,,,,,,,,
,,,,,,,5a0502cb517dfb00013db4a3,605b45a4d25f287719a41696,605f879fe07174737d4d6ba2,United States,Northeast,12 or younger,no,2021-03-27_15h30.09.455,empathy_intonation_perc,2020.2.10,Win32,60,,,,,,,,,,0,argentine,0,1,1.747565,0,25,25,37,1,38,./stim/wavs/andalusian_mismatch_declarative-broad-focus_Mi-madre-come-la-fruta.wav,./stim/wavs/argentine_mismatch_declarative-broad-focus_Mi-madre-come-la-fruta.wav,./stim/wavs/castilian_mismatch_declarative-broad-focus_Mi-madre-come-la-fruta.wav,./stim/wavs/chilean_mismatch_declarative-broad-focus_Mi-madre-come-la-fruta.wav,./stim/wavs/cuban_mismatch_declarative-broad-focus_Mi-madre-come-la-fruta.wav,./stim/wavs/mexican_mismatch_declarative-broad-focus_Mi-madre-come-la-fruta.wav,./stim/wavs/peruvian_mismatch_declarative-broad-focus_Mi-madre-come-la-fruta.wav,./stim/wavs/puertorican_mismatch_declarative-broad-focus_Mi-madre-come-la-fruta.wav,,,,,,,,,,,,,,,,,,,,,,,,,,,,,,,,,,,,,,,,,,,,,,,,,,,,,,,,
,,,,,,,5a0502cb517dfb00013db4a3,605b45a4d25f287719a41696,605f879fe07174737d4d6ba2,United States,Northeast,12 or younger,no,2021-03-27_15h30.09.455,empathy_intonation_perc,2020.2.10,Win32,60,,,,,,,,,,1,puertorican,0,0,1.745935,0,26,26,53,1,54,./stim/wavs/andalusian_mismatch_interrogative-partial-wh_Por-que-oia-el-rio.wav,./stim/wavs/argentine_mismatch_interrogative-partial-wh_Por-que-oia-el-rio.wav,./stim/wavs/castilian_mismatch_interrogative-partial-wh_Por-que-oia-el-rio.wav,./stim/wavs/chilean_mismatch_interrogative-partial-wh_Por-que-oia-el-rio.wav,./stim/wavs/cuban_mismatch_interrogative-partial-wh_Por-que-oia-el-rio.wav,./stim/wavs/mexican_mismatch_interrogative-partial-wh_Por-que-oia-el-rio.wav,./stim/wavs/peruvian_mismatch_interrogative-partial-wh_Por-que-oia-el-rio.wav,./stim/wavs/puertorican_mismatch_interrogative-partial-wh_Por-que-oia-el-rio.wav,,,,,,,,,,,,,,,,,,,,,,,,,,,,,,,,,,,,,,,,,,,,,,,,,,,,,,,,
,,,,,,,5a0502cb517dfb00013db4a3,605b45a4d25f287719a41696,605f879fe07174737d4d6ba2,United States,Northeast,12 or younger,no,2021-03-27_15h30.09.455,empathy_intonation_perc,2020.2.10,Win32,60,,,,,,,,,,0,chilean,0,1,1.48913,0,27,27,33,1,34,./stim/wavs/andalusian_mismatch_declarative-broad-focus_El-hombre-mira-la-luna.wav,./stim/wavs/argentine_mismatch_declarative-broad-focus_El-hombre-mira-la-luna.wav,./stim/wavs/castilian_mismatch_declarative-broad-focus_El-hombre-mira-la-luna.wav,./stim/wavs/chilean_mismatch_declarative-broad-focus_El-hombre-mira-la-luna.wav,./stim/wavs/cuban_mismatch_declarative-broad-focus_El-hombre-mira-la-luna.wav,./stim/wavs/mexican_mismatch_declarative-broad-focus_El-hombre-mira-la-luna.wav,./stim/wavs/peruvian_mismatch_declarative-broad-focus_El-hombre-mira-la-luna.wav,./stim/wavs/puertorican_mismatch_declarative-broad-focus_El-hombre-mira-la-luna.wav,,,,,,,,,,,,,,,,,,,,,,,,,,,,,,,,,,,,,,,,,,,,,,,,,,,,,,,,
,,,,,,,5a0502cb517dfb00013db4a3,605b45a4d25f287719a41696,605f879fe07174737d4d6ba2,United States,Northeast,12 or younger,no,2021-03-27_15h30.09.455,empathy_intonation_perc,2020.2.10,Win32,60,,,,,,,,,,0,argentine,0,1,1.54373,0,28,28,7,1,8,./stim/wavs/andalusian_match_declarative-broad-focus_Marta-abre-el-regalo.wav,./stim/wavs/argentine_match_declarative-broad-focus_Marta-abre-el-regalo.wav,./stim/wavs/castilian_match_declarative-broad-focus_Marta-abre-el-regalo.wav,./stim/wavs/chilean_match_declarative-broad-focus_Marta-abre-el-regalo.wav,./stim/wavs/cuban_match_declarative-broad-focus_Marta-abre-el-regalo.wav,./stim/wavs/mexican_match_declarative-broad-focus_Marta-abre-el-regalo.wav,./stim/wavs/peruvian_match_declarative-broad-focus_Marta-abre-el-regalo.wav,./stim/wavs/puertorican_match_declarative-broad-focus_Marta-abre-el-regalo.wav,,,,,,,,,,,,,,,,,,,,,,,,,,,,,,,,,,,,,,,,,,,,,,,,,,,,,,,,
,,,,,,,5a0502cb517dfb00013db4a3,605b45a4d25f287719a41696,605f879fe07174737d4d6ba2,United States,Northeast,12 or younger,no,2021-03-27_15h30.09.455,empathy_intonation_perc,2020.2.10,Win32,60,,,,,,,,,,0,mexican,0,1,1.339105,0,29,29,10,1,11,./stim/wavs/andalusian_match_declarative-narrow-focus_David-leia-el-libro.wav,./stim/wavs/argentine_match_declarative-narrow-focus_David-leia-el-libro.wav,./stim/wavs/castilian_match_declarative-narrow-focus_David-leia-el-libro.wav,./stim/wavs/chilean_match_declarative-narrow-focus_David-leia-el-libro.wav,./stim/wavs/cuban_match_declarative-narrow-focus_David-leia-el-libro.wav,./stim/wavs/mexican_match_declarative-narrow-focus_David-leia-el-libro.wav,./stim/wavs/peruvian_match_declarative-narrow-focus_David-leia-el-libro.wav,./stim/wavs/puertorican_match_declarative-narrow-focus_David-leia-el-libro.wav,,,,,,,,,,,,,,,,,,,,,,,,,,,,,,,,,,,,,,,,,,,,,,,,,,,,,,,,
,,,,,,,5a0502cb517dfb00013db4a3,605b45a4d25f287719a41696,605f879fe07174737d4d6ba2,United States,Northeast,12 or younger,no,2021-03-27_15h30.09.455,empathy_intonation_perc,2020.2.10,Win32,60,,,,,,,,,,1,castilian,1,1,1.940895,0,30,30,61,1,62,./stim/wavs/andalusian_mismatch_interrogative-total-yn_Mi-madre-come-la-fruta.wav,./stim/wavs/argentine_mismatch_interrogative-total-yn_Mi-madre-come-la-fruta.wav,./stim/wavs/castilian_mismatch_interrogative-total-yn_Mi-madre-come-la-fruta.wav,./stim/wavs/chilean_mismatch_interrogative-total-yn_Mi-madre-come-la-fruta.wav,./stim/wavs/cuban_mismatch_interrogative-total-yn_Mi-madre-come-la-fruta.wav,./stim/wavs/mexican_mismatch_interrogative-total-yn_Mi-madre-come-la-fruta.wav,./stim/wavs/peruvian_mismatch_interrogative-total-yn_Mi-madre-come-la-fruta.wav,./stim/wavs/puertorican_mismatch_interrogative-total-yn_Mi-madre-come-la-fruta.wav,,,,,,,,,,,,,,,,,,,,,,,,,,,,,,,,,,,,,,,,,,,,,,,,,,,,,,,,
,,,,,,,5a0502cb517dfb00013db4a3,605b45a4d25f287719a41696,605f879fe07174737d4d6ba2,United States,Northeast,12 or younger,no,2021-03-27_15h30.09.455,empathy_intonation_perc,2020.2.10,Win32,60,,,,,,,,,,0,peruvian,0,1,1.94193,0,31,31,47,1,48,./stim/wavs/andalusian_mismatch_declarative-narrow-focus_Mi-tia-odia-la-lluvia.wav,./stim/wavs/argentine_mismatch_declarative-narrow-focus_Mi-tia-odia-la-lluvia.wav,./stim/wavs/castilian_mismatch_declarative-narrow-focus_Mi-tia-odia-la-lluvia.wav,./stim/wavs/chilean_mismatch_declarative-narrow-focus_Mi-tia-odia-la-lluvia.wav,./stim/wavs/cuban_mismatch_declarative-narrow-focus_Mi-tia-odia-la-lluvia.wav,./stim/wavs/mexican_mismatch_declarative-narrow-focus_Mi-tia-odia-la-lluvia.wav,./stim/wavs/peruvian_mismatch_declarative-narrow-focus_Mi-tia-odia-la-lluvia.wav,./stim/wavs/puertorican_mismatch_declarative-narrow-focus_Mi-tia-odia-la-lluvia.wav,,,,,,,,,,,,,,,,,,,,,,,,,,,,,,,,,,,,,,,,,,,,,,,,,,,,,,,,
,,,,,,,5a0502cb517dfb00013db4a3,605b45a4d25f287719a41696,605f879fe07174737d4d6ba2,United States,Northeast,12 or younger,no,2021-03-27_15h30.09.455,empathy_intonation_perc,2020.2.10,Win32,60,,,,,,,,,,0,puertorican,0,1,1.754345,0,32,32,35,1,36,./stim/wavs/andalusian_mismatch_declarative-broad-focus_La-maestra-vive-en-Paris.wav,./stim/wavs/argentine_mismatch_declarative-broad-focus_La-maestra-vive-en-Paris.wav,./stim/wavs/castilian_mismatch_declarative-broad-focus_La-maestra-vive-en-Paris.wav,./stim/wavs/chilean_mismatch_declarative-broad-focus_La-maestra-vive-en-Paris.wav,./stim/wavs/cuban_mismatch_declarative-broad-focus_La-maestra-vive-en-Paris.wav,./stim/wavs/mexican_mismatch_declarative-broad-focus_La-maestra-vive-en-Paris.wav,./stim/wavs/peruvian_mismatch_declarative-broad-focus_La-maestra-vive-en-Paris.wav,./stim/wavs/puertorican_mismatch_declarative-broad-focus_La-maestra-vive-en-Paris.wav,,,,,,,,,,,,,,,,,,,,,,,,,,,,,,,,,,,,,,,,,,,,,,,,,,,,,,,,
,,,,,,,5a0502cb517dfb00013db4a3,605b45a4d25f287719a41696,605f879fe07174737d4d6ba2,United States,Northeast,12 or younger,no,2021-03-27_15h30.09.455,empathy_intonation_perc,2020.2.10,Win32,60,,,,,,,,,,0,mexican,0,1,1.490255,0,33,33,41,1,42,./stim/wavs/andalusian_mismatch_declarative-narrow-focus_El-hombre-mira-la-luna.wav,./stim/wavs/argentine_mismatch_declarative-narrow-focus_El-hombre-mira-la-luna.wav,./stim/wavs/castilian_mismatch_declarative-narrow-focus_El-hombre-mira-la-luna.wav,./stim/wavs/chilean_mismatch_declarative-narrow-focus_El-hombre-mira-la-luna.wav,./stim/wavs/cuban_mismatch_declarative-narrow-focus_El-hombre-mira-la-luna.wav,./stim/wavs/mexican_mismatch_declarative-narrow-focus_El-hombre-mira-la-luna.wav,./stim/wavs/peruvian_mismatch_declarative-narrow-focus_El-hombre-mira-la-luna.wav,./stim/wavs/puertorican_mismatch_declarative-narrow-focus_El-hombre-mira-la-luna.wav,,,,,,,,,,,,,,,,,,,,,,,,,,,,,,,,,,,,,,,,,,,,,,,,,,,,,,,,
,,,,,,,5a0502cb517dfb00013db4a3,605b45a4d25f287719a41696,605f879fe07174737d4d6ba2,United States,Northeast,12 or younger,no,2021-03-27_15h30.09.455,empathy_intonation_perc,2020.2.10,Win32,60,,,,,,,,,,1,cuban,0,0,1.38324,0,34,34,28,1,29,./stim/wavs/andalusian_match_interrogative-total-yn_Manuela-vende-el-carro.wav,./stim/wavs/argentine_match_interrogative-total-yn_Manuela-vende-el-carro.wav,./stim/wavs/castilian_match_interrogative-total-yn_Manuela-vende-el-carro.wav,./stim/wavs/chilean_match_interrogative-total-yn_Manuela-vende-el-carro.wav,./stim/wavs/cuban_match_interrogative-total-yn_Manuela-vende-el-carro.wav,./stim/wavs/mexican_match_interrogative-total-yn_Manuela-vende-el-carro.wav,./stim/wavs/peruvian_match_interrogative-total-yn_Manuela-vende-el-carro.wav,./stim/wavs/puertorican_match_interrogative-total-yn_Manuela-vende-el-carro.wav,,,,,,,,,,,,,,,,,,,,,,,,,,,,,,,,,,,,,,,,,,,,,,,,,,,,,,,,
,,,,,,,5a0502cb517dfb00013db4a3,605b45a4d25f287719a41696,605f879fe07174737d4d6ba2,United States,Northeast,12 or younger,no,2021-03-27_15h30.09.455,empathy_intonation_perc,2020.2.10,Win32,60,,,,,,,,,,1,peruvian,1,1,1.701875,0,35,35,58,1,59,./stim/wavs/andalusian_mismatch_interrogative-total-yn_El-nino-oye-el-rio.wav,./stim/wavs/argentine_mismatch_interrogative-total-yn_El-nino-oye-el-rio.wav,./stim/wavs/castilian_mismatch_interrogative-total-yn_El-nino-oye-el-rio.wav,./stim/wavs/chilean_mismatch_interrogative-total-yn_El-nino-oye-el-rio.wav,./stim/wavs/cuban_mismatch_interrogative-total-yn_El-nino-oye-el-rio.wav,./stim/wavs/mexican_mismatch_interrogative-total-yn_El-nino-oye-el-rio.wav,./stim/wavs/peruvian_mismatch_interrogative-total-yn_El-nino-oye-el-rio.wav,./stim/wavs/puertorican_mismatch_interrogative-total-yn_El-nino-oye-el-rio.wav,,,,,,,,,,,,,,,,,,,,,,,,,,,,,,,,,,,,,,,,,,,,,,,,,,,,,,,,
,,,,,,,5a0502cb517dfb00013db4a3,605b45a4d25f287719a41696,605f879fe07174737d4d6ba2,United States,Northeast,12 or younger,no,2021-03-27_15h30.09.455,empathy_intonation_perc,2020.2.10,Win32,60,,,,,,,,,,1,castilian,1,1,1.735145,0,36,36,60,1,61,./stim/wavs/andalusian_mismatch_interrogative-total-yn_La-nina-lava-el-plato.wav,./stim/wavs/argentine_mismatch_interrogative-total-yn_La-nina-lava-el-plato.wav,./stim/wavs/castilian_mismatch_interrogative-total-yn_La-nina-lava-el-plato.wav,./stim/wavs/chilean_mismatch_interrogative-total-yn_La-nina-lava-el-plato.wav,./stim/wavs/cuban_mismatch_interrogative-total-yn_La-nina-lava-el-plato.wav,./stim/wavs/mexican_mismatch_interrogative-total-yn_La-nina-lava-el-plato.wav,./stim/wavs/peruvian_mismatch_interrogative-total-yn_La-nina-lava-el-plato.wav,./stim/wavs/puertorican_mismatch_interrogative-total-yn_La-nina-lava-el-plato.wav,,,,,,,,,,,,,,,,,,,,,,,,,,,,,,,,,,,,,,,,,,,,,,,,,,,,,,,,
,,,,,,,5a0502cb517dfb00013db4a3,605b45a4d25f287719a41696,605f879fe07174737d4d6ba2,United States,Northeast,12 or younger,no,2021-03-27_15h30.09.455,empathy_intonation_perc,2020.2.10,Win32,60,,,,,,,,,,0,mexican,0,1,1.51757,0,37,37,46,1,47,./stim/wavs/andalusian_mismatch_declarative-narrow-focus_Mi-novio-viene-del-lago.wav,./stim/wavs/argentine_mismatch_declarative-narrow-focus_Mi-novio-viene-del-lago.wav,./stim/wavs/castilian_mismatch_declarative-narrow-focus_Mi-novio-viene-del-lago.wav,./stim/wavs/chilean_mismatch_declarative-narrow-focus_Mi-novio-viene-del-lago.wav,./stim/wavs/cuban_mismatch_declarative-narrow-focus_Mi-novio-viene-del-lago.wav,./stim/wavs/mexican_mismatch_declarative-narrow-focus_Mi-novio-viene-del-lago.wav,./stim/wavs/peruvian_mismatch_declarative-narrow-focus_Mi-novio-viene-del-lago.wav,./stim/wavs/puertorican_mismatch_declarative-narrow-focus_Mi-novio-viene-del-lago.wav,,,,,,,,,,,,,,,,,,,,,,,,,,,,,,,,,,,,,,,,,,,,,,,,,,,,,,,,
,,,,,,,5a0502cb517dfb00013db4a3,605b45a4d25f287719a41696,605f879fe07174737d4d6ba2,United States,Northeast,12 or younger,no,2021-03-27_15h30.09.455,empathy_intonation_perc,2020.2.10,Win32,60,,,,,,,,,,1,puertorican,0,0,1.51817,0,38,38,49,1,50,./stim/wavs/andalusian_mismatch_interrogative-partial-wh_Cuando-lavaba-el-plato.wav,./stim/wavs/argentine_mismatch_interrogative-partial-wh_Cuando-lavaba-el-plato.wav,./stim/wavs/castilian_mismatch_interrogative-partial-wh_Cuando-lavaba-el-plato.wav,./stim/wavs/chilean_mismatch_interrogative-partial-wh_Cuando-lavaba-el-plato.wav,./stim/wavs/cuban_mismatch_interrogative-partial-wh_Cuando-lavaba-el-plato.wav,./stim/wavs/mexican_mismatch_interrogative-partial-wh_Cuando-lavaba-el-plato.wav,./stim/wavs/peruvian_mismatch_interrogative-partial-wh_Cuando-lavaba-el-plato.wav,./stim/wavs/puertorican_mismatch_interrogative-partial-wh_Cuando-lavaba-el-plato.wav,,,,,,,,,,,,,,,,,,,,,,,,,,,,,,,,,,,,,,,,,,,,,,,,,,,,,,,,
,,,,,,,5a0502cb517dfb00013db4a3,605b45a4d25f287719a41696,605f879fe07174737d4d6ba2,United States,Northeast,12 or younger,no,2021-03-27_15h30.09.455,empathy_intonation_perc,2020.2.10,Win32,60,,,,,,,,,,1,peruvian,0,0,1.598345,0,39,39,24,1,25,./stim/wavs/andalusian_match_interrogative-total-yn_Ana-lleva-el-abrigo.wav,./stim/wavs/argentine_match_interrogative-total-yn_Ana-lleva-el-abrigo.wav,./stim/wavs/castilian_match_interrogative-total-yn_Ana-lleva-el-abrigo.wav,./stim/wavs/chilean_match_interrogative-total-yn_Ana-lleva-el-abrigo.wav,./stim/wavs/cuban_match_interrogative-total-yn_Ana-lleva-el-abrigo.wav,./stim/wavs/mexican_match_interrogative-total-yn_Ana-lleva-el-abrigo.wav,./stim/wavs/peruvian_match_interrogative-total-yn_Ana-lleva-el-abrigo.wav,./stim/wavs/puertorican_match_interrogative-total-yn_Ana-lleva-el-abrigo.wav,,,,,,,,,,,,,,,,,,,,,,,,,,,,,,,,,,,,,,,,,,,,,,,,,,,,,,,,
,,,,,,,5a0502cb517dfb00013db4a3,605b45a4d25f287719a41696,605f879fe07174737d4d6ba2,United States,Northeast,12 or younger,no,2021-03-27_15h30.09.455,empathy_intonation_perc,2020.2.10,Win32,60,,,,,,,,,,1,peruvian,1,1,2.020405,0,40,40,59,1,60,./stim/wavs/andalusian_mismatch_interrogative-total-yn_La-maestra-vive-en-Paris.wav,./stim/wavs/argentine_mismatch_interrogative-total-yn_La-maestra-vive-en-Paris.wav,./stim/wavs/castilian_mismatch_interrogative-total-yn_La-maestra-vive-en-Paris.wav,./stim/wavs/chilean_mismatch_interrogative-total-yn_La-maestra-vive-en-Paris.wav,./stim/wavs/cuban_mismatch_interrogative-total-yn_La-maestra-vive-en-Paris.wav,./stim/wavs/mexican_mismatch_interrogative-total-yn_La-maestra-vive-en-Paris.wav,./stim/wavs/peruvian_mismatch_interrogative-total-yn_La-maestra-vive-en-Paris.wav,./stim/wavs/puertorican_mismatch_interrogative-total-yn_La-maestra-vive-en-Paris.wav,,,,,,,,,,,,,,,,,,,,,,,,,,,,,,,,,,,,,,,,,,,,,,,,,,,,,,,,
,,,,,,,5a0502cb517dfb00013db4a3,605b45a4d25f287719a41696,605f879fe07174737d4d6ba2,United States,Northeast,12 or younger,no,2021-03-27_15h30.09.455,empathy_intonation_perc,2020.2.10,Win32,60,,,,,,,,,,1,chilean,0,0,1.49896,0,41,41,57,1,58,./stim/wavs/andalusian_mismatch_interrogative-total-yn_El-hombre-mira-la-luna.wav,./stim/wavs/argentine_mismatch_interrogative-total-yn_El-hombre-mira-la-luna.wav,./stim/wavs/castilian_mismatch_interrogative-total-yn_El-hombre-mira-la-luna.wav,./stim/wavs/chilean_mismatch_interrogative-total-yn_El-hombre-mira-la-luna.wav,./stim/wavs/cuban_mismatch_interrogative-total-yn_El-hombre-mira-la-luna.wav,./stim/wavs/mexican_mismatch_interrogative-total-yn_El-hombre-mira-la-luna.wav,./stim/wavs/peruvian_mismatch_interrogative-total-yn_El-hombre-mira-la-luna.wav,./stim/wavs/puertorican_mismatch_interrogative-total-yn_El-hombre-mira-la-luna.wav,,,,,,,,,,,,,,,,,,,,,,,,,,,,,,,,,,,,,,,,,,,,,,,,,,,,,,,,
,,,,,,,5a0502cb517dfb00013db4a3,605b45a4d25f287719a41696,605f879fe07174737d4d6ba2,United States,Northeast,12 or younger,no,2021-03-27_15h30.09.455,empathy_intonation_perc,2020.2.10,Win32,60,,,,,,,,,,1,castilian,0,0,1.683025,0,42,42,25,1,26,./stim/wavs/andalusian_match_interrogative-total-yn_Daniel-iba-a-Bolivia.wav,./stim/wavs/argentine_match_interrogative-total-yn_Daniel-iba-a-Bolivia.wav,./stim/wavs/castilian_match_interrogative-total-yn_Daniel-iba-a-Bolivia.wav,./stim/wavs/chilean_match_interrogative-total-yn_Daniel-iba-a-Bolivia.wav,./stim/wavs/cuban_match_interrogative-total-yn_Daniel-iba-a-Bolivia.wav,./stim/wavs/mexican_match_interrogative-total-yn_Daniel-iba-a-Bolivia.wav,./stim/wavs/peruvian_match_interrogative-total-yn_Daniel-iba-a-Bolivia.wav,./stim/wavs/puertorican_match_interrogative-total-yn_Daniel-iba-a-Bolivia.wav,,,,,,,,,,,,,,,,,,,,,,,,,,,,,,,,,,,,,,,,,,,,,,,,,,,,,,,,
,,,,,,,5a0502cb517dfb00013db4a3,605b45a4d25f287719a41696,605f879fe07174737d4d6ba2,United States,Northeast,12 or younger,no,2021-03-27_15h30.09.455,empathy_intonation_perc,2020.2.10,Win32,60,,,,,,,,,,0,mexican,1,0,1.56615,0,43,43,0,1,1,./stim/wavs/andalusian_match_declarative-broad-focus_Ana-lleva-el-abrigo.wav,./stim/wavs/argentine_match_declarative-broad-focus_Ana-lleva-el-abrigo.wav,./stim/wavs/castilian_match_declarative-broad-focus_Ana-lleva-el-abrigo.wav,./stim/wavs/chilean_match_declarative-broad-focus_Ana-lleva-el-abrigo.wav,./stim/wavs/cuban_match_declarative-broad-focus_Ana-lleva-el-abrigo.wav,./stim/wavs/mexican_match_declarative-broad-focus_Ana-lleva-el-abrigo.wav,./stim/wavs/peruvian_match_declarative-broad-focus_Ana-lleva-el-abrigo.wav,./stim/wavs/puertorican_match_declarative-broad-focus_Ana-lleva-el-abrigo.wav,,,,,,,,,,,,,,,,,,,,,,,,,,,,,,,,,,,,,,,,,,,,,,,,,,,,,,,,
,,,,,,,5a0502cb517dfb00013db4a3,605b45a4d25f287719a41696,605f879fe07174737d4d6ba2,United States,Northeast,12 or younger,no,2021-03-27_15h30.09.455,empathy_intonation_perc,2020.2.10,Win32,60,,,,,,,,,,0,argentine,0,1,1.43508,0,44,44,5,1,6,./stim/wavs/andalusian_match_declarative-broad-focus_Maria-bebe-el-vino.wav,./stim/wavs/argentine_match_declarative-broad-focus_Maria-bebe-el-vino.wav,./stim/wavs/castilian_match_declarative-broad-focus_Maria-bebe-el-vino.wav,./stim/wavs/chilean_match_declarative-broad-focus_Maria-bebe-el-vino.wav,./stim/wavs/cuban_match_declarative-broad-focus_Maria-bebe-el-vino.wav,./stim/wavs/mexican_match_declarative-broad-focus_Maria-bebe-el-vino.wav,./stim/wavs/peruvian_match_declarative-broad-focus_Maria-bebe-el-vino.wav,./stim/wavs/puertorican_match_declarative-broad-focus_Maria-bebe-el-vino.wav,,,,,,,,,,,,,,,,,,,,,,,,,,,,,,,,,,,,,,,,,,,,,,,,,,,,,,,,
,,,,,,,5a0502cb517dfb00013db4a3,605b45a4d25f287719a41696,605f879fe07174737d4d6ba2,United States,Northeast,12 or younger,no,2021-03-27_15h30.09.455,empathy_intonation_perc,2020.2.10,Win32,60,,,,,,,,,,0,puertorican,0,1,1.403175,0,45,45,34,1,35,./stim/wavs/andalusian_mismatch_declarative-broad-focus_El-nino-oye-el-rio.wav,./stim/wavs/argentine_mismatch_declarative-broad-focus_El-nino-oye-el-rio.wav,./stim/wavs/castilian_mismatch_declarative-broad-focus_El-nino-oye-el-rio.wav,./stim/wavs/chilean_mismatch_declarative-broad-focus_El-nino-oye-el-rio.wav,./stim/wavs/cuban_mismatch_declarative-broad-focus_El-nino-oye-el-rio.wav,./stim/wavs/mexican_mismatch_declarative-broad-focus_El-nino-oye-el-rio.wav,./stim/wavs/peruvian_mismatch_declarative-broad-focus_El-nino-oye-el-rio.wav,./stim/wavs/puertorican_mismatch_declarative-broad-focus_El-nino-oye-el-rio.wav,,,,,,,,,,,,,,,,,,,,,,,,,,,,,,,,,,,,,,,,,,,,,,,,,,,,,,,,
,,,,,,,5a0502cb517dfb00013db4a3,605b45a4d25f287719a41696,605f879fe07174737d4d6ba2,United States,Northeast,12 or younger,no,2021-03-27_15h30.09.455,empathy_intonation_perc,2020.2.10,Win32,60,,,,,,,,,,0,puertorican,1,0,1.55044,0,46,46,32,1,33,./stim/wavs/andalusian_mismatch_declarative-broad-focus_El-bebe-comia-muy-bien.wav,./stim/wavs/argentine_mismatch_declarative-broad-focus_El-bebe-comia-muy-bien.wav,./stim/wavs/castilian_mismatch_declarative-broad-focus_El-bebe-comia-muy-bien.wav,./stim/wavs/chilean_mismatch_declarative-broad-focus_El-bebe-comia-muy-bien.wav,./stim/wavs/cuban_mismatch_declarative-broad-focus_El-bebe-comia-muy-bien.wav,./stim/wavs/mexican_mismatch_declarative-broad-focus_El-bebe-comia-muy-bien.wav,./stim/wavs/peruvian_mismatch_declarative-broad-focus_El-bebe-comia-muy-bien.wav,./stim/wavs/puertorican_mismatch_declarative-broad-focus_El-bebe-comia-muy-bien.wav,,,,,,,,,,,,,,,,,,,,,,,,,,,,,,,,,,,,,,,,,,,,,,,,,,,,,,,,
,,,,,,,5a0502cb517dfb00013db4a3,605b45a4d25f287719a41696,605f879fe07174737d4d6ba2,United States,Northeast,12 or younger,no,2021-03-27_15h30.09.455,empathy_intonation_perc,2020.2.10,Win32,60,,,,,,,,,,0,peruvian,0,1,2.0461,0,47,47,3,1,4,./stim/wavs/andalusian_match_declarative-broad-focus_Emilio-ama-la-marcha.wav,./stim/wavs/argentine_match_declarative-broad-focus_Emilio-ama-la-marcha.wav,./stim/wavs/castilian_match_declarative-broad-focus_Emilio-ama-la-marcha.wav,./stim/wavs/chilean_match_declarative-broad-focus_Emilio-ama-la-marcha.wav,./stim/wavs/cuban_match_declarative-broad-focus_Emilio-ama-la-marcha.wav,./stim/wavs/mexican_match_declarative-broad-focus_Emilio-ama-la-marcha.wav,./stim/wavs/peruvian_match_declarative-broad-focus_Emilio-ama-la-marcha.wav,./stim/wavs/puertorican_match_declarative-broad-focus_Emilio-ama-la-marcha.wav,,,,,,,,,,,,,,,,,,,,,,,,,,,,,,,,,,,,,,,,,,,,,,,,,,,,,,,,
,,,,,,,5a0502cb517dfb00013db4a3,605b45a4d25f287719a41696,605f879fe07174737d4d6ba2,United States,Northeast,12 or younger,no,2021-03-27_15h30.09.455,empathy_intonation_perc,2020.2.10,Win32,60,,,,,,,,,,1,cuban,1,1,1.352455,0,48,48,17,1,18,./stim/wavs/andalusian_match_interrogative-partial-wh_Cuando-leia-el-libro.wav,./stim/wavs/argentine_match_interrogative-partial-wh_Cuando-leia-el-libro.wav,./stim/wavs/castilian_match_interrogative-partial-wh_Cuando-leia-el-libro.wav,./stim/wavs/chilean_match_interrogative-partial-wh_Cuando-leia-el-libro.wav,./stim/wavs/cuban_match_interrogative-partial-wh_Cuando-leia-el-libro.wav,./stim/wavs/mexican_match_interrogative-partial-wh_Cuando-leia-el-libro.wav,./stim/wavs/peruvian_match_interrogative-partial-wh_Cuando-leia-el-libro.wav,./stim/wavs/puertorican_match_interrogative-partial-wh_Cuando-leia-el-libro.wav,,,,,,,,,,,,,,,,,,,,,,,,,,,,,,,,,,,,,,,,,,,,,,,,,,,,,,,,
,,,,,,,5a0502cb517dfb00013db4a3,605b45a4d25f287719a41696,605f879fe07174737d4d6ba2,United States,Northeast,12 or younger,no,2021-03-27_15h30.09.455,empathy_intonation_perc,2020.2.10,Win32,60,,,,,,,,,,0,chilean,0,1,1.367085,0,49,49,8,1,9,./stim/wavs/andalusian_match_declarative-narrow-focus_Ana-lleva-el-abrigo.wav,./stim/wavs/argentine_match_declarative-narrow-focus_Ana-lleva-el-abrigo.wav,./stim/wavs/castilian_match_declarative-narrow-focus_Ana-lleva-el-abrigo.wav,./stim/wavs/chilean_match_declarative-narrow-focus_Ana-lleva-el-abrigo.wav,./stim/wavs/cuban_match_declarative-narrow-focus_Ana-lleva-el-abrigo.wav,./stim/wavs/mexican_match_declarative-narrow-focus_Ana-lleva-el-abrigo.wav,./stim/wavs/peruvian_match_declarative-narrow-focus_Ana-lleva-el-abrigo.wav,./stim/wavs/puertorican_match_declarative-narrow-focus_Ana-lleva-el-abrigo.wav,,,,,,,,,,,,,,,,,,,,,,,,,,,,,,,,,,,,,,,,,,,,,,,,,,,,,,,,
,,,,,,,5a0502cb517dfb00013db4a3,605b45a4d25f287719a41696,605f879fe07174737d4d6ba2,United States,Northeast,12 or younger,no,2021-03-27_15h30.09.455,empathy_intonation_perc,2020.2.10,Win32,60,,,,,,,,,,0,puertorican,0,1,1.767685,0,50,50,45,1,46,./stim/wavs/andalusian_mismatch_declarative-narrow-focus_Mi-madre-come-la-fruta.wav,./stim/wavs/argentine_mismatch_declarative-narrow-focus_Mi-madre-come-la-fruta.wav,./stim/wavs/castilian_mismatch_declarative-narrow-focus_Mi-madre-come-la-fruta.wav,./stim/wavs/chilean_mismatch_declarative-narrow-focus_Mi-madre-come-la-fruta.wav,./stim/wavs/cuban_mismatch_declarative-narrow-focus_Mi-madre-come-la-fruta.wav,./stim/wavs/mexican_mismatch_declarative-narrow-focus_Mi-madre-come-la-fruta.wav,./stim/wavs/peruvian_mismatch_declarative-narrow-focus_Mi-madre-come-la-fruta.wav,./stim/wavs/puertorican_mismatch_declarative-narrow-focus_Mi-madre-come-la-fruta.wav,,,,,,,,,,,,,,,,,,,,,,,,,,,,,,,,,,,,,,,,,,,,,,,,,,,,,,,,
,,,,,,,5a0502cb517dfb00013db4a3,605b45a4d25f287719a41696,605f879fe07174737d4d6ba2,United States,Northeast,12 or younger,no,2021-03-27_15h30.09.455,empathy_intonation_perc,2020.2.10,Win32,60,,,,,,,,,,1,chilean,1,1,1.385355,0,51,51,23,1,24,./stim/wavs/andalusian_match_interrogative-partial-wh_Por-que-iba-a-Bolivia.wav,./stim/wavs/argentine_match_interrogative-partial-wh_Por-que-iba-a-Bolivia.wav,./stim/wavs/castilian_match_interrogative-partial-wh_Por-que-iba-a-Bolivia.wav,./stim/wavs/chilean_match_interrogative-partial-wh_Por-que-iba-a-Bolivia.wav,./stim/wavs/cuban_match_interrogative-partial-wh_Por-que-iba-a-Bolivia.wav,./stim/wavs/mexican_match_interrogative-partial-wh_Por-que-iba-a-Bolivia.wav,./stim/wavs/peruvian_match_interrogative-partial-wh_Por-que-iba-a-Bolivia.wav,./stim/wavs/puertorican_match_interrogative-partial-wh_Por-que-iba-a-Bolivia.wav,,,,,,,,,,,,,,,,,,,,,,,,,,,,,,,,,,,,,,,,,,,,,,,,,,,,,,,,
,,,,,,,5a0502cb517dfb00013db4a3,605b45a4d25f287719a41696,605f879fe07174737d4d6ba2,United States,Northeast,12 or younger,no,2021-03-27_15h30.09.455,empathy_intonation_perc,2020.2.10,Win32,60,,,,,,,,,,0,chilean,0,1,1.335365,0,52,52,1,1,2,./stim/wavs/andalusian_match_declarative-broad-focus_Daniel-iba-a-Bolivia.wav,./stim/wavs/argentine_match_declarative-broad-focus_Daniel-iba-a-Bolivia.wav,./stim/wavs/castilian_match_declarative-broad-focus_Daniel-iba-a-Bolivia.wav,./stim/wavs/chilean_match_declarative-broad-focus_Daniel-iba-a-Bolivia.wav,./stim/wavs/cuban_match_declarative-broad-focus_Daniel-iba-a-Bolivia.wav,./stim/wavs/mexican_match_declarative-broad-focus_Daniel-iba-a-Bolivia.wav,./stim/wavs/peruvian_match_declarative-broad-focus_Daniel-iba-a-Bolivia.wav,./stim/wavs/puertorican_match_declarative-broad-focus_Daniel-iba-a-Bolivia.wav,,,,,,,,,,,,,,,,,,,,,,,,,,,,,,,,,,,,,,,,,,,,,,,,,,,,,,,,
,,,,,,,5a0502cb517dfb00013db4a3,605b45a4d25f287719a41696,605f879fe07174737d4d6ba2,United States,Northeast,12 or younger,no,2021-03-27_15h30.09.455,empathy_intonation_perc,2020.2.10,Win32,60,,,,,,,,,,0,puertorican,0,1,1.573695,0,53,53,14,1,15,./stim/wavs/andalusian_match_declarative-narrow-focus_Mariano-habla-del-tiempo.wav,./stim/wavs/argentine_match_declarative-narrow-focus_Mariano-habla-del-tiempo.wav,./stim/wavs/castilian_match_declarative-narrow-focus_Mariano-habla-del-tiempo.wav,./stim/wavs/chilean_match_declarative-narrow-focus_Mariano-habla-del-tiempo.wav,./stim/wavs/cuban_match_declarative-narrow-focus_Mariano-habla-del-tiempo.wav,./stim/wavs/mexican_match_declarative-narrow-focus_Mariano-habla-del-tiempo.wav,./stim/wavs/peruvian_match_declarative-narrow-focus_Mariano-habla-del-tiempo.wav,./stim/wavs/puertorican_match_declarative-narrow-focus_Mariano-habla-del-tiempo.wav,,,,,,,,,,,,,,,,,,,,,,,,,,,,,,,,,,,,,,,,,,,,,,,,,,,,,,,,
,,,,,,,5a0502cb517dfb00013db4a3,605b45a4d25f287719a41696,605f879fe07174737d4d6ba2,United States,Northeast,12 or younger,no,2021-03-27_15h30.09.455,empathy_intonation_perc,2020.2.10,Win32,60,,,,,,,,,,1,peruvian,1,1,1.80894,0,54,54,21,1,22,./stim/wavs/andalusian_match_interrogative-partial-wh_Por-que-ama-la-navidad.wav,./stim/wavs/argentine_match_interrogative-partial-wh_Por-que-ama-la-navidad.wav,./stim/wavs/castilian_match_interrogative-partial-wh_Por-que-ama-la-navidad.wav,./stim/wavs/chilean_match_interrogative-partial-wh_Por-que-ama-la-navidad.wav,./stim/wavs/cuban_match_interrogative-partial-wh_Por-que-ama-la-navidad.wav,./stim/wavs/mexican_match_interrogative-partial-wh_Por-que-ama-la-navidad.wav,./stim/wavs/peruvian_match_interrogative-partial-wh_Por-que-ama-la-navidad.wav,./stim/wavs/puertorican_match_interrogative-partial-wh_Por-que-ama-la-navidad.wav,,,,,,,,,,,,,,,,,,,,,,,,,,,,,,,,,,,,,,,,,,,,,,,,,,,,,,,,
,,,,,,,5a0502cb517dfb00013db4a3,605b45a4d25f287719a41696,605f879fe07174737d4d6ba2,United States,Northeast,12 or younger,no,2021-03-27_15h30.09.455,empathy_intonation_perc,2020.2.10,Win32,60,,,,,,,,,,1,chilean,1,1,1.71446,0,55,55,55,1,56,./stim/wavs/andalusian_mismatch_interrogative-partial-wh_Por-que-vivia-en-Paris.wav,./stim/wavs/argentine_mismatch_interrogative-partial-wh_Por-que-vivia-en-Paris.wav,./stim/wavs/castilian_mismatch_interrogative-partial-wh_Por-que-vivia-en-Paris.wav,./stim/wavs/chilean_mismatch_interrogative-partial-wh_Por-que-vivia-en-Paris.wav,./stim/wavs/cuban_mismatch_interrogative-partial-wh_Por-que-vivia-en-Paris.wav,./stim/wavs/mexican_mismatch_interrogative-partial-wh_Por-que-vivia-en-Paris.wav,./stim/wavs/peruvian_mismatch_interrogative-partial-wh_Por-que-vivia-en-Paris.wav,./stim/wavs/puertorican_mismatch_interrogative-partial-wh_Por-que-vivia-en-Paris.wav,,,,,,,,,,,,,,,,,,,,,,,,,,,,,,,,,,,,,,,,,,,,,,,,,,,,,,,,
,,,,,,,5a0502cb517dfb00013db4a3,605b45a4d25f287719a41696,605f879fe07174737d4d6ba2,United States,Northeast,12 or younger,no,2021-03-27_15h30.09.455,empathy_intonation_perc,2020.2.10,Win32,60,,,,,,,,,,1,peruvian,0,0,1.90046,0,56,56,51,1,52,./stim/wavs/andalusian_mismatch_interrogative-partial-wh_Por-que-desayuna-muy-bien.wav,./stim/wavs/argentine_mismatch_interrogative-partial-wh_Por-que-desayuna-muy-bien.wav,./stim/wavs/castilian_mismatch_interrogative-partial-wh_Por-que-desayuna-muy-bien.wav,./stim/wavs/chilean_mismatch_interrogative-partial-wh_Por-que-desayuna-muy-bien.wav,./stim/wavs/cuban_mismatch_interrogative-partial-wh_Por-que-desayuna-muy-bien.wav,./stim/wavs/mexican_mismatch_interrogative-partial-wh_Por-que-desayuna-muy-bien.wav,./stim/wavs/peruvian_mismatch_interrogative-partial-wh_Por-que-desayuna-muy-bien.wav,./stim/wavs/puertorican_mismatch_interrogative-partial-wh_Por-que-desayuna-muy-bien.wav,,,,,,,,,,,,,,,,,,,,,,,,,,,,,,,,,,,,,,,,,,,,,,,,,,,,,,,,
,,,,,,,5a0502cb517dfb00013db4a3,605b45a4d25f287719a41696,605f879fe07174737d4d6ba2,United States,Northeast,12 or younger,no,2021-03-27_15h30.09.455,empathy_intonation_perc,2020.2.10,Win32,60,,,,,,,,,,1,mexican,1,1,1.567585,0,57,57,31,1,32,./stim/wavs/andalusian_match_interrogative-total-yn_Marta-abre-el-regalo.wav,./stim/wavs/argentine_match_interrogative-total-yn_Marta-abre-el-regalo.wav,./stim/wavs/castilian_match_interrogative-total-yn_Marta-abre-el-regalo.wav,./stim/wavs/chilean_match_interrogative-total-yn_Marta-abre-el-regalo.wav,./stim/wavs/cuban_match_interrogative-total-yn_Marta-abre-el-regalo.wav,./stim/wavs/mexican_match_interrogative-total-yn_Marta-abre-el-regalo.wav,./stim/wavs/peruvian_match_interrogative-total-yn_Marta-abre-el-regalo.wav,./stim/wavs/puertorican_match_interrogative-total-yn_Marta-abre-el-regalo.wav,,,,,,,,,,,,,,,,,,,,,,,,,,,,,,,,,,,,,,,,,,,,,,,,,,,,,,,,
,,,,,,,5a0502cb517dfb00013db4a3,605b45a4d25f287719a41696,605f879fe07174737d4d6ba2,United States,Northeast,12 or younger,no,2021-03-27_15h30.09.455,empathy_intonation_perc,2020.2.10,Win32,60,,,,,,,,,,1,cuban,0,0,1.385815,0,58,58,54,1,55,./stim/wavs/andalusian_mismatch_interrogative-partial-wh_Por-que-venia-del-lago.wav,./stim/wavs/argentine_mismatch_interrogative-partial-wh_Por-que-venia-del-lago.wav,./stim/wavs/castilian_mismatch_interrogative-partial-wh_Por-que-venia-del-lago.wav,./stim/wavs/chilean_mismatch_interrogative-partial-wh_Por-que-venia-del-lago.wav,./stim/wavs/cuban_mismatch_interrogative-partial-wh_Por-que-venia-del-lago.wav,./stim/wavs/mexican_mismatch_interrogative-partial-wh_Por-que-venia-del-lago.wav,./stim/wavs/peruvian_mismatch_interrogative-partial-wh_Por-que-venia-del-lago.wav,./stim/wavs/puertorican_mismatch_interrogative-partial-wh_Por-que-venia-del-lago.wav,,,,,,,,,,,,,,,,,,,,,,,,,,,,,,,,,,,,,,,,,,,,,,,,,,,,,,,,
,,,,,,,5a0502cb517dfb00013db4a3,605b45a4d25f287719a41696,605f879fe07174737d4d6ba2,United States,Northeast,12 or younger,no,2021-03-27_15h30.09.455,empathy_intonation_perc,2020.2.10,Win32,60,,,,,,,,,,1,puertorican,1,1,1.368395,0,59,59,18,1,19,./stim/wavs/andalusian_match_interrogative-partial-wh_Cuando-lleva-el-abrigo.wav,./stim/wavs/argentine_match_interrogative-partial-wh_Cuando-lleva-el-abrigo.wav,./stim/wavs/castilian_match_interrogative-partial-wh_Cuando-lleva-el-abrigo.wav,./stim/wavs/chilean_match_interrogative-partial-wh_Cuando-lleva-el-abrigo.wav,./stim/wavs/cuban_match_interrogative-partial-wh_Cuando-lleva-el-abrigo.wav,./stim/wavs/mexican_match_interrogative-partial-wh_Cuando-lleva-el-abrigo.wav,./stim/wavs/peruvian_match_interrogative-partial-wh_Cuando-lleva-el-abrigo.wav,./stim/wavs/puertorican_match_interrogative-partial-wh_Cuando-lleva-el-abrigo.wav,,,,,,,,,,,,,,,,,,,,,,,,,,,,,,,,,,,,,,,,,,,,,,,,,,,,,,,,
,,,,,,,5a0502cb517dfb00013db4a3,605b45a4d25f287719a41696,605f879fe07174737d4d6ba2,United States,Northeast,12 or younger,no,2021-03-27_15h30.09.455,empathy_intonation_perc,2020.2.10,Win32,60,,,,,,,,,,0,cuban,0,1,1.620765,0,60,60,9,1,10,./stim/wavs/andalusian_match_declarative-narrow-focus_Daniel-iba-a-Bolivia.wav,./stim/wavs/argentine_match_declarative-narrow-focus_Daniel-iba-a-Bolivia.wav,./stim/wavs/castilian_match_declarative-narrow-focus_Daniel-iba-a-Bolivia.wav,./stim/wavs/chilean_match_declarative-narrow-focus_Daniel-iba-a-Bolivia.wav,./stim/wavs/cuban_match_declarative-narrow-focus_Daniel-iba-a-Bolivia.wav,./stim/wavs/mexican_match_declarative-narrow-focus_Daniel-iba-a-Bolivia.wav,./stim/wavs/peruvian_match_declarative-narrow-focus_Daniel-iba-a-Bolivia.wav,./stim/wavs/puertorican_match_declarative-narrow-focus_Daniel-iba-a-Bolivia.wav,,,,,,,,,,,,,,,,,,,,,,,,,,,,,,,,,,,,,,,,,,,,,,,,,,,,,,,,
,,,,,,,5a0502cb517dfb00013db4a3,605b45a4d25f287719a41696,605f879fe07174737d4d6ba2,United States,Northeast,12 or younger,no,2021-03-27_15h30.09.455,empathy_intonation_perc,2020.2.10,Win32,60,,,,,,,,,,0,andalusian,0,1,1.851675,0,61,61,36,1,37,./stim/wavs/andalusian_mismatch_declarative-broad-focus_La-nina-lava-el-plato.wav,./stim/wavs/argentine_mismatch_declarative-broad-focus_La-nina-lava-el-plato.wav,./stim/wavs/castilian_mismatch_declarative-broad-focus_La-nina-lava-el-plato.wav,./stim/wavs/chilean_mismatch_declarative-broad-focus_La-nina-lava-el-plato.wav,./stim/wavs/cuban_mismatch_declarative-broad-focus_La-nina-lava-el-plato.wav,./stim/wavs/mexican_mismatch_declarative-broad-focus_La-nina-lava-el-plato.wav,./stim/wavs/peruvian_mismatch_declarative-broad-focus_La-nina-lava-el-plato.wav,./stim/wavs/puertorican_mismatch_declarative-broad-focus_La-nina-lava-el-plato.wav,,,,,,,,,,,,,,,,,,,,,,,,,,,,,,,,,,,,,,,,,,,,,,,,,,,,,,,,
,,,,,,,5a0502cb517dfb00013db4a3,605b45a4d25f287719a41696,605f879fe07174737d4d6ba2,United States,Northeast,12 or younger,no,2021-03-27_15h30.09.455,empathy_intonation_perc,2020.2.10,Win32,60,,,,,,,,,,1,puertorican,0,0,1.39983,0,62,62,29,1,30,./stim/wavs/andalusian_match_interrogative-total-yn_Maria-bebe-el-vino.wav,./stim/wavs/argentine_match_interrogative-total-yn_Maria-bebe-el-vino.wav,./stim/wavs/castilian_match_interrogative-total-yn_Maria-bebe-el-vino.wav,./stim/wavs/chilean_match_interrogative-total-yn_Maria-bebe-el-vino.wav,./stim/wavs/cuban_match_interrogative-total-yn_Maria-bebe-el-vino.wav,./stim/wavs/mexican_match_interrogative-total-yn_Maria-bebe-el-vino.wav,./stim/wavs/peruvian_match_interrogative-total-yn_Maria-bebe-el-vino.wav,./stim/wavs/puertorican_match_interrogative-total-yn_Maria-bebe-el-vino.wav,,,,,,,,,,,,,,,,,,,,,,,,,,,,,,,,,,,,,,,,,,,,,,,,,,,,,,,,
,,,,,,,5a0502cb517dfb00013db4a3,605b45a4d25f287719a41696,605f879fe07174737d4d6ba2,United States,Northeast,12 or younger,no,2021-03-27_15h30.09.455,empathy_intonation_perc,2020.2.10,Win32,60,,,,,,,,,,1,puertorican,0,0,1.55142,0,63,63,56,1,57,./stim/wavs/andalusian_mismatch_interrogative-total-yn_El-bebe-comia-muy-bien.wav,./stim/wavs/argentine_mismatch_interrogative-total-yn_El-bebe-comia-muy-bien.wav,./stim/wavs/castilian_mismatch_interrogative-total-yn_El-bebe-comia-muy-bien.wav,./stim/wavs/chilean_mismatch_interrogative-total-yn_El-bebe-comia-muy-bien.wav,./stim/wavs/cuban_mismatch_interrogative-total-yn_El-bebe-comia-muy-bien.wav,./stim/wavs/mexican_mismatch_interrogative-total-yn_El-bebe-comia-muy-bien.wav,./stim/wavs/peruvian_mismatch_interrogative-total-yn_El-bebe-comia-muy-bien.wav,./stim/wavs/puertorican_mismatch_interrogative-total-yn_El-bebe-comia-muy-bien.wav,,,,,,,,,,,,,,,,,,,,,,,,,,,,,,,,,,,,,,,,,,,,,,,,,,,,,,,,
,,,,,,,5a0502cb517dfb00013db4a3,605b45a4d25f287719a41696,605f879fe07174737d4d6ba2,United States,Northeast,12 or younger,no,2021-03-27_15h30.09.455,empathy_intonation_perc,2020.2.10,Win32,60,,,,,,,,,,,,,,,,,,,,,,,,,,,,,h,1,4.49787,0,0,0,0,1,,,,,,,,,,,,,,,,,,,,,,,,,,,,,,,,,,,,,,,,,,,,,,,,
,,,,,"Great! Now we will move on. The next task consists of about 60 trials, in each of which you will see a string of letters. 
  
  Your task is to decide whether this is a real Spanish word or not.",(press the spacebar to continue),5a0502cb517dfb00013db4a3,605b45a4d25f287719a41696,605f879fe07174737d4d6ba2,United States,Northeast,12 or younger,no,2021-03-27_15h30.09.455,empathy_intonation_perc,2020.2.10,Win32,60,,,,,,,,,,,,,,,,,,,,,,,,,,,,,,,,,,,,,0,0,0,0,1,,,,,,,,,,,,,,,,,,,,,,,,,,,,,,,,,,,,,,,,,,,
,,,,,"If you think it is an existing Spanish word, you type '1' (for 'REAL'), and if you think it is not an existing Spanish word, you type '0' (for 'FAKE').",(press the spacebar to continue),5a0502cb517dfb00013db4a3,605b45a4d25f287719a41696,605f879fe07174737d4d6ba2,United States,Northeast,12 or younger,no,2021-03-27_15h30.09.455,empathy_intonation_perc,2020.2.10,Win32,60,,,,,,,,,,,,,,,,,,,,,,,,,,,,,,,,,,,,,0,1,1,1,1,,,,,,,,,,,,,,,,,,,,,,,,,,,,,,,,,,,,,,,,,,,
,,,,,"If you are sure that the word exists, even though you dont know its exact meaning, you may still respond '1' (REAL). 
  
  But if you are not sure if it is an existing word, you should respond '0' (FAKE).
  
  Let's do a practice round...",(press the spacebar to continue),5a0502cb517dfb00013db4a3,605b45a4d25f287719a41696,605f879fe07174737d4d6ba2,United States,Northeast,12 or younger,no,2021-03-27_15h30.09.455,empathy_intonation_perc,2020.2.10,Win32,60,,,,,,,,,,,,,,,,,,,,,,,,,,,,,,,,,,,,,0,2,2,2,1,,,,,,,,,,,,,,,,,,,,,,,,,,,,,,,,,,,,,,,,,,,
,,,,,,,5a0502cb517dfb00013db4a3,605b45a4d25f287719a41696,605f879fe07174737d4d6ba2,United States,Northeast,12 or younger,no,2021-03-27_15h30.09.455,empathy_intonation_perc,2020.2.10,Win32,60,,,,,,,,,,0,,,,,,,,,,,,,,,,,,,,,,,,,,,,,,,,1,0,1.64324,0,0,0,0,1,0,depiste,REAL,FAKE,,,,,,,,,,,,,,,,,,,,,,,,,,,,,,,
,,,,,,,5a0502cb517dfb00013db4a3,605b45a4d25f287719a41696,605f879fe07174737d4d6ba2,United States,Northeast,12 or younger,no,2021-03-27_15h30.09.455,empathy_intonation_perc,2020.2.10,Win32,60,,,,,,,,,,1,,,,,,,,,,,,,,,,,,,,,,,,,,,,,,,,1,1,1.325805,0,1,1,1,1,0,s,REAL,FAKE,,,,,,,,,,,,,,,,,,,,,,,,,,,,,,,
,,,,,,,5a0502cb517dfb00013db4a3,605b45a4d25f287719a41696,605f879fe07174737d4d6ba2,United States,Northeast,12 or younger,no,2021-03-27_15h30.09.455,empathy_intonation_perc,2020.2.10,Win32,60,,,,,,,,,,0,,,,,,,,,,,,,,,,,,,,,,,,,,,,,,,,1,0,1.360395,0,2,2,2,1,0,con,REAL,FAKE,,,,,,,,,,,,,,,,,,,,,,,,,,,,,,,
,,,,,,,5a0502cb517dfb00013db4a3,605b45a4d25f287719a41696,605f879fe07174737d4d6ba2,United States,Northeast,12 or younger,no,2021-03-27_15h30.09.455,empathy_intonation_perc,2020.2.10,Win32,60,,,,,,,,,,0,,,,,,,,,,,,,,,,,,,,,,,,,,,,,,,,0,1,0.91884,0,3,3,3,1,0,calpar,REAL,FAKE,,,,,,,,,,,,,,,,,,,,,,,,,,,,,,,
,,,,,,,5a0502cb517dfb00013db4a3,605b45a4d25f287719a41696,605f879fe07174737d4d6ba2,United States,Northeast,12 or younger,no,2021-03-27_15h30.09.455,empathy_intonation_perc,2020.2.10,Win32,60,,,,,,,,,,0,,,,,,,,,,,,,,,,,,,,,,,,,,,,,,,,1,0,0.886005,0,4,4,4,1,0,joten,REAL,FAKE,,,,,,,,,,,,,,,,,,,,,,,,,,,,,,,
,,,,,,,5a0502cb517dfb00013db4a3,605b45a4d25f287719a41696,605f879fe07174737d4d6ba2,United States,Northeast,12 or younger,no,2021-03-27_15h30.09.455,empathy_intonation_perc,2020.2.10,Win32,60,,,,,,,,,,1,,,,,,,,,,,,,,,,,,,,,,,,,,,,,,,,0,0,1.22285,0,5,5,5,1,0,sacapuntas,REAL,FAKE,,,,,,,,,,,,,,,,,,,,,,,,,,,,,,,
,,,,,,,5a0502cb517dfb00013db4a3,605b45a4d25f287719a41696,605f879fe07174737d4d6ba2,United States,Northeast,12 or younger,no,2021-03-27_15h30.09.455,empathy_intonation_perc,2020.2.10,Win32,60,,,,,,,,,,0,,,,,,,,,,,,,,,,,,,,,,,,,,,,,,,,1,0,1.11743,0,6,6,6,1,0,priba,REAL,FAKE,,,,,,,,,,,,,,,,,,,,,,,,,,,,,,,
,,,,,,,5a0502cb517dfb00013db4a3,605b45a4d25f287719a41696,605f879fe07174737d4d6ba2,United States,Northeast,12 or younger,no,2021-03-27_15h30.09.455,empathy_intonation_perc,2020.2.10,Win32,60,,,,,,,,,,0,,,,,,,,,,,,,,,,,,,,,,,,,,,,,,,,0,1,1.334505,0,7,7,7,1,0,pelasula,REAL,FAKE,,,,,,,,,,,,,,,,,,,,,,,,,,,,,,,
,,,,,,,5a0502cb517dfb00013db4a3,605b45a4d25f287719a41696,605f879fe07174737d4d6ba2,United States,Northeast,12 or younger,no,2021-03-27_15h30.09.455,empathy_intonation_perc,2020.2.10,Win32,60,,,,,,,,,,1,,,,,,,,,,,,,,,,,,,,,,,,,,,,,,,,1,1,0.977625,0,8,8,8,1,0,bien,REAL,FAKE,,,,,,,,,,,,,,,,,,,,,,,,,,,,,,,
,,,,,,,5a0502cb517dfb00013db4a3,605b45a4d25f287719a41696,605f879fe07174737d4d6ba2,United States,Northeast,12 or younger,no,2021-03-27_15h30.09.455,empathy_intonation_perc,2020.2.10,Win32,60,,,,,,,,,,1,,,,,,,,,,,,,,,,,,,,,,,,,,,,,,,,1,1,0.757425,0,9,9,9,1,0,casa,REAL,FAKE,,,,,,,,,,,,,,,,,,,,,,,,,,,,,,,
,,,,,,,5a0502cb517dfb00013db4a3,605b45a4d25f287719a41696,605f879fe07174737d4d6ba2,United States,Northeast,12 or younger,no,2021-03-27_15h30.09.455,empathy_intonation_perc,2020.2.10,Win32,60,,,,,,,,,,0,,,,,,,,,,,,,,,,,,,,,,,,,,,,,,,,1,0,0.877795,0,10,10,10,1,0,lejo,REAL,FAKE,,,,,,,,,,,,,,,,,,,,,,,,,,,,,,,
,,,,,,,5a0502cb517dfb00013db4a3,605b45a4d25f287719a41696,605f879fe07174737d4d6ba2,United States,Northeast,12 or younger,no,2021-03-27_15h30.09.455,empathy_intonation_perc,2020.2.10,Win32,60,,,,,,,,,,0,,,,,,,,,,,,,,,,,,,,,,,,,,,,,,,,0,1,1.07944,0,11,11,11,1,0,pretantas,REAL,FAKE,,,,,,,,,,,,,,,,,,,,,,,,,,,,,,,
,,,,,,,5a0502cb517dfb00013db4a3,605b45a4d25f287719a41696,605f879fe07174737d4d6ba2,United States,Northeast,12 or younger,no,2021-03-27_15h30.09.455,empathy_intonation_perc,2020.2.10,Win32,60,,,,,,,,,,0,,,,,,,,,,,,,,,,,,,,,,,,,,,,,,,,,,,,,,,,74,cintro,,,1,0,1.00524,0,0,0,73,1,REAL,FAKE,,,,,,,,,,,,,,,,,,,,,
,,,,,,,5a0502cb517dfb00013db4a3,605b45a4d25f287719a41696,605f879fe07174737d4d6ba2,United States,Northeast,12 or younger,no,2021-03-27_15h30.09.455,empathy_intonation_perc,2020.2.10,Win32,60,,,,,,,,,,1,,,,,,,,,,,,,,,,,,,,,,,,,,,,,,,,,,,,,,,,57,tacao,,,1,1,0.94214,0,1,1,56,1,REAL,FAKE,,,,,,,,,,,,,,,,,,,,,
,,,,,,,5a0502cb517dfb00013db4a3,605b45a4d25f287719a41696,605f879fe07174737d4d6ba2,United States,Northeast,12 or younger,no,2021-03-27_15h30.09.455,empathy_intonation_perc,2020.2.10,Win32,60,,,,,,,,,,1,,,,,,,,,,,,,,,,,,,,,,,,,,,,,,,,,,,,,,,,52,camisa,,,1,1,0.917055,0,2,2,51,1,REAL,FAKE,,,,,,,,,,,,,,,,,,,,,
,,,,,,,5a0502cb517dfb00013db4a3,605b45a4d25f287719a41696,605f879fe07174737d4d6ba2,United States,Northeast,12 or younger,no,2021-03-27_15h30.09.455,empathy_intonation_perc,2020.2.10,Win32,60,,,,,,,,,,1,,,,,,,,,,,,,,,,,,,,,,,,,,,,,,,,,,,,,,,,2,pellizcar,,,0,0,0.718235,0,3,3,1,1,REAL,FAKE,,,,,,,,,,,,,,,,,,,,,
,,,,,,,5a0502cb517dfb00013db4a3,605b45a4d25f287719a41696,605f879fe07174737d4d6ba2,United States,Northeast,12 or younger,no,2021-03-27_15h30.09.455,empathy_intonation_perc,2020.2.10,Win32,60,,,,,,,,,,1,,,,,,,,,,,,,,,,,,,,,,,,,,,,,,,,,,,,,,,,11,cenefa,,,0,0,0.70941,0,4,4,10,1,REAL,FAKE,,,,,,,,,,,,,,,,,,,,,
,,,,,,,5a0502cb517dfb00013db4a3,605b45a4d25f287719a41696,605f879fe07174737d4d6ba2,United States,Northeast,12 or younger,no,2021-03-27_15h30.09.455,empathy_intonation_perc,2020.2.10,Win32,60,,,,,,,,,,1,,,,,,,,,,,,,,,,,,,,,,,,,,,,,,,,,,,,,,,,39,torpe,,,0,0,0.79604,0,5,5,38,1,REAL,FAKE,,,,,,,,,,,,,,,,,,,,,
,,,,,,,5a0502cb517dfb00013db4a3,605b45a4d25f287719a41696,605f879fe07174737d4d6ba2,United States,Northeast,12 or younger,no,2021-03-27_15h30.09.455,empathy_intonation_perc,2020.2.10,Win32,60,,,,,,,,,,1,,,,,,,,,,,,,,,,,,,,,,,,,,,,,,,,,,,,,,,,6,tergiversar,,,0,0,1.04122,0,6,6,5,1,REAL,FAKE,,,,,,,,,,,,,,,,,,,,,
,,,,,,,5a0502cb517dfb00013db4a3,605b45a4d25f287719a41696,605f879fe07174737d4d6ba2,United States,Northeast,12 or younger,no,2021-03-27_15h30.09.455,empathy_intonation_perc,2020.2.10,Win32,60,,,,,,,,,,1,,,,,,,,,,,,,,,,,,,,,,,,,,,,,,,,,,,,,,,,45,jilguero,,,0,0,0.97771,0,7,7,44,1,REAL,FAKE,,,,,,,,,,,,,,,,,,,,,
,,,,,,,5a0502cb517dfb00013db4a3,605b45a4d25f287719a41696,605f879fe07174737d4d6ba2,United States,Northeast,12 or younger,no,2021-03-27_15h30.09.455,empathy_intonation_perc,2020.2.10,Win32,60,,,,,,,,,,1,,,,,,,,,,,,,,,,,,,,,,,,,,,,,,,,,,,,,,,,88,acantilado,,,1,1,0.808155,0,8,8,87,1,REAL,FAKE,,,,,,,,,,,,,,,,,,,,,
,,,,,,,5a0502cb517dfb00013db4a3,605b45a4d25f287719a41696,605f879fe07174737d4d6ba2,United States,Northeast,12 or younger,no,2021-03-27_15h30.09.455,empathy_intonation_perc,2020.2.10,Win32,60,,,,,,,,,,0,,,,,,,,,,,,,,,,,,,,,,,,,,,,,,,,,,,,,,,,70,temblo,,,0,1,1.045885,0,9,9,69,1,REAL,FAKE,,,,,,,,,,,,,,,,,,,,,
,,,,,,,5a0502cb517dfb00013db4a3,605b45a4d25f287719a41696,605f879fe07174737d4d6ba2,United States,Northeast,12 or younger,no,2021-03-27_15h30.09.455,empathy_intonation_perc,2020.2.10,Win32,60,,,,,,,,,,1,,,,,,,,,,,,,,,,,,,,,,,,,,,,,,,,,,,,,,,,15,regar,,,1,1,0.76175,0,10,10,14,1,REAL,FAKE,,,,,,,,,,,,,,,,,,,,,
,,,,,,,5a0502cb517dfb00013db4a3,605b45a4d25f287719a41696,605f879fe07174737d4d6ba2,United States,Northeast,12 or younger,no,2021-03-27_15h30.09.455,empathy_intonation_perc,2020.2.10,Win32,60,,,,,,,,,,0,,,,,,,,,,,,,,,,,,,,,,,,,,,,,,,,,,,,,,,,33,pauca,,,1,0,0.99984,0,11,11,32,1,REAL,FAKE,,,,,,,,,,,,,,,,,,,,,
,,,,,,,5a0502cb517dfb00013db4a3,605b45a4d25f287719a41696,605f879fe07174737d4d6ba2,United States,Northeast,12 or younger,no,2021-03-27_15h30.09.455,empathy_intonation_perc,2020.2.10,Win32,60,,,,,,,,,,0,,,,,,,,,,,,,,,,,,,,,,,,,,,,,,,,,,,,,,,,4,batilln,,,1,0,0.734195,0,12,12,3,1,REAL,FAKE,,,,,,,,,,,,,,,,,,,,,
,,,,,,,5a0502cb517dfb00013db4a3,605b45a4d25f287719a41696,605f879fe07174737d4d6ba2,United States,Northeast,12 or younger,no,2021-03-27_15h30.09.455,empathy_intonation_perc,2020.2.10,Win32,60,,,,,,,,,,1,,,,,,,,,,,,,,,,,,,,,,,,,,,,,,,,,,,,,,,,71,polvoriento,,,0,0,0.80029,0,13,13,70,1,REAL,FAKE,,,,,,,,,,,,,,,,,,,,,
,,,,,,,5a0502cb517dfb00013db4a3,605b45a4d25f287719a41696,605f879fe07174737d4d6ba2,United States,Northeast,12 or younger,no,2021-03-27_15h30.09.455,empathy_intonation_perc,2020.2.10,Win32,60,,,,,,,,,,1,,,,,,,,,,,,,,,,,,,,,,,,,,,,,,,,,,,,,,,,40,alfombra,,,0,0,1.014025,0,14,14,39,1,REAL,FAKE,,,,,,,,,,,,,,,,,,,,,
,,,,,,,5a0502cb517dfb00013db4a3,605b45a4d25f287719a41696,605f879fe07174737d4d6ba2,United States,Northeast,12 or younger,no,2021-03-27_15h30.09.455,empathy_intonation_perc,2020.2.10,Win32,60,,,,,,,,,,0,,,,,,,,,,,,,,,,,,,,,,,,,,,,,,,,,,,,,,,,23,lampera,,,1,0,0.86153,0,15,15,22,1,REAL,FAKE,,,,,,,,,,,,,,,,,,,,,
,,,,,,,5a0502cb517dfb00013db4a3,605b45a4d25f287719a41696,605f879fe07174737d4d6ba2,United States,Northeast,12 or younger,no,2021-03-27_15h30.09.455,empathy_intonation_perc,2020.2.10,Win32,60,,,,,,,,,,0,,,,,,,,,,,,,,,,,,,,,,,,,,,,,,,,,,,,,,,,87,grodo,,,0,1,1.045495,0,16,16,86,1,REAL,FAKE,,,,,,,,,,,,,,,,,,,,,
,,,,,,,5a0502cb517dfb00013db4a3,605b45a4d25f287719a41696,605f879fe07174737d4d6ba2,United States,Northeast,12 or younger,no,2021-03-27_15h30.09.455,empathy_intonation_perc,2020.2.10,Win32,60,,,,,,,,,,0,,,,,,,,,,,,,,,,,,,,,,,,,,,,,,,,,,,,,,,,10,antar,,,1,0,0.721375,0,17,17,9,1,REAL,FAKE,,,,,,,,,,,,,,,,,,,,,
,,,,,,,5a0502cb517dfb00013db4a3,605b45a4d25f287719a41696,605f879fe07174737d4d6ba2,United States,Northeast,12 or younger,no,2021-03-27_15h30.09.455,empathy_intonation_perc,2020.2.10,Win32,60,,,,,,,,,,0,,,,,,,,,,,,,,,,,,,,,,,,,,,,,,,,,,,,,,,,82,empirador,,,1,0,1.035255,0,18,18,81,1,REAL,FAKE,,,,,,,,,,,,,,,,,,,,,
,,,,,,,5a0502cb517dfb00013db4a3,605b45a4d25f287719a41696,605f879fe07174737d4d6ba2,United States,Northeast,12 or younger,no,2021-03-27_15h30.09.455,empathy_intonation_perc,2020.2.10,Win32,60,,,,,,,,,,0,,,,,,,,,,,,,,,,,,,,,,,,,,,,,,,,,,,,,,,,16,abracer,,,0,1,0.82928,0,19,19,15,1,REAL,FAKE,,,,,,,,,,,,,,,,,,,,,
,,,,,,,5a0502cb517dfb00013db4a3,605b45a4d25f287719a41696,605f879fe07174737d4d6ba2,United States,Northeast,12 or younger,no,2021-03-27_15h30.09.455,empathy_intonation_perc,2020.2.10,Win32,60,,,,,,,,,,1,,,,,,,,,,,,,,,,,,,,,,,,,,,,,,,,,,,,,,,,5,zapato,,,1,1,0.80389,0,20,20,4,1,REAL,FAKE,,,,,,,,,,,,,,,,,,,,,
,,,,,,,5a0502cb517dfb00013db4a3,605b45a4d25f287719a41696,605f879fe07174737d4d6ba2,United States,Northeast,12 or younger,no,2021-03-27_15h30.09.455,empathy_intonation_perc,2020.2.10,Win32,60,,,,,,,,,,0,,,,,,,,,,,,,,,,,,,,,,,,,,,,,,,,,,,,,,,,8,cadea,,,1,0,0.80639,0,21,21,7,1,REAL,FAKE,,,,,,,,,,,,,,,,,,,,,
,,,,,,,5a0502cb517dfb00013db4a3,605b45a4d25f287719a41696,605f879fe07174737d4d6ba2,United States,Northeast,12 or younger,no,2021-03-27_15h30.09.455,empathy_intonation_perc,2020.2.10,Win32,60,,,,,,,,,,1,,,,,,,,,,,,,,,,,,,,,,,,,,,,,,,,,,,,,,,,51,candado,,,1,1,0.75986,0,22,22,50,1,REAL,FAKE,,,,,,,,,,,,,,,,,,,,,
,,,,,,,5a0502cb517dfb00013db4a3,605b45a4d25f287719a41696,605f879fe07174737d4d6ba2,United States,Northeast,12 or younger,no,2021-03-27_15h30.09.455,empathy_intonation_perc,2020.2.10,Win32,60,,,,,,,,,,0,,,,,,,,,,,,,,,,,,,,,,,,,,,,,,,,,,,,,,,,63,esposante,,,0,1,1.01271,0,23,23,62,1,REAL,FAKE,,,,,,,,,,,,,,,,,,,,,
,,,,,,,5a0502cb517dfb00013db4a3,605b45a4d25f287719a41696,605f879fe07174737d4d6ba2,United States,Northeast,12 or younger,no,2021-03-27_15h30.09.455,empathy_intonation_perc,2020.2.10,Win32,60,,,,,,,,,,0,,,,,,,,,,,,,,,,,,,,,,,,,,,,,,,,,,,,,,,,21,capillo,,,0,1,1.297875,0,24,24,20,1,REAL,FAKE,,,,,,,,,,,,,,,,,,,,,
,,,,,,,5a0502cb517dfb00013db4a3,605b45a4d25f287719a41696,605f879fe07174737d4d6ba2,United States,Northeast,12 or younger,no,2021-03-27_15h30.09.455,empathy_intonation_perc,2020.2.10,Win32,60,,,,,,,,,,1,,,,,,,,,,,,,,,,,,,,,,,,,,,,,,,,,,,,,,,,7,psimo,,,0,0,1.260515,0,25,25,6,1,REAL,FAKE,,,,,,,,,,,,,,,,,,,,,
,,,,,,,5a0502cb517dfb00013db4a3,605b45a4d25f287719a41696,605f879fe07174737d4d6ba2,United States,Northeast,12 or younger,no,2021-03-27_15h30.09.455,empathy_intonation_perc,2020.2.10,Win32,60,,,,,,,,,,0,,,,,,,,,,,,,,,,,,,,,,,,,,,,,,,,,,,,,,,,66,hacido,,,0,1,0.727795,0,26,26,65,1,REAL,FAKE,,,,,,,,,,,,,,,,,,,,,
,,,,,,,5a0502cb517dfb00013db4a3,605b45a4d25f287719a41696,605f879fe07174737d4d6ba2,United States,Northeast,12 or younger,no,2021-03-27_15h30.09.455,empathy_intonation_perc,2020.2.10,Win32,60,,,,,,,,,,0,,,,,,,,,,,,,,,,,,,,,,,,,,,,,,,,,,,,,,,,19,brecedad,,,0,1,0.755845,0,27,27,18,1,REAL,FAKE,,,,,,,,,,,,,,,,,,,,,
,,,,,,,5a0502cb517dfb00013db4a3,605b45a4d25f287719a41696,605f879fe07174737d4d6ba2,United States,Northeast,12 or younger,no,2021-03-27_15h30.09.455,empathy_intonation_perc,2020.2.10,Win32,60,,,,,,,,,,0,,,,,,,,,,,,,,,,,,,,,,,,,,,,,,,,,,,,,,,,58,plaudir,,,1,0,1.061545,0,28,28,57,1,REAL,FAKE,,,,,,,,,,,,,,,,,,,,,
,,,,,,,5a0502cb517dfb00013db4a3,605b45a4d25f287719a41696,605f879fe07174737d4d6ba2,United States,Northeast,12 or younger,no,2021-03-27_15h30.09.455,empathy_intonation_perc,2020.2.10,Win32,60,,,,,,,,,,1,,,,,,,,,,,,,,,,,,,,,,,,,,,,,,,,,,,,,,,,12,asesinato,,,1,1,0.888665,0,29,29,11,1,REAL,FAKE,,,,,,,,,,,,,,,,,,,,,
,,,,,,,5a0502cb517dfb00013db4a3,605b45a4d25f287719a41696,605f879fe07174737d4d6ba2,United States,Northeast,12 or younger,no,2021-03-27_15h30.09.455,empathy_intonation_perc,2020.2.10,Win32,60,,,,,,,,,,1,,,,,,,,,,,,,,,,,,,,,,,,,,,,,,,,,,,,,,,,73,hervidor,,,1,1,0.895865,0,30,30,72,1,REAL,FAKE,,,,,,,,,,,,,,,,,,,,,
,,,,,,,5a0502cb517dfb00013db4a3,605b45a4d25f287719a41696,605f879fe07174737d4d6ba2,United States,Northeast,12 or younger,no,2021-03-27_15h30.09.455,empathy_intonation_perc,2020.2.10,Win32,60,,,,,,,,,,1,,,,,,,,,,,,,,,,,,,,,,,,,,,,,,,,,,,,,,,,67,cabello,,,1,1,0.73037,0,31,31,66,1,REAL,FAKE,,,,,,,,,,,,,,,,,,,,,
,,,,,,,5a0502cb517dfb00013db4a3,605b45a4d25f287719a41696,605f879fe07174737d4d6ba2,United States,Northeast,12 or younger,no,2021-03-27_15h30.09.455,empathy_intonation_perc,2020.2.10,Win32,60,,,,,,,,,,1,,,,,,,,,,,,,,,,,,,,,,,,,,,,,,,,,,,,,,,,25,bisagra,,,0,0,0.011215,0,32,32,24,1,REAL,FAKE,,,,,,,,,,,,,,,,,,,,,
,,,,,,,5a0502cb517dfb00013db4a3,605b45a4d25f287719a41696,605f879fe07174737d4d6ba2,United States,Northeast,12 or younger,no,2021-03-27_15h30.09.455,empathy_intonation_perc,2020.2.10,Win32,60,,,,,,,,,,0,,,,,,,,,,,,,,,,,,,,,,,,,,,,,,,,,,,,,,,,17,floroso,,,1,0,1.031115,0,33,33,16,1,REAL,FAKE,,,,,,,,,,,,,,,,,,,,,
,,,,,,,5a0502cb517dfb00013db4a3,605b45a4d25f287719a41696,605f879fe07174737d4d6ba2,United States,Northeast,12 or younger,no,2021-03-27_15h30.09.455,empathy_intonation_perc,2020.2.10,Win32,60,,,,,,,,,,1,,,,,,,,,,,,,,,,,,,,,,,,,,,,,,,,,,,,,,,,48,ladrn,,,1,1,0.629885,0,34,34,47,1,REAL,FAKE,,,,,,,,,,,,,,,,,,,,,
,,,,,,,5a0502cb517dfb00013db4a3,605b45a4d25f287719a41696,605f879fe07174737d4d6ba2,United States,Northeast,12 or younger,no,2021-03-27_15h30.09.455,empathy_intonation_perc,2020.2.10,Win32,60,,,,,,,,,,1,,,,,,,,,,,,,,,,,,,,,,,,,,,,,,,,,,,,,,,,83,guante,,,0,0,0.667715,0,35,35,82,1,REAL,FAKE,,,,,,,,,,,,,,,,,,,,,
,,,,,,,5a0502cb517dfb00013db4a3,605b45a4d25f287719a41696,605f879fe07174737d4d6ba2,United States,Northeast,12 or younger,no,2021-03-27_15h30.09.455,empathy_intonation_perc,2020.2.10,Win32,60,,,,,,,,,,0,,,,,,,,,,,,,,,,,,,,,,,,,,,,,,,,,,,,,,,,27,acutacin,,,0,1,0.735425,0,36,36,26,1,REAL,FAKE,,,,,,,,,,,,,,,,,,,,,
,,,,,,,5a0502cb517dfb00013db4a3,605b45a4d25f287719a41696,605f879fe07174737d4d6ba2,United States,Northeast,12 or younger,no,2021-03-27_15h30.09.455,empathy_intonation_perc,2020.2.10,Win32,60,,,,,,,,,,1,,,,,,,,,,,,,,,,,,,,,,,,,,,,,,,,,,,,,,,,69,engatusar,,,0,0,0.689425,0,37,37,68,1,REAL,FAKE,,,,,,,,,,,,,,,,,,,,,
,,,,,,,5a0502cb517dfb00013db4a3,605b45a4d25f287719a41696,605f879fe07174737d4d6ba2,United States,Northeast,12 or younger,no,2021-03-27_15h30.09.455,empathy_intonation_perc,2020.2.10,Win32,60,,,,,,,,,,1,,,,,,,,,,,,,,,,,,,,,,,,,,,,,,,,,,,,,,,,37,granuja,,,0,0,0.850225,0,38,38,36,1,REAL,FAKE,,,,,,,,,,,,,,,,,,,,,
,,,,,,,5a0502cb517dfb00013db4a3,605b45a4d25f287719a41696,605f879fe07174737d4d6ba2,United States,Northeast,12 or younger,no,2021-03-27_15h30.09.455,empathy_intonation_perc,2020.2.10,Win32,60,,,,,,,,,,0,,,,,,,,,,,,,,,,,,,,,,,,,,,,,,,,,,,,,,,,30,alardio,,,0,1,10.189745,0,39,39,29,1,REAL,FAKE,,,,,,,,,,,,,,,,,,,,,
,,,,,,,5a0502cb517dfb00013db4a3,605b45a4d25f287719a41696,605f879fe07174737d4d6ba2,United States,Northeast,12 or younger,no,2021-03-27_15h30.09.455,empathy_intonation_perc,2020.2.10,Win32,60,,,,,,,,,,1,,,,,,,,,,,,,,,,,,,,,,,,,,,,,,,,,,,,,,,,44,cuchara,,,0,0,0.593695,0,40,40,43,1,REAL,FAKE,,,,,,,,,,,,,,,,,,,,,
,,,,,,,5a0502cb517dfb00013db4a3,605b45a4d25f287719a41696,605f879fe07174737d4d6ba2,United States,Northeast,12 or younger,no,2021-03-27_15h30.09.455,empathy_intonation_perc,2020.2.10,Win32,60,,,,,,,,,,0,,,,,,,,,,,,,,,,,,,,,,,,,,,,,,,,,,,,,,,,1,terzo,,,1,0,0.868595,0,41,41,0,1,REAL,FAKE,,,,,,,,,,,,,,,,,,,,,
,,,,,,,5a0502cb517dfb00013db4a3,605b45a4d25f287719a41696,605f879fe07174737d4d6ba2,United States,Northeast,12 or younger,no,2021-03-27_15h30.09.455,empathy_intonation_perc,2020.2.10,Win32,60,,,,,,,,,,0,,,,,,,,,,,,,,,,,,,,,,,,,,,,,,,,,,,,,,,,35,rompido,,,1,0,0.621575,0,42,42,34,1,REAL,FAKE,,,,,,,,,,,,,,,,,,,,,
,,,,,,,5a0502cb517dfb00013db4a3,605b45a4d25f287719a41696,605f879fe07174737d4d6ba2,United States,Northeast,12 or younger,no,2021-03-27_15h30.09.455,empathy_intonation_perc,2020.2.10,Win32,60,,,,,,,,,,1,,,,,,,,,,,,,,,,,,,,,,,,,,,,,,,,,,,,,,,,89,prisa,,,1,1,0.64977,0,43,43,88,1,REAL,FAKE,,,,,,,,,,,,,,,,,,,,,
,,,,,,,5a0502cb517dfb00013db4a3,605b45a4d25f287719a41696,605f879fe07174737d4d6ba2,United States,Northeast,12 or younger,no,2021-03-27_15h30.09.455,empathy_intonation_perc,2020.2.10,Win32,60,,,,,,,,,,1,,,,,,,,,,,,,,,,,,,,,,,,,,,,,,,,,,,,,,,,75,yacer,,,0,0,0.577935,0,44,44,74,1,REAL,FAKE,,,,,,,,,,,,,,,,,,,,,
,,,,,,,5a0502cb517dfb00013db4a3,605b45a4d25f287719a41696,605f879fe07174737d4d6ba2,United States,Northeast,12 or younger,no,2021-03-27_15h30.09.455,empathy_intonation_perc,2020.2.10,Win32,60,,,,,,,,,,1,,,,,,,,,,,,,,,,,,,,,,,,,,,,,,,,,,,,,,,,56,musgo,,,0,0,0.68255,0,45,45,55,1,REAL,FAKE,,,,,,,,,,,,,,,,,,,,,
,,,,,,,5a0502cb517dfb00013db4a3,605b45a4d25f287719a41696,605f879fe07174737d4d6ba2,United States,Northeast,12 or younger,no,2021-03-27_15h30.09.455,empathy_intonation_perc,2020.2.10,Win32,60,,,,,,,,,,1,,,,,,,,,,,,,,,,,,,,,,,,,,,,,,,,,,,,,,,,65,bizcocho,,,0,0,0.715165,0,46,46,64,1,REAL,FAKE,,,,,,,,,,,,,,,,,,,,,
,,,,,,,5a0502cb517dfb00013db4a3,605b45a4d25f287719a41696,605f879fe07174737d4d6ba2,United States,Northeast,12 or younger,no,2021-03-27_15h30.09.455,empathy_intonation_perc,2020.2.10,Win32,60,,,,,,,,,,1,,,,,,,,,,,,,,,,,,,,,,,,,,,,,,,,,,,,,,,,14,yunque,,,1,1,0.719185,0,47,47,13,1,REAL,FAKE,,,,,,,,,,,,,,,,,,,,,
,,,,,,,5a0502cb517dfb00013db4a3,605b45a4d25f287719a41696,605f879fe07174737d4d6ba2,United States,Northeast,12 or younger,no,2021-03-27_15h30.09.455,empathy_intonation_perc,2020.2.10,Win32,60,,,,,,,,,,0,,,,,,,,,,,,,,,,,,,,,,,,,,,,,,,,,,,,,,,,72,pemicin,,,1,0,0.764065,0,48,48,71,1,REAL,FAKE,,,,,,,,,,,,,,,,,,,,,
,,,,,,,5a0502cb517dfb00013db4a3,605b45a4d25f287719a41696,605f879fe07174737d4d6ba2,United States,Northeast,12 or younger,no,2021-03-27_15h30.09.455,empathy_intonation_perc,2020.2.10,Win32,60,,,,,,,,,,1,,,,,,,,,,,,,,,,,,,,,,,,,,,,,,,,,,,,,,,,20,vido,,,1,1,0.76695,0,49,49,19,1,REAL,FAKE,,,,,,,,,,,,,,,,,,,,,
,,,,,,,5a0502cb517dfb00013db4a3,605b45a4d25f287719a41696,605f879fe07174737d4d6ba2,United States,Northeast,12 or younger,no,2021-03-27_15h30.09.455,empathy_intonation_perc,2020.2.10,Win32,60,,,,,,,,,,1,,,,,,,,,,,,,,,,,,,,,,,,,,,,,,,,,,,,,,,,77,tiburn,,,0,0,0.76471,0,50,50,76,1,REAL,FAKE,,,,,,,,,,,,,,,,,,,,,
,,,,,,,5a0502cb517dfb00013db4a3,605b45a4d25f287719a41696,605f879fe07174737d4d6ba2,United States,Northeast,12 or younger,no,2021-03-27_15h30.09.455,empathy_intonation_perc,2020.2.10,Win32,60,,,,,,,,,,1,,,,,,,,,,,,,,,,,,,,,,,,,,,,,,,,,,,,,,,,81,pozo,,,0,0,0.88587,0,51,51,80,1,REAL,FAKE,,,,,,,,,,,,,,,,,,,,,
,,,,,,,5a0502cb517dfb00013db4a3,605b45a4d25f287719a41696,605f879fe07174737d4d6ba2,United States,Northeast,12 or younger,no,2021-03-27_15h30.09.455,empathy_intonation_perc,2020.2.10,Win32,60,,,,,,,,,,1,,,,,,,,,,,,,,,,,,,,,,,,,,,,,,,,,,,,,,,,55,nevar,,,0,0,0.732595,0,52,52,54,1,REAL,FAKE,,,,,,,,,,,,,,,,,,,,,
,,,,,,,5a0502cb517dfb00013db4a3,605b45a4d25f287719a41696,605f879fe07174737d4d6ba2,United States,Northeast,12 or younger,no,2021-03-27_15h30.09.455,empathy_intonation_perc,2020.2.10,Win32,60,,,,,,,,,,1,,,,,,,,,,,,,,,,,,,,,,,,,,,,,,,,,,,,,,,,62,flaco,,,1,1,0.74446,0,53,53,61,1,REAL,FAKE,,,,,,,,,,,,,,,,,,,,,
,,,,,,,5a0502cb517dfb00013db4a3,605b45a4d25f287719a41696,605f879fe07174737d4d6ba2,United States,Northeast,12 or younger,no,2021-03-27_15h30.09.455,empathy_intonation_perc,2020.2.10,Win32,60,,,,,,,,,,1,,,,,,,,,,,,,,,,,,,,,,,,,,,,,,,,,,,,,,,,90,clavel,,,0,0,0.70298,0,54,54,89,1,REAL,FAKE,,,,,,,,,,,,,,,,,,,,,
,,,,,,,5a0502cb517dfb00013db4a3,605b45a4d25f287719a41696,605f879fe07174737d4d6ba2,United States,Northeast,12 or younger,no,2021-03-27_15h30.09.455,empathy_intonation_perc,2020.2.10,Win32,60,,,,,,,,,,0,,,,,,,,,,,,,,,,,,,,,,,,,,,,,,,,,,,,,,,,50,flamida,,,0,1,0.71194,0,55,55,49,1,REAL,FAKE,,,,,,,,,,,,,,,,,,,,,
,,,,,,,5a0502cb517dfb00013db4a3,605b45a4d25f287719a41696,605f879fe07174737d4d6ba2,United States,Northeast,12 or younger,no,2021-03-27_15h30.09.455,empathy_intonation_perc,2020.2.10,Win32,60,,,,,,,,,,1,,,,,,,,,,,,,,,,,,,,,,,,,,,,,,,,,,,,,,,,61,seda,,,0,0,0.72883,0,56,56,60,1,REAL,FAKE,,,,,,,,,,,,,,,,,,,,,
,,,,,,,5a0502cb517dfb00013db4a3,605b45a4d25f287719a41696,605f879fe07174737d4d6ba2,United States,Northeast,12 or younger,no,2021-03-27_15h30.09.455,empathy_intonation_perc,2020.2.10,Win32,60,,,,,,,,,,1,,,,,,,,,,,,,,,,,,,,,,,,,,,,,,,,,,,,,,,,41,rebuscar,,,0,0,1.07821,0,57,57,40,1,REAL,FAKE,,,,,,,,,,,,,,,,,,,,,
,,,,,,,5a0502cb517dfb00013db4a3,605b45a4d25f287719a41696,605f879fe07174737d4d6ba2,United States,Northeast,12 or younger,no,2021-03-27_15h30.09.455,empathy_intonation_perc,2020.2.10,Win32,60,,,,,,,,,,0,,,,,,,,,,,,,,,,,,,,,,,,,,,,,,,,,,,,,,,,53,vegada,,,0,1,0.806315,0,58,58,52,1,REAL,FAKE,,,,,,,,,,,,,,,,,,,,,
,,,,,,,5a0502cb517dfb00013db4a3,605b45a4d25f287719a41696,605f879fe07174737d4d6ba2,United States,Northeast,12 or younger,no,2021-03-27_15h30.09.455,empathy_intonation_perc,2020.2.10,Win32,60,,,,,,,,,,0,,,,,,,,,,,,,,,,,,,,,,,,,,,,,,,,,,,,,,,,29,decar,,,1,0,0.62892,0,59,59,28,1,REAL,FAKE,,,,,,,,,,,,,,,,,,,,,
,,,,,,,5a0502cb517dfb00013db4a3,605b45a4d25f287719a41696,605f879fe07174737d4d6ba2,United States,Northeast,12 or younger,no,2021-03-27_15h30.09.455,empathy_intonation_perc,2020.2.10,Win32,60,,,,,,,,,,1,,,,,,,,,,,,,,,,,,,,,,,,,,,,,,,,,,,,,,,,26,secuestro,,,1,1,0.74369,0,60,60,25,1,REAL,FAKE,,,,,,,,,,,,,,,,,,,,,
,,,,,,,5a0502cb517dfb00013db4a3,605b45a4d25f287719a41696,605f879fe07174737d4d6ba2,United States,Northeast,12 or younger,no,2021-03-27_15h30.09.455,empathy_intonation_perc,2020.2.10,Win32,60,,,,,,,,,,1,,,,,,,,,,,,,,,,,,,,,,,,,,,,,,,,,,,,,,,,49,ganar,,,0,0,0.79973,0,61,61,48,1,REAL,FAKE,,,,,,,,,,,,,,,,,,,,,
,,,,,,,5a0502cb517dfb00013db4a3,605b45a4d25f287719a41696,605f879fe07174737d4d6ba2,United States,Northeast,12 or younger,no,2021-03-27_15h30.09.455,empathy_intonation_perc,2020.2.10,Win32,60,,,,,,,,,,1,,,,,,,,,,,,,,,,,,,,,,,,,,,,,,,,,,,,,,,,3,pulmones,,,0,0,0.711065,0,62,62,2,1,REAL,FAKE,,,,,,,,,,,,,,,,,,,,,
,,,,,,,5a0502cb517dfb00013db4a3,605b45a4d25f287719a41696,605f879fe07174737d4d6ba2,United States,Northeast,12 or younger,no,2021-03-27_15h30.09.455,empathy_intonation_perc,2020.2.10,Win32,60,,,,,,,,,,0,,,,,,,,,,,,,,,,,,,,,,,,,,,,,,,,,,,,,,,,79,tropaje,,,0,1,0.818815,0,63,63,78,1,REAL,FAKE,,,,,,,,,,,,,,,,,,,,,
,,,,,,,5a0502cb517dfb00013db4a3,605b45a4d25f287719a41696,605f879fe07174737d4d6ba2,United States,Northeast,12 or younger,no,2021-03-27_15h30.09.455,empathy_intonation_perc,2020.2.10,Win32,60,,,,,,,,,,1,,,,,,,,,,,,,,,,,,,,,,,,,,,,,,,,,,,,,,,,28,merodear,,,0,0,0.682525,0,64,64,27,1,REAL,FAKE,,,,,,,,,,,,,,,,,,,,,
,,,,,,,5a0502cb517dfb00013db4a3,605b45a4d25f287719a41696,605f879fe07174737d4d6ba2,United States,Northeast,12 or younger,no,2021-03-27_15h30.09.455,empathy_intonation_perc,2020.2.10,Win32,60,,,,,,,,,,1,,,,,,,,,,,,,,,,,,,,,,,,,,,,,,,,,,,,,,,,78,frondoso,,,0,0,0.561325,0,65,65,77,1,REAL,FAKE,,,,,,,,,,,,,,,,,,,,,
,,,,,,,5a0502cb517dfb00013db4a3,605b45a4d25f287719a41696,605f879fe07174737d4d6ba2,United States,Northeast,12 or younger,no,2021-03-27_15h30.09.455,empathy_intonation_perc,2020.2.10,Win32,60,,,,,,,,,,1,,,,,,,,,,,,,,,,,,,,,,,,,,,,,,,,,,,,,,,,60,matar,,,0,0,0.619065,0,66,66,59,1,REAL,FAKE,,,,,,,,,,,,,,,,,,,,,
,,,,,,,5a0502cb517dfb00013db4a3,605b45a4d25f287719a41696,605f879fe07174737d4d6ba2,United States,Northeast,12 or younger,no,2021-03-27_15h30.09.455,empathy_intonation_perc,2020.2.10,Win32,60,,,,,,,,,,1,,,,,,,,,,,,,,,,,,,,,,,,,,,,,,,,,,,,,,,,31,pandilla,,,0,0,0.57711,0,67,67,30,1,REAL,FAKE,,,,,,,,,,,,,,,,,,,,,
,,,,,,,5a0502cb517dfb00013db4a3,605b45a4d25f287719a41696,605f879fe07174737d4d6ba2,United States,Northeast,12 or younger,no,2021-03-27_15h30.09.455,empathy_intonation_perc,2020.2.10,Win32,60,,,,,,,,,,1,,,,,,,,,,,,,,,,,,,,,,,,,,,,,,,,,,,,,,,,64,orgulloso,,,1,1,0.72277,0,68,68,63,1,REAL,FAKE,,,,,,,,,,,,,,,,,,,,,
,,,,,,,5a0502cb517dfb00013db4a3,605b45a4d25f287719a41696,605f879fe07174737d4d6ba2,United States,Northeast,12 or younger,no,2021-03-27_15h30.09.455,empathy_intonation_perc,2020.2.10,Win32,60,,,,,,,,,,1,,,,,,,,,,,,,,,,,,,,,,,,,,,,,,,,,,,,,,,,86,barato,,,0,0,0.53513,0,69,69,85,1,REAL,FAKE,,,,,,,,,,,,,,,,,,,,,
,,,,,,,5a0502cb517dfb00013db4a3,605b45a4d25f287719a41696,605f879fe07174737d4d6ba2,United States,Northeast,12 or younger,no,2021-03-27_15h30.09.455,empathy_intonation_perc,2020.2.10,Win32,60,,,,,,,,,,1,,,,,,,,,,,,,,,,,,,,,,,,,,,,,,,,,,,,,,,,9,hacha,,,1,1,0.58723,0,70,70,8,1,REAL,FAKE,,,,,,,,,,,,,,,,,,,,,
,,,,,,,5a0502cb517dfb00013db4a3,605b45a4d25f287719a41696,605f879fe07174737d4d6ba2,United States,Northeast,12 or younger,no,2021-03-27_15h30.09.455,empathy_intonation_perc,2020.2.10,Win32,60,,,,,,,,,,1,,,,,,,,,,,,,,,,,,,,,,,,,,,,,,,,,,,,,,,,46,martillo,,,1,1,0.55351,0,71,71,45,1,REAL,FAKE,,,,,,,,,,,,,,,,,,,,,
,,,,,,,5a0502cb517dfb00013db4a3,605b45a4d25f287719a41696,605f879fe07174737d4d6ba2,United States,Northeast,12 or younger,no,2021-03-27_15h30.09.455,empathy_intonation_perc,2020.2.10,Win32,60,,,,,,,,,,1,,,,,,,,,,,,,,,,,,,,,,,,,,,,,,,,,,,,,,,,34,aviso,,,1,1,0.572675,0,72,72,33,1,REAL,FAKE,,,,,,,,,,,,,,,,,,,,,
,,,,,,,5a0502cb517dfb00013db4a3,605b45a4d25f287719a41696,605f879fe07174737d4d6ba2,United States,Northeast,12 or younger,no,2021-03-27_15h30.09.455,empathy_intonation_perc,2020.2.10,Win32,60,,,,,,,,,,0,,,,,,,,,,,,,,,,,,,,,,,,,,,,,,,,,,,,,,,,47,cartinar,,,0,1,0.6116,0,73,73,46,1,REAL,FAKE,,,,,,,,,,,,,,,,,,,,,
,,,,,,,5a0502cb517dfb00013db4a3,605b45a4d25f287719a41696,605f879fe07174737d4d6ba2,United States,Northeast,12 or younger,no,2021-03-27_15h30.09.455,empathy_intonation_perc,2020.2.10,Win32,60,,,,,,,,,,1,,,,,,,,,,,,,,,,,,,,,,,,,,,,,,,,,,,,,,,,43,canela,,,0,0,0.882055,0,74,74,42,1,REAL,FAKE,,,,,,,,,,,,,,,,,,,,,
,,,,,,,5a0502cb517dfb00013db4a3,605b45a4d25f287719a41696,605f879fe07174737d4d6ba2,United States,Northeast,12 or younger,no,2021-03-27_15h30.09.455,empathy_intonation_perc,2020.2.10,Win32,60,,,,,,,,,,1,,,,,,,,,,,,,,,,,,,,,,,,,,,,,,,,,,,,,,,,68,alegre,,,1,1,0.736375,0,75,75,67,1,REAL,FAKE,,,,,,,,,,,,,,,,,,,,,
,,,,,,,5a0502cb517dfb00013db4a3,605b45a4d25f287719a41696,605f879fe07174737d4d6ba2,United States,Northeast,12 or younger,no,2021-03-27_15h30.09.455,empathy_intonation_perc,2020.2.10,Win32,60,,,,,,,,,,0,,,,,,,,,,,,,,,,,,,,,,,,,,,,,,,,,,,,,,,,84,escuto,,,0,1,0.817345,0,76,76,83,1,REAL,FAKE,,,,,,,,,,,,,,,,,,,,,
,,,,,,,5a0502cb517dfb00013db4a3,605b45a4d25f287719a41696,605f879fe07174737d4d6ba2,United States,Northeast,12 or younger,no,2021-03-27_15h30.09.455,empathy_intonation_perc,2020.2.10,Win32,60,,,,,,,,,,1,,,,,,,,,,,,,,,,,,,,,,,,,,,,,,,,,,,,,,,,22,lacayo,,,0,0,0.6505,0,77,77,21,1,REAL,FAKE,,,,,,,,,,,,,,,,,,,,,
,,,,,,,5a0502cb517dfb00013db4a3,605b45a4d25f287719a41696,605f879fe07174737d4d6ba2,United States,Northeast,12 or younger,no,2021-03-27_15h30.09.455,empathy_intonation_perc,2020.2.10,Win32,60,,,,,,,,,,1,,,,,,,,,,,,,,,,,,,,,,,,,,,,,,,,,,,,,,,,13,helar,,,0,0,0.956835,0,78,78,12,1,REAL,FAKE,,,,,,,,,,,,,,,,,,,,,
,,,,,,,5a0502cb517dfb00013db4a3,605b45a4d25f287719a41696,605f879fe07174737d4d6ba2,United States,Northeast,12 or younger,no,2021-03-27_15h30.09.455,empathy_intonation_perc,2020.2.10,Win32,60,,,,,,,,,,0,,,,,,,,,,,,,,,,,,,,,,,,,,,,,,,,,,,,,,,,32,fatacidad,,,0,1,0.76288,0,79,79,31,1,REAL,FAKE,,,,,,,,,,,,,,,,,,,,,
,,,,,,,5a0502cb517dfb00013db4a3,605b45a4d25f287719a41696,605f879fe07174737d4d6ba2,United States,Northeast,12 or younger,no,2021-03-27_15h30.09.455,empathy_intonation_perc,2020.2.10,Win32,60,,,,,,,,,,0,,,,,,,,,,,,,,,,,,,,,,,,,,,,,,,,,,,,,,,,42,cadallo,,,0,1,0.788515,0,80,80,41,1,REAL,FAKE,,,,,,,,,,,,,,,,,,,,,
,,,,,,,5a0502cb517dfb00013db4a3,605b45a4d25f287719a41696,605f879fe07174737d4d6ba2,United States,Northeast,12 or younger,no,2021-03-27_15h30.09.455,empathy_intonation_perc,2020.2.10,Win32,60,,,,,,,,,,1,,,,,,,,,,,,,,,,,,,,,,,,,,,,,,,,,,,,,,,,54,fomentar,,,0,0,0.770025,0,81,81,53,1,REAL,FAKE,,,,,,,,,,,,,,,,,,,,,
,,,,,,,5a0502cb517dfb00013db4a3,605b45a4d25f287719a41696,605f879fe07174737d4d6ba2,United States,Northeast,12 or younger,no,2021-03-27_15h30.09.455,empathy_intonation_perc,2020.2.10,Win32,60,,,,,,,,,,1,,,,,,,,,,,,,,,,,,,,,,,,,,,,,,,,,,,,,,,,38,estornudar,,,1,1,0.83569,0,82,82,37,1,REAL,FAKE,,,,,,,,,,,,,,,,,,,,,
,,,,,,,5a0502cb517dfb00013db4a3,605b45a4d25f287719a41696,605f879fe07174737d4d6ba2,United States,Northeast,12 or younger,no,2021-03-27_15h30.09.455,empathy_intonation_perc,2020.2.10,Win32,60,,,,,,,,,,1,,,,,,,,,,,,,,,,,,,,,,,,,,,,,,,,,,,,,,,,80,hormiga,,,0,0,0.81542,0,83,83,79,1,REAL,FAKE,,,,,,,,,,,,,,,,,,,,,
,,,,,,,5a0502cb517dfb00013db4a3,605b45a4d25f287719a41696,605f879fe07174737d4d6ba2,United States,Northeast,12 or younger,no,2021-03-27_15h30.09.455,empathy_intonation_perc,2020.2.10,Win32,60,,,,,,,,,,1,,,,,,,,,,,,,,,,,,,,,,,,,,,,,,,,,,,,,,,,24,ltigo,,,0,0,0.692575,0,84,84,23,1,REAL,FAKE,,,,,,,,,,,,,,,,,,,,,
,,,,,,,5a0502cb517dfb00013db4a3,605b45a4d25f287719a41696,605f879fe07174737d4d6ba2,United States,Northeast,12 or younger,no,2021-03-27_15h30.09.455,empathy_intonation_perc,2020.2.10,Win32,60,,,,,,,,,,1,,,,,,,,,,,,,,,,,,,,,,,,,,,,,,,,,,,,,,,,85,lad,,,0,0,0.680955,0,85,85,84,1,REAL,FAKE,,,,,,,,,,,,,,,,,,,,,
,,,,,,,5a0502cb517dfb00013db4a3,605b45a4d25f287719a41696,605f879fe07174737d4d6ba2,United States,Northeast,12 or younger,no,2021-03-27_15h30.09.455,empathy_intonation_perc,2020.2.10,Win32,60,,,,,,,,,,1,,,,,,,,,,,,,,,,,,,,,,,,,,,,,,,,,,,,,,,,76,atar,,,1,1,0.940605,0,86,86,75,1,REAL,FAKE,,,,,,,,,,,,,,,,,,,,,
,,,,,,,5a0502cb517dfb00013db4a3,605b45a4d25f287719a41696,605f879fe07174737d4d6ba2,United States,Northeast,12 or younger,no,2021-03-27_15h30.09.455,empathy_intonation_perc,2020.2.10,Win32,60,,,,,,,,,,0,,,,,,,,,,,,,,,,,,,,,,,,,,,,,,,,,,,,,,,,18,arsa,,,0,1,0.48696,0,87,87,17,1,REAL,FAKE,,,,,,,,,,,,,,,,,,,,,
,,,,,,,5a0502cb517dfb00013db4a3,605b45a4d25f287719a41696,605f879fe07174737d4d6ba2,United States,Northeast,12 or younger,no,2021-03-27_15h30.09.455,empathy_intonation_perc,2020.2.10,Win32,60,,,,,,,,,,1,,,,,,,,,,,,,,,,,,,,,,,,,,,,,,,,,,,,,,,,36,loro,,,0,0,0.51441,0,88,88,35,1,REAL,FAKE,,,,,,,,,,,,,,,,,,,,,
,,,,,,,5a0502cb517dfb00013db4a3,605b45a4d25f287719a41696,605f879fe07174737d4d6ba2,United States,Northeast,12 or younger,no,2021-03-27_15h30.09.455,empathy_intonation_perc,2020.2.10,Win32,60,,,,,,,,,,1,,,,,,,,,,,,,,,,,,,,,,,,,,,,,,,,,,,,,,,,59,besar,,,0,0,0.79884,0,89,89,58,1,REAL,FAKE,,,,,,,,,,,,,,,,,,,,,
,,,,,,,5a0502cb517dfb00013db4a3,605b45a4d25f287719a41696,605f879fe07174737d4d6ba2,United States,Northeast,12 or younger,no,2021-03-27_15h30.09.455,empathy_intonation_perc,2020.2.10,Win32,60,,,,,,,,,,,,,,,,,,,,,,,,,,,,,,,,,,,,,,,,,,,,,,,,,,,,,,,,,,,,,,,,4,1,3.241345,1,0,0,0,0,0,1,,,,,,,,,,,
,,,,,,,5a0502cb517dfb00013db4a3,605b45a4d25f287719a41696,605f879fe07174737d4d6ba2,United States,Northeast,12 or younger,no,2021-03-27_15h30.09.455,empathy_intonation_perc,2020.2.10,Win32,60,,,,,,,,,,,,,,,,,,,,1,,,,,,,,,,,,,,,,,,,,,,,,,,,,,,,,,,,,,,,,,,,,,,,,,,,,,,2,0,0,0,0,1,I can easily tell if someone else wants to enter a conversation.,1,0,1,0
,,,,,,,5a0502cb517dfb00013db4a3,605b45a4d25f287719a41696,605f879fe07174737d4d6ba2,United States,Northeast,12 or younger,no,2021-03-27_15h30.09.455,empathy_intonation_perc,2020.2.10,Win32,60,,,,,,,,,,,,,,,,,,,,2,,,,,,,,,,,,,,,,,,,,,,,,,,,,,,,,,,,,,,,,,,,,,,,,,,,,,,1,0,1,1,1,1,I prefer animals to humans.,0,1,0,0
,,,,,,,5a0502cb517dfb00013db4a3,605b45a4d25f287719a41696,605f879fe07174737d4d6ba2,United States,Northeast,12 or younger,no,2021-03-27_15h30.09.455,empathy_intonation_perc,2020.2.10,Win32,60,,,,,,,,,,,,,,,,,,,,3,,,,,,,,,,,,,,,,,,,,,,,,,,,,,,,,,,,,,,,,,,,,,,,,,,,,,,3,0,2,2,2,1,I try to keep up with the current trends and fashions.,0,1,0,0
