instructions_2afc_loop.thisRepN,instructions_2afc_loop.thisTrialN,instructions_2afc_loop.thisN,instructions_2afc_loop.thisIndex,instructions_2afc_loop.ran,instructions_text,continue_text,participant,study_id,session,I am most familiar with Spanish from...*,What part of the US are you from?*,At what age did you begin learning Spanish?*,Are you proficient in any languages other than English/Spanish?*,date,expName,psychopyVersion,OS,frameRate,key_resp_2afc_practice.keys,key_resp_2afc_practice.corr,key_resp_2afc_practice.rt,trials_2afc_practice_loop.thisRepN,trials_2afc_practice_loop.thisTrialN,trials_2afc_practice_loop.thisN,trials_2afc_practice_loop.thisIndex,trials_2afc_practice_loop.ran,path,correct_response,the_col,key_resp_2afc_trial.keys,key_resp_2afc_trial.corr,key_resp_2afc_trial.rt,trials_2afc_loop.thisRepN,trials_2afc_loop.thisTrialN,trials_2afc_loop.thisN,trials_2afc_loop.thisIndex,trials_2afc_loop.ran,item_num,andalusian,argentine,castilian,chilean,cuban,mexican,peruvian,puertorican,key_resp_ac1.keys,key_resp_ac1.corr,key_resp_ac1.rt,ac1_loop.thisRepN,ac1_loop.thisTrialN,ac1_loop.thisN,ac1_loop.thisIndex,ac1_loop.ran,instructions_lextale_loop.thisRepN,instructions_lextale_loop.thisTrialN,instructions_lextale_loop.thisN,instructions_lextale_loop.thisIndex,instructions_lextale_loop.ran,key_resp_lextale_practice.keys,key_resp_lextale_practice.corr,key_resp_lextale_practice.rt,trials_lextale_practice_loop.thisRepN,trials_lextale_practice_loop.thisTrialN,trials_lextale_practice_loop.thisN,trials_lextale_practice_loop.thisIndex,trials_lextale_practice_loop.ran,stim,word,prac_button_real,prac_button_false,key_resp_lextale_trial.keys,key_resp_lextale_trial.corr,key_resp_lextale_trial.rt,trials_lextale_loop.thisRepN,trials_lextale_loop.thisTrialN,trials_lextale_loop.thisN,trials_lextale_loop.thisIndex,trials_lextale_loop.ran,button_real,button_false,key_resp_ac2.keys,key_resp_ac2.corr,key_resp_ac2.rt,check_pass,check_fails,ac2_loop.thisRepN,ac2_loop.thisTrialN,ac2_loop.thisN,ac2_loop.thisIndex,ac2_loop.ran,slider_eq_trial.response,trials_eq_loop.thisRepN,trials_eq_loop.thisTrialN,trials_eq_loop.thisN,trials_eq_loop.thisIndex,trials_eq_loop.ran,item,is_test_item,is_distractor,is_agree_score,is_disagree_score
0,0,0,0,1,"In the following task you are going to hear a series of utterances. 

  You will decide if the utterances sound like questions or not using your keyboard.",(press the spacebar to continue),5bc5356e65cfb8000154bd82,60568611ec04488a9e9da93b,6056b28285ea58e34a1b1090,I am not familiar with Spanish,Northeast,NA,no,2021-03-20_22h42.59.338,empathy_intonation_perc,2020.2.10,Linux x86_64,60,,,,,,,,,,,,,,,,,,,,,,,,,,,,,,,,,,,,,,,,,,,,,,,,,,,,,,,,,,,,,,,,,,,,,,,,,,,,,,,,,,,,
0,1,1,1,1,"If you believe the utterance is a question, type '1' (for 'yes') and if you do not 
  believe it is a question type '0' (for 'no').

  Let's practice a bit...",(press the spacebar to continue),5bc5356e65cfb8000154bd82,60568611ec04488a9e9da93b,6056b28285ea58e34a1b1090,I am not familiar with Spanish,Northeast,NA,no,2021-03-20_22h42.59.338,empathy_intonation_perc,2020.2.10,Linux x86_64,60,,,,,,,,,,,,,,,,,,,,,,,,,,,,,,,,,,,,,,,,,,,,,,,,,,,,,,,,,,,,,,,,,,,,,,,,,,,,,,,,,,,,
,,,,,,,5bc5356e65cfb8000154bd82,60568611ec04488a9e9da93b,6056b28285ea58e34a1b1090,I am not familiar with Spanish,Northeast,NA,no,2021-03-20_22h42.59.338,empathy_intonation_perc,2020.2.10,Linux x86_64,60,1,1,3.796935,0,0,0,0,1,./stim/wavs/castilian_question_filler_Mi-esposo-conoce-al-chico.wav,1,,,,,,,,,,,,,,,,,,,,,,,,,,,,,,,,,,,,,,,,,,,,,,,,,,,,,,,,,,,,,,,,,,,,,,,,,,
,,,,,,,5bc5356e65cfb8000154bd82,60568611ec04488a9e9da93b,6056b28285ea58e34a1b1090,I am not familiar with Spanish,Northeast,NA,no,2021-03-20_22h42.59.338,empathy_intonation_perc,2020.2.10,Linux x86_64,60,0,1,2.06839,0,1,1,5,1,./stim/wavs/andalusian_statement_filler_Alberto-nunca-se-afeita.wav,0,,,,,,,,,,,,,,,,,,,,,,,,,,,,,,,,,,,,,,,,,,,,,,,,,,,,,,,,,,,,,,,,,,,,,,,,,,
,,,,,,,5bc5356e65cfb8000154bd82,60568611ec04488a9e9da93b,6056b28285ea58e34a1b1090,I am not familiar with Spanish,Northeast,NA,no,2021-03-20_22h42.59.338,empathy_intonation_perc,2020.2.10,Linux x86_64,60,1,1,1.470765,0,2,2,1,1,./stim/wavs/argentine_question_filler_Mi-vecino-habla-mucho.wav,1,,,,,,,,,,,,,,,,,,,,,,,,,,,,,,,,,,,,,,,,,,,,,,,,,,,,,,,,,,,,,,,,,,,,,,,,,,
,,,,,,,5bc5356e65cfb8000154bd82,60568611ec04488a9e9da93b,6056b28285ea58e34a1b1090,I am not familiar with Spanish,Northeast,NA,no,2021-03-20_22h42.59.338,empathy_intonation_perc,2020.2.10,Linux x86_64,60,1,1,2.11835,0,3,3,3,1,./stim/wavs/mexican_question_filler_Felipe-no-tiene-contrasena.wav,1,,,,,,,,,,,,,,,,,,,,,,,,,,,,,,,,,,,,,,,,,,,,,,,,,,,,,,,,,,,,,,,,,,,,,,,,,,
,,,,,,,5bc5356e65cfb8000154bd82,60568611ec04488a9e9da93b,6056b28285ea58e34a1b1090,I am not familiar with Spanish,Northeast,NA,no,2021-03-20_22h42.59.338,empathy_intonation_perc,2020.2.10,Linux x86_64,60,0,1,2.18533,0,4,4,6,1,./stim/wavs/peruvian_statement_filler_El-nino-habla-con-su-madre.wav,0,,,,,,,,,,,,,,,,,,,,,,,,,,,,,,,,,,,,,,,,,,,,,,,,,,,,,,,,,,,,,,,,,,,,,,,,,,
,,,,,,,5bc5356e65cfb8000154bd82,60568611ec04488a9e9da93b,6056b28285ea58e34a1b1090,I am not familiar with Spanish,Northeast,NA,no,2021-03-20_22h42.59.338,empathy_intonation_perc,2020.2.10,Linux x86_64,60,1,1,3.016055,0,5,5,2,1,./stim/wavs/chilean_question_filler_Mi-padre-cantaba-bien.wav,1,,,,,,,,,,,,,,,,,,,,,,,,,,,,,,,,,,,,,,,,,,,,,,,,,,,,,,,,,,,,,,,,,,,,,,,,,,
,,,,,,,5bc5356e65cfb8000154bd82,60568611ec04488a9e9da93b,6056b28285ea58e34a1b1090,I am not familiar with Spanish,Northeast,NA,no,2021-03-20_22h42.59.338,empathy_intonation_perc,2020.2.10,Linux x86_64,60,0,1,2.615715,0,6,6,4,1,./stim/wavs/cuban_statement_filler_Cocinabas-por-la-noche.wav,0,,,,,,,,,,,,,,,,,,,,,,,,,,,,,,,,,,,,,,,,,,,,,,,,,,,,,,,,,,,,,,,,,,,,,,,,,,
,,,,,,,5bc5356e65cfb8000154bd82,60568611ec04488a9e9da93b,6056b28285ea58e34a1b1090,I am not familiar with Spanish,Northeast,NA,no,2021-03-20_22h42.59.338,empathy_intonation_perc,2020.2.10,Linux x86_64,60,0,1,2.56303,0,7,7,7,1,./stim/wavs/puertorican_statement_filler_La-nina-pinta-con-su-amiga.wav,0,,,,,,,,,,,,,,,,,,,,,,,,,,,,,,,,,,,,,,,,,,,,,,,,,,,,,,,,,,,,,,,,,,,,,,,,,,
,,,,,,,5bc5356e65cfb8000154bd82,60568611ec04488a9e9da93b,6056b28285ea58e34a1b1090,I am not familiar with Spanish,Northeast,NA,no,2021-03-20_22h42.59.338,empathy_intonation_perc,2020.2.10,Linux x86_64,60,,,,,,,,,,0,cuban,0,1,2.300055,0,0,0,14,1,15,./stim/wavs/andalusian_match_declarative-narrow-focus_Mariano-habla-del-tiempo.wav,./stim/wavs/argentine_match_declarative-narrow-focus_Mariano-habla-del-tiempo.wav,./stim/wavs/castilian_match_declarative-narrow-focus_Mariano-habla-del-tiempo.wav,./stim/wavs/chilean_match_declarative-narrow-focus_Mariano-habla-del-tiempo.wav,./stim/wavs/cuban_match_declarative-narrow-focus_Mariano-habla-del-tiempo.wav,./stim/wavs/mexican_match_declarative-narrow-focus_Mariano-habla-del-tiempo.wav,./stim/wavs/peruvian_match_declarative-narrow-focus_Mariano-habla-del-tiempo.wav,./stim/wavs/puertorican_match_declarative-narrow-focus_Mariano-habla-del-tiempo.wav,,,,,,,,,,,,,,,,,,,,,,,,,,,,,,,,,,,,,,,,,,,,,,,,,,,,,,,,
,,,,,,,5bc5356e65cfb8000154bd82,60568611ec04488a9e9da93b,6056b28285ea58e34a1b1090,I am not familiar with Spanish,Northeast,NA,no,2021-03-20_22h42.59.338,empathy_intonation_perc,2020.2.10,Linux x86_64,60,,,,,,,,,,0,puertorican,0,1,2.183005,0,1,1,43,1,44,./stim/wavs/andalusian_mismatch_declarative-narrow-focus_La-maestra-vive-en-Paris.wav,./stim/wavs/argentine_mismatch_declarative-narrow-focus_La-maestra-vive-en-Paris.wav,./stim/wavs/castilian_mismatch_declarative-narrow-focus_La-maestra-vive-en-Paris.wav,./stim/wavs/chilean_mismatch_declarative-narrow-focus_La-maestra-vive-en-Paris.wav,./stim/wavs/cuban_mismatch_declarative-narrow-focus_La-maestra-vive-en-Paris.wav,./stim/wavs/mexican_mismatch_declarative-narrow-focus_La-maestra-vive-en-Paris.wav,./stim/wavs/peruvian_mismatch_declarative-narrow-focus_La-maestra-vive-en-Paris.wav,./stim/wavs/puertorican_mismatch_declarative-narrow-focus_La-maestra-vive-en-Paris.wav,,,,,,,,,,,,,,,,,,,,,,,,,,,,,,,,,,,,,,,,,,,,,,,,,,,,,,,,
,,,,,,,5bc5356e65cfb8000154bd82,60568611ec04488a9e9da93b,6056b28285ea58e34a1b1090,I am not familiar with Spanish,Northeast,NA,no,2021-03-20_22h42.59.338,empathy_intonation_perc,2020.2.10,Linux x86_64,60,,,,,,,,,,1,mexican,1,1,1.533505,0,2,2,24,1,25,./stim/wavs/andalusian_match_interrogative-total-yn_Ana-lleva-el-abrigo.wav,./stim/wavs/argentine_match_interrogative-total-yn_Ana-lleva-el-abrigo.wav,./stim/wavs/castilian_match_interrogative-total-yn_Ana-lleva-el-abrigo.wav,./stim/wavs/chilean_match_interrogative-total-yn_Ana-lleva-el-abrigo.wav,./stim/wavs/cuban_match_interrogative-total-yn_Ana-lleva-el-abrigo.wav,./stim/wavs/mexican_match_interrogative-total-yn_Ana-lleva-el-abrigo.wav,./stim/wavs/peruvian_match_interrogative-total-yn_Ana-lleva-el-abrigo.wav,./stim/wavs/puertorican_match_interrogative-total-yn_Ana-lleva-el-abrigo.wav,,,,,,,,,,,,,,,,,,,,,,,,,,,,,,,,,,,,,,,,,,,,,,,,,,,,,,,,
,,,,,,,5bc5356e65cfb8000154bd82,60568611ec04488a9e9da93b,6056b28285ea58e34a1b1090,I am not familiar with Spanish,Northeast,NA,no,2021-03-20_22h42.59.338,empathy_intonation_perc,2020.2.10,Linux x86_64,60,,,,,,,,,,1,cuban,0,0,1.80153,0,3,3,54,1,55,./stim/wavs/andalusian_mismatch_interrogative-partial-wh_Por-que-venia-del-lago.wav,./stim/wavs/argentine_mismatch_interrogative-partial-wh_Por-que-venia-del-lago.wav,./stim/wavs/castilian_mismatch_interrogative-partial-wh_Por-que-venia-del-lago.wav,./stim/wavs/chilean_mismatch_interrogative-partial-wh_Por-que-venia-del-lago.wav,./stim/wavs/cuban_mismatch_interrogative-partial-wh_Por-que-venia-del-lago.wav,./stim/wavs/mexican_mismatch_interrogative-partial-wh_Por-que-venia-del-lago.wav,./stim/wavs/peruvian_mismatch_interrogative-partial-wh_Por-que-venia-del-lago.wav,./stim/wavs/puertorican_mismatch_interrogative-partial-wh_Por-que-venia-del-lago.wav,,,,,,,,,,,,,,,,,,,,,,,,,,,,,,,,,,,,,,,,,,,,,,,,,,,,,,,,
,,,,,,,5bc5356e65cfb8000154bd82,60568611ec04488a9e9da93b,6056b28285ea58e34a1b1090,I am not familiar with Spanish,Northeast,NA,no,2021-03-20_22h42.59.338,empathy_intonation_perc,2020.2.10,Linux x86_64,60,,,,,,,,,,1,puertorican,0,0,2.966285,0,4,4,30,1,31,./stim/wavs/andalusian_match_interrogative-total-yn_Mariano-habla-del-tiempo.wav,./stim/wavs/argentine_match_interrogative-total-yn_Mariano-habla-del-tiempo.wav,./stim/wavs/castilian_match_interrogative-total-yn_Mariano-habla-del-tiempo.wav,./stim/wavs/chilean_match_interrogative-total-yn_Mariano-habla-del-tiempo.wav,./stim/wavs/cuban_match_interrogative-total-yn_Mariano-habla-del-tiempo.wav,./stim/wavs/mexican_match_interrogative-total-yn_Mariano-habla-del-tiempo.wav,./stim/wavs/peruvian_match_interrogative-total-yn_Mariano-habla-del-tiempo.wav,./stim/wavs/puertorican_match_interrogative-total-yn_Mariano-habla-del-tiempo.wav,,,,,,,,,,,,,,,,,,,,,,,,,,,,,,,,,,,,,,,,,,,,,,,,,,,,,,,,
,,,,,,,5bc5356e65cfb8000154bd82,60568611ec04488a9e9da93b,6056b28285ea58e34a1b1090,I am not familiar with Spanish,Northeast,NA,no,2021-03-20_22h42.59.338,empathy_intonation_perc,2020.2.10,Linux x86_64,60,,,,,,,,,,0,cuban,0,1,1.68011,0,5,5,8,1,9,./stim/wavs/andalusian_match_declarative-narrow-focus_Ana-lleva-el-abrigo.wav,./stim/wavs/argentine_match_declarative-narrow-focus_Ana-lleva-el-abrigo.wav,./stim/wavs/castilian_match_declarative-narrow-focus_Ana-lleva-el-abrigo.wav,./stim/wavs/chilean_match_declarative-narrow-focus_Ana-lleva-el-abrigo.wav,./stim/wavs/cuban_match_declarative-narrow-focus_Ana-lleva-el-abrigo.wav,./stim/wavs/mexican_match_declarative-narrow-focus_Ana-lleva-el-abrigo.wav,./stim/wavs/peruvian_match_declarative-narrow-focus_Ana-lleva-el-abrigo.wav,./stim/wavs/puertorican_match_declarative-narrow-focus_Ana-lleva-el-abrigo.wav,,,,,,,,,,,,,,,,,,,,,,,,,,,,,,,,,,,,,,,,,,,,,,,,,,,,,,,,
,,,,,,,5bc5356e65cfb8000154bd82,60568611ec04488a9e9da93b,6056b28285ea58e34a1b1090,I am not familiar with Spanish,Northeast,NA,no,2021-03-20_22h42.59.338,empathy_intonation_perc,2020.2.10,Linux x86_64,60,,,,,,,,,,0,castilian,0,1,2.04929,0,6,6,45,1,46,./stim/wavs/andalusian_mismatch_declarative-narrow-focus_Mi-madre-come-la-fruta.wav,./stim/wavs/argentine_mismatch_declarative-narrow-focus_Mi-madre-come-la-fruta.wav,./stim/wavs/castilian_mismatch_declarative-narrow-focus_Mi-madre-come-la-fruta.wav,./stim/wavs/chilean_mismatch_declarative-narrow-focus_Mi-madre-come-la-fruta.wav,./stim/wavs/cuban_mismatch_declarative-narrow-focus_Mi-madre-come-la-fruta.wav,./stim/wavs/mexican_mismatch_declarative-narrow-focus_Mi-madre-come-la-fruta.wav,./stim/wavs/peruvian_mismatch_declarative-narrow-focus_Mi-madre-come-la-fruta.wav,./stim/wavs/puertorican_mismatch_declarative-narrow-focus_Mi-madre-come-la-fruta.wav,,,,,,,,,,,,,,,,,,,,,,,,,,,,,,,,,,,,,,,,,,,,,,,,,,,,,,,,
,,,,,,,5bc5356e65cfb8000154bd82,60568611ec04488a9e9da93b,6056b28285ea58e34a1b1090,I am not familiar with Spanish,Northeast,NA,no,2021-03-20_22h42.59.338,empathy_intonation_perc,2020.2.10,Linux x86_64,60,,,,,,,,,,1,puertorican,1,1,1.966245,0,7,7,62,1,63,./stim/wavs/andalusian_mismatch_interrogative-total-yn_Mi-novio-viene-del-lago.wav,./stim/wavs/argentine_mismatch_interrogative-total-yn_Mi-novio-viene-del-lago.wav,./stim/wavs/castilian_mismatch_interrogative-total-yn_Mi-novio-viene-del-lago.wav,./stim/wavs/chilean_mismatch_interrogative-total-yn_Mi-novio-viene-del-lago.wav,./stim/wavs/cuban_mismatch_interrogative-total-yn_Mi-novio-viene-del-lago.wav,./stim/wavs/mexican_mismatch_interrogative-total-yn_Mi-novio-viene-del-lago.wav,./stim/wavs/peruvian_mismatch_interrogative-total-yn_Mi-novio-viene-del-lago.wav,./stim/wavs/puertorican_mismatch_interrogative-total-yn_Mi-novio-viene-del-lago.wav,,,,,,,,,,,,,,,,,,,,,,,,,,,,,,,,,,,,,,,,,,,,,,,,,,,,,,,,
,,,,,,,5bc5356e65cfb8000154bd82,60568611ec04488a9e9da93b,6056b28285ea58e34a1b1090,I am not familiar with Spanish,Northeast,NA,no,2021-03-20_22h42.59.338,empathy_intonation_perc,2020.2.10,Linux x86_64,60,,,,,,,,,,1,andalusian,1,1,1.398205,0,8,8,29,1,30,./stim/wavs/andalusian_match_interrogative-total-yn_Maria-bebe-el-vino.wav,./stim/wavs/argentine_match_interrogative-total-yn_Maria-bebe-el-vino.wav,./stim/wavs/castilian_match_interrogative-total-yn_Maria-bebe-el-vino.wav,./stim/wavs/chilean_match_interrogative-total-yn_Maria-bebe-el-vino.wav,./stim/wavs/cuban_match_interrogative-total-yn_Maria-bebe-el-vino.wav,./stim/wavs/mexican_match_interrogative-total-yn_Maria-bebe-el-vino.wav,./stim/wavs/peruvian_match_interrogative-total-yn_Maria-bebe-el-vino.wav,./stim/wavs/puertorican_match_interrogative-total-yn_Maria-bebe-el-vino.wav,,,,,,,,,,,,,,,,,,,,,,,,,,,,,,,,,,,,,,,,,,,,,,,,,,,,,,,,
,,,,,,,5bc5356e65cfb8000154bd82,60568611ec04488a9e9da93b,6056b28285ea58e34a1b1090,I am not familiar with Spanish,Northeast,NA,no,2021-03-20_22h42.59.338,empathy_intonation_perc,2020.2.10,Linux x86_64,60,,,,,,,,,,0,andalusian,0,1,1.933425,0,9,9,39,1,40,./stim/wavs/andalusian_mismatch_declarative-broad-focus_Mi-tia-odia-la-lluvia.wav,./stim/wavs/argentine_mismatch_declarative-broad-focus_Mi-tia-odia-la-lluvia.wav,./stim/wavs/castilian_mismatch_declarative-broad-focus_Mi-tia-odia-la-lluvia.wav,./stim/wavs/chilean_mismatch_declarative-broad-focus_Mi-tia-odia-la-lluvia.wav,./stim/wavs/cuban_mismatch_declarative-broad-focus_Mi-tia-odia-la-lluvia.wav,./stim/wavs/mexican_mismatch_declarative-broad-focus_Mi-tia-odia-la-lluvia.wav,./stim/wavs/peruvian_mismatch_declarative-broad-focus_Mi-tia-odia-la-lluvia.wav,./stim/wavs/puertorican_mismatch_declarative-broad-focus_Mi-tia-odia-la-lluvia.wav,,,,,,,,,,,,,,,,,,,,,,,,,,,,,,,,,,,,,,,,,,,,,,,,,,,,,,,,
,,,,,,,5bc5356e65cfb8000154bd82,60568611ec04488a9e9da93b,6056b28285ea58e34a1b1090,I am not familiar with Spanish,Northeast,NA,no,2021-03-20_22h42.59.338,empathy_intonation_perc,2020.2.10,Linux x86_64,60,,,,,,,,,,0,mexican,0,1,1.90247,0,10,10,37,1,38,./stim/wavs/andalusian_mismatch_declarative-broad-focus_Mi-madre-come-la-fruta.wav,./stim/wavs/argentine_mismatch_declarative-broad-focus_Mi-madre-come-la-fruta.wav,./stim/wavs/castilian_mismatch_declarative-broad-focus_Mi-madre-come-la-fruta.wav,./stim/wavs/chilean_mismatch_declarative-broad-focus_Mi-madre-come-la-fruta.wav,./stim/wavs/cuban_mismatch_declarative-broad-focus_Mi-madre-come-la-fruta.wav,./stim/wavs/mexican_mismatch_declarative-broad-focus_Mi-madre-come-la-fruta.wav,./stim/wavs/peruvian_mismatch_declarative-broad-focus_Mi-madre-come-la-fruta.wav,./stim/wavs/puertorican_mismatch_declarative-broad-focus_Mi-madre-come-la-fruta.wav,,,,,,,,,,,,,,,,,,,,,,,,,,,,,,,,,,,,,,,,,,,,,,,,,,,,,,,,
,,,,,,,5bc5356e65cfb8000154bd82,60568611ec04488a9e9da93b,6056b28285ea58e34a1b1090,I am not familiar with Spanish,Northeast,NA,no,2021-03-20_22h42.59.338,empathy_intonation_perc,2020.2.10,Linux x86_64,60,,,,,,,,,,1,castilian,1,1,1.74075,0,11,11,31,1,32,./stim/wavs/andalusian_match_interrogative-total-yn_Marta-abre-el-regalo.wav,./stim/wavs/argentine_match_interrogative-total-yn_Marta-abre-el-regalo.wav,./stim/wavs/castilian_match_interrogative-total-yn_Marta-abre-el-regalo.wav,./stim/wavs/chilean_match_interrogative-total-yn_Marta-abre-el-regalo.wav,./stim/wavs/cuban_match_interrogative-total-yn_Marta-abre-el-regalo.wav,./stim/wavs/mexican_match_interrogative-total-yn_Marta-abre-el-regalo.wav,./stim/wavs/peruvian_match_interrogative-total-yn_Marta-abre-el-regalo.wav,./stim/wavs/puertorican_match_interrogative-total-yn_Marta-abre-el-regalo.wav,,,,,,,,,,,,,,,,,,,,,,,,,,,,,,,,,,,,,,,,,,,,,,,,,,,,,,,,
,,,,,,,5bc5356e65cfb8000154bd82,60568611ec04488a9e9da93b,6056b28285ea58e34a1b1090,I am not familiar with Spanish,Northeast,NA,no,2021-03-20_22h42.59.338,empathy_intonation_perc,2020.2.10,Linux x86_64,60,,,,,,,,,,1,andalusian,1,1,1.850005,0,12,12,21,1,22,./stim/wavs/andalusian_match_interrogative-partial-wh_Por-que-ama-la-navidad.wav,./stim/wavs/argentine_match_interrogative-partial-wh_Por-que-ama-la-navidad.wav,./stim/wavs/castilian_match_interrogative-partial-wh_Por-que-ama-la-navidad.wav,./stim/wavs/chilean_match_interrogative-partial-wh_Por-que-ama-la-navidad.wav,./stim/wavs/cuban_match_interrogative-partial-wh_Por-que-ama-la-navidad.wav,./stim/wavs/mexican_match_interrogative-partial-wh_Por-que-ama-la-navidad.wav,./stim/wavs/peruvian_match_interrogative-partial-wh_Por-que-ama-la-navidad.wav,./stim/wavs/puertorican_match_interrogative-partial-wh_Por-que-ama-la-navidad.wav,,,,,,,,,,,,,,,,,,,,,,,,,,,,,,,,,,,,,,,,,,,,,,,,,,,,,,,,
,,,,,,,5bc5356e65cfb8000154bd82,60568611ec04488a9e9da93b,6056b28285ea58e34a1b1090,I am not familiar with Spanish,Northeast,NA,no,2021-03-20_22h42.59.338,empathy_intonation_perc,2020.2.10,Linux x86_64,60,,,,,,,,,,0,chilean,0,1,1.95047,0,13,13,7,1,8,./stim/wavs/andalusian_match_declarative-broad-focus_Marta-abre-el-regalo.wav,./stim/wavs/argentine_match_declarative-broad-focus_Marta-abre-el-regalo.wav,./stim/wavs/castilian_match_declarative-broad-focus_Marta-abre-el-regalo.wav,./stim/wavs/chilean_match_declarative-broad-focus_Marta-abre-el-regalo.wav,./stim/wavs/cuban_match_declarative-broad-focus_Marta-abre-el-regalo.wav,./stim/wavs/mexican_match_declarative-broad-focus_Marta-abre-el-regalo.wav,./stim/wavs/peruvian_match_declarative-broad-focus_Marta-abre-el-regalo.wav,./stim/wavs/puertorican_match_declarative-broad-focus_Marta-abre-el-regalo.wav,,,,,,,,,,,,,,,,,,,,,,,,,,,,,,,,,,,,,,,,,,,,,,,,,,,,,,,,
,,,,,,,5bc5356e65cfb8000154bd82,60568611ec04488a9e9da93b,6056b28285ea58e34a1b1090,I am not familiar with Spanish,Northeast,NA,no,2021-03-20_22h42.59.338,empathy_intonation_perc,2020.2.10,Linux x86_64,60,,,,,,,,,,1,cuban,0,0,1.86885,0,14,14,51,1,52,./stim/wavs/andalusian_mismatch_interrogative-partial-wh_Por-que-desayuna-muy-bien.wav,./stim/wavs/argentine_mismatch_interrogative-partial-wh_Por-que-desayuna-muy-bien.wav,./stim/wavs/castilian_mismatch_interrogative-partial-wh_Por-que-desayuna-muy-bien.wav,./stim/wavs/chilean_mismatch_interrogative-partial-wh_Por-que-desayuna-muy-bien.wav,./stim/wavs/cuban_mismatch_interrogative-partial-wh_Por-que-desayuna-muy-bien.wav,./stim/wavs/mexican_mismatch_interrogative-partial-wh_Por-que-desayuna-muy-bien.wav,./stim/wavs/peruvian_mismatch_interrogative-partial-wh_Por-que-desayuna-muy-bien.wav,./stim/wavs/puertorican_mismatch_interrogative-partial-wh_Por-que-desayuna-muy-bien.wav,,,,,,,,,,,,,,,,,,,,,,,,,,,,,,,,,,,,,,,,,,,,,,,,,,,,,,,,
,,,,,,,5bc5356e65cfb8000154bd82,60568611ec04488a9e9da93b,6056b28285ea58e34a1b1090,I am not familiar with Spanish,Northeast,NA,no,2021-03-20_22h42.59.338,empathy_intonation_perc,2020.2.10,Linux x86_64,60,,,,,,,,,,1,cuban,1,1,1.90138,0,15,15,17,1,18,./stim/wavs/andalusian_match_interrogative-partial-wh_Cuando-leia-el-libro.wav,./stim/wavs/argentine_match_interrogative-partial-wh_Cuando-leia-el-libro.wav,./stim/wavs/castilian_match_interrogative-partial-wh_Cuando-leia-el-libro.wav,./stim/wavs/chilean_match_interrogative-partial-wh_Cuando-leia-el-libro.wav,./stim/wavs/cuban_match_interrogative-partial-wh_Cuando-leia-el-libro.wav,./stim/wavs/mexican_match_interrogative-partial-wh_Cuando-leia-el-libro.wav,./stim/wavs/peruvian_match_interrogative-partial-wh_Cuando-leia-el-libro.wav,./stim/wavs/puertorican_match_interrogative-partial-wh_Cuando-leia-el-libro.wav,,,,,,,,,,,,,,,,,,,,,,,,,,,,,,,,,,,,,,,,,,,,,,,,,,,,,,,,
,,,,,,,5bc5356e65cfb8000154bd82,60568611ec04488a9e9da93b,6056b28285ea58e34a1b1090,I am not familiar with Spanish,Northeast,NA,no,2021-03-20_22h42.59.338,empathy_intonation_perc,2020.2.10,Linux x86_64,60,,,,,,,,,,0,cuban,0,1,1.66443,0,16,16,36,1,37,./stim/wavs/andalusian_mismatch_declarative-broad-focus_La-nina-lava-el-plato.wav,./stim/wavs/argentine_mismatch_declarative-broad-focus_La-nina-lava-el-plato.wav,./stim/wavs/castilian_mismatch_declarative-broad-focus_La-nina-lava-el-plato.wav,./stim/wavs/chilean_mismatch_declarative-broad-focus_La-nina-lava-el-plato.wav,./stim/wavs/cuban_mismatch_declarative-broad-focus_La-nina-lava-el-plato.wav,./stim/wavs/mexican_mismatch_declarative-broad-focus_La-nina-lava-el-plato.wav,./stim/wavs/peruvian_mismatch_declarative-broad-focus_La-nina-lava-el-plato.wav,./stim/wavs/puertorican_mismatch_declarative-broad-focus_La-nina-lava-el-plato.wav,,,,,,,,,,,,,,,,,,,,,,,,,,,,,,,,,,,,,,,,,,,,,,,,,,,,,,,,
,,,,,,,5bc5356e65cfb8000154bd82,60568611ec04488a9e9da93b,6056b28285ea58e34a1b1090,I am not familiar with Spanish,Northeast,NA,no,2021-03-20_22h42.59.338,empathy_intonation_perc,2020.2.10,Linux x86_64,60,,,,,,,,,,1,puertorican,0,0,2.282575,0,17,17,50,1,51,./stim/wavs/andalusian_mismatch_interrogative-partial-wh_Cuando-miraba-la-luna.wav,./stim/wavs/argentine_mismatch_interrogative-partial-wh_Cuando-miraba-la-luna.wav,./stim/wavs/castilian_mismatch_interrogative-partial-wh_Cuando-miraba-la-luna.wav,./stim/wavs/chilean_mismatch_interrogative-partial-wh_Cuando-miraba-la-luna.wav,./stim/wavs/cuban_mismatch_interrogative-partial-wh_Cuando-miraba-la-luna.wav,./stim/wavs/mexican_mismatch_interrogative-partial-wh_Cuando-miraba-la-luna.wav,./stim/wavs/peruvian_mismatch_interrogative-partial-wh_Cuando-miraba-la-luna.wav,./stim/wavs/puertorican_mismatch_interrogative-partial-wh_Cuando-miraba-la-luna.wav,,,,,,,,,,,,,,,,,,,,,,,,,,,,,,,,,,,,,,,,,,,,,,,,,,,,,,,,
,,,,,,,5bc5356e65cfb8000154bd82,60568611ec04488a9e9da93b,6056b28285ea58e34a1b1090,I am not familiar with Spanish,Northeast,NA,no,2021-03-20_22h42.59.338,empathy_intonation_perc,2020.2.10,Linux x86_64,60,,,,,,,,,,0,castilian,0,1,1.716265,0,18,18,11,1,12,./stim/wavs/andalusian_match_declarative-narrow-focus_Emilio-ama-la-marcha.wav,./stim/wavs/argentine_match_declarative-narrow-focus_Emilio-ama-la-marcha.wav,./stim/wavs/castilian_match_declarative-narrow-focus_Emilio-ama-la-marcha.wav,./stim/wavs/chilean_match_declarative-narrow-focus_Emilio-ama-la-marcha.wav,./stim/wavs/cuban_match_declarative-narrow-focus_Emilio-ama-la-marcha.wav,./stim/wavs/mexican_match_declarative-narrow-focus_Emilio-ama-la-marcha.wav,./stim/wavs/peruvian_match_declarative-narrow-focus_Emilio-ama-la-marcha.wav,./stim/wavs/puertorican_match_declarative-narrow-focus_Emilio-ama-la-marcha.wav,,,,,,,,,,,,,,,,,,,,,,,,,,,,,,,,,,,,,,,,,,,,,,,,,,,,,,,,
,,,,,,,5bc5356e65cfb8000154bd82,60568611ec04488a9e9da93b,6056b28285ea58e34a1b1090,I am not familiar with Spanish,Northeast,NA,no,2021-03-20_22h42.59.338,empathy_intonation_perc,2020.2.10,Linux x86_64,60,,,,,,,,,,0,mexican,0,1,1.782685,0,19,19,47,1,48,./stim/wavs/andalusian_mismatch_declarative-narrow-focus_Mi-tia-odia-la-lluvia.wav,./stim/wavs/argentine_mismatch_declarative-narrow-focus_Mi-tia-odia-la-lluvia.wav,./stim/wavs/castilian_mismatch_declarative-narrow-focus_Mi-tia-odia-la-lluvia.wav,./stim/wavs/chilean_mismatch_declarative-narrow-focus_Mi-tia-odia-la-lluvia.wav,./stim/wavs/cuban_mismatch_declarative-narrow-focus_Mi-tia-odia-la-lluvia.wav,./stim/wavs/mexican_mismatch_declarative-narrow-focus_Mi-tia-odia-la-lluvia.wav,./stim/wavs/peruvian_mismatch_declarative-narrow-focus_Mi-tia-odia-la-lluvia.wav,./stim/wavs/puertorican_mismatch_declarative-narrow-focus_Mi-tia-odia-la-lluvia.wav,,,,,,,,,,,,,,,,,,,,,,,,,,,,,,,,,,,,,,,,,,,,,,,,,,,,,,,,
,,,,,,,5bc5356e65cfb8000154bd82,60568611ec04488a9e9da93b,6056b28285ea58e34a1b1090,I am not familiar with Spanish,Northeast,NA,no,2021-03-20_22h42.59.338,empathy_intonation_perc,2020.2.10,Linux x86_64,60,,,,,,,,,,1,andalusian,1,1,1.54642,0,20,20,26,1,27,./stim/wavs/andalusian_match_interrogative-total-yn_David-leia-el-libro.wav,./stim/wavs/argentine_match_interrogative-total-yn_David-leia-el-libro.wav,./stim/wavs/castilian_match_interrogative-total-yn_David-leia-el-libro.wav,./stim/wavs/chilean_match_interrogative-total-yn_David-leia-el-libro.wav,./stim/wavs/cuban_match_interrogative-total-yn_David-leia-el-libro.wav,./stim/wavs/mexican_match_interrogative-total-yn_David-leia-el-libro.wav,./stim/wavs/peruvian_match_interrogative-total-yn_David-leia-el-libro.wav,./stim/wavs/puertorican_match_interrogative-total-yn_David-leia-el-libro.wav,,,,,,,,,,,,,,,,,,,,,,,,,,,,,,,,,,,,,,,,,,,,,,,,,,,,,,,,
,,,,,,,5bc5356e65cfb8000154bd82,60568611ec04488a9e9da93b,6056b28285ea58e34a1b1090,I am not familiar with Spanish,Northeast,NA,no,2021-03-20_22h42.59.338,empathy_intonation_perc,2020.2.10,Linux x86_64,60,,,,,,,,,,1,argentine,1,1,1.86665,0,21,21,56,1,57,./stim/wavs/andalusian_mismatch_interrogative-total-yn_El-bebe-comia-muy-bien.wav,./stim/wavs/argentine_mismatch_interrogative-total-yn_El-bebe-comia-muy-bien.wav,./stim/wavs/castilian_mismatch_interrogative-total-yn_El-bebe-comia-muy-bien.wav,./stim/wavs/chilean_mismatch_interrogative-total-yn_El-bebe-comia-muy-bien.wav,./stim/wavs/cuban_mismatch_interrogative-total-yn_El-bebe-comia-muy-bien.wav,./stim/wavs/mexican_mismatch_interrogative-total-yn_El-bebe-comia-muy-bien.wav,./stim/wavs/peruvian_mismatch_interrogative-total-yn_El-bebe-comia-muy-bien.wav,./stim/wavs/puertorican_mismatch_interrogative-total-yn_El-bebe-comia-muy-bien.wav,,,,,,,,,,,,,,,,,,,,,,,,,,,,,,,,,,,,,,,,,,,,,,,,,,,,,,,,
,,,,,,,5bc5356e65cfb8000154bd82,60568611ec04488a9e9da93b,6056b28285ea58e34a1b1090,I am not familiar with Spanish,Northeast,NA,no,2021-03-20_22h42.59.338,empathy_intonation_perc,2020.2.10,Linux x86_64,60,,,,,,,,,,1,castilian,1,1,2.13327,0,22,22,22,1,23,./stim/wavs/andalusian_match_interrogative-partial-wh_Por-que-hablaba-del-agua.wav,./stim/wavs/argentine_match_interrogative-partial-wh_Por-que-hablaba-del-agua.wav,./stim/wavs/castilian_match_interrogative-partial-wh_Por-que-hablaba-del-agua.wav,./stim/wavs/chilean_match_interrogative-partial-wh_Por-que-hablaba-del-agua.wav,./stim/wavs/cuban_match_interrogative-partial-wh_Por-que-hablaba-del-agua.wav,./stim/wavs/mexican_match_interrogative-partial-wh_Por-que-hablaba-del-agua.wav,./stim/wavs/peruvian_match_interrogative-partial-wh_Por-que-hablaba-del-agua.wav,./stim/wavs/puertorican_match_interrogative-partial-wh_Por-que-hablaba-del-agua.wav,,,,,,,,,,,,,,,,,,,,,,,,,,,,,,,,,,,,,,,,,,,,,,,,,,,,,,,,
,,,,,,,5bc5356e65cfb8000154bd82,60568611ec04488a9e9da93b,6056b28285ea58e34a1b1090,I am not familiar with Spanish,Northeast,NA,no,2021-03-20_22h42.59.338,empathy_intonation_perc,2020.2.10,Linux x86_64,60,,,,,,,,,,0,mexican,1,0,5.84663,0,23,23,40,1,41,./stim/wavs/andalusian_mismatch_declarative-narrow-focus_El-bebe-comia-muy-bien.wav,./stim/wavs/argentine_mismatch_declarative-narrow-focus_El-bebe-comia-muy-bien.wav,./stim/wavs/castilian_mismatch_declarative-narrow-focus_El-bebe-comia-muy-bien.wav,./stim/wavs/chilean_mismatch_declarative-narrow-focus_El-bebe-comia-muy-bien.wav,./stim/wavs/cuban_mismatch_declarative-narrow-focus_El-bebe-comia-muy-bien.wav,./stim/wavs/mexican_mismatch_declarative-narrow-focus_El-bebe-comia-muy-bien.wav,./stim/wavs/peruvian_mismatch_declarative-narrow-focus_El-bebe-comia-muy-bien.wav,./stim/wavs/puertorican_mismatch_declarative-narrow-focus_El-bebe-comia-muy-bien.wav,,,,,,,,,,,,,,,,,,,,,,,,,,,,,,,,,,,,,,,,,,,,,,,,,,,,,,,,
,,,,,,,5bc5356e65cfb8000154bd82,60568611ec04488a9e9da93b,6056b28285ea58e34a1b1090,I am not familiar with Spanish,Northeast,NA,no,2021-03-20_22h42.59.338,empathy_intonation_perc,2020.2.10,Linux x86_64,60,,,,,,,,,,1,argentine,1,1,2.15207,0,24,24,61,1,62,./stim/wavs/andalusian_mismatch_interrogative-total-yn_Mi-madre-come-la-fruta.wav,./stim/wavs/argentine_mismatch_interrogative-total-yn_Mi-madre-come-la-fruta.wav,./stim/wavs/castilian_mismatch_interrogative-total-yn_Mi-madre-come-la-fruta.wav,./stim/wavs/chilean_mismatch_interrogative-total-yn_Mi-madre-come-la-fruta.wav,./stim/wavs/cuban_mismatch_interrogative-total-yn_Mi-madre-come-la-fruta.wav,./stim/wavs/mexican_mismatch_interrogative-total-yn_Mi-madre-come-la-fruta.wav,./stim/wavs/peruvian_mismatch_interrogative-total-yn_Mi-madre-come-la-fruta.wav,./stim/wavs/puertorican_mismatch_interrogative-total-yn_Mi-madre-come-la-fruta.wav,,,,,,,,,,,,,,,,,,,,,,,,,,,,,,,,,,,,,,,,,,,,,,,,,,,,,,,,
,,,,,,,5bc5356e65cfb8000154bd82,60568611ec04488a9e9da93b,6056b28285ea58e34a1b1090,I am not familiar with Spanish,Northeast,NA,no,2021-03-20_22h42.59.338,empathy_intonation_perc,2020.2.10,Linux x86_64,60,,,,,,,,,,1,peruvian,1,1,1.76605,0,25,25,55,1,56,./stim/wavs/andalusian_mismatch_interrogative-partial-wh_Por-que-vivia-en-Paris.wav,./stim/wavs/argentine_mismatch_interrogative-partial-wh_Por-que-vivia-en-Paris.wav,./stim/wavs/castilian_mismatch_interrogative-partial-wh_Por-que-vivia-en-Paris.wav,./stim/wavs/chilean_mismatch_interrogative-partial-wh_Por-que-vivia-en-Paris.wav,./stim/wavs/cuban_mismatch_interrogative-partial-wh_Por-que-vivia-en-Paris.wav,./stim/wavs/mexican_mismatch_interrogative-partial-wh_Por-que-vivia-en-Paris.wav,./stim/wavs/peruvian_mismatch_interrogative-partial-wh_Por-que-vivia-en-Paris.wav,./stim/wavs/puertorican_mismatch_interrogative-partial-wh_Por-que-vivia-en-Paris.wav,,,,,,,,,,,,,,,,,,,,,,,,,,,,,,,,,,,,,,,,,,,,,,,,,,,,,,,,
,,,,,,,5bc5356e65cfb8000154bd82,60568611ec04488a9e9da93b,6056b28285ea58e34a1b1090,I am not familiar with Spanish,Northeast,NA,no,2021-03-20_22h42.59.338,empathy_intonation_perc,2020.2.10,Linux x86_64,60,,,,,,,,,,1,argentine,1,1,1.683725,0,26,26,58,1,59,./stim/wavs/andalusian_mismatch_interrogative-total-yn_El-nino-oye-el-rio.wav,./stim/wavs/argentine_mismatch_interrogative-total-yn_El-nino-oye-el-rio.wav,./stim/wavs/castilian_mismatch_interrogative-total-yn_El-nino-oye-el-rio.wav,./stim/wavs/chilean_mismatch_interrogative-total-yn_El-nino-oye-el-rio.wav,./stim/wavs/cuban_mismatch_interrogative-total-yn_El-nino-oye-el-rio.wav,./stim/wavs/mexican_mismatch_interrogative-total-yn_El-nino-oye-el-rio.wav,./stim/wavs/peruvian_mismatch_interrogative-total-yn_El-nino-oye-el-rio.wav,./stim/wavs/puertorican_mismatch_interrogative-total-yn_El-nino-oye-el-rio.wav,,,,,,,,,,,,,,,,,,,,,,,,,,,,,,,,,,,,,,,,,,,,,,,,,,,,,,,,
,,,,,,,5bc5356e65cfb8000154bd82,60568611ec04488a9e9da93b,6056b28285ea58e34a1b1090,I am not familiar with Spanish,Northeast,NA,no,2021-03-20_22h42.59.338,empathy_intonation_perc,2020.2.10,Linux x86_64,60,,,,,,,,,,1,argentine,0,0,1.467175,0,27,27,16,1,17,./stim/wavs/andalusian_match_interrogative-partial-wh_Cuando-bebia-el-vino.wav,./stim/wavs/argentine_match_interrogative-partial-wh_Cuando-bebia-el-vino.wav,./stim/wavs/castilian_match_interrogative-partial-wh_Cuando-bebia-el-vino.wav,./stim/wavs/chilean_match_interrogative-partial-wh_Cuando-bebia-el-vino.wav,./stim/wavs/cuban_match_interrogative-partial-wh_Cuando-bebia-el-vino.wav,./stim/wavs/mexican_match_interrogative-partial-wh_Cuando-bebia-el-vino.wav,./stim/wavs/peruvian_match_interrogative-partial-wh_Cuando-bebia-el-vino.wav,./stim/wavs/puertorican_match_interrogative-partial-wh_Cuando-bebia-el-vino.wav,,,,,,,,,,,,,,,,,,,,,,,,,,,,,,,,,,,,,,,,,,,,,,,,,,,,,,,,
,,,,,,,5bc5356e65cfb8000154bd82,60568611ec04488a9e9da93b,6056b28285ea58e34a1b1090,I am not familiar with Spanish,Northeast,NA,no,2021-03-20_22h42.59.338,empathy_intonation_perc,2020.2.10,Linux x86_64,60,,,,,,,,,,0,puertorican,0,1,1.583285,0,28,28,1,1,2,./stim/wavs/andalusian_match_declarative-broad-focus_Daniel-iba-a-Bolivia.wav,./stim/wavs/argentine_match_declarative-broad-focus_Daniel-iba-a-Bolivia.wav,./stim/wavs/castilian_match_declarative-broad-focus_Daniel-iba-a-Bolivia.wav,./stim/wavs/chilean_match_declarative-broad-focus_Daniel-iba-a-Bolivia.wav,./stim/wavs/cuban_match_declarative-broad-focus_Daniel-iba-a-Bolivia.wav,./stim/wavs/mexican_match_declarative-broad-focus_Daniel-iba-a-Bolivia.wav,./stim/wavs/peruvian_match_declarative-broad-focus_Daniel-iba-a-Bolivia.wav,./stim/wavs/puertorican_match_declarative-broad-focus_Daniel-iba-a-Bolivia.wav,,,,,,,,,,,,,,,,,,,,,,,,,,,,,,,,,,,,,,,,,,,,,,,,,,,,,,,,
,,,,,,,5bc5356e65cfb8000154bd82,60568611ec04488a9e9da93b,6056b28285ea58e34a1b1090,I am not familiar with Spanish,Northeast,NA,no,2021-03-20_22h42.59.338,empathy_intonation_perc,2020.2.10,Linux x86_64,60,,,,,,,,,,0,cuban,0,1,1.38572,0,29,29,13,1,14,./stim/wavs/andalusian_match_declarative-narrow-focus_Maria-bebe-el-vino.wav,./stim/wavs/argentine_match_declarative-narrow-focus_Maria-bebe-el-vino.wav,./stim/wavs/castilian_match_declarative-narrow-focus_Maria-bebe-el-vino.wav,./stim/wavs/chilean_match_declarative-narrow-focus_Maria-bebe-el-vino.wav,./stim/wavs/cuban_match_declarative-narrow-focus_Maria-bebe-el-vino.wav,./stim/wavs/mexican_match_declarative-narrow-focus_Maria-bebe-el-vino.wav,./stim/wavs/peruvian_match_declarative-narrow-focus_Maria-bebe-el-vino.wav,./stim/wavs/puertorican_match_declarative-narrow-focus_Maria-bebe-el-vino.wav,,,,,,,,,,,,,,,,,,,,,,,,,,,,,,,,,,,,,,,,,,,,,,,,,,,,,,,,
,,,,,,,5bc5356e65cfb8000154bd82,60568611ec04488a9e9da93b,6056b28285ea58e34a1b1090,I am not familiar with Spanish,Northeast,NA,no,2021-03-20_22h42.59.338,empathy_intonation_perc,2020.2.10,Linux x86_64,60,,,,,,,,,,1,cuban,0,0,1.484285,0,30,30,19,1,20,./stim/wavs/andalusian_match_interrogative-partial-wh_Cuando-vendia-el-carro.wav,./stim/wavs/argentine_match_interrogative-partial-wh_Cuando-vendia-el-carro.wav,./stim/wavs/castilian_match_interrogative-partial-wh_Cuando-vendia-el-carro.wav,./stim/wavs/chilean_match_interrogative-partial-wh_Cuando-vendia-el-carro.wav,./stim/wavs/cuban_match_interrogative-partial-wh_Cuando-vendia-el-carro.wav,./stim/wavs/mexican_match_interrogative-partial-wh_Cuando-vendia-el-carro.wav,./stim/wavs/peruvian_match_interrogative-partial-wh_Cuando-vendia-el-carro.wav,./stim/wavs/puertorican_match_interrogative-partial-wh_Cuando-vendia-el-carro.wav,,,,,,,,,,,,,,,,,,,,,,,,,,,,,,,,,,,,,,,,,,,,,,,,,,,,,,,,
,,,,,,,5bc5356e65cfb8000154bd82,60568611ec04488a9e9da93b,6056b28285ea58e34a1b1090,I am not familiar with Spanish,Northeast,NA,no,2021-03-20_22h42.59.338,empathy_intonation_perc,2020.2.10,Linux x86_64,60,,,,,,,,,,0,mexican,0,1,1.61574,0,31,31,44,1,45,./stim/wavs/andalusian_mismatch_declarative-narrow-focus_La-nina-lava-el-plato.wav,./stim/wavs/argentine_mismatch_declarative-narrow-focus_La-nina-lava-el-plato.wav,./stim/wavs/castilian_mismatch_declarative-narrow-focus_La-nina-lava-el-plato.wav,./stim/wavs/chilean_mismatch_declarative-narrow-focus_La-nina-lava-el-plato.wav,./stim/wavs/cuban_mismatch_declarative-narrow-focus_La-nina-lava-el-plato.wav,./stim/wavs/mexican_mismatch_declarative-narrow-focus_La-nina-lava-el-plato.wav,./stim/wavs/peruvian_mismatch_declarative-narrow-focus_La-nina-lava-el-plato.wav,./stim/wavs/puertorican_mismatch_declarative-narrow-focus_La-nina-lava-el-plato.wav,,,,,,,,,,,,,,,,,,,,,,,,,,,,,,,,,,,,,,,,,,,,,,,,,,,,,,,,
,,,,,,,5bc5356e65cfb8000154bd82,60568611ec04488a9e9da93b,6056b28285ea58e34a1b1090,I am not familiar with Spanish,Northeast,NA,no,2021-03-20_22h42.59.338,empathy_intonation_perc,2020.2.10,Linux x86_64,60,,,,,,,,,,1,castilian,1,1,1.766345,0,32,32,57,1,58,./stim/wavs/andalusian_mismatch_interrogative-total-yn_El-hombre-mira-la-luna.wav,./stim/wavs/argentine_mismatch_interrogative-total-yn_El-hombre-mira-la-luna.wav,./stim/wavs/castilian_mismatch_interrogative-total-yn_El-hombre-mira-la-luna.wav,./stim/wavs/chilean_mismatch_interrogative-total-yn_El-hombre-mira-la-luna.wav,./stim/wavs/cuban_mismatch_interrogative-total-yn_El-hombre-mira-la-luna.wav,./stim/wavs/mexican_mismatch_interrogative-total-yn_El-hombre-mira-la-luna.wav,./stim/wavs/peruvian_mismatch_interrogative-total-yn_El-hombre-mira-la-luna.wav,./stim/wavs/puertorican_mismatch_interrogative-total-yn_El-hombre-mira-la-luna.wav,,,,,,,,,,,,,,,,,,,,,,,,,,,,,,,,,,,,,,,,,,,,,,,,,,,,,,,,
,,,,,,,5bc5356e65cfb8000154bd82,60568611ec04488a9e9da93b,6056b28285ea58e34a1b1090,I am not familiar with Spanish,Northeast,NA,no,2021-03-20_22h42.59.338,empathy_intonation_perc,2020.2.10,Linux x86_64,60,,,,,,,,,,0,cuban,0,1,1.58391,0,33,33,46,1,47,./stim/wavs/andalusian_mismatch_declarative-narrow-focus_Mi-novio-viene-del-lago.wav,./stim/wavs/argentine_mismatch_declarative-narrow-focus_Mi-novio-viene-del-lago.wav,./stim/wavs/castilian_mismatch_declarative-narrow-focus_Mi-novio-viene-del-lago.wav,./stim/wavs/chilean_mismatch_declarative-narrow-focus_Mi-novio-viene-del-lago.wav,./stim/wavs/cuban_mismatch_declarative-narrow-focus_Mi-novio-viene-del-lago.wav,./stim/wavs/mexican_mismatch_declarative-narrow-focus_Mi-novio-viene-del-lago.wav,./stim/wavs/peruvian_mismatch_declarative-narrow-focus_Mi-novio-viene-del-lago.wav,./stim/wavs/puertorican_mismatch_declarative-narrow-focus_Mi-novio-viene-del-lago.wav,,,,,,,,,,,,,,,,,,,,,,,,,,,,,,,,,,,,,,,,,,,,,,,,,,,,,,,,
,,,,,,,5bc5356e65cfb8000154bd82,60568611ec04488a9e9da93b,6056b28285ea58e34a1b1090,I am not familiar with Spanish,Northeast,NA,no,2021-03-20_22h42.59.338,empathy_intonation_perc,2020.2.10,Linux x86_64,60,,,,,,,,,,0,mexican,0,1,1.88282,0,34,34,9,1,10,./stim/wavs/andalusian_match_declarative-narrow-focus_Daniel-iba-a-Bolivia.wav,./stim/wavs/argentine_match_declarative-narrow-focus_Daniel-iba-a-Bolivia.wav,./stim/wavs/castilian_match_declarative-narrow-focus_Daniel-iba-a-Bolivia.wav,./stim/wavs/chilean_match_declarative-narrow-focus_Daniel-iba-a-Bolivia.wav,./stim/wavs/cuban_match_declarative-narrow-focus_Daniel-iba-a-Bolivia.wav,./stim/wavs/mexican_match_declarative-narrow-focus_Daniel-iba-a-Bolivia.wav,./stim/wavs/peruvian_match_declarative-narrow-focus_Daniel-iba-a-Bolivia.wav,./stim/wavs/puertorican_match_declarative-narrow-focus_Daniel-iba-a-Bolivia.wav,,,,,,,,,,,,,,,,,,,,,,,,,,,,,,,,,,,,,,,,,,,,,,,,,,,,,,,,
,,,,,,,5bc5356e65cfb8000154bd82,60568611ec04488a9e9da93b,6056b28285ea58e34a1b1090,I am not familiar with Spanish,Northeast,NA,no,2021-03-20_22h42.59.338,empathy_intonation_perc,2020.2.10,Linux x86_64,60,,,,,,,,,,1,castilian,1,1,1.616595,0,35,35,20,1,21,./stim/wavs/andalusian_match_interrogative-partial-wh_Por-que-abre-el-regalo.wav,./stim/wavs/argentine_match_interrogative-partial-wh_Por-que-abre-el-regalo.wav,./stim/wavs/castilian_match_interrogative-partial-wh_Por-que-abre-el-regalo.wav,./stim/wavs/chilean_match_interrogative-partial-wh_Por-que-abre-el-regalo.wav,./stim/wavs/cuban_match_interrogative-partial-wh_Por-que-abre-el-regalo.wav,./stim/wavs/mexican_match_interrogative-partial-wh_Por-que-abre-el-regalo.wav,./stim/wavs/peruvian_match_interrogative-partial-wh_Por-que-abre-el-regalo.wav,./stim/wavs/puertorican_match_interrogative-partial-wh_Por-que-abre-el-regalo.wav,,,,,,,,,,,,,,,,,,,,,,,,,,,,,,,,,,,,,,,,,,,,,,,,,,,,,,,,
,,,,,,,5bc5356e65cfb8000154bd82,60568611ec04488a9e9da93b,6056b28285ea58e34a1b1090,I am not familiar with Spanish,Northeast,NA,no,2021-03-20_22h42.59.338,empathy_intonation_perc,2020.2.10,Linux x86_64,60,,,,,,,,,,1,cuban,0,0,1.566665,0,36,36,60,1,61,./stim/wavs/andalusian_mismatch_interrogative-total-yn_La-nina-lava-el-plato.wav,./stim/wavs/argentine_mismatch_interrogative-total-yn_La-nina-lava-el-plato.wav,./stim/wavs/castilian_mismatch_interrogative-total-yn_La-nina-lava-el-plato.wav,./stim/wavs/chilean_mismatch_interrogative-total-yn_La-nina-lava-el-plato.wav,./stim/wavs/cuban_mismatch_interrogative-total-yn_La-nina-lava-el-plato.wav,./stim/wavs/mexican_mismatch_interrogative-total-yn_La-nina-lava-el-plato.wav,./stim/wavs/peruvian_mismatch_interrogative-total-yn_La-nina-lava-el-plato.wav,./stim/wavs/puertorican_mismatch_interrogative-total-yn_La-nina-lava-el-plato.wav,,,,,,,,,,,,,,,,,,,,,,,,,,,,,,,,,,,,,,,,,,,,,,,,,,,,,,,,
,,,,,,,5bc5356e65cfb8000154bd82,60568611ec04488a9e9da93b,6056b28285ea58e34a1b1090,I am not familiar with Spanish,Northeast,NA,no,2021-03-20_22h42.59.338,empathy_intonation_perc,2020.2.10,Linux x86_64,60,,,,,,,,,,0,cuban,0,1,1.68435,0,37,37,32,1,33,./stim/wavs/andalusian_mismatch_declarative-broad-focus_El-bebe-comia-muy-bien.wav,./stim/wavs/argentine_mismatch_declarative-broad-focus_El-bebe-comia-muy-bien.wav,./stim/wavs/castilian_mismatch_declarative-broad-focus_El-bebe-comia-muy-bien.wav,./stim/wavs/chilean_mismatch_declarative-broad-focus_El-bebe-comia-muy-bien.wav,./stim/wavs/cuban_mismatch_declarative-broad-focus_El-bebe-comia-muy-bien.wav,./stim/wavs/mexican_mismatch_declarative-broad-focus_El-bebe-comia-muy-bien.wav,./stim/wavs/peruvian_mismatch_declarative-broad-focus_El-bebe-comia-muy-bien.wav,./stim/wavs/puertorican_mismatch_declarative-broad-focus_El-bebe-comia-muy-bien.wav,,,,,,,,,,,,,,,,,,,,,,,,,,,,,,,,,,,,,,,,,,,,,,,,,,,,,,,,
,,,,,,,5bc5356e65cfb8000154bd82,60568611ec04488a9e9da93b,6056b28285ea58e34a1b1090,I am not familiar with Spanish,Northeast,NA,no,2021-03-20_22h42.59.338,empathy_intonation_perc,2020.2.10,Linux x86_64,60,,,,,,,,,,1,castilian,1,1,1.71678,0,38,38,52,1,53,./stim/wavs/andalusian_mismatch_interrogative-partial-wh_Por-que-odiaba-la-lluvia.wav,./stim/wavs/argentine_mismatch_interrogative-partial-wh_Por-que-odiaba-la-lluvia.wav,./stim/wavs/castilian_mismatch_interrogative-partial-wh_Por-que-odiaba-la-lluvia.wav,./stim/wavs/chilean_mismatch_interrogative-partial-wh_Por-que-odiaba-la-lluvia.wav,./stim/wavs/cuban_mismatch_interrogative-partial-wh_Por-que-odiaba-la-lluvia.wav,./stim/wavs/mexican_mismatch_interrogative-partial-wh_Por-que-odiaba-la-lluvia.wav,./stim/wavs/peruvian_mismatch_interrogative-partial-wh_Por-que-odiaba-la-lluvia.wav,./stim/wavs/puertorican_mismatch_interrogative-partial-wh_Por-que-odiaba-la-lluvia.wav,,,,,,,,,,,,,,,,,,,,,,,,,,,,,,,,,,,,,,,,,,,,,,,,,,,,,,,,
,,,,,,,5bc5356e65cfb8000154bd82,60568611ec04488a9e9da93b,6056b28285ea58e34a1b1090,I am not familiar with Spanish,Northeast,NA,no,2021-03-20_22h42.59.338,empathy_intonation_perc,2020.2.10,Linux x86_64,60,,,,,,,,,,0,cuban,0,1,1.449705,0,39,39,0,1,1,./stim/wavs/andalusian_match_declarative-broad-focus_Ana-lleva-el-abrigo.wav,./stim/wavs/argentine_match_declarative-broad-focus_Ana-lleva-el-abrigo.wav,./stim/wavs/castilian_match_declarative-broad-focus_Ana-lleva-el-abrigo.wav,./stim/wavs/chilean_match_declarative-broad-focus_Ana-lleva-el-abrigo.wav,./stim/wavs/cuban_match_declarative-broad-focus_Ana-lleva-el-abrigo.wav,./stim/wavs/mexican_match_declarative-broad-focus_Ana-lleva-el-abrigo.wav,./stim/wavs/peruvian_match_declarative-broad-focus_Ana-lleva-el-abrigo.wav,./stim/wavs/puertorican_match_declarative-broad-focus_Ana-lleva-el-abrigo.wav,,,,,,,,,,,,,,,,,,,,,,,,,,,,,,,,,,,,,,,,,,,,,,,,,,,,,,,,
,,,,,,,5bc5356e65cfb8000154bd82,60568611ec04488a9e9da93b,6056b28285ea58e34a1b1090,I am not familiar with Spanish,Northeast,NA,no,2021-03-20_22h42.59.338,empathy_intonation_perc,2020.2.10,Linux x86_64,60,,,,,,,,,,1,andalusian,1,1,1.9513,0,40,40,28,1,29,./stim/wavs/andalusian_match_interrogative-total-yn_Manuela-vende-el-carro.wav,./stim/wavs/argentine_match_interrogative-total-yn_Manuela-vende-el-carro.wav,./stim/wavs/castilian_match_interrogative-total-yn_Manuela-vende-el-carro.wav,./stim/wavs/chilean_match_interrogative-total-yn_Manuela-vende-el-carro.wav,./stim/wavs/cuban_match_interrogative-total-yn_Manuela-vende-el-carro.wav,./stim/wavs/mexican_match_interrogative-total-yn_Manuela-vende-el-carro.wav,./stim/wavs/peruvian_match_interrogative-total-yn_Manuela-vende-el-carro.wav,./stim/wavs/puertorican_match_interrogative-total-yn_Manuela-vende-el-carro.wav,,,,,,,,,,,,,,,,,,,,,,,,,,,,,,,,,,,,,,,,,,,,,,,,,,,,,,,,
,,,,,,,5bc5356e65cfb8000154bd82,60568611ec04488a9e9da93b,6056b28285ea58e34a1b1090,I am not familiar with Spanish,Northeast,NA,no,2021-03-20_22h42.59.338,empathy_intonation_perc,2020.2.10,Linux x86_64,60,,,,,,,,,,1,puertorican,0,0,1.536735,0,41,41,53,1,54,./stim/wavs/andalusian_mismatch_interrogative-partial-wh_Por-que-oia-el-rio.wav,./stim/wavs/argentine_mismatch_interrogative-partial-wh_Por-que-oia-el-rio.wav,./stim/wavs/castilian_mismatch_interrogative-partial-wh_Por-que-oia-el-rio.wav,./stim/wavs/chilean_mismatch_interrogative-partial-wh_Por-que-oia-el-rio.wav,./stim/wavs/cuban_mismatch_interrogative-partial-wh_Por-que-oia-el-rio.wav,./stim/wavs/mexican_mismatch_interrogative-partial-wh_Por-que-oia-el-rio.wav,./stim/wavs/peruvian_mismatch_interrogative-partial-wh_Por-que-oia-el-rio.wav,./stim/wavs/puertorican_mismatch_interrogative-partial-wh_Por-que-oia-el-rio.wav,,,,,,,,,,,,,,,,,,,,,,,,,,,,,,,,,,,,,,,,,,,,,,,,,,,,,,,,
,,,,,,,5bc5356e65cfb8000154bd82,60568611ec04488a9e9da93b,6056b28285ea58e34a1b1090,I am not familiar with Spanish,Northeast,NA,no,2021-03-20_22h42.59.338,empathy_intonation_perc,2020.2.10,Linux x86_64,60,,,,,,,,,,0,puertorican,0,1,1.79923,0,42,42,10,1,11,./stim/wavs/andalusian_match_declarative-narrow-focus_David-leia-el-libro.wav,./stim/wavs/argentine_match_declarative-narrow-focus_David-leia-el-libro.wav,./stim/wavs/castilian_match_declarative-narrow-focus_David-leia-el-libro.wav,./stim/wavs/chilean_match_declarative-narrow-focus_David-leia-el-libro.wav,./stim/wavs/cuban_match_declarative-narrow-focus_David-leia-el-libro.wav,./stim/wavs/mexican_match_declarative-narrow-focus_David-leia-el-libro.wav,./stim/wavs/peruvian_match_declarative-narrow-focus_David-leia-el-libro.wav,./stim/wavs/puertorican_match_declarative-narrow-focus_David-leia-el-libro.wav,,,,,,,,,,,,,,,,,,,,,,,,,,,,,,,,,,,,,,,,,,,,,,,,,,,,,,,,
,,,,,,,5bc5356e65cfb8000154bd82,60568611ec04488a9e9da93b,6056b28285ea58e34a1b1090,I am not familiar with Spanish,Northeast,NA,no,2021-03-20_22h42.59.338,empathy_intonation_perc,2020.2.10,Linux x86_64,60,,,,,,,,,,0,andalusian,0,1,2.80194,0,43,43,15,1,16,./stim/wavs/andalusian_match_declarative-narrow-focus_Marta-abre-el-regalo.wav,./stim/wavs/argentine_match_declarative-narrow-focus_Marta-abre-el-regalo.wav,./stim/wavs/castilian_match_declarative-narrow-focus_Marta-abre-el-regalo.wav,./stim/wavs/chilean_match_declarative-narrow-focus_Marta-abre-el-regalo.wav,./stim/wavs/cuban_match_declarative-narrow-focus_Marta-abre-el-regalo.wav,./stim/wavs/mexican_match_declarative-narrow-focus_Marta-abre-el-regalo.wav,./stim/wavs/peruvian_match_declarative-narrow-focus_Marta-abre-el-regalo.wav,./stim/wavs/puertorican_match_declarative-narrow-focus_Marta-abre-el-regalo.wav,,,,,,,,,,,,,,,,,,,,,,,,,,,,,,,,,,,,,,,,,,,,,,,,,,,,,,,,
,,,,,,,5bc5356e65cfb8000154bd82,60568611ec04488a9e9da93b,6056b28285ea58e34a1b1090,I am not familiar with Spanish,Northeast,NA,no,2021-03-20_22h42.59.338,empathy_intonation_perc,2020.2.10,Linux x86_64,60,,,,,,,,,,1,peruvian,1,1,2.068615,0,44,44,63,1,64,./stim/wavs/andalusian_mismatch_interrogative-total-yn_Mi-tia-odia-la-lluvia.wav,./stim/wavs/argentine_mismatch_interrogative-total-yn_Mi-tia-odia-la-lluvia.wav,./stim/wavs/castilian_mismatch_interrogative-total-yn_Mi-tia-odia-la-lluvia.wav,./stim/wavs/chilean_mismatch_interrogative-total-yn_Mi-tia-odia-la-lluvia.wav,./stim/wavs/cuban_mismatch_interrogative-total-yn_Mi-tia-odia-la-lluvia.wav,./stim/wavs/mexican_mismatch_interrogative-total-yn_Mi-tia-odia-la-lluvia.wav,./stim/wavs/peruvian_mismatch_interrogative-total-yn_Mi-tia-odia-la-lluvia.wav,./stim/wavs/puertorican_mismatch_interrogative-total-yn_Mi-tia-odia-la-lluvia.wav,,,,,,,,,,,,,,,,,,,,,,,,,,,,,,,,,,,,,,,,,,,,,,,,,,,,,,,,
,,,,,,,5bc5356e65cfb8000154bd82,60568611ec04488a9e9da93b,6056b28285ea58e34a1b1090,I am not familiar with Spanish,Northeast,NA,no,2021-03-20_22h42.59.338,empathy_intonation_perc,2020.2.10,Linux x86_64,60,,,,,,,,,,0,mexican,0,1,2.28393,0,45,45,34,1,35,./stim/wavs/andalusian_mismatch_declarative-broad-focus_El-nino-oye-el-rio.wav,./stim/wavs/argentine_mismatch_declarative-broad-focus_El-nino-oye-el-rio.wav,./stim/wavs/castilian_mismatch_declarative-broad-focus_El-nino-oye-el-rio.wav,./stim/wavs/chilean_mismatch_declarative-broad-focus_El-nino-oye-el-rio.wav,./stim/wavs/cuban_mismatch_declarative-broad-focus_El-nino-oye-el-rio.wav,./stim/wavs/mexican_mismatch_declarative-broad-focus_El-nino-oye-el-rio.wav,./stim/wavs/peruvian_mismatch_declarative-broad-focus_El-nino-oye-el-rio.wav,./stim/wavs/puertorican_mismatch_declarative-broad-focus_El-nino-oye-el-rio.wav,,,,,,,,,,,,,,,,,,,,,,,,,,,,,,,,,,,,,,,,,,,,,,,,,,,,,,,,
,,,,,,,5bc5356e65cfb8000154bd82,60568611ec04488a9e9da93b,6056b28285ea58e34a1b1090,I am not familiar with Spanish,Northeast,NA,no,2021-03-20_22h42.59.338,empathy_intonation_perc,2020.2.10,Linux x86_64,60,,,,,,,,,,0,cuban,0,1,1.415505,0,46,46,33,1,34,./stim/wavs/andalusian_mismatch_declarative-broad-focus_El-hombre-mira-la-luna.wav,./stim/wavs/argentine_mismatch_declarative-broad-focus_El-hombre-mira-la-luna.wav,./stim/wavs/castilian_mismatch_declarative-broad-focus_El-hombre-mira-la-luna.wav,./stim/wavs/chilean_mismatch_declarative-broad-focus_El-hombre-mira-la-luna.wav,./stim/wavs/cuban_mismatch_declarative-broad-focus_El-hombre-mira-la-luna.wav,./stim/wavs/mexican_mismatch_declarative-broad-focus_El-hombre-mira-la-luna.wav,./stim/wavs/peruvian_mismatch_declarative-broad-focus_El-hombre-mira-la-luna.wav,./stim/wavs/puertorican_mismatch_declarative-broad-focus_El-hombre-mira-la-luna.wav,,,,,,,,,,,,,,,,,,,,,,,,,,,,,,,,,,,,,,,,,,,,,,,,,,,,,,,,
,,,,,,,5bc5356e65cfb8000154bd82,60568611ec04488a9e9da93b,6056b28285ea58e34a1b1090,I am not familiar with Spanish,Northeast,NA,no,2021-03-20_22h42.59.338,empathy_intonation_perc,2020.2.10,Linux x86_64,60,,,,,,,,,,0,andalusian,0,1,1.883035,0,47,47,3,1,4,./stim/wavs/andalusian_match_declarative-broad-focus_Emilio-ama-la-marcha.wav,./stim/wavs/argentine_match_declarative-broad-focus_Emilio-ama-la-marcha.wav,./stim/wavs/castilian_match_declarative-broad-focus_Emilio-ama-la-marcha.wav,./stim/wavs/chilean_match_declarative-broad-focus_Emilio-ama-la-marcha.wav,./stim/wavs/cuban_match_declarative-broad-focus_Emilio-ama-la-marcha.wav,./stim/wavs/mexican_match_declarative-broad-focus_Emilio-ama-la-marcha.wav,./stim/wavs/peruvian_match_declarative-broad-focus_Emilio-ama-la-marcha.wav,./stim/wavs/puertorican_match_declarative-broad-focus_Emilio-ama-la-marcha.wav,,,,,,,,,,,,,,,,,,,,,,,,,,,,,,,,,,,,,,,,,,,,,,,,,,,,,,,,
,,,,,,,5bc5356e65cfb8000154bd82,60568611ec04488a9e9da93b,6056b28285ea58e34a1b1090,I am not familiar with Spanish,Northeast,NA,no,2021-03-20_22h42.59.338,empathy_intonation_perc,2020.2.10,Linux x86_64,60,,,,,,,,,,0,peruvian,0,1,1.61731,0,48,48,42,1,43,./stim/wavs/andalusian_mismatch_declarative-narrow-focus_El-nino-oye-el-rio.wav,./stim/wavs/argentine_mismatch_declarative-narrow-focus_El-nino-oye-el-rio.wav,./stim/wavs/castilian_mismatch_declarative-narrow-focus_El-nino-oye-el-rio.wav,./stim/wavs/chilean_mismatch_declarative-narrow-focus_El-nino-oye-el-rio.wav,./stim/wavs/cuban_mismatch_declarative-narrow-focus_El-nino-oye-el-rio.wav,./stim/wavs/mexican_mismatch_declarative-narrow-focus_El-nino-oye-el-rio.wav,./stim/wavs/peruvian_mismatch_declarative-narrow-focus_El-nino-oye-el-rio.wav,./stim/wavs/puertorican_mismatch_declarative-narrow-focus_El-nino-oye-el-rio.wav,,,,,,,,,,,,,,,,,,,,,,,,,,,,,,,,,,,,,,,,,,,,,,,,,,,,,,,,
,,,,,,,5bc5356e65cfb8000154bd82,60568611ec04488a9e9da93b,6056b28285ea58e34a1b1090,I am not familiar with Spanish,Northeast,NA,no,2021-03-20_22h42.59.338,empathy_intonation_perc,2020.2.10,Linux x86_64,60,,,,,,,,,,1,castilian,1,1,1.932125,0,49,49,27,1,28,./stim/wavs/andalusian_match_interrogative-total-yn_Emilio-ama-la-marcha.wav,./stim/wavs/argentine_match_interrogative-total-yn_Emilio-ama-la-marcha.wav,./stim/wavs/castilian_match_interrogative-total-yn_Emilio-ama-la-marcha.wav,./stim/wavs/chilean_match_interrogative-total-yn_Emilio-ama-la-marcha.wav,./stim/wavs/cuban_match_interrogative-total-yn_Emilio-ama-la-marcha.wav,./stim/wavs/mexican_match_interrogative-total-yn_Emilio-ama-la-marcha.wav,./stim/wavs/peruvian_match_interrogative-total-yn_Emilio-ama-la-marcha.wav,./stim/wavs/puertorican_match_interrogative-total-yn_Emilio-ama-la-marcha.wav,,,,,,,,,,,,,,,,,,,,,,,,,,,,,,,,,,,,,,,,,,,,,,,,,,,,,,,,
,,,,,,,5bc5356e65cfb8000154bd82,60568611ec04488a9e9da93b,6056b28285ea58e34a1b1090,I am not familiar with Spanish,Northeast,NA,no,2021-03-20_22h42.59.338,empathy_intonation_perc,2020.2.10,Linux x86_64,60,,,,,,,,,,1,cuban,0,0,1.73762,0,50,50,25,1,26,./stim/wavs/andalusian_match_interrogative-total-yn_Daniel-iba-a-Bolivia.wav,./stim/wavs/argentine_match_interrogative-total-yn_Daniel-iba-a-Bolivia.wav,./stim/wavs/castilian_match_interrogative-total-yn_Daniel-iba-a-Bolivia.wav,./stim/wavs/chilean_match_interrogative-total-yn_Daniel-iba-a-Bolivia.wav,./stim/wavs/cuban_match_interrogative-total-yn_Daniel-iba-a-Bolivia.wav,./stim/wavs/mexican_match_interrogative-total-yn_Daniel-iba-a-Bolivia.wav,./stim/wavs/peruvian_match_interrogative-total-yn_Daniel-iba-a-Bolivia.wav,./stim/wavs/puertorican_match_interrogative-total-yn_Daniel-iba-a-Bolivia.wav,,,,,,,,,,,,,,,,,,,,,,,,,,,,,,,,,,,,,,,,,,,,,,,,,,,,,,,,
,,,,,,,5bc5356e65cfb8000154bd82,60568611ec04488a9e9da93b,6056b28285ea58e34a1b1090,I am not familiar with Spanish,Northeast,NA,no,2021-03-20_22h42.59.338,empathy_intonation_perc,2020.2.10,Linux x86_64,60,,,,,,,,,,1,mexican,1,1,3.61732,0,51,51,49,1,50,./stim/wavs/andalusian_mismatch_interrogative-partial-wh_Cuando-lavaba-el-plato.wav,./stim/wavs/argentine_mismatch_interrogative-partial-wh_Cuando-lavaba-el-plato.wav,./stim/wavs/castilian_mismatch_interrogative-partial-wh_Cuando-lavaba-el-plato.wav,./stim/wavs/chilean_mismatch_interrogative-partial-wh_Cuando-lavaba-el-plato.wav,./stim/wavs/cuban_mismatch_interrogative-partial-wh_Cuando-lavaba-el-plato.wav,./stim/wavs/mexican_mismatch_interrogative-partial-wh_Cuando-lavaba-el-plato.wav,./stim/wavs/peruvian_mismatch_interrogative-partial-wh_Cuando-lavaba-el-plato.wav,./stim/wavs/puertorican_mismatch_interrogative-partial-wh_Cuando-lavaba-el-plato.wav,,,,,,,,,,,,,,,,,,,,,,,,,,,,,,,,,,,,,,,,,,,,,,,,,,,,,,,,
,,,,,,,5bc5356e65cfb8000154bd82,60568611ec04488a9e9da93b,6056b28285ea58e34a1b1090,I am not familiar with Spanish,Northeast,NA,no,2021-03-20_22h42.59.338,empathy_intonation_perc,2020.2.10,Linux x86_64,60,,,,,,,,,,0,chilean,0,1,1.53214,0,52,52,41,1,42,./stim/wavs/andalusian_mismatch_declarative-narrow-focus_El-hombre-mira-la-luna.wav,./stim/wavs/argentine_mismatch_declarative-narrow-focus_El-hombre-mira-la-luna.wav,./stim/wavs/castilian_mismatch_declarative-narrow-focus_El-hombre-mira-la-luna.wav,./stim/wavs/chilean_mismatch_declarative-narrow-focus_El-hombre-mira-la-luna.wav,./stim/wavs/cuban_mismatch_declarative-narrow-focus_El-hombre-mira-la-luna.wav,./stim/wavs/mexican_mismatch_declarative-narrow-focus_El-hombre-mira-la-luna.wav,./stim/wavs/peruvian_mismatch_declarative-narrow-focus_El-hombre-mira-la-luna.wav,./stim/wavs/puertorican_mismatch_declarative-narrow-focus_El-hombre-mira-la-luna.wav,,,,,,,,,,,,,,,,,,,,,,,,,,,,,,,,,,,,,,,,,,,,,,,,,,,,,,,,
,,,,,,,5bc5356e65cfb8000154bd82,60568611ec04488a9e9da93b,6056b28285ea58e34a1b1090,I am not familiar with Spanish,Northeast,NA,no,2021-03-20_22h42.59.338,empathy_intonation_perc,2020.2.10,Linux x86_64,60,,,,,,,,,,1,mexican,1,1,1.41609,0,53,53,23,1,24,./stim/wavs/andalusian_match_interrogative-partial-wh_Por-que-iba-a-Bolivia.wav,./stim/wavs/argentine_match_interrogative-partial-wh_Por-que-iba-a-Bolivia.wav,./stim/wavs/castilian_match_interrogative-partial-wh_Por-que-iba-a-Bolivia.wav,./stim/wavs/chilean_match_interrogative-partial-wh_Por-que-iba-a-Bolivia.wav,./stim/wavs/cuban_match_interrogative-partial-wh_Por-que-iba-a-Bolivia.wav,./stim/wavs/mexican_match_interrogative-partial-wh_Por-que-iba-a-Bolivia.wav,./stim/wavs/peruvian_match_interrogative-partial-wh_Por-que-iba-a-Bolivia.wav,./stim/wavs/puertorican_match_interrogative-partial-wh_Por-que-iba-a-Bolivia.wav,,,,,,,,,,,,,,,,,,,,,,,,,,,,,,,,,,,,,,,,,,,,,,,,,,,,,,,,
,,,,,,,5bc5356e65cfb8000154bd82,60568611ec04488a9e9da93b,6056b28285ea58e34a1b1090,I am not familiar with Spanish,Northeast,NA,no,2021-03-20_22h42.59.338,empathy_intonation_perc,2020.2.10,Linux x86_64,60,,,,,,,,,,0,mexican,0,1,1.5167,0,54,54,35,1,36,./stim/wavs/andalusian_mismatch_declarative-broad-focus_La-maestra-vive-en-Paris.wav,./stim/wavs/argentine_mismatch_declarative-broad-focus_La-maestra-vive-en-Paris.wav,./stim/wavs/castilian_mismatch_declarative-broad-focus_La-maestra-vive-en-Paris.wav,./stim/wavs/chilean_mismatch_declarative-broad-focus_La-maestra-vive-en-Paris.wav,./stim/wavs/cuban_mismatch_declarative-broad-focus_La-maestra-vive-en-Paris.wav,./stim/wavs/mexican_mismatch_declarative-broad-focus_La-maestra-vive-en-Paris.wav,./stim/wavs/peruvian_mismatch_declarative-broad-focus_La-maestra-vive-en-Paris.wav,./stim/wavs/puertorican_mismatch_declarative-broad-focus_La-maestra-vive-en-Paris.wav,,,,,,,,,,,,,,,,,,,,,,,,,,,,,,,,,,,,,,,,,,,,,,,,,,,,,,,,
,,,,,,,5bc5356e65cfb8000154bd82,60568611ec04488a9e9da93b,6056b28285ea58e34a1b1090,I am not familiar with Spanish,Northeast,NA,no,2021-03-20_22h42.59.338,empathy_intonation_perc,2020.2.10,Linux x86_64,60,,,,,,,,,,0,chilean,0,1,1.256425,0,55,55,5,1,6,./stim/wavs/andalusian_match_declarative-broad-focus_Maria-bebe-el-vino.wav,./stim/wavs/argentine_match_declarative-broad-focus_Maria-bebe-el-vino.wav,./stim/wavs/castilian_match_declarative-broad-focus_Maria-bebe-el-vino.wav,./stim/wavs/chilean_match_declarative-broad-focus_Maria-bebe-el-vino.wav,./stim/wavs/cuban_match_declarative-broad-focus_Maria-bebe-el-vino.wav,./stim/wavs/mexican_match_declarative-broad-focus_Maria-bebe-el-vino.wav,./stim/wavs/peruvian_match_declarative-broad-focus_Maria-bebe-el-vino.wav,./stim/wavs/puertorican_match_declarative-broad-focus_Maria-bebe-el-vino.wav,,,,,,,,,,,,,,,,,,,,,,,,,,,,,,,,,,,,,,,,,,,,,,,,,,,,,,,,
,,,,,,,5bc5356e65cfb8000154bd82,60568611ec04488a9e9da93b,6056b28285ea58e34a1b1090,I am not familiar with Spanish,Northeast,NA,no,2021-03-20_22h42.59.338,empathy_intonation_perc,2020.2.10,Linux x86_64,60,,,,,,,,,,1,argentine,1,1,1.95032,0,56,56,59,1,60,./stim/wavs/andalusian_mismatch_interrogative-total-yn_La-maestra-vive-en-Paris.wav,./stim/wavs/argentine_mismatch_interrogative-total-yn_La-maestra-vive-en-Paris.wav,./stim/wavs/castilian_mismatch_interrogative-total-yn_La-maestra-vive-en-Paris.wav,./stim/wavs/chilean_mismatch_interrogative-total-yn_La-maestra-vive-en-Paris.wav,./stim/wavs/cuban_mismatch_interrogative-total-yn_La-maestra-vive-en-Paris.wav,./stim/wavs/mexican_mismatch_interrogative-total-yn_La-maestra-vive-en-Paris.wav,./stim/wavs/peruvian_mismatch_interrogative-total-yn_La-maestra-vive-en-Paris.wav,./stim/wavs/puertorican_mismatch_interrogative-total-yn_La-maestra-vive-en-Paris.wav,,,,,,,,,,,,,,,,,,,,,,,,,,,,,,,,,,,,,,,,,,,,,,,,,,,,,,,,
,,,,,,,5bc5356e65cfb8000154bd82,60568611ec04488a9e9da93b,6056b28285ea58e34a1b1090,I am not familiar with Spanish,Northeast,NA,no,2021-03-20_22h42.59.338,empathy_intonation_perc,2020.2.10,Linux x86_64,60,,,,,,,,,,0,puertorican,0,1,1.527905,0,57,57,6,1,7,./stim/wavs/andalusian_match_declarative-broad-focus_Mariano-habla-del-tiempo.wav,./stim/wavs/argentine_match_declarative-broad-focus_Mariano-habla-del-tiempo.wav,./stim/wavs/castilian_match_declarative-broad-focus_Mariano-habla-del-tiempo.wav,./stim/wavs/chilean_match_declarative-broad-focus_Mariano-habla-del-tiempo.wav,./stim/wavs/cuban_match_declarative-broad-focus_Mariano-habla-del-tiempo.wav,./stim/wavs/mexican_match_declarative-broad-focus_Mariano-habla-del-tiempo.wav,./stim/wavs/peruvian_match_declarative-broad-focus_Mariano-habla-del-tiempo.wav,./stim/wavs/puertorican_match_declarative-broad-focus_Mariano-habla-del-tiempo.wav,,,,,,,,,,,,,,,,,,,,,,,,,,,,,,,,,,,,,,,,,,,,,,,,,,,,,,,,
,,,,,,,5bc5356e65cfb8000154bd82,60568611ec04488a9e9da93b,6056b28285ea58e34a1b1090,I am not familiar with Spanish,Northeast,NA,no,2021-03-20_22h42.59.338,empathy_intonation_perc,2020.2.10,Linux x86_64,60,,,,,,,,,,0,peruvian,0,1,1.75031,0,58,58,12,1,13,./stim/wavs/andalusian_match_declarative-narrow-focus_Manuela-vende-el-carro.wav,./stim/wavs/argentine_match_declarative-narrow-focus_Manuela-vende-el-carro.wav,./stim/wavs/castilian_match_declarative-narrow-focus_Manuela-vende-el-carro.wav,./stim/wavs/chilean_match_declarative-narrow-focus_Manuela-vende-el-carro.wav,./stim/wavs/cuban_match_declarative-narrow-focus_Manuela-vende-el-carro.wav,./stim/wavs/mexican_match_declarative-narrow-focus_Manuela-vende-el-carro.wav,./stim/wavs/peruvian_match_declarative-narrow-focus_Manuela-vende-el-carro.wav,./stim/wavs/puertorican_match_declarative-narrow-focus_Manuela-vende-el-carro.wav,,,,,,,,,,,,,,,,,,,,,,,,,,,,,,,,,,,,,,,,,,,,,,,,,,,,,,,,
,,,,,,,5bc5356e65cfb8000154bd82,60568611ec04488a9e9da93b,6056b28285ea58e34a1b1090,I am not familiar with Spanish,Northeast,NA,no,2021-03-20_22h42.59.338,empathy_intonation_perc,2020.2.10,Linux x86_64,60,,,,,,,,,,0,cuban,0,1,1.600355,0,59,59,38,1,39,./stim/wavs/andalusian_mismatch_declarative-broad-focus_Mi-novio-viene-del-lago.wav,./stim/wavs/argentine_mismatch_declarative-broad-focus_Mi-novio-viene-del-lago.wav,./stim/wavs/castilian_mismatch_declarative-broad-focus_Mi-novio-viene-del-lago.wav,./stim/wavs/chilean_mismatch_declarative-broad-focus_Mi-novio-viene-del-lago.wav,./stim/wavs/cuban_mismatch_declarative-broad-focus_Mi-novio-viene-del-lago.wav,./stim/wavs/mexican_mismatch_declarative-broad-focus_Mi-novio-viene-del-lago.wav,./stim/wavs/peruvian_mismatch_declarative-broad-focus_Mi-novio-viene-del-lago.wav,./stim/wavs/puertorican_mismatch_declarative-broad-focus_Mi-novio-viene-del-lago.wav,,,,,,,,,,,,,,,,,,,,,,,,,,,,,,,,,,,,,,,,,,,,,,,,,,,,,,,,
,,,,,,,5bc5356e65cfb8000154bd82,60568611ec04488a9e9da93b,6056b28285ea58e34a1b1090,I am not familiar with Spanish,Northeast,NA,no,2021-03-20_22h42.59.338,empathy_intonation_perc,2020.2.10,Linux x86_64,60,,,,,,,,,,1,chilean,1,1,1.66647,0,60,60,18,1,19,./stim/wavs/andalusian_match_interrogative-partial-wh_Cuando-lleva-el-abrigo.wav,./stim/wavs/argentine_match_interrogative-partial-wh_Cuando-lleva-el-abrigo.wav,./stim/wavs/castilian_match_interrogative-partial-wh_Cuando-lleva-el-abrigo.wav,./stim/wavs/chilean_match_interrogative-partial-wh_Cuando-lleva-el-abrigo.wav,./stim/wavs/cuban_match_interrogative-partial-wh_Cuando-lleva-el-abrigo.wav,./stim/wavs/mexican_match_interrogative-partial-wh_Cuando-lleva-el-abrigo.wav,./stim/wavs/peruvian_match_interrogative-partial-wh_Cuando-lleva-el-abrigo.wav,./stim/wavs/puertorican_match_interrogative-partial-wh_Cuando-lleva-el-abrigo.wav,,,,,,,,,,,,,,,,,,,,,,,,,,,,,,,,,,,,,,,,,,,,,,,,,,,,,,,,
,,,,,,,5bc5356e65cfb8000154bd82,60568611ec04488a9e9da93b,6056b28285ea58e34a1b1090,I am not familiar with Spanish,Northeast,NA,no,2021-03-20_22h42.59.338,empathy_intonation_perc,2020.2.10,Linux x86_64,60,,,,,,,,,,0,argentine,0,1,1.314815,0,61,61,4,1,5,./stim/wavs/andalusian_match_declarative-broad-focus_Manuela-vende-el-carro.wav,./stim/wavs/argentine_match_declarative-broad-focus_Manuela-vende-el-carro.wav,./stim/wavs/castilian_match_declarative-broad-focus_Manuela-vende-el-carro.wav,./stim/wavs/chilean_match_declarative-broad-focus_Manuela-vende-el-carro.wav,./stim/wavs/cuban_match_declarative-broad-focus_Manuela-vende-el-carro.wav,./stim/wavs/mexican_match_declarative-broad-focus_Manuela-vende-el-carro.wav,./stim/wavs/peruvian_match_declarative-broad-focus_Manuela-vende-el-carro.wav,./stim/wavs/puertorican_match_declarative-broad-focus_Manuela-vende-el-carro.wav,,,,,,,,,,,,,,,,,,,,,,,,,,,,,,,,,,,,,,,,,,,,,,,,,,,,,,,,
,,,,,,,5bc5356e65cfb8000154bd82,60568611ec04488a9e9da93b,6056b28285ea58e34a1b1090,I am not familiar with Spanish,Northeast,NA,no,2021-03-20_22h42.59.338,empathy_intonation_perc,2020.2.10,Linux x86_64,60,,,,,,,,,,1,castilian,1,1,1.808385,0,62,62,48,1,49,./stim/wavs/andalusian_mismatch_interrogative-partial-wh_Cuando-comia-la-fruta.wav,./stim/wavs/argentine_mismatch_interrogative-partial-wh_Cuando-comia-la-fruta.wav,./stim/wavs/castilian_mismatch_interrogative-partial-wh_Cuando-comia-la-fruta.wav,./stim/wavs/chilean_mismatch_interrogative-partial-wh_Cuando-comia-la-fruta.wav,./stim/wavs/cuban_mismatch_interrogative-partial-wh_Cuando-comia-la-fruta.wav,./stim/wavs/mexican_mismatch_interrogative-partial-wh_Cuando-comia-la-fruta.wav,./stim/wavs/peruvian_mismatch_interrogative-partial-wh_Cuando-comia-la-fruta.wav,./stim/wavs/puertorican_mismatch_interrogative-partial-wh_Cuando-comia-la-fruta.wav,,,,,,,,,,,,,,,,,,,,,,,,,,,,,,,,,,,,,,,,,,,,,,,,,,,,,,,,
,,,,,,,5bc5356e65cfb8000154bd82,60568611ec04488a9e9da93b,6056b28285ea58e34a1b1090,I am not familiar with Spanish,Northeast,NA,no,2021-03-20_22h42.59.338,empathy_intonation_perc,2020.2.10,Linux x86_64,60,,,,,,,,,,0,mexican,0,1,2.00001,0,63,63,2,1,3,./stim/wavs/andalusian_match_declarative-broad-focus_David-leia-el-libro.wav,./stim/wavs/argentine_match_declarative-broad-focus_David-leia-el-libro.wav,./stim/wavs/castilian_match_declarative-broad-focus_David-leia-el-libro.wav,./stim/wavs/chilean_match_declarative-broad-focus_David-leia-el-libro.wav,./stim/wavs/cuban_match_declarative-broad-focus_David-leia-el-libro.wav,./stim/wavs/mexican_match_declarative-broad-focus_David-leia-el-libro.wav,./stim/wavs/peruvian_match_declarative-broad-focus_David-leia-el-libro.wav,./stim/wavs/puertorican_match_declarative-broad-focus_David-leia-el-libro.wav,,,,,,,,,,,,,,,,,,,,,,,,,,,,,,,,,,,,,,,,,,,,,,,,,,,,,,,,
,,,,,,,5bc5356e65cfb8000154bd82,60568611ec04488a9e9da93b,6056b28285ea58e34a1b1090,I am not familiar with Spanish,Northeast,NA,no,2021-03-20_22h42.59.338,empathy_intonation_perc,2020.2.10,Linux x86_64,60,,,,,,,,,,,,,,,,,,,,,,,,,,,,,h,1,7.04236,0,0,0,0,1,,,,,,,,,,,,,,,,,,,,,,,,,,,,,,,,,,,,,,,,,,,,,,,,
,,,,,"Great! Now we will move on. The next task consists of about 60 trials, in each of which you will see a string of letters. 
  
  Your task is to decide whether this is a real Spanish word or not.",(press the spacebar to continue),5bc5356e65cfb8000154bd82,60568611ec04488a9e9da93b,6056b28285ea58e34a1b1090,I am not familiar with Spanish,Northeast,NA,no,2021-03-20_22h42.59.338,empathy_intonation_perc,2020.2.10,Linux x86_64,60,,,,,,,,,,,,,,,,,,,,,,,,,,,,,,,,,,,,,0,0,0,0,1,,,,,,,,,,,,,,,,,,,,,,,,,,,,,,,,,,,,,,,,,,,
,,,,,"If you think it is an existing Spanish word, you type '1' (for 'REAL'), and if you think it is not an existing Spanish word, you type '0' (for 'FAKE').",(press the spacebar to continue),5bc5356e65cfb8000154bd82,60568611ec04488a9e9da93b,6056b28285ea58e34a1b1090,I am not familiar with Spanish,Northeast,NA,no,2021-03-20_22h42.59.338,empathy_intonation_perc,2020.2.10,Linux x86_64,60,,,,,,,,,,,,,,,,,,,,,,,,,,,,,,,,,,,,,0,1,1,1,1,,,,,,,,,,,,,,,,,,,,,,,,,,,,,,,,,,,,,,,,,,,
,,,,,"If you are sure that the word exists, even though you dont know its exact meaning, you may still respond '1' (REAL). 
  
  But if you are not sure if it is an existing word, you should respond '0' (FAKE).
  
  Let's do a practice round...",(press the spacebar to continue),5bc5356e65cfb8000154bd82,60568611ec04488a9e9da93b,6056b28285ea58e34a1b1090,I am not familiar with Spanish,Northeast,NA,no,2021-03-20_22h42.59.338,empathy_intonation_perc,2020.2.10,Linux x86_64,60,,,,,,,,,,,,,,,,,,,,,,,,,,,,,,,,,,,,,0,2,2,2,1,,,,,,,,,,,,,,,,,,,,,,,,,,,,,,,,,,,,,,,,,,,
,,,,,,,5bc5356e65cfb8000154bd82,60568611ec04488a9e9da93b,6056b28285ea58e34a1b1090,I am not familiar with Spanish,Northeast,NA,no,2021-03-20_22h42.59.338,empathy_intonation_perc,2020.2.10,Linux x86_64,60,,,,,,,,,,0,,,,,,,,,,,,,,,,,,,,,,,,,,,,,,,,1,0,3.1146,0,0,0,0,1,0,depiste,REAL,FAKE,,,,,,,,,,,,,,,,,,,,,,,,,,,,,,,
,,,,,,,5bc5356e65cfb8000154bd82,60568611ec04488a9e9da93b,6056b28285ea58e34a1b1090,I am not familiar with Spanish,Northeast,NA,no,2021-03-20_22h42.59.338,empathy_intonation_perc,2020.2.10,Linux x86_64,60,,,,,,,,,,1,,,,,,,,,,,,,,,,,,,,,,,,,,,,,,,,1,1,2.18612,0,1,1,1,1,0,s,REAL,FAKE,,,,,,,,,,,,,,,,,,,,,,,,,,,,,,,
,,,,,,,5bc5356e65cfb8000154bd82,60568611ec04488a9e9da93b,6056b28285ea58e34a1b1090,I am not familiar with Spanish,Northeast,NA,no,2021-03-20_22h42.59.338,empathy_intonation_perc,2020.2.10,Linux x86_64,60,,,,,,,,,,0,,,,,,,,,,,,,,,,,,,,,,,,,,,,,,,,1,0,1.597435,0,2,2,2,1,0,con,REAL,FAKE,,,,,,,,,,,,,,,,,,,,,,,,,,,,,,,
,,,,,,,5bc5356e65cfb8000154bd82,60568611ec04488a9e9da93b,6056b28285ea58e34a1b1090,I am not familiar with Spanish,Northeast,NA,no,2021-03-20_22h42.59.338,empathy_intonation_perc,2020.2.10,Linux x86_64,60,,,,,,,,,,0,,,,,,,,,,,,,,,,,,,,,,,,,,,,,,,,1,0,1.38398,0,3,3,3,1,0,calpar,REAL,FAKE,,,,,,,,,,,,,,,,,,,,,,,,,,,,,,,
,,,,,,,5bc5356e65cfb8000154bd82,60568611ec04488a9e9da93b,6056b28285ea58e34a1b1090,I am not familiar with Spanish,Northeast,NA,no,2021-03-20_22h42.59.338,empathy_intonation_perc,2020.2.10,Linux x86_64,60,,,,,,,,,,0,,,,,,,,,,,,,,,,,,,,,,,,,,,,,,,,0,1,2.23339,0,4,4,4,1,0,joten,REAL,FAKE,,,,,,,,,,,,,,,,,,,,,,,,,,,,,,,
,,,,,,,5bc5356e65cfb8000154bd82,60568611ec04488a9e9da93b,6056b28285ea58e34a1b1090,I am not familiar with Spanish,Northeast,NA,no,2021-03-20_22h42.59.338,empathy_intonation_perc,2020.2.10,Linux x86_64,60,,,,,,,,,,1,,,,,,,,,,,,,,,,,,,,,,,,,,,,,,,,1,1,4.16365,0,5,5,5,1,0,sacapuntas,REAL,FAKE,,,,,,,,,,,,,,,,,,,,,,,,,,,,,,,
,,,,,,,5bc5356e65cfb8000154bd82,60568611ec04488a9e9da93b,6056b28285ea58e34a1b1090,I am not familiar with Spanish,Northeast,NA,no,2021-03-20_22h42.59.338,empathy_intonation_perc,2020.2.10,Linux x86_64,60,,,,,,,,,,0,,,,,,,,,,,,,,,,,,,,,,,,,,,,,,,,1,0,1.286575,0,6,6,6,1,0,priba,REAL,FAKE,,,,,,,,,,,,,,,,,,,,,,,,,,,,,,,
,,,,,,,5bc5356e65cfb8000154bd82,60568611ec04488a9e9da93b,6056b28285ea58e34a1b1090,I am not familiar with Spanish,Northeast,NA,no,2021-03-20_22h42.59.338,empathy_intonation_perc,2020.2.10,Linux x86_64,60,,,,,,,,,,0,,,,,,,,,,,,,,,,,,,,,,,,,,,,,,,,1,0,1.79885,0,7,7,7,1,0,pelasula,REAL,FAKE,,,,,,,,,,,,,,,,,,,,,,,,,,,,,,,
,,,,,,,5bc5356e65cfb8000154bd82,60568611ec04488a9e9da93b,6056b28285ea58e34a1b1090,I am not familiar with Spanish,Northeast,NA,no,2021-03-20_22h42.59.338,empathy_intonation_perc,2020.2.10,Linux x86_64,60,,,,,,,,,,1,,,,,,,,,,,,,,,,,,,,,,,,,,,,,,,,1,1,0.918775,0,8,8,8,1,0,bien,REAL,FAKE,,,,,,,,,,,,,,,,,,,,,,,,,,,,,,,
,,,,,,,5bc5356e65cfb8000154bd82,60568611ec04488a9e9da93b,6056b28285ea58e34a1b1090,I am not familiar with Spanish,Northeast,NA,no,2021-03-20_22h42.59.338,empathy_intonation_perc,2020.2.10,Linux x86_64,60,,,,,,,,,,1,,,,,,,,,,,,,,,,,,,,,,,,,,,,,,,,1,1,0.66865,0,9,9,9,1,0,casa,REAL,FAKE,,,,,,,,,,,,,,,,,,,,,,,,,,,,,,,
,,,,,,,5bc5356e65cfb8000154bd82,60568611ec04488a9e9da93b,6056b28285ea58e34a1b1090,I am not familiar with Spanish,Northeast,NA,no,2021-03-20_22h42.59.338,empathy_intonation_perc,2020.2.10,Linux x86_64,60,,,,,,,,,,0,,,,,,,,,,,,,,,,,,,,,,,,,,,,,,,,1,0,0.682815,0,10,10,10,1,0,lejo,REAL,FAKE,,,,,,,,,,,,,,,,,,,,,,,,,,,,,,,
,,,,,,,5bc5356e65cfb8000154bd82,60568611ec04488a9e9da93b,6056b28285ea58e34a1b1090,I am not familiar with Spanish,Northeast,NA,no,2021-03-20_22h42.59.338,empathy_intonation_perc,2020.2.10,Linux x86_64,60,,,,,,,,,,0,,,,,,,,,,,,,,,,,,,,,,,,,,,,,,,,0,1,0.98106,0,11,11,11,1,0,pretantas,REAL,FAKE,,,,,,,,,,,,,,,,,,,,,,,,,,,,,,,
,,,,,,,5bc5356e65cfb8000154bd82,60568611ec04488a9e9da93b,6056b28285ea58e34a1b1090,I am not familiar with Spanish,Northeast,NA,no,2021-03-20_22h42.59.338,empathy_intonation_perc,2020.2.10,Linux x86_64,60,,,,,,,,,,1,,,,,,,,,,,,,,,,,,,,,,,,,,,,,,,,,,,,,,,,81,pozo,,,1,1,2.094465,0,0,0,80,1,REAL,FAKE,,,,,,,,,,,,,,,,,,,,,
,,,,,,,5bc5356e65cfb8000154bd82,60568611ec04488a9e9da93b,6056b28285ea58e34a1b1090,I am not familiar with Spanish,Northeast,NA,no,2021-03-20_22h42.59.338,empathy_intonation_perc,2020.2.10,Linux x86_64,60,,,,,,,,,,1,,,,,,,,,,,,,,,,,,,,,,,,,,,,,,,,,,,,,,,,65,bizcocho,,,0,0,4.196635,0,1,1,64,1,REAL,FAKE,,,,,,,,,,,,,,,,,,,,,
,,,,,,,5bc5356e65cfb8000154bd82,60568611ec04488a9e9da93b,6056b28285ea58e34a1b1090,I am not familiar with Spanish,Northeast,NA,no,2021-03-20_22h42.59.338,empathy_intonation_perc,2020.2.10,Linux x86_64,60,,,,,,,,,,1,,,,,,,,,,,,,,,,,,,,,,,,,,,,,,,,,,,,,,,,9,hacha,,,1,1,0.833595,0,2,2,8,1,REAL,FAKE,,,,,,,,,,,,,,,,,,,,,
,,,,,,,5bc5356e65cfb8000154bd82,60568611ec04488a9e9da93b,6056b28285ea58e34a1b1090,I am not familiar with Spanish,Northeast,NA,no,2021-03-20_22h42.59.338,empathy_intonation_perc,2020.2.10,Linux x86_64,60,,,,,,,,,,1,,,,,,,,,,,,,,,,,,,,,,,,,,,,,,,,,,,,,,,,75,yacer,,,1,1,1.59595,0,3,3,74,1,REAL,FAKE,,,,,,,,,,,,,,,,,,,,,
,,,,,,,5bc5356e65cfb8000154bd82,60568611ec04488a9e9da93b,6056b28285ea58e34a1b1090,I am not familiar with Spanish,Northeast,NA,no,2021-03-20_22h42.59.338,empathy_intonation_perc,2020.2.10,Linux x86_64,60,,,,,,,,,,1,,,,,,,,,,,,,,,,,,,,,,,,,,,,,,,,,,,,,,,,90,clavel,,,1,1,2.21647,0,4,4,89,1,REAL,FAKE,,,,,,,,,,,,,,,,,,,,,
,,,,,,,5bc5356e65cfb8000154bd82,60568611ec04488a9e9da93b,6056b28285ea58e34a1b1090,I am not familiar with Spanish,Northeast,NA,no,2021-03-20_22h42.59.338,empathy_intonation_perc,2020.2.10,Linux x86_64,60,,,,,,,,,,1,,,,,,,,,,,,,,,,,,,,,,,,,,,,,,,,,,,,,,,,80,hormiga,,,0,0,2.46479,0,5,5,79,1,REAL,FAKE,,,,,,,,,,,,,,,,,,,,,
,,,,,,,5bc5356e65cfb8000154bd82,60568611ec04488a9e9da93b,6056b28285ea58e34a1b1090,I am not familiar with Spanish,Northeast,NA,no,2021-03-20_22h42.59.338,empathy_intonation_perc,2020.2.10,Linux x86_64,60,,,,,,,,,,0,,,,,,,,,,,,,,,,,,,,,,,,,,,,,,,,,,,,,,,,72,pemicin,,,1,0,4.314975,0,6,6,71,1,REAL,FAKE,,,,,,,,,,,,,,,,,,,,,
,,,,,,,5bc5356e65cfb8000154bd82,60568611ec04488a9e9da93b,6056b28285ea58e34a1b1090,I am not familiar with Spanish,Northeast,NA,no,2021-03-20_22h42.59.338,empathy_intonation_perc,2020.2.10,Linux x86_64,60,,,,,,,,,,0,,,,,,,,,,,,,,,,,,,,,,,,,,,,,,,,,,,,,,,,50,flamida,,,1,0,2.33302,0,7,7,49,1,REAL,FAKE,,,,,,,,,,,,,,,,,,,,,
,,,,,,,5bc5356e65cfb8000154bd82,60568611ec04488a9e9da93b,6056b28285ea58e34a1b1090,I am not familiar with Spanish,Northeast,NA,no,2021-03-20_22h42.59.338,empathy_intonation_perc,2020.2.10,Linux x86_64,60,,,,,,,,,,0,,,,,,,,,,,,,,,,,,,,,,,,,,,,,,,,,,,,,,,,27,acutacin,,,1,0,2.31425,0,8,8,26,1,REAL,FAKE,,,,,,,,,,,,,,,,,,,,,
,,,,,,,5bc5356e65cfb8000154bd82,60568611ec04488a9e9da93b,6056b28285ea58e34a1b1090,I am not familiar with Spanish,Northeast,NA,no,2021-03-20_22h42.59.338,empathy_intonation_perc,2020.2.10,Linux x86_64,60,,,,,,,,,,1,,,,,,,,,,,,,,,,,,,,,,,,,,,,,,,,,,,,,,,,36,loro,,,1,1,1.948515,0,9,9,35,1,REAL,FAKE,,,,,,,,,,,,,,,,,,,,,
,,,,,,,5bc5356e65cfb8000154bd82,60568611ec04488a9e9da93b,6056b28285ea58e34a1b1090,I am not familiar with Spanish,Northeast,NA,no,2021-03-20_22h42.59.338,empathy_intonation_perc,2020.2.10,Linux x86_64,60,,,,,,,,,,0,,,,,,,,,,,,,,,,,,,,,,,,,,,,,,,,,,,,,,,,4,batilln,,,1,0,2.731845,0,10,10,3,1,REAL,FAKE,,,,,,,,,,,,,,,,,,,,,
,,,,,,,5bc5356e65cfb8000154bd82,60568611ec04488a9e9da93b,6056b28285ea58e34a1b1090,I am not familiar with Spanish,Northeast,NA,no,2021-03-20_22h42.59.338,empathy_intonation_perc,2020.2.10,Linux x86_64,60,,,,,,,,,,0,,,,,,,,,,,,,,,,,,,,,,,,,,,,,,,,,,,,,,,,47,cartinar,,,0,1,3.78602,0,11,11,46,1,REAL,FAKE,,,,,,,,,,,,,,,,,,,,,
,,,,,,,5bc5356e65cfb8000154bd82,60568611ec04488a9e9da93b,6056b28285ea58e34a1b1090,I am not familiar with Spanish,Northeast,NA,no,2021-03-20_22h42.59.338,empathy_intonation_perc,2020.2.10,Linux x86_64,60,,,,,,,,,,0,,,,,,,,,,,,,,,,,,,,,,,,,,,,,,,,,,,,,,,,53,vegada,,,1,0,2.11881,0,12,12,52,1,REAL,FAKE,,,,,,,,,,,,,,,,,,,,,
,,,,,,,5bc5356e65cfb8000154bd82,60568611ec04488a9e9da93b,6056b28285ea58e34a1b1090,I am not familiar with Spanish,Northeast,NA,no,2021-03-20_22h42.59.338,empathy_intonation_perc,2020.2.10,Linux x86_64,60,,,,,,,,,,0,,,,,,,,,,,,,,,,,,,,,,,,,,,,,,,,,,,,,,,,10,antar,,,1,0,1.198315,0,13,13,9,1,REAL,FAKE,,,,,,,,,,,,,,,,,,,,,
,,,,,,,5bc5356e65cfb8000154bd82,60568611ec04488a9e9da93b,6056b28285ea58e34a1b1090,I am not familiar with Spanish,Northeast,NA,no,2021-03-20_22h42.59.338,empathy_intonation_perc,2020.2.10,Linux x86_64,60,,,,,,,,,,0,,,,,,,,,,,,,,,,,,,,,,,,,,,,,,,,,,,,,,,,79,tropaje,,,1,0,3.19769,0,14,14,78,1,REAL,FAKE,,,,,,,,,,,,,,,,,,,,,
,,,,,,,5bc5356e65cfb8000154bd82,60568611ec04488a9e9da93b,6056b28285ea58e34a1b1090,I am not familiar with Spanish,Northeast,NA,no,2021-03-20_22h42.59.338,empathy_intonation_perc,2020.2.10,Linux x86_64,60,,,,,,,,,,1,,,,,,,,,,,,,,,,,,,,,,,,,,,,,,,,,,,,,,,,51,candado,,,1,1,1.481315,0,15,15,50,1,REAL,FAKE,,,,,,,,,,,,,,,,,,,,,
,,,,,,,5bc5356e65cfb8000154bd82,60568611ec04488a9e9da93b,6056b28285ea58e34a1b1090,I am not familiar with Spanish,Northeast,NA,no,2021-03-20_22h42.59.338,empathy_intonation_perc,2020.2.10,Linux x86_64,60,,,,,,,,,,1,,,,,,,,,,,,,,,,,,,,,,,,,,,,,,,,,,,,,,,,45,jilguero,,,0,0,2.632285,0,16,16,44,1,REAL,FAKE,,,,,,,,,,,,,,,,,,,,,
,,,,,,,5bc5356e65cfb8000154bd82,60568611ec04488a9e9da93b,6056b28285ea58e34a1b1090,I am not familiar with Spanish,Northeast,NA,no,2021-03-20_22h42.59.338,empathy_intonation_perc,2020.2.10,Linux x86_64,60,,,,,,,,,,1,,,,,,,,,,,,,,,,,,,,,,,,,,,,,,,,,,,,,,,,3,pulmones,,,1,1,2.44807,0,17,17,2,1,REAL,FAKE,,,,,,,,,,,,,,,,,,,,,
,,,,,,,5bc5356e65cfb8000154bd82,60568611ec04488a9e9da93b,6056b28285ea58e34a1b1090,I am not familiar with Spanish,Northeast,NA,no,2021-03-20_22h42.59.338,empathy_intonation_perc,2020.2.10,Linux x86_64,60,,,,,,,,,,0,,,,,,,,,,,,,,,,,,,,,,,,,,,,,,,,,,,,,,,,19,brecedad,,,1,0,2.34712,0,18,18,18,1,REAL,FAKE,,,,,,,,,,,,,,,,,,,,,
,,,,,,,5bc5356e65cfb8000154bd82,60568611ec04488a9e9da93b,6056b28285ea58e34a1b1090,I am not familiar with Spanish,Northeast,NA,no,2021-03-20_22h42.59.338,empathy_intonation_perc,2020.2.10,Linux x86_64,60,,,,,,,,,,1,,,,,,,,,,,,,,,,,,,,,,,,,,,,,,,,,,,,,,,,12,asesinato,,,1,1,4.029025,0,19,19,11,1,REAL,FAKE,,,,,,,,,,,,,,,,,,,,,
,,,,,,,5bc5356e65cfb8000154bd82,60568611ec04488a9e9da93b,6056b28285ea58e34a1b1090,I am not familiar with Spanish,Northeast,NA,no,2021-03-20_22h42.59.338,empathy_intonation_perc,2020.2.10,Linux x86_64,60,,,,,,,,,,1,,,,,,,,,,,,,,,,,,,,,,,,,,,,,,,,,,,,,,,,13,helar,,,1,1,0.916605,0,20,20,12,1,REAL,FAKE,,,,,,,,,,,,,,,,,,,,,
,,,,,,,5bc5356e65cfb8000154bd82,60568611ec04488a9e9da93b,6056b28285ea58e34a1b1090,I am not familiar with Spanish,Northeast,NA,no,2021-03-20_22h42.59.338,empathy_intonation_perc,2020.2.10,Linux x86_64,60,,,,,,,,,,0,,,,,,,,,,,,,,,,,,,,,,,,,,,,,,,,,,,,,,,,8,cadea,,,1,0,2.194865,0,21,21,7,1,REAL,FAKE,,,,,,,,,,,,,,,,,,,,,
,,,,,,,5bc5356e65cfb8000154bd82,60568611ec04488a9e9da93b,6056b28285ea58e34a1b1090,I am not familiar with Spanish,Northeast,NA,no,2021-03-20_22h42.59.338,empathy_intonation_perc,2020.2.10,Linux x86_64,60,,,,,,,,,,0,,,,,,,,,,,,,,,,,,,,,,,,,,,,,,,,,,,,,,,,16,abracer,,,1,0,1.698935,0,22,22,15,1,REAL,FAKE,,,,,,,,,,,,,,,,,,,,,
,,,,,,,5bc5356e65cfb8000154bd82,60568611ec04488a9e9da93b,6056b28285ea58e34a1b1090,I am not familiar with Spanish,Northeast,NA,no,2021-03-20_22h42.59.338,empathy_intonation_perc,2020.2.10,Linux x86_64,60,,,,,,,,,,1,,,,,,,,,,,,,,,,,,,,,,,,,,,,,,,,,,,,,,,,67,cabello,,,1,1,0.81524,0,23,23,66,1,REAL,FAKE,,,,,,,,,,,,,,,,,,,,,
,,,,,,,5bc5356e65cfb8000154bd82,60568611ec04488a9e9da93b,6056b28285ea58e34a1b1090,I am not familiar with Spanish,Northeast,NA,no,2021-03-20_22h42.59.338,empathy_intonation_perc,2020.2.10,Linux x86_64,60,,,,,,,,,,1,,,,,,,,,,,,,,,,,,,,,,,,,,,,,,,,,,,,,,,,73,hervidor,,,0,0,3.096345,0,24,24,72,1,REAL,FAKE,,,,,,,,,,,,,,,,,,,,,
,,,,,,,5bc5356e65cfb8000154bd82,60568611ec04488a9e9da93b,6056b28285ea58e34a1b1090,I am not familiar with Spanish,Northeast,NA,no,2021-03-20_22h42.59.338,empathy_intonation_perc,2020.2.10,Linux x86_64,60,,,,,,,,,,1,,,,,,,,,,,,,,,,,,,,,,,,,,,,,,,,,,,,,,,,76,atar,,,1,1,1.0544,0,25,25,75,1,REAL,FAKE,,,,,,,,,,,,,,,,,,,,,
,,,,,,,5bc5356e65cfb8000154bd82,60568611ec04488a9e9da93b,6056b28285ea58e34a1b1090,I am not familiar with Spanish,Northeast,NA,no,2021-03-20_22h42.59.338,empathy_intonation_perc,2020.2.10,Linux x86_64,60,,,,,,,,,,1,,,,,,,,,,,,,,,,,,,,,,,,,,,,,,,,,,,,,,,,20,vido,,,1,1,1.352275,0,26,26,19,1,REAL,FAKE,,,,,,,,,,,,,,,,,,,,,
,,,,,,,5bc5356e65cfb8000154bd82,60568611ec04488a9e9da93b,6056b28285ea58e34a1b1090,I am not familiar with Spanish,Northeast,NA,no,2021-03-20_22h42.59.338,empathy_intonation_perc,2020.2.10,Linux x86_64,60,,,,,,,,,,1,,,,,,,,,,,,,,,,,,,,,,,,,,,,,,,,,,,,,,,,54,fomentar,,,1,1,2.01387,0,27,27,53,1,REAL,FAKE,,,,,,,,,,,,,,,,,,,,,
,,,,,,,5bc5356e65cfb8000154bd82,60568611ec04488a9e9da93b,6056b28285ea58e34a1b1090,I am not familiar with Spanish,Northeast,NA,no,2021-03-20_22h42.59.338,empathy_intonation_perc,2020.2.10,Linux x86_64,60,,,,,,,,,,1,,,,,,,,,,,,,,,,,,,,,,,,,,,,,,,,,,,,,,,,28,merodear,,,0,0,1.78045,0,28,28,27,1,REAL,FAKE,,,,,,,,,,,,,,,,,,,,,
,,,,,,,5bc5356e65cfb8000154bd82,60568611ec04488a9e9da93b,6056b28285ea58e34a1b1090,I am not familiar with Spanish,Northeast,NA,no,2021-03-20_22h42.59.338,empathy_intonation_perc,2020.2.10,Linux x86_64,60,,,,,,,,,,0,,,,,,,,,,,,,,,,,,,,,,,,,,,,,,,,,,,,,,,,74,cintro,,,1,0,3.84894,0,29,29,73,1,REAL,FAKE,,,,,,,,,,,,,,,,,,,,,
,,,,,,,5bc5356e65cfb8000154bd82,60568611ec04488a9e9da93b,6056b28285ea58e34a1b1090,I am not familiar with Spanish,Northeast,NA,no,2021-03-20_22h42.59.338,empathy_intonation_perc,2020.2.10,Linux x86_64,60,,,,,,,,,,1,,,,,,,,,,,,,,,,,,,,,,,,,,,,,,,,,,,,,,,,6,tergiversar,,,0,0,1.864445,0,30,30,5,1,REAL,FAKE,,,,,,,,,,,,,,,,,,,,,
,,,,,,,5bc5356e65cfb8000154bd82,60568611ec04488a9e9da93b,6056b28285ea58e34a1b1090,I am not familiar with Spanish,Northeast,NA,no,2021-03-20_22h42.59.338,empathy_intonation_perc,2020.2.10,Linux x86_64,60,,,,,,,,,,1,,,,,,,,,,,,,,,,,,,,,,,,,,,,,,,,,,,,,,,,77,tiburn,,,1,1,2.68151,0,31,31,76,1,REAL,FAKE,,,,,,,,,,,,,,,,,,,,,
,,,,,,,5bc5356e65cfb8000154bd82,60568611ec04488a9e9da93b,6056b28285ea58e34a1b1090,I am not familiar with Spanish,Northeast,NA,no,2021-03-20_22h42.59.338,empathy_intonation_perc,2020.2.10,Linux x86_64,60,,,,,,,,,,1,,,,,,,,,,,,,,,,,,,,,,,,,,,,,,,,,,,,,,,,40,alfombra,,,0,0,2.365355,0,32,32,39,1,REAL,FAKE,,,,,,,,,,,,,,,,,,,,,
,,,,,,,5bc5356e65cfb8000154bd82,60568611ec04488a9e9da93b,6056b28285ea58e34a1b1090,I am not familiar with Spanish,Northeast,NA,no,2021-03-20_22h42.59.338,empathy_intonation_perc,2020.2.10,Linux x86_64,60,,,,,,,,,,1,,,,,,,,,,,,,,,,,,,,,,,,,,,,,,,,,,,,,,,,56,musgo,,,0,0,1.33154,0,33,33,55,1,REAL,FAKE,,,,,,,,,,,,,,,,,,,,,
,,,,,,,5bc5356e65cfb8000154bd82,60568611ec04488a9e9da93b,6056b28285ea58e34a1b1090,I am not familiar with Spanish,Northeast,NA,no,2021-03-20_22h42.59.338,empathy_intonation_perc,2020.2.10,Linux x86_64,60,,,,,,,,,,1,,,,,,,,,,,,,,,,,,,,,,,,,,,,,,,,,,,,,,,,68,alegre,,,1,1,1.531605,0,34,34,67,1,REAL,FAKE,,,,,,,,,,,,,,,,,,,,,
,,,,,,,5bc5356e65cfb8000154bd82,60568611ec04488a9e9da93b,6056b28285ea58e34a1b1090,I am not familiar with Spanish,Northeast,NA,no,2021-03-20_22h42.59.338,empathy_intonation_perc,2020.2.10,Linux x86_64,60,,,,,,,,,,1,,,,,,,,,,,,,,,,,,,,,,,,,,,,,,,,,,,,,,,,61,seda,,,1,1,1.049915,0,35,35,60,1,REAL,FAKE,,,,,,,,,,,,,,,,,,,,,
,,,,,,,5bc5356e65cfb8000154bd82,60568611ec04488a9e9da93b,6056b28285ea58e34a1b1090,I am not familiar with Spanish,Northeast,NA,no,2021-03-20_22h42.59.338,empathy_intonation_perc,2020.2.10,Linux x86_64,60,,,,,,,,,,0,,,,,,,,,,,,,,,,,,,,,,,,,,,,,,,,,,,,,,,,29,decar,,,1,0,1.69824,0,36,36,28,1,REAL,FAKE,,,,,,,,,,,,,,,,,,,,,
,,,,,,,5bc5356e65cfb8000154bd82,60568611ec04488a9e9da93b,6056b28285ea58e34a1b1090,I am not familiar with Spanish,Northeast,NA,no,2021-03-20_22h42.59.338,empathy_intonation_perc,2020.2.10,Linux x86_64,60,,,,,,,,,,1,,,,,,,,,,,,,,,,,,,,,,,,,,,,,,,,,,,,,,,,86,barato,,,1,1,1.783805,0,37,37,85,1,REAL,FAKE,,,,,,,,,,,,,,,,,,,,,
,,,,,,,5bc5356e65cfb8000154bd82,60568611ec04488a9e9da93b,6056b28285ea58e34a1b1090,I am not familiar with Spanish,Northeast,NA,no,2021-03-20_22h42.59.338,empathy_intonation_perc,2020.2.10,Linux x86_64,60,,,,,,,,,,1,,,,,,,,,,,,,,,,,,,,,,,,,,,,,,,,,,,,,,,,49,ganar,,,1,1,1.53044,0,38,38,48,1,REAL,FAKE,,,,,,,,,,,,,,,,,,,,,
,,,,,,,5bc5356e65cfb8000154bd82,60568611ec04488a9e9da93b,6056b28285ea58e34a1b1090,I am not familiar with Spanish,Northeast,NA,no,2021-03-20_22h42.59.338,empathy_intonation_perc,2020.2.10,Linux x86_64,60,,,,,,,,,,0,,,,,,,,,,,,,,,,,,,,,,,,,,,,,,,,,,,,,,,,66,hacido,,,1,0,0.997535,0,39,39,65,1,REAL,FAKE,,,,,,,,,,,,,,,,,,,,,
,,,,,,,5bc5356e65cfb8000154bd82,60568611ec04488a9e9da93b,6056b28285ea58e34a1b1090,I am not familiar with Spanish,Northeast,NA,no,2021-03-20_22h42.59.338,empathy_intonation_perc,2020.2.10,Linux x86_64,60,,,,,,,,,,1,,,,,,,,,,,,,,,,,,,,,,,,,,,,,,,,,,,,,,,,5,zapato,,,1,1,0.79824,0,40,40,4,1,REAL,FAKE,,,,,,,,,,,,,,,,,,,,,
,,,,,,,5bc5356e65cfb8000154bd82,60568611ec04488a9e9da93b,6056b28285ea58e34a1b1090,I am not familiar with Spanish,Northeast,NA,no,2021-03-20_22h42.59.338,empathy_intonation_perc,2020.2.10,Linux x86_64,60,,,,,,,,,,0,,,,,,,,,,,,,,,,,,,,,,,,,,,,,,,,,,,,,,,,87,grodo,,,0,1,1.333515,0,41,41,86,1,REAL,FAKE,,,,,,,,,,,,,,,,,,,,,
,,,,,,,5bc5356e65cfb8000154bd82,60568611ec04488a9e9da93b,6056b28285ea58e34a1b1090,I am not familiar with Spanish,Northeast,NA,no,2021-03-20_22h42.59.338,empathy_intonation_perc,2020.2.10,Linux x86_64,60,,,,,,,,,,1,,,,,,,,,,,,,,,,,,,,,,,,,,,,,,,,,,,,,,,,85,lad,,,0,0,2.13123,0,42,42,84,1,REAL,FAKE,,,,,,,,,,,,,,,,,,,,,
,,,,,,,5bc5356e65cfb8000154bd82,60568611ec04488a9e9da93b,6056b28285ea58e34a1b1090,I am not familiar with Spanish,Northeast,NA,no,2021-03-20_22h42.59.338,empathy_intonation_perc,2020.2.10,Linux x86_64,60,,,,,,,,,,0,,,,,,,,,,,,,,,,,,,,,,,,,,,,,,,,,,,,,,,,42,cadallo,,,0,1,3.596335,0,43,43,41,1,REAL,FAKE,,,,,,,,,,,,,,,,,,,,,
,,,,,,,5bc5356e65cfb8000154bd82,60568611ec04488a9e9da93b,6056b28285ea58e34a1b1090,I am not familiar with Spanish,Northeast,NA,no,2021-03-20_22h42.59.338,empathy_intonation_perc,2020.2.10,Linux x86_64,60,,,,,,,,,,1,,,,,,,,,,,,,,,,,,,,,,,,,,,,,,,,,,,,,,,,71,polvoriento,,,0,0,2.08368,0,44,44,70,1,REAL,FAKE,,,,,,,,,,,,,,,,,,,,,
,,,,,,,5bc5356e65cfb8000154bd82,60568611ec04488a9e9da93b,6056b28285ea58e34a1b1090,I am not familiar with Spanish,Northeast,NA,no,2021-03-20_22h42.59.338,empathy_intonation_perc,2020.2.10,Linux x86_64,60,,,,,,,,,,1,,,,,,,,,,,,,,,,,,,,,,,,,,,,,,,,,,,,,,,,38,estornudar,,,0,0,2.26534,0,45,45,37,1,REAL,FAKE,,,,,,,,,,,,,,,,,,,,,
,,,,,,,5bc5356e65cfb8000154bd82,60568611ec04488a9e9da93b,6056b28285ea58e34a1b1090,I am not familiar with Spanish,Northeast,NA,no,2021-03-20_22h42.59.338,empathy_intonation_perc,2020.2.10,Linux x86_64,60,,,,,,,,,,1,,,,,,,,,,,,,,,,,,,,,,,,,,,,,,,,,,,,,,,,83,guante,,,1,1,1.40006,0,46,46,82,1,REAL,FAKE,,,,,,,,,,,,,,,,,,,,,
,,,,,,,5bc5356e65cfb8000154bd82,60568611ec04488a9e9da93b,6056b28285ea58e34a1b1090,I am not familiar with Spanish,Northeast,NA,no,2021-03-20_22h42.59.338,empathy_intonation_perc,2020.2.10,Linux x86_64,60,,,,,,,,,,1,,,,,,,,,,,,,,,,,,,,,,,,,,,,,,,,,,,,,,,,2,pellizcar,,,1,1,1.03167,0,47,47,1,1,REAL,FAKE,,,,,,,,,,,,,,,,,,,,,
,,,,,,,5bc5356e65cfb8000154bd82,60568611ec04488a9e9da93b,6056b28285ea58e34a1b1090,I am not familiar with Spanish,Northeast,NA,no,2021-03-20_22h42.59.338,empathy_intonation_perc,2020.2.10,Linux x86_64,60,,,,,,,,,,1,,,,,,,,,,,,,,,,,,,,,,,,,,,,,,,,,,,,,,,,24,ltigo,,,1,1,1.532625,0,48,48,23,1,REAL,FAKE,,,,,,,,,,,,,,,,,,,,,
,,,,,,,5bc5356e65cfb8000154bd82,60568611ec04488a9e9da93b,6056b28285ea58e34a1b1090,I am not familiar with Spanish,Northeast,NA,no,2021-03-20_22h42.59.338,empathy_intonation_perc,2020.2.10,Linux x86_64,60,,,,,,,,,,0,,,,,,,,,,,,,,,,,,,,,,,,,,,,,,,,,,,,,,,,23,lampera,,,1,0,2.081445,0,49,49,22,1,REAL,FAKE,,,,,,,,,,,,,,,,,,,,,
,,,,,,,5bc5356e65cfb8000154bd82,60568611ec04488a9e9da93b,6056b28285ea58e34a1b1090,I am not familiar with Spanish,Northeast,NA,no,2021-03-20_22h42.59.338,empathy_intonation_perc,2020.2.10,Linux x86_64,60,,,,,,,,,,1,,,,,,,,,,,,,,,,,,,,,,,,,,,,,,,,,,,,,,,,69,engatusar,,,0,0,1.500535,0,50,50,68,1,REAL,FAKE,,,,,,,,,,,,,,,,,,,,,
,,,,,,,5bc5356e65cfb8000154bd82,60568611ec04488a9e9da93b,6056b28285ea58e34a1b1090,I am not familiar with Spanish,Northeast,NA,no,2021-03-20_22h42.59.338,empathy_intonation_perc,2020.2.10,Linux x86_64,60,,,,,,,,,,1,,,,,,,,,,,,,,,,,,,,,,,,,,,,,,,,,,,,,,,,39,torpe,,,1,1,1.033045,0,51,51,38,1,REAL,FAKE,,,,,,,,,,,,,,,,,,,,,
,,,,,,,5bc5356e65cfb8000154bd82,60568611ec04488a9e9da93b,6056b28285ea58e34a1b1090,I am not familiar with Spanish,Northeast,NA,no,2021-03-20_22h42.59.338,empathy_intonation_perc,2020.2.10,Linux x86_64,60,,,,,,,,,,1,,,,,,,,,,,,,,,,,,,,,,,,,,,,,,,,,,,,,,,,11,cenefa,,,0,0,1.731115,0,52,52,10,1,REAL,FAKE,,,,,,,,,,,,,,,,,,,,,
,,,,,,,5bc5356e65cfb8000154bd82,60568611ec04488a9e9da93b,6056b28285ea58e34a1b1090,I am not familiar with Spanish,Northeast,NA,no,2021-03-20_22h42.59.338,empathy_intonation_perc,2020.2.10,Linux x86_64,60,,,,,,,,,,1,,,,,,,,,,,,,,,,,,,,,,,,,,,,,,,,,,,,,,,,55,nevar,,,1,1,1.53069,0,53,53,54,1,REAL,FAKE,,,,,,,,,,,,,,,,,,,,,
,,,,,,,5bc5356e65cfb8000154bd82,60568611ec04488a9e9da93b,6056b28285ea58e34a1b1090,I am not familiar with Spanish,Northeast,NA,no,2021-03-20_22h42.59.338,empathy_intonation_perc,2020.2.10,Linux x86_64,60,,,,,,,,,,0,,,,,,,,,,,,,,,,,,,,,,,,,,,,,,,,,,,,,,,,21,capillo,,,1,0,4.68181,0,54,54,20,1,REAL,FAKE,,,,,,,,,,,,,,,,,,,,,
,,,,,,,5bc5356e65cfb8000154bd82,60568611ec04488a9e9da93b,6056b28285ea58e34a1b1090,I am not familiar with Spanish,Northeast,NA,no,2021-03-20_22h42.59.338,empathy_intonation_perc,2020.2.10,Linux x86_64,60,,,,,,,,,,1,,,,,,,,,,,,,,,,,,,,,,,,,,,,,,,,,,,,,,,,59,besar,,,1,1,0.817745,0,55,55,58,1,REAL,FAKE,,,,,,,,,,,,,,,,,,,,,
,,,,,,,5bc5356e65cfb8000154bd82,60568611ec04488a9e9da93b,6056b28285ea58e34a1b1090,I am not familiar with Spanish,Northeast,NA,no,2021-03-20_22h42.59.338,empathy_intonation_perc,2020.2.10,Linux x86_64,60,,,,,,,,,,0,,,,,,,,,,,,,,,,,,,,,,,,,,,,,,,,,,,,,,,,1,terzo,,,1,0,1.147475,0,56,56,0,1,REAL,FAKE,,,,,,,,,,,,,,,,,,,,,
,,,,,,,5bc5356e65cfb8000154bd82,60568611ec04488a9e9da93b,6056b28285ea58e34a1b1090,I am not familiar with Spanish,Northeast,NA,no,2021-03-20_22h42.59.338,empathy_intonation_perc,2020.2.10,Linux x86_64,60,,,,,,,,,,0,,,,,,,,,,,,,,,,,,,,,,,,,,,,,,,,,,,,,,,,84,escuto,,,1,0,0.89655,0,57,57,83,1,REAL,FAKE,,,,,,,,,,,,,,,,,,,,,
,,,,,,,5bc5356e65cfb8000154bd82,60568611ec04488a9e9da93b,6056b28285ea58e34a1b1090,I am not familiar with Spanish,Northeast,NA,no,2021-03-20_22h42.59.338,empathy_intonation_perc,2020.2.10,Linux x86_64,60,,,,,,,,,,1,,,,,,,,,,,,,,,,,,,,,,,,,,,,,,,,,,,,,,,,46,martillo,,,0,0,2.8921,0,58,58,45,1,REAL,FAKE,,,,,,,,,,,,,,,,,,,,,
,,,,,,,5bc5356e65cfb8000154bd82,60568611ec04488a9e9da93b,6056b28285ea58e34a1b1090,I am not familiar with Spanish,Northeast,NA,no,2021-03-20_22h42.59.338,empathy_intonation_perc,2020.2.10,Linux x86_64,60,,,,,,,,,,0,,,,,,,,,,,,,,,,,,,,,,,,,,,,,,,,,,,,,,,,33,pauca,,,0,1,1.915825,0,59,59,32,1,REAL,FAKE,,,,,,,,,,,,,,,,,,,,,
,,,,,,,5bc5356e65cfb8000154bd82,60568611ec04488a9e9da93b,6056b28285ea58e34a1b1090,I am not familiar with Spanish,Northeast,NA,no,2021-03-20_22h42.59.338,empathy_intonation_perc,2020.2.10,Linux x86_64,60,,,,,,,,,,1,,,,,,,,,,,,,,,,,,,,,,,,,,,,,,,,,,,,,,,,15,regar,,,1,1,0.78282,0,60,60,14,1,REAL,FAKE,,,,,,,,,,,,,,,,,,,,,
,,,,,,,5bc5356e65cfb8000154bd82,60568611ec04488a9e9da93b,6056b28285ea58e34a1b1090,I am not familiar with Spanish,Northeast,NA,no,2021-03-20_22h42.59.338,empathy_intonation_perc,2020.2.10,Linux x86_64,60,,,,,,,,,,1,,,,,,,,,,,,,,,,,,,,,,,,,,,,,,,,,,,,,,,,14,yunque,,,0,0,1.932855,0,61,61,13,1,REAL,FAKE,,,,,,,,,,,,,,,,,,,,,
,,,,,,,5bc5356e65cfb8000154bd82,60568611ec04488a9e9da93b,6056b28285ea58e34a1b1090,I am not familiar with Spanish,Northeast,NA,no,2021-03-20_22h42.59.338,empathy_intonation_perc,2020.2.10,Linux x86_64,60,,,,,,,,,,0,,,,,,,,,,,,,,,,,,,,,,,,,,,,,,,,,,,,,,,,30,alardio,,,0,1,2.71421,0,62,62,29,1,REAL,FAKE,,,,,,,,,,,,,,,,,,,,,
,,,,,,,5bc5356e65cfb8000154bd82,60568611ec04488a9e9da93b,6056b28285ea58e34a1b1090,I am not familiar with Spanish,Northeast,NA,no,2021-03-20_22h42.59.338,empathy_intonation_perc,2020.2.10,Linux x86_64,60,,,,,,,,,,0,,,,,,,,,,,,,,,,,,,,,,,,,,,,,,,,,,,,,,,,82,empirador,,,1,0,1.06679,0,63,63,81,1,REAL,FAKE,,,,,,,,,,,,,,,,,,,,,
,,,,,,,5bc5356e65cfb8000154bd82,60568611ec04488a9e9da93b,6056b28285ea58e34a1b1090,I am not familiar with Spanish,Northeast,NA,no,2021-03-20_22h42.59.338,empathy_intonation_perc,2020.2.10,Linux x86_64,60,,,,,,,,,,1,,,,,,,,,,,,,,,,,,,,,,,,,,,,,,,,,,,,,,,,25,bisagra,,,0,0,4.865265,0,64,64,24,1,REAL,FAKE,,,,,,,,,,,,,,,,,,,,,
,,,,,,,5bc5356e65cfb8000154bd82,60568611ec04488a9e9da93b,6056b28285ea58e34a1b1090,I am not familiar with Spanish,Northeast,NA,no,2021-03-20_22h42.59.338,empathy_intonation_perc,2020.2.10,Linux x86_64,60,,,,,,,,,,1,,,,,,,,,,,,,,,,,,,,,,,,,,,,,,,,,,,,,,,,43,canela,,,1,1,2.865915,0,65,65,42,1,REAL,FAKE,,,,,,,,,,,,,,,,,,,,,
,,,,,,,5bc5356e65cfb8000154bd82,60568611ec04488a9e9da93b,6056b28285ea58e34a1b1090,I am not familiar with Spanish,Northeast,NA,no,2021-03-20_22h42.59.338,empathy_intonation_perc,2020.2.10,Linux x86_64,60,,,,,,,,,,1,,,,,,,,,,,,,,,,,,,,,,,,,,,,,,,,,,,,,,,,89,prisa,,,1,1,1.249665,0,66,66,88,1,REAL,FAKE,,,,,,,,,,,,,,,,,,,,,
,,,,,,,5bc5356e65cfb8000154bd82,60568611ec04488a9e9da93b,6056b28285ea58e34a1b1090,I am not familiar with Spanish,Northeast,NA,no,2021-03-20_22h42.59.338,empathy_intonation_perc,2020.2.10,Linux x86_64,60,,,,,,,,,,1,,,,,,,,,,,,,,,,,,,,,,,,,,,,,,,,,,,,,,,,60,matar,,,1,1,0.965485,0,67,67,59,1,REAL,FAKE,,,,,,,,,,,,,,,,,,,,,
,,,,,,,5bc5356e65cfb8000154bd82,60568611ec04488a9e9da93b,6056b28285ea58e34a1b1090,I am not familiar with Spanish,Northeast,NA,no,2021-03-20_22h42.59.338,empathy_intonation_perc,2020.2.10,Linux x86_64,60,,,,,,,,,,1,,,,,,,,,,,,,,,,,,,,,,,,,,,,,,,,,,,,,,,,64,orgulloso,,,0,0,1.768005,0,68,68,63,1,REAL,FAKE,,,,,,,,,,,,,,,,,,,,,
,,,,,,,5bc5356e65cfb8000154bd82,60568611ec04488a9e9da93b,6056b28285ea58e34a1b1090,I am not familiar with Spanish,Northeast,NA,no,2021-03-20_22h42.59.338,empathy_intonation_perc,2020.2.10,Linux x86_64,60,,,,,,,,,,0,,,,,,,,,,,,,,,,,,,,,,,,,,,,,,,,,,,,,,,,63,esposante,,,1,0,2.099715,0,69,69,62,1,REAL,FAKE,,,,,,,,,,,,,,,,,,,,,
,,,,,,,5bc5356e65cfb8000154bd82,60568611ec04488a9e9da93b,6056b28285ea58e34a1b1090,I am not familiar with Spanish,Northeast,NA,no,2021-03-20_22h42.59.338,empathy_intonation_perc,2020.2.10,Linux x86_64,60,,,,,,,,,,0,,,,,,,,,,,,,,,,,,,,,,,,,,,,,,,,,,,,,,,,58,plaudir,,,1,0,2.80095,0,70,70,57,1,REAL,FAKE,,,,,,,,,,,,,,,,,,,,,
,,,,,,,5bc5356e65cfb8000154bd82,60568611ec04488a9e9da93b,6056b28285ea58e34a1b1090,I am not familiar with Spanish,Northeast,NA,no,2021-03-20_22h42.59.338,empathy_intonation_perc,2020.2.10,Linux x86_64,60,,,,,,,,,,1,,,,,,,,,,,,,,,,,,,,,,,,,,,,,,,,,,,,,,,,48,ladrn,,,1,1,2.929855,0,71,71,47,1,REAL,FAKE,,,,,,,,,,,,,,,,,,,,,
,,,,,,,5bc5356e65cfb8000154bd82,60568611ec04488a9e9da93b,6056b28285ea58e34a1b1090,I am not familiar with Spanish,Northeast,NA,no,2021-03-20_22h42.59.338,empathy_intonation_perc,2020.2.10,Linux x86_64,60,,,,,,,,,,1,,,,,,,,,,,,,,,,,,,,,,,,,,,,,,,,,,,,,,,,78,frondoso,,,0,0,1.88278,0,72,72,77,1,REAL,FAKE,,,,,,,,,,,,,,,,,,,,,
,,,,,,,5bc5356e65cfb8000154bd82,60568611ec04488a9e9da93b,6056b28285ea58e34a1b1090,I am not familiar with Spanish,Northeast,NA,no,2021-03-20_22h42.59.338,empathy_intonation_perc,2020.2.10,Linux x86_64,60,,,,,,,,,,0,,,,,,,,,,,,,,,,,,,,,,,,,,,,,,,,,,,,,,,,35,rompido,,,0,1,2.132885,0,73,73,34,1,REAL,FAKE,,,,,,,,,,,,,,,,,,,,,
,,,,,,,5bc5356e65cfb8000154bd82,60568611ec04488a9e9da93b,6056b28285ea58e34a1b1090,I am not familiar with Spanish,Northeast,NA,no,2021-03-20_22h42.59.338,empathy_intonation_perc,2020.2.10,Linux x86_64,60,,,,,,,,,,1,,,,,,,,,,,,,,,,,,,,,,,,,,,,,,,,,,,,,,,,62,flaco,,,1,1,1.23791,0,74,74,61,1,REAL,FAKE,,,,,,,,,,,,,,,,,,,,,
,,,,,,,5bc5356e65cfb8000154bd82,60568611ec04488a9e9da93b,6056b28285ea58e34a1b1090,I am not familiar with Spanish,Northeast,NA,no,2021-03-20_22h42.59.338,empathy_intonation_perc,2020.2.10,Linux x86_64,60,,,,,,,,,,1,,,,,,,,,,,,,,,,,,,,,,,,,,,,,,,,,,,,,,,,44,cuchara,,,1,1,1.365805,0,75,75,43,1,REAL,FAKE,,,,,,,,,,,,,,,,,,,,,
,,,,,,,5bc5356e65cfb8000154bd82,60568611ec04488a9e9da93b,6056b28285ea58e34a1b1090,I am not familiar with Spanish,Northeast,NA,no,2021-03-20_22h42.59.338,empathy_intonation_perc,2020.2.10,Linux x86_64,60,,,,,,,,,,1,,,,,,,,,,,,,,,,,,,,,,,,,,,,,,,,,,,,,,,,34,aviso,,,1,1,1.17987,0,76,76,33,1,REAL,FAKE,,,,,,,,,,,,,,,,,,,,,
,,,,,,,5bc5356e65cfb8000154bd82,60568611ec04488a9e9da93b,6056b28285ea58e34a1b1090,I am not familiar with Spanish,Northeast,NA,no,2021-03-20_22h42.59.338,empathy_intonation_perc,2020.2.10,Linux x86_64,60,,,,,,,,,,1,,,,,,,,,,,,,,,,,,,,,,,,,,,,,,,,,,,,,,,,31,pandilla,,,1,1,1.110065,0,77,77,30,1,REAL,FAKE,,,,,,,,,,,,,,,,,,,,,
,,,,,,,5bc5356e65cfb8000154bd82,60568611ec04488a9e9da93b,6056b28285ea58e34a1b1090,I am not familiar with Spanish,Northeast,NA,no,2021-03-20_22h42.59.338,empathy_intonation_perc,2020.2.10,Linux x86_64,60,,,,,,,,,,1,,,,,,,,,,,,,,,,,,,,,,,,,,,,,,,,,,,,,,,,88,acantilado,,,0,0,2.51388,0,78,78,87,1,REAL,FAKE,,,,,,,,,,,,,,,,,,,,,
,,,,,,,5bc5356e65cfb8000154bd82,60568611ec04488a9e9da93b,6056b28285ea58e34a1b1090,I am not familiar with Spanish,Northeast,NA,no,2021-03-20_22h42.59.338,empathy_intonation_perc,2020.2.10,Linux x86_64,60,,,,,,,,,,1,,,,,,,,,,,,,,,,,,,,,,,,,,,,,,,,,,,,,,,,26,secuestro,,,1,1,1.31851,0,79,79,25,1,REAL,FAKE,,,,,,,,,,,,,,,,,,,,,
,,,,,,,5bc5356e65cfb8000154bd82,60568611ec04488a9e9da93b,6056b28285ea58e34a1b1090,I am not familiar with Spanish,Northeast,NA,no,2021-03-20_22h42.59.338,empathy_intonation_perc,2020.2.10,Linux x86_64,60,,,,,,,,,,0,,,,,,,,,,,,,,,,,,,,,,,,,,,,,,,,,,,,,,,,70,temblo,,,1,0,1.904355,0,80,80,69,1,REAL,FAKE,,,,,,,,,,,,,,,,,,,,,
,,,,,,,5bc5356e65cfb8000154bd82,60568611ec04488a9e9da93b,6056b28285ea58e34a1b1090,I am not familiar with Spanish,Northeast,NA,no,2021-03-20_22h42.59.338,empathy_intonation_perc,2020.2.10,Linux x86_64,60,,,,,,,,,,1,,,,,,,,,,,,,,,,,,,,,,,,,,,,,,,,,,,,,,,,57,tacao,,,1,1,1.793975,0,81,81,56,1,REAL,FAKE,,,,,,,,,,,,,,,,,,,,,
,,,,,,,5bc5356e65cfb8000154bd82,60568611ec04488a9e9da93b,6056b28285ea58e34a1b1090,I am not familiar with Spanish,Northeast,NA,no,2021-03-20_22h42.59.338,empathy_intonation_perc,2020.2.10,Linux x86_64,60,,,,,,,,,,0,,,,,,,,,,,,,,,,,,,,,,,,,,,,,,,,,,,,,,,,18,arsa,,,0,1,4.881535,0,82,82,17,1,REAL,FAKE,,,,,,,,,,,,,,,,,,,,,
,,,,,,,5bc5356e65cfb8000154bd82,60568611ec04488a9e9da93b,6056b28285ea58e34a1b1090,I am not familiar with Spanish,Northeast,NA,no,2021-03-20_22h42.59.338,empathy_intonation_perc,2020.2.10,Linux x86_64,60,,,,,,,,,,0,,,,,,,,,,,,,,,,,,,,,,,,,,,,,,,,,,,,,,,,32,fatacidad,,,1,0,3.331595,0,83,83,31,1,REAL,FAKE,,,,,,,,,,,,,,,,,,,,,
,,,,,,,5bc5356e65cfb8000154bd82,60568611ec04488a9e9da93b,6056b28285ea58e34a1b1090,I am not familiar with Spanish,Northeast,NA,no,2021-03-20_22h42.59.338,empathy_intonation_perc,2020.2.10,Linux x86_64,60,,,,,,,,,,1,,,,,,,,,,,,,,,,,,,,,,,,,,,,,,,,,,,,,,,,7,psimo,,,1,1,1.346235,0,84,84,6,1,REAL,FAKE,,,,,,,,,,,,,,,,,,,,,
,,,,,,,5bc5356e65cfb8000154bd82,60568611ec04488a9e9da93b,6056b28285ea58e34a1b1090,I am not familiar with Spanish,Northeast,NA,no,2021-03-20_22h42.59.338,empathy_intonation_perc,2020.2.10,Linux x86_64,60,,,,,,,,,,1,,,,,,,,,,,,,,,,,,,,,,,,,,,,,,,,,,,,,,,,52,camisa,,,1,1,2.26734,0,85,85,51,1,REAL,FAKE,,,,,,,,,,,,,,,,,,,,,
,,,,,,,5bc5356e65cfb8000154bd82,60568611ec04488a9e9da93b,6056b28285ea58e34a1b1090,I am not familiar with Spanish,Northeast,NA,no,2021-03-20_22h42.59.338,empathy_intonation_perc,2020.2.10,Linux x86_64,60,,,,,,,,,,0,,,,,,,,,,,,,,,,,,,,,,,,,,,,,,,,,,,,,,,,17,floroso,,,1,0,1.183005,0,86,86,16,1,REAL,FAKE,,,,,,,,,,,,,,,,,,,,,
