instructions_2afc_loop.thisRepN,instructions_2afc_loop.thisTrialN,instructions_2afc_loop.thisN,instructions_2afc_loop.thisIndex,instructions_2afc_loop.ran,instructions_text,continue_text,participant,study_id,session,I am most familiar with Spanish from...*,What part of the US are you from?*,At what age did you begin learning Spanish?*,Are you proficient in any languages other than English/Spanish?*,date,expName,psychopyVersion,OS,frameRate,key_resp_2afc_practice.keys,key_resp_2afc_practice.corr,key_resp_2afc_practice.rt,trials_2afc_practice_loop.thisRepN,trials_2afc_practice_loop.thisTrialN,trials_2afc_practice_loop.thisN,trials_2afc_practice_loop.thisIndex,trials_2afc_practice_loop.ran,path,correct_response,the_col,key_resp_2afc_trial.keys,key_resp_2afc_trial.corr,key_resp_2afc_trial.rt,trials_2afc_loop.thisRepN,trials_2afc_loop.thisTrialN,trials_2afc_loop.thisN,trials_2afc_loop.thisIndex,trials_2afc_loop.ran,item_num,andalusian,argentine,castilian,chilean,cuban,mexican,peruvian,puertorican,key_resp_ac1.keys,key_resp_ac1.corr,key_resp_ac1.rt,ac1_loop.thisRepN,ac1_loop.thisTrialN,ac1_loop.thisN,ac1_loop.thisIndex,ac1_loop.ran,instructions_lextale_loop.thisRepN,instructions_lextale_loop.thisTrialN,instructions_lextale_loop.thisN,instructions_lextale_loop.thisIndex,instructions_lextale_loop.ran,key_resp_lextale_practice.keys,key_resp_lextale_practice.corr,key_resp_lextale_practice.rt,trials_lextale_practice_loop.thisRepN,trials_lextale_practice_loop.thisTrialN,trials_lextale_practice_loop.thisN,trials_lextale_practice_loop.thisIndex,trials_lextale_practice_loop.ran,stim,word,prac_button_real,prac_button_false,key_resp_lextale_trial.keys,key_resp_lextale_trial.corr,key_resp_lextale_trial.rt,trials_lextale_loop.thisRepN,trials_lextale_loop.thisTrialN,trials_lextale_loop.thisN,trials_lextale_loop.thisIndex,trials_lextale_loop.ran,button_real,button_false,key_resp_ac2.keys,key_resp_ac2.corr,key_resp_ac2.rt,check_pass,check_fails,ac2_loop.thisRepN,ac2_loop.thisTrialN,ac2_loop.thisN,ac2_loop.thisIndex,ac2_loop.ran,slider_eq_trial.response,trials_eq_loop.thisRepN,trials_eq_loop.thisTrialN,trials_eq_loop.thisN,trials_eq_loop.thisIndex,trials_eq_loop.ran,item,is_test_item,is_distractor,is_agree_score,is_disagree_score
0,0,0,0,1,"In the following task you are going to hear a series of utterances. 

  You will decide if the utterances sound like questions or not using your keyboard.",(press the spacebar to continue),5bdab584b341a4000154256b,605b45a4d25f287719a41696,605b88ff92d85cc4dd1c98c2,I am not familiar with Spanish,Midwest,13 or older,no,2021-03-24_14h50.02.035,empathy_intonation_perc,2020.2.10,Win32,60,,,,,,,,,,,,,,,,,,,,,,,,,,,,,,,,,,,,,,,,,,,,,,,,,,,,,,,,,,,,,,,,,,,,,,,,,,,,,,,,,,,,
0,1,1,1,1,"If you believe the utterance is a question, type '1' (for 'yes') and if you do not 
  believe it is a question type '0' (for 'no').

  Let's practice a bit...",(press the spacebar to continue),5bdab584b341a4000154256b,605b45a4d25f287719a41696,605b88ff92d85cc4dd1c98c2,I am not familiar with Spanish,Midwest,13 or older,no,2021-03-24_14h50.02.035,empathy_intonation_perc,2020.2.10,Win32,60,,,,,,,,,,,,,,,,,,,,,,,,,,,,,,,,,,,,,,,,,,,,,,,,,,,,,,,,,,,,,,,,,,,,,,,,,,,,,,,,,,,,
,,,,,,,5bdab584b341a4000154256b,605b45a4d25f287719a41696,605b88ff92d85cc4dd1c98c2,I am not familiar with Spanish,Midwest,13 or older,no,2021-03-24_14h50.02.035,empathy_intonation_perc,2020.2.10,Win32,60,0,1,4.181055,0,0,0,6,1,./stim/wavs/peruvian_statement_filler_El-nino-habla-con-su-madre.wav,0,,,,,,,,,,,,,,,,,,,,,,,,,,,,,,,,,,,,,,,,,,,,,,,,,,,,,,,,,,,,,,,,,,,,,,,,,,
,,,,,,,5bdab584b341a4000154256b,605b45a4d25f287719a41696,605b88ff92d85cc4dd1c98c2,I am not familiar with Spanish,Midwest,13 or older,no,2021-03-24_14h50.02.035,empathy_intonation_perc,2020.2.10,Win32,60,1,1,2.83939,0,1,1,3,1,./stim/wavs/mexican_question_filler_Felipe-no-tiene-contrasena.wav,1,,,,,,,,,,,,,,,,,,,,,,,,,,,,,,,,,,,,,,,,,,,,,,,,,,,,,,,,,,,,,,,,,,,,,,,,,,
,,,,,,,5bdab584b341a4000154256b,605b45a4d25f287719a41696,605b88ff92d85cc4dd1c98c2,I am not familiar with Spanish,Midwest,13 or older,no,2021-03-24_14h50.02.035,empathy_intonation_perc,2020.2.10,Win32,60,0,1,2.706975,0,2,2,4,1,./stim/wavs/cuban_statement_filler_Cocinabas-por-la-noche.wav,0,,,,,,,,,,,,,,,,,,,,,,,,,,,,,,,,,,,,,,,,,,,,,,,,,,,,,,,,,,,,,,,,,,,,,,,,,,
,,,,,,,5bdab584b341a4000154256b,605b45a4d25f287719a41696,605b88ff92d85cc4dd1c98c2,I am not familiar with Spanish,Midwest,13 or older,no,2021-03-24_14h50.02.035,empathy_intonation_perc,2020.2.10,Win32,60,1,1,2.287645,0,3,3,0,1,./stim/wavs/castilian_question_filler_Mi-esposo-conoce-al-chico.wav,1,,,,,,,,,,,,,,,,,,,,,,,,,,,,,,,,,,,,,,,,,,,,,,,,,,,,,,,,,,,,,,,,,,,,,,,,,,
,,,,,,,5bdab584b341a4000154256b,605b45a4d25f287719a41696,605b88ff92d85cc4dd1c98c2,I am not familiar with Spanish,Midwest,13 or older,no,2021-03-24_14h50.02.035,empathy_intonation_perc,2020.2.10,Win32,60,0,1,2.733875,0,4,4,7,1,./stim/wavs/puertorican_statement_filler_La-nina-pinta-con-su-amiga.wav,0,,,,,,,,,,,,,,,,,,,,,,,,,,,,,,,,,,,,,,,,,,,,,,,,,,,,,,,,,,,,,,,,,,,,,,,,,,
,,,,,,,5bdab584b341a4000154256b,605b45a4d25f287719a41696,605b88ff92d85cc4dd1c98c2,I am not familiar with Spanish,Midwest,13 or older,no,2021-03-24_14h50.02.035,empathy_intonation_perc,2020.2.10,Win32,60,0,1,2.066015,0,5,5,5,1,./stim/wavs/andalusian_statement_filler_Alberto-nunca-se-afeita.wav,0,,,,,,,,,,,,,,,,,,,,,,,,,,,,,,,,,,,,,,,,,,,,,,,,,,,,,,,,,,,,,,,,,,,,,,,,,,
,,,,,,,5bdab584b341a4000154256b,605b45a4d25f287719a41696,605b88ff92d85cc4dd1c98c2,I am not familiar with Spanish,Midwest,13 or older,no,2021-03-24_14h50.02.035,empathy_intonation_perc,2020.2.10,Win32,60,1,1,1.817395,0,6,6,1,1,./stim/wavs/argentine_question_filler_Mi-vecino-habla-mucho.wav,1,,,,,,,,,,,,,,,,,,,,,,,,,,,,,,,,,,,,,,,,,,,,,,,,,,,,,,,,,,,,,,,,,,,,,,,,,,
,,,,,,,5bdab584b341a4000154256b,605b45a4d25f287719a41696,605b88ff92d85cc4dd1c98c2,I am not familiar with Spanish,Midwest,13 or older,no,2021-03-24_14h50.02.035,empathy_intonation_perc,2020.2.10,Win32,60,1,1,2.185545,0,7,7,2,1,./stim/wavs/chilean_question_filler_Mi-padre-cantaba-bien.wav,1,,,,,,,,,,,,,,,,,,,,,,,,,,,,,,,,,,,,,,,,,,,,,,,,,,,,,,,,,,,,,,,,,,,,,,,,,,
,,,,,,,5bdab584b341a4000154256b,605b45a4d25f287719a41696,605b88ff92d85cc4dd1c98c2,I am not familiar with Spanish,Midwest,13 or older,no,2021-03-24_14h50.02.035,empathy_intonation_perc,2020.2.10,Win32,60,,,,,,,,,,0,argentine,0,1,1.974705,0,0,0,8,1,9,./stim/wavs/andalusian_match_declarative-narrow-focus_Ana-lleva-el-abrigo.wav,./stim/wavs/argentine_match_declarative-narrow-focus_Ana-lleva-el-abrigo.wav,./stim/wavs/castilian_match_declarative-narrow-focus_Ana-lleva-el-abrigo.wav,./stim/wavs/chilean_match_declarative-narrow-focus_Ana-lleva-el-abrigo.wav,./stim/wavs/cuban_match_declarative-narrow-focus_Ana-lleva-el-abrigo.wav,./stim/wavs/mexican_match_declarative-narrow-focus_Ana-lleva-el-abrigo.wav,./stim/wavs/peruvian_match_declarative-narrow-focus_Ana-lleva-el-abrigo.wav,./stim/wavs/puertorican_match_declarative-narrow-focus_Ana-lleva-el-abrigo.wav,,,,,,,,,,,,,,,,,,,,,,,,,,,,,,,,,,,,,,,,,,,,,,,,,,,,,,,,
,,,,,,,5bdab584b341a4000154256b,605b45a4d25f287719a41696,605b88ff92d85cc4dd1c98c2,I am not familiar with Spanish,Midwest,13 or older,no,2021-03-24_14h50.02.035,empathy_intonation_perc,2020.2.10,Win32,60,,,,,,,,,,0,castilian,0,1,2.33907,0,1,1,4,1,5,./stim/wavs/andalusian_match_declarative-broad-focus_Manuela-vende-el-carro.wav,./stim/wavs/argentine_match_declarative-broad-focus_Manuela-vende-el-carro.wav,./stim/wavs/castilian_match_declarative-broad-focus_Manuela-vende-el-carro.wav,./stim/wavs/chilean_match_declarative-broad-focus_Manuela-vende-el-carro.wav,./stim/wavs/cuban_match_declarative-broad-focus_Manuela-vende-el-carro.wav,./stim/wavs/mexican_match_declarative-broad-focus_Manuela-vende-el-carro.wav,./stim/wavs/peruvian_match_declarative-broad-focus_Manuela-vende-el-carro.wav,./stim/wavs/puertorican_match_declarative-broad-focus_Manuela-vende-el-carro.wav,,,,,,,,,,,,,,,,,,,,,,,,,,,,,,,,,,,,,,,,,,,,,,,,,,,,,,,,
,,,,,,,5bdab584b341a4000154256b,605b45a4d25f287719a41696,605b88ff92d85cc4dd1c98c2,I am not familiar with Spanish,Midwest,13 or older,no,2021-03-24_14h50.02.035,empathy_intonation_perc,2020.2.10,Win32,60,,,,,,,,,,0,argentine,0,1,1.976905,0,2,2,3,1,4,./stim/wavs/andalusian_match_declarative-broad-focus_Emilio-ama-la-marcha.wav,./stim/wavs/argentine_match_declarative-broad-focus_Emilio-ama-la-marcha.wav,./stim/wavs/castilian_match_declarative-broad-focus_Emilio-ama-la-marcha.wav,./stim/wavs/chilean_match_declarative-broad-focus_Emilio-ama-la-marcha.wav,./stim/wavs/cuban_match_declarative-broad-focus_Emilio-ama-la-marcha.wav,./stim/wavs/mexican_match_declarative-broad-focus_Emilio-ama-la-marcha.wav,./stim/wavs/peruvian_match_declarative-broad-focus_Emilio-ama-la-marcha.wav,./stim/wavs/puertorican_match_declarative-broad-focus_Emilio-ama-la-marcha.wav,,,,,,,,,,,,,,,,,,,,,,,,,,,,,,,,,,,,,,,,,,,,,,,,,,,,,,,,
,,,,,,,5bdab584b341a4000154256b,605b45a4d25f287719a41696,605b88ff92d85cc4dd1c98c2,I am not familiar with Spanish,Midwest,13 or older,no,2021-03-24_14h50.02.035,empathy_intonation_perc,2020.2.10,Win32,60,,,,,,,,,,1,mexican,1,1,2.06977,0,3,3,30,1,31,./stim/wavs/andalusian_match_interrogative-total-yn_Mariano-habla-del-tiempo.wav,./stim/wavs/argentine_match_interrogative-total-yn_Mariano-habla-del-tiempo.wav,./stim/wavs/castilian_match_interrogative-total-yn_Mariano-habla-del-tiempo.wav,./stim/wavs/chilean_match_interrogative-total-yn_Mariano-habla-del-tiempo.wav,./stim/wavs/cuban_match_interrogative-total-yn_Mariano-habla-del-tiempo.wav,./stim/wavs/mexican_match_interrogative-total-yn_Mariano-habla-del-tiempo.wav,./stim/wavs/peruvian_match_interrogative-total-yn_Mariano-habla-del-tiempo.wav,./stim/wavs/puertorican_match_interrogative-total-yn_Mariano-habla-del-tiempo.wav,,,,,,,,,,,,,,,,,,,,,,,,,,,,,,,,,,,,,,,,,,,,,,,,,,,,,,,,
,,,,,,,5bdab584b341a4000154256b,605b45a4d25f287719a41696,605b88ff92d85cc4dd1c98c2,I am not familiar with Spanish,Midwest,13 or older,no,2021-03-24_14h50.02.035,empathy_intonation_perc,2020.2.10,Win32,60,,,,,,,,,,1,argentine,0,0,1.75814,0,4,4,50,1,51,./stim/wavs/andalusian_mismatch_interrogative-partial-wh_Cuando-miraba-la-luna.wav,./stim/wavs/argentine_mismatch_interrogative-partial-wh_Cuando-miraba-la-luna.wav,./stim/wavs/castilian_mismatch_interrogative-partial-wh_Cuando-miraba-la-luna.wav,./stim/wavs/chilean_mismatch_interrogative-partial-wh_Cuando-miraba-la-luna.wav,./stim/wavs/cuban_mismatch_interrogative-partial-wh_Cuando-miraba-la-luna.wav,./stim/wavs/mexican_mismatch_interrogative-partial-wh_Cuando-miraba-la-luna.wav,./stim/wavs/peruvian_mismatch_interrogative-partial-wh_Cuando-miraba-la-luna.wav,./stim/wavs/puertorican_mismatch_interrogative-partial-wh_Cuando-miraba-la-luna.wav,,,,,,,,,,,,,,,,,,,,,,,,,,,,,,,,,,,,,,,,,,,,,,,,,,,,,,,,
,,,,,,,5bdab584b341a4000154256b,605b45a4d25f287719a41696,605b88ff92d85cc4dd1c98c2,I am not familiar with Spanish,Midwest,13 or older,no,2021-03-24_14h50.02.035,empathy_intonation_perc,2020.2.10,Win32,60,,,,,,,,,,1,cuban,0,0,2.066705,0,5,5,57,1,58,./stim/wavs/andalusian_mismatch_interrogative-total-yn_El-hombre-mira-la-luna.wav,./stim/wavs/argentine_mismatch_interrogative-total-yn_El-hombre-mira-la-luna.wav,./stim/wavs/castilian_mismatch_interrogative-total-yn_El-hombre-mira-la-luna.wav,./stim/wavs/chilean_mismatch_interrogative-total-yn_El-hombre-mira-la-luna.wav,./stim/wavs/cuban_mismatch_interrogative-total-yn_El-hombre-mira-la-luna.wav,./stim/wavs/mexican_mismatch_interrogative-total-yn_El-hombre-mira-la-luna.wav,./stim/wavs/peruvian_mismatch_interrogative-total-yn_El-hombre-mira-la-luna.wav,./stim/wavs/puertorican_mismatch_interrogative-total-yn_El-hombre-mira-la-luna.wav,,,,,,,,,,,,,,,,,,,,,,,,,,,,,,,,,,,,,,,,,,,,,,,,,,,,,,,,
,,,,,,,5bdab584b341a4000154256b,605b45a4d25f287719a41696,605b88ff92d85cc4dd1c98c2,I am not familiar with Spanish,Midwest,13 or older,no,2021-03-24_14h50.02.035,empathy_intonation_perc,2020.2.10,Win32,60,,,,,,,,,,0,andalusian,1,0,1.83435,0,6,6,13,1,14,./stim/wavs/andalusian_match_declarative-narrow-focus_Maria-bebe-el-vino.wav,./stim/wavs/argentine_match_declarative-narrow-focus_Maria-bebe-el-vino.wav,./stim/wavs/castilian_match_declarative-narrow-focus_Maria-bebe-el-vino.wav,./stim/wavs/chilean_match_declarative-narrow-focus_Maria-bebe-el-vino.wav,./stim/wavs/cuban_match_declarative-narrow-focus_Maria-bebe-el-vino.wav,./stim/wavs/mexican_match_declarative-narrow-focus_Maria-bebe-el-vino.wav,./stim/wavs/peruvian_match_declarative-narrow-focus_Maria-bebe-el-vino.wav,./stim/wavs/puertorican_match_declarative-narrow-focus_Maria-bebe-el-vino.wav,,,,,,,,,,,,,,,,,,,,,,,,,,,,,,,,,,,,,,,,,,,,,,,,,,,,,,,,
,,,,,,,5bdab584b341a4000154256b,605b45a4d25f287719a41696,605b88ff92d85cc4dd1c98c2,I am not familiar with Spanish,Midwest,13 or older,no,2021-03-24_14h50.02.035,empathy_intonation_perc,2020.2.10,Win32,60,,,,,,,,,,0,argentine,0,1,2.13519,0,7,7,9,1,10,./stim/wavs/andalusian_match_declarative-narrow-focus_Daniel-iba-a-Bolivia.wav,./stim/wavs/argentine_match_declarative-narrow-focus_Daniel-iba-a-Bolivia.wav,./stim/wavs/castilian_match_declarative-narrow-focus_Daniel-iba-a-Bolivia.wav,./stim/wavs/chilean_match_declarative-narrow-focus_Daniel-iba-a-Bolivia.wav,./stim/wavs/cuban_match_declarative-narrow-focus_Daniel-iba-a-Bolivia.wav,./stim/wavs/mexican_match_declarative-narrow-focus_Daniel-iba-a-Bolivia.wav,./stim/wavs/peruvian_match_declarative-narrow-focus_Daniel-iba-a-Bolivia.wav,./stim/wavs/puertorican_match_declarative-narrow-focus_Daniel-iba-a-Bolivia.wav,,,,,,,,,,,,,,,,,,,,,,,,,,,,,,,,,,,,,,,,,,,,,,,,,,,,,,,,
,,,,,,,5bdab584b341a4000154256b,605b45a4d25f287719a41696,605b88ff92d85cc4dd1c98c2,I am not familiar with Spanish,Midwest,13 or older,no,2021-03-24_14h50.02.035,empathy_intonation_perc,2020.2.10,Win32,60,,,,,,,,,,1,argentine,0,0,2.111585,0,8,8,48,1,49,./stim/wavs/andalusian_mismatch_interrogative-partial-wh_Cuando-comia-la-fruta.wav,./stim/wavs/argentine_mismatch_interrogative-partial-wh_Cuando-comia-la-fruta.wav,./stim/wavs/castilian_mismatch_interrogative-partial-wh_Cuando-comia-la-fruta.wav,./stim/wavs/chilean_mismatch_interrogative-partial-wh_Cuando-comia-la-fruta.wav,./stim/wavs/cuban_mismatch_interrogative-partial-wh_Cuando-comia-la-fruta.wav,./stim/wavs/mexican_mismatch_interrogative-partial-wh_Cuando-comia-la-fruta.wav,./stim/wavs/peruvian_mismatch_interrogative-partial-wh_Cuando-comia-la-fruta.wav,./stim/wavs/puertorican_mismatch_interrogative-partial-wh_Cuando-comia-la-fruta.wav,,,,,,,,,,,,,,,,,,,,,,,,,,,,,,,,,,,,,,,,,,,,,,,,,,,,,,,,
,,,,,,,5bdab584b341a4000154256b,605b45a4d25f287719a41696,605b88ff92d85cc4dd1c98c2,I am not familiar with Spanish,Midwest,13 or older,no,2021-03-24_14h50.02.035,empathy_intonation_perc,2020.2.10,Win32,60,,,,,,,,,,0,castilian,0,1,2.903435,0,9,9,38,1,39,./stim/wavs/andalusian_mismatch_declarative-broad-focus_Mi-novio-viene-del-lago.wav,./stim/wavs/argentine_mismatch_declarative-broad-focus_Mi-novio-viene-del-lago.wav,./stim/wavs/castilian_mismatch_declarative-broad-focus_Mi-novio-viene-del-lago.wav,./stim/wavs/chilean_mismatch_declarative-broad-focus_Mi-novio-viene-del-lago.wav,./stim/wavs/cuban_mismatch_declarative-broad-focus_Mi-novio-viene-del-lago.wav,./stim/wavs/mexican_mismatch_declarative-broad-focus_Mi-novio-viene-del-lago.wav,./stim/wavs/peruvian_mismatch_declarative-broad-focus_Mi-novio-viene-del-lago.wav,./stim/wavs/puertorican_mismatch_declarative-broad-focus_Mi-novio-viene-del-lago.wav,,,,,,,,,,,,,,,,,,,,,,,,,,,,,,,,,,,,,,,,,,,,,,,,,,,,,,,,
,,,,,,,5bdab584b341a4000154256b,605b45a4d25f287719a41696,605b88ff92d85cc4dd1c98c2,I am not familiar with Spanish,Midwest,13 or older,no,2021-03-24_14h50.02.035,empathy_intonation_perc,2020.2.10,Win32,60,,,,,,,,,,0,andalusian,0,1,2.20556,0,10,10,15,1,16,./stim/wavs/andalusian_match_declarative-narrow-focus_Marta-abre-el-regalo.wav,./stim/wavs/argentine_match_declarative-narrow-focus_Marta-abre-el-regalo.wav,./stim/wavs/castilian_match_declarative-narrow-focus_Marta-abre-el-regalo.wav,./stim/wavs/chilean_match_declarative-narrow-focus_Marta-abre-el-regalo.wav,./stim/wavs/cuban_match_declarative-narrow-focus_Marta-abre-el-regalo.wav,./stim/wavs/mexican_match_declarative-narrow-focus_Marta-abre-el-regalo.wav,./stim/wavs/peruvian_match_declarative-narrow-focus_Marta-abre-el-regalo.wav,./stim/wavs/puertorican_match_declarative-narrow-focus_Marta-abre-el-regalo.wav,,,,,,,,,,,,,,,,,,,,,,,,,,,,,,,,,,,,,,,,,,,,,,,,,,,,,,,,
,,,,,,,5bdab584b341a4000154256b,605b45a4d25f287719a41696,605b88ff92d85cc4dd1c98c2,I am not familiar with Spanish,Midwest,13 or older,no,2021-03-24_14h50.02.035,empathy_intonation_perc,2020.2.10,Win32,60,,,,,,,,,,0,argentine,0,1,1.93777,0,11,11,40,1,41,./stim/wavs/andalusian_mismatch_declarative-narrow-focus_El-bebe-comia-muy-bien.wav,./stim/wavs/argentine_mismatch_declarative-narrow-focus_El-bebe-comia-muy-bien.wav,./stim/wavs/castilian_mismatch_declarative-narrow-focus_El-bebe-comia-muy-bien.wav,./stim/wavs/chilean_mismatch_declarative-narrow-focus_El-bebe-comia-muy-bien.wav,./stim/wavs/cuban_mismatch_declarative-narrow-focus_El-bebe-comia-muy-bien.wav,./stim/wavs/mexican_mismatch_declarative-narrow-focus_El-bebe-comia-muy-bien.wav,./stim/wavs/peruvian_mismatch_declarative-narrow-focus_El-bebe-comia-muy-bien.wav,./stim/wavs/puertorican_mismatch_declarative-narrow-focus_El-bebe-comia-muy-bien.wav,,,,,,,,,,,,,,,,,,,,,,,,,,,,,,,,,,,,,,,,,,,,,,,,,,,,,,,,
,,,,,,,5bdab584b341a4000154256b,605b45a4d25f287719a41696,605b88ff92d85cc4dd1c98c2,I am not familiar with Spanish,Midwest,13 or older,no,2021-03-24_14h50.02.035,empathy_intonation_perc,2020.2.10,Win32,60,,,,,,,,,,0,puertorican,0,1,2.01599,0,12,12,34,1,35,./stim/wavs/andalusian_mismatch_declarative-broad-focus_El-nino-oye-el-rio.wav,./stim/wavs/argentine_mismatch_declarative-broad-focus_El-nino-oye-el-rio.wav,./stim/wavs/castilian_mismatch_declarative-broad-focus_El-nino-oye-el-rio.wav,./stim/wavs/chilean_mismatch_declarative-broad-focus_El-nino-oye-el-rio.wav,./stim/wavs/cuban_mismatch_declarative-broad-focus_El-nino-oye-el-rio.wav,./stim/wavs/mexican_mismatch_declarative-broad-focus_El-nino-oye-el-rio.wav,./stim/wavs/peruvian_mismatch_declarative-broad-focus_El-nino-oye-el-rio.wav,./stim/wavs/puertorican_mismatch_declarative-broad-focus_El-nino-oye-el-rio.wav,,,,,,,,,,,,,,,,,,,,,,,,,,,,,,,,,,,,,,,,,,,,,,,,,,,,,,,,
,,,,,,,5bdab584b341a4000154256b,605b45a4d25f287719a41696,605b88ff92d85cc4dd1c98c2,I am not familiar with Spanish,Midwest,13 or older,no,2021-03-24_14h50.02.035,empathy_intonation_perc,2020.2.10,Win32,60,,,,,,,,,,1,puertorican,0,0,2.16081,0,13,13,55,1,56,./stim/wavs/andalusian_mismatch_interrogative-partial-wh_Por-que-vivia-en-Paris.wav,./stim/wavs/argentine_mismatch_interrogative-partial-wh_Por-que-vivia-en-Paris.wav,./stim/wavs/castilian_mismatch_interrogative-partial-wh_Por-que-vivia-en-Paris.wav,./stim/wavs/chilean_mismatch_interrogative-partial-wh_Por-que-vivia-en-Paris.wav,./stim/wavs/cuban_mismatch_interrogative-partial-wh_Por-que-vivia-en-Paris.wav,./stim/wavs/mexican_mismatch_interrogative-partial-wh_Por-que-vivia-en-Paris.wav,./stim/wavs/peruvian_mismatch_interrogative-partial-wh_Por-que-vivia-en-Paris.wav,./stim/wavs/puertorican_mismatch_interrogative-partial-wh_Por-que-vivia-en-Paris.wav,,,,,,,,,,,,,,,,,,,,,,,,,,,,,,,,,,,,,,,,,,,,,,,,,,,,,,,,
,,,,,,,5bdab584b341a4000154256b,605b45a4d25f287719a41696,605b88ff92d85cc4dd1c98c2,I am not familiar with Spanish,Midwest,13 or older,no,2021-03-24_14h50.02.035,empathy_intonation_perc,2020.2.10,Win32,60,,,,,,,,,,0,peruvian,0,1,2.166705,0,14,14,0,1,1,./stim/wavs/andalusian_match_declarative-broad-focus_Ana-lleva-el-abrigo.wav,./stim/wavs/argentine_match_declarative-broad-focus_Ana-lleva-el-abrigo.wav,./stim/wavs/castilian_match_declarative-broad-focus_Ana-lleva-el-abrigo.wav,./stim/wavs/chilean_match_declarative-broad-focus_Ana-lleva-el-abrigo.wav,./stim/wavs/cuban_match_declarative-broad-focus_Ana-lleva-el-abrigo.wav,./stim/wavs/mexican_match_declarative-broad-focus_Ana-lleva-el-abrigo.wav,./stim/wavs/peruvian_match_declarative-broad-focus_Ana-lleva-el-abrigo.wav,./stim/wavs/puertorican_match_declarative-broad-focus_Ana-lleva-el-abrigo.wav,,,,,,,,,,,,,,,,,,,,,,,,,,,,,,,,,,,,,,,,,,,,,,,,,,,,,,,,
,,,,,,,5bdab584b341a4000154256b,605b45a4d25f287719a41696,605b88ff92d85cc4dd1c98c2,I am not familiar with Spanish,Midwest,13 or older,no,2021-03-24_14h50.02.035,empathy_intonation_perc,2020.2.10,Win32,60,,,,,,,,,,1,andalusian,1,1,2.09903,0,15,15,63,1,64,./stim/wavs/andalusian_mismatch_interrogative-total-yn_Mi-tia-odia-la-lluvia.wav,./stim/wavs/argentine_mismatch_interrogative-total-yn_Mi-tia-odia-la-lluvia.wav,./stim/wavs/castilian_mismatch_interrogative-total-yn_Mi-tia-odia-la-lluvia.wav,./stim/wavs/chilean_mismatch_interrogative-total-yn_Mi-tia-odia-la-lluvia.wav,./stim/wavs/cuban_mismatch_interrogative-total-yn_Mi-tia-odia-la-lluvia.wav,./stim/wavs/mexican_mismatch_interrogative-total-yn_Mi-tia-odia-la-lluvia.wav,./stim/wavs/peruvian_mismatch_interrogative-total-yn_Mi-tia-odia-la-lluvia.wav,./stim/wavs/puertorican_mismatch_interrogative-total-yn_Mi-tia-odia-la-lluvia.wav,,,,,,,,,,,,,,,,,,,,,,,,,,,,,,,,,,,,,,,,,,,,,,,,,,,,,,,,
,,,,,,,5bdab584b341a4000154256b,605b45a4d25f287719a41696,605b88ff92d85cc4dd1c98c2,I am not familiar with Spanish,Midwest,13 or older,no,2021-03-24_14h50.02.035,empathy_intonation_perc,2020.2.10,Win32,60,,,,,,,,,,1,mexican,1,1,1.88802,0,16,16,18,1,19,./stim/wavs/andalusian_match_interrogative-partial-wh_Cuando-lleva-el-abrigo.wav,./stim/wavs/argentine_match_interrogative-partial-wh_Cuando-lleva-el-abrigo.wav,./stim/wavs/castilian_match_interrogative-partial-wh_Cuando-lleva-el-abrigo.wav,./stim/wavs/chilean_match_interrogative-partial-wh_Cuando-lleva-el-abrigo.wav,./stim/wavs/cuban_match_interrogative-partial-wh_Cuando-lleva-el-abrigo.wav,./stim/wavs/mexican_match_interrogative-partial-wh_Cuando-lleva-el-abrigo.wav,./stim/wavs/peruvian_match_interrogative-partial-wh_Cuando-lleva-el-abrigo.wav,./stim/wavs/puertorican_match_interrogative-partial-wh_Cuando-lleva-el-abrigo.wav,,,,,,,,,,,,,,,,,,,,,,,,,,,,,,,,,,,,,,,,,,,,,,,,,,,,,,,,
,,,,,,,5bdab584b341a4000154256b,605b45a4d25f287719a41696,605b88ff92d85cc4dd1c98c2,I am not familiar with Spanish,Midwest,13 or older,no,2021-03-24_14h50.02.035,empathy_intonation_perc,2020.2.10,Win32,60,,,,,,,,,,1,peruvian,1,1,2.151145,0,17,17,62,1,63,./stim/wavs/andalusian_mismatch_interrogative-total-yn_Mi-novio-viene-del-lago.wav,./stim/wavs/argentine_mismatch_interrogative-total-yn_Mi-novio-viene-del-lago.wav,./stim/wavs/castilian_mismatch_interrogative-total-yn_Mi-novio-viene-del-lago.wav,./stim/wavs/chilean_mismatch_interrogative-total-yn_Mi-novio-viene-del-lago.wav,./stim/wavs/cuban_mismatch_interrogative-total-yn_Mi-novio-viene-del-lago.wav,./stim/wavs/mexican_mismatch_interrogative-total-yn_Mi-novio-viene-del-lago.wav,./stim/wavs/peruvian_mismatch_interrogative-total-yn_Mi-novio-viene-del-lago.wav,./stim/wavs/puertorican_mismatch_interrogative-total-yn_Mi-novio-viene-del-lago.wav,,,,,,,,,,,,,,,,,,,,,,,,,,,,,,,,,,,,,,,,,,,,,,,,,,,,,,,,
,,,,,,,5bdab584b341a4000154256b,605b45a4d25f287719a41696,605b88ff92d85cc4dd1c98c2,I am not familiar with Spanish,Midwest,13 or older,no,2021-03-24_14h50.02.035,empathy_intonation_perc,2020.2.10,Win32,60,,,,,,,,,,1,castilian,1,1,1.932155,0,18,18,21,1,22,./stim/wavs/andalusian_match_interrogative-partial-wh_Por-que-ama-la-navidad.wav,./stim/wavs/argentine_match_interrogative-partial-wh_Por-que-ama-la-navidad.wav,./stim/wavs/castilian_match_interrogative-partial-wh_Por-que-ama-la-navidad.wav,./stim/wavs/chilean_match_interrogative-partial-wh_Por-que-ama-la-navidad.wav,./stim/wavs/cuban_match_interrogative-partial-wh_Por-que-ama-la-navidad.wav,./stim/wavs/mexican_match_interrogative-partial-wh_Por-que-ama-la-navidad.wav,./stim/wavs/peruvian_match_interrogative-partial-wh_Por-que-ama-la-navidad.wav,./stim/wavs/puertorican_match_interrogative-partial-wh_Por-que-ama-la-navidad.wav,,,,,,,,,,,,,,,,,,,,,,,,,,,,,,,,,,,,,,,,,,,,,,,,,,,,,,,,
,,,,,,,5bdab584b341a4000154256b,605b45a4d25f287719a41696,605b88ff92d85cc4dd1c98c2,I am not familiar with Spanish,Midwest,13 or older,no,2021-03-24_14h50.02.035,empathy_intonation_perc,2020.2.10,Win32,60,,,,,,,,,,0,cuban,0,1,1.71282,0,19,19,33,1,34,./stim/wavs/andalusian_mismatch_declarative-broad-focus_El-hombre-mira-la-luna.wav,./stim/wavs/argentine_mismatch_declarative-broad-focus_El-hombre-mira-la-luna.wav,./stim/wavs/castilian_mismatch_declarative-broad-focus_El-hombre-mira-la-luna.wav,./stim/wavs/chilean_mismatch_declarative-broad-focus_El-hombre-mira-la-luna.wav,./stim/wavs/cuban_mismatch_declarative-broad-focus_El-hombre-mira-la-luna.wav,./stim/wavs/mexican_mismatch_declarative-broad-focus_El-hombre-mira-la-luna.wav,./stim/wavs/peruvian_mismatch_declarative-broad-focus_El-hombre-mira-la-luna.wav,./stim/wavs/puertorican_mismatch_declarative-broad-focus_El-hombre-mira-la-luna.wav,,,,,,,,,,,,,,,,,,,,,,,,,,,,,,,,,,,,,,,,,,,,,,,,,,,,,,,,
,,,,,,,5bdab584b341a4000154256b,605b45a4d25f287719a41696,605b88ff92d85cc4dd1c98c2,I am not familiar with Spanish,Midwest,13 or older,no,2021-03-24_14h50.02.035,empathy_intonation_perc,2020.2.10,Win32,60,,,,,,,,,,1,cuban,0,0,1.85057,0,20,20,16,1,17,./stim/wavs/andalusian_match_interrogative-partial-wh_Cuando-bebia-el-vino.wav,./stim/wavs/argentine_match_interrogative-partial-wh_Cuando-bebia-el-vino.wav,./stim/wavs/castilian_match_interrogative-partial-wh_Cuando-bebia-el-vino.wav,./stim/wavs/chilean_match_interrogative-partial-wh_Cuando-bebia-el-vino.wav,./stim/wavs/cuban_match_interrogative-partial-wh_Cuando-bebia-el-vino.wav,./stim/wavs/mexican_match_interrogative-partial-wh_Cuando-bebia-el-vino.wav,./stim/wavs/peruvian_match_interrogative-partial-wh_Cuando-bebia-el-vino.wav,./stim/wavs/puertorican_match_interrogative-partial-wh_Cuando-bebia-el-vino.wav,,,,,,,,,,,,,,,,,,,,,,,,,,,,,,,,,,,,,,,,,,,,,,,,,,,,,,,,
,,,,,,,5bdab584b341a4000154256b,605b45a4d25f287719a41696,605b88ff92d85cc4dd1c98c2,I am not familiar with Spanish,Midwest,13 or older,no,2021-03-24_14h50.02.035,empathy_intonation_perc,2020.2.10,Win32,60,,,,,,,,,,1,andalusian,0,0,2.16889,0,21,21,53,1,54,./stim/wavs/andalusian_mismatch_interrogative-partial-wh_Por-que-oia-el-rio.wav,./stim/wavs/argentine_mismatch_interrogative-partial-wh_Por-que-oia-el-rio.wav,./stim/wavs/castilian_mismatch_interrogative-partial-wh_Por-que-oia-el-rio.wav,./stim/wavs/chilean_mismatch_interrogative-partial-wh_Por-que-oia-el-rio.wav,./stim/wavs/cuban_mismatch_interrogative-partial-wh_Por-que-oia-el-rio.wav,./stim/wavs/mexican_mismatch_interrogative-partial-wh_Por-que-oia-el-rio.wav,./stim/wavs/peruvian_mismatch_interrogative-partial-wh_Por-que-oia-el-rio.wav,./stim/wavs/puertorican_mismatch_interrogative-partial-wh_Por-que-oia-el-rio.wav,,,,,,,,,,,,,,,,,,,,,,,,,,,,,,,,,,,,,,,,,,,,,,,,,,,,,,,,
,,,,,,,5bdab584b341a4000154256b,605b45a4d25f287719a41696,605b88ff92d85cc4dd1c98c2,I am not familiar with Spanish,Midwest,13 or older,no,2021-03-24_14h50.02.035,empathy_intonation_perc,2020.2.10,Win32,60,,,,,,,,,,0,peruvian,0,1,2.24435,0,22,22,37,1,38,./stim/wavs/andalusian_mismatch_declarative-broad-focus_Mi-madre-come-la-fruta.wav,./stim/wavs/argentine_mismatch_declarative-broad-focus_Mi-madre-come-la-fruta.wav,./stim/wavs/castilian_mismatch_declarative-broad-focus_Mi-madre-come-la-fruta.wav,./stim/wavs/chilean_mismatch_declarative-broad-focus_Mi-madre-come-la-fruta.wav,./stim/wavs/cuban_mismatch_declarative-broad-focus_Mi-madre-come-la-fruta.wav,./stim/wavs/mexican_mismatch_declarative-broad-focus_Mi-madre-come-la-fruta.wav,./stim/wavs/peruvian_mismatch_declarative-broad-focus_Mi-madre-come-la-fruta.wav,./stim/wavs/puertorican_mismatch_declarative-broad-focus_Mi-madre-come-la-fruta.wav,,,,,,,,,,,,,,,,,,,,,,,,,,,,,,,,,,,,,,,,,,,,,,,,,,,,,,,,
,,,,,,,5bdab584b341a4000154256b,605b45a4d25f287719a41696,605b88ff92d85cc4dd1c98c2,I am not familiar with Spanish,Midwest,13 or older,no,2021-03-24_14h50.02.035,empathy_intonation_perc,2020.2.10,Win32,60,,,,,,,,,,0,cuban,0,1,2.253715,0,23,23,1,1,2,./stim/wavs/andalusian_match_declarative-broad-focus_Daniel-iba-a-Bolivia.wav,./stim/wavs/argentine_match_declarative-broad-focus_Daniel-iba-a-Bolivia.wav,./stim/wavs/castilian_match_declarative-broad-focus_Daniel-iba-a-Bolivia.wav,./stim/wavs/chilean_match_declarative-broad-focus_Daniel-iba-a-Bolivia.wav,./stim/wavs/cuban_match_declarative-broad-focus_Daniel-iba-a-Bolivia.wav,./stim/wavs/mexican_match_declarative-broad-focus_Daniel-iba-a-Bolivia.wav,./stim/wavs/peruvian_match_declarative-broad-focus_Daniel-iba-a-Bolivia.wav,./stim/wavs/puertorican_match_declarative-broad-focus_Daniel-iba-a-Bolivia.wav,,,,,,,,,,,,,,,,,,,,,,,,,,,,,,,,,,,,,,,,,,,,,,,,,,,,,,,,
,,,,,,,5bdab584b341a4000154256b,605b45a4d25f287719a41696,605b88ff92d85cc4dd1c98c2,I am not familiar with Spanish,Midwest,13 or older,no,2021-03-24_14h50.02.035,empathy_intonation_perc,2020.2.10,Win32,60,,,,,,,,,,1,chilean,1,1,2.11863,0,24,24,52,1,53,./stim/wavs/andalusian_mismatch_interrogative-partial-wh_Por-que-odiaba-la-lluvia.wav,./stim/wavs/argentine_mismatch_interrogative-partial-wh_Por-que-odiaba-la-lluvia.wav,./stim/wavs/castilian_mismatch_interrogative-partial-wh_Por-que-odiaba-la-lluvia.wav,./stim/wavs/chilean_mismatch_interrogative-partial-wh_Por-que-odiaba-la-lluvia.wav,./stim/wavs/cuban_mismatch_interrogative-partial-wh_Por-que-odiaba-la-lluvia.wav,./stim/wavs/mexican_mismatch_interrogative-partial-wh_Por-que-odiaba-la-lluvia.wav,./stim/wavs/peruvian_mismatch_interrogative-partial-wh_Por-que-odiaba-la-lluvia.wav,./stim/wavs/puertorican_mismatch_interrogative-partial-wh_Por-que-odiaba-la-lluvia.wav,,,,,,,,,,,,,,,,,,,,,,,,,,,,,,,,,,,,,,,,,,,,,,,,,,,,,,,,
,,,,,,,5bdab584b341a4000154256b,605b45a4d25f287719a41696,605b88ff92d85cc4dd1c98c2,I am not familiar with Spanish,Midwest,13 or older,no,2021-03-24_14h50.02.035,empathy_intonation_perc,2020.2.10,Win32,60,,,,,,,,,,0,castilian,0,1,2.388385,0,25,25,45,1,46,./stim/wavs/andalusian_mismatch_declarative-narrow-focus_Mi-madre-come-la-fruta.wav,./stim/wavs/argentine_mismatch_declarative-narrow-focus_Mi-madre-come-la-fruta.wav,./stim/wavs/castilian_mismatch_declarative-narrow-focus_Mi-madre-come-la-fruta.wav,./stim/wavs/chilean_mismatch_declarative-narrow-focus_Mi-madre-come-la-fruta.wav,./stim/wavs/cuban_mismatch_declarative-narrow-focus_Mi-madre-come-la-fruta.wav,./stim/wavs/mexican_mismatch_declarative-narrow-focus_Mi-madre-come-la-fruta.wav,./stim/wavs/peruvian_mismatch_declarative-narrow-focus_Mi-madre-come-la-fruta.wav,./stim/wavs/puertorican_mismatch_declarative-narrow-focus_Mi-madre-come-la-fruta.wav,,,,,,,,,,,,,,,,,,,,,,,,,,,,,,,,,,,,,,,,,,,,,,,,,,,,,,,,
,,,,,,,5bdab584b341a4000154256b,605b45a4d25f287719a41696,605b88ff92d85cc4dd1c98c2,I am not familiar with Spanish,Midwest,13 or older,no,2021-03-24_14h50.02.035,empathy_intonation_perc,2020.2.10,Win32,60,,,,,,,,,,0,cuban,0,1,2.18404,0,26,26,6,1,7,./stim/wavs/andalusian_match_declarative-broad-focus_Mariano-habla-del-tiempo.wav,./stim/wavs/argentine_match_declarative-broad-focus_Mariano-habla-del-tiempo.wav,./stim/wavs/castilian_match_declarative-broad-focus_Mariano-habla-del-tiempo.wav,./stim/wavs/chilean_match_declarative-broad-focus_Mariano-habla-del-tiempo.wav,./stim/wavs/cuban_match_declarative-broad-focus_Mariano-habla-del-tiempo.wav,./stim/wavs/mexican_match_declarative-broad-focus_Mariano-habla-del-tiempo.wav,./stim/wavs/peruvian_match_declarative-broad-focus_Mariano-habla-del-tiempo.wav,./stim/wavs/puertorican_match_declarative-broad-focus_Mariano-habla-del-tiempo.wav,,,,,,,,,,,,,,,,,,,,,,,,,,,,,,,,,,,,,,,,,,,,,,,,,,,,,,,,
,,,,,,,5bdab584b341a4000154256b,605b45a4d25f287719a41696,605b88ff92d85cc4dd1c98c2,I am not familiar with Spanish,Midwest,13 or older,no,2021-03-24_14h50.02.035,empathy_intonation_perc,2020.2.10,Win32,60,,,,,,,,,,1,mexican,1,1,1.90739,0,27,27,25,1,26,./stim/wavs/andalusian_match_interrogative-total-yn_Daniel-iba-a-Bolivia.wav,./stim/wavs/argentine_match_interrogative-total-yn_Daniel-iba-a-Bolivia.wav,./stim/wavs/castilian_match_interrogative-total-yn_Daniel-iba-a-Bolivia.wav,./stim/wavs/chilean_match_interrogative-total-yn_Daniel-iba-a-Bolivia.wav,./stim/wavs/cuban_match_interrogative-total-yn_Daniel-iba-a-Bolivia.wav,./stim/wavs/mexican_match_interrogative-total-yn_Daniel-iba-a-Bolivia.wav,./stim/wavs/peruvian_match_interrogative-total-yn_Daniel-iba-a-Bolivia.wav,./stim/wavs/puertorican_match_interrogative-total-yn_Daniel-iba-a-Bolivia.wav,,,,,,,,,,,,,,,,,,,,,,,,,,,,,,,,,,,,,,,,,,,,,,,,,,,,,,,,
,,,,,,,5bdab584b341a4000154256b,605b45a4d25f287719a41696,605b88ff92d85cc4dd1c98c2,I am not familiar with Spanish,Midwest,13 or older,no,2021-03-24_14h50.02.035,empathy_intonation_perc,2020.2.10,Win32,60,,,,,,,,,,1,castilian,1,1,1.89145,0,28,28,23,1,24,./stim/wavs/andalusian_match_interrogative-partial-wh_Por-que-iba-a-Bolivia.wav,./stim/wavs/argentine_match_interrogative-partial-wh_Por-que-iba-a-Bolivia.wav,./stim/wavs/castilian_match_interrogative-partial-wh_Por-que-iba-a-Bolivia.wav,./stim/wavs/chilean_match_interrogative-partial-wh_Por-que-iba-a-Bolivia.wav,./stim/wavs/cuban_match_interrogative-partial-wh_Por-que-iba-a-Bolivia.wav,./stim/wavs/mexican_match_interrogative-partial-wh_Por-que-iba-a-Bolivia.wav,./stim/wavs/peruvian_match_interrogative-partial-wh_Por-que-iba-a-Bolivia.wav,./stim/wavs/puertorican_match_interrogative-partial-wh_Por-que-iba-a-Bolivia.wav,,,,,,,,,,,,,,,,,,,,,,,,,,,,,,,,,,,,,,,,,,,,,,,,,,,,,,,,
,,,,,,,5bdab584b341a4000154256b,605b45a4d25f287719a41696,605b88ff92d85cc4dd1c98c2,I am not familiar with Spanish,Midwest,13 or older,no,2021-03-24_14h50.02.035,empathy_intonation_perc,2020.2.10,Win32,60,,,,,,,,,,0,castilian,0,1,2.25758,0,29,29,36,1,37,./stim/wavs/andalusian_mismatch_declarative-broad-focus_La-nina-lava-el-plato.wav,./stim/wavs/argentine_mismatch_declarative-broad-focus_La-nina-lava-el-plato.wav,./stim/wavs/castilian_mismatch_declarative-broad-focus_La-nina-lava-el-plato.wav,./stim/wavs/chilean_mismatch_declarative-broad-focus_La-nina-lava-el-plato.wav,./stim/wavs/cuban_mismatch_declarative-broad-focus_La-nina-lava-el-plato.wav,./stim/wavs/mexican_mismatch_declarative-broad-focus_La-nina-lava-el-plato.wav,./stim/wavs/peruvian_mismatch_declarative-broad-focus_La-nina-lava-el-plato.wav,./stim/wavs/puertorican_mismatch_declarative-broad-focus_La-nina-lava-el-plato.wav,,,,,,,,,,,,,,,,,,,,,,,,,,,,,,,,,,,,,,,,,,,,,,,,,,,,,,,,
,,,,,,,5bdab584b341a4000154256b,605b45a4d25f287719a41696,605b88ff92d85cc4dd1c98c2,I am not familiar with Spanish,Midwest,13 or older,no,2021-03-24_14h50.02.035,empathy_intonation_perc,2020.2.10,Win32,60,,,,,,,,,,0,puertorican,0,1,1.850595,0,30,30,47,1,48,./stim/wavs/andalusian_mismatch_declarative-narrow-focus_Mi-tia-odia-la-lluvia.wav,./stim/wavs/argentine_mismatch_declarative-narrow-focus_Mi-tia-odia-la-lluvia.wav,./stim/wavs/castilian_mismatch_declarative-narrow-focus_Mi-tia-odia-la-lluvia.wav,./stim/wavs/chilean_mismatch_declarative-narrow-focus_Mi-tia-odia-la-lluvia.wav,./stim/wavs/cuban_mismatch_declarative-narrow-focus_Mi-tia-odia-la-lluvia.wav,./stim/wavs/mexican_mismatch_declarative-narrow-focus_Mi-tia-odia-la-lluvia.wav,./stim/wavs/peruvian_mismatch_declarative-narrow-focus_Mi-tia-odia-la-lluvia.wav,./stim/wavs/puertorican_mismatch_declarative-narrow-focus_Mi-tia-odia-la-lluvia.wav,,,,,,,,,,,,,,,,,,,,,,,,,,,,,,,,,,,,,,,,,,,,,,,,,,,,,,,,
,,,,,,,5bdab584b341a4000154256b,605b45a4d25f287719a41696,605b88ff92d85cc4dd1c98c2,I am not familiar with Spanish,Midwest,13 or older,no,2021-03-24_14h50.02.035,empathy_intonation_perc,2020.2.10,Win32,60,,,,,,,,,,0,cuban,0,1,1.876635,0,31,31,11,1,12,./stim/wavs/andalusian_match_declarative-narrow-focus_Emilio-ama-la-marcha.wav,./stim/wavs/argentine_match_declarative-narrow-focus_Emilio-ama-la-marcha.wav,./stim/wavs/castilian_match_declarative-narrow-focus_Emilio-ama-la-marcha.wav,./stim/wavs/chilean_match_declarative-narrow-focus_Emilio-ama-la-marcha.wav,./stim/wavs/cuban_match_declarative-narrow-focus_Emilio-ama-la-marcha.wav,./stim/wavs/mexican_match_declarative-narrow-focus_Emilio-ama-la-marcha.wav,./stim/wavs/peruvian_match_declarative-narrow-focus_Emilio-ama-la-marcha.wav,./stim/wavs/puertorican_match_declarative-narrow-focus_Emilio-ama-la-marcha.wav,,,,,,,,,,,,,,,,,,,,,,,,,,,,,,,,,,,,,,,,,,,,,,,,,,,,,,,,
,,,,,,,5bdab584b341a4000154256b,605b45a4d25f287719a41696,605b88ff92d85cc4dd1c98c2,I am not familiar with Spanish,Midwest,13 or older,no,2021-03-24_14h50.02.035,empathy_intonation_perc,2020.2.10,Win32,60,,,,,,,,,,1,argentine,0,0,1.67565,0,32,32,49,1,50,./stim/wavs/andalusian_mismatch_interrogative-partial-wh_Cuando-lavaba-el-plato.wav,./stim/wavs/argentine_mismatch_interrogative-partial-wh_Cuando-lavaba-el-plato.wav,./stim/wavs/castilian_mismatch_interrogative-partial-wh_Cuando-lavaba-el-plato.wav,./stim/wavs/chilean_mismatch_interrogative-partial-wh_Cuando-lavaba-el-plato.wav,./stim/wavs/cuban_mismatch_interrogative-partial-wh_Cuando-lavaba-el-plato.wav,./stim/wavs/mexican_mismatch_interrogative-partial-wh_Cuando-lavaba-el-plato.wav,./stim/wavs/peruvian_mismatch_interrogative-partial-wh_Cuando-lavaba-el-plato.wav,./stim/wavs/puertorican_mismatch_interrogative-partial-wh_Cuando-lavaba-el-plato.wav,,,,,,,,,,,,,,,,,,,,,,,,,,,,,,,,,,,,,,,,,,,,,,,,,,,,,,,,
,,,,,,,5bdab584b341a4000154256b,605b45a4d25f287719a41696,605b88ff92d85cc4dd1c98c2,I am not familiar with Spanish,Midwest,13 or older,no,2021-03-24_14h50.02.035,empathy_intonation_perc,2020.2.10,Win32,60,,,,,,,,,,0,mexican,0,1,1.66883,0,33,33,5,1,6,./stim/wavs/andalusian_match_declarative-broad-focus_Maria-bebe-el-vino.wav,./stim/wavs/argentine_match_declarative-broad-focus_Maria-bebe-el-vino.wav,./stim/wavs/castilian_match_declarative-broad-focus_Maria-bebe-el-vino.wav,./stim/wavs/chilean_match_declarative-broad-focus_Maria-bebe-el-vino.wav,./stim/wavs/cuban_match_declarative-broad-focus_Maria-bebe-el-vino.wav,./stim/wavs/mexican_match_declarative-broad-focus_Maria-bebe-el-vino.wav,./stim/wavs/peruvian_match_declarative-broad-focus_Maria-bebe-el-vino.wav,./stim/wavs/puertorican_match_declarative-broad-focus_Maria-bebe-el-vino.wav,,,,,,,,,,,,,,,,,,,,,,,,,,,,,,,,,,,,,,,,,,,,,,,,,,,,,,,,
,,,,,,,5bdab584b341a4000154256b,605b45a4d25f287719a41696,605b88ff92d85cc4dd1c98c2,I am not familiar with Spanish,Midwest,13 or older,no,2021-03-24_14h50.02.035,empathy_intonation_perc,2020.2.10,Win32,60,,,,,,,,,,1,andalusian,1,1,1.92384,0,34,34,27,1,28,./stim/wavs/andalusian_match_interrogative-total-yn_Emilio-ama-la-marcha.wav,./stim/wavs/argentine_match_interrogative-total-yn_Emilio-ama-la-marcha.wav,./stim/wavs/castilian_match_interrogative-total-yn_Emilio-ama-la-marcha.wav,./stim/wavs/chilean_match_interrogative-total-yn_Emilio-ama-la-marcha.wav,./stim/wavs/cuban_match_interrogative-total-yn_Emilio-ama-la-marcha.wav,./stim/wavs/mexican_match_interrogative-total-yn_Emilio-ama-la-marcha.wav,./stim/wavs/peruvian_match_interrogative-total-yn_Emilio-ama-la-marcha.wav,./stim/wavs/puertorican_match_interrogative-total-yn_Emilio-ama-la-marcha.wav,,,,,,,,,,,,,,,,,,,,,,,,,,,,,,,,,,,,,,,,,,,,,,,,,,,,,,,,
,,,,,,,5bdab584b341a4000154256b,605b45a4d25f287719a41696,605b88ff92d85cc4dd1c98c2,I am not familiar with Spanish,Midwest,13 or older,no,2021-03-24_14h50.02.035,empathy_intonation_perc,2020.2.10,Win32,60,,,,,,,,,,1,peruvian,0,0,1.993625,0,35,35,20,1,21,./stim/wavs/andalusian_match_interrogative-partial-wh_Por-que-abre-el-regalo.wav,./stim/wavs/argentine_match_interrogative-partial-wh_Por-que-abre-el-regalo.wav,./stim/wavs/castilian_match_interrogative-partial-wh_Por-que-abre-el-regalo.wav,./stim/wavs/chilean_match_interrogative-partial-wh_Por-que-abre-el-regalo.wav,./stim/wavs/cuban_match_interrogative-partial-wh_Por-que-abre-el-regalo.wav,./stim/wavs/mexican_match_interrogative-partial-wh_Por-que-abre-el-regalo.wav,./stim/wavs/peruvian_match_interrogative-partial-wh_Por-que-abre-el-regalo.wav,./stim/wavs/puertorican_match_interrogative-partial-wh_Por-que-abre-el-regalo.wav,,,,,,,,,,,,,,,,,,,,,,,,,,,,,,,,,,,,,,,,,,,,,,,,,,,,,,,,
,,,,,,,5bdab584b341a4000154256b,605b45a4d25f287719a41696,605b88ff92d85cc4dd1c98c2,I am not familiar with Spanish,Midwest,13 or older,no,2021-03-24_14h50.02.035,empathy_intonation_perc,2020.2.10,Win32,60,,,,,,,,,,0,castilian,0,1,2.03603,0,36,36,46,1,47,./stim/wavs/andalusian_mismatch_declarative-narrow-focus_Mi-novio-viene-del-lago.wav,./stim/wavs/argentine_mismatch_declarative-narrow-focus_Mi-novio-viene-del-lago.wav,./stim/wavs/castilian_mismatch_declarative-narrow-focus_Mi-novio-viene-del-lago.wav,./stim/wavs/chilean_mismatch_declarative-narrow-focus_Mi-novio-viene-del-lago.wav,./stim/wavs/cuban_mismatch_declarative-narrow-focus_Mi-novio-viene-del-lago.wav,./stim/wavs/mexican_mismatch_declarative-narrow-focus_Mi-novio-viene-del-lago.wav,./stim/wavs/peruvian_mismatch_declarative-narrow-focus_Mi-novio-viene-del-lago.wav,./stim/wavs/puertorican_mismatch_declarative-narrow-focus_Mi-novio-viene-del-lago.wav,,,,,,,,,,,,,,,,,,,,,,,,,,,,,,,,,,,,,,,,,,,,,,,,,,,,,,,,
,,,,,,,5bdab584b341a4000154256b,605b45a4d25f287719a41696,605b88ff92d85cc4dd1c98c2,I am not familiar with Spanish,Midwest,13 or older,no,2021-03-24_14h50.02.035,empathy_intonation_perc,2020.2.10,Win32,60,,,,,,,,,,0,chilean,0,1,1.919405,0,37,37,44,1,45,./stim/wavs/andalusian_mismatch_declarative-narrow-focus_La-nina-lava-el-plato.wav,./stim/wavs/argentine_mismatch_declarative-narrow-focus_La-nina-lava-el-plato.wav,./stim/wavs/castilian_mismatch_declarative-narrow-focus_La-nina-lava-el-plato.wav,./stim/wavs/chilean_mismatch_declarative-narrow-focus_La-nina-lava-el-plato.wav,./stim/wavs/cuban_mismatch_declarative-narrow-focus_La-nina-lava-el-plato.wav,./stim/wavs/mexican_mismatch_declarative-narrow-focus_La-nina-lava-el-plato.wav,./stim/wavs/peruvian_mismatch_declarative-narrow-focus_La-nina-lava-el-plato.wav,./stim/wavs/puertorican_mismatch_declarative-narrow-focus_La-nina-lava-el-plato.wav,,,,,,,,,,,,,,,,,,,,,,,,,,,,,,,,,,,,,,,,,,,,,,,,,,,,,,,,
,,,,,,,5bdab584b341a4000154256b,605b45a4d25f287719a41696,605b88ff92d85cc4dd1c98c2,I am not familiar with Spanish,Midwest,13 or older,no,2021-03-24_14h50.02.035,empathy_intonation_perc,2020.2.10,Win32,60,,,,,,,,,,1,puertorican,0,0,1.69267,0,38,38,22,1,23,./stim/wavs/andalusian_match_interrogative-partial-wh_Por-que-hablaba-del-agua.wav,./stim/wavs/argentine_match_interrogative-partial-wh_Por-que-hablaba-del-agua.wav,./stim/wavs/castilian_match_interrogative-partial-wh_Por-que-hablaba-del-agua.wav,./stim/wavs/chilean_match_interrogative-partial-wh_Por-que-hablaba-del-agua.wav,./stim/wavs/cuban_match_interrogative-partial-wh_Por-que-hablaba-del-agua.wav,./stim/wavs/mexican_match_interrogative-partial-wh_Por-que-hablaba-del-agua.wav,./stim/wavs/peruvian_match_interrogative-partial-wh_Por-que-hablaba-del-agua.wav,./stim/wavs/puertorican_match_interrogative-partial-wh_Por-que-hablaba-del-agua.wav,,,,,,,,,,,,,,,,,,,,,,,,,,,,,,,,,,,,,,,,,,,,,,,,,,,,,,,,
,,,,,,,5bdab584b341a4000154256b,605b45a4d25f287719a41696,605b88ff92d85cc4dd1c98c2,I am not familiar with Spanish,Midwest,13 or older,no,2021-03-24_14h50.02.035,empathy_intonation_perc,2020.2.10,Win32,60,,,,,,,,,,0,cuban,0,1,1.69118,0,39,39,12,1,13,./stim/wavs/andalusian_match_declarative-narrow-focus_Manuela-vende-el-carro.wav,./stim/wavs/argentine_match_declarative-narrow-focus_Manuela-vende-el-carro.wav,./stim/wavs/castilian_match_declarative-narrow-focus_Manuela-vende-el-carro.wav,./stim/wavs/chilean_match_declarative-narrow-focus_Manuela-vende-el-carro.wav,./stim/wavs/cuban_match_declarative-narrow-focus_Manuela-vende-el-carro.wav,./stim/wavs/mexican_match_declarative-narrow-focus_Manuela-vende-el-carro.wav,./stim/wavs/peruvian_match_declarative-narrow-focus_Manuela-vende-el-carro.wav,./stim/wavs/puertorican_match_declarative-narrow-focus_Manuela-vende-el-carro.wav,,,,,,,,,,,,,,,,,,,,,,,,,,,,,,,,,,,,,,,,,,,,,,,,,,,,,,,,
,,,,,,,5bdab584b341a4000154256b,605b45a4d25f287719a41696,605b88ff92d85cc4dd1c98c2,I am not familiar with Spanish,Midwest,13 or older,no,2021-03-24_14h50.02.035,empathy_intonation_perc,2020.2.10,Win32,60,,,,,,,,,,1,argentine,1,1,1.86741,0,40,40,61,1,62,./stim/wavs/andalusian_mismatch_interrogative-total-yn_Mi-madre-come-la-fruta.wav,./stim/wavs/argentine_mismatch_interrogative-total-yn_Mi-madre-come-la-fruta.wav,./stim/wavs/castilian_mismatch_interrogative-total-yn_Mi-madre-come-la-fruta.wav,./stim/wavs/chilean_mismatch_interrogative-total-yn_Mi-madre-come-la-fruta.wav,./stim/wavs/cuban_mismatch_interrogative-total-yn_Mi-madre-come-la-fruta.wav,./stim/wavs/mexican_mismatch_interrogative-total-yn_Mi-madre-come-la-fruta.wav,./stim/wavs/peruvian_mismatch_interrogative-total-yn_Mi-madre-come-la-fruta.wav,./stim/wavs/puertorican_mismatch_interrogative-total-yn_Mi-madre-come-la-fruta.wav,,,,,,,,,,,,,,,,,,,,,,,,,,,,,,,,,,,,,,,,,,,,,,,,,,,,,,,,
,,,,,,,5bdab584b341a4000154256b,605b45a4d25f287719a41696,605b88ff92d85cc4dd1c98c2,I am not familiar with Spanish,Midwest,13 or older,no,2021-03-24_14h50.02.035,empathy_intonation_perc,2020.2.10,Win32,60,,,,,,,,,,1,cuban,0,0,2.10872,0,41,41,56,1,57,./stim/wavs/andalusian_mismatch_interrogative-total-yn_El-bebe-comia-muy-bien.wav,./stim/wavs/argentine_mismatch_interrogative-total-yn_El-bebe-comia-muy-bien.wav,./stim/wavs/castilian_mismatch_interrogative-total-yn_El-bebe-comia-muy-bien.wav,./stim/wavs/chilean_mismatch_interrogative-total-yn_El-bebe-comia-muy-bien.wav,./stim/wavs/cuban_mismatch_interrogative-total-yn_El-bebe-comia-muy-bien.wav,./stim/wavs/mexican_mismatch_interrogative-total-yn_El-bebe-comia-muy-bien.wav,./stim/wavs/peruvian_mismatch_interrogative-total-yn_El-bebe-comia-muy-bien.wav,./stim/wavs/puertorican_mismatch_interrogative-total-yn_El-bebe-comia-muy-bien.wav,,,,,,,,,,,,,,,,,,,,,,,,,,,,,,,,,,,,,,,,,,,,,,,,,,,,,,,,
,,,,,,,5bdab584b341a4000154256b,605b45a4d25f287719a41696,605b88ff92d85cc4dd1c98c2,I am not familiar with Spanish,Midwest,13 or older,no,2021-03-24_14h50.02.035,empathy_intonation_perc,2020.2.10,Win32,60,,,,,,,,,,1,castilian,0,0,1.93385,0,42,42,28,1,29,./stim/wavs/andalusian_match_interrogative-total-yn_Manuela-vende-el-carro.wav,./stim/wavs/argentine_match_interrogative-total-yn_Manuela-vende-el-carro.wav,./stim/wavs/castilian_match_interrogative-total-yn_Manuela-vende-el-carro.wav,./stim/wavs/chilean_match_interrogative-total-yn_Manuela-vende-el-carro.wav,./stim/wavs/cuban_match_interrogative-total-yn_Manuela-vende-el-carro.wav,./stim/wavs/mexican_match_interrogative-total-yn_Manuela-vende-el-carro.wav,./stim/wavs/peruvian_match_interrogative-total-yn_Manuela-vende-el-carro.wav,./stim/wavs/puertorican_match_interrogative-total-yn_Manuela-vende-el-carro.wav,,,,,,,,,,,,,,,,,,,,,,,,,,,,,,,,,,,,,,,,,,,,,,,,,,,,,,,,
,,,,,,,5bdab584b341a4000154256b,605b45a4d25f287719a41696,605b88ff92d85cc4dd1c98c2,I am not familiar with Spanish,Midwest,13 or older,no,2021-03-24_14h50.02.035,empathy_intonation_perc,2020.2.10,Win32,60,,,,,,,,,,1,argentine,1,1,1.882185,0,43,43,58,1,59,./stim/wavs/andalusian_mismatch_interrogative-total-yn_El-nino-oye-el-rio.wav,./stim/wavs/argentine_mismatch_interrogative-total-yn_El-nino-oye-el-rio.wav,./stim/wavs/castilian_mismatch_interrogative-total-yn_El-nino-oye-el-rio.wav,./stim/wavs/chilean_mismatch_interrogative-total-yn_El-nino-oye-el-rio.wav,./stim/wavs/cuban_mismatch_interrogative-total-yn_El-nino-oye-el-rio.wav,./stim/wavs/mexican_mismatch_interrogative-total-yn_El-nino-oye-el-rio.wav,./stim/wavs/peruvian_mismatch_interrogative-total-yn_El-nino-oye-el-rio.wav,./stim/wavs/puertorican_mismatch_interrogative-total-yn_El-nino-oye-el-rio.wav,,,,,,,,,,,,,,,,,,,,,,,,,,,,,,,,,,,,,,,,,,,,,,,,,,,,,,,,
,,,,,,,5bdab584b341a4000154256b,605b45a4d25f287719a41696,605b88ff92d85cc4dd1c98c2,I am not familiar with Spanish,Midwest,13 or older,no,2021-03-24_14h50.02.035,empathy_intonation_perc,2020.2.10,Win32,60,,,,,,,,,,0,chilean,0,1,2.1437,0,44,44,10,1,11,./stim/wavs/andalusian_match_declarative-narrow-focus_David-leia-el-libro.wav,./stim/wavs/argentine_match_declarative-narrow-focus_David-leia-el-libro.wav,./stim/wavs/castilian_match_declarative-narrow-focus_David-leia-el-libro.wav,./stim/wavs/chilean_match_declarative-narrow-focus_David-leia-el-libro.wav,./stim/wavs/cuban_match_declarative-narrow-focus_David-leia-el-libro.wav,./stim/wavs/mexican_match_declarative-narrow-focus_David-leia-el-libro.wav,./stim/wavs/peruvian_match_declarative-narrow-focus_David-leia-el-libro.wav,./stim/wavs/puertorican_match_declarative-narrow-focus_David-leia-el-libro.wav,,,,,,,,,,,,,,,,,,,,,,,,,,,,,,,,,,,,,,,,,,,,,,,,,,,,,,,,
,,,,,,,5bdab584b341a4000154256b,605b45a4d25f287719a41696,605b88ff92d85cc4dd1c98c2,I am not familiar with Spanish,Midwest,13 or older,no,2021-03-24_14h50.02.035,empathy_intonation_perc,2020.2.10,Win32,60,,,,,,,,,,0,andalusian,0,1,1.935255,0,45,45,7,1,8,./stim/wavs/andalusian_match_declarative-broad-focus_Marta-abre-el-regalo.wav,./stim/wavs/argentine_match_declarative-broad-focus_Marta-abre-el-regalo.wav,./stim/wavs/castilian_match_declarative-broad-focus_Marta-abre-el-regalo.wav,./stim/wavs/chilean_match_declarative-broad-focus_Marta-abre-el-regalo.wav,./stim/wavs/cuban_match_declarative-broad-focus_Marta-abre-el-regalo.wav,./stim/wavs/mexican_match_declarative-broad-focus_Marta-abre-el-regalo.wav,./stim/wavs/peruvian_match_declarative-broad-focus_Marta-abre-el-regalo.wav,./stim/wavs/puertorican_match_declarative-broad-focus_Marta-abre-el-regalo.wav,,,,,,,,,,,,,,,,,,,,,,,,,,,,,,,,,,,,,,,,,,,,,,,,,,,,,,,,
,,,,,,,5bdab584b341a4000154256b,605b45a4d25f287719a41696,605b88ff92d85cc4dd1c98c2,I am not familiar with Spanish,Midwest,13 or older,no,2021-03-24_14h50.02.035,empathy_intonation_perc,2020.2.10,Win32,60,,,,,,,,,,1,mexican,1,1,2.052615,0,46,46,31,1,32,./stim/wavs/andalusian_match_interrogative-total-yn_Marta-abre-el-regalo.wav,./stim/wavs/argentine_match_interrogative-total-yn_Marta-abre-el-regalo.wav,./stim/wavs/castilian_match_interrogative-total-yn_Marta-abre-el-regalo.wav,./stim/wavs/chilean_match_interrogative-total-yn_Marta-abre-el-regalo.wav,./stim/wavs/cuban_match_interrogative-total-yn_Marta-abre-el-regalo.wav,./stim/wavs/mexican_match_interrogative-total-yn_Marta-abre-el-regalo.wav,./stim/wavs/peruvian_match_interrogative-total-yn_Marta-abre-el-regalo.wav,./stim/wavs/puertorican_match_interrogative-total-yn_Marta-abre-el-regalo.wav,,,,,,,,,,,,,,,,,,,,,,,,,,,,,,,,,,,,,,,,,,,,,,,,,,,,,,,,
,,,,,,,5bdab584b341a4000154256b,605b45a4d25f287719a41696,605b88ff92d85cc4dd1c98c2,I am not familiar with Spanish,Midwest,13 or older,no,2021-03-24_14h50.02.035,empathy_intonation_perc,2020.2.10,Win32,60,,,,,,,,,,0,puertorican,0,1,1.882845,0,47,47,43,1,44,./stim/wavs/andalusian_mismatch_declarative-narrow-focus_La-maestra-vive-en-Paris.wav,./stim/wavs/argentine_mismatch_declarative-narrow-focus_La-maestra-vive-en-Paris.wav,./stim/wavs/castilian_mismatch_declarative-narrow-focus_La-maestra-vive-en-Paris.wav,./stim/wavs/chilean_mismatch_declarative-narrow-focus_La-maestra-vive-en-Paris.wav,./stim/wavs/cuban_mismatch_declarative-narrow-focus_La-maestra-vive-en-Paris.wav,./stim/wavs/mexican_mismatch_declarative-narrow-focus_La-maestra-vive-en-Paris.wav,./stim/wavs/peruvian_mismatch_declarative-narrow-focus_La-maestra-vive-en-Paris.wav,./stim/wavs/puertorican_mismatch_declarative-narrow-focus_La-maestra-vive-en-Paris.wav,,,,,,,,,,,,,,,,,,,,,,,,,,,,,,,,,,,,,,,,,,,,,,,,,,,,,,,,
,,,,,,,5bdab584b341a4000154256b,605b45a4d25f287719a41696,605b88ff92d85cc4dd1c98c2,I am not familiar with Spanish,Midwest,13 or older,no,2021-03-24_14h50.02.035,empathy_intonation_perc,2020.2.10,Win32,60,,,,,,,,,,0,chilean,1,0,2.02055,0,48,48,35,1,36,./stim/wavs/andalusian_mismatch_declarative-broad-focus_La-maestra-vive-en-Paris.wav,./stim/wavs/argentine_mismatch_declarative-broad-focus_La-maestra-vive-en-Paris.wav,./stim/wavs/castilian_mismatch_declarative-broad-focus_La-maestra-vive-en-Paris.wav,./stim/wavs/chilean_mismatch_declarative-broad-focus_La-maestra-vive-en-Paris.wav,./stim/wavs/cuban_mismatch_declarative-broad-focus_La-maestra-vive-en-Paris.wav,./stim/wavs/mexican_mismatch_declarative-broad-focus_La-maestra-vive-en-Paris.wav,./stim/wavs/peruvian_mismatch_declarative-broad-focus_La-maestra-vive-en-Paris.wav,./stim/wavs/puertorican_mismatch_declarative-broad-focus_La-maestra-vive-en-Paris.wav,,,,,,,,,,,,,,,,,,,,,,,,,,,,,,,,,,,,,,,,,,,,,,,,,,,,,,,,
,,,,,,,5bdab584b341a4000154256b,605b45a4d25f287719a41696,605b88ff92d85cc4dd1c98c2,I am not familiar with Spanish,Midwest,13 or older,no,2021-03-24_14h50.02.035,empathy_intonation_perc,2020.2.10,Win32,60,,,,,,,,,,1,cuban,0,0,1.950355,0,49,49,19,1,20,./stim/wavs/andalusian_match_interrogative-partial-wh_Cuando-vendia-el-carro.wav,./stim/wavs/argentine_match_interrogative-partial-wh_Cuando-vendia-el-carro.wav,./stim/wavs/castilian_match_interrogative-partial-wh_Cuando-vendia-el-carro.wav,./stim/wavs/chilean_match_interrogative-partial-wh_Cuando-vendia-el-carro.wav,./stim/wavs/cuban_match_interrogative-partial-wh_Cuando-vendia-el-carro.wav,./stim/wavs/mexican_match_interrogative-partial-wh_Cuando-vendia-el-carro.wav,./stim/wavs/peruvian_match_interrogative-partial-wh_Cuando-vendia-el-carro.wav,./stim/wavs/puertorican_match_interrogative-partial-wh_Cuando-vendia-el-carro.wav,,,,,,,,,,,,,,,,,,,,,,,,,,,,,,,,,,,,,,,,,,,,,,,,,,,,,,,,
,,,,,,,5bdab584b341a4000154256b,605b45a4d25f287719a41696,605b88ff92d85cc4dd1c98c2,I am not familiar with Spanish,Midwest,13 or older,no,2021-03-24_14h50.02.035,empathy_intonation_perc,2020.2.10,Win32,60,,,,,,,,,,1,andalusian,1,1,1.69705,0,50,50,26,1,27,./stim/wavs/andalusian_match_interrogative-total-yn_David-leia-el-libro.wav,./stim/wavs/argentine_match_interrogative-total-yn_David-leia-el-libro.wav,./stim/wavs/castilian_match_interrogative-total-yn_David-leia-el-libro.wav,./stim/wavs/chilean_match_interrogative-total-yn_David-leia-el-libro.wav,./stim/wavs/cuban_match_interrogative-total-yn_David-leia-el-libro.wav,./stim/wavs/mexican_match_interrogative-total-yn_David-leia-el-libro.wav,./stim/wavs/peruvian_match_interrogative-total-yn_David-leia-el-libro.wav,./stim/wavs/puertorican_match_interrogative-total-yn_David-leia-el-libro.wav,,,,,,,,,,,,,,,,,,,,,,,,,,,,,,,,,,,,,,,,,,,,,,,,,,,,,,,,
,,,,,,,5bdab584b341a4000154256b,605b45a4d25f287719a41696,605b88ff92d85cc4dd1c98c2,I am not familiar with Spanish,Midwest,13 or older,no,2021-03-24_14h50.02.035,empathy_intonation_perc,2020.2.10,Win32,60,,,,,,,,,,0,andalusian,0,1,1.840965,0,51,51,32,1,33,./stim/wavs/andalusian_mismatch_declarative-broad-focus_El-bebe-comia-muy-bien.wav,./stim/wavs/argentine_mismatch_declarative-broad-focus_El-bebe-comia-muy-bien.wav,./stim/wavs/castilian_mismatch_declarative-broad-focus_El-bebe-comia-muy-bien.wav,./stim/wavs/chilean_mismatch_declarative-broad-focus_El-bebe-comia-muy-bien.wav,./stim/wavs/cuban_mismatch_declarative-broad-focus_El-bebe-comia-muy-bien.wav,./stim/wavs/mexican_mismatch_declarative-broad-focus_El-bebe-comia-muy-bien.wav,./stim/wavs/peruvian_mismatch_declarative-broad-focus_El-bebe-comia-muy-bien.wav,./stim/wavs/puertorican_mismatch_declarative-broad-focus_El-bebe-comia-muy-bien.wav,,,,,,,,,,,,,,,,,,,,,,,,,,,,,,,,,,,,,,,,,,,,,,,,,,,,,,,,
,,,,,,,5bdab584b341a4000154256b,605b45a4d25f287719a41696,605b88ff92d85cc4dd1c98c2,I am not familiar with Spanish,Midwest,13 or older,no,2021-03-24_14h50.02.035,empathy_intonation_perc,2020.2.10,Win32,60,,,,,,,,,,0,argentine,0,1,1.978385,0,52,52,42,1,43,./stim/wavs/andalusian_mismatch_declarative-narrow-focus_El-nino-oye-el-rio.wav,./stim/wavs/argentine_mismatch_declarative-narrow-focus_El-nino-oye-el-rio.wav,./stim/wavs/castilian_mismatch_declarative-narrow-focus_El-nino-oye-el-rio.wav,./stim/wavs/chilean_mismatch_declarative-narrow-focus_El-nino-oye-el-rio.wav,./stim/wavs/cuban_mismatch_declarative-narrow-focus_El-nino-oye-el-rio.wav,./stim/wavs/mexican_mismatch_declarative-narrow-focus_El-nino-oye-el-rio.wav,./stim/wavs/peruvian_mismatch_declarative-narrow-focus_El-nino-oye-el-rio.wav,./stim/wavs/puertorican_mismatch_declarative-narrow-focus_El-nino-oye-el-rio.wav,,,,,,,,,,,,,,,,,,,,,,,,,,,,,,,,,,,,,,,,,,,,,,,,,,,,,,,,
,,,,,,,5bdab584b341a4000154256b,605b45a4d25f287719a41696,605b88ff92d85cc4dd1c98c2,I am not familiar with Spanish,Midwest,13 or older,no,2021-03-24_14h50.02.035,empathy_intonation_perc,2020.2.10,Win32,60,,,,,,,,,,1,chilean,0,0,1.895695,0,53,53,54,1,55,./stim/wavs/andalusian_mismatch_interrogative-partial-wh_Por-que-venia-del-lago.wav,./stim/wavs/argentine_mismatch_interrogative-partial-wh_Por-que-venia-del-lago.wav,./stim/wavs/castilian_mismatch_interrogative-partial-wh_Por-que-venia-del-lago.wav,./stim/wavs/chilean_mismatch_interrogative-partial-wh_Por-que-venia-del-lago.wav,./stim/wavs/cuban_mismatch_interrogative-partial-wh_Por-que-venia-del-lago.wav,./stim/wavs/mexican_mismatch_interrogative-partial-wh_Por-que-venia-del-lago.wav,./stim/wavs/peruvian_mismatch_interrogative-partial-wh_Por-que-venia-del-lago.wav,./stim/wavs/puertorican_mismatch_interrogative-partial-wh_Por-que-venia-del-lago.wav,,,,,,,,,,,,,,,,,,,,,,,,,,,,,,,,,,,,,,,,,,,,,,,,,,,,,,,,
,,,,,,,5bdab584b341a4000154256b,605b45a4d25f287719a41696,605b88ff92d85cc4dd1c98c2,I am not familiar with Spanish,Midwest,13 or older,no,2021-03-24_14h50.02.035,empathy_intonation_perc,2020.2.10,Win32,60,,,,,,,,,,0,andalusian,0,1,2.014835,0,54,54,41,1,42,./stim/wavs/andalusian_mismatch_declarative-narrow-focus_El-hombre-mira-la-luna.wav,./stim/wavs/argentine_mismatch_declarative-narrow-focus_El-hombre-mira-la-luna.wav,./stim/wavs/castilian_mismatch_declarative-narrow-focus_El-hombre-mira-la-luna.wav,./stim/wavs/chilean_mismatch_declarative-narrow-focus_El-hombre-mira-la-luna.wav,./stim/wavs/cuban_mismatch_declarative-narrow-focus_El-hombre-mira-la-luna.wav,./stim/wavs/mexican_mismatch_declarative-narrow-focus_El-hombre-mira-la-luna.wav,./stim/wavs/peruvian_mismatch_declarative-narrow-focus_El-hombre-mira-la-luna.wav,./stim/wavs/puertorican_mismatch_declarative-narrow-focus_El-hombre-mira-la-luna.wav,,,,,,,,,,,,,,,,,,,,,,,,,,,,,,,,,,,,,,,,,,,,,,,,,,,,,,,,
,,,,,,,5bdab584b341a4000154256b,605b45a4d25f287719a41696,605b88ff92d85cc4dd1c98c2,I am not familiar with Spanish,Midwest,13 or older,no,2021-03-24_14h50.02.035,empathy_intonation_perc,2020.2.10,Win32,60,,,,,,,,,,0,argentine,0,1,2.025035,0,55,55,2,1,3,./stim/wavs/andalusian_match_declarative-broad-focus_David-leia-el-libro.wav,./stim/wavs/argentine_match_declarative-broad-focus_David-leia-el-libro.wav,./stim/wavs/castilian_match_declarative-broad-focus_David-leia-el-libro.wav,./stim/wavs/chilean_match_declarative-broad-focus_David-leia-el-libro.wav,./stim/wavs/cuban_match_declarative-broad-focus_David-leia-el-libro.wav,./stim/wavs/mexican_match_declarative-broad-focus_David-leia-el-libro.wav,./stim/wavs/peruvian_match_declarative-broad-focus_David-leia-el-libro.wav,./stim/wavs/puertorican_match_declarative-broad-focus_David-leia-el-libro.wav,,,,,,,,,,,,,,,,,,,,,,,,,,,,,,,,,,,,,,,,,,,,,,,,,,,,,,,,
,,,,,,,5bdab584b341a4000154256b,605b45a4d25f287719a41696,605b88ff92d85cc4dd1c98c2,I am not familiar with Spanish,Midwest,13 or older,no,2021-03-24_14h50.02.035,empathy_intonation_perc,2020.2.10,Win32,60,,,,,,,,,,1,andalusian,0,0,2.028865,0,56,56,17,1,18,./stim/wavs/andalusian_match_interrogative-partial-wh_Cuando-leia-el-libro.wav,./stim/wavs/argentine_match_interrogative-partial-wh_Cuando-leia-el-libro.wav,./stim/wavs/castilian_match_interrogative-partial-wh_Cuando-leia-el-libro.wav,./stim/wavs/chilean_match_interrogative-partial-wh_Cuando-leia-el-libro.wav,./stim/wavs/cuban_match_interrogative-partial-wh_Cuando-leia-el-libro.wav,./stim/wavs/mexican_match_interrogative-partial-wh_Cuando-leia-el-libro.wav,./stim/wavs/peruvian_match_interrogative-partial-wh_Cuando-leia-el-libro.wav,./stim/wavs/puertorican_match_interrogative-partial-wh_Cuando-leia-el-libro.wav,,,,,,,,,,,,,,,,,,,,,,,,,,,,,,,,,,,,,,,,,,,,,,,,,,,,,,,,
,,,,,,,5bdab584b341a4000154256b,605b45a4d25f287719a41696,605b88ff92d85cc4dd1c98c2,I am not familiar with Spanish,Midwest,13 or older,no,2021-03-24_14h50.02.035,empathy_intonation_perc,2020.2.10,Win32,60,,,,,,,,,,1,argentine,0,0,1.95197,0,57,57,51,1,52,./stim/wavs/andalusian_mismatch_interrogative-partial-wh_Por-que-desayuna-muy-bien.wav,./stim/wavs/argentine_mismatch_interrogative-partial-wh_Por-que-desayuna-muy-bien.wav,./stim/wavs/castilian_mismatch_interrogative-partial-wh_Por-que-desayuna-muy-bien.wav,./stim/wavs/chilean_mismatch_interrogative-partial-wh_Por-que-desayuna-muy-bien.wav,./stim/wavs/cuban_mismatch_interrogative-partial-wh_Por-que-desayuna-muy-bien.wav,./stim/wavs/mexican_mismatch_interrogative-partial-wh_Por-que-desayuna-muy-bien.wav,./stim/wavs/peruvian_mismatch_interrogative-partial-wh_Por-que-desayuna-muy-bien.wav,./stim/wavs/puertorican_mismatch_interrogative-partial-wh_Por-que-desayuna-muy-bien.wav,,,,,,,,,,,,,,,,,,,,,,,,,,,,,,,,,,,,,,,,,,,,,,,,,,,,,,,,
,,,,,,,5bdab584b341a4000154256b,605b45a4d25f287719a41696,605b88ff92d85cc4dd1c98c2,I am not familiar with Spanish,Midwest,13 or older,no,2021-03-24_14h50.02.035,empathy_intonation_perc,2020.2.10,Win32,60,,,,,,,,,,1,argentine,1,1,2.19438,0,58,58,60,1,61,./stim/wavs/andalusian_mismatch_interrogative-total-yn_La-nina-lava-el-plato.wav,./stim/wavs/argentine_mismatch_interrogative-total-yn_La-nina-lava-el-plato.wav,./stim/wavs/castilian_mismatch_interrogative-total-yn_La-nina-lava-el-plato.wav,./stim/wavs/chilean_mismatch_interrogative-total-yn_La-nina-lava-el-plato.wav,./stim/wavs/cuban_mismatch_interrogative-total-yn_La-nina-lava-el-plato.wav,./stim/wavs/mexican_mismatch_interrogative-total-yn_La-nina-lava-el-plato.wav,./stim/wavs/peruvian_mismatch_interrogative-total-yn_La-nina-lava-el-plato.wav,./stim/wavs/puertorican_mismatch_interrogative-total-yn_La-nina-lava-el-plato.wav,,,,,,,,,,,,,,,,,,,,,,,,,,,,,,,,,,,,,,,,,,,,,,,,,,,,,,,,
,,,,,,,5bdab584b341a4000154256b,605b45a4d25f287719a41696,605b88ff92d85cc4dd1c98c2,I am not familiar with Spanish,Midwest,13 or older,no,2021-03-24_14h50.02.035,empathy_intonation_perc,2020.2.10,Win32,60,,,,,,,,,,0,argentine,0,1,2.013925,0,59,59,14,1,15,./stim/wavs/andalusian_match_declarative-narrow-focus_Mariano-habla-del-tiempo.wav,./stim/wavs/argentine_match_declarative-narrow-focus_Mariano-habla-del-tiempo.wav,./stim/wavs/castilian_match_declarative-narrow-focus_Mariano-habla-del-tiempo.wav,./stim/wavs/chilean_match_declarative-narrow-focus_Mariano-habla-del-tiempo.wav,./stim/wavs/cuban_match_declarative-narrow-focus_Mariano-habla-del-tiempo.wav,./stim/wavs/mexican_match_declarative-narrow-focus_Mariano-habla-del-tiempo.wav,./stim/wavs/peruvian_match_declarative-narrow-focus_Mariano-habla-del-tiempo.wav,./stim/wavs/puertorican_match_declarative-narrow-focus_Mariano-habla-del-tiempo.wav,,,,,,,,,,,,,,,,,,,,,,,,,,,,,,,,,,,,,,,,,,,,,,,,,,,,,,,,
,,,,,,,5bdab584b341a4000154256b,605b45a4d25f287719a41696,605b88ff92d85cc4dd1c98c2,I am not familiar with Spanish,Midwest,13 or older,no,2021-03-24_14h50.02.035,empathy_intonation_perc,2020.2.10,Win32,60,,,,,,,,,,0,andalusian,0,1,2.095675,0,60,60,39,1,40,./stim/wavs/andalusian_mismatch_declarative-broad-focus_Mi-tia-odia-la-lluvia.wav,./stim/wavs/argentine_mismatch_declarative-broad-focus_Mi-tia-odia-la-lluvia.wav,./stim/wavs/castilian_mismatch_declarative-broad-focus_Mi-tia-odia-la-lluvia.wav,./stim/wavs/chilean_mismatch_declarative-broad-focus_Mi-tia-odia-la-lluvia.wav,./stim/wavs/cuban_mismatch_declarative-broad-focus_Mi-tia-odia-la-lluvia.wav,./stim/wavs/mexican_mismatch_declarative-broad-focus_Mi-tia-odia-la-lluvia.wav,./stim/wavs/peruvian_mismatch_declarative-broad-focus_Mi-tia-odia-la-lluvia.wav,./stim/wavs/puertorican_mismatch_declarative-broad-focus_Mi-tia-odia-la-lluvia.wav,,,,,,,,,,,,,,,,,,,,,,,,,,,,,,,,,,,,,,,,,,,,,,,,,,,,,,,,
,,,,,,,5bdab584b341a4000154256b,605b45a4d25f287719a41696,605b88ff92d85cc4dd1c98c2,I am not familiar with Spanish,Midwest,13 or older,no,2021-03-24_14h50.02.035,empathy_intonation_perc,2020.2.10,Win32,60,,,,,,,,,,1,cuban,1,1,1.648235,0,61,61,24,1,25,./stim/wavs/andalusian_match_interrogative-total-yn_Ana-lleva-el-abrigo.wav,./stim/wavs/argentine_match_interrogative-total-yn_Ana-lleva-el-abrigo.wav,./stim/wavs/castilian_match_interrogative-total-yn_Ana-lleva-el-abrigo.wav,./stim/wavs/chilean_match_interrogative-total-yn_Ana-lleva-el-abrigo.wav,./stim/wavs/cuban_match_interrogative-total-yn_Ana-lleva-el-abrigo.wav,./stim/wavs/mexican_match_interrogative-total-yn_Ana-lleva-el-abrigo.wav,./stim/wavs/peruvian_match_interrogative-total-yn_Ana-lleva-el-abrigo.wav,./stim/wavs/puertorican_match_interrogative-total-yn_Ana-lleva-el-abrigo.wav,,,,,,,,,,,,,,,,,,,,,,,,,,,,,,,,,,,,,,,,,,,,,,,,,,,,,,,,
,,,,,,,5bdab584b341a4000154256b,605b45a4d25f287719a41696,605b88ff92d85cc4dd1c98c2,I am not familiar with Spanish,Midwest,13 or older,no,2021-03-24_14h50.02.035,empathy_intonation_perc,2020.2.10,Win32,60,,,,,,,,,,1,andalusian,1,1,2.02629,0,62,62,59,1,60,./stim/wavs/andalusian_mismatch_interrogative-total-yn_La-maestra-vive-en-Paris.wav,./stim/wavs/argentine_mismatch_interrogative-total-yn_La-maestra-vive-en-Paris.wav,./stim/wavs/castilian_mismatch_interrogative-total-yn_La-maestra-vive-en-Paris.wav,./stim/wavs/chilean_mismatch_interrogative-total-yn_La-maestra-vive-en-Paris.wav,./stim/wavs/cuban_mismatch_interrogative-total-yn_La-maestra-vive-en-Paris.wav,./stim/wavs/mexican_mismatch_interrogative-total-yn_La-maestra-vive-en-Paris.wav,./stim/wavs/peruvian_mismatch_interrogative-total-yn_La-maestra-vive-en-Paris.wav,./stim/wavs/puertorican_mismatch_interrogative-total-yn_La-maestra-vive-en-Paris.wav,,,,,,,,,,,,,,,,,,,,,,,,,,,,,,,,,,,,,,,,,,,,,,,,,,,,,,,,
,,,,,,,5bdab584b341a4000154256b,605b45a4d25f287719a41696,605b88ff92d85cc4dd1c98c2,I am not familiar with Spanish,Midwest,13 or older,no,2021-03-24_14h50.02.035,empathy_intonation_perc,2020.2.10,Win32,60,,,,,,,,,,1,argentine,1,1,1.811345,0,63,63,29,1,30,./stim/wavs/andalusian_match_interrogative-total-yn_Maria-bebe-el-vino.wav,./stim/wavs/argentine_match_interrogative-total-yn_Maria-bebe-el-vino.wav,./stim/wavs/castilian_match_interrogative-total-yn_Maria-bebe-el-vino.wav,./stim/wavs/chilean_match_interrogative-total-yn_Maria-bebe-el-vino.wav,./stim/wavs/cuban_match_interrogative-total-yn_Maria-bebe-el-vino.wav,./stim/wavs/mexican_match_interrogative-total-yn_Maria-bebe-el-vino.wav,./stim/wavs/peruvian_match_interrogative-total-yn_Maria-bebe-el-vino.wav,./stim/wavs/puertorican_match_interrogative-total-yn_Maria-bebe-el-vino.wav,,,,,,,,,,,,,,,,,,,,,,,,,,,,,,,,,,,,,,,,,,,,,,,,,,,,,,,,
,,,,,,,5bdab584b341a4000154256b,605b45a4d25f287719a41696,605b88ff92d85cc4dd1c98c2,I am not familiar with Spanish,Midwest,13 or older,no,2021-03-24_14h50.02.035,empathy_intonation_perc,2020.2.10,Win32,60,,,,,,,,,,,,,,,,,,,,,,,,,,,,,h,1,4.452275,0,0,0,0,1,,,,,,,,,,,,,,,,,,,,,,,,,,,,,,,,,,,,,,,,,,,,,,,,
,,,,,"Great! Now we will move on. The next task consists of about 60 trials, in each of which you will see a string of letters. 
  
  Your task is to decide whether this is a real Spanish word or not.",(press the spacebar to continue),5bdab584b341a4000154256b,605b45a4d25f287719a41696,605b88ff92d85cc4dd1c98c2,I am not familiar with Spanish,Midwest,13 or older,no,2021-03-24_14h50.02.035,empathy_intonation_perc,2020.2.10,Win32,60,,,,,,,,,,,,,,,,,,,,,,,,,,,,,,,,,,,,,0,0,0,0,1,,,,,,,,,,,,,,,,,,,,,,,,,,,,,,,,,,,,,,,,,,,
,,,,,"If you think it is an existing Spanish word, you type '1' (for 'REAL'), and if you think it is not an existing Spanish word, you type '0' (for 'FAKE').",(press the spacebar to continue),5bdab584b341a4000154256b,605b45a4d25f287719a41696,605b88ff92d85cc4dd1c98c2,I am not familiar with Spanish,Midwest,13 or older,no,2021-03-24_14h50.02.035,empathy_intonation_perc,2020.2.10,Win32,60,,,,,,,,,,,,,,,,,,,,,,,,,,,,,,,,,,,,,0,1,1,1,1,,,,,,,,,,,,,,,,,,,,,,,,,,,,,,,,,,,,,,,,,,,
,,,,,"If you are sure that the word exists, even though you dont know its exact meaning, you may still respond '1' (REAL). 
  
  But if you are not sure if it is an existing word, you should respond '0' (FAKE).
  
  Let's do a practice round...",(press the spacebar to continue),5bdab584b341a4000154256b,605b45a4d25f287719a41696,605b88ff92d85cc4dd1c98c2,I am not familiar with Spanish,Midwest,13 or older,no,2021-03-24_14h50.02.035,empathy_intonation_perc,2020.2.10,Win32,60,,,,,,,,,,,,,,,,,,,,,,,,,,,,,,,,,,,,,0,2,2,2,1,,,,,,,,,,,,,,,,,,,,,,,,,,,,,,,,,,,,,,,,,,,
,,,,,,,5bdab584b341a4000154256b,605b45a4d25f287719a41696,605b88ff92d85cc4dd1c98c2,I am not familiar with Spanish,Midwest,13 or older,no,2021-03-24_14h50.02.035,empathy_intonation_perc,2020.2.10,Win32,60,,,,,,,,,,0,,,,,,,,,,,,,,,,,,,,,,,,,,,,,,,,1,0,1.918195,0,0,0,0,1,0,depiste,REAL,FAKE,,,,,,,,,,,,,,,,,,,,,,,,,,,,,,,
,,,,,,,5bdab584b341a4000154256b,605b45a4d25f287719a41696,605b88ff92d85cc4dd1c98c2,I am not familiar with Spanish,Midwest,13 or older,no,2021-03-24_14h50.02.035,empathy_intonation_perc,2020.2.10,Win32,60,,,,,,,,,,1,,,,,,,,,,,,,,,,,,,,,,,,,,,,,,,,1,1,1.03051,0,1,1,1,1,0,s,REAL,FAKE,,,,,,,,,,,,,,,,,,,,,,,,,,,,,,,
,,,,,,,5bdab584b341a4000154256b,605b45a4d25f287719a41696,605b88ff92d85cc4dd1c98c2,I am not familiar with Spanish,Midwest,13 or older,no,2021-03-24_14h50.02.035,empathy_intonation_perc,2020.2.10,Win32,60,,,,,,,,,,0,,,,,,,,,,,,,,,,,,,,,,,,,,,,,,,,0,1,0.812765,0,2,2,2,1,0,con,REAL,FAKE,,,,,,,,,,,,,,,,,,,,,,,,,,,,,,,
,,,,,,,5bdab584b341a4000154256b,605b45a4d25f287719a41696,605b88ff92d85cc4dd1c98c2,I am not familiar with Spanish,Midwest,13 or older,no,2021-03-24_14h50.02.035,empathy_intonation_perc,2020.2.10,Win32,60,,,,,,,,,,0,,,,,,,,,,,,,,,,,,,,,,,,,,,,,,,,0,1,0.76411,0,3,3,3,1,0,calpar,REAL,FAKE,,,,,,,,,,,,,,,,,,,,,,,,,,,,,,,
,,,,,,,5bdab584b341a4000154256b,605b45a4d25f287719a41696,605b88ff92d85cc4dd1c98c2,I am not familiar with Spanish,Midwest,13 or older,no,2021-03-24_14h50.02.035,empathy_intonation_perc,2020.2.10,Win32,60,,,,,,,,,,0,,,,,,,,,,,,,,,,,,,,,,,,,,,,,,,,0,1,0.569295,0,4,4,4,1,0,joten,REAL,FAKE,,,,,,,,,,,,,,,,,,,,,,,,,,,,,,,
,,,,,,,5bdab584b341a4000154256b,605b45a4d25f287719a41696,605b88ff92d85cc4dd1c98c2,I am not familiar with Spanish,Midwest,13 or older,no,2021-03-24_14h50.02.035,empathy_intonation_perc,2020.2.10,Win32,60,,,,,,,,,,1,,,,,,,,,,,,,,,,,,,,,,,,,,,,,,,,0,0,0.66382,0,5,5,5,1,0,sacapuntas,REAL,FAKE,,,,,,,,,,,,,,,,,,,,,,,,,,,,,,,
,,,,,,,5bdab584b341a4000154256b,605b45a4d25f287719a41696,605b88ff92d85cc4dd1c98c2,I am not familiar with Spanish,Midwest,13 or older,no,2021-03-24_14h50.02.035,empathy_intonation_perc,2020.2.10,Win32,60,,,,,,,,,,0,,,,,,,,,,,,,,,,,,,,,,,,,,,,,,,,1,0,1.03986,0,6,6,6,1,0,priba,REAL,FAKE,,,,,,,,,,,,,,,,,,,,,,,,,,,,,,,
,,,,,,,5bdab584b341a4000154256b,605b45a4d25f287719a41696,605b88ff92d85cc4dd1c98c2,I am not familiar with Spanish,Midwest,13 or older,no,2021-03-24_14h50.02.035,empathy_intonation_perc,2020.2.10,Win32,60,,,,,,,,,,0,,,,,,,,,,,,,,,,,,,,,,,,,,,,,,,,1,0,1.441855,0,7,7,7,1,0,pelasula,REAL,FAKE,,,,,,,,,,,,,,,,,,,,,,,,,,,,,,,
,,,,,,,5bdab584b341a4000154256b,605b45a4d25f287719a41696,605b88ff92d85cc4dd1c98c2,I am not familiar with Spanish,Midwest,13 or older,no,2021-03-24_14h50.02.035,empathy_intonation_perc,2020.2.10,Win32,60,,,,,,,,,,1,,,,,,,,,,,,,,,,,,,,,,,,,,,,,,,,1,1,0.9157,0,8,8,8,1,0,bien,REAL,FAKE,,,,,,,,,,,,,,,,,,,,,,,,,,,,,,,
,,,,,,,5bdab584b341a4000154256b,605b45a4d25f287719a41696,605b88ff92d85cc4dd1c98c2,I am not familiar with Spanish,Midwest,13 or older,no,2021-03-24_14h50.02.035,empathy_intonation_perc,2020.2.10,Win32,60,,,,,,,,,,1,,,,,,,,,,,,,,,,,,,,,,,,,,,,,,,,1,1,1.21348,0,9,9,9,1,0,casa,REAL,FAKE,,,,,,,,,,,,,,,,,,,,,,,,,,,,,,,
,,,,,,,5bdab584b341a4000154256b,605b45a4d25f287719a41696,605b88ff92d85cc4dd1c98c2,I am not familiar with Spanish,Midwest,13 or older,no,2021-03-24_14h50.02.035,empathy_intonation_perc,2020.2.10,Win32,60,,,,,,,,,,0,,,,,,,,,,,,,,,,,,,,,,,,,,,,,,,,1,0,1.19107,0,10,10,10,1,0,lejo,REAL,FAKE,,,,,,,,,,,,,,,,,,,,,,,,,,,,,,,
,,,,,,,5bdab584b341a4000154256b,605b45a4d25f287719a41696,605b88ff92d85cc4dd1c98c2,I am not familiar with Spanish,Midwest,13 or older,no,2021-03-24_14h50.02.035,empathy_intonation_perc,2020.2.10,Win32,60,,,,,,,,,,0,,,,,,,,,,,,,,,,,,,,,,,,,,,,,,,,0,1,0.861605,0,11,11,11,1,0,pretantas,REAL,FAKE,,,,,,,,,,,,,,,,,,,,,,,,,,,,,,,
,,,,,,,5bdab584b341a4000154256b,605b45a4d25f287719a41696,605b88ff92d85cc4dd1c98c2,I am not familiar with Spanish,Midwest,13 or older,no,2021-03-24_14h50.02.035,empathy_intonation_perc,2020.2.10,Win32,60,,,,,,,,,,1,,,,,,,,,,,,,,,,,,,,,,,,,,,,,,,,,,,,,,,,39,torpe,,,0,0,0.91719,0,0,0,38,1,REAL,FAKE,,,,,,,,,,,,,,,,,,,,,
,,,,,,,5bdab584b341a4000154256b,605b45a4d25f287719a41696,605b88ff92d85cc4dd1c98c2,I am not familiar with Spanish,Midwest,13 or older,no,2021-03-24_14h50.02.035,empathy_intonation_perc,2020.2.10,Win32,60,,,,,,,,,,1,,,,,,,,,,,,,,,,,,,,,,,,,,,,,,,,,,,,,,,,89,prisa,,,0,0,1.50572,0,1,1,88,1,REAL,FAKE,,,,,,,,,,,,,,,,,,,,,
,,,,,,,5bdab584b341a4000154256b,605b45a4d25f287719a41696,605b88ff92d85cc4dd1c98c2,I am not familiar with Spanish,Midwest,13 or older,no,2021-03-24_14h50.02.035,empathy_intonation_perc,2020.2.10,Win32,60,,,,,,,,,,1,,,,,,,,,,,,,,,,,,,,,,,,,,,,,,,,,,,,,,,,75,yacer,,,0,0,0.56328,0,2,2,74,1,REAL,FAKE,,,,,,,,,,,,,,,,,,,,,
,,,,,,,5bdab584b341a4000154256b,605b45a4d25f287719a41696,605b88ff92d85cc4dd1c98c2,I am not familiar with Spanish,Midwest,13 or older,no,2021-03-24_14h50.02.035,empathy_intonation_perc,2020.2.10,Win32,60,,,,,,,,,,1,,,,,,,,,,,,,,,,,,,,,,,,,,,,,,,,,,,,,,,,68,alegre,,,1,1,1.038855,0,3,3,67,1,REAL,FAKE,,,,,,,,,,,,,,,,,,,,,
,,,,,,,5bdab584b341a4000154256b,605b45a4d25f287719a41696,605b88ff92d85cc4dd1c98c2,I am not familiar with Spanish,Midwest,13 or older,no,2021-03-24_14h50.02.035,empathy_intonation_perc,2020.2.10,Win32,60,,,,,,,,,,1,,,,,,,,,,,,,,,,,,,,,,,,,,,,,,,,,,,,,,,,88,acantilado,,,0,0,1.189455,0,4,4,87,1,REAL,FAKE,,,,,,,,,,,,,,,,,,,,,
,,,,,,,5bdab584b341a4000154256b,605b45a4d25f287719a41696,605b88ff92d85cc4dd1c98c2,I am not familiar with Spanish,Midwest,13 or older,no,2021-03-24_14h50.02.035,empathy_intonation_perc,2020.2.10,Win32,60,,,,,,,,,,1,,,,,,,,,,,,,,,,,,,,,,,,,,,,,,,,,,,,,,,,48,ladrn,,,1,1,0.966705,0,5,5,47,1,REAL,FAKE,,,,,,,,,,,,,,,,,,,,,
,,,,,,,5bdab584b341a4000154256b,605b45a4d25f287719a41696,605b88ff92d85cc4dd1c98c2,I am not familiar with Spanish,Midwest,13 or older,no,2021-03-24_14h50.02.035,empathy_intonation_perc,2020.2.10,Win32,60,,,,,,,,,,0,,,,,,,,,,,,,,,,,,,,,,,,,,,,,,,,,,,,,,,,74,cintro,,,1,0,0.68416,0,6,6,73,1,REAL,FAKE,,,,,,,,,,,,,,,,,,,,,
,,,,,,,5bdab584b341a4000154256b,605b45a4d25f287719a41696,605b88ff92d85cc4dd1c98c2,I am not familiar with Spanish,Midwest,13 or older,no,2021-03-24_14h50.02.035,empathy_intonation_perc,2020.2.10,Win32,60,,,,,,,,,,0,,,,,,,,,,,,,,,,,,,,,,,,,,,,,,,,,,,,,,,,53,vegada,,,1,0,0.79687,0,7,7,52,1,REAL,FAKE,,,,,,,,,,,,,,,,,,,,,
,,,,,,,5bdab584b341a4000154256b,605b45a4d25f287719a41696,605b88ff92d85cc4dd1c98c2,I am not familiar with Spanish,Midwest,13 or older,no,2021-03-24_14h50.02.035,empathy_intonation_perc,2020.2.10,Win32,60,,,,,,,,,,1,,,,,,,,,,,,,,,,,,,,,,,,,,,,,,,,,,,,,,,,45,jilguero,,,0,0,1.26863,0,8,8,44,1,REAL,FAKE,,,,,,,,,,,,,,,,,,,,,
,,,,,,,5bdab584b341a4000154256b,605b45a4d25f287719a41696,605b88ff92d85cc4dd1c98c2,I am not familiar with Spanish,Midwest,13 or older,no,2021-03-24_14h50.02.035,empathy_intonation_perc,2020.2.10,Win32,60,,,,,,,,,,1,,,,,,,,,,,,,,,,,,,,,,,,,,,,,,,,,,,,,,,,51,candado,,,0,0,0.76886,0,9,9,50,1,REAL,FAKE,,,,,,,,,,,,,,,,,,,,,
,,,,,,,5bdab584b341a4000154256b,605b45a4d25f287719a41696,605b88ff92d85cc4dd1c98c2,I am not familiar with Spanish,Midwest,13 or older,no,2021-03-24_14h50.02.035,empathy_intonation_perc,2020.2.10,Win32,60,,,,,,,,,,1,,,,,,,,,,,,,,,,,,,,,,,,,,,,,,,,,,,,,,,,62,flaco,,,0,0,0.64898,0,10,10,61,1,REAL,FAKE,,,,,,,,,,,,,,,,,,,,,
,,,,,,,5bdab584b341a4000154256b,605b45a4d25f287719a41696,605b88ff92d85cc4dd1c98c2,I am not familiar with Spanish,Midwest,13 or older,no,2021-03-24_14h50.02.035,empathy_intonation_perc,2020.2.10,Win32,60,,,,,,,,,,1,,,,,,,,,,,,,,,,,,,,,,,,,,,,,,,,,,,,,,,,20,vido,,,1,1,0.785995,0,11,11,19,1,REAL,FAKE,,,,,,,,,,,,,,,,,,,,,
,,,,,,,5bdab584b341a4000154256b,605b45a4d25f287719a41696,605b88ff92d85cc4dd1c98c2,I am not familiar with Spanish,Midwest,13 or older,no,2021-03-24_14h50.02.035,empathy_intonation_perc,2020.2.10,Win32,60,,,,,,,,,,1,,,,,,,,,,,,,,,,,,,,,,,,,,,,,,,,,,,,,,,,43,canela,,,0,0,0.813155,0,12,12,42,1,REAL,FAKE,,,,,,,,,,,,,,,,,,,,,
,,,,,,,5bdab584b341a4000154256b,605b45a4d25f287719a41696,605b88ff92d85cc4dd1c98c2,I am not familiar with Spanish,Midwest,13 or older,no,2021-03-24_14h50.02.035,empathy_intonation_perc,2020.2.10,Win32,60,,,,,,,,,,0,,,,,,,,,,,,,,,,,,,,,,,,,,,,,,,,,,,,,,,,4,batilln,,,1,0,0.716855,0,13,13,3,1,REAL,FAKE,,,,,,,,,,,,,,,,,,,,,
,,,,,,,5bdab584b341a4000154256b,605b45a4d25f287719a41696,605b88ff92d85cc4dd1c98c2,I am not familiar with Spanish,Midwest,13 or older,no,2021-03-24_14h50.02.035,empathy_intonation_perc,2020.2.10,Win32,60,,,,,,,,,,1,,,,,,,,,,,,,,,,,,,,,,,,,,,,,,,,,,,,,,,,38,estornudar,,,0,0,0.831875,0,14,14,37,1,REAL,FAKE,,,,,,,,,,,,,,,,,,,,,
,,,,,,,5bdab584b341a4000154256b,605b45a4d25f287719a41696,605b88ff92d85cc4dd1c98c2,I am not familiar with Spanish,Midwest,13 or older,no,2021-03-24_14h50.02.035,empathy_intonation_perc,2020.2.10,Win32,60,,,,,,,,,,1,,,,,,,,,,,,,,,,,,,,,,,,,,,,,,,,,,,,,,,,80,hormiga,,,0,0,1.3129,0,15,15,79,1,REAL,FAKE,,,,,,,,,,,,,,,,,,,,,
,,,,,,,5bdab584b341a4000154256b,605b45a4d25f287719a41696,605b88ff92d85cc4dd1c98c2,I am not familiar with Spanish,Midwest,13 or older,no,2021-03-24_14h50.02.035,empathy_intonation_perc,2020.2.10,Win32,60,,,,,,,,,,1,,,,,,,,,,,,,,,,,,,,,,,,,,,,,,,,,,,,,,,,2,pellizcar,,,0,0,0.650705,0,16,16,1,1,REAL,FAKE,,,,,,,,,,,,,,,,,,,,,
,,,,,,,5bdab584b341a4000154256b,605b45a4d25f287719a41696,605b88ff92d85cc4dd1c98c2,I am not familiar with Spanish,Midwest,13 or older,no,2021-03-24_14h50.02.035,empathy_intonation_perc,2020.2.10,Win32,60,,,,,,,,,,0,,,,,,,,,,,,,,,,,,,,,,,,,,,,,,,,,,,,,,,,66,hacido,,,0,1,1.06601,0,17,17,65,1,REAL,FAKE,,,,,,,,,,,,,,,,,,,,,
,,,,,,,5bdab584b341a4000154256b,605b45a4d25f287719a41696,605b88ff92d85cc4dd1c98c2,I am not familiar with Spanish,Midwest,13 or older,no,2021-03-24_14h50.02.035,empathy_intonation_perc,2020.2.10,Win32,60,,,,,,,,,,1,,,,,,,,,,,,,,,,,,,,,,,,,,,,,,,,,,,,,,,,26,secuestro,,,1,1,0.90052,0,18,18,25,1,REAL,FAKE,,,,,,,,,,,,,,,,,,,,,
,,,,,,,5bdab584b341a4000154256b,605b45a4d25f287719a41696,605b88ff92d85cc4dd1c98c2,I am not familiar with Spanish,Midwest,13 or older,no,2021-03-24_14h50.02.035,empathy_intonation_perc,2020.2.10,Win32,60,,,,,,,,,,1,,,,,,,,,,,,,,,,,,,,,,,,,,,,,,,,,,,,,,,,81,pozo,,,0,0,0.71705,0,19,19,80,1,REAL,FAKE,,,,,,,,,,,,,,,,,,,,,
,,,,,,,5bdab584b341a4000154256b,605b45a4d25f287719a41696,605b88ff92d85cc4dd1c98c2,I am not familiar with Spanish,Midwest,13 or older,no,2021-03-24_14h50.02.035,empathy_intonation_perc,2020.2.10,Win32,60,,,,,,,,,,0,,,,,,,,,,,,,,,,,,,,,,,,,,,,,,,,,,,,,,,,47,cartinar,,,0,1,0.71857,0,20,20,46,1,REAL,FAKE,,,,,,,,,,,,,,,,,,,,,
,,,,,,,5bdab584b341a4000154256b,605b45a4d25f287719a41696,605b88ff92d85cc4dd1c98c2,I am not familiar with Spanish,Midwest,13 or older,no,2021-03-24_14h50.02.035,empathy_intonation_perc,2020.2.10,Win32,60,,,,,,,,,,0,,,,,,,,,,,,,,,,,,,,,,,,,,,,,,,,,,,,,,,,10,antar,,,0,1,0.657095,0,21,21,9,1,REAL,FAKE,,,,,,,,,,,,,,,,,,,,,
,,,,,,,5bdab584b341a4000154256b,605b45a4d25f287719a41696,605b88ff92d85cc4dd1c98c2,I am not familiar with Spanish,Midwest,13 or older,no,2021-03-24_14h50.02.035,empathy_intonation_perc,2020.2.10,Win32,60,,,,,,,,,,1,,,,,,,,,,,,,,,,,,,,,,,,,,,,,,,,,,,,,,,,69,engatusar,,,0,0,0.667615,0,22,22,68,1,REAL,FAKE,,,,,,,,,,,,,,,,,,,,,
,,,,,,,5bdab584b341a4000154256b,605b45a4d25f287719a41696,605b88ff92d85cc4dd1c98c2,I am not familiar with Spanish,Midwest,13 or older,no,2021-03-24_14h50.02.035,empathy_intonation_perc,2020.2.10,Win32,60,,,,,,,,,,1,,,,,,,,,,,,,,,,,,,,,,,,,,,,,,,,,,,,,,,,56,musgo,,,0,0,0.658685,0,23,23,55,1,REAL,FAKE,,,,,,,,,,,,,,,,,,,,,
,,,,,,,5bdab584b341a4000154256b,605b45a4d25f287719a41696,605b88ff92d85cc4dd1c98c2,I am not familiar with Spanish,Midwest,13 or older,no,2021-03-24_14h50.02.035,empathy_intonation_perc,2020.2.10,Win32,60,,,,,,,,,,1,,,,,,,,,,,,,,,,,,,,,,,,,,,,,,,,,,,,,,,,78,frondoso,,,0,0,0.663345,0,24,24,77,1,REAL,FAKE,,,,,,,,,,,,,,,,,,,,,
,,,,,,,5bdab584b341a4000154256b,605b45a4d25f287719a41696,605b88ff92d85cc4dd1c98c2,I am not familiar with Spanish,Midwest,13 or older,no,2021-03-24_14h50.02.035,empathy_intonation_perc,2020.2.10,Win32,60,,,,,,,,,,1,,,,,,,,,,,,,,,,,,,,,,,,,,,,,,,,,,,,,,,,36,loro,,,0,0,0.68086,0,25,25,35,1,REAL,FAKE,,,,,,,,,,,,,,,,,,,,,
,,,,,,,5bdab584b341a4000154256b,605b45a4d25f287719a41696,605b88ff92d85cc4dd1c98c2,I am not familiar with Spanish,Midwest,13 or older,no,2021-03-24_14h50.02.035,empathy_intonation_perc,2020.2.10,Win32,60,,,,,,,,,,1,,,,,,,,,,,,,,,,,,,,,,,,,,,,,,,,,,,,,,,,76,atar,,,0,0,0.74033,0,26,26,75,1,REAL,FAKE,,,,,,,,,,,,,,,,,,,,,
,,,,,,,5bdab584b341a4000154256b,605b45a4d25f287719a41696,605b88ff92d85cc4dd1c98c2,I am not familiar with Spanish,Midwest,13 or older,no,2021-03-24_14h50.02.035,empathy_intonation_perc,2020.2.10,Win32,60,,,,,,,,,,1,,,,,,,,,,,,,,,,,,,,,,,,,,,,,,,,,,,,,,,,73,hervidor,,,0,0,0.862175,0,27,27,72,1,REAL,FAKE,,,,,,,,,,,,,,,,,,,,,
,,,,,,,5bdab584b341a4000154256b,605b45a4d25f287719a41696,605b88ff92d85cc4dd1c98c2,I am not familiar with Spanish,Midwest,13 or older,no,2021-03-24_14h50.02.035,empathy_intonation_perc,2020.2.10,Win32,60,,,,,,,,,,1,,,,,,,,,,,,,,,,,,,,,,,,,,,,,,,,,,,,,,,,54,fomentar,,,0,0,0.834355,0,28,28,53,1,REAL,FAKE,,,,,,,,,,,,,,,,,,,,,
,,,,,,,5bdab584b341a4000154256b,605b45a4d25f287719a41696,605b88ff92d85cc4dd1c98c2,I am not familiar with Spanish,Midwest,13 or older,no,2021-03-24_14h50.02.035,empathy_intonation_perc,2020.2.10,Win32,60,,,,,,,,,,1,,,,,,,,,,,,,,,,,,,,,,,,,,,,,,,,,,,,,,,,11,cenefa,,,0,0,0.89995,0,29,29,10,1,REAL,FAKE,,,,,,,,,,,,,,,,,,,,,
,,,,,,,5bdab584b341a4000154256b,605b45a4d25f287719a41696,605b88ff92d85cc4dd1c98c2,I am not familiar with Spanish,Midwest,13 or older,no,2021-03-24_14h50.02.035,empathy_intonation_perc,2020.2.10,Win32,60,,,,,,,,,,1,,,,,,,,,,,,,,,,,,,,,,,,,,,,,,,,,,,,,,,,28,merodear,,,0,0,0.692035,0,30,30,27,1,REAL,FAKE,,,,,,,,,,,,,,,,,,,,,
,,,,,,,5bdab584b341a4000154256b,605b45a4d25f287719a41696,605b88ff92d85cc4dd1c98c2,I am not familiar with Spanish,Midwest,13 or older,no,2021-03-24_14h50.02.035,empathy_intonation_perc,2020.2.10,Win32,60,,,,,,,,,,1,,,,,,,,,,,,,,,,,,,,,,,,,,,,,,,,,,,,,,,,15,regar,,,1,1,0.766885,0,31,31,14,1,REAL,FAKE,,,,,,,,,,,,,,,,,,,,,
,,,,,,,5bdab584b341a4000154256b,605b45a4d25f287719a41696,605b88ff92d85cc4dd1c98c2,I am not familiar with Spanish,Midwest,13 or older,no,2021-03-24_14h50.02.035,empathy_intonation_perc,2020.2.10,Win32,60,,,,,,,,,,0,,,,,,,,,,,,,,,,,,,,,,,,,,,,,,,,,,,,,,,,63,esposante,,,0,1,1.07198,0,32,32,62,1,REAL,FAKE,,,,,,,,,,,,,,,,,,,,,
,,,,,,,5bdab584b341a4000154256b,605b45a4d25f287719a41696,605b88ff92d85cc4dd1c98c2,I am not familiar with Spanish,Midwest,13 or older,no,2021-03-24_14h50.02.035,empathy_intonation_perc,2020.2.10,Win32,60,,,,,,,,,,1,,,,,,,,,,,,,,,,,,,,,,,,,,,,,,,,,,,,,,,,67,cabello,,,1,1,0.66388,0,33,33,66,1,REAL,FAKE,,,,,,,,,,,,,,,,,,,,,
,,,,,,,5bdab584b341a4000154256b,605b45a4d25f287719a41696,605b88ff92d85cc4dd1c98c2,I am not familiar with Spanish,Midwest,13 or older,no,2021-03-24_14h50.02.035,empathy_intonation_perc,2020.2.10,Win32,60,,,,,,,,,,0,,,,,,,,,,,,,,,,,,,,,,,,,,,,,,,,,,,,,,,,82,empirador,,,1,0,1.11715,0,34,34,81,1,REAL,FAKE,,,,,,,,,,,,,,,,,,,,,
,,,,,,,5bdab584b341a4000154256b,605b45a4d25f287719a41696,605b88ff92d85cc4dd1c98c2,I am not familiar with Spanish,Midwest,13 or older,no,2021-03-24_14h50.02.035,empathy_intonation_perc,2020.2.10,Win32,60,,,,,,,,,,1,,,,,,,,,,,,,,,,,,,,,,,,,,,,,,,,,,,,,,,,90,clavel,,,0,0,0.825375,0,35,35,89,1,REAL,FAKE,,,,,,,,,,,,,,,,,,,,,
,,,,,,,5bdab584b341a4000154256b,605b45a4d25f287719a41696,605b88ff92d85cc4dd1c98c2,I am not familiar with Spanish,Midwest,13 or older,no,2021-03-24_14h50.02.035,empathy_intonation_perc,2020.2.10,Win32,60,,,,,,,,,,1,,,,,,,,,,,,,,,,,,,,,,,,,,,,,,,,,,,,,,,,71,polvoriento,,,0,0,0.7866,0,36,36,70,1,REAL,FAKE,,,,,,,,,,,,,,,,,,,,,
,,,,,,,5bdab584b341a4000154256b,605b45a4d25f287719a41696,605b88ff92d85cc4dd1c98c2,I am not familiar with Spanish,Midwest,13 or older,no,2021-03-24_14h50.02.035,empathy_intonation_perc,2020.2.10,Win32,60,,,,,,,,,,1,,,,,,,,,,,,,,,,,,,,,,,,,,,,,,,,,,,,,,,,37,granuja,,,0,0,0.802225,0,37,37,36,1,REAL,FAKE,,,,,,,,,,,,,,,,,,,,,
,,,,,,,5bdab584b341a4000154256b,605b45a4d25f287719a41696,605b88ff92d85cc4dd1c98c2,I am not familiar with Spanish,Midwest,13 or older,no,2021-03-24_14h50.02.035,empathy_intonation_perc,2020.2.10,Win32,60,,,,,,,,,,0,,,,,,,,,,,,,,,,,,,,,,,,,,,,,,,,,,,,,,,,79,tropaje,,,1,0,0.72915,0,38,38,78,1,REAL,FAKE,,,,,,,,,,,,,,,,,,,,,
,,,,,,,5bdab584b341a4000154256b,605b45a4d25f287719a41696,605b88ff92d85cc4dd1c98c2,I am not familiar with Spanish,Midwest,13 or older,no,2021-03-24_14h50.02.035,empathy_intonation_perc,2020.2.10,Win32,60,,,,,,,,,,1,,,,,,,,,,,,,,,,,,,,,,,,,,,,,,,,,,,,,,,,49,ganar,,,0,0,0.943475,0,39,39,48,1,REAL,FAKE,,,,,,,,,,,,,,,,,,,,,
,,,,,,,5bdab584b341a4000154256b,605b45a4d25f287719a41696,605b88ff92d85cc4dd1c98c2,I am not familiar with Spanish,Midwest,13 or older,no,2021-03-24_14h50.02.035,empathy_intonation_perc,2020.2.10,Win32,60,,,,,,,,,,1,,,,,,,,,,,,,,,,,,,,,,,,,,,,,,,,,,,,,,,,7,psimo,,,1,1,0.768145,0,40,40,6,1,REAL,FAKE,,,,,,,,,,,,,,,,,,,,,
,,,,,,,5bdab584b341a4000154256b,605b45a4d25f287719a41696,605b88ff92d85cc4dd1c98c2,I am not familiar with Spanish,Midwest,13 or older,no,2021-03-24_14h50.02.035,empathy_intonation_perc,2020.2.10,Win32,60,,,,,,,,,,0,,,,,,,,,,,,,,,,,,,,,,,,,,,,,,,,,,,,,,,,17,floroso,,,0,1,1.314195,0,41,41,16,1,REAL,FAKE,,,,,,,,,,,,,,,,,,,,,
,,,,,,,5bdab584b341a4000154256b,605b45a4d25f287719a41696,605b88ff92d85cc4dd1c98c2,I am not familiar with Spanish,Midwest,13 or older,no,2021-03-24_14h50.02.035,empathy_intonation_perc,2020.2.10,Win32,60,,,,,,,,,,1,,,,,,,,,,,,,,,,,,,,,,,,,,,,,,,,,,,,,,,,9,hacha,,,1,1,0.599755,0,42,42,8,1,REAL,FAKE,,,,,,,,,,,,,,,,,,,,,
,,,,,,,5bdab584b341a4000154256b,605b45a4d25f287719a41696,605b88ff92d85cc4dd1c98c2,I am not familiar with Spanish,Midwest,13 or older,no,2021-03-24_14h50.02.035,empathy_intonation_perc,2020.2.10,Win32,60,,,,,,,,,,1,,,,,,,,,,,,,,,,,,,,,,,,,,,,,,,,,,,,,,,,13,helar,,,0,0,0.65383,0,43,43,12,1,REAL,FAKE,,,,,,,,,,,,,,,,,,,,,
,,,,,,,5bdab584b341a4000154256b,605b45a4d25f287719a41696,605b88ff92d85cc4dd1c98c2,I am not familiar with Spanish,Midwest,13 or older,no,2021-03-24_14h50.02.035,empathy_intonation_perc,2020.2.10,Win32,60,,,,,,,,,,1,,,,,,,,,,,,,,,,,,,,,,,,,,,,,,,,,,,,,,,,52,camisa,,,0,0,0.869615,0,44,44,51,1,REAL,FAKE,,,,,,,,,,,,,,,,,,,,,
,,,,,,,5bdab584b341a4000154256b,605b45a4d25f287719a41696,605b88ff92d85cc4dd1c98c2,I am not familiar with Spanish,Midwest,13 or older,no,2021-03-24_14h50.02.035,empathy_intonation_perc,2020.2.10,Win32,60,,,,,,,,,,1,,,,,,,,,,,,,,,,,,,,,,,,,,,,,,,,,,,,,,,,85,lad,,,1,1,0.73325,0,45,45,84,1,REAL,FAKE,,,,,,,,,,,,,,,,,,,,,
,,,,,,,5bdab584b341a4000154256b,605b45a4d25f287719a41696,605b88ff92d85cc4dd1c98c2,I am not familiar with Spanish,Midwest,13 or older,no,2021-03-24_14h50.02.035,empathy_intonation_perc,2020.2.10,Win32,60,,,,,,,,,,0,,,,,,,,,,,,,,,,,,,,,,,,,,,,,,,,,,,,,,,,32,fatacidad,,,0,1,0.67,0,46,46,31,1,REAL,FAKE,,,,,,,,,,,,,,,,,,,,,
,,,,,,,5bdab584b341a4000154256b,605b45a4d25f287719a41696,605b88ff92d85cc4dd1c98c2,I am not familiar with Spanish,Midwest,13 or older,no,2021-03-24_14h50.02.035,empathy_intonation_perc,2020.2.10,Win32,60,,,,,,,,,,1,,,,,,,,,,,,,,,,,,,,,,,,,,,,,,,,,,,,,,,,61,seda,,,0,0,1.04622,0,47,47,60,1,REAL,FAKE,,,,,,,,,,,,,,,,,,,,,
,,,,,,,5bdab584b341a4000154256b,605b45a4d25f287719a41696,605b88ff92d85cc4dd1c98c2,I am not familiar with Spanish,Midwest,13 or older,no,2021-03-24_14h50.02.035,empathy_intonation_perc,2020.2.10,Win32,60,,,,,,,,,,1,,,,,,,,,,,,,,,,,,,,,,,,,,,,,,,,,,,,,,,,25,bisagra,,,0,0,0.56533,0,48,48,24,1,REAL,FAKE,,,,,,,,,,,,,,,,,,,,,
,,,,,,,5bdab584b341a4000154256b,605b45a4d25f287719a41696,605b88ff92d85cc4dd1c98c2,I am not familiar with Spanish,Midwest,13 or older,no,2021-03-24_14h50.02.035,empathy_intonation_perc,2020.2.10,Win32,60,,,,,,,,,,0,,,,,,,,,,,,,,,,,,,,,,,,,,,,,,,,,,,,,,,,8,cadea,,,1,0,0.684045,0,49,49,7,1,REAL,FAKE,,,,,,,,,,,,,,,,,,,,,
,,,,,,,5bdab584b341a4000154256b,605b45a4d25f287719a41696,605b88ff92d85cc4dd1c98c2,I am not familiar with Spanish,Midwest,13 or older,no,2021-03-24_14h50.02.035,empathy_intonation_perc,2020.2.10,Win32,60,,,,,,,,,,0,,,,,,,,,,,,,,,,,,,,,,,,,,,,,,,,,,,,,,,,1,terzo,,,0,1,0.88841,0,50,50,0,1,REAL,FAKE,,,,,,,,,,,,,,,,,,,,,
,,,,,,,5bdab584b341a4000154256b,605b45a4d25f287719a41696,605b88ff92d85cc4dd1c98c2,I am not familiar with Spanish,Midwest,13 or older,no,2021-03-24_14h50.02.035,empathy_intonation_perc,2020.2.10,Win32,60,,,,,,,,,,0,,,,,,,,,,,,,,,,,,,,,,,,,,,,,,,,,,,,,,,,33,pauca,,,0,1,0.58776,0,51,51,32,1,REAL,FAKE,,,,,,,,,,,,,,,,,,,,,
,,,,,,,5bdab584b341a4000154256b,605b45a4d25f287719a41696,605b88ff92d85cc4dd1c98c2,I am not familiar with Spanish,Midwest,13 or older,no,2021-03-24_14h50.02.035,empathy_intonation_perc,2020.2.10,Win32,60,,,,,,,,,,0,,,,,,,,,,,,,,,,,,,,,,,,,,,,,,,,,,,,,,,,72,pemicin,,,1,0,0.886875,0,52,52,71,1,REAL,FAKE,,,,,,,,,,,,,,,,,,,,,
,,,,,,,5bdab584b341a4000154256b,605b45a4d25f287719a41696,605b88ff92d85cc4dd1c98c2,I am not familiar with Spanish,Midwest,13 or older,no,2021-03-24_14h50.02.035,empathy_intonation_perc,2020.2.10,Win32,60,,,,,,,,,,1,,,,,,,,,,,,,,,,,,,,,,,,,,,,,,,,,,,,,,,,22,lacayo,,,0,0,0.6354,0,53,53,21,1,REAL,FAKE,,,,,,,,,,,,,,,,,,,,,
,,,,,,,5bdab584b341a4000154256b,605b45a4d25f287719a41696,605b88ff92d85cc4dd1c98c2,I am not familiar with Spanish,Midwest,13 or older,no,2021-03-24_14h50.02.035,empathy_intonation_perc,2020.2.10,Win32,60,,,,,,,,,,0,,,,,,,,,,,,,,,,,,,,,,,,,,,,,,,,,,,,,,,,50,flamida,,,0,1,0.749515,0,54,54,49,1,REAL,FAKE,,,,,,,,,,,,,,,,,,,,,
,,,,,,,5bdab584b341a4000154256b,605b45a4d25f287719a41696,605b88ff92d85cc4dd1c98c2,I am not familiar with Spanish,Midwest,13 or older,no,2021-03-24_14h50.02.035,empathy_intonation_perc,2020.2.10,Win32,60,,,,,,,,,,0,,,,,,,,,,,,,,,,,,,,,,,,,,,,,,,,,,,,,,,,58,plaudir,,,0,1,0.71619,0,55,55,57,1,REAL,FAKE,,,,,,,,,,,,,,,,,,,,,
,,,,,,,5bdab584b341a4000154256b,605b45a4d25f287719a41696,605b88ff92d85cc4dd1c98c2,I am not familiar with Spanish,Midwest,13 or older,no,2021-03-24_14h50.02.035,empathy_intonation_perc,2020.2.10,Win32,60,,,,,,,,,,1,,,,,,,,,,,,,,,,,,,,,,,,,,,,,,,,,,,,,,,,3,pulmones,,,0,0,0.806715,0,56,56,2,1,REAL,FAKE,,,,,,,,,,,,,,,,,,,,,
,,,,,,,5bdab584b341a4000154256b,605b45a4d25f287719a41696,605b88ff92d85cc4dd1c98c2,I am not familiar with Spanish,Midwest,13 or older,no,2021-03-24_14h50.02.035,empathy_intonation_perc,2020.2.10,Win32,60,,,,,,,,,,1,,,,,,,,,,,,,,,,,,,,,,,,,,,,,,,,,,,,,,,,77,tiburn,,,1,1,0.789135,0,57,57,76,1,REAL,FAKE,,,,,,,,,,,,,,,,,,,,,
,,,,,,,5bdab584b341a4000154256b,605b45a4d25f287719a41696,605b88ff92d85cc4dd1c98c2,I am not familiar with Spanish,Midwest,13 or older,no,2021-03-24_14h50.02.035,empathy_intonation_perc,2020.2.10,Win32,60,,,,,,,,,,1,,,,,,,,,,,,,,,,,,,,,,,,,,,,,,,,,,,,,,,,14,yunque,,,0,0,0.663105,0,58,58,13,1,REAL,FAKE,,,,,,,,,,,,,,,,,,,,,
,,,,,,,5bdab584b341a4000154256b,605b45a4d25f287719a41696,605b88ff92d85cc4dd1c98c2,I am not familiar with Spanish,Midwest,13 or older,no,2021-03-24_14h50.02.035,empathy_intonation_perc,2020.2.10,Win32,60,,,,,,,,,,0,,,,,,,,,,,,,,,,,,,,,,,,,,,,,,,,,,,,,,,,42,cadallo,,,0,1,0.811145,0,59,59,41,1,REAL,FAKE,,,,,,,,,,,,,,,,,,,,,
,,,,,,,5bdab584b341a4000154256b,605b45a4d25f287719a41696,605b88ff92d85cc4dd1c98c2,I am not familiar with Spanish,Midwest,13 or older,no,2021-03-24_14h50.02.035,empathy_intonation_perc,2020.2.10,Win32,60,,,,,,,,,,1,,,,,,,,,,,,,,,,,,,,,,,,,,,,,,,,,,,,,,,,57,tacao,,,1,1,0.64067,0,60,60,56,1,REAL,FAKE,,,,,,,,,,,,,,,,,,,,,
,,,,,,,5bdab584b341a4000154256b,605b45a4d25f287719a41696,605b88ff92d85cc4dd1c98c2,I am not familiar with Spanish,Midwest,13 or older,no,2021-03-24_14h50.02.035,empathy_intonation_perc,2020.2.10,Win32,60,,,,,,,,,,1,,,,,,,,,,,,,,,,,,,,,,,,,,,,,,,,,,,,,,,,6,tergiversar,,,0,0,0.646485,0,61,61,5,1,REAL,FAKE,,,,,,,,,,,,,,,,,,,,,
,,,,,,,5bdab584b341a4000154256b,605b45a4d25f287719a41696,605b88ff92d85cc4dd1c98c2,I am not familiar with Spanish,Midwest,13 or older,no,2021-03-24_14h50.02.035,empathy_intonation_perc,2020.2.10,Win32,60,,,,,,,,,,1,,,,,,,,,,,,,,,,,,,,,,,,,,,,,,,,,,,,,,,,24,ltigo,,,1,1,0.508585,0,62,62,23,1,REAL,FAKE,,,,,,,,,,,,,,,,,,,,,
,,,,,,,5bdab584b341a4000154256b,605b45a4d25f287719a41696,605b88ff92d85cc4dd1c98c2,I am not familiar with Spanish,Midwest,13 or older,no,2021-03-24_14h50.02.035,empathy_intonation_perc,2020.2.10,Win32,60,,,,,,,,,,0,,,,,,,,,,,,,,,,,,,,,,,,,,,,,,,,,,,,,,,,29,decar,,,0,1,0.668565,0,63,63,28,1,REAL,FAKE,,,,,,,,,,,,,,,,,,,,,
,,,,,,,5bdab584b341a4000154256b,605b45a4d25f287719a41696,605b88ff92d85cc4dd1c98c2,I am not familiar with Spanish,Midwest,13 or older,no,2021-03-24_14h50.02.035,empathy_intonation_perc,2020.2.10,Win32,60,,,,,,,,,,1,,,,,,,,,,,,,,,,,,,,,,,,,,,,,,,,,,,,,,,,44,cuchara,,,0,0,0.60508,0,64,64,43,1,REAL,FAKE,,,,,,,,,,,,,,,,,,,,,
,,,,,,,5bdab584b341a4000154256b,605b45a4d25f287719a41696,605b88ff92d85cc4dd1c98c2,I am not familiar with Spanish,Midwest,13 or older,no,2021-03-24_14h50.02.035,empathy_intonation_perc,2020.2.10,Win32,60,,,,,,,,,,1,,,,,,,,,,,,,,,,,,,,,,,,,,,,,,,,,,,,,,,,31,pandilla,,,1,1,0.71292,0,65,65,30,1,REAL,FAKE,,,,,,,,,,,,,,,,,,,,,
,,,,,,,5bdab584b341a4000154256b,605b45a4d25f287719a41696,605b88ff92d85cc4dd1c98c2,I am not familiar with Spanish,Midwest,13 or older,no,2021-03-24_14h50.02.035,empathy_intonation_perc,2020.2.10,Win32,60,,,,,,,,,,0,,,,,,,,,,,,,,,,,,,,,,,,,,,,,,,,,,,,,,,,84,escuto,,,1,0,0.8084,0,66,66,83,1,REAL,FAKE,,,,,,,,,,,,,,,,,,,,,
,,,,,,,5bdab584b341a4000154256b,605b45a4d25f287719a41696,605b88ff92d85cc4dd1c98c2,I am not familiar with Spanish,Midwest,13 or older,no,2021-03-24_14h50.02.035,empathy_intonation_perc,2020.2.10,Win32,60,,,,,,,,,,1,,,,,,,,,,,,,,,,,,,,,,,,,,,,,,,,,,,,,,,,5,zapato,,,1,1,0.85442,0,67,67,4,1,REAL,FAKE,,,,,,,,,,,,,,,,,,,,,
,,,,,,,5bdab584b341a4000154256b,605b45a4d25f287719a41696,605b88ff92d85cc4dd1c98c2,I am not familiar with Spanish,Midwest,13 or older,no,2021-03-24_14h50.02.035,empathy_intonation_perc,2020.2.10,Win32,60,,,,,,,,,,1,,,,,,,,,,,,,,,,,,,,,,,,,,,,,,,,,,,,,,,,86,barato,,,0,0,1.19018,0,68,68,85,1,REAL,FAKE,,,,,,,,,,,,,,,,,,,,,
,,,,,,,5bdab584b341a4000154256b,605b45a4d25f287719a41696,605b88ff92d85cc4dd1c98c2,I am not familiar with Spanish,Midwest,13 or older,no,2021-03-24_14h50.02.035,empathy_intonation_perc,2020.2.10,Win32,60,,,,,,,,,,1,,,,,,,,,,,,,,,,,,,,,,,,,,,,,,,,,,,,,,,,60,matar,,,0,0,0.53525,0,69,69,59,1,REAL,FAKE,,,,,,,,,,,,,,,,,,,,,
,,,,,,,5bdab584b341a4000154256b,605b45a4d25f287719a41696,605b88ff92d85cc4dd1c98c2,I am not familiar with Spanish,Midwest,13 or older,no,2021-03-24_14h50.02.035,empathy_intonation_perc,2020.2.10,Win32,60,,,,,,,,,,0,,,,,,,,,,,,,,,,,,,,,,,,,,,,,,,,,,,,,,,,23,lampera,,,0,1,0.74018,0,70,70,22,1,REAL,FAKE,,,,,,,,,,,,,,,,,,,,,
,,,,,,,5bdab584b341a4000154256b,605b45a4d25f287719a41696,605b88ff92d85cc4dd1c98c2,I am not familiar with Spanish,Midwest,13 or older,no,2021-03-24_14h50.02.035,empathy_intonation_perc,2020.2.10,Win32,60,,,,,,,,,,1,,,,,,,,,,,,,,,,,,,,,,,,,,,,,,,,,,,,,,,,83,guante,,,0,0,0.698845,0,71,71,82,1,REAL,FAKE,,,,,,,,,,,,,,,,,,,,,
,,,,,,,5bdab584b341a4000154256b,605b45a4d25f287719a41696,605b88ff92d85cc4dd1c98c2,I am not familiar with Spanish,Midwest,13 or older,no,2021-03-24_14h50.02.035,empathy_intonation_perc,2020.2.10,Win32,60,,,,,,,,,,1,,,,,,,,,,,,,,,,,,,,,,,,,,,,,,,,,,,,,,,,41,rebuscar,,,0,0,0.55603,0,72,72,40,1,REAL,FAKE,,,,,,,,,,,,,,,,,,,,,
,,,,,,,5bdab584b341a4000154256b,605b45a4d25f287719a41696,605b88ff92d85cc4dd1c98c2,I am not familiar with Spanish,Midwest,13 or older,no,2021-03-24_14h50.02.035,empathy_intonation_perc,2020.2.10,Win32,60,,,,,,,,,,1,,,,,,,,,,,,,,,,,,,,,,,,,,,,,,,,,,,,,,,,40,alfombra,,,0,0,0.52278,0,73,73,39,1,REAL,FAKE,,,,,,,,,,,,,,,,,,,,,
,,,,,,,5bdab584b341a4000154256b,605b45a4d25f287719a41696,605b88ff92d85cc4dd1c98c2,I am not familiar with Spanish,Midwest,13 or older,no,2021-03-24_14h50.02.035,empathy_intonation_perc,2020.2.10,Win32,60,,,,,,,,,,1,,,,,,,,,,,,,,,,,,,,,,,,,,,,,,,,,,,,,,,,12,asesinato,,,0,0,0.735455,0,74,74,11,1,REAL,FAKE,,,,,,,,,,,,,,,,,,,,,
,,,,,,,5bdab584b341a4000154256b,605b45a4d25f287719a41696,605b88ff92d85cc4dd1c98c2,I am not familiar with Spanish,Midwest,13 or older,no,2021-03-24_14h50.02.035,empathy_intonation_perc,2020.2.10,Win32,60,,,,,,,,,,1,,,,,,,,,,,,,,,,,,,,,,,,,,,,,,,,,,,,,,,,65,bizcocho,,,0,0,0.58233,0,75,75,64,1,REAL,FAKE,,,,,,,,,,,,,,,,,,,,,
,,,,,,,5bdab584b341a4000154256b,605b45a4d25f287719a41696,605b88ff92d85cc4dd1c98c2,I am not familiar with Spanish,Midwest,13 or older,no,2021-03-24_14h50.02.035,empathy_intonation_perc,2020.2.10,Win32,60,,,,,,,,,,1,,,,,,,,,,,,,,,,,,,,,,,,,,,,,,,,,,,,,,,,55,nevar,,,1,1,0.671845,0,76,76,54,1,REAL,FAKE,,,,,,,,,,,,,,,,,,,,,
,,,,,,,5bdab584b341a4000154256b,605b45a4d25f287719a41696,605b88ff92d85cc4dd1c98c2,I am not familiar with Spanish,Midwest,13 or older,no,2021-03-24_14h50.02.035,empathy_intonation_perc,2020.2.10,Win32,60,,,,,,,,,,0,,,,,,,,,,,,,,,,,,,,,,,,,,,,,,,,,,,,,,,,27,acutacin,,,1,0,0.81355,0,77,77,26,1,REAL,FAKE,,,,,,,,,,,,,,,,,,,,,
,,,,,,,5bdab584b341a4000154256b,605b45a4d25f287719a41696,605b88ff92d85cc4dd1c98c2,I am not familiar with Spanish,Midwest,13 or older,no,2021-03-24_14h50.02.035,empathy_intonation_perc,2020.2.10,Win32,60,,,,,,,,,,1,,,,,,,,,,,,,,,,,,,,,,,,,,,,,,,,,,,,,,,,46,martillo,,,0,0,1.212225,0,78,78,45,1,REAL,FAKE,,,,,,,,,,,,,,,,,,,,,
,,,,,,,5bdab584b341a4000154256b,605b45a4d25f287719a41696,605b88ff92d85cc4dd1c98c2,I am not familiar with Spanish,Midwest,13 or older,no,2021-03-24_14h50.02.035,empathy_intonation_perc,2020.2.10,Win32,60,,,,,,,,,,0,,,,,,,,,,,,,,,,,,,,,,,,,,,,,,,,,,,,,,,,70,temblo,,,0,1,0.652325,0,79,79,69,1,REAL,FAKE,,,,,,,,,,,,,,,,,,,,,
,,,,,,,5bdab584b341a4000154256b,605b45a4d25f287719a41696,605b88ff92d85cc4dd1c98c2,I am not familiar with Spanish,Midwest,13 or older,no,2021-03-24_14h50.02.035,empathy_intonation_perc,2020.2.10,Win32,60,,,,,,,,,,1,,,,,,,,,,,,,,,,,,,,,,,,,,,,,,,,,,,,,,,,34,aviso,,,0,0,0.87882,0,80,80,33,1,REAL,FAKE,,,,,,,,,,,,,,,,,,,,,
,,,,,,,5bdab584b341a4000154256b,605b45a4d25f287719a41696,605b88ff92d85cc4dd1c98c2,I am not familiar with Spanish,Midwest,13 or older,no,2021-03-24_14h50.02.035,empathy_intonation_perc,2020.2.10,Win32,60,,,,,,,,,,0,,,,,,,,,,,,,,,,,,,,,,,,,,,,,,,,,,,,,,,,87,grodo,,,0,1,0.531025,0,81,81,86,1,REAL,FAKE,,,,,,,,,,,,,,,,,,,,,
,,,,,,,5bdab584b341a4000154256b,605b45a4d25f287719a41696,605b88ff92d85cc4dd1c98c2,I am not familiar with Spanish,Midwest,13 or older,no,2021-03-24_14h50.02.035,empathy_intonation_perc,2020.2.10,Win32,60,,,,,,,,,,0,,,,,,,,,,,,,,,,,,,,,,,,,,,,,,,,,,,,,,,,35,rompido,,,0,1,0.497025,0,82,82,34,1,REAL,FAKE,,,,,,,,,,,,,,,,,,,,,
,,,,,,,5bdab584b341a4000154256b,605b45a4d25f287719a41696,605b88ff92d85cc4dd1c98c2,I am not familiar with Spanish,Midwest,13 or older,no,2021-03-24_14h50.02.035,empathy_intonation_perc,2020.2.10,Win32,60,,,,,,,,,,0,,,,,,,,,,,,,,,,,,,,,,,,,,,,,,,,,,,,,,,,21,capillo,,,1,0,0.834985,0,83,83,20,1,REAL,FAKE,,,,,,,,,,,,,,,,,,,,,
,,,,,,,5bdab584b341a4000154256b,605b45a4d25f287719a41696,605b88ff92d85cc4dd1c98c2,I am not familiar with Spanish,Midwest,13 or older,no,2021-03-24_14h50.02.035,empathy_intonation_perc,2020.2.10,Win32,60,,,,,,,,,,0,,,,,,,,,,,,,,,,,,,,,,,,,,,,,,,,,,,,,,,,16,abracer,,,0,1,2.14394,0,84,84,15,1,REAL,FAKE,,,,,,,,,,,,,,,,,,,,,
,,,,,,,5bdab584b341a4000154256b,605b45a4d25f287719a41696,605b88ff92d85cc4dd1c98c2,I am not familiar with Spanish,Midwest,13 or older,no,2021-03-24_14h50.02.035,empathy_intonation_perc,2020.2.10,Win32,60,,,,,,,,,,0,,,,,,,,,,,,,,,,,,,,,,,,,,,,,,,,,,,,,,,,30,alardio,,,0,1,0.730455,0,85,85,29,1,REAL,FAKE,,,,,,,,,,,,,,,,,,,,,
,,,,,,,5bdab584b341a4000154256b,605b45a4d25f287719a41696,605b88ff92d85cc4dd1c98c2,I am not familiar with Spanish,Midwest,13 or older,no,2021-03-24_14h50.02.035,empathy_intonation_perc,2020.2.10,Win32,60,,,,,,,,,,1,,,,,,,,,,,,,,,,,,,,,,,,,,,,,,,,,,,,,,,,64,orgulloso,,,0,0,0.53695,0,86,86,63,1,REAL,FAKE,,,,,,,,,,,,,,,,,,,,,
