instructions_2afc_loop.thisRepN,instructions_2afc_loop.thisTrialN,instructions_2afc_loop.thisN,instructions_2afc_loop.thisIndex,instructions_2afc_loop.ran,instructions_text,continue_text,participant,study_id,session,I am most familiar with Spanish from...*,What part of the US are you from?*,At what age did you begin learning Spanish?*,Are you proficient in any languages other than English/Spanish?*,date,expName,psychopyVersion,OS,frameRate,key_resp_2afc_practice.keys,key_resp_2afc_practice.corr,key_resp_2afc_practice.rt,trials_2afc_practice_loop.thisRepN,trials_2afc_practice_loop.thisTrialN,trials_2afc_practice_loop.thisN,trials_2afc_practice_loop.thisIndex,trials_2afc_practice_loop.ran,path,correct_response,the_col,key_resp_2afc_trial.keys,key_resp_2afc_trial.corr,key_resp_2afc_trial.rt,trials_2afc_loop.thisRepN,trials_2afc_loop.thisTrialN,trials_2afc_loop.thisN,trials_2afc_loop.thisIndex,trials_2afc_loop.ran,item_num,andalusian,argentine,castilian,chilean,cuban,mexican,peruvian,puertorican,key_resp_ac1.keys,key_resp_ac1.corr,key_resp_ac1.rt,ac1_loop.thisRepN,ac1_loop.thisTrialN,ac1_loop.thisN,ac1_loop.thisIndex,ac1_loop.ran,instructions_lextale_loop.thisRepN,instructions_lextale_loop.thisTrialN,instructions_lextale_loop.thisN,instructions_lextale_loop.thisIndex,instructions_lextale_loop.ran,key_resp_lextale_practice.keys,key_resp_lextale_practice.corr,key_resp_lextale_practice.rt,trials_lextale_practice_loop.thisRepN,trials_lextale_practice_loop.thisTrialN,trials_lextale_practice_loop.thisN,trials_lextale_practice_loop.thisIndex,trials_lextale_practice_loop.ran,stim,word,prac_button_real,prac_button_false,key_resp_lextale_trial.keys,key_resp_lextale_trial.corr,key_resp_lextale_trial.rt,trials_lextale_loop.thisRepN,trials_lextale_loop.thisTrialN,trials_lextale_loop.thisN,trials_lextale_loop.thisIndex,trials_lextale_loop.ran,button_real,button_false,key_resp_ac2.keys,key_resp_ac2.corr,key_resp_ac2.rt,check_pass,check_fails,ac2_loop.thisRepN,ac2_loop.thisTrialN,ac2_loop.thisN,ac2_loop.thisIndex,ac2_loop.ran,slider_eq_trial.response,trials_eq_loop.thisRepN,trials_eq_loop.thisTrialN,trials_eq_loop.thisN,trials_eq_loop.thisIndex,trials_eq_loop.ran,item,is_test_item,is_distractor,is_agree_score,is_disagree_score
0,0,0,0,1,"In the following task you are going to hear a series of utterances. 

  You will decide if the utterances sound like questions or not using your keyboard.",(press the spacebar to continue),5c049e9bad9a9700011b877b,605b45a4d25f287719a41696,605bc2319a6e369a96541e9e,Peru,Midwest,13 or older,no,2021-03-24_18h51.38.387,empathy_intonation_perc,2020.2.10,Win32,60,,,,,,,,,,,,,,,,,,,,,,,,,,,,,,,,,,,,,,,,,,,,,,,,,,,,,,,,,,,,,,,,,,,,,,,,,,,,,,,,,,,,
0,1,1,1,1,"If you believe the utterance is a question, type '1' (for 'yes') and if you do not 
  believe it is a question type '0' (for 'no').

  Let's practice a bit...",(press the spacebar to continue),5c049e9bad9a9700011b877b,605b45a4d25f287719a41696,605bc2319a6e369a96541e9e,Peru,Midwest,13 or older,no,2021-03-24_18h51.38.387,empathy_intonation_perc,2020.2.10,Win32,60,,,,,,,,,,,,,,,,,,,,,,,,,,,,,,,,,,,,,,,,,,,,,,,,,,,,,,,,,,,,,,,,,,,,,,,,,,,,,,,,,,,,
,,,,,,,5c049e9bad9a9700011b877b,605b45a4d25f287719a41696,605bc2319a6e369a96541e9e,Peru,Midwest,13 or older,no,2021-03-24_18h51.38.387,empathy_intonation_perc,2020.2.10,Win32,60,0,1,2.412595,0,0,0,4,1,./stim/wavs/cuban_statement_filler_Cocinabas-por-la-noche.wav,0,,,,,,,,,,,,,,,,,,,,,,,,,,,,,,,,,,,,,,,,,,,,,,,,,,,,,,,,,,,,,,,,,,,,,,,,,,
,,,,,,,5c049e9bad9a9700011b877b,605b45a4d25f287719a41696,605bc2319a6e369a96541e9e,Peru,Midwest,13 or older,no,2021-03-24_18h51.38.387,empathy_intonation_perc,2020.2.10,Win32,60,0,1,2.60809,0,1,1,5,1,./stim/wavs/andalusian_statement_filler_Alberto-nunca-se-afeita.wav,0,,,,,,,,,,,,,,,,,,,,,,,,,,,,,,,,,,,,,,,,,,,,,,,,,,,,,,,,,,,,,,,,,,,,,,,,,,
,,,,,,,5c049e9bad9a9700011b877b,605b45a4d25f287719a41696,605bc2319a6e369a96541e9e,Peru,Midwest,13 or older,no,2021-03-24_18h51.38.387,empathy_intonation_perc,2020.2.10,Win32,60,1,1,2.01769,0,2,2,0,1,./stim/wavs/castilian_question_filler_Mi-esposo-conoce-al-chico.wav,1,,,,,,,,,,,,,,,,,,,,,,,,,,,,,,,,,,,,,,,,,,,,,,,,,,,,,,,,,,,,,,,,,,,,,,,,,,
,,,,,,,5c049e9bad9a9700011b877b,605b45a4d25f287719a41696,605bc2319a6e369a96541e9e,Peru,Midwest,13 or older,no,2021-03-24_18h51.38.387,empathy_intonation_perc,2020.2.10,Win32,60,1,1,1.517795,0,3,3,1,1,./stim/wavs/argentine_question_filler_Mi-vecino-habla-mucho.wav,1,,,,,,,,,,,,,,,,,,,,,,,,,,,,,,,,,,,,,,,,,,,,,,,,,,,,,,,,,,,,,,,,,,,,,,,,,,
,,,,,,,5c049e9bad9a9700011b877b,605b45a4d25f287719a41696,605bc2319a6e369a96541e9e,Peru,Midwest,13 or older,no,2021-03-24_18h51.38.387,empathy_intonation_perc,2020.2.10,Win32,60,1,1,1.81699,0,4,4,3,1,./stim/wavs/mexican_question_filler_Felipe-no-tiene-contrasena.wav,1,,,,,,,,,,,,,,,,,,,,,,,,,,,,,,,,,,,,,,,,,,,,,,,,,,,,,,,,,,,,,,,,,,,,,,,,,,
,,,,,,,5c049e9bad9a9700011b877b,605b45a4d25f287719a41696,605bc2319a6e369a96541e9e,Peru,Midwest,13 or older,no,2021-03-24_18h51.38.387,empathy_intonation_perc,2020.2.10,Win32,60,0,1,2.21173,0,5,5,6,1,./stim/wavs/peruvian_statement_filler_El-nino-habla-con-su-madre.wav,0,,,,,,,,,,,,,,,,,,,,,,,,,,,,,,,,,,,,,,,,,,,,,,,,,,,,,,,,,,,,,,,,,,,,,,,,,,
,,,,,,,5c049e9bad9a9700011b877b,605b45a4d25f287719a41696,605bc2319a6e369a96541e9e,Peru,Midwest,13 or older,no,2021-03-24_18h51.38.387,empathy_intonation_perc,2020.2.10,Win32,60,0,0,1.49089,0,6,6,2,1,./stim/wavs/chilean_question_filler_Mi-padre-cantaba-bien.wav,1,,,,,,,,,,,,,,,,,,,,,,,,,,,,,,,,,,,,,,,,,,,,,,,,,,,,,,,,,,,,,,,,,,,,,,,,,,
,,,,,,,5c049e9bad9a9700011b877b,605b45a4d25f287719a41696,605bc2319a6e369a96541e9e,Peru,Midwest,13 or older,no,2021-03-24_18h51.38.387,empathy_intonation_perc,2020.2.10,Win32,60,0,1,1.79999,0,7,7,7,1,./stim/wavs/puertorican_statement_filler_La-nina-pinta-con-su-amiga.wav,0,,,,,,,,,,,,,,,,,,,,,,,,,,,,,,,,,,,,,,,,,,,,,,,,,,,,,,,,,,,,,,,,,,,,,,,,,,
,,,,,,,5c049e9bad9a9700011b877b,605b45a4d25f287719a41696,605bc2319a6e369a96541e9e,Peru,Midwest,13 or older,no,2021-03-24_18h51.38.387,empathy_intonation_perc,2020.2.10,Win32,60,,,,,,,,,,1,argentine,1,1,1.529075,0,0,0,60,1,61,./stim/wavs/andalusian_mismatch_interrogative-total-yn_La-nina-lava-el-plato.wav,./stim/wavs/argentine_mismatch_interrogative-total-yn_La-nina-lava-el-plato.wav,./stim/wavs/castilian_mismatch_interrogative-total-yn_La-nina-lava-el-plato.wav,./stim/wavs/chilean_mismatch_interrogative-total-yn_La-nina-lava-el-plato.wav,./stim/wavs/cuban_mismatch_interrogative-total-yn_La-nina-lava-el-plato.wav,./stim/wavs/mexican_mismatch_interrogative-total-yn_La-nina-lava-el-plato.wav,./stim/wavs/peruvian_mismatch_interrogative-total-yn_La-nina-lava-el-plato.wav,./stim/wavs/puertorican_mismatch_interrogative-total-yn_La-nina-lava-el-plato.wav,,,,,,,,,,,,,,,,,,,,,,,,,,,,,,,,,,,,,,,,,,,,,,,,,,,,,,,,
,,,,,,,5c049e9bad9a9700011b877b,605b45a4d25f287719a41696,605bc2319a6e369a96541e9e,Peru,Midwest,13 or older,no,2021-03-24_18h51.38.387,empathy_intonation_perc,2020.2.10,Win32,60,,,,,,,,,,0,peruvian,0,1,1.94242,0,1,1,34,1,35,./stim/wavs/andalusian_mismatch_declarative-broad-focus_El-nino-oye-el-rio.wav,./stim/wavs/argentine_mismatch_declarative-broad-focus_El-nino-oye-el-rio.wav,./stim/wavs/castilian_mismatch_declarative-broad-focus_El-nino-oye-el-rio.wav,./stim/wavs/chilean_mismatch_declarative-broad-focus_El-nino-oye-el-rio.wav,./stim/wavs/cuban_mismatch_declarative-broad-focus_El-nino-oye-el-rio.wav,./stim/wavs/mexican_mismatch_declarative-broad-focus_El-nino-oye-el-rio.wav,./stim/wavs/peruvian_mismatch_declarative-broad-focus_El-nino-oye-el-rio.wav,./stim/wavs/puertorican_mismatch_declarative-broad-focus_El-nino-oye-el-rio.wav,,,,,,,,,,,,,,,,,,,,,,,,,,,,,,,,,,,,,,,,,,,,,,,,,,,,,,,,
,,,,,,,5c049e9bad9a9700011b877b,605b45a4d25f287719a41696,605bc2319a6e369a96541e9e,Peru,Midwest,13 or older,no,2021-03-24_18h51.38.387,empathy_intonation_perc,2020.2.10,Win32,60,,,,,,,,,,0,castilian,0,1,1.583595,0,2,2,33,1,34,./stim/wavs/andalusian_mismatch_declarative-broad-focus_El-hombre-mira-la-luna.wav,./stim/wavs/argentine_mismatch_declarative-broad-focus_El-hombre-mira-la-luna.wav,./stim/wavs/castilian_mismatch_declarative-broad-focus_El-hombre-mira-la-luna.wav,./stim/wavs/chilean_mismatch_declarative-broad-focus_El-hombre-mira-la-luna.wav,./stim/wavs/cuban_mismatch_declarative-broad-focus_El-hombre-mira-la-luna.wav,./stim/wavs/mexican_mismatch_declarative-broad-focus_El-hombre-mira-la-luna.wav,./stim/wavs/peruvian_mismatch_declarative-broad-focus_El-hombre-mira-la-luna.wav,./stim/wavs/puertorican_mismatch_declarative-broad-focus_El-hombre-mira-la-luna.wav,,,,,,,,,,,,,,,,,,,,,,,,,,,,,,,,,,,,,,,,,,,,,,,,,,,,,,,,
,,,,,,,5c049e9bad9a9700011b877b,605b45a4d25f287719a41696,605bc2319a6e369a96541e9e,Peru,Midwest,13 or older,no,2021-03-24_18h51.38.387,empathy_intonation_perc,2020.2.10,Win32,60,,,,,,,,,,0,argentine,0,1,1.509055,0,3,3,9,1,10,./stim/wavs/andalusian_match_declarative-narrow-focus_Daniel-iba-a-Bolivia.wav,./stim/wavs/argentine_match_declarative-narrow-focus_Daniel-iba-a-Bolivia.wav,./stim/wavs/castilian_match_declarative-narrow-focus_Daniel-iba-a-Bolivia.wav,./stim/wavs/chilean_match_declarative-narrow-focus_Daniel-iba-a-Bolivia.wav,./stim/wavs/cuban_match_declarative-narrow-focus_Daniel-iba-a-Bolivia.wav,./stim/wavs/mexican_match_declarative-narrow-focus_Daniel-iba-a-Bolivia.wav,./stim/wavs/peruvian_match_declarative-narrow-focus_Daniel-iba-a-Bolivia.wav,./stim/wavs/puertorican_match_declarative-narrow-focus_Daniel-iba-a-Bolivia.wav,,,,,,,,,,,,,,,,,,,,,,,,,,,,,,,,,,,,,,,,,,,,,,,,,,,,,,,,
,,,,,,,5c049e9bad9a9700011b877b,605b45a4d25f287719a41696,605bc2319a6e369a96541e9e,Peru,Midwest,13 or older,no,2021-03-24_18h51.38.387,empathy_intonation_perc,2020.2.10,Win32,60,,,,,,,,,,0,peruvian,0,1,1.58333,0,4,4,5,1,6,./stim/wavs/andalusian_match_declarative-broad-focus_Maria-bebe-el-vino.wav,./stim/wavs/argentine_match_declarative-broad-focus_Maria-bebe-el-vino.wav,./stim/wavs/castilian_match_declarative-broad-focus_Maria-bebe-el-vino.wav,./stim/wavs/chilean_match_declarative-broad-focus_Maria-bebe-el-vino.wav,./stim/wavs/cuban_match_declarative-broad-focus_Maria-bebe-el-vino.wav,./stim/wavs/mexican_match_declarative-broad-focus_Maria-bebe-el-vino.wav,./stim/wavs/peruvian_match_declarative-broad-focus_Maria-bebe-el-vino.wav,./stim/wavs/puertorican_match_declarative-broad-focus_Maria-bebe-el-vino.wav,,,,,,,,,,,,,,,,,,,,,,,,,,,,,,,,,,,,,,,,,,,,,,,,,,,,,,,,
,,,,,,,5c049e9bad9a9700011b877b,605b45a4d25f287719a41696,605bc2319a6e369a96541e9e,Peru,Midwest,13 or older,no,2021-03-24_18h51.38.387,empathy_intonation_perc,2020.2.10,Win32,60,,,,,,,,,,0,mexican,0,1,1.31237,0,5,5,8,1,9,./stim/wavs/andalusian_match_declarative-narrow-focus_Ana-lleva-el-abrigo.wav,./stim/wavs/argentine_match_declarative-narrow-focus_Ana-lleva-el-abrigo.wav,./stim/wavs/castilian_match_declarative-narrow-focus_Ana-lleva-el-abrigo.wav,./stim/wavs/chilean_match_declarative-narrow-focus_Ana-lleva-el-abrigo.wav,./stim/wavs/cuban_match_declarative-narrow-focus_Ana-lleva-el-abrigo.wav,./stim/wavs/mexican_match_declarative-narrow-focus_Ana-lleva-el-abrigo.wav,./stim/wavs/peruvian_match_declarative-narrow-focus_Ana-lleva-el-abrigo.wav,./stim/wavs/puertorican_match_declarative-narrow-focus_Ana-lleva-el-abrigo.wav,,,,,,,,,,,,,,,,,,,,,,,,,,,,,,,,,,,,,,,,,,,,,,,,,,,,,,,,
,,,,,,,5c049e9bad9a9700011b877b,605b45a4d25f287719a41696,605bc2319a6e369a96541e9e,Peru,Midwest,13 or older,no,2021-03-24_18h51.38.387,empathy_intonation_perc,2020.2.10,Win32,60,,,,,,,,,,1,puertorican,1,1,1.77992,0,6,6,51,1,52,./stim/wavs/andalusian_mismatch_interrogative-partial-wh_Por-que-desayuna-muy-bien.wav,./stim/wavs/argentine_mismatch_interrogative-partial-wh_Por-que-desayuna-muy-bien.wav,./stim/wavs/castilian_mismatch_interrogative-partial-wh_Por-que-desayuna-muy-bien.wav,./stim/wavs/chilean_mismatch_interrogative-partial-wh_Por-que-desayuna-muy-bien.wav,./stim/wavs/cuban_mismatch_interrogative-partial-wh_Por-que-desayuna-muy-bien.wav,./stim/wavs/mexican_mismatch_interrogative-partial-wh_Por-que-desayuna-muy-bien.wav,./stim/wavs/peruvian_mismatch_interrogative-partial-wh_Por-que-desayuna-muy-bien.wav,./stim/wavs/puertorican_mismatch_interrogative-partial-wh_Por-que-desayuna-muy-bien.wav,,,,,,,,,,,,,,,,,,,,,,,,,,,,,,,,,,,,,,,,,,,,,,,,,,,,,,,,
,,,,,,,5c049e9bad9a9700011b877b,605b45a4d25f287719a41696,605bc2319a6e369a96541e9e,Peru,Midwest,13 or older,no,2021-03-24_18h51.38.387,empathy_intonation_perc,2020.2.10,Win32,60,,,,,,,,,,0,andalusian,0,1,2.46742,0,7,7,6,1,7,./stim/wavs/andalusian_match_declarative-broad-focus_Mariano-habla-del-tiempo.wav,./stim/wavs/argentine_match_declarative-broad-focus_Mariano-habla-del-tiempo.wav,./stim/wavs/castilian_match_declarative-broad-focus_Mariano-habla-del-tiempo.wav,./stim/wavs/chilean_match_declarative-broad-focus_Mariano-habla-del-tiempo.wav,./stim/wavs/cuban_match_declarative-broad-focus_Mariano-habla-del-tiempo.wav,./stim/wavs/mexican_match_declarative-broad-focus_Mariano-habla-del-tiempo.wav,./stim/wavs/peruvian_match_declarative-broad-focus_Mariano-habla-del-tiempo.wav,./stim/wavs/puertorican_match_declarative-broad-focus_Mariano-habla-del-tiempo.wav,,,,,,,,,,,,,,,,,,,,,,,,,,,,,,,,,,,,,,,,,,,,,,,,,,,,,,,,
,,,,,,,5c049e9bad9a9700011b877b,605b45a4d25f287719a41696,605bc2319a6e369a96541e9e,Peru,Midwest,13 or older,no,2021-03-24_18h51.38.387,empathy_intonation_perc,2020.2.10,Win32,60,,,,,,,,,,1,cuban,1,1,1.557435,0,8,8,55,1,56,./stim/wavs/andalusian_mismatch_interrogative-partial-wh_Por-que-vivia-en-Paris.wav,./stim/wavs/argentine_mismatch_interrogative-partial-wh_Por-que-vivia-en-Paris.wav,./stim/wavs/castilian_mismatch_interrogative-partial-wh_Por-que-vivia-en-Paris.wav,./stim/wavs/chilean_mismatch_interrogative-partial-wh_Por-que-vivia-en-Paris.wav,./stim/wavs/cuban_mismatch_interrogative-partial-wh_Por-que-vivia-en-Paris.wav,./stim/wavs/mexican_mismatch_interrogative-partial-wh_Por-que-vivia-en-Paris.wav,./stim/wavs/peruvian_mismatch_interrogative-partial-wh_Por-que-vivia-en-Paris.wav,./stim/wavs/puertorican_mismatch_interrogative-partial-wh_Por-que-vivia-en-Paris.wav,,,,,,,,,,,,,,,,,,,,,,,,,,,,,,,,,,,,,,,,,,,,,,,,,,,,,,,,
,,,,,,,5c049e9bad9a9700011b877b,605b45a4d25f287719a41696,605bc2319a6e369a96541e9e,Peru,Midwest,13 or older,no,2021-03-24_18h51.38.387,empathy_intonation_perc,2020.2.10,Win32,60,,,,,,,,,,1,puertorican,1,1,1.64161,0,9,9,57,1,58,./stim/wavs/andalusian_mismatch_interrogative-total-yn_El-hombre-mira-la-luna.wav,./stim/wavs/argentine_mismatch_interrogative-total-yn_El-hombre-mira-la-luna.wav,./stim/wavs/castilian_mismatch_interrogative-total-yn_El-hombre-mira-la-luna.wav,./stim/wavs/chilean_mismatch_interrogative-total-yn_El-hombre-mira-la-luna.wav,./stim/wavs/cuban_mismatch_interrogative-total-yn_El-hombre-mira-la-luna.wav,./stim/wavs/mexican_mismatch_interrogative-total-yn_El-hombre-mira-la-luna.wav,./stim/wavs/peruvian_mismatch_interrogative-total-yn_El-hombre-mira-la-luna.wav,./stim/wavs/puertorican_mismatch_interrogative-total-yn_El-hombre-mira-la-luna.wav,,,,,,,,,,,,,,,,,,,,,,,,,,,,,,,,,,,,,,,,,,,,,,,,,,,,,,,,
,,,,,,,5c049e9bad9a9700011b877b,605b45a4d25f287719a41696,605bc2319a6e369a96541e9e,Peru,Midwest,13 or older,no,2021-03-24_18h51.38.387,empathy_intonation_perc,2020.2.10,Win32,60,,,,,,,,,,1,cuban,0,0,1.577515,0,10,10,19,1,20,./stim/wavs/andalusian_match_interrogative-partial-wh_Cuando-vendia-el-carro.wav,./stim/wavs/argentine_match_interrogative-partial-wh_Cuando-vendia-el-carro.wav,./stim/wavs/castilian_match_interrogative-partial-wh_Cuando-vendia-el-carro.wav,./stim/wavs/chilean_match_interrogative-partial-wh_Cuando-vendia-el-carro.wav,./stim/wavs/cuban_match_interrogative-partial-wh_Cuando-vendia-el-carro.wav,./stim/wavs/mexican_match_interrogative-partial-wh_Cuando-vendia-el-carro.wav,./stim/wavs/peruvian_match_interrogative-partial-wh_Cuando-vendia-el-carro.wav,./stim/wavs/puertorican_match_interrogative-partial-wh_Cuando-vendia-el-carro.wav,,,,,,,,,,,,,,,,,,,,,,,,,,,,,,,,,,,,,,,,,,,,,,,,,,,,,,,,
,,,,,,,5c049e9bad9a9700011b877b,605b45a4d25f287719a41696,605bc2319a6e369a96541e9e,Peru,Midwest,13 or older,no,2021-03-24_18h51.38.387,empathy_intonation_perc,2020.2.10,Win32,60,,,,,,,,,,0,argentine,0,1,1.946165,0,11,11,39,1,40,./stim/wavs/andalusian_mismatch_declarative-broad-focus_Mi-tia-odia-la-lluvia.wav,./stim/wavs/argentine_mismatch_declarative-broad-focus_Mi-tia-odia-la-lluvia.wav,./stim/wavs/castilian_mismatch_declarative-broad-focus_Mi-tia-odia-la-lluvia.wav,./stim/wavs/chilean_mismatch_declarative-broad-focus_Mi-tia-odia-la-lluvia.wav,./stim/wavs/cuban_mismatch_declarative-broad-focus_Mi-tia-odia-la-lluvia.wav,./stim/wavs/mexican_mismatch_declarative-broad-focus_Mi-tia-odia-la-lluvia.wav,./stim/wavs/peruvian_mismatch_declarative-broad-focus_Mi-tia-odia-la-lluvia.wav,./stim/wavs/puertorican_mismatch_declarative-broad-focus_Mi-tia-odia-la-lluvia.wav,,,,,,,,,,,,,,,,,,,,,,,,,,,,,,,,,,,,,,,,,,,,,,,,,,,,,,,,
,,,,,,,5c049e9bad9a9700011b877b,605b45a4d25f287719a41696,605bc2319a6e369a96541e9e,Peru,Midwest,13 or older,no,2021-03-24_18h51.38.387,empathy_intonation_perc,2020.2.10,Win32,60,,,,,,,,,,0,peruvian,0,1,1.820835,0,12,12,36,1,37,./stim/wavs/andalusian_mismatch_declarative-broad-focus_La-nina-lava-el-plato.wav,./stim/wavs/argentine_mismatch_declarative-broad-focus_La-nina-lava-el-plato.wav,./stim/wavs/castilian_mismatch_declarative-broad-focus_La-nina-lava-el-plato.wav,./stim/wavs/chilean_mismatch_declarative-broad-focus_La-nina-lava-el-plato.wav,./stim/wavs/cuban_mismatch_declarative-broad-focus_La-nina-lava-el-plato.wav,./stim/wavs/mexican_mismatch_declarative-broad-focus_La-nina-lava-el-plato.wav,./stim/wavs/peruvian_mismatch_declarative-broad-focus_La-nina-lava-el-plato.wav,./stim/wavs/puertorican_mismatch_declarative-broad-focus_La-nina-lava-el-plato.wav,,,,,,,,,,,,,,,,,,,,,,,,,,,,,,,,,,,,,,,,,,,,,,,,,,,,,,,,
,,,,,,,5c049e9bad9a9700011b877b,605b45a4d25f287719a41696,605bc2319a6e369a96541e9e,Peru,Midwest,13 or older,no,2021-03-24_18h51.38.387,empathy_intonation_perc,2020.2.10,Win32,60,,,,,,,,,,1,cuban,1,1,1.4997,0,13,13,16,1,17,./stim/wavs/andalusian_match_interrogative-partial-wh_Cuando-bebia-el-vino.wav,./stim/wavs/argentine_match_interrogative-partial-wh_Cuando-bebia-el-vino.wav,./stim/wavs/castilian_match_interrogative-partial-wh_Cuando-bebia-el-vino.wav,./stim/wavs/chilean_match_interrogative-partial-wh_Cuando-bebia-el-vino.wav,./stim/wavs/cuban_match_interrogative-partial-wh_Cuando-bebia-el-vino.wav,./stim/wavs/mexican_match_interrogative-partial-wh_Cuando-bebia-el-vino.wav,./stim/wavs/peruvian_match_interrogative-partial-wh_Cuando-bebia-el-vino.wav,./stim/wavs/puertorican_match_interrogative-partial-wh_Cuando-bebia-el-vino.wav,,,,,,,,,,,,,,,,,,,,,,,,,,,,,,,,,,,,,,,,,,,,,,,,,,,,,,,,
,,,,,,,5c049e9bad9a9700011b877b,605b45a4d25f287719a41696,605bc2319a6e369a96541e9e,Peru,Midwest,13 or older,no,2021-03-24_18h51.38.387,empathy_intonation_perc,2020.2.10,Win32,60,,,,,,,,,,0,puertorican,0,1,1.75745,0,14,14,45,1,46,./stim/wavs/andalusian_mismatch_declarative-narrow-focus_Mi-madre-come-la-fruta.wav,./stim/wavs/argentine_mismatch_declarative-narrow-focus_Mi-madre-come-la-fruta.wav,./stim/wavs/castilian_mismatch_declarative-narrow-focus_Mi-madre-come-la-fruta.wav,./stim/wavs/chilean_mismatch_declarative-narrow-focus_Mi-madre-come-la-fruta.wav,./stim/wavs/cuban_mismatch_declarative-narrow-focus_Mi-madre-come-la-fruta.wav,./stim/wavs/mexican_mismatch_declarative-narrow-focus_Mi-madre-come-la-fruta.wav,./stim/wavs/peruvian_mismatch_declarative-narrow-focus_Mi-madre-come-la-fruta.wav,./stim/wavs/puertorican_mismatch_declarative-narrow-focus_Mi-madre-come-la-fruta.wav,,,,,,,,,,,,,,,,,,,,,,,,,,,,,,,,,,,,,,,,,,,,,,,,,,,,,,,,
,,,,,,,5c049e9bad9a9700011b877b,605b45a4d25f287719a41696,605bc2319a6e369a96541e9e,Peru,Midwest,13 or older,no,2021-03-24_18h51.38.387,empathy_intonation_perc,2020.2.10,Win32,60,,,,,,,,,,1,castilian,1,1,1.68786,0,15,15,63,1,64,./stim/wavs/andalusian_mismatch_interrogative-total-yn_Mi-tia-odia-la-lluvia.wav,./stim/wavs/argentine_mismatch_interrogative-total-yn_Mi-tia-odia-la-lluvia.wav,./stim/wavs/castilian_mismatch_interrogative-total-yn_Mi-tia-odia-la-lluvia.wav,./stim/wavs/chilean_mismatch_interrogative-total-yn_Mi-tia-odia-la-lluvia.wav,./stim/wavs/cuban_mismatch_interrogative-total-yn_Mi-tia-odia-la-lluvia.wav,./stim/wavs/mexican_mismatch_interrogative-total-yn_Mi-tia-odia-la-lluvia.wav,./stim/wavs/peruvian_mismatch_interrogative-total-yn_Mi-tia-odia-la-lluvia.wav,./stim/wavs/puertorican_mismatch_interrogative-total-yn_Mi-tia-odia-la-lluvia.wav,,,,,,,,,,,,,,,,,,,,,,,,,,,,,,,,,,,,,,,,,,,,,,,,,,,,,,,,
,,,,,,,5c049e9bad9a9700011b877b,605b45a4d25f287719a41696,605bc2319a6e369a96541e9e,Peru,Midwest,13 or older,no,2021-03-24_18h51.38.387,empathy_intonation_perc,2020.2.10,Win32,60,,,,,,,,,,1,cuban,0,0,1.624935,0,16,16,31,1,32,./stim/wavs/andalusian_match_interrogative-total-yn_Marta-abre-el-regalo.wav,./stim/wavs/argentine_match_interrogative-total-yn_Marta-abre-el-regalo.wav,./stim/wavs/castilian_match_interrogative-total-yn_Marta-abre-el-regalo.wav,./stim/wavs/chilean_match_interrogative-total-yn_Marta-abre-el-regalo.wav,./stim/wavs/cuban_match_interrogative-total-yn_Marta-abre-el-regalo.wav,./stim/wavs/mexican_match_interrogative-total-yn_Marta-abre-el-regalo.wav,./stim/wavs/peruvian_match_interrogative-total-yn_Marta-abre-el-regalo.wav,./stim/wavs/puertorican_match_interrogative-total-yn_Marta-abre-el-regalo.wav,,,,,,,,,,,,,,,,,,,,,,,,,,,,,,,,,,,,,,,,,,,,,,,,,,,,,,,,
,,,,,,,5c049e9bad9a9700011b877b,605b45a4d25f287719a41696,605bc2319a6e369a96541e9e,Peru,Midwest,13 or older,no,2021-03-24_18h51.38.387,empathy_intonation_perc,2020.2.10,Win32,60,,,,,,,,,,1,chilean,1,1,1.77964,0,17,17,61,1,62,./stim/wavs/andalusian_mismatch_interrogative-total-yn_Mi-madre-come-la-fruta.wav,./stim/wavs/argentine_mismatch_interrogative-total-yn_Mi-madre-come-la-fruta.wav,./stim/wavs/castilian_mismatch_interrogative-total-yn_Mi-madre-come-la-fruta.wav,./stim/wavs/chilean_mismatch_interrogative-total-yn_Mi-madre-come-la-fruta.wav,./stim/wavs/cuban_mismatch_interrogative-total-yn_Mi-madre-come-la-fruta.wav,./stim/wavs/mexican_mismatch_interrogative-total-yn_Mi-madre-come-la-fruta.wav,./stim/wavs/peruvian_mismatch_interrogative-total-yn_Mi-madre-come-la-fruta.wav,./stim/wavs/puertorican_mismatch_interrogative-total-yn_Mi-madre-come-la-fruta.wav,,,,,,,,,,,,,,,,,,,,,,,,,,,,,,,,,,,,,,,,,,,,,,,,,,,,,,,,
,,,,,,,5c049e9bad9a9700011b877b,605b45a4d25f287719a41696,605bc2319a6e369a96541e9e,Peru,Midwest,13 or older,no,2021-03-24_18h51.38.387,empathy_intonation_perc,2020.2.10,Win32,60,,,,,,,,,,1,castilian,1,1,1.801195,0,18,18,59,1,60,./stim/wavs/andalusian_mismatch_interrogative-total-yn_La-maestra-vive-en-Paris.wav,./stim/wavs/argentine_mismatch_interrogative-total-yn_La-maestra-vive-en-Paris.wav,./stim/wavs/castilian_mismatch_interrogative-total-yn_La-maestra-vive-en-Paris.wav,./stim/wavs/chilean_mismatch_interrogative-total-yn_La-maestra-vive-en-Paris.wav,./stim/wavs/cuban_mismatch_interrogative-total-yn_La-maestra-vive-en-Paris.wav,./stim/wavs/mexican_mismatch_interrogative-total-yn_La-maestra-vive-en-Paris.wav,./stim/wavs/peruvian_mismatch_interrogative-total-yn_La-maestra-vive-en-Paris.wav,./stim/wavs/puertorican_mismatch_interrogative-total-yn_La-maestra-vive-en-Paris.wav,,,,,,,,,,,,,,,,,,,,,,,,,,,,,,,,,,,,,,,,,,,,,,,,,,,,,,,,
,,,,,,,5c049e9bad9a9700011b877b,605b45a4d25f287719a41696,605bc2319a6e369a96541e9e,Peru,Midwest,13 or older,no,2021-03-24_18h51.38.387,empathy_intonation_perc,2020.2.10,Win32,60,,,,,,,,,,1,chilean,1,1,1.541235,0,19,19,49,1,50,./stim/wavs/andalusian_mismatch_interrogative-partial-wh_Cuando-lavaba-el-plato.wav,./stim/wavs/argentine_mismatch_interrogative-partial-wh_Cuando-lavaba-el-plato.wav,./stim/wavs/castilian_mismatch_interrogative-partial-wh_Cuando-lavaba-el-plato.wav,./stim/wavs/chilean_mismatch_interrogative-partial-wh_Cuando-lavaba-el-plato.wav,./stim/wavs/cuban_mismatch_interrogative-partial-wh_Cuando-lavaba-el-plato.wav,./stim/wavs/mexican_mismatch_interrogative-partial-wh_Cuando-lavaba-el-plato.wav,./stim/wavs/peruvian_mismatch_interrogative-partial-wh_Cuando-lavaba-el-plato.wav,./stim/wavs/puertorican_mismatch_interrogative-partial-wh_Cuando-lavaba-el-plato.wav,,,,,,,,,,,,,,,,,,,,,,,,,,,,,,,,,,,,,,,,,,,,,,,,,,,,,,,,
,,,,,,,5c049e9bad9a9700011b877b,605b45a4d25f287719a41696,605bc2319a6e369a96541e9e,Peru,Midwest,13 or older,no,2021-03-24_18h51.38.387,empathy_intonation_perc,2020.2.10,Win32,60,,,,,,,,,,0,chilean,0,1,1.5724,0,20,20,41,1,42,./stim/wavs/andalusian_mismatch_declarative-narrow-focus_El-hombre-mira-la-luna.wav,./stim/wavs/argentine_mismatch_declarative-narrow-focus_El-hombre-mira-la-luna.wav,./stim/wavs/castilian_mismatch_declarative-narrow-focus_El-hombre-mira-la-luna.wav,./stim/wavs/chilean_mismatch_declarative-narrow-focus_El-hombre-mira-la-luna.wav,./stim/wavs/cuban_mismatch_declarative-narrow-focus_El-hombre-mira-la-luna.wav,./stim/wavs/mexican_mismatch_declarative-narrow-focus_El-hombre-mira-la-luna.wav,./stim/wavs/peruvian_mismatch_declarative-narrow-focus_El-hombre-mira-la-luna.wav,./stim/wavs/puertorican_mismatch_declarative-narrow-focus_El-hombre-mira-la-luna.wav,,,,,,,,,,,,,,,,,,,,,,,,,,,,,,,,,,,,,,,,,,,,,,,,,,,,,,,,
,,,,,,,5c049e9bad9a9700011b877b,605b45a4d25f287719a41696,605bc2319a6e369a96541e9e,Peru,Midwest,13 or older,no,2021-03-24_18h51.38.387,empathy_intonation_perc,2020.2.10,Win32,60,,,,,,,,,,1,argentine,1,1,1.724495,0,21,21,28,1,29,./stim/wavs/andalusian_match_interrogative-total-yn_Manuela-vende-el-carro.wav,./stim/wavs/argentine_match_interrogative-total-yn_Manuela-vende-el-carro.wav,./stim/wavs/castilian_match_interrogative-total-yn_Manuela-vende-el-carro.wav,./stim/wavs/chilean_match_interrogative-total-yn_Manuela-vende-el-carro.wav,./stim/wavs/cuban_match_interrogative-total-yn_Manuela-vende-el-carro.wav,./stim/wavs/mexican_match_interrogative-total-yn_Manuela-vende-el-carro.wav,./stim/wavs/peruvian_match_interrogative-total-yn_Manuela-vende-el-carro.wav,./stim/wavs/puertorican_match_interrogative-total-yn_Manuela-vende-el-carro.wav,,,,,,,,,,,,,,,,,,,,,,,,,,,,,,,,,,,,,,,,,,,,,,,,,,,,,,,,
,,,,,,,5c049e9bad9a9700011b877b,605b45a4d25f287719a41696,605bc2319a6e369a96541e9e,Peru,Midwest,13 or older,no,2021-03-24_18h51.38.387,empathy_intonation_perc,2020.2.10,Win32,60,,,,,,,,,,0,puertorican,0,1,1.767655,0,22,22,47,1,48,./stim/wavs/andalusian_mismatch_declarative-narrow-focus_Mi-tia-odia-la-lluvia.wav,./stim/wavs/argentine_mismatch_declarative-narrow-focus_Mi-tia-odia-la-lluvia.wav,./stim/wavs/castilian_mismatch_declarative-narrow-focus_Mi-tia-odia-la-lluvia.wav,./stim/wavs/chilean_mismatch_declarative-narrow-focus_Mi-tia-odia-la-lluvia.wav,./stim/wavs/cuban_mismatch_declarative-narrow-focus_Mi-tia-odia-la-lluvia.wav,./stim/wavs/mexican_mismatch_declarative-narrow-focus_Mi-tia-odia-la-lluvia.wav,./stim/wavs/peruvian_mismatch_declarative-narrow-focus_Mi-tia-odia-la-lluvia.wav,./stim/wavs/puertorican_mismatch_declarative-narrow-focus_Mi-tia-odia-la-lluvia.wav,,,,,,,,,,,,,,,,,,,,,,,,,,,,,,,,,,,,,,,,,,,,,,,,,,,,,,,,
,,,,,,,5c049e9bad9a9700011b877b,605b45a4d25f287719a41696,605bc2319a6e369a96541e9e,Peru,Midwest,13 or older,no,2021-03-24_18h51.38.387,empathy_intonation_perc,2020.2.10,Win32,60,,,,,,,,,,1,puertorican,1,1,1.333285,0,23,23,22,1,23,./stim/wavs/andalusian_match_interrogative-partial-wh_Por-que-hablaba-del-agua.wav,./stim/wavs/argentine_match_interrogative-partial-wh_Por-que-hablaba-del-agua.wav,./stim/wavs/castilian_match_interrogative-partial-wh_Por-que-hablaba-del-agua.wav,./stim/wavs/chilean_match_interrogative-partial-wh_Por-que-hablaba-del-agua.wav,./stim/wavs/cuban_match_interrogative-partial-wh_Por-que-hablaba-del-agua.wav,./stim/wavs/mexican_match_interrogative-partial-wh_Por-que-hablaba-del-agua.wav,./stim/wavs/peruvian_match_interrogative-partial-wh_Por-que-hablaba-del-agua.wav,./stim/wavs/puertorican_match_interrogative-partial-wh_Por-que-hablaba-del-agua.wav,,,,,,,,,,,,,,,,,,,,,,,,,,,,,,,,,,,,,,,,,,,,,,,,,,,,,,,,
,,,,,,,5c049e9bad9a9700011b877b,605b45a4d25f287719a41696,605bc2319a6e369a96541e9e,Peru,Midwest,13 or older,no,2021-03-24_18h51.38.387,empathy_intonation_perc,2020.2.10,Win32,60,,,,,,,,,,0,chilean,0,1,1.833315,0,24,24,32,1,33,./stim/wavs/andalusian_mismatch_declarative-broad-focus_El-bebe-comia-muy-bien.wav,./stim/wavs/argentine_mismatch_declarative-broad-focus_El-bebe-comia-muy-bien.wav,./stim/wavs/castilian_mismatch_declarative-broad-focus_El-bebe-comia-muy-bien.wav,./stim/wavs/chilean_mismatch_declarative-broad-focus_El-bebe-comia-muy-bien.wav,./stim/wavs/cuban_mismatch_declarative-broad-focus_El-bebe-comia-muy-bien.wav,./stim/wavs/mexican_mismatch_declarative-broad-focus_El-bebe-comia-muy-bien.wav,./stim/wavs/peruvian_mismatch_declarative-broad-focus_El-bebe-comia-muy-bien.wav,./stim/wavs/puertorican_mismatch_declarative-broad-focus_El-bebe-comia-muy-bien.wav,,,,,,,,,,,,,,,,,,,,,,,,,,,,,,,,,,,,,,,,,,,,,,,,,,,,,,,,
,,,,,,,5c049e9bad9a9700011b877b,605b45a4d25f287719a41696,605bc2319a6e369a96541e9e,Peru,Midwest,13 or older,no,2021-03-24_18h51.38.387,empathy_intonation_perc,2020.2.10,Win32,60,,,,,,,,,,0,chilean,0,1,1.564115,0,25,25,7,1,8,./stim/wavs/andalusian_match_declarative-broad-focus_Marta-abre-el-regalo.wav,./stim/wavs/argentine_match_declarative-broad-focus_Marta-abre-el-regalo.wav,./stim/wavs/castilian_match_declarative-broad-focus_Marta-abre-el-regalo.wav,./stim/wavs/chilean_match_declarative-broad-focus_Marta-abre-el-regalo.wav,./stim/wavs/cuban_match_declarative-broad-focus_Marta-abre-el-regalo.wav,./stim/wavs/mexican_match_declarative-broad-focus_Marta-abre-el-regalo.wav,./stim/wavs/peruvian_match_declarative-broad-focus_Marta-abre-el-regalo.wav,./stim/wavs/puertorican_match_declarative-broad-focus_Marta-abre-el-regalo.wav,,,,,,,,,,,,,,,,,,,,,,,,,,,,,,,,,,,,,,,,,,,,,,,,,,,,,,,,
,,,,,,,5c049e9bad9a9700011b877b,605b45a4d25f287719a41696,605bc2319a6e369a96541e9e,Peru,Midwest,13 or older,no,2021-03-24_18h51.38.387,empathy_intonation_perc,2020.2.10,Win32,60,,,,,,,,,,1,argentine,0,0,1.867325,0,26,26,25,1,26,./stim/wavs/andalusian_match_interrogative-total-yn_Daniel-iba-a-Bolivia.wav,./stim/wavs/argentine_match_interrogative-total-yn_Daniel-iba-a-Bolivia.wav,./stim/wavs/castilian_match_interrogative-total-yn_Daniel-iba-a-Bolivia.wav,./stim/wavs/chilean_match_interrogative-total-yn_Daniel-iba-a-Bolivia.wav,./stim/wavs/cuban_match_interrogative-total-yn_Daniel-iba-a-Bolivia.wav,./stim/wavs/mexican_match_interrogative-total-yn_Daniel-iba-a-Bolivia.wav,./stim/wavs/peruvian_match_interrogative-total-yn_Daniel-iba-a-Bolivia.wav,./stim/wavs/puertorican_match_interrogative-total-yn_Daniel-iba-a-Bolivia.wav,,,,,,,,,,,,,,,,,,,,,,,,,,,,,,,,,,,,,,,,,,,,,,,,,,,,,,,,
,,,,,,,5c049e9bad9a9700011b877b,605b45a4d25f287719a41696,605bc2319a6e369a96541e9e,Peru,Midwest,13 or older,no,2021-03-24_18h51.38.387,empathy_intonation_perc,2020.2.10,Win32,60,,,,,,,,,,1,andalusian,1,1,1.51049,0,27,27,20,1,21,./stim/wavs/andalusian_match_interrogative-partial-wh_Por-que-abre-el-regalo.wav,./stim/wavs/argentine_match_interrogative-partial-wh_Por-que-abre-el-regalo.wav,./stim/wavs/castilian_match_interrogative-partial-wh_Por-que-abre-el-regalo.wav,./stim/wavs/chilean_match_interrogative-partial-wh_Por-que-abre-el-regalo.wav,./stim/wavs/cuban_match_interrogative-partial-wh_Por-que-abre-el-regalo.wav,./stim/wavs/mexican_match_interrogative-partial-wh_Por-que-abre-el-regalo.wav,./stim/wavs/peruvian_match_interrogative-partial-wh_Por-que-abre-el-regalo.wav,./stim/wavs/puertorican_match_interrogative-partial-wh_Por-que-abre-el-regalo.wav,,,,,,,,,,,,,,,,,,,,,,,,,,,,,,,,,,,,,,,,,,,,,,,,,,,,,,,,
,,,,,,,5c049e9bad9a9700011b877b,605b45a4d25f287719a41696,605bc2319a6e369a96541e9e,Peru,Midwest,13 or older,no,2021-03-24_18h51.38.387,empathy_intonation_perc,2020.2.10,Win32,60,,,,,,,,,,1,andalusian,1,1,1.544085,0,28,28,21,1,22,./stim/wavs/andalusian_match_interrogative-partial-wh_Por-que-ama-la-navidad.wav,./stim/wavs/argentine_match_interrogative-partial-wh_Por-que-ama-la-navidad.wav,./stim/wavs/castilian_match_interrogative-partial-wh_Por-que-ama-la-navidad.wav,./stim/wavs/chilean_match_interrogative-partial-wh_Por-que-ama-la-navidad.wav,./stim/wavs/cuban_match_interrogative-partial-wh_Por-que-ama-la-navidad.wav,./stim/wavs/mexican_match_interrogative-partial-wh_Por-que-ama-la-navidad.wav,./stim/wavs/peruvian_match_interrogative-partial-wh_Por-que-ama-la-navidad.wav,./stim/wavs/puertorican_match_interrogative-partial-wh_Por-que-ama-la-navidad.wav,,,,,,,,,,,,,,,,,,,,,,,,,,,,,,,,,,,,,,,,,,,,,,,,,,,,,,,,
,,,,,,,5c049e9bad9a9700011b877b,605b45a4d25f287719a41696,605bc2319a6e369a96541e9e,Peru,Midwest,13 or older,no,2021-03-24_18h51.38.387,empathy_intonation_perc,2020.2.10,Win32,60,,,,,,,,,,1,mexican,1,1,1.739645,0,29,29,56,1,57,./stim/wavs/andalusian_mismatch_interrogative-total-yn_El-bebe-comia-muy-bien.wav,./stim/wavs/argentine_mismatch_interrogative-total-yn_El-bebe-comia-muy-bien.wav,./stim/wavs/castilian_mismatch_interrogative-total-yn_El-bebe-comia-muy-bien.wav,./stim/wavs/chilean_mismatch_interrogative-total-yn_El-bebe-comia-muy-bien.wav,./stim/wavs/cuban_mismatch_interrogative-total-yn_El-bebe-comia-muy-bien.wav,./stim/wavs/mexican_mismatch_interrogative-total-yn_El-bebe-comia-muy-bien.wav,./stim/wavs/peruvian_mismatch_interrogative-total-yn_El-bebe-comia-muy-bien.wav,./stim/wavs/puertorican_mismatch_interrogative-total-yn_El-bebe-comia-muy-bien.wav,,,,,,,,,,,,,,,,,,,,,,,,,,,,,,,,,,,,,,,,,,,,,,,,,,,,,,,,
,,,,,,,5c049e9bad9a9700011b877b,605b45a4d25f287719a41696,605bc2319a6e369a96541e9e,Peru,Midwest,13 or older,no,2021-03-24_18h51.38.387,empathy_intonation_perc,2020.2.10,Win32,60,,,,,,,,,,0,argentine,0,1,1.88751,0,30,30,38,1,39,./stim/wavs/andalusian_mismatch_declarative-broad-focus_Mi-novio-viene-del-lago.wav,./stim/wavs/argentine_mismatch_declarative-broad-focus_Mi-novio-viene-del-lago.wav,./stim/wavs/castilian_mismatch_declarative-broad-focus_Mi-novio-viene-del-lago.wav,./stim/wavs/chilean_mismatch_declarative-broad-focus_Mi-novio-viene-del-lago.wav,./stim/wavs/cuban_mismatch_declarative-broad-focus_Mi-novio-viene-del-lago.wav,./stim/wavs/mexican_mismatch_declarative-broad-focus_Mi-novio-viene-del-lago.wav,./stim/wavs/peruvian_mismatch_declarative-broad-focus_Mi-novio-viene-del-lago.wav,./stim/wavs/puertorican_mismatch_declarative-broad-focus_Mi-novio-viene-del-lago.wav,,,,,,,,,,,,,,,,,,,,,,,,,,,,,,,,,,,,,,,,,,,,,,,,,,,,,,,,
,,,,,,,5c049e9bad9a9700011b877b,605b45a4d25f287719a41696,605bc2319a6e369a96541e9e,Peru,Midwest,13 or older,no,2021-03-24_18h51.38.387,empathy_intonation_perc,2020.2.10,Win32,60,,,,,,,,,,0,andalusian,0,1,1.742115,0,31,31,10,1,11,./stim/wavs/andalusian_match_declarative-narrow-focus_David-leia-el-libro.wav,./stim/wavs/argentine_match_declarative-narrow-focus_David-leia-el-libro.wav,./stim/wavs/castilian_match_declarative-narrow-focus_David-leia-el-libro.wav,./stim/wavs/chilean_match_declarative-narrow-focus_David-leia-el-libro.wav,./stim/wavs/cuban_match_declarative-narrow-focus_David-leia-el-libro.wav,./stim/wavs/mexican_match_declarative-narrow-focus_David-leia-el-libro.wav,./stim/wavs/peruvian_match_declarative-narrow-focus_David-leia-el-libro.wav,./stim/wavs/puertorican_match_declarative-narrow-focus_David-leia-el-libro.wav,,,,,,,,,,,,,,,,,,,,,,,,,,,,,,,,,,,,,,,,,,,,,,,,,,,,,,,,
,,,,,,,5c049e9bad9a9700011b877b,605b45a4d25f287719a41696,605bc2319a6e369a96541e9e,Peru,Midwest,13 or older,no,2021-03-24_18h51.38.387,empathy_intonation_perc,2020.2.10,Win32,60,,,,,,,,,,0,mexican,0,1,1.55015,0,32,32,42,1,43,./stim/wavs/andalusian_mismatch_declarative-narrow-focus_El-nino-oye-el-rio.wav,./stim/wavs/argentine_mismatch_declarative-narrow-focus_El-nino-oye-el-rio.wav,./stim/wavs/castilian_mismatch_declarative-narrow-focus_El-nino-oye-el-rio.wav,./stim/wavs/chilean_mismatch_declarative-narrow-focus_El-nino-oye-el-rio.wav,./stim/wavs/cuban_mismatch_declarative-narrow-focus_El-nino-oye-el-rio.wav,./stim/wavs/mexican_mismatch_declarative-narrow-focus_El-nino-oye-el-rio.wav,./stim/wavs/peruvian_mismatch_declarative-narrow-focus_El-nino-oye-el-rio.wav,./stim/wavs/puertorican_mismatch_declarative-narrow-focus_El-nino-oye-el-rio.wav,,,,,,,,,,,,,,,,,,,,,,,,,,,,,,,,,,,,,,,,,,,,,,,,,,,,,,,,
,,,,,,,5c049e9bad9a9700011b877b,605b45a4d25f287719a41696,605bc2319a6e369a96541e9e,Peru,Midwest,13 or older,no,2021-03-24_18h51.38.387,empathy_intonation_perc,2020.2.10,Win32,60,,,,,,,,,,1,castilian,1,1,1.600915,0,33,33,17,1,18,./stim/wavs/andalusian_match_interrogative-partial-wh_Cuando-leia-el-libro.wav,./stim/wavs/argentine_match_interrogative-partial-wh_Cuando-leia-el-libro.wav,./stim/wavs/castilian_match_interrogative-partial-wh_Cuando-leia-el-libro.wav,./stim/wavs/chilean_match_interrogative-partial-wh_Cuando-leia-el-libro.wav,./stim/wavs/cuban_match_interrogative-partial-wh_Cuando-leia-el-libro.wav,./stim/wavs/mexican_match_interrogative-partial-wh_Cuando-leia-el-libro.wav,./stim/wavs/peruvian_match_interrogative-partial-wh_Cuando-leia-el-libro.wav,./stim/wavs/puertorican_match_interrogative-partial-wh_Cuando-leia-el-libro.wav,,,,,,,,,,,,,,,,,,,,,,,,,,,,,,,,,,,,,,,,,,,,,,,,,,,,,,,,
,,,,,,,5c049e9bad9a9700011b877b,605b45a4d25f287719a41696,605bc2319a6e369a96541e9e,Peru,Midwest,13 or older,no,2021-03-24_18h51.38.387,empathy_intonation_perc,2020.2.10,Win32,60,,,,,,,,,,0,cuban,0,1,1.53925,0,34,34,11,1,12,./stim/wavs/andalusian_match_declarative-narrow-focus_Emilio-ama-la-marcha.wav,./stim/wavs/argentine_match_declarative-narrow-focus_Emilio-ama-la-marcha.wav,./stim/wavs/castilian_match_declarative-narrow-focus_Emilio-ama-la-marcha.wav,./stim/wavs/chilean_match_declarative-narrow-focus_Emilio-ama-la-marcha.wav,./stim/wavs/cuban_match_declarative-narrow-focus_Emilio-ama-la-marcha.wav,./stim/wavs/mexican_match_declarative-narrow-focus_Emilio-ama-la-marcha.wav,./stim/wavs/peruvian_match_declarative-narrow-focus_Emilio-ama-la-marcha.wav,./stim/wavs/puertorican_match_declarative-narrow-focus_Emilio-ama-la-marcha.wav,,,,,,,,,,,,,,,,,,,,,,,,,,,,,,,,,,,,,,,,,,,,,,,,,,,,,,,,
,,,,,,,5c049e9bad9a9700011b877b,605b45a4d25f287719a41696,605bc2319a6e369a96541e9e,Peru,Midwest,13 or older,no,2021-03-24_18h51.38.387,empathy_intonation_perc,2020.2.10,Win32,60,,,,,,,,,,0,puertorican,0,1,1.72548,0,35,35,3,1,4,./stim/wavs/andalusian_match_declarative-broad-focus_Emilio-ama-la-marcha.wav,./stim/wavs/argentine_match_declarative-broad-focus_Emilio-ama-la-marcha.wav,./stim/wavs/castilian_match_declarative-broad-focus_Emilio-ama-la-marcha.wav,./stim/wavs/chilean_match_declarative-broad-focus_Emilio-ama-la-marcha.wav,./stim/wavs/cuban_match_declarative-broad-focus_Emilio-ama-la-marcha.wav,./stim/wavs/mexican_match_declarative-broad-focus_Emilio-ama-la-marcha.wav,./stim/wavs/peruvian_match_declarative-broad-focus_Emilio-ama-la-marcha.wav,./stim/wavs/puertorican_match_declarative-broad-focus_Emilio-ama-la-marcha.wav,,,,,,,,,,,,,,,,,,,,,,,,,,,,,,,,,,,,,,,,,,,,,,,,,,,,,,,,
,,,,,,,5c049e9bad9a9700011b877b,605b45a4d25f287719a41696,605bc2319a6e369a96541e9e,Peru,Midwest,13 or older,no,2021-03-24_18h51.38.387,empathy_intonation_perc,2020.2.10,Win32,60,,,,,,,,,,1,peruvian,1,1,1.70806,0,36,36,52,1,53,./stim/wavs/andalusian_mismatch_interrogative-partial-wh_Por-que-odiaba-la-lluvia.wav,./stim/wavs/argentine_mismatch_interrogative-partial-wh_Por-que-odiaba-la-lluvia.wav,./stim/wavs/castilian_mismatch_interrogative-partial-wh_Por-que-odiaba-la-lluvia.wav,./stim/wavs/chilean_mismatch_interrogative-partial-wh_Por-que-odiaba-la-lluvia.wav,./stim/wavs/cuban_mismatch_interrogative-partial-wh_Por-que-odiaba-la-lluvia.wav,./stim/wavs/mexican_mismatch_interrogative-partial-wh_Por-que-odiaba-la-lluvia.wav,./stim/wavs/peruvian_mismatch_interrogative-partial-wh_Por-que-odiaba-la-lluvia.wav,./stim/wavs/puertorican_mismatch_interrogative-partial-wh_Por-que-odiaba-la-lluvia.wav,,,,,,,,,,,,,,,,,,,,,,,,,,,,,,,,,,,,,,,,,,,,,,,,,,,,,,,,
,,,,,,,5c049e9bad9a9700011b877b,605b45a4d25f287719a41696,605bc2319a6e369a96541e9e,Peru,Midwest,13 or older,no,2021-03-24_18h51.38.387,empathy_intonation_perc,2020.2.10,Win32,60,,,,,,,,,,1,argentine,0,0,1.41992,0,37,37,58,1,59,./stim/wavs/andalusian_mismatch_interrogative-total-yn_El-nino-oye-el-rio.wav,./stim/wavs/argentine_mismatch_interrogative-total-yn_El-nino-oye-el-rio.wav,./stim/wavs/castilian_mismatch_interrogative-total-yn_El-nino-oye-el-rio.wav,./stim/wavs/chilean_mismatch_interrogative-total-yn_El-nino-oye-el-rio.wav,./stim/wavs/cuban_mismatch_interrogative-total-yn_El-nino-oye-el-rio.wav,./stim/wavs/mexican_mismatch_interrogative-total-yn_El-nino-oye-el-rio.wav,./stim/wavs/peruvian_mismatch_interrogative-total-yn_El-nino-oye-el-rio.wav,./stim/wavs/puertorican_mismatch_interrogative-total-yn_El-nino-oye-el-rio.wav,,,,,,,,,,,,,,,,,,,,,,,,,,,,,,,,,,,,,,,,,,,,,,,,,,,,,,,,
,,,,,,,5c049e9bad9a9700011b877b,605b45a4d25f287719a41696,605bc2319a6e369a96541e9e,Peru,Midwest,13 or older,no,2021-03-24_18h51.38.387,empathy_intonation_perc,2020.2.10,Win32,60,,,,,,,,,,0,argentine,0,1,1.61247,0,38,38,0,1,1,./stim/wavs/andalusian_match_declarative-broad-focus_Ana-lleva-el-abrigo.wav,./stim/wavs/argentine_match_declarative-broad-focus_Ana-lleva-el-abrigo.wav,./stim/wavs/castilian_match_declarative-broad-focus_Ana-lleva-el-abrigo.wav,./stim/wavs/chilean_match_declarative-broad-focus_Ana-lleva-el-abrigo.wav,./stim/wavs/cuban_match_declarative-broad-focus_Ana-lleva-el-abrigo.wav,./stim/wavs/mexican_match_declarative-broad-focus_Ana-lleva-el-abrigo.wav,./stim/wavs/peruvian_match_declarative-broad-focus_Ana-lleva-el-abrigo.wav,./stim/wavs/puertorican_match_declarative-broad-focus_Ana-lleva-el-abrigo.wav,,,,,,,,,,,,,,,,,,,,,,,,,,,,,,,,,,,,,,,,,,,,,,,,,,,,,,,,
,,,,,,,5c049e9bad9a9700011b877b,605b45a4d25f287719a41696,605bc2319a6e369a96541e9e,Peru,Midwest,13 or older,no,2021-03-24_18h51.38.387,empathy_intonation_perc,2020.2.10,Win32,60,,,,,,,,,,0,argentine,0,1,1.33281,0,39,39,13,1,14,./stim/wavs/andalusian_match_declarative-narrow-focus_Maria-bebe-el-vino.wav,./stim/wavs/argentine_match_declarative-narrow-focus_Maria-bebe-el-vino.wav,./stim/wavs/castilian_match_declarative-narrow-focus_Maria-bebe-el-vino.wav,./stim/wavs/chilean_match_declarative-narrow-focus_Maria-bebe-el-vino.wav,./stim/wavs/cuban_match_declarative-narrow-focus_Maria-bebe-el-vino.wav,./stim/wavs/mexican_match_declarative-narrow-focus_Maria-bebe-el-vino.wav,./stim/wavs/peruvian_match_declarative-narrow-focus_Maria-bebe-el-vino.wav,./stim/wavs/puertorican_match_declarative-narrow-focus_Maria-bebe-el-vino.wav,,,,,,,,,,,,,,,,,,,,,,,,,,,,,,,,,,,,,,,,,,,,,,,,,,,,,,,,
,,,,,,,5c049e9bad9a9700011b877b,605b45a4d25f287719a41696,605bc2319a6e369a96541e9e,Peru,Midwest,13 or older,no,2021-03-24_18h51.38.387,empathy_intonation_perc,2020.2.10,Win32,60,,,,,,,,,,1,peruvian,1,1,1.535615,0,40,40,24,1,25,./stim/wavs/andalusian_match_interrogative-total-yn_Ana-lleva-el-abrigo.wav,./stim/wavs/argentine_match_interrogative-total-yn_Ana-lleva-el-abrigo.wav,./stim/wavs/castilian_match_interrogative-total-yn_Ana-lleva-el-abrigo.wav,./stim/wavs/chilean_match_interrogative-total-yn_Ana-lleva-el-abrigo.wav,./stim/wavs/cuban_match_interrogative-total-yn_Ana-lleva-el-abrigo.wav,./stim/wavs/mexican_match_interrogative-total-yn_Ana-lleva-el-abrigo.wav,./stim/wavs/peruvian_match_interrogative-total-yn_Ana-lleva-el-abrigo.wav,./stim/wavs/puertorican_match_interrogative-total-yn_Ana-lleva-el-abrigo.wav,,,,,,,,,,,,,,,,,,,,,,,,,,,,,,,,,,,,,,,,,,,,,,,,,,,,,,,,
,,,,,,,5c049e9bad9a9700011b877b,605b45a4d25f287719a41696,605bc2319a6e369a96541e9e,Peru,Midwest,13 or older,no,2021-03-24_18h51.38.387,empathy_intonation_perc,2020.2.10,Win32,60,,,,,,,,,,1,castilian,1,1,1.63551,0,41,41,30,1,31,./stim/wavs/andalusian_match_interrogative-total-yn_Mariano-habla-del-tiempo.wav,./stim/wavs/argentine_match_interrogative-total-yn_Mariano-habla-del-tiempo.wav,./stim/wavs/castilian_match_interrogative-total-yn_Mariano-habla-del-tiempo.wav,./stim/wavs/chilean_match_interrogative-total-yn_Mariano-habla-del-tiempo.wav,./stim/wavs/cuban_match_interrogative-total-yn_Mariano-habla-del-tiempo.wav,./stim/wavs/mexican_match_interrogative-total-yn_Mariano-habla-del-tiempo.wav,./stim/wavs/peruvian_match_interrogative-total-yn_Mariano-habla-del-tiempo.wav,./stim/wavs/puertorican_match_interrogative-total-yn_Mariano-habla-del-tiempo.wav,,,,,,,,,,,,,,,,,,,,,,,,,,,,,,,,,,,,,,,,,,,,,,,,,,,,,,,,
,,,,,,,5c049e9bad9a9700011b877b,605b45a4d25f287719a41696,605bc2319a6e369a96541e9e,Peru,Midwest,13 or older,no,2021-03-24_18h51.38.387,empathy_intonation_perc,2020.2.10,Win32,60,,,,,,,,,,0,mexican,0,1,1.86262,0,42,42,35,1,36,./stim/wavs/andalusian_mismatch_declarative-broad-focus_La-maestra-vive-en-Paris.wav,./stim/wavs/argentine_mismatch_declarative-broad-focus_La-maestra-vive-en-Paris.wav,./stim/wavs/castilian_mismatch_declarative-broad-focus_La-maestra-vive-en-Paris.wav,./stim/wavs/chilean_mismatch_declarative-broad-focus_La-maestra-vive-en-Paris.wav,./stim/wavs/cuban_mismatch_declarative-broad-focus_La-maestra-vive-en-Paris.wav,./stim/wavs/mexican_mismatch_declarative-broad-focus_La-maestra-vive-en-Paris.wav,./stim/wavs/peruvian_mismatch_declarative-broad-focus_La-maestra-vive-en-Paris.wav,./stim/wavs/puertorican_mismatch_declarative-broad-focus_La-maestra-vive-en-Paris.wav,,,,,,,,,,,,,,,,,,,,,,,,,,,,,,,,,,,,,,,,,,,,,,,,,,,,,,,,
,,,,,,,5c049e9bad9a9700011b877b,605b45a4d25f287719a41696,605bc2319a6e369a96541e9e,Peru,Midwest,13 or older,no,2021-03-24_18h51.38.387,empathy_intonation_perc,2020.2.10,Win32,60,,,,,,,,,,1,castilian,1,1,1.541105,0,43,43,29,1,30,./stim/wavs/andalusian_match_interrogative-total-yn_Maria-bebe-el-vino.wav,./stim/wavs/argentine_match_interrogative-total-yn_Maria-bebe-el-vino.wav,./stim/wavs/castilian_match_interrogative-total-yn_Maria-bebe-el-vino.wav,./stim/wavs/chilean_match_interrogative-total-yn_Maria-bebe-el-vino.wav,./stim/wavs/cuban_match_interrogative-total-yn_Maria-bebe-el-vino.wav,./stim/wavs/mexican_match_interrogative-total-yn_Maria-bebe-el-vino.wav,./stim/wavs/peruvian_match_interrogative-total-yn_Maria-bebe-el-vino.wav,./stim/wavs/puertorican_match_interrogative-total-yn_Maria-bebe-el-vino.wav,,,,,,,,,,,,,,,,,,,,,,,,,,,,,,,,,,,,,,,,,,,,,,,,,,,,,,,,
,,,,,,,5c049e9bad9a9700011b877b,605b45a4d25f287719a41696,605bc2319a6e369a96541e9e,Peru,Midwest,13 or older,no,2021-03-24_18h51.38.387,empathy_intonation_perc,2020.2.10,Win32,60,,,,,,,,,,0,andalusian,0,1,1.55588,0,44,44,12,1,13,./stim/wavs/andalusian_match_declarative-narrow-focus_Manuela-vende-el-carro.wav,./stim/wavs/argentine_match_declarative-narrow-focus_Manuela-vende-el-carro.wav,./stim/wavs/castilian_match_declarative-narrow-focus_Manuela-vende-el-carro.wav,./stim/wavs/chilean_match_declarative-narrow-focus_Manuela-vende-el-carro.wav,./stim/wavs/cuban_match_declarative-narrow-focus_Manuela-vende-el-carro.wav,./stim/wavs/mexican_match_declarative-narrow-focus_Manuela-vende-el-carro.wav,./stim/wavs/peruvian_match_declarative-narrow-focus_Manuela-vende-el-carro.wav,./stim/wavs/puertorican_match_declarative-narrow-focus_Manuela-vende-el-carro.wav,,,,,,,,,,,,,,,,,,,,,,,,,,,,,,,,,,,,,,,,,,,,,,,,,,,,,,,,
,,,,,,,5c049e9bad9a9700011b877b,605b45a4d25f287719a41696,605bc2319a6e369a96541e9e,Peru,Midwest,13 or older,no,2021-03-24_18h51.38.387,empathy_intonation_perc,2020.2.10,Win32,60,,,,,,,,,,0,chilean,0,1,1.58507,0,45,45,1,1,2,./stim/wavs/andalusian_match_declarative-broad-focus_Daniel-iba-a-Bolivia.wav,./stim/wavs/argentine_match_declarative-broad-focus_Daniel-iba-a-Bolivia.wav,./stim/wavs/castilian_match_declarative-broad-focus_Daniel-iba-a-Bolivia.wav,./stim/wavs/chilean_match_declarative-broad-focus_Daniel-iba-a-Bolivia.wav,./stim/wavs/cuban_match_declarative-broad-focus_Daniel-iba-a-Bolivia.wav,./stim/wavs/mexican_match_declarative-broad-focus_Daniel-iba-a-Bolivia.wav,./stim/wavs/peruvian_match_declarative-broad-focus_Daniel-iba-a-Bolivia.wav,./stim/wavs/puertorican_match_declarative-broad-focus_Daniel-iba-a-Bolivia.wav,,,,,,,,,,,,,,,,,,,,,,,,,,,,,,,,,,,,,,,,,,,,,,,,,,,,,,,,
,,,,,,,5c049e9bad9a9700011b877b,605b45a4d25f287719a41696,605bc2319a6e369a96541e9e,Peru,Midwest,13 or older,no,2021-03-24_18h51.38.387,empathy_intonation_perc,2020.2.10,Win32,60,,,,,,,,,,0,cuban,0,1,1.389565,0,46,46,44,1,45,./stim/wavs/andalusian_mismatch_declarative-narrow-focus_La-nina-lava-el-plato.wav,./stim/wavs/argentine_mismatch_declarative-narrow-focus_La-nina-lava-el-plato.wav,./stim/wavs/castilian_mismatch_declarative-narrow-focus_La-nina-lava-el-plato.wav,./stim/wavs/chilean_mismatch_declarative-narrow-focus_La-nina-lava-el-plato.wav,./stim/wavs/cuban_mismatch_declarative-narrow-focus_La-nina-lava-el-plato.wav,./stim/wavs/mexican_mismatch_declarative-narrow-focus_La-nina-lava-el-plato.wav,./stim/wavs/peruvian_mismatch_declarative-narrow-focus_La-nina-lava-el-plato.wav,./stim/wavs/puertorican_mismatch_declarative-narrow-focus_La-nina-lava-el-plato.wav,,,,,,,,,,,,,,,,,,,,,,,,,,,,,,,,,,,,,,,,,,,,,,,,,,,,,,,,
,,,,,,,5c049e9bad9a9700011b877b,605b45a4d25f287719a41696,605bc2319a6e369a96541e9e,Peru,Midwest,13 or older,no,2021-03-24_18h51.38.387,empathy_intonation_perc,2020.2.10,Win32,60,,,,,,,,,,1,castilian,1,1,1.55039,0,47,47,27,1,28,./stim/wavs/andalusian_match_interrogative-total-yn_Emilio-ama-la-marcha.wav,./stim/wavs/argentine_match_interrogative-total-yn_Emilio-ama-la-marcha.wav,./stim/wavs/castilian_match_interrogative-total-yn_Emilio-ama-la-marcha.wav,./stim/wavs/chilean_match_interrogative-total-yn_Emilio-ama-la-marcha.wav,./stim/wavs/cuban_match_interrogative-total-yn_Emilio-ama-la-marcha.wav,./stim/wavs/mexican_match_interrogative-total-yn_Emilio-ama-la-marcha.wav,./stim/wavs/peruvian_match_interrogative-total-yn_Emilio-ama-la-marcha.wav,./stim/wavs/puertorican_match_interrogative-total-yn_Emilio-ama-la-marcha.wav,,,,,,,,,,,,,,,,,,,,,,,,,,,,,,,,,,,,,,,,,,,,,,,,,,,,,,,,
,,,,,,,5c049e9bad9a9700011b877b,605b45a4d25f287719a41696,605bc2319a6e369a96541e9e,Peru,Midwest,13 or older,no,2021-03-24_18h51.38.387,empathy_intonation_perc,2020.2.10,Win32,60,,,,,,,,,,0,castilian,0,1,1.689245,0,48,48,46,1,47,./stim/wavs/andalusian_mismatch_declarative-narrow-focus_Mi-novio-viene-del-lago.wav,./stim/wavs/argentine_mismatch_declarative-narrow-focus_Mi-novio-viene-del-lago.wav,./stim/wavs/castilian_mismatch_declarative-narrow-focus_Mi-novio-viene-del-lago.wav,./stim/wavs/chilean_mismatch_declarative-narrow-focus_Mi-novio-viene-del-lago.wav,./stim/wavs/cuban_mismatch_declarative-narrow-focus_Mi-novio-viene-del-lago.wav,./stim/wavs/mexican_mismatch_declarative-narrow-focus_Mi-novio-viene-del-lago.wav,./stim/wavs/peruvian_mismatch_declarative-narrow-focus_Mi-novio-viene-del-lago.wav,./stim/wavs/puertorican_mismatch_declarative-narrow-focus_Mi-novio-viene-del-lago.wav,,,,,,,,,,,,,,,,,,,,,,,,,,,,,,,,,,,,,,,,,,,,,,,,,,,,,,,,
,,,,,,,5c049e9bad9a9700011b877b,605b45a4d25f287719a41696,605bc2319a6e369a96541e9e,Peru,Midwest,13 or older,no,2021-03-24_18h51.38.387,empathy_intonation_perc,2020.2.10,Win32,60,,,,,,,,,,1,mexican,1,1,1.28388,0,49,49,53,1,54,./stim/wavs/andalusian_mismatch_interrogative-partial-wh_Por-que-oia-el-rio.wav,./stim/wavs/argentine_mismatch_interrogative-partial-wh_Por-que-oia-el-rio.wav,./stim/wavs/castilian_mismatch_interrogative-partial-wh_Por-que-oia-el-rio.wav,./stim/wavs/chilean_mismatch_interrogative-partial-wh_Por-que-oia-el-rio.wav,./stim/wavs/cuban_mismatch_interrogative-partial-wh_Por-que-oia-el-rio.wav,./stim/wavs/mexican_mismatch_interrogative-partial-wh_Por-que-oia-el-rio.wav,./stim/wavs/peruvian_mismatch_interrogative-partial-wh_Por-que-oia-el-rio.wav,./stim/wavs/puertorican_mismatch_interrogative-partial-wh_Por-que-oia-el-rio.wav,,,,,,,,,,,,,,,,,,,,,,,,,,,,,,,,,,,,,,,,,,,,,,,,,,,,,,,,
,,,,,,,5c049e9bad9a9700011b877b,605b45a4d25f287719a41696,605bc2319a6e369a96541e9e,Peru,Midwest,13 or older,no,2021-03-24_18h51.38.387,empathy_intonation_perc,2020.2.10,Win32,60,,,,,,,,,,1,mexican,1,1,1.351685,0,50,50,18,1,19,./stim/wavs/andalusian_match_interrogative-partial-wh_Cuando-lleva-el-abrigo.wav,./stim/wavs/argentine_match_interrogative-partial-wh_Cuando-lleva-el-abrigo.wav,./stim/wavs/castilian_match_interrogative-partial-wh_Cuando-lleva-el-abrigo.wav,./stim/wavs/chilean_match_interrogative-partial-wh_Cuando-lleva-el-abrigo.wav,./stim/wavs/cuban_match_interrogative-partial-wh_Cuando-lleva-el-abrigo.wav,./stim/wavs/mexican_match_interrogative-partial-wh_Cuando-lleva-el-abrigo.wav,./stim/wavs/peruvian_match_interrogative-partial-wh_Cuando-lleva-el-abrigo.wav,./stim/wavs/puertorican_match_interrogative-partial-wh_Cuando-lleva-el-abrigo.wav,,,,,,,,,,,,,,,,,,,,,,,,,,,,,,,,,,,,,,,,,,,,,,,,,,,,,,,,
,,,,,,,5c049e9bad9a9700011b877b,605b45a4d25f287719a41696,605bc2319a6e369a96541e9e,Peru,Midwest,13 or older,no,2021-03-24_18h51.38.387,empathy_intonation_perc,2020.2.10,Win32,60,,,,,,,,,,1,chilean,1,1,1.48425,0,51,51,48,1,49,./stim/wavs/andalusian_mismatch_interrogative-partial-wh_Cuando-comia-la-fruta.wav,./stim/wavs/argentine_mismatch_interrogative-partial-wh_Cuando-comia-la-fruta.wav,./stim/wavs/castilian_mismatch_interrogative-partial-wh_Cuando-comia-la-fruta.wav,./stim/wavs/chilean_mismatch_interrogative-partial-wh_Cuando-comia-la-fruta.wav,./stim/wavs/cuban_mismatch_interrogative-partial-wh_Cuando-comia-la-fruta.wav,./stim/wavs/mexican_mismatch_interrogative-partial-wh_Cuando-comia-la-fruta.wav,./stim/wavs/peruvian_mismatch_interrogative-partial-wh_Cuando-comia-la-fruta.wav,./stim/wavs/puertorican_mismatch_interrogative-partial-wh_Cuando-comia-la-fruta.wav,,,,,,,,,,,,,,,,,,,,,,,,,,,,,,,,,,,,,,,,,,,,,,,,,,,,,,,,
,,,,,,,5c049e9bad9a9700011b877b,605b45a4d25f287719a41696,605bc2319a6e369a96541e9e,Peru,Midwest,13 or older,no,2021-03-24_18h51.38.387,empathy_intonation_perc,2020.2.10,Win32,60,,,,,,,,,,0,peruvian,0,1,1.90714,0,52,52,43,1,44,./stim/wavs/andalusian_mismatch_declarative-narrow-focus_La-maestra-vive-en-Paris.wav,./stim/wavs/argentine_mismatch_declarative-narrow-focus_La-maestra-vive-en-Paris.wav,./stim/wavs/castilian_mismatch_declarative-narrow-focus_La-maestra-vive-en-Paris.wav,./stim/wavs/chilean_mismatch_declarative-narrow-focus_La-maestra-vive-en-Paris.wav,./stim/wavs/cuban_mismatch_declarative-narrow-focus_La-maestra-vive-en-Paris.wav,./stim/wavs/mexican_mismatch_declarative-narrow-focus_La-maestra-vive-en-Paris.wav,./stim/wavs/peruvian_mismatch_declarative-narrow-focus_La-maestra-vive-en-Paris.wav,./stim/wavs/puertorican_mismatch_declarative-narrow-focus_La-maestra-vive-en-Paris.wav,,,,,,,,,,,,,,,,,,,,,,,,,,,,,,,,,,,,,,,,,,,,,,,,,,,,,,,,
,,,,,,,5c049e9bad9a9700011b877b,605b45a4d25f287719a41696,605bc2319a6e369a96541e9e,Peru,Midwest,13 or older,no,2021-03-24_18h51.38.387,empathy_intonation_perc,2020.2.10,Win32,60,,,,,,,,,,1,puertorican,0,0,1.471405,0,53,53,26,1,27,./stim/wavs/andalusian_match_interrogative-total-yn_David-leia-el-libro.wav,./stim/wavs/argentine_match_interrogative-total-yn_David-leia-el-libro.wav,./stim/wavs/castilian_match_interrogative-total-yn_David-leia-el-libro.wav,./stim/wavs/chilean_match_interrogative-total-yn_David-leia-el-libro.wav,./stim/wavs/cuban_match_interrogative-total-yn_David-leia-el-libro.wav,./stim/wavs/mexican_match_interrogative-total-yn_David-leia-el-libro.wav,./stim/wavs/peruvian_match_interrogative-total-yn_David-leia-el-libro.wav,./stim/wavs/puertorican_match_interrogative-total-yn_David-leia-el-libro.wav,,,,,,,,,,,,,,,,,,,,,,,,,,,,,,,,,,,,,,,,,,,,,,,,,,,,,,,,
,,,,,,,5c049e9bad9a9700011b877b,605b45a4d25f287719a41696,605bc2319a6e369a96541e9e,Peru,Midwest,13 or older,no,2021-03-24_18h51.38.387,empathy_intonation_perc,2020.2.10,Win32,60,,,,,,,,,,1,andalusian,1,1,1.377265,0,54,54,50,1,51,./stim/wavs/andalusian_mismatch_interrogative-partial-wh_Cuando-miraba-la-luna.wav,./stim/wavs/argentine_mismatch_interrogative-partial-wh_Cuando-miraba-la-luna.wav,./stim/wavs/castilian_mismatch_interrogative-partial-wh_Cuando-miraba-la-luna.wav,./stim/wavs/chilean_mismatch_interrogative-partial-wh_Cuando-miraba-la-luna.wav,./stim/wavs/cuban_mismatch_interrogative-partial-wh_Cuando-miraba-la-luna.wav,./stim/wavs/mexican_mismatch_interrogative-partial-wh_Cuando-miraba-la-luna.wav,./stim/wavs/peruvian_mismatch_interrogative-partial-wh_Cuando-miraba-la-luna.wav,./stim/wavs/puertorican_mismatch_interrogative-partial-wh_Cuando-miraba-la-luna.wav,,,,,,,,,,,,,,,,,,,,,,,,,,,,,,,,,,,,,,,,,,,,,,,,,,,,,,,,
,,,,,,,5c049e9bad9a9700011b877b,605b45a4d25f287719a41696,605bc2319a6e369a96541e9e,Peru,Midwest,13 or older,no,2021-03-24_18h51.38.387,empathy_intonation_perc,2020.2.10,Win32,60,,,,,,,,,,1,castilian,1,1,1.523205,0,55,55,23,1,24,./stim/wavs/andalusian_match_interrogative-partial-wh_Por-que-iba-a-Bolivia.wav,./stim/wavs/argentine_match_interrogative-partial-wh_Por-que-iba-a-Bolivia.wav,./stim/wavs/castilian_match_interrogative-partial-wh_Por-que-iba-a-Bolivia.wav,./stim/wavs/chilean_match_interrogative-partial-wh_Por-que-iba-a-Bolivia.wav,./stim/wavs/cuban_match_interrogative-partial-wh_Por-que-iba-a-Bolivia.wav,./stim/wavs/mexican_match_interrogative-partial-wh_Por-que-iba-a-Bolivia.wav,./stim/wavs/peruvian_match_interrogative-partial-wh_Por-que-iba-a-Bolivia.wav,./stim/wavs/puertorican_match_interrogative-partial-wh_Por-que-iba-a-Bolivia.wav,,,,,,,,,,,,,,,,,,,,,,,,,,,,,,,,,,,,,,,,,,,,,,,,,,,,,,,,
,,,,,,,5c049e9bad9a9700011b877b,605b45a4d25f287719a41696,605bc2319a6e369a96541e9e,Peru,Midwest,13 or older,no,2021-03-24_18h51.38.387,empathy_intonation_perc,2020.2.10,Win32,60,,,,,,,,,,0,chilean,0,1,1.705875,0,56,56,40,1,41,./stim/wavs/andalusian_mismatch_declarative-narrow-focus_El-bebe-comia-muy-bien.wav,./stim/wavs/argentine_mismatch_declarative-narrow-focus_El-bebe-comia-muy-bien.wav,./stim/wavs/castilian_mismatch_declarative-narrow-focus_El-bebe-comia-muy-bien.wav,./stim/wavs/chilean_mismatch_declarative-narrow-focus_El-bebe-comia-muy-bien.wav,./stim/wavs/cuban_mismatch_declarative-narrow-focus_El-bebe-comia-muy-bien.wav,./stim/wavs/mexican_mismatch_declarative-narrow-focus_El-bebe-comia-muy-bien.wav,./stim/wavs/peruvian_mismatch_declarative-narrow-focus_El-bebe-comia-muy-bien.wav,./stim/wavs/puertorican_mismatch_declarative-narrow-focus_El-bebe-comia-muy-bien.wav,,,,,,,,,,,,,,,,,,,,,,,,,,,,,,,,,,,,,,,,,,,,,,,,,,,,,,,,
,,,,,,,5c049e9bad9a9700011b877b,605b45a4d25f287719a41696,605bc2319a6e369a96541e9e,Peru,Midwest,13 or older,no,2021-03-24_18h51.38.387,empathy_intonation_perc,2020.2.10,Win32,60,,,,,,,,,,0,peruvian,0,1,1.65997,0,57,57,2,1,3,./stim/wavs/andalusian_match_declarative-broad-focus_David-leia-el-libro.wav,./stim/wavs/argentine_match_declarative-broad-focus_David-leia-el-libro.wav,./stim/wavs/castilian_match_declarative-broad-focus_David-leia-el-libro.wav,./stim/wavs/chilean_match_declarative-broad-focus_David-leia-el-libro.wav,./stim/wavs/cuban_match_declarative-broad-focus_David-leia-el-libro.wav,./stim/wavs/mexican_match_declarative-broad-focus_David-leia-el-libro.wav,./stim/wavs/peruvian_match_declarative-broad-focus_David-leia-el-libro.wav,./stim/wavs/puertorican_match_declarative-broad-focus_David-leia-el-libro.wav,,,,,,,,,,,,,,,,,,,,,,,,,,,,,,,,,,,,,,,,,,,,,,,,,,,,,,,,
,,,,,,,5c049e9bad9a9700011b877b,605b45a4d25f287719a41696,605bc2319a6e369a96541e9e,Peru,Midwest,13 or older,no,2021-03-24_18h51.38.387,empathy_intonation_perc,2020.2.10,Win32,60,,,,,,,,,,1,chilean,1,1,1.617185,0,58,58,62,1,63,./stim/wavs/andalusian_mismatch_interrogative-total-yn_Mi-novio-viene-del-lago.wav,./stim/wavs/argentine_mismatch_interrogative-total-yn_Mi-novio-viene-del-lago.wav,./stim/wavs/castilian_mismatch_interrogative-total-yn_Mi-novio-viene-del-lago.wav,./stim/wavs/chilean_mismatch_interrogative-total-yn_Mi-novio-viene-del-lago.wav,./stim/wavs/cuban_mismatch_interrogative-total-yn_Mi-novio-viene-del-lago.wav,./stim/wavs/mexican_mismatch_interrogative-total-yn_Mi-novio-viene-del-lago.wav,./stim/wavs/peruvian_mismatch_interrogative-total-yn_Mi-novio-viene-del-lago.wav,./stim/wavs/puertorican_mismatch_interrogative-total-yn_Mi-novio-viene-del-lago.wav,,,,,,,,,,,,,,,,,,,,,,,,,,,,,,,,,,,,,,,,,,,,,,,,,,,,,,,,
,,,,,,,5c049e9bad9a9700011b877b,605b45a4d25f287719a41696,605bc2319a6e369a96541e9e,Peru,Midwest,13 or older,no,2021-03-24_18h51.38.387,empathy_intonation_perc,2020.2.10,Win32,60,,,,,,,,,,0,chilean,0,1,1.736245,0,59,59,15,1,16,./stim/wavs/andalusian_match_declarative-narrow-focus_Marta-abre-el-regalo.wav,./stim/wavs/argentine_match_declarative-narrow-focus_Marta-abre-el-regalo.wav,./stim/wavs/castilian_match_declarative-narrow-focus_Marta-abre-el-regalo.wav,./stim/wavs/chilean_match_declarative-narrow-focus_Marta-abre-el-regalo.wav,./stim/wavs/cuban_match_declarative-narrow-focus_Marta-abre-el-regalo.wav,./stim/wavs/mexican_match_declarative-narrow-focus_Marta-abre-el-regalo.wav,./stim/wavs/peruvian_match_declarative-narrow-focus_Marta-abre-el-regalo.wav,./stim/wavs/puertorican_match_declarative-narrow-focus_Marta-abre-el-regalo.wav,,,,,,,,,,,,,,,,,,,,,,,,,,,,,,,,,,,,,,,,,,,,,,,,,,,,,,,,
,,,,,,,5c049e9bad9a9700011b877b,605b45a4d25f287719a41696,605bc2319a6e369a96541e9e,Peru,Midwest,13 or older,no,2021-03-24_18h51.38.387,empathy_intonation_perc,2020.2.10,Win32,60,,,,,,,,,,0,cuban,0,1,1.411295,0,60,60,14,1,15,./stim/wavs/andalusian_match_declarative-narrow-focus_Mariano-habla-del-tiempo.wav,./stim/wavs/argentine_match_declarative-narrow-focus_Mariano-habla-del-tiempo.wav,./stim/wavs/castilian_match_declarative-narrow-focus_Mariano-habla-del-tiempo.wav,./stim/wavs/chilean_match_declarative-narrow-focus_Mariano-habla-del-tiempo.wav,./stim/wavs/cuban_match_declarative-narrow-focus_Mariano-habla-del-tiempo.wav,./stim/wavs/mexican_match_declarative-narrow-focus_Mariano-habla-del-tiempo.wav,./stim/wavs/peruvian_match_declarative-narrow-focus_Mariano-habla-del-tiempo.wav,./stim/wavs/puertorican_match_declarative-narrow-focus_Mariano-habla-del-tiempo.wav,,,,,,,,,,,,,,,,,,,,,,,,,,,,,,,,,,,,,,,,,,,,,,,,,,,,,,,,
,,,,,,,5c049e9bad9a9700011b877b,605b45a4d25f287719a41696,605bc2319a6e369a96541e9e,Peru,Midwest,13 or older,no,2021-03-24_18h51.38.387,empathy_intonation_perc,2020.2.10,Win32,60,,,,,,,,,,0,andalusian,0,1,1.786665,0,61,61,37,1,38,./stim/wavs/andalusian_mismatch_declarative-broad-focus_Mi-madre-come-la-fruta.wav,./stim/wavs/argentine_mismatch_declarative-broad-focus_Mi-madre-come-la-fruta.wav,./stim/wavs/castilian_mismatch_declarative-broad-focus_Mi-madre-come-la-fruta.wav,./stim/wavs/chilean_mismatch_declarative-broad-focus_Mi-madre-come-la-fruta.wav,./stim/wavs/cuban_mismatch_declarative-broad-focus_Mi-madre-come-la-fruta.wav,./stim/wavs/mexican_mismatch_declarative-broad-focus_Mi-madre-come-la-fruta.wav,./stim/wavs/peruvian_mismatch_declarative-broad-focus_Mi-madre-come-la-fruta.wav,./stim/wavs/puertorican_mismatch_declarative-broad-focus_Mi-madre-come-la-fruta.wav,,,,,,,,,,,,,,,,,,,,,,,,,,,,,,,,,,,,,,,,,,,,,,,,,,,,,,,,
,,,,,,,5c049e9bad9a9700011b877b,605b45a4d25f287719a41696,605bc2319a6e369a96541e9e,Peru,Midwest,13 or older,no,2021-03-24_18h51.38.387,empathy_intonation_perc,2020.2.10,Win32,60,,,,,,,,,,1,chilean,1,1,1.5855,0,62,62,54,1,55,./stim/wavs/andalusian_mismatch_interrogative-partial-wh_Por-que-venia-del-lago.wav,./stim/wavs/argentine_mismatch_interrogative-partial-wh_Por-que-venia-del-lago.wav,./stim/wavs/castilian_mismatch_interrogative-partial-wh_Por-que-venia-del-lago.wav,./stim/wavs/chilean_mismatch_interrogative-partial-wh_Por-que-venia-del-lago.wav,./stim/wavs/cuban_mismatch_interrogative-partial-wh_Por-que-venia-del-lago.wav,./stim/wavs/mexican_mismatch_interrogative-partial-wh_Por-que-venia-del-lago.wav,./stim/wavs/peruvian_mismatch_interrogative-partial-wh_Por-que-venia-del-lago.wav,./stim/wavs/puertorican_mismatch_interrogative-partial-wh_Por-que-venia-del-lago.wav,,,,,,,,,,,,,,,,,,,,,,,,,,,,,,,,,,,,,,,,,,,,,,,,,,,,,,,,
,,,,,,,5c049e9bad9a9700011b877b,605b45a4d25f287719a41696,605bc2319a6e369a96541e9e,Peru,Midwest,13 or older,no,2021-03-24_18h51.38.387,empathy_intonation_perc,2020.2.10,Win32,60,,,,,,,,,,0,argentine,0,1,1.59094,0,63,63,4,1,5,./stim/wavs/andalusian_match_declarative-broad-focus_Manuela-vende-el-carro.wav,./stim/wavs/argentine_match_declarative-broad-focus_Manuela-vende-el-carro.wav,./stim/wavs/castilian_match_declarative-broad-focus_Manuela-vende-el-carro.wav,./stim/wavs/chilean_match_declarative-broad-focus_Manuela-vende-el-carro.wav,./stim/wavs/cuban_match_declarative-broad-focus_Manuela-vende-el-carro.wav,./stim/wavs/mexican_match_declarative-broad-focus_Manuela-vende-el-carro.wav,./stim/wavs/peruvian_match_declarative-broad-focus_Manuela-vende-el-carro.wav,./stim/wavs/puertorican_match_declarative-broad-focus_Manuela-vende-el-carro.wav,,,,,,,,,,,,,,,,,,,,,,,,,,,,,,,,,,,,,,,,,,,,,,,,,,,,,,,,
,,,,,,,5c049e9bad9a9700011b877b,605b45a4d25f287719a41696,605bc2319a6e369a96541e9e,Peru,Midwest,13 or older,no,2021-03-24_18h51.38.387,empathy_intonation_perc,2020.2.10,Win32,60,,,,,,,,,,,,,,,,,,,,,,,,,,,,,h,1,7.44755,0,0,0,0,1,,,,,,,,,,,,,,,,,,,,,,,,,,,,,,,,,,,,,,,,,,,,,,,,
,,,,,"Great! Now we will move on. The next task consists of about 60 trials, in each of which you will see a string of letters. 
  
  Your task is to decide whether this is a real Spanish word or not.",(press the spacebar to continue),5c049e9bad9a9700011b877b,605b45a4d25f287719a41696,605bc2319a6e369a96541e9e,Peru,Midwest,13 or older,no,2021-03-24_18h51.38.387,empathy_intonation_perc,2020.2.10,Win32,60,,,,,,,,,,,,,,,,,,,,,,,,,,,,,,,,,,,,,0,0,0,0,1,,,,,,,,,,,,,,,,,,,,,,,,,,,,,,,,,,,,,,,,,,,
,,,,,"If you think it is an existing Spanish word, you type '1' (for 'REAL'), and if you think it is not an existing Spanish word, you type '0' (for 'FAKE').",(press the spacebar to continue),5c049e9bad9a9700011b877b,605b45a4d25f287719a41696,605bc2319a6e369a96541e9e,Peru,Midwest,13 or older,no,2021-03-24_18h51.38.387,empathy_intonation_perc,2020.2.10,Win32,60,,,,,,,,,,,,,,,,,,,,,,,,,,,,,,,,,,,,,0,1,1,1,1,,,,,,,,,,,,,,,,,,,,,,,,,,,,,,,,,,,,,,,,,,,
,,,,,"If you are sure that the word exists, even though you dont know its exact meaning, you may still respond '1' (REAL). 
  
  But if you are not sure if it is an existing word, you should respond '0' (FAKE).
  
  Let's do a practice round...",(press the spacebar to continue),5c049e9bad9a9700011b877b,605b45a4d25f287719a41696,605bc2319a6e369a96541e9e,Peru,Midwest,13 or older,no,2021-03-24_18h51.38.387,empathy_intonation_perc,2020.2.10,Win32,60,,,,,,,,,,,,,,,,,,,,,,,,,,,,,,,,,,,,,0,2,2,2,1,,,,,,,,,,,,,,,,,,,,,,,,,,,,,,,,,,,,,,,,,,,
,,,,,,,5c049e9bad9a9700011b877b,605b45a4d25f287719a41696,605bc2319a6e369a96541e9e,Peru,Midwest,13 or older,no,2021-03-24_18h51.38.387,empathy_intonation_perc,2020.2.10,Win32,60,,,,,,,,,,0,,,,,,,,,,,,,,,,,,,,,,,,,,,,,,,,0,1,1.376145,0,0,0,0,1,0,depiste,REAL,FAKE,,,,,,,,,,,,,,,,,,,,,,,,,,,,,,,
,,,,,,,5c049e9bad9a9700011b877b,605b45a4d25f287719a41696,605bc2319a6e369a96541e9e,Peru,Midwest,13 or older,no,2021-03-24_18h51.38.387,empathy_intonation_perc,2020.2.10,Win32,60,,,,,,,,,,1,,,,,,,,,,,,,,,,,,,,,,,,,,,,,,,,1,1,0.804475,0,1,1,1,1,0,s,REAL,FAKE,,,,,,,,,,,,,,,,,,,,,,,,,,,,,,,
,,,,,,,5c049e9bad9a9700011b877b,605b45a4d25f287719a41696,605bc2319a6e369a96541e9e,Peru,Midwest,13 or older,no,2021-03-24_18h51.38.387,empathy_intonation_perc,2020.2.10,Win32,60,,,,,,,,,,0,,,,,,,,,,,,,,,,,,,,,,,,,,,,,,,,1,0,1.162085,0,2,2,2,1,0,con,REAL,FAKE,,,,,,,,,,,,,,,,,,,,,,,,,,,,,,,
,,,,,,,5c049e9bad9a9700011b877b,605b45a4d25f287719a41696,605bc2319a6e369a96541e9e,Peru,Midwest,13 or older,no,2021-03-24_18h51.38.387,empathy_intonation_perc,2020.2.10,Win32,60,,,,,,,,,,0,,,,,,,,,,,,,,,,,,,,,,,,,,,,,,,,0,1,1.08393,0,3,3,3,1,0,calpar,REAL,FAKE,,,,,,,,,,,,,,,,,,,,,,,,,,,,,,,
,,,,,,,5c049e9bad9a9700011b877b,605b45a4d25f287719a41696,605bc2319a6e369a96541e9e,Peru,Midwest,13 or older,no,2021-03-24_18h51.38.387,empathy_intonation_perc,2020.2.10,Win32,60,,,,,,,,,,0,,,,,,,,,,,,,,,,,,,,,,,,,,,,,,,,0,1,0.985705,0,4,4,4,1,0,joten,REAL,FAKE,,,,,,,,,,,,,,,,,,,,,,,,,,,,,,,
,,,,,,,5c049e9bad9a9700011b877b,605b45a4d25f287719a41696,605bc2319a6e369a96541e9e,Peru,Midwest,13 or older,no,2021-03-24_18h51.38.387,empathy_intonation_perc,2020.2.10,Win32,60,,,,,,,,,,1,,,,,,,,,,,,,,,,,,,,,,,,,,,,,,,,1,1,0.77589,0,5,5,5,1,0,sacapuntas,REAL,FAKE,,,,,,,,,,,,,,,,,,,,,,,,,,,,,,,
,,,,,,,5c049e9bad9a9700011b877b,605b45a4d25f287719a41696,605bc2319a6e369a96541e9e,Peru,Midwest,13 or older,no,2021-03-24_18h51.38.387,empathy_intonation_perc,2020.2.10,Win32,60,,,,,,,,,,0,,,,,,,,,,,,,,,,,,,,,,,,,,,,,,,,0,1,0.92221,0,6,6,6,1,0,priba,REAL,FAKE,,,,,,,,,,,,,,,,,,,,,,,,,,,,,,,
,,,,,,,5c049e9bad9a9700011b877b,605b45a4d25f287719a41696,605bc2319a6e369a96541e9e,Peru,Midwest,13 or older,no,2021-03-24_18h51.38.387,empathy_intonation_perc,2020.2.10,Win32,60,,,,,,,,,,0,,,,,,,,,,,,,,,,,,,,,,,,,,,,,,,,0,1,1.34529,0,7,7,7,1,0,pelasula,REAL,FAKE,,,,,,,,,,,,,,,,,,,,,,,,,,,,,,,
,,,,,,,5c049e9bad9a9700011b877b,605b45a4d25f287719a41696,605bc2319a6e369a96541e9e,Peru,Midwest,13 or older,no,2021-03-24_18h51.38.387,empathy_intonation_perc,2020.2.10,Win32,60,,,,,,,,,,1,,,,,,,,,,,,,,,,,,,,,,,,,,,,,,,,1,1,0.58458,0,8,8,8,1,0,bien,REAL,FAKE,,,,,,,,,,,,,,,,,,,,,,,,,,,,,,,
,,,,,,,5c049e9bad9a9700011b877b,605b45a4d25f287719a41696,605bc2319a6e369a96541e9e,Peru,Midwest,13 or older,no,2021-03-24_18h51.38.387,empathy_intonation_perc,2020.2.10,Win32,60,,,,,,,,,,1,,,,,,,,,,,,,,,,,,,,,,,,,,,,,,,,1,1,0.55106,0,9,9,9,1,0,casa,REAL,FAKE,,,,,,,,,,,,,,,,,,,,,,,,,,,,,,,
,,,,,,,5c049e9bad9a9700011b877b,605b45a4d25f287719a41696,605bc2319a6e369a96541e9e,Peru,Midwest,13 or older,no,2021-03-24_18h51.38.387,empathy_intonation_perc,2020.2.10,Win32,60,,,,,,,,,,0,,,,,,,,,,,,,,,,,,,,,,,,,,,,,,,,1,0,0.63492,0,10,10,10,1,0,lejo,REAL,FAKE,,,,,,,,,,,,,,,,,,,,,,,,,,,,,,,
,,,,,,,5c049e9bad9a9700011b877b,605b45a4d25f287719a41696,605bc2319a6e369a96541e9e,Peru,Midwest,13 or older,no,2021-03-24_18h51.38.387,empathy_intonation_perc,2020.2.10,Win32,60,,,,,,,,,,0,,,,,,,,,,,,,,,,,,,,,,,,,,,,,,,,0,1,1.00079,0,11,11,11,1,0,pretantas,REAL,FAKE,,,,,,,,,,,,,,,,,,,,,,,,,,,,,,,
,,,,,,,5c049e9bad9a9700011b877b,605b45a4d25f287719a41696,605bc2319a6e369a96541e9e,Peru,Midwest,13 or older,no,2021-03-24_18h51.38.387,empathy_intonation_perc,2020.2.10,Win32,60,,,,,,,,,,0,,,,,,,,,,,,,,,,,,,,,,,,,,,,,,,,,,,,,,,,27,acutacin,,,1,0,1.740135,0,0,0,26,1,REAL,FAKE,,,,,,,,,,,,,,,,,,,,,
,,,,,,,5c049e9bad9a9700011b877b,605b45a4d25f287719a41696,605bc2319a6e369a96541e9e,Peru,Midwest,13 or older,no,2021-03-24_18h51.38.387,empathy_intonation_perc,2020.2.10,Win32,60,,,,,,,,,,0,,,,,,,,,,,,,,,,,,,,,,,,,,,,,,,,,,,,,,,,70,temblo,,,0,1,1.45109,0,1,1,69,1,REAL,FAKE,,,,,,,,,,,,,,,,,,,,,
,,,,,,,5c049e9bad9a9700011b877b,605b45a4d25f287719a41696,605bc2319a6e369a96541e9e,Peru,Midwest,13 or older,no,2021-03-24_18h51.38.387,empathy_intonation_perc,2020.2.10,Win32,60,,,,,,,,,,1,,,,,,,,,,,,,,,,,,,,,,,,,,,,,,,,,,,,,,,,88,acantilado,,,0,0,1.296095,0,2,2,87,1,REAL,FAKE,,,,,,,,,,,,,,,,,,,,,
,,,,,,,5c049e9bad9a9700011b877b,605b45a4d25f287719a41696,605bc2319a6e369a96541e9e,Peru,Midwest,13 or older,no,2021-03-24_18h51.38.387,empathy_intonation_perc,2020.2.10,Win32,60,,,,,,,,,,0,,,,,,,,,,,,,,,,,,,,,,,,,,,,,,,,,,,,,,,,10,antar,,,1,0,0.861965,0,3,3,9,1,REAL,FAKE,,,,,,,,,,,,,,,,,,,,,
,,,,,,,5c049e9bad9a9700011b877b,605b45a4d25f287719a41696,605bc2319a6e369a96541e9e,Peru,Midwest,13 or older,no,2021-03-24_18h51.38.387,empathy_intonation_perc,2020.2.10,Win32,60,,,,,,,,,,0,,,,,,,,,,,,,,,,,,,,,,,,,,,,,,,,,,,,,,,,63,esposante,,,0,1,1.007255,0,4,4,62,1,REAL,FAKE,,,,,,,,,,,,,,,,,,,,,
,,,,,,,5c049e9bad9a9700011b877b,605b45a4d25f287719a41696,605bc2319a6e369a96541e9e,Peru,Midwest,13 or older,no,2021-03-24_18h51.38.387,empathy_intonation_perc,2020.2.10,Win32,60,,,,,,,,,,1,,,,,,,,,,,,,,,,,,,,,,,,,,,,,,,,,,,,,,,,83,guante,,,1,1,0.7259,0,5,5,82,1,REAL,FAKE,,,,,,,,,,,,,,,,,,,,,
,,,,,,,5c049e9bad9a9700011b877b,605b45a4d25f287719a41696,605bc2319a6e369a96541e9e,Peru,Midwest,13 or older,no,2021-03-24_18h51.38.387,empathy_intonation_perc,2020.2.10,Win32,60,,,,,,,,,,1,,,,,,,,,,,,,,,,,,,,,,,,,,,,,,,,,,,,,,,,15,regar,,,1,1,0.839405,0,6,6,14,1,REAL,FAKE,,,,,,,,,,,,,,,,,,,,,
,,,,,,,5c049e9bad9a9700011b877b,605b45a4d25f287719a41696,605bc2319a6e369a96541e9e,Peru,Midwest,13 or older,no,2021-03-24_18h51.38.387,empathy_intonation_perc,2020.2.10,Win32,60,,,,,,,,,,1,,,,,,,,,,,,,,,,,,,,,,,,,,,,,,,,,,,,,,,,44,cuchara,,,1,1,1.076735,0,7,7,43,1,REAL,FAKE,,,,,,,,,,,,,,,,,,,,,
,,,,,,,5c049e9bad9a9700011b877b,605b45a4d25f287719a41696,605bc2319a6e369a96541e9e,Peru,Midwest,13 or older,no,2021-03-24_18h51.38.387,empathy_intonation_perc,2020.2.10,Win32,60,,,,,,,,,,1,,,,,,,,,,,,,,,,,,,,,,,,,,,,,,,,,,,,,,,,20,vido,,,1,1,1.401425,0,8,8,19,1,REAL,FAKE,,,,,,,,,,,,,,,,,,,,,
,,,,,,,5c049e9bad9a9700011b877b,605b45a4d25f287719a41696,605bc2319a6e369a96541e9e,Peru,Midwest,13 or older,no,2021-03-24_18h51.38.387,empathy_intonation_perc,2020.2.10,Win32,60,,,,,,,,,,1,,,,,,,,,,,,,,,,,,,,,,,,,,,,,,,,,,,,,,,,14,yunque,,,0,0,0.875845,0,9,9,13,1,REAL,FAKE,,,,,,,,,,,,,,,,,,,,,
,,,,,,,5c049e9bad9a9700011b877b,605b45a4d25f287719a41696,605bc2319a6e369a96541e9e,Peru,Midwest,13 or older,no,2021-03-24_18h51.38.387,empathy_intonation_perc,2020.2.10,Win32,60,,,,,,,,,,0,,,,,,,,,,,,,,,,,,,,,,,,,,,,,,,,,,,,,,,,19,brecedad,,,0,1,1.109955,0,10,10,18,1,REAL,FAKE,,,,,,,,,,,,,,,,,,,,,
,,,,,,,5c049e9bad9a9700011b877b,605b45a4d25f287719a41696,605bc2319a6e369a96541e9e,Peru,Midwest,13 or older,no,2021-03-24_18h51.38.387,empathy_intonation_perc,2020.2.10,Win32,60,,,,,,,,,,1,,,,,,,,,,,,,,,,,,,,,,,,,,,,,,,,,,,,,,,,45,jilguero,,,0,0,1.0351,0,11,11,44,1,REAL,FAKE,,,,,,,,,,,,,,,,,,,,,
,,,,,,,5c049e9bad9a9700011b877b,605b45a4d25f287719a41696,605bc2319a6e369a96541e9e,Peru,Midwest,13 or older,no,2021-03-24_18h51.38.387,empathy_intonation_perc,2020.2.10,Win32,60,,,,,,,,,,0,,,,,,,,,,,,,,,,,,,,,,,,,,,,,,,,,,,,,,,,50,flamida,,,0,1,0.98585,0,12,12,49,1,REAL,FAKE,,,,,,,,,,,,,,,,,,,,,
,,,,,,,5c049e9bad9a9700011b877b,605b45a4d25f287719a41696,605bc2319a6e369a96541e9e,Peru,Midwest,13 or older,no,2021-03-24_18h51.38.387,empathy_intonation_perc,2020.2.10,Win32,60,,,,,,,,,,1,,,,,,,,,,,,,,,,,,,,,,,,,,,,,,,,,,,,,,,,34,aviso,,,1,1,0.75955,0,13,13,33,1,REAL,FAKE,,,,,,,,,,,,,,,,,,,,,
,,,,,,,5c049e9bad9a9700011b877b,605b45a4d25f287719a41696,605bc2319a6e369a96541e9e,Peru,Midwest,13 or older,no,2021-03-24_18h51.38.387,empathy_intonation_perc,2020.2.10,Win32,60,,,,,,,,,,0,,,,,,,,,,,,,,,,,,,,,,,,,,,,,,,,,,,,,,,,32,fatacidad,,,0,1,0.834125,0,14,14,31,1,REAL,FAKE,,,,,,,,,,,,,,,,,,,,,
,,,,,,,5c049e9bad9a9700011b877b,605b45a4d25f287719a41696,605bc2319a6e369a96541e9e,Peru,Midwest,13 or older,no,2021-03-24_18h51.38.387,empathy_intonation_perc,2020.2.10,Win32,60,,,,,,,,,,0,,,,,,,,,,,,,,,,,,,,,,,,,,,,,,,,,,,,,,,,79,tropaje,,,0,1,0.94562,0,15,15,78,1,REAL,FAKE,,,,,,,,,,,,,,,,,,,,,
,,,,,,,5c049e9bad9a9700011b877b,605b45a4d25f287719a41696,605bc2319a6e369a96541e9e,Peru,Midwest,13 or older,no,2021-03-24_18h51.38.387,empathy_intonation_perc,2020.2.10,Win32,60,,,,,,,,,,1,,,,,,,,,,,,,,,,,,,,,,,,,,,,,,,,,,,,,,,,6,tergiversar,,,0,0,0.87643,0,16,16,5,1,REAL,FAKE,,,,,,,,,,,,,,,,,,,,,
,,,,,,,5c049e9bad9a9700011b877b,605b45a4d25f287719a41696,605bc2319a6e369a96541e9e,Peru,Midwest,13 or older,no,2021-03-24_18h51.38.387,empathy_intonation_perc,2020.2.10,Win32,60,,,,,,,,,,1,,,,,,,,,,,,,,,,,,,,,,,,,,,,,,,,,,,,,,,,9,hacha,,,1,1,0.70183,0,17,17,8,1,REAL,FAKE,,,,,,,,,,,,,,,,,,,,,
,,,,,,,5c049e9bad9a9700011b877b,605b45a4d25f287719a41696,605bc2319a6e369a96541e9e,Peru,Midwest,13 or older,no,2021-03-24_18h51.38.387,empathy_intonation_perc,2020.2.10,Win32,60,,,,,,,,,,0,,,,,,,,,,,,,,,,,,,,,,,,,,,,,,,,,,,,,,,,16,abracer,,,1,0,1.534885,0,18,18,15,1,REAL,FAKE,,,,,,,,,,,,,,,,,,,,,
,,,,,,,5c049e9bad9a9700011b877b,605b45a4d25f287719a41696,605bc2319a6e369a96541e9e,Peru,Midwest,13 or older,no,2021-03-24_18h51.38.387,empathy_intonation_perc,2020.2.10,Win32,60,,,,,,,,,,1,,,,,,,,,,,,,,,,,,,,,,,,,,,,,,,,,,,,,,,,49,ganar,,,1,1,0.751745,0,19,19,48,1,REAL,FAKE,,,,,,,,,,,,,,,,,,,,,
,,,,,,,5c049e9bad9a9700011b877b,605b45a4d25f287719a41696,605bc2319a6e369a96541e9e,Peru,Midwest,13 or older,no,2021-03-24_18h51.38.387,empathy_intonation_perc,2020.2.10,Win32,60,,,,,,,,,,1,,,,,,,,,,,,,,,,,,,,,,,,,,,,,,,,,,,,,,,,59,besar,,,1,1,0.73386,0,20,20,58,1,REAL,FAKE,,,,,,,,,,,,,,,,,,,,,
,,,,,,,5c049e9bad9a9700011b877b,605b45a4d25f287719a41696,605bc2319a6e369a96541e9e,Peru,Midwest,13 or older,no,2021-03-24_18h51.38.387,empathy_intonation_perc,2020.2.10,Win32,60,,,,,,,,,,1,,,,,,,,,,,,,,,,,,,,,,,,,,,,,,,,,,,,,,,,78,frondoso,,,1,1,0.993,0,21,21,77,1,REAL,FAKE,,,,,,,,,,,,,,,,,,,,,
,,,,,,,5c049e9bad9a9700011b877b,605b45a4d25f287719a41696,605bc2319a6e369a96541e9e,Peru,Midwest,13 or older,no,2021-03-24_18h51.38.387,empathy_intonation_perc,2020.2.10,Win32,60,,,,,,,,,,0,,,,,,,,,,,,,,,,,,,,,,,,,,,,,,,,,,,,,,,,17,floroso,,,1,0,0.753235,0,22,22,16,1,REAL,FAKE,,,,,,,,,,,,,,,,,,,,,
,,,,,,,5c049e9bad9a9700011b877b,605b45a4d25f287719a41696,605bc2319a6e369a96541e9e,Peru,Midwest,13 or older,no,2021-03-24_18h51.38.387,empathy_intonation_perc,2020.2.10,Win32,60,,,,,,,,,,0,,,,,,,,,,,,,,,,,,,,,,,,,,,,,,,,,,,,,,,,29,decar,,,0,1,1.17947,0,23,23,28,1,REAL,FAKE,,,,,,,,,,,,,,,,,,,,,
,,,,,,,5c049e9bad9a9700011b877b,605b45a4d25f287719a41696,605bc2319a6e369a96541e9e,Peru,Midwest,13 or older,no,2021-03-24_18h51.38.387,empathy_intonation_perc,2020.2.10,Win32,60,,,,,,,,,,1,,,,,,,,,,,,,,,,,,,,,,,,,,,,,,,,,,,,,,,,62,flaco,,,1,1,0.74668,0,24,24,61,1,REAL,FAKE,,,,,,,,,,,,,,,,,,,,,
,,,,,,,5c049e9bad9a9700011b877b,605b45a4d25f287719a41696,605bc2319a6e369a96541e9e,Peru,Midwest,13 or older,no,2021-03-24_18h51.38.387,empathy_intonation_perc,2020.2.10,Win32,60,,,,,,,,,,1,,,,,,,,,,,,,,,,,,,,,,,,,,,,,,,,,,,,,,,,64,orgulloso,,,1,1,0.717845,0,25,25,63,1,REAL,FAKE,,,,,,,,,,,,,,,,,,,,,
,,,,,,,5c049e9bad9a9700011b877b,605b45a4d25f287719a41696,605bc2319a6e369a96541e9e,Peru,Midwest,13 or older,no,2021-03-24_18h51.38.387,empathy_intonation_perc,2020.2.10,Win32,60,,,,,,,,,,1,,,,,,,,,,,,,,,,,,,,,,,,,,,,,,,,,,,,,,,,60,matar,,,1,1,0.66732,0,26,26,59,1,REAL,FAKE,,,,,,,,,,,,,,,,,,,,,
,,,,,,,5c049e9bad9a9700011b877b,605b45a4d25f287719a41696,605bc2319a6e369a96541e9e,Peru,Midwest,13 or older,no,2021-03-24_18h51.38.387,empathy_intonation_perc,2020.2.10,Win32,60,,,,,,,,,,0,,,,,,,,,,,,,,,,,,,,,,,,,,,,,,,,,,,,,,,,18,arsa,,,0,1,0.800605,0,27,27,17,1,REAL,FAKE,,,,,,,,,,,,,,,,,,,,,
,,,,,,,5c049e9bad9a9700011b877b,605b45a4d25f287719a41696,605bc2319a6e369a96541e9e,Peru,Midwest,13 or older,no,2021-03-24_18h51.38.387,empathy_intonation_perc,2020.2.10,Win32,60,,,,,,,,,,1,,,,,,,,,,,,,,,,,,,,,,,,,,,,,,,,,,,,,,,,2,pellizcar,,,0,0,0.792555,0,28,28,1,1,REAL,FAKE,,,,,,,,,,,,,,,,,,,,,
,,,,,,,5c049e9bad9a9700011b877b,605b45a4d25f287719a41696,605bc2319a6e369a96541e9e,Peru,Midwest,13 or older,no,2021-03-24_18h51.38.387,empathy_intonation_perc,2020.2.10,Win32,60,,,,,,,,,,0,,,,,,,,,,,,,,,,,,,,,,,,,,,,,,,,,,,,,,,,47,cartinar,,,0,1,0.979965,0,29,29,46,1,REAL,FAKE,,,,,,,,,,,,,,,,,,,,,
,,,,,,,5c049e9bad9a9700011b877b,605b45a4d25f287719a41696,605bc2319a6e369a96541e9e,Peru,Midwest,13 or older,no,2021-03-24_18h51.38.387,empathy_intonation_perc,2020.2.10,Win32,60,,,,,,,,,,1,,,,,,,,,,,,,,,,,,,,,,,,,,,,,,,,,,,,,,,,39,torpe,,,1,1,0.912665,0,30,30,38,1,REAL,FAKE,,,,,,,,,,,,,,,,,,,,,
,,,,,,,5c049e9bad9a9700011b877b,605b45a4d25f287719a41696,605bc2319a6e369a96541e9e,Peru,Midwest,13 or older,no,2021-03-24_18h51.38.387,empathy_intonation_perc,2020.2.10,Win32,60,,,,,,,,,,0,,,,,,,,,,,,,,,,,,,,,,,,,,,,,,,,,,,,,,,,72,pemicin,,,0,1,1.273705,0,31,31,71,1,REAL,FAKE,,,,,,,,,,,,,,,,,,,,,
,,,,,,,5c049e9bad9a9700011b877b,605b45a4d25f287719a41696,605bc2319a6e369a96541e9e,Peru,Midwest,13 or older,no,2021-03-24_18h51.38.387,empathy_intonation_perc,2020.2.10,Win32,60,,,,,,,,,,1,,,,,,,,,,,,,,,,,,,,,,,,,,,,,,,,,,,,,,,,56,musgo,,,0,0,0.834675,0,32,32,55,1,REAL,FAKE,,,,,,,,,,,,,,,,,,,,,
,,,,,,,5c049e9bad9a9700011b877b,605b45a4d25f287719a41696,605bc2319a6e369a96541e9e,Peru,Midwest,13 or older,no,2021-03-24_18h51.38.387,empathy_intonation_perc,2020.2.10,Win32,60,,,,,,,,,,1,,,,,,,,,,,,,,,,,,,,,,,,,,,,,,,,,,,,,,,,31,pandilla,,,1,1,0.90125,0,33,33,30,1,REAL,FAKE,,,,,,,,,,,,,,,,,,,,,
,,,,,,,5c049e9bad9a9700011b877b,605b45a4d25f287719a41696,605bc2319a6e369a96541e9e,Peru,Midwest,13 or older,no,2021-03-24_18h51.38.387,empathy_intonation_perc,2020.2.10,Win32,60,,,,,,,,,,1,,,,,,,,,,,,,,,,,,,,,,,,,,,,,,,,,,,,,,,,43,canela,,,1,1,0.977695,0,34,34,42,1,REAL,FAKE,,,,,,,,,,,,,,,,,,,,,
,,,,,,,5c049e9bad9a9700011b877b,605b45a4d25f287719a41696,605bc2319a6e369a96541e9e,Peru,Midwest,13 or older,no,2021-03-24_18h51.38.387,empathy_intonation_perc,2020.2.10,Win32,60,,,,,,,,,,0,,,,,,,,,,,,,,,,,,,,,,,,,,,,,,,,,,,,,,,,30,alardio,,,0,1,0.776285,0,35,35,29,1,REAL,FAKE,,,,,,,,,,,,,,,,,,,,,
,,,,,,,5c049e9bad9a9700011b877b,605b45a4d25f287719a41696,605bc2319a6e369a96541e9e,Peru,Midwest,13 or older,no,2021-03-24_18h51.38.387,empathy_intonation_perc,2020.2.10,Win32,60,,,,,,,,,,1,,,,,,,,,,,,,,,,,,,,,,,,,,,,,,,,,,,,,,,,7,psimo,,,1,1,0.89016,0,36,36,6,1,REAL,FAKE,,,,,,,,,,,,,,,,,,,,,
,,,,,,,5c049e9bad9a9700011b877b,605b45a4d25f287719a41696,605bc2319a6e369a96541e9e,Peru,Midwest,13 or older,no,2021-03-24_18h51.38.387,empathy_intonation_perc,2020.2.10,Win32,60,,,,,,,,,,1,,,,,,,,,,,,,,,,,,,,,,,,,,,,,,,,,,,,,,,,37,granuja,,,1,1,0.922305,0,37,37,36,1,REAL,FAKE,,,,,,,,,,,,,,,,,,,,,
,,,,,,,5c049e9bad9a9700011b877b,605b45a4d25f287719a41696,605bc2319a6e369a96541e9e,Peru,Midwest,13 or older,no,2021-03-24_18h51.38.387,empathy_intonation_perc,2020.2.10,Win32,60,,,,,,,,,,1,,,,,,,,,,,,,,,,,,,,,,,,,,,,,,,,,,,,,,,,65,bizcocho,,,0,0,0.723825,0,38,38,64,1,REAL,FAKE,,,,,,,,,,,,,,,,,,,,,
,,,,,,,5c049e9bad9a9700011b877b,605b45a4d25f287719a41696,605bc2319a6e369a96541e9e,Peru,Midwest,13 or older,no,2021-03-24_18h51.38.387,empathy_intonation_perc,2020.2.10,Win32,60,,,,,,,,,,1,,,,,,,,,,,,,,,,,,,,,,,,,,,,,,,,,,,,,,,,13,helar,,,1,1,0.826775,0,39,39,12,1,REAL,FAKE,,,,,,,,,,,,,,,,,,,,,
,,,,,,,5c049e9bad9a9700011b877b,605b45a4d25f287719a41696,605bc2319a6e369a96541e9e,Peru,Midwest,13 or older,no,2021-03-24_18h51.38.387,empathy_intonation_perc,2020.2.10,Win32,60,,,,,,,,,,0,,,,,,,,,,,,,,,,,,,,,,,,,,,,,,,,,,,,,,,,33,pauca,,,0,1,0.76847,0,40,40,32,1,REAL,FAKE,,,,,,,,,,,,,,,,,,,,,
,,,,,,,5c049e9bad9a9700011b877b,605b45a4d25f287719a41696,605bc2319a6e369a96541e9e,Peru,Midwest,13 or older,no,2021-03-24_18h51.38.387,empathy_intonation_perc,2020.2.10,Win32,60,,,,,,,,,,1,,,,,,,,,,,,,,,,,,,,,,,,,,,,,,,,,,,,,,,,40,alfombra,,,1,1,0.734325,0,41,41,39,1,REAL,FAKE,,,,,,,,,,,,,,,,,,,,,
,,,,,,,5c049e9bad9a9700011b877b,605b45a4d25f287719a41696,605bc2319a6e369a96541e9e,Peru,Midwest,13 or older,no,2021-03-24_18h51.38.387,empathy_intonation_perc,2020.2.10,Win32,60,,,,,,,,,,1,,,,,,,,,,,,,,,,,,,,,,,,,,,,,,,,,,,,,,,,22,lacayo,,,0,0,0.773575,0,42,42,21,1,REAL,FAKE,,,,,,,,,,,,,,,,,,,,,
,,,,,,,5c049e9bad9a9700011b877b,605b45a4d25f287719a41696,605bc2319a6e369a96541e9e,Peru,Midwest,13 or older,no,2021-03-24_18h51.38.387,empathy_intonation_perc,2020.2.10,Win32,60,,,,,,,,,,0,,,,,,,,,,,,,,,,,,,,,,,,,,,,,,,,,,,,,,,,23,lampera,,,0,1,0.855865,0,43,43,22,1,REAL,FAKE,,,,,,,,,,,,,,,,,,,,,
,,,,,,,5c049e9bad9a9700011b877b,605b45a4d25f287719a41696,605bc2319a6e369a96541e9e,Peru,Midwest,13 or older,no,2021-03-24_18h51.38.387,empathy_intonation_perc,2020.2.10,Win32,60,,,,,,,,,,1,,,,,,,,,,,,,,,,,,,,,,,,,,,,,,,,,,,,,,,,5,zapato,,,1,1,0.617845,0,44,44,4,1,REAL,FAKE,,,,,,,,,,,,,,,,,,,,,
,,,,,,,5c049e9bad9a9700011b877b,605b45a4d25f287719a41696,605bc2319a6e369a96541e9e,Peru,Midwest,13 or older,no,2021-03-24_18h51.38.387,empathy_intonation_perc,2020.2.10,Win32,60,,,,,,,,,,1,,,,,,,,,,,,,,,,,,,,,,,,,,,,,,,,,,,,,,,,71,polvoriento,,,1,1,1.76243,0,45,45,70,1,REAL,FAKE,,,,,,,,,,,,,,,,,,,,,
,,,,,,,5c049e9bad9a9700011b877b,605b45a4d25f287719a41696,605bc2319a6e369a96541e9e,Peru,Midwest,13 or older,no,2021-03-24_18h51.38.387,empathy_intonation_perc,2020.2.10,Win32,60,,,,,,,,,,0,,,,,,,,,,,,,,,,,,,,,,,,,,,,,,,,,,,,,,,,35,rompido,,,1,0,0.58972,0,46,46,34,1,REAL,FAKE,,,,,,,,,,,,,,,,,,,,,
,,,,,,,5c049e9bad9a9700011b877b,605b45a4d25f287719a41696,605bc2319a6e369a96541e9e,Peru,Midwest,13 or older,no,2021-03-24_18h51.38.387,empathy_intonation_perc,2020.2.10,Win32,60,,,,,,,,,,0,,,,,,,,,,,,,,,,,,,,,,,,,,,,,,,,,,,,,,,,53,vegada,,,0,1,0.920705,0,47,47,52,1,REAL,FAKE,,,,,,,,,,,,,,,,,,,,,
,,,,,,,5c049e9bad9a9700011b877b,605b45a4d25f287719a41696,605bc2319a6e369a96541e9e,Peru,Midwest,13 or older,no,2021-03-24_18h51.38.387,empathy_intonation_perc,2020.2.10,Win32,60,,,,,,,,,,1,,,,,,,,,,,,,,,,,,,,,,,,,,,,,,,,,,,,,,,,48,ladrn,,,1,1,0.689195,0,48,48,47,1,REAL,FAKE,,,,,,,,,,,,,,,,,,,,,
,,,,,,,5c049e9bad9a9700011b877b,605b45a4d25f287719a41696,605bc2319a6e369a96541e9e,Peru,Midwest,13 or older,no,2021-03-24_18h51.38.387,empathy_intonation_perc,2020.2.10,Win32,60,,,,,,,,,,1,,,,,,,,,,,,,,,,,,,,,,,,,,,,,,,,,,,,,,,,25,bisagra,,,0,0,1.137565,0,49,49,24,1,REAL,FAKE,,,,,,,,,,,,,,,,,,,,,
,,,,,,,5c049e9bad9a9700011b877b,605b45a4d25f287719a41696,605bc2319a6e369a96541e9e,Peru,Midwest,13 or older,no,2021-03-24_18h51.38.387,empathy_intonation_perc,2020.2.10,Win32,60,,,,,,,,,,1,,,,,,,,,,,,,,,,,,,,,,,,,,,,,,,,,,,,,,,,77,tiburn,,,1,1,1.15898,0,50,50,76,1,REAL,FAKE,,,,,,,,,,,,,,,,,,,,,
,,,,,,,5c049e9bad9a9700011b877b,605b45a4d25f287719a41696,605bc2319a6e369a96541e9e,Peru,Midwest,13 or older,no,2021-03-24_18h51.38.387,empathy_intonation_perc,2020.2.10,Win32,60,,,,,,,,,,1,,,,,,,,,,,,,,,,,,,,,,,,,,,,,,,,,,,,,,,,55,nevar,,,1,1,0.717775,0,51,51,54,1,REAL,FAKE,,,,,,,,,,,,,,,,,,,,,
,,,,,,,5c049e9bad9a9700011b877b,605b45a4d25f287719a41696,605bc2319a6e369a96541e9e,Peru,Midwest,13 or older,no,2021-03-24_18h51.38.387,empathy_intonation_perc,2020.2.10,Win32,60,,,,,,,,,,1,,,,,,,,,,,,,,,,,,,,,,,,,,,,,,,,,,,,,,,,11,cenefa,,,0,0,0.744855,0,52,52,10,1,REAL,FAKE,,,,,,,,,,,,,,,,,,,,,
,,,,,,,5c049e9bad9a9700011b877b,605b45a4d25f287719a41696,605bc2319a6e369a96541e9e,Peru,Midwest,13 or older,no,2021-03-24_18h51.38.387,empathy_intonation_perc,2020.2.10,Win32,60,,,,,,,,,,0,,,,,,,,,,,,,,,,,,,,,,,,,,,,,,,,,,,,,,,,4,batilln,,,1,0,0.87146,0,53,53,3,1,REAL,FAKE,,,,,,,,,,,,,,,,,,,,,
,,,,,,,5c049e9bad9a9700011b877b,605b45a4d25f287719a41696,605bc2319a6e369a96541e9e,Peru,Midwest,13 or older,no,2021-03-24_18h51.38.387,empathy_intonation_perc,2020.2.10,Win32,60,,,,,,,,,,0,,,,,,,,,,,,,,,,,,,,,,,,,,,,,,,,,,,,,,,,8,cadea,,,1,0,1.10954,0,54,54,7,1,REAL,FAKE,,,,,,,,,,,,,,,,,,,,,
,,,,,,,5c049e9bad9a9700011b877b,605b45a4d25f287719a41696,605bc2319a6e369a96541e9e,Peru,Midwest,13 or older,no,2021-03-24_18h51.38.387,empathy_intonation_perc,2020.2.10,Win32,60,,,,,,,,,,1,,,,,,,,,,,,,,,,,,,,,,,,,,,,,,,,,,,,,,,,73,hervidor,,,0,0,0.668955,0,55,55,72,1,REAL,FAKE,,,,,,,,,,,,,,,,,,,,,
,,,,,,,5c049e9bad9a9700011b877b,605b45a4d25f287719a41696,605bc2319a6e369a96541e9e,Peru,Midwest,13 or older,no,2021-03-24_18h51.38.387,empathy_intonation_perc,2020.2.10,Win32,60,,,,,,,,,,0,,,,,,,,,,,,,,,,,,,,,,,,,,,,,,,,,,,,,,,,1,terzo,,,1,0,0.71748,0,56,56,0,1,REAL,FAKE,,,,,,,,,,,,,,,,,,,,,
,,,,,,,5c049e9bad9a9700011b877b,605b45a4d25f287719a41696,605bc2319a6e369a96541e9e,Peru,Midwest,13 or older,no,2021-03-24_18h51.38.387,empathy_intonation_perc,2020.2.10,Win32,60,,,,,,,,,,1,,,,,,,,,,,,,,,,,,,,,,,,,,,,,,,,,,,,,,,,89,prisa,,,1,1,0.705775,0,57,57,88,1,REAL,FAKE,,,,,,,,,,,,,,,,,,,,,
,,,,,,,5c049e9bad9a9700011b877b,605b45a4d25f287719a41696,605bc2319a6e369a96541e9e,Peru,Midwest,13 or older,no,2021-03-24_18h51.38.387,empathy_intonation_perc,2020.2.10,Win32,60,,,,,,,,,,1,,,,,,,,,,,,,,,,,,,,,,,,,,,,,,,,,,,,,,,,41,rebuscar,,,0,0,0.92172,0,58,58,40,1,REAL,FAKE,,,,,,,,,,,,,,,,,,,,,
,,,,,,,5c049e9bad9a9700011b877b,605b45a4d25f287719a41696,605bc2319a6e369a96541e9e,Peru,Midwest,13 or older,no,2021-03-24_18h51.38.387,empathy_intonation_perc,2020.2.10,Win32,60,,,,,,,,,,0,,,,,,,,,,,,,,,,,,,,,,,,,,,,,,,,,,,,,,,,42,cadallo,,,0,1,0.855065,0,59,59,41,1,REAL,FAKE,,,,,,,,,,,,,,,,,,,,,
,,,,,,,5c049e9bad9a9700011b877b,605b45a4d25f287719a41696,605bc2319a6e369a96541e9e,Peru,Midwest,13 or older,no,2021-03-24_18h51.38.387,empathy_intonation_perc,2020.2.10,Win32,60,,,,,,,,,,1,,,,,,,,,,,,,,,,,,,,,,,,,,,,,,,,,,,,,,,,46,martillo,,,0,0,0.795135,0,60,60,45,1,REAL,FAKE,,,,,,,,,,,,,,,,,,,,,
,,,,,,,5c049e9bad9a9700011b877b,605b45a4d25f287719a41696,605bc2319a6e369a96541e9e,Peru,Midwest,13 or older,no,2021-03-24_18h51.38.387,empathy_intonation_perc,2020.2.10,Win32,60,,,,,,,,,,1,,,,,,,,,,,,,,,,,,,,,,,,,,,,,,,,,,,,,,,,54,fomentar,,,0,0,0.76134,0,61,61,53,1,REAL,FAKE,,,,,,,,,,,,,,,,,,,,,
,,,,,,,5c049e9bad9a9700011b877b,605b45a4d25f287719a41696,605bc2319a6e369a96541e9e,Peru,Midwest,13 or older,no,2021-03-24_18h51.38.387,empathy_intonation_perc,2020.2.10,Win32,60,,,,,,,,,,1,,,,,,,,,,,,,,,,,,,,,,,,,,,,,,,,,,,,,,,,76,atar,,,0,0,0.779645,0,62,62,75,1,REAL,FAKE,,,,,,,,,,,,,,,,,,,,,
,,,,,,,5c049e9bad9a9700011b877b,605b45a4d25f287719a41696,605bc2319a6e369a96541e9e,Peru,Midwest,13 or older,no,2021-03-24_18h51.38.387,empathy_intonation_perc,2020.2.10,Win32,60,,,,,,,,,,1,,,,,,,,,,,,,,,,,,,,,,,,,,,,,,,,,,,,,,,,51,candado,,,0,0,0.81788,0,63,63,50,1,REAL,FAKE,,,,,,,,,,,,,,,,,,,,,
,,,,,,,5c049e9bad9a9700011b877b,605b45a4d25f287719a41696,605bc2319a6e369a96541e9e,Peru,Midwest,13 or older,no,2021-03-24_18h51.38.387,empathy_intonation_perc,2020.2.10,Win32,60,,,,,,,,,,1,,,,,,,,,,,,,,,,,,,,,,,,,,,,,,,,,,,,,,,,61,seda,,,1,1,0.633955,0,64,64,60,1,REAL,FAKE,,,,,,,,,,,,,,,,,,,,,
,,,,,,,5c049e9bad9a9700011b877b,605b45a4d25f287719a41696,605bc2319a6e369a96541e9e,Peru,Midwest,13 or older,no,2021-03-24_18h51.38.387,empathy_intonation_perc,2020.2.10,Win32,60,,,,,,,,,,1,,,,,,,,,,,,,,,,,,,,,,,,,,,,,,,,,,,,,,,,75,yacer,,,0,0,0.73425,0,65,65,74,1,REAL,FAKE,,,,,,,,,,,,,,,,,,,,,
,,,,,,,5c049e9bad9a9700011b877b,605b45a4d25f287719a41696,605bc2319a6e369a96541e9e,Peru,Midwest,13 or older,no,2021-03-24_18h51.38.387,empathy_intonation_perc,2020.2.10,Win32,60,,,,,,,,,,0,,,,,,,,,,,,,,,,,,,,,,,,,,,,,,,,,,,,,,,,84,escuto,,,0,1,0.784045,0,66,66,83,1,REAL,FAKE,,,,,,,,,,,,,,,,,,,,,
,,,,,,,5c049e9bad9a9700011b877b,605b45a4d25f287719a41696,605bc2319a6e369a96541e9e,Peru,Midwest,13 or older,no,2021-03-24_18h51.38.387,empathy_intonation_perc,2020.2.10,Win32,60,,,,,,,,,,0,,,,,,,,,,,,,,,,,,,,,,,,,,,,,,,,,,,,,,,,21,capillo,,,0,1,1.310935,0,67,67,20,1,REAL,FAKE,,,,,,,,,,,,,,,,,,,,,
,,,,,,,5c049e9bad9a9700011b877b,605b45a4d25f287719a41696,605bc2319a6e369a96541e9e,Peru,Midwest,13 or older,no,2021-03-24_18h51.38.387,empathy_intonation_perc,2020.2.10,Win32,60,,,,,,,,,,0,,,,,,,,,,,,,,,,,,,,,,,,,,,,,,,,,,,,,,,,82,empirador,,,1,0,1.408755,0,68,68,81,1,REAL,FAKE,,,,,,,,,,,,,,,,,,,,,
,,,,,,,5c049e9bad9a9700011b877b,605b45a4d25f287719a41696,605bc2319a6e369a96541e9e,Peru,Midwest,13 or older,no,2021-03-24_18h51.38.387,empathy_intonation_perc,2020.2.10,Win32,60,,,,,,,,,,1,,,,,,,,,,,,,,,,,,,,,,,,,,,,,,,,,,,,,,,,3,pulmones,,,1,1,0.74167,0,69,69,2,1,REAL,FAKE,,,,,,,,,,,,,,,,,,,,,
,,,,,,,5c049e9bad9a9700011b877b,605b45a4d25f287719a41696,605bc2319a6e369a96541e9e,Peru,Midwest,13 or older,no,2021-03-24_18h51.38.387,empathy_intonation_perc,2020.2.10,Win32,60,,,,,,,,,,1,,,,,,,,,,,,,,,,,,,,,,,,,,,,,,,,,,,,,,,,28,merodear,,,0,0,1.012825,0,70,70,27,1,REAL,FAKE,,,,,,,,,,,,,,,,,,,,,
,,,,,,,5c049e9bad9a9700011b877b,605b45a4d25f287719a41696,605bc2319a6e369a96541e9e,Peru,Midwest,13 or older,no,2021-03-24_18h51.38.387,empathy_intonation_perc,2020.2.10,Win32,60,,,,,,,,,,0,,,,,,,,,,,,,,,,,,,,,,,,,,,,,,,,,,,,,,,,87,grodo,,,0,1,0.81304,0,71,71,86,1,REAL,FAKE,,,,,,,,,,,,,,,,,,,,,
,,,,,,,5c049e9bad9a9700011b877b,605b45a4d25f287719a41696,605bc2319a6e369a96541e9e,Peru,Midwest,13 or older,no,2021-03-24_18h51.38.387,empathy_intonation_perc,2020.2.10,Win32,60,,,,,,,,,,1,,,,,,,,,,,,,,,,,,,,,,,,,,,,,,,,,,,,,,,,38,estornudar,,,1,1,0.90769,0,72,72,37,1,REAL,FAKE,,,,,,,,,,,,,,,,,,,,,
,,,,,,,5c049e9bad9a9700011b877b,605b45a4d25f287719a41696,605bc2319a6e369a96541e9e,Peru,Midwest,13 or older,no,2021-03-24_18h51.38.387,empathy_intonation_perc,2020.2.10,Win32,60,,,,,,,,,,1,,,,,,,,,,,,,,,,,,,,,,,,,,,,,,,,,,,,,,,,12,asesinato,,,1,1,1.118355,0,73,73,11,1,REAL,FAKE,,,,,,,,,,,,,,,,,,,,,
,,,,,,,5c049e9bad9a9700011b877b,605b45a4d25f287719a41696,605bc2319a6e369a96541e9e,Peru,Midwest,13 or older,no,2021-03-24_18h51.38.387,empathy_intonation_perc,2020.2.10,Win32,60,,,,,,,,,,1,,,,,,,,,,,,,,,,,,,,,,,,,,,,,,,,,,,,,,,,68,alegre,,,1,1,0.594915,0,74,74,67,1,REAL,FAKE,,,,,,,,,,,,,,,,,,,,,
,,,,,,,5c049e9bad9a9700011b877b,605b45a4d25f287719a41696,605bc2319a6e369a96541e9e,Peru,Midwest,13 or older,no,2021-03-24_18h51.38.387,empathy_intonation_perc,2020.2.10,Win32,60,,,,,,,,,,1,,,,,,,,,,,,,,,,,,,,,,,,,,,,,,,,,,,,,,,,24,ltigo,,,0,0,0.73478,0,75,75,23,1,REAL,FAKE,,,,,,,,,,,,,,,,,,,,,
,,,,,,,5c049e9bad9a9700011b877b,605b45a4d25f287719a41696,605bc2319a6e369a96541e9e,Peru,Midwest,13 or older,no,2021-03-24_18h51.38.387,empathy_intonation_perc,2020.2.10,Win32,60,,,,,,,,,,1,,,,,,,,,,,,,,,,,,,,,,,,,,,,,,,,,,,,,,,,80,hormiga,,,1,1,0.77691,0,76,76,79,1,REAL,FAKE,,,,,,,,,,,,,,,,,,,,,
,,,,,,,5c049e9bad9a9700011b877b,605b45a4d25f287719a41696,605bc2319a6e369a96541e9e,Peru,Midwest,13 or older,no,2021-03-24_18h51.38.387,empathy_intonation_perc,2020.2.10,Win32,60,,,,,,,,,,1,,,,,,,,,,,,,,,,,,,,,,,,,,,,,,,,,,,,,,,,57,tacao,,,1,1,1.040235,0,77,77,56,1,REAL,FAKE,,,,,,,,,,,,,,,,,,,,,
,,,,,,,5c049e9bad9a9700011b877b,605b45a4d25f287719a41696,605bc2319a6e369a96541e9e,Peru,Midwest,13 or older,no,2021-03-24_18h51.38.387,empathy_intonation_perc,2020.2.10,Win32,60,,,,,,,,,,1,,,,,,,,,,,,,,,,,,,,,,,,,,,,,,,,,,,,,,,,26,secuestro,,,1,1,0.696885,0,78,78,25,1,REAL,FAKE,,,,,,,,,,,,,,,,,,,,,
,,,,,,,5c049e9bad9a9700011b877b,605b45a4d25f287719a41696,605bc2319a6e369a96541e9e,Peru,Midwest,13 or older,no,2021-03-24_18h51.38.387,empathy_intonation_perc,2020.2.10,Win32,60,,,,,,,,,,0,,,,,,,,,,,,,,,,,,,,,,,,,,,,,,,,,,,,,,,,74,cintro,,,1,0,0.712035,0,79,79,73,1,REAL,FAKE,,,,,,,,,,,,,,,,,,,,,
,,,,,,,5c049e9bad9a9700011b877b,605b45a4d25f287719a41696,605bc2319a6e369a96541e9e,Peru,Midwest,13 or older,no,2021-03-24_18h51.38.387,empathy_intonation_perc,2020.2.10,Win32,60,,,,,,,,,,0,,,,,,,,,,,,,,,,,,,,,,,,,,,,,,,,,,,,,,,,58,plaudir,,,0,1,0.617745,0,80,80,57,1,REAL,FAKE,,,,,,,,,,,,,,,,,,,,,
,,,,,,,5c049e9bad9a9700011b877b,605b45a4d25f287719a41696,605bc2319a6e369a96541e9e,Peru,Midwest,13 or older,no,2021-03-24_18h51.38.387,empathy_intonation_perc,2020.2.10,Win32,60,,,,,,,,,,1,,,,,,,,,,,,,,,,,,,,,,,,,,,,,,,,,,,,,,,,69,engatusar,,,0,0,1.04523,0,81,81,68,1,REAL,FAKE,,,,,,,,,,,,,,,,,,,,,
,,,,,,,5c049e9bad9a9700011b877b,605b45a4d25f287719a41696,605bc2319a6e369a96541e9e,Peru,Midwest,13 or older,no,2021-03-24_18h51.38.387,empathy_intonation_perc,2020.2.10,Win32,60,,,,,,,,,,1,,,,,,,,,,,,,,,,,,,,,,,,,,,,,,,,,,,,,,,,36,loro,,,1,1,0.594845,0,82,82,35,1,REAL,FAKE,,,,,,,,,,,,,,,,,,,,,
,,,,,,,5c049e9bad9a9700011b877b,605b45a4d25f287719a41696,605bc2319a6e369a96541e9e,Peru,Midwest,13 or older,no,2021-03-24_18h51.38.387,empathy_intonation_perc,2020.2.10,Win32,60,,,,,,,,,,1,,,,,,,,,,,,,,,,,,,,,,,,,,,,,,,,,,,,,,,,86,barato,,,1,1,0.626155,0,83,83,85,1,REAL,FAKE,,,,,,,,,,,,,,,,,,,,,
,,,,,,,5c049e9bad9a9700011b877b,605b45a4d25f287719a41696,605bc2319a6e369a96541e9e,Peru,Midwest,13 or older,no,2021-03-24_18h51.38.387,empathy_intonation_perc,2020.2.10,Win32,60,,,,,,,,,,1,,,,,,,,,,,,,,,,,,,,,,,,,,,,,,,,,,,,,,,,81,pozo,,,1,1,0.66771,0,84,84,80,1,REAL,FAKE,,,,,,,,,,,,,,,,,,,,,
,,,,,,,5c049e9bad9a9700011b877b,605b45a4d25f287719a41696,605bc2319a6e369a96541e9e,Peru,Midwest,13 or older,no,2021-03-24_18h51.38.387,empathy_intonation_perc,2020.2.10,Win32,60,,,,,,,,,,1,,,,,,,,,,,,,,,,,,,,,,,,,,,,,,,,,,,,,,,,67,cabello,,,1,1,0.644905,0,85,85,66,1,REAL,FAKE,,,,,,,,,,,,,,,,,,,,,
,,,,,,,5c049e9bad9a9700011b877b,605b45a4d25f287719a41696,605bc2319a6e369a96541e9e,Peru,Midwest,13 or older,no,2021-03-24_18h51.38.387,empathy_intonation_perc,2020.2.10,Win32,60,,,,,,,,,,1,,,,,,,,,,,,,,,,,,,,,,,,,,,,,,,,,,,,,,,,52,camisa,,,1,1,0.635045,0,86,86,51,1,REAL,FAKE,,,,,,,,,,,,,,,,,,,,,
,,,,,,,5c049e9bad9a9700011b877b,605b45a4d25f287719a41696,605bc2319a6e369a96541e9e,Peru,Midwest,13 or older,no,2021-03-24_18h51.38.387,empathy_intonation_perc,2020.2.10,Win32,60,,,,,,,,,,1,,,,,,,,,,,,,,,,,,,,,,,,,,,,,,,,,,,,,,,,90,clavel,,,1,1,0.801305,0,87,87,89,1,REAL,FAKE,,,,,,,,,,,,,,,,,,,,,
,,,,,,,5c049e9bad9a9700011b877b,605b45a4d25f287719a41696,605bc2319a6e369a96541e9e,Peru,Midwest,13 or older,no,2021-03-24_18h51.38.387,empathy_intonation_perc,2020.2.10,Win32,60,,,,,,,,,,1,,,,,,,,,,,,,,,,,,,,,,,,,,,,,,,,,,,,,,,,85,lad,,,0,0,0.7212,0,88,88,84,1,REAL,FAKE,,,,,,,,,,,,,,,,,,,,,
,,,,,,,5c049e9bad9a9700011b877b,605b45a4d25f287719a41696,605bc2319a6e369a96541e9e,Peru,Midwest,13 or older,no,2021-03-24_18h51.38.387,empathy_intonation_perc,2020.2.10,Win32,60,,,,,,,,,,0,,,,,,,,,,,,,,,,,,,,,,,,,,,,,,,,,,,,,,,,66,hacido,,,1,0,0.768645,0,89,89,65,1,REAL,FAKE,,,,,,,,,,,,,,,,,,,,,
,,,,,,,5c049e9bad9a9700011b877b,605b45a4d25f287719a41696,605bc2319a6e369a96541e9e,Peru,Midwest,13 or older,no,2021-03-24_18h51.38.387,empathy_intonation_perc,2020.2.10,Win32,60,,,,,,,,,,,,,,,,,,,,,,,,,,,,,,,,,,,,,,,,,,,,,,,,,,,,,,,,,,,,,,,,4,1,2.609305,1,0,0,0,0,0,1,,,,,,,,,,,
,,,,,,,5c049e9bad9a9700011b877b,605b45a4d25f287719a41696,605bc2319a6e369a96541e9e,Peru,Midwest,13 or older,no,2021-03-24_18h51.38.387,empathy_intonation_perc,2020.2.10,Win32,60,,,,,,,,,,,,,,,,,,,,1,,,,,,,,,,,,,,,,,,,,,,,,,,,,,,,,,,,,,,,,,,,,,,,,,,,,,,2,0,0,0,0,1,I can easily tell if someone else wants to enter a conversation.,1,0,1,0
,,,,,,,5c049e9bad9a9700011b877b,605b45a4d25f287719a41696,605bc2319a6e369a96541e9e,Peru,Midwest,13 or older,no,2021-03-24_18h51.38.387,empathy_intonation_perc,2020.2.10,Win32,60,,,,,,,,,,,,,,,,,,,,2,,,,,,,,,,,,,,,,,,,,,,,,,,,,,,,,,,,,,,,,,,,,,,,,,,,,,,4,0,1,1,1,1,I prefer animals to humans.,0,1,0,0
,,,,,,,5c049e9bad9a9700011b877b,605b45a4d25f287719a41696,605bc2319a6e369a96541e9e,Peru,Midwest,13 or older,no,2021-03-24_18h51.38.387,empathy_intonation_perc,2020.2.10,Win32,60,,,,,,,,,,,,,,,,,,,,3,,,,,,,,,,,,,,,,,,,,,,,,,,,,,,,,,,,,,,,,,,,,,,,,,,,,,,2,0,2,2,2,1,I try to keep up with the current trends and fashions.,0,1,0,0
,,,,,,,5c049e9bad9a9700011b877b,605b45a4d25f287719a41696,605bc2319a6e369a96541e9e,Peru,Midwest,13 or older,no,2021-03-24_18h51.38.387,empathy_intonation_perc,2020.2.10,Win32,60,,,,,,,,,,,,,,,,,,,,4,,,,,,,,,,,,,,,,,,,,,,,,,,,,,,,,,,,,,,,,,,,,,,,,,,,,,,3,0,3,3,3,1,"I find it difficult to explain to others things that I understand easily, 
  when they dont understand it first time.",1,0,0,1
,,,,,,,5c049e9bad9a9700011b877b,605b45a4d25f287719a41696,605bc2319a6e369a96541e9e,Peru,Midwest,13 or older,no,2021-03-24_18h51.38.387,empathy_intonation_perc,2020.2.10,Win32,60,,,,,,,,,,,,,,,,,,,,5,,,,,,,,,,,,,,,,,,,,,,,,,,,,,,,,,,,,,,,,,,,,,,,,,,,,,,1,0,4,4,4,1,I dream most nights.,0,1,0,0
,,,,,,,5c049e9bad9a9700011b877b,605b45a4d25f287719a41696,605bc2319a6e369a96541e9e,Peru,Midwest,13 or older,no,2021-03-24_18h51.38.387,empathy_intonation_perc,2020.2.10,Win32,60,,,,,,,,,,,,,,,,,,,,6,,,,,,,,,,,,,,,,,,,,,,,,,,,,,,,,,,,,,,,,,,,,,,,,,,,,,,1,0,5,5,5,1,I really enjoy caring for other people.,1,0,1,0
,,,,,,,5c049e9bad9a9700011b877b,605b45a4d25f287719a41696,605bc2319a6e369a96541e9e,Peru,Midwest,13 or older,no,2021-03-24_18h51.38.387,empathy_intonation_perc,2020.2.10,Win32,60,,,,,,,,,,,,,,,,,,,,7,,,,,,,,,,,,,,,,,,,,,,,,,,,,,,,,,,,,,,,,,,,,,,,,,,,,,,3,0,6,6,6,1,I try to solve my own problems rather than discussing them with others.,0,1,0,0
,,,,,,,5c049e9bad9a9700011b877b,605b45a4d25f287719a41696,605bc2319a6e369a96541e9e,Peru,Midwest,13 or older,no,2021-03-24_18h51.38.387,empathy_intonation_perc,2020.2.10,Win32,60,,,,,,,,,,,,,,,,,,,,8,,,,,,,,,,,,,,,,,,,,,,,,,,,,,,,,,,,,,,,,,,,,,,,,,,,,,,4,0,7,7,7,1,I find it hard to know what to do in a social situation.,1,0,0,1
,,,,,,,5c049e9bad9a9700011b877b,605b45a4d25f287719a41696,605bc2319a6e369a96541e9e,Peru,Midwest,13 or older,no,2021-03-24_18h51.38.387,empathy_intonation_perc,2020.2.10,Win32,60,,,,,,,,,,,,,,,,,,,,9,,,,,,,,,,,,,,,,,,,,,,,,,,,,,,,,,,,,,,,,,,,,,,,,,,,,,,3,0,8,8,8,1,I am at my best first thing in the morning.,0,1,0,0
,,,,,,,5c049e9bad9a9700011b877b,605b45a4d25f287719a41696,605bc2319a6e369a96541e9e,Peru,Midwest,13 or older,no,2021-03-24_18h51.38.387,empathy_intonation_perc,2020.2.10,Win32,60,,,,,,,,,,,,,,,,,,,,10,,,,,,,,,,,,,,,,,,,,,,,,,,,,,,,,,,,,,,,,,,,,,,,,,,,,,,2,0,9,9,9,1,"People often tell me that I went too far in driving my point home in a 
  discussion.",1,0,0,1
