instructions_2afc_loop.thisRepN,instructions_2afc_loop.thisTrialN,instructions_2afc_loop.thisN,instructions_2afc_loop.thisIndex,instructions_2afc_loop.ran,instructions_text,continue_text,participant,study_id,session,I am most familiar with Spanish from...*,What part of the US are you from?*,At what age did you begin learning Spanish?*,Are you proficient in any languages other than English/Spanish?*,date,expName,psychopyVersion,OS,frameRate,key_resp_2afc_practice.keys,key_resp_2afc_practice.corr,key_resp_2afc_practice.rt,trials_2afc_practice_loop.thisRepN,trials_2afc_practice_loop.thisTrialN,trials_2afc_practice_loop.thisN,trials_2afc_practice_loop.thisIndex,trials_2afc_practice_loop.ran,path,correct_response,the_col,key_resp_2afc_trial.keys,key_resp_2afc_trial.corr,key_resp_2afc_trial.rt,trials_2afc_loop.thisRepN,trials_2afc_loop.thisTrialN,trials_2afc_loop.thisN,trials_2afc_loop.thisIndex,trials_2afc_loop.ran,item_num,andalusian,argentine,castilian,chilean,cuban,mexican,peruvian,puertorican,key_resp_ac1.keys,key_resp_ac1.corr,key_resp_ac1.rt,ac1_loop.thisRepN,ac1_loop.thisTrialN,ac1_loop.thisN,ac1_loop.thisIndex,ac1_loop.ran,instructions_lextale_loop.thisRepN,instructions_lextale_loop.thisTrialN,instructions_lextale_loop.thisN,instructions_lextale_loop.thisIndex,instructions_lextale_loop.ran,key_resp_lextale_practice.keys,key_resp_lextale_practice.corr,key_resp_lextale_practice.rt,trials_lextale_practice_loop.thisRepN,trials_lextale_practice_loop.thisTrialN,trials_lextale_practice_loop.thisN,trials_lextale_practice_loop.thisIndex,trials_lextale_practice_loop.ran,stim,word,prac_button_real,prac_button_false,key_resp_lextale_trial.keys,key_resp_lextale_trial.corr,key_resp_lextale_trial.rt,trials_lextale_loop.thisRepN,trials_lextale_loop.thisTrialN,trials_lextale_loop.thisN,trials_lextale_loop.thisIndex,trials_lextale_loop.ran,button_real,button_false,key_resp_ac2.keys,key_resp_ac2.corr,key_resp_ac2.rt,check_pass,check_fails,ac2_loop.thisRepN,ac2_loop.thisTrialN,ac2_loop.thisN,ac2_loop.thisIndex,ac2_loop.ran,slider_eq_trial.response,trials_eq_loop.thisRepN,trials_eq_loop.thisTrialN,trials_eq_loop.thisN,trials_eq_loop.thisIndex,trials_eq_loop.ran,item,is_test_item,is_distractor,is_agree_score,is_disagree_score
0,0,0,0,1,"In the following task you are going to hear a series of utterances. 

  You will decide if the utterances sound like questions or not using your keyboard.",(press the spacebar to continue),5c1919fbd9241d0001363964,605b45a4d25f287719a41696,605f784bf424f86e11f24bac,I am not familiar with Spanish,Midwest,13 or older,no,2021-03-27_13h25.30.133,empathy_intonation_perc,2020.2.10,Linux x86_64,60,,,,,,,,,,,,,,,,,,,,,,,,,,,,,,,,,,,,,,,,,,,,,,,,,,,,,,,,,,,,,,,,,,,,,,,,,,,,,,,,,,,,
0,1,1,1,1,"If you believe the utterance is a question, type '1' (for 'yes') and if you do not 
  believe it is a question type '0' (for 'no').

  Let's practice a bit...",(press the spacebar to continue),5c1919fbd9241d0001363964,605b45a4d25f287719a41696,605f784bf424f86e11f24bac,I am not familiar with Spanish,Midwest,13 or older,no,2021-03-27_13h25.30.133,empathy_intonation_perc,2020.2.10,Linux x86_64,60,,,,,,,,,,,,,,,,,,,,,,,,,,,,,,,,,,,,,,,,,,,,,,,,,,,,,,,,,,,,,,,,,,,,,,,,,,,,,,,,,,,,
,,,,,,,5c1919fbd9241d0001363964,605b45a4d25f287719a41696,605f784bf424f86e11f24bac,I am not familiar with Spanish,Midwest,13 or older,no,2021-03-27_13h25.30.133,empathy_intonation_perc,2020.2.10,Linux x86_64,60,0,1,2.94793,0,0,0,7,1,./stim/wavs/puertorican_statement_filler_La-nina-pinta-con-su-amiga.wav,0,,,,,,,,,,,,,,,,,,,,,,,,,,,,,,,,,,,,,,,,,,,,,,,,,,,,,,,,,,,,,,,,,,,,,,,,,,
,,,,,,,5c1919fbd9241d0001363964,605b45a4d25f287719a41696,605f784bf424f86e11f24bac,I am not familiar with Spanish,Midwest,13 or older,no,2021-03-27_13h25.30.133,empathy_intonation_perc,2020.2.10,Linux x86_64,60,1,1,2.28458,0,1,1,2,1,./stim/wavs/chilean_question_filler_Mi-padre-cantaba-bien.wav,1,,,,,,,,,,,,,,,,,,,,,,,,,,,,,,,,,,,,,,,,,,,,,,,,,,,,,,,,,,,,,,,,,,,,,,,,,,
,,,,,,,5c1919fbd9241d0001363964,605b45a4d25f287719a41696,605f784bf424f86e11f24bac,I am not familiar with Spanish,Midwest,13 or older,no,2021-03-27_13h25.30.133,empathy_intonation_perc,2020.2.10,Linux x86_64,60,0,1,2.512785,0,2,2,4,1,./stim/wavs/cuban_statement_filler_Cocinabas-por-la-noche.wav,0,,,,,,,,,,,,,,,,,,,,,,,,,,,,,,,,,,,,,,,,,,,,,,,,,,,,,,,,,,,,,,,,,,,,,,,,,,
,,,,,,,5c1919fbd9241d0001363964,605b45a4d25f287719a41696,605f784bf424f86e11f24bac,I am not familiar with Spanish,Midwest,13 or older,no,2021-03-27_13h25.30.133,empathy_intonation_perc,2020.2.10,Linux x86_64,60,1,1,2.337235,0,3,3,0,1,./stim/wavs/castilian_question_filler_Mi-esposo-conoce-al-chico.wav,1,,,,,,,,,,,,,,,,,,,,,,,,,,,,,,,,,,,,,,,,,,,,,,,,,,,,,,,,,,,,,,,,,,,,,,,,,,
,,,,,,,5c1919fbd9241d0001363964,605b45a4d25f287719a41696,605f784bf424f86e11f24bac,I am not familiar with Spanish,Midwest,13 or older,no,2021-03-27_13h25.30.133,empathy_intonation_perc,2020.2.10,Linux x86_64,60,0,1,2.949555,0,4,4,5,1,./stim/wavs/andalusian_statement_filler_Alberto-nunca-se-afeita.wav,0,,,,,,,,,,,,,,,,,,,,,,,,,,,,,,,,,,,,,,,,,,,,,,,,,,,,,,,,,,,,,,,,,,,,,,,,,,
,,,,,,,5c1919fbd9241d0001363964,605b45a4d25f287719a41696,605f784bf424f86e11f24bac,I am not familiar with Spanish,Midwest,13 or older,no,2021-03-27_13h25.30.133,empathy_intonation_perc,2020.2.10,Linux x86_64,60,0,1,2.61796,0,5,5,6,1,./stim/wavs/peruvian_statement_filler_El-nino-habla-con-su-madre.wav,0,,,,,,,,,,,,,,,,,,,,,,,,,,,,,,,,,,,,,,,,,,,,,,,,,,,,,,,,,,,,,,,,,,,,,,,,,,
,,,,,,,5c1919fbd9241d0001363964,605b45a4d25f287719a41696,605f784bf424f86e11f24bac,I am not familiar with Spanish,Midwest,13 or older,no,2021-03-27_13h25.30.133,empathy_intonation_perc,2020.2.10,Linux x86_64,60,1,1,1.78172,0,6,6,1,1,./stim/wavs/argentine_question_filler_Mi-vecino-habla-mucho.wav,1,,,,,,,,,,,,,,,,,,,,,,,,,,,,,,,,,,,,,,,,,,,,,,,,,,,,,,,,,,,,,,,,,,,,,,,,,,
,,,,,,,5c1919fbd9241d0001363964,605b45a4d25f287719a41696,605f784bf424f86e11f24bac,I am not familiar with Spanish,Midwest,13 or older,no,2021-03-27_13h25.30.133,empathy_intonation_perc,2020.2.10,Linux x86_64,60,1,1,3.05859,0,7,7,3,1,./stim/wavs/mexican_question_filler_Felipe-no-tiene-contrasena.wav,1,,,,,,,,,,,,,,,,,,,,,,,,,,,,,,,,,,,,,,,,,,,,,,,,,,,,,,,,,,,,,,,,,,,,,,,,,,
,,,,,,,5c1919fbd9241d0001363964,605b45a4d25f287719a41696,605f784bf424f86e11f24bac,I am not familiar with Spanish,Midwest,13 or older,no,2021-03-27_13h25.30.133,empathy_intonation_perc,2020.2.10,Linux x86_64,60,,,,,,,,,,0,cuban,0,1,1.42536,0,0,0,33,1,34,./stim/wavs/andalusian_mismatch_declarative-broad-focus_El-hombre-mira-la-luna.wav,./stim/wavs/argentine_mismatch_declarative-broad-focus_El-hombre-mira-la-luna.wav,./stim/wavs/castilian_mismatch_declarative-broad-focus_El-hombre-mira-la-luna.wav,./stim/wavs/chilean_mismatch_declarative-broad-focus_El-hombre-mira-la-luna.wav,./stim/wavs/cuban_mismatch_declarative-broad-focus_El-hombre-mira-la-luna.wav,./stim/wavs/mexican_mismatch_declarative-broad-focus_El-hombre-mira-la-luna.wav,./stim/wavs/peruvian_mismatch_declarative-broad-focus_El-hombre-mira-la-luna.wav,./stim/wavs/puertorican_mismatch_declarative-broad-focus_El-hombre-mira-la-luna.wav,,,,,,,,,,,,,,,,,,,,,,,,,,,,,,,,,,,,,,,,,,,,,,,,,,,,,,,,
,,,,,,,5c1919fbd9241d0001363964,605b45a4d25f287719a41696,605f784bf424f86e11f24bac,I am not familiar with Spanish,Midwest,13 or older,no,2021-03-27_13h25.30.133,empathy_intonation_perc,2020.2.10,Linux x86_64,60,,,,,,,,,,1,cuban,0,0,1.92169,0,1,1,59,1,60,./stim/wavs/andalusian_mismatch_interrogative-total-yn_La-maestra-vive-en-Paris.wav,./stim/wavs/argentine_mismatch_interrogative-total-yn_La-maestra-vive-en-Paris.wav,./stim/wavs/castilian_mismatch_interrogative-total-yn_La-maestra-vive-en-Paris.wav,./stim/wavs/chilean_mismatch_interrogative-total-yn_La-maestra-vive-en-Paris.wav,./stim/wavs/cuban_mismatch_interrogative-total-yn_La-maestra-vive-en-Paris.wav,./stim/wavs/mexican_mismatch_interrogative-total-yn_La-maestra-vive-en-Paris.wav,./stim/wavs/peruvian_mismatch_interrogative-total-yn_La-maestra-vive-en-Paris.wav,./stim/wavs/puertorican_mismatch_interrogative-total-yn_La-maestra-vive-en-Paris.wav,,,,,,,,,,,,,,,,,,,,,,,,,,,,,,,,,,,,,,,,,,,,,,,,,,,,,,,,
,,,,,,,5c1919fbd9241d0001363964,605b45a4d25f287719a41696,605f784bf424f86e11f24bac,I am not familiar with Spanish,Midwest,13 or older,no,2021-03-27_13h25.30.133,empathy_intonation_perc,2020.2.10,Linux x86_64,60,,,,,,,,,,1,argentine,1,1,1.523075,0,2,2,53,1,54,./stim/wavs/andalusian_mismatch_interrogative-partial-wh_Por-que-oia-el-rio.wav,./stim/wavs/argentine_mismatch_interrogative-partial-wh_Por-que-oia-el-rio.wav,./stim/wavs/castilian_mismatch_interrogative-partial-wh_Por-que-oia-el-rio.wav,./stim/wavs/chilean_mismatch_interrogative-partial-wh_Por-que-oia-el-rio.wav,./stim/wavs/cuban_mismatch_interrogative-partial-wh_Por-que-oia-el-rio.wav,./stim/wavs/mexican_mismatch_interrogative-partial-wh_Por-que-oia-el-rio.wav,./stim/wavs/peruvian_mismatch_interrogative-partial-wh_Por-que-oia-el-rio.wav,./stim/wavs/puertorican_mismatch_interrogative-partial-wh_Por-que-oia-el-rio.wav,,,,,,,,,,,,,,,,,,,,,,,,,,,,,,,,,,,,,,,,,,,,,,,,,,,,,,,,
,,,,,,,5c1919fbd9241d0001363964,605b45a4d25f287719a41696,605f784bf424f86e11f24bac,I am not familiar with Spanish,Midwest,13 or older,no,2021-03-27_13h25.30.133,empathy_intonation_perc,2020.2.10,Linux x86_64,60,,,,,,,,,,0,castilian,0,1,1.71651,0,3,3,35,1,36,./stim/wavs/andalusian_mismatch_declarative-broad-focus_La-maestra-vive-en-Paris.wav,./stim/wavs/argentine_mismatch_declarative-broad-focus_La-maestra-vive-en-Paris.wav,./stim/wavs/castilian_mismatch_declarative-broad-focus_La-maestra-vive-en-Paris.wav,./stim/wavs/chilean_mismatch_declarative-broad-focus_La-maestra-vive-en-Paris.wav,./stim/wavs/cuban_mismatch_declarative-broad-focus_La-maestra-vive-en-Paris.wav,./stim/wavs/mexican_mismatch_declarative-broad-focus_La-maestra-vive-en-Paris.wav,./stim/wavs/peruvian_mismatch_declarative-broad-focus_La-maestra-vive-en-Paris.wav,./stim/wavs/puertorican_mismatch_declarative-broad-focus_La-maestra-vive-en-Paris.wav,,,,,,,,,,,,,,,,,,,,,,,,,,,,,,,,,,,,,,,,,,,,,,,,,,,,,,,,
,,,,,,,5c1919fbd9241d0001363964,605b45a4d25f287719a41696,605f784bf424f86e11f24bac,I am not familiar with Spanish,Midwest,13 or older,no,2021-03-27_13h25.30.133,empathy_intonation_perc,2020.2.10,Linux x86_64,60,,,,,,,,,,0,peruvian,0,1,1.668045,0,4,4,7,1,8,./stim/wavs/andalusian_match_declarative-broad-focus_Marta-abre-el-regalo.wav,./stim/wavs/argentine_match_declarative-broad-focus_Marta-abre-el-regalo.wav,./stim/wavs/castilian_match_declarative-broad-focus_Marta-abre-el-regalo.wav,./stim/wavs/chilean_match_declarative-broad-focus_Marta-abre-el-regalo.wav,./stim/wavs/cuban_match_declarative-broad-focus_Marta-abre-el-regalo.wav,./stim/wavs/mexican_match_declarative-broad-focus_Marta-abre-el-regalo.wav,./stim/wavs/peruvian_match_declarative-broad-focus_Marta-abre-el-regalo.wav,./stim/wavs/puertorican_match_declarative-broad-focus_Marta-abre-el-regalo.wav,,,,,,,,,,,,,,,,,,,,,,,,,,,,,,,,,,,,,,,,,,,,,,,,,,,,,,,,
,,,,,,,5c1919fbd9241d0001363964,605b45a4d25f287719a41696,605f784bf424f86e11f24bac,I am not familiar with Spanish,Midwest,13 or older,no,2021-03-27_13h25.30.133,empathy_intonation_perc,2020.2.10,Linux x86_64,60,,,,,,,,,,1,mexican,1,1,1.50663,0,5,5,52,1,53,./stim/wavs/andalusian_mismatch_interrogative-partial-wh_Por-que-odiaba-la-lluvia.wav,./stim/wavs/argentine_mismatch_interrogative-partial-wh_Por-que-odiaba-la-lluvia.wav,./stim/wavs/castilian_mismatch_interrogative-partial-wh_Por-que-odiaba-la-lluvia.wav,./stim/wavs/chilean_mismatch_interrogative-partial-wh_Por-que-odiaba-la-lluvia.wav,./stim/wavs/cuban_mismatch_interrogative-partial-wh_Por-que-odiaba-la-lluvia.wav,./stim/wavs/mexican_mismatch_interrogative-partial-wh_Por-que-odiaba-la-lluvia.wav,./stim/wavs/peruvian_mismatch_interrogative-partial-wh_Por-que-odiaba-la-lluvia.wav,./stim/wavs/puertorican_mismatch_interrogative-partial-wh_Por-que-odiaba-la-lluvia.wav,,,,,,,,,,,,,,,,,,,,,,,,,,,,,,,,,,,,,,,,,,,,,,,,,,,,,,,,
,,,,,,,5c1919fbd9241d0001363964,605b45a4d25f287719a41696,605f784bf424f86e11f24bac,I am not familiar with Spanish,Midwest,13 or older,no,2021-03-27_13h25.30.133,empathy_intonation_perc,2020.2.10,Linux x86_64,60,,,,,,,,,,1,andalusian,1,1,1.41849,0,6,6,50,1,51,./stim/wavs/andalusian_mismatch_interrogative-partial-wh_Cuando-miraba-la-luna.wav,./stim/wavs/argentine_mismatch_interrogative-partial-wh_Cuando-miraba-la-luna.wav,./stim/wavs/castilian_mismatch_interrogative-partial-wh_Cuando-miraba-la-luna.wav,./stim/wavs/chilean_mismatch_interrogative-partial-wh_Cuando-miraba-la-luna.wav,./stim/wavs/cuban_mismatch_interrogative-partial-wh_Cuando-miraba-la-luna.wav,./stim/wavs/mexican_mismatch_interrogative-partial-wh_Cuando-miraba-la-luna.wav,./stim/wavs/peruvian_mismatch_interrogative-partial-wh_Cuando-miraba-la-luna.wav,./stim/wavs/puertorican_mismatch_interrogative-partial-wh_Cuando-miraba-la-luna.wav,,,,,,,,,,,,,,,,,,,,,,,,,,,,,,,,,,,,,,,,,,,,,,,,,,,,,,,,
,,,,,,,5c1919fbd9241d0001363964,605b45a4d25f287719a41696,605f784bf424f86e11f24bac,I am not familiar with Spanish,Midwest,13 or older,no,2021-03-27_13h25.30.133,empathy_intonation_perc,2020.2.10,Linux x86_64,60,,,,,,,,,,0,castilian,0,1,1.53518,0,7,7,13,1,14,./stim/wavs/andalusian_match_declarative-narrow-focus_Maria-bebe-el-vino.wav,./stim/wavs/argentine_match_declarative-narrow-focus_Maria-bebe-el-vino.wav,./stim/wavs/castilian_match_declarative-narrow-focus_Maria-bebe-el-vino.wav,./stim/wavs/chilean_match_declarative-narrow-focus_Maria-bebe-el-vino.wav,./stim/wavs/cuban_match_declarative-narrow-focus_Maria-bebe-el-vino.wav,./stim/wavs/mexican_match_declarative-narrow-focus_Maria-bebe-el-vino.wav,./stim/wavs/peruvian_match_declarative-narrow-focus_Maria-bebe-el-vino.wav,./stim/wavs/puertorican_match_declarative-narrow-focus_Maria-bebe-el-vino.wav,,,,,,,,,,,,,,,,,,,,,,,,,,,,,,,,,,,,,,,,,,,,,,,,,,,,,,,,
,,,,,,,5c1919fbd9241d0001363964,605b45a4d25f287719a41696,605f784bf424f86e11f24bac,I am not familiar with Spanish,Midwest,13 or older,no,2021-03-27_13h25.30.133,empathy_intonation_perc,2020.2.10,Linux x86_64,60,,,,,,,,,,0,castilian,0,1,1.754925,0,8,8,32,1,33,./stim/wavs/andalusian_mismatch_declarative-broad-focus_El-bebe-comia-muy-bien.wav,./stim/wavs/argentine_mismatch_declarative-broad-focus_El-bebe-comia-muy-bien.wav,./stim/wavs/castilian_mismatch_declarative-broad-focus_El-bebe-comia-muy-bien.wav,./stim/wavs/chilean_mismatch_declarative-broad-focus_El-bebe-comia-muy-bien.wav,./stim/wavs/cuban_mismatch_declarative-broad-focus_El-bebe-comia-muy-bien.wav,./stim/wavs/mexican_mismatch_declarative-broad-focus_El-bebe-comia-muy-bien.wav,./stim/wavs/peruvian_mismatch_declarative-broad-focus_El-bebe-comia-muy-bien.wav,./stim/wavs/puertorican_mismatch_declarative-broad-focus_El-bebe-comia-muy-bien.wav,,,,,,,,,,,,,,,,,,,,,,,,,,,,,,,,,,,,,,,,,,,,,,,,,,,,,,,,
,,,,,,,5c1919fbd9241d0001363964,605b45a4d25f287719a41696,605f784bf424f86e11f24bac,I am not familiar with Spanish,Midwest,13 or older,no,2021-03-27_13h25.30.133,empathy_intonation_perc,2020.2.10,Linux x86_64,60,,,,,,,,,,1,chilean,1,1,1.823725,0,9,9,22,1,23,./stim/wavs/andalusian_match_interrogative-partial-wh_Por-que-hablaba-del-agua.wav,./stim/wavs/argentine_match_interrogative-partial-wh_Por-que-hablaba-del-agua.wav,./stim/wavs/castilian_match_interrogative-partial-wh_Por-que-hablaba-del-agua.wav,./stim/wavs/chilean_match_interrogative-partial-wh_Por-que-hablaba-del-agua.wav,./stim/wavs/cuban_match_interrogative-partial-wh_Por-que-hablaba-del-agua.wav,./stim/wavs/mexican_match_interrogative-partial-wh_Por-que-hablaba-del-agua.wav,./stim/wavs/peruvian_match_interrogative-partial-wh_Por-que-hablaba-del-agua.wav,./stim/wavs/puertorican_match_interrogative-partial-wh_Por-que-hablaba-del-agua.wav,,,,,,,,,,,,,,,,,,,,,,,,,,,,,,,,,,,,,,,,,,,,,,,,,,,,,,,,
,,,,,,,5c1919fbd9241d0001363964,605b45a4d25f287719a41696,605f784bf424f86e11f24bac,I am not familiar with Spanish,Midwest,13 or older,no,2021-03-27_13h25.30.133,empathy_intonation_perc,2020.2.10,Linux x86_64,60,,,,,,,,,,0,argentine,0,1,1.33327,0,10,10,5,1,6,./stim/wavs/andalusian_match_declarative-broad-focus_Maria-bebe-el-vino.wav,./stim/wavs/argentine_match_declarative-broad-focus_Maria-bebe-el-vino.wav,./stim/wavs/castilian_match_declarative-broad-focus_Maria-bebe-el-vino.wav,./stim/wavs/chilean_match_declarative-broad-focus_Maria-bebe-el-vino.wav,./stim/wavs/cuban_match_declarative-broad-focus_Maria-bebe-el-vino.wav,./stim/wavs/mexican_match_declarative-broad-focus_Maria-bebe-el-vino.wav,./stim/wavs/peruvian_match_declarative-broad-focus_Maria-bebe-el-vino.wav,./stim/wavs/puertorican_match_declarative-broad-focus_Maria-bebe-el-vino.wav,,,,,,,,,,,,,,,,,,,,,,,,,,,,,,,,,,,,,,,,,,,,,,,,,,,,,,,,
,,,,,,,5c1919fbd9241d0001363964,605b45a4d25f287719a41696,605f784bf424f86e11f24bac,I am not familiar with Spanish,Midwest,13 or older,no,2021-03-27_13h25.30.133,empathy_intonation_perc,2020.2.10,Linux x86_64,60,,,,,,,,,,0,cuban,0,1,1.52066,0,11,11,10,1,11,./stim/wavs/andalusian_match_declarative-narrow-focus_David-leia-el-libro.wav,./stim/wavs/argentine_match_declarative-narrow-focus_David-leia-el-libro.wav,./stim/wavs/castilian_match_declarative-narrow-focus_David-leia-el-libro.wav,./stim/wavs/chilean_match_declarative-narrow-focus_David-leia-el-libro.wav,./stim/wavs/cuban_match_declarative-narrow-focus_David-leia-el-libro.wav,./stim/wavs/mexican_match_declarative-narrow-focus_David-leia-el-libro.wav,./stim/wavs/peruvian_match_declarative-narrow-focus_David-leia-el-libro.wav,./stim/wavs/puertorican_match_declarative-narrow-focus_David-leia-el-libro.wav,,,,,,,,,,,,,,,,,,,,,,,,,,,,,,,,,,,,,,,,,,,,,,,,,,,,,,,,
,,,,,,,5c1919fbd9241d0001363964,605b45a4d25f287719a41696,605f784bf424f86e11f24bac,I am not familiar with Spanish,Midwest,13 or older,no,2021-03-27_13h25.30.133,empathy_intonation_perc,2020.2.10,Linux x86_64,60,,,,,,,,,,1,castilian,1,1,1.538735,0,12,12,57,1,58,./stim/wavs/andalusian_mismatch_interrogative-total-yn_El-hombre-mira-la-luna.wav,./stim/wavs/argentine_mismatch_interrogative-total-yn_El-hombre-mira-la-luna.wav,./stim/wavs/castilian_mismatch_interrogative-total-yn_El-hombre-mira-la-luna.wav,./stim/wavs/chilean_mismatch_interrogative-total-yn_El-hombre-mira-la-luna.wav,./stim/wavs/cuban_mismatch_interrogative-total-yn_El-hombre-mira-la-luna.wav,./stim/wavs/mexican_mismatch_interrogative-total-yn_El-hombre-mira-la-luna.wav,./stim/wavs/peruvian_mismatch_interrogative-total-yn_El-hombre-mira-la-luna.wav,./stim/wavs/puertorican_mismatch_interrogative-total-yn_El-hombre-mira-la-luna.wav,,,,,,,,,,,,,,,,,,,,,,,,,,,,,,,,,,,,,,,,,,,,,,,,,,,,,,,,
,,,,,,,5c1919fbd9241d0001363964,605b45a4d25f287719a41696,605f784bf424f86e11f24bac,I am not familiar with Spanish,Midwest,13 or older,no,2021-03-27_13h25.30.133,empathy_intonation_perc,2020.2.10,Linux x86_64,60,,,,,,,,,,0,puertorican,0,1,1.705435,0,13,13,46,1,47,./stim/wavs/andalusian_mismatch_declarative-narrow-focus_Mi-novio-viene-del-lago.wav,./stim/wavs/argentine_mismatch_declarative-narrow-focus_Mi-novio-viene-del-lago.wav,./stim/wavs/castilian_mismatch_declarative-narrow-focus_Mi-novio-viene-del-lago.wav,./stim/wavs/chilean_mismatch_declarative-narrow-focus_Mi-novio-viene-del-lago.wav,./stim/wavs/cuban_mismatch_declarative-narrow-focus_Mi-novio-viene-del-lago.wav,./stim/wavs/mexican_mismatch_declarative-narrow-focus_Mi-novio-viene-del-lago.wav,./stim/wavs/peruvian_mismatch_declarative-narrow-focus_Mi-novio-viene-del-lago.wav,./stim/wavs/puertorican_mismatch_declarative-narrow-focus_Mi-novio-viene-del-lago.wav,,,,,,,,,,,,,,,,,,,,,,,,,,,,,,,,,,,,,,,,,,,,,,,,,,,,,,,,
,,,,,,,5c1919fbd9241d0001363964,605b45a4d25f287719a41696,605f784bf424f86e11f24bac,I am not familiar with Spanish,Midwest,13 or older,no,2021-03-27_13h25.30.133,empathy_intonation_perc,2020.2.10,Linux x86_64,60,,,,,,,,,,1,peruvian,0,0,1.65355,0,14,14,27,1,28,./stim/wavs/andalusian_match_interrogative-total-yn_Emilio-ama-la-marcha.wav,./stim/wavs/argentine_match_interrogative-total-yn_Emilio-ama-la-marcha.wav,./stim/wavs/castilian_match_interrogative-total-yn_Emilio-ama-la-marcha.wav,./stim/wavs/chilean_match_interrogative-total-yn_Emilio-ama-la-marcha.wav,./stim/wavs/cuban_match_interrogative-total-yn_Emilio-ama-la-marcha.wav,./stim/wavs/mexican_match_interrogative-total-yn_Emilio-ama-la-marcha.wav,./stim/wavs/peruvian_match_interrogative-total-yn_Emilio-ama-la-marcha.wav,./stim/wavs/puertorican_match_interrogative-total-yn_Emilio-ama-la-marcha.wav,,,,,,,,,,,,,,,,,,,,,,,,,,,,,,,,,,,,,,,,,,,,,,,,,,,,,,,,
,,,,,,,5c1919fbd9241d0001363964,605b45a4d25f287719a41696,605f784bf424f86e11f24bac,I am not familiar with Spanish,Midwest,13 or older,no,2021-03-27_13h25.30.133,empathy_intonation_perc,2020.2.10,Linux x86_64,60,,,,,,,,,,0,puertorican,0,1,1.985245,0,15,15,38,1,39,./stim/wavs/andalusian_mismatch_declarative-broad-focus_Mi-novio-viene-del-lago.wav,./stim/wavs/argentine_mismatch_declarative-broad-focus_Mi-novio-viene-del-lago.wav,./stim/wavs/castilian_mismatch_declarative-broad-focus_Mi-novio-viene-del-lago.wav,./stim/wavs/chilean_mismatch_declarative-broad-focus_Mi-novio-viene-del-lago.wav,./stim/wavs/cuban_mismatch_declarative-broad-focus_Mi-novio-viene-del-lago.wav,./stim/wavs/mexican_mismatch_declarative-broad-focus_Mi-novio-viene-del-lago.wav,./stim/wavs/peruvian_mismatch_declarative-broad-focus_Mi-novio-viene-del-lago.wav,./stim/wavs/puertorican_mismatch_declarative-broad-focus_Mi-novio-viene-del-lago.wav,,,,,,,,,,,,,,,,,,,,,,,,,,,,,,,,,,,,,,,,,,,,,,,,,,,,,,,,
,,,,,,,5c1919fbd9241d0001363964,605b45a4d25f287719a41696,605f784bf424f86e11f24bac,I am not familiar with Spanish,Midwest,13 or older,no,2021-03-27_13h25.30.133,empathy_intonation_perc,2020.2.10,Linux x86_64,60,,,,,,,,,,1,argentine,1,1,1.639855,0,16,16,61,1,62,./stim/wavs/andalusian_mismatch_interrogative-total-yn_Mi-madre-come-la-fruta.wav,./stim/wavs/argentine_mismatch_interrogative-total-yn_Mi-madre-come-la-fruta.wav,./stim/wavs/castilian_mismatch_interrogative-total-yn_Mi-madre-come-la-fruta.wav,./stim/wavs/chilean_mismatch_interrogative-total-yn_Mi-madre-come-la-fruta.wav,./stim/wavs/cuban_mismatch_interrogative-total-yn_Mi-madre-come-la-fruta.wav,./stim/wavs/mexican_mismatch_interrogative-total-yn_Mi-madre-come-la-fruta.wav,./stim/wavs/peruvian_mismatch_interrogative-total-yn_Mi-madre-come-la-fruta.wav,./stim/wavs/puertorican_mismatch_interrogative-total-yn_Mi-madre-come-la-fruta.wav,,,,,,,,,,,,,,,,,,,,,,,,,,,,,,,,,,,,,,,,,,,,,,,,,,,,,,,,
,,,,,,,5c1919fbd9241d0001363964,605b45a4d25f287719a41696,605f784bf424f86e11f24bac,I am not familiar with Spanish,Midwest,13 or older,no,2021-03-27_13h25.30.133,empathy_intonation_perc,2020.2.10,Linux x86_64,60,,,,,,,,,,0,mexican,0,1,1.55515,0,17,17,9,1,10,./stim/wavs/andalusian_match_declarative-narrow-focus_Daniel-iba-a-Bolivia.wav,./stim/wavs/argentine_match_declarative-narrow-focus_Daniel-iba-a-Bolivia.wav,./stim/wavs/castilian_match_declarative-narrow-focus_Daniel-iba-a-Bolivia.wav,./stim/wavs/chilean_match_declarative-narrow-focus_Daniel-iba-a-Bolivia.wav,./stim/wavs/cuban_match_declarative-narrow-focus_Daniel-iba-a-Bolivia.wav,./stim/wavs/mexican_match_declarative-narrow-focus_Daniel-iba-a-Bolivia.wav,./stim/wavs/peruvian_match_declarative-narrow-focus_Daniel-iba-a-Bolivia.wav,./stim/wavs/puertorican_match_declarative-narrow-focus_Daniel-iba-a-Bolivia.wav,,,,,,,,,,,,,,,,,,,,,,,,,,,,,,,,,,,,,,,,,,,,,,,,,,,,,,,,
,,,,,,,5c1919fbd9241d0001363964,605b45a4d25f287719a41696,605f784bf424f86e11f24bac,I am not familiar with Spanish,Midwest,13 or older,no,2021-03-27_13h25.30.133,empathy_intonation_perc,2020.2.10,Linux x86_64,60,,,,,,,,,,1,chilean,1,1,1.18383,0,18,18,23,1,24,./stim/wavs/andalusian_match_interrogative-partial-wh_Por-que-iba-a-Bolivia.wav,./stim/wavs/argentine_match_interrogative-partial-wh_Por-que-iba-a-Bolivia.wav,./stim/wavs/castilian_match_interrogative-partial-wh_Por-que-iba-a-Bolivia.wav,./stim/wavs/chilean_match_interrogative-partial-wh_Por-que-iba-a-Bolivia.wav,./stim/wavs/cuban_match_interrogative-partial-wh_Por-que-iba-a-Bolivia.wav,./stim/wavs/mexican_match_interrogative-partial-wh_Por-que-iba-a-Bolivia.wav,./stim/wavs/peruvian_match_interrogative-partial-wh_Por-que-iba-a-Bolivia.wav,./stim/wavs/puertorican_match_interrogative-partial-wh_Por-que-iba-a-Bolivia.wav,,,,,,,,,,,,,,,,,,,,,,,,,,,,,,,,,,,,,,,,,,,,,,,,,,,,,,,,
,,,,,,,5c1919fbd9241d0001363964,605b45a4d25f287719a41696,605f784bf424f86e11f24bac,I am not familiar with Spanish,Midwest,13 or older,no,2021-03-27_13h25.30.133,empathy_intonation_perc,2020.2.10,Linux x86_64,60,,,,,,,,,,0,chilean,0,1,1.48471,0,19,19,11,1,12,./stim/wavs/andalusian_match_declarative-narrow-focus_Emilio-ama-la-marcha.wav,./stim/wavs/argentine_match_declarative-narrow-focus_Emilio-ama-la-marcha.wav,./stim/wavs/castilian_match_declarative-narrow-focus_Emilio-ama-la-marcha.wav,./stim/wavs/chilean_match_declarative-narrow-focus_Emilio-ama-la-marcha.wav,./stim/wavs/cuban_match_declarative-narrow-focus_Emilio-ama-la-marcha.wav,./stim/wavs/mexican_match_declarative-narrow-focus_Emilio-ama-la-marcha.wav,./stim/wavs/peruvian_match_declarative-narrow-focus_Emilio-ama-la-marcha.wav,./stim/wavs/puertorican_match_declarative-narrow-focus_Emilio-ama-la-marcha.wav,,,,,,,,,,,,,,,,,,,,,,,,,,,,,,,,,,,,,,,,,,,,,,,,,,,,,,,,
,,,,,,,5c1919fbd9241d0001363964,605b45a4d25f287719a41696,605f784bf424f86e11f24bac,I am not familiar with Spanish,Midwest,13 or older,no,2021-03-27_13h25.30.133,empathy_intonation_perc,2020.2.10,Linux x86_64,60,,,,,,,,,,0,chilean,0,1,1.951075,0,20,20,43,1,44,./stim/wavs/andalusian_mismatch_declarative-narrow-focus_La-maestra-vive-en-Paris.wav,./stim/wavs/argentine_mismatch_declarative-narrow-focus_La-maestra-vive-en-Paris.wav,./stim/wavs/castilian_mismatch_declarative-narrow-focus_La-maestra-vive-en-Paris.wav,./stim/wavs/chilean_mismatch_declarative-narrow-focus_La-maestra-vive-en-Paris.wav,./stim/wavs/cuban_mismatch_declarative-narrow-focus_La-maestra-vive-en-Paris.wav,./stim/wavs/mexican_mismatch_declarative-narrow-focus_La-maestra-vive-en-Paris.wav,./stim/wavs/peruvian_mismatch_declarative-narrow-focus_La-maestra-vive-en-Paris.wav,./stim/wavs/puertorican_mismatch_declarative-narrow-focus_La-maestra-vive-en-Paris.wav,,,,,,,,,,,,,,,,,,,,,,,,,,,,,,,,,,,,,,,,,,,,,,,,,,,,,,,,
,,,,,,,5c1919fbd9241d0001363964,605b45a4d25f287719a41696,605f784bf424f86e11f24bac,I am not familiar with Spanish,Midwest,13 or older,no,2021-03-27_13h25.30.133,empathy_intonation_perc,2020.2.10,Linux x86_64,60,,,,,,,,,,1,mexican,1,1,1.253055,0,21,21,19,1,20,./stim/wavs/andalusian_match_interrogative-partial-wh_Cuando-vendia-el-carro.wav,./stim/wavs/argentine_match_interrogative-partial-wh_Cuando-vendia-el-carro.wav,./stim/wavs/castilian_match_interrogative-partial-wh_Cuando-vendia-el-carro.wav,./stim/wavs/chilean_match_interrogative-partial-wh_Cuando-vendia-el-carro.wav,./stim/wavs/cuban_match_interrogative-partial-wh_Cuando-vendia-el-carro.wav,./stim/wavs/mexican_match_interrogative-partial-wh_Cuando-vendia-el-carro.wav,./stim/wavs/peruvian_match_interrogative-partial-wh_Cuando-vendia-el-carro.wav,./stim/wavs/puertorican_match_interrogative-partial-wh_Cuando-vendia-el-carro.wav,,,,,,,,,,,,,,,,,,,,,,,,,,,,,,,,,,,,,,,,,,,,,,,,,,,,,,,,
,,,,,,,5c1919fbd9241d0001363964,605b45a4d25f287719a41696,605f784bf424f86e11f24bac,I am not familiar with Spanish,Midwest,13 or older,no,2021-03-27_13h25.30.133,empathy_intonation_perc,2020.2.10,Linux x86_64,60,,,,,,,,,,0,mexican,1,0,1.966045,0,22,22,40,1,41,./stim/wavs/andalusian_mismatch_declarative-narrow-focus_El-bebe-comia-muy-bien.wav,./stim/wavs/argentine_mismatch_declarative-narrow-focus_El-bebe-comia-muy-bien.wav,./stim/wavs/castilian_mismatch_declarative-narrow-focus_El-bebe-comia-muy-bien.wav,./stim/wavs/chilean_mismatch_declarative-narrow-focus_El-bebe-comia-muy-bien.wav,./stim/wavs/cuban_mismatch_declarative-narrow-focus_El-bebe-comia-muy-bien.wav,./stim/wavs/mexican_mismatch_declarative-narrow-focus_El-bebe-comia-muy-bien.wav,./stim/wavs/peruvian_mismatch_declarative-narrow-focus_El-bebe-comia-muy-bien.wav,./stim/wavs/puertorican_mismatch_declarative-narrow-focus_El-bebe-comia-muy-bien.wav,,,,,,,,,,,,,,,,,,,,,,,,,,,,,,,,,,,,,,,,,,,,,,,,,,,,,,,,
,,,,,,,5c1919fbd9241d0001363964,605b45a4d25f287719a41696,605f784bf424f86e11f24bac,I am not familiar with Spanish,Midwest,13 or older,no,2021-03-27_13h25.30.133,empathy_intonation_perc,2020.2.10,Linux x86_64,60,,,,,,,,,,1,mexican,1,1,1.943495,0,23,23,30,1,31,./stim/wavs/andalusian_match_interrogative-total-yn_Mariano-habla-del-tiempo.wav,./stim/wavs/argentine_match_interrogative-total-yn_Mariano-habla-del-tiempo.wav,./stim/wavs/castilian_match_interrogative-total-yn_Mariano-habla-del-tiempo.wav,./stim/wavs/chilean_match_interrogative-total-yn_Mariano-habla-del-tiempo.wav,./stim/wavs/cuban_match_interrogative-total-yn_Mariano-habla-del-tiempo.wav,./stim/wavs/mexican_match_interrogative-total-yn_Mariano-habla-del-tiempo.wav,./stim/wavs/peruvian_match_interrogative-total-yn_Mariano-habla-del-tiempo.wav,./stim/wavs/puertorican_match_interrogative-total-yn_Mariano-habla-del-tiempo.wav,,,,,,,,,,,,,,,,,,,,,,,,,,,,,,,,,,,,,,,,,,,,,,,,,,,,,,,,
,,,,,,,5c1919fbd9241d0001363964,605b45a4d25f287719a41696,605f784bf424f86e11f24bac,I am not familiar with Spanish,Midwest,13 or older,no,2021-03-27_13h25.30.133,empathy_intonation_perc,2020.2.10,Linux x86_64,60,,,,,,,,,,0,castilian,0,1,1.821845,0,24,24,14,1,15,./stim/wavs/andalusian_match_declarative-narrow-focus_Mariano-habla-del-tiempo.wav,./stim/wavs/argentine_match_declarative-narrow-focus_Mariano-habla-del-tiempo.wav,./stim/wavs/castilian_match_declarative-narrow-focus_Mariano-habla-del-tiempo.wav,./stim/wavs/chilean_match_declarative-narrow-focus_Mariano-habla-del-tiempo.wav,./stim/wavs/cuban_match_declarative-narrow-focus_Mariano-habla-del-tiempo.wav,./stim/wavs/mexican_match_declarative-narrow-focus_Mariano-habla-del-tiempo.wav,./stim/wavs/peruvian_match_declarative-narrow-focus_Mariano-habla-del-tiempo.wav,./stim/wavs/puertorican_match_declarative-narrow-focus_Mariano-habla-del-tiempo.wav,,,,,,,,,,,,,,,,,,,,,,,,,,,,,,,,,,,,,,,,,,,,,,,,,,,,,,,,
,,,,,,,5c1919fbd9241d0001363964,605b45a4d25f287719a41696,605f784bf424f86e11f24bac,I am not familiar with Spanish,Midwest,13 or older,no,2021-03-27_13h25.30.133,empathy_intonation_perc,2020.2.10,Linux x86_64,60,,,,,,,,,,1,argentine,1,1,1.21776,0,25,25,20,1,21,./stim/wavs/andalusian_match_interrogative-partial-wh_Por-que-abre-el-regalo.wav,./stim/wavs/argentine_match_interrogative-partial-wh_Por-que-abre-el-regalo.wav,./stim/wavs/castilian_match_interrogative-partial-wh_Por-que-abre-el-regalo.wav,./stim/wavs/chilean_match_interrogative-partial-wh_Por-que-abre-el-regalo.wav,./stim/wavs/cuban_match_interrogative-partial-wh_Por-que-abre-el-regalo.wav,./stim/wavs/mexican_match_interrogative-partial-wh_Por-que-abre-el-regalo.wav,./stim/wavs/peruvian_match_interrogative-partial-wh_Por-que-abre-el-regalo.wav,./stim/wavs/puertorican_match_interrogative-partial-wh_Por-que-abre-el-regalo.wav,,,,,,,,,,,,,,,,,,,,,,,,,,,,,,,,,,,,,,,,,,,,,,,,,,,,,,,,
,,,,,,,5c1919fbd9241d0001363964,605b45a4d25f287719a41696,605f784bf424f86e11f24bac,I am not familiar with Spanish,Midwest,13 or older,no,2021-03-27_13h25.30.133,empathy_intonation_perc,2020.2.10,Linux x86_64,60,,,,,,,,,,0,mexican,0,1,1.388465,0,26,26,15,1,16,./stim/wavs/andalusian_match_declarative-narrow-focus_Marta-abre-el-regalo.wav,./stim/wavs/argentine_match_declarative-narrow-focus_Marta-abre-el-regalo.wav,./stim/wavs/castilian_match_declarative-narrow-focus_Marta-abre-el-regalo.wav,./stim/wavs/chilean_match_declarative-narrow-focus_Marta-abre-el-regalo.wav,./stim/wavs/cuban_match_declarative-narrow-focus_Marta-abre-el-regalo.wav,./stim/wavs/mexican_match_declarative-narrow-focus_Marta-abre-el-regalo.wav,./stim/wavs/peruvian_match_declarative-narrow-focus_Marta-abre-el-regalo.wav,./stim/wavs/puertorican_match_declarative-narrow-focus_Marta-abre-el-regalo.wav,,,,,,,,,,,,,,,,,,,,,,,,,,,,,,,,,,,,,,,,,,,,,,,,,,,,,,,,
,,,,,,,5c1919fbd9241d0001363964,605b45a4d25f287719a41696,605f784bf424f86e11f24bac,I am not familiar with Spanish,Midwest,13 or older,no,2021-03-27_13h25.30.133,empathy_intonation_perc,2020.2.10,Linux x86_64,60,,,,,,,,,,1,chilean,0,0,2.0166,0,27,27,25,1,26,./stim/wavs/andalusian_match_interrogative-total-yn_Daniel-iba-a-Bolivia.wav,./stim/wavs/argentine_match_interrogative-total-yn_Daniel-iba-a-Bolivia.wav,./stim/wavs/castilian_match_interrogative-total-yn_Daniel-iba-a-Bolivia.wav,./stim/wavs/chilean_match_interrogative-total-yn_Daniel-iba-a-Bolivia.wav,./stim/wavs/cuban_match_interrogative-total-yn_Daniel-iba-a-Bolivia.wav,./stim/wavs/mexican_match_interrogative-total-yn_Daniel-iba-a-Bolivia.wav,./stim/wavs/peruvian_match_interrogative-total-yn_Daniel-iba-a-Bolivia.wav,./stim/wavs/puertorican_match_interrogative-total-yn_Daniel-iba-a-Bolivia.wav,,,,,,,,,,,,,,,,,,,,,,,,,,,,,,,,,,,,,,,,,,,,,,,,,,,,,,,,
,,,,,,,5c1919fbd9241d0001363964,605b45a4d25f287719a41696,605f784bf424f86e11f24bac,I am not familiar with Spanish,Midwest,13 or older,no,2021-03-27_13h25.30.133,empathy_intonation_perc,2020.2.10,Linux x86_64,60,,,,,,,,,,1,argentine,0,0,1.571135,0,28,28,29,1,30,./stim/wavs/andalusian_match_interrogative-total-yn_Maria-bebe-el-vino.wav,./stim/wavs/argentine_match_interrogative-total-yn_Maria-bebe-el-vino.wav,./stim/wavs/castilian_match_interrogative-total-yn_Maria-bebe-el-vino.wav,./stim/wavs/chilean_match_interrogative-total-yn_Maria-bebe-el-vino.wav,./stim/wavs/cuban_match_interrogative-total-yn_Maria-bebe-el-vino.wav,./stim/wavs/mexican_match_interrogative-total-yn_Maria-bebe-el-vino.wav,./stim/wavs/peruvian_match_interrogative-total-yn_Maria-bebe-el-vino.wav,./stim/wavs/puertorican_match_interrogative-total-yn_Maria-bebe-el-vino.wav,,,,,,,,,,,,,,,,,,,,,,,,,,,,,,,,,,,,,,,,,,,,,,,,,,,,,,,,
,,,,,,,5c1919fbd9241d0001363964,605b45a4d25f287719a41696,605f784bf424f86e11f24bac,I am not familiar with Spanish,Midwest,13 or older,no,2021-03-27_13h25.30.133,empathy_intonation_perc,2020.2.10,Linux x86_64,60,,,,,,,,,,1,argentine,1,1,1.4828,0,29,29,49,1,50,./stim/wavs/andalusian_mismatch_interrogative-partial-wh_Cuando-lavaba-el-plato.wav,./stim/wavs/argentine_mismatch_interrogative-partial-wh_Cuando-lavaba-el-plato.wav,./stim/wavs/castilian_mismatch_interrogative-partial-wh_Cuando-lavaba-el-plato.wav,./stim/wavs/chilean_mismatch_interrogative-partial-wh_Cuando-lavaba-el-plato.wav,./stim/wavs/cuban_mismatch_interrogative-partial-wh_Cuando-lavaba-el-plato.wav,./stim/wavs/mexican_mismatch_interrogative-partial-wh_Cuando-lavaba-el-plato.wav,./stim/wavs/peruvian_mismatch_interrogative-partial-wh_Cuando-lavaba-el-plato.wav,./stim/wavs/puertorican_mismatch_interrogative-partial-wh_Cuando-lavaba-el-plato.wav,,,,,,,,,,,,,,,,,,,,,,,,,,,,,,,,,,,,,,,,,,,,,,,,,,,,,,,,
,,,,,,,5c1919fbd9241d0001363964,605b45a4d25f287719a41696,605f784bf424f86e11f24bac,I am not familiar with Spanish,Midwest,13 or older,no,2021-03-27_13h25.30.133,empathy_intonation_perc,2020.2.10,Linux x86_64,60,,,,,,,,,,1,peruvian,1,1,1.865555,0,30,30,51,1,52,./stim/wavs/andalusian_mismatch_interrogative-partial-wh_Por-que-desayuna-muy-bien.wav,./stim/wavs/argentine_mismatch_interrogative-partial-wh_Por-que-desayuna-muy-bien.wav,./stim/wavs/castilian_mismatch_interrogative-partial-wh_Por-que-desayuna-muy-bien.wav,./stim/wavs/chilean_mismatch_interrogative-partial-wh_Por-que-desayuna-muy-bien.wav,./stim/wavs/cuban_mismatch_interrogative-partial-wh_Por-que-desayuna-muy-bien.wav,./stim/wavs/mexican_mismatch_interrogative-partial-wh_Por-que-desayuna-muy-bien.wav,./stim/wavs/peruvian_mismatch_interrogative-partial-wh_Por-que-desayuna-muy-bien.wav,./stim/wavs/puertorican_mismatch_interrogative-partial-wh_Por-que-desayuna-muy-bien.wav,,,,,,,,,,,,,,,,,,,,,,,,,,,,,,,,,,,,,,,,,,,,,,,,,,,,,,,,
,,,,,,,5c1919fbd9241d0001363964,605b45a4d25f287719a41696,605f784bf424f86e11f24bac,I am not familiar with Spanish,Midwest,13 or older,no,2021-03-27_13h25.30.133,empathy_intonation_perc,2020.2.10,Linux x86_64,60,,,,,,,,,,0,castilian,0,1,1.584625,0,31,31,12,1,13,./stim/wavs/andalusian_match_declarative-narrow-focus_Manuela-vende-el-carro.wav,./stim/wavs/argentine_match_declarative-narrow-focus_Manuela-vende-el-carro.wav,./stim/wavs/castilian_match_declarative-narrow-focus_Manuela-vende-el-carro.wav,./stim/wavs/chilean_match_declarative-narrow-focus_Manuela-vende-el-carro.wav,./stim/wavs/cuban_match_declarative-narrow-focus_Manuela-vende-el-carro.wav,./stim/wavs/mexican_match_declarative-narrow-focus_Manuela-vende-el-carro.wav,./stim/wavs/peruvian_match_declarative-narrow-focus_Manuela-vende-el-carro.wav,./stim/wavs/puertorican_match_declarative-narrow-focus_Manuela-vende-el-carro.wav,,,,,,,,,,,,,,,,,,,,,,,,,,,,,,,,,,,,,,,,,,,,,,,,,,,,,,,,
,,,,,,,5c1919fbd9241d0001363964,605b45a4d25f287719a41696,605f784bf424f86e11f24bac,I am not familiar with Spanish,Midwest,13 or older,no,2021-03-27_13h25.30.133,empathy_intonation_perc,2020.2.10,Linux x86_64,60,,,,,,,,,,1,cuban,1,1,1.332465,0,32,32,17,1,18,./stim/wavs/andalusian_match_interrogative-partial-wh_Cuando-leia-el-libro.wav,./stim/wavs/argentine_match_interrogative-partial-wh_Cuando-leia-el-libro.wav,./stim/wavs/castilian_match_interrogative-partial-wh_Cuando-leia-el-libro.wav,./stim/wavs/chilean_match_interrogative-partial-wh_Cuando-leia-el-libro.wav,./stim/wavs/cuban_match_interrogative-partial-wh_Cuando-leia-el-libro.wav,./stim/wavs/mexican_match_interrogative-partial-wh_Cuando-leia-el-libro.wav,./stim/wavs/peruvian_match_interrogative-partial-wh_Cuando-leia-el-libro.wav,./stim/wavs/puertorican_match_interrogative-partial-wh_Cuando-leia-el-libro.wav,,,,,,,,,,,,,,,,,,,,,,,,,,,,,,,,,,,,,,,,,,,,,,,,,,,,,,,,
,,,,,,,5c1919fbd9241d0001363964,605b45a4d25f287719a41696,605f784bf424f86e11f24bac,I am not familiar with Spanish,Midwest,13 or older,no,2021-03-27_13h25.30.133,empathy_intonation_perc,2020.2.10,Linux x86_64,60,,,,,,,,,,0,puertorican,0,1,1.617475,0,33,33,6,1,7,./stim/wavs/andalusian_match_declarative-broad-focus_Mariano-habla-del-tiempo.wav,./stim/wavs/argentine_match_declarative-broad-focus_Mariano-habla-del-tiempo.wav,./stim/wavs/castilian_match_declarative-broad-focus_Mariano-habla-del-tiempo.wav,./stim/wavs/chilean_match_declarative-broad-focus_Mariano-habla-del-tiempo.wav,./stim/wavs/cuban_match_declarative-broad-focus_Mariano-habla-del-tiempo.wav,./stim/wavs/mexican_match_declarative-broad-focus_Mariano-habla-del-tiempo.wav,./stim/wavs/peruvian_match_declarative-broad-focus_Mariano-habla-del-tiempo.wav,./stim/wavs/puertorican_match_declarative-broad-focus_Mariano-habla-del-tiempo.wav,,,,,,,,,,,,,,,,,,,,,,,,,,,,,,,,,,,,,,,,,,,,,,,,,,,,,,,,
,,,,,,,5c1919fbd9241d0001363964,605b45a4d25f287719a41696,605f784bf424f86e11f24bac,I am not familiar with Spanish,Midwest,13 or older,no,2021-03-27_13h25.30.133,empathy_intonation_perc,2020.2.10,Linux x86_64,60,,,,,,,,,,0,castilian,0,1,1.483895,0,34,34,34,1,35,./stim/wavs/andalusian_mismatch_declarative-broad-focus_El-nino-oye-el-rio.wav,./stim/wavs/argentine_mismatch_declarative-broad-focus_El-nino-oye-el-rio.wav,./stim/wavs/castilian_mismatch_declarative-broad-focus_El-nino-oye-el-rio.wav,./stim/wavs/chilean_mismatch_declarative-broad-focus_El-nino-oye-el-rio.wav,./stim/wavs/cuban_mismatch_declarative-broad-focus_El-nino-oye-el-rio.wav,./stim/wavs/mexican_mismatch_declarative-broad-focus_El-nino-oye-el-rio.wav,./stim/wavs/peruvian_mismatch_declarative-broad-focus_El-nino-oye-el-rio.wav,./stim/wavs/puertorican_mismatch_declarative-broad-focus_El-nino-oye-el-rio.wav,,,,,,,,,,,,,,,,,,,,,,,,,,,,,,,,,,,,,,,,,,,,,,,,,,,,,,,,
,,,,,,,5c1919fbd9241d0001363964,605b45a4d25f287719a41696,605f784bf424f86e11f24bac,I am not familiar with Spanish,Midwest,13 or older,no,2021-03-27_13h25.30.133,empathy_intonation_perc,2020.2.10,Linux x86_64,60,,,,,,,,,,0,mexican,0,1,1.36302,0,35,35,36,1,37,./stim/wavs/andalusian_mismatch_declarative-broad-focus_La-nina-lava-el-plato.wav,./stim/wavs/argentine_mismatch_declarative-broad-focus_La-nina-lava-el-plato.wav,./stim/wavs/castilian_mismatch_declarative-broad-focus_La-nina-lava-el-plato.wav,./stim/wavs/chilean_mismatch_declarative-broad-focus_La-nina-lava-el-plato.wav,./stim/wavs/cuban_mismatch_declarative-broad-focus_La-nina-lava-el-plato.wav,./stim/wavs/mexican_mismatch_declarative-broad-focus_La-nina-lava-el-plato.wav,./stim/wavs/peruvian_mismatch_declarative-broad-focus_La-nina-lava-el-plato.wav,./stim/wavs/puertorican_mismatch_declarative-broad-focus_La-nina-lava-el-plato.wav,,,,,,,,,,,,,,,,,,,,,,,,,,,,,,,,,,,,,,,,,,,,,,,,,,,,,,,,
,,,,,,,5c1919fbd9241d0001363964,605b45a4d25f287719a41696,605f784bf424f86e11f24bac,I am not familiar with Spanish,Midwest,13 or older,no,2021-03-27_13h25.30.133,empathy_intonation_perc,2020.2.10,Linux x86_64,60,,,,,,,,,,0,mexican,0,1,1.785805,0,36,36,39,1,40,./stim/wavs/andalusian_mismatch_declarative-broad-focus_Mi-tia-odia-la-lluvia.wav,./stim/wavs/argentine_mismatch_declarative-broad-focus_Mi-tia-odia-la-lluvia.wav,./stim/wavs/castilian_mismatch_declarative-broad-focus_Mi-tia-odia-la-lluvia.wav,./stim/wavs/chilean_mismatch_declarative-broad-focus_Mi-tia-odia-la-lluvia.wav,./stim/wavs/cuban_mismatch_declarative-broad-focus_Mi-tia-odia-la-lluvia.wav,./stim/wavs/mexican_mismatch_declarative-broad-focus_Mi-tia-odia-la-lluvia.wav,./stim/wavs/peruvian_mismatch_declarative-broad-focus_Mi-tia-odia-la-lluvia.wav,./stim/wavs/puertorican_mismatch_declarative-broad-focus_Mi-tia-odia-la-lluvia.wav,,,,,,,,,,,,,,,,,,,,,,,,,,,,,,,,,,,,,,,,,,,,,,,,,,,,,,,,
,,,,,,,5c1919fbd9241d0001363964,605b45a4d25f287719a41696,605f784bf424f86e11f24bac,I am not familiar with Spanish,Midwest,13 or older,no,2021-03-27_13h25.30.133,empathy_intonation_perc,2020.2.10,Linux x86_64,60,,,,,,,,,,1,chilean,0,0,1.80634,0,37,37,58,1,59,./stim/wavs/andalusian_mismatch_interrogative-total-yn_El-nino-oye-el-rio.wav,./stim/wavs/argentine_mismatch_interrogative-total-yn_El-nino-oye-el-rio.wav,./stim/wavs/castilian_mismatch_interrogative-total-yn_El-nino-oye-el-rio.wav,./stim/wavs/chilean_mismatch_interrogative-total-yn_El-nino-oye-el-rio.wav,./stim/wavs/cuban_mismatch_interrogative-total-yn_El-nino-oye-el-rio.wav,./stim/wavs/mexican_mismatch_interrogative-total-yn_El-nino-oye-el-rio.wav,./stim/wavs/peruvian_mismatch_interrogative-total-yn_El-nino-oye-el-rio.wav,./stim/wavs/puertorican_mismatch_interrogative-total-yn_El-nino-oye-el-rio.wav,,,,,,,,,,,,,,,,,,,,,,,,,,,,,,,,,,,,,,,,,,,,,,,,,,,,,,,,
,,,,,,,5c1919fbd9241d0001363964,605b45a4d25f287719a41696,605f784bf424f86e11f24bac,I am not familiar with Spanish,Midwest,13 or older,no,2021-03-27_13h25.30.133,empathy_intonation_perc,2020.2.10,Linux x86_64,60,,,,,,,,,,0,andalusian,0,1,1.55281,0,38,38,37,1,38,./stim/wavs/andalusian_mismatch_declarative-broad-focus_Mi-madre-come-la-fruta.wav,./stim/wavs/argentine_mismatch_declarative-broad-focus_Mi-madre-come-la-fruta.wav,./stim/wavs/castilian_mismatch_declarative-broad-focus_Mi-madre-come-la-fruta.wav,./stim/wavs/chilean_mismatch_declarative-broad-focus_Mi-madre-come-la-fruta.wav,./stim/wavs/cuban_mismatch_declarative-broad-focus_Mi-madre-come-la-fruta.wav,./stim/wavs/mexican_mismatch_declarative-broad-focus_Mi-madre-come-la-fruta.wav,./stim/wavs/peruvian_mismatch_declarative-broad-focus_Mi-madre-come-la-fruta.wav,./stim/wavs/puertorican_mismatch_declarative-broad-focus_Mi-madre-come-la-fruta.wav,,,,,,,,,,,,,,,,,,,,,,,,,,,,,,,,,,,,,,,,,,,,,,,,,,,,,,,,
,,,,,,,5c1919fbd9241d0001363964,605b45a4d25f287719a41696,605f784bf424f86e11f24bac,I am not familiar with Spanish,Midwest,13 or older,no,2021-03-27_13h25.30.133,empathy_intonation_perc,2020.2.10,Linux x86_64,60,,,,,,,,,,1,argentine,1,1,1.910565,0,39,39,62,1,63,./stim/wavs/andalusian_mismatch_interrogative-total-yn_Mi-novio-viene-del-lago.wav,./stim/wavs/argentine_mismatch_interrogative-total-yn_Mi-novio-viene-del-lago.wav,./stim/wavs/castilian_mismatch_interrogative-total-yn_Mi-novio-viene-del-lago.wav,./stim/wavs/chilean_mismatch_interrogative-total-yn_Mi-novio-viene-del-lago.wav,./stim/wavs/cuban_mismatch_interrogative-total-yn_Mi-novio-viene-del-lago.wav,./stim/wavs/mexican_mismatch_interrogative-total-yn_Mi-novio-viene-del-lago.wav,./stim/wavs/peruvian_mismatch_interrogative-total-yn_Mi-novio-viene-del-lago.wav,./stim/wavs/puertorican_mismatch_interrogative-total-yn_Mi-novio-viene-del-lago.wav,,,,,,,,,,,,,,,,,,,,,,,,,,,,,,,,,,,,,,,,,,,,,,,,,,,,,,,,
,,,,,,,5c1919fbd9241d0001363964,605b45a4d25f287719a41696,605f784bf424f86e11f24bac,I am not familiar with Spanish,Midwest,13 or older,no,2021-03-27_13h25.30.133,empathy_intonation_perc,2020.2.10,Linux x86_64,60,,,,,,,,,,1,chilean,1,1,2.007345,0,40,40,63,1,64,./stim/wavs/andalusian_mismatch_interrogative-total-yn_Mi-tia-odia-la-lluvia.wav,./stim/wavs/argentine_mismatch_interrogative-total-yn_Mi-tia-odia-la-lluvia.wav,./stim/wavs/castilian_mismatch_interrogative-total-yn_Mi-tia-odia-la-lluvia.wav,./stim/wavs/chilean_mismatch_interrogative-total-yn_Mi-tia-odia-la-lluvia.wav,./stim/wavs/cuban_mismatch_interrogative-total-yn_Mi-tia-odia-la-lluvia.wav,./stim/wavs/mexican_mismatch_interrogative-total-yn_Mi-tia-odia-la-lluvia.wav,./stim/wavs/peruvian_mismatch_interrogative-total-yn_Mi-tia-odia-la-lluvia.wav,./stim/wavs/puertorican_mismatch_interrogative-total-yn_Mi-tia-odia-la-lluvia.wav,,,,,,,,,,,,,,,,,,,,,,,,,,,,,,,,,,,,,,,,,,,,,,,,,,,,,,,,
,,,,,,,5c1919fbd9241d0001363964,605b45a4d25f287719a41696,605f784bf424f86e11f24bac,I am not familiar with Spanish,Midwest,13 or older,no,2021-03-27_13h25.30.133,empathy_intonation_perc,2020.2.10,Linux x86_64,60,,,,,,,,,,1,mexican,0,0,1.35412,0,41,41,31,1,32,./stim/wavs/andalusian_match_interrogative-total-yn_Marta-abre-el-regalo.wav,./stim/wavs/argentine_match_interrogative-total-yn_Marta-abre-el-regalo.wav,./stim/wavs/castilian_match_interrogative-total-yn_Marta-abre-el-regalo.wav,./stim/wavs/chilean_match_interrogative-total-yn_Marta-abre-el-regalo.wav,./stim/wavs/cuban_match_interrogative-total-yn_Marta-abre-el-regalo.wav,./stim/wavs/mexican_match_interrogative-total-yn_Marta-abre-el-regalo.wav,./stim/wavs/peruvian_match_interrogative-total-yn_Marta-abre-el-regalo.wav,./stim/wavs/puertorican_match_interrogative-total-yn_Marta-abre-el-regalo.wav,,,,,,,,,,,,,,,,,,,,,,,,,,,,,,,,,,,,,,,,,,,,,,,,,,,,,,,,
,,,,,,,5c1919fbd9241d0001363964,605b45a4d25f287719a41696,605f784bf424f86e11f24bac,I am not familiar with Spanish,Midwest,13 or older,no,2021-03-27_13h25.30.133,empathy_intonation_perc,2020.2.10,Linux x86_64,60,,,,,,,,,,0,peruvian,1,0,2.304615,0,42,42,42,1,43,./stim/wavs/andalusian_mismatch_declarative-narrow-focus_El-nino-oye-el-rio.wav,./stim/wavs/argentine_mismatch_declarative-narrow-focus_El-nino-oye-el-rio.wav,./stim/wavs/castilian_mismatch_declarative-narrow-focus_El-nino-oye-el-rio.wav,./stim/wavs/chilean_mismatch_declarative-narrow-focus_El-nino-oye-el-rio.wav,./stim/wavs/cuban_mismatch_declarative-narrow-focus_El-nino-oye-el-rio.wav,./stim/wavs/mexican_mismatch_declarative-narrow-focus_El-nino-oye-el-rio.wav,./stim/wavs/peruvian_mismatch_declarative-narrow-focus_El-nino-oye-el-rio.wav,./stim/wavs/puertorican_mismatch_declarative-narrow-focus_El-nino-oye-el-rio.wav,,,,,,,,,,,,,,,,,,,,,,,,,,,,,,,,,,,,,,,,,,,,,,,,,,,,,,,,
,,,,,,,5c1919fbd9241d0001363964,605b45a4d25f287719a41696,605f784bf424f86e11f24bac,I am not familiar with Spanish,Midwest,13 or older,no,2021-03-27_13h25.30.133,empathy_intonation_perc,2020.2.10,Linux x86_64,60,,,,,,,,,,1,mexican,1,1,2.868455,0,43,43,28,1,29,./stim/wavs/andalusian_match_interrogative-total-yn_Manuela-vende-el-carro.wav,./stim/wavs/argentine_match_interrogative-total-yn_Manuela-vende-el-carro.wav,./stim/wavs/castilian_match_interrogative-total-yn_Manuela-vende-el-carro.wav,./stim/wavs/chilean_match_interrogative-total-yn_Manuela-vende-el-carro.wav,./stim/wavs/cuban_match_interrogative-total-yn_Manuela-vende-el-carro.wav,./stim/wavs/mexican_match_interrogative-total-yn_Manuela-vende-el-carro.wav,./stim/wavs/peruvian_match_interrogative-total-yn_Manuela-vende-el-carro.wav,./stim/wavs/puertorican_match_interrogative-total-yn_Manuela-vende-el-carro.wav,,,,,,,,,,,,,,,,,,,,,,,,,,,,,,,,,,,,,,,,,,,,,,,,,,,,,,,,
,,,,,,,5c1919fbd9241d0001363964,605b45a4d25f287719a41696,605f784bf424f86e11f24bac,I am not familiar with Spanish,Midwest,13 or older,no,2021-03-27_13h25.30.133,empathy_intonation_perc,2020.2.10,Linux x86_64,60,,,,,,,,,,0,chilean,0,1,2.34825,0,44,44,47,1,48,./stim/wavs/andalusian_mismatch_declarative-narrow-focus_Mi-tia-odia-la-lluvia.wav,./stim/wavs/argentine_mismatch_declarative-narrow-focus_Mi-tia-odia-la-lluvia.wav,./stim/wavs/castilian_mismatch_declarative-narrow-focus_Mi-tia-odia-la-lluvia.wav,./stim/wavs/chilean_mismatch_declarative-narrow-focus_Mi-tia-odia-la-lluvia.wav,./stim/wavs/cuban_mismatch_declarative-narrow-focus_Mi-tia-odia-la-lluvia.wav,./stim/wavs/mexican_mismatch_declarative-narrow-focus_Mi-tia-odia-la-lluvia.wav,./stim/wavs/peruvian_mismatch_declarative-narrow-focus_Mi-tia-odia-la-lluvia.wav,./stim/wavs/puertorican_mismatch_declarative-narrow-focus_Mi-tia-odia-la-lluvia.wav,,,,,,,,,,,,,,,,,,,,,,,,,,,,,,,,,,,,,,,,,,,,,,,,,,,,,,,,
,,,,,,,5c1919fbd9241d0001363964,605b45a4d25f287719a41696,605f784bf424f86e11f24bac,I am not familiar with Spanish,Midwest,13 or older,no,2021-03-27_13h25.30.133,empathy_intonation_perc,2020.2.10,Linux x86_64,60,,,,,,,,,,1,mexican,1,1,1.50087,0,45,45,18,1,19,./stim/wavs/andalusian_match_interrogative-partial-wh_Cuando-lleva-el-abrigo.wav,./stim/wavs/argentine_match_interrogative-partial-wh_Cuando-lleva-el-abrigo.wav,./stim/wavs/castilian_match_interrogative-partial-wh_Cuando-lleva-el-abrigo.wav,./stim/wavs/chilean_match_interrogative-partial-wh_Cuando-lleva-el-abrigo.wav,./stim/wavs/cuban_match_interrogative-partial-wh_Cuando-lleva-el-abrigo.wav,./stim/wavs/mexican_match_interrogative-partial-wh_Cuando-lleva-el-abrigo.wav,./stim/wavs/peruvian_match_interrogative-partial-wh_Cuando-lleva-el-abrigo.wav,./stim/wavs/puertorican_match_interrogative-partial-wh_Cuando-lleva-el-abrigo.wav,,,,,,,,,,,,,,,,,,,,,,,,,,,,,,,,,,,,,,,,,,,,,,,,,,,,,,,,
,,,,,,,5c1919fbd9241d0001363964,605b45a4d25f287719a41696,605f784bf424f86e11f24bac,I am not familiar with Spanish,Midwest,13 or older,no,2021-03-27_13h25.30.133,empathy_intonation_perc,2020.2.10,Linux x86_64,60,,,,,,,,,,1,peruvian,1,1,1.355735,0,46,46,16,1,17,./stim/wavs/andalusian_match_interrogative-partial-wh_Cuando-bebia-el-vino.wav,./stim/wavs/argentine_match_interrogative-partial-wh_Cuando-bebia-el-vino.wav,./stim/wavs/castilian_match_interrogative-partial-wh_Cuando-bebia-el-vino.wav,./stim/wavs/chilean_match_interrogative-partial-wh_Cuando-bebia-el-vino.wav,./stim/wavs/cuban_match_interrogative-partial-wh_Cuando-bebia-el-vino.wav,./stim/wavs/mexican_match_interrogative-partial-wh_Cuando-bebia-el-vino.wav,./stim/wavs/peruvian_match_interrogative-partial-wh_Cuando-bebia-el-vino.wav,./stim/wavs/puertorican_match_interrogative-partial-wh_Cuando-bebia-el-vino.wav,,,,,,,,,,,,,,,,,,,,,,,,,,,,,,,,,,,,,,,,,,,,,,,,,,,,,,,,
,,,,,,,5c1919fbd9241d0001363964,605b45a4d25f287719a41696,605f784bf424f86e11f24bac,I am not familiar with Spanish,Midwest,13 or older,no,2021-03-27_13h25.30.133,empathy_intonation_perc,2020.2.10,Linux x86_64,60,,,,,,,,,,0,castilian,0,1,1.557305,0,47,47,8,1,9,./stim/wavs/andalusian_match_declarative-narrow-focus_Ana-lleva-el-abrigo.wav,./stim/wavs/argentine_match_declarative-narrow-focus_Ana-lleva-el-abrigo.wav,./stim/wavs/castilian_match_declarative-narrow-focus_Ana-lleva-el-abrigo.wav,./stim/wavs/chilean_match_declarative-narrow-focus_Ana-lleva-el-abrigo.wav,./stim/wavs/cuban_match_declarative-narrow-focus_Ana-lleva-el-abrigo.wav,./stim/wavs/mexican_match_declarative-narrow-focus_Ana-lleva-el-abrigo.wav,./stim/wavs/peruvian_match_declarative-narrow-focus_Ana-lleva-el-abrigo.wav,./stim/wavs/puertorican_match_declarative-narrow-focus_Ana-lleva-el-abrigo.wav,,,,,,,,,,,,,,,,,,,,,,,,,,,,,,,,,,,,,,,,,,,,,,,,,,,,,,,,
,,,,,,,5c1919fbd9241d0001363964,605b45a4d25f287719a41696,605f784bf424f86e11f24bac,I am not familiar with Spanish,Midwest,13 or older,no,2021-03-27_13h25.30.133,empathy_intonation_perc,2020.2.10,Linux x86_64,60,,,,,,,,,,1,puertorican,1,1,1.25086,0,48,48,21,1,22,./stim/wavs/andalusian_match_interrogative-partial-wh_Por-que-ama-la-navidad.wav,./stim/wavs/argentine_match_interrogative-partial-wh_Por-que-ama-la-navidad.wav,./stim/wavs/castilian_match_interrogative-partial-wh_Por-que-ama-la-navidad.wav,./stim/wavs/chilean_match_interrogative-partial-wh_Por-que-ama-la-navidad.wav,./stim/wavs/cuban_match_interrogative-partial-wh_Por-que-ama-la-navidad.wav,./stim/wavs/mexican_match_interrogative-partial-wh_Por-que-ama-la-navidad.wav,./stim/wavs/peruvian_match_interrogative-partial-wh_Por-que-ama-la-navidad.wav,./stim/wavs/puertorican_match_interrogative-partial-wh_Por-que-ama-la-navidad.wav,,,,,,,,,,,,,,,,,,,,,,,,,,,,,,,,,,,,,,,,,,,,,,,,,,,,,,,,
,,,,,,,5c1919fbd9241d0001363964,605b45a4d25f287719a41696,605f784bf424f86e11f24bac,I am not familiar with Spanish,Midwest,13 or older,no,2021-03-27_13h25.30.133,empathy_intonation_perc,2020.2.10,Linux x86_64,60,,,,,,,,,,1,castilian,0,0,1.46407,0,49,49,26,1,27,./stim/wavs/andalusian_match_interrogative-total-yn_David-leia-el-libro.wav,./stim/wavs/argentine_match_interrogative-total-yn_David-leia-el-libro.wav,./stim/wavs/castilian_match_interrogative-total-yn_David-leia-el-libro.wav,./stim/wavs/chilean_match_interrogative-total-yn_David-leia-el-libro.wav,./stim/wavs/cuban_match_interrogative-total-yn_David-leia-el-libro.wav,./stim/wavs/mexican_match_interrogative-total-yn_David-leia-el-libro.wav,./stim/wavs/peruvian_match_interrogative-total-yn_David-leia-el-libro.wav,./stim/wavs/puertorican_match_interrogative-total-yn_David-leia-el-libro.wav,,,,,,,,,,,,,,,,,,,,,,,,,,,,,,,,,,,,,,,,,,,,,,,,,,,,,,,,
,,,,,,,5c1919fbd9241d0001363964,605b45a4d25f287719a41696,605f784bf424f86e11f24bac,I am not familiar with Spanish,Midwest,13 or older,no,2021-03-27_13h25.30.133,empathy_intonation_perc,2020.2.10,Linux x86_64,60,,,,,,,,,,1,argentine,1,1,1.36668,0,50,50,54,1,55,./stim/wavs/andalusian_mismatch_interrogative-partial-wh_Por-que-venia-del-lago.wav,./stim/wavs/argentine_mismatch_interrogative-partial-wh_Por-que-venia-del-lago.wav,./stim/wavs/castilian_mismatch_interrogative-partial-wh_Por-que-venia-del-lago.wav,./stim/wavs/chilean_mismatch_interrogative-partial-wh_Por-que-venia-del-lago.wav,./stim/wavs/cuban_mismatch_interrogative-partial-wh_Por-que-venia-del-lago.wav,./stim/wavs/mexican_mismatch_interrogative-partial-wh_Por-que-venia-del-lago.wav,./stim/wavs/peruvian_mismatch_interrogative-partial-wh_Por-que-venia-del-lago.wav,./stim/wavs/puertorican_mismatch_interrogative-partial-wh_Por-que-venia-del-lago.wav,,,,,,,,,,,,,,,,,,,,,,,,,,,,,,,,,,,,,,,,,,,,,,,,,,,,,,,,
,,,,,,,5c1919fbd9241d0001363964,605b45a4d25f287719a41696,605f784bf424f86e11f24bac,I am not familiar with Spanish,Midwest,13 or older,no,2021-03-27_13h25.30.133,empathy_intonation_perc,2020.2.10,Linux x86_64,60,,,,,,,,,,1,argentine,1,1,1.06539,0,51,51,55,1,56,./stim/wavs/andalusian_mismatch_interrogative-partial-wh_Por-que-vivia-en-Paris.wav,./stim/wavs/argentine_mismatch_interrogative-partial-wh_Por-que-vivia-en-Paris.wav,./stim/wavs/castilian_mismatch_interrogative-partial-wh_Por-que-vivia-en-Paris.wav,./stim/wavs/chilean_mismatch_interrogative-partial-wh_Por-que-vivia-en-Paris.wav,./stim/wavs/cuban_mismatch_interrogative-partial-wh_Por-que-vivia-en-Paris.wav,./stim/wavs/mexican_mismatch_interrogative-partial-wh_Por-que-vivia-en-Paris.wav,./stim/wavs/peruvian_mismatch_interrogative-partial-wh_Por-que-vivia-en-Paris.wav,./stim/wavs/puertorican_mismatch_interrogative-partial-wh_Por-que-vivia-en-Paris.wav,,,,,,,,,,,,,,,,,,,,,,,,,,,,,,,,,,,,,,,,,,,,,,,,,,,,,,,,
,,,,,,,5c1919fbd9241d0001363964,605b45a4d25f287719a41696,605f784bf424f86e11f24bac,I am not familiar with Spanish,Midwest,13 or older,no,2021-03-27_13h25.30.133,empathy_intonation_perc,2020.2.10,Linux x86_64,60,,,,,,,,,,1,peruvian,1,1,0.899245,0,52,52,48,1,49,./stim/wavs/andalusian_mismatch_interrogative-partial-wh_Cuando-comia-la-fruta.wav,./stim/wavs/argentine_mismatch_interrogative-partial-wh_Cuando-comia-la-fruta.wav,./stim/wavs/castilian_mismatch_interrogative-partial-wh_Cuando-comia-la-fruta.wav,./stim/wavs/chilean_mismatch_interrogative-partial-wh_Cuando-comia-la-fruta.wav,./stim/wavs/cuban_mismatch_interrogative-partial-wh_Cuando-comia-la-fruta.wav,./stim/wavs/mexican_mismatch_interrogative-partial-wh_Cuando-comia-la-fruta.wav,./stim/wavs/peruvian_mismatch_interrogative-partial-wh_Cuando-comia-la-fruta.wav,./stim/wavs/puertorican_mismatch_interrogative-partial-wh_Cuando-comia-la-fruta.wav,,,,,,,,,,,,,,,,,,,,,,,,,,,,,,,,,,,,,,,,,,,,,,,,,,,,,,,,
,,,,,,,5c1919fbd9241d0001363964,605b45a4d25f287719a41696,605f784bf424f86e11f24bac,I am not familiar with Spanish,Midwest,13 or older,no,2021-03-27_13h25.30.133,empathy_intonation_perc,2020.2.10,Linux x86_64,60,,,,,,,,,,0,andalusian,0,1,1.4204,0,53,53,44,1,45,./stim/wavs/andalusian_mismatch_declarative-narrow-focus_La-nina-lava-el-plato.wav,./stim/wavs/argentine_mismatch_declarative-narrow-focus_La-nina-lava-el-plato.wav,./stim/wavs/castilian_mismatch_declarative-narrow-focus_La-nina-lava-el-plato.wav,./stim/wavs/chilean_mismatch_declarative-narrow-focus_La-nina-lava-el-plato.wav,./stim/wavs/cuban_mismatch_declarative-narrow-focus_La-nina-lava-el-plato.wav,./stim/wavs/mexican_mismatch_declarative-narrow-focus_La-nina-lava-el-plato.wav,./stim/wavs/peruvian_mismatch_declarative-narrow-focus_La-nina-lava-el-plato.wav,./stim/wavs/puertorican_mismatch_declarative-narrow-focus_La-nina-lava-el-plato.wav,,,,,,,,,,,,,,,,,,,,,,,,,,,,,,,,,,,,,,,,,,,,,,,,,,,,,,,,
,,,,,,,5c1919fbd9241d0001363964,605b45a4d25f287719a41696,605f784bf424f86e11f24bac,I am not familiar with Spanish,Midwest,13 or older,no,2021-03-27_13h25.30.133,empathy_intonation_perc,2020.2.10,Linux x86_64,60,,,,,,,,,,0,peruvian,0,1,1.397985,0,54,54,0,1,1,./stim/wavs/andalusian_match_declarative-broad-focus_Ana-lleva-el-abrigo.wav,./stim/wavs/argentine_match_declarative-broad-focus_Ana-lleva-el-abrigo.wav,./stim/wavs/castilian_match_declarative-broad-focus_Ana-lleva-el-abrigo.wav,./stim/wavs/chilean_match_declarative-broad-focus_Ana-lleva-el-abrigo.wav,./stim/wavs/cuban_match_declarative-broad-focus_Ana-lleva-el-abrigo.wav,./stim/wavs/mexican_match_declarative-broad-focus_Ana-lleva-el-abrigo.wav,./stim/wavs/peruvian_match_declarative-broad-focus_Ana-lleva-el-abrigo.wav,./stim/wavs/puertorican_match_declarative-broad-focus_Ana-lleva-el-abrigo.wav,,,,,,,,,,,,,,,,,,,,,,,,,,,,,,,,,,,,,,,,,,,,,,,,,,,,,,,,
,,,,,,,5c1919fbd9241d0001363964,605b45a4d25f287719a41696,605f784bf424f86e11f24bac,I am not familiar with Spanish,Midwest,13 or older,no,2021-03-27_13h25.30.133,empathy_intonation_perc,2020.2.10,Linux x86_64,60,,,,,,,,,,0,argentine,0,1,1.300255,0,55,55,2,1,3,./stim/wavs/andalusian_match_declarative-broad-focus_David-leia-el-libro.wav,./stim/wavs/argentine_match_declarative-broad-focus_David-leia-el-libro.wav,./stim/wavs/castilian_match_declarative-broad-focus_David-leia-el-libro.wav,./stim/wavs/chilean_match_declarative-broad-focus_David-leia-el-libro.wav,./stim/wavs/cuban_match_declarative-broad-focus_David-leia-el-libro.wav,./stim/wavs/mexican_match_declarative-broad-focus_David-leia-el-libro.wav,./stim/wavs/peruvian_match_declarative-broad-focus_David-leia-el-libro.wav,./stim/wavs/puertorican_match_declarative-broad-focus_David-leia-el-libro.wav,,,,,,,,,,,,,,,,,,,,,,,,,,,,,,,,,,,,,,,,,,,,,,,,,,,,,,,,
,,,,,,,5c1919fbd9241d0001363964,605b45a4d25f287719a41696,605f784bf424f86e11f24bac,I am not familiar with Spanish,Midwest,13 or older,no,2021-03-27_13h25.30.133,empathy_intonation_perc,2020.2.10,Linux x86_64,60,,,,,,,,,,0,mexican,0,1,1.40555,0,56,56,3,1,4,./stim/wavs/andalusian_match_declarative-broad-focus_Emilio-ama-la-marcha.wav,./stim/wavs/argentine_match_declarative-broad-focus_Emilio-ama-la-marcha.wav,./stim/wavs/castilian_match_declarative-broad-focus_Emilio-ama-la-marcha.wav,./stim/wavs/chilean_match_declarative-broad-focus_Emilio-ama-la-marcha.wav,./stim/wavs/cuban_match_declarative-broad-focus_Emilio-ama-la-marcha.wav,./stim/wavs/mexican_match_declarative-broad-focus_Emilio-ama-la-marcha.wav,./stim/wavs/peruvian_match_declarative-broad-focus_Emilio-ama-la-marcha.wav,./stim/wavs/puertorican_match_declarative-broad-focus_Emilio-ama-la-marcha.wav,,,,,,,,,,,,,,,,,,,,,,,,,,,,,,,,,,,,,,,,,,,,,,,,,,,,,,,,
,,,,,,,5c1919fbd9241d0001363964,605b45a4d25f287719a41696,605f784bf424f86e11f24bac,I am not familiar with Spanish,Midwest,13 or older,no,2021-03-27_13h25.30.133,empathy_intonation_perc,2020.2.10,Linux x86_64,60,,,,,,,,,,1,chilean,0,0,1.20544,0,57,57,24,1,25,./stim/wavs/andalusian_match_interrogative-total-yn_Ana-lleva-el-abrigo.wav,./stim/wavs/argentine_match_interrogative-total-yn_Ana-lleva-el-abrigo.wav,./stim/wavs/castilian_match_interrogative-total-yn_Ana-lleva-el-abrigo.wav,./stim/wavs/chilean_match_interrogative-total-yn_Ana-lleva-el-abrigo.wav,./stim/wavs/cuban_match_interrogative-total-yn_Ana-lleva-el-abrigo.wav,./stim/wavs/mexican_match_interrogative-total-yn_Ana-lleva-el-abrigo.wav,./stim/wavs/peruvian_match_interrogative-total-yn_Ana-lleva-el-abrigo.wav,./stim/wavs/puertorican_match_interrogative-total-yn_Ana-lleva-el-abrigo.wav,,,,,,,,,,,,,,,,,,,,,,,,,,,,,,,,,,,,,,,,,,,,,,,,,,,,,,,,
,,,,,,,5c1919fbd9241d0001363964,605b45a4d25f287719a41696,605f784bf424f86e11f24bac,I am not familiar with Spanish,Midwest,13 or older,no,2021-03-27_13h25.30.133,empathy_intonation_perc,2020.2.10,Linux x86_64,60,,,,,,,,,,0,peruvian,0,1,2.278355,0,58,58,41,1,42,./stim/wavs/andalusian_mismatch_declarative-narrow-focus_El-hombre-mira-la-luna.wav,./stim/wavs/argentine_mismatch_declarative-narrow-focus_El-hombre-mira-la-luna.wav,./stim/wavs/castilian_mismatch_declarative-narrow-focus_El-hombre-mira-la-luna.wav,./stim/wavs/chilean_mismatch_declarative-narrow-focus_El-hombre-mira-la-luna.wav,./stim/wavs/cuban_mismatch_declarative-narrow-focus_El-hombre-mira-la-luna.wav,./stim/wavs/mexican_mismatch_declarative-narrow-focus_El-hombre-mira-la-luna.wav,./stim/wavs/peruvian_mismatch_declarative-narrow-focus_El-hombre-mira-la-luna.wav,./stim/wavs/puertorican_mismatch_declarative-narrow-focus_El-hombre-mira-la-luna.wav,,,,,,,,,,,,,,,,,,,,,,,,,,,,,,,,,,,,,,,,,,,,,,,,,,,,,,,,
,,,,,,,5c1919fbd9241d0001363964,605b45a4d25f287719a41696,605f784bf424f86e11f24bac,I am not familiar with Spanish,Midwest,13 or older,no,2021-03-27_13h25.30.133,empathy_intonation_perc,2020.2.10,Linux x86_64,60,,,,,,,,,,0,mexican,0,1,1.60397,0,59,59,1,1,2,./stim/wavs/andalusian_match_declarative-broad-focus_Daniel-iba-a-Bolivia.wav,./stim/wavs/argentine_match_declarative-broad-focus_Daniel-iba-a-Bolivia.wav,./stim/wavs/castilian_match_declarative-broad-focus_Daniel-iba-a-Bolivia.wav,./stim/wavs/chilean_match_declarative-broad-focus_Daniel-iba-a-Bolivia.wav,./stim/wavs/cuban_match_declarative-broad-focus_Daniel-iba-a-Bolivia.wav,./stim/wavs/mexican_match_declarative-broad-focus_Daniel-iba-a-Bolivia.wav,./stim/wavs/peruvian_match_declarative-broad-focus_Daniel-iba-a-Bolivia.wav,./stim/wavs/puertorican_match_declarative-broad-focus_Daniel-iba-a-Bolivia.wav,,,,,,,,,,,,,,,,,,,,,,,,,,,,,,,,,,,,,,,,,,,,,,,,,,,,,,,,
,,,,,,,5c1919fbd9241d0001363964,605b45a4d25f287719a41696,605f784bf424f86e11f24bac,I am not familiar with Spanish,Midwest,13 or older,no,2021-03-27_13h25.30.133,empathy_intonation_perc,2020.2.10,Linux x86_64,60,,,,,,,,,,0,andalusian,0,1,1.41189,0,60,60,4,1,5,./stim/wavs/andalusian_match_declarative-broad-focus_Manuela-vende-el-carro.wav,./stim/wavs/argentine_match_declarative-broad-focus_Manuela-vende-el-carro.wav,./stim/wavs/castilian_match_declarative-broad-focus_Manuela-vende-el-carro.wav,./stim/wavs/chilean_match_declarative-broad-focus_Manuela-vende-el-carro.wav,./stim/wavs/cuban_match_declarative-broad-focus_Manuela-vende-el-carro.wav,./stim/wavs/mexican_match_declarative-broad-focus_Manuela-vende-el-carro.wav,./stim/wavs/peruvian_match_declarative-broad-focus_Manuela-vende-el-carro.wav,./stim/wavs/puertorican_match_declarative-broad-focus_Manuela-vende-el-carro.wav,,,,,,,,,,,,,,,,,,,,,,,,,,,,,,,,,,,,,,,,,,,,,,,,,,,,,,,,
,,,,,,,5c1919fbd9241d0001363964,605b45a4d25f287719a41696,605f784bf424f86e11f24bac,I am not familiar with Spanish,Midwest,13 or older,no,2021-03-27_13h25.30.133,empathy_intonation_perc,2020.2.10,Linux x86_64,60,,,,,,,,,,0,chilean,0,1,1.466465,0,61,61,45,1,46,./stim/wavs/andalusian_mismatch_declarative-narrow-focus_Mi-madre-come-la-fruta.wav,./stim/wavs/argentine_mismatch_declarative-narrow-focus_Mi-madre-come-la-fruta.wav,./stim/wavs/castilian_mismatch_declarative-narrow-focus_Mi-madre-come-la-fruta.wav,./stim/wavs/chilean_mismatch_declarative-narrow-focus_Mi-madre-come-la-fruta.wav,./stim/wavs/cuban_mismatch_declarative-narrow-focus_Mi-madre-come-la-fruta.wav,./stim/wavs/mexican_mismatch_declarative-narrow-focus_Mi-madre-come-la-fruta.wav,./stim/wavs/peruvian_mismatch_declarative-narrow-focus_Mi-madre-come-la-fruta.wav,./stim/wavs/puertorican_mismatch_declarative-narrow-focus_Mi-madre-come-la-fruta.wav,,,,,,,,,,,,,,,,,,,,,,,,,,,,,,,,,,,,,,,,,,,,,,,,,,,,,,,,
,,,,,,,5c1919fbd9241d0001363964,605b45a4d25f287719a41696,605f784bf424f86e11f24bac,I am not familiar with Spanish,Midwest,13 or older,no,2021-03-27_13h25.30.133,empathy_intonation_perc,2020.2.10,Linux x86_64,60,,,,,,,,,,1,castilian,1,1,1.63547,0,62,62,56,1,57,./stim/wavs/andalusian_mismatch_interrogative-total-yn_El-bebe-comia-muy-bien.wav,./stim/wavs/argentine_mismatch_interrogative-total-yn_El-bebe-comia-muy-bien.wav,./stim/wavs/castilian_mismatch_interrogative-total-yn_El-bebe-comia-muy-bien.wav,./stim/wavs/chilean_mismatch_interrogative-total-yn_El-bebe-comia-muy-bien.wav,./stim/wavs/cuban_mismatch_interrogative-total-yn_El-bebe-comia-muy-bien.wav,./stim/wavs/mexican_mismatch_interrogative-total-yn_El-bebe-comia-muy-bien.wav,./stim/wavs/peruvian_mismatch_interrogative-total-yn_El-bebe-comia-muy-bien.wav,./stim/wavs/puertorican_mismatch_interrogative-total-yn_El-bebe-comia-muy-bien.wav,,,,,,,,,,,,,,,,,,,,,,,,,,,,,,,,,,,,,,,,,,,,,,,,,,,,,,,,
,,,,,,,5c1919fbd9241d0001363964,605b45a4d25f287719a41696,605f784bf424f86e11f24bac,I am not familiar with Spanish,Midwest,13 or older,no,2021-03-27_13h25.30.133,empathy_intonation_perc,2020.2.10,Linux x86_64,60,,,,,,,,,,1,cuban,0,0,1.44307,0,63,63,60,1,61,./stim/wavs/andalusian_mismatch_interrogative-total-yn_La-nina-lava-el-plato.wav,./stim/wavs/argentine_mismatch_interrogative-total-yn_La-nina-lava-el-plato.wav,./stim/wavs/castilian_mismatch_interrogative-total-yn_La-nina-lava-el-plato.wav,./stim/wavs/chilean_mismatch_interrogative-total-yn_La-nina-lava-el-plato.wav,./stim/wavs/cuban_mismatch_interrogative-total-yn_La-nina-lava-el-plato.wav,./stim/wavs/mexican_mismatch_interrogative-total-yn_La-nina-lava-el-plato.wav,./stim/wavs/peruvian_mismatch_interrogative-total-yn_La-nina-lava-el-plato.wav,./stim/wavs/puertorican_mismatch_interrogative-total-yn_La-nina-lava-el-plato.wav,,,,,,,,,,,,,,,,,,,,,,,,,,,,,,,,,,,,,,,,,,,,,,,,,,,,,,,,
,,,,,,,5c1919fbd9241d0001363964,605b45a4d25f287719a41696,605f784bf424f86e11f24bac,I am not familiar with Spanish,Midwest,13 or older,no,2021-03-27_13h25.30.133,empathy_intonation_perc,2020.2.10,Linux x86_64,60,,,,,,,,,,,,,,,,,,,,,,,,,,,,,h,1,5.633785,0,0,0,0,1,,,,,,,,,,,,,,,,,,,,,,,,,,,,,,,,,,,,,,,,,,,,,,,,
,,,,,"Great! Now we will move on. The next task consists of about 60 trials, in each of which you will see a string of letters. 
  
  Your task is to decide whether this is a real Spanish word or not.",(press the spacebar to continue),5c1919fbd9241d0001363964,605b45a4d25f287719a41696,605f784bf424f86e11f24bac,I am not familiar with Spanish,Midwest,13 or older,no,2021-03-27_13h25.30.133,empathy_intonation_perc,2020.2.10,Linux x86_64,60,,,,,,,,,,,,,,,,,,,,,,,,,,,,,,,,,,,,,0,0,0,0,1,,,,,,,,,,,,,,,,,,,,,,,,,,,,,,,,,,,,,,,,,,,
,,,,,"If you think it is an existing Spanish word, you type '1' (for 'REAL'), and if you think it is not an existing Spanish word, you type '0' (for 'FAKE').",(press the spacebar to continue),5c1919fbd9241d0001363964,605b45a4d25f287719a41696,605f784bf424f86e11f24bac,I am not familiar with Spanish,Midwest,13 or older,no,2021-03-27_13h25.30.133,empathy_intonation_perc,2020.2.10,Linux x86_64,60,,,,,,,,,,,,,,,,,,,,,,,,,,,,,,,,,,,,,0,1,1,1,1,,,,,,,,,,,,,,,,,,,,,,,,,,,,,,,,,,,,,,,,,,,
,,,,,"If you are sure that the word exists, even though you dont know its exact meaning, you may still respond '1' (REAL). 
  
  But if you are not sure if it is an existing word, you should respond '0' (FAKE).
  
  Let's do a practice round...",(press the spacebar to continue),5c1919fbd9241d0001363964,605b45a4d25f287719a41696,605f784bf424f86e11f24bac,I am not familiar with Spanish,Midwest,13 or older,no,2021-03-27_13h25.30.133,empathy_intonation_perc,2020.2.10,Linux x86_64,60,,,,,,,,,,,,,,,,,,,,,,,,,,,,,,,,,,,,,0,2,2,2,1,,,,,,,,,,,,,,,,,,,,,,,,,,,,,,,,,,,,,,,,,,,
,,,,,,,5c1919fbd9241d0001363964,605b45a4d25f287719a41696,605f784bf424f86e11f24bac,I am not familiar with Spanish,Midwest,13 or older,no,2021-03-27_13h25.30.133,empathy_intonation_perc,2020.2.10,Linux x86_64,60,,,,,,,,,,0,,,,,,,,,,,,,,,,,,,,,,,,,,,,,,,,1,0,2.97816,0,0,0,0,1,0,depiste,REAL,FAKE,,,,,,,,,,,,,,,,,,,,,,,,,,,,,,,
,,,,,,,5c1919fbd9241d0001363964,605b45a4d25f287719a41696,605f784bf424f86e11f24bac,I am not familiar with Spanish,Midwest,13 or older,no,2021-03-27_13h25.30.133,empathy_intonation_perc,2020.2.10,Linux x86_64,60,,,,,,,,,,1,,,,,,,,,,,,,,,,,,,,,,,,,,,,,,,,1,1,1.18166,0,1,1,1,1,0,s,REAL,FAKE,,,,,,,,,,,,,,,,,,,,,,,,,,,,,,,
,,,,,,,5c1919fbd9241d0001363964,605b45a4d25f287719a41696,605f784bf424f86e11f24bac,I am not familiar with Spanish,Midwest,13 or older,no,2021-03-27_13h25.30.133,empathy_intonation_perc,2020.2.10,Linux x86_64,60,,,,,,,,,,0,,,,,,,,,,,,,,,,,,,,,,,,,,,,,,,,1,0,0.964415,0,2,2,2,1,0,con,REAL,FAKE,,,,,,,,,,,,,,,,,,,,,,,,,,,,,,,
,,,,,,,5c1919fbd9241d0001363964,605b45a4d25f287719a41696,605f784bf424f86e11f24bac,I am not familiar with Spanish,Midwest,13 or older,no,2021-03-27_13h25.30.133,empathy_intonation_perc,2020.2.10,Linux x86_64,60,,,,,,,,,,0,,,,,,,,,,,,,,,,,,,,,,,,,,,,,,,,1,0,1.12926,0,3,3,3,1,0,calpar,REAL,FAKE,,,,,,,,,,,,,,,,,,,,,,,,,,,,,,,
,,,,,,,5c1919fbd9241d0001363964,605b45a4d25f287719a41696,605f784bf424f86e11f24bac,I am not familiar with Spanish,Midwest,13 or older,no,2021-03-27_13h25.30.133,empathy_intonation_perc,2020.2.10,Linux x86_64,60,,,,,,,,,,0,,,,,,,,,,,,,,,,,,,,,,,,,,,,,,,,0,1,1.226365,0,4,4,4,1,0,joten,REAL,FAKE,,,,,,,,,,,,,,,,,,,,,,,,,,,,,,,
,,,,,,,5c1919fbd9241d0001363964,605b45a4d25f287719a41696,605f784bf424f86e11f24bac,I am not familiar with Spanish,Midwest,13 or older,no,2021-03-27_13h25.30.133,empathy_intonation_perc,2020.2.10,Linux x86_64,60,,,,,,,,,,1,,,,,,,,,,,,,,,,,,,,,,,,,,,,,,,,1,1,1.694905,0,5,5,5,1,0,sacapuntas,REAL,FAKE,,,,,,,,,,,,,,,,,,,,,,,,,,,,,,,
,,,,,,,5c1919fbd9241d0001363964,605b45a4d25f287719a41696,605f784bf424f86e11f24bac,I am not familiar with Spanish,Midwest,13 or older,no,2021-03-27_13h25.30.133,empathy_intonation_perc,2020.2.10,Linux x86_64,60,,,,,,,,,,0,,,,,,,,,,,,,,,,,,,,,,,,,,,,,,,,1,0,1.199185,0,6,6,6,1,0,priba,REAL,FAKE,,,,,,,,,,,,,,,,,,,,,,,,,,,,,,,
,,,,,,,5c1919fbd9241d0001363964,605b45a4d25f287719a41696,605f784bf424f86e11f24bac,I am not familiar with Spanish,Midwest,13 or older,no,2021-03-27_13h25.30.133,empathy_intonation_perc,2020.2.10,Linux x86_64,60,,,,,,,,,,0,,,,,,,,,,,,,,,,,,,,,,,,,,,,,,,,0,1,1.161255,0,7,7,7,1,0,pelasula,REAL,FAKE,,,,,,,,,,,,,,,,,,,,,,,,,,,,,,,
,,,,,,,5c1919fbd9241d0001363964,605b45a4d25f287719a41696,605f784bf424f86e11f24bac,I am not familiar with Spanish,Midwest,13 or older,no,2021-03-27_13h25.30.133,empathy_intonation_perc,2020.2.10,Linux x86_64,60,,,,,,,,,,1,,,,,,,,,,,,,,,,,,,,,,,,,,,,,,,,1,1,1.028185,0,8,8,8,1,0,bien,REAL,FAKE,,,,,,,,,,,,,,,,,,,,,,,,,,,,,,,
,,,,,,,5c1919fbd9241d0001363964,605b45a4d25f287719a41696,605f784bf424f86e11f24bac,I am not familiar with Spanish,Midwest,13 or older,no,2021-03-27_13h25.30.133,empathy_intonation_perc,2020.2.10,Linux x86_64,60,,,,,,,,,,1,,,,,,,,,,,,,,,,,,,,,,,,,,,,,,,,1,1,0.834775,0,9,9,9,1,0,casa,REAL,FAKE,,,,,,,,,,,,,,,,,,,,,,,,,,,,,,,
,,,,,,,5c1919fbd9241d0001363964,605b45a4d25f287719a41696,605f784bf424f86e11f24bac,I am not familiar with Spanish,Midwest,13 or older,no,2021-03-27_13h25.30.133,empathy_intonation_perc,2020.2.10,Linux x86_64,60,,,,,,,,,,0,,,,,,,,,,,,,,,,,,,,,,,,,,,,,,,,0,1,1.169415,0,10,10,10,1,0,lejo,REAL,FAKE,,,,,,,,,,,,,,,,,,,,,,,,,,,,,,,
,,,,,,,5c1919fbd9241d0001363964,605b45a4d25f287719a41696,605f784bf424f86e11f24bac,I am not familiar with Spanish,Midwest,13 or older,no,2021-03-27_13h25.30.133,empathy_intonation_perc,2020.2.10,Linux x86_64,60,,,,,,,,,,0,,,,,,,,,,,,,,,,,,,,,,,,,,,,,,,,0,1,1.668775,0,11,11,11,1,0,pretantas,REAL,FAKE,,,,,,,,,,,,,,,,,,,,,,,,,,,,,,,
,,,,,,,5c1919fbd9241d0001363964,605b45a4d25f287719a41696,605f784bf424f86e11f24bac,I am not familiar with Spanish,Midwest,13 or older,no,2021-03-27_13h25.30.133,empathy_intonation_perc,2020.2.10,Linux x86_64,60,,,,,,,,,,1,,,,,,,,,,,,,,,,,,,,,,,,,,,,,,,,,,,,,,,,36,loro,,,0,0,2.000095,0,0,0,35,1,REAL,FAKE,,,,,,,,,,,,,,,,,,,,,
,,,,,,,5c1919fbd9241d0001363964,605b45a4d25f287719a41696,605f784bf424f86e11f24bac,I am not familiar with Spanish,Midwest,13 or older,no,2021-03-27_13h25.30.133,empathy_intonation_perc,2020.2.10,Linux x86_64,60,,,,,,,,,,1,,,,,,,,,,,,,,,,,,,,,,,,,,,,,,,,,,,,,,,,80,hormiga,,,1,1,1.37887,0,1,1,79,1,REAL,FAKE,,,,,,,,,,,,,,,,,,,,,
,,,,,,,5c1919fbd9241d0001363964,605b45a4d25f287719a41696,605f784bf424f86e11f24bac,I am not familiar with Spanish,Midwest,13 or older,no,2021-03-27_13h25.30.133,empathy_intonation_perc,2020.2.10,Linux x86_64,60,,,,,,,,,,1,,,,,,,,,,,,,,,,,,,,,,,,,,,,,,,,,,,,,,,,59,besar,,,0,0,0.66225,0,2,2,58,1,REAL,FAKE,,,,,,,,,,,,,,,,,,,,,
,,,,,,,5c1919fbd9241d0001363964,605b45a4d25f287719a41696,605f784bf424f86e11f24bac,I am not familiar with Spanish,Midwest,13 or older,no,2021-03-27_13h25.30.133,empathy_intonation_perc,2020.2.10,Linux x86_64,60,,,,,,,,,,1,,,,,,,,,,,,,,,,,,,,,,,,,,,,,,,,,,,,,,,,46,martillo,,,0,0,1.517905,0,3,3,45,1,REAL,FAKE,,,,,,,,,,,,,,,,,,,,,
,,,,,,,5c1919fbd9241d0001363964,605b45a4d25f287719a41696,605f784bf424f86e11f24bac,I am not familiar with Spanish,Midwest,13 or older,no,2021-03-27_13h25.30.133,empathy_intonation_perc,2020.2.10,Linux x86_64,60,,,,,,,,,,1,,,,,,,,,,,,,,,,,,,,,,,,,,,,,,,,,,,,,,,,7,psimo,,,1,1,0.94898,0,4,4,6,1,REAL,FAKE,,,,,,,,,,,,,,,,,,,,,
,,,,,,,5c1919fbd9241d0001363964,605b45a4d25f287719a41696,605f784bf424f86e11f24bac,I am not familiar with Spanish,Midwest,13 or older,no,2021-03-27_13h25.30.133,empathy_intonation_perc,2020.2.10,Linux x86_64,60,,,,,,,,,,1,,,,,,,,,,,,,,,,,,,,,,,,,,,,,,,,,,,,,,,,67,cabello,,,1,1,2.46264,0,5,5,66,1,REAL,FAKE,,,,,,,,,,,,,,,,,,,,,
,,,,,,,5c1919fbd9241d0001363964,605b45a4d25f287719a41696,605f784bf424f86e11f24bac,I am not familiar with Spanish,Midwest,13 or older,no,2021-03-27_13h25.30.133,empathy_intonation_perc,2020.2.10,Linux x86_64,60,,,,,,,,,,0,,,,,,,,,,,,,,,,,,,,,,,,,,,,,,,,,,,,,,,,33,pauca,,,0,1,1.013565,0,6,6,32,1,REAL,FAKE,,,,,,,,,,,,,,,,,,,,,
,,,,,,,5c1919fbd9241d0001363964,605b45a4d25f287719a41696,605f784bf424f86e11f24bac,I am not familiar with Spanish,Midwest,13 or older,no,2021-03-27_13h25.30.133,empathy_intonation_perc,2020.2.10,Linux x86_64,60,,,,,,,,,,1,,,,,,,,,,,,,,,,,,,,,,,,,,,,,,,,,,,,,,,,51,candado,,,0,0,2.02615,0,7,7,50,1,REAL,FAKE,,,,,,,,,,,,,,,,,,,,,
,,,,,,,5c1919fbd9241d0001363964,605b45a4d25f287719a41696,605f784bf424f86e11f24bac,I am not familiar with Spanish,Midwest,13 or older,no,2021-03-27_13h25.30.133,empathy_intonation_perc,2020.2.10,Linux x86_64,60,,,,,,,,,,0,,,,,,,,,,,,,,,,,,,,,,,,,,,,,,,,,,,,,,,,23,lampera,,,1,0,1.162715,0,8,8,22,1,REAL,FAKE,,,,,,,,,,,,,,,,,,,,,
,,,,,,,5c1919fbd9241d0001363964,605b45a4d25f287719a41696,605f784bf424f86e11f24bac,I am not familiar with Spanish,Midwest,13 or older,no,2021-03-27_13h25.30.133,empathy_intonation_perc,2020.2.10,Linux x86_64,60,,,,,,,,,,1,,,,,,,,,,,,,,,,,,,,,,,,,,,,,,,,,,,,,,,,77,tiburn,,,0,0,1.47175,0,9,9,76,1,REAL,FAKE,,,,,,,,,,,,,,,,,,,,,
,,,,,,,5c1919fbd9241d0001363964,605b45a4d25f287719a41696,605f784bf424f86e11f24bac,I am not familiar with Spanish,Midwest,13 or older,no,2021-03-27_13h25.30.133,empathy_intonation_perc,2020.2.10,Linux x86_64,60,,,,,,,,,,1,,,,,,,,,,,,,,,,,,,,,,,,,,,,,,,,,,,,,,,,41,rebuscar,,,1,1,1.352745,0,10,10,40,1,REAL,FAKE,,,,,,,,,,,,,,,,,,,,,
,,,,,,,5c1919fbd9241d0001363964,605b45a4d25f287719a41696,605f784bf424f86e11f24bac,I am not familiar with Spanish,Midwest,13 or older,no,2021-03-27_13h25.30.133,empathy_intonation_perc,2020.2.10,Linux x86_64,60,,,,,,,,,,1,,,,,,,,,,,,,,,,,,,,,,,,,,,,,,,,,,,,,,,,39,torpe,,,1,1,1.014415,0,11,11,38,1,REAL,FAKE,,,,,,,,,,,,,,,,,,,,,
,,,,,,,5c1919fbd9241d0001363964,605b45a4d25f287719a41696,605f784bf424f86e11f24bac,I am not familiar with Spanish,Midwest,13 or older,no,2021-03-27_13h25.30.133,empathy_intonation_perc,2020.2.10,Linux x86_64,60,,,,,,,,,,1,,,,,,,,,,,,,,,,,,,,,,,,,,,,,,,,,,,,,,,,5,zapato,,,1,1,0.96882,0,12,12,4,1,REAL,FAKE,,,,,,,,,,,,,,,,,,,,,
,,,,,,,5c1919fbd9241d0001363964,605b45a4d25f287719a41696,605f784bf424f86e11f24bac,I am not familiar with Spanish,Midwest,13 or older,no,2021-03-27_13h25.30.133,empathy_intonation_perc,2020.2.10,Linux x86_64,60,,,,,,,,,,0,,,,,,,,,,,,,,,,,,,,,,,,,,,,,,,,,,,,,,,,70,temblo,,,0,1,0.941405,0,13,13,69,1,REAL,FAKE,,,,,,,,,,,,,,,,,,,,,
,,,,,,,5c1919fbd9241d0001363964,605b45a4d25f287719a41696,605f784bf424f86e11f24bac,I am not familiar with Spanish,Midwest,13 or older,no,2021-03-27_13h25.30.133,empathy_intonation_perc,2020.2.10,Linux x86_64,60,,,,,,,,,,1,,,,,,,,,,,,,,,,,,,,,,,,,,,,,,,,,,,,,,,,13,helar,,,0,0,1.462405,0,14,14,12,1,REAL,FAKE,,,,,,,,,,,,,,,,,,,,,
,,,,,,,5c1919fbd9241d0001363964,605b45a4d25f287719a41696,605f784bf424f86e11f24bac,I am not familiar with Spanish,Midwest,13 or older,no,2021-03-27_13h25.30.133,empathy_intonation_perc,2020.2.10,Linux x86_64,60,,,,,,,,,,0,,,,,,,,,,,,,,,,,,,,,,,,,,,,,,,,,,,,,,,,4,batilln,,,1,0,0.97821,0,15,15,3,1,REAL,FAKE,,,,,,,,,,,,,,,,,,,,,
,,,,,,,5c1919fbd9241d0001363964,605b45a4d25f287719a41696,605f784bf424f86e11f24bac,I am not familiar with Spanish,Midwest,13 or older,no,2021-03-27_13h25.30.133,empathy_intonation_perc,2020.2.10,Linux x86_64,60,,,,,,,,,,0,,,,,,,,,,,,,,,,,,,,,,,,,,,,,,,,,,,,,,,,58,plaudir,,,1,0,1.221745,0,16,16,57,1,REAL,FAKE,,,,,,,,,,,,,,,,,,,,,
,,,,,,,5c1919fbd9241d0001363964,605b45a4d25f287719a41696,605f784bf424f86e11f24bac,I am not familiar with Spanish,Midwest,13 or older,no,2021-03-27_13h25.30.133,empathy_intonation_perc,2020.2.10,Linux x86_64,60,,,,,,,,,,0,,,,,,,,,,,,,,,,,,,,,,,,,,,,,,,,,,,,,,,,74,cintro,,,0,1,0.62706,0,17,17,73,1,REAL,FAKE,,,,,,,,,,,,,,,,,,,,,
,,,,,,,5c1919fbd9241d0001363964,605b45a4d25f287719a41696,605f784bf424f86e11f24bac,I am not familiar with Spanish,Midwest,13 or older,no,2021-03-27_13h25.30.133,empathy_intonation_perc,2020.2.10,Linux x86_64,60,,,,,,,,,,0,,,,,,,,,,,,,,,,,,,,,,,,,,,,,,,,,,,,,,,,66,hacido,,,0,1,1.163625,0,18,18,65,1,REAL,FAKE,,,,,,,,,,,,,,,,,,,,,
,,,,,,,5c1919fbd9241d0001363964,605b45a4d25f287719a41696,605f784bf424f86e11f24bac,I am not familiar with Spanish,Midwest,13 or older,no,2021-03-27_13h25.30.133,empathy_intonation_perc,2020.2.10,Linux x86_64,60,,,,,,,,,,0,,,,,,,,,,,,,,,,,,,,,,,,,,,,,,,,,,,,,,,,29,decar,,,1,0,0.836215,0,19,19,28,1,REAL,FAKE,,,,,,,,,,,,,,,,,,,,,
,,,,,,,5c1919fbd9241d0001363964,605b45a4d25f287719a41696,605f784bf424f86e11f24bac,I am not familiar with Spanish,Midwest,13 or older,no,2021-03-27_13h25.30.133,empathy_intonation_perc,2020.2.10,Linux x86_64,60,,,,,,,,,,1,,,,,,,,,,,,,,,,,,,,,,,,,,,,,,,,,,,,,,,,86,barato,,,1,1,1.024615,0,20,20,85,1,REAL,FAKE,,,,,,,,,,,,,,,,,,,,,
,,,,,,,5c1919fbd9241d0001363964,605b45a4d25f287719a41696,605f784bf424f86e11f24bac,I am not familiar with Spanish,Midwest,13 or older,no,2021-03-27_13h25.30.133,empathy_intonation_perc,2020.2.10,Linux x86_64,60,,,,,,,,,,1,,,,,,,,,,,,,,,,,,,,,,,,,,,,,,,,,,,,,,,,61,seda,,,0,0,1.07933,0,21,21,60,1,REAL,FAKE,,,,,,,,,,,,,,,,,,,,,
,,,,,,,5c1919fbd9241d0001363964,605b45a4d25f287719a41696,605f784bf424f86e11f24bac,I am not familiar with Spanish,Midwest,13 or older,no,2021-03-27_13h25.30.133,empathy_intonation_perc,2020.2.10,Linux x86_64,60,,,,,,,,,,1,,,,,,,,,,,,,,,,,,,,,,,,,,,,,,,,,,,,,,,,62,flaco,,,0,0,0.71447,0,22,22,61,1,REAL,FAKE,,,,,,,,,,,,,,,,,,,,,
,,,,,,,5c1919fbd9241d0001363964,605b45a4d25f287719a41696,605f784bf424f86e11f24bac,I am not familiar with Spanish,Midwest,13 or older,no,2021-03-27_13h25.30.133,empathy_intonation_perc,2020.2.10,Linux x86_64,60,,,,,,,,,,0,,,,,,,,,,,,,,,,,,,,,,,,,,,,,,,,,,,,,,,,47,cartinar,,,1,0,0.97789,0,23,23,46,1,REAL,FAKE,,,,,,,,,,,,,,,,,,,,,
,,,,,,,5c1919fbd9241d0001363964,605b45a4d25f287719a41696,605f784bf424f86e11f24bac,I am not familiar with Spanish,Midwest,13 or older,no,2021-03-27_13h25.30.133,empathy_intonation_perc,2020.2.10,Linux x86_64,60,,,,,,,,,,1,,,,,,,,,,,,,,,,,,,,,,,,,,,,,,,,,,,,,,,,68,alegre,,,1,1,1.14365,0,24,24,67,1,REAL,FAKE,,,,,,,,,,,,,,,,,,,,,
,,,,,,,5c1919fbd9241d0001363964,605b45a4d25f287719a41696,605f784bf424f86e11f24bac,I am not familiar with Spanish,Midwest,13 or older,no,2021-03-27_13h25.30.133,empathy_intonation_perc,2020.2.10,Linux x86_64,60,,,,,,,,,,1,,,,,,,,,,,,,,,,,,,,,,,,,,,,,,,,,,,,,,,,26,secuestro,,,0,0,0.89882,0,25,25,25,1,REAL,FAKE,,,,,,,,,,,,,,,,,,,,,
,,,,,,,5c1919fbd9241d0001363964,605b45a4d25f287719a41696,605f784bf424f86e11f24bac,I am not familiar with Spanish,Midwest,13 or older,no,2021-03-27_13h25.30.133,empathy_intonation_perc,2020.2.10,Linux x86_64,60,,,,,,,,,,1,,,,,,,,,,,,,,,,,,,,,,,,,,,,,,,,,,,,,,,,43,canela,,,0,0,1.616055,0,26,26,42,1,REAL,FAKE,,,,,,,,,,,,,,,,,,,,,
,,,,,,,5c1919fbd9241d0001363964,605b45a4d25f287719a41696,605f784bf424f86e11f24bac,I am not familiar with Spanish,Midwest,13 or older,no,2021-03-27_13h25.30.133,empathy_intonation_perc,2020.2.10,Linux x86_64,60,,,,,,,,,,1,,,,,,,,,,,,,,,,,,,,,,,,,,,,,,,,,,,,,,,,14,yunque,,,1,1,0.81435,0,27,27,13,1,REAL,FAKE,,,,,,,,,,,,,,,,,,,,,
,,,,,,,5c1919fbd9241d0001363964,605b45a4d25f287719a41696,605f784bf424f86e11f24bac,I am not familiar with Spanish,Midwest,13 or older,no,2021-03-27_13h25.30.133,empathy_intonation_perc,2020.2.10,Linux x86_64,60,,,,,,,,,,0,,,,,,,,,,,,,,,,,,,,,,,,,,,,,,,,,,,,,,,,32,fatacidad,,,0,1,3.368945,0,28,28,31,1,REAL,FAKE,,,,,,,,,,,,,,,,,,,,,
,,,,,,,5c1919fbd9241d0001363964,605b45a4d25f287719a41696,605f784bf424f86e11f24bac,I am not familiar with Spanish,Midwest,13 or older,no,2021-03-27_13h25.30.133,empathy_intonation_perc,2020.2.10,Linux x86_64,60,,,,,,,,,,1,,,,,,,,,,,,,,,,,,,,,,,,,,,,,,,,,,,,,,,,69,engatusar,,,0,0,0.977795,0,29,29,68,1,REAL,FAKE,,,,,,,,,,,,,,,,,,,,,
,,,,,,,5c1919fbd9241d0001363964,605b45a4d25f287719a41696,605f784bf424f86e11f24bac,I am not familiar with Spanish,Midwest,13 or older,no,2021-03-27_13h25.30.133,empathy_intonation_perc,2020.2.10,Linux x86_64,60,,,,,,,,,,1,,,,,,,,,,,,,,,,,,,,,,,,,,,,,,,,,,,,,,,,83,guante,,,1,1,1.163615,0,30,30,82,1,REAL,FAKE,,,,,,,,,,,,,,,,,,,,,
,,,,,,,5c1919fbd9241d0001363964,605b45a4d25f287719a41696,605f784bf424f86e11f24bac,I am not familiar with Spanish,Midwest,13 or older,no,2021-03-27_13h25.30.133,empathy_intonation_perc,2020.2.10,Linux x86_64,60,,,,,,,,,,1,,,,,,,,,,,,,,,,,,,,,,,,,,,,,,,,,,,,,,,,2,pellizcar,,,0,0,1.010225,0,31,31,1,1,REAL,FAKE,,,,,,,,,,,,,,,,,,,,,
,,,,,,,5c1919fbd9241d0001363964,605b45a4d25f287719a41696,605f784bf424f86e11f24bac,I am not familiar with Spanish,Midwest,13 or older,no,2021-03-27_13h25.30.133,empathy_intonation_perc,2020.2.10,Linux x86_64,60,,,,,,,,,,1,,,,,,,,,,,,,,,,,,,,,,,,,,,,,,,,,,,,,,,,76,atar,,,1,1,0.847895,0,32,32,75,1,REAL,FAKE,,,,,,,,,,,,,,,,,,,,,
,,,,,,,5c1919fbd9241d0001363964,605b45a4d25f287719a41696,605f784bf424f86e11f24bac,I am not familiar with Spanish,Midwest,13 or older,no,2021-03-27_13h25.30.133,empathy_intonation_perc,2020.2.10,Linux x86_64,60,,,,,,,,,,1,,,,,,,,,,,,,,,,,,,,,,,,,,,,,,,,,,,,,,,,71,polvoriento,,,0,0,1.200135,0,33,33,70,1,REAL,FAKE,,,,,,,,,,,,,,,,,,,,,
,,,,,,,5c1919fbd9241d0001363964,605b45a4d25f287719a41696,605f784bf424f86e11f24bac,I am not familiar with Spanish,Midwest,13 or older,no,2021-03-27_13h25.30.133,empathy_intonation_perc,2020.2.10,Linux x86_64,60,,,,,,,,,,1,,,,,,,,,,,,,,,,,,,,,,,,,,,,,,,,,,,,,,,,48,ladrn,,,0,0,1.170765,0,34,34,47,1,REAL,FAKE,,,,,,,,,,,,,,,,,,,,,
,,,,,,,5c1919fbd9241d0001363964,605b45a4d25f287719a41696,605f784bf424f86e11f24bac,I am not familiar with Spanish,Midwest,13 or older,no,2021-03-27_13h25.30.133,empathy_intonation_perc,2020.2.10,Linux x86_64,60,,,,,,,,,,0,,,,,,,,,,,,,,,,,,,,,,,,,,,,,,,,,,,,,,,,84,escuto,,,1,0,1.030615,0,35,35,83,1,REAL,FAKE,,,,,,,,,,,,,,,,,,,,,
,,,,,,,5c1919fbd9241d0001363964,605b45a4d25f287719a41696,605f784bf424f86e11f24bac,I am not familiar with Spanish,Midwest,13 or older,no,2021-03-27_13h25.30.133,empathy_intonation_perc,2020.2.10,Linux x86_64,60,,,,,,,,,,0,,,,,,,,,,,,,,,,,,,,,,,,,,,,,,,,,,,,,,,,27,acutacin,,,0,1,2.11529,0,36,36,26,1,REAL,FAKE,,,,,,,,,,,,,,,,,,,,,
,,,,,,,5c1919fbd9241d0001363964,605b45a4d25f287719a41696,605f784bf424f86e11f24bac,I am not familiar with Spanish,Midwest,13 or older,no,2021-03-27_13h25.30.133,empathy_intonation_perc,2020.2.10,Linux x86_64,60,,,,,,,,,,0,,,,,,,,,,,,,,,,,,,,,,,,,,,,,,,,,,,,,,,,50,flamida,,,0,1,0.87552,0,37,37,49,1,REAL,FAKE,,,,,,,,,,,,,,,,,,,,,
,,,,,,,5c1919fbd9241d0001363964,605b45a4d25f287719a41696,605f784bf424f86e11f24bac,I am not familiar with Spanish,Midwest,13 or older,no,2021-03-27_13h25.30.133,empathy_intonation_perc,2020.2.10,Linux x86_64,60,,,,,,,,,,1,,,,,,,,,,,,,,,,,,,,,,,,,,,,,,,,,,,,,,,,73,hervidor,,,1,1,1.564815,0,38,38,72,1,REAL,FAKE,,,,,,,,,,,,,,,,,,,,,
,,,,,,,5c1919fbd9241d0001363964,605b45a4d25f287719a41696,605f784bf424f86e11f24bac,I am not familiar with Spanish,Midwest,13 or older,no,2021-03-27_13h25.30.133,empathy_intonation_perc,2020.2.10,Linux x86_64,60,,,,,,,,,,1,,,,,,,,,,,,,,,,,,,,,,,,,,,,,,,,,,,,,,,,64,orgulloso,,,0,0,0.674015,0,39,39,63,1,REAL,FAKE,,,,,,,,,,,,,,,,,,,,,
,,,,,,,5c1919fbd9241d0001363964,605b45a4d25f287719a41696,605f784bf424f86e11f24bac,I am not familiar with Spanish,Midwest,13 or older,no,2021-03-27_13h25.30.133,empathy_intonation_perc,2020.2.10,Linux x86_64,60,,,,,,,,,,0,,,,,,,,,,,,,,,,,,,,,,,,,,,,,,,,,,,,,,,,8,cadea,,,0,1,2.947385,0,40,40,7,1,REAL,FAKE,,,,,,,,,,,,,,,,,,,,,
,,,,,,,5c1919fbd9241d0001363964,605b45a4d25f287719a41696,605f784bf424f86e11f24bac,I am not familiar with Spanish,Midwest,13 or older,no,2021-03-27_13h25.30.133,empathy_intonation_perc,2020.2.10,Linux x86_64,60,,,,,,,,,,1,,,,,,,,,,,,,,,,,,,,,,,,,,,,,,,,,,,,,,,,45,jilguero,,,0,0,1.133955,0,41,41,44,1,REAL,FAKE,,,,,,,,,,,,,,,,,,,,,
,,,,,,,5c1919fbd9241d0001363964,605b45a4d25f287719a41696,605f784bf424f86e11f24bac,I am not familiar with Spanish,Midwest,13 or older,no,2021-03-27_13h25.30.133,empathy_intonation_perc,2020.2.10,Linux x86_64,60,,,,,,,,,,1,,,,,,,,,,,,,,,,,,,,,,,,,,,,,,,,,,,,,,,,49,ganar,,,1,1,0.78382,0,42,42,48,1,REAL,FAKE,,,,,,,,,,,,,,,,,,,,,
,,,,,,,5c1919fbd9241d0001363964,605b45a4d25f287719a41696,605f784bf424f86e11f24bac,I am not familiar with Spanish,Midwest,13 or older,no,2021-03-27_13h25.30.133,empathy_intonation_perc,2020.2.10,Linux x86_64,60,,,,,,,,,,1,,,,,,,,,,,,,,,,,,,,,,,,,,,,,,,,,,,,,,,,12,asesinato,,,1,1,1.228005,0,43,43,11,1,REAL,FAKE,,,,,,,,,,,,,,,,,,,,,
,,,,,,,5c1919fbd9241d0001363964,605b45a4d25f287719a41696,605f784bf424f86e11f24bac,I am not familiar with Spanish,Midwest,13 or older,no,2021-03-27_13h25.30.133,empathy_intonation_perc,2020.2.10,Linux x86_64,60,,,,,,,,,,0,,,,,,,,,,,,,,,,,,,,,,,,,,,,,,,,,,,,,,,,82,empirador,,,1,0,1.046825,0,44,44,81,1,REAL,FAKE,,,,,,,,,,,,,,,,,,,,,
,,,,,,,5c1919fbd9241d0001363964,605b45a4d25f287719a41696,605f784bf424f86e11f24bac,I am not familiar with Spanish,Midwest,13 or older,no,2021-03-27_13h25.30.133,empathy_intonation_perc,2020.2.10,Linux x86_64,60,,,,,,,,,,1,,,,,,,,,,,,,,,,,,,,,,,,,,,,,,,,,,,,,,,,22,lacayo,,,0,0,0.74593,0,45,45,21,1,REAL,FAKE,,,,,,,,,,,,,,,,,,,,,
,,,,,,,5c1919fbd9241d0001363964,605b45a4d25f287719a41696,605f784bf424f86e11f24bac,I am not familiar with Spanish,Midwest,13 or older,no,2021-03-27_13h25.30.133,empathy_intonation_perc,2020.2.10,Linux x86_64,60,,,,,,,,,,1,,,,,,,,,,,,,,,,,,,,,,,,,,,,,,,,,,,,,,,,78,frondoso,,,0,0,1.02198,0,46,46,77,1,REAL,FAKE,,,,,,,,,,,,,,,,,,,,,
,,,,,,,5c1919fbd9241d0001363964,605b45a4d25f287719a41696,605f784bf424f86e11f24bac,I am not familiar with Spanish,Midwest,13 or older,no,2021-03-27_13h25.30.133,empathy_intonation_perc,2020.2.10,Linux x86_64,60,,,,,,,,,,1,,,,,,,,,,,,,,,,,,,,,,,,,,,,,,,,,,,,,,,,65,bizcocho,,,0,0,0.776815,0,47,47,64,1,REAL,FAKE,,,,,,,,,,,,,,,,,,,,,
,,,,,,,5c1919fbd9241d0001363964,605b45a4d25f287719a41696,605f784bf424f86e11f24bac,I am not familiar with Spanish,Midwest,13 or older,no,2021-03-27_13h25.30.133,empathy_intonation_perc,2020.2.10,Linux x86_64,60,,,,,,,,,,1,,,,,,,,,,,,,,,,,,,,,,,,,,,,,,,,,,,,,,,,54,fomentar,,,1,1,0.9815,0,48,48,53,1,REAL,FAKE,,,,,,,,,,,,,,,,,,,,,
,,,,,,,5c1919fbd9241d0001363964,605b45a4d25f287719a41696,605f784bf424f86e11f24bac,I am not familiar with Spanish,Midwest,13 or older,no,2021-03-27_13h25.30.133,empathy_intonation_perc,2020.2.10,Linux x86_64,60,,,,,,,,,,1,,,,,,,,,,,,,,,,,,,,,,,,,,,,,,,,,,,,,,,,90,clavel,,,0,0,1.011785,0,49,49,89,1,REAL,FAKE,,,,,,,,,,,,,,,,,,,,,
,,,,,,,5c1919fbd9241d0001363964,605b45a4d25f287719a41696,605f784bf424f86e11f24bac,I am not familiar with Spanish,Midwest,13 or older,no,2021-03-27_13h25.30.133,empathy_intonation_perc,2020.2.10,Linux x86_64,60,,,,,,,,,,1,,,,,,,,,,,,,,,,,,,,,,,,,,,,,,,,,,,,,,,,81,pozo,,,1,1,1.978175,0,50,50,80,1,REAL,FAKE,,,,,,,,,,,,,,,,,,,,,
,,,,,,,5c1919fbd9241d0001363964,605b45a4d25f287719a41696,605f784bf424f86e11f24bac,I am not familiar with Spanish,Midwest,13 or older,no,2021-03-27_13h25.30.133,empathy_intonation_perc,2020.2.10,Linux x86_64,60,,,,,,,,,,1,,,,,,,,,,,,,,,,,,,,,,,,,,,,,,,,,,,,,,,,57,tacao,,,1,1,1.8649,0,51,51,56,1,REAL,FAKE,,,,,,,,,,,,,,,,,,,,,
,,,,,,,5c1919fbd9241d0001363964,605b45a4d25f287719a41696,605f784bf424f86e11f24bac,I am not familiar with Spanish,Midwest,13 or older,no,2021-03-27_13h25.30.133,empathy_intonation_perc,2020.2.10,Linux x86_64,60,,,,,,,,,,0,,,,,,,,,,,,,,,,,,,,,,,,,,,,,,,,,,,,,,,,1,terzo,,,0,1,1.24572,0,52,52,0,1,REAL,FAKE,,,,,,,,,,,,,,,,,,,,,
,,,,,,,5c1919fbd9241d0001363964,605b45a4d25f287719a41696,605f784bf424f86e11f24bac,I am not familiar with Spanish,Midwest,13 or older,no,2021-03-27_13h25.30.133,empathy_intonation_perc,2020.2.10,Linux x86_64,60,,,,,,,,,,1,,,,,,,,,,,,,,,,,,,,,,,,,,,,,,,,,,,,,,,,56,musgo,,,0,0,0.806705,0,53,53,55,1,REAL,FAKE,,,,,,,,,,,,,,,,,,,,,
,,,,,,,5c1919fbd9241d0001363964,605b45a4d25f287719a41696,605f784bf424f86e11f24bac,I am not familiar with Spanish,Midwest,13 or older,no,2021-03-27_13h25.30.133,empathy_intonation_perc,2020.2.10,Linux x86_64,60,,,,,,,,,,0,,,,,,,,,,,,,,,,,,,,,,,,,,,,,,,,,,,,,,,,79,tropaje,,,0,1,1.113205,0,54,54,78,1,REAL,FAKE,,,,,,,,,,,,,,,,,,,,,
,,,,,,,5c1919fbd9241d0001363964,605b45a4d25f287719a41696,605f784bf424f86e11f24bac,I am not familiar with Spanish,Midwest,13 or older,no,2021-03-27_13h25.30.133,empathy_intonation_perc,2020.2.10,Linux x86_64,60,,,,,,,,,,0,,,,,,,,,,,,,,,,,,,,,,,,,,,,,,,,,,,,,,,,42,cadallo,,,1,0,0.76363,0,55,55,41,1,REAL,FAKE,,,,,,,,,,,,,,,,,,,,,
,,,,,,,5c1919fbd9241d0001363964,605b45a4d25f287719a41696,605f784bf424f86e11f24bac,I am not familiar with Spanish,Midwest,13 or older,no,2021-03-27_13h25.30.133,empathy_intonation_perc,2020.2.10,Linux x86_64,60,,,,,,,,,,1,,,,,,,,,,,,,,,,,,,,,,,,,,,,,,,,,,,,,,,,75,yacer,,,0,0,0.71197,0,56,56,74,1,REAL,FAKE,,,,,,,,,,,,,,,,,,,,,
,,,,,,,5c1919fbd9241d0001363964,605b45a4d25f287719a41696,605f784bf424f86e11f24bac,I am not familiar with Spanish,Midwest,13 or older,no,2021-03-27_13h25.30.133,empathy_intonation_perc,2020.2.10,Linux x86_64,60,,,,,,,,,,1,,,,,,,,,,,,,,,,,,,,,,,,,,,,,,,,,,,,,,,,24,ltigo,,,1,1,1.08731,0,57,57,23,1,REAL,FAKE,,,,,,,,,,,,,,,,,,,,,
,,,,,,,5c1919fbd9241d0001363964,605b45a4d25f287719a41696,605f784bf424f86e11f24bac,I am not familiar with Spanish,Midwest,13 or older,no,2021-03-27_13h25.30.133,empathy_intonation_perc,2020.2.10,Linux x86_64,60,,,,,,,,,,0,,,,,,,,,,,,,,,,,,,,,,,,,,,,,,,,,,,,,,,,63,esposante,,,1,0,1.706105,0,58,58,62,1,REAL,FAKE,,,,,,,,,,,,,,,,,,,,,
,,,,,,,5c1919fbd9241d0001363964,605b45a4d25f287719a41696,605f784bf424f86e11f24bac,I am not familiar with Spanish,Midwest,13 or older,no,2021-03-27_13h25.30.133,empathy_intonation_perc,2020.2.10,Linux x86_64,60,,,,,,,,,,0,,,,,,,,,,,,,,,,,,,,,,,,,,,,,,,,,,,,,,,,19,brecedad,,,0,1,0.994725,0,59,59,18,1,REAL,FAKE,,,,,,,,,,,,,,,,,,,,,
,,,,,,,5c1919fbd9241d0001363964,605b45a4d25f287719a41696,605f784bf424f86e11f24bac,I am not familiar with Spanish,Midwest,13 or older,no,2021-03-27_13h25.30.133,empathy_intonation_perc,2020.2.10,Linux x86_64,60,,,,,,,,,,1,,,,,,,,,,,,,,,,,,,,,,,,,,,,,,,,,,,,,,,,11,cenefa,,,0,0,0.75818,0,60,60,10,1,REAL,FAKE,,,,,,,,,,,,,,,,,,,,,
,,,,,,,5c1919fbd9241d0001363964,605b45a4d25f287719a41696,605f784bf424f86e11f24bac,I am not familiar with Spanish,Midwest,13 or older,no,2021-03-27_13h25.30.133,empathy_intonation_perc,2020.2.10,Linux x86_64,60,,,,,,,,,,1,,,,,,,,,,,,,,,,,,,,,,,,,,,,,,,,,,,,,,,,37,granuja,,,0,0,1.932105,0,61,61,36,1,REAL,FAKE,,,,,,,,,,,,,,,,,,,,,
,,,,,,,5c1919fbd9241d0001363964,605b45a4d25f287719a41696,605f784bf424f86e11f24bac,I am not familiar with Spanish,Midwest,13 or older,no,2021-03-27_13h25.30.133,empathy_intonation_perc,2020.2.10,Linux x86_64,60,,,,,,,,,,1,,,,,,,,,,,,,,,,,,,,,,,,,,,,,,,,,,,,,,,,6,tergiversar,,,0,0,0.82099,0,62,62,5,1,REAL,FAKE,,,,,,,,,,,,,,,,,,,,,
,,,,,,,5c1919fbd9241d0001363964,605b45a4d25f287719a41696,605f784bf424f86e11f24bac,I am not familiar with Spanish,Midwest,13 or older,no,2021-03-27_13h25.30.133,empathy_intonation_perc,2020.2.10,Linux x86_64,60,,,,,,,,,,1,,,,,,,,,,,,,,,,,,,,,,,,,,,,,,,,,,,,,,,,88,acantilado,,,1,1,1.083505,0,63,63,87,1,REAL,FAKE,,,,,,,,,,,,,,,,,,,,,
,,,,,,,5c1919fbd9241d0001363964,605b45a4d25f287719a41696,605f784bf424f86e11f24bac,I am not familiar with Spanish,Midwest,13 or older,no,2021-03-27_13h25.30.133,empathy_intonation_perc,2020.2.10,Linux x86_64,60,,,,,,,,,,1,,,,,,,,,,,,,,,,,,,,,,,,,,,,,,,,,,,,,,,,25,bisagra,,,0,0,1.823915,0,64,64,24,1,REAL,FAKE,,,,,,,,,,,,,,,,,,,,,
,,,,,,,5c1919fbd9241d0001363964,605b45a4d25f287719a41696,605f784bf424f86e11f24bac,I am not familiar with Spanish,Midwest,13 or older,no,2021-03-27_13h25.30.133,empathy_intonation_perc,2020.2.10,Linux x86_64,60,,,,,,,,,,1,,,,,,,,,,,,,,,,,,,,,,,,,,,,,,,,,,,,,,,,60,matar,,,0,0,0.73643,0,65,65,59,1,REAL,FAKE,,,,,,,,,,,,,,,,,,,,,
,,,,,,,5c1919fbd9241d0001363964,605b45a4d25f287719a41696,605f784bf424f86e11f24bac,I am not familiar with Spanish,Midwest,13 or older,no,2021-03-27_13h25.30.133,empathy_intonation_perc,2020.2.10,Linux x86_64,60,,,,,,,,,,0,,,,,,,,,,,,,,,,,,,,,,,,,,,,,,,,,,,,,,,,18,arsa,,,0,1,1.22064,0,66,66,17,1,REAL,FAKE,,,,,,,,,,,,,,,,,,,,,
,,,,,,,5c1919fbd9241d0001363964,605b45a4d25f287719a41696,605f784bf424f86e11f24bac,I am not familiar with Spanish,Midwest,13 or older,no,2021-03-27_13h25.30.133,empathy_intonation_perc,2020.2.10,Linux x86_64,60,,,,,,,,,,0,,,,,,,,,,,,,,,,,,,,,,,,,,,,,,,,,,,,,,,,87,grodo,,,1,0,0.678045,0,67,67,86,1,REAL,FAKE,,,,,,,,,,,,,,,,,,,,,
,,,,,,,5c1919fbd9241d0001363964,605b45a4d25f287719a41696,605f784bf424f86e11f24bac,I am not familiar with Spanish,Midwest,13 or older,no,2021-03-27_13h25.30.133,empathy_intonation_perc,2020.2.10,Linux x86_64,60,,,,,,,,,,0,,,,,,,,,,,,,,,,,,,,,,,,,,,,,,,,,,,,,,,,30,alardio,,,0,1,0.8129,0,68,68,29,1,REAL,FAKE,,,,,,,,,,,,,,,,,,,,,
,,,,,,,5c1919fbd9241d0001363964,605b45a4d25f287719a41696,605f784bf424f86e11f24bac,I am not familiar with Spanish,Midwest,13 or older,no,2021-03-27_13h25.30.133,empathy_intonation_perc,2020.2.10,Linux x86_64,60,,,,,,,,,,1,,,,,,,,,,,,,,,,,,,,,,,,,,,,,,,,,,,,,,,,40,alfombra,,,0,0,1.00209,0,69,69,39,1,REAL,FAKE,,,,,,,,,,,,,,,,,,,,,
,,,,,,,5c1919fbd9241d0001363964,605b45a4d25f287719a41696,605f784bf424f86e11f24bac,I am not familiar with Spanish,Midwest,13 or older,no,2021-03-27_13h25.30.133,empathy_intonation_perc,2020.2.10,Linux x86_64,60,,,,,,,,,,0,,,,,,,,,,,,,,,,,,,,,,,,,,,,,,,,,,,,,,,,16,abracer,,,1,0,0.743215,0,70,70,15,1,REAL,FAKE,,,,,,,,,,,,,,,,,,,,,
,,,,,,,5c1919fbd9241d0001363964,605b45a4d25f287719a41696,605f784bf424f86e11f24bac,I am not familiar with Spanish,Midwest,13 or older,no,2021-03-27_13h25.30.133,empathy_intonation_perc,2020.2.10,Linux x86_64,60,,,,,,,,,,1,,,,,,,,,,,,,,,,,,,,,,,,,,,,,,,,,,,,,,,,52,camisa,,,1,1,0.728855,0,71,71,51,1,REAL,FAKE,,,,,,,,,,,,,,,,,,,,,
,,,,,,,5c1919fbd9241d0001363964,605b45a4d25f287719a41696,605f784bf424f86e11f24bac,I am not familiar with Spanish,Midwest,13 or older,no,2021-03-27_13h25.30.133,empathy_intonation_perc,2020.2.10,Linux x86_64,60,,,,,,,,,,0,,,,,,,,,,,,,,,,,,,,,,,,,,,,,,,,,,,,,,,,21,capillo,,,1,0,0.660195,0,72,72,20,1,REAL,FAKE,,,,,,,,,,,,,,,,,,,,,
,,,,,,,5c1919fbd9241d0001363964,605b45a4d25f287719a41696,605f784bf424f86e11f24bac,I am not familiar with Spanish,Midwest,13 or older,no,2021-03-27_13h25.30.133,empathy_intonation_perc,2020.2.10,Linux x86_64,60,,,,,,,,,,1,,,,,,,,,,,,,,,,,,,,,,,,,,,,,,,,,,,,,,,,15,regar,,,0,0,0.63203,0,73,73,14,1,REAL,FAKE,,,,,,,,,,,,,,,,,,,,,
,,,,,,,5c1919fbd9241d0001363964,605b45a4d25f287719a41696,605f784bf424f86e11f24bac,I am not familiar with Spanish,Midwest,13 or older,no,2021-03-27_13h25.30.133,empathy_intonation_perc,2020.2.10,Linux x86_64,60,,,,,,,,,,0,,,,,,,,,,,,,,,,,,,,,,,,,,,,,,,,,,,,,,,,72,pemicin,,,1,0,1.127365,0,74,74,71,1,REAL,FAKE,,,,,,,,,,,,,,,,,,,,,
,,,,,,,5c1919fbd9241d0001363964,605b45a4d25f287719a41696,605f784bf424f86e11f24bac,I am not familiar with Spanish,Midwest,13 or older,no,2021-03-27_13h25.30.133,empathy_intonation_perc,2020.2.10,Linux x86_64,60,,,,,,,,,,1,,,,,,,,,,,,,,,,,,,,,,,,,,,,,,,,,,,,,,,,38,estornudar,,,0,0,2.45154,0,75,75,37,1,REAL,FAKE,,,,,,,,,,,,,,,,,,,,,
,,,,,,,5c1919fbd9241d0001363964,605b45a4d25f287719a41696,605f784bf424f86e11f24bac,I am not familiar with Spanish,Midwest,13 or older,no,2021-03-27_13h25.30.133,empathy_intonation_perc,2020.2.10,Linux x86_64,60,,,,,,,,,,0,,,,,,,,,,,,,,,,,,,,,,,,,,,,,,,,,,,,,,,,17,floroso,,,0,1,0.927325,0,76,76,16,1,REAL,FAKE,,,,,,,,,,,,,,,,,,,,,
,,,,,,,5c1919fbd9241d0001363964,605b45a4d25f287719a41696,605f784bf424f86e11f24bac,I am not familiar with Spanish,Midwest,13 or older,no,2021-03-27_13h25.30.133,empathy_intonation_perc,2020.2.10,Linux x86_64,60,,,,,,,,,,1,,,,,,,,,,,,,,,,,,,,,,,,,,,,,,,,,,,,,,,,55,nevar,,,1,1,1.01175,0,77,77,54,1,REAL,FAKE,,,,,,,,,,,,,,,,,,,,,
,,,,,,,5c1919fbd9241d0001363964,605b45a4d25f287719a41696,605f784bf424f86e11f24bac,I am not familiar with Spanish,Midwest,13 or older,no,2021-03-27_13h25.30.133,empathy_intonation_perc,2020.2.10,Linux x86_64,60,,,,,,,,,,1,,,,,,,,,,,,,,,,,,,,,,,,,,,,,,,,,,,,,,,,34,aviso,,,1,1,0.94543,0,78,78,33,1,REAL,FAKE,,,,,,,,,,,,,,,,,,,,,
,,,,,,,5c1919fbd9241d0001363964,605b45a4d25f287719a41696,605f784bf424f86e11f24bac,I am not familiar with Spanish,Midwest,13 or older,no,2021-03-27_13h25.30.133,empathy_intonation_perc,2020.2.10,Linux x86_64,60,,,,,,,,,,1,,,,,,,,,,,,,,,,,,,,,,,,,,,,,,,,,,,,,,,,20,vido,,,1,1,0.69017,0,79,79,19,1,REAL,FAKE,,,,,,,,,,,,,,,,,,,,,
,,,,,,,5c1919fbd9241d0001363964,605b45a4d25f287719a41696,605f784bf424f86e11f24bac,I am not familiar with Spanish,Midwest,13 or older,no,2021-03-27_13h25.30.133,empathy_intonation_perc,2020.2.10,Linux x86_64,60,,,,,,,,,,1,,,,,,,,,,,,,,,,,,,,,,,,,,,,,,,,,,,,,,,,85,lad,,,0,0,0.665425,0,80,80,84,1,REAL,FAKE,,,,,,,,,,,,,,,,,,,,,
,,,,,,,5c1919fbd9241d0001363964,605b45a4d25f287719a41696,605f784bf424f86e11f24bac,I am not familiar with Spanish,Midwest,13 or older,no,2021-03-27_13h25.30.133,empathy_intonation_perc,2020.2.10,Linux x86_64,60,,,,,,,,,,1,,,,,,,,,,,,,,,,,,,,,,,,,,,,,,,,,,,,,,,,9,hacha,,,1,1,1.39342,0,81,81,8,1,REAL,FAKE,,,,,,,,,,,,,,,,,,,,,
,,,,,,,5c1919fbd9241d0001363964,605b45a4d25f287719a41696,605f784bf424f86e11f24bac,I am not familiar with Spanish,Midwest,13 or older,no,2021-03-27_13h25.30.133,empathy_intonation_perc,2020.2.10,Linux x86_64,60,,,,,,,,,,1,,,,,,,,,,,,,,,,,,,,,,,,,,,,,,,,,,,,,,,,44,cuchara,,,0,0,0.662705,0,82,82,43,1,REAL,FAKE,,,,,,,,,,,,,,,,,,,,,
