instructions_2afc_loop.thisRepN,instructions_2afc_loop.thisTrialN,instructions_2afc_loop.thisN,instructions_2afc_loop.thisIndex,instructions_2afc_loop.ran,instructions_text,continue_text,participant,study_id,session,I am most familiar with Spanish from...*,What part of the US are you from?*,At what age did you begin learning Spanish?*,Are you proficient in any languages other than English/Spanish?*,date,expName,psychopyVersion,OS,frameRate,key_resp_2afc_practice.keys,key_resp_2afc_practice.corr,key_resp_2afc_practice.rt,trials_2afc_practice_loop.thisRepN,trials_2afc_practice_loop.thisTrialN,trials_2afc_practice_loop.thisN,trials_2afc_practice_loop.thisIndex,trials_2afc_practice_loop.ran,path,correct_response,the_col,key_resp_2afc_trial.keys,key_resp_2afc_trial.corr,key_resp_2afc_trial.rt,trials_2afc_loop.thisRepN,trials_2afc_loop.thisTrialN,trials_2afc_loop.thisN,trials_2afc_loop.thisIndex,trials_2afc_loop.ran,item_num,andalusian,argentine,castilian,chilean,cuban,mexican,peruvian,puertorican,key_resp_ac1.keys,key_resp_ac1.corr,key_resp_ac1.rt,ac1_loop.thisRepN,ac1_loop.thisTrialN,ac1_loop.thisN,ac1_loop.thisIndex,ac1_loop.ran,instructions_lextale_loop.thisRepN,instructions_lextale_loop.thisTrialN,instructions_lextale_loop.thisN,instructions_lextale_loop.thisIndex,instructions_lextale_loop.ran,key_resp_lextale_practice.keys,key_resp_lextale_practice.corr,key_resp_lextale_practice.rt,trials_lextale_practice_loop.thisRepN,trials_lextale_practice_loop.thisTrialN,trials_lextale_practice_loop.thisN,trials_lextale_practice_loop.thisIndex,trials_lextale_practice_loop.ran,stim,word,prac_button_real,prac_button_false,key_resp_lextale_trial.keys,key_resp_lextale_trial.corr,key_resp_lextale_trial.rt,trials_lextale_loop.thisRepN,trials_lextale_loop.thisTrialN,trials_lextale_loop.thisN,trials_lextale_loop.thisIndex,trials_lextale_loop.ran,button_real,button_false,key_resp_ac2.keys,key_resp_ac2.corr,key_resp_ac2.rt,check_pass,check_fails,ac2_loop.thisRepN,ac2_loop.thisTrialN,ac2_loop.thisN,ac2_loop.thisIndex,ac2_loop.ran,slider_eq_trial.response,trials_eq_loop.thisRepN,trials_eq_loop.thisTrialN,trials_eq_loop.thisN,trials_eq_loop.thisIndex,trials_eq_loop.ran,item,is_test_item,is_distractor,is_agree_score,is_disagree_score
0,0,0,0,1,"In the following task you are going to hear a series of utterances. 

  You will decide if the utterances sound like questions or not using your keyboard.",(press the spacebar to continue),5c1dc77ee2d9150001b5b70e,605b45a4d25f287719a41696,605ba8a810d3343fd9d718c5,I am not familiar with Spanish,Northeast,NA,no,2021-03-24_17h08.32.534,empathy_intonation_perc,2020.2.10,Win32,60,,,,,,,,,,,,,,,,,,,,,,,,,,,,,,,,,,,,,,,,,,,,,,,,,,,,,,,,,,,,,,,,,,,,,,,,,,,,,,,,,,,,
0,1,1,1,1,"If you believe the utterance is a question, type '1' (for 'yes') and if you do not 
  believe it is a question type '0' (for 'no').

  Let's practice a bit...",(press the spacebar to continue),5c1dc77ee2d9150001b5b70e,605b45a4d25f287719a41696,605ba8a810d3343fd9d718c5,I am not familiar with Spanish,Northeast,NA,no,2021-03-24_17h08.32.534,empathy_intonation_perc,2020.2.10,Win32,60,,,,,,,,,,,,,,,,,,,,,,,,,,,,,,,,,,,,,,,,,,,,,,,,,,,,,,,,,,,,,,,,,,,,,,,,,,,,,,,,,,,,
,,,,,,,5c1dc77ee2d9150001b5b70e,605b45a4d25f287719a41696,605ba8a810d3343fd9d718c5,I am not familiar with Spanish,Northeast,NA,no,2021-03-24_17h08.32.534,empathy_intonation_perc,2020.2.10,Win32,60,0,1,2.18342,0,0,0,7,1,./stim/wavs/puertorican_statement_filler_La-nina-pinta-con-su-amiga.wav,0,,,,,,,,,,,,,,,,,,,,,,,,,,,,,,,,,,,,,,,,,,,,,,,,,,,,,,,,,,,,,,,,,,,,,,,,,,
,,,,,,,5c1dc77ee2d9150001b5b70e,605b45a4d25f287719a41696,605ba8a810d3343fd9d718c5,I am not familiar with Spanish,Northeast,NA,no,2021-03-24_17h08.32.534,empathy_intonation_perc,2020.2.10,Win32,60,0,1,1.855725,0,1,1,5,1,./stim/wavs/andalusian_statement_filler_Alberto-nunca-se-afeita.wav,0,,,,,,,,,,,,,,,,,,,,,,,,,,,,,,,,,,,,,,,,,,,,,,,,,,,,,,,,,,,,,,,,,,,,,,,,,,
,,,,,,,5c1dc77ee2d9150001b5b70e,605b45a4d25f287719a41696,605ba8a810d3343fd9d718c5,I am not familiar with Spanish,Northeast,NA,no,2021-03-24_17h08.32.534,empathy_intonation_perc,2020.2.10,Win32,60,0,0,1.44788,0,2,2,2,1,./stim/wavs/chilean_question_filler_Mi-padre-cantaba-bien.wav,1,,,,,,,,,,,,,,,,,,,,,,,,,,,,,,,,,,,,,,,,,,,,,,,,,,,,,,,,,,,,,,,,,,,,,,,,,,
,,,,,,,5c1dc77ee2d9150001b5b70e,605b45a4d25f287719a41696,605ba8a810d3343fd9d718c5,I am not familiar with Spanish,Northeast,NA,no,2021-03-24_17h08.32.534,empathy_intonation_perc,2020.2.10,Win32,60,0,1,1.881165,0,3,3,6,1,./stim/wavs/peruvian_statement_filler_El-nino-habla-con-su-madre.wav,0,,,,,,,,,,,,,,,,,,,,,,,,,,,,,,,,,,,,,,,,,,,,,,,,,,,,,,,,,,,,,,,,,,,,,,,,,,
,,,,,,,5c1dc77ee2d9150001b5b70e,605b45a4d25f287719a41696,605ba8a810d3343fd9d718c5,I am not familiar with Spanish,Northeast,NA,no,2021-03-24_17h08.32.534,empathy_intonation_perc,2020.2.10,Win32,60,0,1,1.717985,0,4,4,4,1,./stim/wavs/cuban_statement_filler_Cocinabas-por-la-noche.wav,0,,,,,,,,,,,,,,,,,,,,,,,,,,,,,,,,,,,,,,,,,,,,,,,,,,,,,,,,,,,,,,,,,,,,,,,,,,
,,,,,,,5c1dc77ee2d9150001b5b70e,605b45a4d25f287719a41696,605ba8a810d3343fd9d718c5,I am not familiar with Spanish,Northeast,NA,no,2021-03-24_17h08.32.534,empathy_intonation_perc,2020.2.10,Win32,60,1,1,1.574805,0,5,5,1,1,./stim/wavs/argentine_question_filler_Mi-vecino-habla-mucho.wav,1,,,,,,,,,,,,,,,,,,,,,,,,,,,,,,,,,,,,,,,,,,,,,,,,,,,,,,,,,,,,,,,,,,,,,,,,,,
,,,,,,,5c1dc77ee2d9150001b5b70e,605b45a4d25f287719a41696,605ba8a810d3343fd9d718c5,I am not familiar with Spanish,Northeast,NA,no,2021-03-24_17h08.32.534,empathy_intonation_perc,2020.2.10,Win32,60,1,1,2.027655,0,6,6,0,1,./stim/wavs/castilian_question_filler_Mi-esposo-conoce-al-chico.wav,1,,,,,,,,,,,,,,,,,,,,,,,,,,,,,,,,,,,,,,,,,,,,,,,,,,,,,,,,,,,,,,,,,,,,,,,,,,
,,,,,,,5c1dc77ee2d9150001b5b70e,605b45a4d25f287719a41696,605ba8a810d3343fd9d718c5,I am not familiar with Spanish,Northeast,NA,no,2021-03-24_17h08.32.534,empathy_intonation_perc,2020.2.10,Win32,60,1,1,2.10347,0,7,7,3,1,./stim/wavs/mexican_question_filler_Felipe-no-tiene-contrasena.wav,1,,,,,,,,,,,,,,,,,,,,,,,,,,,,,,,,,,,,,,,,,,,,,,,,,,,,,,,,,,,,,,,,,,,,,,,,,,
,,,,,,,5c1dc77ee2d9150001b5b70e,605b45a4d25f287719a41696,605ba8a810d3343fd9d718c5,I am not familiar with Spanish,Northeast,NA,no,2021-03-24_17h08.32.534,empathy_intonation_perc,2020.2.10,Win32,60,,,,,,,,,,1,castilian,1,1,2.14828,0,0,0,51,1,52,./stim/wavs/andalusian_mismatch_interrogative-partial-wh_Por-que-desayuna-muy-bien.wav,./stim/wavs/argentine_mismatch_interrogative-partial-wh_Por-que-desayuna-muy-bien.wav,./stim/wavs/castilian_mismatch_interrogative-partial-wh_Por-que-desayuna-muy-bien.wav,./stim/wavs/chilean_mismatch_interrogative-partial-wh_Por-que-desayuna-muy-bien.wav,./stim/wavs/cuban_mismatch_interrogative-partial-wh_Por-que-desayuna-muy-bien.wav,./stim/wavs/mexican_mismatch_interrogative-partial-wh_Por-que-desayuna-muy-bien.wav,./stim/wavs/peruvian_mismatch_interrogative-partial-wh_Por-que-desayuna-muy-bien.wav,./stim/wavs/puertorican_mismatch_interrogative-partial-wh_Por-que-desayuna-muy-bien.wav,,,,,,,,,,,,,,,,,,,,,,,,,,,,,,,,,,,,,,,,,,,,,,,,,,,,,,,,
,,,,,,,5c1dc77ee2d9150001b5b70e,605b45a4d25f287719a41696,605ba8a810d3343fd9d718c5,I am not familiar with Spanish,Northeast,NA,no,2021-03-24_17h08.32.534,empathy_intonation_perc,2020.2.10,Win32,60,,,,,,,,,,0,chilean,0,1,1.94133,0,1,1,32,1,33,./stim/wavs/andalusian_mismatch_declarative-broad-focus_El-bebe-comia-muy-bien.wav,./stim/wavs/argentine_mismatch_declarative-broad-focus_El-bebe-comia-muy-bien.wav,./stim/wavs/castilian_mismatch_declarative-broad-focus_El-bebe-comia-muy-bien.wav,./stim/wavs/chilean_mismatch_declarative-broad-focus_El-bebe-comia-muy-bien.wav,./stim/wavs/cuban_mismatch_declarative-broad-focus_El-bebe-comia-muy-bien.wav,./stim/wavs/mexican_mismatch_declarative-broad-focus_El-bebe-comia-muy-bien.wav,./stim/wavs/peruvian_mismatch_declarative-broad-focus_El-bebe-comia-muy-bien.wav,./stim/wavs/puertorican_mismatch_declarative-broad-focus_El-bebe-comia-muy-bien.wav,,,,,,,,,,,,,,,,,,,,,,,,,,,,,,,,,,,,,,,,,,,,,,,,,,,,,,,,
,,,,,,,5c1dc77ee2d9150001b5b70e,605b45a4d25f287719a41696,605ba8a810d3343fd9d718c5,I am not familiar with Spanish,Northeast,NA,no,2021-03-24_17h08.32.534,empathy_intonation_perc,2020.2.10,Win32,60,,,,,,,,,,1,cuban,0,0,1.95902,0,2,2,62,1,63,./stim/wavs/andalusian_mismatch_interrogative-total-yn_Mi-novio-viene-del-lago.wav,./stim/wavs/argentine_mismatch_interrogative-total-yn_Mi-novio-viene-del-lago.wav,./stim/wavs/castilian_mismatch_interrogative-total-yn_Mi-novio-viene-del-lago.wav,./stim/wavs/chilean_mismatch_interrogative-total-yn_Mi-novio-viene-del-lago.wav,./stim/wavs/cuban_mismatch_interrogative-total-yn_Mi-novio-viene-del-lago.wav,./stim/wavs/mexican_mismatch_interrogative-total-yn_Mi-novio-viene-del-lago.wav,./stim/wavs/peruvian_mismatch_interrogative-total-yn_Mi-novio-viene-del-lago.wav,./stim/wavs/puertorican_mismatch_interrogative-total-yn_Mi-novio-viene-del-lago.wav,,,,,,,,,,,,,,,,,,,,,,,,,,,,,,,,,,,,,,,,,,,,,,,,,,,,,,,,
,,,,,,,5c1dc77ee2d9150001b5b70e,605b45a4d25f287719a41696,605ba8a810d3343fd9d718c5,I am not familiar with Spanish,Northeast,NA,no,2021-03-24_17h08.32.534,empathy_intonation_perc,2020.2.10,Win32,60,,,,,,,,,,0,peruvian,0,1,1.93128,0,3,3,13,1,14,./stim/wavs/andalusian_match_declarative-narrow-focus_Maria-bebe-el-vino.wav,./stim/wavs/argentine_match_declarative-narrow-focus_Maria-bebe-el-vino.wav,./stim/wavs/castilian_match_declarative-narrow-focus_Maria-bebe-el-vino.wav,./stim/wavs/chilean_match_declarative-narrow-focus_Maria-bebe-el-vino.wav,./stim/wavs/cuban_match_declarative-narrow-focus_Maria-bebe-el-vino.wav,./stim/wavs/mexican_match_declarative-narrow-focus_Maria-bebe-el-vino.wav,./stim/wavs/peruvian_match_declarative-narrow-focus_Maria-bebe-el-vino.wav,./stim/wavs/puertorican_match_declarative-narrow-focus_Maria-bebe-el-vino.wav,,,,,,,,,,,,,,,,,,,,,,,,,,,,,,,,,,,,,,,,,,,,,,,,,,,,,,,,
,,,,,,,5c1dc77ee2d9150001b5b70e,605b45a4d25f287719a41696,605ba8a810d3343fd9d718c5,I am not familiar with Spanish,Northeast,NA,no,2021-03-24_17h08.32.534,empathy_intonation_perc,2020.2.10,Win32,60,,,,,,,,,,1,castilian,1,1,1.84018,0,4,4,20,1,21,./stim/wavs/andalusian_match_interrogative-partial-wh_Por-que-abre-el-regalo.wav,./stim/wavs/argentine_match_interrogative-partial-wh_Por-que-abre-el-regalo.wav,./stim/wavs/castilian_match_interrogative-partial-wh_Por-que-abre-el-regalo.wav,./stim/wavs/chilean_match_interrogative-partial-wh_Por-que-abre-el-regalo.wav,./stim/wavs/cuban_match_interrogative-partial-wh_Por-que-abre-el-regalo.wav,./stim/wavs/mexican_match_interrogative-partial-wh_Por-que-abre-el-regalo.wav,./stim/wavs/peruvian_match_interrogative-partial-wh_Por-que-abre-el-regalo.wav,./stim/wavs/puertorican_match_interrogative-partial-wh_Por-que-abre-el-regalo.wav,,,,,,,,,,,,,,,,,,,,,,,,,,,,,,,,,,,,,,,,,,,,,,,,,,,,,,,,
,,,,,,,5c1dc77ee2d9150001b5b70e,605b45a4d25f287719a41696,605ba8a810d3343fd9d718c5,I am not familiar with Spanish,Northeast,NA,no,2021-03-24_17h08.32.534,empathy_intonation_perc,2020.2.10,Win32,60,,,,,,,,,,1,andalusian,0,0,2.12377,0,5,5,16,1,17,./stim/wavs/andalusian_match_interrogative-partial-wh_Cuando-bebia-el-vino.wav,./stim/wavs/argentine_match_interrogative-partial-wh_Cuando-bebia-el-vino.wav,./stim/wavs/castilian_match_interrogative-partial-wh_Cuando-bebia-el-vino.wav,./stim/wavs/chilean_match_interrogative-partial-wh_Cuando-bebia-el-vino.wav,./stim/wavs/cuban_match_interrogative-partial-wh_Cuando-bebia-el-vino.wav,./stim/wavs/mexican_match_interrogative-partial-wh_Cuando-bebia-el-vino.wav,./stim/wavs/peruvian_match_interrogative-partial-wh_Cuando-bebia-el-vino.wav,./stim/wavs/puertorican_match_interrogative-partial-wh_Cuando-bebia-el-vino.wav,,,,,,,,,,,,,,,,,,,,,,,,,,,,,,,,,,,,,,,,,,,,,,,,,,,,,,,,
,,,,,,,5c1dc77ee2d9150001b5b70e,605b45a4d25f287719a41696,605ba8a810d3343fd9d718c5,I am not familiar with Spanish,Northeast,NA,no,2021-03-24_17h08.32.534,empathy_intonation_perc,2020.2.10,Win32,60,,,,,,,,,,1,andalusian,1,1,2.333815,0,6,6,25,1,26,./stim/wavs/andalusian_match_interrogative-total-yn_Daniel-iba-a-Bolivia.wav,./stim/wavs/argentine_match_interrogative-total-yn_Daniel-iba-a-Bolivia.wav,./stim/wavs/castilian_match_interrogative-total-yn_Daniel-iba-a-Bolivia.wav,./stim/wavs/chilean_match_interrogative-total-yn_Daniel-iba-a-Bolivia.wav,./stim/wavs/cuban_match_interrogative-total-yn_Daniel-iba-a-Bolivia.wav,./stim/wavs/mexican_match_interrogative-total-yn_Daniel-iba-a-Bolivia.wav,./stim/wavs/peruvian_match_interrogative-total-yn_Daniel-iba-a-Bolivia.wav,./stim/wavs/puertorican_match_interrogative-total-yn_Daniel-iba-a-Bolivia.wav,,,,,,,,,,,,,,,,,,,,,,,,,,,,,,,,,,,,,,,,,,,,,,,,,,,,,,,,
,,,,,,,5c1dc77ee2d9150001b5b70e,605b45a4d25f287719a41696,605ba8a810d3343fd9d718c5,I am not familiar with Spanish,Northeast,NA,no,2021-03-24_17h08.32.534,empathy_intonation_perc,2020.2.10,Win32,60,,,,,,,,,,1,argentine,0,0,2.371355,0,7,7,27,1,28,./stim/wavs/andalusian_match_interrogative-total-yn_Emilio-ama-la-marcha.wav,./stim/wavs/argentine_match_interrogative-total-yn_Emilio-ama-la-marcha.wav,./stim/wavs/castilian_match_interrogative-total-yn_Emilio-ama-la-marcha.wav,./stim/wavs/chilean_match_interrogative-total-yn_Emilio-ama-la-marcha.wav,./stim/wavs/cuban_match_interrogative-total-yn_Emilio-ama-la-marcha.wav,./stim/wavs/mexican_match_interrogative-total-yn_Emilio-ama-la-marcha.wav,./stim/wavs/peruvian_match_interrogative-total-yn_Emilio-ama-la-marcha.wav,./stim/wavs/puertorican_match_interrogative-total-yn_Emilio-ama-la-marcha.wav,,,,,,,,,,,,,,,,,,,,,,,,,,,,,,,,,,,,,,,,,,,,,,,,,,,,,,,,
,,,,,,,5c1dc77ee2d9150001b5b70e,605b45a4d25f287719a41696,605ba8a810d3343fd9d718c5,I am not familiar with Spanish,Northeast,NA,no,2021-03-24_17h08.32.534,empathy_intonation_perc,2020.2.10,Win32,60,,,,,,,,,,0,castilian,0,1,1.999995,0,8,8,46,1,47,./stim/wavs/andalusian_mismatch_declarative-narrow-focus_Mi-novio-viene-del-lago.wav,./stim/wavs/argentine_mismatch_declarative-narrow-focus_Mi-novio-viene-del-lago.wav,./stim/wavs/castilian_mismatch_declarative-narrow-focus_Mi-novio-viene-del-lago.wav,./stim/wavs/chilean_mismatch_declarative-narrow-focus_Mi-novio-viene-del-lago.wav,./stim/wavs/cuban_mismatch_declarative-narrow-focus_Mi-novio-viene-del-lago.wav,./stim/wavs/mexican_mismatch_declarative-narrow-focus_Mi-novio-viene-del-lago.wav,./stim/wavs/peruvian_mismatch_declarative-narrow-focus_Mi-novio-viene-del-lago.wav,./stim/wavs/puertorican_mismatch_declarative-narrow-focus_Mi-novio-viene-del-lago.wav,,,,,,,,,,,,,,,,,,,,,,,,,,,,,,,,,,,,,,,,,,,,,,,,,,,,,,,,
,,,,,,,5c1dc77ee2d9150001b5b70e,605b45a4d25f287719a41696,605ba8a810d3343fd9d718c5,I am not familiar with Spanish,Northeast,NA,no,2021-03-24_17h08.32.534,empathy_intonation_perc,2020.2.10,Win32,60,,,,,,,,,,1,mexican,1,1,1.838405,0,9,9,26,1,27,./stim/wavs/andalusian_match_interrogative-total-yn_David-leia-el-libro.wav,./stim/wavs/argentine_match_interrogative-total-yn_David-leia-el-libro.wav,./stim/wavs/castilian_match_interrogative-total-yn_David-leia-el-libro.wav,./stim/wavs/chilean_match_interrogative-total-yn_David-leia-el-libro.wav,./stim/wavs/cuban_match_interrogative-total-yn_David-leia-el-libro.wav,./stim/wavs/mexican_match_interrogative-total-yn_David-leia-el-libro.wav,./stim/wavs/peruvian_match_interrogative-total-yn_David-leia-el-libro.wav,./stim/wavs/puertorican_match_interrogative-total-yn_David-leia-el-libro.wav,,,,,,,,,,,,,,,,,,,,,,,,,,,,,,,,,,,,,,,,,,,,,,,,,,,,,,,,
,,,,,,,5c1dc77ee2d9150001b5b70e,605b45a4d25f287719a41696,605ba8a810d3343fd9d718c5,I am not familiar with Spanish,Northeast,NA,no,2021-03-24_17h08.32.534,empathy_intonation_perc,2020.2.10,Win32,60,,,,,,,,,,0,puertorican,0,1,1.86394,0,10,10,37,1,38,./stim/wavs/andalusian_mismatch_declarative-broad-focus_Mi-madre-come-la-fruta.wav,./stim/wavs/argentine_mismatch_declarative-broad-focus_Mi-madre-come-la-fruta.wav,./stim/wavs/castilian_mismatch_declarative-broad-focus_Mi-madre-come-la-fruta.wav,./stim/wavs/chilean_mismatch_declarative-broad-focus_Mi-madre-come-la-fruta.wav,./stim/wavs/cuban_mismatch_declarative-broad-focus_Mi-madre-come-la-fruta.wav,./stim/wavs/mexican_mismatch_declarative-broad-focus_Mi-madre-come-la-fruta.wav,./stim/wavs/peruvian_mismatch_declarative-broad-focus_Mi-madre-come-la-fruta.wav,./stim/wavs/puertorican_mismatch_declarative-broad-focus_Mi-madre-come-la-fruta.wav,,,,,,,,,,,,,,,,,,,,,,,,,,,,,,,,,,,,,,,,,,,,,,,,,,,,,,,,
,,,,,,,5c1dc77ee2d9150001b5b70e,605b45a4d25f287719a41696,605ba8a810d3343fd9d718c5,I am not familiar with Spanish,Northeast,NA,no,2021-03-24_17h08.32.534,empathy_intonation_perc,2020.2.10,Win32,60,,,,,,,,,,1,peruvian,0,0,1.618635,0,11,11,17,1,18,./stim/wavs/andalusian_match_interrogative-partial-wh_Cuando-leia-el-libro.wav,./stim/wavs/argentine_match_interrogative-partial-wh_Cuando-leia-el-libro.wav,./stim/wavs/castilian_match_interrogative-partial-wh_Cuando-leia-el-libro.wav,./stim/wavs/chilean_match_interrogative-partial-wh_Cuando-leia-el-libro.wav,./stim/wavs/cuban_match_interrogative-partial-wh_Cuando-leia-el-libro.wav,./stim/wavs/mexican_match_interrogative-partial-wh_Cuando-leia-el-libro.wav,./stim/wavs/peruvian_match_interrogative-partial-wh_Cuando-leia-el-libro.wav,./stim/wavs/puertorican_match_interrogative-partial-wh_Cuando-leia-el-libro.wav,,,,,,,,,,,,,,,,,,,,,,,,,,,,,,,,,,,,,,,,,,,,,,,,,,,,,,,,
,,,,,,,5c1dc77ee2d9150001b5b70e,605b45a4d25f287719a41696,605ba8a810d3343fd9d718c5,I am not familiar with Spanish,Northeast,NA,no,2021-03-24_17h08.32.534,empathy_intonation_perc,2020.2.10,Win32,60,,,,,,,,,,0,puertorican,0,1,1.698845,0,12,12,8,1,9,./stim/wavs/andalusian_match_declarative-narrow-focus_Ana-lleva-el-abrigo.wav,./stim/wavs/argentine_match_declarative-narrow-focus_Ana-lleva-el-abrigo.wav,./stim/wavs/castilian_match_declarative-narrow-focus_Ana-lleva-el-abrigo.wav,./stim/wavs/chilean_match_declarative-narrow-focus_Ana-lleva-el-abrigo.wav,./stim/wavs/cuban_match_declarative-narrow-focus_Ana-lleva-el-abrigo.wav,./stim/wavs/mexican_match_declarative-narrow-focus_Ana-lleva-el-abrigo.wav,./stim/wavs/peruvian_match_declarative-narrow-focus_Ana-lleva-el-abrigo.wav,./stim/wavs/puertorican_match_declarative-narrow-focus_Ana-lleva-el-abrigo.wav,,,,,,,,,,,,,,,,,,,,,,,,,,,,,,,,,,,,,,,,,,,,,,,,,,,,,,,,
,,,,,,,5c1dc77ee2d9150001b5b70e,605b45a4d25f287719a41696,605ba8a810d3343fd9d718c5,I am not familiar with Spanish,Northeast,NA,no,2021-03-24_17h08.32.534,empathy_intonation_perc,2020.2.10,Win32,60,,,,,,,,,,1,chilean,0,0,1.823075,0,13,13,50,1,51,./stim/wavs/andalusian_mismatch_interrogative-partial-wh_Cuando-miraba-la-luna.wav,./stim/wavs/argentine_mismatch_interrogative-partial-wh_Cuando-miraba-la-luna.wav,./stim/wavs/castilian_mismatch_interrogative-partial-wh_Cuando-miraba-la-luna.wav,./stim/wavs/chilean_mismatch_interrogative-partial-wh_Cuando-miraba-la-luna.wav,./stim/wavs/cuban_mismatch_interrogative-partial-wh_Cuando-miraba-la-luna.wav,./stim/wavs/mexican_mismatch_interrogative-partial-wh_Cuando-miraba-la-luna.wav,./stim/wavs/peruvian_mismatch_interrogative-partial-wh_Cuando-miraba-la-luna.wav,./stim/wavs/puertorican_mismatch_interrogative-partial-wh_Cuando-miraba-la-luna.wav,,,,,,,,,,,,,,,,,,,,,,,,,,,,,,,,,,,,,,,,,,,,,,,,,,,,,,,,
,,,,,,,5c1dc77ee2d9150001b5b70e,605b45a4d25f287719a41696,605ba8a810d3343fd9d718c5,I am not familiar with Spanish,Northeast,NA,no,2021-03-24_17h08.32.534,empathy_intonation_perc,2020.2.10,Win32,60,,,,,,,,,,0,mexican,0,1,5.80441,0,14,14,43,1,44,./stim/wavs/andalusian_mismatch_declarative-narrow-focus_La-maestra-vive-en-Paris.wav,./stim/wavs/argentine_mismatch_declarative-narrow-focus_La-maestra-vive-en-Paris.wav,./stim/wavs/castilian_mismatch_declarative-narrow-focus_La-maestra-vive-en-Paris.wav,./stim/wavs/chilean_mismatch_declarative-narrow-focus_La-maestra-vive-en-Paris.wav,./stim/wavs/cuban_mismatch_declarative-narrow-focus_La-maestra-vive-en-Paris.wav,./stim/wavs/mexican_mismatch_declarative-narrow-focus_La-maestra-vive-en-Paris.wav,./stim/wavs/peruvian_mismatch_declarative-narrow-focus_La-maestra-vive-en-Paris.wav,./stim/wavs/puertorican_mismatch_declarative-narrow-focus_La-maestra-vive-en-Paris.wav,,,,,,,,,,,,,,,,,,,,,,,,,,,,,,,,,,,,,,,,,,,,,,,,,,,,,,,,
,,,,,,,5c1dc77ee2d9150001b5b70e,605b45a4d25f287719a41696,605ba8a810d3343fd9d718c5,I am not familiar with Spanish,Northeast,NA,no,2021-03-24_17h08.32.534,empathy_intonation_perc,2020.2.10,Win32,60,,,,,,,,,,1,puertorican,0,0,6.059365,0,15,15,23,1,24,./stim/wavs/andalusian_match_interrogative-partial-wh_Por-que-iba-a-Bolivia.wav,./stim/wavs/argentine_match_interrogative-partial-wh_Por-que-iba-a-Bolivia.wav,./stim/wavs/castilian_match_interrogative-partial-wh_Por-que-iba-a-Bolivia.wav,./stim/wavs/chilean_match_interrogative-partial-wh_Por-que-iba-a-Bolivia.wav,./stim/wavs/cuban_match_interrogative-partial-wh_Por-que-iba-a-Bolivia.wav,./stim/wavs/mexican_match_interrogative-partial-wh_Por-que-iba-a-Bolivia.wav,./stim/wavs/peruvian_match_interrogative-partial-wh_Por-que-iba-a-Bolivia.wav,./stim/wavs/puertorican_match_interrogative-partial-wh_Por-que-iba-a-Bolivia.wav,,,,,,,,,,,,,,,,,,,,,,,,,,,,,,,,,,,,,,,,,,,,,,,,,,,,,,,,
,,,,,,,5c1dc77ee2d9150001b5b70e,605b45a4d25f287719a41696,605ba8a810d3343fd9d718c5,I am not familiar with Spanish,Northeast,NA,no,2021-03-24_17h08.32.534,empathy_intonation_perc,2020.2.10,Win32,60,,,,,,,,,,0,andalusian,0,1,1.94098,0,16,16,11,1,12,./stim/wavs/andalusian_match_declarative-narrow-focus_Emilio-ama-la-marcha.wav,./stim/wavs/argentine_match_declarative-narrow-focus_Emilio-ama-la-marcha.wav,./stim/wavs/castilian_match_declarative-narrow-focus_Emilio-ama-la-marcha.wav,./stim/wavs/chilean_match_declarative-narrow-focus_Emilio-ama-la-marcha.wav,./stim/wavs/cuban_match_declarative-narrow-focus_Emilio-ama-la-marcha.wav,./stim/wavs/mexican_match_declarative-narrow-focus_Emilio-ama-la-marcha.wav,./stim/wavs/peruvian_match_declarative-narrow-focus_Emilio-ama-la-marcha.wav,./stim/wavs/puertorican_match_declarative-narrow-focus_Emilio-ama-la-marcha.wav,,,,,,,,,,,,,,,,,,,,,,,,,,,,,,,,,,,,,,,,,,,,,,,,,,,,,,,,
,,,,,,,5c1dc77ee2d9150001b5b70e,605b45a4d25f287719a41696,605ba8a810d3343fd9d718c5,I am not familiar with Spanish,Northeast,NA,no,2021-03-24_17h08.32.534,empathy_intonation_perc,2020.2.10,Win32,60,,,,,,,,,,1,chilean,0,0,1.7109,0,17,17,29,1,30,./stim/wavs/andalusian_match_interrogative-total-yn_Maria-bebe-el-vino.wav,./stim/wavs/argentine_match_interrogative-total-yn_Maria-bebe-el-vino.wav,./stim/wavs/castilian_match_interrogative-total-yn_Maria-bebe-el-vino.wav,./stim/wavs/chilean_match_interrogative-total-yn_Maria-bebe-el-vino.wav,./stim/wavs/cuban_match_interrogative-total-yn_Maria-bebe-el-vino.wav,./stim/wavs/mexican_match_interrogative-total-yn_Maria-bebe-el-vino.wav,./stim/wavs/peruvian_match_interrogative-total-yn_Maria-bebe-el-vino.wav,./stim/wavs/puertorican_match_interrogative-total-yn_Maria-bebe-el-vino.wav,,,,,,,,,,,,,,,,,,,,,,,,,,,,,,,,,,,,,,,,,,,,,,,,,,,,,,,,
,,,,,,,5c1dc77ee2d9150001b5b70e,605b45a4d25f287719a41696,605ba8a810d3343fd9d718c5,I am not familiar with Spanish,Northeast,NA,no,2021-03-24_17h08.32.534,empathy_intonation_perc,2020.2.10,Win32,60,,,,,,,,,,0,andalusian,0,1,1.588945,0,18,18,4,1,5,./stim/wavs/andalusian_match_declarative-broad-focus_Manuela-vende-el-carro.wav,./stim/wavs/argentine_match_declarative-broad-focus_Manuela-vende-el-carro.wav,./stim/wavs/castilian_match_declarative-broad-focus_Manuela-vende-el-carro.wav,./stim/wavs/chilean_match_declarative-broad-focus_Manuela-vende-el-carro.wav,./stim/wavs/cuban_match_declarative-broad-focus_Manuela-vende-el-carro.wav,./stim/wavs/mexican_match_declarative-broad-focus_Manuela-vende-el-carro.wav,./stim/wavs/peruvian_match_declarative-broad-focus_Manuela-vende-el-carro.wav,./stim/wavs/puertorican_match_declarative-broad-focus_Manuela-vende-el-carro.wav,,,,,,,,,,,,,,,,,,,,,,,,,,,,,,,,,,,,,,,,,,,,,,,,,,,,,,,,
,,,,,,,5c1dc77ee2d9150001b5b70e,605b45a4d25f287719a41696,605ba8a810d3343fd9d718c5,I am not familiar with Spanish,Northeast,NA,no,2021-03-24_17h08.32.534,empathy_intonation_perc,2020.2.10,Win32,60,,,,,,,,,,1,mexican,0,0,1.61282,0,19,19,49,1,50,./stim/wavs/andalusian_mismatch_interrogative-partial-wh_Cuando-lavaba-el-plato.wav,./stim/wavs/argentine_mismatch_interrogative-partial-wh_Cuando-lavaba-el-plato.wav,./stim/wavs/castilian_mismatch_interrogative-partial-wh_Cuando-lavaba-el-plato.wav,./stim/wavs/chilean_mismatch_interrogative-partial-wh_Cuando-lavaba-el-plato.wav,./stim/wavs/cuban_mismatch_interrogative-partial-wh_Cuando-lavaba-el-plato.wav,./stim/wavs/mexican_mismatch_interrogative-partial-wh_Cuando-lavaba-el-plato.wav,./stim/wavs/peruvian_mismatch_interrogative-partial-wh_Cuando-lavaba-el-plato.wav,./stim/wavs/puertorican_mismatch_interrogative-partial-wh_Cuando-lavaba-el-plato.wav,,,,,,,,,,,,,,,,,,,,,,,,,,,,,,,,,,,,,,,,,,,,,,,,,,,,,,,,
,,,,,,,5c1dc77ee2d9150001b5b70e,605b45a4d25f287719a41696,605ba8a810d3343fd9d718c5,I am not familiar with Spanish,Northeast,NA,no,2021-03-24_17h08.32.534,empathy_intonation_perc,2020.2.10,Win32,60,,,,,,,,,,0,andalusian,0,1,1.61855,0,20,20,12,1,13,./stim/wavs/andalusian_match_declarative-narrow-focus_Manuela-vende-el-carro.wav,./stim/wavs/argentine_match_declarative-narrow-focus_Manuela-vende-el-carro.wav,./stim/wavs/castilian_match_declarative-narrow-focus_Manuela-vende-el-carro.wav,./stim/wavs/chilean_match_declarative-narrow-focus_Manuela-vende-el-carro.wav,./stim/wavs/cuban_match_declarative-narrow-focus_Manuela-vende-el-carro.wav,./stim/wavs/mexican_match_declarative-narrow-focus_Manuela-vende-el-carro.wav,./stim/wavs/peruvian_match_declarative-narrow-focus_Manuela-vende-el-carro.wav,./stim/wavs/puertorican_match_declarative-narrow-focus_Manuela-vende-el-carro.wav,,,,,,,,,,,,,,,,,,,,,,,,,,,,,,,,,,,,,,,,,,,,,,,,,,,,,,,,
,,,,,,,5c1dc77ee2d9150001b5b70e,605b45a4d25f287719a41696,605ba8a810d3343fd9d718c5,I am not familiar with Spanish,Northeast,NA,no,2021-03-24_17h08.32.534,empathy_intonation_perc,2020.2.10,Win32,60,,,,,,,,,,1,cuban,0,0,1.818065,0,21,21,24,1,25,./stim/wavs/andalusian_match_interrogative-total-yn_Ana-lleva-el-abrigo.wav,./stim/wavs/argentine_match_interrogative-total-yn_Ana-lleva-el-abrigo.wav,./stim/wavs/castilian_match_interrogative-total-yn_Ana-lleva-el-abrigo.wav,./stim/wavs/chilean_match_interrogative-total-yn_Ana-lleva-el-abrigo.wav,./stim/wavs/cuban_match_interrogative-total-yn_Ana-lleva-el-abrigo.wav,./stim/wavs/mexican_match_interrogative-total-yn_Ana-lleva-el-abrigo.wav,./stim/wavs/peruvian_match_interrogative-total-yn_Ana-lleva-el-abrigo.wav,./stim/wavs/puertorican_match_interrogative-total-yn_Ana-lleva-el-abrigo.wav,,,,,,,,,,,,,,,,,,,,,,,,,,,,,,,,,,,,,,,,,,,,,,,,,,,,,,,,
,,,,,,,5c1dc77ee2d9150001b5b70e,605b45a4d25f287719a41696,605ba8a810d3343fd9d718c5,I am not familiar with Spanish,Northeast,NA,no,2021-03-24_17h08.32.534,empathy_intonation_perc,2020.2.10,Win32,60,,,,,,,,,,1,castilian,1,1,1.808765,0,22,22,28,1,29,./stim/wavs/andalusian_match_interrogative-total-yn_Manuela-vende-el-carro.wav,./stim/wavs/argentine_match_interrogative-total-yn_Manuela-vende-el-carro.wav,./stim/wavs/castilian_match_interrogative-total-yn_Manuela-vende-el-carro.wav,./stim/wavs/chilean_match_interrogative-total-yn_Manuela-vende-el-carro.wav,./stim/wavs/cuban_match_interrogative-total-yn_Manuela-vende-el-carro.wav,./stim/wavs/mexican_match_interrogative-total-yn_Manuela-vende-el-carro.wav,./stim/wavs/peruvian_match_interrogative-total-yn_Manuela-vende-el-carro.wav,./stim/wavs/puertorican_match_interrogative-total-yn_Manuela-vende-el-carro.wav,,,,,,,,,,,,,,,,,,,,,,,,,,,,,,,,,,,,,,,,,,,,,,,,,,,,,,,,
,,,,,,,5c1dc77ee2d9150001b5b70e,605b45a4d25f287719a41696,605ba8a810d3343fd9d718c5,I am not familiar with Spanish,Northeast,NA,no,2021-03-24_17h08.32.534,empathy_intonation_perc,2020.2.10,Win32,60,,,,,,,,,,1,andalusian,1,1,3.10815,0,23,23,55,1,56,./stim/wavs/andalusian_mismatch_interrogative-partial-wh_Por-que-vivia-en-Paris.wav,./stim/wavs/argentine_mismatch_interrogative-partial-wh_Por-que-vivia-en-Paris.wav,./stim/wavs/castilian_mismatch_interrogative-partial-wh_Por-que-vivia-en-Paris.wav,./stim/wavs/chilean_mismatch_interrogative-partial-wh_Por-que-vivia-en-Paris.wav,./stim/wavs/cuban_mismatch_interrogative-partial-wh_Por-que-vivia-en-Paris.wav,./stim/wavs/mexican_mismatch_interrogative-partial-wh_Por-que-vivia-en-Paris.wav,./stim/wavs/peruvian_mismatch_interrogative-partial-wh_Por-que-vivia-en-Paris.wav,./stim/wavs/puertorican_mismatch_interrogative-partial-wh_Por-que-vivia-en-Paris.wav,,,,,,,,,,,,,,,,,,,,,,,,,,,,,,,,,,,,,,,,,,,,,,,,,,,,,,,,
,,,,,,,5c1dc77ee2d9150001b5b70e,605b45a4d25f287719a41696,605ba8a810d3343fd9d718c5,I am not familiar with Spanish,Northeast,NA,no,2021-03-24_17h08.32.534,empathy_intonation_perc,2020.2.10,Win32,60,,,,,,,,,,0,andalusian,0,1,2.94022,0,24,24,10,1,11,./stim/wavs/andalusian_match_declarative-narrow-focus_David-leia-el-libro.wav,./stim/wavs/argentine_match_declarative-narrow-focus_David-leia-el-libro.wav,./stim/wavs/castilian_match_declarative-narrow-focus_David-leia-el-libro.wav,./stim/wavs/chilean_match_declarative-narrow-focus_David-leia-el-libro.wav,./stim/wavs/cuban_match_declarative-narrow-focus_David-leia-el-libro.wav,./stim/wavs/mexican_match_declarative-narrow-focus_David-leia-el-libro.wav,./stim/wavs/peruvian_match_declarative-narrow-focus_David-leia-el-libro.wav,./stim/wavs/puertorican_match_declarative-narrow-focus_David-leia-el-libro.wav,,,,,,,,,,,,,,,,,,,,,,,,,,,,,,,,,,,,,,,,,,,,,,,,,,,,,,,,
,,,,,,,5c1dc77ee2d9150001b5b70e,605b45a4d25f287719a41696,605ba8a810d3343fd9d718c5,I am not familiar with Spanish,Northeast,NA,no,2021-03-24_17h08.32.534,empathy_intonation_perc,2020.2.10,Win32,60,,,,,,,,,,0,mexican,0,1,35.952365,0,25,25,45,1,46,./stim/wavs/andalusian_mismatch_declarative-narrow-focus_Mi-madre-come-la-fruta.wav,./stim/wavs/argentine_mismatch_declarative-narrow-focus_Mi-madre-come-la-fruta.wav,./stim/wavs/castilian_mismatch_declarative-narrow-focus_Mi-madre-come-la-fruta.wav,./stim/wavs/chilean_mismatch_declarative-narrow-focus_Mi-madre-come-la-fruta.wav,./stim/wavs/cuban_mismatch_declarative-narrow-focus_Mi-madre-come-la-fruta.wav,./stim/wavs/mexican_mismatch_declarative-narrow-focus_Mi-madre-come-la-fruta.wav,./stim/wavs/peruvian_mismatch_declarative-narrow-focus_Mi-madre-come-la-fruta.wav,./stim/wavs/puertorican_mismatch_declarative-narrow-focus_Mi-madre-come-la-fruta.wav,,,,,,,,,,,,,,,,,,,,,,,,,,,,,,,,,,,,,,,,,,,,,,,,,,,,,,,,
,,,,,,,5c1dc77ee2d9150001b5b70e,605b45a4d25f287719a41696,605ba8a810d3343fd9d718c5,I am not familiar with Spanish,Northeast,NA,no,2021-03-24_17h08.32.534,empathy_intonation_perc,2020.2.10,Win32,60,,,,,,,,,,1,puertorican,1,1,1.887155,0,26,26,52,1,53,./stim/wavs/andalusian_mismatch_interrogative-partial-wh_Por-que-odiaba-la-lluvia.wav,./stim/wavs/argentine_mismatch_interrogative-partial-wh_Por-que-odiaba-la-lluvia.wav,./stim/wavs/castilian_mismatch_interrogative-partial-wh_Por-que-odiaba-la-lluvia.wav,./stim/wavs/chilean_mismatch_interrogative-partial-wh_Por-que-odiaba-la-lluvia.wav,./stim/wavs/cuban_mismatch_interrogative-partial-wh_Por-que-odiaba-la-lluvia.wav,./stim/wavs/mexican_mismatch_interrogative-partial-wh_Por-que-odiaba-la-lluvia.wav,./stim/wavs/peruvian_mismatch_interrogative-partial-wh_Por-que-odiaba-la-lluvia.wav,./stim/wavs/puertorican_mismatch_interrogative-partial-wh_Por-que-odiaba-la-lluvia.wav,,,,,,,,,,,,,,,,,,,,,,,,,,,,,,,,,,,,,,,,,,,,,,,,,,,,,,,,
,,,,,,,5c1dc77ee2d9150001b5b70e,605b45a4d25f287719a41696,605ba8a810d3343fd9d718c5,I am not familiar with Spanish,Northeast,NA,no,2021-03-24_17h08.32.534,empathy_intonation_perc,2020.2.10,Win32,60,,,,,,,,,,1,mexican,1,1,2.084995,0,27,27,60,1,61,./stim/wavs/andalusian_mismatch_interrogative-total-yn_La-nina-lava-el-plato.wav,./stim/wavs/argentine_mismatch_interrogative-total-yn_La-nina-lava-el-plato.wav,./stim/wavs/castilian_mismatch_interrogative-total-yn_La-nina-lava-el-plato.wav,./stim/wavs/chilean_mismatch_interrogative-total-yn_La-nina-lava-el-plato.wav,./stim/wavs/cuban_mismatch_interrogative-total-yn_La-nina-lava-el-plato.wav,./stim/wavs/mexican_mismatch_interrogative-total-yn_La-nina-lava-el-plato.wav,./stim/wavs/peruvian_mismatch_interrogative-total-yn_La-nina-lava-el-plato.wav,./stim/wavs/puertorican_mismatch_interrogative-total-yn_La-nina-lava-el-plato.wav,,,,,,,,,,,,,,,,,,,,,,,,,,,,,,,,,,,,,,,,,,,,,,,,,,,,,,,,
,,,,,,,5c1dc77ee2d9150001b5b70e,605b45a4d25f287719a41696,605ba8a810d3343fd9d718c5,I am not familiar with Spanish,Northeast,NA,no,2021-03-24_17h08.32.534,empathy_intonation_perc,2020.2.10,Win32,60,,,,,,,,,,0,mexican,0,1,1.912,0,28,28,39,1,40,./stim/wavs/andalusian_mismatch_declarative-broad-focus_Mi-tia-odia-la-lluvia.wav,./stim/wavs/argentine_mismatch_declarative-broad-focus_Mi-tia-odia-la-lluvia.wav,./stim/wavs/castilian_mismatch_declarative-broad-focus_Mi-tia-odia-la-lluvia.wav,./stim/wavs/chilean_mismatch_declarative-broad-focus_Mi-tia-odia-la-lluvia.wav,./stim/wavs/cuban_mismatch_declarative-broad-focus_Mi-tia-odia-la-lluvia.wav,./stim/wavs/mexican_mismatch_declarative-broad-focus_Mi-tia-odia-la-lluvia.wav,./stim/wavs/peruvian_mismatch_declarative-broad-focus_Mi-tia-odia-la-lluvia.wav,./stim/wavs/puertorican_mismatch_declarative-broad-focus_Mi-tia-odia-la-lluvia.wav,,,,,,,,,,,,,,,,,,,,,,,,,,,,,,,,,,,,,,,,,,,,,,,,,,,,,,,,
,,,,,,,5c1dc77ee2d9150001b5b70e,605b45a4d25f287719a41696,605ba8a810d3343fd9d718c5,I am not familiar with Spanish,Northeast,NA,no,2021-03-24_17h08.32.534,empathy_intonation_perc,2020.2.10,Win32,60,,,,,,,,,,0,cuban,0,1,1.58746,0,29,29,15,1,16,./stim/wavs/andalusian_match_declarative-narrow-focus_Marta-abre-el-regalo.wav,./stim/wavs/argentine_match_declarative-narrow-focus_Marta-abre-el-regalo.wav,./stim/wavs/castilian_match_declarative-narrow-focus_Marta-abre-el-regalo.wav,./stim/wavs/chilean_match_declarative-narrow-focus_Marta-abre-el-regalo.wav,./stim/wavs/cuban_match_declarative-narrow-focus_Marta-abre-el-regalo.wav,./stim/wavs/mexican_match_declarative-narrow-focus_Marta-abre-el-regalo.wav,./stim/wavs/peruvian_match_declarative-narrow-focus_Marta-abre-el-regalo.wav,./stim/wavs/puertorican_match_declarative-narrow-focus_Marta-abre-el-regalo.wav,,,,,,,,,,,,,,,,,,,,,,,,,,,,,,,,,,,,,,,,,,,,,,,,,,,,,,,,
,,,,,,,5c1dc77ee2d9150001b5b70e,605b45a4d25f287719a41696,605ba8a810d3343fd9d718c5,I am not familiar with Spanish,Northeast,NA,no,2021-03-24_17h08.32.534,empathy_intonation_perc,2020.2.10,Win32,60,,,,,,,,,,1,puertorican,0,0,1.473935,0,30,30,22,1,23,./stim/wavs/andalusian_match_interrogative-partial-wh_Por-que-hablaba-del-agua.wav,./stim/wavs/argentine_match_interrogative-partial-wh_Por-que-hablaba-del-agua.wav,./stim/wavs/castilian_match_interrogative-partial-wh_Por-que-hablaba-del-agua.wav,./stim/wavs/chilean_match_interrogative-partial-wh_Por-que-hablaba-del-agua.wav,./stim/wavs/cuban_match_interrogative-partial-wh_Por-que-hablaba-del-agua.wav,./stim/wavs/mexican_match_interrogative-partial-wh_Por-que-hablaba-del-agua.wav,./stim/wavs/peruvian_match_interrogative-partial-wh_Por-que-hablaba-del-agua.wav,./stim/wavs/puertorican_match_interrogative-partial-wh_Por-que-hablaba-del-agua.wav,,,,,,,,,,,,,,,,,,,,,,,,,,,,,,,,,,,,,,,,,,,,,,,,,,,,,,,,
,,,,,,,5c1dc77ee2d9150001b5b70e,605b45a4d25f287719a41696,605ba8a810d3343fd9d718c5,I am not familiar with Spanish,Northeast,NA,no,2021-03-24_17h08.32.534,empathy_intonation_perc,2020.2.10,Win32,60,,,,,,,,,,0,castilian,0,1,1.653975,0,31,31,0,1,1,./stim/wavs/andalusian_match_declarative-broad-focus_Ana-lleva-el-abrigo.wav,./stim/wavs/argentine_match_declarative-broad-focus_Ana-lleva-el-abrigo.wav,./stim/wavs/castilian_match_declarative-broad-focus_Ana-lleva-el-abrigo.wav,./stim/wavs/chilean_match_declarative-broad-focus_Ana-lleva-el-abrigo.wav,./stim/wavs/cuban_match_declarative-broad-focus_Ana-lleva-el-abrigo.wav,./stim/wavs/mexican_match_declarative-broad-focus_Ana-lleva-el-abrigo.wav,./stim/wavs/peruvian_match_declarative-broad-focus_Ana-lleva-el-abrigo.wav,./stim/wavs/puertorican_match_declarative-broad-focus_Ana-lleva-el-abrigo.wav,,,,,,,,,,,,,,,,,,,,,,,,,,,,,,,,,,,,,,,,,,,,,,,,,,,,,,,,
,,,,,,,5c1dc77ee2d9150001b5b70e,605b45a4d25f287719a41696,605ba8a810d3343fd9d718c5,I am not familiar with Spanish,Northeast,NA,no,2021-03-24_17h08.32.534,empathy_intonation_perc,2020.2.10,Win32,60,,,,,,,,,,1,cuban,0,0,2.294615,0,32,32,48,1,49,./stim/wavs/andalusian_mismatch_interrogative-partial-wh_Cuando-comia-la-fruta.wav,./stim/wavs/argentine_mismatch_interrogative-partial-wh_Cuando-comia-la-fruta.wav,./stim/wavs/castilian_mismatch_interrogative-partial-wh_Cuando-comia-la-fruta.wav,./stim/wavs/chilean_mismatch_interrogative-partial-wh_Cuando-comia-la-fruta.wav,./stim/wavs/cuban_mismatch_interrogative-partial-wh_Cuando-comia-la-fruta.wav,./stim/wavs/mexican_mismatch_interrogative-partial-wh_Cuando-comia-la-fruta.wav,./stim/wavs/peruvian_mismatch_interrogative-partial-wh_Cuando-comia-la-fruta.wav,./stim/wavs/puertorican_mismatch_interrogative-partial-wh_Cuando-comia-la-fruta.wav,,,,,,,,,,,,,,,,,,,,,,,,,,,,,,,,,,,,,,,,,,,,,,,,,,,,,,,,
,,,,,,,5c1dc77ee2d9150001b5b70e,605b45a4d25f287719a41696,605ba8a810d3343fd9d718c5,I am not familiar with Spanish,Northeast,NA,no,2021-03-24_17h08.32.534,empathy_intonation_perc,2020.2.10,Win32,60,,,,,,,,,,1,chilean,0,0,1.76288,0,33,33,58,1,59,./stim/wavs/andalusian_mismatch_interrogative-total-yn_El-nino-oye-el-rio.wav,./stim/wavs/argentine_mismatch_interrogative-total-yn_El-nino-oye-el-rio.wav,./stim/wavs/castilian_mismatch_interrogative-total-yn_El-nino-oye-el-rio.wav,./stim/wavs/chilean_mismatch_interrogative-total-yn_El-nino-oye-el-rio.wav,./stim/wavs/cuban_mismatch_interrogative-total-yn_El-nino-oye-el-rio.wav,./stim/wavs/mexican_mismatch_interrogative-total-yn_El-nino-oye-el-rio.wav,./stim/wavs/peruvian_mismatch_interrogative-total-yn_El-nino-oye-el-rio.wav,./stim/wavs/puertorican_mismatch_interrogative-total-yn_El-nino-oye-el-rio.wav,,,,,,,,,,,,,,,,,,,,,,,,,,,,,,,,,,,,,,,,,,,,,,,,,,,,,,,,
,,,,,,,5c1dc77ee2d9150001b5b70e,605b45a4d25f287719a41696,605ba8a810d3343fd9d718c5,I am not familiar with Spanish,Northeast,NA,no,2021-03-24_17h08.32.534,empathy_intonation_perc,2020.2.10,Win32,60,,,,,,,,,,1,andalusian,1,1,1.93557,0,34,34,59,1,60,./stim/wavs/andalusian_mismatch_interrogative-total-yn_La-maestra-vive-en-Paris.wav,./stim/wavs/argentine_mismatch_interrogative-total-yn_La-maestra-vive-en-Paris.wav,./stim/wavs/castilian_mismatch_interrogative-total-yn_La-maestra-vive-en-Paris.wav,./stim/wavs/chilean_mismatch_interrogative-total-yn_La-maestra-vive-en-Paris.wav,./stim/wavs/cuban_mismatch_interrogative-total-yn_La-maestra-vive-en-Paris.wav,./stim/wavs/mexican_mismatch_interrogative-total-yn_La-maestra-vive-en-Paris.wav,./stim/wavs/peruvian_mismatch_interrogative-total-yn_La-maestra-vive-en-Paris.wav,./stim/wavs/puertorican_mismatch_interrogative-total-yn_La-maestra-vive-en-Paris.wav,,,,,,,,,,,,,,,,,,,,,,,,,,,,,,,,,,,,,,,,,,,,,,,,,,,,,,,,
,,,,,,,5c1dc77ee2d9150001b5b70e,605b45a4d25f287719a41696,605ba8a810d3343fd9d718c5,I am not familiar with Spanish,Northeast,NA,no,2021-03-24_17h08.32.534,empathy_intonation_perc,2020.2.10,Win32,60,,,,,,,,,,1,chilean,1,1,1.725565,0,35,35,54,1,55,./stim/wavs/andalusian_mismatch_interrogative-partial-wh_Por-que-venia-del-lago.wav,./stim/wavs/argentine_mismatch_interrogative-partial-wh_Por-que-venia-del-lago.wav,./stim/wavs/castilian_mismatch_interrogative-partial-wh_Por-que-venia-del-lago.wav,./stim/wavs/chilean_mismatch_interrogative-partial-wh_Por-que-venia-del-lago.wav,./stim/wavs/cuban_mismatch_interrogative-partial-wh_Por-que-venia-del-lago.wav,./stim/wavs/mexican_mismatch_interrogative-partial-wh_Por-que-venia-del-lago.wav,./stim/wavs/peruvian_mismatch_interrogative-partial-wh_Por-que-venia-del-lago.wav,./stim/wavs/puertorican_mismatch_interrogative-partial-wh_Por-que-venia-del-lago.wav,,,,,,,,,,,,,,,,,,,,,,,,,,,,,,,,,,,,,,,,,,,,,,,,,,,,,,,,
,,,,,,,5c1dc77ee2d9150001b5b70e,605b45a4d25f287719a41696,605ba8a810d3343fd9d718c5,I am not familiar with Spanish,Northeast,NA,no,2021-03-24_17h08.32.534,empathy_intonation_perc,2020.2.10,Win32,60,,,,,,,,,,1,mexican,1,1,1.92731,0,36,36,31,1,32,./stim/wavs/andalusian_match_interrogative-total-yn_Marta-abre-el-regalo.wav,./stim/wavs/argentine_match_interrogative-total-yn_Marta-abre-el-regalo.wav,./stim/wavs/castilian_match_interrogative-total-yn_Marta-abre-el-regalo.wav,./stim/wavs/chilean_match_interrogative-total-yn_Marta-abre-el-regalo.wav,./stim/wavs/cuban_match_interrogative-total-yn_Marta-abre-el-regalo.wav,./stim/wavs/mexican_match_interrogative-total-yn_Marta-abre-el-regalo.wav,./stim/wavs/peruvian_match_interrogative-total-yn_Marta-abre-el-regalo.wav,./stim/wavs/puertorican_match_interrogative-total-yn_Marta-abre-el-regalo.wav,,,,,,,,,,,,,,,,,,,,,,,,,,,,,,,,,,,,,,,,,,,,,,,,,,,,,,,,
,,,,,,,5c1dc77ee2d9150001b5b70e,605b45a4d25f287719a41696,605ba8a810d3343fd9d718c5,I am not familiar with Spanish,Northeast,NA,no,2021-03-24_17h08.32.534,empathy_intonation_perc,2020.2.10,Win32,60,,,,,,,,,,0,puertorican,0,1,1.700235,0,37,37,38,1,39,./stim/wavs/andalusian_mismatch_declarative-broad-focus_Mi-novio-viene-del-lago.wav,./stim/wavs/argentine_mismatch_declarative-broad-focus_Mi-novio-viene-del-lago.wav,./stim/wavs/castilian_mismatch_declarative-broad-focus_Mi-novio-viene-del-lago.wav,./stim/wavs/chilean_mismatch_declarative-broad-focus_Mi-novio-viene-del-lago.wav,./stim/wavs/cuban_mismatch_declarative-broad-focus_Mi-novio-viene-del-lago.wav,./stim/wavs/mexican_mismatch_declarative-broad-focus_Mi-novio-viene-del-lago.wav,./stim/wavs/peruvian_mismatch_declarative-broad-focus_Mi-novio-viene-del-lago.wav,./stim/wavs/puertorican_mismatch_declarative-broad-focus_Mi-novio-viene-del-lago.wav,,,,,,,,,,,,,,,,,,,,,,,,,,,,,,,,,,,,,,,,,,,,,,,,,,,,,,,,
,,,,,,,5c1dc77ee2d9150001b5b70e,605b45a4d25f287719a41696,605ba8a810d3343fd9d718c5,I am not familiar with Spanish,Northeast,NA,no,2021-03-24_17h08.32.534,empathy_intonation_perc,2020.2.10,Win32,60,,,,,,,,,,0,peruvian,0,1,2.29473,0,38,38,9,1,10,./stim/wavs/andalusian_match_declarative-narrow-focus_Daniel-iba-a-Bolivia.wav,./stim/wavs/argentine_match_declarative-narrow-focus_Daniel-iba-a-Bolivia.wav,./stim/wavs/castilian_match_declarative-narrow-focus_Daniel-iba-a-Bolivia.wav,./stim/wavs/chilean_match_declarative-narrow-focus_Daniel-iba-a-Bolivia.wav,./stim/wavs/cuban_match_declarative-narrow-focus_Daniel-iba-a-Bolivia.wav,./stim/wavs/mexican_match_declarative-narrow-focus_Daniel-iba-a-Bolivia.wav,./stim/wavs/peruvian_match_declarative-narrow-focus_Daniel-iba-a-Bolivia.wav,./stim/wavs/puertorican_match_declarative-narrow-focus_Daniel-iba-a-Bolivia.wav,,,,,,,,,,,,,,,,,,,,,,,,,,,,,,,,,,,,,,,,,,,,,,,,,,,,,,,,
,,,,,,,5c1dc77ee2d9150001b5b70e,605b45a4d25f287719a41696,605ba8a810d3343fd9d718c5,I am not familiar with Spanish,Northeast,NA,no,2021-03-24_17h08.32.534,empathy_intonation_perc,2020.2.10,Win32,60,,,,,,,,,,0,cuban,0,1,1.71764,0,39,39,44,1,45,./stim/wavs/andalusian_mismatch_declarative-narrow-focus_La-nina-lava-el-plato.wav,./stim/wavs/argentine_mismatch_declarative-narrow-focus_La-nina-lava-el-plato.wav,./stim/wavs/castilian_mismatch_declarative-narrow-focus_La-nina-lava-el-plato.wav,./stim/wavs/chilean_mismatch_declarative-narrow-focus_La-nina-lava-el-plato.wav,./stim/wavs/cuban_mismatch_declarative-narrow-focus_La-nina-lava-el-plato.wav,./stim/wavs/mexican_mismatch_declarative-narrow-focus_La-nina-lava-el-plato.wav,./stim/wavs/peruvian_mismatch_declarative-narrow-focus_La-nina-lava-el-plato.wav,./stim/wavs/puertorican_mismatch_declarative-narrow-focus_La-nina-lava-el-plato.wav,,,,,,,,,,,,,,,,,,,,,,,,,,,,,,,,,,,,,,,,,,,,,,,,,,,,,,,,
,,,,,,,5c1dc77ee2d9150001b5b70e,605b45a4d25f287719a41696,605ba8a810d3343fd9d718c5,I am not familiar with Spanish,Northeast,NA,no,2021-03-24_17h08.32.534,empathy_intonation_perc,2020.2.10,Win32,60,,,,,,,,,,1,castilian,1,1,2.001335,0,40,40,19,1,20,./stim/wavs/andalusian_match_interrogative-partial-wh_Cuando-vendia-el-carro.wav,./stim/wavs/argentine_match_interrogative-partial-wh_Cuando-vendia-el-carro.wav,./stim/wavs/castilian_match_interrogative-partial-wh_Cuando-vendia-el-carro.wav,./stim/wavs/chilean_match_interrogative-partial-wh_Cuando-vendia-el-carro.wav,./stim/wavs/cuban_match_interrogative-partial-wh_Cuando-vendia-el-carro.wav,./stim/wavs/mexican_match_interrogative-partial-wh_Cuando-vendia-el-carro.wav,./stim/wavs/peruvian_match_interrogative-partial-wh_Cuando-vendia-el-carro.wav,./stim/wavs/puertorican_match_interrogative-partial-wh_Cuando-vendia-el-carro.wav,,,,,,,,,,,,,,,,,,,,,,,,,,,,,,,,,,,,,,,,,,,,,,,,,,,,,,,,
,,,,,,,5c1dc77ee2d9150001b5b70e,605b45a4d25f287719a41696,605ba8a810d3343fd9d718c5,I am not familiar with Spanish,Northeast,NA,no,2021-03-24_17h08.32.534,empathy_intonation_perc,2020.2.10,Win32,60,,,,,,,,,,0,cuban,0,1,2.1457,0,41,41,14,1,15,./stim/wavs/andalusian_match_declarative-narrow-focus_Mariano-habla-del-tiempo.wav,./stim/wavs/argentine_match_declarative-narrow-focus_Mariano-habla-del-tiempo.wav,./stim/wavs/castilian_match_declarative-narrow-focus_Mariano-habla-del-tiempo.wav,./stim/wavs/chilean_match_declarative-narrow-focus_Mariano-habla-del-tiempo.wav,./stim/wavs/cuban_match_declarative-narrow-focus_Mariano-habla-del-tiempo.wav,./stim/wavs/mexican_match_declarative-narrow-focus_Mariano-habla-del-tiempo.wav,./stim/wavs/peruvian_match_declarative-narrow-focus_Mariano-habla-del-tiempo.wav,./stim/wavs/puertorican_match_declarative-narrow-focus_Mariano-habla-del-tiempo.wav,,,,,,,,,,,,,,,,,,,,,,,,,,,,,,,,,,,,,,,,,,,,,,,,,,,,,,,,
,,,,,,,5c1dc77ee2d9150001b5b70e,605b45a4d25f287719a41696,605ba8a810d3343fd9d718c5,I am not familiar with Spanish,Northeast,NA,no,2021-03-24_17h08.32.534,empathy_intonation_perc,2020.2.10,Win32,60,,,,,,,,,,0,cuban,0,1,1.76602,0,42,42,47,1,48,./stim/wavs/andalusian_mismatch_declarative-narrow-focus_Mi-tia-odia-la-lluvia.wav,./stim/wavs/argentine_mismatch_declarative-narrow-focus_Mi-tia-odia-la-lluvia.wav,./stim/wavs/castilian_mismatch_declarative-narrow-focus_Mi-tia-odia-la-lluvia.wav,./stim/wavs/chilean_mismatch_declarative-narrow-focus_Mi-tia-odia-la-lluvia.wav,./stim/wavs/cuban_mismatch_declarative-narrow-focus_Mi-tia-odia-la-lluvia.wav,./stim/wavs/mexican_mismatch_declarative-narrow-focus_Mi-tia-odia-la-lluvia.wav,./stim/wavs/peruvian_mismatch_declarative-narrow-focus_Mi-tia-odia-la-lluvia.wav,./stim/wavs/puertorican_mismatch_declarative-narrow-focus_Mi-tia-odia-la-lluvia.wav,,,,,,,,,,,,,,,,,,,,,,,,,,,,,,,,,,,,,,,,,,,,,,,,,,,,,,,,
,,,,,,,5c1dc77ee2d9150001b5b70e,605b45a4d25f287719a41696,605ba8a810d3343fd9d718c5,I am not familiar with Spanish,Northeast,NA,no,2021-03-24_17h08.32.534,empathy_intonation_perc,2020.2.10,Win32,60,,,,,,,,,,1,peruvian,0,0,1.819595,0,43,43,53,1,54,./stim/wavs/andalusian_mismatch_interrogative-partial-wh_Por-que-oia-el-rio.wav,./stim/wavs/argentine_mismatch_interrogative-partial-wh_Por-que-oia-el-rio.wav,./stim/wavs/castilian_mismatch_interrogative-partial-wh_Por-que-oia-el-rio.wav,./stim/wavs/chilean_mismatch_interrogative-partial-wh_Por-que-oia-el-rio.wav,./stim/wavs/cuban_mismatch_interrogative-partial-wh_Por-que-oia-el-rio.wav,./stim/wavs/mexican_mismatch_interrogative-partial-wh_Por-que-oia-el-rio.wav,./stim/wavs/peruvian_mismatch_interrogative-partial-wh_Por-que-oia-el-rio.wav,./stim/wavs/puertorican_mismatch_interrogative-partial-wh_Por-que-oia-el-rio.wav,,,,,,,,,,,,,,,,,,,,,,,,,,,,,,,,,,,,,,,,,,,,,,,,,,,,,,,,
,,,,,,,5c1dc77ee2d9150001b5b70e,605b45a4d25f287719a41696,605ba8a810d3343fd9d718c5,I am not familiar with Spanish,Northeast,NA,no,2021-03-24_17h08.32.534,empathy_intonation_perc,2020.2.10,Win32,60,,,,,,,,,,0,mexican,0,1,1.85076,0,44,44,42,1,43,./stim/wavs/andalusian_mismatch_declarative-narrow-focus_El-nino-oye-el-rio.wav,./stim/wavs/argentine_mismatch_declarative-narrow-focus_El-nino-oye-el-rio.wav,./stim/wavs/castilian_mismatch_declarative-narrow-focus_El-nino-oye-el-rio.wav,./stim/wavs/chilean_mismatch_declarative-narrow-focus_El-nino-oye-el-rio.wav,./stim/wavs/cuban_mismatch_declarative-narrow-focus_El-nino-oye-el-rio.wav,./stim/wavs/mexican_mismatch_declarative-narrow-focus_El-nino-oye-el-rio.wav,./stim/wavs/peruvian_mismatch_declarative-narrow-focus_El-nino-oye-el-rio.wav,./stim/wavs/puertorican_mismatch_declarative-narrow-focus_El-nino-oye-el-rio.wav,,,,,,,,,,,,,,,,,,,,,,,,,,,,,,,,,,,,,,,,,,,,,,,,,,,,,,,,
,,,,,,,5c1dc77ee2d9150001b5b70e,605b45a4d25f287719a41696,605ba8a810d3343fd9d718c5,I am not familiar with Spanish,Northeast,NA,no,2021-03-24_17h08.32.534,empathy_intonation_perc,2020.2.10,Win32,60,,,,,,,,,,1,mexican,0,0,1.753235,0,45,45,18,1,19,./stim/wavs/andalusian_match_interrogative-partial-wh_Cuando-lleva-el-abrigo.wav,./stim/wavs/argentine_match_interrogative-partial-wh_Cuando-lleva-el-abrigo.wav,./stim/wavs/castilian_match_interrogative-partial-wh_Cuando-lleva-el-abrigo.wav,./stim/wavs/chilean_match_interrogative-partial-wh_Cuando-lleva-el-abrigo.wav,./stim/wavs/cuban_match_interrogative-partial-wh_Cuando-lleva-el-abrigo.wav,./stim/wavs/mexican_match_interrogative-partial-wh_Cuando-lleva-el-abrigo.wav,./stim/wavs/peruvian_match_interrogative-partial-wh_Cuando-lleva-el-abrigo.wav,./stim/wavs/puertorican_match_interrogative-partial-wh_Cuando-lleva-el-abrigo.wav,,,,,,,,,,,,,,,,,,,,,,,,,,,,,,,,,,,,,,,,,,,,,,,,,,,,,,,,
,,,,,,,5c1dc77ee2d9150001b5b70e,605b45a4d25f287719a41696,605ba8a810d3343fd9d718c5,I am not familiar with Spanish,Northeast,NA,no,2021-03-24_17h08.32.534,empathy_intonation_perc,2020.2.10,Win32,60,,,,,,,,,,1,cuban,0,0,1.724505,0,46,46,21,1,22,./stim/wavs/andalusian_match_interrogative-partial-wh_Por-que-ama-la-navidad.wav,./stim/wavs/argentine_match_interrogative-partial-wh_Por-que-ama-la-navidad.wav,./stim/wavs/castilian_match_interrogative-partial-wh_Por-que-ama-la-navidad.wav,./stim/wavs/chilean_match_interrogative-partial-wh_Por-que-ama-la-navidad.wav,./stim/wavs/cuban_match_interrogative-partial-wh_Por-que-ama-la-navidad.wav,./stim/wavs/mexican_match_interrogative-partial-wh_Por-que-ama-la-navidad.wav,./stim/wavs/peruvian_match_interrogative-partial-wh_Por-que-ama-la-navidad.wav,./stim/wavs/puertorican_match_interrogative-partial-wh_Por-que-ama-la-navidad.wav,,,,,,,,,,,,,,,,,,,,,,,,,,,,,,,,,,,,,,,,,,,,,,,,,,,,,,,,
,,,,,,,5c1dc77ee2d9150001b5b70e,605b45a4d25f287719a41696,605ba8a810d3343fd9d718c5,I am not familiar with Spanish,Northeast,NA,no,2021-03-24_17h08.32.534,empathy_intonation_perc,2020.2.10,Win32,60,,,,,,,,,,0,argentine,0,1,1.727985,0,47,47,36,1,37,./stim/wavs/andalusian_mismatch_declarative-broad-focus_La-nina-lava-el-plato.wav,./stim/wavs/argentine_mismatch_declarative-broad-focus_La-nina-lava-el-plato.wav,./stim/wavs/castilian_mismatch_declarative-broad-focus_La-nina-lava-el-plato.wav,./stim/wavs/chilean_mismatch_declarative-broad-focus_La-nina-lava-el-plato.wav,./stim/wavs/cuban_mismatch_declarative-broad-focus_La-nina-lava-el-plato.wav,./stim/wavs/mexican_mismatch_declarative-broad-focus_La-nina-lava-el-plato.wav,./stim/wavs/peruvian_mismatch_declarative-broad-focus_La-nina-lava-el-plato.wav,./stim/wavs/puertorican_mismatch_declarative-broad-focus_La-nina-lava-el-plato.wav,,,,,,,,,,,,,,,,,,,,,,,,,,,,,,,,,,,,,,,,,,,,,,,,,,,,,,,,
,,,,,,,5c1dc77ee2d9150001b5b70e,605b45a4d25f287719a41696,605ba8a810d3343fd9d718c5,I am not familiar with Spanish,Northeast,NA,no,2021-03-24_17h08.32.534,empathy_intonation_perc,2020.2.10,Win32,60,,,,,,,,,,0,puertorican,0,1,1.49242,0,48,48,33,1,34,./stim/wavs/andalusian_mismatch_declarative-broad-focus_El-hombre-mira-la-luna.wav,./stim/wavs/argentine_mismatch_declarative-broad-focus_El-hombre-mira-la-luna.wav,./stim/wavs/castilian_mismatch_declarative-broad-focus_El-hombre-mira-la-luna.wav,./stim/wavs/chilean_mismatch_declarative-broad-focus_El-hombre-mira-la-luna.wav,./stim/wavs/cuban_mismatch_declarative-broad-focus_El-hombre-mira-la-luna.wav,./stim/wavs/mexican_mismatch_declarative-broad-focus_El-hombre-mira-la-luna.wav,./stim/wavs/peruvian_mismatch_declarative-broad-focus_El-hombre-mira-la-luna.wav,./stim/wavs/puertorican_mismatch_declarative-broad-focus_El-hombre-mira-la-luna.wav,,,,,,,,,,,,,,,,,,,,,,,,,,,,,,,,,,,,,,,,,,,,,,,,,,,,,,,,
,,,,,,,5c1dc77ee2d9150001b5b70e,605b45a4d25f287719a41696,605ba8a810d3343fd9d718c5,I am not familiar with Spanish,Northeast,NA,no,2021-03-24_17h08.32.534,empathy_intonation_perc,2020.2.10,Win32,60,,,,,,,,,,0,castilian,0,1,1.752935,0,49,49,1,1,2,./stim/wavs/andalusian_match_declarative-broad-focus_Daniel-iba-a-Bolivia.wav,./stim/wavs/argentine_match_declarative-broad-focus_Daniel-iba-a-Bolivia.wav,./stim/wavs/castilian_match_declarative-broad-focus_Daniel-iba-a-Bolivia.wav,./stim/wavs/chilean_match_declarative-broad-focus_Daniel-iba-a-Bolivia.wav,./stim/wavs/cuban_match_declarative-broad-focus_Daniel-iba-a-Bolivia.wav,./stim/wavs/mexican_match_declarative-broad-focus_Daniel-iba-a-Bolivia.wav,./stim/wavs/peruvian_match_declarative-broad-focus_Daniel-iba-a-Bolivia.wav,./stim/wavs/puertorican_match_declarative-broad-focus_Daniel-iba-a-Bolivia.wav,,,,,,,,,,,,,,,,,,,,,,,,,,,,,,,,,,,,,,,,,,,,,,,,,,,,,,,,
,,,,,,,5c1dc77ee2d9150001b5b70e,605b45a4d25f287719a41696,605ba8a810d3343fd9d718c5,I am not familiar with Spanish,Northeast,NA,no,2021-03-24_17h08.32.534,empathy_intonation_perc,2020.2.10,Win32,60,,,,,,,,,,1,puertorican,0,0,1.951595,0,50,50,61,1,62,./stim/wavs/andalusian_mismatch_interrogative-total-yn_Mi-madre-come-la-fruta.wav,./stim/wavs/argentine_mismatch_interrogative-total-yn_Mi-madre-come-la-fruta.wav,./stim/wavs/castilian_mismatch_interrogative-total-yn_Mi-madre-come-la-fruta.wav,./stim/wavs/chilean_mismatch_interrogative-total-yn_Mi-madre-come-la-fruta.wav,./stim/wavs/cuban_mismatch_interrogative-total-yn_Mi-madre-come-la-fruta.wav,./stim/wavs/mexican_mismatch_interrogative-total-yn_Mi-madre-come-la-fruta.wav,./stim/wavs/peruvian_mismatch_interrogative-total-yn_Mi-madre-come-la-fruta.wav,./stim/wavs/puertorican_mismatch_interrogative-total-yn_Mi-madre-come-la-fruta.wav,,,,,,,,,,,,,,,,,,,,,,,,,,,,,,,,,,,,,,,,,,,,,,,,,,,,,,,,
,,,,,,,5c1dc77ee2d9150001b5b70e,605b45a4d25f287719a41696,605ba8a810d3343fd9d718c5,I am not familiar with Spanish,Northeast,NA,no,2021-03-24_17h08.32.534,empathy_intonation_perc,2020.2.10,Win32,60,,,,,,,,,,0,mexican,0,1,2.263665,0,51,51,3,1,4,./stim/wavs/andalusian_match_declarative-broad-focus_Emilio-ama-la-marcha.wav,./stim/wavs/argentine_match_declarative-broad-focus_Emilio-ama-la-marcha.wav,./stim/wavs/castilian_match_declarative-broad-focus_Emilio-ama-la-marcha.wav,./stim/wavs/chilean_match_declarative-broad-focus_Emilio-ama-la-marcha.wav,./stim/wavs/cuban_match_declarative-broad-focus_Emilio-ama-la-marcha.wav,./stim/wavs/mexican_match_declarative-broad-focus_Emilio-ama-la-marcha.wav,./stim/wavs/peruvian_match_declarative-broad-focus_Emilio-ama-la-marcha.wav,./stim/wavs/puertorican_match_declarative-broad-focus_Emilio-ama-la-marcha.wav,,,,,,,,,,,,,,,,,,,,,,,,,,,,,,,,,,,,,,,,,,,,,,,,,,,,,,,,
,,,,,,,5c1dc77ee2d9150001b5b70e,605b45a4d25f287719a41696,605ba8a810d3343fd9d718c5,I am not familiar with Spanish,Northeast,NA,no,2021-03-24_17h08.32.534,empathy_intonation_perc,2020.2.10,Win32,60,,,,,,,,,,1,argentine,0,0,2.446635,0,52,52,30,1,31,./stim/wavs/andalusian_match_interrogative-total-yn_Mariano-habla-del-tiempo.wav,./stim/wavs/argentine_match_interrogative-total-yn_Mariano-habla-del-tiempo.wav,./stim/wavs/castilian_match_interrogative-total-yn_Mariano-habla-del-tiempo.wav,./stim/wavs/chilean_match_interrogative-total-yn_Mariano-habla-del-tiempo.wav,./stim/wavs/cuban_match_interrogative-total-yn_Mariano-habla-del-tiempo.wav,./stim/wavs/mexican_match_interrogative-total-yn_Mariano-habla-del-tiempo.wav,./stim/wavs/peruvian_match_interrogative-total-yn_Mariano-habla-del-tiempo.wav,./stim/wavs/puertorican_match_interrogative-total-yn_Mariano-habla-del-tiempo.wav,,,,,,,,,,,,,,,,,,,,,,,,,,,,,,,,,,,,,,,,,,,,,,,,,,,,,,,,
,,,,,,,5c1dc77ee2d9150001b5b70e,605b45a4d25f287719a41696,605ba8a810d3343fd9d718c5,I am not familiar with Spanish,Northeast,NA,no,2021-03-24_17h08.32.534,empathy_intonation_perc,2020.2.10,Win32,60,,,,,,,,,,0,peruvian,0,1,1.90744,0,53,53,6,1,7,./stim/wavs/andalusian_match_declarative-broad-focus_Mariano-habla-del-tiempo.wav,./stim/wavs/argentine_match_declarative-broad-focus_Mariano-habla-del-tiempo.wav,./stim/wavs/castilian_match_declarative-broad-focus_Mariano-habla-del-tiempo.wav,./stim/wavs/chilean_match_declarative-broad-focus_Mariano-habla-del-tiempo.wav,./stim/wavs/cuban_match_declarative-broad-focus_Mariano-habla-del-tiempo.wav,./stim/wavs/mexican_match_declarative-broad-focus_Mariano-habla-del-tiempo.wav,./stim/wavs/peruvian_match_declarative-broad-focus_Mariano-habla-del-tiempo.wav,./stim/wavs/puertorican_match_declarative-broad-focus_Mariano-habla-del-tiempo.wav,,,,,,,,,,,,,,,,,,,,,,,,,,,,,,,,,,,,,,,,,,,,,,,,,,,,,,,,
,,,,,,,5c1dc77ee2d9150001b5b70e,605b45a4d25f287719a41696,605ba8a810d3343fd9d718c5,I am not familiar with Spanish,Northeast,NA,no,2021-03-24_17h08.32.534,empathy_intonation_perc,2020.2.10,Win32,60,,,,,,,,,,1,cuban,0,0,2.11241,0,54,54,63,1,64,./stim/wavs/andalusian_mismatch_interrogative-total-yn_Mi-tia-odia-la-lluvia.wav,./stim/wavs/argentine_mismatch_interrogative-total-yn_Mi-tia-odia-la-lluvia.wav,./stim/wavs/castilian_mismatch_interrogative-total-yn_Mi-tia-odia-la-lluvia.wav,./stim/wavs/chilean_mismatch_interrogative-total-yn_Mi-tia-odia-la-lluvia.wav,./stim/wavs/cuban_mismatch_interrogative-total-yn_Mi-tia-odia-la-lluvia.wav,./stim/wavs/mexican_mismatch_interrogative-total-yn_Mi-tia-odia-la-lluvia.wav,./stim/wavs/peruvian_mismatch_interrogative-total-yn_Mi-tia-odia-la-lluvia.wav,./stim/wavs/puertorican_mismatch_interrogative-total-yn_Mi-tia-odia-la-lluvia.wav,,,,,,,,,,,,,,,,,,,,,,,,,,,,,,,,,,,,,,,,,,,,,,,,,,,,,,,,
,,,,,,,5c1dc77ee2d9150001b5b70e,605b45a4d25f287719a41696,605ba8a810d3343fd9d718c5,I am not familiar with Spanish,Northeast,NA,no,2021-03-24_17h08.32.534,empathy_intonation_perc,2020.2.10,Win32,60,,,,,,,,,,0,puertorican,0,1,2.337505,0,55,55,40,1,41,./stim/wavs/andalusian_mismatch_declarative-narrow-focus_El-bebe-comia-muy-bien.wav,./stim/wavs/argentine_mismatch_declarative-narrow-focus_El-bebe-comia-muy-bien.wav,./stim/wavs/castilian_mismatch_declarative-narrow-focus_El-bebe-comia-muy-bien.wav,./stim/wavs/chilean_mismatch_declarative-narrow-focus_El-bebe-comia-muy-bien.wav,./stim/wavs/cuban_mismatch_declarative-narrow-focus_El-bebe-comia-muy-bien.wav,./stim/wavs/mexican_mismatch_declarative-narrow-focus_El-bebe-comia-muy-bien.wav,./stim/wavs/peruvian_mismatch_declarative-narrow-focus_El-bebe-comia-muy-bien.wav,./stim/wavs/puertorican_mismatch_declarative-narrow-focus_El-bebe-comia-muy-bien.wav,,,,,,,,,,,,,,,,,,,,,,,,,,,,,,,,,,,,,,,,,,,,,,,,,,,,,,,,
,,,,,,,5c1dc77ee2d9150001b5b70e,605b45a4d25f287719a41696,605ba8a810d3343fd9d718c5,I am not familiar with Spanish,Northeast,NA,no,2021-03-24_17h08.32.534,empathy_intonation_perc,2020.2.10,Win32,60,,,,,,,,,,0,castilian,0,1,2.803515,0,56,56,2,1,3,./stim/wavs/andalusian_match_declarative-broad-focus_David-leia-el-libro.wav,./stim/wavs/argentine_match_declarative-broad-focus_David-leia-el-libro.wav,./stim/wavs/castilian_match_declarative-broad-focus_David-leia-el-libro.wav,./stim/wavs/chilean_match_declarative-broad-focus_David-leia-el-libro.wav,./stim/wavs/cuban_match_declarative-broad-focus_David-leia-el-libro.wav,./stim/wavs/mexican_match_declarative-broad-focus_David-leia-el-libro.wav,./stim/wavs/peruvian_match_declarative-broad-focus_David-leia-el-libro.wav,./stim/wavs/puertorican_match_declarative-broad-focus_David-leia-el-libro.wav,,,,,,,,,,,,,,,,,,,,,,,,,,,,,,,,,,,,,,,,,,,,,,,,,,,,,,,,
,,,,,,,5c1dc77ee2d9150001b5b70e,605b45a4d25f287719a41696,605ba8a810d3343fd9d718c5,I am not familiar with Spanish,Northeast,NA,no,2021-03-24_17h08.32.534,empathy_intonation_perc,2020.2.10,Win32,60,,,,,,,,,,1,castilian,1,1,1.887705,0,57,57,57,1,58,./stim/wavs/andalusian_mismatch_interrogative-total-yn_El-hombre-mira-la-luna.wav,./stim/wavs/argentine_mismatch_interrogative-total-yn_El-hombre-mira-la-luna.wav,./stim/wavs/castilian_mismatch_interrogative-total-yn_El-hombre-mira-la-luna.wav,./stim/wavs/chilean_mismatch_interrogative-total-yn_El-hombre-mira-la-luna.wav,./stim/wavs/cuban_mismatch_interrogative-total-yn_El-hombre-mira-la-luna.wav,./stim/wavs/mexican_mismatch_interrogative-total-yn_El-hombre-mira-la-luna.wav,./stim/wavs/peruvian_mismatch_interrogative-total-yn_El-hombre-mira-la-luna.wav,./stim/wavs/puertorican_mismatch_interrogative-total-yn_El-hombre-mira-la-luna.wav,,,,,,,,,,,,,,,,,,,,,,,,,,,,,,,,,,,,,,,,,,,,,,,,,,,,,,,,
,,,,,,,5c1dc77ee2d9150001b5b70e,605b45a4d25f287719a41696,605ba8a810d3343fd9d718c5,I am not familiar with Spanish,Northeast,NA,no,2021-03-24_17h08.32.534,empathy_intonation_perc,2020.2.10,Win32,60,,,,,,,,,,0,argentine,0,1,1.86346,0,58,58,41,1,42,./stim/wavs/andalusian_mismatch_declarative-narrow-focus_El-hombre-mira-la-luna.wav,./stim/wavs/argentine_mismatch_declarative-narrow-focus_El-hombre-mira-la-luna.wav,./stim/wavs/castilian_mismatch_declarative-narrow-focus_El-hombre-mira-la-luna.wav,./stim/wavs/chilean_mismatch_declarative-narrow-focus_El-hombre-mira-la-luna.wav,./stim/wavs/cuban_mismatch_declarative-narrow-focus_El-hombre-mira-la-luna.wav,./stim/wavs/mexican_mismatch_declarative-narrow-focus_El-hombre-mira-la-luna.wav,./stim/wavs/peruvian_mismatch_declarative-narrow-focus_El-hombre-mira-la-luna.wav,./stim/wavs/puertorican_mismatch_declarative-narrow-focus_El-hombre-mira-la-luna.wav,,,,,,,,,,,,,,,,,,,,,,,,,,,,,,,,,,,,,,,,,,,,,,,,,,,,,,,,
,,,,,,,5c1dc77ee2d9150001b5b70e,605b45a4d25f287719a41696,605ba8a810d3343fd9d718c5,I am not familiar with Spanish,Northeast,NA,no,2021-03-24_17h08.32.534,empathy_intonation_perc,2020.2.10,Win32,60,,,,,,,,,,0,peruvian,0,1,1.770145,0,59,59,5,1,6,./stim/wavs/andalusian_match_declarative-broad-focus_Maria-bebe-el-vino.wav,./stim/wavs/argentine_match_declarative-broad-focus_Maria-bebe-el-vino.wav,./stim/wavs/castilian_match_declarative-broad-focus_Maria-bebe-el-vino.wav,./stim/wavs/chilean_match_declarative-broad-focus_Maria-bebe-el-vino.wav,./stim/wavs/cuban_match_declarative-broad-focus_Maria-bebe-el-vino.wav,./stim/wavs/mexican_match_declarative-broad-focus_Maria-bebe-el-vino.wav,./stim/wavs/peruvian_match_declarative-broad-focus_Maria-bebe-el-vino.wav,./stim/wavs/puertorican_match_declarative-broad-focus_Maria-bebe-el-vino.wav,,,,,,,,,,,,,,,,,,,,,,,,,,,,,,,,,,,,,,,,,,,,,,,,,,,,,,,,
,,,,,,,5c1dc77ee2d9150001b5b70e,605b45a4d25f287719a41696,605ba8a810d3343fd9d718c5,I am not familiar with Spanish,Northeast,NA,no,2021-03-24_17h08.32.534,empathy_intonation_perc,2020.2.10,Win32,60,,,,,,,,,,0,argentine,0,1,1.569395,0,60,60,7,1,8,./stim/wavs/andalusian_match_declarative-broad-focus_Marta-abre-el-regalo.wav,./stim/wavs/argentine_match_declarative-broad-focus_Marta-abre-el-regalo.wav,./stim/wavs/castilian_match_declarative-broad-focus_Marta-abre-el-regalo.wav,./stim/wavs/chilean_match_declarative-broad-focus_Marta-abre-el-regalo.wav,./stim/wavs/cuban_match_declarative-broad-focus_Marta-abre-el-regalo.wav,./stim/wavs/mexican_match_declarative-broad-focus_Marta-abre-el-regalo.wav,./stim/wavs/peruvian_match_declarative-broad-focus_Marta-abre-el-regalo.wav,./stim/wavs/puertorican_match_declarative-broad-focus_Marta-abre-el-regalo.wav,,,,,,,,,,,,,,,,,,,,,,,,,,,,,,,,,,,,,,,,,,,,,,,,,,,,,,,,
,,,,,,,5c1dc77ee2d9150001b5b70e,605b45a4d25f287719a41696,605ba8a810d3343fd9d718c5,I am not familiar with Spanish,Northeast,NA,no,2021-03-24_17h08.32.534,empathy_intonation_perc,2020.2.10,Win32,60,,,,,,,,,,1,andalusian,1,1,2.02002,0,61,61,56,1,57,./stim/wavs/andalusian_mismatch_interrogative-total-yn_El-bebe-comia-muy-bien.wav,./stim/wavs/argentine_mismatch_interrogative-total-yn_El-bebe-comia-muy-bien.wav,./stim/wavs/castilian_mismatch_interrogative-total-yn_El-bebe-comia-muy-bien.wav,./stim/wavs/chilean_mismatch_interrogative-total-yn_El-bebe-comia-muy-bien.wav,./stim/wavs/cuban_mismatch_interrogative-total-yn_El-bebe-comia-muy-bien.wav,./stim/wavs/mexican_mismatch_interrogative-total-yn_El-bebe-comia-muy-bien.wav,./stim/wavs/peruvian_mismatch_interrogative-total-yn_El-bebe-comia-muy-bien.wav,./stim/wavs/puertorican_mismatch_interrogative-total-yn_El-bebe-comia-muy-bien.wav,,,,,,,,,,,,,,,,,,,,,,,,,,,,,,,,,,,,,,,,,,,,,,,,,,,,,,,,
,,,,,,,5c1dc77ee2d9150001b5b70e,605b45a4d25f287719a41696,605ba8a810d3343fd9d718c5,I am not familiar with Spanish,Northeast,NA,no,2021-03-24_17h08.32.534,empathy_intonation_perc,2020.2.10,Win32,60,,,,,,,,,,0,argentine,0,1,2.36926,0,62,62,35,1,36,./stim/wavs/andalusian_mismatch_declarative-broad-focus_La-maestra-vive-en-Paris.wav,./stim/wavs/argentine_mismatch_declarative-broad-focus_La-maestra-vive-en-Paris.wav,./stim/wavs/castilian_mismatch_declarative-broad-focus_La-maestra-vive-en-Paris.wav,./stim/wavs/chilean_mismatch_declarative-broad-focus_La-maestra-vive-en-Paris.wav,./stim/wavs/cuban_mismatch_declarative-broad-focus_La-maestra-vive-en-Paris.wav,./stim/wavs/mexican_mismatch_declarative-broad-focus_La-maestra-vive-en-Paris.wav,./stim/wavs/peruvian_mismatch_declarative-broad-focus_La-maestra-vive-en-Paris.wav,./stim/wavs/puertorican_mismatch_declarative-broad-focus_La-maestra-vive-en-Paris.wav,,,,,,,,,,,,,,,,,,,,,,,,,,,,,,,,,,,,,,,,,,,,,,,,,,,,,,,,
,,,,,,,5c1dc77ee2d9150001b5b70e,605b45a4d25f287719a41696,605ba8a810d3343fd9d718c5,I am not familiar with Spanish,Northeast,NA,no,2021-03-24_17h08.32.534,empathy_intonation_perc,2020.2.10,Win32,60,,,,,,,,,,0,mexican,0,1,1.914665,0,63,63,34,1,35,./stim/wavs/andalusian_mismatch_declarative-broad-focus_El-nino-oye-el-rio.wav,./stim/wavs/argentine_mismatch_declarative-broad-focus_El-nino-oye-el-rio.wav,./stim/wavs/castilian_mismatch_declarative-broad-focus_El-nino-oye-el-rio.wav,./stim/wavs/chilean_mismatch_declarative-broad-focus_El-nino-oye-el-rio.wav,./stim/wavs/cuban_mismatch_declarative-broad-focus_El-nino-oye-el-rio.wav,./stim/wavs/mexican_mismatch_declarative-broad-focus_El-nino-oye-el-rio.wav,./stim/wavs/peruvian_mismatch_declarative-broad-focus_El-nino-oye-el-rio.wav,./stim/wavs/puertorican_mismatch_declarative-broad-focus_El-nino-oye-el-rio.wav,,,,,,,,,,,,,,,,,,,,,,,,,,,,,,,,,,,,,,,,,,,,,,,,,,,,,,,,
,,,,,,,5c1dc77ee2d9150001b5b70e,605b45a4d25f287719a41696,605ba8a810d3343fd9d718c5,I am not familiar with Spanish,Northeast,NA,no,2021-03-24_17h08.32.534,empathy_intonation_perc,2020.2.10,Win32,60,,,,,,,,,,,,,,,,,,,,,,,,,,,,,h,1,7.756805,0,0,0,0,1,,,,,,,,,,,,,,,,,,,,,,,,,,,,,,,,,,,,,,,,,,,,,,,,
,,,,,"Great! Now we will move on. The next task consists of about 60 trials, in each of which you will see a string of letters. 
  
  Your task is to decide whether this is a real Spanish word or not.",(press the spacebar to continue),5c1dc77ee2d9150001b5b70e,605b45a4d25f287719a41696,605ba8a810d3343fd9d718c5,I am not familiar with Spanish,Northeast,NA,no,2021-03-24_17h08.32.534,empathy_intonation_perc,2020.2.10,Win32,60,,,,,,,,,,,,,,,,,,,,,,,,,,,,,,,,,,,,,0,0,0,0,1,,,,,,,,,,,,,,,,,,,,,,,,,,,,,,,,,,,,,,,,,,,
,,,,,"If you think it is an existing Spanish word, you type '1' (for 'REAL'), and if you think it is not an existing Spanish word, you type '0' (for 'FAKE').",(press the spacebar to continue),5c1dc77ee2d9150001b5b70e,605b45a4d25f287719a41696,605ba8a810d3343fd9d718c5,I am not familiar with Spanish,Northeast,NA,no,2021-03-24_17h08.32.534,empathy_intonation_perc,2020.2.10,Win32,60,,,,,,,,,,,,,,,,,,,,,,,,,,,,,,,,,,,,,0,1,1,1,1,,,,,,,,,,,,,,,,,,,,,,,,,,,,,,,,,,,,,,,,,,,
,,,,,"If you are sure that the word exists, even though you dont know its exact meaning, you may still respond '1' (REAL). 
  
  But if you are not sure if it is an existing word, you should respond '0' (FAKE).
  
  Let's do a practice round...",(press the spacebar to continue),5c1dc77ee2d9150001b5b70e,605b45a4d25f287719a41696,605ba8a810d3343fd9d718c5,I am not familiar with Spanish,Northeast,NA,no,2021-03-24_17h08.32.534,empathy_intonation_perc,2020.2.10,Win32,60,,,,,,,,,,,,,,,,,,,,,,,,,,,,,,,,,,,,,0,2,2,2,1,,,,,,,,,,,,,,,,,,,,,,,,,,,,,,,,,,,,,,,,,,,
,,,,,,,5c1dc77ee2d9150001b5b70e,605b45a4d25f287719a41696,605ba8a810d3343fd9d718c5,I am not familiar with Spanish,Northeast,NA,no,2021-03-24_17h08.32.534,empathy_intonation_perc,2020.2.10,Win32,60,,,,,,,,,,0,,,,,,,,,,,,,,,,,,,,,,,,,,,,,,,,0,1,3.0699,0,0,0,0,1,0,depiste,REAL,FAKE,,,,,,,,,,,,,,,,,,,,,,,,,,,,,,,
,,,,,,,5c1dc77ee2d9150001b5b70e,605b45a4d25f287719a41696,605ba8a810d3343fd9d718c5,I am not familiar with Spanish,Northeast,NA,no,2021-03-24_17h08.32.534,empathy_intonation_perc,2020.2.10,Win32,60,,,,,,,,,,1,,,,,,,,,,,,,,,,,,,,,,,,,,,,,,,,1,1,1.024955,0,1,1,1,1,0,s,REAL,FAKE,,,,,,,,,,,,,,,,,,,,,,,,,,,,,,,
,,,,,,,5c1dc77ee2d9150001b5b70e,605b45a4d25f287719a41696,605ba8a810d3343fd9d718c5,I am not familiar with Spanish,Northeast,NA,no,2021-03-24_17h08.32.534,empathy_intonation_perc,2020.2.10,Win32,60,,,,,,,,,,0,,,,,,,,,,,,,,,,,,,,,,,,,,,,,,,,0,1,1.756865,0,2,2,2,1,0,con,REAL,FAKE,,,,,,,,,,,,,,,,,,,,,,,,,,,,,,,
,,,,,,,5c1dc77ee2d9150001b5b70e,605b45a4d25f287719a41696,605ba8a810d3343fd9d718c5,I am not familiar with Spanish,Northeast,NA,no,2021-03-24_17h08.32.534,empathy_intonation_perc,2020.2.10,Win32,60,,,,,,,,,,0,,,,,,,,,,,,,,,,,,,,,,,,,,,,,,,,0,1,1.402995,0,3,3,3,1,0,calpar,REAL,FAKE,,,,,,,,,,,,,,,,,,,,,,,,,,,,,,,
,,,,,,,5c1dc77ee2d9150001b5b70e,605b45a4d25f287719a41696,605ba8a810d3343fd9d718c5,I am not familiar with Spanish,Northeast,NA,no,2021-03-24_17h08.32.534,empathy_intonation_perc,2020.2.10,Win32,60,,,,,,,,,,0,,,,,,,,,,,,,,,,,,,,,,,,,,,,,,,,0,1,1.808175,0,4,4,4,1,0,joten,REAL,FAKE,,,,,,,,,,,,,,,,,,,,,,,,,,,,,,,
,,,,,,,5c1dc77ee2d9150001b5b70e,605b45a4d25f287719a41696,605ba8a810d3343fd9d718c5,I am not familiar with Spanish,Northeast,NA,no,2021-03-24_17h08.32.534,empathy_intonation_perc,2020.2.10,Win32,60,,,,,,,,,,1,,,,,,,,,,,,,,,,,,,,,,,,,,,,,,,,1,1,1.449725,0,5,5,5,1,0,sacapuntas,REAL,FAKE,,,,,,,,,,,,,,,,,,,,,,,,,,,,,,,
,,,,,,,5c1dc77ee2d9150001b5b70e,605b45a4d25f287719a41696,605ba8a810d3343fd9d718c5,I am not familiar with Spanish,Northeast,NA,no,2021-03-24_17h08.32.534,empathy_intonation_perc,2020.2.10,Win32,60,,,,,,,,,,0,,,,,,,,,,,,,,,,,,,,,,,,,,,,,,,,1,0,1.823525,0,6,6,6,1,0,priba,REAL,FAKE,,,,,,,,,,,,,,,,,,,,,,,,,,,,,,,
,,,,,,,5c1dc77ee2d9150001b5b70e,605b45a4d25f287719a41696,605ba8a810d3343fd9d718c5,I am not familiar with Spanish,Northeast,NA,no,2021-03-24_17h08.32.534,empathy_intonation_perc,2020.2.10,Win32,60,,,,,,,,,,0,,,,,,,,,,,,,,,,,,,,,,,,,,,,,,,,0,1,1.72001,0,7,7,7,1,0,pelasula,REAL,FAKE,,,,,,,,,,,,,,,,,,,,,,,,,,,,,,,
,,,,,,,5c1dc77ee2d9150001b5b70e,605b45a4d25f287719a41696,605ba8a810d3343fd9d718c5,I am not familiar with Spanish,Northeast,NA,no,2021-03-24_17h08.32.534,empathy_intonation_perc,2020.2.10,Win32,60,,,,,,,,,,1,,,,,,,,,,,,,,,,,,,,,,,,,,,,,,,,1,1,0.68904,0,8,8,8,1,0,bien,REAL,FAKE,,,,,,,,,,,,,,,,,,,,,,,,,,,,,,,
,,,,,,,5c1dc77ee2d9150001b5b70e,605b45a4d25f287719a41696,605ba8a810d3343fd9d718c5,I am not familiar with Spanish,Northeast,NA,no,2021-03-24_17h08.32.534,empathy_intonation_perc,2020.2.10,Win32,60,,,,,,,,,,1,,,,,,,,,,,,,,,,,,,,,,,,,,,,,,,,1,1,0.658305,0,9,9,9,1,0,casa,REAL,FAKE,,,,,,,,,,,,,,,,,,,,,,,,,,,,,,,
,,,,,,,5c1dc77ee2d9150001b5b70e,605b45a4d25f287719a41696,605ba8a810d3343fd9d718c5,I am not familiar with Spanish,Northeast,NA,no,2021-03-24_17h08.32.534,empathy_intonation_perc,2020.2.10,Win32,60,,,,,,,,,,0,,,,,,,,,,,,,,,,,,,,,,,,,,,,,,,,1,0,1.31913,0,10,10,10,1,0,lejo,REAL,FAKE,,,,,,,,,,,,,,,,,,,,,,,,,,,,,,,
,,,,,,,5c1dc77ee2d9150001b5b70e,605b45a4d25f287719a41696,605ba8a810d3343fd9d718c5,I am not familiar with Spanish,Northeast,NA,no,2021-03-24_17h08.32.534,empathy_intonation_perc,2020.2.10,Win32,60,,,,,,,,,,0,,,,,,,,,,,,,,,,,,,,,,,,,,,,,,,,0,1,0.976035,0,11,11,11,1,0,pretantas,REAL,FAKE,,,,,,,,,,,,,,,,,,,,,,,,,,,,,,,
,,,,,,,5c1dc77ee2d9150001b5b70e,605b45a4d25f287719a41696,605ba8a810d3343fd9d718c5,I am not familiar with Spanish,Northeast,NA,no,2021-03-24_17h08.32.534,empathy_intonation_perc,2020.2.10,Win32,60,,,,,,,,,,1,,,,,,,,,,,,,,,,,,,,,,,,,,,,,,,,,,,,,,,,64,orgulloso,,,0,0,1.22361,0,0,0,63,1,REAL,FAKE,,,,,,,,,,,,,,,,,,,,,
,,,,,,,5c1dc77ee2d9150001b5b70e,605b45a4d25f287719a41696,605ba8a810d3343fd9d718c5,I am not familiar with Spanish,Northeast,NA,no,2021-03-24_17h08.32.534,empathy_intonation_perc,2020.2.10,Win32,60,,,,,,,,,,0,,,,,,,,,,,,,,,,,,,,,,,,,,,,,,,,,,,,,,,,63,esposante,,,1,0,1.532105,0,1,1,62,1,REAL,FAKE,,,,,,,,,,,,,,,,,,,,,
,,,,,,,5c1dc77ee2d9150001b5b70e,605b45a4d25f287719a41696,605ba8a810d3343fd9d718c5,I am not familiar with Spanish,Northeast,NA,no,2021-03-24_17h08.32.534,empathy_intonation_perc,2020.2.10,Win32,60,,,,,,,,,,1,,,,,,,,,,,,,,,,,,,,,,,,,,,,,,,,,,,,,,,,12,asesinato,,,0,0,1.267515,0,2,2,11,1,REAL,FAKE,,,,,,,,,,,,,,,,,,,,,
,,,,,,,5c1dc77ee2d9150001b5b70e,605b45a4d25f287719a41696,605ba8a810d3343fd9d718c5,I am not familiar with Spanish,Northeast,NA,no,2021-03-24_17h08.32.534,empathy_intonation_perc,2020.2.10,Win32,60,,,,,,,,,,0,,,,,,,,,,,,,,,,,,,,,,,,,,,,,,,,,,,,,,,,16,abracer,,,0,1,0.91019,0,3,3,15,1,REAL,FAKE,,,,,,,,,,,,,,,,,,,,,
,,,,,,,5c1dc77ee2d9150001b5b70e,605b45a4d25f287719a41696,605ba8a810d3343fd9d718c5,I am not familiar with Spanish,Northeast,NA,no,2021-03-24_17h08.32.534,empathy_intonation_perc,2020.2.10,Win32,60,,,,,,,,,,1,,,,,,,,,,,,,,,,,,,,,,,,,,,,,,,,,,,,,,,,83,guante,,,1,1,0.853785,0,4,4,82,1,REAL,FAKE,,,,,,,,,,,,,,,,,,,,,
,,,,,,,5c1dc77ee2d9150001b5b70e,605b45a4d25f287719a41696,605ba8a810d3343fd9d718c5,I am not familiar with Spanish,Northeast,NA,no,2021-03-24_17h08.32.534,empathy_intonation_perc,2020.2.10,Win32,60,,,,,,,,,,1,,,,,,,,,,,,,,,,,,,,,,,,,,,,,,,,,,,,,,,,2,pellizcar,,,0,0,1.07325,0,5,5,1,1,REAL,FAKE,,,,,,,,,,,,,,,,,,,,,
,,,,,,,5c1dc77ee2d9150001b5b70e,605b45a4d25f287719a41696,605ba8a810d3343fd9d718c5,I am not familiar with Spanish,Northeast,NA,no,2021-03-24_17h08.32.534,empathy_intonation_perc,2020.2.10,Win32,60,,,,,,,,,,1,,,,,,,,,,,,,,,,,,,,,,,,,,,,,,,,,,,,,,,,11,cenefa,,,0,0,0.99385,0,6,6,10,1,REAL,FAKE,,,,,,,,,,,,,,,,,,,,,
,,,,,,,5c1dc77ee2d9150001b5b70e,605b45a4d25f287719a41696,605ba8a810d3343fd9d718c5,I am not familiar with Spanish,Northeast,NA,no,2021-03-24_17h08.32.534,empathy_intonation_perc,2020.2.10,Win32,60,,,,,,,,,,1,,,,,,,,,,,,,,,,,,,,,,,,,,,,,,,,,,,,,,,,6,tergiversar,,,0,0,1.105245,0,7,7,5,1,REAL,FAKE,,,,,,,,,,,,,,,,,,,,,
,,,,,,,5c1dc77ee2d9150001b5b70e,605b45a4d25f287719a41696,605ba8a810d3343fd9d718c5,I am not familiar with Spanish,Northeast,NA,no,2021-03-24_17h08.32.534,empathy_intonation_perc,2020.2.10,Win32,60,,,,,,,,,,1,,,,,,,,,,,,,,,,,,,,,,,,,,,,,,,,,,,,,,,,43,canela,,,1,1,0.669755,0,8,8,42,1,REAL,FAKE,,,,,,,,,,,,,,,,,,,,,
,,,,,,,5c1dc77ee2d9150001b5b70e,605b45a4d25f287719a41696,605ba8a810d3343fd9d718c5,I am not familiar with Spanish,Northeast,NA,no,2021-03-24_17h08.32.534,empathy_intonation_perc,2020.2.10,Win32,60,,,,,,,,,,1,,,,,,,,,,,,,,,,,,,,,,,,,,,,,,,,,,,,,,,,40,alfombra,,,0,0,1.434055,0,9,9,39,1,REAL,FAKE,,,,,,,,,,,,,,,,,,,,,
,,,,,,,5c1dc77ee2d9150001b5b70e,605b45a4d25f287719a41696,605ba8a810d3343fd9d718c5,I am not familiar with Spanish,Northeast,NA,no,2021-03-24_17h08.32.534,empathy_intonation_perc,2020.2.10,Win32,60,,,,,,,,,,1,,,,,,,,,,,,,,,,,,,,,,,,,,,,,,,,,,,,,,,,39,torpe,,,1,1,0.68099,0,10,10,38,1,REAL,FAKE,,,,,,,,,,,,,,,,,,,,,
,,,,,,,5c1dc77ee2d9150001b5b70e,605b45a4d25f287719a41696,605ba8a810d3343fd9d718c5,I am not familiar with Spanish,Northeast,NA,no,2021-03-24_17h08.32.534,empathy_intonation_perc,2020.2.10,Win32,60,,,,,,,,,,1,,,,,,,,,,,,,,,,,,,,,,,,,,,,,,,,,,,,,,,,59,besar,,,0,0,0.93646,0,11,11,58,1,REAL,FAKE,,,,,,,,,,,,,,,,,,,,,
,,,,,,,5c1dc77ee2d9150001b5b70e,605b45a4d25f287719a41696,605ba8a810d3343fd9d718c5,I am not familiar with Spanish,Northeast,NA,no,2021-03-24_17h08.32.534,empathy_intonation_perc,2020.2.10,Win32,60,,,,,,,,,,1,,,,,,,,,,,,,,,,,,,,,,,,,,,,,,,,,,,,,,,,3,pulmones,,,1,1,1.394265,0,12,12,2,1,REAL,FAKE,,,,,,,,,,,,,,,,,,,,,
,,,,,,,5c1dc77ee2d9150001b5b70e,605b45a4d25f287719a41696,605ba8a810d3343fd9d718c5,I am not familiar with Spanish,Northeast,NA,no,2021-03-24_17h08.32.534,empathy_intonation_perc,2020.2.10,Win32,60,,,,,,,,,,1,,,,,,,,,,,,,,,,,,,,,,,,,,,,,,,,,,,,,,,,51,candado,,,1,1,1.37718,0,13,13,50,1,REAL,FAKE,,,,,,,,,,,,,,,,,,,,,
,,,,,,,5c1dc77ee2d9150001b5b70e,605b45a4d25f287719a41696,605ba8a810d3343fd9d718c5,I am not familiar with Spanish,Northeast,NA,no,2021-03-24_17h08.32.534,empathy_intonation_perc,2020.2.10,Win32,60,,,,,,,,,,1,,,,,,,,,,,,,,,,,,,,,,,,,,,,,,,,,,,,,,,,31,pandilla,,,1,1,1.05392,0,14,14,30,1,REAL,FAKE,,,,,,,,,,,,,,,,,,,,,
,,,,,,,5c1dc77ee2d9150001b5b70e,605b45a4d25f287719a41696,605ba8a810d3343fd9d718c5,I am not familiar with Spanish,Northeast,NA,no,2021-03-24_17h08.32.534,empathy_intonation_perc,2020.2.10,Win32,60,,,,,,,,,,1,,,,,,,,,,,,,,,,,,,,,,,,,,,,,,,,,,,,,,,,77,tiburn,,,1,1,1.57932,0,15,15,76,1,REAL,FAKE,,,,,,,,,,,,,,,,,,,,,
,,,,,,,5c1dc77ee2d9150001b5b70e,605b45a4d25f287719a41696,605ba8a810d3343fd9d718c5,I am not familiar with Spanish,Northeast,NA,no,2021-03-24_17h08.32.534,empathy_intonation_perc,2020.2.10,Win32,60,,,,,,,,,,1,,,,,,,,,,,,,,,,,,,,,,,,,,,,,,,,,,,,,,,,55,nevar,,,0,0,1.08103,0,16,16,54,1,REAL,FAKE,,,,,,,,,,,,,,,,,,,,,
,,,,,,,5c1dc77ee2d9150001b5b70e,605b45a4d25f287719a41696,605ba8a810d3343fd9d718c5,I am not familiar with Spanish,Northeast,NA,no,2021-03-24_17h08.32.534,empathy_intonation_perc,2020.2.10,Win32,60,,,,,,,,,,0,,,,,,,,,,,,,,,,,,,,,,,,,,,,,,,,,,,,,,,,87,grodo,,,0,1,1.109515,0,17,17,86,1,REAL,FAKE,,,,,,,,,,,,,,,,,,,,,
,,,,,,,5c1dc77ee2d9150001b5b70e,605b45a4d25f287719a41696,605ba8a810d3343fd9d718c5,I am not familiar with Spanish,Northeast,NA,no,2021-03-24_17h08.32.534,empathy_intonation_perc,2020.2.10,Win32,60,,,,,,,,,,1,,,,,,,,,,,,,,,,,,,,,,,,,,,,,,,,,,,,,,,,69,engatusar,,,0,0,0.949345,0,18,18,68,1,REAL,FAKE,,,,,,,,,,,,,,,,,,,,,
,,,,,,,5c1dc77ee2d9150001b5b70e,605b45a4d25f287719a41696,605ba8a810d3343fd9d718c5,I am not familiar with Spanish,Northeast,NA,no,2021-03-24_17h08.32.534,empathy_intonation_perc,2020.2.10,Win32,60,,,,,,,,,,1,,,,,,,,,,,,,,,,,,,,,,,,,,,,,,,,,,,,,,,,68,alegre,,,1,1,0.67208,0,19,19,67,1,REAL,FAKE,,,,,,,,,,,,,,,,,,,,,
,,,,,,,5c1dc77ee2d9150001b5b70e,605b45a4d25f287719a41696,605ba8a810d3343fd9d718c5,I am not familiar with Spanish,Northeast,NA,no,2021-03-24_17h08.32.534,empathy_intonation_perc,2020.2.10,Win32,60,,,,,,,,,,1,,,,,,,,,,,,,,,,,,,,,,,,,,,,,,,,,,,,,,,,45,jilguero,,,1,1,0.99976,0,20,20,44,1,REAL,FAKE,,,,,,,,,,,,,,,,,,,,,
,,,,,,,5c1dc77ee2d9150001b5b70e,605b45a4d25f287719a41696,605ba8a810d3343fd9d718c5,I am not familiar with Spanish,Northeast,NA,no,2021-03-24_17h08.32.534,empathy_intonation_perc,2020.2.10,Win32,60,,,,,,,,,,1,,,,,,,,,,,,,,,,,,,,,,,,,,,,,,,,,,,,,,,,76,atar,,,0,0,0.662605,0,21,21,75,1,REAL,FAKE,,,,,,,,,,,,,,,,,,,,,
,,,,,,,5c1dc77ee2d9150001b5b70e,605b45a4d25f287719a41696,605ba8a810d3343fd9d718c5,I am not familiar with Spanish,Northeast,NA,no,2021-03-24_17h08.32.534,empathy_intonation_perc,2020.2.10,Win32,60,,,,,,,,,,0,,,,,,,,,,,,,,,,,,,,,,,,,,,,,,,,,,,,,,,,33,pauca,,,0,1,0.705495,0,22,22,32,1,REAL,FAKE,,,,,,,,,,,,,,,,,,,,,
,,,,,,,5c1dc77ee2d9150001b5b70e,605b45a4d25f287719a41696,605ba8a810d3343fd9d718c5,I am not familiar with Spanish,Northeast,NA,no,2021-03-24_17h08.32.534,empathy_intonation_perc,2020.2.10,Win32,60,,,,,,,,,,1,,,,,,,,,,,,,,,,,,,,,,,,,,,,,,,,,,,,,,,,54,fomentar,,,0,0,1.11862,0,23,23,53,1,REAL,FAKE,,,,,,,,,,,,,,,,,,,,,
,,,,,,,5c1dc77ee2d9150001b5b70e,605b45a4d25f287719a41696,605ba8a810d3343fd9d718c5,I am not familiar with Spanish,Northeast,NA,no,2021-03-24_17h08.32.534,empathy_intonation_perc,2020.2.10,Win32,60,,,,,,,,,,1,,,,,,,,,,,,,,,,,,,,,,,,,,,,,,,,,,,,,,,,38,estornudar,,,0,0,0.81674,0,24,24,37,1,REAL,FAKE,,,,,,,,,,,,,,,,,,,,,
,,,,,,,5c1dc77ee2d9150001b5b70e,605b45a4d25f287719a41696,605ba8a810d3343fd9d718c5,I am not familiar with Spanish,Northeast,NA,no,2021-03-24_17h08.32.534,empathy_intonation_perc,2020.2.10,Win32,60,,,,,,,,,,1,,,,,,,,,,,,,,,,,,,,,,,,,,,,,,,,,,,,,,,,28,merodear,,,0,0,0.89059,0,25,25,27,1,REAL,FAKE,,,,,,,,,,,,,,,,,,,,,
,,,,,,,5c1dc77ee2d9150001b5b70e,605b45a4d25f287719a41696,605ba8a810d3343fd9d718c5,I am not familiar with Spanish,Northeast,NA,no,2021-03-24_17h08.32.534,empathy_intonation_perc,2020.2.10,Win32,60,,,,,,,,,,0,,,,,,,,,,,,,,,,,,,,,,,,,,,,,,,,,,,,,,,,35,rompido,,,0,1,1.038785,0,26,26,34,1,REAL,FAKE,,,,,,,,,,,,,,,,,,,,,
,,,,,,,5c1dc77ee2d9150001b5b70e,605b45a4d25f287719a41696,605ba8a810d3343fd9d718c5,I am not familiar with Spanish,Northeast,NA,no,2021-03-24_17h08.32.534,empathy_intonation_perc,2020.2.10,Win32,60,,,,,,,,,,1,,,,,,,,,,,,,,,,,,,,,,,,,,,,,,,,,,,,,,,,61,seda,,,1,1,0.59942,0,27,27,60,1,REAL,FAKE,,,,,,,,,,,,,,,,,,,,,
,,,,,,,5c1dc77ee2d9150001b5b70e,605b45a4d25f287719a41696,605ba8a810d3343fd9d718c5,I am not familiar with Spanish,Northeast,NA,no,2021-03-24_17h08.32.534,empathy_intonation_perc,2020.2.10,Win32,60,,,,,,,,,,0,,,,,,,,,,,,,,,,,,,,,,,,,,,,,,,,,,,,,,,,74,cintro,,,0,1,1.077925,0,28,28,73,1,REAL,FAKE,,,,,,,,,,,,,,,,,,,,,
,,,,,,,5c1dc77ee2d9150001b5b70e,605b45a4d25f287719a41696,605ba8a810d3343fd9d718c5,I am not familiar with Spanish,Northeast,NA,no,2021-03-24_17h08.32.534,empathy_intonation_perc,2020.2.10,Win32,60,,,,,,,,,,1,,,,,,,,,,,,,,,,,,,,,,,,,,,,,,,,,,,,,,,,49,ganar,,,0,0,1.041765,0,29,29,48,1,REAL,FAKE,,,,,,,,,,,,,,,,,,,,,
,,,,,,,5c1dc77ee2d9150001b5b70e,605b45a4d25f287719a41696,605ba8a810d3343fd9d718c5,I am not familiar with Spanish,Northeast,NA,no,2021-03-24_17h08.32.534,empathy_intonation_perc,2020.2.10,Win32,60,,,,,,,,,,1,,,,,,,,,,,,,,,,,,,,,,,,,,,,,,,,,,,,,,,,15,regar,,,0,0,4.37126,0,30,30,14,1,REAL,FAKE,,,,,,,,,,,,,,,,,,,,,
,,,,,,,5c1dc77ee2d9150001b5b70e,605b45a4d25f287719a41696,605ba8a810d3343fd9d718c5,I am not familiar with Spanish,Northeast,NA,no,2021-03-24_17h08.32.534,empathy_intonation_perc,2020.2.10,Win32,60,,,,,,,,,,0,,,,,,,,,,,,,,,,,,,,,,,,,,,,,,,,,,,,,,,,70,temblo,,,1,0,1.38469,0,31,31,69,1,REAL,FAKE,,,,,,,,,,,,,,,,,,,,,
,,,,,,,5c1dc77ee2d9150001b5b70e,605b45a4d25f287719a41696,605ba8a810d3343fd9d718c5,I am not familiar with Spanish,Northeast,NA,no,2021-03-24_17h08.32.534,empathy_intonation_perc,2020.2.10,Win32,60,,,,,,,,,,1,,,,,,,,,,,,,,,,,,,,,,,,,,,,,,,,,,,,,,,,7,psimo,,,1,1,1.09086,0,32,32,6,1,REAL,FAKE,,,,,,,,,,,,,,,,,,,,,
,,,,,,,5c1dc77ee2d9150001b5b70e,605b45a4d25f287719a41696,605ba8a810d3343fd9d718c5,I am not familiar with Spanish,Northeast,NA,no,2021-03-24_17h08.32.534,empathy_intonation_perc,2020.2.10,Win32,60,,,,,,,,,,1,,,,,,,,,,,,,,,,,,,,,,,,,,,,,,,,,,,,,,,,88,acantilado,,,1,1,1.07872,0,33,33,87,1,REAL,FAKE,,,,,,,,,,,,,,,,,,,,,
,,,,,,,5c1dc77ee2d9150001b5b70e,605b45a4d25f287719a41696,605ba8a810d3343fd9d718c5,I am not familiar with Spanish,Northeast,NA,no,2021-03-24_17h08.32.534,empathy_intonation_perc,2020.2.10,Win32,60,,,,,,,,,,0,,,,,,,,,,,,,,,,,,,,,,,,,,,,,,,,,,,,,,,,58,plaudir,,,0,1,0.773195,0,34,34,57,1,REAL,FAKE,,,,,,,,,,,,,,,,,,,,,
,,,,,,,5c1dc77ee2d9150001b5b70e,605b45a4d25f287719a41696,605ba8a810d3343fd9d718c5,I am not familiar with Spanish,Northeast,NA,no,2021-03-24_17h08.32.534,empathy_intonation_perc,2020.2.10,Win32,60,,,,,,,,,,1,,,,,,,,,,,,,,,,,,,,,,,,,,,,,,,,,,,,,,,,9,hacha,,,0,0,1.078435,0,35,35,8,1,REAL,FAKE,,,,,,,,,,,,,,,,,,,,,
,,,,,,,5c1dc77ee2d9150001b5b70e,605b45a4d25f287719a41696,605ba8a810d3343fd9d718c5,I am not familiar with Spanish,Northeast,NA,no,2021-03-24_17h08.32.534,empathy_intonation_perc,2020.2.10,Win32,60,,,,,,,,,,1,,,,,,,,,,,,,,,,,,,,,,,,,,,,,,,,,,,,,,,,14,yunque,,,0,0,0.76551,0,36,36,13,1,REAL,FAKE,,,,,,,,,,,,,,,,,,,,,
,,,,,,,5c1dc77ee2d9150001b5b70e,605b45a4d25f287719a41696,605ba8a810d3343fd9d718c5,I am not familiar with Spanish,Northeast,NA,no,2021-03-24_17h08.32.534,empathy_intonation_perc,2020.2.10,Win32,60,,,,,,,,,,1,,,,,,,,,,,,,,,,,,,,,,,,,,,,,,,,,,,,,,,,89,prisa,,,0,0,1.07066,0,37,37,88,1,REAL,FAKE,,,,,,,,,,,,,,,,,,,,,
,,,,,,,5c1dc77ee2d9150001b5b70e,605b45a4d25f287719a41696,605ba8a810d3343fd9d718c5,I am not familiar with Spanish,Northeast,NA,no,2021-03-24_17h08.32.534,empathy_intonation_perc,2020.2.10,Win32,60,,,,,,,,,,1,,,,,,,,,,,,,,,,,,,,,,,,,,,,,,,,,,,,,,,,71,polvoriento,,,0,0,0.64258,0,38,38,70,1,REAL,FAKE,,,,,,,,,,,,,,,,,,,,,
,,,,,,,5c1dc77ee2d9150001b5b70e,605b45a4d25f287719a41696,605ba8a810d3343fd9d718c5,I am not familiar with Spanish,Northeast,NA,no,2021-03-24_17h08.32.534,empathy_intonation_perc,2020.2.10,Win32,60,,,,,,,,,,1,,,,,,,,,,,,,,,,,,,,,,,,,,,,,,,,,,,,,,,,86,barato,,,0,0,0.951665,0,39,39,85,1,REAL,FAKE,,,,,,,,,,,,,,,,,,,,,
,,,,,,,5c1dc77ee2d9150001b5b70e,605b45a4d25f287719a41696,605ba8a810d3343fd9d718c5,I am not familiar with Spanish,Northeast,NA,no,2021-03-24_17h08.32.534,empathy_intonation_perc,2020.2.10,Win32,60,,,,,,,,,,0,,,,,,,,,,,,,,,,,,,,,,,,,,,,,,,,,,,,,,,,84,escuto,,,0,1,0.846035,0,40,40,83,1,REAL,FAKE,,,,,,,,,,,,,,,,,,,,,
,,,,,,,5c1dc77ee2d9150001b5b70e,605b45a4d25f287719a41696,605ba8a810d3343fd9d718c5,I am not familiar with Spanish,Northeast,NA,no,2021-03-24_17h08.32.534,empathy_intonation_perc,2020.2.10,Win32,60,,,,,,,,,,1,,,,,,,,,,,,,,,,,,,,,,,,,,,,,,,,,,,,,,,,80,hormiga,,,0,0,0.713995,0,41,41,79,1,REAL,FAKE,,,,,,,,,,,,,,,,,,,,,
,,,,,,,5c1dc77ee2d9150001b5b70e,605b45a4d25f287719a41696,605ba8a810d3343fd9d718c5,I am not familiar with Spanish,Northeast,NA,no,2021-03-24_17h08.32.534,empathy_intonation_perc,2020.2.10,Win32,60,,,,,,,,,,1,,,,,,,,,,,,,,,,,,,,,,,,,,,,,,,,,,,,,,,,13,helar,,,0,0,0.69763,0,42,42,12,1,REAL,FAKE,,,,,,,,,,,,,,,,,,,,,
,,,,,,,5c1dc77ee2d9150001b5b70e,605b45a4d25f287719a41696,605ba8a810d3343fd9d718c5,I am not familiar with Spanish,Northeast,NA,no,2021-03-24_17h08.32.534,empathy_intonation_perc,2020.2.10,Win32,60,,,,,,,,,,1,,,,,,,,,,,,,,,,,,,,,,,,,,,,,,,,,,,,,,,,78,frondoso,,,0,0,0.68696,0,43,43,77,1,REAL,FAKE,,,,,,,,,,,,,,,,,,,,,
,,,,,,,5c1dc77ee2d9150001b5b70e,605b45a4d25f287719a41696,605ba8a810d3343fd9d718c5,I am not familiar with Spanish,Northeast,NA,no,2021-03-24_17h08.32.534,empathy_intonation_perc,2020.2.10,Win32,60,,,,,,,,,,0,,,,,,,,,,,,,,,,,,,,,,,,,,,,,,,,,,,,,,,,42,cadallo,,,0,1,1.3983,0,44,44,41,1,REAL,FAKE,,,,,,,,,,,,,,,,,,,,,
,,,,,,,5c1dc77ee2d9150001b5b70e,605b45a4d25f287719a41696,605ba8a810d3343fd9d718c5,I am not familiar with Spanish,Northeast,NA,no,2021-03-24_17h08.32.534,empathy_intonation_perc,2020.2.10,Win32,60,,,,,,,,,,1,,,,,,,,,,,,,,,,,,,,,,,,,,,,,,,,,,,,,,,,20,vido,,,0,0,1.38876,0,45,45,19,1,REAL,FAKE,,,,,,,,,,,,,,,,,,,,,
,,,,,,,5c1dc77ee2d9150001b5b70e,605b45a4d25f287719a41696,605ba8a810d3343fd9d718c5,I am not familiar with Spanish,Northeast,NA,no,2021-03-24_17h08.32.534,empathy_intonation_perc,2020.2.10,Win32,60,,,,,,,,,,1,,,,,,,,,,,,,,,,,,,,,,,,,,,,,,,,,,,,,,,,73,hervidor,,,0,0,1.519275,0,46,46,72,1,REAL,FAKE,,,,,,,,,,,,,,,,,,,,,
,,,,,,,5c1dc77ee2d9150001b5b70e,605b45a4d25f287719a41696,605ba8a810d3343fd9d718c5,I am not familiar with Spanish,Northeast,NA,no,2021-03-24_17h08.32.534,empathy_intonation_perc,2020.2.10,Win32,60,,,,,,,,,,0,,,,,,,,,,,,,,,,,,,,,,,,,,,,,,,,,,,,,,,,53,vegada,,,0,1,1.03737,0,47,47,52,1,REAL,FAKE,,,,,,,,,,,,,,,,,,,,,
,,,,,,,5c1dc77ee2d9150001b5b70e,605b45a4d25f287719a41696,605ba8a810d3343fd9d718c5,I am not familiar with Spanish,Northeast,NA,no,2021-03-24_17h08.32.534,empathy_intonation_perc,2020.2.10,Win32,60,,,,,,,,,,0,,,,,,,,,,,,,,,,,,,,,,,,,,,,,,,,,,,,,,,,27,acutacin,,,1,0,1.164845,0,48,48,26,1,REAL,FAKE,,,,,,,,,,,,,,,,,,,,,
,,,,,,,5c1dc77ee2d9150001b5b70e,605b45a4d25f287719a41696,605ba8a810d3343fd9d718c5,I am not familiar with Spanish,Northeast,NA,no,2021-03-24_17h08.32.534,empathy_intonation_perc,2020.2.10,Win32,60,,,,,,,,,,1,,,,,,,,,,,,,,,,,,,,,,,,,,,,,,,,,,,,,,,,25,bisagra,,,0,0,10.528965,0,49,49,24,1,REAL,FAKE,,,,,,,,,,,,,,,,,,,,,
,,,,,,,5c1dc77ee2d9150001b5b70e,605b45a4d25f287719a41696,605ba8a810d3343fd9d718c5,I am not familiar with Spanish,Northeast,NA,no,2021-03-24_17h08.32.534,empathy_intonation_perc,2020.2.10,Win32,60,,,,,,,,,,1,,,,,,,,,,,,,,,,,,,,,,,,,,,,,,,,,,,,,,,,44,cuchara,,,0,0,0.73788,0,50,50,43,1,REAL,FAKE,,,,,,,,,,,,,,,,,,,,,
,,,,,,,5c1dc77ee2d9150001b5b70e,605b45a4d25f287719a41696,605ba8a810d3343fd9d718c5,I am not familiar with Spanish,Northeast,NA,no,2021-03-24_17h08.32.534,empathy_intonation_perc,2020.2.10,Win32,60,,,,,,,,,,0,,,,,,,,,,,,,,,,,,,,,,,,,,,,,,,,,,,,,,,,29,decar,,,1,0,1.63916,0,51,51,28,1,REAL,FAKE,,,,,,,,,,,,,,,,,,,,,
,,,,,,,5c1dc77ee2d9150001b5b70e,605b45a4d25f287719a41696,605ba8a810d3343fd9d718c5,I am not familiar with Spanish,Northeast,NA,no,2021-03-24_17h08.32.534,empathy_intonation_perc,2020.2.10,Win32,60,,,,,,,,,,0,,,,,,,,,,,,,,,,,,,,,,,,,,,,,,,,,,,,,,,,10,antar,,,1,0,0.93567,0,52,52,9,1,REAL,FAKE,,,,,,,,,,,,,,,,,,,,,
,,,,,,,5c1dc77ee2d9150001b5b70e,605b45a4d25f287719a41696,605ba8a810d3343fd9d718c5,I am not familiar with Spanish,Northeast,NA,no,2021-03-24_17h08.32.534,empathy_intonation_perc,2020.2.10,Win32,60,,,,,,,,,,1,,,,,,,,,,,,,,,,,,,,,,,,,,,,,,,,,,,,,,,,5,zapato,,,1,1,1.140255,0,53,53,4,1,REAL,FAKE,,,,,,,,,,,,,,,,,,,,,
,,,,,,,5c1dc77ee2d9150001b5b70e,605b45a4d25f287719a41696,605ba8a810d3343fd9d718c5,I am not familiar with Spanish,Northeast,NA,no,2021-03-24_17h08.32.534,empathy_intonation_perc,2020.2.10,Win32,60,,,,,,,,,,1,,,,,,,,,,,,,,,,,,,,,,,,,,,,,,,,,,,,,,,,67,cabello,,,1,1,0.995705,0,54,54,66,1,REAL,FAKE,,,,,,,,,,,,,,,,,,,,,
,,,,,,,5c1dc77ee2d9150001b5b70e,605b45a4d25f287719a41696,605ba8a810d3343fd9d718c5,I am not familiar with Spanish,Northeast,NA,no,2021-03-24_17h08.32.534,empathy_intonation_perc,2020.2.10,Win32,60,,,,,,,,,,0,,,,,,,,,,,,,,,,,,,,,,,,,,,,,,,,,,,,,,,,47,cartinar,,,1,0,1.038385,0,55,55,46,1,REAL,FAKE,,,,,,,,,,,,,,,,,,,,,
,,,,,,,5c1dc77ee2d9150001b5b70e,605b45a4d25f287719a41696,605ba8a810d3343fd9d718c5,I am not familiar with Spanish,Northeast,NA,no,2021-03-24_17h08.32.534,empathy_intonation_perc,2020.2.10,Win32,60,,,,,,,,,,0,,,,,,,,,,,,,,,,,,,,,,,,,,,,,,,,,,,,,,,,8,cadea,,,1,0,1.062895,0,56,56,7,1,REAL,FAKE,,,,,,,,,,,,,,,,,,,,,
,,,,,,,5c1dc77ee2d9150001b5b70e,605b45a4d25f287719a41696,605ba8a810d3343fd9d718c5,I am not familiar with Spanish,Northeast,NA,no,2021-03-24_17h08.32.534,empathy_intonation_perc,2020.2.10,Win32,60,,,,,,,,,,1,,,,,,,,,,,,,,,,,,,,,,,,,,,,,,,,,,,,,,,,37,granuja,,,0,0,1.295125,0,57,57,36,1,REAL,FAKE,,,,,,,,,,,,,,,,,,,,,
,,,,,,,5c1dc77ee2d9150001b5b70e,605b45a4d25f287719a41696,605ba8a810d3343fd9d718c5,I am not familiar with Spanish,Northeast,NA,no,2021-03-24_17h08.32.534,empathy_intonation_perc,2020.2.10,Win32,60,,,,,,,,,,0,,,,,,,,,,,,,,,,,,,,,,,,,,,,,,,,,,,,,,,,30,alardio,,,0,1,0.962115,0,58,58,29,1,REAL,FAKE,,,,,,,,,,,,,,,,,,,,,
,,,,,,,5c1dc77ee2d9150001b5b70e,605b45a4d25f287719a41696,605ba8a810d3343fd9d718c5,I am not familiar with Spanish,Northeast,NA,no,2021-03-24_17h08.32.534,empathy_intonation_perc,2020.2.10,Win32,60,,,,,,,,,,1,,,,,,,,,,,,,,,,,,,,,,,,,,,,,,,,,,,,,,,,36,loro,,,0,0,0.69204,0,59,59,35,1,REAL,FAKE,,,,,,,,,,,,,,,,,,,,,
,,,,,,,5c1dc77ee2d9150001b5b70e,605b45a4d25f287719a41696,605ba8a810d3343fd9d718c5,I am not familiar with Spanish,Northeast,NA,no,2021-03-24_17h08.32.534,empathy_intonation_perc,2020.2.10,Win32,60,,,,,,,,,,0,,,,,,,,,,,,,,,,,,,,,,,,,,,,,,,,,,,,,,,,18,arsa,,,0,1,0.92596,0,60,60,17,1,REAL,FAKE,,,,,,,,,,,,,,,,,,,,,
,,,,,,,5c1dc77ee2d9150001b5b70e,605b45a4d25f287719a41696,605ba8a810d3343fd9d718c5,I am not familiar with Spanish,Northeast,NA,no,2021-03-24_17h08.32.534,empathy_intonation_perc,2020.2.10,Win32,60,,,,,,,,,,1,,,,,,,,,,,,,,,,,,,,,,,,,,,,,,,,,,,,,,,,46,martillo,,,1,1,0.80609,0,61,61,45,1,REAL,FAKE,,,,,,,,,,,,,,,,,,,,,
,,,,,,,5c1dc77ee2d9150001b5b70e,605b45a4d25f287719a41696,605ba8a810d3343fd9d718c5,I am not familiar with Spanish,Northeast,NA,no,2021-03-24_17h08.32.534,empathy_intonation_perc,2020.2.10,Win32,60,,,,,,,,,,0,,,,,,,,,,,,,,,,,,,,,,,,,,,,,,,,,,,,,,,,66,hacido,,,0,1,0.883195,0,62,62,65,1,REAL,FAKE,,,,,,,,,,,,,,,,,,,,,
,,,,,,,5c1dc77ee2d9150001b5b70e,605b45a4d25f287719a41696,605ba8a810d3343fd9d718c5,I am not familiar with Spanish,Northeast,NA,no,2021-03-24_17h08.32.534,empathy_intonation_perc,2020.2.10,Win32,60,,,,,,,,,,0,,,,,,,,,,,,,,,,,,,,,,,,,,,,,,,,,,,,,,,,82,empirador,,,0,1,1.2333,0,63,63,81,1,REAL,FAKE,,,,,,,,,,,,,,,,,,,,,
,,,,,,,5c1dc77ee2d9150001b5b70e,605b45a4d25f287719a41696,605ba8a810d3343fd9d718c5,I am not familiar with Spanish,Northeast,NA,no,2021-03-24_17h08.32.534,empathy_intonation_perc,2020.2.10,Win32,60,,,,,,,,,,0,,,,,,,,,,,,,,,,,,,,,,,,,,,,,,,,,,,,,,,,72,pemicin,,,0,1,0.85217,0,64,64,71,1,REAL,FAKE,,,,,,,,,,,,,,,,,,,,,
,,,,,,,5c1dc77ee2d9150001b5b70e,605b45a4d25f287719a41696,605ba8a810d3343fd9d718c5,I am not familiar with Spanish,Northeast,NA,no,2021-03-24_17h08.32.534,empathy_intonation_perc,2020.2.10,Win32,60,,,,,,,,,,0,,,,,,,,,,,,,,,,,,,,,,,,,,,,,,,,,,,,,,,,4,batilln,,,0,1,0.9659,0,65,65,3,1,REAL,FAKE,,,,,,,,,,,,,,,,,,,,,
,,,,,,,5c1dc77ee2d9150001b5b70e,605b45a4d25f287719a41696,605ba8a810d3343fd9d718c5,I am not familiar with Spanish,Northeast,NA,no,2021-03-24_17h08.32.534,empathy_intonation_perc,2020.2.10,Win32,60,,,,,,,,,,1,,,,,,,,,,,,,,,,,,,,,,,,,,,,,,,,,,,,,,,,57,tacao,,,0,0,1.053455,0,66,66,56,1,REAL,FAKE,,,,,,,,,,,,,,,,,,,,,
,,,,,,,5c1dc77ee2d9150001b5b70e,605b45a4d25f287719a41696,605ba8a810d3343fd9d718c5,I am not familiar with Spanish,Northeast,NA,no,2021-03-24_17h08.32.534,empathy_intonation_perc,2020.2.10,Win32,60,,,,,,,,,,1,,,,,,,,,,,,,,,,,,,,,,,,,,,,,,,,,,,,,,,,52,camisa,,,0,0,1.0164,0,67,67,51,1,REAL,FAKE,,,,,,,,,,,,,,,,,,,,,
,,,,,,,5c1dc77ee2d9150001b5b70e,605b45a4d25f287719a41696,605ba8a810d3343fd9d718c5,I am not familiar with Spanish,Northeast,NA,no,2021-03-24_17h08.32.534,empathy_intonation_perc,2020.2.10,Win32,60,,,,,,,,,,1,,,,,,,,,,,,,,,,,,,,,,,,,,,,,,,,,,,,,,,,62,flaco,,,0,0,0.8081,0,68,68,61,1,REAL,FAKE,,,,,,,,,,,,,,,,,,,,,
,,,,,,,5c1dc77ee2d9150001b5b70e,605b45a4d25f287719a41696,605ba8a810d3343fd9d718c5,I am not familiar with Spanish,Northeast,NA,no,2021-03-24_17h08.32.534,empathy_intonation_perc,2020.2.10,Win32,60,,,,,,,,,,0,,,,,,,,,,,,,,,,,,,,,,,,,,,,,,,,,,,,,,,,79,tropaje,,,1,0,3.12286,0,69,69,78,1,REAL,FAKE,,,,,,,,,,,,,,,,,,,,,
,,,,,,,5c1dc77ee2d9150001b5b70e,605b45a4d25f287719a41696,605ba8a810d3343fd9d718c5,I am not familiar with Spanish,Northeast,NA,no,2021-03-24_17h08.32.534,empathy_intonation_perc,2020.2.10,Win32,60,,,,,,,,,,1,,,,,,,,,,,,,,,,,,,,,,,,,,,,,,,,,,,,,,,,75,yacer,,,0,0,13.787195,0,70,70,74,1,REAL,FAKE,,,,,,,,,,,,,,,,,,,,,
,,,,,,,5c1dc77ee2d9150001b5b70e,605b45a4d25f287719a41696,605ba8a810d3343fd9d718c5,I am not familiar with Spanish,Northeast,NA,no,2021-03-24_17h08.32.534,empathy_intonation_perc,2020.2.10,Win32,60,,,,,,,,,,1,,,,,,,,,,,,,,,,,,,,,,,,,,,,,,,,,,,,,,,,22,lacayo,,,0,0,1.07959,0,71,71,21,1,REAL,FAKE,,,,,,,,,,,,,,,,,,,,,
,,,,,,,5c1dc77ee2d9150001b5b70e,605b45a4d25f287719a41696,605ba8a810d3343fd9d718c5,I am not familiar with Spanish,Northeast,NA,no,2021-03-24_17h08.32.534,empathy_intonation_perc,2020.2.10,Win32,60,,,,,,,,,,1,,,,,,,,,,,,,,,,,,,,,,,,,,,,,,,,,,,,,,,,90,clavel,,,0,0,0.600755,0,72,72,89,1,REAL,FAKE,,,,,,,,,,,,,,,,,,,,,
,,,,,,,5c1dc77ee2d9150001b5b70e,605b45a4d25f287719a41696,605ba8a810d3343fd9d718c5,I am not familiar with Spanish,Northeast,NA,no,2021-03-24_17h08.32.534,empathy_intonation_perc,2020.2.10,Win32,60,,,,,,,,,,1,,,,,,,,,,,,,,,,,,,,,,,,,,,,,,,,,,,,,,,,48,ladrn,,,0,0,0.62376,0,73,73,47,1,REAL,FAKE,,,,,,,,,,,,,,,,,,,,,
,,,,,,,5c1dc77ee2d9150001b5b70e,605b45a4d25f287719a41696,605ba8a810d3343fd9d718c5,I am not familiar with Spanish,Northeast,NA,no,2021-03-24_17h08.32.534,empathy_intonation_perc,2020.2.10,Win32,60,,,,,,,,,,1,,,,,,,,,,,,,,,,,,,,,,,,,,,,,,,,,,,,,,,,60,matar,,,0,0,1.030415,0,74,74,59,1,REAL,FAKE,,,,,,,,,,,,,,,,,,,,,
,,,,,,,5c1dc77ee2d9150001b5b70e,605b45a4d25f287719a41696,605ba8a810d3343fd9d718c5,I am not familiar with Spanish,Northeast,NA,no,2021-03-24_17h08.32.534,empathy_intonation_perc,2020.2.10,Win32,60,,,,,,,,,,1,,,,,,,,,,,,,,,,,,,,,,,,,,,,,,,,,,,,,,,,24,ltigo,,,0,0,0.83679,0,75,75,23,1,REAL,FAKE,,,,,,,,,,,,,,,,,,,,,
,,,,,,,5c1dc77ee2d9150001b5b70e,605b45a4d25f287719a41696,605ba8a810d3343fd9d718c5,I am not familiar with Spanish,Northeast,NA,no,2021-03-24_17h08.32.534,empathy_intonation_perc,2020.2.10,Win32,60,,,,,,,,,,0,,,,,,,,,,,,,,,,,,,,,,,,,,,,,,,,,,,,,,,,23,lampera,,,1,0,0.83898,0,76,76,22,1,REAL,FAKE,,,,,,,,,,,,,,,,,,,,,
,,,,,,,5c1dc77ee2d9150001b5b70e,605b45a4d25f287719a41696,605ba8a810d3343fd9d718c5,I am not familiar with Spanish,Northeast,NA,no,2021-03-24_17h08.32.534,empathy_intonation_perc,2020.2.10,Win32,60,,,,,,,,,,0,,,,,,,,,,,,,,,,,,,,,,,,,,,,,,,,,,,,,,,,19,brecedad,,,0,1,1.269215,0,77,77,18,1,REAL,FAKE,,,,,,,,,,,,,,,,,,,,,
,,,,,,,5c1dc77ee2d9150001b5b70e,605b45a4d25f287719a41696,605ba8a810d3343fd9d718c5,I am not familiar with Spanish,Northeast,NA,no,2021-03-24_17h08.32.534,empathy_intonation_perc,2020.2.10,Win32,60,,,,,,,,,,1,,,,,,,,,,,,,,,,,,,,,,,,,,,,,,,,,,,,,,,,85,lad,,,0,0,0.704215,0,78,78,84,1,REAL,FAKE,,,,,,,,,,,,,,,,,,,,,
,,,,,,,5c1dc77ee2d9150001b5b70e,605b45a4d25f287719a41696,605ba8a810d3343fd9d718c5,I am not familiar with Spanish,Northeast,NA,no,2021-03-24_17h08.32.534,empathy_intonation_perc,2020.2.10,Win32,60,,,,,,,,,,0,,,,,,,,,,,,,,,,,,,,,,,,,,,,,,,,,,,,,,,,21,capillo,,,1,0,0.605415,0,79,79,20,1,REAL,FAKE,,,,,,,,,,,,,,,,,,,,,
,,,,,,,5c1dc77ee2d9150001b5b70e,605b45a4d25f287719a41696,605ba8a810d3343fd9d718c5,I am not familiar with Spanish,Northeast,NA,no,2021-03-24_17h08.32.534,empathy_intonation_perc,2020.2.10,Win32,60,,,,,,,,,,0,,,,,,,,,,,,,,,,,,,,,,,,,,,,,,,,,,,,,,,,1,terzo,,,0,1,0.63411,0,80,80,0,1,REAL,FAKE,,,,,,,,,,,,,,,,,,,,,
,,,,,,,5c1dc77ee2d9150001b5b70e,605b45a4d25f287719a41696,605ba8a810d3343fd9d718c5,I am not familiar with Spanish,Northeast,NA,no,2021-03-24_17h08.32.534,empathy_intonation_perc,2020.2.10,Win32,60,,,,,,,,,,0,,,,,,,,,,,,,,,,,,,,,,,,,,,,,,,,,,,,,,,,32,fatacidad,,,0,1,0.75684,0,81,81,31,1,REAL,FAKE,,,,,,,,,,,,,,,,,,,,,
,,,,,,,5c1dc77ee2d9150001b5b70e,605b45a4d25f287719a41696,605ba8a810d3343fd9d718c5,I am not familiar with Spanish,Northeast,NA,no,2021-03-24_17h08.32.534,empathy_intonation_perc,2020.2.10,Win32,60,,,,,,,,,,1,,,,,,,,,,,,,,,,,,,,,,,,,,,,,,,,,,,,,,,,65,bizcocho,,,0,0,0.763515,0,82,82,64,1,REAL,FAKE,,,,,,,,,,,,,,,,,,,,,
,,,,,,,5c1dc77ee2d9150001b5b70e,605b45a4d25f287719a41696,605ba8a810d3343fd9d718c5,I am not familiar with Spanish,Northeast,NA,no,2021-03-24_17h08.32.534,empathy_intonation_perc,2020.2.10,Win32,60,,,,,,,,,,1,,,,,,,,,,,,,,,,,,,,,,,,,,,,,,,,,,,,,,,,81,pozo,,,1,1,1.01118,0,83,83,80,1,REAL,FAKE,,,,,,,,,,,,,,,,,,,,,
,,,,,,,5c1dc77ee2d9150001b5b70e,605b45a4d25f287719a41696,605ba8a810d3343fd9d718c5,I am not familiar with Spanish,Northeast,NA,no,2021-03-24_17h08.32.534,empathy_intonation_perc,2020.2.10,Win32,60,,,,,,,,,,1,,,,,,,,,,,,,,,,,,,,,,,,,,,,,,,,,,,,,,,,56,musgo,,,0,0,0.85056,0,84,84,55,1,REAL,FAKE,,,,,,,,,,,,,,,,,,,,,
,,,,,,,5c1dc77ee2d9150001b5b70e,605b45a4d25f287719a41696,605ba8a810d3343fd9d718c5,I am not familiar with Spanish,Northeast,NA,no,2021-03-24_17h08.32.534,empathy_intonation_perc,2020.2.10,Win32,60,,,,,,,,,,0,,,,,,,,,,,,,,,,,,,,,,,,,,,,,,,,,,,,,,,,50,flamida,,,1,0,0.788035,0,85,85,49,1,REAL,FAKE,,,,,,,,,,,,,,,,,,,,,
,,,,,,,5c1dc77ee2d9150001b5b70e,605b45a4d25f287719a41696,605ba8a810d3343fd9d718c5,I am not familiar with Spanish,Northeast,NA,no,2021-03-24_17h08.32.534,empathy_intonation_perc,2020.2.10,Win32,60,,,,,,,,,,1,,,,,,,,,,,,,,,,,,,,,,,,,,,,,,,,,,,,,,,,34,aviso,,,1,1,0.80349,0,86,86,33,1,REAL,FAKE,,,,,,,,,,,,,,,,,,,,,
,,,,,,,5c1dc77ee2d9150001b5b70e,605b45a4d25f287719a41696,605ba8a810d3343fd9d718c5,I am not familiar with Spanish,Northeast,NA,no,2021-03-24_17h08.32.534,empathy_intonation_perc,2020.2.10,Win32,60,,,,,,,,,,1,,,,,,,,,,,,,,,,,,,,,,,,,,,,,,,,,,,,,,,,41,rebuscar,,,0,0,2.65798,0,87,87,40,1,REAL,FAKE,,,,,,,,,,,,,,,,,,,,,
,,,,,,,5c1dc77ee2d9150001b5b70e,605b45a4d25f287719a41696,605ba8a810d3343fd9d718c5,I am not familiar with Spanish,Northeast,NA,no,2021-03-24_17h08.32.534,empathy_intonation_perc,2020.2.10,Win32,60,,,,,,,,,,1,,,,,,,,,,,,,,,,,,,,,,,,,,,,,,,,,,,,,,,,26,secuestro,,,0,0,13.87788,0,88,88,25,1,REAL,FAKE,,,,,,,,,,,,,,,,,,,,,
,,,,,,,5c1dc77ee2d9150001b5b70e,605b45a4d25f287719a41696,605ba8a810d3343fd9d718c5,I am not familiar with Spanish,Northeast,NA,no,2021-03-24_17h08.32.534,empathy_intonation_perc,2020.2.10,Win32,60,,,,,,,,,,0,,,,,,,,,,,,,,,,,,,,,,,,,,,,,,,,,,,,,,,,17,floroso,,,0,1,0.514585,0,89,89,16,1,REAL,FAKE,,,,,,,,,,,,,,,,,,,,,
,,,,,,,5c1dc77ee2d9150001b5b70e,605b45a4d25f287719a41696,605ba8a810d3343fd9d718c5,I am not familiar with Spanish,Northeast,NA,no,2021-03-24_17h08.32.534,empathy_intonation_perc,2020.2.10,Win32,60,,,,,,,,,,,,,,,,,,,,,,,,,,,,,,,,,,,,,,,,,,,,,,,,,,,,,,,,,,,,,,,,4,1,5.07711,1,0,0,0,0,0,1,,,,,,,,,,,
