instructions_2afc_loop.thisRepN,instructions_2afc_loop.thisTrialN,instructions_2afc_loop.thisN,instructions_2afc_loop.thisIndex,instructions_2afc_loop.ran,instructions_text,continue_text,participant,study_id,session,I am most familiar with Spanish from...*,What part of the US are you from?*,At what age did you begin learning Spanish?*,Are you proficient in any languages other than English/Spanish?*,date,expName,psychopyVersion,OS,frameRate,key_resp_2afc_practice.keys,key_resp_2afc_practice.corr,key_resp_2afc_practice.rt,trials_2afc_practice_loop.thisRepN,trials_2afc_practice_loop.thisTrialN,trials_2afc_practice_loop.thisN,trials_2afc_practice_loop.thisIndex,trials_2afc_practice_loop.ran,path,correct_response,the_col,key_resp_2afc_trial.keys,key_resp_2afc_trial.corr,key_resp_2afc_trial.rt,trials_2afc_loop.thisRepN,trials_2afc_loop.thisTrialN,trials_2afc_loop.thisN,trials_2afc_loop.thisIndex,trials_2afc_loop.ran,item_num,andalusian,argentine,castilian,chilean,cuban,mexican,peruvian,puertorican,key_resp_ac1.keys,key_resp_ac1.corr,key_resp_ac1.rt,ac1_loop.thisRepN,ac1_loop.thisTrialN,ac1_loop.thisN,ac1_loop.thisIndex,ac1_loop.ran,instructions_lextale_loop.thisRepN,instructions_lextale_loop.thisTrialN,instructions_lextale_loop.thisN,instructions_lextale_loop.thisIndex,instructions_lextale_loop.ran,key_resp_lextale_practice.keys,key_resp_lextale_practice.corr,key_resp_lextale_practice.rt,trials_lextale_practice_loop.thisRepN,trials_lextale_practice_loop.thisTrialN,trials_lextale_practice_loop.thisN,trials_lextale_practice_loop.thisIndex,trials_lextale_practice_loop.ran,stim,word,prac_button_real,prac_button_false,key_resp_lextale_trial.keys,key_resp_lextale_trial.corr,key_resp_lextale_trial.rt,trials_lextale_loop.thisRepN,trials_lextale_loop.thisTrialN,trials_lextale_loop.thisN,trials_lextale_loop.thisIndex,trials_lextale_loop.ran,button_real,button_false,key_resp_ac2.keys,key_resp_ac2.corr,key_resp_ac2.rt,check_pass,check_fails,ac2_loop.thisRepN,ac2_loop.thisTrialN,ac2_loop.thisN,ac2_loop.thisIndex,ac2_loop.ran,slider_eq_trial.response,trials_eq_loop.thisRepN,trials_eq_loop.thisTrialN,trials_eq_loop.thisN,trials_eq_loop.thisIndex,trials_eq_loop.ran,item,is_test_item,is_distractor,is_agree_score,is_disagree_score
0,0,0,0,1,"In the following task you are going to hear a series of utterances. 

  You will decide if the utterances sound like questions or not using your keyboard.",(press the spacebar to continue),5c59aecb6ca5e600017206de,605b45a4d25f287719a41696,605e1af5e22bfb8fc5290cc2,Mexico,Midwest,13 or older,no,2021-03-26_13h34.06.859,empathy_intonation_perc,2020.2.10,Win32,60,,,,,,,,,,,,,,,,,,,,,,,,,,,,,,,,,,,,,,,,,,,,,,,,,,,,,,,,,,,,,,,,,,,,,,,,,,,,,,,,,,,,
0,1,1,1,1,"If you believe the utterance is a question, type '1' (for 'yes') and if you do not 
  believe it is a question type '0' (for 'no').

  Let's practice a bit...",(press the spacebar to continue),5c59aecb6ca5e600017206de,605b45a4d25f287719a41696,605e1af5e22bfb8fc5290cc2,Mexico,Midwest,13 or older,no,2021-03-26_13h34.06.859,empathy_intonation_perc,2020.2.10,Win32,60,,,,,,,,,,,,,,,,,,,,,,,,,,,,,,,,,,,,,,,,,,,,,,,,,,,,,,,,,,,,,,,,,,,,,,,,,,,,,,,,,,,,
,,,,,,,5c59aecb6ca5e600017206de,605b45a4d25f287719a41696,605e1af5e22bfb8fc5290cc2,Mexico,Midwest,13 or older,no,2021-03-26_13h34.06.859,empathy_intonation_perc,2020.2.10,Win32,60,1,1,2.70862,0,0,0,3,1,./stim/wavs/mexican_question_filler_Felipe-no-tiene-contrasena.wav,1,,,,,,,,,,,,,,,,,,,,,,,,,,,,,,,,,,,,,,,,,,,,,,,,,,,,,,,,,,,,,,,,,,,,,,,,,,
,,,,,,,5c59aecb6ca5e600017206de,605b45a4d25f287719a41696,605e1af5e22bfb8fc5290cc2,Mexico,Midwest,13 or older,no,2021-03-26_13h34.06.859,empathy_intonation_perc,2020.2.10,Win32,60,0,1,2.40233,0,1,1,6,1,./stim/wavs/peruvian_statement_filler_El-nino-habla-con-su-madre.wav,0,,,,,,,,,,,,,,,,,,,,,,,,,,,,,,,,,,,,,,,,,,,,,,,,,,,,,,,,,,,,,,,,,,,,,,,,,,
,,,,,,,5c59aecb6ca5e600017206de,605b45a4d25f287719a41696,605e1af5e22bfb8fc5290cc2,Mexico,Midwest,13 or older,no,2021-03-26_13h34.06.859,empathy_intonation_perc,2020.2.10,Win32,60,1,1,2.051685,0,2,2,0,1,./stim/wavs/castilian_question_filler_Mi-esposo-conoce-al-chico.wav,1,,,,,,,,,,,,,,,,,,,,,,,,,,,,,,,,,,,,,,,,,,,,,,,,,,,,,,,,,,,,,,,,,,,,,,,,,,
,,,,,,,5c59aecb6ca5e600017206de,605b45a4d25f287719a41696,605e1af5e22bfb8fc5290cc2,Mexico,Midwest,13 or older,no,2021-03-26_13h34.06.859,empathy_intonation_perc,2020.2.10,Win32,60,0,1,1.8097,0,3,3,4,1,./stim/wavs/cuban_statement_filler_Cocinabas-por-la-noche.wav,0,,,,,,,,,,,,,,,,,,,,,,,,,,,,,,,,,,,,,,,,,,,,,,,,,,,,,,,,,,,,,,,,,,,,,,,,,,
,,,,,,,5c59aecb6ca5e600017206de,605b45a4d25f287719a41696,605e1af5e22bfb8fc5290cc2,Mexico,Midwest,13 or older,no,2021-03-26_13h34.06.859,empathy_intonation_perc,2020.2.10,Win32,60,1,1,1.53831,0,4,4,1,1,./stim/wavs/argentine_question_filler_Mi-vecino-habla-mucho.wav,1,,,,,,,,,,,,,,,,,,,,,,,,,,,,,,,,,,,,,,,,,,,,,,,,,,,,,,,,,,,,,,,,,,,,,,,,,,
,,,,,,,5c59aecb6ca5e600017206de,605b45a4d25f287719a41696,605e1af5e22bfb8fc5290cc2,Mexico,Midwest,13 or older,no,2021-03-26_13h34.06.859,empathy_intonation_perc,2020.2.10,Win32,60,0,1,1.7186,0,5,5,5,1,./stim/wavs/andalusian_statement_filler_Alberto-nunca-se-afeita.wav,0,,,,,,,,,,,,,,,,,,,,,,,,,,,,,,,,,,,,,,,,,,,,,,,,,,,,,,,,,,,,,,,,,,,,,,,,,,
,,,,,,,5c59aecb6ca5e600017206de,605b45a4d25f287719a41696,605e1af5e22bfb8fc5290cc2,Mexico,Midwest,13 or older,no,2021-03-26_13h34.06.859,empathy_intonation_perc,2020.2.10,Win32,60,0,0,1.97005,0,6,6,2,1,./stim/wavs/chilean_question_filler_Mi-padre-cantaba-bien.wav,1,,,,,,,,,,,,,,,,,,,,,,,,,,,,,,,,,,,,,,,,,,,,,,,,,,,,,,,,,,,,,,,,,,,,,,,,,,
,,,,,,,5c59aecb6ca5e600017206de,605b45a4d25f287719a41696,605e1af5e22bfb8fc5290cc2,Mexico,Midwest,13 or older,no,2021-03-26_13h34.06.859,empathy_intonation_perc,2020.2.10,Win32,60,0,1,1.788825,0,7,7,7,1,./stim/wavs/puertorican_statement_filler_La-nina-pinta-con-su-amiga.wav,0,,,,,,,,,,,,,,,,,,,,,,,,,,,,,,,,,,,,,,,,,,,,,,,,,,,,,,,,,,,,,,,,,,,,,,,,,,
,,,,,,,5c59aecb6ca5e600017206de,605b45a4d25f287719a41696,605e1af5e22bfb8fc5290cc2,Mexico,Midwest,13 or older,no,2021-03-26_13h34.06.859,empathy_intonation_perc,2020.2.10,Win32,60,,,,,,,,,,1,argentine,0,0,4.144885,0,0,0,62,1,63,./stim/wavs/andalusian_mismatch_interrogative-total-yn_Mi-novio-viene-del-lago.wav,./stim/wavs/argentine_mismatch_interrogative-total-yn_Mi-novio-viene-del-lago.wav,./stim/wavs/castilian_mismatch_interrogative-total-yn_Mi-novio-viene-del-lago.wav,./stim/wavs/chilean_mismatch_interrogative-total-yn_Mi-novio-viene-del-lago.wav,./stim/wavs/cuban_mismatch_interrogative-total-yn_Mi-novio-viene-del-lago.wav,./stim/wavs/mexican_mismatch_interrogative-total-yn_Mi-novio-viene-del-lago.wav,./stim/wavs/peruvian_mismatch_interrogative-total-yn_Mi-novio-viene-del-lago.wav,./stim/wavs/puertorican_mismatch_interrogative-total-yn_Mi-novio-viene-del-lago.wav,,,,,,,,,,,,,,,,,,,,,,,,,,,,,,,,,,,,,,,,,,,,,,,,,,,,,,,,
,,,,,,,5c59aecb6ca5e600017206de,605b45a4d25f287719a41696,605e1af5e22bfb8fc5290cc2,Mexico,Midwest,13 or older,no,2021-03-26_13h34.06.859,empathy_intonation_perc,2020.2.10,Win32,60,,,,,,,,,,1,andalusian,0,0,1.61069,0,1,1,53,1,54,./stim/wavs/andalusian_mismatch_interrogative-partial-wh_Por-que-oia-el-rio.wav,./stim/wavs/argentine_mismatch_interrogative-partial-wh_Por-que-oia-el-rio.wav,./stim/wavs/castilian_mismatch_interrogative-partial-wh_Por-que-oia-el-rio.wav,./stim/wavs/chilean_mismatch_interrogative-partial-wh_Por-que-oia-el-rio.wav,./stim/wavs/cuban_mismatch_interrogative-partial-wh_Por-que-oia-el-rio.wav,./stim/wavs/mexican_mismatch_interrogative-partial-wh_Por-que-oia-el-rio.wav,./stim/wavs/peruvian_mismatch_interrogative-partial-wh_Por-que-oia-el-rio.wav,./stim/wavs/puertorican_mismatch_interrogative-partial-wh_Por-que-oia-el-rio.wav,,,,,,,,,,,,,,,,,,,,,,,,,,,,,,,,,,,,,,,,,,,,,,,,,,,,,,,,
,,,,,,,5c59aecb6ca5e600017206de,605b45a4d25f287719a41696,605e1af5e22bfb8fc5290cc2,Mexico,Midwest,13 or older,no,2021-03-26_13h34.06.859,empathy_intonation_perc,2020.2.10,Win32,60,,,,,,,,,,0,peruvian,0,1,1.69265,0,2,2,2,1,3,./stim/wavs/andalusian_match_declarative-broad-focus_David-leia-el-libro.wav,./stim/wavs/argentine_match_declarative-broad-focus_David-leia-el-libro.wav,./stim/wavs/castilian_match_declarative-broad-focus_David-leia-el-libro.wav,./stim/wavs/chilean_match_declarative-broad-focus_David-leia-el-libro.wav,./stim/wavs/cuban_match_declarative-broad-focus_David-leia-el-libro.wav,./stim/wavs/mexican_match_declarative-broad-focus_David-leia-el-libro.wav,./stim/wavs/peruvian_match_declarative-broad-focus_David-leia-el-libro.wav,./stim/wavs/puertorican_match_declarative-broad-focus_David-leia-el-libro.wav,,,,,,,,,,,,,,,,,,,,,,,,,,,,,,,,,,,,,,,,,,,,,,,,,,,,,,,,
,,,,,,,5c59aecb6ca5e600017206de,605b45a4d25f287719a41696,605e1af5e22bfb8fc5290cc2,Mexico,Midwest,13 or older,no,2021-03-26_13h34.06.859,empathy_intonation_perc,2020.2.10,Win32,60,,,,,,,,,,0,puertorican,0,1,1.549665,0,3,3,39,1,40,./stim/wavs/andalusian_mismatch_declarative-broad-focus_Mi-tia-odia-la-lluvia.wav,./stim/wavs/argentine_mismatch_declarative-broad-focus_Mi-tia-odia-la-lluvia.wav,./stim/wavs/castilian_mismatch_declarative-broad-focus_Mi-tia-odia-la-lluvia.wav,./stim/wavs/chilean_mismatch_declarative-broad-focus_Mi-tia-odia-la-lluvia.wav,./stim/wavs/cuban_mismatch_declarative-broad-focus_Mi-tia-odia-la-lluvia.wav,./stim/wavs/mexican_mismatch_declarative-broad-focus_Mi-tia-odia-la-lluvia.wav,./stim/wavs/peruvian_mismatch_declarative-broad-focus_Mi-tia-odia-la-lluvia.wav,./stim/wavs/puertorican_mismatch_declarative-broad-focus_Mi-tia-odia-la-lluvia.wav,,,,,,,,,,,,,,,,,,,,,,,,,,,,,,,,,,,,,,,,,,,,,,,,,,,,,,,,
,,,,,,,5c59aecb6ca5e600017206de,605b45a4d25f287719a41696,605e1af5e22bfb8fc5290cc2,Mexico,Midwest,13 or older,no,2021-03-26_13h34.06.859,empathy_intonation_perc,2020.2.10,Win32,60,,,,,,,,,,0,argentine,0,1,1.526325,0,4,4,4,1,5,./stim/wavs/andalusian_match_declarative-broad-focus_Manuela-vende-el-carro.wav,./stim/wavs/argentine_match_declarative-broad-focus_Manuela-vende-el-carro.wav,./stim/wavs/castilian_match_declarative-broad-focus_Manuela-vende-el-carro.wav,./stim/wavs/chilean_match_declarative-broad-focus_Manuela-vende-el-carro.wav,./stim/wavs/cuban_match_declarative-broad-focus_Manuela-vende-el-carro.wav,./stim/wavs/mexican_match_declarative-broad-focus_Manuela-vende-el-carro.wav,./stim/wavs/peruvian_match_declarative-broad-focus_Manuela-vende-el-carro.wav,./stim/wavs/puertorican_match_declarative-broad-focus_Manuela-vende-el-carro.wav,,,,,,,,,,,,,,,,,,,,,,,,,,,,,,,,,,,,,,,,,,,,,,,,,,,,,,,,
,,,,,,,5c59aecb6ca5e600017206de,605b45a4d25f287719a41696,605e1af5e22bfb8fc5290cc2,Mexico,Midwest,13 or older,no,2021-03-26_13h34.06.859,empathy_intonation_perc,2020.2.10,Win32,60,,,,,,,,,,0,puertorican,0,1,1.50315,0,5,5,33,1,34,./stim/wavs/andalusian_mismatch_declarative-broad-focus_El-hombre-mira-la-luna.wav,./stim/wavs/argentine_mismatch_declarative-broad-focus_El-hombre-mira-la-luna.wav,./stim/wavs/castilian_mismatch_declarative-broad-focus_El-hombre-mira-la-luna.wav,./stim/wavs/chilean_mismatch_declarative-broad-focus_El-hombre-mira-la-luna.wav,./stim/wavs/cuban_mismatch_declarative-broad-focus_El-hombre-mira-la-luna.wav,./stim/wavs/mexican_mismatch_declarative-broad-focus_El-hombre-mira-la-luna.wav,./stim/wavs/peruvian_mismatch_declarative-broad-focus_El-hombre-mira-la-luna.wav,./stim/wavs/puertorican_mismatch_declarative-broad-focus_El-hombre-mira-la-luna.wav,,,,,,,,,,,,,,,,,,,,,,,,,,,,,,,,,,,,,,,,,,,,,,,,,,,,,,,,
,,,,,,,5c59aecb6ca5e600017206de,605b45a4d25f287719a41696,605e1af5e22bfb8fc5290cc2,Mexico,Midwest,13 or older,no,2021-03-26_13h34.06.859,empathy_intonation_perc,2020.2.10,Win32,60,,,,,,,,,,1,mexican,1,1,1.66873,0,6,6,56,1,57,./stim/wavs/andalusian_mismatch_interrogative-total-yn_El-bebe-comia-muy-bien.wav,./stim/wavs/argentine_mismatch_interrogative-total-yn_El-bebe-comia-muy-bien.wav,./stim/wavs/castilian_mismatch_interrogative-total-yn_El-bebe-comia-muy-bien.wav,./stim/wavs/chilean_mismatch_interrogative-total-yn_El-bebe-comia-muy-bien.wav,./stim/wavs/cuban_mismatch_interrogative-total-yn_El-bebe-comia-muy-bien.wav,./stim/wavs/mexican_mismatch_interrogative-total-yn_El-bebe-comia-muy-bien.wav,./stim/wavs/peruvian_mismatch_interrogative-total-yn_El-bebe-comia-muy-bien.wav,./stim/wavs/puertorican_mismatch_interrogative-total-yn_El-bebe-comia-muy-bien.wav,,,,,,,,,,,,,,,,,,,,,,,,,,,,,,,,,,,,,,,,,,,,,,,,,,,,,,,,
,,,,,,,5c59aecb6ca5e600017206de,605b45a4d25f287719a41696,605e1af5e22bfb8fc5290cc2,Mexico,Midwest,13 or older,no,2021-03-26_13h34.06.859,empathy_intonation_perc,2020.2.10,Win32,60,,,,,,,,,,0,cuban,0,1,1.654485,0,7,7,10,1,11,./stim/wavs/andalusian_match_declarative-narrow-focus_David-leia-el-libro.wav,./stim/wavs/argentine_match_declarative-narrow-focus_David-leia-el-libro.wav,./stim/wavs/castilian_match_declarative-narrow-focus_David-leia-el-libro.wav,./stim/wavs/chilean_match_declarative-narrow-focus_David-leia-el-libro.wav,./stim/wavs/cuban_match_declarative-narrow-focus_David-leia-el-libro.wav,./stim/wavs/mexican_match_declarative-narrow-focus_David-leia-el-libro.wav,./stim/wavs/peruvian_match_declarative-narrow-focus_David-leia-el-libro.wav,./stim/wavs/puertorican_match_declarative-narrow-focus_David-leia-el-libro.wav,,,,,,,,,,,,,,,,,,,,,,,,,,,,,,,,,,,,,,,,,,,,,,,,,,,,,,,,
,,,,,,,5c59aecb6ca5e600017206de,605b45a4d25f287719a41696,605e1af5e22bfb8fc5290cc2,Mexico,Midwest,13 or older,no,2021-03-26_13h34.06.859,empathy_intonation_perc,2020.2.10,Win32,60,,,,,,,,,,1,argentine,0,0,4.020905,0,8,8,23,1,24,./stim/wavs/andalusian_match_interrogative-partial-wh_Por-que-iba-a-Bolivia.wav,./stim/wavs/argentine_match_interrogative-partial-wh_Por-que-iba-a-Bolivia.wav,./stim/wavs/castilian_match_interrogative-partial-wh_Por-que-iba-a-Bolivia.wav,./stim/wavs/chilean_match_interrogative-partial-wh_Por-que-iba-a-Bolivia.wav,./stim/wavs/cuban_match_interrogative-partial-wh_Por-que-iba-a-Bolivia.wav,./stim/wavs/mexican_match_interrogative-partial-wh_Por-que-iba-a-Bolivia.wav,./stim/wavs/peruvian_match_interrogative-partial-wh_Por-que-iba-a-Bolivia.wav,./stim/wavs/puertorican_match_interrogative-partial-wh_Por-que-iba-a-Bolivia.wav,,,,,,,,,,,,,,,,,,,,,,,,,,,,,,,,,,,,,,,,,,,,,,,,,,,,,,,,
,,,,,,,5c59aecb6ca5e600017206de,605b45a4d25f287719a41696,605e1af5e22bfb8fc5290cc2,Mexico,Midwest,13 or older,no,2021-03-26_13h34.06.859,empathy_intonation_perc,2020.2.10,Win32,60,,,,,,,,,,0,castilian,0,1,1.603675,0,9,9,8,1,9,./stim/wavs/andalusian_match_declarative-narrow-focus_Ana-lleva-el-abrigo.wav,./stim/wavs/argentine_match_declarative-narrow-focus_Ana-lleva-el-abrigo.wav,./stim/wavs/castilian_match_declarative-narrow-focus_Ana-lleva-el-abrigo.wav,./stim/wavs/chilean_match_declarative-narrow-focus_Ana-lleva-el-abrigo.wav,./stim/wavs/cuban_match_declarative-narrow-focus_Ana-lleva-el-abrigo.wav,./stim/wavs/mexican_match_declarative-narrow-focus_Ana-lleva-el-abrigo.wav,./stim/wavs/peruvian_match_declarative-narrow-focus_Ana-lleva-el-abrigo.wav,./stim/wavs/puertorican_match_declarative-narrow-focus_Ana-lleva-el-abrigo.wav,,,,,,,,,,,,,,,,,,,,,,,,,,,,,,,,,,,,,,,,,,,,,,,,,,,,,,,,
,,,,,,,5c59aecb6ca5e600017206de,605b45a4d25f287719a41696,605e1af5e22bfb8fc5290cc2,Mexico,Midwest,13 or older,no,2021-03-26_13h34.06.859,empathy_intonation_perc,2020.2.10,Win32,60,,,,,,,,,,1,peruvian,1,1,2.187995,0,10,10,31,1,32,./stim/wavs/andalusian_match_interrogative-total-yn_Marta-abre-el-regalo.wav,./stim/wavs/argentine_match_interrogative-total-yn_Marta-abre-el-regalo.wav,./stim/wavs/castilian_match_interrogative-total-yn_Marta-abre-el-regalo.wav,./stim/wavs/chilean_match_interrogative-total-yn_Marta-abre-el-regalo.wav,./stim/wavs/cuban_match_interrogative-total-yn_Marta-abre-el-regalo.wav,./stim/wavs/mexican_match_interrogative-total-yn_Marta-abre-el-regalo.wav,./stim/wavs/peruvian_match_interrogative-total-yn_Marta-abre-el-regalo.wav,./stim/wavs/puertorican_match_interrogative-total-yn_Marta-abre-el-regalo.wav,,,,,,,,,,,,,,,,,,,,,,,,,,,,,,,,,,,,,,,,,,,,,,,,,,,,,,,,
,,,,,,,5c59aecb6ca5e600017206de,605b45a4d25f287719a41696,605e1af5e22bfb8fc5290cc2,Mexico,Midwest,13 or older,no,2021-03-26_13h34.06.859,empathy_intonation_perc,2020.2.10,Win32,60,,,,,,,,,,1,puertorican,0,0,1.957355,0,11,11,26,1,27,./stim/wavs/andalusian_match_interrogative-total-yn_David-leia-el-libro.wav,./stim/wavs/argentine_match_interrogative-total-yn_David-leia-el-libro.wav,./stim/wavs/castilian_match_interrogative-total-yn_David-leia-el-libro.wav,./stim/wavs/chilean_match_interrogative-total-yn_David-leia-el-libro.wav,./stim/wavs/cuban_match_interrogative-total-yn_David-leia-el-libro.wav,./stim/wavs/mexican_match_interrogative-total-yn_David-leia-el-libro.wav,./stim/wavs/peruvian_match_interrogative-total-yn_David-leia-el-libro.wav,./stim/wavs/puertorican_match_interrogative-total-yn_David-leia-el-libro.wav,,,,,,,,,,,,,,,,,,,,,,,,,,,,,,,,,,,,,,,,,,,,,,,,,,,,,,,,
,,,,,,,5c59aecb6ca5e600017206de,605b45a4d25f287719a41696,605e1af5e22bfb8fc5290cc2,Mexico,Midwest,13 or older,no,2021-03-26_13h34.06.859,empathy_intonation_perc,2020.2.10,Win32,60,,,,,,,,,,0,andalusian,0,1,1.6517,0,12,12,15,1,16,./stim/wavs/andalusian_match_declarative-narrow-focus_Marta-abre-el-regalo.wav,./stim/wavs/argentine_match_declarative-narrow-focus_Marta-abre-el-regalo.wav,./stim/wavs/castilian_match_declarative-narrow-focus_Marta-abre-el-regalo.wav,./stim/wavs/chilean_match_declarative-narrow-focus_Marta-abre-el-regalo.wav,./stim/wavs/cuban_match_declarative-narrow-focus_Marta-abre-el-regalo.wav,./stim/wavs/mexican_match_declarative-narrow-focus_Marta-abre-el-regalo.wav,./stim/wavs/peruvian_match_declarative-narrow-focus_Marta-abre-el-regalo.wav,./stim/wavs/puertorican_match_declarative-narrow-focus_Marta-abre-el-regalo.wav,,,,,,,,,,,,,,,,,,,,,,,,,,,,,,,,,,,,,,,,,,,,,,,,,,,,,,,,
,,,,,,,5c59aecb6ca5e600017206de,605b45a4d25f287719a41696,605e1af5e22bfb8fc5290cc2,Mexico,Midwest,13 or older,no,2021-03-26_13h34.06.859,empathy_intonation_perc,2020.2.10,Win32,60,,,,,,,,,,1,castilian,1,1,1.83871,0,13,13,28,1,29,./stim/wavs/andalusian_match_interrogative-total-yn_Manuela-vende-el-carro.wav,./stim/wavs/argentine_match_interrogative-total-yn_Manuela-vende-el-carro.wav,./stim/wavs/castilian_match_interrogative-total-yn_Manuela-vende-el-carro.wav,./stim/wavs/chilean_match_interrogative-total-yn_Manuela-vende-el-carro.wav,./stim/wavs/cuban_match_interrogative-total-yn_Manuela-vende-el-carro.wav,./stim/wavs/mexican_match_interrogative-total-yn_Manuela-vende-el-carro.wav,./stim/wavs/peruvian_match_interrogative-total-yn_Manuela-vende-el-carro.wav,./stim/wavs/puertorican_match_interrogative-total-yn_Manuela-vende-el-carro.wav,,,,,,,,,,,,,,,,,,,,,,,,,,,,,,,,,,,,,,,,,,,,,,,,,,,,,,,,
,,,,,,,5c59aecb6ca5e600017206de,605b45a4d25f287719a41696,605e1af5e22bfb8fc5290cc2,Mexico,Midwest,13 or older,no,2021-03-26_13h34.06.859,empathy_intonation_perc,2020.2.10,Win32,60,,,,,,,,,,1,andalusian,0,0,4.720165,0,14,14,52,1,53,./stim/wavs/andalusian_mismatch_interrogative-partial-wh_Por-que-odiaba-la-lluvia.wav,./stim/wavs/argentine_mismatch_interrogative-partial-wh_Por-que-odiaba-la-lluvia.wav,./stim/wavs/castilian_mismatch_interrogative-partial-wh_Por-que-odiaba-la-lluvia.wav,./stim/wavs/chilean_mismatch_interrogative-partial-wh_Por-que-odiaba-la-lluvia.wav,./stim/wavs/cuban_mismatch_interrogative-partial-wh_Por-que-odiaba-la-lluvia.wav,./stim/wavs/mexican_mismatch_interrogative-partial-wh_Por-que-odiaba-la-lluvia.wav,./stim/wavs/peruvian_mismatch_interrogative-partial-wh_Por-que-odiaba-la-lluvia.wav,./stim/wavs/puertorican_mismatch_interrogative-partial-wh_Por-que-odiaba-la-lluvia.wav,,,,,,,,,,,,,,,,,,,,,,,,,,,,,,,,,,,,,,,,,,,,,,,,,,,,,,,,
,,,,,,,5c59aecb6ca5e600017206de,605b45a4d25f287719a41696,605e1af5e22bfb8fc5290cc2,Mexico,Midwest,13 or older,no,2021-03-26_13h34.06.859,empathy_intonation_perc,2020.2.10,Win32,60,,,,,,,,,,0,andalusian,0,1,2.21899,0,15,15,5,1,6,./stim/wavs/andalusian_match_declarative-broad-focus_Maria-bebe-el-vino.wav,./stim/wavs/argentine_match_declarative-broad-focus_Maria-bebe-el-vino.wav,./stim/wavs/castilian_match_declarative-broad-focus_Maria-bebe-el-vino.wav,./stim/wavs/chilean_match_declarative-broad-focus_Maria-bebe-el-vino.wav,./stim/wavs/cuban_match_declarative-broad-focus_Maria-bebe-el-vino.wav,./stim/wavs/mexican_match_declarative-broad-focus_Maria-bebe-el-vino.wav,./stim/wavs/peruvian_match_declarative-broad-focus_Maria-bebe-el-vino.wav,./stim/wavs/puertorican_match_declarative-broad-focus_Maria-bebe-el-vino.wav,,,,,,,,,,,,,,,,,,,,,,,,,,,,,,,,,,,,,,,,,,,,,,,,,,,,,,,,
,,,,,,,5c59aecb6ca5e600017206de,605b45a4d25f287719a41696,605e1af5e22bfb8fc5290cc2,Mexico,Midwest,13 or older,no,2021-03-26_13h34.06.859,empathy_intonation_perc,2020.2.10,Win32,60,,,,,,,,,,0,puertorican,0,1,1.96873,0,16,16,37,1,38,./stim/wavs/andalusian_mismatch_declarative-broad-focus_Mi-madre-come-la-fruta.wav,./stim/wavs/argentine_mismatch_declarative-broad-focus_Mi-madre-come-la-fruta.wav,./stim/wavs/castilian_mismatch_declarative-broad-focus_Mi-madre-come-la-fruta.wav,./stim/wavs/chilean_mismatch_declarative-broad-focus_Mi-madre-come-la-fruta.wav,./stim/wavs/cuban_mismatch_declarative-broad-focus_Mi-madre-come-la-fruta.wav,./stim/wavs/mexican_mismatch_declarative-broad-focus_Mi-madre-come-la-fruta.wav,./stim/wavs/peruvian_mismatch_declarative-broad-focus_Mi-madre-come-la-fruta.wav,./stim/wavs/puertorican_mismatch_declarative-broad-focus_Mi-madre-come-la-fruta.wav,,,,,,,,,,,,,,,,,,,,,,,,,,,,,,,,,,,,,,,,,,,,,,,,,,,,,,,,
,,,,,,,5c59aecb6ca5e600017206de,605b45a4d25f287719a41696,605e1af5e22bfb8fc5290cc2,Mexico,Midwest,13 or older,no,2021-03-26_13h34.06.859,empathy_intonation_perc,2020.2.10,Win32,60,,,,,,,,,,0,puertorican,0,1,1.702465,0,17,17,13,1,14,./stim/wavs/andalusian_match_declarative-narrow-focus_Maria-bebe-el-vino.wav,./stim/wavs/argentine_match_declarative-narrow-focus_Maria-bebe-el-vino.wav,./stim/wavs/castilian_match_declarative-narrow-focus_Maria-bebe-el-vino.wav,./stim/wavs/chilean_match_declarative-narrow-focus_Maria-bebe-el-vino.wav,./stim/wavs/cuban_match_declarative-narrow-focus_Maria-bebe-el-vino.wav,./stim/wavs/mexican_match_declarative-narrow-focus_Maria-bebe-el-vino.wav,./stim/wavs/peruvian_match_declarative-narrow-focus_Maria-bebe-el-vino.wav,./stim/wavs/puertorican_match_declarative-narrow-focus_Maria-bebe-el-vino.wav,,,,,,,,,,,,,,,,,,,,,,,,,,,,,,,,,,,,,,,,,,,,,,,,,,,,,,,,
,,,,,,,5c59aecb6ca5e600017206de,605b45a4d25f287719a41696,605e1af5e22bfb8fc5290cc2,Mexico,Midwest,13 or older,no,2021-03-26_13h34.06.859,empathy_intonation_perc,2020.2.10,Win32,60,,,,,,,,,,0,argentine,1,0,1.67856,0,18,18,12,1,13,./stim/wavs/andalusian_match_declarative-narrow-focus_Manuela-vende-el-carro.wav,./stim/wavs/argentine_match_declarative-narrow-focus_Manuela-vende-el-carro.wav,./stim/wavs/castilian_match_declarative-narrow-focus_Manuela-vende-el-carro.wav,./stim/wavs/chilean_match_declarative-narrow-focus_Manuela-vende-el-carro.wav,./stim/wavs/cuban_match_declarative-narrow-focus_Manuela-vende-el-carro.wav,./stim/wavs/mexican_match_declarative-narrow-focus_Manuela-vende-el-carro.wav,./stim/wavs/peruvian_match_declarative-narrow-focus_Manuela-vende-el-carro.wav,./stim/wavs/puertorican_match_declarative-narrow-focus_Manuela-vende-el-carro.wav,,,,,,,,,,,,,,,,,,,,,,,,,,,,,,,,,,,,,,,,,,,,,,,,,,,,,,,,
,,,,,,,5c59aecb6ca5e600017206de,605b45a4d25f287719a41696,605e1af5e22bfb8fc5290cc2,Mexico,Midwest,13 or older,no,2021-03-26_13h34.06.859,empathy_intonation_perc,2020.2.10,Win32,60,,,,,,,,,,0,puertorican,0,1,3.062345,0,19,19,9,1,10,./stim/wavs/andalusian_match_declarative-narrow-focus_Daniel-iba-a-Bolivia.wav,./stim/wavs/argentine_match_declarative-narrow-focus_Daniel-iba-a-Bolivia.wav,./stim/wavs/castilian_match_declarative-narrow-focus_Daniel-iba-a-Bolivia.wav,./stim/wavs/chilean_match_declarative-narrow-focus_Daniel-iba-a-Bolivia.wav,./stim/wavs/cuban_match_declarative-narrow-focus_Daniel-iba-a-Bolivia.wav,./stim/wavs/mexican_match_declarative-narrow-focus_Daniel-iba-a-Bolivia.wav,./stim/wavs/peruvian_match_declarative-narrow-focus_Daniel-iba-a-Bolivia.wav,./stim/wavs/puertorican_match_declarative-narrow-focus_Daniel-iba-a-Bolivia.wav,,,,,,,,,,,,,,,,,,,,,,,,,,,,,,,,,,,,,,,,,,,,,,,,,,,,,,,,
,,,,,,,5c59aecb6ca5e600017206de,605b45a4d25f287719a41696,605e1af5e22bfb8fc5290cc2,Mexico,Midwest,13 or older,no,2021-03-26_13h34.06.859,empathy_intonation_perc,2020.2.10,Win32,60,,,,,,,,,,0,mexican,0,1,2.955285,0,20,20,7,1,8,./stim/wavs/andalusian_match_declarative-broad-focus_Marta-abre-el-regalo.wav,./stim/wavs/argentine_match_declarative-broad-focus_Marta-abre-el-regalo.wav,./stim/wavs/castilian_match_declarative-broad-focus_Marta-abre-el-regalo.wav,./stim/wavs/chilean_match_declarative-broad-focus_Marta-abre-el-regalo.wav,./stim/wavs/cuban_match_declarative-broad-focus_Marta-abre-el-regalo.wav,./stim/wavs/mexican_match_declarative-broad-focus_Marta-abre-el-regalo.wav,./stim/wavs/peruvian_match_declarative-broad-focus_Marta-abre-el-regalo.wav,./stim/wavs/puertorican_match_declarative-broad-focus_Marta-abre-el-regalo.wav,,,,,,,,,,,,,,,,,,,,,,,,,,,,,,,,,,,,,,,,,,,,,,,,,,,,,,,,
,,,,,,,5c59aecb6ca5e600017206de,605b45a4d25f287719a41696,605e1af5e22bfb8fc5290cc2,Mexico,Midwest,13 or older,no,2021-03-26_13h34.06.859,empathy_intonation_perc,2020.2.10,Win32,60,,,,,,,,,,1,peruvian,1,1,1.951925,0,21,21,22,1,23,./stim/wavs/andalusian_match_interrogative-partial-wh_Por-que-hablaba-del-agua.wav,./stim/wavs/argentine_match_interrogative-partial-wh_Por-que-hablaba-del-agua.wav,./stim/wavs/castilian_match_interrogative-partial-wh_Por-que-hablaba-del-agua.wav,./stim/wavs/chilean_match_interrogative-partial-wh_Por-que-hablaba-del-agua.wav,./stim/wavs/cuban_match_interrogative-partial-wh_Por-que-hablaba-del-agua.wav,./stim/wavs/mexican_match_interrogative-partial-wh_Por-que-hablaba-del-agua.wav,./stim/wavs/peruvian_match_interrogative-partial-wh_Por-que-hablaba-del-agua.wav,./stim/wavs/puertorican_match_interrogative-partial-wh_Por-que-hablaba-del-agua.wav,,,,,,,,,,,,,,,,,,,,,,,,,,,,,,,,,,,,,,,,,,,,,,,,,,,,,,,,
,,,,,,,5c59aecb6ca5e600017206de,605b45a4d25f287719a41696,605e1af5e22bfb8fc5290cc2,Mexico,Midwest,13 or older,no,2021-03-26_13h34.06.859,empathy_intonation_perc,2020.2.10,Win32,60,,,,,,,,,,0,castilian,1,0,2.05243,0,22,22,32,1,33,./stim/wavs/andalusian_mismatch_declarative-broad-focus_El-bebe-comia-muy-bien.wav,./stim/wavs/argentine_mismatch_declarative-broad-focus_El-bebe-comia-muy-bien.wav,./stim/wavs/castilian_mismatch_declarative-broad-focus_El-bebe-comia-muy-bien.wav,./stim/wavs/chilean_mismatch_declarative-broad-focus_El-bebe-comia-muy-bien.wav,./stim/wavs/cuban_mismatch_declarative-broad-focus_El-bebe-comia-muy-bien.wav,./stim/wavs/mexican_mismatch_declarative-broad-focus_El-bebe-comia-muy-bien.wav,./stim/wavs/peruvian_mismatch_declarative-broad-focus_El-bebe-comia-muy-bien.wav,./stim/wavs/puertorican_mismatch_declarative-broad-focus_El-bebe-comia-muy-bien.wav,,,,,,,,,,,,,,,,,,,,,,,,,,,,,,,,,,,,,,,,,,,,,,,,,,,,,,,,
,,,,,,,5c59aecb6ca5e600017206de,605b45a4d25f287719a41696,605e1af5e22bfb8fc5290cc2,Mexico,Midwest,13 or older,no,2021-03-26_13h34.06.859,empathy_intonation_perc,2020.2.10,Win32,60,,,,,,,,,,0,castilian,0,1,2.55252,0,23,23,35,1,36,./stim/wavs/andalusian_mismatch_declarative-broad-focus_La-maestra-vive-en-Paris.wav,./stim/wavs/argentine_mismatch_declarative-broad-focus_La-maestra-vive-en-Paris.wav,./stim/wavs/castilian_mismatch_declarative-broad-focus_La-maestra-vive-en-Paris.wav,./stim/wavs/chilean_mismatch_declarative-broad-focus_La-maestra-vive-en-Paris.wav,./stim/wavs/cuban_mismatch_declarative-broad-focus_La-maestra-vive-en-Paris.wav,./stim/wavs/mexican_mismatch_declarative-broad-focus_La-maestra-vive-en-Paris.wav,./stim/wavs/peruvian_mismatch_declarative-broad-focus_La-maestra-vive-en-Paris.wav,./stim/wavs/puertorican_mismatch_declarative-broad-focus_La-maestra-vive-en-Paris.wav,,,,,,,,,,,,,,,,,,,,,,,,,,,,,,,,,,,,,,,,,,,,,,,,,,,,,,,,
,,,,,,,5c59aecb6ca5e600017206de,605b45a4d25f287719a41696,605e1af5e22bfb8fc5290cc2,Mexico,Midwest,13 or older,no,2021-03-26_13h34.06.859,empathy_intonation_perc,2020.2.10,Win32,60,,,,,,,,,,0,argentine,0,1,1.484835,0,24,24,43,1,44,./stim/wavs/andalusian_mismatch_declarative-narrow-focus_La-maestra-vive-en-Paris.wav,./stim/wavs/argentine_mismatch_declarative-narrow-focus_La-maestra-vive-en-Paris.wav,./stim/wavs/castilian_mismatch_declarative-narrow-focus_La-maestra-vive-en-Paris.wav,./stim/wavs/chilean_mismatch_declarative-narrow-focus_La-maestra-vive-en-Paris.wav,./stim/wavs/cuban_mismatch_declarative-narrow-focus_La-maestra-vive-en-Paris.wav,./stim/wavs/mexican_mismatch_declarative-narrow-focus_La-maestra-vive-en-Paris.wav,./stim/wavs/peruvian_mismatch_declarative-narrow-focus_La-maestra-vive-en-Paris.wav,./stim/wavs/puertorican_mismatch_declarative-narrow-focus_La-maestra-vive-en-Paris.wav,,,,,,,,,,,,,,,,,,,,,,,,,,,,,,,,,,,,,,,,,,,,,,,,,,,,,,,,
,,,,,,,5c59aecb6ca5e600017206de,605b45a4d25f287719a41696,605e1af5e22bfb8fc5290cc2,Mexico,Midwest,13 or older,no,2021-03-26_13h34.06.859,empathy_intonation_perc,2020.2.10,Win32,60,,,,,,,,,,1,andalusian,1,1,1.83549,0,25,25,63,1,64,./stim/wavs/andalusian_mismatch_interrogative-total-yn_Mi-tia-odia-la-lluvia.wav,./stim/wavs/argentine_mismatch_interrogative-total-yn_Mi-tia-odia-la-lluvia.wav,./stim/wavs/castilian_mismatch_interrogative-total-yn_Mi-tia-odia-la-lluvia.wav,./stim/wavs/chilean_mismatch_interrogative-total-yn_Mi-tia-odia-la-lluvia.wav,./stim/wavs/cuban_mismatch_interrogative-total-yn_Mi-tia-odia-la-lluvia.wav,./stim/wavs/mexican_mismatch_interrogative-total-yn_Mi-tia-odia-la-lluvia.wav,./stim/wavs/peruvian_mismatch_interrogative-total-yn_Mi-tia-odia-la-lluvia.wav,./stim/wavs/puertorican_mismatch_interrogative-total-yn_Mi-tia-odia-la-lluvia.wav,,,,,,,,,,,,,,,,,,,,,,,,,,,,,,,,,,,,,,,,,,,,,,,,,,,,,,,,
,,,,,,,5c59aecb6ca5e600017206de,605b45a4d25f287719a41696,605e1af5e22bfb8fc5290cc2,Mexico,Midwest,13 or older,no,2021-03-26_13h34.06.859,empathy_intonation_perc,2020.2.10,Win32,60,,,,,,,,,,0,mexican,0,1,2.237905,0,26,26,42,1,43,./stim/wavs/andalusian_mismatch_declarative-narrow-focus_El-nino-oye-el-rio.wav,./stim/wavs/argentine_mismatch_declarative-narrow-focus_El-nino-oye-el-rio.wav,./stim/wavs/castilian_mismatch_declarative-narrow-focus_El-nino-oye-el-rio.wav,./stim/wavs/chilean_mismatch_declarative-narrow-focus_El-nino-oye-el-rio.wav,./stim/wavs/cuban_mismatch_declarative-narrow-focus_El-nino-oye-el-rio.wav,./stim/wavs/mexican_mismatch_declarative-narrow-focus_El-nino-oye-el-rio.wav,./stim/wavs/peruvian_mismatch_declarative-narrow-focus_El-nino-oye-el-rio.wav,./stim/wavs/puertorican_mismatch_declarative-narrow-focus_El-nino-oye-el-rio.wav,,,,,,,,,,,,,,,,,,,,,,,,,,,,,,,,,,,,,,,,,,,,,,,,,,,,,,,,
,,,,,,,5c59aecb6ca5e600017206de,605b45a4d25f287719a41696,605e1af5e22bfb8fc5290cc2,Mexico,Midwest,13 or older,no,2021-03-26_13h34.06.859,empathy_intonation_perc,2020.2.10,Win32,60,,,,,,,,,,0,castilian,0,1,1.843925,0,27,27,3,1,4,./stim/wavs/andalusian_match_declarative-broad-focus_Emilio-ama-la-marcha.wav,./stim/wavs/argentine_match_declarative-broad-focus_Emilio-ama-la-marcha.wav,./stim/wavs/castilian_match_declarative-broad-focus_Emilio-ama-la-marcha.wav,./stim/wavs/chilean_match_declarative-broad-focus_Emilio-ama-la-marcha.wav,./stim/wavs/cuban_match_declarative-broad-focus_Emilio-ama-la-marcha.wav,./stim/wavs/mexican_match_declarative-broad-focus_Emilio-ama-la-marcha.wav,./stim/wavs/peruvian_match_declarative-broad-focus_Emilio-ama-la-marcha.wav,./stim/wavs/puertorican_match_declarative-broad-focus_Emilio-ama-la-marcha.wav,,,,,,,,,,,,,,,,,,,,,,,,,,,,,,,,,,,,,,,,,,,,,,,,,,,,,,,,
,,,,,,,5c59aecb6ca5e600017206de,605b45a4d25f287719a41696,605e1af5e22bfb8fc5290cc2,Mexico,Midwest,13 or older,no,2021-03-26_13h34.06.859,empathy_intonation_perc,2020.2.10,Win32,60,,,,,,,,,,0,castilian,0,1,1.53512,0,28,28,41,1,42,./stim/wavs/andalusian_mismatch_declarative-narrow-focus_El-hombre-mira-la-luna.wav,./stim/wavs/argentine_mismatch_declarative-narrow-focus_El-hombre-mira-la-luna.wav,./stim/wavs/castilian_mismatch_declarative-narrow-focus_El-hombre-mira-la-luna.wav,./stim/wavs/chilean_mismatch_declarative-narrow-focus_El-hombre-mira-la-luna.wav,./stim/wavs/cuban_mismatch_declarative-narrow-focus_El-hombre-mira-la-luna.wav,./stim/wavs/mexican_mismatch_declarative-narrow-focus_El-hombre-mira-la-luna.wav,./stim/wavs/peruvian_mismatch_declarative-narrow-focus_El-hombre-mira-la-luna.wav,./stim/wavs/puertorican_mismatch_declarative-narrow-focus_El-hombre-mira-la-luna.wav,,,,,,,,,,,,,,,,,,,,,,,,,,,,,,,,,,,,,,,,,,,,,,,,,,,,,,,,
,,,,,,,5c59aecb6ca5e600017206de,605b45a4d25f287719a41696,605e1af5e22bfb8fc5290cc2,Mexico,Midwest,13 or older,no,2021-03-26_13h34.06.859,empathy_intonation_perc,2020.2.10,Win32,60,,,,,,,,,,1,puertorican,1,1,1.360305,0,29,29,50,1,51,./stim/wavs/andalusian_mismatch_interrogative-partial-wh_Cuando-miraba-la-luna.wav,./stim/wavs/argentine_mismatch_interrogative-partial-wh_Cuando-miraba-la-luna.wav,./stim/wavs/castilian_mismatch_interrogative-partial-wh_Cuando-miraba-la-luna.wav,./stim/wavs/chilean_mismatch_interrogative-partial-wh_Cuando-miraba-la-luna.wav,./stim/wavs/cuban_mismatch_interrogative-partial-wh_Cuando-miraba-la-luna.wav,./stim/wavs/mexican_mismatch_interrogative-partial-wh_Cuando-miraba-la-luna.wav,./stim/wavs/peruvian_mismatch_interrogative-partial-wh_Cuando-miraba-la-luna.wav,./stim/wavs/puertorican_mismatch_interrogative-partial-wh_Cuando-miraba-la-luna.wav,,,,,,,,,,,,,,,,,,,,,,,,,,,,,,,,,,,,,,,,,,,,,,,,,,,,,,,,
,,,,,,,5c59aecb6ca5e600017206de,605b45a4d25f287719a41696,605e1af5e22bfb8fc5290cc2,Mexico,Midwest,13 or older,no,2021-03-26_13h34.06.859,empathy_intonation_perc,2020.2.10,Win32,60,,,,,,,,,,1,chilean,0,0,1.59517,0,30,30,29,1,30,./stim/wavs/andalusian_match_interrogative-total-yn_Maria-bebe-el-vino.wav,./stim/wavs/argentine_match_interrogative-total-yn_Maria-bebe-el-vino.wav,./stim/wavs/castilian_match_interrogative-total-yn_Maria-bebe-el-vino.wav,./stim/wavs/chilean_match_interrogative-total-yn_Maria-bebe-el-vino.wav,./stim/wavs/cuban_match_interrogative-total-yn_Maria-bebe-el-vino.wav,./stim/wavs/mexican_match_interrogative-total-yn_Maria-bebe-el-vino.wav,./stim/wavs/peruvian_match_interrogative-total-yn_Maria-bebe-el-vino.wav,./stim/wavs/puertorican_match_interrogative-total-yn_Maria-bebe-el-vino.wav,,,,,,,,,,,,,,,,,,,,,,,,,,,,,,,,,,,,,,,,,,,,,,,,,,,,,,,,
,,,,,,,5c59aecb6ca5e600017206de,605b45a4d25f287719a41696,605e1af5e22bfb8fc5290cc2,Mexico,Midwest,13 or older,no,2021-03-26_13h34.06.859,empathy_intonation_perc,2020.2.10,Win32,60,,,,,,,,,,0,argentine,0,1,1.60506,0,31,31,36,1,37,./stim/wavs/andalusian_mismatch_declarative-broad-focus_La-nina-lava-el-plato.wav,./stim/wavs/argentine_mismatch_declarative-broad-focus_La-nina-lava-el-plato.wav,./stim/wavs/castilian_mismatch_declarative-broad-focus_La-nina-lava-el-plato.wav,./stim/wavs/chilean_mismatch_declarative-broad-focus_La-nina-lava-el-plato.wav,./stim/wavs/cuban_mismatch_declarative-broad-focus_La-nina-lava-el-plato.wav,./stim/wavs/mexican_mismatch_declarative-broad-focus_La-nina-lava-el-plato.wav,./stim/wavs/peruvian_mismatch_declarative-broad-focus_La-nina-lava-el-plato.wav,./stim/wavs/puertorican_mismatch_declarative-broad-focus_La-nina-lava-el-plato.wav,,,,,,,,,,,,,,,,,,,,,,,,,,,,,,,,,,,,,,,,,,,,,,,,,,,,,,,,
,,,,,,,5c59aecb6ca5e600017206de,605b45a4d25f287719a41696,605e1af5e22bfb8fc5290cc2,Mexico,Midwest,13 or older,no,2021-03-26_13h34.06.859,empathy_intonation_perc,2020.2.10,Win32,60,,,,,,,,,,1,castilian,1,1,1.918745,0,32,32,58,1,59,./stim/wavs/andalusian_mismatch_interrogative-total-yn_El-nino-oye-el-rio.wav,./stim/wavs/argentine_mismatch_interrogative-total-yn_El-nino-oye-el-rio.wav,./stim/wavs/castilian_mismatch_interrogative-total-yn_El-nino-oye-el-rio.wav,./stim/wavs/chilean_mismatch_interrogative-total-yn_El-nino-oye-el-rio.wav,./stim/wavs/cuban_mismatch_interrogative-total-yn_El-nino-oye-el-rio.wav,./stim/wavs/mexican_mismatch_interrogative-total-yn_El-nino-oye-el-rio.wav,./stim/wavs/peruvian_mismatch_interrogative-total-yn_El-nino-oye-el-rio.wav,./stim/wavs/puertorican_mismatch_interrogative-total-yn_El-nino-oye-el-rio.wav,,,,,,,,,,,,,,,,,,,,,,,,,,,,,,,,,,,,,,,,,,,,,,,,,,,,,,,,
,,,,,,,5c59aecb6ca5e600017206de,605b45a4d25f287719a41696,605e1af5e22bfb8fc5290cc2,Mexico,Midwest,13 or older,no,2021-03-26_13h34.06.859,empathy_intonation_perc,2020.2.10,Win32,60,,,,,,,,,,0,peruvian,0,1,2.302485,0,33,33,40,1,41,./stim/wavs/andalusian_mismatch_declarative-narrow-focus_El-bebe-comia-muy-bien.wav,./stim/wavs/argentine_mismatch_declarative-narrow-focus_El-bebe-comia-muy-bien.wav,./stim/wavs/castilian_mismatch_declarative-narrow-focus_El-bebe-comia-muy-bien.wav,./stim/wavs/chilean_mismatch_declarative-narrow-focus_El-bebe-comia-muy-bien.wav,./stim/wavs/cuban_mismatch_declarative-narrow-focus_El-bebe-comia-muy-bien.wav,./stim/wavs/mexican_mismatch_declarative-narrow-focus_El-bebe-comia-muy-bien.wav,./stim/wavs/peruvian_mismatch_declarative-narrow-focus_El-bebe-comia-muy-bien.wav,./stim/wavs/puertorican_mismatch_declarative-narrow-focus_El-bebe-comia-muy-bien.wav,,,,,,,,,,,,,,,,,,,,,,,,,,,,,,,,,,,,,,,,,,,,,,,,,,,,,,,,
,,,,,,,5c59aecb6ca5e600017206de,605b45a4d25f287719a41696,605e1af5e22bfb8fc5290cc2,Mexico,Midwest,13 or older,no,2021-03-26_13h34.06.859,empathy_intonation_perc,2020.2.10,Win32,60,,,,,,,,,,0,puertorican,0,1,1.46821,0,34,34,0,1,1,./stim/wavs/andalusian_match_declarative-broad-focus_Ana-lleva-el-abrigo.wav,./stim/wavs/argentine_match_declarative-broad-focus_Ana-lleva-el-abrigo.wav,./stim/wavs/castilian_match_declarative-broad-focus_Ana-lleva-el-abrigo.wav,./stim/wavs/chilean_match_declarative-broad-focus_Ana-lleva-el-abrigo.wav,./stim/wavs/cuban_match_declarative-broad-focus_Ana-lleva-el-abrigo.wav,./stim/wavs/mexican_match_declarative-broad-focus_Ana-lleva-el-abrigo.wav,./stim/wavs/peruvian_match_declarative-broad-focus_Ana-lleva-el-abrigo.wav,./stim/wavs/puertorican_match_declarative-broad-focus_Ana-lleva-el-abrigo.wav,,,,,,,,,,,,,,,,,,,,,,,,,,,,,,,,,,,,,,,,,,,,,,,,,,,,,,,,
,,,,,,,5c59aecb6ca5e600017206de,605b45a4d25f287719a41696,605e1af5e22bfb8fc5290cc2,Mexico,Midwest,13 or older,no,2021-03-26_13h34.06.859,empathy_intonation_perc,2020.2.10,Win32,60,,,,,,,,,,0,castilian,1,0,1.63661,0,35,35,45,1,46,./stim/wavs/andalusian_mismatch_declarative-narrow-focus_Mi-madre-come-la-fruta.wav,./stim/wavs/argentine_mismatch_declarative-narrow-focus_Mi-madre-come-la-fruta.wav,./stim/wavs/castilian_mismatch_declarative-narrow-focus_Mi-madre-come-la-fruta.wav,./stim/wavs/chilean_mismatch_declarative-narrow-focus_Mi-madre-come-la-fruta.wav,./stim/wavs/cuban_mismatch_declarative-narrow-focus_Mi-madre-come-la-fruta.wav,./stim/wavs/mexican_mismatch_declarative-narrow-focus_Mi-madre-come-la-fruta.wav,./stim/wavs/peruvian_mismatch_declarative-narrow-focus_Mi-madre-come-la-fruta.wav,./stim/wavs/puertorican_mismatch_declarative-narrow-focus_Mi-madre-come-la-fruta.wav,,,,,,,,,,,,,,,,,,,,,,,,,,,,,,,,,,,,,,,,,,,,,,,,,,,,,,,,
,,,,,,,5c59aecb6ca5e600017206de,605b45a4d25f287719a41696,605e1af5e22bfb8fc5290cc2,Mexico,Midwest,13 or older,no,2021-03-26_13h34.06.859,empathy_intonation_perc,2020.2.10,Win32,60,,,,,,,,,,1,chilean,1,1,1.65292,0,36,36,51,1,52,./stim/wavs/andalusian_mismatch_interrogative-partial-wh_Por-que-desayuna-muy-bien.wav,./stim/wavs/argentine_mismatch_interrogative-partial-wh_Por-que-desayuna-muy-bien.wav,./stim/wavs/castilian_mismatch_interrogative-partial-wh_Por-que-desayuna-muy-bien.wav,./stim/wavs/chilean_mismatch_interrogative-partial-wh_Por-que-desayuna-muy-bien.wav,./stim/wavs/cuban_mismatch_interrogative-partial-wh_Por-que-desayuna-muy-bien.wav,./stim/wavs/mexican_mismatch_interrogative-partial-wh_Por-que-desayuna-muy-bien.wav,./stim/wavs/peruvian_mismatch_interrogative-partial-wh_Por-que-desayuna-muy-bien.wav,./stim/wavs/puertorican_mismatch_interrogative-partial-wh_Por-que-desayuna-muy-bien.wav,,,,,,,,,,,,,,,,,,,,,,,,,,,,,,,,,,,,,,,,,,,,,,,,,,,,,,,,
,,,,,,,5c59aecb6ca5e600017206de,605b45a4d25f287719a41696,605e1af5e22bfb8fc5290cc2,Mexico,Midwest,13 or older,no,2021-03-26_13h34.06.859,empathy_intonation_perc,2020.2.10,Win32,60,,,,,,,,,,1,castilian,1,1,1.68486,0,37,37,18,1,19,./stim/wavs/andalusian_match_interrogative-partial-wh_Cuando-lleva-el-abrigo.wav,./stim/wavs/argentine_match_interrogative-partial-wh_Cuando-lleva-el-abrigo.wav,./stim/wavs/castilian_match_interrogative-partial-wh_Cuando-lleva-el-abrigo.wav,./stim/wavs/chilean_match_interrogative-partial-wh_Cuando-lleva-el-abrigo.wav,./stim/wavs/cuban_match_interrogative-partial-wh_Cuando-lleva-el-abrigo.wav,./stim/wavs/mexican_match_interrogative-partial-wh_Cuando-lleva-el-abrigo.wav,./stim/wavs/peruvian_match_interrogative-partial-wh_Cuando-lleva-el-abrigo.wav,./stim/wavs/puertorican_match_interrogative-partial-wh_Cuando-lleva-el-abrigo.wav,,,,,,,,,,,,,,,,,,,,,,,,,,,,,,,,,,,,,,,,,,,,,,,,,,,,,,,,
,,,,,,,5c59aecb6ca5e600017206de,605b45a4d25f287719a41696,605e1af5e22bfb8fc5290cc2,Mexico,Midwest,13 or older,no,2021-03-26_13h34.06.859,empathy_intonation_perc,2020.2.10,Win32,60,,,,,,,,,,0,mexican,0,1,2.00937,0,38,38,14,1,15,./stim/wavs/andalusian_match_declarative-narrow-focus_Mariano-habla-del-tiempo.wav,./stim/wavs/argentine_match_declarative-narrow-focus_Mariano-habla-del-tiempo.wav,./stim/wavs/castilian_match_declarative-narrow-focus_Mariano-habla-del-tiempo.wav,./stim/wavs/chilean_match_declarative-narrow-focus_Mariano-habla-del-tiempo.wav,./stim/wavs/cuban_match_declarative-narrow-focus_Mariano-habla-del-tiempo.wav,./stim/wavs/mexican_match_declarative-narrow-focus_Mariano-habla-del-tiempo.wav,./stim/wavs/peruvian_match_declarative-narrow-focus_Mariano-habla-del-tiempo.wav,./stim/wavs/puertorican_match_declarative-narrow-focus_Mariano-habla-del-tiempo.wav,,,,,,,,,,,,,,,,,,,,,,,,,,,,,,,,,,,,,,,,,,,,,,,,,,,,,,,,
,,,,,,,5c59aecb6ca5e600017206de,605b45a4d25f287719a41696,605e1af5e22bfb8fc5290cc2,Mexico,Midwest,13 or older,no,2021-03-26_13h34.06.859,empathy_intonation_perc,2020.2.10,Win32,60,,,,,,,,,,1,argentine,1,1,1.553935,0,39,39,48,1,49,./stim/wavs/andalusian_mismatch_interrogative-partial-wh_Cuando-comia-la-fruta.wav,./stim/wavs/argentine_mismatch_interrogative-partial-wh_Cuando-comia-la-fruta.wav,./stim/wavs/castilian_mismatch_interrogative-partial-wh_Cuando-comia-la-fruta.wav,./stim/wavs/chilean_mismatch_interrogative-partial-wh_Cuando-comia-la-fruta.wav,./stim/wavs/cuban_mismatch_interrogative-partial-wh_Cuando-comia-la-fruta.wav,./stim/wavs/mexican_mismatch_interrogative-partial-wh_Cuando-comia-la-fruta.wav,./stim/wavs/peruvian_mismatch_interrogative-partial-wh_Cuando-comia-la-fruta.wav,./stim/wavs/puertorican_mismatch_interrogative-partial-wh_Cuando-comia-la-fruta.wav,,,,,,,,,,,,,,,,,,,,,,,,,,,,,,,,,,,,,,,,,,,,,,,,,,,,,,,,
,,,,,,,5c59aecb6ca5e600017206de,605b45a4d25f287719a41696,605e1af5e22bfb8fc5290cc2,Mexico,Midwest,13 or older,no,2021-03-26_13h34.06.859,empathy_intonation_perc,2020.2.10,Win32,60,,,,,,,,,,0,argentine,0,1,1.453475,0,40,40,11,1,12,./stim/wavs/andalusian_match_declarative-narrow-focus_Emilio-ama-la-marcha.wav,./stim/wavs/argentine_match_declarative-narrow-focus_Emilio-ama-la-marcha.wav,./stim/wavs/castilian_match_declarative-narrow-focus_Emilio-ama-la-marcha.wav,./stim/wavs/chilean_match_declarative-narrow-focus_Emilio-ama-la-marcha.wav,./stim/wavs/cuban_match_declarative-narrow-focus_Emilio-ama-la-marcha.wav,./stim/wavs/mexican_match_declarative-narrow-focus_Emilio-ama-la-marcha.wav,./stim/wavs/peruvian_match_declarative-narrow-focus_Emilio-ama-la-marcha.wav,./stim/wavs/puertorican_match_declarative-narrow-focus_Emilio-ama-la-marcha.wav,,,,,,,,,,,,,,,,,,,,,,,,,,,,,,,,,,,,,,,,,,,,,,,,,,,,,,,,
,,,,,,,5c59aecb6ca5e600017206de,605b45a4d25f287719a41696,605e1af5e22bfb8fc5290cc2,Mexico,Midwest,13 or older,no,2021-03-26_13h34.06.859,empathy_intonation_perc,2020.2.10,Win32,60,,,,,,,,,,1,cuban,1,1,1.428955,0,41,41,49,1,50,./stim/wavs/andalusian_mismatch_interrogative-partial-wh_Cuando-lavaba-el-plato.wav,./stim/wavs/argentine_mismatch_interrogative-partial-wh_Cuando-lavaba-el-plato.wav,./stim/wavs/castilian_mismatch_interrogative-partial-wh_Cuando-lavaba-el-plato.wav,./stim/wavs/chilean_mismatch_interrogative-partial-wh_Cuando-lavaba-el-plato.wav,./stim/wavs/cuban_mismatch_interrogative-partial-wh_Cuando-lavaba-el-plato.wav,./stim/wavs/mexican_mismatch_interrogative-partial-wh_Cuando-lavaba-el-plato.wav,./stim/wavs/peruvian_mismatch_interrogative-partial-wh_Cuando-lavaba-el-plato.wav,./stim/wavs/puertorican_mismatch_interrogative-partial-wh_Cuando-lavaba-el-plato.wav,,,,,,,,,,,,,,,,,,,,,,,,,,,,,,,,,,,,,,,,,,,,,,,,,,,,,,,,
,,,,,,,5c59aecb6ca5e600017206de,605b45a4d25f287719a41696,605e1af5e22bfb8fc5290cc2,Mexico,Midwest,13 or older,no,2021-03-26_13h34.06.859,empathy_intonation_perc,2020.2.10,Win32,60,,,,,,,,,,1,argentine,1,1,1.518405,0,42,42,17,1,18,./stim/wavs/andalusian_match_interrogative-partial-wh_Cuando-leia-el-libro.wav,./stim/wavs/argentine_match_interrogative-partial-wh_Cuando-leia-el-libro.wav,./stim/wavs/castilian_match_interrogative-partial-wh_Cuando-leia-el-libro.wav,./stim/wavs/chilean_match_interrogative-partial-wh_Cuando-leia-el-libro.wav,./stim/wavs/cuban_match_interrogative-partial-wh_Cuando-leia-el-libro.wav,./stim/wavs/mexican_match_interrogative-partial-wh_Cuando-leia-el-libro.wav,./stim/wavs/peruvian_match_interrogative-partial-wh_Cuando-leia-el-libro.wav,./stim/wavs/puertorican_match_interrogative-partial-wh_Cuando-leia-el-libro.wav,,,,,,,,,,,,,,,,,,,,,,,,,,,,,,,,,,,,,,,,,,,,,,,,,,,,,,,,
,,,,,,,5c59aecb6ca5e600017206de,605b45a4d25f287719a41696,605e1af5e22bfb8fc5290cc2,Mexico,Midwest,13 or older,no,2021-03-26_13h34.06.859,empathy_intonation_perc,2020.2.10,Win32,60,,,,,,,,,,0,cuban,0,1,1.553085,0,43,43,47,1,48,./stim/wavs/andalusian_mismatch_declarative-narrow-focus_Mi-tia-odia-la-lluvia.wav,./stim/wavs/argentine_mismatch_declarative-narrow-focus_Mi-tia-odia-la-lluvia.wav,./stim/wavs/castilian_mismatch_declarative-narrow-focus_Mi-tia-odia-la-lluvia.wav,./stim/wavs/chilean_mismatch_declarative-narrow-focus_Mi-tia-odia-la-lluvia.wav,./stim/wavs/cuban_mismatch_declarative-narrow-focus_Mi-tia-odia-la-lluvia.wav,./stim/wavs/mexican_mismatch_declarative-narrow-focus_Mi-tia-odia-la-lluvia.wav,./stim/wavs/peruvian_mismatch_declarative-narrow-focus_Mi-tia-odia-la-lluvia.wav,./stim/wavs/puertorican_mismatch_declarative-narrow-focus_Mi-tia-odia-la-lluvia.wav,,,,,,,,,,,,,,,,,,,,,,,,,,,,,,,,,,,,,,,,,,,,,,,,,,,,,,,,
,,,,,,,5c59aecb6ca5e600017206de,605b45a4d25f287719a41696,605e1af5e22bfb8fc5290cc2,Mexico,Midwest,13 or older,no,2021-03-26_13h34.06.859,empathy_intonation_perc,2020.2.10,Win32,60,,,,,,,,,,0,mexican,0,1,1.69255,0,44,44,44,1,45,./stim/wavs/andalusian_mismatch_declarative-narrow-focus_La-nina-lava-el-plato.wav,./stim/wavs/argentine_mismatch_declarative-narrow-focus_La-nina-lava-el-plato.wav,./stim/wavs/castilian_mismatch_declarative-narrow-focus_La-nina-lava-el-plato.wav,./stim/wavs/chilean_mismatch_declarative-narrow-focus_La-nina-lava-el-plato.wav,./stim/wavs/cuban_mismatch_declarative-narrow-focus_La-nina-lava-el-plato.wav,./stim/wavs/mexican_mismatch_declarative-narrow-focus_La-nina-lava-el-plato.wav,./stim/wavs/peruvian_mismatch_declarative-narrow-focus_La-nina-lava-el-plato.wav,./stim/wavs/puertorican_mismatch_declarative-narrow-focus_La-nina-lava-el-plato.wav,,,,,,,,,,,,,,,,,,,,,,,,,,,,,,,,,,,,,,,,,,,,,,,,,,,,,,,,
,,,,,,,5c59aecb6ca5e600017206de,605b45a4d25f287719a41696,605e1af5e22bfb8fc5290cc2,Mexico,Midwest,13 or older,no,2021-03-26_13h34.06.859,empathy_intonation_perc,2020.2.10,Win32,60,,,,,,,,,,1,argentine,0,0,1.603155,0,45,45,25,1,26,./stim/wavs/andalusian_match_interrogative-total-yn_Daniel-iba-a-Bolivia.wav,./stim/wavs/argentine_match_interrogative-total-yn_Daniel-iba-a-Bolivia.wav,./stim/wavs/castilian_match_interrogative-total-yn_Daniel-iba-a-Bolivia.wav,./stim/wavs/chilean_match_interrogative-total-yn_Daniel-iba-a-Bolivia.wav,./stim/wavs/cuban_match_interrogative-total-yn_Daniel-iba-a-Bolivia.wav,./stim/wavs/mexican_match_interrogative-total-yn_Daniel-iba-a-Bolivia.wav,./stim/wavs/peruvian_match_interrogative-total-yn_Daniel-iba-a-Bolivia.wav,./stim/wavs/puertorican_match_interrogative-total-yn_Daniel-iba-a-Bolivia.wav,,,,,,,,,,,,,,,,,,,,,,,,,,,,,,,,,,,,,,,,,,,,,,,,,,,,,,,,
,,,,,,,5c59aecb6ca5e600017206de,605b45a4d25f287719a41696,605e1af5e22bfb8fc5290cc2,Mexico,Midwest,13 or older,no,2021-03-26_13h34.06.859,empathy_intonation_perc,2020.2.10,Win32,60,,,,,,,,,,0,puertorican,0,1,1.460695,0,46,46,6,1,7,./stim/wavs/andalusian_match_declarative-broad-focus_Mariano-habla-del-tiempo.wav,./stim/wavs/argentine_match_declarative-broad-focus_Mariano-habla-del-tiempo.wav,./stim/wavs/castilian_match_declarative-broad-focus_Mariano-habla-del-tiempo.wav,./stim/wavs/chilean_match_declarative-broad-focus_Mariano-habla-del-tiempo.wav,./stim/wavs/cuban_match_declarative-broad-focus_Mariano-habla-del-tiempo.wav,./stim/wavs/mexican_match_declarative-broad-focus_Mariano-habla-del-tiempo.wav,./stim/wavs/peruvian_match_declarative-broad-focus_Mariano-habla-del-tiempo.wav,./stim/wavs/puertorican_match_declarative-broad-focus_Mariano-habla-del-tiempo.wav,,,,,,,,,,,,,,,,,,,,,,,,,,,,,,,,,,,,,,,,,,,,,,,,,,,,,,,,
,,,,,,,5c59aecb6ca5e600017206de,605b45a4d25f287719a41696,605e1af5e22bfb8fc5290cc2,Mexico,Midwest,13 or older,no,2021-03-26_13h34.06.859,empathy_intonation_perc,2020.2.10,Win32,60,,,,,,,,,,1,chilean,0,0,1.48516,0,47,47,30,1,31,./stim/wavs/andalusian_match_interrogative-total-yn_Mariano-habla-del-tiempo.wav,./stim/wavs/argentine_match_interrogative-total-yn_Mariano-habla-del-tiempo.wav,./stim/wavs/castilian_match_interrogative-total-yn_Mariano-habla-del-tiempo.wav,./stim/wavs/chilean_match_interrogative-total-yn_Mariano-habla-del-tiempo.wav,./stim/wavs/cuban_match_interrogative-total-yn_Mariano-habla-del-tiempo.wav,./stim/wavs/mexican_match_interrogative-total-yn_Mariano-habla-del-tiempo.wav,./stim/wavs/peruvian_match_interrogative-total-yn_Mariano-habla-del-tiempo.wav,./stim/wavs/puertorican_match_interrogative-total-yn_Mariano-habla-del-tiempo.wav,,,,,,,,,,,,,,,,,,,,,,,,,,,,,,,,,,,,,,,,,,,,,,,,,,,,,,,,
,,,,,,,5c59aecb6ca5e600017206de,605b45a4d25f287719a41696,605e1af5e22bfb8fc5290cc2,Mexico,Midwest,13 or older,no,2021-03-26_13h34.06.859,empathy_intonation_perc,2020.2.10,Win32,60,,,,,,,,,,1,mexican,1,1,1.702025,0,48,48,55,1,56,./stim/wavs/andalusian_mismatch_interrogative-partial-wh_Por-que-vivia-en-Paris.wav,./stim/wavs/argentine_mismatch_interrogative-partial-wh_Por-que-vivia-en-Paris.wav,./stim/wavs/castilian_mismatch_interrogative-partial-wh_Por-que-vivia-en-Paris.wav,./stim/wavs/chilean_mismatch_interrogative-partial-wh_Por-que-vivia-en-Paris.wav,./stim/wavs/cuban_mismatch_interrogative-partial-wh_Por-que-vivia-en-Paris.wav,./stim/wavs/mexican_mismatch_interrogative-partial-wh_Por-que-vivia-en-Paris.wav,./stim/wavs/peruvian_mismatch_interrogative-partial-wh_Por-que-vivia-en-Paris.wav,./stim/wavs/puertorican_mismatch_interrogative-partial-wh_Por-que-vivia-en-Paris.wav,,,,,,,,,,,,,,,,,,,,,,,,,,,,,,,,,,,,,,,,,,,,,,,,,,,,,,,,
,,,,,,,5c59aecb6ca5e600017206de,605b45a4d25f287719a41696,605e1af5e22bfb8fc5290cc2,Mexico,Midwest,13 or older,no,2021-03-26_13h34.06.859,empathy_intonation_perc,2020.2.10,Win32,60,,,,,,,,,,1,argentine,1,1,1.89496,0,49,49,59,1,60,./stim/wavs/andalusian_mismatch_interrogative-total-yn_La-maestra-vive-en-Paris.wav,./stim/wavs/argentine_mismatch_interrogative-total-yn_La-maestra-vive-en-Paris.wav,./stim/wavs/castilian_mismatch_interrogative-total-yn_La-maestra-vive-en-Paris.wav,./stim/wavs/chilean_mismatch_interrogative-total-yn_La-maestra-vive-en-Paris.wav,./stim/wavs/cuban_mismatch_interrogative-total-yn_La-maestra-vive-en-Paris.wav,./stim/wavs/mexican_mismatch_interrogative-total-yn_La-maestra-vive-en-Paris.wav,./stim/wavs/peruvian_mismatch_interrogative-total-yn_La-maestra-vive-en-Paris.wav,./stim/wavs/puertorican_mismatch_interrogative-total-yn_La-maestra-vive-en-Paris.wav,,,,,,,,,,,,,,,,,,,,,,,,,,,,,,,,,,,,,,,,,,,,,,,,,,,,,,,,
,,,,,,,5c59aecb6ca5e600017206de,605b45a4d25f287719a41696,605e1af5e22bfb8fc5290cc2,Mexico,Midwest,13 or older,no,2021-03-26_13h34.06.859,empathy_intonation_perc,2020.2.10,Win32,60,,,,,,,,,,1,puertorican,1,1,1.412145,0,50,50,19,1,20,./stim/wavs/andalusian_match_interrogative-partial-wh_Cuando-vendia-el-carro.wav,./stim/wavs/argentine_match_interrogative-partial-wh_Cuando-vendia-el-carro.wav,./stim/wavs/castilian_match_interrogative-partial-wh_Cuando-vendia-el-carro.wav,./stim/wavs/chilean_match_interrogative-partial-wh_Cuando-vendia-el-carro.wav,./stim/wavs/cuban_match_interrogative-partial-wh_Cuando-vendia-el-carro.wav,./stim/wavs/mexican_match_interrogative-partial-wh_Cuando-vendia-el-carro.wav,./stim/wavs/peruvian_match_interrogative-partial-wh_Cuando-vendia-el-carro.wav,./stim/wavs/puertorican_match_interrogative-partial-wh_Cuando-vendia-el-carro.wav,,,,,,,,,,,,,,,,,,,,,,,,,,,,,,,,,,,,,,,,,,,,,,,,,,,,,,,,
,,,,,,,5c59aecb6ca5e600017206de,605b45a4d25f287719a41696,605e1af5e22bfb8fc5290cc2,Mexico,Midwest,13 or older,no,2021-03-26_13h34.06.859,empathy_intonation_perc,2020.2.10,Win32,60,,,,,,,,,,1,peruvian,0,0,1.71851,0,51,51,27,1,28,./stim/wavs/andalusian_match_interrogative-total-yn_Emilio-ama-la-marcha.wav,./stim/wavs/argentine_match_interrogative-total-yn_Emilio-ama-la-marcha.wav,./stim/wavs/castilian_match_interrogative-total-yn_Emilio-ama-la-marcha.wav,./stim/wavs/chilean_match_interrogative-total-yn_Emilio-ama-la-marcha.wav,./stim/wavs/cuban_match_interrogative-total-yn_Emilio-ama-la-marcha.wav,./stim/wavs/mexican_match_interrogative-total-yn_Emilio-ama-la-marcha.wav,./stim/wavs/peruvian_match_interrogative-total-yn_Emilio-ama-la-marcha.wav,./stim/wavs/puertorican_match_interrogative-total-yn_Emilio-ama-la-marcha.wav,,,,,,,,,,,,,,,,,,,,,,,,,,,,,,,,,,,,,,,,,,,,,,,,,,,,,,,,
,,,,,,,5c59aecb6ca5e600017206de,605b45a4d25f287719a41696,605e1af5e22bfb8fc5290cc2,Mexico,Midwest,13 or older,no,2021-03-26_13h34.06.859,empathy_intonation_perc,2020.2.10,Win32,60,,,,,,,,,,1,mexican,1,1,2.12032,0,52,52,24,1,25,./stim/wavs/andalusian_match_interrogative-total-yn_Ana-lleva-el-abrigo.wav,./stim/wavs/argentine_match_interrogative-total-yn_Ana-lleva-el-abrigo.wav,./stim/wavs/castilian_match_interrogative-total-yn_Ana-lleva-el-abrigo.wav,./stim/wavs/chilean_match_interrogative-total-yn_Ana-lleva-el-abrigo.wav,./stim/wavs/cuban_match_interrogative-total-yn_Ana-lleva-el-abrigo.wav,./stim/wavs/mexican_match_interrogative-total-yn_Ana-lleva-el-abrigo.wav,./stim/wavs/peruvian_match_interrogative-total-yn_Ana-lleva-el-abrigo.wav,./stim/wavs/puertorican_match_interrogative-total-yn_Ana-lleva-el-abrigo.wav,,,,,,,,,,,,,,,,,,,,,,,,,,,,,,,,,,,,,,,,,,,,,,,,,,,,,,,,
,,,,,,,5c59aecb6ca5e600017206de,605b45a4d25f287719a41696,605e1af5e22bfb8fc5290cc2,Mexico,Midwest,13 or older,no,2021-03-26_13h34.06.859,empathy_intonation_perc,2020.2.10,Win32,60,,,,,,,,,,1,cuban,1,1,1.201625,0,53,53,21,1,22,./stim/wavs/andalusian_match_interrogative-partial-wh_Por-que-ama-la-navidad.wav,./stim/wavs/argentine_match_interrogative-partial-wh_Por-que-ama-la-navidad.wav,./stim/wavs/castilian_match_interrogative-partial-wh_Por-que-ama-la-navidad.wav,./stim/wavs/chilean_match_interrogative-partial-wh_Por-que-ama-la-navidad.wav,./stim/wavs/cuban_match_interrogative-partial-wh_Por-que-ama-la-navidad.wav,./stim/wavs/mexican_match_interrogative-partial-wh_Por-que-ama-la-navidad.wav,./stim/wavs/peruvian_match_interrogative-partial-wh_Por-que-ama-la-navidad.wav,./stim/wavs/puertorican_match_interrogative-partial-wh_Por-que-ama-la-navidad.wav,,,,,,,,,,,,,,,,,,,,,,,,,,,,,,,,,,,,,,,,,,,,,,,,,,,,,,,,
,,,,,,,5c59aecb6ca5e600017206de,605b45a4d25f287719a41696,605e1af5e22bfb8fc5290cc2,Mexico,Midwest,13 or older,no,2021-03-26_13h34.06.859,empathy_intonation_perc,2020.2.10,Win32,60,,,,,,,,,,1,mexican,1,1,1.234895,0,54,54,54,1,55,./stim/wavs/andalusian_mismatch_interrogative-partial-wh_Por-que-venia-del-lago.wav,./stim/wavs/argentine_mismatch_interrogative-partial-wh_Por-que-venia-del-lago.wav,./stim/wavs/castilian_mismatch_interrogative-partial-wh_Por-que-venia-del-lago.wav,./stim/wavs/chilean_mismatch_interrogative-partial-wh_Por-que-venia-del-lago.wav,./stim/wavs/cuban_mismatch_interrogative-partial-wh_Por-que-venia-del-lago.wav,./stim/wavs/mexican_mismatch_interrogative-partial-wh_Por-que-venia-del-lago.wav,./stim/wavs/peruvian_mismatch_interrogative-partial-wh_Por-que-venia-del-lago.wav,./stim/wavs/puertorican_mismatch_interrogative-partial-wh_Por-que-venia-del-lago.wav,,,,,,,,,,,,,,,,,,,,,,,,,,,,,,,,,,,,,,,,,,,,,,,,,,,,,,,,
,,,,,,,5c59aecb6ca5e600017206de,605b45a4d25f287719a41696,605e1af5e22bfb8fc5290cc2,Mexico,Midwest,13 or older,no,2021-03-26_13h34.06.859,empathy_intonation_perc,2020.2.10,Win32,60,,,,,,,,,,1,puertorican,0,0,1.70297,0,55,55,60,1,61,./stim/wavs/andalusian_mismatch_interrogative-total-yn_La-nina-lava-el-plato.wav,./stim/wavs/argentine_mismatch_interrogative-total-yn_La-nina-lava-el-plato.wav,./stim/wavs/castilian_mismatch_interrogative-total-yn_La-nina-lava-el-plato.wav,./stim/wavs/chilean_mismatch_interrogative-total-yn_La-nina-lava-el-plato.wav,./stim/wavs/cuban_mismatch_interrogative-total-yn_La-nina-lava-el-plato.wav,./stim/wavs/mexican_mismatch_interrogative-total-yn_La-nina-lava-el-plato.wav,./stim/wavs/peruvian_mismatch_interrogative-total-yn_La-nina-lava-el-plato.wav,./stim/wavs/puertorican_mismatch_interrogative-total-yn_La-nina-lava-el-plato.wav,,,,,,,,,,,,,,,,,,,,,,,,,,,,,,,,,,,,,,,,,,,,,,,,,,,,,,,,
,,,,,,,5c59aecb6ca5e600017206de,605b45a4d25f287719a41696,605e1af5e22bfb8fc5290cc2,Mexico,Midwest,13 or older,no,2021-03-26_13h34.06.859,empathy_intonation_perc,2020.2.10,Win32,60,,,,,,,,,,0,andalusian,0,1,1.6356,0,56,56,38,1,39,./stim/wavs/andalusian_mismatch_declarative-broad-focus_Mi-novio-viene-del-lago.wav,./stim/wavs/argentine_mismatch_declarative-broad-focus_Mi-novio-viene-del-lago.wav,./stim/wavs/castilian_mismatch_declarative-broad-focus_Mi-novio-viene-del-lago.wav,./stim/wavs/chilean_mismatch_declarative-broad-focus_Mi-novio-viene-del-lago.wav,./stim/wavs/cuban_mismatch_declarative-broad-focus_Mi-novio-viene-del-lago.wav,./stim/wavs/mexican_mismatch_declarative-broad-focus_Mi-novio-viene-del-lago.wav,./stim/wavs/peruvian_mismatch_declarative-broad-focus_Mi-novio-viene-del-lago.wav,./stim/wavs/puertorican_mismatch_declarative-broad-focus_Mi-novio-viene-del-lago.wav,,,,,,,,,,,,,,,,,,,,,,,,,,,,,,,,,,,,,,,,,,,,,,,,,,,,,,,,
,,,,,,,5c59aecb6ca5e600017206de,605b45a4d25f287719a41696,605e1af5e22bfb8fc5290cc2,Mexico,Midwest,13 or older,no,2021-03-26_13h34.06.859,empathy_intonation_perc,2020.2.10,Win32,60,,,,,,,,,,0,chilean,0,1,1.88469,0,57,57,34,1,35,./stim/wavs/andalusian_mismatch_declarative-broad-focus_El-nino-oye-el-rio.wav,./stim/wavs/argentine_mismatch_declarative-broad-focus_El-nino-oye-el-rio.wav,./stim/wavs/castilian_mismatch_declarative-broad-focus_El-nino-oye-el-rio.wav,./stim/wavs/chilean_mismatch_declarative-broad-focus_El-nino-oye-el-rio.wav,./stim/wavs/cuban_mismatch_declarative-broad-focus_El-nino-oye-el-rio.wav,./stim/wavs/mexican_mismatch_declarative-broad-focus_El-nino-oye-el-rio.wav,./stim/wavs/peruvian_mismatch_declarative-broad-focus_El-nino-oye-el-rio.wav,./stim/wavs/puertorican_mismatch_declarative-broad-focus_El-nino-oye-el-rio.wav,,,,,,,,,,,,,,,,,,,,,,,,,,,,,,,,,,,,,,,,,,,,,,,,,,,,,,,,
,,,,,,,5c59aecb6ca5e600017206de,605b45a4d25f287719a41696,605e1af5e22bfb8fc5290cc2,Mexico,Midwest,13 or older,no,2021-03-26_13h34.06.859,empathy_intonation_perc,2020.2.10,Win32,60,,,,,,,,,,1,peruvian,1,1,1.241125,0,58,58,16,1,17,./stim/wavs/andalusian_match_interrogative-partial-wh_Cuando-bebia-el-vino.wav,./stim/wavs/argentine_match_interrogative-partial-wh_Cuando-bebia-el-vino.wav,./stim/wavs/castilian_match_interrogative-partial-wh_Cuando-bebia-el-vino.wav,./stim/wavs/chilean_match_interrogative-partial-wh_Cuando-bebia-el-vino.wav,./stim/wavs/cuban_match_interrogative-partial-wh_Cuando-bebia-el-vino.wav,./stim/wavs/mexican_match_interrogative-partial-wh_Cuando-bebia-el-vino.wav,./stim/wavs/peruvian_match_interrogative-partial-wh_Cuando-bebia-el-vino.wav,./stim/wavs/puertorican_match_interrogative-partial-wh_Cuando-bebia-el-vino.wav,,,,,,,,,,,,,,,,,,,,,,,,,,,,,,,,,,,,,,,,,,,,,,,,,,,,,,,,
,,,,,,,5c59aecb6ca5e600017206de,605b45a4d25f287719a41696,605e1af5e22bfb8fc5290cc2,Mexico,Midwest,13 or older,no,2021-03-26_13h34.06.859,empathy_intonation_perc,2020.2.10,Win32,60,,,,,,,,,,1,argentine,1,1,2.256365,0,59,59,61,1,62,./stim/wavs/andalusian_mismatch_interrogative-total-yn_Mi-madre-come-la-fruta.wav,./stim/wavs/argentine_mismatch_interrogative-total-yn_Mi-madre-come-la-fruta.wav,./stim/wavs/castilian_mismatch_interrogative-total-yn_Mi-madre-come-la-fruta.wav,./stim/wavs/chilean_mismatch_interrogative-total-yn_Mi-madre-come-la-fruta.wav,./stim/wavs/cuban_mismatch_interrogative-total-yn_Mi-madre-come-la-fruta.wav,./stim/wavs/mexican_mismatch_interrogative-total-yn_Mi-madre-come-la-fruta.wav,./stim/wavs/peruvian_mismatch_interrogative-total-yn_Mi-madre-come-la-fruta.wav,./stim/wavs/puertorican_mismatch_interrogative-total-yn_Mi-madre-come-la-fruta.wav,,,,,,,,,,,,,,,,,,,,,,,,,,,,,,,,,,,,,,,,,,,,,,,,,,,,,,,,
,,,,,,,5c59aecb6ca5e600017206de,605b45a4d25f287719a41696,605e1af5e22bfb8fc5290cc2,Mexico,Midwest,13 or older,no,2021-03-26_13h34.06.859,empathy_intonation_perc,2020.2.10,Win32,60,,,,,,,,,,1,mexican,1,1,1.71068,0,60,60,57,1,58,./stim/wavs/andalusian_mismatch_interrogative-total-yn_El-hombre-mira-la-luna.wav,./stim/wavs/argentine_mismatch_interrogative-total-yn_El-hombre-mira-la-luna.wav,./stim/wavs/castilian_mismatch_interrogative-total-yn_El-hombre-mira-la-luna.wav,./stim/wavs/chilean_mismatch_interrogative-total-yn_El-hombre-mira-la-luna.wav,./stim/wavs/cuban_mismatch_interrogative-total-yn_El-hombre-mira-la-luna.wav,./stim/wavs/mexican_mismatch_interrogative-total-yn_El-hombre-mira-la-luna.wav,./stim/wavs/peruvian_mismatch_interrogative-total-yn_El-hombre-mira-la-luna.wav,./stim/wavs/puertorican_mismatch_interrogative-total-yn_El-hombre-mira-la-luna.wav,,,,,,,,,,,,,,,,,,,,,,,,,,,,,,,,,,,,,,,,,,,,,,,,,,,,,,,,
,,,,,,,5c59aecb6ca5e600017206de,605b45a4d25f287719a41696,605e1af5e22bfb8fc5290cc2,Mexico,Midwest,13 or older,no,2021-03-26_13h34.06.859,empathy_intonation_perc,2020.2.10,Win32,60,,,,,,,,,,0,castilian,0,1,2.15597,0,61,61,46,1,47,./stim/wavs/andalusian_mismatch_declarative-narrow-focus_Mi-novio-viene-del-lago.wav,./stim/wavs/argentine_mismatch_declarative-narrow-focus_Mi-novio-viene-del-lago.wav,./stim/wavs/castilian_mismatch_declarative-narrow-focus_Mi-novio-viene-del-lago.wav,./stim/wavs/chilean_mismatch_declarative-narrow-focus_Mi-novio-viene-del-lago.wav,./stim/wavs/cuban_mismatch_declarative-narrow-focus_Mi-novio-viene-del-lago.wav,./stim/wavs/mexican_mismatch_declarative-narrow-focus_Mi-novio-viene-del-lago.wav,./stim/wavs/peruvian_mismatch_declarative-narrow-focus_Mi-novio-viene-del-lago.wav,./stim/wavs/puertorican_mismatch_declarative-narrow-focus_Mi-novio-viene-del-lago.wav,,,,,,,,,,,,,,,,,,,,,,,,,,,,,,,,,,,,,,,,,,,,,,,,,,,,,,,,
,,,,,,,5c59aecb6ca5e600017206de,605b45a4d25f287719a41696,605e1af5e22bfb8fc5290cc2,Mexico,Midwest,13 or older,no,2021-03-26_13h34.06.859,empathy_intonation_perc,2020.2.10,Win32,60,,,,,,,,,,1,puertorican,1,1,1.477865,0,62,62,20,1,21,./stim/wavs/andalusian_match_interrogative-partial-wh_Por-que-abre-el-regalo.wav,./stim/wavs/argentine_match_interrogative-partial-wh_Por-que-abre-el-regalo.wav,./stim/wavs/castilian_match_interrogative-partial-wh_Por-que-abre-el-regalo.wav,./stim/wavs/chilean_match_interrogative-partial-wh_Por-que-abre-el-regalo.wav,./stim/wavs/cuban_match_interrogative-partial-wh_Por-que-abre-el-regalo.wav,./stim/wavs/mexican_match_interrogative-partial-wh_Por-que-abre-el-regalo.wav,./stim/wavs/peruvian_match_interrogative-partial-wh_Por-que-abre-el-regalo.wav,./stim/wavs/puertorican_match_interrogative-partial-wh_Por-que-abre-el-regalo.wav,,,,,,,,,,,,,,,,,,,,,,,,,,,,,,,,,,,,,,,,,,,,,,,,,,,,,,,,
,,,,,,,5c59aecb6ca5e600017206de,605b45a4d25f287719a41696,605e1af5e22bfb8fc5290cc2,Mexico,Midwest,13 or older,no,2021-03-26_13h34.06.859,empathy_intonation_perc,2020.2.10,Win32,60,,,,,,,,,,0,argentine,0,1,1.367685,0,63,63,1,1,2,./stim/wavs/andalusian_match_declarative-broad-focus_Daniel-iba-a-Bolivia.wav,./stim/wavs/argentine_match_declarative-broad-focus_Daniel-iba-a-Bolivia.wav,./stim/wavs/castilian_match_declarative-broad-focus_Daniel-iba-a-Bolivia.wav,./stim/wavs/chilean_match_declarative-broad-focus_Daniel-iba-a-Bolivia.wav,./stim/wavs/cuban_match_declarative-broad-focus_Daniel-iba-a-Bolivia.wav,./stim/wavs/mexican_match_declarative-broad-focus_Daniel-iba-a-Bolivia.wav,./stim/wavs/peruvian_match_declarative-broad-focus_Daniel-iba-a-Bolivia.wav,./stim/wavs/puertorican_match_declarative-broad-focus_Daniel-iba-a-Bolivia.wav,,,,,,,,,,,,,,,,,,,,,,,,,,,,,,,,,,,,,,,,,,,,,,,,,,,,,,,,
,,,,,,,5c59aecb6ca5e600017206de,605b45a4d25f287719a41696,605e1af5e22bfb8fc5290cc2,Mexico,Midwest,13 or older,no,2021-03-26_13h34.06.859,empathy_intonation_perc,2020.2.10,Win32,60,,,,,,,,,,,,,,,,,,,,,,,,,,,,,h,1,8.65779,0,0,0,0,1,,,,,,,,,,,,,,,,,,,,,,,,,,,,,,,,,,,,,,,,,,,,,,,,
,,,,,"Great! Now we will move on. The next task consists of about 60 trials, in each of which you will see a string of letters. 
  
  Your task is to decide whether this is a real Spanish word or not.",(press the spacebar to continue),5c59aecb6ca5e600017206de,605b45a4d25f287719a41696,605e1af5e22bfb8fc5290cc2,Mexico,Midwest,13 or older,no,2021-03-26_13h34.06.859,empathy_intonation_perc,2020.2.10,Win32,60,,,,,,,,,,,,,,,,,,,,,,,,,,,,,,,,,,,,,0,0,0,0,1,,,,,,,,,,,,,,,,,,,,,,,,,,,,,,,,,,,,,,,,,,,
,,,,,"If you think it is an existing Spanish word, you type '1' (for 'REAL'), and if you think it is not an existing Spanish word, you type '0' (for 'FAKE').",(press the spacebar to continue),5c59aecb6ca5e600017206de,605b45a4d25f287719a41696,605e1af5e22bfb8fc5290cc2,Mexico,Midwest,13 or older,no,2021-03-26_13h34.06.859,empathy_intonation_perc,2020.2.10,Win32,60,,,,,,,,,,,,,,,,,,,,,,,,,,,,,,,,,,,,,0,1,1,1,1,,,,,,,,,,,,,,,,,,,,,,,,,,,,,,,,,,,,,,,,,,,
,,,,,"If you are sure that the word exists, even though you dont know its exact meaning, you may still respond '1' (REAL). 
  
  But if you are not sure if it is an existing word, you should respond '0' (FAKE).
  
  Let's do a practice round...",(press the spacebar to continue),5c59aecb6ca5e600017206de,605b45a4d25f287719a41696,605e1af5e22bfb8fc5290cc2,Mexico,Midwest,13 or older,no,2021-03-26_13h34.06.859,empathy_intonation_perc,2020.2.10,Win32,60,,,,,,,,,,,,,,,,,,,,,,,,,,,,,,,,,,,,,0,2,2,2,1,,,,,,,,,,,,,,,,,,,,,,,,,,,,,,,,,,,,,,,,,,,
,,,,,,,5c59aecb6ca5e600017206de,605b45a4d25f287719a41696,605e1af5e22bfb8fc5290cc2,Mexico,Midwest,13 or older,no,2021-03-26_13h34.06.859,empathy_intonation_perc,2020.2.10,Win32,60,,,,,,,,,,0,,,,,,,,,,,,,,,,,,,,,,,,,,,,,,,,1,0,2.603165,0,0,0,0,1,0,depiste,REAL,FAKE,,,,,,,,,,,,,,,,,,,,,,,,,,,,,,,
,,,,,,,5c59aecb6ca5e600017206de,605b45a4d25f287719a41696,605e1af5e22bfb8fc5290cc2,Mexico,Midwest,13 or older,no,2021-03-26_13h34.06.859,empathy_intonation_perc,2020.2.10,Win32,60,,,,,,,,,,1,,,,,,,,,,,,,,,,,,,,,,,,,,,,,,,,1,1,0.94192,0,1,1,1,1,0,s,REAL,FAKE,,,,,,,,,,,,,,,,,,,,,,,,,,,,,,,
,,,,,,,5c59aecb6ca5e600017206de,605b45a4d25f287719a41696,605e1af5e22bfb8fc5290cc2,Mexico,Midwest,13 or older,no,2021-03-26_13h34.06.859,empathy_intonation_perc,2020.2.10,Win32,60,,,,,,,,,,0,,,,,,,,,,,,,,,,,,,,,,,,,,,,,,,,1,0,2.08642,0,2,2,2,1,0,con,REAL,FAKE,,,,,,,,,,,,,,,,,,,,,,,,,,,,,,,
,,,,,,,5c59aecb6ca5e600017206de,605b45a4d25f287719a41696,605e1af5e22bfb8fc5290cc2,Mexico,Midwest,13 or older,no,2021-03-26_13h34.06.859,empathy_intonation_perc,2020.2.10,Win32,60,,,,,,,,,,0,,,,,,,,,,,,,,,,,,,,,,,,,,,,,,,,1,0,1.21975,0,3,3,3,1,0,calpar,REAL,FAKE,,,,,,,,,,,,,,,,,,,,,,,,,,,,,,,
,,,,,,,5c59aecb6ca5e600017206de,605b45a4d25f287719a41696,605e1af5e22bfb8fc5290cc2,Mexico,Midwest,13 or older,no,2021-03-26_13h34.06.859,empathy_intonation_perc,2020.2.10,Win32,60,,,,,,,,,,0,,,,,,,,,,,,,,,,,,,,,,,,,,,,,,,,0,1,1.22058,0,4,4,4,1,0,joten,REAL,FAKE,,,,,,,,,,,,,,,,,,,,,,,,,,,,,,,
,,,,,,,5c59aecb6ca5e600017206de,605b45a4d25f287719a41696,605e1af5e22bfb8fc5290cc2,Mexico,Midwest,13 or older,no,2021-03-26_13h34.06.859,empathy_intonation_perc,2020.2.10,Win32,60,,,,,,,,,,1,,,,,,,,,,,,,,,,,,,,,,,,,,,,,,,,0,0,2.59424,0,5,5,5,1,0,sacapuntas,REAL,FAKE,,,,,,,,,,,,,,,,,,,,,,,,,,,,,,,
,,,,,,,5c59aecb6ca5e600017206de,605b45a4d25f287719a41696,605e1af5e22bfb8fc5290cc2,Mexico,Midwest,13 or older,no,2021-03-26_13h34.06.859,empathy_intonation_perc,2020.2.10,Win32,60,,,,,,,,,,0,,,,,,,,,,,,,,,,,,,,,,,,,,,,,,,,0,1,1.153165,0,6,6,6,1,0,priba,REAL,FAKE,,,,,,,,,,,,,,,,,,,,,,,,,,,,,,,
,,,,,,,5c59aecb6ca5e600017206de,605b45a4d25f287719a41696,605e1af5e22bfb8fc5290cc2,Mexico,Midwest,13 or older,no,2021-03-26_13h34.06.859,empathy_intonation_perc,2020.2.10,Win32,60,,,,,,,,,,0,,,,,,,,,,,,,,,,,,,,,,,,,,,,,,,,1,0,3.243165,0,7,7,7,1,0,pelasula,REAL,FAKE,,,,,,,,,,,,,,,,,,,,,,,,,,,,,,,
,,,,,,,5c59aecb6ca5e600017206de,605b45a4d25f287719a41696,605e1af5e22bfb8fc5290cc2,Mexico,Midwest,13 or older,no,2021-03-26_13h34.06.859,empathy_intonation_perc,2020.2.10,Win32,60,,,,,,,,,,1,,,,,,,,,,,,,,,,,,,,,,,,,,,,,,,,1,1,0.935575,0,8,8,8,1,0,bien,REAL,FAKE,,,,,,,,,,,,,,,,,,,,,,,,,,,,,,,
,,,,,,,5c59aecb6ca5e600017206de,605b45a4d25f287719a41696,605e1af5e22bfb8fc5290cc2,Mexico,Midwest,13 or older,no,2021-03-26_13h34.06.859,empathy_intonation_perc,2020.2.10,Win32,60,,,,,,,,,,1,,,,,,,,,,,,,,,,,,,,,,,,,,,,,,,,1,1,0.750735,0,9,9,9,1,0,casa,REAL,FAKE,,,,,,,,,,,,,,,,,,,,,,,,,,,,,,,
,,,,,,,5c59aecb6ca5e600017206de,605b45a4d25f287719a41696,605e1af5e22bfb8fc5290cc2,Mexico,Midwest,13 or older,no,2021-03-26_13h34.06.859,empathy_intonation_perc,2020.2.10,Win32,60,,,,,,,,,,0,,,,,,,,,,,,,,,,,,,,,,,,,,,,,,,,0,1,1.757755,0,10,10,10,1,0,lejo,REAL,FAKE,,,,,,,,,,,,,,,,,,,,,,,,,,,,,,,
,,,,,,,5c59aecb6ca5e600017206de,605b45a4d25f287719a41696,605e1af5e22bfb8fc5290cc2,Mexico,Midwest,13 or older,no,2021-03-26_13h34.06.859,empathy_intonation_perc,2020.2.10,Win32,60,,,,,,,,,,0,,,,,,,,,,,,,,,,,,,,,,,,,,,,,,,,0,1,1.77452,0,11,11,11,1,0,pretantas,REAL,FAKE,,,,,,,,,,,,,,,,,,,,,,,,,,,,,,,
,,,,,,,5c59aecb6ca5e600017206de,605b45a4d25f287719a41696,605e1af5e22bfb8fc5290cc2,Mexico,Midwest,13 or older,no,2021-03-26_13h34.06.859,empathy_intonation_perc,2020.2.10,Win32,60,,,,,,,,,,1,,,,,,,,,,,,,,,,,,,,,,,,,,,,,,,,,,,,,,,,59,besar,,,1,1,1.328695,0,0,0,58,1,REAL,FAKE,,,,,,,,,,,,,,,,,,,,,
,,,,,,,5c59aecb6ca5e600017206de,605b45a4d25f287719a41696,605e1af5e22bfb8fc5290cc2,Mexico,Midwest,13 or older,no,2021-03-26_13h34.06.859,empathy_intonation_perc,2020.2.10,Win32,60,,,,,,,,,,1,,,,,,,,,,,,,,,,,,,,,,,,,,,,,,,,,,,,,,,,60,matar,,,0,0,1.55612,0,1,1,59,1,REAL,FAKE,,,,,,,,,,,,,,,,,,,,,
,,,,,,,5c59aecb6ca5e600017206de,605b45a4d25f287719a41696,605e1af5e22bfb8fc5290cc2,Mexico,Midwest,13 or older,no,2021-03-26_13h34.06.859,empathy_intonation_perc,2020.2.10,Win32,60,,,,,,,,,,0,,,,,,,,,,,,,,,,,,,,,,,,,,,,,,,,,,,,,,,,58,plaudir,,,0,1,1.607565,0,2,2,57,1,REAL,FAKE,,,,,,,,,,,,,,,,,,,,,
,,,,,,,5c59aecb6ca5e600017206de,605b45a4d25f287719a41696,605e1af5e22bfb8fc5290cc2,Mexico,Midwest,13 or older,no,2021-03-26_13h34.06.859,empathy_intonation_perc,2020.2.10,Win32,60,,,,,,,,,,1,,,,,,,,,,,,,,,,,,,,,,,,,,,,,,,,,,,,,,,,77,tiburn,,,0,0,1.119255,0,3,3,76,1,REAL,FAKE,,,,,,,,,,,,,,,,,,,,,
,,,,,,,5c59aecb6ca5e600017206de,605b45a4d25f287719a41696,605e1af5e22bfb8fc5290cc2,Mexico,Midwest,13 or older,no,2021-03-26_13h34.06.859,empathy_intonation_perc,2020.2.10,Win32,60,,,,,,,,,,1,,,,,,,,,,,,,,,,,,,,,,,,,,,,,,,,,,,,,,,,14,yunque,,,0,0,0.91815,0,4,4,13,1,REAL,FAKE,,,,,,,,,,,,,,,,,,,,,
,,,,,,,5c59aecb6ca5e600017206de,605b45a4d25f287719a41696,605e1af5e22bfb8fc5290cc2,Mexico,Midwest,13 or older,no,2021-03-26_13h34.06.859,empathy_intonation_perc,2020.2.10,Win32,60,,,,,,,,,,0,,,,,,,,,,,,,,,,,,,,,,,,,,,,,,,,,,,,,,,,63,esposante,,,1,0,2.5531,0,5,5,62,1,REAL,FAKE,,,,,,,,,,,,,,,,,,,,,
,,,,,,,5c59aecb6ca5e600017206de,605b45a4d25f287719a41696,605e1af5e22bfb8fc5290cc2,Mexico,Midwest,13 or older,no,2021-03-26_13h34.06.859,empathy_intonation_perc,2020.2.10,Win32,60,,,,,,,,,,1,,,,,,,,,,,,,,,,,,,,,,,,,,,,,,,,,,,,,,,,57,tacao,,,1,1,1.785725,0,6,6,56,1,REAL,FAKE,,,,,,,,,,,,,,,,,,,,,
,,,,,,,5c59aecb6ca5e600017206de,605b45a4d25f287719a41696,605e1af5e22bfb8fc5290cc2,Mexico,Midwest,13 or older,no,2021-03-26_13h34.06.859,empathy_intonation_perc,2020.2.10,Win32,60,,,,,,,,,,0,,,,,,,,,,,,,,,,,,,,,,,,,,,,,,,,,,,,,,,,17,floroso,,,0,1,0.817515,0,7,7,16,1,REAL,FAKE,,,,,,,,,,,,,,,,,,,,,
,,,,,,,5c59aecb6ca5e600017206de,605b45a4d25f287719a41696,605e1af5e22bfb8fc5290cc2,Mexico,Midwest,13 or older,no,2021-03-26_13h34.06.859,empathy_intonation_perc,2020.2.10,Win32,60,,,,,,,,,,1,,,,,,,,,,,,,,,,,,,,,,,,,,,,,,,,,,,,,,,,11,cenefa,,,0,0,0.93879,0,8,8,10,1,REAL,FAKE,,,,,,,,,,,,,,,,,,,,,
,,,,,,,5c59aecb6ca5e600017206de,605b45a4d25f287719a41696,605e1af5e22bfb8fc5290cc2,Mexico,Midwest,13 or older,no,2021-03-26_13h34.06.859,empathy_intonation_perc,2020.2.10,Win32,60,,,,,,,,,,0,,,,,,,,,,,,,,,,,,,,,,,,,,,,,,,,,,,,,,,,72,pemicin,,,0,1,1.20184,0,9,9,71,1,REAL,FAKE,,,,,,,,,,,,,,,,,,,,,
,,,,,,,5c59aecb6ca5e600017206de,605b45a4d25f287719a41696,605e1af5e22bfb8fc5290cc2,Mexico,Midwest,13 or older,no,2021-03-26_13h34.06.859,empathy_intonation_perc,2020.2.10,Win32,60,,,,,,,,,,0,,,,,,,,,,,,,,,,,,,,,,,,,,,,,,,,,,,,,,,,23,lampera,,,0,1,1.118575,0,10,10,22,1,REAL,FAKE,,,,,,,,,,,,,,,,,,,,,
,,,,,,,5c59aecb6ca5e600017206de,605b45a4d25f287719a41696,605e1af5e22bfb8fc5290cc2,Mexico,Midwest,13 or older,no,2021-03-26_13h34.06.859,empathy_intonation_perc,2020.2.10,Win32,60,,,,,,,,,,1,,,,,,,,,,,,,,,,,,,,,,,,,,,,,,,,,,,,,,,,52,camisa,,,1,1,0.954635,0,11,11,51,1,REAL,FAKE,,,,,,,,,,,,,,,,,,,,,
,,,,,,,5c59aecb6ca5e600017206de,605b45a4d25f287719a41696,605e1af5e22bfb8fc5290cc2,Mexico,Midwest,13 or older,no,2021-03-26_13h34.06.859,empathy_intonation_perc,2020.2.10,Win32,60,,,,,,,,,,1,,,,,,,,,,,,,,,,,,,,,,,,,,,,,,,,,,,,,,,,85,lad,,,1,1,1.07669,0,12,12,84,1,REAL,FAKE,,,,,,,,,,,,,,,,,,,,,
,,,,,,,5c59aecb6ca5e600017206de,605b45a4d25f287719a41696,605e1af5e22bfb8fc5290cc2,Mexico,Midwest,13 or older,no,2021-03-26_13h34.06.859,empathy_intonation_perc,2020.2.10,Win32,60,,,,,,,,,,1,,,,,,,,,,,,,,,,,,,,,,,,,,,,,,,,,,,,,,,,13,helar,,,0,0,1.8692,0,13,13,12,1,REAL,FAKE,,,,,,,,,,,,,,,,,,,,,
,,,,,,,5c59aecb6ca5e600017206de,605b45a4d25f287719a41696,605e1af5e22bfb8fc5290cc2,Mexico,Midwest,13 or older,no,2021-03-26_13h34.06.859,empathy_intonation_perc,2020.2.10,Win32,60,,,,,,,,,,1,,,,,,,,,,,,,,,,,,,,,,,,,,,,,,,,,,,,,,,,78,frondoso,,,0,0,1.017685,0,14,14,77,1,REAL,FAKE,,,,,,,,,,,,,,,,,,,,,
,,,,,,,5c59aecb6ca5e600017206de,605b45a4d25f287719a41696,605e1af5e22bfb8fc5290cc2,Mexico,Midwest,13 or older,no,2021-03-26_13h34.06.859,empathy_intonation_perc,2020.2.10,Win32,60,,,,,,,,,,1,,,,,,,,,,,,,,,,,,,,,,,,,,,,,,,,,,,,,,,,3,pulmones,,,0,0,2.18621,0,15,15,2,1,REAL,FAKE,,,,,,,,,,,,,,,,,,,,,
,,,,,,,5c59aecb6ca5e600017206de,605b45a4d25f287719a41696,605e1af5e22bfb8fc5290cc2,Mexico,Midwest,13 or older,no,2021-03-26_13h34.06.859,empathy_intonation_perc,2020.2.10,Win32,60,,,,,,,,,,1,,,,,,,,,,,,,,,,,,,,,,,,,,,,,,,,,,,,,,,,65,bizcocho,,,0,0,0.83484,0,16,16,64,1,REAL,FAKE,,,,,,,,,,,,,,,,,,,,,
,,,,,,,5c59aecb6ca5e600017206de,605b45a4d25f287719a41696,605e1af5e22bfb8fc5290cc2,Mexico,Midwest,13 or older,no,2021-03-26_13h34.06.859,empathy_intonation_perc,2020.2.10,Win32,60,,,,,,,,,,1,,,,,,,,,,,,,,,,,,,,,,,,,,,,,,,,,,,,,,,,86,barato,,,0,0,3.32041,0,17,17,85,1,REAL,FAKE,,,,,,,,,,,,,,,,,,,,,
,,,,,,,5c59aecb6ca5e600017206de,605b45a4d25f287719a41696,605e1af5e22bfb8fc5290cc2,Mexico,Midwest,13 or older,no,2021-03-26_13h34.06.859,empathy_intonation_perc,2020.2.10,Win32,60,,,,,,,,,,1,,,,,,,,,,,,,,,,,,,,,,,,,,,,,,,,,,,,,,,,38,estornudar,,,0,0,0.81818,0,18,18,37,1,REAL,FAKE,,,,,,,,,,,,,,,,,,,,,
,,,,,,,5c59aecb6ca5e600017206de,605b45a4d25f287719a41696,605e1af5e22bfb8fc5290cc2,Mexico,Midwest,13 or older,no,2021-03-26_13h34.06.859,empathy_intonation_perc,2020.2.10,Win32,60,,,,,,,,,,1,,,,,,,,,,,,,,,,,,,,,,,,,,,,,,,,,,,,,,,,9,hacha,,,1,1,1.060155,0,19,19,8,1,REAL,FAKE,,,,,,,,,,,,,,,,,,,,,
,,,,,,,5c59aecb6ca5e600017206de,605b45a4d25f287719a41696,605e1af5e22bfb8fc5290cc2,Mexico,Midwest,13 or older,no,2021-03-26_13h34.06.859,empathy_intonation_perc,2020.2.10,Win32,60,,,,,,,,,,1,,,,,,,,,,,,,,,,,,,,,,,,,,,,,,,,,,,,,,,,51,candado,,,1,1,1.123115,0,20,20,50,1,REAL,FAKE,,,,,,,,,,,,,,,,,,,,,
,,,,,,,5c59aecb6ca5e600017206de,605b45a4d25f287719a41696,605e1af5e22bfb8fc5290cc2,Mexico,Midwest,13 or older,no,2021-03-26_13h34.06.859,empathy_intonation_perc,2020.2.10,Win32,60,,,,,,,,,,1,,,,,,,,,,,,,,,,,,,,,,,,,,,,,,,,,,,,,,,,76,atar,,,0,0,1.343205,0,21,21,75,1,REAL,FAKE,,,,,,,,,,,,,,,,,,,,,
,,,,,,,5c59aecb6ca5e600017206de,605b45a4d25f287719a41696,605e1af5e22bfb8fc5290cc2,Mexico,Midwest,13 or older,no,2021-03-26_13h34.06.859,empathy_intonation_perc,2020.2.10,Win32,60,,,,,,,,,,1,,,,,,,,,,,,,,,,,,,,,,,,,,,,,,,,,,,,,,,,45,jilguero,,,0,0,0.93785,0,22,22,44,1,REAL,FAKE,,,,,,,,,,,,,,,,,,,,,
,,,,,,,5c59aecb6ca5e600017206de,605b45a4d25f287719a41696,605e1af5e22bfb8fc5290cc2,Mexico,Midwest,13 or older,no,2021-03-26_13h34.06.859,empathy_intonation_perc,2020.2.10,Win32,60,,,,,,,,,,0,,,,,,,,,,,,,,,,,,,,,,,,,,,,,,,,,,,,,,,,1,terzo,,,0,1,2.541415,0,23,23,0,1,REAL,FAKE,,,,,,,,,,,,,,,,,,,,,
,,,,,,,5c59aecb6ca5e600017206de,605b45a4d25f287719a41696,605e1af5e22bfb8fc5290cc2,Mexico,Midwest,13 or older,no,2021-03-26_13h34.06.859,empathy_intonation_perc,2020.2.10,Win32,60,,,,,,,,,,0,,,,,,,,,,,,,,,,,,,,,,,,,,,,,,,,,,,,,,,,42,cadallo,,,0,1,2.26962,0,24,24,41,1,REAL,FAKE,,,,,,,,,,,,,,,,,,,,,
,,,,,,,5c59aecb6ca5e600017206de,605b45a4d25f287719a41696,605e1af5e22bfb8fc5290cc2,Mexico,Midwest,13 or older,no,2021-03-26_13h34.06.859,empathy_intonation_perc,2020.2.10,Win32,60,,,,,,,,,,1,,,,,,,,,,,,,,,,,,,,,,,,,,,,,,,,,,,,,,,,71,polvoriento,,,0,0,1.151765,0,25,25,70,1,REAL,FAKE,,,,,,,,,,,,,,,,,,,,,
,,,,,,,5c59aecb6ca5e600017206de,605b45a4d25f287719a41696,605e1af5e22bfb8fc5290cc2,Mexico,Midwest,13 or older,no,2021-03-26_13h34.06.859,empathy_intonation_perc,2020.2.10,Win32,60,,,,,,,,,,0,,,,,,,,,,,,,,,,,,,,,,,,,,,,,,,,,,,,,,,,74,cintro,,,0,1,10.21564,0,26,26,73,1,REAL,FAKE,,,,,,,,,,,,,,,,,,,,,
,,,,,,,5c59aecb6ca5e600017206de,605b45a4d25f287719a41696,605e1af5e22bfb8fc5290cc2,Mexico,Midwest,13 or older,no,2021-03-26_13h34.06.859,empathy_intonation_perc,2020.2.10,Win32,60,,,,,,,,,,1,,,,,,,,,,,,,,,,,,,,,,,,,,,,,,,,,,,,,,,,44,cuchara,,,0,0,1.21855,0,27,27,43,1,REAL,FAKE,,,,,,,,,,,,,,,,,,,,,
,,,,,,,5c59aecb6ca5e600017206de,605b45a4d25f287719a41696,605e1af5e22bfb8fc5290cc2,Mexico,Midwest,13 or older,no,2021-03-26_13h34.06.859,empathy_intonation_perc,2020.2.10,Win32,60,,,,,,,,,,1,,,,,,,,,,,,,,,,,,,,,,,,,,,,,,,,,,,,,,,,39,torpe,,,0,0,1.176825,0,28,28,38,1,REAL,FAKE,,,,,,,,,,,,,,,,,,,,,
,,,,,,,5c59aecb6ca5e600017206de,605b45a4d25f287719a41696,605e1af5e22bfb8fc5290cc2,Mexico,Midwest,13 or older,no,2021-03-26_13h34.06.859,empathy_intonation_perc,2020.2.10,Win32,60,,,,,,,,,,1,,,,,,,,,,,,,,,,,,,,,,,,,,,,,,,,,,,,,,,,26,secuestro,,,0,0,5.290585,0,29,29,25,1,REAL,FAKE,,,,,,,,,,,,,,,,,,,,,
,,,,,,,5c59aecb6ca5e600017206de,605b45a4d25f287719a41696,605e1af5e22bfb8fc5290cc2,Mexico,Midwest,13 or older,no,2021-03-26_13h34.06.859,empathy_intonation_perc,2020.2.10,Win32,60,,,,,,,,,,0,,,,,,,,,,,,,,,,,,,,,,,,,,,,,,,,,,,,,,,,16,abracer,,,0,1,2.588315,0,30,30,15,1,REAL,FAKE,,,,,,,,,,,,,,,,,,,,,
,,,,,,,5c59aecb6ca5e600017206de,605b45a4d25f287719a41696,605e1af5e22bfb8fc5290cc2,Mexico,Midwest,13 or older,no,2021-03-26_13h34.06.859,empathy_intonation_perc,2020.2.10,Win32,60,,,,,,,,,,1,,,,,,,,,,,,,,,,,,,,,,,,,,,,,,,,,,,,,,,,61,seda,,,0,0,0.972285,0,31,31,60,1,REAL,FAKE,,,,,,,,,,,,,,,,,,,,,
,,,,,,,5c59aecb6ca5e600017206de,605b45a4d25f287719a41696,605e1af5e22bfb8fc5290cc2,Mexico,Midwest,13 or older,no,2021-03-26_13h34.06.859,empathy_intonation_perc,2020.2.10,Win32,60,,,,,,,,,,0,,,,,,,,,,,,,,,,,,,,,,,,,,,,,,,,,,,,,,,,84,escuto,,,0,1,0.968455,0,32,32,83,1,REAL,FAKE,,,,,,,,,,,,,,,,,,,,,
,,,,,,,5c59aecb6ca5e600017206de,605b45a4d25f287719a41696,605e1af5e22bfb8fc5290cc2,Mexico,Midwest,13 or older,no,2021-03-26_13h34.06.859,empathy_intonation_perc,2020.2.10,Win32,60,,,,,,,,,,1,,,,,,,,,,,,,,,,,,,,,,,,,,,,,,,,,,,,,,,,12,asesinato,,,0,0,0.76082,0,33,33,11,1,REAL,FAKE,,,,,,,,,,,,,,,,,,,,,
,,,,,,,5c59aecb6ca5e600017206de,605b45a4d25f287719a41696,605e1af5e22bfb8fc5290cc2,Mexico,Midwest,13 or older,no,2021-03-26_13h34.06.859,empathy_intonation_perc,2020.2.10,Win32,60,,,,,,,,,,1,,,,,,,,,,,,,,,,,,,,,,,,,,,,,,,,,,,,,,,,34,aviso,,,1,1,0.86806,0,34,34,33,1,REAL,FAKE,,,,,,,,,,,,,,,,,,,,,
,,,,,,,5c59aecb6ca5e600017206de,605b45a4d25f287719a41696,605e1af5e22bfb8fc5290cc2,Mexico,Midwest,13 or older,no,2021-03-26_13h34.06.859,empathy_intonation_perc,2020.2.10,Win32,60,,,,,,,,,,1,,,,,,,,,,,,,,,,,,,,,,,,,,,,,,,,,,,,,,,,40,alfombra,,,0,0,0.75439,0,35,35,39,1,REAL,FAKE,,,,,,,,,,,,,,,,,,,,,
,,,,,,,5c59aecb6ca5e600017206de,605b45a4d25f287719a41696,605e1af5e22bfb8fc5290cc2,Mexico,Midwest,13 or older,no,2021-03-26_13h34.06.859,empathy_intonation_perc,2020.2.10,Win32,60,,,,,,,,,,1,,,,,,,,,,,,,,,,,,,,,,,,,,,,,,,,,,,,,,,,83,guante,,,0,0,1.109265,0,36,36,82,1,REAL,FAKE,,,,,,,,,,,,,,,,,,,,,
,,,,,,,5c59aecb6ca5e600017206de,605b45a4d25f287719a41696,605e1af5e22bfb8fc5290cc2,Mexico,Midwest,13 or older,no,2021-03-26_13h34.06.859,empathy_intonation_perc,2020.2.10,Win32,60,,,,,,,,,,0,,,,,,,,,,,,,,,,,,,,,,,,,,,,,,,,,,,,,,,,18,arsa,,,0,1,0.868125,0,37,37,17,1,REAL,FAKE,,,,,,,,,,,,,,,,,,,,,
,,,,,,,5c59aecb6ca5e600017206de,605b45a4d25f287719a41696,605e1af5e22bfb8fc5290cc2,Mexico,Midwest,13 or older,no,2021-03-26_13h34.06.859,empathy_intonation_perc,2020.2.10,Win32,60,,,,,,,,,,1,,,,,,,,,,,,,,,,,,,,,,,,,,,,,,,,,,,,,,,,37,granuja,,,0,0,3.823625,0,38,38,36,1,REAL,FAKE,,,,,,,,,,,,,,,,,,,,,
,,,,,,,5c59aecb6ca5e600017206de,605b45a4d25f287719a41696,605e1af5e22bfb8fc5290cc2,Mexico,Midwest,13 or older,no,2021-03-26_13h34.06.859,empathy_intonation_perc,2020.2.10,Win32,60,,,,,,,,,,1,,,,,,,,,,,,,,,,,,,,,,,,,,,,,,,,,,,,,,,,28,merodear,,,0,0,5.005775,0,39,39,27,1,REAL,FAKE,,,,,,,,,,,,,,,,,,,,,
,,,,,,,5c59aecb6ca5e600017206de,605b45a4d25f287719a41696,605e1af5e22bfb8fc5290cc2,Mexico,Midwest,13 or older,no,2021-03-26_13h34.06.859,empathy_intonation_perc,2020.2.10,Win32,60,,,,,,,,,,0,,,,,,,,,,,,,,,,,,,,,,,,,,,,,,,,,,,,,,,,53,vegada,,,0,1,3.9869,0,40,40,52,1,REAL,FAKE,,,,,,,,,,,,,,,,,,,,,
,,,,,,,5c59aecb6ca5e600017206de,605b45a4d25f287719a41696,605e1af5e22bfb8fc5290cc2,Mexico,Midwest,13 or older,no,2021-03-26_13h34.06.859,empathy_intonation_perc,2020.2.10,Win32,60,,,,,,,,,,1,,,,,,,,,,,,,,,,,,,,,,,,,,,,,,,,,,,,,,,,2,pellizcar,,,0,0,0.779105,0,41,41,1,1,REAL,FAKE,,,,,,,,,,,,,,,,,,,,,
,,,,,,,5c59aecb6ca5e600017206de,605b45a4d25f287719a41696,605e1af5e22bfb8fc5290cc2,Mexico,Midwest,13 or older,no,2021-03-26_13h34.06.859,empathy_intonation_perc,2020.2.10,Win32,60,,,,,,,,,,0,,,,,,,,,,,,,,,,,,,,,,,,,,,,,,,,,,,,,,,,33,pauca,,,0,1,0.86929,0,42,42,32,1,REAL,FAKE,,,,,,,,,,,,,,,,,,,,,
,,,,,,,5c59aecb6ca5e600017206de,605b45a4d25f287719a41696,605e1af5e22bfb8fc5290cc2,Mexico,Midwest,13 or older,no,2021-03-26_13h34.06.859,empathy_intonation_perc,2020.2.10,Win32,60,,,,,,,,,,1,,,,,,,,,,,,,,,,,,,,,,,,,,,,,,,,,,,,,,,,48,ladrn,,,0,0,0.644015,0,43,43,47,1,REAL,FAKE,,,,,,,,,,,,,,,,,,,,,
,,,,,,,5c59aecb6ca5e600017206de,605b45a4d25f287719a41696,605e1af5e22bfb8fc5290cc2,Mexico,Midwest,13 or older,no,2021-03-26_13h34.06.859,empathy_intonation_perc,2020.2.10,Win32,60,,,,,,,,,,1,,,,,,,,,,,,,,,,,,,,,,,,,,,,,,,,,,,,,,,,73,hervidor,,,1,1,2.536435,0,44,44,72,1,REAL,FAKE,,,,,,,,,,,,,,,,,,,,,
,,,,,,,5c59aecb6ca5e600017206de,605b45a4d25f287719a41696,605e1af5e22bfb8fc5290cc2,Mexico,Midwest,13 or older,no,2021-03-26_13h34.06.859,empathy_intonation_perc,2020.2.10,Win32,60,,,,,,,,,,0,,,,,,,,,,,,,,,,,,,,,,,,,,,,,,,,,,,,,,,,4,batilln,,,0,1,1.334975,0,45,45,3,1,REAL,FAKE,,,,,,,,,,,,,,,,,,,,,
,,,,,,,5c59aecb6ca5e600017206de,605b45a4d25f287719a41696,605e1af5e22bfb8fc5290cc2,Mexico,Midwest,13 or older,no,2021-03-26_13h34.06.859,empathy_intonation_perc,2020.2.10,Win32,60,,,,,,,,,,0,,,,,,,,,,,,,,,,,,,,,,,,,,,,,,,,,,,,,,,,30,alardio,,,1,0,4.44098,0,46,46,29,1,REAL,FAKE,,,,,,,,,,,,,,,,,,,,,
,,,,,,,5c59aecb6ca5e600017206de,605b45a4d25f287719a41696,605e1af5e22bfb8fc5290cc2,Mexico,Midwest,13 or older,no,2021-03-26_13h34.06.859,empathy_intonation_perc,2020.2.10,Win32,60,,,,,,,,,,0,,,,,,,,,,,,,,,,,,,,,,,,,,,,,,,,,,,,,,,,50,flamida,,,1,0,1.20185,0,47,47,49,1,REAL,FAKE,,,,,,,,,,,,,,,,,,,,,
,,,,,,,5c59aecb6ca5e600017206de,605b45a4d25f287719a41696,605e1af5e22bfb8fc5290cc2,Mexico,Midwest,13 or older,no,2021-03-26_13h34.06.859,empathy_intonation_perc,2020.2.10,Win32,60,,,,,,,,,,1,,,,,,,,,,,,,,,,,,,,,,,,,,,,,,,,,,,,,,,,7,psimo,,,0,0,0.984655,0,48,48,6,1,REAL,FAKE,,,,,,,,,,,,,,,,,,,,,
,,,,,,,5c59aecb6ca5e600017206de,605b45a4d25f287719a41696,605e1af5e22bfb8fc5290cc2,Mexico,Midwest,13 or older,no,2021-03-26_13h34.06.859,empathy_intonation_perc,2020.2.10,Win32,60,,,,,,,,,,1,,,,,,,,,,,,,,,,,,,,,,,,,,,,,,,,,,,,,,,,46,martillo,,,1,1,0.895965,0,49,49,45,1,REAL,FAKE,,,,,,,,,,,,,,,,,,,,,
,,,,,,,5c59aecb6ca5e600017206de,605b45a4d25f287719a41696,605e1af5e22bfb8fc5290cc2,Mexico,Midwest,13 or older,no,2021-03-26_13h34.06.859,empathy_intonation_perc,2020.2.10,Win32,60,,,,,,,,,,1,,,,,,,,,,,,,,,,,,,,,,,,,,,,,,,,,,,,,,,,24,ltigo,,,1,1,0.844945,0,50,50,23,1,REAL,FAKE,,,,,,,,,,,,,,,,,,,,,
,,,,,,,5c59aecb6ca5e600017206de,605b45a4d25f287719a41696,605e1af5e22bfb8fc5290cc2,Mexico,Midwest,13 or older,no,2021-03-26_13h34.06.859,empathy_intonation_perc,2020.2.10,Win32,60,,,,,,,,,,1,,,,,,,,,,,,,,,,,,,,,,,,,,,,,,,,,,,,,,,,67,cabello,,,1,1,0.94145,0,51,51,66,1,REAL,FAKE,,,,,,,,,,,,,,,,,,,,,
,,,,,,,5c59aecb6ca5e600017206de,605b45a4d25f287719a41696,605e1af5e22bfb8fc5290cc2,Mexico,Midwest,13 or older,no,2021-03-26_13h34.06.859,empathy_intonation_perc,2020.2.10,Win32,60,,,,,,,,,,0,,,,,,,,,,,,,,,,,,,,,,,,,,,,,,,,,,,,,,,,10,antar,,,1,0,0.839405,0,52,52,9,1,REAL,FAKE,,,,,,,,,,,,,,,,,,,,,
,,,,,,,5c59aecb6ca5e600017206de,605b45a4d25f287719a41696,605e1af5e22bfb8fc5290cc2,Mexico,Midwest,13 or older,no,2021-03-26_13h34.06.859,empathy_intonation_perc,2020.2.10,Win32,60,,,,,,,,,,1,,,,,,,,,,,,,,,,,,,,,,,,,,,,,,,,,,,,,,,,89,prisa,,,0,0,1.00671,0,53,53,88,1,REAL,FAKE,,,,,,,,,,,,,,,,,,,,,
,,,,,,,5c59aecb6ca5e600017206de,605b45a4d25f287719a41696,605e1af5e22bfb8fc5290cc2,Mexico,Midwest,13 or older,no,2021-03-26_13h34.06.859,empathy_intonation_perc,2020.2.10,Win32,60,,,,,,,,,,0,,,,,,,,,,,,,,,,,,,,,,,,,,,,,,,,,,,,,,,,29,decar,,,1,0,0.835125,0,54,54,28,1,REAL,FAKE,,,,,,,,,,,,,,,,,,,,,
,,,,,,,5c59aecb6ca5e600017206de,605b45a4d25f287719a41696,605e1af5e22bfb8fc5290cc2,Mexico,Midwest,13 or older,no,2021-03-26_13h34.06.859,empathy_intonation_perc,2020.2.10,Win32,60,,,,,,,,,,0,,,,,,,,,,,,,,,,,,,,,,,,,,,,,,,,,,,,,,,,87,grodo,,,0,1,0.76791,0,55,55,86,1,REAL,FAKE,,,,,,,,,,,,,,,,,,,,,
,,,,,,,5c59aecb6ca5e600017206de,605b45a4d25f287719a41696,605e1af5e22bfb8fc5290cc2,Mexico,Midwest,13 or older,no,2021-03-26_13h34.06.859,empathy_intonation_perc,2020.2.10,Win32,60,,,,,,,,,,1,,,,,,,,,,,,,,,,,,,,,,,,,,,,,,,,,,,,,,,,20,vido,,,0,0,0.884705,0,56,56,19,1,REAL,FAKE,,,,,,,,,,,,,,,,,,,,,
,,,,,,,5c59aecb6ca5e600017206de,605b45a4d25f287719a41696,605e1af5e22bfb8fc5290cc2,Mexico,Midwest,13 or older,no,2021-03-26_13h34.06.859,empathy_intonation_perc,2020.2.10,Win32,60,,,,,,,,,,1,,,,,,,,,,,,,,,,,,,,,,,,,,,,,,,,,,,,,,,,31,pandilla,,,0,0,1.41896,0,57,57,30,1,REAL,FAKE,,,,,,,,,,,,,,,,,,,,,
,,,,,,,5c59aecb6ca5e600017206de,605b45a4d25f287719a41696,605e1af5e22bfb8fc5290cc2,Mexico,Midwest,13 or older,no,2021-03-26_13h34.06.859,empathy_intonation_perc,2020.2.10,Win32,60,,,,,,,,,,1,,,,,,,,,,,,,,,,,,,,,,,,,,,,,,,,,,,,,,,,5,zapato,,,1,1,1.007265,0,58,58,4,1,REAL,FAKE,,,,,,,,,,,,,,,,,,,,,
,,,,,,,5c59aecb6ca5e600017206de,605b45a4d25f287719a41696,605e1af5e22bfb8fc5290cc2,Mexico,Midwest,13 or older,no,2021-03-26_13h34.06.859,empathy_intonation_perc,2020.2.10,Win32,60,,,,,,,,,,0,,,,,,,,,,,,,,,,,,,,,,,,,,,,,,,,,,,,,,,,82,empirador,,,1,0,1.543695,0,59,59,81,1,REAL,FAKE,,,,,,,,,,,,,,,,,,,,,
,,,,,,,5c59aecb6ca5e600017206de,605b45a4d25f287719a41696,605e1af5e22bfb8fc5290cc2,Mexico,Midwest,13 or older,no,2021-03-26_13h34.06.859,empathy_intonation_perc,2020.2.10,Win32,60,,,,,,,,,,1,,,,,,,,,,,,,,,,,,,,,,,,,,,,,,,,,,,,,,,,62,flaco,,,0,0,1.01094,0,60,60,61,1,REAL,FAKE,,,,,,,,,,,,,,,,,,,,,
,,,,,,,5c59aecb6ca5e600017206de,605b45a4d25f287719a41696,605e1af5e22bfb8fc5290cc2,Mexico,Midwest,13 or older,no,2021-03-26_13h34.06.859,empathy_intonation_perc,2020.2.10,Win32,60,,,,,,,,,,1,,,,,,,,,,,,,,,,,,,,,,,,,,,,,,,,,,,,,,,,80,hormiga,,,0,0,0.65922,0,61,61,79,1,REAL,FAKE,,,,,,,,,,,,,,,,,,,,,
,,,,,,,5c59aecb6ca5e600017206de,605b45a4d25f287719a41696,605e1af5e22bfb8fc5290cc2,Mexico,Midwest,13 or older,no,2021-03-26_13h34.06.859,empathy_intonation_perc,2020.2.10,Win32,60,,,,,,,,,,0,,,,,,,,,,,,,,,,,,,,,,,,,,,,,,,,,,,,,,,,8,cadea,,,0,1,1.10622,0,62,62,7,1,REAL,FAKE,,,,,,,,,,,,,,,,,,,,,
,,,,,,,5c59aecb6ca5e600017206de,605b45a4d25f287719a41696,605e1af5e22bfb8fc5290cc2,Mexico,Midwest,13 or older,no,2021-03-26_13h34.06.859,empathy_intonation_perc,2020.2.10,Win32,60,,,,,,,,,,1,,,,,,,,,,,,,,,,,,,,,,,,,,,,,,,,,,,,,,,,36,loro,,,0,0,0.992135,0,63,63,35,1,REAL,FAKE,,,,,,,,,,,,,,,,,,,,,
,,,,,,,5c59aecb6ca5e600017206de,605b45a4d25f287719a41696,605e1af5e22bfb8fc5290cc2,Mexico,Midwest,13 or older,no,2021-03-26_13h34.06.859,empathy_intonation_perc,2020.2.10,Win32,60,,,,,,,,,,1,,,,,,,,,,,,,,,,,,,,,,,,,,,,,,,,,,,,,,,,88,acantilado,,,0,0,0.96038,0,64,64,87,1,REAL,FAKE,,,,,,,,,,,,,,,,,,,,,
,,,,,,,5c59aecb6ca5e600017206de,605b45a4d25f287719a41696,605e1af5e22bfb8fc5290cc2,Mexico,Midwest,13 or older,no,2021-03-26_13h34.06.859,empathy_intonation_perc,2020.2.10,Win32,60,,,,,,,,,,1,,,,,,,,,,,,,,,,,,,,,,,,,,,,,,,,,,,,,,,,22,lacayo,,,0,0,0.66838,0,65,65,21,1,REAL,FAKE,,,,,,,,,,,,,,,,,,,,,
,,,,,,,5c59aecb6ca5e600017206de,605b45a4d25f287719a41696,605e1af5e22bfb8fc5290cc2,Mexico,Midwest,13 or older,no,2021-03-26_13h34.06.859,empathy_intonation_perc,2020.2.10,Win32,60,,,,,,,,,,0,,,,,,,,,,,,,,,,,,,,,,,,,,,,,,,,,,,,,,,,47,cartinar,,,0,1,0.657605,0,66,66,46,1,REAL,FAKE,,,,,,,,,,,,,,,,,,,,,
,,,,,,,5c59aecb6ca5e600017206de,605b45a4d25f287719a41696,605e1af5e22bfb8fc5290cc2,Mexico,Midwest,13 or older,no,2021-03-26_13h34.06.859,empathy_intonation_perc,2020.2.10,Win32,60,,,,,,,,,,1,,,,,,,,,,,,,,,,,,,,,,,,,,,,,,,,,,,,,,,,68,alegre,,,1,1,0.90439,0,67,67,67,1,REAL,FAKE,,,,,,,,,,,,,,,,,,,,,
,,,,,,,5c59aecb6ca5e600017206de,605b45a4d25f287719a41696,605e1af5e22bfb8fc5290cc2,Mexico,Midwest,13 or older,no,2021-03-26_13h34.06.859,empathy_intonation_perc,2020.2.10,Win32,60,,,,,,,,,,1,,,,,,,,,,,,,,,,,,,,,,,,,,,,,,,,,,,,,,,,55,nevar,,,1,1,0.989805,0,68,68,54,1,REAL,FAKE,,,,,,,,,,,,,,,,,,,,,
,,,,,,,5c59aecb6ca5e600017206de,605b45a4d25f287719a41696,605e1af5e22bfb8fc5290cc2,Mexico,Midwest,13 or older,no,2021-03-26_13h34.06.859,empathy_intonation_perc,2020.2.10,Win32,60,,,,,,,,,,1,,,,,,,,,,,,,,,,,,,,,,,,,,,,,,,,,,,,,,,,54,fomentar,,,0,0,0.790745,0,69,69,53,1,REAL,FAKE,,,,,,,,,,,,,,,,,,,,,
,,,,,,,5c59aecb6ca5e600017206de,605b45a4d25f287719a41696,605e1af5e22bfb8fc5290cc2,Mexico,Midwest,13 or older,no,2021-03-26_13h34.06.859,empathy_intonation_perc,2020.2.10,Win32,60,,,,,,,,,,0,,,,,,,,,,,,,,,,,,,,,,,,,,,,,,,,,,,,,,,,66,hacido,,,1,0,1.885875,0,70,70,65,1,REAL,FAKE,,,,,,,,,,,,,,,,,,,,,
,,,,,,,5c59aecb6ca5e600017206de,605b45a4d25f287719a41696,605e1af5e22bfb8fc5290cc2,Mexico,Midwest,13 or older,no,2021-03-26_13h34.06.859,empathy_intonation_perc,2020.2.10,Win32,60,,,,,,,,,,1,,,,,,,,,,,,,,,,,,,,,,,,,,,,,,,,,,,,,,,,64,orgulloso,,,0,0,0.73484,0,71,71,63,1,REAL,FAKE,,,,,,,,,,,,,,,,,,,,,
,,,,,,,5c59aecb6ca5e600017206de,605b45a4d25f287719a41696,605e1af5e22bfb8fc5290cc2,Mexico,Midwest,13 or older,no,2021-03-26_13h34.06.859,empathy_intonation_perc,2020.2.10,Win32,60,,,,,,,,,,1,,,,,,,,,,,,,,,,,,,,,,,,,,,,,,,,,,,,,,,,90,clavel,,,0,0,0.80154,0,72,72,89,1,REAL,FAKE,,,,,,,,,,,,,,,,,,,,,
,,,,,,,5c59aecb6ca5e600017206de,605b45a4d25f287719a41696,605e1af5e22bfb8fc5290cc2,Mexico,Midwest,13 or older,no,2021-03-26_13h34.06.859,empathy_intonation_perc,2020.2.10,Win32,60,,,,,,,,,,0,,,,,,,,,,,,,,,,,,,,,,,,,,,,,,,,,,,,,,,,21,capillo,,,0,1,1.56975,0,73,73,20,1,REAL,FAKE,,,,,,,,,,,,,,,,,,,,,
,,,,,,,5c59aecb6ca5e600017206de,605b45a4d25f287719a41696,605e1af5e22bfb8fc5290cc2,Mexico,Midwest,13 or older,no,2021-03-26_13h34.06.859,empathy_intonation_perc,2020.2.10,Win32,60,,,,,,,,,,0,,,,,,,,,,,,,,,,,,,,,,,,,,,,,,,,,,,,,,,,35,rompido,,,0,1,1.29155,0,74,74,34,1,REAL,FAKE,,,,,,,,,,,,,,,,,,,,,
,,,,,,,5c59aecb6ca5e600017206de,605b45a4d25f287719a41696,605e1af5e22bfb8fc5290cc2,Mexico,Midwest,13 or older,no,2021-03-26_13h34.06.859,empathy_intonation_perc,2020.2.10,Win32,60,,,,,,,,,,1,,,,,,,,,,,,,,,,,,,,,,,,,,,,,,,,,,,,,,,,81,pozo,,,1,1,1.008055,0,75,75,80,1,REAL,FAKE,,,,,,,,,,,,,,,,,,,,,
,,,,,,,5c59aecb6ca5e600017206de,605b45a4d25f287719a41696,605e1af5e22bfb8fc5290cc2,Mexico,Midwest,13 or older,no,2021-03-26_13h34.06.859,empathy_intonation_perc,2020.2.10,Win32,60,,,,,,,,,,1,,,,,,,,,,,,,,,,,,,,,,,,,,,,,,,,,,,,,,,,75,yacer,,,0,0,0.96894,0,76,76,74,1,REAL,FAKE,,,,,,,,,,,,,,,,,,,,,
,,,,,,,5c59aecb6ca5e600017206de,605b45a4d25f287719a41696,605e1af5e22bfb8fc5290cc2,Mexico,Midwest,13 or older,no,2021-03-26_13h34.06.859,empathy_intonation_perc,2020.2.10,Win32,60,,,,,,,,,,1,,,,,,,,,,,,,,,,,,,,,,,,,,,,,,,,,,,,,,,,41,rebuscar,,,0,0,1.17105,0,77,77,40,1,REAL,FAKE,,,,,,,,,,,,,,,,,,,,,
,,,,,,,5c59aecb6ca5e600017206de,605b45a4d25f287719a41696,605e1af5e22bfb8fc5290cc2,Mexico,Midwest,13 or older,no,2021-03-26_13h34.06.859,empathy_intonation_perc,2020.2.10,Win32,60,,,,,,,,,,1,,,,,,,,,,,,,,,,,,,,,,,,,,,,,,,,,,,,,,,,56,musgo,,,0,0,1.085565,0,78,78,55,1,REAL,FAKE,,,,,,,,,,,,,,,,,,,,,
,,,,,,,5c59aecb6ca5e600017206de,605b45a4d25f287719a41696,605e1af5e22bfb8fc5290cc2,Mexico,Midwest,13 or older,no,2021-03-26_13h34.06.859,empathy_intonation_perc,2020.2.10,Win32,60,,,,,,,,,,1,,,,,,,,,,,,,,,,,,,,,,,,,,,,,,,,,,,,,,,,6,tergiversar,,,0,0,0.810025,0,79,79,5,1,REAL,FAKE,,,,,,,,,,,,,,,,,,,,,
,,,,,,,5c59aecb6ca5e600017206de,605b45a4d25f287719a41696,605e1af5e22bfb8fc5290cc2,Mexico,Midwest,13 or older,no,2021-03-26_13h34.06.859,empathy_intonation_perc,2020.2.10,Win32,60,,,,,,,,,,1,,,,,,,,,,,,,,,,,,,,,,,,,,,,,,,,,,,,,,,,49,ganar,,,0,0,1.002985,0,80,80,48,1,REAL,FAKE,,,,,,,,,,,,,,,,,,,,,
,,,,,,,5c59aecb6ca5e600017206de,605b45a4d25f287719a41696,605e1af5e22bfb8fc5290cc2,Mexico,Midwest,13 or older,no,2021-03-26_13h34.06.859,empathy_intonation_perc,2020.2.10,Win32,60,,,,,,,,,,1,,,,,,,,,,,,,,,,,,,,,,,,,,,,,,,,,,,,,,,,25,bisagra,,,0,0,0.701445,0,81,81,24,1,REAL,FAKE,,,,,,,,,,,,,,,,,,,,,
,,,,,,,5c59aecb6ca5e600017206de,605b45a4d25f287719a41696,605e1af5e22bfb8fc5290cc2,Mexico,Midwest,13 or older,no,2021-03-26_13h34.06.859,empathy_intonation_perc,2020.2.10,Win32,60,,,,,,,,,,0,,,,,,,,,,,,,,,,,,,,,,,,,,,,,,,,,,,,,,,,70,temblo,,,0,1,1.656665,0,82,82,69,1,REAL,FAKE,,,,,,,,,,,,,,,,,,,,,
,,,,,,,5c59aecb6ca5e600017206de,605b45a4d25f287719a41696,605e1af5e22bfb8fc5290cc2,Mexico,Midwest,13 or older,no,2021-03-26_13h34.06.859,empathy_intonation_perc,2020.2.10,Win32,60,,,,,,,,,,0,,,,,,,,,,,,,,,,,,,,,,,,,,,,,,,,,,,,,,,,32,fatacidad,,,0,1,0.918705,0,83,83,31,1,REAL,FAKE,,,,,,,,,,,,,,,,,,,,,
,,,,,,,5c59aecb6ca5e600017206de,605b45a4d25f287719a41696,605e1af5e22bfb8fc5290cc2,Mexico,Midwest,13 or older,no,2021-03-26_13h34.06.859,empathy_intonation_perc,2020.2.10,Win32,60,,,,,,,,,,0,,,,,,,,,,,,,,,,,,,,,,,,,,,,,,,,,,,,,,,,79,tropaje,,,1,0,0.88506,0,84,84,78,1,REAL,FAKE,,,,,,,,,,,,,,,,,,,,,
,,,,,,,5c59aecb6ca5e600017206de,605b45a4d25f287719a41696,605e1af5e22bfb8fc5290cc2,Mexico,Midwest,13 or older,no,2021-03-26_13h34.06.859,empathy_intonation_perc,2020.2.10,Win32,60,,,,,,,,,,1,,,,,,,,,,,,,,,,,,,,,,,,,,,,,,,,,,,,,,,,69,engatusar,,,0,0,0.720415,0,85,85,68,1,REAL,FAKE,,,,,,,,,,,,,,,,,,,,,
,,,,,,,5c59aecb6ca5e600017206de,605b45a4d25f287719a41696,605e1af5e22bfb8fc5290cc2,Mexico,Midwest,13 or older,no,2021-03-26_13h34.06.859,empathy_intonation_perc,2020.2.10,Win32,60,,,,,,,,,,1,,,,,,,,,,,,,,,,,,,,,,,,,,,,,,,,,,,,,,,,15,regar,,,1,1,0.852525,0,86,86,14,1,REAL,FAKE,,,,,,,,,,,,,,,,,,,,,
,,,,,,,5c59aecb6ca5e600017206de,605b45a4d25f287719a41696,605e1af5e22bfb8fc5290cc2,Mexico,Midwest,13 or older,no,2021-03-26_13h34.06.859,empathy_intonation_perc,2020.2.10,Win32,60,,,,,,,,,,0,,,,,,,,,,,,,,,,,,,,,,,,,,,,,,,,,,,,,,,,27,acutacin,,,0,1,1.21224,0,87,87,26,1,REAL,FAKE,,,,,,,,,,,,,,,,,,,,,
,,,,,,,5c59aecb6ca5e600017206de,605b45a4d25f287719a41696,605e1af5e22bfb8fc5290cc2,Mexico,Midwest,13 or older,no,2021-03-26_13h34.06.859,empathy_intonation_perc,2020.2.10,Win32,60,,,,,,,,,,0,,,,,,,,,,,,,,,,,,,,,,,,,,,,,,,,,,,,,,,,19,brecedad,,,0,1,1.40436,0,88,88,18,1,REAL,FAKE,,,,,,,,,,,,,,,,,,,,,
,,,,,,,5c59aecb6ca5e600017206de,605b45a4d25f287719a41696,605e1af5e22bfb8fc5290cc2,Mexico,Midwest,13 or older,no,2021-03-26_13h34.06.859,empathy_intonation_perc,2020.2.10,Win32,60,,,,,,,,,,1,,,,,,,,,,,,,,,,,,,,,,,,,,,,,,,,,,,,,,,,43,canela,,,1,1,1.385435,0,89,89,42,1,REAL,FAKE,,,,,,,,,,,,,,,,,,,,,
,,,,,,,5c59aecb6ca5e600017206de,605b45a4d25f287719a41696,605e1af5e22bfb8fc5290cc2,Mexico,Midwest,13 or older,no,2021-03-26_13h34.06.859,empathy_intonation_perc,2020.2.10,Win32,60,,,,,,,,,,,,,,,,,,,,,,,,,,,,,,,,,,,,,,,,,,,,,,,,,,,,,,,,,,,,,,,,4,1,3.32226,1,0,0,0,0,0,1,,,,,,,,,,,
,,,,,,,5c59aecb6ca5e600017206de,605b45a4d25f287719a41696,605e1af5e22bfb8fc5290cc2,Mexico,Midwest,13 or older,no,2021-03-26_13h34.06.859,empathy_intonation_perc,2020.2.10,Win32,60,,,,,,,,,,,,,,,,,,,,1,,,,,,,,,,,,,,,,,,,,,,,,,,,,,,,,,,,,,,,,,,,,,,,,,,,,,,2,0,0,0,0,1,I can easily tell if someone else wants to enter a conversation.,1,0,1,0
,,,,,,,5c59aecb6ca5e600017206de,605b45a4d25f287719a41696,605e1af5e22bfb8fc5290cc2,Mexico,Midwest,13 or older,no,2021-03-26_13h34.06.859,empathy_intonation_perc,2020.2.10,Win32,60,,,,,,,,,,,,,,,,,,,,2,,,,,,,,,,,,,,,,,,,,,,,,,,,,,,,,,,,,,,,,,,,,,,,,,,,,,,3,0,1,1,1,1,I prefer animals to humans.,0,1,0,0
,,,,,,,5c59aecb6ca5e600017206de,605b45a4d25f287719a41696,605e1af5e22bfb8fc5290cc2,Mexico,Midwest,13 or older,no,2021-03-26_13h34.06.859,empathy_intonation_perc,2020.2.10,Win32,60,,,,,,,,,,,,,,,,,,,,3,,,,,,,,,,,,,,,,,,,,,,,,,,,,,,,,,,,,,,,,,,,,,,,,,,,,,,2,0,2,2,2,1,I try to keep up with the current trends and fashions.,0,1,0,0
,,,,,,,5c59aecb6ca5e600017206de,605b45a4d25f287719a41696,605e1af5e22bfb8fc5290cc2,Mexico,Midwest,13 or older,no,2021-03-26_13h34.06.859,empathy_intonation_perc,2020.2.10,Win32,60,,,,,,,,,,,,,,,,,,,,4,,,,,,,,,,,,,,,,,,,,,,,,,,,,,,,,,,,,,,,,,,,,,,,,,,,,,,4,0,3,3,3,1,"I find it difficult to explain to others things that I understand easily, 
  when they dont understand it first time.",1,0,0,1
,,,,,,,5c59aecb6ca5e600017206de,605b45a4d25f287719a41696,605e1af5e22bfb8fc5290cc2,Mexico,Midwest,13 or older,no,2021-03-26_13h34.06.859,empathy_intonation_perc,2020.2.10,Win32,60,,,,,,,,,,,,,,,,,,,,5,,,,,,,,,,,,,,,,,,,,,,,,,,,,,,,,,,,,,,,,,,,,,,,,,,,,,,2,0,4,4,4,1,I dream most nights.,0,1,0,0
,,,,,,,5c59aecb6ca5e600017206de,605b45a4d25f287719a41696,605e1af5e22bfb8fc5290cc2,Mexico,Midwest,13 or older,no,2021-03-26_13h34.06.859,empathy_intonation_perc,2020.2.10,Win32,60,,,,,,,,,,,,,,,,,,,,6,,,,,,,,,,,,,,,,,,,,,,,,,,,,,,,,,,,,,,,,,,,,,,,,,,,,,,1,0,5,5,5,1,I really enjoy caring for other people.,1,0,1,0
,,,,,,,5c59aecb6ca5e600017206de,605b45a4d25f287719a41696,605e1af5e22bfb8fc5290cc2,Mexico,Midwest,13 or older,no,2021-03-26_13h34.06.859,empathy_intonation_perc,2020.2.10,Win32,60,,,,,,,,,,,,,,,,,,,,7,,,,,,,,,,,,,,,,,,,,,,,,,,,,,,,,,,,,,,,,,,,,,,,,,,,,,,3,0,6,6,6,1,I try to solve my own problems rather than discussing them with others.,0,1,0,0
,,,,,,,5c59aecb6ca5e600017206de,605b45a4d25f287719a41696,605e1af5e22bfb8fc5290cc2,Mexico,Midwest,13 or older,no,2021-03-26_13h34.06.859,empathy_intonation_perc,2020.2.10,Win32,60,,,,,,,,,,,,,,,,,,,,8,,,,,,,,,,,,,,,,,,,,,,,,,,,,,,,,,,,,,,,,,,,,,,,,,,,,,,4,0,7,7,7,1,I find it hard to know what to do in a social situation.,1,0,0,1
,,,,,,,5c59aecb6ca5e600017206de,605b45a4d25f287719a41696,605e1af5e22bfb8fc5290cc2,Mexico,Midwest,13 or older,no,2021-03-26_13h34.06.859,empathy_intonation_perc,2020.2.10,Win32,60,,,,,,,,,,,,,,,,,,,,9,,,,,,,,,,,,,,,,,,,,,,,,,,,,,,,,,,,,,,,,,,,,,,,,,,,,,,3,0,8,8,8,1,I am at my best first thing in the morning.,0,1,0,0
