instructions_2afc_loop.thisRepN,instructions_2afc_loop.thisTrialN,instructions_2afc_loop.thisN,instructions_2afc_loop.thisIndex,instructions_2afc_loop.ran,instructions_text,continue_text,participant,study_id,session,I am most familiar with Spanish from...*,What part of the US are you from?*,At what age did you begin learning Spanish?*,Are you proficient in any languages other than English/Spanish?*,date,expName,psychopyVersion,OS,frameRate,key_resp_2afc_practice.keys,key_resp_2afc_practice.corr,key_resp_2afc_practice.rt,trials_2afc_practice_loop.thisRepN,trials_2afc_practice_loop.thisTrialN,trials_2afc_practice_loop.thisN,trials_2afc_practice_loop.thisIndex,trials_2afc_practice_loop.ran,path,correct_response,the_col,key_resp_2afc_trial.keys,key_resp_2afc_trial.corr,key_resp_2afc_trial.rt,trials_2afc_loop.thisRepN,trials_2afc_loop.thisTrialN,trials_2afc_loop.thisN,trials_2afc_loop.thisIndex,trials_2afc_loop.ran,item_num,andalusian,argentine,castilian,chilean,cuban,mexican,peruvian,puertorican,key_resp_ac1.keys,key_resp_ac1.corr,key_resp_ac1.rt,ac1_loop.thisRepN,ac1_loop.thisTrialN,ac1_loop.thisN,ac1_loop.thisIndex,ac1_loop.ran,instructions_lextale_loop.thisRepN,instructions_lextale_loop.thisTrialN,instructions_lextale_loop.thisN,instructions_lextale_loop.thisIndex,instructions_lextale_loop.ran,key_resp_lextale_practice.keys,key_resp_lextale_practice.corr,key_resp_lextale_practice.rt,trials_lextale_practice_loop.thisRepN,trials_lextale_practice_loop.thisTrialN,trials_lextale_practice_loop.thisN,trials_lextale_practice_loop.thisIndex,trials_lextale_practice_loop.ran,stim,word,prac_button_real,prac_button_false,key_resp_lextale_trial.keys,key_resp_lextale_trial.corr,key_resp_lextale_trial.rt,trials_lextale_loop.thisRepN,trials_lextale_loop.thisTrialN,trials_lextale_loop.thisN,trials_lextale_loop.thisIndex,trials_lextale_loop.ran,button_real,button_false,key_resp_ac2.keys,key_resp_ac2.corr,key_resp_ac2.rt,check_pass,check_fails,ac2_loop.thisRepN,ac2_loop.thisTrialN,ac2_loop.thisN,ac2_loop.thisIndex,ac2_loop.ran,slider_eq_trial.response,trials_eq_loop.thisRepN,trials_eq_loop.thisTrialN,trials_eq_loop.thisN,trials_eq_loop.thisIndex,trials_eq_loop.ran,item,is_test_item,is_distractor,is_agree_score,is_disagree_score
0,0,0,0,1,"In the following task you are going to hear a series of utterances. 

  You will decide if the utterances sound like questions or not using your keyboard.",(press the spacebar to continue),5c70eafaf6c9fe00013eeafb,605b45a4d25f287719a41696,605cb98c721a4d5d04206d41,United States,Midwest,13 or older,no,2021-03-25_12h30.19.874,empathy_intonation_perc,2020.2.10,Win32,60,,,,,,,,,,,,,,,,,,,,,,,,,,,,,,,,,,,,,,,,,,,,,,,,,,,,,,,,,,,,,,,,,,,,,,,,,,,,,,,,,,,,
0,1,1,1,1,"If you believe the utterance is a question, type '1' (for 'yes') and if you do not 
  believe it is a question type '0' (for 'no').

  Let's practice a bit...",(press the spacebar to continue),5c70eafaf6c9fe00013eeafb,605b45a4d25f287719a41696,605cb98c721a4d5d04206d41,United States,Midwest,13 or older,no,2021-03-25_12h30.19.874,empathy_intonation_perc,2020.2.10,Win32,60,,,,,,,,,,,,,,,,,,,,,,,,,,,,,,,,,,,,,,,,,,,,,,,,,,,,,,,,,,,,,,,,,,,,,,,,,,,,,,,,,,,,
,,,,,,,5c70eafaf6c9fe00013eeafb,605b45a4d25f287719a41696,605cb98c721a4d5d04206d41,United States,Midwest,13 or older,no,2021-03-25_12h30.19.874,empathy_intonation_perc,2020.2.10,Win32,60,1,0,2.052175,0,0,0,4,1,./stim/wavs/cuban_statement_filler_Cocinabas-por-la-noche.wav,0,,,,,,,,,,,,,,,,,,,,,,,,,,,,,,,,,,,,,,,,,,,,,,,,,,,,,,,,,,,,,,,,,,,,,,,,,,
,,,,,,,5c70eafaf6c9fe00013eeafb,605b45a4d25f287719a41696,605cb98c721a4d5d04206d41,United States,Midwest,13 or older,no,2021-03-25_12h30.19.874,empathy_intonation_perc,2020.2.10,Win32,60,0,1,2.5118,0,1,1,7,1,./stim/wavs/puertorican_statement_filler_La-nina-pinta-con-su-amiga.wav,0,,,,,,,,,,,,,,,,,,,,,,,,,,,,,,,,,,,,,,,,,,,,,,,,,,,,,,,,,,,,,,,,,,,,,,,,,,
,,,,,,,5c70eafaf6c9fe00013eeafb,605b45a4d25f287719a41696,605cb98c721a4d5d04206d41,United States,Midwest,13 or older,no,2021-03-25_12h30.19.874,empathy_intonation_perc,2020.2.10,Win32,60,1,1,2.59547,0,2,2,3,1,./stim/wavs/mexican_question_filler_Felipe-no-tiene-contrasena.wav,1,,,,,,,,,,,,,,,,,,,,,,,,,,,,,,,,,,,,,,,,,,,,,,,,,,,,,,,,,,,,,,,,,,,,,,,,,,
,,,,,,,5c70eafaf6c9fe00013eeafb,605b45a4d25f287719a41696,605cb98c721a4d5d04206d41,United States,Midwest,13 or older,no,2021-03-25_12h30.19.874,empathy_intonation_perc,2020.2.10,Win32,60,0,1,2.609415,0,3,3,6,1,./stim/wavs/peruvian_statement_filler_El-nino-habla-con-su-madre.wav,0,,,,,,,,,,,,,,,,,,,,,,,,,,,,,,,,,,,,,,,,,,,,,,,,,,,,,,,,,,,,,,,,,,,,,,,,,,
,,,,,,,5c70eafaf6c9fe00013eeafb,605b45a4d25f287719a41696,605cb98c721a4d5d04206d41,United States,Midwest,13 or older,no,2021-03-25_12h30.19.874,empathy_intonation_perc,2020.2.10,Win32,60,0,1,2.10394,0,4,4,5,1,./stim/wavs/andalusian_statement_filler_Alberto-nunca-se-afeita.wav,0,,,,,,,,,,,,,,,,,,,,,,,,,,,,,,,,,,,,,,,,,,,,,,,,,,,,,,,,,,,,,,,,,,,,,,,,,,
,,,,,,,5c70eafaf6c9fe00013eeafb,605b45a4d25f287719a41696,605cb98c721a4d5d04206d41,United States,Midwest,13 or older,no,2021-03-25_12h30.19.874,empathy_intonation_perc,2020.2.10,Win32,60,0,0,1.983095,0,5,5,0,1,./stim/wavs/castilian_question_filler_Mi-esposo-conoce-al-chico.wav,1,,,,,,,,,,,,,,,,,,,,,,,,,,,,,,,,,,,,,,,,,,,,,,,,,,,,,,,,,,,,,,,,,,,,,,,,,,
,,,,,,,5c70eafaf6c9fe00013eeafb,605b45a4d25f287719a41696,605cb98c721a4d5d04206d41,United States,Midwest,13 or older,no,2021-03-25_12h30.19.874,empathy_intonation_perc,2020.2.10,Win32,60,1,1,2.184425,0,6,6,2,1,./stim/wavs/chilean_question_filler_Mi-padre-cantaba-bien.wav,1,,,,,,,,,,,,,,,,,,,,,,,,,,,,,,,,,,,,,,,,,,,,,,,,,,,,,,,,,,,,,,,,,,,,,,,,,,
,,,,,,,5c70eafaf6c9fe00013eeafb,605b45a4d25f287719a41696,605cb98c721a4d5d04206d41,United States,Midwest,13 or older,no,2021-03-25_12h30.19.874,empathy_intonation_perc,2020.2.10,Win32,60,1,1,1.885475,0,7,7,1,1,./stim/wavs/argentine_question_filler_Mi-vecino-habla-mucho.wav,1,,,,,,,,,,,,,,,,,,,,,,,,,,,,,,,,,,,,,,,,,,,,,,,,,,,,,,,,,,,,,,,,,,,,,,,,,,
,,,,,,,5c70eafaf6c9fe00013eeafb,605b45a4d25f287719a41696,605cb98c721a4d5d04206d41,United States,Midwest,13 or older,no,2021-03-25_12h30.19.874,empathy_intonation_perc,2020.2.10,Win32,60,,,,,,,,,,1,mexican,0,0,2.03438,0,0,0,49,1,50,./stim/wavs/andalusian_mismatch_interrogative-partial-wh_Cuando-lavaba-el-plato.wav,./stim/wavs/argentine_mismatch_interrogative-partial-wh_Cuando-lavaba-el-plato.wav,./stim/wavs/castilian_mismatch_interrogative-partial-wh_Cuando-lavaba-el-plato.wav,./stim/wavs/chilean_mismatch_interrogative-partial-wh_Cuando-lavaba-el-plato.wav,./stim/wavs/cuban_mismatch_interrogative-partial-wh_Cuando-lavaba-el-plato.wav,./stim/wavs/mexican_mismatch_interrogative-partial-wh_Cuando-lavaba-el-plato.wav,./stim/wavs/peruvian_mismatch_interrogative-partial-wh_Cuando-lavaba-el-plato.wav,./stim/wavs/puertorican_mismatch_interrogative-partial-wh_Cuando-lavaba-el-plato.wav,,,,,,,,,,,,,,,,,,,,,,,,,,,,,,,,,,,,,,,,,,,,,,,,,,,,,,,,
,,,,,,,5c70eafaf6c9fe00013eeafb,605b45a4d25f287719a41696,605cb98c721a4d5d04206d41,United States,Midwest,13 or older,no,2021-03-25_12h30.19.874,empathy_intonation_perc,2020.2.10,Win32,60,,,,,,,,,,1,puertorican,1,1,2.020475,0,1,1,31,1,32,./stim/wavs/andalusian_match_interrogative-total-yn_Marta-abre-el-regalo.wav,./stim/wavs/argentine_match_interrogative-total-yn_Marta-abre-el-regalo.wav,./stim/wavs/castilian_match_interrogative-total-yn_Marta-abre-el-regalo.wav,./stim/wavs/chilean_match_interrogative-total-yn_Marta-abre-el-regalo.wav,./stim/wavs/cuban_match_interrogative-total-yn_Marta-abre-el-regalo.wav,./stim/wavs/mexican_match_interrogative-total-yn_Marta-abre-el-regalo.wav,./stim/wavs/peruvian_match_interrogative-total-yn_Marta-abre-el-regalo.wav,./stim/wavs/puertorican_match_interrogative-total-yn_Marta-abre-el-regalo.wav,,,,,,,,,,,,,,,,,,,,,,,,,,,,,,,,,,,,,,,,,,,,,,,,,,,,,,,,
,,,,,,,5c70eafaf6c9fe00013eeafb,605b45a4d25f287719a41696,605cb98c721a4d5d04206d41,United States,Midwest,13 or older,no,2021-03-25_12h30.19.874,empathy_intonation_perc,2020.2.10,Win32,60,,,,,,,,,,0,castilian,0,1,2.376825,0,2,2,45,1,46,./stim/wavs/andalusian_mismatch_declarative-narrow-focus_Mi-madre-come-la-fruta.wav,./stim/wavs/argentine_mismatch_declarative-narrow-focus_Mi-madre-come-la-fruta.wav,./stim/wavs/castilian_mismatch_declarative-narrow-focus_Mi-madre-come-la-fruta.wav,./stim/wavs/chilean_mismatch_declarative-narrow-focus_Mi-madre-come-la-fruta.wav,./stim/wavs/cuban_mismatch_declarative-narrow-focus_Mi-madre-come-la-fruta.wav,./stim/wavs/mexican_mismatch_declarative-narrow-focus_Mi-madre-come-la-fruta.wav,./stim/wavs/peruvian_mismatch_declarative-narrow-focus_Mi-madre-come-la-fruta.wav,./stim/wavs/puertorican_mismatch_declarative-narrow-focus_Mi-madre-come-la-fruta.wav,,,,,,,,,,,,,,,,,,,,,,,,,,,,,,,,,,,,,,,,,,,,,,,,,,,,,,,,
,,,,,,,5c70eafaf6c9fe00013eeafb,605b45a4d25f287719a41696,605cb98c721a4d5d04206d41,United States,Midwest,13 or older,no,2021-03-25_12h30.19.874,empathy_intonation_perc,2020.2.10,Win32,60,,,,,,,,,,1,argentine,0,0,2.385415,0,3,3,56,1,57,./stim/wavs/andalusian_mismatch_interrogative-total-yn_El-bebe-comia-muy-bien.wav,./stim/wavs/argentine_mismatch_interrogative-total-yn_El-bebe-comia-muy-bien.wav,./stim/wavs/castilian_mismatch_interrogative-total-yn_El-bebe-comia-muy-bien.wav,./stim/wavs/chilean_mismatch_interrogative-total-yn_El-bebe-comia-muy-bien.wav,./stim/wavs/cuban_mismatch_interrogative-total-yn_El-bebe-comia-muy-bien.wav,./stim/wavs/mexican_mismatch_interrogative-total-yn_El-bebe-comia-muy-bien.wav,./stim/wavs/peruvian_mismatch_interrogative-total-yn_El-bebe-comia-muy-bien.wav,./stim/wavs/puertorican_mismatch_interrogative-total-yn_El-bebe-comia-muy-bien.wav,,,,,,,,,,,,,,,,,,,,,,,,,,,,,,,,,,,,,,,,,,,,,,,,,,,,,,,,
,,,,,,,5c70eafaf6c9fe00013eeafb,605b45a4d25f287719a41696,605cb98c721a4d5d04206d41,United States,Midwest,13 or older,no,2021-03-25_12h30.19.874,empathy_intonation_perc,2020.2.10,Win32,60,,,,,,,,,,1,andalusian,0,0,2.31897,0,4,4,50,1,51,./stim/wavs/andalusian_mismatch_interrogative-partial-wh_Cuando-miraba-la-luna.wav,./stim/wavs/argentine_mismatch_interrogative-partial-wh_Cuando-miraba-la-luna.wav,./stim/wavs/castilian_mismatch_interrogative-partial-wh_Cuando-miraba-la-luna.wav,./stim/wavs/chilean_mismatch_interrogative-partial-wh_Cuando-miraba-la-luna.wav,./stim/wavs/cuban_mismatch_interrogative-partial-wh_Cuando-miraba-la-luna.wav,./stim/wavs/mexican_mismatch_interrogative-partial-wh_Cuando-miraba-la-luna.wav,./stim/wavs/peruvian_mismatch_interrogative-partial-wh_Cuando-miraba-la-luna.wav,./stim/wavs/puertorican_mismatch_interrogative-partial-wh_Cuando-miraba-la-luna.wav,,,,,,,,,,,,,,,,,,,,,,,,,,,,,,,,,,,,,,,,,,,,,,,,,,,,,,,,
,,,,,,,5c70eafaf6c9fe00013eeafb,605b45a4d25f287719a41696,605cb98c721a4d5d04206d41,United States,Midwest,13 or older,no,2021-03-25_12h30.19.874,empathy_intonation_perc,2020.2.10,Win32,60,,,,,,,,,,0,argentine,0,1,1.909595,0,5,5,3,1,4,./stim/wavs/andalusian_match_declarative-broad-focus_Emilio-ama-la-marcha.wav,./stim/wavs/argentine_match_declarative-broad-focus_Emilio-ama-la-marcha.wav,./stim/wavs/castilian_match_declarative-broad-focus_Emilio-ama-la-marcha.wav,./stim/wavs/chilean_match_declarative-broad-focus_Emilio-ama-la-marcha.wav,./stim/wavs/cuban_match_declarative-broad-focus_Emilio-ama-la-marcha.wav,./stim/wavs/mexican_match_declarative-broad-focus_Emilio-ama-la-marcha.wav,./stim/wavs/peruvian_match_declarative-broad-focus_Emilio-ama-la-marcha.wav,./stim/wavs/puertorican_match_declarative-broad-focus_Emilio-ama-la-marcha.wav,,,,,,,,,,,,,,,,,,,,,,,,,,,,,,,,,,,,,,,,,,,,,,,,,,,,,,,,
,,,,,,,5c70eafaf6c9fe00013eeafb,605b45a4d25f287719a41696,605cb98c721a4d5d04206d41,United States,Midwest,13 or older,no,2021-03-25_12h30.19.874,empathy_intonation_perc,2020.2.10,Win32,60,,,,,,,,,,0,argentine,0,1,1.55962,0,6,6,5,1,6,./stim/wavs/andalusian_match_declarative-broad-focus_Maria-bebe-el-vino.wav,./stim/wavs/argentine_match_declarative-broad-focus_Maria-bebe-el-vino.wav,./stim/wavs/castilian_match_declarative-broad-focus_Maria-bebe-el-vino.wav,./stim/wavs/chilean_match_declarative-broad-focus_Maria-bebe-el-vino.wav,./stim/wavs/cuban_match_declarative-broad-focus_Maria-bebe-el-vino.wav,./stim/wavs/mexican_match_declarative-broad-focus_Maria-bebe-el-vino.wav,./stim/wavs/peruvian_match_declarative-broad-focus_Maria-bebe-el-vino.wav,./stim/wavs/puertorican_match_declarative-broad-focus_Maria-bebe-el-vino.wav,,,,,,,,,,,,,,,,,,,,,,,,,,,,,,,,,,,,,,,,,,,,,,,,,,,,,,,,
,,,,,,,5c70eafaf6c9fe00013eeafb,605b45a4d25f287719a41696,605cb98c721a4d5d04206d41,United States,Midwest,13 or older,no,2021-03-25_12h30.19.874,empathy_intonation_perc,2020.2.10,Win32,60,,,,,,,,,,0,cuban,0,1,1.646265,0,7,7,8,1,9,./stim/wavs/andalusian_match_declarative-narrow-focus_Ana-lleva-el-abrigo.wav,./stim/wavs/argentine_match_declarative-narrow-focus_Ana-lleva-el-abrigo.wav,./stim/wavs/castilian_match_declarative-narrow-focus_Ana-lleva-el-abrigo.wav,./stim/wavs/chilean_match_declarative-narrow-focus_Ana-lleva-el-abrigo.wav,./stim/wavs/cuban_match_declarative-narrow-focus_Ana-lleva-el-abrigo.wav,./stim/wavs/mexican_match_declarative-narrow-focus_Ana-lleva-el-abrigo.wav,./stim/wavs/peruvian_match_declarative-narrow-focus_Ana-lleva-el-abrigo.wav,./stim/wavs/puertorican_match_declarative-narrow-focus_Ana-lleva-el-abrigo.wav,,,,,,,,,,,,,,,,,,,,,,,,,,,,,,,,,,,,,,,,,,,,,,,,,,,,,,,,
,,,,,,,5c70eafaf6c9fe00013eeafb,605b45a4d25f287719a41696,605cb98c721a4d5d04206d41,United States,Midwest,13 or older,no,2021-03-25_12h30.19.874,empathy_intonation_perc,2020.2.10,Win32,60,,,,,,,,,,0,chilean,0,1,1.92807,0,8,8,7,1,8,./stim/wavs/andalusian_match_declarative-broad-focus_Marta-abre-el-regalo.wav,./stim/wavs/argentine_match_declarative-broad-focus_Marta-abre-el-regalo.wav,./stim/wavs/castilian_match_declarative-broad-focus_Marta-abre-el-regalo.wav,./stim/wavs/chilean_match_declarative-broad-focus_Marta-abre-el-regalo.wav,./stim/wavs/cuban_match_declarative-broad-focus_Marta-abre-el-regalo.wav,./stim/wavs/mexican_match_declarative-broad-focus_Marta-abre-el-regalo.wav,./stim/wavs/peruvian_match_declarative-broad-focus_Marta-abre-el-regalo.wav,./stim/wavs/puertorican_match_declarative-broad-focus_Marta-abre-el-regalo.wav,,,,,,,,,,,,,,,,,,,,,,,,,,,,,,,,,,,,,,,,,,,,,,,,,,,,,,,,
,,,,,,,5c70eafaf6c9fe00013eeafb,605b45a4d25f287719a41696,605cb98c721a4d5d04206d41,United States,Midwest,13 or older,no,2021-03-25_12h30.19.874,empathy_intonation_perc,2020.2.10,Win32,60,,,,,,,,,,0,castilian,0,1,1.975095,0,9,9,13,1,14,./stim/wavs/andalusian_match_declarative-narrow-focus_Maria-bebe-el-vino.wav,./stim/wavs/argentine_match_declarative-narrow-focus_Maria-bebe-el-vino.wav,./stim/wavs/castilian_match_declarative-narrow-focus_Maria-bebe-el-vino.wav,./stim/wavs/chilean_match_declarative-narrow-focus_Maria-bebe-el-vino.wav,./stim/wavs/cuban_match_declarative-narrow-focus_Maria-bebe-el-vino.wav,./stim/wavs/mexican_match_declarative-narrow-focus_Maria-bebe-el-vino.wav,./stim/wavs/peruvian_match_declarative-narrow-focus_Maria-bebe-el-vino.wav,./stim/wavs/puertorican_match_declarative-narrow-focus_Maria-bebe-el-vino.wav,,,,,,,,,,,,,,,,,,,,,,,,,,,,,,,,,,,,,,,,,,,,,,,,,,,,,,,,
,,,,,,,5c70eafaf6c9fe00013eeafb,605b45a4d25f287719a41696,605cb98c721a4d5d04206d41,United States,Midwest,13 or older,no,2021-03-25_12h30.19.874,empathy_intonation_perc,2020.2.10,Win32,60,,,,,,,,,,1,andalusian,1,1,1.740875,0,10,10,23,1,24,./stim/wavs/andalusian_match_interrogative-partial-wh_Por-que-iba-a-Bolivia.wav,./stim/wavs/argentine_match_interrogative-partial-wh_Por-que-iba-a-Bolivia.wav,./stim/wavs/castilian_match_interrogative-partial-wh_Por-que-iba-a-Bolivia.wav,./stim/wavs/chilean_match_interrogative-partial-wh_Por-que-iba-a-Bolivia.wav,./stim/wavs/cuban_match_interrogative-partial-wh_Por-que-iba-a-Bolivia.wav,./stim/wavs/mexican_match_interrogative-partial-wh_Por-que-iba-a-Bolivia.wav,./stim/wavs/peruvian_match_interrogative-partial-wh_Por-que-iba-a-Bolivia.wav,./stim/wavs/puertorican_match_interrogative-partial-wh_Por-que-iba-a-Bolivia.wav,,,,,,,,,,,,,,,,,,,,,,,,,,,,,,,,,,,,,,,,,,,,,,,,,,,,,,,,
,,,,,,,5c70eafaf6c9fe00013eeafb,605b45a4d25f287719a41696,605cb98c721a4d5d04206d41,United States,Midwest,13 or older,no,2021-03-25_12h30.19.874,empathy_intonation_perc,2020.2.10,Win32,60,,,,,,,,,,1,puertorican,1,1,1.488345,0,11,11,51,1,52,./stim/wavs/andalusian_mismatch_interrogative-partial-wh_Por-que-desayuna-muy-bien.wav,./stim/wavs/argentine_mismatch_interrogative-partial-wh_Por-que-desayuna-muy-bien.wav,./stim/wavs/castilian_mismatch_interrogative-partial-wh_Por-que-desayuna-muy-bien.wav,./stim/wavs/chilean_mismatch_interrogative-partial-wh_Por-que-desayuna-muy-bien.wav,./stim/wavs/cuban_mismatch_interrogative-partial-wh_Por-que-desayuna-muy-bien.wav,./stim/wavs/mexican_mismatch_interrogative-partial-wh_Por-que-desayuna-muy-bien.wav,./stim/wavs/peruvian_mismatch_interrogative-partial-wh_Por-que-desayuna-muy-bien.wav,./stim/wavs/puertorican_mismatch_interrogative-partial-wh_Por-que-desayuna-muy-bien.wav,,,,,,,,,,,,,,,,,,,,,,,,,,,,,,,,,,,,,,,,,,,,,,,,,,,,,,,,
,,,,,,,5c70eafaf6c9fe00013eeafb,605b45a4d25f287719a41696,605cb98c721a4d5d04206d41,United States,Midwest,13 or older,no,2021-03-25_12h30.19.874,empathy_intonation_perc,2020.2.10,Win32,60,,,,,,,,,,1,peruvian,0,0,1.841485,0,12,12,63,1,64,./stim/wavs/andalusian_mismatch_interrogative-total-yn_Mi-tia-odia-la-lluvia.wav,./stim/wavs/argentine_mismatch_interrogative-total-yn_Mi-tia-odia-la-lluvia.wav,./stim/wavs/castilian_mismatch_interrogative-total-yn_Mi-tia-odia-la-lluvia.wav,./stim/wavs/chilean_mismatch_interrogative-total-yn_Mi-tia-odia-la-lluvia.wav,./stim/wavs/cuban_mismatch_interrogative-total-yn_Mi-tia-odia-la-lluvia.wav,./stim/wavs/mexican_mismatch_interrogative-total-yn_Mi-tia-odia-la-lluvia.wav,./stim/wavs/peruvian_mismatch_interrogative-total-yn_Mi-tia-odia-la-lluvia.wav,./stim/wavs/puertorican_mismatch_interrogative-total-yn_Mi-tia-odia-la-lluvia.wav,,,,,,,,,,,,,,,,,,,,,,,,,,,,,,,,,,,,,,,,,,,,,,,,,,,,,,,,
,,,,,,,5c70eafaf6c9fe00013eeafb,605b45a4d25f287719a41696,605cb98c721a4d5d04206d41,United States,Midwest,13 or older,no,2021-03-25_12h30.19.874,empathy_intonation_perc,2020.2.10,Win32,60,,,,,,,,,,0,puertorican,0,1,1.88752,0,13,13,39,1,40,./stim/wavs/andalusian_mismatch_declarative-broad-focus_Mi-tia-odia-la-lluvia.wav,./stim/wavs/argentine_mismatch_declarative-broad-focus_Mi-tia-odia-la-lluvia.wav,./stim/wavs/castilian_mismatch_declarative-broad-focus_Mi-tia-odia-la-lluvia.wav,./stim/wavs/chilean_mismatch_declarative-broad-focus_Mi-tia-odia-la-lluvia.wav,./stim/wavs/cuban_mismatch_declarative-broad-focus_Mi-tia-odia-la-lluvia.wav,./stim/wavs/mexican_mismatch_declarative-broad-focus_Mi-tia-odia-la-lluvia.wav,./stim/wavs/peruvian_mismatch_declarative-broad-focus_Mi-tia-odia-la-lluvia.wav,./stim/wavs/puertorican_mismatch_declarative-broad-focus_Mi-tia-odia-la-lluvia.wav,,,,,,,,,,,,,,,,,,,,,,,,,,,,,,,,,,,,,,,,,,,,,,,,,,,,,,,,
,,,,,,,5c70eafaf6c9fe00013eeafb,605b45a4d25f287719a41696,605cb98c721a4d5d04206d41,United States,Midwest,13 or older,no,2021-03-25_12h30.19.874,empathy_intonation_perc,2020.2.10,Win32,60,,,,,,,,,,0,cuban,0,1,1.68514,0,14,14,12,1,13,./stim/wavs/andalusian_match_declarative-narrow-focus_Manuela-vende-el-carro.wav,./stim/wavs/argentine_match_declarative-narrow-focus_Manuela-vende-el-carro.wav,./stim/wavs/castilian_match_declarative-narrow-focus_Manuela-vende-el-carro.wav,./stim/wavs/chilean_match_declarative-narrow-focus_Manuela-vende-el-carro.wav,./stim/wavs/cuban_match_declarative-narrow-focus_Manuela-vende-el-carro.wav,./stim/wavs/mexican_match_declarative-narrow-focus_Manuela-vende-el-carro.wav,./stim/wavs/peruvian_match_declarative-narrow-focus_Manuela-vende-el-carro.wav,./stim/wavs/puertorican_match_declarative-narrow-focus_Manuela-vende-el-carro.wav,,,,,,,,,,,,,,,,,,,,,,,,,,,,,,,,,,,,,,,,,,,,,,,,,,,,,,,,
,,,,,,,5c70eafaf6c9fe00013eeafb,605b45a4d25f287719a41696,605cb98c721a4d5d04206d41,United States,Midwest,13 or older,no,2021-03-25_12h30.19.874,empathy_intonation_perc,2020.2.10,Win32,60,,,,,,,,,,0,puertorican,0,1,2.00923,0,15,15,14,1,15,./stim/wavs/andalusian_match_declarative-narrow-focus_Mariano-habla-del-tiempo.wav,./stim/wavs/argentine_match_declarative-narrow-focus_Mariano-habla-del-tiempo.wav,./stim/wavs/castilian_match_declarative-narrow-focus_Mariano-habla-del-tiempo.wav,./stim/wavs/chilean_match_declarative-narrow-focus_Mariano-habla-del-tiempo.wav,./stim/wavs/cuban_match_declarative-narrow-focus_Mariano-habla-del-tiempo.wav,./stim/wavs/mexican_match_declarative-narrow-focus_Mariano-habla-del-tiempo.wav,./stim/wavs/peruvian_match_declarative-narrow-focus_Mariano-habla-del-tiempo.wav,./stim/wavs/puertorican_match_declarative-narrow-focus_Mariano-habla-del-tiempo.wav,,,,,,,,,,,,,,,,,,,,,,,,,,,,,,,,,,,,,,,,,,,,,,,,,,,,,,,,
,,,,,,,5c70eafaf6c9fe00013eeafb,605b45a4d25f287719a41696,605cb98c721a4d5d04206d41,United States,Midwest,13 or older,no,2021-03-25_12h30.19.874,empathy_intonation_perc,2020.2.10,Win32,60,,,,,,,,,,0,puertorican,0,1,1.58025,0,16,16,10,1,11,./stim/wavs/andalusian_match_declarative-narrow-focus_David-leia-el-libro.wav,./stim/wavs/argentine_match_declarative-narrow-focus_David-leia-el-libro.wav,./stim/wavs/castilian_match_declarative-narrow-focus_David-leia-el-libro.wav,./stim/wavs/chilean_match_declarative-narrow-focus_David-leia-el-libro.wav,./stim/wavs/cuban_match_declarative-narrow-focus_David-leia-el-libro.wav,./stim/wavs/mexican_match_declarative-narrow-focus_David-leia-el-libro.wav,./stim/wavs/peruvian_match_declarative-narrow-focus_David-leia-el-libro.wav,./stim/wavs/puertorican_match_declarative-narrow-focus_David-leia-el-libro.wav,,,,,,,,,,,,,,,,,,,,,,,,,,,,,,,,,,,,,,,,,,,,,,,,,,,,,,,,
,,,,,,,5c70eafaf6c9fe00013eeafb,605b45a4d25f287719a41696,605cb98c721a4d5d04206d41,United States,Midwest,13 or older,no,2021-03-25_12h30.19.874,empathy_intonation_perc,2020.2.10,Win32,60,,,,,,,,,,0,andalusian,0,1,1.80645,0,17,17,32,1,33,./stim/wavs/andalusian_mismatch_declarative-broad-focus_El-bebe-comia-muy-bien.wav,./stim/wavs/argentine_mismatch_declarative-broad-focus_El-bebe-comia-muy-bien.wav,./stim/wavs/castilian_mismatch_declarative-broad-focus_El-bebe-comia-muy-bien.wav,./stim/wavs/chilean_mismatch_declarative-broad-focus_El-bebe-comia-muy-bien.wav,./stim/wavs/cuban_mismatch_declarative-broad-focus_El-bebe-comia-muy-bien.wav,./stim/wavs/mexican_mismatch_declarative-broad-focus_El-bebe-comia-muy-bien.wav,./stim/wavs/peruvian_mismatch_declarative-broad-focus_El-bebe-comia-muy-bien.wav,./stim/wavs/puertorican_mismatch_declarative-broad-focus_El-bebe-comia-muy-bien.wav,,,,,,,,,,,,,,,,,,,,,,,,,,,,,,,,,,,,,,,,,,,,,,,,,,,,,,,,
,,,,,,,5c70eafaf6c9fe00013eeafb,605b45a4d25f287719a41696,605cb98c721a4d5d04206d41,United States,Midwest,13 or older,no,2021-03-25_12h30.19.874,empathy_intonation_perc,2020.2.10,Win32,60,,,,,,,,,,1,mexican,1,1,2.025175,0,18,18,30,1,31,./stim/wavs/andalusian_match_interrogative-total-yn_Mariano-habla-del-tiempo.wav,./stim/wavs/argentine_match_interrogative-total-yn_Mariano-habla-del-tiempo.wav,./stim/wavs/castilian_match_interrogative-total-yn_Mariano-habla-del-tiempo.wav,./stim/wavs/chilean_match_interrogative-total-yn_Mariano-habla-del-tiempo.wav,./stim/wavs/cuban_match_interrogative-total-yn_Mariano-habla-del-tiempo.wav,./stim/wavs/mexican_match_interrogative-total-yn_Mariano-habla-del-tiempo.wav,./stim/wavs/peruvian_match_interrogative-total-yn_Mariano-habla-del-tiempo.wav,./stim/wavs/puertorican_match_interrogative-total-yn_Mariano-habla-del-tiempo.wav,,,,,,,,,,,,,,,,,,,,,,,,,,,,,,,,,,,,,,,,,,,,,,,,,,,,,,,,
,,,,,,,5c70eafaf6c9fe00013eeafb,605b45a4d25f287719a41696,605cb98c721a4d5d04206d41,United States,Midwest,13 or older,no,2021-03-25_12h30.19.874,empathy_intonation_perc,2020.2.10,Win32,60,,,,,,,,,,1,mexican,1,1,1.50552,0,19,19,48,1,49,./stim/wavs/andalusian_mismatch_interrogative-partial-wh_Cuando-comia-la-fruta.wav,./stim/wavs/argentine_mismatch_interrogative-partial-wh_Cuando-comia-la-fruta.wav,./stim/wavs/castilian_mismatch_interrogative-partial-wh_Cuando-comia-la-fruta.wav,./stim/wavs/chilean_mismatch_interrogative-partial-wh_Cuando-comia-la-fruta.wav,./stim/wavs/cuban_mismatch_interrogative-partial-wh_Cuando-comia-la-fruta.wav,./stim/wavs/mexican_mismatch_interrogative-partial-wh_Cuando-comia-la-fruta.wav,./stim/wavs/peruvian_mismatch_interrogative-partial-wh_Cuando-comia-la-fruta.wav,./stim/wavs/puertorican_mismatch_interrogative-partial-wh_Cuando-comia-la-fruta.wav,,,,,,,,,,,,,,,,,,,,,,,,,,,,,,,,,,,,,,,,,,,,,,,,,,,,,,,,
,,,,,,,5c70eafaf6c9fe00013eeafb,605b45a4d25f287719a41696,605cb98c721a4d5d04206d41,United States,Midwest,13 or older,no,2021-03-25_12h30.19.874,empathy_intonation_perc,2020.2.10,Win32,60,,,,,,,,,,0,mexican,0,1,2.308705,0,20,20,15,1,16,./stim/wavs/andalusian_match_declarative-narrow-focus_Marta-abre-el-regalo.wav,./stim/wavs/argentine_match_declarative-narrow-focus_Marta-abre-el-regalo.wav,./stim/wavs/castilian_match_declarative-narrow-focus_Marta-abre-el-regalo.wav,./stim/wavs/chilean_match_declarative-narrow-focus_Marta-abre-el-regalo.wav,./stim/wavs/cuban_match_declarative-narrow-focus_Marta-abre-el-regalo.wav,./stim/wavs/mexican_match_declarative-narrow-focus_Marta-abre-el-regalo.wav,./stim/wavs/peruvian_match_declarative-narrow-focus_Marta-abre-el-regalo.wav,./stim/wavs/puertorican_match_declarative-narrow-focus_Marta-abre-el-regalo.wav,,,,,,,,,,,,,,,,,,,,,,,,,,,,,,,,,,,,,,,,,,,,,,,,,,,,,,,,
,,,,,,,5c70eafaf6c9fe00013eeafb,605b45a4d25f287719a41696,605cb98c721a4d5d04206d41,United States,Midwest,13 or older,no,2021-03-25_12h30.19.874,empathy_intonation_perc,2020.2.10,Win32,60,,,,,,,,,,0,mexican,0,1,2.476535,0,21,21,43,1,44,./stim/wavs/andalusian_mismatch_declarative-narrow-focus_La-maestra-vive-en-Paris.wav,./stim/wavs/argentine_mismatch_declarative-narrow-focus_La-maestra-vive-en-Paris.wav,./stim/wavs/castilian_mismatch_declarative-narrow-focus_La-maestra-vive-en-Paris.wav,./stim/wavs/chilean_mismatch_declarative-narrow-focus_La-maestra-vive-en-Paris.wav,./stim/wavs/cuban_mismatch_declarative-narrow-focus_La-maestra-vive-en-Paris.wav,./stim/wavs/mexican_mismatch_declarative-narrow-focus_La-maestra-vive-en-Paris.wav,./stim/wavs/peruvian_mismatch_declarative-narrow-focus_La-maestra-vive-en-Paris.wav,./stim/wavs/puertorican_mismatch_declarative-narrow-focus_La-maestra-vive-en-Paris.wav,,,,,,,,,,,,,,,,,,,,,,,,,,,,,,,,,,,,,,,,,,,,,,,,,,,,,,,,
,,,,,,,5c70eafaf6c9fe00013eeafb,605b45a4d25f287719a41696,605cb98c721a4d5d04206d41,United States,Midwest,13 or older,no,2021-03-25_12h30.19.874,empathy_intonation_perc,2020.2.10,Win32,60,,,,,,,,,,0,chilean,0,1,2.0691,0,22,22,44,1,45,./stim/wavs/andalusian_mismatch_declarative-narrow-focus_La-nina-lava-el-plato.wav,./stim/wavs/argentine_mismatch_declarative-narrow-focus_La-nina-lava-el-plato.wav,./stim/wavs/castilian_mismatch_declarative-narrow-focus_La-nina-lava-el-plato.wav,./stim/wavs/chilean_mismatch_declarative-narrow-focus_La-nina-lava-el-plato.wav,./stim/wavs/cuban_mismatch_declarative-narrow-focus_La-nina-lava-el-plato.wav,./stim/wavs/mexican_mismatch_declarative-narrow-focus_La-nina-lava-el-plato.wav,./stim/wavs/peruvian_mismatch_declarative-narrow-focus_La-nina-lava-el-plato.wav,./stim/wavs/puertorican_mismatch_declarative-narrow-focus_La-nina-lava-el-plato.wav,,,,,,,,,,,,,,,,,,,,,,,,,,,,,,,,,,,,,,,,,,,,,,,,,,,,,,,,
,,,,,,,5c70eafaf6c9fe00013eeafb,605b45a4d25f287719a41696,605cb98c721a4d5d04206d41,United States,Midwest,13 or older,no,2021-03-25_12h30.19.874,empathy_intonation_perc,2020.2.10,Win32,60,,,,,,,,,,1,castilian,0,0,1.55169,0,23,23,28,1,29,./stim/wavs/andalusian_match_interrogative-total-yn_Manuela-vende-el-carro.wav,./stim/wavs/argentine_match_interrogative-total-yn_Manuela-vende-el-carro.wav,./stim/wavs/castilian_match_interrogative-total-yn_Manuela-vende-el-carro.wav,./stim/wavs/chilean_match_interrogative-total-yn_Manuela-vende-el-carro.wav,./stim/wavs/cuban_match_interrogative-total-yn_Manuela-vende-el-carro.wav,./stim/wavs/mexican_match_interrogative-total-yn_Manuela-vende-el-carro.wav,./stim/wavs/peruvian_match_interrogative-total-yn_Manuela-vende-el-carro.wav,./stim/wavs/puertorican_match_interrogative-total-yn_Manuela-vende-el-carro.wav,,,,,,,,,,,,,,,,,,,,,,,,,,,,,,,,,,,,,,,,,,,,,,,,,,,,,,,,
,,,,,,,5c70eafaf6c9fe00013eeafb,605b45a4d25f287719a41696,605cb98c721a4d5d04206d41,United States,Midwest,13 or older,no,2021-03-25_12h30.19.874,empathy_intonation_perc,2020.2.10,Win32,60,,,,,,,,,,1,peruvian,1,1,2.029115,0,24,24,27,1,28,./stim/wavs/andalusian_match_interrogative-total-yn_Emilio-ama-la-marcha.wav,./stim/wavs/argentine_match_interrogative-total-yn_Emilio-ama-la-marcha.wav,./stim/wavs/castilian_match_interrogative-total-yn_Emilio-ama-la-marcha.wav,./stim/wavs/chilean_match_interrogative-total-yn_Emilio-ama-la-marcha.wav,./stim/wavs/cuban_match_interrogative-total-yn_Emilio-ama-la-marcha.wav,./stim/wavs/mexican_match_interrogative-total-yn_Emilio-ama-la-marcha.wav,./stim/wavs/peruvian_match_interrogative-total-yn_Emilio-ama-la-marcha.wav,./stim/wavs/puertorican_match_interrogative-total-yn_Emilio-ama-la-marcha.wav,,,,,,,,,,,,,,,,,,,,,,,,,,,,,,,,,,,,,,,,,,,,,,,,,,,,,,,,
,,,,,,,5c70eafaf6c9fe00013eeafb,605b45a4d25f287719a41696,605cb98c721a4d5d04206d41,United States,Midwest,13 or older,no,2021-03-25_12h30.19.874,empathy_intonation_perc,2020.2.10,Win32,60,,,,,,,,,,0,castilian,0,1,2.268925,0,25,25,35,1,36,./stim/wavs/andalusian_mismatch_declarative-broad-focus_La-maestra-vive-en-Paris.wav,./stim/wavs/argentine_mismatch_declarative-broad-focus_La-maestra-vive-en-Paris.wav,./stim/wavs/castilian_mismatch_declarative-broad-focus_La-maestra-vive-en-Paris.wav,./stim/wavs/chilean_mismatch_declarative-broad-focus_La-maestra-vive-en-Paris.wav,./stim/wavs/cuban_mismatch_declarative-broad-focus_La-maestra-vive-en-Paris.wav,./stim/wavs/mexican_mismatch_declarative-broad-focus_La-maestra-vive-en-Paris.wav,./stim/wavs/peruvian_mismatch_declarative-broad-focus_La-maestra-vive-en-Paris.wav,./stim/wavs/puertorican_mismatch_declarative-broad-focus_La-maestra-vive-en-Paris.wav,,,,,,,,,,,,,,,,,,,,,,,,,,,,,,,,,,,,,,,,,,,,,,,,,,,,,,,,
,,,,,,,5c70eafaf6c9fe00013eeafb,605b45a4d25f287719a41696,605cb98c721a4d5d04206d41,United States,Midwest,13 or older,no,2021-03-25_12h30.19.874,empathy_intonation_perc,2020.2.10,Win32,60,,,,,,,,,,1,chilean,1,1,1.44271,0,26,26,54,1,55,./stim/wavs/andalusian_mismatch_interrogative-partial-wh_Por-que-venia-del-lago.wav,./stim/wavs/argentine_mismatch_interrogative-partial-wh_Por-que-venia-del-lago.wav,./stim/wavs/castilian_mismatch_interrogative-partial-wh_Por-que-venia-del-lago.wav,./stim/wavs/chilean_mismatch_interrogative-partial-wh_Por-que-venia-del-lago.wav,./stim/wavs/cuban_mismatch_interrogative-partial-wh_Por-que-venia-del-lago.wav,./stim/wavs/mexican_mismatch_interrogative-partial-wh_Por-que-venia-del-lago.wav,./stim/wavs/peruvian_mismatch_interrogative-partial-wh_Por-que-venia-del-lago.wav,./stim/wavs/puertorican_mismatch_interrogative-partial-wh_Por-que-venia-del-lago.wav,,,,,,,,,,,,,,,,,,,,,,,,,,,,,,,,,,,,,,,,,,,,,,,,,,,,,,,,
,,,,,,,5c70eafaf6c9fe00013eeafb,605b45a4d25f287719a41696,605cb98c721a4d5d04206d41,United States,Midwest,13 or older,no,2021-03-25_12h30.19.874,empathy_intonation_perc,2020.2.10,Win32,60,,,,,,,,,,1,andalusian,1,1,2.031585,0,27,27,29,1,30,./stim/wavs/andalusian_match_interrogative-total-yn_Maria-bebe-el-vino.wav,./stim/wavs/argentine_match_interrogative-total-yn_Maria-bebe-el-vino.wav,./stim/wavs/castilian_match_interrogative-total-yn_Maria-bebe-el-vino.wav,./stim/wavs/chilean_match_interrogative-total-yn_Maria-bebe-el-vino.wav,./stim/wavs/cuban_match_interrogative-total-yn_Maria-bebe-el-vino.wav,./stim/wavs/mexican_match_interrogative-total-yn_Maria-bebe-el-vino.wav,./stim/wavs/peruvian_match_interrogative-total-yn_Maria-bebe-el-vino.wav,./stim/wavs/puertorican_match_interrogative-total-yn_Maria-bebe-el-vino.wav,,,,,,,,,,,,,,,,,,,,,,,,,,,,,,,,,,,,,,,,,,,,,,,,,,,,,,,,
,,,,,,,5c70eafaf6c9fe00013eeafb,605b45a4d25f287719a41696,605cb98c721a4d5d04206d41,United States,Midwest,13 or older,no,2021-03-25_12h30.19.874,empathy_intonation_perc,2020.2.10,Win32,60,,,,,,,,,,0,puertorican,0,1,2.25913,0,28,28,38,1,39,./stim/wavs/andalusian_mismatch_declarative-broad-focus_Mi-novio-viene-del-lago.wav,./stim/wavs/argentine_mismatch_declarative-broad-focus_Mi-novio-viene-del-lago.wav,./stim/wavs/castilian_mismatch_declarative-broad-focus_Mi-novio-viene-del-lago.wav,./stim/wavs/chilean_mismatch_declarative-broad-focus_Mi-novio-viene-del-lago.wav,./stim/wavs/cuban_mismatch_declarative-broad-focus_Mi-novio-viene-del-lago.wav,./stim/wavs/mexican_mismatch_declarative-broad-focus_Mi-novio-viene-del-lago.wav,./stim/wavs/peruvian_mismatch_declarative-broad-focus_Mi-novio-viene-del-lago.wav,./stim/wavs/puertorican_mismatch_declarative-broad-focus_Mi-novio-viene-del-lago.wav,,,,,,,,,,,,,,,,,,,,,,,,,,,,,,,,,,,,,,,,,,,,,,,,,,,,,,,,
,,,,,,,5c70eafaf6c9fe00013eeafb,605b45a4d25f287719a41696,605cb98c721a4d5d04206d41,United States,Midwest,13 or older,no,2021-03-25_12h30.19.874,empathy_intonation_perc,2020.2.10,Win32,60,,,,,,,,,,1,chilean,0,0,2.5802,0,29,29,55,1,56,./stim/wavs/andalusian_mismatch_interrogative-partial-wh_Por-que-vivia-en-Paris.wav,./stim/wavs/argentine_mismatch_interrogative-partial-wh_Por-que-vivia-en-Paris.wav,./stim/wavs/castilian_mismatch_interrogative-partial-wh_Por-que-vivia-en-Paris.wav,./stim/wavs/chilean_mismatch_interrogative-partial-wh_Por-que-vivia-en-Paris.wav,./stim/wavs/cuban_mismatch_interrogative-partial-wh_Por-que-vivia-en-Paris.wav,./stim/wavs/mexican_mismatch_interrogative-partial-wh_Por-que-vivia-en-Paris.wav,./stim/wavs/peruvian_mismatch_interrogative-partial-wh_Por-que-vivia-en-Paris.wav,./stim/wavs/puertorican_mismatch_interrogative-partial-wh_Por-que-vivia-en-Paris.wav,,,,,,,,,,,,,,,,,,,,,,,,,,,,,,,,,,,,,,,,,,,,,,,,,,,,,,,,
,,,,,,,5c70eafaf6c9fe00013eeafb,605b45a4d25f287719a41696,605cb98c721a4d5d04206d41,United States,Midwest,13 or older,no,2021-03-25_12h30.19.874,empathy_intonation_perc,2020.2.10,Win32,60,,,,,,,,,,1,chilean,0,0,2.035525,0,30,30,60,1,61,./stim/wavs/andalusian_mismatch_interrogative-total-yn_La-nina-lava-el-plato.wav,./stim/wavs/argentine_mismatch_interrogative-total-yn_La-nina-lava-el-plato.wav,./stim/wavs/castilian_mismatch_interrogative-total-yn_La-nina-lava-el-plato.wav,./stim/wavs/chilean_mismatch_interrogative-total-yn_La-nina-lava-el-plato.wav,./stim/wavs/cuban_mismatch_interrogative-total-yn_La-nina-lava-el-plato.wav,./stim/wavs/mexican_mismatch_interrogative-total-yn_La-nina-lava-el-plato.wav,./stim/wavs/peruvian_mismatch_interrogative-total-yn_La-nina-lava-el-plato.wav,./stim/wavs/puertorican_mismatch_interrogative-total-yn_La-nina-lava-el-plato.wav,,,,,,,,,,,,,,,,,,,,,,,,,,,,,,,,,,,,,,,,,,,,,,,,,,,,,,,,
,,,,,,,5c70eafaf6c9fe00013eeafb,605b45a4d25f287719a41696,605cb98c721a4d5d04206d41,United States,Midwest,13 or older,no,2021-03-25_12h30.19.874,empathy_intonation_perc,2020.2.10,Win32,60,,,,,,,,,,1,argentine,1,1,1.425885,0,31,31,16,1,17,./stim/wavs/andalusian_match_interrogative-partial-wh_Cuando-bebia-el-vino.wav,./stim/wavs/argentine_match_interrogative-partial-wh_Cuando-bebia-el-vino.wav,./stim/wavs/castilian_match_interrogative-partial-wh_Cuando-bebia-el-vino.wav,./stim/wavs/chilean_match_interrogative-partial-wh_Cuando-bebia-el-vino.wav,./stim/wavs/cuban_match_interrogative-partial-wh_Cuando-bebia-el-vino.wav,./stim/wavs/mexican_match_interrogative-partial-wh_Cuando-bebia-el-vino.wav,./stim/wavs/peruvian_match_interrogative-partial-wh_Cuando-bebia-el-vino.wav,./stim/wavs/puertorican_match_interrogative-partial-wh_Cuando-bebia-el-vino.wav,,,,,,,,,,,,,,,,,,,,,,,,,,,,,,,,,,,,,,,,,,,,,,,,,,,,,,,,
,,,,,,,5c70eafaf6c9fe00013eeafb,605b45a4d25f287719a41696,605cb98c721a4d5d04206d41,United States,Midwest,13 or older,no,2021-03-25_12h30.19.874,empathy_intonation_perc,2020.2.10,Win32,60,,,,,,,,,,1,peruvian,1,1,1.901905,0,32,32,26,1,27,./stim/wavs/andalusian_match_interrogative-total-yn_David-leia-el-libro.wav,./stim/wavs/argentine_match_interrogative-total-yn_David-leia-el-libro.wav,./stim/wavs/castilian_match_interrogative-total-yn_David-leia-el-libro.wav,./stim/wavs/chilean_match_interrogative-total-yn_David-leia-el-libro.wav,./stim/wavs/cuban_match_interrogative-total-yn_David-leia-el-libro.wav,./stim/wavs/mexican_match_interrogative-total-yn_David-leia-el-libro.wav,./stim/wavs/peruvian_match_interrogative-total-yn_David-leia-el-libro.wav,./stim/wavs/puertorican_match_interrogative-total-yn_David-leia-el-libro.wav,,,,,,,,,,,,,,,,,,,,,,,,,,,,,,,,,,,,,,,,,,,,,,,,,,,,,,,,
,,,,,,,5c70eafaf6c9fe00013eeafb,605b45a4d25f287719a41696,605cb98c721a4d5d04206d41,United States,Midwest,13 or older,no,2021-03-25_12h30.19.874,empathy_intonation_perc,2020.2.10,Win32,60,,,,,,,,,,1,argentine,1,1,2.82916,0,33,33,25,1,26,./stim/wavs/andalusian_match_interrogative-total-yn_Daniel-iba-a-Bolivia.wav,./stim/wavs/argentine_match_interrogative-total-yn_Daniel-iba-a-Bolivia.wav,./stim/wavs/castilian_match_interrogative-total-yn_Daniel-iba-a-Bolivia.wav,./stim/wavs/chilean_match_interrogative-total-yn_Daniel-iba-a-Bolivia.wav,./stim/wavs/cuban_match_interrogative-total-yn_Daniel-iba-a-Bolivia.wav,./stim/wavs/mexican_match_interrogative-total-yn_Daniel-iba-a-Bolivia.wav,./stim/wavs/peruvian_match_interrogative-total-yn_Daniel-iba-a-Bolivia.wav,./stim/wavs/puertorican_match_interrogative-total-yn_Daniel-iba-a-Bolivia.wav,,,,,,,,,,,,,,,,,,,,,,,,,,,,,,,,,,,,,,,,,,,,,,,,,,,,,,,,
,,,,,,,5c70eafaf6c9fe00013eeafb,605b45a4d25f287719a41696,605cb98c721a4d5d04206d41,United States,Midwest,13 or older,no,2021-03-25_12h30.19.874,empathy_intonation_perc,2020.2.10,Win32,60,,,,,,,,,,0,andalusian,0,1,2.660925,0,34,34,46,1,47,./stim/wavs/andalusian_mismatch_declarative-narrow-focus_Mi-novio-viene-del-lago.wav,./stim/wavs/argentine_mismatch_declarative-narrow-focus_Mi-novio-viene-del-lago.wav,./stim/wavs/castilian_mismatch_declarative-narrow-focus_Mi-novio-viene-del-lago.wav,./stim/wavs/chilean_mismatch_declarative-narrow-focus_Mi-novio-viene-del-lago.wav,./stim/wavs/cuban_mismatch_declarative-narrow-focus_Mi-novio-viene-del-lago.wav,./stim/wavs/mexican_mismatch_declarative-narrow-focus_Mi-novio-viene-del-lago.wav,./stim/wavs/peruvian_mismatch_declarative-narrow-focus_Mi-novio-viene-del-lago.wav,./stim/wavs/puertorican_mismatch_declarative-narrow-focus_Mi-novio-viene-del-lago.wav,,,,,,,,,,,,,,,,,,,,,,,,,,,,,,,,,,,,,,,,,,,,,,,,,,,,,,,,
,,,,,,,5c70eafaf6c9fe00013eeafb,605b45a4d25f287719a41696,605cb98c721a4d5d04206d41,United States,Midwest,13 or older,no,2021-03-25_12h30.19.874,empathy_intonation_perc,2020.2.10,Win32,60,,,,,,,,,,0,puertorican,0,1,1.972125,0,35,35,47,1,48,./stim/wavs/andalusian_mismatch_declarative-narrow-focus_Mi-tia-odia-la-lluvia.wav,./stim/wavs/argentine_mismatch_declarative-narrow-focus_Mi-tia-odia-la-lluvia.wav,./stim/wavs/castilian_mismatch_declarative-narrow-focus_Mi-tia-odia-la-lluvia.wav,./stim/wavs/chilean_mismatch_declarative-narrow-focus_Mi-tia-odia-la-lluvia.wav,./stim/wavs/cuban_mismatch_declarative-narrow-focus_Mi-tia-odia-la-lluvia.wav,./stim/wavs/mexican_mismatch_declarative-narrow-focus_Mi-tia-odia-la-lluvia.wav,./stim/wavs/peruvian_mismatch_declarative-narrow-focus_Mi-tia-odia-la-lluvia.wav,./stim/wavs/puertorican_mismatch_declarative-narrow-focus_Mi-tia-odia-la-lluvia.wav,,,,,,,,,,,,,,,,,,,,,,,,,,,,,,,,,,,,,,,,,,,,,,,,,,,,,,,,
,,,,,,,5c70eafaf6c9fe00013eeafb,605b45a4d25f287719a41696,605cb98c721a4d5d04206d41,United States,Midwest,13 or older,no,2021-03-25_12h30.19.874,empathy_intonation_perc,2020.2.10,Win32,60,,,,,,,,,,1,puertorican,1,1,2.29698,0,36,36,20,1,21,./stim/wavs/andalusian_match_interrogative-partial-wh_Por-que-abre-el-regalo.wav,./stim/wavs/argentine_match_interrogative-partial-wh_Por-que-abre-el-regalo.wav,./stim/wavs/castilian_match_interrogative-partial-wh_Por-que-abre-el-regalo.wav,./stim/wavs/chilean_match_interrogative-partial-wh_Por-que-abre-el-regalo.wav,./stim/wavs/cuban_match_interrogative-partial-wh_Por-que-abre-el-regalo.wav,./stim/wavs/mexican_match_interrogative-partial-wh_Por-que-abre-el-regalo.wav,./stim/wavs/peruvian_match_interrogative-partial-wh_Por-que-abre-el-regalo.wav,./stim/wavs/puertorican_match_interrogative-partial-wh_Por-que-abre-el-regalo.wav,,,,,,,,,,,,,,,,,,,,,,,,,,,,,,,,,,,,,,,,,,,,,,,,,,,,,,,,
,,,,,,,5c70eafaf6c9fe00013eeafb,605b45a4d25f287719a41696,605cb98c721a4d5d04206d41,United States,Midwest,13 or older,no,2021-03-25_12h30.19.874,empathy_intonation_perc,2020.2.10,Win32,60,,,,,,,,,,1,argentine,1,1,2.744645,0,37,37,57,1,58,./stim/wavs/andalusian_mismatch_interrogative-total-yn_El-hombre-mira-la-luna.wav,./stim/wavs/argentine_mismatch_interrogative-total-yn_El-hombre-mira-la-luna.wav,./stim/wavs/castilian_mismatch_interrogative-total-yn_El-hombre-mira-la-luna.wav,./stim/wavs/chilean_mismatch_interrogative-total-yn_El-hombre-mira-la-luna.wav,./stim/wavs/cuban_mismatch_interrogative-total-yn_El-hombre-mira-la-luna.wav,./stim/wavs/mexican_mismatch_interrogative-total-yn_El-hombre-mira-la-luna.wav,./stim/wavs/peruvian_mismatch_interrogative-total-yn_El-hombre-mira-la-luna.wav,./stim/wavs/puertorican_mismatch_interrogative-total-yn_El-hombre-mira-la-luna.wav,,,,,,,,,,,,,,,,,,,,,,,,,,,,,,,,,,,,,,,,,,,,,,,,,,,,,,,,
,,,,,,,5c70eafaf6c9fe00013eeafb,605b45a4d25f287719a41696,605cb98c721a4d5d04206d41,United States,Midwest,13 or older,no,2021-03-25_12h30.19.874,empathy_intonation_perc,2020.2.10,Win32,60,,,,,,,,,,0,chilean,1,0,1.936385,0,38,38,9,1,10,./stim/wavs/andalusian_match_declarative-narrow-focus_Daniel-iba-a-Bolivia.wav,./stim/wavs/argentine_match_declarative-narrow-focus_Daniel-iba-a-Bolivia.wav,./stim/wavs/castilian_match_declarative-narrow-focus_Daniel-iba-a-Bolivia.wav,./stim/wavs/chilean_match_declarative-narrow-focus_Daniel-iba-a-Bolivia.wav,./stim/wavs/cuban_match_declarative-narrow-focus_Daniel-iba-a-Bolivia.wav,./stim/wavs/mexican_match_declarative-narrow-focus_Daniel-iba-a-Bolivia.wav,./stim/wavs/peruvian_match_declarative-narrow-focus_Daniel-iba-a-Bolivia.wav,./stim/wavs/puertorican_match_declarative-narrow-focus_Daniel-iba-a-Bolivia.wav,,,,,,,,,,,,,,,,,,,,,,,,,,,,,,,,,,,,,,,,,,,,,,,,,,,,,,,,
,,,,,,,5c70eafaf6c9fe00013eeafb,605b45a4d25f287719a41696,605cb98c721a4d5d04206d41,United States,Midwest,13 or older,no,2021-03-25_12h30.19.874,empathy_intonation_perc,2020.2.10,Win32,60,,,,,,,,,,1,castilian,1,1,1.986375,0,39,39,19,1,20,./stim/wavs/andalusian_match_interrogative-partial-wh_Cuando-vendia-el-carro.wav,./stim/wavs/argentine_match_interrogative-partial-wh_Cuando-vendia-el-carro.wav,./stim/wavs/castilian_match_interrogative-partial-wh_Cuando-vendia-el-carro.wav,./stim/wavs/chilean_match_interrogative-partial-wh_Cuando-vendia-el-carro.wav,./stim/wavs/cuban_match_interrogative-partial-wh_Cuando-vendia-el-carro.wav,./stim/wavs/mexican_match_interrogative-partial-wh_Cuando-vendia-el-carro.wav,./stim/wavs/peruvian_match_interrogative-partial-wh_Cuando-vendia-el-carro.wav,./stim/wavs/puertorican_match_interrogative-partial-wh_Cuando-vendia-el-carro.wav,,,,,,,,,,,,,,,,,,,,,,,,,,,,,,,,,,,,,,,,,,,,,,,,,,,,,,,,
,,,,,,,5c70eafaf6c9fe00013eeafb,605b45a4d25f287719a41696,605cb98c721a4d5d04206d41,United States,Midwest,13 or older,no,2021-03-25_12h30.19.874,empathy_intonation_perc,2020.2.10,Win32,60,,,,,,,,,,1,castilian,1,1,1.70992,0,40,40,53,1,54,./stim/wavs/andalusian_mismatch_interrogative-partial-wh_Por-que-oia-el-rio.wav,./stim/wavs/argentine_mismatch_interrogative-partial-wh_Por-que-oia-el-rio.wav,./stim/wavs/castilian_mismatch_interrogative-partial-wh_Por-que-oia-el-rio.wav,./stim/wavs/chilean_mismatch_interrogative-partial-wh_Por-que-oia-el-rio.wav,./stim/wavs/cuban_mismatch_interrogative-partial-wh_Por-que-oia-el-rio.wav,./stim/wavs/mexican_mismatch_interrogative-partial-wh_Por-que-oia-el-rio.wav,./stim/wavs/peruvian_mismatch_interrogative-partial-wh_Por-que-oia-el-rio.wav,./stim/wavs/puertorican_mismatch_interrogative-partial-wh_Por-que-oia-el-rio.wav,,,,,,,,,,,,,,,,,,,,,,,,,,,,,,,,,,,,,,,,,,,,,,,,,,,,,,,,
,,,,,,,5c70eafaf6c9fe00013eeafb,605b45a4d25f287719a41696,605cb98c721a4d5d04206d41,United States,Midwest,13 or older,no,2021-03-25_12h30.19.874,empathy_intonation_perc,2020.2.10,Win32,60,,,,,,,,,,1,andalusian,1,1,1.797565,0,41,41,59,1,60,./stim/wavs/andalusian_mismatch_interrogative-total-yn_La-maestra-vive-en-Paris.wav,./stim/wavs/argentine_mismatch_interrogative-total-yn_La-maestra-vive-en-Paris.wav,./stim/wavs/castilian_mismatch_interrogative-total-yn_La-maestra-vive-en-Paris.wav,./stim/wavs/chilean_mismatch_interrogative-total-yn_La-maestra-vive-en-Paris.wav,./stim/wavs/cuban_mismatch_interrogative-total-yn_La-maestra-vive-en-Paris.wav,./stim/wavs/mexican_mismatch_interrogative-total-yn_La-maestra-vive-en-Paris.wav,./stim/wavs/peruvian_mismatch_interrogative-total-yn_La-maestra-vive-en-Paris.wav,./stim/wavs/puertorican_mismatch_interrogative-total-yn_La-maestra-vive-en-Paris.wav,,,,,,,,,,,,,,,,,,,,,,,,,,,,,,,,,,,,,,,,,,,,,,,,,,,,,,,,
,,,,,,,5c70eafaf6c9fe00013eeafb,605b45a4d25f287719a41696,605cb98c721a4d5d04206d41,United States,Midwest,13 or older,no,2021-03-25_12h30.19.874,empathy_intonation_perc,2020.2.10,Win32,60,,,,,,,,,,0,puertorican,0,1,2.219785,0,42,42,0,1,1,./stim/wavs/andalusian_match_declarative-broad-focus_Ana-lleva-el-abrigo.wav,./stim/wavs/argentine_match_declarative-broad-focus_Ana-lleva-el-abrigo.wav,./stim/wavs/castilian_match_declarative-broad-focus_Ana-lleva-el-abrigo.wav,./stim/wavs/chilean_match_declarative-broad-focus_Ana-lleva-el-abrigo.wav,./stim/wavs/cuban_match_declarative-broad-focus_Ana-lleva-el-abrigo.wav,./stim/wavs/mexican_match_declarative-broad-focus_Ana-lleva-el-abrigo.wav,./stim/wavs/peruvian_match_declarative-broad-focus_Ana-lleva-el-abrigo.wav,./stim/wavs/puertorican_match_declarative-broad-focus_Ana-lleva-el-abrigo.wav,,,,,,,,,,,,,,,,,,,,,,,,,,,,,,,,,,,,,,,,,,,,,,,,,,,,,,,,
,,,,,,,5c70eafaf6c9fe00013eeafb,605b45a4d25f287719a41696,605cb98c721a4d5d04206d41,United States,Midwest,13 or older,no,2021-03-25_12h30.19.874,empathy_intonation_perc,2020.2.10,Win32,60,,,,,,,,,,0,cuban,0,1,2.510785,0,43,43,42,1,43,./stim/wavs/andalusian_mismatch_declarative-narrow-focus_El-nino-oye-el-rio.wav,./stim/wavs/argentine_mismatch_declarative-narrow-focus_El-nino-oye-el-rio.wav,./stim/wavs/castilian_mismatch_declarative-narrow-focus_El-nino-oye-el-rio.wav,./stim/wavs/chilean_mismatch_declarative-narrow-focus_El-nino-oye-el-rio.wav,./stim/wavs/cuban_mismatch_declarative-narrow-focus_El-nino-oye-el-rio.wav,./stim/wavs/mexican_mismatch_declarative-narrow-focus_El-nino-oye-el-rio.wav,./stim/wavs/peruvian_mismatch_declarative-narrow-focus_El-nino-oye-el-rio.wav,./stim/wavs/puertorican_mismatch_declarative-narrow-focus_El-nino-oye-el-rio.wav,,,,,,,,,,,,,,,,,,,,,,,,,,,,,,,,,,,,,,,,,,,,,,,,,,,,,,,,
,,,,,,,5c70eafaf6c9fe00013eeafb,605b45a4d25f287719a41696,605cb98c721a4d5d04206d41,United States,Midwest,13 or older,no,2021-03-25_12h30.19.874,empathy_intonation_perc,2020.2.10,Win32,60,,,,,,,,,,0,argentine,0,1,1.75205,0,44,44,11,1,12,./stim/wavs/andalusian_match_declarative-narrow-focus_Emilio-ama-la-marcha.wav,./stim/wavs/argentine_match_declarative-narrow-focus_Emilio-ama-la-marcha.wav,./stim/wavs/castilian_match_declarative-narrow-focus_Emilio-ama-la-marcha.wav,./stim/wavs/chilean_match_declarative-narrow-focus_Emilio-ama-la-marcha.wav,./stim/wavs/cuban_match_declarative-narrow-focus_Emilio-ama-la-marcha.wav,./stim/wavs/mexican_match_declarative-narrow-focus_Emilio-ama-la-marcha.wav,./stim/wavs/peruvian_match_declarative-narrow-focus_Emilio-ama-la-marcha.wav,./stim/wavs/puertorican_match_declarative-narrow-focus_Emilio-ama-la-marcha.wav,,,,,,,,,,,,,,,,,,,,,,,,,,,,,,,,,,,,,,,,,,,,,,,,,,,,,,,,
,,,,,,,5c70eafaf6c9fe00013eeafb,605b45a4d25f287719a41696,605cb98c721a4d5d04206d41,United States,Midwest,13 or older,no,2021-03-25_12h30.19.874,empathy_intonation_perc,2020.2.10,Win32,60,,,,,,,,,,0,andalusian,0,1,1.885965,0,45,45,36,1,37,./stim/wavs/andalusian_mismatch_declarative-broad-focus_La-nina-lava-el-plato.wav,./stim/wavs/argentine_mismatch_declarative-broad-focus_La-nina-lava-el-plato.wav,./stim/wavs/castilian_mismatch_declarative-broad-focus_La-nina-lava-el-plato.wav,./stim/wavs/chilean_mismatch_declarative-broad-focus_La-nina-lava-el-plato.wav,./stim/wavs/cuban_mismatch_declarative-broad-focus_La-nina-lava-el-plato.wav,./stim/wavs/mexican_mismatch_declarative-broad-focus_La-nina-lava-el-plato.wav,./stim/wavs/peruvian_mismatch_declarative-broad-focus_La-nina-lava-el-plato.wav,./stim/wavs/puertorican_mismatch_declarative-broad-focus_La-nina-lava-el-plato.wav,,,,,,,,,,,,,,,,,,,,,,,,,,,,,,,,,,,,,,,,,,,,,,,,,,,,,,,,
,,,,,,,5c70eafaf6c9fe00013eeafb,605b45a4d25f287719a41696,605cb98c721a4d5d04206d41,United States,Midwest,13 or older,no,2021-03-25_12h30.19.874,empathy_intonation_perc,2020.2.10,Win32,60,,,,,,,,,,1,chilean,0,0,1.644125,0,46,46,24,1,25,./stim/wavs/andalusian_match_interrogative-total-yn_Ana-lleva-el-abrigo.wav,./stim/wavs/argentine_match_interrogative-total-yn_Ana-lleva-el-abrigo.wav,./stim/wavs/castilian_match_interrogative-total-yn_Ana-lleva-el-abrigo.wav,./stim/wavs/chilean_match_interrogative-total-yn_Ana-lleva-el-abrigo.wav,./stim/wavs/cuban_match_interrogative-total-yn_Ana-lleva-el-abrigo.wav,./stim/wavs/mexican_match_interrogative-total-yn_Ana-lleva-el-abrigo.wav,./stim/wavs/peruvian_match_interrogative-total-yn_Ana-lleva-el-abrigo.wav,./stim/wavs/puertorican_match_interrogative-total-yn_Ana-lleva-el-abrigo.wav,,,,,,,,,,,,,,,,,,,,,,,,,,,,,,,,,,,,,,,,,,,,,,,,,,,,,,,,
,,,,,,,5c70eafaf6c9fe00013eeafb,605b45a4d25f287719a41696,605cb98c721a4d5d04206d41,United States,Midwest,13 or older,no,2021-03-25_12h30.19.874,empathy_intonation_perc,2020.2.10,Win32,60,,,,,,,,,,1,chilean,0,0,1.466475,0,47,47,62,1,63,./stim/wavs/andalusian_mismatch_interrogative-total-yn_Mi-novio-viene-del-lago.wav,./stim/wavs/argentine_mismatch_interrogative-total-yn_Mi-novio-viene-del-lago.wav,./stim/wavs/castilian_mismatch_interrogative-total-yn_Mi-novio-viene-del-lago.wav,./stim/wavs/chilean_mismatch_interrogative-total-yn_Mi-novio-viene-del-lago.wav,./stim/wavs/cuban_mismatch_interrogative-total-yn_Mi-novio-viene-del-lago.wav,./stim/wavs/mexican_mismatch_interrogative-total-yn_Mi-novio-viene-del-lago.wav,./stim/wavs/peruvian_mismatch_interrogative-total-yn_Mi-novio-viene-del-lago.wav,./stim/wavs/puertorican_mismatch_interrogative-total-yn_Mi-novio-viene-del-lago.wav,,,,,,,,,,,,,,,,,,,,,,,,,,,,,,,,,,,,,,,,,,,,,,,,,,,,,,,,
,,,,,,,5c70eafaf6c9fe00013eeafb,605b45a4d25f287719a41696,605cb98c721a4d5d04206d41,United States,Midwest,13 or older,no,2021-03-25_12h30.19.874,empathy_intonation_perc,2020.2.10,Win32,60,,,,,,,,,,0,puertorican,0,1,2.239385,0,48,48,37,1,38,./stim/wavs/andalusian_mismatch_declarative-broad-focus_Mi-madre-come-la-fruta.wav,./stim/wavs/argentine_mismatch_declarative-broad-focus_Mi-madre-come-la-fruta.wav,./stim/wavs/castilian_mismatch_declarative-broad-focus_Mi-madre-come-la-fruta.wav,./stim/wavs/chilean_mismatch_declarative-broad-focus_Mi-madre-come-la-fruta.wav,./stim/wavs/cuban_mismatch_declarative-broad-focus_Mi-madre-come-la-fruta.wav,./stim/wavs/mexican_mismatch_declarative-broad-focus_Mi-madre-come-la-fruta.wav,./stim/wavs/peruvian_mismatch_declarative-broad-focus_Mi-madre-come-la-fruta.wav,./stim/wavs/puertorican_mismatch_declarative-broad-focus_Mi-madre-come-la-fruta.wav,,,,,,,,,,,,,,,,,,,,,,,,,,,,,,,,,,,,,,,,,,,,,,,,,,,,,,,,
,,,,,,,5c70eafaf6c9fe00013eeafb,605b45a4d25f287719a41696,605cb98c721a4d5d04206d41,United States,Midwest,13 or older,no,2021-03-25_12h30.19.874,empathy_intonation_perc,2020.2.10,Win32,60,,,,,,,,,,0,castilian,0,1,3.336465,0,49,49,34,1,35,./stim/wavs/andalusian_mismatch_declarative-broad-focus_El-nino-oye-el-rio.wav,./stim/wavs/argentine_mismatch_declarative-broad-focus_El-nino-oye-el-rio.wav,./stim/wavs/castilian_mismatch_declarative-broad-focus_El-nino-oye-el-rio.wav,./stim/wavs/chilean_mismatch_declarative-broad-focus_El-nino-oye-el-rio.wav,./stim/wavs/cuban_mismatch_declarative-broad-focus_El-nino-oye-el-rio.wav,./stim/wavs/mexican_mismatch_declarative-broad-focus_El-nino-oye-el-rio.wav,./stim/wavs/peruvian_mismatch_declarative-broad-focus_El-nino-oye-el-rio.wav,./stim/wavs/puertorican_mismatch_declarative-broad-focus_El-nino-oye-el-rio.wav,,,,,,,,,,,,,,,,,,,,,,,,,,,,,,,,,,,,,,,,,,,,,,,,,,,,,,,,
,,,,,,,5c70eafaf6c9fe00013eeafb,605b45a4d25f287719a41696,605cb98c721a4d5d04206d41,United States,Midwest,13 or older,no,2021-03-25_12h30.19.874,empathy_intonation_perc,2020.2.10,Win32,60,,,,,,,,,,0,puertorican,0,1,2.47977,0,50,50,33,1,34,./stim/wavs/andalusian_mismatch_declarative-broad-focus_El-hombre-mira-la-luna.wav,./stim/wavs/argentine_mismatch_declarative-broad-focus_El-hombre-mira-la-luna.wav,./stim/wavs/castilian_mismatch_declarative-broad-focus_El-hombre-mira-la-luna.wav,./stim/wavs/chilean_mismatch_declarative-broad-focus_El-hombre-mira-la-luna.wav,./stim/wavs/cuban_mismatch_declarative-broad-focus_El-hombre-mira-la-luna.wav,./stim/wavs/mexican_mismatch_declarative-broad-focus_El-hombre-mira-la-luna.wav,./stim/wavs/peruvian_mismatch_declarative-broad-focus_El-hombre-mira-la-luna.wav,./stim/wavs/puertorican_mismatch_declarative-broad-focus_El-hombre-mira-la-luna.wav,,,,,,,,,,,,,,,,,,,,,,,,,,,,,,,,,,,,,,,,,,,,,,,,,,,,,,,,
,,,,,,,5c70eafaf6c9fe00013eeafb,605b45a4d25f287719a41696,605cb98c721a4d5d04206d41,United States,Midwest,13 or older,no,2021-03-25_12h30.19.874,empathy_intonation_perc,2020.2.10,Win32,60,,,,,,,,,,1,argentine,1,1,1.468055,0,51,51,18,1,19,./stim/wavs/andalusian_match_interrogative-partial-wh_Cuando-lleva-el-abrigo.wav,./stim/wavs/argentine_match_interrogative-partial-wh_Cuando-lleva-el-abrigo.wav,./stim/wavs/castilian_match_interrogative-partial-wh_Cuando-lleva-el-abrigo.wav,./stim/wavs/chilean_match_interrogative-partial-wh_Cuando-lleva-el-abrigo.wav,./stim/wavs/cuban_match_interrogative-partial-wh_Cuando-lleva-el-abrigo.wav,./stim/wavs/mexican_match_interrogative-partial-wh_Cuando-lleva-el-abrigo.wav,./stim/wavs/peruvian_match_interrogative-partial-wh_Cuando-lleva-el-abrigo.wav,./stim/wavs/puertorican_match_interrogative-partial-wh_Cuando-lleva-el-abrigo.wav,,,,,,,,,,,,,,,,,,,,,,,,,,,,,,,,,,,,,,,,,,,,,,,,,,,,,,,,
,,,,,,,5c70eafaf6c9fe00013eeafb,605b45a4d25f287719a41696,605cb98c721a4d5d04206d41,United States,Midwest,13 or older,no,2021-03-25_12h30.19.874,empathy_intonation_perc,2020.2.10,Win32,60,,,,,,,,,,1,peruvian,1,1,1.35722,0,52,52,22,1,23,./stim/wavs/andalusian_match_interrogative-partial-wh_Por-que-hablaba-del-agua.wav,./stim/wavs/argentine_match_interrogative-partial-wh_Por-que-hablaba-del-agua.wav,./stim/wavs/castilian_match_interrogative-partial-wh_Por-que-hablaba-del-agua.wav,./stim/wavs/chilean_match_interrogative-partial-wh_Por-que-hablaba-del-agua.wav,./stim/wavs/cuban_match_interrogative-partial-wh_Por-que-hablaba-del-agua.wav,./stim/wavs/mexican_match_interrogative-partial-wh_Por-que-hablaba-del-agua.wav,./stim/wavs/peruvian_match_interrogative-partial-wh_Por-que-hablaba-del-agua.wav,./stim/wavs/puertorican_match_interrogative-partial-wh_Por-que-hablaba-del-agua.wav,,,,,,,,,,,,,,,,,,,,,,,,,,,,,,,,,,,,,,,,,,,,,,,,,,,,,,,,
,,,,,,,5c70eafaf6c9fe00013eeafb,605b45a4d25f287719a41696,605cb98c721a4d5d04206d41,United States,Midwest,13 or older,no,2021-03-25_12h30.19.874,empathy_intonation_perc,2020.2.10,Win32,60,,,,,,,,,,1,peruvian,1,1,1.441245,0,53,53,52,1,53,./stim/wavs/andalusian_mismatch_interrogative-partial-wh_Por-que-odiaba-la-lluvia.wav,./stim/wavs/argentine_mismatch_interrogative-partial-wh_Por-que-odiaba-la-lluvia.wav,./stim/wavs/castilian_mismatch_interrogative-partial-wh_Por-que-odiaba-la-lluvia.wav,./stim/wavs/chilean_mismatch_interrogative-partial-wh_Por-que-odiaba-la-lluvia.wav,./stim/wavs/cuban_mismatch_interrogative-partial-wh_Por-que-odiaba-la-lluvia.wav,./stim/wavs/mexican_mismatch_interrogative-partial-wh_Por-que-odiaba-la-lluvia.wav,./stim/wavs/peruvian_mismatch_interrogative-partial-wh_Por-que-odiaba-la-lluvia.wav,./stim/wavs/puertorican_mismatch_interrogative-partial-wh_Por-que-odiaba-la-lluvia.wav,,,,,,,,,,,,,,,,,,,,,,,,,,,,,,,,,,,,,,,,,,,,,,,,,,,,,,,,
,,,,,,,5c70eafaf6c9fe00013eeafb,605b45a4d25f287719a41696,605cb98c721a4d5d04206d41,United States,Midwest,13 or older,no,2021-03-25_12h30.19.874,empathy_intonation_perc,2020.2.10,Win32,60,,,,,,,,,,1,puertorican,0,0,2.20902,0,54,54,58,1,59,./stim/wavs/andalusian_mismatch_interrogative-total-yn_El-nino-oye-el-rio.wav,./stim/wavs/argentine_mismatch_interrogative-total-yn_El-nino-oye-el-rio.wav,./stim/wavs/castilian_mismatch_interrogative-total-yn_El-nino-oye-el-rio.wav,./stim/wavs/chilean_mismatch_interrogative-total-yn_El-nino-oye-el-rio.wav,./stim/wavs/cuban_mismatch_interrogative-total-yn_El-nino-oye-el-rio.wav,./stim/wavs/mexican_mismatch_interrogative-total-yn_El-nino-oye-el-rio.wav,./stim/wavs/peruvian_mismatch_interrogative-total-yn_El-nino-oye-el-rio.wav,./stim/wavs/puertorican_mismatch_interrogative-total-yn_El-nino-oye-el-rio.wav,,,,,,,,,,,,,,,,,,,,,,,,,,,,,,,,,,,,,,,,,,,,,,,,,,,,,,,,
,,,,,,,5c70eafaf6c9fe00013eeafb,605b45a4d25f287719a41696,605cb98c721a4d5d04206d41,United States,Midwest,13 or older,no,2021-03-25_12h30.19.874,empathy_intonation_perc,2020.2.10,Win32,60,,,,,,,,,,1,cuban,1,1,1.959595,0,55,55,21,1,22,./stim/wavs/andalusian_match_interrogative-partial-wh_Por-que-ama-la-navidad.wav,./stim/wavs/argentine_match_interrogative-partial-wh_Por-que-ama-la-navidad.wav,./stim/wavs/castilian_match_interrogative-partial-wh_Por-que-ama-la-navidad.wav,./stim/wavs/chilean_match_interrogative-partial-wh_Por-que-ama-la-navidad.wav,./stim/wavs/cuban_match_interrogative-partial-wh_Por-que-ama-la-navidad.wav,./stim/wavs/mexican_match_interrogative-partial-wh_Por-que-ama-la-navidad.wav,./stim/wavs/peruvian_match_interrogative-partial-wh_Por-que-ama-la-navidad.wav,./stim/wavs/puertorican_match_interrogative-partial-wh_Por-que-ama-la-navidad.wav,,,,,,,,,,,,,,,,,,,,,,,,,,,,,,,,,,,,,,,,,,,,,,,,,,,,,,,,
,,,,,,,5c70eafaf6c9fe00013eeafb,605b45a4d25f287719a41696,605cb98c721a4d5d04206d41,United States,Midwest,13 or older,no,2021-03-25_12h30.19.874,empathy_intonation_perc,2020.2.10,Win32,60,,,,,,,,,,1,chilean,0,0,1.30974,0,56,56,61,1,62,./stim/wavs/andalusian_mismatch_interrogative-total-yn_Mi-madre-come-la-fruta.wav,./stim/wavs/argentine_mismatch_interrogative-total-yn_Mi-madre-come-la-fruta.wav,./stim/wavs/castilian_mismatch_interrogative-total-yn_Mi-madre-come-la-fruta.wav,./stim/wavs/chilean_mismatch_interrogative-total-yn_Mi-madre-come-la-fruta.wav,./stim/wavs/cuban_mismatch_interrogative-total-yn_Mi-madre-come-la-fruta.wav,./stim/wavs/mexican_mismatch_interrogative-total-yn_Mi-madre-come-la-fruta.wav,./stim/wavs/peruvian_mismatch_interrogative-total-yn_Mi-madre-come-la-fruta.wav,./stim/wavs/puertorican_mismatch_interrogative-total-yn_Mi-madre-come-la-fruta.wav,,,,,,,,,,,,,,,,,,,,,,,,,,,,,,,,,,,,,,,,,,,,,,,,,,,,,,,,
,,,,,,,5c70eafaf6c9fe00013eeafb,605b45a4d25f287719a41696,605cb98c721a4d5d04206d41,United States,Midwest,13 or older,no,2021-03-25_12h30.19.874,empathy_intonation_perc,2020.2.10,Win32,60,,,,,,,,,,0,castilian,0,1,1.805715,0,57,57,2,1,3,./stim/wavs/andalusian_match_declarative-broad-focus_David-leia-el-libro.wav,./stim/wavs/argentine_match_declarative-broad-focus_David-leia-el-libro.wav,./stim/wavs/castilian_match_declarative-broad-focus_David-leia-el-libro.wav,./stim/wavs/chilean_match_declarative-broad-focus_David-leia-el-libro.wav,./stim/wavs/cuban_match_declarative-broad-focus_David-leia-el-libro.wav,./stim/wavs/mexican_match_declarative-broad-focus_David-leia-el-libro.wav,./stim/wavs/peruvian_match_declarative-broad-focus_David-leia-el-libro.wav,./stim/wavs/puertorican_match_declarative-broad-focus_David-leia-el-libro.wav,,,,,,,,,,,,,,,,,,,,,,,,,,,,,,,,,,,,,,,,,,,,,,,,,,,,,,,,
,,,,,,,5c70eafaf6c9fe00013eeafb,605b45a4d25f287719a41696,605cb98c721a4d5d04206d41,United States,Midwest,13 or older,no,2021-03-25_12h30.19.874,empathy_intonation_perc,2020.2.10,Win32,60,,,,,,,,,,0,chilean,0,1,1.62178,0,58,58,4,1,5,./stim/wavs/andalusian_match_declarative-broad-focus_Manuela-vende-el-carro.wav,./stim/wavs/argentine_match_declarative-broad-focus_Manuela-vende-el-carro.wav,./stim/wavs/castilian_match_declarative-broad-focus_Manuela-vende-el-carro.wav,./stim/wavs/chilean_match_declarative-broad-focus_Manuela-vende-el-carro.wav,./stim/wavs/cuban_match_declarative-broad-focus_Manuela-vende-el-carro.wav,./stim/wavs/mexican_match_declarative-broad-focus_Manuela-vende-el-carro.wav,./stim/wavs/peruvian_match_declarative-broad-focus_Manuela-vende-el-carro.wav,./stim/wavs/puertorican_match_declarative-broad-focus_Manuela-vende-el-carro.wav,,,,,,,,,,,,,,,,,,,,,,,,,,,,,,,,,,,,,,,,,,,,,,,,,,,,,,,,
,,,,,,,5c70eafaf6c9fe00013eeafb,605b45a4d25f287719a41696,605cb98c721a4d5d04206d41,United States,Midwest,13 or older,no,2021-03-25_12h30.19.874,empathy_intonation_perc,2020.2.10,Win32,60,,,,,,,,,,1,andalusian,0,0,1.5934,0,59,59,17,1,18,./stim/wavs/andalusian_match_interrogative-partial-wh_Cuando-leia-el-libro.wav,./stim/wavs/argentine_match_interrogative-partial-wh_Cuando-leia-el-libro.wav,./stim/wavs/castilian_match_interrogative-partial-wh_Cuando-leia-el-libro.wav,./stim/wavs/chilean_match_interrogative-partial-wh_Cuando-leia-el-libro.wav,./stim/wavs/cuban_match_interrogative-partial-wh_Cuando-leia-el-libro.wav,./stim/wavs/mexican_match_interrogative-partial-wh_Cuando-leia-el-libro.wav,./stim/wavs/peruvian_match_interrogative-partial-wh_Cuando-leia-el-libro.wav,./stim/wavs/puertorican_match_interrogative-partial-wh_Cuando-leia-el-libro.wav,,,,,,,,,,,,,,,,,,,,,,,,,,,,,,,,,,,,,,,,,,,,,,,,,,,,,,,,
,,,,,,,5c70eafaf6c9fe00013eeafb,605b45a4d25f287719a41696,605cb98c721a4d5d04206d41,United States,Midwest,13 or older,no,2021-03-25_12h30.19.874,empathy_intonation_perc,2020.2.10,Win32,60,,,,,,,,,,0,argentine,0,1,2.157025,0,60,60,40,1,41,./stim/wavs/andalusian_mismatch_declarative-narrow-focus_El-bebe-comia-muy-bien.wav,./stim/wavs/argentine_mismatch_declarative-narrow-focus_El-bebe-comia-muy-bien.wav,./stim/wavs/castilian_mismatch_declarative-narrow-focus_El-bebe-comia-muy-bien.wav,./stim/wavs/chilean_mismatch_declarative-narrow-focus_El-bebe-comia-muy-bien.wav,./stim/wavs/cuban_mismatch_declarative-narrow-focus_El-bebe-comia-muy-bien.wav,./stim/wavs/mexican_mismatch_declarative-narrow-focus_El-bebe-comia-muy-bien.wav,./stim/wavs/peruvian_mismatch_declarative-narrow-focus_El-bebe-comia-muy-bien.wav,./stim/wavs/puertorican_mismatch_declarative-narrow-focus_El-bebe-comia-muy-bien.wav,,,,,,,,,,,,,,,,,,,,,,,,,,,,,,,,,,,,,,,,,,,,,,,,,,,,,,,,
,,,,,,,5c70eafaf6c9fe00013eeafb,605b45a4d25f287719a41696,605cb98c721a4d5d04206d41,United States,Midwest,13 or older,no,2021-03-25_12h30.19.874,empathy_intonation_perc,2020.2.10,Win32,60,,,,,,,,,,0,puertorican,0,1,4.463625,0,61,61,1,1,2,./stim/wavs/andalusian_match_declarative-broad-focus_Daniel-iba-a-Bolivia.wav,./stim/wavs/argentine_match_declarative-broad-focus_Daniel-iba-a-Bolivia.wav,./stim/wavs/castilian_match_declarative-broad-focus_Daniel-iba-a-Bolivia.wav,./stim/wavs/chilean_match_declarative-broad-focus_Daniel-iba-a-Bolivia.wav,./stim/wavs/cuban_match_declarative-broad-focus_Daniel-iba-a-Bolivia.wav,./stim/wavs/mexican_match_declarative-broad-focus_Daniel-iba-a-Bolivia.wav,./stim/wavs/peruvian_match_declarative-broad-focus_Daniel-iba-a-Bolivia.wav,./stim/wavs/puertorican_match_declarative-broad-focus_Daniel-iba-a-Bolivia.wav,,,,,,,,,,,,,,,,,,,,,,,,,,,,,,,,,,,,,,,,,,,,,,,,,,,,,,,,
,,,,,,,5c70eafaf6c9fe00013eeafb,605b45a4d25f287719a41696,605cb98c721a4d5d04206d41,United States,Midwest,13 or older,no,2021-03-25_12h30.19.874,empathy_intonation_perc,2020.2.10,Win32,60,,,,,,,,,,0,castilian,0,1,2.25231,0,62,62,6,1,7,./stim/wavs/andalusian_match_declarative-broad-focus_Mariano-habla-del-tiempo.wav,./stim/wavs/argentine_match_declarative-broad-focus_Mariano-habla-del-tiempo.wav,./stim/wavs/castilian_match_declarative-broad-focus_Mariano-habla-del-tiempo.wav,./stim/wavs/chilean_match_declarative-broad-focus_Mariano-habla-del-tiempo.wav,./stim/wavs/cuban_match_declarative-broad-focus_Mariano-habla-del-tiempo.wav,./stim/wavs/mexican_match_declarative-broad-focus_Mariano-habla-del-tiempo.wav,./stim/wavs/peruvian_match_declarative-broad-focus_Mariano-habla-del-tiempo.wav,./stim/wavs/puertorican_match_declarative-broad-focus_Mariano-habla-del-tiempo.wav,,,,,,,,,,,,,,,,,,,,,,,,,,,,,,,,,,,,,,,,,,,,,,,,,,,,,,,,
,,,,,,,5c70eafaf6c9fe00013eeafb,605b45a4d25f287719a41696,605cb98c721a4d5d04206d41,United States,Midwest,13 or older,no,2021-03-25_12h30.19.874,empathy_intonation_perc,2020.2.10,Win32,60,,,,,,,,,,0,chilean,0,1,2.240945,0,63,63,41,1,42,./stim/wavs/andalusian_mismatch_declarative-narrow-focus_El-hombre-mira-la-luna.wav,./stim/wavs/argentine_mismatch_declarative-narrow-focus_El-hombre-mira-la-luna.wav,./stim/wavs/castilian_mismatch_declarative-narrow-focus_El-hombre-mira-la-luna.wav,./stim/wavs/chilean_mismatch_declarative-narrow-focus_El-hombre-mira-la-luna.wav,./stim/wavs/cuban_mismatch_declarative-narrow-focus_El-hombre-mira-la-luna.wav,./stim/wavs/mexican_mismatch_declarative-narrow-focus_El-hombre-mira-la-luna.wav,./stim/wavs/peruvian_mismatch_declarative-narrow-focus_El-hombre-mira-la-luna.wav,./stim/wavs/puertorican_mismatch_declarative-narrow-focus_El-hombre-mira-la-luna.wav,,,,,,,,,,,,,,,,,,,,,,,,,,,,,,,,,,,,,,,,,,,,,,,,,,,,,,,,
,,,,,,,5c70eafaf6c9fe00013eeafb,605b45a4d25f287719a41696,605cb98c721a4d5d04206d41,United States,Midwest,13 or older,no,2021-03-25_12h30.19.874,empathy_intonation_perc,2020.2.10,Win32,60,,,,,,,,,,,,,,,,,,,,,,,,,,,,,h,1,5.153495,0,0,0,0,1,,,,,,,,,,,,,,,,,,,,,,,,,,,,,,,,,,,,,,,,,,,,,,,,
,,,,,"Great! Now we will move on. The next task consists of about 60 trials, in each of which you will see a string of letters. 
  
  Your task is to decide whether this is a real Spanish word or not.",(press the spacebar to continue),5c70eafaf6c9fe00013eeafb,605b45a4d25f287719a41696,605cb98c721a4d5d04206d41,United States,Midwest,13 or older,no,2021-03-25_12h30.19.874,empathy_intonation_perc,2020.2.10,Win32,60,,,,,,,,,,,,,,,,,,,,,,,,,,,,,,,,,,,,,0,0,0,0,1,,,,,,,,,,,,,,,,,,,,,,,,,,,,,,,,,,,,,,,,,,,
,,,,,"If you think it is an existing Spanish word, you type '1' (for 'REAL'), and if you think it is not an existing Spanish word, you type '0' (for 'FAKE').",(press the spacebar to continue),5c70eafaf6c9fe00013eeafb,605b45a4d25f287719a41696,605cb98c721a4d5d04206d41,United States,Midwest,13 or older,no,2021-03-25_12h30.19.874,empathy_intonation_perc,2020.2.10,Win32,60,,,,,,,,,,,,,,,,,,,,,,,,,,,,,,,,,,,,,0,1,1,1,1,,,,,,,,,,,,,,,,,,,,,,,,,,,,,,,,,,,,,,,,,,,
,,,,,"If you are sure that the word exists, even though you dont know its exact meaning, you may still respond '1' (REAL). 
  
  But if you are not sure if it is an existing word, you should respond '0' (FAKE).
  
  Let's do a practice round...",(press the spacebar to continue),5c70eafaf6c9fe00013eeafb,605b45a4d25f287719a41696,605cb98c721a4d5d04206d41,United States,Midwest,13 or older,no,2021-03-25_12h30.19.874,empathy_intonation_perc,2020.2.10,Win32,60,,,,,,,,,,,,,,,,,,,,,,,,,,,,,,,,,,,,,0,2,2,2,1,,,,,,,,,,,,,,,,,,,,,,,,,,,,,,,,,,,,,,,,,,,
,,,,,,,5c70eafaf6c9fe00013eeafb,605b45a4d25f287719a41696,605cb98c721a4d5d04206d41,United States,Midwest,13 or older,no,2021-03-25_12h30.19.874,empathy_intonation_perc,2020.2.10,Win32,60,,,,,,,,,,0,,,,,,,,,,,,,,,,,,,,,,,,,,,,,,,,0,1,1.3346,0,0,0,0,1,0,depiste,REAL,FAKE,,,,,,,,,,,,,,,,,,,,,,,,,,,,,,,
,,,,,,,5c70eafaf6c9fe00013eeafb,605b45a4d25f287719a41696,605cb98c721a4d5d04206d41,United States,Midwest,13 or older,no,2021-03-25_12h30.19.874,empathy_intonation_perc,2020.2.10,Win32,60,,,,,,,,,,1,,,,,,,,,,,,,,,,,,,,,,,,,,,,,,,,1,1,0.891425,0,1,1,1,1,0,s,REAL,FAKE,,,,,,,,,,,,,,,,,,,,,,,,,,,,,,,
,,,,,,,5c70eafaf6c9fe00013eeafb,605b45a4d25f287719a41696,605cb98c721a4d5d04206d41,United States,Midwest,13 or older,no,2021-03-25_12h30.19.874,empathy_intonation_perc,2020.2.10,Win32,60,,,,,,,,,,0,,,,,,,,,,,,,,,,,,,,,,,,,,,,,,,,0,1,1.667355,0,2,2,2,1,0,con,REAL,FAKE,,,,,,,,,,,,,,,,,,,,,,,,,,,,,,,
,,,,,,,5c70eafaf6c9fe00013eeafb,605b45a4d25f287719a41696,605cb98c721a4d5d04206d41,United States,Midwest,13 or older,no,2021-03-25_12h30.19.874,empathy_intonation_perc,2020.2.10,Win32,60,,,,,,,,,,0,,,,,,,,,,,,,,,,,,,,,,,,,,,,,,,,1,0,0.82316,0,3,3,3,1,0,calpar,REAL,FAKE,,,,,,,,,,,,,,,,,,,,,,,,,,,,,,,
,,,,,,,5c70eafaf6c9fe00013eeafb,605b45a4d25f287719a41696,605cb98c721a4d5d04206d41,United States,Midwest,13 or older,no,2021-03-25_12h30.19.874,empathy_intonation_perc,2020.2.10,Win32,60,,,,,,,,,,0,,,,,,,,,,,,,,,,,,,,,,,,,,,,,,,,0,1,0.73412,0,4,4,4,1,0,joten,REAL,FAKE,,,,,,,,,,,,,,,,,,,,,,,,,,,,,,,
,,,,,,,5c70eafaf6c9fe00013eeafb,605b45a4d25f287719a41696,605cb98c721a4d5d04206d41,United States,Midwest,13 or older,no,2021-03-25_12h30.19.874,empathy_intonation_perc,2020.2.10,Win32,60,,,,,,,,,,1,,,,,,,,,,,,,,,,,,,,,,,,,,,,,,,,0,0,0.76759,0,5,5,5,1,0,sacapuntas,REAL,FAKE,,,,,,,,,,,,,,,,,,,,,,,,,,,,,,,
,,,,,,,5c70eafaf6c9fe00013eeafb,605b45a4d25f287719a41696,605cb98c721a4d5d04206d41,United States,Midwest,13 or older,no,2021-03-25_12h30.19.874,empathy_intonation_perc,2020.2.10,Win32,60,,,,,,,,,,0,,,,,,,,,,,,,,,,,,,,,,,,,,,,,,,,0,1,0.949885,0,6,6,6,1,0,priba,REAL,FAKE,,,,,,,,,,,,,,,,,,,,,,,,,,,,,,,
,,,,,,,5c70eafaf6c9fe00013eeafb,605b45a4d25f287719a41696,605cb98c721a4d5d04206d41,United States,Midwest,13 or older,no,2021-03-25_12h30.19.874,empathy_intonation_perc,2020.2.10,Win32,60,,,,,,,,,,0,,,,,,,,,,,,,,,,,,,,,,,,,,,,,,,,0,1,0.71121,0,7,7,7,1,0,pelasula,REAL,FAKE,,,,,,,,,,,,,,,,,,,,,,,,,,,,,,,
,,,,,,,5c70eafaf6c9fe00013eeafb,605b45a4d25f287719a41696,605cb98c721a4d5d04206d41,United States,Midwest,13 or older,no,2021-03-25_12h30.19.874,empathy_intonation_perc,2020.2.10,Win32,60,,,,,,,,,,1,,,,,,,,,,,,,,,,,,,,,,,,,,,,,,,,1,1,0.684695,0,8,8,8,1,0,bien,REAL,FAKE,,,,,,,,,,,,,,,,,,,,,,,,,,,,,,,
,,,,,,,5c70eafaf6c9fe00013eeafb,605b45a4d25f287719a41696,605cb98c721a4d5d04206d41,United States,Midwest,13 or older,no,2021-03-25_12h30.19.874,empathy_intonation_perc,2020.2.10,Win32,60,,,,,,,,,,1,,,,,,,,,,,,,,,,,,,,,,,,,,,,,,,,1,1,0.606045,0,9,9,9,1,0,casa,REAL,FAKE,,,,,,,,,,,,,,,,,,,,,,,,,,,,,,,
,,,,,,,5c70eafaf6c9fe00013eeafb,605b45a4d25f287719a41696,605cb98c721a4d5d04206d41,United States,Midwest,13 or older,no,2021-03-25_12h30.19.874,empathy_intonation_perc,2020.2.10,Win32,60,,,,,,,,,,0,,,,,,,,,,,,,,,,,,,,,,,,,,,,,,,,0,1,0.821955,0,10,10,10,1,0,lejo,REAL,FAKE,,,,,,,,,,,,,,,,,,,,,,,,,,,,,,,
,,,,,,,5c70eafaf6c9fe00013eeafb,605b45a4d25f287719a41696,605cb98c721a4d5d04206d41,United States,Midwest,13 or older,no,2021-03-25_12h30.19.874,empathy_intonation_perc,2020.2.10,Win32,60,,,,,,,,,,0,,,,,,,,,,,,,,,,,,,,,,,,,,,,,,,,0,1,0.696025,0,11,11,11,1,0,pretantas,REAL,FAKE,,,,,,,,,,,,,,,,,,,,,,,,,,,,,,,
,,,,,,,5c70eafaf6c9fe00013eeafb,605b45a4d25f287719a41696,605cb98c721a4d5d04206d41,United States,Midwest,13 or older,no,2021-03-25_12h30.19.874,empathy_intonation_perc,2020.2.10,Win32,60,,,,,,,,,,0,,,,,,,,,,,,,,,,,,,,,,,,,,,,,,,,,,,,,,,,29,decar,,,1,0,0.890045,0,0,0,28,1,REAL,FAKE,,,,,,,,,,,,,,,,,,,,,
,,,,,,,5c70eafaf6c9fe00013eeafb,605b45a4d25f287719a41696,605cb98c721a4d5d04206d41,United States,Midwest,13 or older,no,2021-03-25_12h30.19.874,empathy_intonation_perc,2020.2.10,Win32,60,,,,,,,,,,1,,,,,,,,,,,,,,,,,,,,,,,,,,,,,,,,,,,,,,,,78,frondoso,,,0,0,1.01083,0,1,1,77,1,REAL,FAKE,,,,,,,,,,,,,,,,,,,,,
,,,,,,,5c70eafaf6c9fe00013eeafb,605b45a4d25f287719a41696,605cb98c721a4d5d04206d41,United States,Midwest,13 or older,no,2021-03-25_12h30.19.874,empathy_intonation_perc,2020.2.10,Win32,60,,,,,,,,,,1,,,,,,,,,,,,,,,,,,,,,,,,,,,,,,,,,,,,,,,,49,ganar,,,0,0,0.715565,0,2,2,48,1,REAL,FAKE,,,,,,,,,,,,,,,,,,,,,
,,,,,,,5c70eafaf6c9fe00013eeafb,605b45a4d25f287719a41696,605cb98c721a4d5d04206d41,United States,Midwest,13 or older,no,2021-03-25_12h30.19.874,empathy_intonation_perc,2020.2.10,Win32,60,,,,,,,,,,1,,,,,,,,,,,,,,,,,,,,,,,,,,,,,,,,,,,,,,,,7,psimo,,,1,1,0.528425,0,3,3,6,1,REAL,FAKE,,,,,,,,,,,,,,,,,,,,,
,,,,,,,5c70eafaf6c9fe00013eeafb,605b45a4d25f287719a41696,605cb98c721a4d5d04206d41,United States,Midwest,13 or older,no,2021-03-25_12h30.19.874,empathy_intonation_perc,2020.2.10,Win32,60,,,,,,,,,,1,,,,,,,,,,,,,,,,,,,,,,,,,,,,,,,,,,,,,,,,90,clavel,,,0,0,0.730975,0,4,4,89,1,REAL,FAKE,,,,,,,,,,,,,,,,,,,,,
,,,,,,,5c70eafaf6c9fe00013eeafb,605b45a4d25f287719a41696,605cb98c721a4d5d04206d41,United States,Midwest,13 or older,no,2021-03-25_12h30.19.874,empathy_intonation_perc,2020.2.10,Win32,60,,,,,,,,,,1,,,,,,,,,,,,,,,,,,,,,,,,,,,,,,,,,,,,,,,,75,yacer,,,0,0,0.632915,0,5,5,74,1,REAL,FAKE,,,,,,,,,,,,,,,,,,,,,
,,,,,,,5c70eafaf6c9fe00013eeafb,605b45a4d25f287719a41696,605cb98c721a4d5d04206d41,United States,Midwest,13 or older,no,2021-03-25_12h30.19.874,empathy_intonation_perc,2020.2.10,Win32,60,,,,,,,,,,0,,,,,,,,,,,,,,,,,,,,,,,,,,,,,,,,,,,,,,,,16,abracer,,,1,0,0.913715,0,6,6,15,1,REAL,FAKE,,,,,,,,,,,,,,,,,,,,,
,,,,,,,5c70eafaf6c9fe00013eeafb,605b45a4d25f287719a41696,605cb98c721a4d5d04206d41,United States,Midwest,13 or older,no,2021-03-25_12h30.19.874,empathy_intonation_perc,2020.2.10,Win32,60,,,,,,,,,,1,,,,,,,,,,,,,,,,,,,,,,,,,,,,,,,,,,,,,,,,31,pandilla,,,1,1,0.94138,0,7,7,30,1,REAL,FAKE,,,,,,,,,,,,,,,,,,,,,
,,,,,,,5c70eafaf6c9fe00013eeafb,605b45a4d25f287719a41696,605cb98c721a4d5d04206d41,United States,Midwest,13 or older,no,2021-03-25_12h30.19.874,empathy_intonation_perc,2020.2.10,Win32,60,,,,,,,,,,1,,,,,,,,,,,,,,,,,,,,,,,,,,,,,,,,,,,,,,,,45,jilguero,,,1,1,0.782945,0,8,8,44,1,REAL,FAKE,,,,,,,,,,,,,,,,,,,,,
,,,,,,,5c70eafaf6c9fe00013eeafb,605b45a4d25f287719a41696,605cb98c721a4d5d04206d41,United States,Midwest,13 or older,no,2021-03-25_12h30.19.874,empathy_intonation_perc,2020.2.10,Win32,60,,,,,,,,,,1,,,,,,,,,,,,,,,,,,,,,,,,,,,,,,,,,,,,,,,,12,asesinato,,,0,0,0.64032,0,9,9,11,1,REAL,FAKE,,,,,,,,,,,,,,,,,,,,,
,,,,,,,5c70eafaf6c9fe00013eeafb,605b45a4d25f287719a41696,605cb98c721a4d5d04206d41,United States,Midwest,13 or older,no,2021-03-25_12h30.19.874,empathy_intonation_perc,2020.2.10,Win32,60,,,,,,,,,,1,,,,,,,,,,,,,,,,,,,,,,,,,,,,,,,,,,,,,,,,57,tacao,,,1,1,0.97437,0,10,10,56,1,REAL,FAKE,,,,,,,,,,,,,,,,,,,,,
,,,,,,,5c70eafaf6c9fe00013eeafb,605b45a4d25f287719a41696,605cb98c721a4d5d04206d41,United States,Midwest,13 or older,no,2021-03-25_12h30.19.874,empathy_intonation_perc,2020.2.10,Win32,60,,,,,,,,,,1,,,,,,,,,,,,,,,,,,,,,,,,,,,,,,,,,,,,,,,,65,bizcocho,,,0,0,0.94247,0,11,11,64,1,REAL,FAKE,,,,,,,,,,,,,,,,,,,,,
,,,,,,,5c70eafaf6c9fe00013eeafb,605b45a4d25f287719a41696,605cb98c721a4d5d04206d41,United States,Midwest,13 or older,no,2021-03-25_12h30.19.874,empathy_intonation_perc,2020.2.10,Win32,60,,,,,,,,,,1,,,,,,,,,,,,,,,,,,,,,,,,,,,,,,,,,,,,,,,,9,hacha,,,1,1,0.899855,0,12,12,8,1,REAL,FAKE,,,,,,,,,,,,,,,,,,,,,
,,,,,,,5c70eafaf6c9fe00013eeafb,605b45a4d25f287719a41696,605cb98c721a4d5d04206d41,United States,Midwest,13 or older,no,2021-03-25_12h30.19.874,empathy_intonation_perc,2020.2.10,Win32,60,,,,,,,,,,1,,,,,,,,,,,,,,,,,,,,,,,,,,,,,,,,,,,,,,,,83,guante,,,0,0,0.79971,0,13,13,82,1,REAL,FAKE,,,,,,,,,,,,,,,,,,,,,
,,,,,,,5c70eafaf6c9fe00013eeafb,605b45a4d25f287719a41696,605cb98c721a4d5d04206d41,United States,Midwest,13 or older,no,2021-03-25_12h30.19.874,empathy_intonation_perc,2020.2.10,Win32,60,,,,,,,,,,1,,,,,,,,,,,,,,,,,,,,,,,,,,,,,,,,,,,,,,,,61,seda,,,0,0,0.584055,0,14,14,60,1,REAL,FAKE,,,,,,,,,,,,,,,,,,,,,
,,,,,,,5c70eafaf6c9fe00013eeafb,605b45a4d25f287719a41696,605cb98c721a4d5d04206d41,United States,Midwest,13 or older,no,2021-03-25_12h30.19.874,empathy_intonation_perc,2020.2.10,Win32,60,,,,,,,,,,0,,,,,,,,,,,,,,,,,,,,,,,,,,,,,,,,,,,,,,,,58,plaudir,,,0,1,0.434695,0,15,15,57,1,REAL,FAKE,,,,,,,,,,,,,,,,,,,,,
,,,,,,,5c70eafaf6c9fe00013eeafb,605b45a4d25f287719a41696,605cb98c721a4d5d04206d41,United States,Midwest,13 or older,no,2021-03-25_12h30.19.874,empathy_intonation_perc,2020.2.10,Win32,60,,,,,,,,,,0,,,,,,,,,,,,,,,,,,,,,,,,,,,,,,,,,,,,,,,,18,arsa,,,0,1,0.879045,0,16,16,17,1,REAL,FAKE,,,,,,,,,,,,,,,,,,,,,
,,,,,,,5c70eafaf6c9fe00013eeafb,605b45a4d25f287719a41696,605cb98c721a4d5d04206d41,United States,Midwest,13 or older,no,2021-03-25_12h30.19.874,empathy_intonation_perc,2020.2.10,Win32,60,,,,,,,,,,1,,,,,,,,,,,,,,,,,,,,,,,,,,,,,,,,,,,,,,,,25,bisagra,,,0,0,0.649305,0,17,17,24,1,REAL,FAKE,,,,,,,,,,,,,,,,,,,,,
,,,,,,,5c70eafaf6c9fe00013eeafb,605b45a4d25f287719a41696,605cb98c721a4d5d04206d41,United States,Midwest,13 or older,no,2021-03-25_12h30.19.874,empathy_intonation_perc,2020.2.10,Win32,60,,,,,,,,,,1,,,,,,,,,,,,,,,,,,,,,,,,,,,,,,,,,,,,,,,,28,merodear,,,0,0,0.80938,0,18,18,27,1,REAL,FAKE,,,,,,,,,,,,,,,,,,,,,
,,,,,,,5c70eafaf6c9fe00013eeafb,605b45a4d25f287719a41696,605cb98c721a4d5d04206d41,United States,Midwest,13 or older,no,2021-03-25_12h30.19.874,empathy_intonation_perc,2020.2.10,Win32,60,,,,,,,,,,0,,,,,,,,,,,,,,,,,,,,,,,,,,,,,,,,,,,,,,,,47,cartinar,,,0,1,0.73284,0,19,19,46,1,REAL,FAKE,,,,,,,,,,,,,,,,,,,,,
,,,,,,,5c70eafaf6c9fe00013eeafb,605b45a4d25f287719a41696,605cb98c721a4d5d04206d41,United States,Midwest,13 or older,no,2021-03-25_12h30.19.874,empathy_intonation_perc,2020.2.10,Win32,60,,,,,,,,,,1,,,,,,,,,,,,,,,,,,,,,,,,,,,,,,,,,,,,,,,,15,regar,,,0,0,0.35374,0,20,20,14,1,REAL,FAKE,,,,,,,,,,,,,,,,,,,,,
,,,,,,,5c70eafaf6c9fe00013eeafb,605b45a4d25f287719a41696,605cb98c721a4d5d04206d41,United States,Midwest,13 or older,no,2021-03-25_12h30.19.874,empathy_intonation_perc,2020.2.10,Win32,60,,,,,,,,,,0,,,,,,,,,,,,,,,,,,,,,,,,,,,,,,,,,,,,,,,,66,hacido,,,0,1,0.599485,0,21,21,65,1,REAL,FAKE,,,,,,,,,,,,,,,,,,,,,
,,,,,,,5c70eafaf6c9fe00013eeafb,605b45a4d25f287719a41696,605cb98c721a4d5d04206d41,United States,Midwest,13 or older,no,2021-03-25_12h30.19.874,empathy_intonation_perc,2020.2.10,Win32,60,,,,,,,,,,1,,,,,,,,,,,,,,,,,,,,,,,,,,,,,,,,,,,,,,,,86,barato,,,1,1,0.83833,0,22,22,85,1,REAL,FAKE,,,,,,,,,,,,,,,,,,,,,
,,,,,,,5c70eafaf6c9fe00013eeafb,605b45a4d25f287719a41696,605cb98c721a4d5d04206d41,United States,Midwest,13 or older,no,2021-03-25_12h30.19.874,empathy_intonation_perc,2020.2.10,Win32,60,,,,,,,,,,1,,,,,,,,,,,,,,,,,,,,,,,,,,,,,,,,,,,,,,,,37,granuja,,,0,0,0.767665,0,23,23,36,1,REAL,FAKE,,,,,,,,,,,,,,,,,,,,,
,,,,,,,5c70eafaf6c9fe00013eeafb,605b45a4d25f287719a41696,605cb98c721a4d5d04206d41,United States,Midwest,13 or older,no,2021-03-25_12h30.19.874,empathy_intonation_perc,2020.2.10,Win32,60,,,,,,,,,,1,,,,,,,,,,,,,,,,,,,,,,,,,,,,,,,,,,,,,,,,51,candado,,,1,1,0.985925,0,24,24,50,1,REAL,FAKE,,,,,,,,,,,,,,,,,,,,,
,,,,,,,5c70eafaf6c9fe00013eeafb,605b45a4d25f287719a41696,605cb98c721a4d5d04206d41,United States,Midwest,13 or older,no,2021-03-25_12h30.19.874,empathy_intonation_perc,2020.2.10,Win32,60,,,,,,,,,,0,,,,,,,,,,,,,,,,,,,,,,,,,,,,,,,,,,,,,,,,35,rompido,,,0,1,0.65384,0,25,25,34,1,REAL,FAKE,,,,,,,,,,,,,,,,,,,,,
,,,,,,,5c70eafaf6c9fe00013eeafb,605b45a4d25f287719a41696,605cb98c721a4d5d04206d41,United States,Midwest,13 or older,no,2021-03-25_12h30.19.874,empathy_intonation_perc,2020.2.10,Win32,60,,,,,,,,,,1,,,,,,,,,,,,,,,,,,,,,,,,,,,,,,,,,,,,,,,,80,hormiga,,,0,0,0.67507,0,26,26,79,1,REAL,FAKE,,,,,,,,,,,,,,,,,,,,,
,,,,,,,5c70eafaf6c9fe00013eeafb,605b45a4d25f287719a41696,605cb98c721a4d5d04206d41,United States,Midwest,13 or older,no,2021-03-25_12h30.19.874,empathy_intonation_perc,2020.2.10,Win32,60,,,,,,,,,,1,,,,,,,,,,,,,,,,,,,,,,,,,,,,,,,,,,,,,,,,13,helar,,,0,0,0.633065,0,27,27,12,1,REAL,FAKE,,,,,,,,,,,,,,,,,,,,,
,,,,,,,5c70eafaf6c9fe00013eeafb,605b45a4d25f287719a41696,605cb98c721a4d5d04206d41,United States,Midwest,13 or older,no,2021-03-25_12h30.19.874,empathy_intonation_perc,2020.2.10,Win32,60,,,,,,,,,,0,,,,,,,,,,,,,,,,,,,,,,,,,,,,,,,,,,,,,,,,87,grodo,,,0,1,0.635385,0,28,28,86,1,REAL,FAKE,,,,,,,,,,,,,,,,,,,,,
,,,,,,,5c70eafaf6c9fe00013eeafb,605b45a4d25f287719a41696,605cb98c721a4d5d04206d41,United States,Midwest,13 or older,no,2021-03-25_12h30.19.874,empathy_intonation_perc,2020.2.10,Win32,60,,,,,,,,,,1,,,,,,,,,,,,,,,,,,,,,,,,,,,,,,,,,,,,,,,,46,martillo,,,0,0,1.033315,0,29,29,45,1,REAL,FAKE,,,,,,,,,,,,,,,,,,,,,
,,,,,,,5c70eafaf6c9fe00013eeafb,605b45a4d25f287719a41696,605cb98c721a4d5d04206d41,United States,Midwest,13 or older,no,2021-03-25_12h30.19.874,empathy_intonation_perc,2020.2.10,Win32,60,,,,,,,,,,1,,,,,,,,,,,,,,,,,,,,,,,,,,,,,,,,,,,,,,,,22,lacayo,,,0,0,0.48277,0,30,30,21,1,REAL,FAKE,,,,,,,,,,,,,,,,,,,,,
,,,,,,,5c70eafaf6c9fe00013eeafb,605b45a4d25f287719a41696,605cb98c721a4d5d04206d41,United States,Midwest,13 or older,no,2021-03-25_12h30.19.874,empathy_intonation_perc,2020.2.10,Win32,60,,,,,,,,,,1,,,,,,,,,,,,,,,,,,,,,,,,,,,,,,,,,,,,,,,,52,camisa,,,0,0,0.482845,0,31,31,51,1,REAL,FAKE,,,,,,,,,,,,,,,,,,,,,
,,,,,,,5c70eafaf6c9fe00013eeafb,605b45a4d25f287719a41696,605cb98c721a4d5d04206d41,United States,Midwest,13 or older,no,2021-03-25_12h30.19.874,empathy_intonation_perc,2020.2.10,Win32,60,,,,,,,,,,1,,,,,,,,,,,,,,,,,,,,,,,,,,,,,,,,,,,,,,,,69,engatusar,,,0,0,0.599705,0,32,32,68,1,REAL,FAKE,,,,,,,,,,,,,,,,,,,,,
,,,,,,,5c70eafaf6c9fe00013eeafb,605b45a4d25f287719a41696,605cb98c721a4d5d04206d41,United States,Midwest,13 or older,no,2021-03-25_12h30.19.874,empathy_intonation_perc,2020.2.10,Win32,60,,,,,,,,,,0,,,,,,,,,,,,,,,,,,,,,,,,,,,,,,,,,,,,,,,,79,tropaje,,,0,1,0.558235,0,33,33,78,1,REAL,FAKE,,,,,,,,,,,,,,,,,,,,,
,,,,,,,5c70eafaf6c9fe00013eeafb,605b45a4d25f287719a41696,605cb98c721a4d5d04206d41,United States,Midwest,13 or older,no,2021-03-25_12h30.19.874,empathy_intonation_perc,2020.2.10,Win32,60,,,,,,,,,,1,,,,,,,,,,,,,,,,,,,,,,,,,,,,,,,,,,,,,,,,5,zapato,,,0,0,0.634145,0,34,34,4,1,REAL,FAKE,,,,,,,,,,,,,,,,,,,,,
,,,,,,,5c70eafaf6c9fe00013eeafb,605b45a4d25f287719a41696,605cb98c721a4d5d04206d41,United States,Midwest,13 or older,no,2021-03-25_12h30.19.874,empathy_intonation_perc,2020.2.10,Win32,60,,,,,,,,,,1,,,,,,,,,,,,,,,,,,,,,,,,,,,,,,,,,,,,,,,,41,rebuscar,,,0,0,0.585955,0,35,35,40,1,REAL,FAKE,,,,,,,,,,,,,,,,,,,,,
,,,,,,,5c70eafaf6c9fe00013eeafb,605b45a4d25f287719a41696,605cb98c721a4d5d04206d41,United States,Midwest,13 or older,no,2021-03-25_12h30.19.874,empathy_intonation_perc,2020.2.10,Win32,60,,,,,,,,,,0,,,,,,,,,,,,,,,,,,,,,,,,,,,,,,,,,,,,,,,,82,empirador,,,0,1,0.73537,0,36,36,81,1,REAL,FAKE,,,,,,,,,,,,,,,,,,,,,
,,,,,,,5c70eafaf6c9fe00013eeafb,605b45a4d25f287719a41696,605cb98c721a4d5d04206d41,United States,Midwest,13 or older,no,2021-03-25_12h30.19.874,empathy_intonation_perc,2020.2.10,Win32,60,,,,,,,,,,1,,,,,,,,,,,,,,,,,,,,,,,,,,,,,,,,,,,,,,,,54,fomentar,,,0,0,0.49967,0,37,37,53,1,REAL,FAKE,,,,,,,,,,,,,,,,,,,,,
,,,,,,,5c70eafaf6c9fe00013eeafb,605b45a4d25f287719a41696,605cb98c721a4d5d04206d41,United States,Midwest,13 or older,no,2021-03-25_12h30.19.874,empathy_intonation_perc,2020.2.10,Win32,60,,,,,,,,,,1,,,,,,,,,,,,,,,,,,,,,,,,,,,,,,,,,,,,,,,,26,secuestro,,,0,0,0.94994,0,38,38,25,1,REAL,FAKE,,,,,,,,,,,,,,,,,,,,,
,,,,,,,5c70eafaf6c9fe00013eeafb,605b45a4d25f287719a41696,605cb98c721a4d5d04206d41,United States,Midwest,13 or older,no,2021-03-25_12h30.19.874,empathy_intonation_perc,2020.2.10,Win32,60,,,,,,,,,,0,,,,,,,,,,,,,,,,,,,,,,,,,,,,,,,,,,,,,,,,10,antar,,,0,1,0.71892,0,39,39,9,1,REAL,FAKE,,,,,,,,,,,,,,,,,,,,,
,,,,,,,5c70eafaf6c9fe00013eeafb,605b45a4d25f287719a41696,605cb98c721a4d5d04206d41,United States,Midwest,13 or older,no,2021-03-25_12h30.19.874,empathy_intonation_perc,2020.2.10,Win32,60,,,,,,,,,,1,,,,,,,,,,,,,,,,,,,,,,,,,,,,,,,,,,,,,,,,6,tergiversar,,,0,0,0.802145,0,40,40,5,1,REAL,FAKE,,,,,,,,,,,,,,,,,,,,,
,,,,,,,5c70eafaf6c9fe00013eeafb,605b45a4d25f287719a41696,605cb98c721a4d5d04206d41,United States,Midwest,13 or older,no,2021-03-25_12h30.19.874,empathy_intonation_perc,2020.2.10,Win32,60,,,,,,,,,,0,,,,,,,,,,,,,,,,,,,,,,,,,,,,,,,,,,,,,,,,21,capillo,,,1,0,0.71641,0,41,41,20,1,REAL,FAKE,,,,,,,,,,,,,,,,,,,,,
,,,,,,,5c70eafaf6c9fe00013eeafb,605b45a4d25f287719a41696,605cb98c721a4d5d04206d41,United States,Midwest,13 or older,no,2021-03-25_12h30.19.874,empathy_intonation_perc,2020.2.10,Win32,60,,,,,,,,,,1,,,,,,,,,,,,,,,,,,,,,,,,,,,,,,,,,,,,,,,,77,tiburn,,,1,1,0.87261,0,42,42,76,1,REAL,FAKE,,,,,,,,,,,,,,,,,,,,,
,,,,,,,5c70eafaf6c9fe00013eeafb,605b45a4d25f287719a41696,605cb98c721a4d5d04206d41,United States,Midwest,13 or older,no,2021-03-25_12h30.19.874,empathy_intonation_perc,2020.2.10,Win32,60,,,,,,,,,,0,,,,,,,,,,,,,,,,,,,,,,,,,,,,,,,,,,,,,,,,63,esposante,,,1,0,0.843875,0,43,43,62,1,REAL,FAKE,,,,,,,,,,,,,,,,,,,,,
,,,,,,,5c70eafaf6c9fe00013eeafb,605b45a4d25f287719a41696,605cb98c721a4d5d04206d41,United States,Midwest,13 or older,no,2021-03-25_12h30.19.874,empathy_intonation_perc,2020.2.10,Win32,60,,,,,,,,,,0,,,,,,,,,,,,,,,,,,,,,,,,,,,,,,,,,,,,,,,,53,vegada,,,0,1,0.519725,0,44,44,52,1,REAL,FAKE,,,,,,,,,,,,,,,,,,,,,
,,,,,,,5c70eafaf6c9fe00013eeafb,605b45a4d25f287719a41696,605cb98c721a4d5d04206d41,United States,Midwest,13 or older,no,2021-03-25_12h30.19.874,empathy_intonation_perc,2020.2.10,Win32,60,,,,,,,,,,1,,,,,,,,,,,,,,,,,,,,,,,,,,,,,,,,,,,,,,,,56,musgo,,,0,0,0.52936,0,45,45,55,1,REAL,FAKE,,,,,,,,,,,,,,,,,,,,,
,,,,,,,5c70eafaf6c9fe00013eeafb,605b45a4d25f287719a41696,605cb98c721a4d5d04206d41,United States,Midwest,13 or older,no,2021-03-25_12h30.19.874,empathy_intonation_perc,2020.2.10,Win32,60,,,,,,,,,,1,,,,,,,,,,,,,,,,,,,,,,,,,,,,,,,,,,,,,,,,60,matar,,,0,0,0.553505,0,46,46,59,1,REAL,FAKE,,,,,,,,,,,,,,,,,,,,,
,,,,,,,5c70eafaf6c9fe00013eeafb,605b45a4d25f287719a41696,605cb98c721a4d5d04206d41,United States,Midwest,13 or older,no,2021-03-25_12h30.19.874,empathy_intonation_perc,2020.2.10,Win32,60,,,,,,,,,,0,,,,,,,,,,,,,,,,,,,,,,,,,,,,,,,,,,,,,,,,74,cintro,,,0,1,0.692325,0,47,47,73,1,REAL,FAKE,,,,,,,,,,,,,,,,,,,,,
,,,,,,,5c70eafaf6c9fe00013eeafb,605b45a4d25f287719a41696,605cb98c721a4d5d04206d41,United States,Midwest,13 or older,no,2021-03-25_12h30.19.874,empathy_intonation_perc,2020.2.10,Win32,60,,,,,,,,,,0,,,,,,,,,,,,,,,,,,,,,,,,,,,,,,,,,,,,,,,,32,fatacidad,,,0,1,0.62699,0,48,48,31,1,REAL,FAKE,,,,,,,,,,,,,,,,,,,,,
,,,,,,,5c70eafaf6c9fe00013eeafb,605b45a4d25f287719a41696,605cb98c721a4d5d04206d41,United States,Midwest,13 or older,no,2021-03-25_12h30.19.874,empathy_intonation_perc,2020.2.10,Win32,60,,,,,,,,,,0,,,,,,,,,,,,,,,,,,,,,,,,,,,,,,,,,,,,,,,,50,flamida,,,0,1,0.492275,0,49,49,49,1,REAL,FAKE,,,,,,,,,,,,,,,,,,,,,
,,,,,,,5c70eafaf6c9fe00013eeafb,605b45a4d25f287719a41696,605cb98c721a4d5d04206d41,United States,Midwest,13 or older,no,2021-03-25_12h30.19.874,empathy_intonation_perc,2020.2.10,Win32,60,,,,,,,,,,1,,,,,,,,,,,,,,,,,,,,,,,,,,,,,,,,,,,,,,,,76,atar,,,0,0,0.66203,0,50,50,75,1,REAL,FAKE,,,,,,,,,,,,,,,,,,,,,
,,,,,,,5c70eafaf6c9fe00013eeafb,605b45a4d25f287719a41696,605cb98c721a4d5d04206d41,United States,Midwest,13 or older,no,2021-03-25_12h30.19.874,empathy_intonation_perc,2020.2.10,Win32,60,,,,,,,,,,0,,,,,,,,,,,,,,,,,,,,,,,,,,,,,,,,,,,,,,,,72,pemicin,,,0,1,0.89143,0,51,51,71,1,REAL,FAKE,,,,,,,,,,,,,,,,,,,,,
,,,,,,,5c70eafaf6c9fe00013eeafb,605b45a4d25f287719a41696,605cb98c721a4d5d04206d41,United States,Midwest,13 or older,no,2021-03-25_12h30.19.874,empathy_intonation_perc,2020.2.10,Win32,60,,,,,,,,,,0,,,,,,,,,,,,,,,,,,,,,,,,,,,,,,,,,,,,,,,,42,cadallo,,,1,0,0.753595,0,52,52,41,1,REAL,FAKE,,,,,,,,,,,,,,,,,,,,,
,,,,,,,5c70eafaf6c9fe00013eeafb,605b45a4d25f287719a41696,605cb98c721a4d5d04206d41,United States,Midwest,13 or older,no,2021-03-25_12h30.19.874,empathy_intonation_perc,2020.2.10,Win32,60,,,,,,,,,,1,,,,,,,,,,,,,,,,,,,,,,,,,,,,,,,,,,,,,,,,38,estornudar,,,0,0,0.65505,0,53,53,37,1,REAL,FAKE,,,,,,,,,,,,,,,,,,,,,
,,,,,,,5c70eafaf6c9fe00013eeafb,605b45a4d25f287719a41696,605cb98c721a4d5d04206d41,United States,Midwest,13 or older,no,2021-03-25_12h30.19.874,empathy_intonation_perc,2020.2.10,Win32,60,,,,,,,,,,1,,,,,,,,,,,,,,,,,,,,,,,,,,,,,,,,,,,,,,,,67,cabello,,,1,1,0.779965,0,54,54,66,1,REAL,FAKE,,,,,,,,,,,,,,,,,,,,,
,,,,,,,5c70eafaf6c9fe00013eeafb,605b45a4d25f287719a41696,605cb98c721a4d5d04206d41,United States,Midwest,13 or older,no,2021-03-25_12h30.19.874,empathy_intonation_perc,2020.2.10,Win32,60,,,,,,,,,,0,,,,,,,,,,,,,,,,,,,,,,,,,,,,,,,,,,,,,,,,84,escuto,,,0,1,0.777555,0,55,55,83,1,REAL,FAKE,,,,,,,,,,,,,,,,,,,,,
,,,,,,,5c70eafaf6c9fe00013eeafb,605b45a4d25f287719a41696,605cb98c721a4d5d04206d41,United States,Midwest,13 or older,no,2021-03-25_12h30.19.874,empathy_intonation_perc,2020.2.10,Win32,60,,,,,,,,,,1,,,,,,,,,,,,,,,,,,,,,,,,,,,,,,,,,,,,,,,,20,vido,,,1,1,0.96193,0,56,56,19,1,REAL,FAKE,,,,,,,,,,,,,,,,,,,,,
,,,,,,,5c70eafaf6c9fe00013eeafb,605b45a4d25f287719a41696,605cb98c721a4d5d04206d41,United States,Midwest,13 or older,no,2021-03-25_12h30.19.874,empathy_intonation_perc,2020.2.10,Win32,60,,,,,,,,,,1,,,,,,,,,,,,,,,,,,,,,,,,,,,,,,,,,,,,,,,,64,orgulloso,,,0,0,0.55677,0,57,57,63,1,REAL,FAKE,,,,,,,,,,,,,,,,,,,,,
,,,,,,,5c70eafaf6c9fe00013eeafb,605b45a4d25f287719a41696,605cb98c721a4d5d04206d41,United States,Midwest,13 or older,no,2021-03-25_12h30.19.874,empathy_intonation_perc,2020.2.10,Win32,60,,,,,,,,,,1,,,,,,,,,,,,,,,,,,,,,,,,,,,,,,,,,,,,,,,,11,cenefa,,,0,0,0.511695,0,58,58,10,1,REAL,FAKE,,,,,,,,,,,,,,,,,,,,,
,,,,,,,5c70eafaf6c9fe00013eeafb,605b45a4d25f287719a41696,605cb98c721a4d5d04206d41,United States,Midwest,13 or older,no,2021-03-25_12h30.19.874,empathy_intonation_perc,2020.2.10,Win32,60,,,,,,,,,,1,,,,,,,,,,,,,,,,,,,,,,,,,,,,,,,,,,,,,,,,40,alfombra,,,0,0,1.04565,0,59,59,39,1,REAL,FAKE,,,,,,,,,,,,,,,,,,,,,
,,,,,,,5c70eafaf6c9fe00013eeafb,605b45a4d25f287719a41696,605cb98c721a4d5d04206d41,United States,Midwest,13 or older,no,2021-03-25_12h30.19.874,empathy_intonation_perc,2020.2.10,Win32,60,,,,,,,,,,1,,,,,,,,,,,,,,,,,,,,,,,,,,,,,,,,,,,,,,,,2,pellizcar,,,0,0,1.80343,0,60,60,1,1,REAL,FAKE,,,,,,,,,,,,,,,,,,,,,
,,,,,,,5c70eafaf6c9fe00013eeafb,605b45a4d25f287719a41696,605cb98c721a4d5d04206d41,United States,Midwest,13 or older,no,2021-03-25_12h30.19.874,empathy_intonation_perc,2020.2.10,Win32,60,,,,,,,,,,1,,,,,,,,,,,,,,,,,,,,,,,,,,,,,,,,,,,,,,,,24,ltigo,,,0,0,2.007355,0,61,61,23,1,REAL,FAKE,,,,,,,,,,,,,,,,,,,,,
,,,,,,,5c70eafaf6c9fe00013eeafb,605b45a4d25f287719a41696,605cb98c721a4d5d04206d41,United States,Midwest,13 or older,no,2021-03-25_12h30.19.874,empathy_intonation_perc,2020.2.10,Win32,60,,,,,,,,,,1,,,,,,,,,,,,,,,,,,,,,,,,,,,,,,,,,,,,,,,,59,besar,,,0,0,0.687475,0,62,62,58,1,REAL,FAKE,,,,,,,,,,,,,,,,,,,,,
,,,,,,,5c70eafaf6c9fe00013eeafb,605b45a4d25f287719a41696,605cb98c721a4d5d04206d41,United States,Midwest,13 or older,no,2021-03-25_12h30.19.874,empathy_intonation_perc,2020.2.10,Win32,60,,,,,,,,,,1,,,,,,,,,,,,,,,,,,,,,,,,,,,,,,,,,,,,,,,,44,cuchara,,,0,0,0.74366,0,63,63,43,1,REAL,FAKE,,,,,,,,,,,,,,,,,,,,,
,,,,,,,5c70eafaf6c9fe00013eeafb,605b45a4d25f287719a41696,605cb98c721a4d5d04206d41,United States,Midwest,13 or older,no,2021-03-25_12h30.19.874,empathy_intonation_perc,2020.2.10,Win32,60,,,,,,,,,,0,,,,,,,,,,,,,,,,,,,,,,,,,,,,,,,,,,,,,,,,4,batilln,,,1,0,0.874735,0,64,64,3,1,REAL,FAKE,,,,,,,,,,,,,,,,,,,,,
,,,,,,,5c70eafaf6c9fe00013eeafb,605b45a4d25f287719a41696,605cb98c721a4d5d04206d41,United States,Midwest,13 or older,no,2021-03-25_12h30.19.874,empathy_intonation_perc,2020.2.10,Win32,60,,,,,,,,,,1,,,,,,,,,,,,,,,,,,,,,,,,,,,,,,,,,,,,,,,,68,alegre,,,1,1,0.64973,0,65,65,67,1,REAL,FAKE,,,,,,,,,,,,,,,,,,,,,
,,,,,,,5c70eafaf6c9fe00013eeafb,605b45a4d25f287719a41696,605cb98c721a4d5d04206d41,United States,Midwest,13 or older,no,2021-03-25_12h30.19.874,empathy_intonation_perc,2020.2.10,Win32,60,,,,,,,,,,0,,,,,,,,,,,,,,,,,,,,,,,,,,,,,,,,,,,,,,,,8,cadea,,,1,0,0.821085,0,66,66,7,1,REAL,FAKE,,,,,,,,,,,,,,,,,,,,,
,,,,,,,5c70eafaf6c9fe00013eeafb,605b45a4d25f287719a41696,605cb98c721a4d5d04206d41,United States,Midwest,13 or older,no,2021-03-25_12h30.19.874,empathy_intonation_perc,2020.2.10,Win32,60,,,,,,,,,,1,,,,,,,,,,,,,,,,,,,,,,,,,,,,,,,,,,,,,,,,36,loro,,,0,0,0.59035,0,67,67,35,1,REAL,FAKE,,,,,,,,,,,,,,,,,,,,,
,,,,,,,5c70eafaf6c9fe00013eeafb,605b45a4d25f287719a41696,605cb98c721a4d5d04206d41,United States,Midwest,13 or older,no,2021-03-25_12h30.19.874,empathy_intonation_perc,2020.2.10,Win32,60,,,,,,,,,,1,,,,,,,,,,,,,,,,,,,,,,,,,,,,,,,,,,,,,,,,88,acantilado,,,0,0,0.607695,0,68,68,87,1,REAL,FAKE,,,,,,,,,,,,,,,,,,,,,
,,,,,,,5c70eafaf6c9fe00013eeafb,605b45a4d25f287719a41696,605cb98c721a4d5d04206d41,United States,Midwest,13 or older,no,2021-03-25_12h30.19.874,empathy_intonation_perc,2020.2.10,Win32,60,,,,,,,,,,0,,,,,,,,,,,,,,,,,,,,,,,,,,,,,,,,,,,,,,,,17,floroso,,,0,1,0.92943,0,69,69,16,1,REAL,FAKE,,,,,,,,,,,,,,,,,,,,,
,,,,,,,5c70eafaf6c9fe00013eeafb,605b45a4d25f287719a41696,605cb98c721a4d5d04206d41,United States,Midwest,13 or older,no,2021-03-25_12h30.19.874,empathy_intonation_perc,2020.2.10,Win32,60,,,,,,,,,,1,,,,,,,,,,,,,,,,,,,,,,,,,,,,,,,,,,,,,,,,85,lad,,,0,0,2.80329,0,70,70,84,1,REAL,FAKE,,,,,,,,,,,,,,,,,,,,,
,,,,,,,5c70eafaf6c9fe00013eeafb,605b45a4d25f287719a41696,605cb98c721a4d5d04206d41,United States,Midwest,13 or older,no,2021-03-25_12h30.19.874,empathy_intonation_perc,2020.2.10,Win32,60,,,,,,,,,,1,,,,,,,,,,,,,,,,,,,,,,,,,,,,,,,,,,,,,,,,62,flaco,,,0,0,1.73666,0,71,71,61,1,REAL,FAKE,,,,,,,,,,,,,,,,,,,,,
,,,,,,,5c70eafaf6c9fe00013eeafb,605b45a4d25f287719a41696,605cb98c721a4d5d04206d41,United States,Midwest,13 or older,no,2021-03-25_12h30.19.874,empathy_intonation_perc,2020.2.10,Win32,60,,,,,,,,,,0,,,,,,,,,,,,,,,,,,,,,,,,,,,,,,,,,,,,,,,,19,brecedad,,,0,1,1.77094,0,72,72,18,1,REAL,FAKE,,,,,,,,,,,,,,,,,,,,,
,,,,,,,5c70eafaf6c9fe00013eeafb,605b45a4d25f287719a41696,605cb98c721a4d5d04206d41,United States,Midwest,13 or older,no,2021-03-25_12h30.19.874,empathy_intonation_perc,2020.2.10,Win32,60,,,,,,,,,,1,,,,,,,,,,,,,,,,,,,,,,,,,,,,,,,,,,,,,,,,43,canela,,,1,1,1.66794,0,73,73,42,1,REAL,FAKE,,,,,,,,,,,,,,,,,,,,,
,,,,,,,5c70eafaf6c9fe00013eeafb,605b45a4d25f287719a41696,605cb98c721a4d5d04206d41,United States,Midwest,13 or older,no,2021-03-25_12h30.19.874,empathy_intonation_perc,2020.2.10,Win32,60,,,,,,,,,,1,,,,,,,,,,,,,,,,,,,,,,,,,,,,,,,,,,,,,,,,89,prisa,,,0,0,2.30731,0,74,74,88,1,REAL,FAKE,,,,,,,,,,,,,,,,,,,,,
,,,,,,,5c70eafaf6c9fe00013eeafb,605b45a4d25f287719a41696,605cb98c721a4d5d04206d41,United States,Midwest,13 or older,no,2021-03-25_12h30.19.874,empathy_intonation_perc,2020.2.10,Win32,60,,,,,,,,,,0,,,,,,,,,,,,,,,,,,,,,,,,,,,,,,,,,,,,,,,,30,alardio,,,0,1,0.923295,0,75,75,29,1,REAL,FAKE,,,,,,,,,,,,,,,,,,,,,
,,,,,,,5c70eafaf6c9fe00013eeafb,605b45a4d25f287719a41696,605cb98c721a4d5d04206d41,United States,Midwest,13 or older,no,2021-03-25_12h30.19.874,empathy_intonation_perc,2020.2.10,Win32,60,,,,,,,,,,0,,,,,,,,,,,,,,,,,,,,,,,,,,,,,,,,,,,,,,,,33,pauca,,,0,1,0.55746,0,76,76,32,1,REAL,FAKE,,,,,,,,,,,,,,,,,,,,,
,,,,,,,5c70eafaf6c9fe00013eeafb,605b45a4d25f287719a41696,605cb98c721a4d5d04206d41,United States,Midwest,13 or older,no,2021-03-25_12h30.19.874,empathy_intonation_perc,2020.2.10,Win32,60,,,,,,,,,,0,,,,,,,,,,,,,,,,,,,,,,,,,,,,,,,,,,,,,,,,70,temblo,,,1,0,0.482425,0,77,77,69,1,REAL,FAKE,,,,,,,,,,,,,,,,,,,,,
,,,,,,,5c70eafaf6c9fe00013eeafb,605b45a4d25f287719a41696,605cb98c721a4d5d04206d41,United States,Midwest,13 or older,no,2021-03-25_12h30.19.874,empathy_intonation_perc,2020.2.10,Win32,60,,,,,,,,,,0,,,,,,,,,,,,,,,,,,,,,,,,,,,,,,,,,,,,,,,,23,lampera,,,0,1,0.6991,0,78,78,22,1,REAL,FAKE,,,,,,,,,,,,,,,,,,,,,
,,,,,,,5c70eafaf6c9fe00013eeafb,605b45a4d25f287719a41696,605cb98c721a4d5d04206d41,United States,Midwest,13 or older,no,2021-03-25_12h30.19.874,empathy_intonation_perc,2020.2.10,Win32,60,,,,,,,,,,0,,,,,,,,,,,,,,,,,,,,,,,,,,,,,,,,,,,,,,,,27,acutacin,,,0,1,0.826385,0,79,79,26,1,REAL,FAKE,,,,,,,,,,,,,,,,,,,,,
,,,,,,,5c70eafaf6c9fe00013eeafb,605b45a4d25f287719a41696,605cb98c721a4d5d04206d41,United States,Midwest,13 or older,no,2021-03-25_12h30.19.874,empathy_intonation_perc,2020.2.10,Win32,60,,,,,,,,,,1,,,,,,,,,,,,,,,,,,,,,,,,,,,,,,,,,,,,,,,,14,yunque,,,0,0,0.751865,0,80,80,13,1,REAL,FAKE,,,,,,,,,,,,,,,,,,,,,
,,,,,,,5c70eafaf6c9fe00013eeafb,605b45a4d25f287719a41696,605cb98c721a4d5d04206d41,United States,Midwest,13 or older,no,2021-03-25_12h30.19.874,empathy_intonation_perc,2020.2.10,Win32,60,,,,,,,,,,1,,,,,,,,,,,,,,,,,,,,,,,,,,,,,,,,,,,,,,,,48,ladrn,,,1,1,0.833265,0,81,81,47,1,REAL,FAKE,,,,,,,,,,,,,,,,,,,,,
,,,,,,,5c70eafaf6c9fe00013eeafb,605b45a4d25f287719a41696,605cb98c721a4d5d04206d41,United States,Midwest,13 or older,no,2021-03-25_12h30.19.874,empathy_intonation_perc,2020.2.10,Win32,60,,,,,,,,,,1,,,,,,,,,,,,,,,,,,,,,,,,,,,,,,,,,,,,,,,,55,nevar,,,0,0,0.933145,0,82,82,54,1,REAL,FAKE,,,,,,,,,,,,,,,,,,,,,
,,,,,,,5c70eafaf6c9fe00013eeafb,605b45a4d25f287719a41696,605cb98c721a4d5d04206d41,United States,Midwest,13 or older,no,2021-03-25_12h30.19.874,empathy_intonation_perc,2020.2.10,Win32,60,,,,,,,,,,1,,,,,,,,,,,,,,,,,,,,,,,,,,,,,,,,,,,,,,,,81,pozo,,,0,0,0.828075,0,83,83,80,1,REAL,FAKE,,,,,,,,,,,,,,,,,,,,,
,,,,,,,5c70eafaf6c9fe00013eeafb,605b45a4d25f287719a41696,605cb98c721a4d5d04206d41,United States,Midwest,13 or older,no,2021-03-25_12h30.19.874,empathy_intonation_perc,2020.2.10,Win32,60,,,,,,,,,,1,,,,,,,,,,,,,,,,,,,,,,,,,,,,,,,,,,,,,,,,73,hervidor,,,1,1,0.841865,0,84,84,72,1,REAL,FAKE,,,,,,,,,,,,,,,,,,,,,
,,,,,,,5c70eafaf6c9fe00013eeafb,605b45a4d25f287719a41696,605cb98c721a4d5d04206d41,United States,Midwest,13 or older,no,2021-03-25_12h30.19.874,empathy_intonation_perc,2020.2.10,Win32,60,,,,,,,,,,1,,,,,,,,,,,,,,,,,,,,,,,,,,,,,,,,,,,,,,,,34,aviso,,,0,0,0.933265,0,85,85,33,1,REAL,FAKE,,,,,,,,,,,,,,,,,,,,,
,,,,,,,5c70eafaf6c9fe00013eeafb,605b45a4d25f287719a41696,605cb98c721a4d5d04206d41,United States,Midwest,13 or older,no,2021-03-25_12h30.19.874,empathy_intonation_perc,2020.2.10,Win32,60,,,,,,,,,,0,,,,,,,,,,,,,,,,,,,,,,,,,,,,,,,,,,,,,,,,1,terzo,,,0,1,0.458675,0,86,86,0,1,REAL,FAKE,,,,,,,,,,,,,,,,,,,,,
,,,,,,,5c70eafaf6c9fe00013eeafb,605b45a4d25f287719a41696,605cb98c721a4d5d04206d41,United States,Midwest,13 or older,no,2021-03-25_12h30.19.874,empathy_intonation_perc,2020.2.10,Win32,60,,,,,,,,,,1,,,,,,,,,,,,,,,,,,,,,,,,,,,,,,,,,,,,,,,,71,polvoriento,,,0,0,0.741805,0,87,87,70,1,REAL,FAKE,,,,,,,,,,,,,,,,,,,,,
,,,,,,,5c70eafaf6c9fe00013eeafb,605b45a4d25f287719a41696,605cb98c721a4d5d04206d41,United States,Midwest,13 or older,no,2021-03-25_12h30.19.874,empathy_intonation_perc,2020.2.10,Win32,60,,,,,,,,,,1,,,,,,,,,,,,,,,,,,,,,,,,,,,,,,,,,,,,,,,,3,pulmones,,,0,0,0.372505,0,88,88,2,1,REAL,FAKE,,,,,,,,,,,,,,,,,,,,,
,,,,,,,5c70eafaf6c9fe00013eeafb,605b45a4d25f287719a41696,605cb98c721a4d5d04206d41,United States,Midwest,13 or older,no,2021-03-25_12h30.19.874,empathy_intonation_perc,2020.2.10,Win32,60,,,,,,,,,,1,,,,,,,,,,,,,,,,,,,,,,,,,,,,,,,,,,,,,,,,39,torpe,,,0,0,0.993235,0,89,89,38,1,REAL,FAKE,,,,,,,,,,,,,,,,,,,,,
,,,,,,,5c70eafaf6c9fe00013eeafb,605b45a4d25f287719a41696,605cb98c721a4d5d04206d41,United States,Midwest,13 or older,no,2021-03-25_12h30.19.874,empathy_intonation_perc,2020.2.10,Win32,60,,,,,,,,,,,,,,,,,,,,,,,,,,,,,,,,,,,,,,,,,,,,,,,,,,,,,,,,,,,,,,,,4,1,2.35119,1,0,0,0,0,0,1,,,,,,,,,,,
,,,,,,,5c70eafaf6c9fe00013eeafb,605b45a4d25f287719a41696,605cb98c721a4d5d04206d41,United States,Midwest,13 or older,no,2021-03-25_12h30.19.874,empathy_intonation_perc,2020.2.10,Win32,60,,,,,,,,,,,,,,,,,,,,1,,,,,,,,,,,,,,,,,,,,,,,,,,,,,,,,,,,,,,,,,,,,,,,,,,,,,,3,0,0,0,0,1,I can easily tell if someone else wants to enter a conversation.,1,0,1,0
,,,,,,,5c70eafaf6c9fe00013eeafb,605b45a4d25f287719a41696,605cb98c721a4d5d04206d41,United States,Midwest,13 or older,no,2021-03-25_12h30.19.874,empathy_intonation_perc,2020.2.10,Win32,60,,,,,,,,,,,,,,,,,,,,2,,,,,,,,,,,,,,,,,,,,,,,,,,,,,,,,,,,,,,,,,,,,,,,,,,,,,,1,0,1,1,1,1,I prefer animals to humans.,0,1,0,0
,,,,,,,5c70eafaf6c9fe00013eeafb,605b45a4d25f287719a41696,605cb98c721a4d5d04206d41,United States,Midwest,13 or older,no,2021-03-25_12h30.19.874,empathy_intonation_perc,2020.2.10,Win32,60,,,,,,,,,,,,,,,,,,,,3,,,,,,,,,,,,,,,,,,,,,,,,,,,,,,,,,,,,,,,,,,,,,,,,,,,,,,4,0,2,2,2,1,I try to keep up with the current trends and fashions.,0,1,0,0
,,,,,,,5c70eafaf6c9fe00013eeafb,605b45a4d25f287719a41696,605cb98c721a4d5d04206d41,United States,Midwest,13 or older,no,2021-03-25_12h30.19.874,empathy_intonation_perc,2020.2.10,Win32,60,,,,,,,,,,,,,,,,,,,,4,,,,,,,,,,,,,,,,,,,,,,,,,,,,,,,,,,,,,,,,,,,,,,,,,,,,,,3,0,3,3,3,1,"I find it difficult to explain to others things that I understand easily, 
  when they dont understand it first time.",1,0,0,1
,,,,,,,5c70eafaf6c9fe00013eeafb,605b45a4d25f287719a41696,605cb98c721a4d5d04206d41,United States,Midwest,13 or older,no,2021-03-25_12h30.19.874,empathy_intonation_perc,2020.2.10,Win32,60,,,,,,,,,,,,,,,,,,,,5,,,,,,,,,,,,,,,,,,,,,,,,,,,,,,,,,,,,,,,,,,,,,,,,,,,,,,3,0,4,4,4,1,I dream most nights.,0,1,0,0
