instructions_2afc_loop.thisRepN,instructions_2afc_loop.thisTrialN,instructions_2afc_loop.thisN,instructions_2afc_loop.thisIndex,instructions_2afc_loop.ran,instructions_text,continue_text,participant,study_id,session,I am most familiar with Spanish from...*,What part of the US are you from?*,At what age did you begin learning Spanish?*,Are you proficient in any languages other than English/Spanish?*,date,expName,psychopyVersion,OS,frameRate,key_resp_2afc_practice.keys,key_resp_2afc_practice.corr,key_resp_2afc_practice.rt,trials_2afc_practice_loop.thisRepN,trials_2afc_practice_loop.thisTrialN,trials_2afc_practice_loop.thisN,trials_2afc_practice_loop.thisIndex,trials_2afc_practice_loop.ran,path,correct_response,the_col,key_resp_2afc_trial.keys,key_resp_2afc_trial.corr,key_resp_2afc_trial.rt,trials_2afc_loop.thisRepN,trials_2afc_loop.thisTrialN,trials_2afc_loop.thisN,trials_2afc_loop.thisIndex,trials_2afc_loop.ran,item_num,andalusian,argentine,castilian,chilean,cuban,mexican,peruvian,puertorican,key_resp_ac1.keys,key_resp_ac1.corr,key_resp_ac1.rt,ac1_loop.thisRepN,ac1_loop.thisTrialN,ac1_loop.thisN,ac1_loop.thisIndex,ac1_loop.ran,instructions_lextale_loop.thisRepN,instructions_lextale_loop.thisTrialN,instructions_lextale_loop.thisN,instructions_lextale_loop.thisIndex,instructions_lextale_loop.ran,key_resp_lextale_practice.keys,key_resp_lextale_practice.corr,key_resp_lextale_practice.rt,trials_lextale_practice_loop.thisRepN,trials_lextale_practice_loop.thisTrialN,trials_lextale_practice_loop.thisN,trials_lextale_practice_loop.thisIndex,trials_lextale_practice_loop.ran,stim,word,prac_button_real,prac_button_false,key_resp_lextale_trial.keys,key_resp_lextale_trial.corr,key_resp_lextale_trial.rt,trials_lextale_loop.thisRepN,trials_lextale_loop.thisTrialN,trials_lextale_loop.thisN,trials_lextale_loop.thisIndex,trials_lextale_loop.ran,button_real,button_false,key_resp_ac2.keys,key_resp_ac2.corr,key_resp_ac2.rt,check_pass,check_fails,ac2_loop.thisRepN,ac2_loop.thisTrialN,ac2_loop.thisN,ac2_loop.thisIndex,ac2_loop.ran,slider_eq_trial.response,trials_eq_loop.thisRepN,trials_eq_loop.thisTrialN,trials_eq_loop.thisN,trials_eq_loop.thisIndex,trials_eq_loop.ran,item,is_test_item,is_distractor,is_agree_score,is_disagree_score
0,0,0,0,1,"In the following task you are going to hear a series of utterances. 

  You will decide if the utterances sound like questions or not using your keyboard.",(press the spacebar to continue),5cdf215da7b516001828bdda,605b45a4d25f287719a41696,6061efcd196f3a90e612bd39,Spain,Northeast,13 or older,yes,2021-03-29_11h19.11.196,empathy_intonation_perc,2020.2.10,MacIntel,60,,,,,,,,,,,,,,,,,,,,,,,,,,,,,,,,,,,,,,,,,,,,,,,,,,,,,,,,,,,,,,,,,,,,,,,,,,,,,,,,,,,,
0,1,1,1,1,"If you believe the utterance is a question, type '1' (for 'yes') and if you do not 
  believe it is a question type '0' (for 'no').

  Let's practice a bit...",(press the spacebar to continue),5cdf215da7b516001828bdda,605b45a4d25f287719a41696,6061efcd196f3a90e612bd39,Spain,Northeast,13 or older,yes,2021-03-29_11h19.11.196,empathy_intonation_perc,2020.2.10,MacIntel,60,,,,,,,,,,,,,,,,,,,,,,,,,,,,,,,,,,,,,,,,,,,,,,,,,,,,,,,,,,,,,,,,,,,,,,,,,,,,,,,,,,,,
,,,,,,,5cdf215da7b516001828bdda,605b45a4d25f287719a41696,6061efcd196f3a90e612bd39,Spain,Northeast,13 or older,yes,2021-03-29_11h19.11.196,empathy_intonation_perc,2020.2.10,MacIntel,60,0,1,1.899845,0,0,0,4,1,./stim/wavs/cuban_statement_filler_Cocinabas-por-la-noche.wav,0,,,,,,,,,,,,,,,,,,,,,,,,,,,,,,,,,,,,,,,,,,,,,,,,,,,,,,,,,,,,,,,,,,,,,,,,,,
,,,,,,,5cdf215da7b516001828bdda,605b45a4d25f287719a41696,6061efcd196f3a90e612bd39,Spain,Northeast,13 or older,yes,2021-03-29_11h19.11.196,empathy_intonation_perc,2020.2.10,MacIntel,60,0,1,1.88534,0,1,1,7,1,./stim/wavs/puertorican_statement_filler_La-nina-pinta-con-su-amiga.wav,0,,,,,,,,,,,,,,,,,,,,,,,,,,,,,,,,,,,,,,,,,,,,,,,,,,,,,,,,,,,,,,,,,,,,,,,,,,
,,,,,,,5cdf215da7b516001828bdda,605b45a4d25f287719a41696,6061efcd196f3a90e612bd39,Spain,Northeast,13 or older,yes,2021-03-29_11h19.11.196,empathy_intonation_perc,2020.2.10,MacIntel,60,1,1,1.935785,0,2,2,3,1,./stim/wavs/mexican_question_filler_Felipe-no-tiene-contrasena.wav,1,,,,,,,,,,,,,,,,,,,,,,,,,,,,,,,,,,,,,,,,,,,,,,,,,,,,,,,,,,,,,,,,,,,,,,,,,,
,,,,,,,5cdf215da7b516001828bdda,605b45a4d25f287719a41696,6061efcd196f3a90e612bd39,Spain,Northeast,13 or older,yes,2021-03-29_11h19.11.196,empathy_intonation_perc,2020.2.10,MacIntel,60,1,1,1.57805,0,3,3,1,1,./stim/wavs/argentine_question_filler_Mi-vecino-habla-mucho.wav,1,,,,,,,,,,,,,,,,,,,,,,,,,,,,,,,,,,,,,,,,,,,,,,,,,,,,,,,,,,,,,,,,,,,,,,,,,,
,,,,,,,5cdf215da7b516001828bdda,605b45a4d25f287719a41696,6061efcd196f3a90e612bd39,Spain,Northeast,13 or older,yes,2021-03-29_11h19.11.196,empathy_intonation_perc,2020.2.10,MacIntel,60,0,0,1.854195,0,4,4,2,1,./stim/wavs/chilean_question_filler_Mi-padre-cantaba-bien.wav,1,,,,,,,,,,,,,,,,,,,,,,,,,,,,,,,,,,,,,,,,,,,,,,,,,,,,,,,,,,,,,,,,,,,,,,,,,,
,,,,,,,5cdf215da7b516001828bdda,605b45a4d25f287719a41696,6061efcd196f3a90e612bd39,Spain,Northeast,13 or older,yes,2021-03-29_11h19.11.196,empathy_intonation_perc,2020.2.10,MacIntel,60,0,1,1.87242,0,5,5,5,1,./stim/wavs/andalusian_statement_filler_Alberto-nunca-se-afeita.wav,0,,,,,,,,,,,,,,,,,,,,,,,,,,,,,,,,,,,,,,,,,,,,,,,,,,,,,,,,,,,,,,,,,,,,,,,,,,
,,,,,,,5cdf215da7b516001828bdda,605b45a4d25f287719a41696,6061efcd196f3a90e612bd39,Spain,Northeast,13 or older,yes,2021-03-29_11h19.11.196,empathy_intonation_perc,2020.2.10,MacIntel,60,1,1,2.05325,0,6,6,0,1,./stim/wavs/castilian_question_filler_Mi-esposo-conoce-al-chico.wav,1,,,,,,,,,,,,,,,,,,,,,,,,,,,,,,,,,,,,,,,,,,,,,,,,,,,,,,,,,,,,,,,,,,,,,,,,,,
,,,,,,,5cdf215da7b516001828bdda,605b45a4d25f287719a41696,6061efcd196f3a90e612bd39,Spain,Northeast,13 or older,yes,2021-03-29_11h19.11.196,empathy_intonation_perc,2020.2.10,MacIntel,60,0,1,2.46891,0,7,7,6,1,./stim/wavs/peruvian_statement_filler_El-nino-habla-con-su-madre.wav,0,,,,,,,,,,,,,,,,,,,,,,,,,,,,,,,,,,,,,,,,,,,,,,,,,,,,,,,,,,,,,,,,,,,,,,,,,,
,,,,,,,5cdf215da7b516001828bdda,605b45a4d25f287719a41696,6061efcd196f3a90e612bd39,Spain,Northeast,13 or older,yes,2021-03-29_11h19.11.196,empathy_intonation_perc,2020.2.10,MacIntel,60,,,,,,,,,,1,argentine,0,0,1.936525,0,0,0,26,1,27,./stim/wavs/andalusian_match_interrogative-total-yn_David-leia-el-libro.wav,./stim/wavs/argentine_match_interrogative-total-yn_David-leia-el-libro.wav,./stim/wavs/castilian_match_interrogative-total-yn_David-leia-el-libro.wav,./stim/wavs/chilean_match_interrogative-total-yn_David-leia-el-libro.wav,./stim/wavs/cuban_match_interrogative-total-yn_David-leia-el-libro.wav,./stim/wavs/mexican_match_interrogative-total-yn_David-leia-el-libro.wav,./stim/wavs/peruvian_match_interrogative-total-yn_David-leia-el-libro.wav,./stim/wavs/puertorican_match_interrogative-total-yn_David-leia-el-libro.wav,,,,,,,,,,,,,,,,,,,,,,,,,,,,,,,,,,,,,,,,,,,,,,,,,,,,,,,,
,,,,,,,5cdf215da7b516001828bdda,605b45a4d25f287719a41696,6061efcd196f3a90e612bd39,Spain,Northeast,13 or older,yes,2021-03-29_11h19.11.196,empathy_intonation_perc,2020.2.10,MacIntel,60,,,,,,,,,,0,mexican,0,1,1.685665,0,1,1,6,1,7,./stim/wavs/andalusian_match_declarative-broad-focus_Mariano-habla-del-tiempo.wav,./stim/wavs/argentine_match_declarative-broad-focus_Mariano-habla-del-tiempo.wav,./stim/wavs/castilian_match_declarative-broad-focus_Mariano-habla-del-tiempo.wav,./stim/wavs/chilean_match_declarative-broad-focus_Mariano-habla-del-tiempo.wav,./stim/wavs/cuban_match_declarative-broad-focus_Mariano-habla-del-tiempo.wav,./stim/wavs/mexican_match_declarative-broad-focus_Mariano-habla-del-tiempo.wav,./stim/wavs/peruvian_match_declarative-broad-focus_Mariano-habla-del-tiempo.wav,./stim/wavs/puertorican_match_declarative-broad-focus_Mariano-habla-del-tiempo.wav,,,,,,,,,,,,,,,,,,,,,,,,,,,,,,,,,,,,,,,,,,,,,,,,,,,,,,,,
,,,,,,,5cdf215da7b516001828bdda,605b45a4d25f287719a41696,6061efcd196f3a90e612bd39,Spain,Northeast,13 or older,yes,2021-03-29_11h19.11.196,empathy_intonation_perc,2020.2.10,MacIntel,60,,,,,,,,,,0,chilean,0,1,1.51805,0,2,2,15,1,16,./stim/wavs/andalusian_match_declarative-narrow-focus_Marta-abre-el-regalo.wav,./stim/wavs/argentine_match_declarative-narrow-focus_Marta-abre-el-regalo.wav,./stim/wavs/castilian_match_declarative-narrow-focus_Marta-abre-el-regalo.wav,./stim/wavs/chilean_match_declarative-narrow-focus_Marta-abre-el-regalo.wav,./stim/wavs/cuban_match_declarative-narrow-focus_Marta-abre-el-regalo.wav,./stim/wavs/mexican_match_declarative-narrow-focus_Marta-abre-el-regalo.wav,./stim/wavs/peruvian_match_declarative-narrow-focus_Marta-abre-el-regalo.wav,./stim/wavs/puertorican_match_declarative-narrow-focus_Marta-abre-el-regalo.wav,,,,,,,,,,,,,,,,,,,,,,,,,,,,,,,,,,,,,,,,,,,,,,,,,,,,,,,,
,,,,,,,5cdf215da7b516001828bdda,605b45a4d25f287719a41696,6061efcd196f3a90e612bd39,Spain,Northeast,13 or older,yes,2021-03-29_11h19.11.196,empathy_intonation_perc,2020.2.10,MacIntel,60,,,,,,,,,,1,puertorican,0,0,1.400845,0,3,3,24,1,25,./stim/wavs/andalusian_match_interrogative-total-yn_Ana-lleva-el-abrigo.wav,./stim/wavs/argentine_match_interrogative-total-yn_Ana-lleva-el-abrigo.wav,./stim/wavs/castilian_match_interrogative-total-yn_Ana-lleva-el-abrigo.wav,./stim/wavs/chilean_match_interrogative-total-yn_Ana-lleva-el-abrigo.wav,./stim/wavs/cuban_match_interrogative-total-yn_Ana-lleva-el-abrigo.wav,./stim/wavs/mexican_match_interrogative-total-yn_Ana-lleva-el-abrigo.wav,./stim/wavs/peruvian_match_interrogative-total-yn_Ana-lleva-el-abrigo.wav,./stim/wavs/puertorican_match_interrogative-total-yn_Ana-lleva-el-abrigo.wav,,,,,,,,,,,,,,,,,,,,,,,,,,,,,,,,,,,,,,,,,,,,,,,,,,,,,,,,
,,,,,,,5cdf215da7b516001828bdda,605b45a4d25f287719a41696,6061efcd196f3a90e612bd39,Spain,Northeast,13 or older,yes,2021-03-29_11h19.11.196,empathy_intonation_perc,2020.2.10,MacIntel,60,,,,,,,,,,0,andalusian,0,1,1.88598,0,4,4,35,1,36,./stim/wavs/andalusian_mismatch_declarative-broad-focus_La-maestra-vive-en-Paris.wav,./stim/wavs/argentine_mismatch_declarative-broad-focus_La-maestra-vive-en-Paris.wav,./stim/wavs/castilian_mismatch_declarative-broad-focus_La-maestra-vive-en-Paris.wav,./stim/wavs/chilean_mismatch_declarative-broad-focus_La-maestra-vive-en-Paris.wav,./stim/wavs/cuban_mismatch_declarative-broad-focus_La-maestra-vive-en-Paris.wav,./stim/wavs/mexican_mismatch_declarative-broad-focus_La-maestra-vive-en-Paris.wav,./stim/wavs/peruvian_mismatch_declarative-broad-focus_La-maestra-vive-en-Paris.wav,./stim/wavs/puertorican_mismatch_declarative-broad-focus_La-maestra-vive-en-Paris.wav,,,,,,,,,,,,,,,,,,,,,,,,,,,,,,,,,,,,,,,,,,,,,,,,,,,,,,,,
,,,,,,,5cdf215da7b516001828bdda,605b45a4d25f287719a41696,6061efcd196f3a90e612bd39,Spain,Northeast,13 or older,yes,2021-03-29_11h19.11.196,empathy_intonation_perc,2020.2.10,MacIntel,60,,,,,,,,,,1,puertorican,0,0,1.670425,0,5,5,49,1,50,./stim/wavs/andalusian_mismatch_interrogative-partial-wh_Cuando-lavaba-el-plato.wav,./stim/wavs/argentine_mismatch_interrogative-partial-wh_Cuando-lavaba-el-plato.wav,./stim/wavs/castilian_mismatch_interrogative-partial-wh_Cuando-lavaba-el-plato.wav,./stim/wavs/chilean_mismatch_interrogative-partial-wh_Cuando-lavaba-el-plato.wav,./stim/wavs/cuban_mismatch_interrogative-partial-wh_Cuando-lavaba-el-plato.wav,./stim/wavs/mexican_mismatch_interrogative-partial-wh_Cuando-lavaba-el-plato.wav,./stim/wavs/peruvian_mismatch_interrogative-partial-wh_Cuando-lavaba-el-plato.wav,./stim/wavs/puertorican_mismatch_interrogative-partial-wh_Cuando-lavaba-el-plato.wav,,,,,,,,,,,,,,,,,,,,,,,,,,,,,,,,,,,,,,,,,,,,,,,,,,,,,,,,
,,,,,,,5cdf215da7b516001828bdda,605b45a4d25f287719a41696,6061efcd196f3a90e612bd39,Spain,Northeast,13 or older,yes,2021-03-29_11h19.11.196,empathy_intonation_perc,2020.2.10,MacIntel,60,,,,,,,,,,1,andalusian,0,0,2.023445,0,6,6,17,1,18,./stim/wavs/andalusian_match_interrogative-partial-wh_Cuando-leia-el-libro.wav,./stim/wavs/argentine_match_interrogative-partial-wh_Cuando-leia-el-libro.wav,./stim/wavs/castilian_match_interrogative-partial-wh_Cuando-leia-el-libro.wav,./stim/wavs/chilean_match_interrogative-partial-wh_Cuando-leia-el-libro.wav,./stim/wavs/cuban_match_interrogative-partial-wh_Cuando-leia-el-libro.wav,./stim/wavs/mexican_match_interrogative-partial-wh_Cuando-leia-el-libro.wav,./stim/wavs/peruvian_match_interrogative-partial-wh_Cuando-leia-el-libro.wav,./stim/wavs/puertorican_match_interrogative-partial-wh_Cuando-leia-el-libro.wav,,,,,,,,,,,,,,,,,,,,,,,,,,,,,,,,,,,,,,,,,,,,,,,,,,,,,,,,
,,,,,,,5cdf215da7b516001828bdda,605b45a4d25f287719a41696,6061efcd196f3a90e612bd39,Spain,Northeast,13 or older,yes,2021-03-29_11h19.11.196,empathy_intonation_perc,2020.2.10,MacIntel,60,,,,,,,,,,0,castilian,0,1,2.05117,0,7,7,2,1,3,./stim/wavs/andalusian_match_declarative-broad-focus_David-leia-el-libro.wav,./stim/wavs/argentine_match_declarative-broad-focus_David-leia-el-libro.wav,./stim/wavs/castilian_match_declarative-broad-focus_David-leia-el-libro.wav,./stim/wavs/chilean_match_declarative-broad-focus_David-leia-el-libro.wav,./stim/wavs/cuban_match_declarative-broad-focus_David-leia-el-libro.wav,./stim/wavs/mexican_match_declarative-broad-focus_David-leia-el-libro.wav,./stim/wavs/peruvian_match_declarative-broad-focus_David-leia-el-libro.wav,./stim/wavs/puertorican_match_declarative-broad-focus_David-leia-el-libro.wav,,,,,,,,,,,,,,,,,,,,,,,,,,,,,,,,,,,,,,,,,,,,,,,,,,,,,,,,
,,,,,,,5cdf215da7b516001828bdda,605b45a4d25f287719a41696,6061efcd196f3a90e612bd39,Spain,Northeast,13 or older,yes,2021-03-29_11h19.11.196,empathy_intonation_perc,2020.2.10,MacIntel,60,,,,,,,,,,1,argentine,1,1,1.834655,0,8,8,59,1,60,./stim/wavs/andalusian_mismatch_interrogative-total-yn_La-maestra-vive-en-Paris.wav,./stim/wavs/argentine_mismatch_interrogative-total-yn_La-maestra-vive-en-Paris.wav,./stim/wavs/castilian_mismatch_interrogative-total-yn_La-maestra-vive-en-Paris.wav,./stim/wavs/chilean_mismatch_interrogative-total-yn_La-maestra-vive-en-Paris.wav,./stim/wavs/cuban_mismatch_interrogative-total-yn_La-maestra-vive-en-Paris.wav,./stim/wavs/mexican_mismatch_interrogative-total-yn_La-maestra-vive-en-Paris.wav,./stim/wavs/peruvian_mismatch_interrogative-total-yn_La-maestra-vive-en-Paris.wav,./stim/wavs/puertorican_mismatch_interrogative-total-yn_La-maestra-vive-en-Paris.wav,,,,,,,,,,,,,,,,,,,,,,,,,,,,,,,,,,,,,,,,,,,,,,,,,,,,,,,,
,,,,,,,5cdf215da7b516001828bdda,605b45a4d25f287719a41696,6061efcd196f3a90e612bd39,Spain,Northeast,13 or older,yes,2021-03-29_11h19.11.196,empathy_intonation_perc,2020.2.10,MacIntel,60,,,,,,,,,,1,argentine,1,1,1.520405,0,9,9,20,1,21,./stim/wavs/andalusian_match_interrogative-partial-wh_Por-que-abre-el-regalo.wav,./stim/wavs/argentine_match_interrogative-partial-wh_Por-que-abre-el-regalo.wav,./stim/wavs/castilian_match_interrogative-partial-wh_Por-que-abre-el-regalo.wav,./stim/wavs/chilean_match_interrogative-partial-wh_Por-que-abre-el-regalo.wav,./stim/wavs/cuban_match_interrogative-partial-wh_Por-que-abre-el-regalo.wav,./stim/wavs/mexican_match_interrogative-partial-wh_Por-que-abre-el-regalo.wav,./stim/wavs/peruvian_match_interrogative-partial-wh_Por-que-abre-el-regalo.wav,./stim/wavs/puertorican_match_interrogative-partial-wh_Por-que-abre-el-regalo.wav,,,,,,,,,,,,,,,,,,,,,,,,,,,,,,,,,,,,,,,,,,,,,,,,,,,,,,,,
,,,,,,,5cdf215da7b516001828bdda,605b45a4d25f287719a41696,6061efcd196f3a90e612bd39,Spain,Northeast,13 or older,yes,2021-03-29_11h19.11.196,empathy_intonation_perc,2020.2.10,MacIntel,60,,,,,,,,,,0,puertorican,0,1,1.87031,0,10,10,44,1,45,./stim/wavs/andalusian_mismatch_declarative-narrow-focus_La-nina-lava-el-plato.wav,./stim/wavs/argentine_mismatch_declarative-narrow-focus_La-nina-lava-el-plato.wav,./stim/wavs/castilian_mismatch_declarative-narrow-focus_La-nina-lava-el-plato.wav,./stim/wavs/chilean_mismatch_declarative-narrow-focus_La-nina-lava-el-plato.wav,./stim/wavs/cuban_mismatch_declarative-narrow-focus_La-nina-lava-el-plato.wav,./stim/wavs/mexican_mismatch_declarative-narrow-focus_La-nina-lava-el-plato.wav,./stim/wavs/peruvian_mismatch_declarative-narrow-focus_La-nina-lava-el-plato.wav,./stim/wavs/puertorican_mismatch_declarative-narrow-focus_La-nina-lava-el-plato.wav,,,,,,,,,,,,,,,,,,,,,,,,,,,,,,,,,,,,,,,,,,,,,,,,,,,,,,,,
,,,,,,,5cdf215da7b516001828bdda,605b45a4d25f287719a41696,6061efcd196f3a90e612bd39,Spain,Northeast,13 or older,yes,2021-03-29_11h19.11.196,empathy_intonation_perc,2020.2.10,MacIntel,60,,,,,,,,,,1,puertorican,1,1,1.70911,0,11,11,30,1,31,./stim/wavs/andalusian_match_interrogative-total-yn_Mariano-habla-del-tiempo.wav,./stim/wavs/argentine_match_interrogative-total-yn_Mariano-habla-del-tiempo.wav,./stim/wavs/castilian_match_interrogative-total-yn_Mariano-habla-del-tiempo.wav,./stim/wavs/chilean_match_interrogative-total-yn_Mariano-habla-del-tiempo.wav,./stim/wavs/cuban_match_interrogative-total-yn_Mariano-habla-del-tiempo.wav,./stim/wavs/mexican_match_interrogative-total-yn_Mariano-habla-del-tiempo.wav,./stim/wavs/peruvian_match_interrogative-total-yn_Mariano-habla-del-tiempo.wav,./stim/wavs/puertorican_match_interrogative-total-yn_Mariano-habla-del-tiempo.wav,,,,,,,,,,,,,,,,,,,,,,,,,,,,,,,,,,,,,,,,,,,,,,,,,,,,,,,,
,,,,,,,5cdf215da7b516001828bdda,605b45a4d25f287719a41696,6061efcd196f3a90e612bd39,Spain,Northeast,13 or older,yes,2021-03-29_11h19.11.196,empathy_intonation_perc,2020.2.10,MacIntel,60,,,,,,,,,,1,peruvian,0,0,4.202155,0,12,12,51,1,52,./stim/wavs/andalusian_mismatch_interrogative-partial-wh_Por-que-desayuna-muy-bien.wav,./stim/wavs/argentine_mismatch_interrogative-partial-wh_Por-que-desayuna-muy-bien.wav,./stim/wavs/castilian_mismatch_interrogative-partial-wh_Por-que-desayuna-muy-bien.wav,./stim/wavs/chilean_mismatch_interrogative-partial-wh_Por-que-desayuna-muy-bien.wav,./stim/wavs/cuban_mismatch_interrogative-partial-wh_Por-que-desayuna-muy-bien.wav,./stim/wavs/mexican_mismatch_interrogative-partial-wh_Por-que-desayuna-muy-bien.wav,./stim/wavs/peruvian_mismatch_interrogative-partial-wh_Por-que-desayuna-muy-bien.wav,./stim/wavs/puertorican_mismatch_interrogative-partial-wh_Por-que-desayuna-muy-bien.wav,,,,,,,,,,,,,,,,,,,,,,,,,,,,,,,,,,,,,,,,,,,,,,,,,,,,,,,,
,,,,,,,5cdf215da7b516001828bdda,605b45a4d25f287719a41696,6061efcd196f3a90e612bd39,Spain,Northeast,13 or older,yes,2021-03-29_11h19.11.196,empathy_intonation_perc,2020.2.10,MacIntel,60,,,,,,,,,,0,puertorican,0,1,1.535685,0,13,13,9,1,10,./stim/wavs/andalusian_match_declarative-narrow-focus_Daniel-iba-a-Bolivia.wav,./stim/wavs/argentine_match_declarative-narrow-focus_Daniel-iba-a-Bolivia.wav,./stim/wavs/castilian_match_declarative-narrow-focus_Daniel-iba-a-Bolivia.wav,./stim/wavs/chilean_match_declarative-narrow-focus_Daniel-iba-a-Bolivia.wav,./stim/wavs/cuban_match_declarative-narrow-focus_Daniel-iba-a-Bolivia.wav,./stim/wavs/mexican_match_declarative-narrow-focus_Daniel-iba-a-Bolivia.wav,./stim/wavs/peruvian_match_declarative-narrow-focus_Daniel-iba-a-Bolivia.wav,./stim/wavs/puertorican_match_declarative-narrow-focus_Daniel-iba-a-Bolivia.wav,,,,,,,,,,,,,,,,,,,,,,,,,,,,,,,,,,,,,,,,,,,,,,,,,,,,,,,,
,,,,,,,5cdf215da7b516001828bdda,605b45a4d25f287719a41696,6061efcd196f3a90e612bd39,Spain,Northeast,13 or older,yes,2021-03-29_11h19.11.196,empathy_intonation_perc,2020.2.10,MacIntel,60,,,,,,,,,,0,chilean,0,1,1.834195,0,14,14,3,1,4,./stim/wavs/andalusian_match_declarative-broad-focus_Emilio-ama-la-marcha.wav,./stim/wavs/argentine_match_declarative-broad-focus_Emilio-ama-la-marcha.wav,./stim/wavs/castilian_match_declarative-broad-focus_Emilio-ama-la-marcha.wav,./stim/wavs/chilean_match_declarative-broad-focus_Emilio-ama-la-marcha.wav,./stim/wavs/cuban_match_declarative-broad-focus_Emilio-ama-la-marcha.wav,./stim/wavs/mexican_match_declarative-broad-focus_Emilio-ama-la-marcha.wav,./stim/wavs/peruvian_match_declarative-broad-focus_Emilio-ama-la-marcha.wav,./stim/wavs/puertorican_match_declarative-broad-focus_Emilio-ama-la-marcha.wav,,,,,,,,,,,,,,,,,,,,,,,,,,,,,,,,,,,,,,,,,,,,,,,,,,,,,,,,
,,,,,,,5cdf215da7b516001828bdda,605b45a4d25f287719a41696,6061efcd196f3a90e612bd39,Spain,Northeast,13 or older,yes,2021-03-29_11h19.11.196,empathy_intonation_perc,2020.2.10,MacIntel,60,,,,,,,,,,1,chilean,1,1,1.56641,0,15,15,21,1,22,./stim/wavs/andalusian_match_interrogative-partial-wh_Por-que-ama-la-navidad.wav,./stim/wavs/argentine_match_interrogative-partial-wh_Por-que-ama-la-navidad.wav,./stim/wavs/castilian_match_interrogative-partial-wh_Por-que-ama-la-navidad.wav,./stim/wavs/chilean_match_interrogative-partial-wh_Por-que-ama-la-navidad.wav,./stim/wavs/cuban_match_interrogative-partial-wh_Por-que-ama-la-navidad.wav,./stim/wavs/mexican_match_interrogative-partial-wh_Por-que-ama-la-navidad.wav,./stim/wavs/peruvian_match_interrogative-partial-wh_Por-que-ama-la-navidad.wav,./stim/wavs/puertorican_match_interrogative-partial-wh_Por-que-ama-la-navidad.wav,,,,,,,,,,,,,,,,,,,,,,,,,,,,,,,,,,,,,,,,,,,,,,,,,,,,,,,,
,,,,,,,5cdf215da7b516001828bdda,605b45a4d25f287719a41696,6061efcd196f3a90e612bd39,Spain,Northeast,13 or older,yes,2021-03-29_11h19.11.196,empathy_intonation_perc,2020.2.10,MacIntel,60,,,,,,,,,,1,chilean,1,1,1.469665,0,16,16,16,1,17,./stim/wavs/andalusian_match_interrogative-partial-wh_Cuando-bebia-el-vino.wav,./stim/wavs/argentine_match_interrogative-partial-wh_Cuando-bebia-el-vino.wav,./stim/wavs/castilian_match_interrogative-partial-wh_Cuando-bebia-el-vino.wav,./stim/wavs/chilean_match_interrogative-partial-wh_Cuando-bebia-el-vino.wav,./stim/wavs/cuban_match_interrogative-partial-wh_Cuando-bebia-el-vino.wav,./stim/wavs/mexican_match_interrogative-partial-wh_Cuando-bebia-el-vino.wav,./stim/wavs/peruvian_match_interrogative-partial-wh_Cuando-bebia-el-vino.wav,./stim/wavs/puertorican_match_interrogative-partial-wh_Cuando-bebia-el-vino.wav,,,,,,,,,,,,,,,,,,,,,,,,,,,,,,,,,,,,,,,,,,,,,,,,,,,,,,,,
,,,,,,,5cdf215da7b516001828bdda,605b45a4d25f287719a41696,6061efcd196f3a90e612bd39,Spain,Northeast,13 or older,yes,2021-03-29_11h19.11.196,empathy_intonation_perc,2020.2.10,MacIntel,60,,,,,,,,,,1,peruvian,1,1,1.7172,0,17,17,60,1,61,./stim/wavs/andalusian_mismatch_interrogative-total-yn_La-nina-lava-el-plato.wav,./stim/wavs/argentine_mismatch_interrogative-total-yn_La-nina-lava-el-plato.wav,./stim/wavs/castilian_mismatch_interrogative-total-yn_La-nina-lava-el-plato.wav,./stim/wavs/chilean_mismatch_interrogative-total-yn_La-nina-lava-el-plato.wav,./stim/wavs/cuban_mismatch_interrogative-total-yn_La-nina-lava-el-plato.wav,./stim/wavs/mexican_mismatch_interrogative-total-yn_La-nina-lava-el-plato.wav,./stim/wavs/peruvian_mismatch_interrogative-total-yn_La-nina-lava-el-plato.wav,./stim/wavs/puertorican_mismatch_interrogative-total-yn_La-nina-lava-el-plato.wav,,,,,,,,,,,,,,,,,,,,,,,,,,,,,,,,,,,,,,,,,,,,,,,,,,,,,,,,
,,,,,,,5cdf215da7b516001828bdda,605b45a4d25f287719a41696,6061efcd196f3a90e612bd39,Spain,Northeast,13 or older,yes,2021-03-29_11h19.11.196,empathy_intonation_perc,2020.2.10,MacIntel,60,,,,,,,,,,0,castilian,0,1,1.83413,0,18,18,7,1,8,./stim/wavs/andalusian_match_declarative-broad-focus_Marta-abre-el-regalo.wav,./stim/wavs/argentine_match_declarative-broad-focus_Marta-abre-el-regalo.wav,./stim/wavs/castilian_match_declarative-broad-focus_Marta-abre-el-regalo.wav,./stim/wavs/chilean_match_declarative-broad-focus_Marta-abre-el-regalo.wav,./stim/wavs/cuban_match_declarative-broad-focus_Marta-abre-el-regalo.wav,./stim/wavs/mexican_match_declarative-broad-focus_Marta-abre-el-regalo.wav,./stim/wavs/peruvian_match_declarative-broad-focus_Marta-abre-el-regalo.wav,./stim/wavs/puertorican_match_declarative-broad-focus_Marta-abre-el-regalo.wav,,,,,,,,,,,,,,,,,,,,,,,,,,,,,,,,,,,,,,,,,,,,,,,,,,,,,,,,
,,,,,,,5cdf215da7b516001828bdda,605b45a4d25f287719a41696,6061efcd196f3a90e612bd39,Spain,Northeast,13 or older,yes,2021-03-29_11h19.11.196,empathy_intonation_perc,2020.2.10,MacIntel,60,,,,,,,,,,0,andalusian,0,1,1.75263,0,19,19,32,1,33,./stim/wavs/andalusian_mismatch_declarative-broad-focus_El-bebe-comia-muy-bien.wav,./stim/wavs/argentine_mismatch_declarative-broad-focus_El-bebe-comia-muy-bien.wav,./stim/wavs/castilian_mismatch_declarative-broad-focus_El-bebe-comia-muy-bien.wav,./stim/wavs/chilean_mismatch_declarative-broad-focus_El-bebe-comia-muy-bien.wav,./stim/wavs/cuban_mismatch_declarative-broad-focus_El-bebe-comia-muy-bien.wav,./stim/wavs/mexican_mismatch_declarative-broad-focus_El-bebe-comia-muy-bien.wav,./stim/wavs/peruvian_mismatch_declarative-broad-focus_El-bebe-comia-muy-bien.wav,./stim/wavs/puertorican_mismatch_declarative-broad-focus_El-bebe-comia-muy-bien.wav,,,,,,,,,,,,,,,,,,,,,,,,,,,,,,,,,,,,,,,,,,,,,,,,,,,,,,,,
,,,,,,,5cdf215da7b516001828bdda,605b45a4d25f287719a41696,6061efcd196f3a90e612bd39,Spain,Northeast,13 or older,yes,2021-03-29_11h19.11.196,empathy_intonation_perc,2020.2.10,MacIntel,60,,,,,,,,,,0,andalusian,0,1,1.841335,0,20,20,4,1,5,./stim/wavs/andalusian_match_declarative-broad-focus_Manuela-vende-el-carro.wav,./stim/wavs/argentine_match_declarative-broad-focus_Manuela-vende-el-carro.wav,./stim/wavs/castilian_match_declarative-broad-focus_Manuela-vende-el-carro.wav,./stim/wavs/chilean_match_declarative-broad-focus_Manuela-vende-el-carro.wav,./stim/wavs/cuban_match_declarative-broad-focus_Manuela-vende-el-carro.wav,./stim/wavs/mexican_match_declarative-broad-focus_Manuela-vende-el-carro.wav,./stim/wavs/peruvian_match_declarative-broad-focus_Manuela-vende-el-carro.wav,./stim/wavs/puertorican_match_declarative-broad-focus_Manuela-vende-el-carro.wav,,,,,,,,,,,,,,,,,,,,,,,,,,,,,,,,,,,,,,,,,,,,,,,,,,,,,,,,
,,,,,,,5cdf215da7b516001828bdda,605b45a4d25f287719a41696,6061efcd196f3a90e612bd39,Spain,Northeast,13 or older,yes,2021-03-29_11h19.11.196,empathy_intonation_perc,2020.2.10,MacIntel,60,,,,,,,,,,0,andalusian,0,1,1.63773,0,21,21,47,1,48,./stim/wavs/andalusian_mismatch_declarative-narrow-focus_Mi-tia-odia-la-lluvia.wav,./stim/wavs/argentine_mismatch_declarative-narrow-focus_Mi-tia-odia-la-lluvia.wav,./stim/wavs/castilian_mismatch_declarative-narrow-focus_Mi-tia-odia-la-lluvia.wav,./stim/wavs/chilean_mismatch_declarative-narrow-focus_Mi-tia-odia-la-lluvia.wav,./stim/wavs/cuban_mismatch_declarative-narrow-focus_Mi-tia-odia-la-lluvia.wav,./stim/wavs/mexican_mismatch_declarative-narrow-focus_Mi-tia-odia-la-lluvia.wav,./stim/wavs/peruvian_mismatch_declarative-narrow-focus_Mi-tia-odia-la-lluvia.wav,./stim/wavs/puertorican_mismatch_declarative-narrow-focus_Mi-tia-odia-la-lluvia.wav,,,,,,,,,,,,,,,,,,,,,,,,,,,,,,,,,,,,,,,,,,,,,,,,,,,,,,,,
,,,,,,,5cdf215da7b516001828bdda,605b45a4d25f287719a41696,6061efcd196f3a90e612bd39,Spain,Northeast,13 or older,yes,2021-03-29_11h19.11.196,empathy_intonation_perc,2020.2.10,MacIntel,60,,,,,,,,,,0,argentine,0,1,1.969245,0,22,22,40,1,41,./stim/wavs/andalusian_mismatch_declarative-narrow-focus_El-bebe-comia-muy-bien.wav,./stim/wavs/argentine_mismatch_declarative-narrow-focus_El-bebe-comia-muy-bien.wav,./stim/wavs/castilian_mismatch_declarative-narrow-focus_El-bebe-comia-muy-bien.wav,./stim/wavs/chilean_mismatch_declarative-narrow-focus_El-bebe-comia-muy-bien.wav,./stim/wavs/cuban_mismatch_declarative-narrow-focus_El-bebe-comia-muy-bien.wav,./stim/wavs/mexican_mismatch_declarative-narrow-focus_El-bebe-comia-muy-bien.wav,./stim/wavs/peruvian_mismatch_declarative-narrow-focus_El-bebe-comia-muy-bien.wav,./stim/wavs/puertorican_mismatch_declarative-narrow-focus_El-bebe-comia-muy-bien.wav,,,,,,,,,,,,,,,,,,,,,,,,,,,,,,,,,,,,,,,,,,,,,,,,,,,,,,,,
,,,,,,,5cdf215da7b516001828bdda,605b45a4d25f287719a41696,6061efcd196f3a90e612bd39,Spain,Northeast,13 or older,yes,2021-03-29_11h19.11.196,empathy_intonation_perc,2020.2.10,MacIntel,60,,,,,,,,,,1,castilian,1,1,1.78497,0,23,23,23,1,24,./stim/wavs/andalusian_match_interrogative-partial-wh_Por-que-iba-a-Bolivia.wav,./stim/wavs/argentine_match_interrogative-partial-wh_Por-que-iba-a-Bolivia.wav,./stim/wavs/castilian_match_interrogative-partial-wh_Por-que-iba-a-Bolivia.wav,./stim/wavs/chilean_match_interrogative-partial-wh_Por-que-iba-a-Bolivia.wav,./stim/wavs/cuban_match_interrogative-partial-wh_Por-que-iba-a-Bolivia.wav,./stim/wavs/mexican_match_interrogative-partial-wh_Por-que-iba-a-Bolivia.wav,./stim/wavs/peruvian_match_interrogative-partial-wh_Por-que-iba-a-Bolivia.wav,./stim/wavs/puertorican_match_interrogative-partial-wh_Por-que-iba-a-Bolivia.wav,,,,,,,,,,,,,,,,,,,,,,,,,,,,,,,,,,,,,,,,,,,,,,,,,,,,,,,,
,,,,,,,5cdf215da7b516001828bdda,605b45a4d25f287719a41696,6061efcd196f3a90e612bd39,Spain,Northeast,13 or older,yes,2021-03-29_11h19.11.196,empathy_intonation_perc,2020.2.10,MacIntel,60,,,,,,,,,,1,mexican,1,1,1.471475,0,24,24,54,1,55,./stim/wavs/andalusian_mismatch_interrogative-partial-wh_Por-que-venia-del-lago.wav,./stim/wavs/argentine_mismatch_interrogative-partial-wh_Por-que-venia-del-lago.wav,./stim/wavs/castilian_mismatch_interrogative-partial-wh_Por-que-venia-del-lago.wav,./stim/wavs/chilean_mismatch_interrogative-partial-wh_Por-que-venia-del-lago.wav,./stim/wavs/cuban_mismatch_interrogative-partial-wh_Por-que-venia-del-lago.wav,./stim/wavs/mexican_mismatch_interrogative-partial-wh_Por-que-venia-del-lago.wav,./stim/wavs/peruvian_mismatch_interrogative-partial-wh_Por-que-venia-del-lago.wav,./stim/wavs/puertorican_mismatch_interrogative-partial-wh_Por-que-venia-del-lago.wav,,,,,,,,,,,,,,,,,,,,,,,,,,,,,,,,,,,,,,,,,,,,,,,,,,,,,,,,
,,,,,,,5cdf215da7b516001828bdda,605b45a4d25f287719a41696,6061efcd196f3a90e612bd39,Spain,Northeast,13 or older,yes,2021-03-29_11h19.11.196,empathy_intonation_perc,2020.2.10,MacIntel,60,,,,,,,,,,0,argentine,0,1,1.717285,0,25,25,1,1,2,./stim/wavs/andalusian_match_declarative-broad-focus_Daniel-iba-a-Bolivia.wav,./stim/wavs/argentine_match_declarative-broad-focus_Daniel-iba-a-Bolivia.wav,./stim/wavs/castilian_match_declarative-broad-focus_Daniel-iba-a-Bolivia.wav,./stim/wavs/chilean_match_declarative-broad-focus_Daniel-iba-a-Bolivia.wav,./stim/wavs/cuban_match_declarative-broad-focus_Daniel-iba-a-Bolivia.wav,./stim/wavs/mexican_match_declarative-broad-focus_Daniel-iba-a-Bolivia.wav,./stim/wavs/peruvian_match_declarative-broad-focus_Daniel-iba-a-Bolivia.wav,./stim/wavs/puertorican_match_declarative-broad-focus_Daniel-iba-a-Bolivia.wav,,,,,,,,,,,,,,,,,,,,,,,,,,,,,,,,,,,,,,,,,,,,,,,,,,,,,,,,
,,,,,,,5cdf215da7b516001828bdda,605b45a4d25f287719a41696,6061efcd196f3a90e612bd39,Spain,Northeast,13 or older,yes,2021-03-29_11h19.11.196,empathy_intonation_perc,2020.2.10,MacIntel,60,,,,,,,,,,0,cuban,0,1,1.670555,0,26,26,41,1,42,./stim/wavs/andalusian_mismatch_declarative-narrow-focus_El-hombre-mira-la-luna.wav,./stim/wavs/argentine_mismatch_declarative-narrow-focus_El-hombre-mira-la-luna.wav,./stim/wavs/castilian_mismatch_declarative-narrow-focus_El-hombre-mira-la-luna.wav,./stim/wavs/chilean_mismatch_declarative-narrow-focus_El-hombre-mira-la-luna.wav,./stim/wavs/cuban_mismatch_declarative-narrow-focus_El-hombre-mira-la-luna.wav,./stim/wavs/mexican_mismatch_declarative-narrow-focus_El-hombre-mira-la-luna.wav,./stim/wavs/peruvian_mismatch_declarative-narrow-focus_El-hombre-mira-la-luna.wav,./stim/wavs/puertorican_mismatch_declarative-narrow-focus_El-hombre-mira-la-luna.wav,,,,,,,,,,,,,,,,,,,,,,,,,,,,,,,,,,,,,,,,,,,,,,,,,,,,,,,,
,,,,,,,5cdf215da7b516001828bdda,605b45a4d25f287719a41696,6061efcd196f3a90e612bd39,Spain,Northeast,13 or older,yes,2021-03-29_11h19.11.196,empathy_intonation_perc,2020.2.10,MacIntel,60,,,,,,,,,,0,chilean,0,1,1.80199,0,27,27,11,1,12,./stim/wavs/andalusian_match_declarative-narrow-focus_Emilio-ama-la-marcha.wav,./stim/wavs/argentine_match_declarative-narrow-focus_Emilio-ama-la-marcha.wav,./stim/wavs/castilian_match_declarative-narrow-focus_Emilio-ama-la-marcha.wav,./stim/wavs/chilean_match_declarative-narrow-focus_Emilio-ama-la-marcha.wav,./stim/wavs/cuban_match_declarative-narrow-focus_Emilio-ama-la-marcha.wav,./stim/wavs/mexican_match_declarative-narrow-focus_Emilio-ama-la-marcha.wav,./stim/wavs/peruvian_match_declarative-narrow-focus_Emilio-ama-la-marcha.wav,./stim/wavs/puertorican_match_declarative-narrow-focus_Emilio-ama-la-marcha.wav,,,,,,,,,,,,,,,,,,,,,,,,,,,,,,,,,,,,,,,,,,,,,,,,,,,,,,,,
,,,,,,,5cdf215da7b516001828bdda,605b45a4d25f287719a41696,6061efcd196f3a90e612bd39,Spain,Northeast,13 or older,yes,2021-03-29_11h19.11.196,empathy_intonation_perc,2020.2.10,MacIntel,60,,,,,,,,,,1,peruvian,1,1,2.18682,0,28,28,56,1,57,./stim/wavs/andalusian_mismatch_interrogative-total-yn_El-bebe-comia-muy-bien.wav,./stim/wavs/argentine_mismatch_interrogative-total-yn_El-bebe-comia-muy-bien.wav,./stim/wavs/castilian_mismatch_interrogative-total-yn_El-bebe-comia-muy-bien.wav,./stim/wavs/chilean_mismatch_interrogative-total-yn_El-bebe-comia-muy-bien.wav,./stim/wavs/cuban_mismatch_interrogative-total-yn_El-bebe-comia-muy-bien.wav,./stim/wavs/mexican_mismatch_interrogative-total-yn_El-bebe-comia-muy-bien.wav,./stim/wavs/peruvian_mismatch_interrogative-total-yn_El-bebe-comia-muy-bien.wav,./stim/wavs/puertorican_mismatch_interrogative-total-yn_El-bebe-comia-muy-bien.wav,,,,,,,,,,,,,,,,,,,,,,,,,,,,,,,,,,,,,,,,,,,,,,,,,,,,,,,,
,,,,,,,5cdf215da7b516001828bdda,605b45a4d25f287719a41696,6061efcd196f3a90e612bd39,Spain,Northeast,13 or older,yes,2021-03-29_11h19.11.196,empathy_intonation_perc,2020.2.10,MacIntel,60,,,,,,,,,,0,chilean,0,1,1.919825,0,29,29,8,1,9,./stim/wavs/andalusian_match_declarative-narrow-focus_Ana-lleva-el-abrigo.wav,./stim/wavs/argentine_match_declarative-narrow-focus_Ana-lleva-el-abrigo.wav,./stim/wavs/castilian_match_declarative-narrow-focus_Ana-lleva-el-abrigo.wav,./stim/wavs/chilean_match_declarative-narrow-focus_Ana-lleva-el-abrigo.wav,./stim/wavs/cuban_match_declarative-narrow-focus_Ana-lleva-el-abrigo.wav,./stim/wavs/mexican_match_declarative-narrow-focus_Ana-lleva-el-abrigo.wav,./stim/wavs/peruvian_match_declarative-narrow-focus_Ana-lleva-el-abrigo.wav,./stim/wavs/puertorican_match_declarative-narrow-focus_Ana-lleva-el-abrigo.wav,,,,,,,,,,,,,,,,,,,,,,,,,,,,,,,,,,,,,,,,,,,,,,,,,,,,,,,,
,,,,,,,5cdf215da7b516001828bdda,605b45a4d25f287719a41696,6061efcd196f3a90e612bd39,Spain,Northeast,13 or older,yes,2021-03-29_11h19.11.196,empathy_intonation_perc,2020.2.10,MacIntel,60,,,,,,,,,,1,argentine,0,0,2.019885,0,30,30,31,1,32,./stim/wavs/andalusian_match_interrogative-total-yn_Marta-abre-el-regalo.wav,./stim/wavs/argentine_match_interrogative-total-yn_Marta-abre-el-regalo.wav,./stim/wavs/castilian_match_interrogative-total-yn_Marta-abre-el-regalo.wav,./stim/wavs/chilean_match_interrogative-total-yn_Marta-abre-el-regalo.wav,./stim/wavs/cuban_match_interrogative-total-yn_Marta-abre-el-regalo.wav,./stim/wavs/mexican_match_interrogative-total-yn_Marta-abre-el-regalo.wav,./stim/wavs/peruvian_match_interrogative-total-yn_Marta-abre-el-regalo.wav,./stim/wavs/puertorican_match_interrogative-total-yn_Marta-abre-el-regalo.wav,,,,,,,,,,,,,,,,,,,,,,,,,,,,,,,,,,,,,,,,,,,,,,,,,,,,,,,,
,,,,,,,5cdf215da7b516001828bdda,605b45a4d25f287719a41696,6061efcd196f3a90e612bd39,Spain,Northeast,13 or older,yes,2021-03-29_11h19.11.196,empathy_intonation_perc,2020.2.10,MacIntel,60,,,,,,,,,,0,cuban,0,1,1.907425,0,31,31,45,1,46,./stim/wavs/andalusian_mismatch_declarative-narrow-focus_Mi-madre-come-la-fruta.wav,./stim/wavs/argentine_mismatch_declarative-narrow-focus_Mi-madre-come-la-fruta.wav,./stim/wavs/castilian_mismatch_declarative-narrow-focus_Mi-madre-come-la-fruta.wav,./stim/wavs/chilean_mismatch_declarative-narrow-focus_Mi-madre-come-la-fruta.wav,./stim/wavs/cuban_mismatch_declarative-narrow-focus_Mi-madre-come-la-fruta.wav,./stim/wavs/mexican_mismatch_declarative-narrow-focus_Mi-madre-come-la-fruta.wav,./stim/wavs/peruvian_mismatch_declarative-narrow-focus_Mi-madre-come-la-fruta.wav,./stim/wavs/puertorican_mismatch_declarative-narrow-focus_Mi-madre-come-la-fruta.wav,,,,,,,,,,,,,,,,,,,,,,,,,,,,,,,,,,,,,,,,,,,,,,,,,,,,,,,,
,,,,,,,5cdf215da7b516001828bdda,605b45a4d25f287719a41696,6061efcd196f3a90e612bd39,Spain,Northeast,13 or older,yes,2021-03-29_11h19.11.196,empathy_intonation_perc,2020.2.10,MacIntel,60,,,,,,,,,,0,chilean,0,1,2.15183,0,32,32,46,1,47,./stim/wavs/andalusian_mismatch_declarative-narrow-focus_Mi-novio-viene-del-lago.wav,./stim/wavs/argentine_mismatch_declarative-narrow-focus_Mi-novio-viene-del-lago.wav,./stim/wavs/castilian_mismatch_declarative-narrow-focus_Mi-novio-viene-del-lago.wav,./stim/wavs/chilean_mismatch_declarative-narrow-focus_Mi-novio-viene-del-lago.wav,./stim/wavs/cuban_mismatch_declarative-narrow-focus_Mi-novio-viene-del-lago.wav,./stim/wavs/mexican_mismatch_declarative-narrow-focus_Mi-novio-viene-del-lago.wav,./stim/wavs/peruvian_mismatch_declarative-narrow-focus_Mi-novio-viene-del-lago.wav,./stim/wavs/puertorican_mismatch_declarative-narrow-focus_Mi-novio-viene-del-lago.wav,,,,,,,,,,,,,,,,,,,,,,,,,,,,,,,,,,,,,,,,,,,,,,,,,,,,,,,,
,,,,,,,5cdf215da7b516001828bdda,605b45a4d25f287719a41696,6061efcd196f3a90e612bd39,Spain,Northeast,13 or older,yes,2021-03-29_11h19.11.196,empathy_intonation_perc,2020.2.10,MacIntel,60,,,,,,,,,,0,mexican,0,1,1.701435,0,33,33,5,1,6,./stim/wavs/andalusian_match_declarative-broad-focus_Maria-bebe-el-vino.wav,./stim/wavs/argentine_match_declarative-broad-focus_Maria-bebe-el-vino.wav,./stim/wavs/castilian_match_declarative-broad-focus_Maria-bebe-el-vino.wav,./stim/wavs/chilean_match_declarative-broad-focus_Maria-bebe-el-vino.wav,./stim/wavs/cuban_match_declarative-broad-focus_Maria-bebe-el-vino.wav,./stim/wavs/mexican_match_declarative-broad-focus_Maria-bebe-el-vino.wav,./stim/wavs/peruvian_match_declarative-broad-focus_Maria-bebe-el-vino.wav,./stim/wavs/puertorican_match_declarative-broad-focus_Maria-bebe-el-vino.wav,,,,,,,,,,,,,,,,,,,,,,,,,,,,,,,,,,,,,,,,,,,,,,,,,,,,,,,,
,,,,,,,5cdf215da7b516001828bdda,605b45a4d25f287719a41696,6061efcd196f3a90e612bd39,Spain,Northeast,13 or older,yes,2021-03-29_11h19.11.196,empathy_intonation_perc,2020.2.10,MacIntel,60,,,,,,,,,,1,castilian,1,1,1.703615,0,34,34,29,1,30,./stim/wavs/andalusian_match_interrogative-total-yn_Maria-bebe-el-vino.wav,./stim/wavs/argentine_match_interrogative-total-yn_Maria-bebe-el-vino.wav,./stim/wavs/castilian_match_interrogative-total-yn_Maria-bebe-el-vino.wav,./stim/wavs/chilean_match_interrogative-total-yn_Maria-bebe-el-vino.wav,./stim/wavs/cuban_match_interrogative-total-yn_Maria-bebe-el-vino.wav,./stim/wavs/mexican_match_interrogative-total-yn_Maria-bebe-el-vino.wav,./stim/wavs/peruvian_match_interrogative-total-yn_Maria-bebe-el-vino.wav,./stim/wavs/puertorican_match_interrogative-total-yn_Maria-bebe-el-vino.wav,,,,,,,,,,,,,,,,,,,,,,,,,,,,,,,,,,,,,,,,,,,,,,,,,,,,,,,,
,,,,,,,5cdf215da7b516001828bdda,605b45a4d25f287719a41696,6061efcd196f3a90e612bd39,Spain,Northeast,13 or older,yes,2021-03-29_11h19.11.196,empathy_intonation_perc,2020.2.10,MacIntel,60,,,,,,,,,,1,andalusian,1,1,1.62025,0,35,35,25,1,26,./stim/wavs/andalusian_match_interrogative-total-yn_Daniel-iba-a-Bolivia.wav,./stim/wavs/argentine_match_interrogative-total-yn_Daniel-iba-a-Bolivia.wav,./stim/wavs/castilian_match_interrogative-total-yn_Daniel-iba-a-Bolivia.wav,./stim/wavs/chilean_match_interrogative-total-yn_Daniel-iba-a-Bolivia.wav,./stim/wavs/cuban_match_interrogative-total-yn_Daniel-iba-a-Bolivia.wav,./stim/wavs/mexican_match_interrogative-total-yn_Daniel-iba-a-Bolivia.wav,./stim/wavs/peruvian_match_interrogative-total-yn_Daniel-iba-a-Bolivia.wav,./stim/wavs/puertorican_match_interrogative-total-yn_Daniel-iba-a-Bolivia.wav,,,,,,,,,,,,,,,,,,,,,,,,,,,,,,,,,,,,,,,,,,,,,,,,,,,,,,,,
,,,,,,,5cdf215da7b516001828bdda,605b45a4d25f287719a41696,6061efcd196f3a90e612bd39,Spain,Northeast,13 or older,yes,2021-03-29_11h19.11.196,empathy_intonation_perc,2020.2.10,MacIntel,60,,,,,,,,,,0,andalusian,0,1,1.800775,0,36,36,39,1,40,./stim/wavs/andalusian_mismatch_declarative-broad-focus_Mi-tia-odia-la-lluvia.wav,./stim/wavs/argentine_mismatch_declarative-broad-focus_Mi-tia-odia-la-lluvia.wav,./stim/wavs/castilian_mismatch_declarative-broad-focus_Mi-tia-odia-la-lluvia.wav,./stim/wavs/chilean_mismatch_declarative-broad-focus_Mi-tia-odia-la-lluvia.wav,./stim/wavs/cuban_mismatch_declarative-broad-focus_Mi-tia-odia-la-lluvia.wav,./stim/wavs/mexican_mismatch_declarative-broad-focus_Mi-tia-odia-la-lluvia.wav,./stim/wavs/peruvian_mismatch_declarative-broad-focus_Mi-tia-odia-la-lluvia.wav,./stim/wavs/puertorican_mismatch_declarative-broad-focus_Mi-tia-odia-la-lluvia.wav,,,,,,,,,,,,,,,,,,,,,,,,,,,,,,,,,,,,,,,,,,,,,,,,,,,,,,,,
,,,,,,,5cdf215da7b516001828bdda,605b45a4d25f287719a41696,6061efcd196f3a90e612bd39,Spain,Northeast,13 or older,yes,2021-03-29_11h19.11.196,empathy_intonation_perc,2020.2.10,MacIntel,60,,,,,,,,,,1,cuban,0,0,1.41861,0,37,37,48,1,49,./stim/wavs/andalusian_mismatch_interrogative-partial-wh_Cuando-comia-la-fruta.wav,./stim/wavs/argentine_mismatch_interrogative-partial-wh_Cuando-comia-la-fruta.wav,./stim/wavs/castilian_mismatch_interrogative-partial-wh_Cuando-comia-la-fruta.wav,./stim/wavs/chilean_mismatch_interrogative-partial-wh_Cuando-comia-la-fruta.wav,./stim/wavs/cuban_mismatch_interrogative-partial-wh_Cuando-comia-la-fruta.wav,./stim/wavs/mexican_mismatch_interrogative-partial-wh_Cuando-comia-la-fruta.wav,./stim/wavs/peruvian_mismatch_interrogative-partial-wh_Cuando-comia-la-fruta.wav,./stim/wavs/puertorican_mismatch_interrogative-partial-wh_Cuando-comia-la-fruta.wav,,,,,,,,,,,,,,,,,,,,,,,,,,,,,,,,,,,,,,,,,,,,,,,,,,,,,,,,
,,,,,,,5cdf215da7b516001828bdda,605b45a4d25f287719a41696,6061efcd196f3a90e612bd39,Spain,Northeast,13 or older,yes,2021-03-29_11h19.11.196,empathy_intonation_perc,2020.2.10,MacIntel,60,,,,,,,,,,0,castilian,0,1,1.65416,0,38,38,13,1,14,./stim/wavs/andalusian_match_declarative-narrow-focus_Maria-bebe-el-vino.wav,./stim/wavs/argentine_match_declarative-narrow-focus_Maria-bebe-el-vino.wav,./stim/wavs/castilian_match_declarative-narrow-focus_Maria-bebe-el-vino.wav,./stim/wavs/chilean_match_declarative-narrow-focus_Maria-bebe-el-vino.wav,./stim/wavs/cuban_match_declarative-narrow-focus_Maria-bebe-el-vino.wav,./stim/wavs/mexican_match_declarative-narrow-focus_Maria-bebe-el-vino.wav,./stim/wavs/peruvian_match_declarative-narrow-focus_Maria-bebe-el-vino.wav,./stim/wavs/puertorican_match_declarative-narrow-focus_Maria-bebe-el-vino.wav,,,,,,,,,,,,,,,,,,,,,,,,,,,,,,,,,,,,,,,,,,,,,,,,,,,,,,,,
,,,,,,,5cdf215da7b516001828bdda,605b45a4d25f287719a41696,6061efcd196f3a90e612bd39,Spain,Northeast,13 or older,yes,2021-03-29_11h19.11.196,empathy_intonation_perc,2020.2.10,MacIntel,60,,,,,,,,,,1,puertorican,0,0,2.102515,0,39,39,27,1,28,./stim/wavs/andalusian_match_interrogative-total-yn_Emilio-ama-la-marcha.wav,./stim/wavs/argentine_match_interrogative-total-yn_Emilio-ama-la-marcha.wav,./stim/wavs/castilian_match_interrogative-total-yn_Emilio-ama-la-marcha.wav,./stim/wavs/chilean_match_interrogative-total-yn_Emilio-ama-la-marcha.wav,./stim/wavs/cuban_match_interrogative-total-yn_Emilio-ama-la-marcha.wav,./stim/wavs/mexican_match_interrogative-total-yn_Emilio-ama-la-marcha.wav,./stim/wavs/peruvian_match_interrogative-total-yn_Emilio-ama-la-marcha.wav,./stim/wavs/puertorican_match_interrogative-total-yn_Emilio-ama-la-marcha.wav,,,,,,,,,,,,,,,,,,,,,,,,,,,,,,,,,,,,,,,,,,,,,,,,,,,,,,,,
,,,,,,,5cdf215da7b516001828bdda,605b45a4d25f287719a41696,6061efcd196f3a90e612bd39,Spain,Northeast,13 or older,yes,2021-03-29_11h19.11.196,empathy_intonation_perc,2020.2.10,MacIntel,60,,,,,,,,,,0,andalusian,0,1,1.53515,0,40,40,43,1,44,./stim/wavs/andalusian_mismatch_declarative-narrow-focus_La-maestra-vive-en-Paris.wav,./stim/wavs/argentine_mismatch_declarative-narrow-focus_La-maestra-vive-en-Paris.wav,./stim/wavs/castilian_mismatch_declarative-narrow-focus_La-maestra-vive-en-Paris.wav,./stim/wavs/chilean_mismatch_declarative-narrow-focus_La-maestra-vive-en-Paris.wav,./stim/wavs/cuban_mismatch_declarative-narrow-focus_La-maestra-vive-en-Paris.wav,./stim/wavs/mexican_mismatch_declarative-narrow-focus_La-maestra-vive-en-Paris.wav,./stim/wavs/peruvian_mismatch_declarative-narrow-focus_La-maestra-vive-en-Paris.wav,./stim/wavs/puertorican_mismatch_declarative-narrow-focus_La-maestra-vive-en-Paris.wav,,,,,,,,,,,,,,,,,,,,,,,,,,,,,,,,,,,,,,,,,,,,,,,,,,,,,,,,
,,,,,,,5cdf215da7b516001828bdda,605b45a4d25f287719a41696,6061efcd196f3a90e612bd39,Spain,Northeast,13 or older,yes,2021-03-29_11h19.11.196,empathy_intonation_perc,2020.2.10,MacIntel,60,,,,,,,,,,0,chilean,0,1,1.66805,0,41,41,37,1,38,./stim/wavs/andalusian_mismatch_declarative-broad-focus_Mi-madre-come-la-fruta.wav,./stim/wavs/argentine_mismatch_declarative-broad-focus_Mi-madre-come-la-fruta.wav,./stim/wavs/castilian_mismatch_declarative-broad-focus_Mi-madre-come-la-fruta.wav,./stim/wavs/chilean_mismatch_declarative-broad-focus_Mi-madre-come-la-fruta.wav,./stim/wavs/cuban_mismatch_declarative-broad-focus_Mi-madre-come-la-fruta.wav,./stim/wavs/mexican_mismatch_declarative-broad-focus_Mi-madre-come-la-fruta.wav,./stim/wavs/peruvian_mismatch_declarative-broad-focus_Mi-madre-come-la-fruta.wav,./stim/wavs/puertorican_mismatch_declarative-broad-focus_Mi-madre-come-la-fruta.wav,,,,,,,,,,,,,,,,,,,,,,,,,,,,,,,,,,,,,,,,,,,,,,,,,,,,,,,,
,,,,,,,5cdf215da7b516001828bdda,605b45a4d25f287719a41696,6061efcd196f3a90e612bd39,Spain,Northeast,13 or older,yes,2021-03-29_11h19.11.196,empathy_intonation_perc,2020.2.10,MacIntel,60,,,,,,,,,,1,chilean,0,0,1.737005,0,42,42,28,1,29,./stim/wavs/andalusian_match_interrogative-total-yn_Manuela-vende-el-carro.wav,./stim/wavs/argentine_match_interrogative-total-yn_Manuela-vende-el-carro.wav,./stim/wavs/castilian_match_interrogative-total-yn_Manuela-vende-el-carro.wav,./stim/wavs/chilean_match_interrogative-total-yn_Manuela-vende-el-carro.wav,./stim/wavs/cuban_match_interrogative-total-yn_Manuela-vende-el-carro.wav,./stim/wavs/mexican_match_interrogative-total-yn_Manuela-vende-el-carro.wav,./stim/wavs/peruvian_match_interrogative-total-yn_Manuela-vende-el-carro.wav,./stim/wavs/puertorican_match_interrogative-total-yn_Manuela-vende-el-carro.wav,,,,,,,,,,,,,,,,,,,,,,,,,,,,,,,,,,,,,,,,,,,,,,,,,,,,,,,,
,,,,,,,5cdf215da7b516001828bdda,605b45a4d25f287719a41696,6061efcd196f3a90e612bd39,Spain,Northeast,13 or older,yes,2021-03-29_11h19.11.196,empathy_intonation_perc,2020.2.10,MacIntel,60,,,,,,,,,,0,chilean,0,1,1.60146,0,43,43,33,1,34,./stim/wavs/andalusian_mismatch_declarative-broad-focus_El-hombre-mira-la-luna.wav,./stim/wavs/argentine_mismatch_declarative-broad-focus_El-hombre-mira-la-luna.wav,./stim/wavs/castilian_mismatch_declarative-broad-focus_El-hombre-mira-la-luna.wav,./stim/wavs/chilean_mismatch_declarative-broad-focus_El-hombre-mira-la-luna.wav,./stim/wavs/cuban_mismatch_declarative-broad-focus_El-hombre-mira-la-luna.wav,./stim/wavs/mexican_mismatch_declarative-broad-focus_El-hombre-mira-la-luna.wav,./stim/wavs/peruvian_mismatch_declarative-broad-focus_El-hombre-mira-la-luna.wav,./stim/wavs/puertorican_mismatch_declarative-broad-focus_El-hombre-mira-la-luna.wav,,,,,,,,,,,,,,,,,,,,,,,,,,,,,,,,,,,,,,,,,,,,,,,,,,,,,,,,
,,,,,,,5cdf215da7b516001828bdda,605b45a4d25f287719a41696,6061efcd196f3a90e612bd39,Spain,Northeast,13 or older,yes,2021-03-29_11h19.11.196,empathy_intonation_perc,2020.2.10,MacIntel,60,,,,,,,,,,0,andalusian,0,1,1.904165,0,44,44,34,1,35,./stim/wavs/andalusian_mismatch_declarative-broad-focus_El-nino-oye-el-rio.wav,./stim/wavs/argentine_mismatch_declarative-broad-focus_El-nino-oye-el-rio.wav,./stim/wavs/castilian_mismatch_declarative-broad-focus_El-nino-oye-el-rio.wav,./stim/wavs/chilean_mismatch_declarative-broad-focus_El-nino-oye-el-rio.wav,./stim/wavs/cuban_mismatch_declarative-broad-focus_El-nino-oye-el-rio.wav,./stim/wavs/mexican_mismatch_declarative-broad-focus_El-nino-oye-el-rio.wav,./stim/wavs/peruvian_mismatch_declarative-broad-focus_El-nino-oye-el-rio.wav,./stim/wavs/puertorican_mismatch_declarative-broad-focus_El-nino-oye-el-rio.wav,,,,,,,,,,,,,,,,,,,,,,,,,,,,,,,,,,,,,,,,,,,,,,,,,,,,,,,,
,,,,,,,5cdf215da7b516001828bdda,605b45a4d25f287719a41696,6061efcd196f3a90e612bd39,Spain,Northeast,13 or older,yes,2021-03-29_11h19.11.196,empathy_intonation_perc,2020.2.10,MacIntel,60,,,,,,,,,,1,andalusian,1,1,1.85616,0,45,45,61,1,62,./stim/wavs/andalusian_mismatch_interrogative-total-yn_Mi-madre-come-la-fruta.wav,./stim/wavs/argentine_mismatch_interrogative-total-yn_Mi-madre-come-la-fruta.wav,./stim/wavs/castilian_mismatch_interrogative-total-yn_Mi-madre-come-la-fruta.wav,./stim/wavs/chilean_mismatch_interrogative-total-yn_Mi-madre-come-la-fruta.wav,./stim/wavs/cuban_mismatch_interrogative-total-yn_Mi-madre-come-la-fruta.wav,./stim/wavs/mexican_mismatch_interrogative-total-yn_Mi-madre-come-la-fruta.wav,./stim/wavs/peruvian_mismatch_interrogative-total-yn_Mi-madre-come-la-fruta.wav,./stim/wavs/puertorican_mismatch_interrogative-total-yn_Mi-madre-come-la-fruta.wav,,,,,,,,,,,,,,,,,,,,,,,,,,,,,,,,,,,,,,,,,,,,,,,,,,,,,,,,
,,,,,,,5cdf215da7b516001828bdda,605b45a4d25f287719a41696,6061efcd196f3a90e612bd39,Spain,Northeast,13 or older,yes,2021-03-29_11h19.11.196,empathy_intonation_perc,2020.2.10,MacIntel,60,,,,,,,,,,1,peruvian,1,1,1.800665,0,46,46,62,1,63,./stim/wavs/andalusian_mismatch_interrogative-total-yn_Mi-novio-viene-del-lago.wav,./stim/wavs/argentine_mismatch_interrogative-total-yn_Mi-novio-viene-del-lago.wav,./stim/wavs/castilian_mismatch_interrogative-total-yn_Mi-novio-viene-del-lago.wav,./stim/wavs/chilean_mismatch_interrogative-total-yn_Mi-novio-viene-del-lago.wav,./stim/wavs/cuban_mismatch_interrogative-total-yn_Mi-novio-viene-del-lago.wav,./stim/wavs/mexican_mismatch_interrogative-total-yn_Mi-novio-viene-del-lago.wav,./stim/wavs/peruvian_mismatch_interrogative-total-yn_Mi-novio-viene-del-lago.wav,./stim/wavs/puertorican_mismatch_interrogative-total-yn_Mi-novio-viene-del-lago.wav,,,,,,,,,,,,,,,,,,,,,,,,,,,,,,,,,,,,,,,,,,,,,,,,,,,,,,,,
,,,,,,,5cdf215da7b516001828bdda,605b45a4d25f287719a41696,6061efcd196f3a90e612bd39,Spain,Northeast,13 or older,yes,2021-03-29_11h19.11.196,empathy_intonation_perc,2020.2.10,MacIntel,60,,,,,,,,,,0,chilean,0,1,1.808765,0,47,47,10,1,11,./stim/wavs/andalusian_match_declarative-narrow-focus_David-leia-el-libro.wav,./stim/wavs/argentine_match_declarative-narrow-focus_David-leia-el-libro.wav,./stim/wavs/castilian_match_declarative-narrow-focus_David-leia-el-libro.wav,./stim/wavs/chilean_match_declarative-narrow-focus_David-leia-el-libro.wav,./stim/wavs/cuban_match_declarative-narrow-focus_David-leia-el-libro.wav,./stim/wavs/mexican_match_declarative-narrow-focus_David-leia-el-libro.wav,./stim/wavs/peruvian_match_declarative-narrow-focus_David-leia-el-libro.wav,./stim/wavs/puertorican_match_declarative-narrow-focus_David-leia-el-libro.wav,,,,,,,,,,,,,,,,,,,,,,,,,,,,,,,,,,,,,,,,,,,,,,,,,,,,,,,,
,,,,,,,5cdf215da7b516001828bdda,605b45a4d25f287719a41696,6061efcd196f3a90e612bd39,Spain,Northeast,13 or older,yes,2021-03-29_11h19.11.196,empathy_intonation_perc,2020.2.10,MacIntel,60,,,,,,,,,,0,castilian,0,1,2.419445,0,48,48,14,1,15,./stim/wavs/andalusian_match_declarative-narrow-focus_Mariano-habla-del-tiempo.wav,./stim/wavs/argentine_match_declarative-narrow-focus_Mariano-habla-del-tiempo.wav,./stim/wavs/castilian_match_declarative-narrow-focus_Mariano-habla-del-tiempo.wav,./stim/wavs/chilean_match_declarative-narrow-focus_Mariano-habla-del-tiempo.wav,./stim/wavs/cuban_match_declarative-narrow-focus_Mariano-habla-del-tiempo.wav,./stim/wavs/mexican_match_declarative-narrow-focus_Mariano-habla-del-tiempo.wav,./stim/wavs/peruvian_match_declarative-narrow-focus_Mariano-habla-del-tiempo.wav,./stim/wavs/puertorican_match_declarative-narrow-focus_Mariano-habla-del-tiempo.wav,,,,,,,,,,,,,,,,,,,,,,,,,,,,,,,,,,,,,,,,,,,,,,,,,,,,,,,,
,,,,,,,5cdf215da7b516001828bdda,605b45a4d25f287719a41696,6061efcd196f3a90e612bd39,Spain,Northeast,13 or older,yes,2021-03-29_11h19.11.196,empathy_intonation_perc,2020.2.10,MacIntel,60,,,,,,,,,,1,chilean,1,1,1.56851,0,49,49,55,1,56,./stim/wavs/andalusian_mismatch_interrogative-partial-wh_Por-que-vivia-en-Paris.wav,./stim/wavs/argentine_mismatch_interrogative-partial-wh_Por-que-vivia-en-Paris.wav,./stim/wavs/castilian_mismatch_interrogative-partial-wh_Por-que-vivia-en-Paris.wav,./stim/wavs/chilean_mismatch_interrogative-partial-wh_Por-que-vivia-en-Paris.wav,./stim/wavs/cuban_mismatch_interrogative-partial-wh_Por-que-vivia-en-Paris.wav,./stim/wavs/mexican_mismatch_interrogative-partial-wh_Por-que-vivia-en-Paris.wav,./stim/wavs/peruvian_mismatch_interrogative-partial-wh_Por-que-vivia-en-Paris.wav,./stim/wavs/puertorican_mismatch_interrogative-partial-wh_Por-que-vivia-en-Paris.wav,,,,,,,,,,,,,,,,,,,,,,,,,,,,,,,,,,,,,,,,,,,,,,,,,,,,,,,,
,,,,,,,5cdf215da7b516001828bdda,605b45a4d25f287719a41696,6061efcd196f3a90e612bd39,Spain,Northeast,13 or older,yes,2021-03-29_11h19.11.196,empathy_intonation_perc,2020.2.10,MacIntel,60,,,,,,,,,,1,cuban,1,1,1.71911,0,50,50,22,1,23,./stim/wavs/andalusian_match_interrogative-partial-wh_Por-que-hablaba-del-agua.wav,./stim/wavs/argentine_match_interrogative-partial-wh_Por-que-hablaba-del-agua.wav,./stim/wavs/castilian_match_interrogative-partial-wh_Por-que-hablaba-del-agua.wav,./stim/wavs/chilean_match_interrogative-partial-wh_Por-que-hablaba-del-agua.wav,./stim/wavs/cuban_match_interrogative-partial-wh_Por-que-hablaba-del-agua.wav,./stim/wavs/mexican_match_interrogative-partial-wh_Por-que-hablaba-del-agua.wav,./stim/wavs/peruvian_match_interrogative-partial-wh_Por-que-hablaba-del-agua.wav,./stim/wavs/puertorican_match_interrogative-partial-wh_Por-que-hablaba-del-agua.wav,,,,,,,,,,,,,,,,,,,,,,,,,,,,,,,,,,,,,,,,,,,,,,,,,,,,,,,,
,,,,,,,5cdf215da7b516001828bdda,605b45a4d25f287719a41696,6061efcd196f3a90e612bd39,Spain,Northeast,13 or older,yes,2021-03-29_11h19.11.196,empathy_intonation_perc,2020.2.10,MacIntel,60,,,,,,,,,,0,argentine,0,1,1.96806,0,51,51,36,1,37,./stim/wavs/andalusian_mismatch_declarative-broad-focus_La-nina-lava-el-plato.wav,./stim/wavs/argentine_mismatch_declarative-broad-focus_La-nina-lava-el-plato.wav,./stim/wavs/castilian_mismatch_declarative-broad-focus_La-nina-lava-el-plato.wav,./stim/wavs/chilean_mismatch_declarative-broad-focus_La-nina-lava-el-plato.wav,./stim/wavs/cuban_mismatch_declarative-broad-focus_La-nina-lava-el-plato.wav,./stim/wavs/mexican_mismatch_declarative-broad-focus_La-nina-lava-el-plato.wav,./stim/wavs/peruvian_mismatch_declarative-broad-focus_La-nina-lava-el-plato.wav,./stim/wavs/puertorican_mismatch_declarative-broad-focus_La-nina-lava-el-plato.wav,,,,,,,,,,,,,,,,,,,,,,,,,,,,,,,,,,,,,,,,,,,,,,,,,,,,,,,,
,,,,,,,5cdf215da7b516001828bdda,605b45a4d25f287719a41696,6061efcd196f3a90e612bd39,Spain,Northeast,13 or older,yes,2021-03-29_11h19.11.196,empathy_intonation_perc,2020.2.10,MacIntel,60,,,,,,,,,,1,cuban,0,0,1.73527,0,52,52,57,1,58,./stim/wavs/andalusian_mismatch_interrogative-total-yn_El-hombre-mira-la-luna.wav,./stim/wavs/argentine_mismatch_interrogative-total-yn_El-hombre-mira-la-luna.wav,./stim/wavs/castilian_mismatch_interrogative-total-yn_El-hombre-mira-la-luna.wav,./stim/wavs/chilean_mismatch_interrogative-total-yn_El-hombre-mira-la-luna.wav,./stim/wavs/cuban_mismatch_interrogative-total-yn_El-hombre-mira-la-luna.wav,./stim/wavs/mexican_mismatch_interrogative-total-yn_El-hombre-mira-la-luna.wav,./stim/wavs/peruvian_mismatch_interrogative-total-yn_El-hombre-mira-la-luna.wav,./stim/wavs/puertorican_mismatch_interrogative-total-yn_El-hombre-mira-la-luna.wav,,,,,,,,,,,,,,,,,,,,,,,,,,,,,,,,,,,,,,,,,,,,,,,,,,,,,,,,
,,,,,,,5cdf215da7b516001828bdda,605b45a4d25f287719a41696,6061efcd196f3a90e612bd39,Spain,Northeast,13 or older,yes,2021-03-29_11h19.11.196,empathy_intonation_perc,2020.2.10,MacIntel,60,,,,,,,,,,1,chilean,1,1,1.454845,0,53,53,19,1,20,./stim/wavs/andalusian_match_interrogative-partial-wh_Cuando-vendia-el-carro.wav,./stim/wavs/argentine_match_interrogative-partial-wh_Cuando-vendia-el-carro.wav,./stim/wavs/castilian_match_interrogative-partial-wh_Cuando-vendia-el-carro.wav,./stim/wavs/chilean_match_interrogative-partial-wh_Cuando-vendia-el-carro.wav,./stim/wavs/cuban_match_interrogative-partial-wh_Cuando-vendia-el-carro.wav,./stim/wavs/mexican_match_interrogative-partial-wh_Cuando-vendia-el-carro.wav,./stim/wavs/peruvian_match_interrogative-partial-wh_Cuando-vendia-el-carro.wav,./stim/wavs/puertorican_match_interrogative-partial-wh_Cuando-vendia-el-carro.wav,,,,,,,,,,,,,,,,,,,,,,,,,,,,,,,,,,,,,,,,,,,,,,,,,,,,,,,,
,,,,,,,5cdf215da7b516001828bdda,605b45a4d25f287719a41696,6061efcd196f3a90e612bd39,Spain,Northeast,13 or older,yes,2021-03-29_11h19.11.196,empathy_intonation_perc,2020.2.10,MacIntel,60,,,,,,,,,,1,puertorican,0,0,1.736505,0,54,54,53,1,54,./stim/wavs/andalusian_mismatch_interrogative-partial-wh_Por-que-oia-el-rio.wav,./stim/wavs/argentine_mismatch_interrogative-partial-wh_Por-que-oia-el-rio.wav,./stim/wavs/castilian_mismatch_interrogative-partial-wh_Por-que-oia-el-rio.wav,./stim/wavs/chilean_mismatch_interrogative-partial-wh_Por-que-oia-el-rio.wav,./stim/wavs/cuban_mismatch_interrogative-partial-wh_Por-que-oia-el-rio.wav,./stim/wavs/mexican_mismatch_interrogative-partial-wh_Por-que-oia-el-rio.wav,./stim/wavs/peruvian_mismatch_interrogative-partial-wh_Por-que-oia-el-rio.wav,./stim/wavs/puertorican_mismatch_interrogative-partial-wh_Por-que-oia-el-rio.wav,,,,,,,,,,,,,,,,,,,,,,,,,,,,,,,,,,,,,,,,,,,,,,,,,,,,,,,,
,,,,,,,5cdf215da7b516001828bdda,605b45a4d25f287719a41696,6061efcd196f3a90e612bd39,Spain,Northeast,13 or older,yes,2021-03-29_11h19.11.196,empathy_intonation_perc,2020.2.10,MacIntel,60,,,,,,,,,,0,mexican,0,1,1.834975,0,55,55,38,1,39,./stim/wavs/andalusian_mismatch_declarative-broad-focus_Mi-novio-viene-del-lago.wav,./stim/wavs/argentine_mismatch_declarative-broad-focus_Mi-novio-viene-del-lago.wav,./stim/wavs/castilian_mismatch_declarative-broad-focus_Mi-novio-viene-del-lago.wav,./stim/wavs/chilean_mismatch_declarative-broad-focus_Mi-novio-viene-del-lago.wav,./stim/wavs/cuban_mismatch_declarative-broad-focus_Mi-novio-viene-del-lago.wav,./stim/wavs/mexican_mismatch_declarative-broad-focus_Mi-novio-viene-del-lago.wav,./stim/wavs/peruvian_mismatch_declarative-broad-focus_Mi-novio-viene-del-lago.wav,./stim/wavs/puertorican_mismatch_declarative-broad-focus_Mi-novio-viene-del-lago.wav,,,,,,,,,,,,,,,,,,,,,,,,,,,,,,,,,,,,,,,,,,,,,,,,,,,,,,,,
,,,,,,,5cdf215da7b516001828bdda,605b45a4d25f287719a41696,6061efcd196f3a90e612bd39,Spain,Northeast,13 or older,yes,2021-03-29_11h19.11.196,empathy_intonation_perc,2020.2.10,MacIntel,60,,,,,,,,,,1,peruvian,1,1,1.58363,0,56,56,50,1,51,./stim/wavs/andalusian_mismatch_interrogative-partial-wh_Cuando-miraba-la-luna.wav,./stim/wavs/argentine_mismatch_interrogative-partial-wh_Cuando-miraba-la-luna.wav,./stim/wavs/castilian_mismatch_interrogative-partial-wh_Cuando-miraba-la-luna.wav,./stim/wavs/chilean_mismatch_interrogative-partial-wh_Cuando-miraba-la-luna.wav,./stim/wavs/cuban_mismatch_interrogative-partial-wh_Cuando-miraba-la-luna.wav,./stim/wavs/mexican_mismatch_interrogative-partial-wh_Cuando-miraba-la-luna.wav,./stim/wavs/peruvian_mismatch_interrogative-partial-wh_Cuando-miraba-la-luna.wav,./stim/wavs/puertorican_mismatch_interrogative-partial-wh_Cuando-miraba-la-luna.wav,,,,,,,,,,,,,,,,,,,,,,,,,,,,,,,,,,,,,,,,,,,,,,,,,,,,,,,,
,,,,,,,5cdf215da7b516001828bdda,605b45a4d25f287719a41696,6061efcd196f3a90e612bd39,Spain,Northeast,13 or older,yes,2021-03-29_11h19.11.196,empathy_intonation_perc,2020.2.10,MacIntel,60,,,,,,,,,,1,chilean,1,1,1.78463,0,57,57,63,1,64,./stim/wavs/andalusian_mismatch_interrogative-total-yn_Mi-tia-odia-la-lluvia.wav,./stim/wavs/argentine_mismatch_interrogative-total-yn_Mi-tia-odia-la-lluvia.wav,./stim/wavs/castilian_mismatch_interrogative-total-yn_Mi-tia-odia-la-lluvia.wav,./stim/wavs/chilean_mismatch_interrogative-total-yn_Mi-tia-odia-la-lluvia.wav,./stim/wavs/cuban_mismatch_interrogative-total-yn_Mi-tia-odia-la-lluvia.wav,./stim/wavs/mexican_mismatch_interrogative-total-yn_Mi-tia-odia-la-lluvia.wav,./stim/wavs/peruvian_mismatch_interrogative-total-yn_Mi-tia-odia-la-lluvia.wav,./stim/wavs/puertorican_mismatch_interrogative-total-yn_Mi-tia-odia-la-lluvia.wav,,,,,,,,,,,,,,,,,,,,,,,,,,,,,,,,,,,,,,,,,,,,,,,,,,,,,,,,
,,,,,,,5cdf215da7b516001828bdda,605b45a4d25f287719a41696,6061efcd196f3a90e612bd39,Spain,Northeast,13 or older,yes,2021-03-29_11h19.11.196,empathy_intonation_perc,2020.2.10,MacIntel,60,,,,,,,,,,1,cuban,1,1,2.10441,0,58,58,18,1,19,./stim/wavs/andalusian_match_interrogative-partial-wh_Cuando-lleva-el-abrigo.wav,./stim/wavs/argentine_match_interrogative-partial-wh_Cuando-lleva-el-abrigo.wav,./stim/wavs/castilian_match_interrogative-partial-wh_Cuando-lleva-el-abrigo.wav,./stim/wavs/chilean_match_interrogative-partial-wh_Cuando-lleva-el-abrigo.wav,./stim/wavs/cuban_match_interrogative-partial-wh_Cuando-lleva-el-abrigo.wav,./stim/wavs/mexican_match_interrogative-partial-wh_Cuando-lleva-el-abrigo.wav,./stim/wavs/peruvian_match_interrogative-partial-wh_Cuando-lleva-el-abrigo.wav,./stim/wavs/puertorican_match_interrogative-partial-wh_Cuando-lleva-el-abrigo.wav,,,,,,,,,,,,,,,,,,,,,,,,,,,,,,,,,,,,,,,,,,,,,,,,,,,,,,,,
,,,,,,,5cdf215da7b516001828bdda,605b45a4d25f287719a41696,6061efcd196f3a90e612bd39,Spain,Northeast,13 or older,yes,2021-03-29_11h19.11.196,empathy_intonation_perc,2020.2.10,MacIntel,60,,,,,,,,,,0,argentine,0,1,2.219855,0,59,59,12,1,13,./stim/wavs/andalusian_match_declarative-narrow-focus_Manuela-vende-el-carro.wav,./stim/wavs/argentine_match_declarative-narrow-focus_Manuela-vende-el-carro.wav,./stim/wavs/castilian_match_declarative-narrow-focus_Manuela-vende-el-carro.wav,./stim/wavs/chilean_match_declarative-narrow-focus_Manuela-vende-el-carro.wav,./stim/wavs/cuban_match_declarative-narrow-focus_Manuela-vende-el-carro.wav,./stim/wavs/mexican_match_declarative-narrow-focus_Manuela-vende-el-carro.wav,./stim/wavs/peruvian_match_declarative-narrow-focus_Manuela-vende-el-carro.wav,./stim/wavs/puertorican_match_declarative-narrow-focus_Manuela-vende-el-carro.wav,,,,,,,,,,,,,,,,,,,,,,,,,,,,,,,,,,,,,,,,,,,,,,,,,,,,,,,,
,,,,,,,5cdf215da7b516001828bdda,605b45a4d25f287719a41696,6061efcd196f3a90e612bd39,Spain,Northeast,13 or older,yes,2021-03-29_11h19.11.196,empathy_intonation_perc,2020.2.10,MacIntel,60,,,,,,,,,,1,peruvian,1,1,1.790185,0,60,60,58,1,59,./stim/wavs/andalusian_mismatch_interrogative-total-yn_El-nino-oye-el-rio.wav,./stim/wavs/argentine_mismatch_interrogative-total-yn_El-nino-oye-el-rio.wav,./stim/wavs/castilian_mismatch_interrogative-total-yn_El-nino-oye-el-rio.wav,./stim/wavs/chilean_mismatch_interrogative-total-yn_El-nino-oye-el-rio.wav,./stim/wavs/cuban_mismatch_interrogative-total-yn_El-nino-oye-el-rio.wav,./stim/wavs/mexican_mismatch_interrogative-total-yn_El-nino-oye-el-rio.wav,./stim/wavs/peruvian_mismatch_interrogative-total-yn_El-nino-oye-el-rio.wav,./stim/wavs/puertorican_mismatch_interrogative-total-yn_El-nino-oye-el-rio.wav,,,,,,,,,,,,,,,,,,,,,,,,,,,,,,,,,,,,,,,,,,,,,,,,,,,,,,,,
,,,,,,,5cdf215da7b516001828bdda,605b45a4d25f287719a41696,6061efcd196f3a90e612bd39,Spain,Northeast,13 or older,yes,2021-03-29_11h19.11.196,empathy_intonation_perc,2020.2.10,MacIntel,60,,,,,,,,,,1,argentine,0,0,1.86975,0,61,61,52,1,53,./stim/wavs/andalusian_mismatch_interrogative-partial-wh_Por-que-odiaba-la-lluvia.wav,./stim/wavs/argentine_mismatch_interrogative-partial-wh_Por-que-odiaba-la-lluvia.wav,./stim/wavs/castilian_mismatch_interrogative-partial-wh_Por-que-odiaba-la-lluvia.wav,./stim/wavs/chilean_mismatch_interrogative-partial-wh_Por-que-odiaba-la-lluvia.wav,./stim/wavs/cuban_mismatch_interrogative-partial-wh_Por-que-odiaba-la-lluvia.wav,./stim/wavs/mexican_mismatch_interrogative-partial-wh_Por-que-odiaba-la-lluvia.wav,./stim/wavs/peruvian_mismatch_interrogative-partial-wh_Por-que-odiaba-la-lluvia.wav,./stim/wavs/puertorican_mismatch_interrogative-partial-wh_Por-que-odiaba-la-lluvia.wav,,,,,,,,,,,,,,,,,,,,,,,,,,,,,,,,,,,,,,,,,,,,,,,,,,,,,,,,
,,,,,,,5cdf215da7b516001828bdda,605b45a4d25f287719a41696,6061efcd196f3a90e612bd39,Spain,Northeast,13 or older,yes,2021-03-29_11h19.11.196,empathy_intonation_perc,2020.2.10,MacIntel,60,,,,,,,,,,0,mexican,0,1,1.538165,0,62,62,0,1,1,./stim/wavs/andalusian_match_declarative-broad-focus_Ana-lleva-el-abrigo.wav,./stim/wavs/argentine_match_declarative-broad-focus_Ana-lleva-el-abrigo.wav,./stim/wavs/castilian_match_declarative-broad-focus_Ana-lleva-el-abrigo.wav,./stim/wavs/chilean_match_declarative-broad-focus_Ana-lleva-el-abrigo.wav,./stim/wavs/cuban_match_declarative-broad-focus_Ana-lleva-el-abrigo.wav,./stim/wavs/mexican_match_declarative-broad-focus_Ana-lleva-el-abrigo.wav,./stim/wavs/peruvian_match_declarative-broad-focus_Ana-lleva-el-abrigo.wav,./stim/wavs/puertorican_match_declarative-broad-focus_Ana-lleva-el-abrigo.wav,,,,,,,,,,,,,,,,,,,,,,,,,,,,,,,,,,,,,,,,,,,,,,,,,,,,,,,,
,,,,,,,5cdf215da7b516001828bdda,605b45a4d25f287719a41696,6061efcd196f3a90e612bd39,Spain,Northeast,13 or older,yes,2021-03-29_11h19.11.196,empathy_intonation_perc,2020.2.10,MacIntel,60,,,,,,,,,,0,castilian,0,1,2.06831,0,63,63,42,1,43,./stim/wavs/andalusian_mismatch_declarative-narrow-focus_El-nino-oye-el-rio.wav,./stim/wavs/argentine_mismatch_declarative-narrow-focus_El-nino-oye-el-rio.wav,./stim/wavs/castilian_mismatch_declarative-narrow-focus_El-nino-oye-el-rio.wav,./stim/wavs/chilean_mismatch_declarative-narrow-focus_El-nino-oye-el-rio.wav,./stim/wavs/cuban_mismatch_declarative-narrow-focus_El-nino-oye-el-rio.wav,./stim/wavs/mexican_mismatch_declarative-narrow-focus_El-nino-oye-el-rio.wav,./stim/wavs/peruvian_mismatch_declarative-narrow-focus_El-nino-oye-el-rio.wav,./stim/wavs/puertorican_mismatch_declarative-narrow-focus_El-nino-oye-el-rio.wav,,,,,,,,,,,,,,,,,,,,,,,,,,,,,,,,,,,,,,,,,,,,,,,,,,,,,,,,
,,,,,,,5cdf215da7b516001828bdda,605b45a4d25f287719a41696,6061efcd196f3a90e612bd39,Spain,Northeast,13 or older,yes,2021-03-29_11h19.11.196,empathy_intonation_perc,2020.2.10,MacIntel,60,,,,,,,,,,,,,,,,,,,,,,,,,,,,,h,1,3.17912,0,0,0,0,1,,,,,,,,,,,,,,,,,,,,,,,,,,,,,,,,,,,,,,,,,,,,,,,,
,,,,,"Great! Now we will move on. The next task consists of about 60 trials, in each of which you will see a string of letters. 
  
  Your task is to decide whether this is a real Spanish word or not.",(press the spacebar to continue),5cdf215da7b516001828bdda,605b45a4d25f287719a41696,6061efcd196f3a90e612bd39,Spain,Northeast,13 or older,yes,2021-03-29_11h19.11.196,empathy_intonation_perc,2020.2.10,MacIntel,60,,,,,,,,,,,,,,,,,,,,,,,,,,,,,,,,,,,,,0,0,0,0,1,,,,,,,,,,,,,,,,,,,,,,,,,,,,,,,,,,,,,,,,,,,
,,,,,"If you think it is an existing Spanish word, you type '1' (for 'REAL'), and if you think it is not an existing Spanish word, you type '0' (for 'FAKE').",(press the spacebar to continue),5cdf215da7b516001828bdda,605b45a4d25f287719a41696,6061efcd196f3a90e612bd39,Spain,Northeast,13 or older,yes,2021-03-29_11h19.11.196,empathy_intonation_perc,2020.2.10,MacIntel,60,,,,,,,,,,,,,,,,,,,,,,,,,,,,,,,,,,,,,0,1,1,1,1,,,,,,,,,,,,,,,,,,,,,,,,,,,,,,,,,,,,,,,,,,,
,,,,,"If you are sure that the word exists, even though you dont know its exact meaning, you may still respond '1' (REAL). 
  
  But if you are not sure if it is an existing word, you should respond '0' (FAKE).
  
  Let's do a practice round...",(press the spacebar to continue),5cdf215da7b516001828bdda,605b45a4d25f287719a41696,6061efcd196f3a90e612bd39,Spain,Northeast,13 or older,yes,2021-03-29_11h19.11.196,empathy_intonation_perc,2020.2.10,MacIntel,60,,,,,,,,,,,,,,,,,,,,,,,,,,,,,,,,,,,,,0,2,2,2,1,,,,,,,,,,,,,,,,,,,,,,,,,,,,,,,,,,,,,,,,,,,
,,,,,,,5cdf215da7b516001828bdda,605b45a4d25f287719a41696,6061efcd196f3a90e612bd39,Spain,Northeast,13 or older,yes,2021-03-29_11h19.11.196,empathy_intonation_perc,2020.2.10,MacIntel,60,,,,,,,,,,0,,,,,,,,,,,,,,,,,,,,,,,,,,,,,,,,1,0,2.5018,0,0,0,0,1,0,depiste,REAL,FAKE,,,,,,,,,,,,,,,,,,,,,,,,,,,,,,,
,,,,,,,5cdf215da7b516001828bdda,605b45a4d25f287719a41696,6061efcd196f3a90e612bd39,Spain,Northeast,13 or older,yes,2021-03-29_11h19.11.196,empathy_intonation_perc,2020.2.10,MacIntel,60,,,,,,,,,,1,,,,,,,,,,,,,,,,,,,,,,,,,,,,,,,,1,1,1.11567,0,1,1,1,1,0,s,REAL,FAKE,,,,,,,,,,,,,,,,,,,,,,,,,,,,,,,
,,,,,,,5cdf215da7b516001828bdda,605b45a4d25f287719a41696,6061efcd196f3a90e612bd39,Spain,Northeast,13 or older,yes,2021-03-29_11h19.11.196,empathy_intonation_perc,2020.2.10,MacIntel,60,,,,,,,,,,0,,,,,,,,,,,,,,,,,,,,,,,,,,,,,,,,0,1,1.183355,0,2,2,2,1,0,con,REAL,FAKE,,,,,,,,,,,,,,,,,,,,,,,,,,,,,,,
,,,,,,,5cdf215da7b516001828bdda,605b45a4d25f287719a41696,6061efcd196f3a90e612bd39,Spain,Northeast,13 or older,yes,2021-03-29_11h19.11.196,empathy_intonation_perc,2020.2.10,MacIntel,60,,,,,,,,,,0,,,,,,,,,,,,,,,,,,,,,,,,,,,,,,,,0,1,1.064945,0,3,3,3,1,0,calpar,REAL,FAKE,,,,,,,,,,,,,,,,,,,,,,,,,,,,,,,
,,,,,,,5cdf215da7b516001828bdda,605b45a4d25f287719a41696,6061efcd196f3a90e612bd39,Spain,Northeast,13 or older,yes,2021-03-29_11h19.11.196,empathy_intonation_perc,2020.2.10,MacIntel,60,,,,,,,,,,0,,,,,,,,,,,,,,,,,,,,,,,,,,,,,,,,0,1,0.565805,0,4,4,4,1,0,joten,REAL,FAKE,,,,,,,,,,,,,,,,,,,,,,,,,,,,,,,
,,,,,,,5cdf215da7b516001828bdda,605b45a4d25f287719a41696,6061efcd196f3a90e612bd39,Spain,Northeast,13 or older,yes,2021-03-29_11h19.11.196,empathy_intonation_perc,2020.2.10,MacIntel,60,,,,,,,,,,1,,,,,,,,,,,,,,,,,,,,,,,,,,,,,,,,0,0,1.06584,0,5,5,5,1,0,sacapuntas,REAL,FAKE,,,,,,,,,,,,,,,,,,,,,,,,,,,,,,,
,,,,,,,5cdf215da7b516001828bdda,605b45a4d25f287719a41696,6061efcd196f3a90e612bd39,Spain,Northeast,13 or older,yes,2021-03-29_11h19.11.196,empathy_intonation_perc,2020.2.10,MacIntel,60,,,,,,,,,,0,,,,,,,,,,,,,,,,,,,,,,,,,,,,,,,,0,1,0.749695,0,6,6,6,1,0,priba,REAL,FAKE,,,,,,,,,,,,,,,,,,,,,,,,,,,,,,,
,,,,,,,5cdf215da7b516001828bdda,605b45a4d25f287719a41696,6061efcd196f3a90e612bd39,Spain,Northeast,13 or older,yes,2021-03-29_11h19.11.196,empathy_intonation_perc,2020.2.10,MacIntel,60,,,,,,,,,,0,,,,,,,,,,,,,,,,,,,,,,,,,,,,,,,,0,1,1.785915,0,7,7,7,1,0,pelasula,REAL,FAKE,,,,,,,,,,,,,,,,,,,,,,,,,,,,,,,
,,,,,,,5cdf215da7b516001828bdda,605b45a4d25f287719a41696,6061efcd196f3a90e612bd39,Spain,Northeast,13 or older,yes,2021-03-29_11h19.11.196,empathy_intonation_perc,2020.2.10,MacIntel,60,,,,,,,,,,1,,,,,,,,,,,,,,,,,,,,,,,,,,,,,,,,1,1,0.73201,0,8,8,8,1,0,bien,REAL,FAKE,,,,,,,,,,,,,,,,,,,,,,,,,,,,,,,
,,,,,,,5cdf215da7b516001828bdda,605b45a4d25f287719a41696,6061efcd196f3a90e612bd39,Spain,Northeast,13 or older,yes,2021-03-29_11h19.11.196,empathy_intonation_perc,2020.2.10,MacIntel,60,,,,,,,,,,1,,,,,,,,,,,,,,,,,,,,,,,,,,,,,,,,1,1,0.66585,0,9,9,9,1,0,casa,REAL,FAKE,,,,,,,,,,,,,,,,,,,,,,,,,,,,,,,
,,,,,,,5cdf215da7b516001828bdda,605b45a4d25f287719a41696,6061efcd196f3a90e612bd39,Spain,Northeast,13 or older,yes,2021-03-29_11h19.11.196,empathy_intonation_perc,2020.2.10,MacIntel,60,,,,,,,,,,0,,,,,,,,,,,,,,,,,,,,,,,,,,,,,,,,0,1,0.9159,0,10,10,10,1,0,lejo,REAL,FAKE,,,,,,,,,,,,,,,,,,,,,,,,,,,,,,,
,,,,,,,5cdf215da7b516001828bdda,605b45a4d25f287719a41696,6061efcd196f3a90e612bd39,Spain,Northeast,13 or older,yes,2021-03-29_11h19.11.196,empathy_intonation_perc,2020.2.10,MacIntel,60,,,,,,,,,,0,,,,,,,,,,,,,,,,,,,,,,,,,,,,,,,,1,0,0.83671,0,11,11,11,1,0,pretantas,REAL,FAKE,,,,,,,,,,,,,,,,,,,,,,,,,,,,,,,
,,,,,,,5cdf215da7b516001828bdda,605b45a4d25f287719a41696,6061efcd196f3a90e612bd39,Spain,Northeast,13 or older,yes,2021-03-29_11h19.11.196,empathy_intonation_perc,2020.2.10,MacIntel,60,,,,,,,,,,1,,,,,,,,,,,,,,,,,,,,,,,,,,,,,,,,,,,,,,,,54,fomentar,,,1,1,1.58335,0,0,0,53,1,REAL,FAKE,,,,,,,,,,,,,,,,,,,,,
,,,,,,,5cdf215da7b516001828bdda,605b45a4d25f287719a41696,6061efcd196f3a90e612bd39,Spain,Northeast,13 or older,yes,2021-03-29_11h19.11.196,empathy_intonation_perc,2020.2.10,MacIntel,60,,,,,,,,,,1,,,,,,,,,,,,,,,,,,,,,,,,,,,,,,,,,,,,,,,,36,loro,,,1,1,1.06618,0,1,1,35,1,REAL,FAKE,,,,,,,,,,,,,,,,,,,,,
,,,,,,,5cdf215da7b516001828bdda,605b45a4d25f287719a41696,6061efcd196f3a90e612bd39,Spain,Northeast,13 or older,yes,2021-03-29_11h19.11.196,empathy_intonation_perc,2020.2.10,MacIntel,60,,,,,,,,,,1,,,,,,,,,,,,,,,,,,,,,,,,,,,,,,,,,,,,,,,,46,martillo,,,1,1,0.86543,0,2,2,45,1,REAL,FAKE,,,,,,,,,,,,,,,,,,,,,
,,,,,,,5cdf215da7b516001828bdda,605b45a4d25f287719a41696,6061efcd196f3a90e612bd39,Spain,Northeast,13 or older,yes,2021-03-29_11h19.11.196,empathy_intonation_perc,2020.2.10,MacIntel,60,,,,,,,,,,1,,,,,,,,,,,,,,,,,,,,,,,,,,,,,,,,,,,,,,,,83,guante,,,1,1,1.151675,0,3,3,82,1,REAL,FAKE,,,,,,,,,,,,,,,,,,,,,
,,,,,,,5cdf215da7b516001828bdda,605b45a4d25f287719a41696,6061efcd196f3a90e612bd39,Spain,Northeast,13 or older,yes,2021-03-29_11h19.11.196,empathy_intonation_perc,2020.2.10,MacIntel,60,,,,,,,,,,0,,,,,,,,,,,,,,,,,,,,,,,,,,,,,,,,,,,,,,,,1,terzo,,,1,0,0.982335,0,4,4,0,1,REAL,FAKE,,,,,,,,,,,,,,,,,,,,,
,,,,,,,5cdf215da7b516001828bdda,605b45a4d25f287719a41696,6061efcd196f3a90e612bd39,Spain,Northeast,13 or older,yes,2021-03-29_11h19.11.196,empathy_intonation_perc,2020.2.10,MacIntel,60,,,,,,,,,,1,,,,,,,,,,,,,,,,,,,,,,,,,,,,,,,,,,,,,,,,39,torpe,,,0,0,0.68313,0,5,5,38,1,REAL,FAKE,,,,,,,,,,,,,,,,,,,,,
,,,,,,,5cdf215da7b516001828bdda,605b45a4d25f287719a41696,6061efcd196f3a90e612bd39,Spain,Northeast,13 or older,yes,2021-03-29_11h19.11.196,empathy_intonation_perc,2020.2.10,MacIntel,60,,,,,,,,,,1,,,,,,,,,,,,,,,,,,,,,,,,,,,,,,,,,,,,,,,,34,aviso,,,1,1,0.918525,0,6,6,33,1,REAL,FAKE,,,,,,,,,,,,,,,,,,,,,
,,,,,,,5cdf215da7b516001828bdda,605b45a4d25f287719a41696,6061efcd196f3a90e612bd39,Spain,Northeast,13 or older,yes,2021-03-29_11h19.11.196,empathy_intonation_perc,2020.2.10,MacIntel,60,,,,,,,,,,0,,,,,,,,,,,,,,,,,,,,,,,,,,,,,,,,,,,,,,,,87,grodo,,,0,1,0.833835,0,7,7,86,1,REAL,FAKE,,,,,,,,,,,,,,,,,,,,,
,,,,,,,5cdf215da7b516001828bdda,605b45a4d25f287719a41696,6061efcd196f3a90e612bd39,Spain,Northeast,13 or older,yes,2021-03-29_11h19.11.196,empathy_intonation_perc,2020.2.10,MacIntel,60,,,,,,,,,,1,,,,,,,,,,,,,,,,,,,,,,,,,,,,,,,,,,,,,,,,40,alfombra,,,0,0,1.117875,0,8,8,39,1,REAL,FAKE,,,,,,,,,,,,,,,,,,,,,
,,,,,,,5cdf215da7b516001828bdda,605b45a4d25f287719a41696,6061efcd196f3a90e612bd39,Spain,Northeast,13 or older,yes,2021-03-29_11h19.11.196,empathy_intonation_perc,2020.2.10,MacIntel,60,,,,,,,,,,1,,,,,,,,,,,,,,,,,,,,,,,,,,,,,,,,,,,,,,,,67,cabello,,,1,1,0.73238,0,9,9,66,1,REAL,FAKE,,,,,,,,,,,,,,,,,,,,,
,,,,,,,5cdf215da7b516001828bdda,605b45a4d25f287719a41696,6061efcd196f3a90e612bd39,Spain,Northeast,13 or older,yes,2021-03-29_11h19.11.196,empathy_intonation_perc,2020.2.10,MacIntel,60,,,,,,,,,,1,,,,,,,,,,,,,,,,,,,,,,,,,,,,,,,,,,,,,,,,31,pandilla,,,1,1,1.654045,0,10,10,30,1,REAL,FAKE,,,,,,,,,,,,,,,,,,,,,
,,,,,,,5cdf215da7b516001828bdda,605b45a4d25f287719a41696,6061efcd196f3a90e612bd39,Spain,Northeast,13 or older,yes,2021-03-29_11h19.11.196,empathy_intonation_perc,2020.2.10,MacIntel,60,,,,,,,,,,1,,,,,,,,,,,,,,,,,,,,,,,,,,,,,,,,,,,,,,,,62,flaco,,,0,0,0.706765,0,11,11,61,1,REAL,FAKE,,,,,,,,,,,,,,,,,,,,,
,,,,,,,5cdf215da7b516001828bdda,605b45a4d25f287719a41696,6061efcd196f3a90e612bd39,Spain,Northeast,13 or older,yes,2021-03-29_11h19.11.196,empathy_intonation_perc,2020.2.10,MacIntel,60,,,,,,,,,,1,,,,,,,,,,,,,,,,,,,,,,,,,,,,,,,,,,,,,,,,48,ladrn,,,0,0,0.9651,0,12,12,47,1,REAL,FAKE,,,,,,,,,,,,,,,,,,,,,
,,,,,,,5cdf215da7b516001828bdda,605b45a4d25f287719a41696,6061efcd196f3a90e612bd39,Spain,Northeast,13 or older,yes,2021-03-29_11h19.11.196,empathy_intonation_perc,2020.2.10,MacIntel,60,,,,,,,,,,0,,,,,,,,,,,,,,,,,,,,,,,,,,,,,,,,,,,,,,,,66,hacido,,,1,0,1.216735,0,13,13,65,1,REAL,FAKE,,,,,,,,,,,,,,,,,,,,,
,,,,,,,5cdf215da7b516001828bdda,605b45a4d25f287719a41696,6061efcd196f3a90e612bd39,Spain,Northeast,13 or older,yes,2021-03-29_11h19.11.196,empathy_intonation_perc,2020.2.10,MacIntel,60,,,,,,,,,,1,,,,,,,,,,,,,,,,,,,,,,,,,,,,,,,,,,,,,,,,81,pozo,,,0,0,1.232715,0,14,14,80,1,REAL,FAKE,,,,,,,,,,,,,,,,,,,,,
,,,,,,,5cdf215da7b516001828bdda,605b45a4d25f287719a41696,6061efcd196f3a90e612bd39,Spain,Northeast,13 or older,yes,2021-03-29_11h19.11.196,empathy_intonation_perc,2020.2.10,MacIntel,60,,,,,,,,,,1,,,,,,,,,,,,,,,,,,,,,,,,,,,,,,,,,,,,,,,,64,orgulloso,,,0,0,0.71594,0,15,15,63,1,REAL,FAKE,,,,,,,,,,,,,,,,,,,,,
,,,,,,,5cdf215da7b516001828bdda,605b45a4d25f287719a41696,6061efcd196f3a90e612bd39,Spain,Northeast,13 or older,yes,2021-03-29_11h19.11.196,empathy_intonation_perc,2020.2.10,MacIntel,60,,,,,,,,,,1,,,,,,,,,,,,,,,,,,,,,,,,,,,,,,,,,,,,,,,,85,lad,,,0,0,1.149545,0,16,16,84,1,REAL,FAKE,,,,,,,,,,,,,,,,,,,,,
,,,,,,,5cdf215da7b516001828bdda,605b45a4d25f287719a41696,6061efcd196f3a90e612bd39,Spain,Northeast,13 or older,yes,2021-03-29_11h19.11.196,empathy_intonation_perc,2020.2.10,MacIntel,60,,,,,,,,,,1,,,,,,,,,,,,,,,,,,,,,,,,,,,,,,,,,,,,,,,,78,frondoso,,,0,0,0.74907,0,17,17,77,1,REAL,FAKE,,,,,,,,,,,,,,,,,,,,,
,,,,,,,5cdf215da7b516001828bdda,605b45a4d25f287719a41696,6061efcd196f3a90e612bd39,Spain,Northeast,13 or older,yes,2021-03-29_11h19.11.196,empathy_intonation_perc,2020.2.10,MacIntel,60,,,,,,,,,,1,,,,,,,,,,,,,,,,,,,,,,,,,,,,,,,,,,,,,,,,90,clavel,,,0,0,0.91561,0,18,18,89,1,REAL,FAKE,,,,,,,,,,,,,,,,,,,,,
,,,,,,,5cdf215da7b516001828bdda,605b45a4d25f287719a41696,6061efcd196f3a90e612bd39,Spain,Northeast,13 or older,yes,2021-03-29_11h19.11.196,empathy_intonation_perc,2020.2.10,MacIntel,60,,,,,,,,,,0,,,,,,,,,,,,,,,,,,,,,,,,,,,,,,,,,,,,,,,,53,vegada,,,1,0,0.716215,0,19,19,52,1,REAL,FAKE,,,,,,,,,,,,,,,,,,,,,
,,,,,,,5cdf215da7b516001828bdda,605b45a4d25f287719a41696,6061efcd196f3a90e612bd39,Spain,Northeast,13 or older,yes,2021-03-29_11h19.11.196,empathy_intonation_perc,2020.2.10,MacIntel,60,,,,,,,,,,1,,,,,,,,,,,,,,,,,,,,,,,,,,,,,,,,,,,,,,,,6,tergiversar,,,0,0,0.92359,0,20,20,5,1,REAL,FAKE,,,,,,,,,,,,,,,,,,,,,
,,,,,,,5cdf215da7b516001828bdda,605b45a4d25f287719a41696,6061efcd196f3a90e612bd39,Spain,Northeast,13 or older,yes,2021-03-29_11h19.11.196,empathy_intonation_perc,2020.2.10,MacIntel,60,,,,,,,,,,0,,,,,,,,,,,,,,,,,,,,,,,,,,,,,,,,,,,,,,,,8,cadea,,,0,1,0.865835,0,21,21,7,1,REAL,FAKE,,,,,,,,,,,,,,,,,,,,,
,,,,,,,5cdf215da7b516001828bdda,605b45a4d25f287719a41696,6061efcd196f3a90e612bd39,Spain,Northeast,13 or older,yes,2021-03-29_11h19.11.196,empathy_intonation_perc,2020.2.10,MacIntel,60,,,,,,,,,,1,,,,,,,,,,,,,,,,,,,,,,,,,,,,,,,,,,,,,,,,57,tacao,,,0,0,0.768235,0,22,22,56,1,REAL,FAKE,,,,,,,,,,,,,,,,,,,,,
,,,,,,,5cdf215da7b516001828bdda,605b45a4d25f287719a41696,6061efcd196f3a90e612bd39,Spain,Northeast,13 or older,yes,2021-03-29_11h19.11.196,empathy_intonation_perc,2020.2.10,MacIntel,60,,,,,,,,,,0,,,,,,,,,,,,,,,,,,,,,,,,,,,,,,,,,,,,,,,,70,temblo,,,0,1,0.58293,0,23,23,69,1,REAL,FAKE,,,,,,,,,,,,,,,,,,,,,
,,,,,,,5cdf215da7b516001828bdda,605b45a4d25f287719a41696,6061efcd196f3a90e612bd39,Spain,Northeast,13 or older,yes,2021-03-29_11h19.11.196,empathy_intonation_perc,2020.2.10,MacIntel,60,,,,,,,,,,1,,,,,,,,,,,,,,,,,,,,,,,,,,,,,,,,,,,,,,,,2,pellizcar,,,0,0,1.80231,0,24,24,1,1,REAL,FAKE,,,,,,,,,,,,,,,,,,,,,
,,,,,,,5cdf215da7b516001828bdda,605b45a4d25f287719a41696,6061efcd196f3a90e612bd39,Spain,Northeast,13 or older,yes,2021-03-29_11h19.11.196,empathy_intonation_perc,2020.2.10,MacIntel,60,,,,,,,,,,1,,,,,,,,,,,,,,,,,,,,,,,,,,,,,,,,,,,,,,,,28,merodear,,,0,0,1.05022,0,25,25,27,1,REAL,FAKE,,,,,,,,,,,,,,,,,,,,,
,,,,,,,5cdf215da7b516001828bdda,605b45a4d25f287719a41696,6061efcd196f3a90e612bd39,Spain,Northeast,13 or older,yes,2021-03-29_11h19.11.196,empathy_intonation_perc,2020.2.10,MacIntel,60,,,,,,,,,,1,,,,,,,,,,,,,,,,,,,,,,,,,,,,,,,,,,,,,,,,77,tiburn,,,0,0,0.648845,0,26,26,76,1,REAL,FAKE,,,,,,,,,,,,,,,,,,,,,
,,,,,,,5cdf215da7b516001828bdda,605b45a4d25f287719a41696,6061efcd196f3a90e612bd39,Spain,Northeast,13 or older,yes,2021-03-29_11h19.11.196,empathy_intonation_perc,2020.2.10,MacIntel,60,,,,,,,,,,1,,,,,,,,,,,,,,,,,,,,,,,,,,,,,,,,,,,,,,,,22,lacayo,,,0,0,0.84884,0,27,27,21,1,REAL,FAKE,,,,,,,,,,,,,,,,,,,,,
,,,,,,,5cdf215da7b516001828bdda,605b45a4d25f287719a41696,6061efcd196f3a90e612bd39,Spain,Northeast,13 or older,yes,2021-03-29_11h19.11.196,empathy_intonation_perc,2020.2.10,MacIntel,60,,,,,,,,,,0,,,,,,,,,,,,,,,,,,,,,,,,,,,,,,,,,,,,,,,,4,batilln,,,1,0,0.84777,0,28,28,3,1,REAL,FAKE,,,,,,,,,,,,,,,,,,,,,
,,,,,,,5cdf215da7b516001828bdda,605b45a4d25f287719a41696,6061efcd196f3a90e612bd39,Spain,Northeast,13 or older,yes,2021-03-29_11h19.11.196,empathy_intonation_perc,2020.2.10,MacIntel,60,,,,,,,,,,0,,,,,,,,,,,,,,,,,,,,,,,,,,,,,,,,,,,,,,,,72,pemicin,,,0,1,0.81755,0,29,29,71,1,REAL,FAKE,,,,,,,,,,,,,,,,,,,,,
,,,,,,,5cdf215da7b516001828bdda,605b45a4d25f287719a41696,6061efcd196f3a90e612bd39,Spain,Northeast,13 or older,yes,2021-03-29_11h19.11.196,empathy_intonation_perc,2020.2.10,MacIntel,60,,,,,,,,,,1,,,,,,,,,,,,,,,,,,,,,,,,,,,,,,,,,,,,,,,,44,cuchara,,,1,1,0.967325,0,30,30,43,1,REAL,FAKE,,,,,,,,,,,,,,,,,,,,,
,,,,,,,5cdf215da7b516001828bdda,605b45a4d25f287719a41696,6061efcd196f3a90e612bd39,Spain,Northeast,13 or older,yes,2021-03-29_11h19.11.196,empathy_intonation_perc,2020.2.10,MacIntel,60,,,,,,,,,,1,,,,,,,,,,,,,,,,,,,,,,,,,,,,,,,,,,,,,,,,45,jilguero,,,0,0,0.76571,0,31,31,44,1,REAL,FAKE,,,,,,,,,,,,,,,,,,,,,
,,,,,,,5cdf215da7b516001828bdda,605b45a4d25f287719a41696,6061efcd196f3a90e612bd39,Spain,Northeast,13 or older,yes,2021-03-29_11h19.11.196,empathy_intonation_perc,2020.2.10,MacIntel,60,,,,,,,,,,1,,,,,,,,,,,,,,,,,,,,,,,,,,,,,,,,,,,,,,,,89,prisa,,,0,0,0.885155,0,32,32,88,1,REAL,FAKE,,,,,,,,,,,,,,,,,,,,,
,,,,,,,5cdf215da7b516001828bdda,605b45a4d25f287719a41696,6061efcd196f3a90e612bd39,Spain,Northeast,13 or older,yes,2021-03-29_11h19.11.196,empathy_intonation_perc,2020.2.10,MacIntel,60,,,,,,,,,,1,,,,,,,,,,,,,,,,,,,,,,,,,,,,,,,,,,,,,,,,68,alegre,,,1,1,0.931435,0,33,33,67,1,REAL,FAKE,,,,,,,,,,,,,,,,,,,,,
,,,,,,,5cdf215da7b516001828bdda,605b45a4d25f287719a41696,6061efcd196f3a90e612bd39,Spain,Northeast,13 or older,yes,2021-03-29_11h19.11.196,empathy_intonation_perc,2020.2.10,MacIntel,60,,,,,,,,,,0,,,,,,,,,,,,,,,,,,,,,,,,,,,,,,,,,,,,,,,,63,esposante,,,1,0,1.035325,0,34,34,62,1,REAL,FAKE,,,,,,,,,,,,,,,,,,,,,
,,,,,,,5cdf215da7b516001828bdda,605b45a4d25f287719a41696,6061efcd196f3a90e612bd39,Spain,Northeast,13 or older,yes,2021-03-29_11h19.11.196,empathy_intonation_perc,2020.2.10,MacIntel,60,,,,,,,,,,1,,,,,,,,,,,,,,,,,,,,,,,,,,,,,,,,,,,,,,,,15,regar,,,0,0,0.81832,0,35,35,14,1,REAL,FAKE,,,,,,,,,,,,,,,,,,,,,
,,,,,,,5cdf215da7b516001828bdda,605b45a4d25f287719a41696,6061efcd196f3a90e612bd39,Spain,Northeast,13 or older,yes,2021-03-29_11h19.11.196,empathy_intonation_perc,2020.2.10,MacIntel,60,,,,,,,,,,0,,,,,,,,,,,,,,,,,,,,,,,,,,,,,,,,,,,,,,,,21,capillo,,,1,0,0.916665,0,36,36,20,1,REAL,FAKE,,,,,,,,,,,,,,,,,,,,,
,,,,,,,5cdf215da7b516001828bdda,605b45a4d25f287719a41696,6061efcd196f3a90e612bd39,Spain,Northeast,13 or older,yes,2021-03-29_11h19.11.196,empathy_intonation_perc,2020.2.10,MacIntel,60,,,,,,,,,,0,,,,,,,,,,,,,,,,,,,,,,,,,,,,,,,,,,,,,,,,27,acutacin,,,1,0,1.1004,0,37,37,26,1,REAL,FAKE,,,,,,,,,,,,,,,,,,,,,
,,,,,,,5cdf215da7b516001828bdda,605b45a4d25f287719a41696,6061efcd196f3a90e612bd39,Spain,Northeast,13 or older,yes,2021-03-29_11h19.11.196,empathy_intonation_perc,2020.2.10,MacIntel,60,,,,,,,,,,1,,,,,,,,,,,,,,,,,,,,,,,,,,,,,,,,,,,,,,,,76,atar,,,0,0,0.63639,0,38,38,75,1,REAL,FAKE,,,,,,,,,,,,,,,,,,,,,
,,,,,,,5cdf215da7b516001828bdda,605b45a4d25f287719a41696,6061efcd196f3a90e612bd39,Spain,Northeast,13 or older,yes,2021-03-29_11h19.11.196,empathy_intonation_perc,2020.2.10,MacIntel,60,,,,,,,,,,1,,,,,,,,,,,,,,,,,,,,,,,,,,,,,,,,,,,,,,,,86,barato,,,1,1,0.965825,0,39,39,85,1,REAL,FAKE,,,,,,,,,,,,,,,,,,,,,
,,,,,,,5cdf215da7b516001828bdda,605b45a4d25f287719a41696,6061efcd196f3a90e612bd39,Spain,Northeast,13 or older,yes,2021-03-29_11h19.11.196,empathy_intonation_perc,2020.2.10,MacIntel,60,,,,,,,,,,1,,,,,,,,,,,,,,,,,,,,,,,,,,,,,,,,,,,,,,,,25,bisagra,,,0,0,0.66762,0,40,40,24,1,REAL,FAKE,,,,,,,,,,,,,,,,,,,,,
,,,,,,,5cdf215da7b516001828bdda,605b45a4d25f287719a41696,6061efcd196f3a90e612bd39,Spain,Northeast,13 or older,yes,2021-03-29_11h19.11.196,empathy_intonation_perc,2020.2.10,MacIntel,60,,,,,,,,,,0,,,,,,,,,,,,,,,,,,,,,,,,,,,,,,,,,,,,,,,,19,brecedad,,,1,0,1.866275,0,41,41,18,1,REAL,FAKE,,,,,,,,,,,,,,,,,,,,,
,,,,,,,5cdf215da7b516001828bdda,605b45a4d25f287719a41696,6061efcd196f3a90e612bd39,Spain,Northeast,13 or older,yes,2021-03-29_11h19.11.196,empathy_intonation_perc,2020.2.10,MacIntel,60,,,,,,,,,,1,,,,,,,,,,,,,,,,,,,,,,,,,,,,,,,,,,,,,,,,55,nevar,,,1,1,1.282475,0,42,42,54,1,REAL,FAKE,,,,,,,,,,,,,,,,,,,,,
,,,,,,,5cdf215da7b516001828bdda,605b45a4d25f287719a41696,6061efcd196f3a90e612bd39,Spain,Northeast,13 or older,yes,2021-03-29_11h19.11.196,empathy_intonation_perc,2020.2.10,MacIntel,60,,,,,,,,,,0,,,,,,,,,,,,,,,,,,,,,,,,,,,,,,,,,,,,,,,,18,arsa,,,0,1,0.667875,0,43,43,17,1,REAL,FAKE,,,,,,,,,,,,,,,,,,,,,
,,,,,,,5cdf215da7b516001828bdda,605b45a4d25f287719a41696,6061efcd196f3a90e612bd39,Spain,Northeast,13 or older,yes,2021-03-29_11h19.11.196,empathy_intonation_perc,2020.2.10,MacIntel,60,,,,,,,,,,1,,,,,,,,,,,,,,,,,,,,,,,,,,,,,,,,,,,,,,,,60,matar,,,0,0,1.034725,0,44,44,59,1,REAL,FAKE,,,,,,,,,,,,,,,,,,,,,
,,,,,,,5cdf215da7b516001828bdda,605b45a4d25f287719a41696,6061efcd196f3a90e612bd39,Spain,Northeast,13 or older,yes,2021-03-29_11h19.11.196,empathy_intonation_perc,2020.2.10,MacIntel,60,,,,,,,,,,1,,,,,,,,,,,,,,,,,,,,,,,,,,,,,,,,,,,,,,,,20,vido,,,1,1,1.149525,0,45,45,19,1,REAL,FAKE,,,,,,,,,,,,,,,,,,,,,
,,,,,,,5cdf215da7b516001828bdda,605b45a4d25f287719a41696,6061efcd196f3a90e612bd39,Spain,Northeast,13 or older,yes,2021-03-29_11h19.11.196,empathy_intonation_perc,2020.2.10,MacIntel,60,,,,,,,,,,1,,,,,,,,,,,,,,,,,,,,,,,,,,,,,,,,,,,,,,,,80,hormiga,,,0,0,0.748295,0,46,46,79,1,REAL,FAKE,,,,,,,,,,,,,,,,,,,,,
,,,,,,,5cdf215da7b516001828bdda,605b45a4d25f287719a41696,6061efcd196f3a90e612bd39,Spain,Northeast,13 or older,yes,2021-03-29_11h19.11.196,empathy_intonation_perc,2020.2.10,MacIntel,60,,,,,,,,,,1,,,,,,,,,,,,,,,,,,,,,,,,,,,,,,,,,,,,,,,,56,musgo,,,0,0,1.350175,0,47,47,55,1,REAL,FAKE,,,,,,,,,,,,,,,,,,,,,
,,,,,,,5cdf215da7b516001828bdda,605b45a4d25f287719a41696,6061efcd196f3a90e612bd39,Spain,Northeast,13 or older,yes,2021-03-29_11h19.11.196,empathy_intonation_perc,2020.2.10,MacIntel,60,,,,,,,,,,0,,,,,,,,,,,,,,,,,,,,,,,,,,,,,,,,,,,,,,,,35,rompido,,,0,1,1.0654,0,48,48,34,1,REAL,FAKE,,,,,,,,,,,,,,,,,,,,,
,,,,,,,5cdf215da7b516001828bdda,605b45a4d25f287719a41696,6061efcd196f3a90e612bd39,Spain,Northeast,13 or older,yes,2021-03-29_11h19.11.196,empathy_intonation_perc,2020.2.10,MacIntel,60,,,,,,,,,,1,,,,,,,,,,,,,,,,,,,,,,,,,,,,,,,,,,,,,,,,52,camisa,,,1,1,0.613805,0,49,49,51,1,REAL,FAKE,,,,,,,,,,,,,,,,,,,,,
,,,,,,,5cdf215da7b516001828bdda,605b45a4d25f287719a41696,6061efcd196f3a90e612bd39,Spain,Northeast,13 or older,yes,2021-03-29_11h19.11.196,empathy_intonation_perc,2020.2.10,MacIntel,60,,,,,,,,,,0,,,,,,,,,,,,,,,,,,,,,,,,,,,,,,,,,,,,,,,,16,abracer,,,1,0,1.034095,0,50,50,15,1,REAL,FAKE,,,,,,,,,,,,,,,,,,,,,
,,,,,,,5cdf215da7b516001828bdda,605b45a4d25f287719a41696,6061efcd196f3a90e612bd39,Spain,Northeast,13 or older,yes,2021-03-29_11h19.11.196,empathy_intonation_perc,2020.2.10,MacIntel,60,,,,,,,,,,1,,,,,,,,,,,,,,,,,,,,,,,,,,,,,,,,,,,,,,,,12,asesinato,,,0,0,2.00204,0,51,51,11,1,REAL,FAKE,,,,,,,,,,,,,,,,,,,,,
,,,,,,,5cdf215da7b516001828bdda,605b45a4d25f287719a41696,6061efcd196f3a90e612bd39,Spain,Northeast,13 or older,yes,2021-03-29_11h19.11.196,empathy_intonation_perc,2020.2.10,MacIntel,60,,,,,,,,,,1,,,,,,,,,,,,,,,,,,,,,,,,,,,,,,,,,,,,,,,,11,cenefa,,,0,0,0.755085,0,52,52,10,1,REAL,FAKE,,,,,,,,,,,,,,,,,,,,,
,,,,,,,5cdf215da7b516001828bdda,605b45a4d25f287719a41696,6061efcd196f3a90e612bd39,Spain,Northeast,13 or older,yes,2021-03-29_11h19.11.196,empathy_intonation_perc,2020.2.10,MacIntel,60,,,,,,,,,,1,,,,,,,,,,,,,,,,,,,,,,,,,,,,,,,,,,,,,,,,75,yacer,,,0,0,0.866365,0,53,53,74,1,REAL,FAKE,,,,,,,,,,,,,,,,,,,,,
,,,,,,,5cdf215da7b516001828bdda,605b45a4d25f287719a41696,6061efcd196f3a90e612bd39,Spain,Northeast,13 or older,yes,2021-03-29_11h19.11.196,empathy_intonation_perc,2020.2.10,MacIntel,60,,,,,,,,,,1,,,,,,,,,,,,,,,,,,,,,,,,,,,,,,,,,,,,,,,,38,estornudar,,,0,0,1.366495,0,54,54,37,1,REAL,FAKE,,,,,,,,,,,,,,,,,,,,,
,,,,,,,5cdf215da7b516001828bdda,605b45a4d25f287719a41696,6061efcd196f3a90e612bd39,Spain,Northeast,13 or older,yes,2021-03-29_11h19.11.196,empathy_intonation_perc,2020.2.10,MacIntel,60,,,,,,,,,,0,,,,,,,,,,,,,,,,,,,,,,,,,,,,,,,,,,,,,,,,74,cintro,,,1,0,0.84893,0,55,55,73,1,REAL,FAKE,,,,,,,,,,,,,,,,,,,,,
,,,,,,,5cdf215da7b516001828bdda,605b45a4d25f287719a41696,6061efcd196f3a90e612bd39,Spain,Northeast,13 or older,yes,2021-03-29_11h19.11.196,empathy_intonation_perc,2020.2.10,MacIntel,60,,,,,,,,,,1,,,,,,,,,,,,,,,,,,,,,,,,,,,,,,,,,,,,,,,,24,ltigo,,,1,1,1.43305,0,56,56,23,1,REAL,FAKE,,,,,,,,,,,,,,,,,,,,,
,,,,,,,5cdf215da7b516001828bdda,605b45a4d25f287719a41696,6061efcd196f3a90e612bd39,Spain,Northeast,13 or older,yes,2021-03-29_11h19.11.196,empathy_intonation_perc,2020.2.10,MacIntel,60,,,,,,,,,,1,,,,,,,,,,,,,,,,,,,,,,,,,,,,,,,,,,,,,,,,9,hacha,,,1,1,0.782415,0,57,57,8,1,REAL,FAKE,,,,,,,,,,,,,,,,,,,,,
,,,,,,,5cdf215da7b516001828bdda,605b45a4d25f287719a41696,6061efcd196f3a90e612bd39,Spain,Northeast,13 or older,yes,2021-03-29_11h19.11.196,empathy_intonation_perc,2020.2.10,MacIntel,60,,,,,,,,,,0,,,,,,,,,,,,,,,,,,,,,,,,,,,,,,,,,,,,,,,,10,antar,,,0,1,0.731695,0,58,58,9,1,REAL,FAKE,,,,,,,,,,,,,,,,,,,,,
,,,,,,,5cdf215da7b516001828bdda,605b45a4d25f287719a41696,6061efcd196f3a90e612bd39,Spain,Northeast,13 or older,yes,2021-03-29_11h19.11.196,empathy_intonation_perc,2020.2.10,MacIntel,60,,,,,,,,,,1,,,,,,,,,,,,,,,,,,,,,,,,,,,,,,,,,,,,,,,,88,acantilado,,,0,0,0.736495,0,59,59,87,1,REAL,FAKE,,,,,,,,,,,,,,,,,,,,,
,,,,,,,5cdf215da7b516001828bdda,605b45a4d25f287719a41696,6061efcd196f3a90e612bd39,Spain,Northeast,13 or older,yes,2021-03-29_11h19.11.196,empathy_intonation_perc,2020.2.10,MacIntel,60,,,,,,,,,,1,,,,,,,,,,,,,,,,,,,,,,,,,,,,,,,,,,,,,,,,14,yunque,,,0,0,1.20202,0,60,60,13,1,REAL,FAKE,,,,,,,,,,,,,,,,,,,,,
,,,,,,,5cdf215da7b516001828bdda,605b45a4d25f287719a41696,6061efcd196f3a90e612bd39,Spain,Northeast,13 or older,yes,2021-03-29_11h19.11.196,empathy_intonation_perc,2020.2.10,MacIntel,60,,,,,,,,,,0,,,,,,,,,,,,,,,,,,,,,,,,,,,,,,,,,,,,,,,,42,cadallo,,,1,0,0.849295,0,61,61,41,1,REAL,FAKE,,,,,,,,,,,,,,,,,,,,,
,,,,,,,5cdf215da7b516001828bdda,605b45a4d25f287719a41696,6061efcd196f3a90e612bd39,Spain,Northeast,13 or older,yes,2021-03-29_11h19.11.196,empathy_intonation_perc,2020.2.10,MacIntel,60,,,,,,,,,,0,,,,,,,,,,,,,,,,,,,,,,,,,,,,,,,,,,,,,,,,84,escuto,,,1,0,1.248655,0,62,62,83,1,REAL,FAKE,,,,,,,,,,,,,,,,,,,,,
,,,,,,,5cdf215da7b516001828bdda,605b45a4d25f287719a41696,6061efcd196f3a90e612bd39,Spain,Northeast,13 or older,yes,2021-03-29_11h19.11.196,empathy_intonation_perc,2020.2.10,MacIntel,60,,,,,,,,,,1,,,,,,,,,,,,,,,,,,,,,,,,,,,,,,,,,,,,,,,,41,rebuscar,,,0,0,0.667055,0,63,63,40,1,REAL,FAKE,,,,,,,,,,,,,,,,,,,,,
,,,,,,,5cdf215da7b516001828bdda,605b45a4d25f287719a41696,6061efcd196f3a90e612bd39,Spain,Northeast,13 or older,yes,2021-03-29_11h19.11.196,empathy_intonation_perc,2020.2.10,MacIntel,60,,,,,,,,,,0,,,,,,,,,,,,,,,,,,,,,,,,,,,,,,,,,,,,,,,,50,flamida,,,0,1,0.91608,0,64,64,49,1,REAL,FAKE,,,,,,,,,,,,,,,,,,,,,
,,,,,,,5cdf215da7b516001828bdda,605b45a4d25f287719a41696,6061efcd196f3a90e612bd39,Spain,Northeast,13 or older,yes,2021-03-29_11h19.11.196,empathy_intonation_perc,2020.2.10,MacIntel,60,,,,,,,,,,1,,,,,,,,,,,,,,,,,,,,,,,,,,,,,,,,,,,,,,,,26,secuestro,,,0,0,0.9993,0,65,65,25,1,REAL,FAKE,,,,,,,,,,,,,,,,,,,,,
,,,,,,,5cdf215da7b516001828bdda,605b45a4d25f287719a41696,6061efcd196f3a90e612bd39,Spain,Northeast,13 or older,yes,2021-03-29_11h19.11.196,empathy_intonation_perc,2020.2.10,MacIntel,60,,,,,,,,,,0,,,,,,,,,,,,,,,,,,,,,,,,,,,,,,,,,,,,,,,,47,cartinar,,,0,1,0.949085,0,66,66,46,1,REAL,FAKE,,,,,,,,,,,,,,,,,,,,,
,,,,,,,5cdf215da7b516001828bdda,605b45a4d25f287719a41696,6061efcd196f3a90e612bd39,Spain,Northeast,13 or older,yes,2021-03-29_11h19.11.196,empathy_intonation_perc,2020.2.10,MacIntel,60,,,,,,,,,,0,,,,,,,,,,,,,,,,,,,,,,,,,,,,,,,,,,,,,,,,23,lampera,,,0,1,1.251895,0,67,67,22,1,REAL,FAKE,,,,,,,,,,,,,,,,,,,,,
,,,,,,,5cdf215da7b516001828bdda,605b45a4d25f287719a41696,6061efcd196f3a90e612bd39,Spain,Northeast,13 or older,yes,2021-03-29_11h19.11.196,empathy_intonation_perc,2020.2.10,MacIntel,60,,,,,,,,,,1,,,,,,,,,,,,,,,,,,,,,,,,,,,,,,,,,,,,,,,,69,engatusar,,,0,0,0.9675,0,68,68,68,1,REAL,FAKE,,,,,,,,,,,,,,,,,,,,,
,,,,,,,5cdf215da7b516001828bdda,605b45a4d25f287719a41696,6061efcd196f3a90e612bd39,Spain,Northeast,13 or older,yes,2021-03-29_11h19.11.196,empathy_intonation_perc,2020.2.10,MacIntel,60,,,,,,,,,,1,,,,,,,,,,,,,,,,,,,,,,,,,,,,,,,,,,,,,,,,73,hervidor,,,0,0,0.934635,0,69,69,72,1,REAL,FAKE,,,,,,,,,,,,,,,,,,,,,
,,,,,,,5cdf215da7b516001828bdda,605b45a4d25f287719a41696,6061efcd196f3a90e612bd39,Spain,Northeast,13 or older,yes,2021-03-29_11h19.11.196,empathy_intonation_perc,2020.2.10,MacIntel,60,,,,,,,,,,0,,,,,,,,,,,,,,,,,,,,,,,,,,,,,,,,,,,,,,,,29,decar,,,1,0,0.68566,0,70,70,28,1,REAL,FAKE,,,,,,,,,,,,,,,,,,,,,
,,,,,,,5cdf215da7b516001828bdda,605b45a4d25f287719a41696,6061efcd196f3a90e612bd39,Spain,Northeast,13 or older,yes,2021-03-29_11h19.11.196,empathy_intonation_perc,2020.2.10,MacIntel,60,,,,,,,,,,1,,,,,,,,,,,,,,,,,,,,,,,,,,,,,,,,,,,,,,,,65,bizcocho,,,0,0,0.78252,0,71,71,64,1,REAL,FAKE,,,,,,,,,,,,,,,,,,,,,
,,,,,,,5cdf215da7b516001828bdda,605b45a4d25f287719a41696,6061efcd196f3a90e612bd39,Spain,Northeast,13 or older,yes,2021-03-29_11h19.11.196,empathy_intonation_perc,2020.2.10,MacIntel,60,,,,,,,,,,1,,,,,,,,,,,,,,,,,,,,,,,,,,,,,,,,,,,,,,,,37,granuja,,,0,0,0.88277,0,72,72,36,1,REAL,FAKE,,,,,,,,,,,,,,,,,,,,,
,,,,,,,5cdf215da7b516001828bdda,605b45a4d25f287719a41696,6061efcd196f3a90e612bd39,Spain,Northeast,13 or older,yes,2021-03-29_11h19.11.196,empathy_intonation_perc,2020.2.10,MacIntel,60,,,,,,,,,,1,,,,,,,,,,,,,,,,,,,,,,,,,,,,,,,,,,,,,,,,59,besar,,,1,1,0.68241,0,73,73,58,1,REAL,FAKE,,,,,,,,,,,,,,,,,,,,,
,,,,,,,5cdf215da7b516001828bdda,605b45a4d25f287719a41696,6061efcd196f3a90e612bd39,Spain,Northeast,13 or older,yes,2021-03-29_11h19.11.196,empathy_intonation_perc,2020.2.10,MacIntel,60,,,,,,,,,,1,,,,,,,,,,,,,,,,,,,,,,,,,,,,,,,,,,,,,,,,49,ganar,,,1,1,0.749825,0,74,74,48,1,REAL,FAKE,,,,,,,,,,,,,,,,,,,,,
,,,,,,,5cdf215da7b516001828bdda,605b45a4d25f287719a41696,6061efcd196f3a90e612bd39,Spain,Northeast,13 or older,yes,2021-03-29_11h19.11.196,empathy_intonation_perc,2020.2.10,MacIntel,60,,,,,,,,,,1,,,,,,,,,,,,,,,,,,,,,,,,,,,,,,,,,,,,,,,,43,canela,,,1,1,0.73177,0,75,75,42,1,REAL,FAKE,,,,,,,,,,,,,,,,,,,,,
,,,,,,,5cdf215da7b516001828bdda,605b45a4d25f287719a41696,6061efcd196f3a90e612bd39,Spain,Northeast,13 or older,yes,2021-03-29_11h19.11.196,empathy_intonation_perc,2020.2.10,MacIntel,60,,,,,,,,,,0,,,,,,,,,,,,,,,,,,,,,,,,,,,,,,,,,,,,,,,,79,tropaje,,,0,1,0.682665,0,76,76,78,1,REAL,FAKE,,,,,,,,,,,,,,,,,,,,,
,,,,,,,5cdf215da7b516001828bdda,605b45a4d25f287719a41696,6061efcd196f3a90e612bd39,Spain,Northeast,13 or older,yes,2021-03-29_11h19.11.196,empathy_intonation_perc,2020.2.10,MacIntel,60,,,,,,,,,,0,,,,,,,,,,,,,,,,,,,,,,,,,,,,,,,,,,,,,,,,58,plaudir,,,0,1,1.282535,0,77,77,57,1,REAL,FAKE,,,,,,,,,,,,,,,,,,,,,
,,,,,,,5cdf215da7b516001828bdda,605b45a4d25f287719a41696,6061efcd196f3a90e612bd39,Spain,Northeast,13 or older,yes,2021-03-29_11h19.11.196,empathy_intonation_perc,2020.2.10,MacIntel,60,,,,,,,,,,1,,,,,,,,,,,,,,,,,,,,,,,,,,,,,,,,,,,,,,,,5,zapato,,,1,1,0.801515,0,78,78,4,1,REAL,FAKE,,,,,,,,,,,,,,,,,,,,,
,,,,,,,5cdf215da7b516001828bdda,605b45a4d25f287719a41696,6061efcd196f3a90e612bd39,Spain,Northeast,13 or older,yes,2021-03-29_11h19.11.196,empathy_intonation_perc,2020.2.10,MacIntel,60,,,,,,,,,,0,,,,,,,,,,,,,,,,,,,,,,,,,,,,,,,,,,,,,,,,82,empirador,,,1,0,0.9335,0,79,79,81,1,REAL,FAKE,,,,,,,,,,,,,,,,,,,,,
,,,,,,,5cdf215da7b516001828bdda,605b45a4d25f287719a41696,6061efcd196f3a90e612bd39,Spain,Northeast,13 or older,yes,2021-03-29_11h19.11.196,empathy_intonation_perc,2020.2.10,MacIntel,60,,,,,,,,,,0,,,,,,,,,,,,,,,,,,,,,,,,,,,,,,,,,,,,,,,,33,pauca,,,0,1,0.784715,0,80,80,32,1,REAL,FAKE,,,,,,,,,,,,,,,,,,,,,
,,,,,,,5cdf215da7b516001828bdda,605b45a4d25f287719a41696,6061efcd196f3a90e612bd39,Spain,Northeast,13 or older,yes,2021-03-29_11h19.11.196,empathy_intonation_perc,2020.2.10,MacIntel,60,,,,,,,,,,1,,,,,,,,,,,,,,,,,,,,,,,,,,,,,,,,,,,,,,,,71,polvoriento,,,0,0,1.301915,0,81,81,70,1,REAL,FAKE,,,,,,,,,,,,,,,,,,,,,
,,,,,,,5cdf215da7b516001828bdda,605b45a4d25f287719a41696,6061efcd196f3a90e612bd39,Spain,Northeast,13 or older,yes,2021-03-29_11h19.11.196,empathy_intonation_perc,2020.2.10,MacIntel,60,,,,,,,,,,0,,,,,,,,,,,,,,,,,,,,,,,,,,,,,,,,,,,,,,,,17,floroso,,,0,1,0.7648,0,82,82,16,1,REAL,FAKE,,,,,,,,,,,,,,,,,,,,,
,,,,,,,5cdf215da7b516001828bdda,605b45a4d25f287719a41696,6061efcd196f3a90e612bd39,Spain,Northeast,13 or older,yes,2021-03-29_11h19.11.196,empathy_intonation_perc,2020.2.10,MacIntel,60,,,,,,,,,,0,,,,,,,,,,,,,,,,,,,,,,,,,,,,,,,,,,,,,,,,32,fatacidad,,,0,1,1.04987,0,83,83,31,1,REAL,FAKE,,,,,,,,,,,,,,,,,,,,,
,,,,,,,5cdf215da7b516001828bdda,605b45a4d25f287719a41696,6061efcd196f3a90e612bd39,Spain,Northeast,13 or older,yes,2021-03-29_11h19.11.196,empathy_intonation_perc,2020.2.10,MacIntel,60,,,,,,,,,,1,,,,,,,,,,,,,,,,,,,,,,,,,,,,,,,,,,,,,,,,13,helar,,,0,0,0.964455,0,84,84,12,1,REAL,FAKE,,,,,,,,,,,,,,,,,,,,,
,,,,,,,5cdf215da7b516001828bdda,605b45a4d25f287719a41696,6061efcd196f3a90e612bd39,Spain,Northeast,13 or older,yes,2021-03-29_11h19.11.196,empathy_intonation_perc,2020.2.10,MacIntel,60,,,,,,,,,,1,,,,,,,,,,,,,,,,,,,,,,,,,,,,,,,,,,,,,,,,61,seda,,,1,1,0.666295,0,85,85,60,1,REAL,FAKE,,,,,,,,,,,,,,,,,,,,,
,,,,,,,5cdf215da7b516001828bdda,605b45a4d25f287719a41696,6061efcd196f3a90e612bd39,Spain,Northeast,13 or older,yes,2021-03-29_11h19.11.196,empathy_intonation_perc,2020.2.10,MacIntel,60,,,,,,,,,,1,,,,,,,,,,,,,,,,,,,,,,,,,,,,,,,,,,,,,,,,51,candado,,,0,0,0.66731,0,86,86,50,1,REAL,FAKE,,,,,,,,,,,,,,,,,,,,,
,,,,,,,5cdf215da7b516001828bdda,605b45a4d25f287719a41696,6061efcd196f3a90e612bd39,Spain,Northeast,13 or older,yes,2021-03-29_11h19.11.196,empathy_intonation_perc,2020.2.10,MacIntel,60,,,,,,,,,,0,,,,,,,,,,,,,,,,,,,,,,,,,,,,,,,,,,,,,,,,30,alardio,,,0,1,1.116595,0,87,87,29,1,REAL,FAKE,,,,,,,,,,,,,,,,,,,,,
,,,,,,,5cdf215da7b516001828bdda,605b45a4d25f287719a41696,6061efcd196f3a90e612bd39,Spain,Northeast,13 or older,yes,2021-03-29_11h19.11.196,empathy_intonation_perc,2020.2.10,MacIntel,60,,,,,,,,,,1,,,,,,,,,,,,,,,,,,,,,,,,,,,,,,,,,,,,,,,,7,psimo,,,1,1,0.88327,0,88,88,6,1,REAL,FAKE,,,,,,,,,,,,,,,,,,,,,
,,,,,,,5cdf215da7b516001828bdda,605b45a4d25f287719a41696,6061efcd196f3a90e612bd39,Spain,Northeast,13 or older,yes,2021-03-29_11h19.11.196,empathy_intonation_perc,2020.2.10,MacIntel,60,,,,,,,,,,1,,,,,,,,,,,,,,,,,,,,,,,,,,,,,,,,,,,,,,,,3,pulmones,,,0,0,0.881875,0,89,89,2,1,REAL,FAKE,,,,,,,,,,,,,,,,,,,,,
,,,,,,,5cdf215da7b516001828bdda,605b45a4d25f287719a41696,6061efcd196f3a90e612bd39,Spain,Northeast,13 or older,yes,2021-03-29_11h19.11.196,empathy_intonation_perc,2020.2.10,MacIntel,60,,,,,,,,,,,,,,,,,,,,,,,,,,,,,,,,,,,,,,,,,,,,,,,,,,,,,,,,,,,,,,,,4,1,1.94692,1,0,0,0,0,0,1,,,,,,,,,,,
,,,,,,,5cdf215da7b516001828bdda,605b45a4d25f287719a41696,6061efcd196f3a90e612bd39,Spain,Northeast,13 or older,yes,2021-03-29_11h19.11.196,empathy_intonation_perc,2020.2.10,MacIntel,60,,,,,,,,,,,,,,,,,,,,1,,,,,,,,,,,,,,,,,,,,,,,,,,,,,,,,,,,,,,,,,,,,,,,,,,,,,,2,0,0,0,0,1,I can easily tell if someone else wants to enter a conversation.,1,0,1,0
,,,,,,,5cdf215da7b516001828bdda,605b45a4d25f287719a41696,6061efcd196f3a90e612bd39,Spain,Northeast,13 or older,yes,2021-03-29_11h19.11.196,empathy_intonation_perc,2020.2.10,MacIntel,60,,,,,,,,,,,,,,,,,,,,2,,,,,,,,,,,,,,,,,,,,,,,,,,,,,,,,,,,,,,,,,,,,,,,,,,,,,,5,0,1,1,1,1,I prefer animals to humans.,0,1,0,0
,,,,,,,5cdf215da7b516001828bdda,605b45a4d25f287719a41696,6061efcd196f3a90e612bd39,Spain,Northeast,13 or older,yes,2021-03-29_11h19.11.196,empathy_intonation_perc,2020.2.10,MacIntel,60,,,,,,,,,,,,,,,,,,,,3,,,,,,,,,,,,,,,,,,,,,,,,,,,,,,,,,,,,,,,,,,,,,,,,,,,,,,2,0,2,2,2,1,I try to keep up with the current trends and fashions.,0,1,0,0
,,,,,,,5cdf215da7b516001828bdda,605b45a4d25f287719a41696,6061efcd196f3a90e612bd39,Spain,Northeast,13 or older,yes,2021-03-29_11h19.11.196,empathy_intonation_perc,2020.2.10,MacIntel,60,,,,,,,,,,,,,,,,,,,,4,,,,,,,,,,,,,,,,,,,,,,,,,,,,,,,,,,,,,,,,,,,,,,,,,,,,,,2,0,3,3,3,1,"I find it difficult to explain to others things that I understand easily, 
  when they dont understand it first time.",1,0,0,1
,,,,,,,5cdf215da7b516001828bdda,605b45a4d25f287719a41696,6061efcd196f3a90e612bd39,Spain,Northeast,13 or older,yes,2021-03-29_11h19.11.196,empathy_intonation_perc,2020.2.10,MacIntel,60,,,,,,,,,,,,,,,,,,,,5,,,,,,,,,,,,,,,,,,,,,,,,,,,,,,,,,,,,,,,,,,,,,,,,,,,,,,2,0,4,4,4,1,I dream most nights.,0,1,0,0
,,,,,,,5cdf215da7b516001828bdda,605b45a4d25f287719a41696,6061efcd196f3a90e612bd39,Spain,Northeast,13 or older,yes,2021-03-29_11h19.11.196,empathy_intonation_perc,2020.2.10,MacIntel,60,,,,,,,,,,,,,,,,,,,,6,,,,,,,,,,,,,,,,,,,,,,,,,,,,,,,,,,,,,,,,,,,,,,,,,,,,,,1,0,5,5,5,1,I really enjoy caring for other people.,1,0,1,0
