instructions_2afc_loop.thisRepN,instructions_2afc_loop.thisTrialN,instructions_2afc_loop.thisN,instructions_2afc_loop.thisIndex,instructions_2afc_loop.ran,instructions_text,continue_text,participant,study_id,session,I am most familiar with Spanish from...*,What part of the US are you from?*,At what age did you begin learning Spanish?*,Are you proficient in any languages other than English/Spanish?*,date,expName,psychopyVersion,OS,frameRate,key_resp_2afc_practice.keys,key_resp_2afc_practice.corr,key_resp_2afc_practice.rt,trials_2afc_practice_loop.thisRepN,trials_2afc_practice_loop.thisTrialN,trials_2afc_practice_loop.thisN,trials_2afc_practice_loop.thisIndex,trials_2afc_practice_loop.ran,path,correct_response,the_col,key_resp_2afc_trial.keys,key_resp_2afc_trial.corr,key_resp_2afc_trial.rt,trials_2afc_loop.thisRepN,trials_2afc_loop.thisTrialN,trials_2afc_loop.thisN,trials_2afc_loop.thisIndex,trials_2afc_loop.ran,item_num,andalusian,argentine,castilian,chilean,cuban,mexican,peruvian,puertorican,key_resp_ac1.keys,key_resp_ac1.corr,key_resp_ac1.rt,ac1_loop.thisRepN,ac1_loop.thisTrialN,ac1_loop.thisN,ac1_loop.thisIndex,ac1_loop.ran,instructions_lextale_loop.thisRepN,instructions_lextale_loop.thisTrialN,instructions_lextale_loop.thisN,instructions_lextale_loop.thisIndex,instructions_lextale_loop.ran,key_resp_lextale_practice.keys,key_resp_lextale_practice.corr,key_resp_lextale_practice.rt,trials_lextale_practice_loop.thisRepN,trials_lextale_practice_loop.thisTrialN,trials_lextale_practice_loop.thisN,trials_lextale_practice_loop.thisIndex,trials_lextale_practice_loop.ran,stim,word,prac_button_real,prac_button_false,key_resp_lextale_trial.keys,key_resp_lextale_trial.corr,key_resp_lextale_trial.rt,trials_lextale_loop.thisRepN,trials_lextale_loop.thisTrialN,trials_lextale_loop.thisN,trials_lextale_loop.thisIndex,trials_lextale_loop.ran,button_real,button_false,key_resp_ac2.keys,key_resp_ac2.corr,key_resp_ac2.rt,check_pass,check_fails,ac2_loop.thisRepN,ac2_loop.thisTrialN,ac2_loop.thisN,ac2_loop.thisIndex,ac2_loop.ran,slider_eq_trial.response,trials_eq_loop.thisRepN,trials_eq_loop.thisTrialN,trials_eq_loop.thisN,trials_eq_loop.thisIndex,trials_eq_loop.ran,item,is_test_item,is_distractor,is_agree_score,is_disagree_score
0,0,0,0,1,"In the following task you are going to hear a series of utterances. 

  You will decide if the utterances sound like questions or not using your keyboard.",(press the spacebar to continue),5d0ac7504d57690017a355ef,6057c54e64b0b4e5c128b4f9,60582c690e8a0290b6af4ab0,Mexico,East coast,12 or younger,no,2021-03-22_01h39.36.345,empathy_intonation_perc,2020.2.10,Win32,60,,,,,,,,,,,,,,,,,,,,,,,,,,,,,,,,,,,,,,,,,,,,,,,,,,,,,,,,,,,,,,,,,,,,,,,,,,,,,,,,,,,,
0,1,1,1,1,"If you believe the utterance is a question, type '1' (for 'yes') and if you do not 
  believe it is a question type '0' (for 'no').

  Let's practice a bit...",(press the spacebar to continue),5d0ac7504d57690017a355ef,6057c54e64b0b4e5c128b4f9,60582c690e8a0290b6af4ab0,Mexico,East coast,12 or younger,no,2021-03-22_01h39.36.345,empathy_intonation_perc,2020.2.10,Win32,60,,,,,,,,,,,,,,,,,,,,,,,,,,,,,,,,,,,,,,,,,,,,,,,,,,,,,,,,,,,,,,,,,,,,,,,,,,,,,,,,,,,,
,,,,,,,5d0ac7504d57690017a355ef,6057c54e64b0b4e5c128b4f9,60582c690e8a0290b6af4ab0,Mexico,East coast,12 or younger,no,2021-03-22_01h39.36.345,empathy_intonation_perc,2020.2.10,Win32,60,1,1,2.37515,0,0,0,3,1,./stim/wavs/mexican_question_filler_Felipe-no-tiene-contrasena.wav,1,,,,,,,,,,,,,,,,,,,,,,,,,,,,,,,,,,,,,,,,,,,,,,,,,,,,,,,,,,,,,,,,,,,,,,,,,,
,,,,,,,5d0ac7504d57690017a355ef,6057c54e64b0b4e5c128b4f9,60582c690e8a0290b6af4ab0,Mexico,East coast,12 or younger,no,2021-03-22_01h39.36.345,empathy_intonation_perc,2020.2.10,Win32,60,0,1,2.66725,0,1,1,5,1,./stim/wavs/andalusian_statement_filler_Alberto-nunca-se-afeita.wav,0,,,,,,,,,,,,,,,,,,,,,,,,,,,,,,,,,,,,,,,,,,,,,,,,,,,,,,,,,,,,,,,,,,,,,,,,,,
,,,,,,,5d0ac7504d57690017a355ef,6057c54e64b0b4e5c128b4f9,60582c690e8a0290b6af4ab0,Mexico,East coast,12 or younger,no,2021-03-22_01h39.36.345,empathy_intonation_perc,2020.2.10,Win32,60,1,1,1.40127,0,2,2,1,1,./stim/wavs/argentine_question_filler_Mi-vecino-habla-mucho.wav,1,,,,,,,,,,,,,,,,,,,,,,,,,,,,,,,,,,,,,,,,,,,,,,,,,,,,,,,,,,,,,,,,,,,,,,,,,,
,,,,,,,5d0ac7504d57690017a355ef,6057c54e64b0b4e5c128b4f9,60582c690e8a0290b6af4ab0,Mexico,East coast,12 or younger,no,2021-03-22_01h39.36.345,empathy_intonation_perc,2020.2.10,Win32,60,1,1,2.49841,0,3,3,2,1,./stim/wavs/chilean_question_filler_Mi-padre-cantaba-bien.wav,1,,,,,,,,,,,,,,,,,,,,,,,,,,,,,,,,,,,,,,,,,,,,,,,,,,,,,,,,,,,,,,,,,,,,,,,,,,
,,,,,,,5d0ac7504d57690017a355ef,6057c54e64b0b4e5c128b4f9,60582c690e8a0290b6af4ab0,Mexico,East coast,12 or younger,no,2021-03-22_01h39.36.345,empathy_intonation_perc,2020.2.10,Win32,60,0,1,2.34761,0,4,4,6,1,./stim/wavs/peruvian_statement_filler_El-nino-habla-con-su-madre.wav,0,,,,,,,,,,,,,,,,,,,,,,,,,,,,,,,,,,,,,,,,,,,,,,,,,,,,,,,,,,,,,,,,,,,,,,,,,,
,,,,,,,5d0ac7504d57690017a355ef,6057c54e64b0b4e5c128b4f9,60582c690e8a0290b6af4ab0,Mexico,East coast,12 or younger,no,2021-03-22_01h39.36.345,empathy_intonation_perc,2020.2.10,Win32,60,1,1,1.83522,0,5,5,0,1,./stim/wavs/castilian_question_filler_Mi-esposo-conoce-al-chico.wav,1,,,,,,,,,,,,,,,,,,,,,,,,,,,,,,,,,,,,,,,,,,,,,,,,,,,,,,,,,,,,,,,,,,,,,,,,,,
,,,,,,,5d0ac7504d57690017a355ef,6057c54e64b0b4e5c128b4f9,60582c690e8a0290b6af4ab0,Mexico,East coast,12 or younger,no,2021-03-22_01h39.36.345,empathy_intonation_perc,2020.2.10,Win32,60,0,1,2.05048,0,6,6,4,1,./stim/wavs/cuban_statement_filler_Cocinabas-por-la-noche.wav,0,,,,,,,,,,,,,,,,,,,,,,,,,,,,,,,,,,,,,,,,,,,,,,,,,,,,,,,,,,,,,,,,,,,,,,,,,,
,,,,,,,5d0ac7504d57690017a355ef,6057c54e64b0b4e5c128b4f9,60582c690e8a0290b6af4ab0,Mexico,East coast,12 or younger,no,2021-03-22_01h39.36.345,empathy_intonation_perc,2020.2.10,Win32,60,0,1,2.146985,0,7,7,7,1,./stim/wavs/puertorican_statement_filler_La-nina-pinta-con-su-amiga.wav,0,,,,,,,,,,,,,,,,,,,,,,,,,,,,,,,,,,,,,,,,,,,,,,,,,,,,,,,,,,,,,,,,,,,,,,,,,,
,,,,,,,5d0ac7504d57690017a355ef,6057c54e64b0b4e5c128b4f9,60582c690e8a0290b6af4ab0,Mexico,East coast,12 or younger,no,2021-03-22_01h39.36.345,empathy_intonation_perc,2020.2.10,Win32,60,,,,,,,,,,1,peruvian,0,0,2.04671,0,0,0,54,1,55,./stim/wavs/andalusian_mismatch_interrogative-partial-wh_Por-que-venia-del-lago.wav,./stim/wavs/argentine_mismatch_interrogative-partial-wh_Por-que-venia-del-lago.wav,./stim/wavs/castilian_mismatch_interrogative-partial-wh_Por-que-venia-del-lago.wav,./stim/wavs/chilean_mismatch_interrogative-partial-wh_Por-que-venia-del-lago.wav,./stim/wavs/cuban_mismatch_interrogative-partial-wh_Por-que-venia-del-lago.wav,./stim/wavs/mexican_mismatch_interrogative-partial-wh_Por-que-venia-del-lago.wav,./stim/wavs/peruvian_mismatch_interrogative-partial-wh_Por-que-venia-del-lago.wav,./stim/wavs/puertorican_mismatch_interrogative-partial-wh_Por-que-venia-del-lago.wav,,,,,,,,,,,,,,,,,,,,,,,,,,,,,,,,,,,,,,,,,,,,,,,,,,,,,,,,
,,,,,,,5d0ac7504d57690017a355ef,6057c54e64b0b4e5c128b4f9,60582c690e8a0290b6af4ab0,Mexico,East coast,12 or younger,no,2021-03-22_01h39.36.345,empathy_intonation_perc,2020.2.10,Win32,60,,,,,,,,,,1,mexican,1,1,1.567285,0,1,1,19,1,20,./stim/wavs/andalusian_match_interrogative-partial-wh_Cuando-vendia-el-carro.wav,./stim/wavs/argentine_match_interrogative-partial-wh_Cuando-vendia-el-carro.wav,./stim/wavs/castilian_match_interrogative-partial-wh_Cuando-vendia-el-carro.wav,./stim/wavs/chilean_match_interrogative-partial-wh_Cuando-vendia-el-carro.wav,./stim/wavs/cuban_match_interrogative-partial-wh_Cuando-vendia-el-carro.wav,./stim/wavs/mexican_match_interrogative-partial-wh_Cuando-vendia-el-carro.wav,./stim/wavs/peruvian_match_interrogative-partial-wh_Cuando-vendia-el-carro.wav,./stim/wavs/puertorican_match_interrogative-partial-wh_Cuando-vendia-el-carro.wav,,,,,,,,,,,,,,,,,,,,,,,,,,,,,,,,,,,,,,,,,,,,,,,,,,,,,,,,
,,,,,,,5d0ac7504d57690017a355ef,6057c54e64b0b4e5c128b4f9,60582c690e8a0290b6af4ab0,Mexico,East coast,12 or younger,no,2021-03-22_01h39.36.345,empathy_intonation_perc,2020.2.10,Win32,60,,,,,,,,,,0,chilean,0,1,1.64553,0,2,2,42,1,43,./stim/wavs/andalusian_mismatch_declarative-narrow-focus_El-nino-oye-el-rio.wav,./stim/wavs/argentine_mismatch_declarative-narrow-focus_El-nino-oye-el-rio.wav,./stim/wavs/castilian_mismatch_declarative-narrow-focus_El-nino-oye-el-rio.wav,./stim/wavs/chilean_mismatch_declarative-narrow-focus_El-nino-oye-el-rio.wav,./stim/wavs/cuban_mismatch_declarative-narrow-focus_El-nino-oye-el-rio.wav,./stim/wavs/mexican_mismatch_declarative-narrow-focus_El-nino-oye-el-rio.wav,./stim/wavs/peruvian_mismatch_declarative-narrow-focus_El-nino-oye-el-rio.wav,./stim/wavs/puertorican_mismatch_declarative-narrow-focus_El-nino-oye-el-rio.wav,,,,,,,,,,,,,,,,,,,,,,,,,,,,,,,,,,,,,,,,,,,,,,,,,,,,,,,,
,,,,,,,5d0ac7504d57690017a355ef,6057c54e64b0b4e5c128b4f9,60582c690e8a0290b6af4ab0,Mexico,East coast,12 or younger,no,2021-03-22_01h39.36.345,empathy_intonation_perc,2020.2.10,Win32,60,,,,,,,,,,1,argentine,0,0,1.773975,0,3,3,17,1,18,./stim/wavs/andalusian_match_interrogative-partial-wh_Cuando-leia-el-libro.wav,./stim/wavs/argentine_match_interrogative-partial-wh_Cuando-leia-el-libro.wav,./stim/wavs/castilian_match_interrogative-partial-wh_Cuando-leia-el-libro.wav,./stim/wavs/chilean_match_interrogative-partial-wh_Cuando-leia-el-libro.wav,./stim/wavs/cuban_match_interrogative-partial-wh_Cuando-leia-el-libro.wav,./stim/wavs/mexican_match_interrogative-partial-wh_Cuando-leia-el-libro.wav,./stim/wavs/peruvian_match_interrogative-partial-wh_Cuando-leia-el-libro.wav,./stim/wavs/puertorican_match_interrogative-partial-wh_Cuando-leia-el-libro.wav,,,,,,,,,,,,,,,,,,,,,,,,,,,,,,,,,,,,,,,,,,,,,,,,,,,,,,,,
,,,,,,,5d0ac7504d57690017a355ef,6057c54e64b0b4e5c128b4f9,60582c690e8a0290b6af4ab0,Mexico,East coast,12 or younger,no,2021-03-22_01h39.36.345,empathy_intonation_perc,2020.2.10,Win32,60,,,,,,,,,,1,chilean,1,1,1.63671,0,4,4,50,1,51,./stim/wavs/andalusian_mismatch_interrogative-partial-wh_Cuando-miraba-la-luna.wav,./stim/wavs/argentine_mismatch_interrogative-partial-wh_Cuando-miraba-la-luna.wav,./stim/wavs/castilian_mismatch_interrogative-partial-wh_Cuando-miraba-la-luna.wav,./stim/wavs/chilean_mismatch_interrogative-partial-wh_Cuando-miraba-la-luna.wav,./stim/wavs/cuban_mismatch_interrogative-partial-wh_Cuando-miraba-la-luna.wav,./stim/wavs/mexican_mismatch_interrogative-partial-wh_Cuando-miraba-la-luna.wav,./stim/wavs/peruvian_mismatch_interrogative-partial-wh_Cuando-miraba-la-luna.wav,./stim/wavs/puertorican_mismatch_interrogative-partial-wh_Cuando-miraba-la-luna.wav,,,,,,,,,,,,,,,,,,,,,,,,,,,,,,,,,,,,,,,,,,,,,,,,,,,,,,,,
,,,,,,,5d0ac7504d57690017a355ef,6057c54e64b0b4e5c128b4f9,60582c690e8a0290b6af4ab0,Mexico,East coast,12 or younger,no,2021-03-22_01h39.36.345,empathy_intonation_perc,2020.2.10,Win32,60,,,,,,,,,,0,cuban,0,1,1.902575,0,5,5,4,1,5,./stim/wavs/andalusian_match_declarative-broad-focus_Manuela-vende-el-carro.wav,./stim/wavs/argentine_match_declarative-broad-focus_Manuela-vende-el-carro.wav,./stim/wavs/castilian_match_declarative-broad-focus_Manuela-vende-el-carro.wav,./stim/wavs/chilean_match_declarative-broad-focus_Manuela-vende-el-carro.wav,./stim/wavs/cuban_match_declarative-broad-focus_Manuela-vende-el-carro.wav,./stim/wavs/mexican_match_declarative-broad-focus_Manuela-vende-el-carro.wav,./stim/wavs/peruvian_match_declarative-broad-focus_Manuela-vende-el-carro.wav,./stim/wavs/puertorican_match_declarative-broad-focus_Manuela-vende-el-carro.wav,,,,,,,,,,,,,,,,,,,,,,,,,,,,,,,,,,,,,,,,,,,,,,,,,,,,,,,,
,,,,,,,5d0ac7504d57690017a355ef,6057c54e64b0b4e5c128b4f9,60582c690e8a0290b6af4ab0,Mexico,East coast,12 or younger,no,2021-03-22_01h39.36.345,empathy_intonation_perc,2020.2.10,Win32,60,,,,,,,,,,0,castilian,0,1,2.678155,0,6,6,13,1,14,./stim/wavs/andalusian_match_declarative-narrow-focus_Maria-bebe-el-vino.wav,./stim/wavs/argentine_match_declarative-narrow-focus_Maria-bebe-el-vino.wav,./stim/wavs/castilian_match_declarative-narrow-focus_Maria-bebe-el-vino.wav,./stim/wavs/chilean_match_declarative-narrow-focus_Maria-bebe-el-vino.wav,./stim/wavs/cuban_match_declarative-narrow-focus_Maria-bebe-el-vino.wav,./stim/wavs/mexican_match_declarative-narrow-focus_Maria-bebe-el-vino.wav,./stim/wavs/peruvian_match_declarative-narrow-focus_Maria-bebe-el-vino.wav,./stim/wavs/puertorican_match_declarative-narrow-focus_Maria-bebe-el-vino.wav,,,,,,,,,,,,,,,,,,,,,,,,,,,,,,,,,,,,,,,,,,,,,,,,,,,,,,,,
,,,,,,,5d0ac7504d57690017a355ef,6057c54e64b0b4e5c128b4f9,60582c690e8a0290b6af4ab0,Mexico,East coast,12 or younger,no,2021-03-22_01h39.36.345,empathy_intonation_perc,2020.2.10,Win32,60,,,,,,,,,,1,cuban,1,1,1.73599,0,7,7,53,1,54,./stim/wavs/andalusian_mismatch_interrogative-partial-wh_Por-que-oia-el-rio.wav,./stim/wavs/argentine_mismatch_interrogative-partial-wh_Por-que-oia-el-rio.wav,./stim/wavs/castilian_mismatch_interrogative-partial-wh_Por-que-oia-el-rio.wav,./stim/wavs/chilean_mismatch_interrogative-partial-wh_Por-que-oia-el-rio.wav,./stim/wavs/cuban_mismatch_interrogative-partial-wh_Por-que-oia-el-rio.wav,./stim/wavs/mexican_mismatch_interrogative-partial-wh_Por-que-oia-el-rio.wav,./stim/wavs/peruvian_mismatch_interrogative-partial-wh_Por-que-oia-el-rio.wav,./stim/wavs/puertorican_mismatch_interrogative-partial-wh_Por-que-oia-el-rio.wav,,,,,,,,,,,,,,,,,,,,,,,,,,,,,,,,,,,,,,,,,,,,,,,,,,,,,,,,
,,,,,,,5d0ac7504d57690017a355ef,6057c54e64b0b4e5c128b4f9,60582c690e8a0290b6af4ab0,Mexico,East coast,12 or younger,no,2021-03-22_01h39.36.345,empathy_intonation_perc,2020.2.10,Win32,60,,,,,,,,,,0,peruvian,0,1,2.04367,0,8,8,36,1,37,./stim/wavs/andalusian_mismatch_declarative-broad-focus_La-nina-lava-el-plato.wav,./stim/wavs/argentine_mismatch_declarative-broad-focus_La-nina-lava-el-plato.wav,./stim/wavs/castilian_mismatch_declarative-broad-focus_La-nina-lava-el-plato.wav,./stim/wavs/chilean_mismatch_declarative-broad-focus_La-nina-lava-el-plato.wav,./stim/wavs/cuban_mismatch_declarative-broad-focus_La-nina-lava-el-plato.wav,./stim/wavs/mexican_mismatch_declarative-broad-focus_La-nina-lava-el-plato.wav,./stim/wavs/peruvian_mismatch_declarative-broad-focus_La-nina-lava-el-plato.wav,./stim/wavs/puertorican_mismatch_declarative-broad-focus_La-nina-lava-el-plato.wav,,,,,,,,,,,,,,,,,,,,,,,,,,,,,,,,,,,,,,,,,,,,,,,,,,,,,,,,
,,,,,,,5d0ac7504d57690017a355ef,6057c54e64b0b4e5c128b4f9,60582c690e8a0290b6af4ab0,Mexico,East coast,12 or younger,no,2021-03-22_01h39.36.345,empathy_intonation_perc,2020.2.10,Win32,60,,,,,,,,,,1,castilian,1,1,1.450235,0,9,9,25,1,26,./stim/wavs/andalusian_match_interrogative-total-yn_Daniel-iba-a-Bolivia.wav,./stim/wavs/argentine_match_interrogative-total-yn_Daniel-iba-a-Bolivia.wav,./stim/wavs/castilian_match_interrogative-total-yn_Daniel-iba-a-Bolivia.wav,./stim/wavs/chilean_match_interrogative-total-yn_Daniel-iba-a-Bolivia.wav,./stim/wavs/cuban_match_interrogative-total-yn_Daniel-iba-a-Bolivia.wav,./stim/wavs/mexican_match_interrogative-total-yn_Daniel-iba-a-Bolivia.wav,./stim/wavs/peruvian_match_interrogative-total-yn_Daniel-iba-a-Bolivia.wav,./stim/wavs/puertorican_match_interrogative-total-yn_Daniel-iba-a-Bolivia.wav,,,,,,,,,,,,,,,,,,,,,,,,,,,,,,,,,,,,,,,,,,,,,,,,,,,,,,,,
,,,,,,,5d0ac7504d57690017a355ef,6057c54e64b0b4e5c128b4f9,60582c690e8a0290b6af4ab0,Mexico,East coast,12 or younger,no,2021-03-22_01h39.36.345,empathy_intonation_perc,2020.2.10,Win32,60,,,,,,,,,,0,andalusian,0,1,1.90269,0,10,10,37,1,38,./stim/wavs/andalusian_mismatch_declarative-broad-focus_Mi-madre-come-la-fruta.wav,./stim/wavs/argentine_mismatch_declarative-broad-focus_Mi-madre-come-la-fruta.wav,./stim/wavs/castilian_mismatch_declarative-broad-focus_Mi-madre-come-la-fruta.wav,./stim/wavs/chilean_mismatch_declarative-broad-focus_Mi-madre-come-la-fruta.wav,./stim/wavs/cuban_mismatch_declarative-broad-focus_Mi-madre-come-la-fruta.wav,./stim/wavs/mexican_mismatch_declarative-broad-focus_Mi-madre-come-la-fruta.wav,./stim/wavs/peruvian_mismatch_declarative-broad-focus_Mi-madre-come-la-fruta.wav,./stim/wavs/puertorican_mismatch_declarative-broad-focus_Mi-madre-come-la-fruta.wav,,,,,,,,,,,,,,,,,,,,,,,,,,,,,,,,,,,,,,,,,,,,,,,,,,,,,,,,
,,,,,,,5d0ac7504d57690017a355ef,6057c54e64b0b4e5c128b4f9,60582c690e8a0290b6af4ab0,Mexico,East coast,12 or younger,no,2021-03-22_01h39.36.345,empathy_intonation_perc,2020.2.10,Win32,60,,,,,,,,,,1,mexican,1,1,1.755435,0,11,11,30,1,31,./stim/wavs/andalusian_match_interrogative-total-yn_Mariano-habla-del-tiempo.wav,./stim/wavs/argentine_match_interrogative-total-yn_Mariano-habla-del-tiempo.wav,./stim/wavs/castilian_match_interrogative-total-yn_Mariano-habla-del-tiempo.wav,./stim/wavs/chilean_match_interrogative-total-yn_Mariano-habla-del-tiempo.wav,./stim/wavs/cuban_match_interrogative-total-yn_Mariano-habla-del-tiempo.wav,./stim/wavs/mexican_match_interrogative-total-yn_Mariano-habla-del-tiempo.wav,./stim/wavs/peruvian_match_interrogative-total-yn_Mariano-habla-del-tiempo.wav,./stim/wavs/puertorican_match_interrogative-total-yn_Mariano-habla-del-tiempo.wav,,,,,,,,,,,,,,,,,,,,,,,,,,,,,,,,,,,,,,,,,,,,,,,,,,,,,,,,
,,,,,,,5d0ac7504d57690017a355ef,6057c54e64b0b4e5c128b4f9,60582c690e8a0290b6af4ab0,Mexico,East coast,12 or younger,no,2021-03-22_01h39.36.345,empathy_intonation_perc,2020.2.10,Win32,60,,,,,,,,,,0,andalusian,0,1,2.70293,0,12,12,33,1,34,./stim/wavs/andalusian_mismatch_declarative-broad-focus_El-hombre-mira-la-luna.wav,./stim/wavs/argentine_mismatch_declarative-broad-focus_El-hombre-mira-la-luna.wav,./stim/wavs/castilian_mismatch_declarative-broad-focus_El-hombre-mira-la-luna.wav,./stim/wavs/chilean_mismatch_declarative-broad-focus_El-hombre-mira-la-luna.wav,./stim/wavs/cuban_mismatch_declarative-broad-focus_El-hombre-mira-la-luna.wav,./stim/wavs/mexican_mismatch_declarative-broad-focus_El-hombre-mira-la-luna.wav,./stim/wavs/peruvian_mismatch_declarative-broad-focus_El-hombre-mira-la-luna.wav,./stim/wavs/puertorican_mismatch_declarative-broad-focus_El-hombre-mira-la-luna.wav,,,,,,,,,,,,,,,,,,,,,,,,,,,,,,,,,,,,,,,,,,,,,,,,,,,,,,,,
,,,,,,,5d0ac7504d57690017a355ef,6057c54e64b0b4e5c128b4f9,60582c690e8a0290b6af4ab0,Mexico,East coast,12 or younger,no,2021-03-22_01h39.36.345,empathy_intonation_perc,2020.2.10,Win32,60,,,,,,,,,,0,mexican,0,1,2.08506,0,13,13,35,1,36,./stim/wavs/andalusian_mismatch_declarative-broad-focus_La-maestra-vive-en-Paris.wav,./stim/wavs/argentine_mismatch_declarative-broad-focus_La-maestra-vive-en-Paris.wav,./stim/wavs/castilian_mismatch_declarative-broad-focus_La-maestra-vive-en-Paris.wav,./stim/wavs/chilean_mismatch_declarative-broad-focus_La-maestra-vive-en-Paris.wav,./stim/wavs/cuban_mismatch_declarative-broad-focus_La-maestra-vive-en-Paris.wav,./stim/wavs/mexican_mismatch_declarative-broad-focus_La-maestra-vive-en-Paris.wav,./stim/wavs/peruvian_mismatch_declarative-broad-focus_La-maestra-vive-en-Paris.wav,./stim/wavs/puertorican_mismatch_declarative-broad-focus_La-maestra-vive-en-Paris.wav,,,,,,,,,,,,,,,,,,,,,,,,,,,,,,,,,,,,,,,,,,,,,,,,,,,,,,,,
,,,,,,,5d0ac7504d57690017a355ef,6057c54e64b0b4e5c128b4f9,60582c690e8a0290b6af4ab0,Mexico,East coast,12 or younger,no,2021-03-22_01h39.36.345,empathy_intonation_perc,2020.2.10,Win32,60,,,,,,,,,,1,andalusian,1,1,1.55714,0,14,14,61,1,62,./stim/wavs/andalusian_mismatch_interrogative-total-yn_Mi-madre-come-la-fruta.wav,./stim/wavs/argentine_mismatch_interrogative-total-yn_Mi-madre-come-la-fruta.wav,./stim/wavs/castilian_mismatch_interrogative-total-yn_Mi-madre-come-la-fruta.wav,./stim/wavs/chilean_mismatch_interrogative-total-yn_Mi-madre-come-la-fruta.wav,./stim/wavs/cuban_mismatch_interrogative-total-yn_Mi-madre-come-la-fruta.wav,./stim/wavs/mexican_mismatch_interrogative-total-yn_Mi-madre-come-la-fruta.wav,./stim/wavs/peruvian_mismatch_interrogative-total-yn_Mi-madre-come-la-fruta.wav,./stim/wavs/puertorican_mismatch_interrogative-total-yn_Mi-madre-come-la-fruta.wav,,,,,,,,,,,,,,,,,,,,,,,,,,,,,,,,,,,,,,,,,,,,,,,,,,,,,,,,
,,,,,,,5d0ac7504d57690017a355ef,6057c54e64b0b4e5c128b4f9,60582c690e8a0290b6af4ab0,Mexico,East coast,12 or younger,no,2021-03-22_01h39.36.345,empathy_intonation_perc,2020.2.10,Win32,60,,,,,,,,,,1,argentine,1,1,1.83609,0,15,15,28,1,29,./stim/wavs/andalusian_match_interrogative-total-yn_Manuela-vende-el-carro.wav,./stim/wavs/argentine_match_interrogative-total-yn_Manuela-vende-el-carro.wav,./stim/wavs/castilian_match_interrogative-total-yn_Manuela-vende-el-carro.wav,./stim/wavs/chilean_match_interrogative-total-yn_Manuela-vende-el-carro.wav,./stim/wavs/cuban_match_interrogative-total-yn_Manuela-vende-el-carro.wav,./stim/wavs/mexican_match_interrogative-total-yn_Manuela-vende-el-carro.wav,./stim/wavs/peruvian_match_interrogative-total-yn_Manuela-vende-el-carro.wav,./stim/wavs/puertorican_match_interrogative-total-yn_Manuela-vende-el-carro.wav,,,,,,,,,,,,,,,,,,,,,,,,,,,,,,,,,,,,,,,,,,,,,,,,,,,,,,,,
,,,,,,,5d0ac7504d57690017a355ef,6057c54e64b0b4e5c128b4f9,60582c690e8a0290b6af4ab0,Mexico,East coast,12 or younger,no,2021-03-22_01h39.36.345,empathy_intonation_perc,2020.2.10,Win32,60,,,,,,,,,,1,peruvian,1,1,1.701025,0,16,16,48,1,49,./stim/wavs/andalusian_mismatch_interrogative-partial-wh_Cuando-comia-la-fruta.wav,./stim/wavs/argentine_mismatch_interrogative-partial-wh_Cuando-comia-la-fruta.wav,./stim/wavs/castilian_mismatch_interrogative-partial-wh_Cuando-comia-la-fruta.wav,./stim/wavs/chilean_mismatch_interrogative-partial-wh_Cuando-comia-la-fruta.wav,./stim/wavs/cuban_mismatch_interrogative-partial-wh_Cuando-comia-la-fruta.wav,./stim/wavs/mexican_mismatch_interrogative-partial-wh_Cuando-comia-la-fruta.wav,./stim/wavs/peruvian_mismatch_interrogative-partial-wh_Cuando-comia-la-fruta.wav,./stim/wavs/puertorican_mismatch_interrogative-partial-wh_Cuando-comia-la-fruta.wav,,,,,,,,,,,,,,,,,,,,,,,,,,,,,,,,,,,,,,,,,,,,,,,,,,,,,,,,
,,,,,,,5d0ac7504d57690017a355ef,6057c54e64b0b4e5c128b4f9,60582c690e8a0290b6af4ab0,Mexico,East coast,12 or younger,no,2021-03-22_01h39.36.345,empathy_intonation_perc,2020.2.10,Win32,60,,,,,,,,,,0,mexican,0,1,1.596405,0,17,17,40,1,41,./stim/wavs/andalusian_mismatch_declarative-narrow-focus_El-bebe-comia-muy-bien.wav,./stim/wavs/argentine_mismatch_declarative-narrow-focus_El-bebe-comia-muy-bien.wav,./stim/wavs/castilian_mismatch_declarative-narrow-focus_El-bebe-comia-muy-bien.wav,./stim/wavs/chilean_mismatch_declarative-narrow-focus_El-bebe-comia-muy-bien.wav,./stim/wavs/cuban_mismatch_declarative-narrow-focus_El-bebe-comia-muy-bien.wav,./stim/wavs/mexican_mismatch_declarative-narrow-focus_El-bebe-comia-muy-bien.wav,./stim/wavs/peruvian_mismatch_declarative-narrow-focus_El-bebe-comia-muy-bien.wav,./stim/wavs/puertorican_mismatch_declarative-narrow-focus_El-bebe-comia-muy-bien.wav,,,,,,,,,,,,,,,,,,,,,,,,,,,,,,,,,,,,,,,,,,,,,,,,,,,,,,,,
,,,,,,,5d0ac7504d57690017a355ef,6057c54e64b0b4e5c128b4f9,60582c690e8a0290b6af4ab0,Mexico,East coast,12 or younger,no,2021-03-22_01h39.36.345,empathy_intonation_perc,2020.2.10,Win32,60,,,,,,,,,,0,puertorican,0,1,1.907725,0,18,18,11,1,12,./stim/wavs/andalusian_match_declarative-narrow-focus_Emilio-ama-la-marcha.wav,./stim/wavs/argentine_match_declarative-narrow-focus_Emilio-ama-la-marcha.wav,./stim/wavs/castilian_match_declarative-narrow-focus_Emilio-ama-la-marcha.wav,./stim/wavs/chilean_match_declarative-narrow-focus_Emilio-ama-la-marcha.wav,./stim/wavs/cuban_match_declarative-narrow-focus_Emilio-ama-la-marcha.wav,./stim/wavs/mexican_match_declarative-narrow-focus_Emilio-ama-la-marcha.wav,./stim/wavs/peruvian_match_declarative-narrow-focus_Emilio-ama-la-marcha.wav,./stim/wavs/puertorican_match_declarative-narrow-focus_Emilio-ama-la-marcha.wav,,,,,,,,,,,,,,,,,,,,,,,,,,,,,,,,,,,,,,,,,,,,,,,,,,,,,,,,
,,,,,,,5d0ac7504d57690017a355ef,6057c54e64b0b4e5c128b4f9,60582c690e8a0290b6af4ab0,Mexico,East coast,12 or younger,no,2021-03-22_01h39.36.345,empathy_intonation_perc,2020.2.10,Win32,60,,,,,,,,,,0,andalusian,0,1,2.36928,0,19,19,34,1,35,./stim/wavs/andalusian_mismatch_declarative-broad-focus_El-nino-oye-el-rio.wav,./stim/wavs/argentine_mismatch_declarative-broad-focus_El-nino-oye-el-rio.wav,./stim/wavs/castilian_mismatch_declarative-broad-focus_El-nino-oye-el-rio.wav,./stim/wavs/chilean_mismatch_declarative-broad-focus_El-nino-oye-el-rio.wav,./stim/wavs/cuban_mismatch_declarative-broad-focus_El-nino-oye-el-rio.wav,./stim/wavs/mexican_mismatch_declarative-broad-focus_El-nino-oye-el-rio.wav,./stim/wavs/peruvian_mismatch_declarative-broad-focus_El-nino-oye-el-rio.wav,./stim/wavs/puertorican_mismatch_declarative-broad-focus_El-nino-oye-el-rio.wav,,,,,,,,,,,,,,,,,,,,,,,,,,,,,,,,,,,,,,,,,,,,,,,,,,,,,,,,
,,,,,,,5d0ac7504d57690017a355ef,6057c54e64b0b4e5c128b4f9,60582c690e8a0290b6af4ab0,Mexico,East coast,12 or younger,no,2021-03-22_01h39.36.345,empathy_intonation_perc,2020.2.10,Win32,60,,,,,,,,,,1,puertorican,1,1,3.55111,0,20,20,29,1,30,./stim/wavs/andalusian_match_interrogative-total-yn_Maria-bebe-el-vino.wav,./stim/wavs/argentine_match_interrogative-total-yn_Maria-bebe-el-vino.wav,./stim/wavs/castilian_match_interrogative-total-yn_Maria-bebe-el-vino.wav,./stim/wavs/chilean_match_interrogative-total-yn_Maria-bebe-el-vino.wav,./stim/wavs/cuban_match_interrogative-total-yn_Maria-bebe-el-vino.wav,./stim/wavs/mexican_match_interrogative-total-yn_Maria-bebe-el-vino.wav,./stim/wavs/peruvian_match_interrogative-total-yn_Maria-bebe-el-vino.wav,./stim/wavs/puertorican_match_interrogative-total-yn_Maria-bebe-el-vino.wav,,,,,,,,,,,,,,,,,,,,,,,,,,,,,,,,,,,,,,,,,,,,,,,,,,,,,,,,
,,,,,,,5d0ac7504d57690017a355ef,6057c54e64b0b4e5c128b4f9,60582c690e8a0290b6af4ab0,Mexico,East coast,12 or younger,no,2021-03-22_01h39.36.345,empathy_intonation_perc,2020.2.10,Win32,60,,,,,,,,,,0,castilian,0,1,1.622535,0,21,21,8,1,9,./stim/wavs/andalusian_match_declarative-narrow-focus_Ana-lleva-el-abrigo.wav,./stim/wavs/argentine_match_declarative-narrow-focus_Ana-lleva-el-abrigo.wav,./stim/wavs/castilian_match_declarative-narrow-focus_Ana-lleva-el-abrigo.wav,./stim/wavs/chilean_match_declarative-narrow-focus_Ana-lleva-el-abrigo.wav,./stim/wavs/cuban_match_declarative-narrow-focus_Ana-lleva-el-abrigo.wav,./stim/wavs/mexican_match_declarative-narrow-focus_Ana-lleva-el-abrigo.wav,./stim/wavs/peruvian_match_declarative-narrow-focus_Ana-lleva-el-abrigo.wav,./stim/wavs/puertorican_match_declarative-narrow-focus_Ana-lleva-el-abrigo.wav,,,,,,,,,,,,,,,,,,,,,,,,,,,,,,,,,,,,,,,,,,,,,,,,,,,,,,,,
,,,,,,,5d0ac7504d57690017a355ef,6057c54e64b0b4e5c128b4f9,60582c690e8a0290b6af4ab0,Mexico,East coast,12 or younger,no,2021-03-22_01h39.36.345,empathy_intonation_perc,2020.2.10,Win32,60,,,,,,,,,,0,puertorican,0,1,2.00285,0,22,22,0,1,1,./stim/wavs/andalusian_match_declarative-broad-focus_Ana-lleva-el-abrigo.wav,./stim/wavs/argentine_match_declarative-broad-focus_Ana-lleva-el-abrigo.wav,./stim/wavs/castilian_match_declarative-broad-focus_Ana-lleva-el-abrigo.wav,./stim/wavs/chilean_match_declarative-broad-focus_Ana-lleva-el-abrigo.wav,./stim/wavs/cuban_match_declarative-broad-focus_Ana-lleva-el-abrigo.wav,./stim/wavs/mexican_match_declarative-broad-focus_Ana-lleva-el-abrigo.wav,./stim/wavs/peruvian_match_declarative-broad-focus_Ana-lleva-el-abrigo.wav,./stim/wavs/puertorican_match_declarative-broad-focus_Ana-lleva-el-abrigo.wav,,,,,,,,,,,,,,,,,,,,,,,,,,,,,,,,,,,,,,,,,,,,,,,,,,,,,,,,
,,,,,,,5d0ac7504d57690017a355ef,6057c54e64b0b4e5c128b4f9,60582c690e8a0290b6af4ab0,Mexico,East coast,12 or younger,no,2021-03-22_01h39.36.345,empathy_intonation_perc,2020.2.10,Win32,60,,,,,,,,,,0,andalusian,0,1,1.891915,0,23,23,3,1,4,./stim/wavs/andalusian_match_declarative-broad-focus_Emilio-ama-la-marcha.wav,./stim/wavs/argentine_match_declarative-broad-focus_Emilio-ama-la-marcha.wav,./stim/wavs/castilian_match_declarative-broad-focus_Emilio-ama-la-marcha.wav,./stim/wavs/chilean_match_declarative-broad-focus_Emilio-ama-la-marcha.wav,./stim/wavs/cuban_match_declarative-broad-focus_Emilio-ama-la-marcha.wav,./stim/wavs/mexican_match_declarative-broad-focus_Emilio-ama-la-marcha.wav,./stim/wavs/peruvian_match_declarative-broad-focus_Emilio-ama-la-marcha.wav,./stim/wavs/puertorican_match_declarative-broad-focus_Emilio-ama-la-marcha.wav,,,,,,,,,,,,,,,,,,,,,,,,,,,,,,,,,,,,,,,,,,,,,,,,,,,,,,,,
,,,,,,,5d0ac7504d57690017a355ef,6057c54e64b0b4e5c128b4f9,60582c690e8a0290b6af4ab0,Mexico,East coast,12 or younger,no,2021-03-22_01h39.36.345,empathy_intonation_perc,2020.2.10,Win32,60,,,,,,,,,,0,peruvian,0,1,2.94065,0,24,24,14,1,15,./stim/wavs/andalusian_match_declarative-narrow-focus_Mariano-habla-del-tiempo.wav,./stim/wavs/argentine_match_declarative-narrow-focus_Mariano-habla-del-tiempo.wav,./stim/wavs/castilian_match_declarative-narrow-focus_Mariano-habla-del-tiempo.wav,./stim/wavs/chilean_match_declarative-narrow-focus_Mariano-habla-del-tiempo.wav,./stim/wavs/cuban_match_declarative-narrow-focus_Mariano-habla-del-tiempo.wav,./stim/wavs/mexican_match_declarative-narrow-focus_Mariano-habla-del-tiempo.wav,./stim/wavs/peruvian_match_declarative-narrow-focus_Mariano-habla-del-tiempo.wav,./stim/wavs/puertorican_match_declarative-narrow-focus_Mariano-habla-del-tiempo.wav,,,,,,,,,,,,,,,,,,,,,,,,,,,,,,,,,,,,,,,,,,,,,,,,,,,,,,,,
,,,,,,,5d0ac7504d57690017a355ef,6057c54e64b0b4e5c128b4f9,60582c690e8a0290b6af4ab0,Mexico,East coast,12 or younger,no,2021-03-22_01h39.36.345,empathy_intonation_perc,2020.2.10,Win32,60,,,,,,,,,,1,peruvian,1,1,2.121635,0,25,25,31,1,32,./stim/wavs/andalusian_match_interrogative-total-yn_Marta-abre-el-regalo.wav,./stim/wavs/argentine_match_interrogative-total-yn_Marta-abre-el-regalo.wav,./stim/wavs/castilian_match_interrogative-total-yn_Marta-abre-el-regalo.wav,./stim/wavs/chilean_match_interrogative-total-yn_Marta-abre-el-regalo.wav,./stim/wavs/cuban_match_interrogative-total-yn_Marta-abre-el-regalo.wav,./stim/wavs/mexican_match_interrogative-total-yn_Marta-abre-el-regalo.wav,./stim/wavs/peruvian_match_interrogative-total-yn_Marta-abre-el-regalo.wav,./stim/wavs/puertorican_match_interrogative-total-yn_Marta-abre-el-regalo.wav,,,,,,,,,,,,,,,,,,,,,,,,,,,,,,,,,,,,,,,,,,,,,,,,,,,,,,,,
,,,,,,,5d0ac7504d57690017a355ef,6057c54e64b0b4e5c128b4f9,60582c690e8a0290b6af4ab0,Mexico,East coast,12 or younger,no,2021-03-22_01h39.36.345,empathy_intonation_perc,2020.2.10,Win32,60,,,,,,,,,,1,argentine,1,1,1.537475,0,26,26,20,1,21,./stim/wavs/andalusian_match_interrogative-partial-wh_Por-que-abre-el-regalo.wav,./stim/wavs/argentine_match_interrogative-partial-wh_Por-que-abre-el-regalo.wav,./stim/wavs/castilian_match_interrogative-partial-wh_Por-que-abre-el-regalo.wav,./stim/wavs/chilean_match_interrogative-partial-wh_Por-que-abre-el-regalo.wav,./stim/wavs/cuban_match_interrogative-partial-wh_Por-que-abre-el-regalo.wav,./stim/wavs/mexican_match_interrogative-partial-wh_Por-que-abre-el-regalo.wav,./stim/wavs/peruvian_match_interrogative-partial-wh_Por-que-abre-el-regalo.wav,./stim/wavs/puertorican_match_interrogative-partial-wh_Por-que-abre-el-regalo.wav,,,,,,,,,,,,,,,,,,,,,,,,,,,,,,,,,,,,,,,,,,,,,,,,,,,,,,,,
,,,,,,,5d0ac7504d57690017a355ef,6057c54e64b0b4e5c128b4f9,60582c690e8a0290b6af4ab0,Mexico,East coast,12 or younger,no,2021-03-22_01h39.36.345,empathy_intonation_perc,2020.2.10,Win32,60,,,,,,,,,,1,cuban,0,0,1.51684,0,27,27,24,1,25,./stim/wavs/andalusian_match_interrogative-total-yn_Ana-lleva-el-abrigo.wav,./stim/wavs/argentine_match_interrogative-total-yn_Ana-lleva-el-abrigo.wav,./stim/wavs/castilian_match_interrogative-total-yn_Ana-lleva-el-abrigo.wav,./stim/wavs/chilean_match_interrogative-total-yn_Ana-lleva-el-abrigo.wav,./stim/wavs/cuban_match_interrogative-total-yn_Ana-lleva-el-abrigo.wav,./stim/wavs/mexican_match_interrogative-total-yn_Ana-lleva-el-abrigo.wav,./stim/wavs/peruvian_match_interrogative-total-yn_Ana-lleva-el-abrigo.wav,./stim/wavs/puertorican_match_interrogative-total-yn_Ana-lleva-el-abrigo.wav,,,,,,,,,,,,,,,,,,,,,,,,,,,,,,,,,,,,,,,,,,,,,,,,,,,,,,,,
,,,,,,,5d0ac7504d57690017a355ef,6057c54e64b0b4e5c128b4f9,60582c690e8a0290b6af4ab0,Mexico,East coast,12 or younger,no,2021-03-22_01h39.36.345,empathy_intonation_perc,2020.2.10,Win32,60,,,,,,,,,,0,castilian,0,1,2.100575,0,28,28,43,1,44,./stim/wavs/andalusian_mismatch_declarative-narrow-focus_La-maestra-vive-en-Paris.wav,./stim/wavs/argentine_mismatch_declarative-narrow-focus_La-maestra-vive-en-Paris.wav,./stim/wavs/castilian_mismatch_declarative-narrow-focus_La-maestra-vive-en-Paris.wav,./stim/wavs/chilean_mismatch_declarative-narrow-focus_La-maestra-vive-en-Paris.wav,./stim/wavs/cuban_mismatch_declarative-narrow-focus_La-maestra-vive-en-Paris.wav,./stim/wavs/mexican_mismatch_declarative-narrow-focus_La-maestra-vive-en-Paris.wav,./stim/wavs/peruvian_mismatch_declarative-narrow-focus_La-maestra-vive-en-Paris.wav,./stim/wavs/puertorican_mismatch_declarative-narrow-focus_La-maestra-vive-en-Paris.wav,,,,,,,,,,,,,,,,,,,,,,,,,,,,,,,,,,,,,,,,,,,,,,,,,,,,,,,,
,,,,,,,5d0ac7504d57690017a355ef,6057c54e64b0b4e5c128b4f9,60582c690e8a0290b6af4ab0,Mexico,East coast,12 or younger,no,2021-03-22_01h39.36.345,empathy_intonation_perc,2020.2.10,Win32,60,,,,,,,,,,0,puertorican,0,1,2.727755,0,29,29,47,1,48,./stim/wavs/andalusian_mismatch_declarative-narrow-focus_Mi-tia-odia-la-lluvia.wav,./stim/wavs/argentine_mismatch_declarative-narrow-focus_Mi-tia-odia-la-lluvia.wav,./stim/wavs/castilian_mismatch_declarative-narrow-focus_Mi-tia-odia-la-lluvia.wav,./stim/wavs/chilean_mismatch_declarative-narrow-focus_Mi-tia-odia-la-lluvia.wav,./stim/wavs/cuban_mismatch_declarative-narrow-focus_Mi-tia-odia-la-lluvia.wav,./stim/wavs/mexican_mismatch_declarative-narrow-focus_Mi-tia-odia-la-lluvia.wav,./stim/wavs/peruvian_mismatch_declarative-narrow-focus_Mi-tia-odia-la-lluvia.wav,./stim/wavs/puertorican_mismatch_declarative-narrow-focus_Mi-tia-odia-la-lluvia.wav,,,,,,,,,,,,,,,,,,,,,,,,,,,,,,,,,,,,,,,,,,,,,,,,,,,,,,,,
,,,,,,,5d0ac7504d57690017a355ef,6057c54e64b0b4e5c128b4f9,60582c690e8a0290b6af4ab0,Mexico,East coast,12 or younger,no,2021-03-22_01h39.36.345,empathy_intonation_perc,2020.2.10,Win32,60,,,,,,,,,,0,cuban,0,1,1.84263,0,30,30,7,1,8,./stim/wavs/andalusian_match_declarative-broad-focus_Marta-abre-el-regalo.wav,./stim/wavs/argentine_match_declarative-broad-focus_Marta-abre-el-regalo.wav,./stim/wavs/castilian_match_declarative-broad-focus_Marta-abre-el-regalo.wav,./stim/wavs/chilean_match_declarative-broad-focus_Marta-abre-el-regalo.wav,./stim/wavs/cuban_match_declarative-broad-focus_Marta-abre-el-regalo.wav,./stim/wavs/mexican_match_declarative-broad-focus_Marta-abre-el-regalo.wav,./stim/wavs/peruvian_match_declarative-broad-focus_Marta-abre-el-regalo.wav,./stim/wavs/puertorican_match_declarative-broad-focus_Marta-abre-el-regalo.wav,,,,,,,,,,,,,,,,,,,,,,,,,,,,,,,,,,,,,,,,,,,,,,,,,,,,,,,,
,,,,,,,5d0ac7504d57690017a355ef,6057c54e64b0b4e5c128b4f9,60582c690e8a0290b6af4ab0,Mexico,East coast,12 or younger,no,2021-03-22_01h39.36.345,empathy_intonation_perc,2020.2.10,Win32,60,,,,,,,,,,1,peruvian,1,1,1.7074,0,31,31,26,1,27,./stim/wavs/andalusian_match_interrogative-total-yn_David-leia-el-libro.wav,./stim/wavs/argentine_match_interrogative-total-yn_David-leia-el-libro.wav,./stim/wavs/castilian_match_interrogative-total-yn_David-leia-el-libro.wav,./stim/wavs/chilean_match_interrogative-total-yn_David-leia-el-libro.wav,./stim/wavs/cuban_match_interrogative-total-yn_David-leia-el-libro.wav,./stim/wavs/mexican_match_interrogative-total-yn_David-leia-el-libro.wav,./stim/wavs/peruvian_match_interrogative-total-yn_David-leia-el-libro.wav,./stim/wavs/puertorican_match_interrogative-total-yn_David-leia-el-libro.wav,,,,,,,,,,,,,,,,,,,,,,,,,,,,,,,,,,,,,,,,,,,,,,,,,,,,,,,,
,,,,,,,5d0ac7504d57690017a355ef,6057c54e64b0b4e5c128b4f9,60582c690e8a0290b6af4ab0,Mexico,East coast,12 or younger,no,2021-03-22_01h39.36.345,empathy_intonation_perc,2020.2.10,Win32,60,,,,,,,,,,1,puertorican,1,1,1.633055,0,32,32,49,1,50,./stim/wavs/andalusian_mismatch_interrogative-partial-wh_Cuando-lavaba-el-plato.wav,./stim/wavs/argentine_mismatch_interrogative-partial-wh_Cuando-lavaba-el-plato.wav,./stim/wavs/castilian_mismatch_interrogative-partial-wh_Cuando-lavaba-el-plato.wav,./stim/wavs/chilean_mismatch_interrogative-partial-wh_Cuando-lavaba-el-plato.wav,./stim/wavs/cuban_mismatch_interrogative-partial-wh_Cuando-lavaba-el-plato.wav,./stim/wavs/mexican_mismatch_interrogative-partial-wh_Cuando-lavaba-el-plato.wav,./stim/wavs/peruvian_mismatch_interrogative-partial-wh_Cuando-lavaba-el-plato.wav,./stim/wavs/puertorican_mismatch_interrogative-partial-wh_Cuando-lavaba-el-plato.wav,,,,,,,,,,,,,,,,,,,,,,,,,,,,,,,,,,,,,,,,,,,,,,,,,,,,,,,,
,,,,,,,5d0ac7504d57690017a355ef,6057c54e64b0b4e5c128b4f9,60582c690e8a0290b6af4ab0,Mexico,East coast,12 or younger,no,2021-03-22_01h39.36.345,empathy_intonation_perc,2020.2.10,Win32,60,,,,,,,,,,1,chilean,1,1,1.66873,0,33,33,55,1,56,./stim/wavs/andalusian_mismatch_interrogative-partial-wh_Por-que-vivia-en-Paris.wav,./stim/wavs/argentine_mismatch_interrogative-partial-wh_Por-que-vivia-en-Paris.wav,./stim/wavs/castilian_mismatch_interrogative-partial-wh_Por-que-vivia-en-Paris.wav,./stim/wavs/chilean_mismatch_interrogative-partial-wh_Por-que-vivia-en-Paris.wav,./stim/wavs/cuban_mismatch_interrogative-partial-wh_Por-que-vivia-en-Paris.wav,./stim/wavs/mexican_mismatch_interrogative-partial-wh_Por-que-vivia-en-Paris.wav,./stim/wavs/peruvian_mismatch_interrogative-partial-wh_Por-que-vivia-en-Paris.wav,./stim/wavs/puertorican_mismatch_interrogative-partial-wh_Por-que-vivia-en-Paris.wav,,,,,,,,,,,,,,,,,,,,,,,,,,,,,,,,,,,,,,,,,,,,,,,,,,,,,,,,
,,,,,,,5d0ac7504d57690017a355ef,6057c54e64b0b4e5c128b4f9,60582c690e8a0290b6af4ab0,Mexico,East coast,12 or younger,no,2021-03-22_01h39.36.345,empathy_intonation_perc,2020.2.10,Win32,60,,,,,,,,,,0,mexican,0,1,1.65369,0,34,34,9,1,10,./stim/wavs/andalusian_match_declarative-narrow-focus_Daniel-iba-a-Bolivia.wav,./stim/wavs/argentine_match_declarative-narrow-focus_Daniel-iba-a-Bolivia.wav,./stim/wavs/castilian_match_declarative-narrow-focus_Daniel-iba-a-Bolivia.wav,./stim/wavs/chilean_match_declarative-narrow-focus_Daniel-iba-a-Bolivia.wav,./stim/wavs/cuban_match_declarative-narrow-focus_Daniel-iba-a-Bolivia.wav,./stim/wavs/mexican_match_declarative-narrow-focus_Daniel-iba-a-Bolivia.wav,./stim/wavs/peruvian_match_declarative-narrow-focus_Daniel-iba-a-Bolivia.wav,./stim/wavs/puertorican_match_declarative-narrow-focus_Daniel-iba-a-Bolivia.wav,,,,,,,,,,,,,,,,,,,,,,,,,,,,,,,,,,,,,,,,,,,,,,,,,,,,,,,,
,,,,,,,5d0ac7504d57690017a355ef,6057c54e64b0b4e5c128b4f9,60582c690e8a0290b6af4ab0,Mexico,East coast,12 or younger,no,2021-03-22_01h39.36.345,empathy_intonation_perc,2020.2.10,Win32,60,,,,,,,,,,1,andalusian,1,1,1.77366,0,35,35,52,1,53,./stim/wavs/andalusian_mismatch_interrogative-partial-wh_Por-que-odiaba-la-lluvia.wav,./stim/wavs/argentine_mismatch_interrogative-partial-wh_Por-que-odiaba-la-lluvia.wav,./stim/wavs/castilian_mismatch_interrogative-partial-wh_Por-que-odiaba-la-lluvia.wav,./stim/wavs/chilean_mismatch_interrogative-partial-wh_Por-que-odiaba-la-lluvia.wav,./stim/wavs/cuban_mismatch_interrogative-partial-wh_Por-que-odiaba-la-lluvia.wav,./stim/wavs/mexican_mismatch_interrogative-partial-wh_Por-que-odiaba-la-lluvia.wav,./stim/wavs/peruvian_mismatch_interrogative-partial-wh_Por-que-odiaba-la-lluvia.wav,./stim/wavs/puertorican_mismatch_interrogative-partial-wh_Por-que-odiaba-la-lluvia.wav,,,,,,,,,,,,,,,,,,,,,,,,,,,,,,,,,,,,,,,,,,,,,,,,,,,,,,,,
,,,,,,,5d0ac7504d57690017a355ef,6057c54e64b0b4e5c128b4f9,60582c690e8a0290b6af4ab0,Mexico,East coast,12 or younger,no,2021-03-22_01h39.36.345,empathy_intonation_perc,2020.2.10,Win32,60,,,,,,,,,,1,puertorican,0,0,4.969845,0,36,36,23,1,24,./stim/wavs/andalusian_match_interrogative-partial-wh_Por-que-iba-a-Bolivia.wav,./stim/wavs/argentine_match_interrogative-partial-wh_Por-que-iba-a-Bolivia.wav,./stim/wavs/castilian_match_interrogative-partial-wh_Por-que-iba-a-Bolivia.wav,./stim/wavs/chilean_match_interrogative-partial-wh_Por-que-iba-a-Bolivia.wav,./stim/wavs/cuban_match_interrogative-partial-wh_Por-que-iba-a-Bolivia.wav,./stim/wavs/mexican_match_interrogative-partial-wh_Por-que-iba-a-Bolivia.wav,./stim/wavs/peruvian_match_interrogative-partial-wh_Por-que-iba-a-Bolivia.wav,./stim/wavs/puertorican_match_interrogative-partial-wh_Por-que-iba-a-Bolivia.wav,,,,,,,,,,,,,,,,,,,,,,,,,,,,,,,,,,,,,,,,,,,,,,,,,,,,,,,,
,,,,,,,5d0ac7504d57690017a355ef,6057c54e64b0b4e5c128b4f9,60582c690e8a0290b6af4ab0,Mexico,East coast,12 or younger,no,2021-03-22_01h39.36.345,empathy_intonation_perc,2020.2.10,Win32,60,,,,,,,,,,1,puertorican,0,0,4.871965,0,37,37,60,1,61,./stim/wavs/andalusian_mismatch_interrogative-total-yn_La-nina-lava-el-plato.wav,./stim/wavs/argentine_mismatch_interrogative-total-yn_La-nina-lava-el-plato.wav,./stim/wavs/castilian_mismatch_interrogative-total-yn_La-nina-lava-el-plato.wav,./stim/wavs/chilean_mismatch_interrogative-total-yn_La-nina-lava-el-plato.wav,./stim/wavs/cuban_mismatch_interrogative-total-yn_La-nina-lava-el-plato.wav,./stim/wavs/mexican_mismatch_interrogative-total-yn_La-nina-lava-el-plato.wav,./stim/wavs/peruvian_mismatch_interrogative-total-yn_La-nina-lava-el-plato.wav,./stim/wavs/puertorican_mismatch_interrogative-total-yn_La-nina-lava-el-plato.wav,,,,,,,,,,,,,,,,,,,,,,,,,,,,,,,,,,,,,,,,,,,,,,,,,,,,,,,,
,,,,,,,5d0ac7504d57690017a355ef,6057c54e64b0b4e5c128b4f9,60582c690e8a0290b6af4ab0,Mexico,East coast,12 or younger,no,2021-03-22_01h39.36.345,empathy_intonation_perc,2020.2.10,Win32,60,,,,,,,,,,0,argentine,0,1,1.817965,0,38,38,15,1,16,./stim/wavs/andalusian_match_declarative-narrow-focus_Marta-abre-el-regalo.wav,./stim/wavs/argentine_match_declarative-narrow-focus_Marta-abre-el-regalo.wav,./stim/wavs/castilian_match_declarative-narrow-focus_Marta-abre-el-regalo.wav,./stim/wavs/chilean_match_declarative-narrow-focus_Marta-abre-el-regalo.wav,./stim/wavs/cuban_match_declarative-narrow-focus_Marta-abre-el-regalo.wav,./stim/wavs/mexican_match_declarative-narrow-focus_Marta-abre-el-regalo.wav,./stim/wavs/peruvian_match_declarative-narrow-focus_Marta-abre-el-regalo.wav,./stim/wavs/puertorican_match_declarative-narrow-focus_Marta-abre-el-regalo.wav,,,,,,,,,,,,,,,,,,,,,,,,,,,,,,,,,,,,,,,,,,,,,,,,,,,,,,,,
,,,,,,,5d0ac7504d57690017a355ef,6057c54e64b0b4e5c128b4f9,60582c690e8a0290b6af4ab0,Mexico,East coast,12 or younger,no,2021-03-22_01h39.36.345,empathy_intonation_perc,2020.2.10,Win32,60,,,,,,,,,,0,chilean,0,1,2.03557,0,39,39,44,1,45,./stim/wavs/andalusian_mismatch_declarative-narrow-focus_La-nina-lava-el-plato.wav,./stim/wavs/argentine_mismatch_declarative-narrow-focus_La-nina-lava-el-plato.wav,./stim/wavs/castilian_mismatch_declarative-narrow-focus_La-nina-lava-el-plato.wav,./stim/wavs/chilean_mismatch_declarative-narrow-focus_La-nina-lava-el-plato.wav,./stim/wavs/cuban_mismatch_declarative-narrow-focus_La-nina-lava-el-plato.wav,./stim/wavs/mexican_mismatch_declarative-narrow-focus_La-nina-lava-el-plato.wav,./stim/wavs/peruvian_mismatch_declarative-narrow-focus_La-nina-lava-el-plato.wav,./stim/wavs/puertorican_mismatch_declarative-narrow-focus_La-nina-lava-el-plato.wav,,,,,,,,,,,,,,,,,,,,,,,,,,,,,,,,,,,,,,,,,,,,,,,,,,,,,,,,
,,,,,,,5d0ac7504d57690017a355ef,6057c54e64b0b4e5c128b4f9,60582c690e8a0290b6af4ab0,Mexico,East coast,12 or younger,no,2021-03-22_01h39.36.345,empathy_intonation_perc,2020.2.10,Win32,60,,,,,,,,,,1,andalusian,1,1,2.688535,0,40,40,16,1,17,./stim/wavs/andalusian_match_interrogative-partial-wh_Cuando-bebia-el-vino.wav,./stim/wavs/argentine_match_interrogative-partial-wh_Cuando-bebia-el-vino.wav,./stim/wavs/castilian_match_interrogative-partial-wh_Cuando-bebia-el-vino.wav,./stim/wavs/chilean_match_interrogative-partial-wh_Cuando-bebia-el-vino.wav,./stim/wavs/cuban_match_interrogative-partial-wh_Cuando-bebia-el-vino.wav,./stim/wavs/mexican_match_interrogative-partial-wh_Cuando-bebia-el-vino.wav,./stim/wavs/peruvian_match_interrogative-partial-wh_Cuando-bebia-el-vino.wav,./stim/wavs/puertorican_match_interrogative-partial-wh_Cuando-bebia-el-vino.wav,,,,,,,,,,,,,,,,,,,,,,,,,,,,,,,,,,,,,,,,,,,,,,,,,,,,,,,,
,,,,,,,5d0ac7504d57690017a355ef,6057c54e64b0b4e5c128b4f9,60582c690e8a0290b6af4ab0,Mexico,East coast,12 or younger,no,2021-03-22_01h39.36.345,empathy_intonation_perc,2020.2.10,Win32,60,,,,,,,,,,1,chilean,0,0,1.82123,0,41,41,59,1,60,./stim/wavs/andalusian_mismatch_interrogative-total-yn_La-maestra-vive-en-Paris.wav,./stim/wavs/argentine_mismatch_interrogative-total-yn_La-maestra-vive-en-Paris.wav,./stim/wavs/castilian_mismatch_interrogative-total-yn_La-maestra-vive-en-Paris.wav,./stim/wavs/chilean_mismatch_interrogative-total-yn_La-maestra-vive-en-Paris.wav,./stim/wavs/cuban_mismatch_interrogative-total-yn_La-maestra-vive-en-Paris.wav,./stim/wavs/mexican_mismatch_interrogative-total-yn_La-maestra-vive-en-Paris.wav,./stim/wavs/peruvian_mismatch_interrogative-total-yn_La-maestra-vive-en-Paris.wav,./stim/wavs/puertorican_mismatch_interrogative-total-yn_La-maestra-vive-en-Paris.wav,,,,,,,,,,,,,,,,,,,,,,,,,,,,,,,,,,,,,,,,,,,,,,,,,,,,,,,,
,,,,,,,5d0ac7504d57690017a355ef,6057c54e64b0b4e5c128b4f9,60582c690e8a0290b6af4ab0,Mexico,East coast,12 or younger,no,2021-03-22_01h39.36.345,empathy_intonation_perc,2020.2.10,Win32,60,,,,,,,,,,1,chilean,0,0,3.79983,0,42,42,22,1,23,./stim/wavs/andalusian_match_interrogative-partial-wh_Por-que-hablaba-del-agua.wav,./stim/wavs/argentine_match_interrogative-partial-wh_Por-que-hablaba-del-agua.wav,./stim/wavs/castilian_match_interrogative-partial-wh_Por-que-hablaba-del-agua.wav,./stim/wavs/chilean_match_interrogative-partial-wh_Por-que-hablaba-del-agua.wav,./stim/wavs/cuban_match_interrogative-partial-wh_Por-que-hablaba-del-agua.wav,./stim/wavs/mexican_match_interrogative-partial-wh_Por-que-hablaba-del-agua.wav,./stim/wavs/peruvian_match_interrogative-partial-wh_Por-que-hablaba-del-agua.wav,./stim/wavs/puertorican_match_interrogative-partial-wh_Por-que-hablaba-del-agua.wav,,,,,,,,,,,,,,,,,,,,,,,,,,,,,,,,,,,,,,,,,,,,,,,,,,,,,,,,
,,,,,,,5d0ac7504d57690017a355ef,6057c54e64b0b4e5c128b4f9,60582c690e8a0290b6af4ab0,Mexico,East coast,12 or younger,no,2021-03-22_01h39.36.345,empathy_intonation_perc,2020.2.10,Win32,60,,,,,,,,,,0,chilean,0,1,3.414915,0,43,43,45,1,46,./stim/wavs/andalusian_mismatch_declarative-narrow-focus_Mi-madre-come-la-fruta.wav,./stim/wavs/argentine_mismatch_declarative-narrow-focus_Mi-madre-come-la-fruta.wav,./stim/wavs/castilian_mismatch_declarative-narrow-focus_Mi-madre-come-la-fruta.wav,./stim/wavs/chilean_mismatch_declarative-narrow-focus_Mi-madre-come-la-fruta.wav,./stim/wavs/cuban_mismatch_declarative-narrow-focus_Mi-madre-come-la-fruta.wav,./stim/wavs/mexican_mismatch_declarative-narrow-focus_Mi-madre-come-la-fruta.wav,./stim/wavs/peruvian_mismatch_declarative-narrow-focus_Mi-madre-come-la-fruta.wav,./stim/wavs/puertorican_mismatch_declarative-narrow-focus_Mi-madre-come-la-fruta.wav,,,,,,,,,,,,,,,,,,,,,,,,,,,,,,,,,,,,,,,,,,,,,,,,,,,,,,,,
,,,,,,,5d0ac7504d57690017a355ef,6057c54e64b0b4e5c128b4f9,60582c690e8a0290b6af4ab0,Mexico,East coast,12 or younger,no,2021-03-22_01h39.36.345,empathy_intonation_perc,2020.2.10,Win32,60,,,,,,,,,,1,andalusian,1,1,2.13385,0,44,44,57,1,58,./stim/wavs/andalusian_mismatch_interrogative-total-yn_El-hombre-mira-la-luna.wav,./stim/wavs/argentine_mismatch_interrogative-total-yn_El-hombre-mira-la-luna.wav,./stim/wavs/castilian_mismatch_interrogative-total-yn_El-hombre-mira-la-luna.wav,./stim/wavs/chilean_mismatch_interrogative-total-yn_El-hombre-mira-la-luna.wav,./stim/wavs/cuban_mismatch_interrogative-total-yn_El-hombre-mira-la-luna.wav,./stim/wavs/mexican_mismatch_interrogative-total-yn_El-hombre-mira-la-luna.wav,./stim/wavs/peruvian_mismatch_interrogative-total-yn_El-hombre-mira-la-luna.wav,./stim/wavs/puertorican_mismatch_interrogative-total-yn_El-hombre-mira-la-luna.wav,,,,,,,,,,,,,,,,,,,,,,,,,,,,,,,,,,,,,,,,,,,,,,,,,,,,,,,,
,,,,,,,5d0ac7504d57690017a355ef,6057c54e64b0b4e5c128b4f9,60582c690e8a0290b6af4ab0,Mexico,East coast,12 or younger,no,2021-03-22_01h39.36.345,empathy_intonation_perc,2020.2.10,Win32,60,,,,,,,,,,0,puertorican,0,1,2.12799,0,45,45,2,1,3,./stim/wavs/andalusian_match_declarative-broad-focus_David-leia-el-libro.wav,./stim/wavs/argentine_match_declarative-broad-focus_David-leia-el-libro.wav,./stim/wavs/castilian_match_declarative-broad-focus_David-leia-el-libro.wav,./stim/wavs/chilean_match_declarative-broad-focus_David-leia-el-libro.wav,./stim/wavs/cuban_match_declarative-broad-focus_David-leia-el-libro.wav,./stim/wavs/mexican_match_declarative-broad-focus_David-leia-el-libro.wav,./stim/wavs/peruvian_match_declarative-broad-focus_David-leia-el-libro.wav,./stim/wavs/puertorican_match_declarative-broad-focus_David-leia-el-libro.wav,,,,,,,,,,,,,,,,,,,,,,,,,,,,,,,,,,,,,,,,,,,,,,,,,,,,,,,,
,,,,,,,5d0ac7504d57690017a355ef,6057c54e64b0b4e5c128b4f9,60582c690e8a0290b6af4ab0,Mexico,East coast,12 or younger,no,2021-03-22_01h39.36.345,empathy_intonation_perc,2020.2.10,Win32,60,,,,,,,,,,0,cuban,0,1,2.175945,0,46,46,46,1,47,./stim/wavs/andalusian_mismatch_declarative-narrow-focus_Mi-novio-viene-del-lago.wav,./stim/wavs/argentine_mismatch_declarative-narrow-focus_Mi-novio-viene-del-lago.wav,./stim/wavs/castilian_mismatch_declarative-narrow-focus_Mi-novio-viene-del-lago.wav,./stim/wavs/chilean_mismatch_declarative-narrow-focus_Mi-novio-viene-del-lago.wav,./stim/wavs/cuban_mismatch_declarative-narrow-focus_Mi-novio-viene-del-lago.wav,./stim/wavs/mexican_mismatch_declarative-narrow-focus_Mi-novio-viene-del-lago.wav,./stim/wavs/peruvian_mismatch_declarative-narrow-focus_Mi-novio-viene-del-lago.wav,./stim/wavs/puertorican_mismatch_declarative-narrow-focus_Mi-novio-viene-del-lago.wav,,,,,,,,,,,,,,,,,,,,,,,,,,,,,,,,,,,,,,,,,,,,,,,,,,,,,,,,
,,,,,,,5d0ac7504d57690017a355ef,6057c54e64b0b4e5c128b4f9,60582c690e8a0290b6af4ab0,Mexico,East coast,12 or younger,no,2021-03-22_01h39.36.345,empathy_intonation_perc,2020.2.10,Win32,60,,,,,,,,,,0,cuban,0,1,1.65941,0,47,47,38,1,39,./stim/wavs/andalusian_mismatch_declarative-broad-focus_Mi-novio-viene-del-lago.wav,./stim/wavs/argentine_mismatch_declarative-broad-focus_Mi-novio-viene-del-lago.wav,./stim/wavs/castilian_mismatch_declarative-broad-focus_Mi-novio-viene-del-lago.wav,./stim/wavs/chilean_mismatch_declarative-broad-focus_Mi-novio-viene-del-lago.wav,./stim/wavs/cuban_mismatch_declarative-broad-focus_Mi-novio-viene-del-lago.wav,./stim/wavs/mexican_mismatch_declarative-broad-focus_Mi-novio-viene-del-lago.wav,./stim/wavs/peruvian_mismatch_declarative-broad-focus_Mi-novio-viene-del-lago.wav,./stim/wavs/puertorican_mismatch_declarative-broad-focus_Mi-novio-viene-del-lago.wav,,,,,,,,,,,,,,,,,,,,,,,,,,,,,,,,,,,,,,,,,,,,,,,,,,,,,,,,
,,,,,,,5d0ac7504d57690017a355ef,6057c54e64b0b4e5c128b4f9,60582c690e8a0290b6af4ab0,Mexico,East coast,12 or younger,no,2021-03-22_01h39.36.345,empathy_intonation_perc,2020.2.10,Win32,60,,,,,,,,,,1,peruvian,0,0,2.036275,0,48,48,56,1,57,./stim/wavs/andalusian_mismatch_interrogative-total-yn_El-bebe-comia-muy-bien.wav,./stim/wavs/argentine_mismatch_interrogative-total-yn_El-bebe-comia-muy-bien.wav,./stim/wavs/castilian_mismatch_interrogative-total-yn_El-bebe-comia-muy-bien.wav,./stim/wavs/chilean_mismatch_interrogative-total-yn_El-bebe-comia-muy-bien.wav,./stim/wavs/cuban_mismatch_interrogative-total-yn_El-bebe-comia-muy-bien.wav,./stim/wavs/mexican_mismatch_interrogative-total-yn_El-bebe-comia-muy-bien.wav,./stim/wavs/peruvian_mismatch_interrogative-total-yn_El-bebe-comia-muy-bien.wav,./stim/wavs/puertorican_mismatch_interrogative-total-yn_El-bebe-comia-muy-bien.wav,,,,,,,,,,,,,,,,,,,,,,,,,,,,,,,,,,,,,,,,,,,,,,,,,,,,,,,,
,,,,,,,5d0ac7504d57690017a355ef,6057c54e64b0b4e5c128b4f9,60582c690e8a0290b6af4ab0,Mexico,East coast,12 or younger,no,2021-03-22_01h39.36.345,empathy_intonation_perc,2020.2.10,Win32,60,,,,,,,,,,0,argentine,0,1,3.7362,0,49,49,10,1,11,./stim/wavs/andalusian_match_declarative-narrow-focus_David-leia-el-libro.wav,./stim/wavs/argentine_match_declarative-narrow-focus_David-leia-el-libro.wav,./stim/wavs/castilian_match_declarative-narrow-focus_David-leia-el-libro.wav,./stim/wavs/chilean_match_declarative-narrow-focus_David-leia-el-libro.wav,./stim/wavs/cuban_match_declarative-narrow-focus_David-leia-el-libro.wav,./stim/wavs/mexican_match_declarative-narrow-focus_David-leia-el-libro.wav,./stim/wavs/peruvian_match_declarative-narrow-focus_David-leia-el-libro.wav,./stim/wavs/puertorican_match_declarative-narrow-focus_David-leia-el-libro.wav,,,,,,,,,,,,,,,,,,,,,,,,,,,,,,,,,,,,,,,,,,,,,,,,,,,,,,,,
,,,,,,,5d0ac7504d57690017a355ef,6057c54e64b0b4e5c128b4f9,60582c690e8a0290b6af4ab0,Mexico,East coast,12 or younger,no,2021-03-22_01h39.36.345,empathy_intonation_perc,2020.2.10,Win32,60,,,,,,,,,,0,castilian,0,1,2.68914,0,50,50,32,1,33,./stim/wavs/andalusian_mismatch_declarative-broad-focus_El-bebe-comia-muy-bien.wav,./stim/wavs/argentine_mismatch_declarative-broad-focus_El-bebe-comia-muy-bien.wav,./stim/wavs/castilian_mismatch_declarative-broad-focus_El-bebe-comia-muy-bien.wav,./stim/wavs/chilean_mismatch_declarative-broad-focus_El-bebe-comia-muy-bien.wav,./stim/wavs/cuban_mismatch_declarative-broad-focus_El-bebe-comia-muy-bien.wav,./stim/wavs/mexican_mismatch_declarative-broad-focus_El-bebe-comia-muy-bien.wav,./stim/wavs/peruvian_mismatch_declarative-broad-focus_El-bebe-comia-muy-bien.wav,./stim/wavs/puertorican_mismatch_declarative-broad-focus_El-bebe-comia-muy-bien.wav,,,,,,,,,,,,,,,,,,,,,,,,,,,,,,,,,,,,,,,,,,,,,,,,,,,,,,,,
,,,,,,,5d0ac7504d57690017a355ef,6057c54e64b0b4e5c128b4f9,60582c690e8a0290b6af4ab0,Mexico,East coast,12 or younger,no,2021-03-22_01h39.36.345,empathy_intonation_perc,2020.2.10,Win32,60,,,,,,,,,,0,chilean,0,1,1.46949,0,51,51,5,1,6,./stim/wavs/andalusian_match_declarative-broad-focus_Maria-bebe-el-vino.wav,./stim/wavs/argentine_match_declarative-broad-focus_Maria-bebe-el-vino.wav,./stim/wavs/castilian_match_declarative-broad-focus_Maria-bebe-el-vino.wav,./stim/wavs/chilean_match_declarative-broad-focus_Maria-bebe-el-vino.wav,./stim/wavs/cuban_match_declarative-broad-focus_Maria-bebe-el-vino.wav,./stim/wavs/mexican_match_declarative-broad-focus_Maria-bebe-el-vino.wav,./stim/wavs/peruvian_match_declarative-broad-focus_Maria-bebe-el-vino.wav,./stim/wavs/puertorican_match_declarative-broad-focus_Maria-bebe-el-vino.wav,,,,,,,,,,,,,,,,,,,,,,,,,,,,,,,,,,,,,,,,,,,,,,,,,,,,,,,,
,,,,,,,5d0ac7504d57690017a355ef,6057c54e64b0b4e5c128b4f9,60582c690e8a0290b6af4ab0,Mexico,East coast,12 or younger,no,2021-03-22_01h39.36.345,empathy_intonation_perc,2020.2.10,Win32,60,,,,,,,,,,1,castilian,1,1,1.98798,0,52,52,27,1,28,./stim/wavs/andalusian_match_interrogative-total-yn_Emilio-ama-la-marcha.wav,./stim/wavs/argentine_match_interrogative-total-yn_Emilio-ama-la-marcha.wav,./stim/wavs/castilian_match_interrogative-total-yn_Emilio-ama-la-marcha.wav,./stim/wavs/chilean_match_interrogative-total-yn_Emilio-ama-la-marcha.wav,./stim/wavs/cuban_match_interrogative-total-yn_Emilio-ama-la-marcha.wav,./stim/wavs/mexican_match_interrogative-total-yn_Emilio-ama-la-marcha.wav,./stim/wavs/peruvian_match_interrogative-total-yn_Emilio-ama-la-marcha.wav,./stim/wavs/puertorican_match_interrogative-total-yn_Emilio-ama-la-marcha.wav,,,,,,,,,,,,,,,,,,,,,,,,,,,,,,,,,,,,,,,,,,,,,,,,,,,,,,,,
,,,,,,,5d0ac7504d57690017a355ef,6057c54e64b0b4e5c128b4f9,60582c690e8a0290b6af4ab0,Mexico,East coast,12 or younger,no,2021-03-22_01h39.36.345,empathy_intonation_perc,2020.2.10,Win32,60,,,,,,,,,,1,chilean,0,0,3.26824,0,53,53,58,1,59,./stim/wavs/andalusian_mismatch_interrogative-total-yn_El-nino-oye-el-rio.wav,./stim/wavs/argentine_mismatch_interrogative-total-yn_El-nino-oye-el-rio.wav,./stim/wavs/castilian_mismatch_interrogative-total-yn_El-nino-oye-el-rio.wav,./stim/wavs/chilean_mismatch_interrogative-total-yn_El-nino-oye-el-rio.wav,./stim/wavs/cuban_mismatch_interrogative-total-yn_El-nino-oye-el-rio.wav,./stim/wavs/mexican_mismatch_interrogative-total-yn_El-nino-oye-el-rio.wav,./stim/wavs/peruvian_mismatch_interrogative-total-yn_El-nino-oye-el-rio.wav,./stim/wavs/puertorican_mismatch_interrogative-total-yn_El-nino-oye-el-rio.wav,,,,,,,,,,,,,,,,,,,,,,,,,,,,,,,,,,,,,,,,,,,,,,,,,,,,,,,,
,,,,,,,5d0ac7504d57690017a355ef,6057c54e64b0b4e5c128b4f9,60582c690e8a0290b6af4ab0,Mexico,East coast,12 or younger,no,2021-03-22_01h39.36.345,empathy_intonation_perc,2020.2.10,Win32,60,,,,,,,,,,0,chilean,0,1,1.919005,0,54,54,6,1,7,./stim/wavs/andalusian_match_declarative-broad-focus_Mariano-habla-del-tiempo.wav,./stim/wavs/argentine_match_declarative-broad-focus_Mariano-habla-del-tiempo.wav,./stim/wavs/castilian_match_declarative-broad-focus_Mariano-habla-del-tiempo.wav,./stim/wavs/chilean_match_declarative-broad-focus_Mariano-habla-del-tiempo.wav,./stim/wavs/cuban_match_declarative-broad-focus_Mariano-habla-del-tiempo.wav,./stim/wavs/mexican_match_declarative-broad-focus_Mariano-habla-del-tiempo.wav,./stim/wavs/peruvian_match_declarative-broad-focus_Mariano-habla-del-tiempo.wav,./stim/wavs/puertorican_match_declarative-broad-focus_Mariano-habla-del-tiempo.wav,,,,,,,,,,,,,,,,,,,,,,,,,,,,,,,,,,,,,,,,,,,,,,,,,,,,,,,,
,,,,,,,5d0ac7504d57690017a355ef,6057c54e64b0b4e5c128b4f9,60582c690e8a0290b6af4ab0,Mexico,East coast,12 or younger,no,2021-03-22_01h39.36.345,empathy_intonation_perc,2020.2.10,Win32,60,,,,,,,,,,1,puertorican,0,0,1.466865,0,55,55,21,1,22,./stim/wavs/andalusian_match_interrogative-partial-wh_Por-que-ama-la-navidad.wav,./stim/wavs/argentine_match_interrogative-partial-wh_Por-que-ama-la-navidad.wav,./stim/wavs/castilian_match_interrogative-partial-wh_Por-que-ama-la-navidad.wav,./stim/wavs/chilean_match_interrogative-partial-wh_Por-que-ama-la-navidad.wav,./stim/wavs/cuban_match_interrogative-partial-wh_Por-que-ama-la-navidad.wav,./stim/wavs/mexican_match_interrogative-partial-wh_Por-que-ama-la-navidad.wav,./stim/wavs/peruvian_match_interrogative-partial-wh_Por-que-ama-la-navidad.wav,./stim/wavs/puertorican_match_interrogative-partial-wh_Por-que-ama-la-navidad.wav,,,,,,,,,,,,,,,,,,,,,,,,,,,,,,,,,,,,,,,,,,,,,,,,,,,,,,,,
,,,,,,,5d0ac7504d57690017a355ef,6057c54e64b0b4e5c128b4f9,60582c690e8a0290b6af4ab0,Mexico,East coast,12 or younger,no,2021-03-22_01h39.36.345,empathy_intonation_perc,2020.2.10,Win32,60,,,,,,,,,,0,castilian,0,1,2.39449,0,56,56,12,1,13,./stim/wavs/andalusian_match_declarative-narrow-focus_Manuela-vende-el-carro.wav,./stim/wavs/argentine_match_declarative-narrow-focus_Manuela-vende-el-carro.wav,./stim/wavs/castilian_match_declarative-narrow-focus_Manuela-vende-el-carro.wav,./stim/wavs/chilean_match_declarative-narrow-focus_Manuela-vende-el-carro.wav,./stim/wavs/cuban_match_declarative-narrow-focus_Manuela-vende-el-carro.wav,./stim/wavs/mexican_match_declarative-narrow-focus_Manuela-vende-el-carro.wav,./stim/wavs/peruvian_match_declarative-narrow-focus_Manuela-vende-el-carro.wav,./stim/wavs/puertorican_match_declarative-narrow-focus_Manuela-vende-el-carro.wav,,,,,,,,,,,,,,,,,,,,,,,,,,,,,,,,,,,,,,,,,,,,,,,,,,,,,,,,
,,,,,,,5d0ac7504d57690017a355ef,6057c54e64b0b4e5c128b4f9,60582c690e8a0290b6af4ab0,Mexico,East coast,12 or younger,no,2021-03-22_01h39.36.345,empathy_intonation_perc,2020.2.10,Win32,60,,,,,,,,,,1,peruvian,1,1,1.77204,0,57,57,62,1,63,./stim/wavs/andalusian_mismatch_interrogative-total-yn_Mi-novio-viene-del-lago.wav,./stim/wavs/argentine_mismatch_interrogative-total-yn_Mi-novio-viene-del-lago.wav,./stim/wavs/castilian_mismatch_interrogative-total-yn_Mi-novio-viene-del-lago.wav,./stim/wavs/chilean_mismatch_interrogative-total-yn_Mi-novio-viene-del-lago.wav,./stim/wavs/cuban_mismatch_interrogative-total-yn_Mi-novio-viene-del-lago.wav,./stim/wavs/mexican_mismatch_interrogative-total-yn_Mi-novio-viene-del-lago.wav,./stim/wavs/peruvian_mismatch_interrogative-total-yn_Mi-novio-viene-del-lago.wav,./stim/wavs/puertorican_mismatch_interrogative-total-yn_Mi-novio-viene-del-lago.wav,,,,,,,,,,,,,,,,,,,,,,,,,,,,,,,,,,,,,,,,,,,,,,,,,,,,,,,,
,,,,,,,5d0ac7504d57690017a355ef,6057c54e64b0b4e5c128b4f9,60582c690e8a0290b6af4ab0,Mexico,East coast,12 or younger,no,2021-03-22_01h39.36.345,empathy_intonation_perc,2020.2.10,Win32,60,,,,,,,,,,0,andalusian,0,1,1.88666,0,58,58,1,1,2,./stim/wavs/andalusian_match_declarative-broad-focus_Daniel-iba-a-Bolivia.wav,./stim/wavs/argentine_match_declarative-broad-focus_Daniel-iba-a-Bolivia.wav,./stim/wavs/castilian_match_declarative-broad-focus_Daniel-iba-a-Bolivia.wav,./stim/wavs/chilean_match_declarative-broad-focus_Daniel-iba-a-Bolivia.wav,./stim/wavs/cuban_match_declarative-broad-focus_Daniel-iba-a-Bolivia.wav,./stim/wavs/mexican_match_declarative-broad-focus_Daniel-iba-a-Bolivia.wav,./stim/wavs/peruvian_match_declarative-broad-focus_Daniel-iba-a-Bolivia.wav,./stim/wavs/puertorican_match_declarative-broad-focus_Daniel-iba-a-Bolivia.wav,,,,,,,,,,,,,,,,,,,,,,,,,,,,,,,,,,,,,,,,,,,,,,,,,,,,,,,,
,,,,,,,5d0ac7504d57690017a355ef,6057c54e64b0b4e5c128b4f9,60582c690e8a0290b6af4ab0,Mexico,East coast,12 or younger,no,2021-03-22_01h39.36.345,empathy_intonation_perc,2020.2.10,Win32,60,,,,,,,,,,0,peruvian,0,1,2.597565,0,59,59,41,1,42,./stim/wavs/andalusian_mismatch_declarative-narrow-focus_El-hombre-mira-la-luna.wav,./stim/wavs/argentine_mismatch_declarative-narrow-focus_El-hombre-mira-la-luna.wav,./stim/wavs/castilian_mismatch_declarative-narrow-focus_El-hombre-mira-la-luna.wav,./stim/wavs/chilean_mismatch_declarative-narrow-focus_El-hombre-mira-la-luna.wav,./stim/wavs/cuban_mismatch_declarative-narrow-focus_El-hombre-mira-la-luna.wav,./stim/wavs/mexican_mismatch_declarative-narrow-focus_El-hombre-mira-la-luna.wav,./stim/wavs/peruvian_mismatch_declarative-narrow-focus_El-hombre-mira-la-luna.wav,./stim/wavs/puertorican_mismatch_declarative-narrow-focus_El-hombre-mira-la-luna.wav,,,,,,,,,,,,,,,,,,,,,,,,,,,,,,,,,,,,,,,,,,,,,,,,,,,,,,,,
,,,,,,,5d0ac7504d57690017a355ef,6057c54e64b0b4e5c128b4f9,60582c690e8a0290b6af4ab0,Mexico,East coast,12 or younger,no,2021-03-22_01h39.36.345,empathy_intonation_perc,2020.2.10,Win32,60,,,,,,,,,,1,cuban,0,0,1.653795,0,60,60,51,1,52,./stim/wavs/andalusian_mismatch_interrogative-partial-wh_Por-que-desayuna-muy-bien.wav,./stim/wavs/argentine_mismatch_interrogative-partial-wh_Por-que-desayuna-muy-bien.wav,./stim/wavs/castilian_mismatch_interrogative-partial-wh_Por-que-desayuna-muy-bien.wav,./stim/wavs/chilean_mismatch_interrogative-partial-wh_Por-que-desayuna-muy-bien.wav,./stim/wavs/cuban_mismatch_interrogative-partial-wh_Por-que-desayuna-muy-bien.wav,./stim/wavs/mexican_mismatch_interrogative-partial-wh_Por-que-desayuna-muy-bien.wav,./stim/wavs/peruvian_mismatch_interrogative-partial-wh_Por-que-desayuna-muy-bien.wav,./stim/wavs/puertorican_mismatch_interrogative-partial-wh_Por-que-desayuna-muy-bien.wav,,,,,,,,,,,,,,,,,,,,,,,,,,,,,,,,,,,,,,,,,,,,,,,,,,,,,,,,
,,,,,,,5d0ac7504d57690017a355ef,6057c54e64b0b4e5c128b4f9,60582c690e8a0290b6af4ab0,Mexico,East coast,12 or younger,no,2021-03-22_01h39.36.345,empathy_intonation_perc,2020.2.10,Win32,60,,,,,,,,,,1,andalusian,1,1,1.97582,0,61,61,63,1,64,./stim/wavs/andalusian_mismatch_interrogative-total-yn_Mi-tia-odia-la-lluvia.wav,./stim/wavs/argentine_mismatch_interrogative-total-yn_Mi-tia-odia-la-lluvia.wav,./stim/wavs/castilian_mismatch_interrogative-total-yn_Mi-tia-odia-la-lluvia.wav,./stim/wavs/chilean_mismatch_interrogative-total-yn_Mi-tia-odia-la-lluvia.wav,./stim/wavs/cuban_mismatch_interrogative-total-yn_Mi-tia-odia-la-lluvia.wav,./stim/wavs/mexican_mismatch_interrogative-total-yn_Mi-tia-odia-la-lluvia.wav,./stim/wavs/peruvian_mismatch_interrogative-total-yn_Mi-tia-odia-la-lluvia.wav,./stim/wavs/puertorican_mismatch_interrogative-total-yn_Mi-tia-odia-la-lluvia.wav,,,,,,,,,,,,,,,,,,,,,,,,,,,,,,,,,,,,,,,,,,,,,,,,,,,,,,,,
,,,,,,,5d0ac7504d57690017a355ef,6057c54e64b0b4e5c128b4f9,60582c690e8a0290b6af4ab0,Mexico,East coast,12 or younger,no,2021-03-22_01h39.36.345,empathy_intonation_perc,2020.2.10,Win32,60,,,,,,,,,,1,chilean,1,1,1.534535,0,62,62,18,1,19,./stim/wavs/andalusian_match_interrogative-partial-wh_Cuando-lleva-el-abrigo.wav,./stim/wavs/argentine_match_interrogative-partial-wh_Cuando-lleva-el-abrigo.wav,./stim/wavs/castilian_match_interrogative-partial-wh_Cuando-lleva-el-abrigo.wav,./stim/wavs/chilean_match_interrogative-partial-wh_Cuando-lleva-el-abrigo.wav,./stim/wavs/cuban_match_interrogative-partial-wh_Cuando-lleva-el-abrigo.wav,./stim/wavs/mexican_match_interrogative-partial-wh_Cuando-lleva-el-abrigo.wav,./stim/wavs/peruvian_match_interrogative-partial-wh_Cuando-lleva-el-abrigo.wav,./stim/wavs/puertorican_match_interrogative-partial-wh_Cuando-lleva-el-abrigo.wav,,,,,,,,,,,,,,,,,,,,,,,,,,,,,,,,,,,,,,,,,,,,,,,,,,,,,,,,
,,,,,,,5d0ac7504d57690017a355ef,6057c54e64b0b4e5c128b4f9,60582c690e8a0290b6af4ab0,Mexico,East coast,12 or younger,no,2021-03-22_01h39.36.345,empathy_intonation_perc,2020.2.10,Win32,60,,,,,,,,,,0,castilian,0,1,1.770275,0,63,63,39,1,40,./stim/wavs/andalusian_mismatch_declarative-broad-focus_Mi-tia-odia-la-lluvia.wav,./stim/wavs/argentine_mismatch_declarative-broad-focus_Mi-tia-odia-la-lluvia.wav,./stim/wavs/castilian_mismatch_declarative-broad-focus_Mi-tia-odia-la-lluvia.wav,./stim/wavs/chilean_mismatch_declarative-broad-focus_Mi-tia-odia-la-lluvia.wav,./stim/wavs/cuban_mismatch_declarative-broad-focus_Mi-tia-odia-la-lluvia.wav,./stim/wavs/mexican_mismatch_declarative-broad-focus_Mi-tia-odia-la-lluvia.wav,./stim/wavs/peruvian_mismatch_declarative-broad-focus_Mi-tia-odia-la-lluvia.wav,./stim/wavs/puertorican_mismatch_declarative-broad-focus_Mi-tia-odia-la-lluvia.wav,,,,,,,,,,,,,,,,,,,,,,,,,,,,,,,,,,,,,,,,,,,,,,,,,,,,,,,,
,,,,,,,5d0ac7504d57690017a355ef,6057c54e64b0b4e5c128b4f9,60582c690e8a0290b6af4ab0,Mexico,East coast,12 or younger,no,2021-03-22_01h39.36.345,empathy_intonation_perc,2020.2.10,Win32,60,,,,,,,,,,,,,,,,,,,,,,,,,,,,,h,1,6.82487,0,0,0,0,1,,,,,,,,,,,,,,,,,,,,,,,,,,,,,,,,,,,,,,,,,,,,,,,,
,,,,,"Great! Now we will move on. The next task consists of about 60 trials, in each of which you will see a string of letters. 
  
  Your task is to decide whether this is a real Spanish word or not.",(press the spacebar to continue),5d0ac7504d57690017a355ef,6057c54e64b0b4e5c128b4f9,60582c690e8a0290b6af4ab0,Mexico,East coast,12 or younger,no,2021-03-22_01h39.36.345,empathy_intonation_perc,2020.2.10,Win32,60,,,,,,,,,,,,,,,,,,,,,,,,,,,,,,,,,,,,,0,0,0,0,1,,,,,,,,,,,,,,,,,,,,,,,,,,,,,,,,,,,,,,,,,,,
,,,,,"If you think it is an existing Spanish word, you type '1' (for 'REAL'), and if you think it is not an existing Spanish word, you type '0' (for 'FAKE').",(press the spacebar to continue),5d0ac7504d57690017a355ef,6057c54e64b0b4e5c128b4f9,60582c690e8a0290b6af4ab0,Mexico,East coast,12 or younger,no,2021-03-22_01h39.36.345,empathy_intonation_perc,2020.2.10,Win32,60,,,,,,,,,,,,,,,,,,,,,,,,,,,,,,,,,,,,,0,1,1,1,1,,,,,,,,,,,,,,,,,,,,,,,,,,,,,,,,,,,,,,,,,,,
,,,,,"If you are sure that the word exists, even though you dont know its exact meaning, you may still respond '1' (REAL). 
  
  But if you are not sure if it is an existing word, you should respond '0' (FAKE).
  
  Let's do a practice round...",(press the spacebar to continue),5d0ac7504d57690017a355ef,6057c54e64b0b4e5c128b4f9,60582c690e8a0290b6af4ab0,Mexico,East coast,12 or younger,no,2021-03-22_01h39.36.345,empathy_intonation_perc,2020.2.10,Win32,60,,,,,,,,,,,,,,,,,,,,,,,,,,,,,,,,,,,,,0,2,2,2,1,,,,,,,,,,,,,,,,,,,,,,,,,,,,,,,,,,,,,,,,,,,
,,,,,,,5d0ac7504d57690017a355ef,6057c54e64b0b4e5c128b4f9,60582c690e8a0290b6af4ab0,Mexico,East coast,12 or younger,no,2021-03-22_01h39.36.345,empathy_intonation_perc,2020.2.10,Win32,60,,,,,,,,,,0,,,,,,,,,,,,,,,,,,,,,,,,,,,,,,,,0,1,3.203765,0,0,0,0,1,0,depiste,REAL,FAKE,,,,,,,,,,,,,,,,,,,,,,,,,,,,,,,
,,,,,,,5d0ac7504d57690017a355ef,6057c54e64b0b4e5c128b4f9,60582c690e8a0290b6af4ab0,Mexico,East coast,12 or younger,no,2021-03-22_01h39.36.345,empathy_intonation_perc,2020.2.10,Win32,60,,,,,,,,,,1,,,,,,,,,,,,,,,,,,,,,,,,,,,,,,,,1,1,1.15754,0,1,1,1,1,0,s,REAL,FAKE,,,,,,,,,,,,,,,,,,,,,,,,,,,,,,,
,,,,,,,5d0ac7504d57690017a355ef,6057c54e64b0b4e5c128b4f9,60582c690e8a0290b6af4ab0,Mexico,East coast,12 or younger,no,2021-03-22_01h39.36.345,empathy_intonation_perc,2020.2.10,Win32,60,,,,,,,,,,0,,,,,,,,,,,,,,,,,,,,,,,,,,,,,,,,1,0,0.970975,0,2,2,2,1,0,con,REAL,FAKE,,,,,,,,,,,,,,,,,,,,,,,,,,,,,,,
,,,,,,,5d0ac7504d57690017a355ef,6057c54e64b0b4e5c128b4f9,60582c690e8a0290b6af4ab0,Mexico,East coast,12 or younger,no,2021-03-22_01h39.36.345,empathy_intonation_perc,2020.2.10,Win32,60,,,,,,,,,,0,,,,,,,,,,,,,,,,,,,,,,,,,,,,,,,,1,0,1.626675,0,3,3,3,1,0,calpar,REAL,FAKE,,,,,,,,,,,,,,,,,,,,,,,,,,,,,,,
,,,,,,,5d0ac7504d57690017a355ef,6057c54e64b0b4e5c128b4f9,60582c690e8a0290b6af4ab0,Mexico,East coast,12 or younger,no,2021-03-22_01h39.36.345,empathy_intonation_perc,2020.2.10,Win32,60,,,,,,,,,,0,,,,,,,,,,,,,,,,,,,,,,,,,,,,,,,,1,0,1.287845,0,4,4,4,1,0,joten,REAL,FAKE,,,,,,,,,,,,,,,,,,,,,,,,,,,,,,,
,,,,,,,5d0ac7504d57690017a355ef,6057c54e64b0b4e5c128b4f9,60582c690e8a0290b6af4ab0,Mexico,East coast,12 or younger,no,2021-03-22_01h39.36.345,empathy_intonation_perc,2020.2.10,Win32,60,,,,,,,,,,1,,,,,,,,,,,,,,,,,,,,,,,,,,,,,,,,0,0,1.984035,0,5,5,5,1,0,sacapuntas,REAL,FAKE,,,,,,,,,,,,,,,,,,,,,,,,,,,,,,,
,,,,,,,5d0ac7504d57690017a355ef,6057c54e64b0b4e5c128b4f9,60582c690e8a0290b6af4ab0,Mexico,East coast,12 or younger,no,2021-03-22_01h39.36.345,empathy_intonation_perc,2020.2.10,Win32,60,,,,,,,,,,0,,,,,,,,,,,,,,,,,,,,,,,,,,,,,,,,1,0,1.468115,0,6,6,6,1,0,priba,REAL,FAKE,,,,,,,,,,,,,,,,,,,,,,,,,,,,,,,
,,,,,,,5d0ac7504d57690017a355ef,6057c54e64b0b4e5c128b4f9,60582c690e8a0290b6af4ab0,Mexico,East coast,12 or younger,no,2021-03-22_01h39.36.345,empathy_intonation_perc,2020.2.10,Win32,60,,,,,,,,,,0,,,,,,,,,,,,,,,,,,,,,,,,,,,,,,,,0,1,1.852065,0,7,7,7,1,0,pelasula,REAL,FAKE,,,,,,,,,,,,,,,,,,,,,,,,,,,,,,,
,,,,,,,5d0ac7504d57690017a355ef,6057c54e64b0b4e5c128b4f9,60582c690e8a0290b6af4ab0,Mexico,East coast,12 or younger,no,2021-03-22_01h39.36.345,empathy_intonation_perc,2020.2.10,Win32,60,,,,,,,,,,1,,,,,,,,,,,,,,,,,,,,,,,,,,,,,,,,1,1,1.411875,0,8,8,8,1,0,bien,REAL,FAKE,,,,,,,,,,,,,,,,,,,,,,,,,,,,,,,
,,,,,,,5d0ac7504d57690017a355ef,6057c54e64b0b4e5c128b4f9,60582c690e8a0290b6af4ab0,Mexico,East coast,12 or younger,no,2021-03-22_01h39.36.345,empathy_intonation_perc,2020.2.10,Win32,60,,,,,,,,,,1,,,,,,,,,,,,,,,,,,,,,,,,,,,,,,,,1,1,1.02052,0,9,9,9,1,0,casa,REAL,FAKE,,,,,,,,,,,,,,,,,,,,,,,,,,,,,,,
,,,,,,,5d0ac7504d57690017a355ef,6057c54e64b0b4e5c128b4f9,60582c690e8a0290b6af4ab0,Mexico,East coast,12 or younger,no,2021-03-22_01h39.36.345,empathy_intonation_perc,2020.2.10,Win32,60,,,,,,,,,,0,,,,,,,,,,,,,,,,,,,,,,,,,,,,,,,,1,0,1.104325,0,10,10,10,1,0,lejo,REAL,FAKE,,,,,,,,,,,,,,,,,,,,,,,,,,,,,,,
,,,,,,,5d0ac7504d57690017a355ef,6057c54e64b0b4e5c128b4f9,60582c690e8a0290b6af4ab0,Mexico,East coast,12 or younger,no,2021-03-22_01h39.36.345,empathy_intonation_perc,2020.2.10,Win32,60,,,,,,,,,,0,,,,,,,,,,,,,,,,,,,,,,,,,,,,,,,,1,0,1.485545,0,11,11,11,1,0,pretantas,REAL,FAKE,,,,,,,,,,,,,,,,,,,,,,,,,,,,,,,
,,,,,,,5d0ac7504d57690017a355ef,6057c54e64b0b4e5c128b4f9,60582c690e8a0290b6af4ab0,Mexico,East coast,12 or younger,no,2021-03-22_01h39.36.345,empathy_intonation_perc,2020.2.10,Win32,60,,,,,,,,,,1,,,,,,,,,,,,,,,,,,,,,,,,,,,,,,,,,,,,,,,,25,bisagra,,,0,0,1.39205,0,0,0,24,1,REAL,FAKE,,,,,,,,,,,,,,,,,,,,,
,,,,,,,5d0ac7504d57690017a355ef,6057c54e64b0b4e5c128b4f9,60582c690e8a0290b6af4ab0,Mexico,East coast,12 or younger,no,2021-03-22_01h39.36.345,empathy_intonation_perc,2020.2.10,Win32,60,,,,,,,,,,0,,,,,,,,,,,,,,,,,,,,,,,,,,,,,,,,,,,,,,,,79,tropaje,,,1,0,1.299755,0,1,1,78,1,REAL,FAKE,,,,,,,,,,,,,,,,,,,,,
,,,,,,,5d0ac7504d57690017a355ef,6057c54e64b0b4e5c128b4f9,60582c690e8a0290b6af4ab0,Mexico,East coast,12 or younger,no,2021-03-22_01h39.36.345,empathy_intonation_perc,2020.2.10,Win32,60,,,,,,,,,,1,,,,,,,,,,,,,,,,,,,,,,,,,,,,,,,,,,,,,,,,46,martillo,,,0,0,1.228425,0,2,2,45,1,REAL,FAKE,,,,,,,,,,,,,,,,,,,,,
,,,,,,,5d0ac7504d57690017a355ef,6057c54e64b0b4e5c128b4f9,60582c690e8a0290b6af4ab0,Mexico,East coast,12 or younger,no,2021-03-22_01h39.36.345,empathy_intonation_perc,2020.2.10,Win32,60,,,,,,,,,,1,,,,,,,,,,,,,,,,,,,,,,,,,,,,,,,,,,,,,,,,68,alegre,,,1,1,1.361525,0,3,3,67,1,REAL,FAKE,,,,,,,,,,,,,,,,,,,,,
,,,,,,,5d0ac7504d57690017a355ef,6057c54e64b0b4e5c128b4f9,60582c690e8a0290b6af4ab0,Mexico,East coast,12 or younger,no,2021-03-22_01h39.36.345,empathy_intonation_perc,2020.2.10,Win32,60,,,,,,,,,,1,,,,,,,,,,,,,,,,,,,,,,,,,,,,,,,,,,,,,,,,52,camisa,,,1,1,1.46007,0,4,4,51,1,REAL,FAKE,,,,,,,,,,,,,,,,,,,,,
,,,,,,,5d0ac7504d57690017a355ef,6057c54e64b0b4e5c128b4f9,60582c690e8a0290b6af4ab0,Mexico,East coast,12 or younger,no,2021-03-22_01h39.36.345,empathy_intonation_perc,2020.2.10,Win32,60,,,,,,,,,,0,,,,,,,,,,,,,,,,,,,,,,,,,,,,,,,,,,,,,,,,17,floroso,,,0,1,1.84245,0,5,5,16,1,REAL,FAKE,,,,,,,,,,,,,,,,,,,,,
,,,,,,,5d0ac7504d57690017a355ef,6057c54e64b0b4e5c128b4f9,60582c690e8a0290b6af4ab0,Mexico,East coast,12 or younger,no,2021-03-22_01h39.36.345,empathy_intonation_perc,2020.2.10,Win32,60,,,,,,,,,,1,,,,,,,,,,,,,,,,,,,,,,,,,,,,,,,,,,,,,,,,49,ganar,,,1,1,1.326545,0,6,6,48,1,REAL,FAKE,,,,,,,,,,,,,,,,,,,,,
,,,,,,,5d0ac7504d57690017a355ef,6057c54e64b0b4e5c128b4f9,60582c690e8a0290b6af4ab0,Mexico,East coast,12 or younger,no,2021-03-22_01h39.36.345,empathy_intonation_perc,2020.2.10,Win32,60,,,,,,,,,,0,,,,,,,,,,,,,,,,,,,,,,,,,,,,,,,,,,,,,,,,19,brecedad,,,0,1,1.194325,0,7,7,18,1,REAL,FAKE,,,,,,,,,,,,,,,,,,,,,
,,,,,,,5d0ac7504d57690017a355ef,6057c54e64b0b4e5c128b4f9,60582c690e8a0290b6af4ab0,Mexico,East coast,12 or younger,no,2021-03-22_01h39.36.345,empathy_intonation_perc,2020.2.10,Win32,60,,,,,,,,,,0,,,,,,,,,,,,,,,,,,,,,,,,,,,,,,,,,,,,,,,,53,vegada,,,0,1,1.14814,0,8,8,52,1,REAL,FAKE,,,,,,,,,,,,,,,,,,,,,
,,,,,,,5d0ac7504d57690017a355ef,6057c54e64b0b4e5c128b4f9,60582c690e8a0290b6af4ab0,Mexico,East coast,12 or younger,no,2021-03-22_01h39.36.345,empathy_intonation_perc,2020.2.10,Win32,60,,,,,,,,,,1,,,,,,,,,,,,,,,,,,,,,,,,,,,,,,,,,,,,,,,,2,pellizcar,,,0,0,1.180775,0,9,9,1,1,REAL,FAKE,,,,,,,,,,,,,,,,,,,,,
,,,,,,,5d0ac7504d57690017a355ef,6057c54e64b0b4e5c128b4f9,60582c690e8a0290b6af4ab0,Mexico,East coast,12 or younger,no,2021-03-22_01h39.36.345,empathy_intonation_perc,2020.2.10,Win32,60,,,,,,,,,,1,,,,,,,,,,,,,,,,,,,,,,,,,,,,,,,,,,,,,,,,11,cenefa,,,0,0,1.15213,0,10,10,10,1,REAL,FAKE,,,,,,,,,,,,,,,,,,,,,
,,,,,,,5d0ac7504d57690017a355ef,6057c54e64b0b4e5c128b4f9,60582c690e8a0290b6af4ab0,Mexico,East coast,12 or younger,no,2021-03-22_01h39.36.345,empathy_intonation_perc,2020.2.10,Win32,60,,,,,,,,,,0,,,,,,,,,,,,,,,,,,,,,,,,,,,,,,,,,,,,,,,,1,terzo,,,1,0,1.42774,0,11,11,0,1,REAL,FAKE,,,,,,,,,,,,,,,,,,,,,
,,,,,,,5d0ac7504d57690017a355ef,6057c54e64b0b4e5c128b4f9,60582c690e8a0290b6af4ab0,Mexico,East coast,12 or younger,no,2021-03-22_01h39.36.345,empathy_intonation_perc,2020.2.10,Win32,60,,,,,,,,,,1,,,,,,,,,,,,,,,,,,,,,,,,,,,,,,,,,,,,,,,,15,regar,,,0,0,1.00975,0,12,12,14,1,REAL,FAKE,,,,,,,,,,,,,,,,,,,,,
,,,,,,,5d0ac7504d57690017a355ef,6057c54e64b0b4e5c128b4f9,60582c690e8a0290b6af4ab0,Mexico,East coast,12 or younger,no,2021-03-22_01h39.36.345,empathy_intonation_perc,2020.2.10,Win32,60,,,,,,,,,,1,,,,,,,,,,,,,,,,,,,,,,,,,,,,,,,,,,,,,,,,60,matar,,,1,1,1.042305,0,13,13,59,1,REAL,FAKE,,,,,,,,,,,,,,,,,,,,,
,,,,,,,5d0ac7504d57690017a355ef,6057c54e64b0b4e5c128b4f9,60582c690e8a0290b6af4ab0,Mexico,East coast,12 or younger,no,2021-03-22_01h39.36.345,empathy_intonation_perc,2020.2.10,Win32,60,,,,,,,,,,1,,,,,,,,,,,,,,,,,,,,,,,,,,,,,,,,,,,,,,,,39,torpe,,,0,0,1.163875,0,14,14,38,1,REAL,FAKE,,,,,,,,,,,,,,,,,,,,,
,,,,,,,5d0ac7504d57690017a355ef,6057c54e64b0b4e5c128b4f9,60582c690e8a0290b6af4ab0,Mexico,East coast,12 or younger,no,2021-03-22_01h39.36.345,empathy_intonation_perc,2020.2.10,Win32,60,,,,,,,,,,1,,,,,,,,,,,,,,,,,,,,,,,,,,,,,,,,,,,,,,,,78,frondoso,,,0,0,1.029575,0,15,15,77,1,REAL,FAKE,,,,,,,,,,,,,,,,,,,,,
,,,,,,,5d0ac7504d57690017a355ef,6057c54e64b0b4e5c128b4f9,60582c690e8a0290b6af4ab0,Mexico,East coast,12 or younger,no,2021-03-22_01h39.36.345,empathy_intonation_perc,2020.2.10,Win32,60,,,,,,,,,,1,,,,,,,,,,,,,,,,,,,,,,,,,,,,,,,,,,,,,,,,89,prisa,,,0,0,0.948895,0,16,16,88,1,REAL,FAKE,,,,,,,,,,,,,,,,,,,,,
,,,,,,,5d0ac7504d57690017a355ef,6057c54e64b0b4e5c128b4f9,60582c690e8a0290b6af4ab0,Mexico,East coast,12 or younger,no,2021-03-22_01h39.36.345,empathy_intonation_perc,2020.2.10,Win32,60,,,,,,,,,,1,,,,,,,,,,,,,,,,,,,,,,,,,,,,,,,,,,,,,,,,57,tacao,,,1,1,1.01125,0,17,17,56,1,REAL,FAKE,,,,,,,,,,,,,,,,,,,,,
,,,,,,,5d0ac7504d57690017a355ef,6057c54e64b0b4e5c128b4f9,60582c690e8a0290b6af4ab0,Mexico,East coast,12 or younger,no,2021-03-22_01h39.36.345,empathy_intonation_perc,2020.2.10,Win32,60,,,,,,,,,,1,,,,,,,,,,,,,,,,,,,,,,,,,,,,,,,,,,,,,,,,62,flaco,,,1,1,2.163805,0,18,18,61,1,REAL,FAKE,,,,,,,,,,,,,,,,,,,,,
,,,,,,,5d0ac7504d57690017a355ef,6057c54e64b0b4e5c128b4f9,60582c690e8a0290b6af4ab0,Mexico,East coast,12 or younger,no,2021-03-22_01h39.36.345,empathy_intonation_perc,2020.2.10,Win32,60,,,,,,,,,,0,,,,,,,,,,,,,,,,,,,,,,,,,,,,,,,,,,,,,,,,8,cadea,,,1,0,2.06207,0,19,19,7,1,REAL,FAKE,,,,,,,,,,,,,,,,,,,,,
,,,,,,,5d0ac7504d57690017a355ef,6057c54e64b0b4e5c128b4f9,60582c690e8a0290b6af4ab0,Mexico,East coast,12 or younger,no,2021-03-22_01h39.36.345,empathy_intonation_perc,2020.2.10,Win32,60,,,,,,,,,,1,,,,,,,,,,,,,,,,,,,,,,,,,,,,,,,,,,,,,,,,5,zapato,,,1,1,1.47836,0,20,20,4,1,REAL,FAKE,,,,,,,,,,,,,,,,,,,,,
,,,,,,,5d0ac7504d57690017a355ef,6057c54e64b0b4e5c128b4f9,60582c690e8a0290b6af4ab0,Mexico,East coast,12 or younger,no,2021-03-22_01h39.36.345,empathy_intonation_perc,2020.2.10,Win32,60,,,,,,,,,,1,,,,,,,,,,,,,,,,,,,,,,,,,,,,,,,,,,,,,,,,59,besar,,,0,0,1.01068,0,21,21,58,1,REAL,FAKE,,,,,,,,,,,,,,,,,,,,,
,,,,,,,5d0ac7504d57690017a355ef,6057c54e64b0b4e5c128b4f9,60582c690e8a0290b6af4ab0,Mexico,East coast,12 or younger,no,2021-03-22_01h39.36.345,empathy_intonation_perc,2020.2.10,Win32,60,,,,,,,,,,0,,,,,,,,,,,,,,,,,,,,,,,,,,,,,,,,,,,,,,,,66,hacido,,,0,1,1.411645,0,22,22,65,1,REAL,FAKE,,,,,,,,,,,,,,,,,,,,,
,,,,,,,5d0ac7504d57690017a355ef,6057c54e64b0b4e5c128b4f9,60582c690e8a0290b6af4ab0,Mexico,East coast,12 or younger,no,2021-03-22_01h39.36.345,empathy_intonation_perc,2020.2.10,Win32,60,,,,,,,,,,1,,,,,,,,,,,,,,,,,,,,,,,,,,,,,,,,,,,,,,,,14,yunque,,,0,0,1.259605,0,23,23,13,1,REAL,FAKE,,,,,,,,,,,,,,,,,,,,,
,,,,,,,5d0ac7504d57690017a355ef,6057c54e64b0b4e5c128b4f9,60582c690e8a0290b6af4ab0,Mexico,East coast,12 or younger,no,2021-03-22_01h39.36.345,empathy_intonation_perc,2020.2.10,Win32,60,,,,,,,,,,0,,,,,,,,,,,,,,,,,,,,,,,,,,,,,,,,,,,,,,,,10,antar,,,1,0,1.345785,0,24,24,9,1,REAL,FAKE,,,,,,,,,,,,,,,,,,,,,
,,,,,,,5d0ac7504d57690017a355ef,6057c54e64b0b4e5c128b4f9,60582c690e8a0290b6af4ab0,Mexico,East coast,12 or younger,no,2021-03-22_01h39.36.345,empathy_intonation_perc,2020.2.10,Win32,60,,,,,,,,,,0,,,,,,,,,,,,,,,,,,,,,,,,,,,,,,,,,,,,,,,,21,capillo,,,0,1,0.8129,0,25,25,20,1,REAL,FAKE,,,,,,,,,,,,,,,,,,,,,
,,,,,,,5d0ac7504d57690017a355ef,6057c54e64b0b4e5c128b4f9,60582c690e8a0290b6af4ab0,Mexico,East coast,12 or younger,no,2021-03-22_01h39.36.345,empathy_intonation_perc,2020.2.10,Win32,60,,,,,,,,,,1,,,,,,,,,,,,,,,,,,,,,,,,,,,,,,,,,,,,,,,,3,pulmones,,,0,0,1.02816,0,26,26,2,1,REAL,FAKE,,,,,,,,,,,,,,,,,,,,,
,,,,,,,5d0ac7504d57690017a355ef,6057c54e64b0b4e5c128b4f9,60582c690e8a0290b6af4ab0,Mexico,East coast,12 or younger,no,2021-03-22_01h39.36.345,empathy_intonation_perc,2020.2.10,Win32,60,,,,,,,,,,1,,,,,,,,,,,,,,,,,,,,,,,,,,,,,,,,,,,,,,,,64,orgulloso,,,0,0,0.911835,0,27,27,63,1,REAL,FAKE,,,,,,,,,,,,,,,,,,,,,
,,,,,,,5d0ac7504d57690017a355ef,6057c54e64b0b4e5c128b4f9,60582c690e8a0290b6af4ab0,Mexico,East coast,12 or younger,no,2021-03-22_01h39.36.345,empathy_intonation_perc,2020.2.10,Win32,60,,,,,,,,,,0,,,,,,,,,,,,,,,,,,,,,,,,,,,,,,,,,,,,,,,,32,fatacidad,,,0,1,2.197955,0,28,28,31,1,REAL,FAKE,,,,,,,,,,,,,,,,,,,,,
,,,,,,,5d0ac7504d57690017a355ef,6057c54e64b0b4e5c128b4f9,60582c690e8a0290b6af4ab0,Mexico,East coast,12 or younger,no,2021-03-22_01h39.36.345,empathy_intonation_perc,2020.2.10,Win32,60,,,,,,,,,,1,,,,,,,,,,,,,,,,,,,,,,,,,,,,,,,,,,,,,,,,69,engatusar,,,0,0,1.695075,0,29,29,68,1,REAL,FAKE,,,,,,,,,,,,,,,,,,,,,
,,,,,,,5d0ac7504d57690017a355ef,6057c54e64b0b4e5c128b4f9,60582c690e8a0290b6af4ab0,Mexico,East coast,12 or younger,no,2021-03-22_01h39.36.345,empathy_intonation_perc,2020.2.10,Win32,60,,,,,,,,,,0,,,,,,,,,,,,,,,,,,,,,,,,,,,,,,,,,,,,,,,,70,temblo,,,0,1,0.9308,0,30,30,69,1,REAL,FAKE,,,,,,,,,,,,,,,,,,,,,
,,,,,,,5d0ac7504d57690017a355ef,6057c54e64b0b4e5c128b4f9,60582c690e8a0290b6af4ab0,Mexico,East coast,12 or younger,no,2021-03-22_01h39.36.345,empathy_intonation_perc,2020.2.10,Win32,60,,,,,,,,,,0,,,,,,,,,,,,,,,,,,,,,,,,,,,,,,,,,,,,,,,,84,escuto,,,0,1,1.461085,0,31,31,83,1,REAL,FAKE,,,,,,,,,,,,,,,,,,,,,
,,,,,,,5d0ac7504d57690017a355ef,6057c54e64b0b4e5c128b4f9,60582c690e8a0290b6af4ab0,Mexico,East coast,12 or younger,no,2021-03-22_01h39.36.345,empathy_intonation_perc,2020.2.10,Win32,60,,,,,,,,,,0,,,,,,,,,,,,,,,,,,,,,,,,,,,,,,,,,,,,,,,,42,cadallo,,,0,1,0.83169,0,32,32,41,1,REAL,FAKE,,,,,,,,,,,,,,,,,,,,,
,,,,,,,5d0ac7504d57690017a355ef,6057c54e64b0b4e5c128b4f9,60582c690e8a0290b6af4ab0,Mexico,East coast,12 or younger,no,2021-03-22_01h39.36.345,empathy_intonation_perc,2020.2.10,Win32,60,,,,,,,,,,1,,,,,,,,,,,,,,,,,,,,,,,,,,,,,,,,,,,,,,,,9,hacha,,,0,0,1.015955,0,33,33,8,1,REAL,FAKE,,,,,,,,,,,,,,,,,,,,,
,,,,,,,5d0ac7504d57690017a355ef,6057c54e64b0b4e5c128b4f9,60582c690e8a0290b6af4ab0,Mexico,East coast,12 or younger,no,2021-03-22_01h39.36.345,empathy_intonation_perc,2020.2.10,Win32,60,,,,,,,,,,1,,,,,,,,,,,,,,,,,,,,,,,,,,,,,,,,,,,,,,,,41,rebuscar,,,0,0,0.8598,0,34,34,40,1,REAL,FAKE,,,,,,,,,,,,,,,,,,,,,
,,,,,,,5d0ac7504d57690017a355ef,6057c54e64b0b4e5c128b4f9,60582c690e8a0290b6af4ab0,Mexico,East coast,12 or younger,no,2021-03-22_01h39.36.345,empathy_intonation_perc,2020.2.10,Win32,60,,,,,,,,,,1,,,,,,,,,,,,,,,,,,,,,,,,,,,,,,,,,,,,,,,,48,ladrn,,,0,0,1.277005,0,35,35,47,1,REAL,FAKE,,,,,,,,,,,,,,,,,,,,,
,,,,,,,5d0ac7504d57690017a355ef,6057c54e64b0b4e5c128b4f9,60582c690e8a0290b6af4ab0,Mexico,East coast,12 or younger,no,2021-03-22_01h39.36.345,empathy_intonation_perc,2020.2.10,Win32,60,,,,,,,,,,1,,,,,,,,,,,,,,,,,,,,,,,,,,,,,,,,,,,,,,,,26,secuestro,,,0,0,2.3041,0,36,36,25,1,REAL,FAKE,,,,,,,,,,,,,,,,,,,,,
,,,,,,,5d0ac7504d57690017a355ef,6057c54e64b0b4e5c128b4f9,60582c690e8a0290b6af4ab0,Mexico,East coast,12 or younger,no,2021-03-22_01h39.36.345,empathy_intonation_perc,2020.2.10,Win32,60,,,,,,,,,,1,,,,,,,,,,,,,,,,,,,,,,,,,,,,,,,,,,,,,,,,85,lad,,,0,0,0.913585,0,37,37,84,1,REAL,FAKE,,,,,,,,,,,,,,,,,,,,,
,,,,,,,5d0ac7504d57690017a355ef,6057c54e64b0b4e5c128b4f9,60582c690e8a0290b6af4ab0,Mexico,East coast,12 or younger,no,2021-03-22_01h39.36.345,empathy_intonation_perc,2020.2.10,Win32,60,,,,,,,,,,1,,,,,,,,,,,,,,,,,,,,,,,,,,,,,,,,,,,,,,,,55,nevar,,,0,0,1.34646,0,38,38,54,1,REAL,FAKE,,,,,,,,,,,,,,,,,,,,,
,,,,,,,5d0ac7504d57690017a355ef,6057c54e64b0b4e5c128b4f9,60582c690e8a0290b6af4ab0,Mexico,East coast,12 or younger,no,2021-03-22_01h39.36.345,empathy_intonation_perc,2020.2.10,Win32,60,,,,,,,,,,1,,,,,,,,,,,,,,,,,,,,,,,,,,,,,,,,,,,,,,,,81,pozo,,,0,0,0.7055,0,39,39,80,1,REAL,FAKE,,,,,,,,,,,,,,,,,,,,,
,,,,,,,5d0ac7504d57690017a355ef,6057c54e64b0b4e5c128b4f9,60582c690e8a0290b6af4ab0,Mexico,East coast,12 or younger,no,2021-03-22_01h39.36.345,empathy_intonation_perc,2020.2.10,Win32,60,,,,,,,,,,1,,,,,,,,,,,,,,,,,,,,,,,,,,,,,,,,,,,,,,,,38,estornudar,,,0,0,1.01669,0,40,40,37,1,REAL,FAKE,,,,,,,,,,,,,,,,,,,,,
,,,,,,,5d0ac7504d57690017a355ef,6057c54e64b0b4e5c128b4f9,60582c690e8a0290b6af4ab0,Mexico,East coast,12 or younger,no,2021-03-22_01h39.36.345,empathy_intonation_perc,2020.2.10,Win32,60,,,,,,,,,,1,,,,,,,,,,,,,,,,,,,,,,,,,,,,,,,,,,,,,,,,20,vido,,,0,0,1.36418,0,41,41,19,1,REAL,FAKE,,,,,,,,,,,,,,,,,,,,,
,,,,,,,5d0ac7504d57690017a355ef,6057c54e64b0b4e5c128b4f9,60582c690e8a0290b6af4ab0,Mexico,East coast,12 or younger,no,2021-03-22_01h39.36.345,empathy_intonation_perc,2020.2.10,Win32,60,,,,,,,,,,1,,,,,,,,,,,,,,,,,,,,,,,,,,,,,,,,,,,,,,,,36,loro,,,0,0,0.89579,0,42,42,35,1,REAL,FAKE,,,,,,,,,,,,,,,,,,,,,
,,,,,,,5d0ac7504d57690017a355ef,6057c54e64b0b4e5c128b4f9,60582c690e8a0290b6af4ab0,Mexico,East coast,12 or younger,no,2021-03-22_01h39.36.345,empathy_intonation_perc,2020.2.10,Win32,60,,,,,,,,,,0,,,,,,,,,,,,,,,,,,,,,,,,,,,,,,,,,,,,,,,,16,abracer,,,0,1,0.662565,0,43,43,15,1,REAL,FAKE,,,,,,,,,,,,,,,,,,,,,
,,,,,,,5d0ac7504d57690017a355ef,6057c54e64b0b4e5c128b4f9,60582c690e8a0290b6af4ab0,Mexico,East coast,12 or younger,no,2021-03-22_01h39.36.345,empathy_intonation_perc,2020.2.10,Win32,60,,,,,,,,,,1,,,,,,,,,,,,,,,,,,,,,,,,,,,,,,,,,,,,,,,,67,cabello,,,1,1,1.068535,0,44,44,66,1,REAL,FAKE,,,,,,,,,,,,,,,,,,,,,
,,,,,,,5d0ac7504d57690017a355ef,6057c54e64b0b4e5c128b4f9,60582c690e8a0290b6af4ab0,Mexico,East coast,12 or younger,no,2021-03-22_01h39.36.345,empathy_intonation_perc,2020.2.10,Win32,60,,,,,,,,,,0,,,,,,,,,,,,,,,,,,,,,,,,,,,,,,,,,,,,,,,,72,pemicin,,,1,0,2.67953,0,45,45,71,1,REAL,FAKE,,,,,,,,,,,,,,,,,,,,,
,,,,,,,5d0ac7504d57690017a355ef,6057c54e64b0b4e5c128b4f9,60582c690e8a0290b6af4ab0,Mexico,East coast,12 or younger,no,2021-03-22_01h39.36.345,empathy_intonation_perc,2020.2.10,Win32,60,,,,,,,,,,1,,,,,,,,,,,,,,,,,,,,,,,,,,,,,,,,,,,,,,,,77,tiburn,,,0,0,1.527045,0,46,46,76,1,REAL,FAKE,,,,,,,,,,,,,,,,,,,,,
,,,,,,,5d0ac7504d57690017a355ef,6057c54e64b0b4e5c128b4f9,60582c690e8a0290b6af4ab0,Mexico,East coast,12 or younger,no,2021-03-22_01h39.36.345,empathy_intonation_perc,2020.2.10,Win32,60,,,,,,,,,,0,,,,,,,,,,,,,,,,,,,,,,,,,,,,,,,,,,,,,,,,50,flamida,,,0,1,0.8604,0,47,47,49,1,REAL,FAKE,,,,,,,,,,,,,,,,,,,,,
,,,,,,,5d0ac7504d57690017a355ef,6057c54e64b0b4e5c128b4f9,60582c690e8a0290b6af4ab0,Mexico,East coast,12 or younger,no,2021-03-22_01h39.36.345,empathy_intonation_perc,2020.2.10,Win32,60,,,,,,,,,,1,,,,,,,,,,,,,,,,,,,,,,,,,,,,,,,,,,,,,,,,43,canela,,,1,1,1.380295,0,48,48,42,1,REAL,FAKE,,,,,,,,,,,,,,,,,,,,,
,,,,,,,5d0ac7504d57690017a355ef,6057c54e64b0b4e5c128b4f9,60582c690e8a0290b6af4ab0,Mexico,East coast,12 or younger,no,2021-03-22_01h39.36.345,empathy_intonation_perc,2020.2.10,Win32,60,,,,,,,,,,0,,,,,,,,,,,,,,,,,,,,,,,,,,,,,,,,,,,,,,,,23,lampera,,,1,0,3.47798,0,49,49,22,1,REAL,FAKE,,,,,,,,,,,,,,,,,,,,,
,,,,,,,5d0ac7504d57690017a355ef,6057c54e64b0b4e5c128b4f9,60582c690e8a0290b6af4ab0,Mexico,East coast,12 or younger,no,2021-03-22_01h39.36.345,empathy_intonation_perc,2020.2.10,Win32,60,,,,,,,,,,1,,,,,,,,,,,,,,,,,,,,,,,,,,,,,,,,,,,,,,,,71,polvoriento,,,0,0,0.86272,0,50,50,70,1,REAL,FAKE,,,,,,,,,,,,,,,,,,,,,
,,,,,,,5d0ac7504d57690017a355ef,6057c54e64b0b4e5c128b4f9,60582c690e8a0290b6af4ab0,Mexico,East coast,12 or younger,no,2021-03-22_01h39.36.345,empathy_intonation_perc,2020.2.10,Win32,60,,,,,,,,,,0,,,,,,,,,,,,,,,,,,,,,,,,,,,,,,,,,,,,,,,,29,decar,,,0,1,0.86295,0,51,51,28,1,REAL,FAKE,,,,,,,,,,,,,,,,,,,,,
,,,,,,,5d0ac7504d57690017a355ef,6057c54e64b0b4e5c128b4f9,60582c690e8a0290b6af4ab0,Mexico,East coast,12 or younger,no,2021-03-22_01h39.36.345,empathy_intonation_perc,2020.2.10,Win32,60,,,,,,,,,,0,,,,,,,,,,,,,,,,,,,,,,,,,,,,,,,,,,,,,,,,82,empirador,,,1,0,1.651355,0,52,52,81,1,REAL,FAKE,,,,,,,,,,,,,,,,,,,,,
,,,,,,,5d0ac7504d57690017a355ef,6057c54e64b0b4e5c128b4f9,60582c690e8a0290b6af4ab0,Mexico,East coast,12 or younger,no,2021-03-22_01h39.36.345,empathy_intonation_perc,2020.2.10,Win32,60,,,,,,,,,,1,,,,,,,,,,,,,,,,,,,,,,,,,,,,,,,,,,,,,,,,56,musgo,,,0,0,0.828685,0,53,53,55,1,REAL,FAKE,,,,,,,,,,,,,,,,,,,,,
,,,,,,,5d0ac7504d57690017a355ef,6057c54e64b0b4e5c128b4f9,60582c690e8a0290b6af4ab0,Mexico,East coast,12 or younger,no,2021-03-22_01h39.36.345,empathy_intonation_perc,2020.2.10,Win32,60,,,,,,,,,,1,,,,,,,,,,,,,,,,,,,,,,,,,,,,,,,,,,,,,,,,28,merodear,,,0,0,0.828765,0,54,54,27,1,REAL,FAKE,,,,,,,,,,,,,,,,,,,,,
,,,,,,,5d0ac7504d57690017a355ef,6057c54e64b0b4e5c128b4f9,60582c690e8a0290b6af4ab0,Mexico,East coast,12 or younger,no,2021-03-22_01h39.36.345,empathy_intonation_perc,2020.2.10,Win32,60,,,,,,,,,,1,,,,,,,,,,,,,,,,,,,,,,,,,,,,,,,,,,,,,,,,31,pandilla,,,0,0,0.730495,0,55,55,30,1,REAL,FAKE,,,,,,,,,,,,,,,,,,,,,
,,,,,,,5d0ac7504d57690017a355ef,6057c54e64b0b4e5c128b4f9,60582c690e8a0290b6af4ab0,Mexico,East coast,12 or younger,no,2021-03-22_01h39.36.345,empathy_intonation_perc,2020.2.10,Win32,60,,,,,,,,,,0,,,,,,,,,,,,,,,,,,,,,,,,,,,,,,,,,,,,,,,,87,grodo,,,0,1,0.62781,0,56,56,86,1,REAL,FAKE,,,,,,,,,,,,,,,,,,,,,
,,,,,,,5d0ac7504d57690017a355ef,6057c54e64b0b4e5c128b4f9,60582c690e8a0290b6af4ab0,Mexico,East coast,12 or younger,no,2021-03-22_01h39.36.345,empathy_intonation_perc,2020.2.10,Win32,60,,,,,,,,,,1,,,,,,,,,,,,,,,,,,,,,,,,,,,,,,,,,,,,,,,,75,yacer,,,0,0,0.6464,0,57,57,74,1,REAL,FAKE,,,,,,,,,,,,,,,,,,,,,
,,,,,,,5d0ac7504d57690017a355ef,6057c54e64b0b4e5c128b4f9,60582c690e8a0290b6af4ab0,Mexico,East coast,12 or younger,no,2021-03-22_01h39.36.345,empathy_intonation_perc,2020.2.10,Win32,60,,,,,,,,,,1,,,,,,,,,,,,,,,,,,,,,,,,,,,,,,,,,,,,,,,,83,guante,,,1,1,0.81413,0,58,58,82,1,REAL,FAKE,,,,,,,,,,,,,,,,,,,,,
,,,,,,,5d0ac7504d57690017a355ef,6057c54e64b0b4e5c128b4f9,60582c690e8a0290b6af4ab0,Mexico,East coast,12 or younger,no,2021-03-22_01h39.36.345,empathy_intonation_perc,2020.2.10,Win32,60,,,,,,,,,,0,,,,,,,,,,,,,,,,,,,,,,,,,,,,,,,,,,,,,,,,33,pauca,,,0,1,0.719575,0,59,59,32,1,REAL,FAKE,,,,,,,,,,,,,,,,,,,,,
,,,,,,,5d0ac7504d57690017a355ef,6057c54e64b0b4e5c128b4f9,60582c690e8a0290b6af4ab0,Mexico,East coast,12 or younger,no,2021-03-22_01h39.36.345,empathy_intonation_perc,2020.2.10,Win32,60,,,,,,,,,,1,,,,,,,,,,,,,,,,,,,,,,,,,,,,,,,,,,,,,,,,73,hervidor,,,0,0,1.072275,0,60,60,72,1,REAL,FAKE,,,,,,,,,,,,,,,,,,,,,
,,,,,,,5d0ac7504d57690017a355ef,6057c54e64b0b4e5c128b4f9,60582c690e8a0290b6af4ab0,Mexico,East coast,12 or younger,no,2021-03-22_01h39.36.345,empathy_intonation_perc,2020.2.10,Win32,60,,,,,,,,,,1,,,,,,,,,,,,,,,,,,,,,,,,,,,,,,,,,,,,,,,,61,seda,,,0,0,0.73038,0,61,61,60,1,REAL,FAKE,,,,,,,,,,,,,,,,,,,,,
,,,,,,,5d0ac7504d57690017a355ef,6057c54e64b0b4e5c128b4f9,60582c690e8a0290b6af4ab0,Mexico,East coast,12 or younger,no,2021-03-22_01h39.36.345,empathy_intonation_perc,2020.2.10,Win32,60,,,,,,,,,,1,,,,,,,,,,,,,,,,,,,,,,,,,,,,,,,,,,,,,,,,44,cuchara,,,0,0,0.67832,0,62,62,43,1,REAL,FAKE,,,,,,,,,,,,,,,,,,,,,
,,,,,,,5d0ac7504d57690017a355ef,6057c54e64b0b4e5c128b4f9,60582c690e8a0290b6af4ab0,Mexico,East coast,12 or younger,no,2021-03-22_01h39.36.345,empathy_intonation_perc,2020.2.10,Win32,60,,,,,,,,,,1,,,,,,,,,,,,,,,,,,,,,,,,,,,,,,,,,,,,,,,,51,candado,,,0,0,0.67886,0,63,63,50,1,REAL,FAKE,,,,,,,,,,,,,,,,,,,,,
,,,,,,,5d0ac7504d57690017a355ef,6057c54e64b0b4e5c128b4f9,60582c690e8a0290b6af4ab0,Mexico,East coast,12 or younger,no,2021-03-22_01h39.36.345,empathy_intonation_perc,2020.2.10,Win32,60,,,,,,,,,,1,,,,,,,,,,,,,,,,,,,,,,,,,,,,,,,,,,,,,,,,12,asesinato,,,0,0,1.46246,0,64,64,11,1,REAL,FAKE,,,,,,,,,,,,,,,,,,,,,
,,,,,,,5d0ac7504d57690017a355ef,6057c54e64b0b4e5c128b4f9,60582c690e8a0290b6af4ab0,Mexico,East coast,12 or younger,no,2021-03-22_01h39.36.345,empathy_intonation_perc,2020.2.10,Win32,60,,,,,,,,,,0,,,,,,,,,,,,,,,,,,,,,,,,,,,,,,,,,,,,,,,,35,rompido,,,1,0,1.00326,0,65,65,34,1,REAL,FAKE,,,,,,,,,,,,,,,,,,,,,
,,,,,,,5d0ac7504d57690017a355ef,6057c54e64b0b4e5c128b4f9,60582c690e8a0290b6af4ab0,Mexico,East coast,12 or younger,no,2021-03-22_01h39.36.345,empathy_intonation_perc,2020.2.10,Win32,60,,,,,,,,,,0,,,,,,,,,,,,,,,,,,,,,,,,,,,,,,,,,,,,,,,,63,esposante,,,1,0,1.495945,0,66,66,62,1,REAL,FAKE,,,,,,,,,,,,,,,,,,,,,
,,,,,,,5d0ac7504d57690017a355ef,6057c54e64b0b4e5c128b4f9,60582c690e8a0290b6af4ab0,Mexico,East coast,12 or younger,no,2021-03-22_01h39.36.345,empathy_intonation_perc,2020.2.10,Win32,60,,,,,,,,,,1,,,,,,,,,,,,,,,,,,,,,,,,,,,,,,,,,,,,,,,,40,alfombra,,,0,0,1.67946,0,67,67,39,1,REAL,FAKE,,,,,,,,,,,,,,,,,,,,,
,,,,,,,5d0ac7504d57690017a355ef,6057c54e64b0b4e5c128b4f9,60582c690e8a0290b6af4ab0,Mexico,East coast,12 or younger,no,2021-03-22_01h39.36.345,empathy_intonation_perc,2020.2.10,Win32,60,,,,,,,,,,1,,,,,,,,,,,,,,,,,,,,,,,,,,,,,,,,,,,,,,,,45,jilguero,,,0,0,0.74419,0,68,68,44,1,REAL,FAKE,,,,,,,,,,,,,,,,,,,,,
,,,,,,,5d0ac7504d57690017a355ef,6057c54e64b0b4e5c128b4f9,60582c690e8a0290b6af4ab0,Mexico,East coast,12 or younger,no,2021-03-22_01h39.36.345,empathy_intonation_perc,2020.2.10,Win32,60,,,,,,,,,,1,,,,,,,,,,,,,,,,,,,,,,,,,,,,,,,,,,,,,,,,24,ltigo,,,0,0,0.66329,0,69,69,23,1,REAL,FAKE,,,,,,,,,,,,,,,,,,,,,
,,,,,,,5d0ac7504d57690017a355ef,6057c54e64b0b4e5c128b4f9,60582c690e8a0290b6af4ab0,Mexico,East coast,12 or younger,no,2021-03-22_01h39.36.345,empathy_intonation_perc,2020.2.10,Win32,60,,,,,,,,,,1,,,,,,,,,,,,,,,,,,,,,,,,,,,,,,,,,,,,,,,,90,clavel,,,0,0,0.64532,0,70,70,89,1,REAL,FAKE,,,,,,,,,,,,,,,,,,,,,
,,,,,,,5d0ac7504d57690017a355ef,6057c54e64b0b4e5c128b4f9,60582c690e8a0290b6af4ab0,Mexico,East coast,12 or younger,no,2021-03-22_01h39.36.345,empathy_intonation_perc,2020.2.10,Win32,60,,,,,,,,,,0,,,,,,,,,,,,,,,,,,,,,,,,,,,,,,,,,,,,,,,,4,batilln,,,0,1,0.753545,0,71,71,3,1,REAL,FAKE,,,,,,,,,,,,,,,,,,,,,
,,,,,,,5d0ac7504d57690017a355ef,6057c54e64b0b4e5c128b4f9,60582c690e8a0290b6af4ab0,Mexico,East coast,12 or younger,no,2021-03-22_01h39.36.345,empathy_intonation_perc,2020.2.10,Win32,60,,,,,,,,,,0,,,,,,,,,,,,,,,,,,,,,,,,,,,,,,,,,,,,,,,,18,arsa,,,0,1,0.6469,0,72,72,17,1,REAL,FAKE,,,,,,,,,,,,,,,,,,,,,
,,,,,,,5d0ac7504d57690017a355ef,6057c54e64b0b4e5c128b4f9,60582c690e8a0290b6af4ab0,Mexico,East coast,12 or younger,no,2021-03-22_01h39.36.345,empathy_intonation_perc,2020.2.10,Win32,60,,,,,,,,,,1,,,,,,,,,,,,,,,,,,,,,,,,,,,,,,,,,,,,,,,,54,fomentar,,,1,1,1.61578,0,73,73,53,1,REAL,FAKE,,,,,,,,,,,,,,,,,,,,,
,,,,,,,5d0ac7504d57690017a355ef,6057c54e64b0b4e5c128b4f9,60582c690e8a0290b6af4ab0,Mexico,East coast,12 or younger,no,2021-03-22_01h39.36.345,empathy_intonation_perc,2020.2.10,Win32,60,,,,,,,,,,0,,,,,,,,,,,,,,,,,,,,,,,,,,,,,,,,,,,,,,,,30,alardio,,,0,1,0.730145,0,74,74,29,1,REAL,FAKE,,,,,,,,,,,,,,,,,,,,,
,,,,,,,5d0ac7504d57690017a355ef,6057c54e64b0b4e5c128b4f9,60582c690e8a0290b6af4ab0,Mexico,East coast,12 or younger,no,2021-03-22_01h39.36.345,empathy_intonation_perc,2020.2.10,Win32,60,,,,,,,,,,1,,,,,,,,,,,,,,,,,,,,,,,,,,,,,,,,,,,,,,,,65,bizcocho,,,0,0,0.89771,0,75,75,64,1,REAL,FAKE,,,,,,,,,,,,,,,,,,,,,
,,,,,,,5d0ac7504d57690017a355ef,6057c54e64b0b4e5c128b4f9,60582c690e8a0290b6af4ab0,Mexico,East coast,12 or younger,no,2021-03-22_01h39.36.345,empathy_intonation_perc,2020.2.10,Win32,60,,,,,,,,,,0,,,,,,,,,,,,,,,,,,,,,,,,,,,,,,,,,,,,,,,,58,plaudir,,,0,1,0.684145,0,76,76,57,1,REAL,FAKE,,,,,,,,,,,,,,,,,,,,,
,,,,,,,5d0ac7504d57690017a355ef,6057c54e64b0b4e5c128b4f9,60582c690e8a0290b6af4ab0,Mexico,East coast,12 or younger,no,2021-03-22_01h39.36.345,empathy_intonation_perc,2020.2.10,Win32,60,,,,,,,,,,0,,,,,,,,,,,,,,,,,,,,,,,,,,,,,,,,,,,,,,,,47,cartinar,,,0,1,0.646385,0,77,77,46,1,REAL,FAKE,,,,,,,,,,,,,,,,,,,,,
,,,,,,,5d0ac7504d57690017a355ef,6057c54e64b0b4e5c128b4f9,60582c690e8a0290b6af4ab0,Mexico,East coast,12 or younger,no,2021-03-22_01h39.36.345,empathy_intonation_perc,2020.2.10,Win32,60,,,,,,,,,,1,,,,,,,,,,,,,,,,,,,,,,,,,,,,,,,,,,,,,,,,34,aviso,,,0,0,0.61453,0,78,78,33,1,REAL,FAKE,,,,,,,,,,,,,,,,,,,,,
,,,,,,,5d0ac7504d57690017a355ef,6057c54e64b0b4e5c128b4f9,60582c690e8a0290b6af4ab0,Mexico,East coast,12 or younger,no,2021-03-22_01h39.36.345,empathy_intonation_perc,2020.2.10,Win32,60,,,,,,,,,,1,,,,,,,,,,,,,,,,,,,,,,,,,,,,,,,,,,,,,,,,22,lacayo,,,0,0,0.513055,0,79,79,21,1,REAL,FAKE,,,,,,,,,,,,,,,,,,,,,
,,,,,,,5d0ac7504d57690017a355ef,6057c54e64b0b4e5c128b4f9,60582c690e8a0290b6af4ab0,Mexico,East coast,12 or younger,no,2021-03-22_01h39.36.345,empathy_intonation_perc,2020.2.10,Win32,60,,,,,,,,,,1,,,,,,,,,,,,,,,,,,,,,,,,,,,,,,,,,,,,,,,,88,acantilado,,,0,0,1.112205,0,80,80,87,1,REAL,FAKE,,,,,,,,,,,,,,,,,,,,,
,,,,,,,5d0ac7504d57690017a355ef,6057c54e64b0b4e5c128b4f9,60582c690e8a0290b6af4ab0,Mexico,East coast,12 or younger,no,2021-03-22_01h39.36.345,empathy_intonation_perc,2020.2.10,Win32,60,,,,,,,,,,0,,,,,,,,,,,,,,,,,,,,,,,,,,,,,,,,,,,,,,,,27,acutacin,,,0,1,0.83023,0,81,81,26,1,REAL,FAKE,,,,,,,,,,,,,,,,,,,,,
,,,,,,,5d0ac7504d57690017a355ef,6057c54e64b0b4e5c128b4f9,60582c690e8a0290b6af4ab0,Mexico,East coast,12 or younger,no,2021-03-22_01h39.36.345,empathy_intonation_perc,2020.2.10,Win32,60,,,,,,,,,,1,,,,,,,,,,,,,,,,,,,,,,,,,,,,,,,,,,,,,,,,7,psimo,,,1,1,0.67671,0,82,82,6,1,REAL,FAKE,,,,,,,,,,,,,,,,,,,,,
,,,,,,,5d0ac7504d57690017a355ef,6057c54e64b0b4e5c128b4f9,60582c690e8a0290b6af4ab0,Mexico,East coast,12 or younger,no,2021-03-22_01h39.36.345,empathy_intonation_perc,2020.2.10,Win32,60,,,,,,,,,,1,,,,,,,,,,,,,,,,,,,,,,,,,,,,,,,,,,,,,,,,13,helar,,,1,1,0.786795,0,83,83,12,1,REAL,FAKE,,,,,,,,,,,,,,,,,,,,,
,,,,,,,5d0ac7504d57690017a355ef,6057c54e64b0b4e5c128b4f9,60582c690e8a0290b6af4ab0,Mexico,East coast,12 or younger,no,2021-03-22_01h39.36.345,empathy_intonation_perc,2020.2.10,Win32,60,,,,,,,,,,0,,,,,,,,,,,,,,,,,,,,,,,,,,,,,,,,,,,,,,,,74,cintro,,,0,1,0.714965,0,84,84,73,1,REAL,FAKE,,,,,,,,,,,,,,,,,,,,,
,,,,,,,5d0ac7504d57690017a355ef,6057c54e64b0b4e5c128b4f9,60582c690e8a0290b6af4ab0,Mexico,East coast,12 or younger,no,2021-03-22_01h39.36.345,empathy_intonation_perc,2020.2.10,Win32,60,,,,,,,,,,1,,,,,,,,,,,,,,,,,,,,,,,,,,,,,,,,,,,,,,,,86,barato,,,0,0,1.26884,0,85,85,85,1,REAL,FAKE,,,,,,,,,,,,,,,,,,,,,
,,,,,,,5d0ac7504d57690017a355ef,6057c54e64b0b4e5c128b4f9,60582c690e8a0290b6af4ab0,Mexico,East coast,12 or younger,no,2021-03-22_01h39.36.345,empathy_intonation_perc,2020.2.10,Win32,60,,,,,,,,,,1,,,,,,,,,,,,,,,,,,,,,,,,,,,,,,,,,,,,,,,,6,tergiversar,,,0,0,1.150315,0,86,86,5,1,REAL,FAKE,,,,,,,,,,,,,,,,,,,,,
,,,,,,,5d0ac7504d57690017a355ef,6057c54e64b0b4e5c128b4f9,60582c690e8a0290b6af4ab0,Mexico,East coast,12 or younger,no,2021-03-22_01h39.36.345,empathy_intonation_perc,2020.2.10,Win32,60,,,,,,,,,,1,,,,,,,,,,,,,,,,,,,,,,,,,,,,,,,,,,,,,,,,76,atar,,,1,1,0.76102,0,87,87,75,1,REAL,FAKE,,,,,,,,,,,,,,,,,,,,,
,,,,,,,5d0ac7504d57690017a355ef,6057c54e64b0b4e5c128b4f9,60582c690e8a0290b6af4ab0,Mexico,East coast,12 or younger,no,2021-03-22_01h39.36.345,empathy_intonation_perc,2020.2.10,Win32,60,,,,,,,,,,1,,,,,,,,,,,,,,,,,,,,,,,,,,,,,,,,,,,,,,,,37,granuja,,,1,1,1.194925,0,88,88,36,1,REAL,FAKE,,,,,,,,,,,,,,,,,,,,,
,,,,,,,5d0ac7504d57690017a355ef,6057c54e64b0b4e5c128b4f9,60582c690e8a0290b6af4ab0,Mexico,East coast,12 or younger,no,2021-03-22_01h39.36.345,empathy_intonation_perc,2020.2.10,Win32,60,,,,,,,,,,1,,,,,,,,,,,,,,,,,,,,,,,,,,,,,,,,,,,,,,,,80,hormiga,,,1,1,0.92681,0,89,89,79,1,REAL,FAKE,,,,,,,,,,,,,,,,,,,,,
,,,,,,,5d0ac7504d57690017a355ef,6057c54e64b0b4e5c128b4f9,60582c690e8a0290b6af4ab0,Mexico,East coast,12 or younger,no,2021-03-22_01h39.36.345,empathy_intonation_perc,2020.2.10,Win32,60,,,,,,,,,,,,,,,,,,,,,,,,,,,,,,,,,,,,,,,,,,,,,,,,,,,,,,,,,,,,,,,,4,1,2.0268,1,0,0,0,0,0,1,,,,,,,,,,,
,,,,,,,5d0ac7504d57690017a355ef,6057c54e64b0b4e5c128b4f9,60582c690e8a0290b6af4ab0,Mexico,East coast,12 or younger,no,2021-03-22_01h39.36.345,empathy_intonation_perc,2020.2.10,Win32,60,,,,,,,,,,,,,,,,,,,,1,,,,,,,,,,,,,,,,,,,,,,,,,,,,,,,,,,,,,,,,,,,,,,,,,,,,,,2,0,0,0,0,1,I can easily tell if someone else wants to enter a conversation.,1,0,1,0
,,,,,,,5d0ac7504d57690017a355ef,6057c54e64b0b4e5c128b4f9,60582c690e8a0290b6af4ab0,Mexico,East coast,12 or younger,no,2021-03-22_01h39.36.345,empathy_intonation_perc,2020.2.10,Win32,60,,,,,,,,,,,,,,,,,,,,2,,,,,,,,,,,,,,,,,,,,,,,,,,,,,,,,,,,,,,,,,,,,,,,,,,,,,,1,0,1,1,1,1,I prefer animals to humans.,0,1,0,0
,,,,,,,5d0ac7504d57690017a355ef,6057c54e64b0b4e5c128b4f9,60582c690e8a0290b6af4ab0,Mexico,East coast,12 or younger,no,2021-03-22_01h39.36.345,empathy_intonation_perc,2020.2.10,Win32,60,,,,,,,,,,,,,,,,,,,,3,,,,,,,,,,,,,,,,,,,,,,,,,,,,,,,,,,,,,,,,,,,,,,,,,,,,,,3,0,2,2,2,1,I try to keep up with the current trends and fashions.,0,1,0,0
,,,,,,,5d0ac7504d57690017a355ef,6057c54e64b0b4e5c128b4f9,60582c690e8a0290b6af4ab0,Mexico,East coast,12 or younger,no,2021-03-22_01h39.36.345,empathy_intonation_perc,2020.2.10,Win32,60,,,,,,,,,,,,,,,,,,,,4,,,,,,,,,,,,,,,,,,,,,,,,,,,,,,,,,,,,,,,,,,,,,,,,,,,,,,3,0,3,3,3,1,"I find it difficult to explain to others things that I understand easily, 
  when they dont understand it first time.",1,0,0,1
,,,,,,,5d0ac7504d57690017a355ef,6057c54e64b0b4e5c128b4f9,60582c690e8a0290b6af4ab0,Mexico,East coast,12 or younger,no,2021-03-22_01h39.36.345,empathy_intonation_perc,2020.2.10,Win32,60,,,,,,,,,,,,,,,,,,,,5,,,,,,,,,,,,,,,,,,,,,,,,,,,,,,,,,,,,,,,,,,,,,,,,,,,,,,3,0,4,4,4,1,I dream most nights.,0,1,0,0
,,,,,,,5d0ac7504d57690017a355ef,6057c54e64b0b4e5c128b4f9,60582c690e8a0290b6af4ab0,Mexico,East coast,12 or younger,no,2021-03-22_01h39.36.345,empathy_intonation_perc,2020.2.10,Win32,60,,,,,,,,,,,,,,,,,,,,6,,,,,,,,,,,,,,,,,,,,,,,,,,,,,,,,,,,,,,,,,,,,,,,,,,,,,,1,0,5,5,5,1,I really enjoy caring for other people.,1,0,1,0
