instructions_2afc_loop.thisRepN,instructions_2afc_loop.thisTrialN,instructions_2afc_loop.thisN,instructions_2afc_loop.thisIndex,instructions_2afc_loop.ran,instructions_text,continue_text,participant,study_id,session,I am most familiar with Spanish from...*,What part of the US are you from?*,At what age did you begin learning Spanish?*,Are you proficient in any languages other than English/Spanish?*,date,expName,psychopyVersion,OS,frameRate,key_resp_2afc_practice.keys,key_resp_2afc_practice.corr,key_resp_2afc_practice.rt,trials_2afc_practice_loop.thisRepN,trials_2afc_practice_loop.thisTrialN,trials_2afc_practice_loop.thisN,trials_2afc_practice_loop.thisIndex,trials_2afc_practice_loop.ran,path,correct_response,the_col,key_resp_2afc_trial.keys,key_resp_2afc_trial.corr,key_resp_2afc_trial.rt,trials_2afc_loop.thisRepN,trials_2afc_loop.thisTrialN,trials_2afc_loop.thisN,trials_2afc_loop.thisIndex,trials_2afc_loop.ran,item_num,andalusian,argentine,castilian,chilean,cuban,mexican,peruvian,puertorican,key_resp_ac1.keys,key_resp_ac1.corr,key_resp_ac1.rt,ac1_loop.thisRepN,ac1_loop.thisTrialN,ac1_loop.thisN,ac1_loop.thisIndex,ac1_loop.ran,instructions_lextale_loop.thisRepN,instructions_lextale_loop.thisTrialN,instructions_lextale_loop.thisN,instructions_lextale_loop.thisIndex,instructions_lextale_loop.ran,key_resp_lextale_practice.keys,key_resp_lextale_practice.corr,key_resp_lextale_practice.rt,trials_lextale_practice_loop.thisRepN,trials_lextale_practice_loop.thisTrialN,trials_lextale_practice_loop.thisN,trials_lextale_practice_loop.thisIndex,trials_lextale_practice_loop.ran,stim,word,prac_button_real,prac_button_false,key_resp_lextale_trial.keys,key_resp_lextale_trial.corr,key_resp_lextale_trial.rt,trials_lextale_loop.thisRepN,trials_lextale_loop.thisTrialN,trials_lextale_loop.thisN,trials_lextale_loop.thisIndex,trials_lextale_loop.ran,button_real,button_false,key_resp_ac2.keys,key_resp_ac2.corr,key_resp_ac2.rt,check_pass,check_fails,ac2_loop.thisRepN,ac2_loop.thisTrialN,ac2_loop.thisN,ac2_loop.thisIndex,ac2_loop.ran,slider_eq_trial.response,trials_eq_loop.thisRepN,trials_eq_loop.thisTrialN,trials_eq_loop.thisN,trials_eq_loop.thisIndex,trials_eq_loop.ran,item,is_test_item,is_distractor,is_agree_score,is_disagree_score
0,0,0,0,1,"In the following task you are going to hear a series of utterances. 

  You will decide if the utterances sound like questions or not using your keyboard.",(press the spacebar to continue),5d5af833f35ed70001e17a5c,6057c54e64b0b4e5c128b4f9,6059f718af56886e6ae0a51f,Mexico,East coast,13 or older,no,2021-03-23_10h12.18.436,empathy_intonation_perc,2020.2.10,Win32,60,,,,,,,,,,,,,,,,,,,,,,,,,,,,,,,,,,,,,,,,,,,,,,,,,,,,,,,,,,,,,,,,,,,,,,,,,,,,,,,,,,,,
0,1,1,1,1,"If you believe the utterance is a question, type '1' (for 'yes') and if you do not 
  believe it is a question type '0' (for 'no').

  Let's practice a bit...",(press the spacebar to continue),5d5af833f35ed70001e17a5c,6057c54e64b0b4e5c128b4f9,6059f718af56886e6ae0a51f,Mexico,East coast,13 or older,no,2021-03-23_10h12.18.436,empathy_intonation_perc,2020.2.10,Win32,60,,,,,,,,,,,,,,,,,,,,,,,,,,,,,,,,,,,,,,,,,,,,,,,,,,,,,,,,,,,,,,,,,,,,,,,,,,,,,,,,,,,,
,,,,,,,5d5af833f35ed70001e17a5c,6057c54e64b0b4e5c128b4f9,6059f718af56886e6ae0a51f,Mexico,East coast,13 or older,no,2021-03-23_10h12.18.436,empathy_intonation_perc,2020.2.10,Win32,60,1,1,4.91231,0,0,0,1,1,./stim/wavs/argentine_question_filler_Mi-vecino-habla-mucho.wav,1,,,,,,,,,,,,,,,,,,,,,,,,,,,,,,,,,,,,,,,,,,,,,,,,,,,,,,,,,,,,,,,,,,,,,,,,,,
,,,,,,,5d5af833f35ed70001e17a5c,6057c54e64b0b4e5c128b4f9,6059f718af56886e6ae0a51f,Mexico,East coast,13 or older,no,2021-03-23_10h12.18.436,empathy_intonation_perc,2020.2.10,Win32,60,1,0,0.737795,0,1,1,7,1,./stim/wavs/puertorican_statement_filler_La-nina-pinta-con-su-amiga.wav,0,,,,,,,,,,,,,,,,,,,,,,,,,,,,,,,,,,,,,,,,,,,,,,,,,,,,,,,,,,,,,,,,,,,,,,,,,,
,,,,,,,5d5af833f35ed70001e17a5c,6057c54e64b0b4e5c128b4f9,6059f718af56886e6ae0a51f,Mexico,East coast,13 or older,no,2021-03-23_10h12.18.436,empathy_intonation_perc,2020.2.10,Win32,60,1,0,0.250495,0,2,2,6,1,./stim/wavs/peruvian_statement_filler_El-nino-habla-con-su-madre.wav,0,,,,,,,,,,,,,,,,,,,,,,,,,,,,,,,,,,,,,,,,,,,,,,,,,,,,,,,,,,,,,,,,,,,,,,,,,,
,,,,,,,5d5af833f35ed70001e17a5c,6057c54e64b0b4e5c128b4f9,6059f718af56886e6ae0a51f,Mexico,East coast,13 or older,no,2021-03-23_10h12.18.436,empathy_intonation_perc,2020.2.10,Win32,60,1,1,0.062135,0,3,3,2,1,./stim/wavs/chilean_question_filler_Mi-padre-cantaba-bien.wav,1,,,,,,,,,,,,,,,,,,,,,,,,,,,,,,,,,,,,,,,,,,,,,,,,,,,,,,,,,,,,,,,,,,,,,,,,,,
,,,,,,,5d5af833f35ed70001e17a5c,6057c54e64b0b4e5c128b4f9,6059f718af56886e6ae0a51f,Mexico,East coast,13 or older,no,2021-03-23_10h12.18.436,empathy_intonation_perc,2020.2.10,Win32,60,1,0,0.61591,0,4,4,4,1,./stim/wavs/cuban_statement_filler_Cocinabas-por-la-noche.wav,0,,,,,,,,,,,,,,,,,,,,,,,,,,,,,,,,,,,,,,,,,,,,,,,,,,,,,,,,,,,,,,,,,,,,,,,,,,
,,,,,,,5d5af833f35ed70001e17a5c,6057c54e64b0b4e5c128b4f9,6059f718af56886e6ae0a51f,Mexico,East coast,13 or older,no,2021-03-23_10h12.18.436,empathy_intonation_perc,2020.2.10,Win32,60,1,1,0.0518,0,5,5,0,1,./stim/wavs/castilian_question_filler_Mi-esposo-conoce-al-chico.wav,1,,,,,,,,,,,,,,,,,,,,,,,,,,,,,,,,,,,,,,,,,,,,,,,,,,,,,,,,,,,,,,,,,,,,,,,,,,
,,,,,,,5d5af833f35ed70001e17a5c,6057c54e64b0b4e5c128b4f9,6059f718af56886e6ae0a51f,Mexico,East coast,13 or older,no,2021-03-23_10h12.18.436,empathy_intonation_perc,2020.2.10,Win32,60,1,1,0.02268,0,6,6,3,1,./stim/wavs/mexican_question_filler_Felipe-no-tiene-contrasena.wav,1,,,,,,,,,,,,,,,,,,,,,,,,,,,,,,,,,,,,,,,,,,,,,,,,,,,,,,,,,,,,,,,,,,,,,,,,,,
,,,,,,,5d5af833f35ed70001e17a5c,6057c54e64b0b4e5c128b4f9,6059f718af56886e6ae0a51f,Mexico,East coast,13 or older,no,2021-03-23_10h12.18.436,empathy_intonation_perc,2020.2.10,Win32,60,1,0,0.024885,0,7,7,5,1,./stim/wavs/andalusian_statement_filler_Alberto-nunca-se-afeita.wav,0,,,,,,,,,,,,,,,,,,,,,,,,,,,,,,,,,,,,,,,,,,,,,,,,,,,,,,,,,,,,,,,,,,,,,,,,,,
,,,,,,,5d5af833f35ed70001e17a5c,6057c54e64b0b4e5c128b4f9,6059f718af56886e6ae0a51f,Mexico,East coast,13 or older,no,2021-03-23_10h12.18.436,empathy_intonation_perc,2020.2.10,Win32,60,,,,,,,,,,0,mexican,1,0,0.17129,0,0,0,13,1,14,./stim/wavs/andalusian_match_declarative-narrow-focus_Maria-bebe-el-vino.wav,./stim/wavs/argentine_match_declarative-narrow-focus_Maria-bebe-el-vino.wav,./stim/wavs/castilian_match_declarative-narrow-focus_Maria-bebe-el-vino.wav,./stim/wavs/chilean_match_declarative-narrow-focus_Maria-bebe-el-vino.wav,./stim/wavs/cuban_match_declarative-narrow-focus_Maria-bebe-el-vino.wav,./stim/wavs/mexican_match_declarative-narrow-focus_Maria-bebe-el-vino.wav,./stim/wavs/peruvian_match_declarative-narrow-focus_Maria-bebe-el-vino.wav,./stim/wavs/puertorican_match_declarative-narrow-focus_Maria-bebe-el-vino.wav,,,,,,,,,,,,,,,,,,,,,,,,,,,,,,,,,,,,,,,,,,,,,,,,,,,,,,,,
,,,,,,,5d5af833f35ed70001e17a5c,6057c54e64b0b4e5c128b4f9,6059f718af56886e6ae0a51f,Mexico,East coast,13 or older,no,2021-03-23_10h12.18.436,empathy_intonation_perc,2020.2.10,Win32,60,,,,,,,,,,0,peruvian,1,0,0.055915,0,1,1,11,1,12,./stim/wavs/andalusian_match_declarative-narrow-focus_Emilio-ama-la-marcha.wav,./stim/wavs/argentine_match_declarative-narrow-focus_Emilio-ama-la-marcha.wav,./stim/wavs/castilian_match_declarative-narrow-focus_Emilio-ama-la-marcha.wav,./stim/wavs/chilean_match_declarative-narrow-focus_Emilio-ama-la-marcha.wav,./stim/wavs/cuban_match_declarative-narrow-focus_Emilio-ama-la-marcha.wav,./stim/wavs/mexican_match_declarative-narrow-focus_Emilio-ama-la-marcha.wav,./stim/wavs/peruvian_match_declarative-narrow-focus_Emilio-ama-la-marcha.wav,./stim/wavs/puertorican_match_declarative-narrow-focus_Emilio-ama-la-marcha.wav,,,,,,,,,,,,,,,,,,,,,,,,,,,,,,,,,,,,,,,,,,,,,,,,,,,,,,,,
,,,,,,,5d5af833f35ed70001e17a5c,6057c54e64b0b4e5c128b4f9,6059f718af56886e6ae0a51f,Mexico,East coast,13 or older,no,2021-03-23_10h12.18.436,empathy_intonation_perc,2020.2.10,Win32,60,,,,,,,,,,1,chilean,1,1,0.07624,0,2,2,57,1,58,./stim/wavs/andalusian_mismatch_interrogative-total-yn_El-hombre-mira-la-luna.wav,./stim/wavs/argentine_mismatch_interrogative-total-yn_El-hombre-mira-la-luna.wav,./stim/wavs/castilian_mismatch_interrogative-total-yn_El-hombre-mira-la-luna.wav,./stim/wavs/chilean_mismatch_interrogative-total-yn_El-hombre-mira-la-luna.wav,./stim/wavs/cuban_mismatch_interrogative-total-yn_El-hombre-mira-la-luna.wav,./stim/wavs/mexican_mismatch_interrogative-total-yn_El-hombre-mira-la-luna.wav,./stim/wavs/peruvian_mismatch_interrogative-total-yn_El-hombre-mira-la-luna.wav,./stim/wavs/puertorican_mismatch_interrogative-total-yn_El-hombre-mira-la-luna.wav,,,,,,,,,,,,,,,,,,,,,,,,,,,,,,,,,,,,,,,,,,,,,,,,,,,,,,,,
,,,,,,,5d5af833f35ed70001e17a5c,6057c54e64b0b4e5c128b4f9,6059f718af56886e6ae0a51f,Mexico,East coast,13 or older,no,2021-03-23_10h12.18.436,empathy_intonation_perc,2020.2.10,Win32,60,,,,,,,,,,0,argentine,1,0,0.006935,0,3,3,1,1,2,./stim/wavs/andalusian_match_declarative-broad-focus_Daniel-iba-a-Bolivia.wav,./stim/wavs/argentine_match_declarative-broad-focus_Daniel-iba-a-Bolivia.wav,./stim/wavs/castilian_match_declarative-broad-focus_Daniel-iba-a-Bolivia.wav,./stim/wavs/chilean_match_declarative-broad-focus_Daniel-iba-a-Bolivia.wav,./stim/wavs/cuban_match_declarative-broad-focus_Daniel-iba-a-Bolivia.wav,./stim/wavs/mexican_match_declarative-broad-focus_Daniel-iba-a-Bolivia.wav,./stim/wavs/peruvian_match_declarative-broad-focus_Daniel-iba-a-Bolivia.wav,./stim/wavs/puertorican_match_declarative-broad-focus_Daniel-iba-a-Bolivia.wav,,,,,,,,,,,,,,,,,,,,,,,,,,,,,,,,,,,,,,,,,,,,,,,,,,,,,,,,
,,,,,,,5d5af833f35ed70001e17a5c,6057c54e64b0b4e5c128b4f9,6059f718af56886e6ae0a51f,Mexico,East coast,13 or older,no,2021-03-23_10h12.18.436,empathy_intonation_perc,2020.2.10,Win32,60,,,,,,,,,,0,peruvian,1,0,0.567705,0,4,4,4,1,5,./stim/wavs/andalusian_match_declarative-broad-focus_Manuela-vende-el-carro.wav,./stim/wavs/argentine_match_declarative-broad-focus_Manuela-vende-el-carro.wav,./stim/wavs/castilian_match_declarative-broad-focus_Manuela-vende-el-carro.wav,./stim/wavs/chilean_match_declarative-broad-focus_Manuela-vende-el-carro.wav,./stim/wavs/cuban_match_declarative-broad-focus_Manuela-vende-el-carro.wav,./stim/wavs/mexican_match_declarative-broad-focus_Manuela-vende-el-carro.wav,./stim/wavs/peruvian_match_declarative-broad-focus_Manuela-vende-el-carro.wav,./stim/wavs/puertorican_match_declarative-broad-focus_Manuela-vende-el-carro.wav,,,,,,,,,,,,,,,,,,,,,,,,,,,,,,,,,,,,,,,,,,,,,,,,,,,,,,,,
,,,,,,,5d5af833f35ed70001e17a5c,6057c54e64b0b4e5c128b4f9,6059f718af56886e6ae0a51f,Mexico,East coast,13 or older,no,2021-03-23_10h12.18.436,empathy_intonation_perc,2020.2.10,Win32,60,,,,,,,,,,0,puertorican,1,0,0.390335,0,5,5,15,1,16,./stim/wavs/andalusian_match_declarative-narrow-focus_Marta-abre-el-regalo.wav,./stim/wavs/argentine_match_declarative-narrow-focus_Marta-abre-el-regalo.wav,./stim/wavs/castilian_match_declarative-narrow-focus_Marta-abre-el-regalo.wav,./stim/wavs/chilean_match_declarative-narrow-focus_Marta-abre-el-regalo.wav,./stim/wavs/cuban_match_declarative-narrow-focus_Marta-abre-el-regalo.wav,./stim/wavs/mexican_match_declarative-narrow-focus_Marta-abre-el-regalo.wav,./stim/wavs/peruvian_match_declarative-narrow-focus_Marta-abre-el-regalo.wav,./stim/wavs/puertorican_match_declarative-narrow-focus_Marta-abre-el-regalo.wav,,,,,,,,,,,,,,,,,,,,,,,,,,,,,,,,,,,,,,,,,,,,,,,,,,,,,,,,
,,,,,,,5d5af833f35ed70001e17a5c,6057c54e64b0b4e5c128b4f9,6059f718af56886e6ae0a51f,Mexico,East coast,13 or older,no,2021-03-23_10h12.18.436,empathy_intonation_perc,2020.2.10,Win32,60,,,,,,,,,,0,argentine,1,0,0.30025,0,6,6,9,1,10,./stim/wavs/andalusian_match_declarative-narrow-focus_Daniel-iba-a-Bolivia.wav,./stim/wavs/argentine_match_declarative-narrow-focus_Daniel-iba-a-Bolivia.wav,./stim/wavs/castilian_match_declarative-narrow-focus_Daniel-iba-a-Bolivia.wav,./stim/wavs/chilean_match_declarative-narrow-focus_Daniel-iba-a-Bolivia.wav,./stim/wavs/cuban_match_declarative-narrow-focus_Daniel-iba-a-Bolivia.wav,./stim/wavs/mexican_match_declarative-narrow-focus_Daniel-iba-a-Bolivia.wav,./stim/wavs/peruvian_match_declarative-narrow-focus_Daniel-iba-a-Bolivia.wav,./stim/wavs/puertorican_match_declarative-narrow-focus_Daniel-iba-a-Bolivia.wav,,,,,,,,,,,,,,,,,,,,,,,,,,,,,,,,,,,,,,,,,,,,,,,,,,,,,,,,
,,,,,,,5d5af833f35ed70001e17a5c,6057c54e64b0b4e5c128b4f9,6059f718af56886e6ae0a51f,Mexico,East coast,13 or older,no,2021-03-23_10h12.18.436,empathy_intonation_perc,2020.2.10,Win32,60,,,,,,,,,,0,argentine,1,0,0.364985,0,7,7,7,1,8,./stim/wavs/andalusian_match_declarative-broad-focus_Marta-abre-el-regalo.wav,./stim/wavs/argentine_match_declarative-broad-focus_Marta-abre-el-regalo.wav,./stim/wavs/castilian_match_declarative-broad-focus_Marta-abre-el-regalo.wav,./stim/wavs/chilean_match_declarative-broad-focus_Marta-abre-el-regalo.wav,./stim/wavs/cuban_match_declarative-broad-focus_Marta-abre-el-regalo.wav,./stim/wavs/mexican_match_declarative-broad-focus_Marta-abre-el-regalo.wav,./stim/wavs/peruvian_match_declarative-broad-focus_Marta-abre-el-regalo.wav,./stim/wavs/puertorican_match_declarative-broad-focus_Marta-abre-el-regalo.wav,,,,,,,,,,,,,,,,,,,,,,,,,,,,,,,,,,,,,,,,,,,,,,,,,,,,,,,,
,,,,,,,5d5af833f35ed70001e17a5c,6057c54e64b0b4e5c128b4f9,6059f718af56886e6ae0a51f,Mexico,East coast,13 or older,no,2021-03-23_10h12.18.436,empathy_intonation_perc,2020.2.10,Win32,60,,,,,,,,,,0,mexican,1,0,0.33112,0,8,8,46,1,47,./stim/wavs/andalusian_mismatch_declarative-narrow-focus_Mi-novio-viene-del-lago.wav,./stim/wavs/argentine_mismatch_declarative-narrow-focus_Mi-novio-viene-del-lago.wav,./stim/wavs/castilian_mismatch_declarative-narrow-focus_Mi-novio-viene-del-lago.wav,./stim/wavs/chilean_mismatch_declarative-narrow-focus_Mi-novio-viene-del-lago.wav,./stim/wavs/cuban_mismatch_declarative-narrow-focus_Mi-novio-viene-del-lago.wav,./stim/wavs/mexican_mismatch_declarative-narrow-focus_Mi-novio-viene-del-lago.wav,./stim/wavs/peruvian_mismatch_declarative-narrow-focus_Mi-novio-viene-del-lago.wav,./stim/wavs/puertorican_mismatch_declarative-narrow-focus_Mi-novio-viene-del-lago.wav,,,,,,,,,,,,,,,,,,,,,,,,,,,,,,,,,,,,,,,,,,,,,,,,,,,,,,,,
,,,,,,,5d5af833f35ed70001e17a5c,6057c54e64b0b4e5c128b4f9,6059f718af56886e6ae0a51f,Mexico,East coast,13 or older,no,2021-03-23_10h12.18.436,empathy_intonation_perc,2020.2.10,Win32,60,,,,,,,,,,1,chilean,1,1,0.000585,0,9,9,18,1,19,./stim/wavs/andalusian_match_interrogative-partial-wh_Cuando-lleva-el-abrigo.wav,./stim/wavs/argentine_match_interrogative-partial-wh_Cuando-lleva-el-abrigo.wav,./stim/wavs/castilian_match_interrogative-partial-wh_Cuando-lleva-el-abrigo.wav,./stim/wavs/chilean_match_interrogative-partial-wh_Cuando-lleva-el-abrigo.wav,./stim/wavs/cuban_match_interrogative-partial-wh_Cuando-lleva-el-abrigo.wav,./stim/wavs/mexican_match_interrogative-partial-wh_Cuando-lleva-el-abrigo.wav,./stim/wavs/peruvian_match_interrogative-partial-wh_Cuando-lleva-el-abrigo.wav,./stim/wavs/puertorican_match_interrogative-partial-wh_Cuando-lleva-el-abrigo.wav,,,,,,,,,,,,,,,,,,,,,,,,,,,,,,,,,,,,,,,,,,,,,,,,,,,,,,,,
,,,,,,,5d5af833f35ed70001e17a5c,6057c54e64b0b4e5c128b4f9,6059f718af56886e6ae0a51f,Mexico,East coast,13 or older,no,2021-03-23_10h12.18.436,empathy_intonation_perc,2020.2.10,Win32,60,,,,,,,,,,1,puertorican,1,1,0.03068,0,10,10,52,1,53,./stim/wavs/andalusian_mismatch_interrogative-partial-wh_Por-que-odiaba-la-lluvia.wav,./stim/wavs/argentine_mismatch_interrogative-partial-wh_Por-que-odiaba-la-lluvia.wav,./stim/wavs/castilian_mismatch_interrogative-partial-wh_Por-que-odiaba-la-lluvia.wav,./stim/wavs/chilean_mismatch_interrogative-partial-wh_Por-que-odiaba-la-lluvia.wav,./stim/wavs/cuban_mismatch_interrogative-partial-wh_Por-que-odiaba-la-lluvia.wav,./stim/wavs/mexican_mismatch_interrogative-partial-wh_Por-que-odiaba-la-lluvia.wav,./stim/wavs/peruvian_mismatch_interrogative-partial-wh_Por-que-odiaba-la-lluvia.wav,./stim/wavs/puertorican_mismatch_interrogative-partial-wh_Por-que-odiaba-la-lluvia.wav,,,,,,,,,,,,,,,,,,,,,,,,,,,,,,,,,,,,,,,,,,,,,,,,,,,,,,,,
,,,,,,,5d5af833f35ed70001e17a5c,6057c54e64b0b4e5c128b4f9,6059f718af56886e6ae0a51f,Mexico,East coast,13 or older,no,2021-03-23_10h12.18.436,empathy_intonation_perc,2020.2.10,Win32,60,,,,,,,,,,0,cuban,1,0,0.396685,0,11,11,47,1,48,./stim/wavs/andalusian_mismatch_declarative-narrow-focus_Mi-tia-odia-la-lluvia.wav,./stim/wavs/argentine_mismatch_declarative-narrow-focus_Mi-tia-odia-la-lluvia.wav,./stim/wavs/castilian_mismatch_declarative-narrow-focus_Mi-tia-odia-la-lluvia.wav,./stim/wavs/chilean_mismatch_declarative-narrow-focus_Mi-tia-odia-la-lluvia.wav,./stim/wavs/cuban_mismatch_declarative-narrow-focus_Mi-tia-odia-la-lluvia.wav,./stim/wavs/mexican_mismatch_declarative-narrow-focus_Mi-tia-odia-la-lluvia.wav,./stim/wavs/peruvian_mismatch_declarative-narrow-focus_Mi-tia-odia-la-lluvia.wav,./stim/wavs/puertorican_mismatch_declarative-narrow-focus_Mi-tia-odia-la-lluvia.wav,,,,,,,,,,,,,,,,,,,,,,,,,,,,,,,,,,,,,,,,,,,,,,,,,,,,,,,,
,,,,,,,5d5af833f35ed70001e17a5c,6057c54e64b0b4e5c128b4f9,6059f718af56886e6ae0a51f,Mexico,East coast,13 or older,no,2021-03-23_10h12.18.436,empathy_intonation_perc,2020.2.10,Win32,60,,,,,,,,,,1,peruvian,1,1,0.359005,0,12,12,28,1,29,./stim/wavs/andalusian_match_interrogative-total-yn_Manuela-vende-el-carro.wav,./stim/wavs/argentine_match_interrogative-total-yn_Manuela-vende-el-carro.wav,./stim/wavs/castilian_match_interrogative-total-yn_Manuela-vende-el-carro.wav,./stim/wavs/chilean_match_interrogative-total-yn_Manuela-vende-el-carro.wav,./stim/wavs/cuban_match_interrogative-total-yn_Manuela-vende-el-carro.wav,./stim/wavs/mexican_match_interrogative-total-yn_Manuela-vende-el-carro.wav,./stim/wavs/peruvian_match_interrogative-total-yn_Manuela-vende-el-carro.wav,./stim/wavs/puertorican_match_interrogative-total-yn_Manuela-vende-el-carro.wav,,,,,,,,,,,,,,,,,,,,,,,,,,,,,,,,,,,,,,,,,,,,,,,,,,,,,,,,
,,,,,,,5d5af833f35ed70001e17a5c,6057c54e64b0b4e5c128b4f9,6059f718af56886e6ae0a51f,Mexico,East coast,13 or older,no,2021-03-23_10h12.18.436,empathy_intonation_perc,2020.2.10,Win32,60,,,,,,,,,,1,puertorican,1,1,0.04817,0,13,13,51,1,52,./stim/wavs/andalusian_mismatch_interrogative-partial-wh_Por-que-desayuna-muy-bien.wav,./stim/wavs/argentine_mismatch_interrogative-partial-wh_Por-que-desayuna-muy-bien.wav,./stim/wavs/castilian_mismatch_interrogative-partial-wh_Por-que-desayuna-muy-bien.wav,./stim/wavs/chilean_mismatch_interrogative-partial-wh_Por-que-desayuna-muy-bien.wav,./stim/wavs/cuban_mismatch_interrogative-partial-wh_Por-que-desayuna-muy-bien.wav,./stim/wavs/mexican_mismatch_interrogative-partial-wh_Por-que-desayuna-muy-bien.wav,./stim/wavs/peruvian_mismatch_interrogative-partial-wh_Por-que-desayuna-muy-bien.wav,./stim/wavs/puertorican_mismatch_interrogative-partial-wh_Por-que-desayuna-muy-bien.wav,,,,,,,,,,,,,,,,,,,,,,,,,,,,,,,,,,,,,,,,,,,,,,,,,,,,,,,,
,,,,,,,5d5af833f35ed70001e17a5c,6057c54e64b0b4e5c128b4f9,6059f718af56886e6ae0a51f,Mexico,East coast,13 or older,no,2021-03-23_10h12.18.436,empathy_intonation_perc,2020.2.10,Win32,60,,,,,,,,,,0,mexican,1,0,0.109645,0,14,14,2,1,3,./stim/wavs/andalusian_match_declarative-broad-focus_David-leia-el-libro.wav,./stim/wavs/argentine_match_declarative-broad-focus_David-leia-el-libro.wav,./stim/wavs/castilian_match_declarative-broad-focus_David-leia-el-libro.wav,./stim/wavs/chilean_match_declarative-broad-focus_David-leia-el-libro.wav,./stim/wavs/cuban_match_declarative-broad-focus_David-leia-el-libro.wav,./stim/wavs/mexican_match_declarative-broad-focus_David-leia-el-libro.wav,./stim/wavs/peruvian_match_declarative-broad-focus_David-leia-el-libro.wav,./stim/wavs/puertorican_match_declarative-broad-focus_David-leia-el-libro.wav,,,,,,,,,,,,,,,,,,,,,,,,,,,,,,,,,,,,,,,,,,,,,,,,,,,,,,,,
,,,,,,,5d5af833f35ed70001e17a5c,6057c54e64b0b4e5c128b4f9,6059f718af56886e6ae0a51f,Mexico,East coast,13 or older,no,2021-03-23_10h12.18.436,empathy_intonation_perc,2020.2.10,Win32,60,,,,,,,,,,1,peruvian,1,1,0.04725,0,15,15,53,1,54,./stim/wavs/andalusian_mismatch_interrogative-partial-wh_Por-que-oia-el-rio.wav,./stim/wavs/argentine_mismatch_interrogative-partial-wh_Por-que-oia-el-rio.wav,./stim/wavs/castilian_mismatch_interrogative-partial-wh_Por-que-oia-el-rio.wav,./stim/wavs/chilean_mismatch_interrogative-partial-wh_Por-que-oia-el-rio.wav,./stim/wavs/cuban_mismatch_interrogative-partial-wh_Por-que-oia-el-rio.wav,./stim/wavs/mexican_mismatch_interrogative-partial-wh_Por-que-oia-el-rio.wav,./stim/wavs/peruvian_mismatch_interrogative-partial-wh_Por-que-oia-el-rio.wav,./stim/wavs/puertorican_mismatch_interrogative-partial-wh_Por-que-oia-el-rio.wav,,,,,,,,,,,,,,,,,,,,,,,,,,,,,,,,,,,,,,,,,,,,,,,,,,,,,,,,
,,,,,,,5d5af833f35ed70001e17a5c,6057c54e64b0b4e5c128b4f9,6059f718af56886e6ae0a51f,Mexico,East coast,13 or older,no,2021-03-23_10h12.18.436,empathy_intonation_perc,2020.2.10,Win32,60,,,,,,,,,,0,chilean,1,0,0.002625,0,16,16,33,1,34,./stim/wavs/andalusian_mismatch_declarative-broad-focus_El-hombre-mira-la-luna.wav,./stim/wavs/argentine_mismatch_declarative-broad-focus_El-hombre-mira-la-luna.wav,./stim/wavs/castilian_mismatch_declarative-broad-focus_El-hombre-mira-la-luna.wav,./stim/wavs/chilean_mismatch_declarative-broad-focus_El-hombre-mira-la-luna.wav,./stim/wavs/cuban_mismatch_declarative-broad-focus_El-hombre-mira-la-luna.wav,./stim/wavs/mexican_mismatch_declarative-broad-focus_El-hombre-mira-la-luna.wav,./stim/wavs/peruvian_mismatch_declarative-broad-focus_El-hombre-mira-la-luna.wav,./stim/wavs/puertorican_mismatch_declarative-broad-focus_El-hombre-mira-la-luna.wav,,,,,,,,,,,,,,,,,,,,,,,,,,,,,,,,,,,,,,,,,,,,,,,,,,,,,,,,
,,,,,,,5d5af833f35ed70001e17a5c,6057c54e64b0b4e5c128b4f9,6059f718af56886e6ae0a51f,Mexico,East coast,13 or older,no,2021-03-23_10h12.18.436,empathy_intonation_perc,2020.2.10,Win32,60,,,,,,,,,,1,castilian,1,1,0.204415,0,17,17,58,1,59,./stim/wavs/andalusian_mismatch_interrogative-total-yn_El-nino-oye-el-rio.wav,./stim/wavs/argentine_mismatch_interrogative-total-yn_El-nino-oye-el-rio.wav,./stim/wavs/castilian_mismatch_interrogative-total-yn_El-nino-oye-el-rio.wav,./stim/wavs/chilean_mismatch_interrogative-total-yn_El-nino-oye-el-rio.wav,./stim/wavs/cuban_mismatch_interrogative-total-yn_El-nino-oye-el-rio.wav,./stim/wavs/mexican_mismatch_interrogative-total-yn_El-nino-oye-el-rio.wav,./stim/wavs/peruvian_mismatch_interrogative-total-yn_El-nino-oye-el-rio.wav,./stim/wavs/puertorican_mismatch_interrogative-total-yn_El-nino-oye-el-rio.wav,,,,,,,,,,,,,,,,,,,,,,,,,,,,,,,,,,,,,,,,,,,,,,,,,,,,,,,,
,,,,,,,5d5af833f35ed70001e17a5c,6057c54e64b0b4e5c128b4f9,6059f718af56886e6ae0a51f,Mexico,East coast,13 or older,no,2021-03-23_10h12.18.436,empathy_intonation_perc,2020.2.10,Win32,60,,,,,,,,,,0,cuban,1,0,0.15759,0,18,18,43,1,44,./stim/wavs/andalusian_mismatch_declarative-narrow-focus_La-maestra-vive-en-Paris.wav,./stim/wavs/argentine_mismatch_declarative-narrow-focus_La-maestra-vive-en-Paris.wav,./stim/wavs/castilian_mismatch_declarative-narrow-focus_La-maestra-vive-en-Paris.wav,./stim/wavs/chilean_mismatch_declarative-narrow-focus_La-maestra-vive-en-Paris.wav,./stim/wavs/cuban_mismatch_declarative-narrow-focus_La-maestra-vive-en-Paris.wav,./stim/wavs/mexican_mismatch_declarative-narrow-focus_La-maestra-vive-en-Paris.wav,./stim/wavs/peruvian_mismatch_declarative-narrow-focus_La-maestra-vive-en-Paris.wav,./stim/wavs/puertorican_mismatch_declarative-narrow-focus_La-maestra-vive-en-Paris.wav,,,,,,,,,,,,,,,,,,,,,,,,,,,,,,,,,,,,,,,,,,,,,,,,,,,,,,,,
,,,,,,,5d5af833f35ed70001e17a5c,6057c54e64b0b4e5c128b4f9,6059f718af56886e6ae0a51f,Mexico,East coast,13 or older,no,2021-03-23_10h12.18.436,empathy_intonation_perc,2020.2.10,Win32,60,,,,,,,,,,0,andalusian,1,0,0.1242,0,19,19,5,1,6,./stim/wavs/andalusian_match_declarative-broad-focus_Maria-bebe-el-vino.wav,./stim/wavs/argentine_match_declarative-broad-focus_Maria-bebe-el-vino.wav,./stim/wavs/castilian_match_declarative-broad-focus_Maria-bebe-el-vino.wav,./stim/wavs/chilean_match_declarative-broad-focus_Maria-bebe-el-vino.wav,./stim/wavs/cuban_match_declarative-broad-focus_Maria-bebe-el-vino.wav,./stim/wavs/mexican_match_declarative-broad-focus_Maria-bebe-el-vino.wav,./stim/wavs/peruvian_match_declarative-broad-focus_Maria-bebe-el-vino.wav,./stim/wavs/puertorican_match_declarative-broad-focus_Maria-bebe-el-vino.wav,,,,,,,,,,,,,,,,,,,,,,,,,,,,,,,,,,,,,,,,,,,,,,,,,,,,,,,,
,,,,,,,5d5af833f35ed70001e17a5c,6057c54e64b0b4e5c128b4f9,6059f718af56886e6ae0a51f,Mexico,East coast,13 or older,no,2021-03-23_10h12.18.436,empathy_intonation_perc,2020.2.10,Win32,60,,,,,,,,,,1,mexican,1,1,0.09417,0,20,20,60,1,61,./stim/wavs/andalusian_mismatch_interrogative-total-yn_La-nina-lava-el-plato.wav,./stim/wavs/argentine_mismatch_interrogative-total-yn_La-nina-lava-el-plato.wav,./stim/wavs/castilian_mismatch_interrogative-total-yn_La-nina-lava-el-plato.wav,./stim/wavs/chilean_mismatch_interrogative-total-yn_La-nina-lava-el-plato.wav,./stim/wavs/cuban_mismatch_interrogative-total-yn_La-nina-lava-el-plato.wav,./stim/wavs/mexican_mismatch_interrogative-total-yn_La-nina-lava-el-plato.wav,./stim/wavs/peruvian_mismatch_interrogative-total-yn_La-nina-lava-el-plato.wav,./stim/wavs/puertorican_mismatch_interrogative-total-yn_La-nina-lava-el-plato.wav,,,,,,,,,,,,,,,,,,,,,,,,,,,,,,,,,,,,,,,,,,,,,,,,,,,,,,,,
,,,,,,,5d5af833f35ed70001e17a5c,6057c54e64b0b4e5c128b4f9,6059f718af56886e6ae0a51f,Mexico,East coast,13 or older,no,2021-03-23_10h12.18.436,empathy_intonation_perc,2020.2.10,Win32,60,,,,,,,,,,0,puertorican,1,0,2.23165,0,21,21,42,1,43,./stim/wavs/andalusian_mismatch_declarative-narrow-focus_El-nino-oye-el-rio.wav,./stim/wavs/argentine_mismatch_declarative-narrow-focus_El-nino-oye-el-rio.wav,./stim/wavs/castilian_mismatch_declarative-narrow-focus_El-nino-oye-el-rio.wav,./stim/wavs/chilean_mismatch_declarative-narrow-focus_El-nino-oye-el-rio.wav,./stim/wavs/cuban_mismatch_declarative-narrow-focus_El-nino-oye-el-rio.wav,./stim/wavs/mexican_mismatch_declarative-narrow-focus_El-nino-oye-el-rio.wav,./stim/wavs/peruvian_mismatch_declarative-narrow-focus_El-nino-oye-el-rio.wav,./stim/wavs/puertorican_mismatch_declarative-narrow-focus_El-nino-oye-el-rio.wav,,,,,,,,,,,,,,,,,,,,,,,,,,,,,,,,,,,,,,,,,,,,,,,,,,,,,,,,
,,,,,,,5d5af833f35ed70001e17a5c,6057c54e64b0b4e5c128b4f9,6059f718af56886e6ae0a51f,Mexico,East coast,13 or older,no,2021-03-23_10h12.18.436,empathy_intonation_perc,2020.2.10,Win32,60,,,,,,,,,,1,argentine,1,1,0.08225,0,22,22,62,1,63,./stim/wavs/andalusian_mismatch_interrogative-total-yn_Mi-novio-viene-del-lago.wav,./stim/wavs/argentine_mismatch_interrogative-total-yn_Mi-novio-viene-del-lago.wav,./stim/wavs/castilian_mismatch_interrogative-total-yn_Mi-novio-viene-del-lago.wav,./stim/wavs/chilean_mismatch_interrogative-total-yn_Mi-novio-viene-del-lago.wav,./stim/wavs/cuban_mismatch_interrogative-total-yn_Mi-novio-viene-del-lago.wav,./stim/wavs/mexican_mismatch_interrogative-total-yn_Mi-novio-viene-del-lago.wav,./stim/wavs/peruvian_mismatch_interrogative-total-yn_Mi-novio-viene-del-lago.wav,./stim/wavs/puertorican_mismatch_interrogative-total-yn_Mi-novio-viene-del-lago.wav,,,,,,,,,,,,,,,,,,,,,,,,,,,,,,,,,,,,,,,,,,,,,,,,,,,,,,,,
,,,,,,,5d5af833f35ed70001e17a5c,6057c54e64b0b4e5c128b4f9,6059f718af56886e6ae0a51f,Mexico,East coast,13 or older,no,2021-03-23_10h12.18.436,empathy_intonation_perc,2020.2.10,Win32,60,,,,,,,,,,0,mexican,1,0,0.7679,0,23,23,3,1,4,./stim/wavs/andalusian_match_declarative-broad-focus_Emilio-ama-la-marcha.wav,./stim/wavs/argentine_match_declarative-broad-focus_Emilio-ama-la-marcha.wav,./stim/wavs/castilian_match_declarative-broad-focus_Emilio-ama-la-marcha.wav,./stim/wavs/chilean_match_declarative-broad-focus_Emilio-ama-la-marcha.wav,./stim/wavs/cuban_match_declarative-broad-focus_Emilio-ama-la-marcha.wav,./stim/wavs/mexican_match_declarative-broad-focus_Emilio-ama-la-marcha.wav,./stim/wavs/peruvian_match_declarative-broad-focus_Emilio-ama-la-marcha.wav,./stim/wavs/puertorican_match_declarative-broad-focus_Emilio-ama-la-marcha.wav,,,,,,,,,,,,,,,,,,,,,,,,,,,,,,,,,,,,,,,,,,,,,,,,,,,,,,,,
,,,,,,,5d5af833f35ed70001e17a5c,6057c54e64b0b4e5c128b4f9,6059f718af56886e6ae0a51f,Mexico,East coast,13 or older,no,2021-03-23_10h12.18.436,empathy_intonation_perc,2020.2.10,Win32,60,,,,,,,,,,0,argentine,0,1,0.08797,0,24,24,36,1,37,./stim/wavs/andalusian_mismatch_declarative-broad-focus_La-nina-lava-el-plato.wav,./stim/wavs/argentine_mismatch_declarative-broad-focus_La-nina-lava-el-plato.wav,./stim/wavs/castilian_mismatch_declarative-broad-focus_La-nina-lava-el-plato.wav,./stim/wavs/chilean_mismatch_declarative-broad-focus_La-nina-lava-el-plato.wav,./stim/wavs/cuban_mismatch_declarative-broad-focus_La-nina-lava-el-plato.wav,./stim/wavs/mexican_mismatch_declarative-broad-focus_La-nina-lava-el-plato.wav,./stim/wavs/peruvian_mismatch_declarative-broad-focus_La-nina-lava-el-plato.wav,./stim/wavs/puertorican_mismatch_declarative-broad-focus_La-nina-lava-el-plato.wav,,,,,,,,,,,,,,,,,,,,,,,,,,,,,,,,,,,,,,,,,,,,,,,,,,,,,,,,
,,,,,,,5d5af833f35ed70001e17a5c,6057c54e64b0b4e5c128b4f9,6059f718af56886e6ae0a51f,Mexico,East coast,13 or older,no,2021-03-23_10h12.18.436,empathy_intonation_perc,2020.2.10,Win32,60,,,,,,,,,,1,chilean,1,1,0.126185,0,25,25,17,1,18,./stim/wavs/andalusian_match_interrogative-partial-wh_Cuando-leia-el-libro.wav,./stim/wavs/argentine_match_interrogative-partial-wh_Cuando-leia-el-libro.wav,./stim/wavs/castilian_match_interrogative-partial-wh_Cuando-leia-el-libro.wav,./stim/wavs/chilean_match_interrogative-partial-wh_Cuando-leia-el-libro.wav,./stim/wavs/cuban_match_interrogative-partial-wh_Cuando-leia-el-libro.wav,./stim/wavs/mexican_match_interrogative-partial-wh_Cuando-leia-el-libro.wav,./stim/wavs/peruvian_match_interrogative-partial-wh_Cuando-leia-el-libro.wav,./stim/wavs/puertorican_match_interrogative-partial-wh_Cuando-leia-el-libro.wav,,,,,,,,,,,,,,,,,,,,,,,,,,,,,,,,,,,,,,,,,,,,,,,,,,,,,,,,
,,,,,,,5d5af833f35ed70001e17a5c,6057c54e64b0b4e5c128b4f9,6059f718af56886e6ae0a51f,Mexico,East coast,13 or older,no,2021-03-23_10h12.18.436,empathy_intonation_perc,2020.2.10,Win32,60,,,,,,,,,,0,argentine,1,0,0.14711,0,26,26,45,1,46,./stim/wavs/andalusian_mismatch_declarative-narrow-focus_Mi-madre-come-la-fruta.wav,./stim/wavs/argentine_mismatch_declarative-narrow-focus_Mi-madre-come-la-fruta.wav,./stim/wavs/castilian_mismatch_declarative-narrow-focus_Mi-madre-come-la-fruta.wav,./stim/wavs/chilean_mismatch_declarative-narrow-focus_Mi-madre-come-la-fruta.wav,./stim/wavs/cuban_mismatch_declarative-narrow-focus_Mi-madre-come-la-fruta.wav,./stim/wavs/mexican_mismatch_declarative-narrow-focus_Mi-madre-come-la-fruta.wav,./stim/wavs/peruvian_mismatch_declarative-narrow-focus_Mi-madre-come-la-fruta.wav,./stim/wavs/puertorican_mismatch_declarative-narrow-focus_Mi-madre-come-la-fruta.wav,,,,,,,,,,,,,,,,,,,,,,,,,,,,,,,,,,,,,,,,,,,,,,,,,,,,,,,,
,,,,,,,5d5af833f35ed70001e17a5c,6057c54e64b0b4e5c128b4f9,6059f718af56886e6ae0a51f,Mexico,East coast,13 or older,no,2021-03-23_10h12.18.436,empathy_intonation_perc,2020.2.10,Win32,60,,,,,,,,,,1,peruvian,1,1,0.07681,0,27,27,49,1,50,./stim/wavs/andalusian_mismatch_interrogative-partial-wh_Cuando-lavaba-el-plato.wav,./stim/wavs/argentine_mismatch_interrogative-partial-wh_Cuando-lavaba-el-plato.wav,./stim/wavs/castilian_mismatch_interrogative-partial-wh_Cuando-lavaba-el-plato.wav,./stim/wavs/chilean_mismatch_interrogative-partial-wh_Cuando-lavaba-el-plato.wav,./stim/wavs/cuban_mismatch_interrogative-partial-wh_Cuando-lavaba-el-plato.wav,./stim/wavs/mexican_mismatch_interrogative-partial-wh_Cuando-lavaba-el-plato.wav,./stim/wavs/peruvian_mismatch_interrogative-partial-wh_Cuando-lavaba-el-plato.wav,./stim/wavs/puertorican_mismatch_interrogative-partial-wh_Cuando-lavaba-el-plato.wav,,,,,,,,,,,,,,,,,,,,,,,,,,,,,,,,,,,,,,,,,,,,,,,,,,,,,,,,
,,,,,,,5d5af833f35ed70001e17a5c,6057c54e64b0b4e5c128b4f9,6059f718af56886e6ae0a51f,Mexico,East coast,13 or older,no,2021-03-23_10h12.18.436,empathy_intonation_perc,2020.2.10,Win32,60,,,,,,,,,,0,castilian,1,0,0.042095,0,28,28,44,1,45,./stim/wavs/andalusian_mismatch_declarative-narrow-focus_La-nina-lava-el-plato.wav,./stim/wavs/argentine_mismatch_declarative-narrow-focus_La-nina-lava-el-plato.wav,./stim/wavs/castilian_mismatch_declarative-narrow-focus_La-nina-lava-el-plato.wav,./stim/wavs/chilean_mismatch_declarative-narrow-focus_La-nina-lava-el-plato.wav,./stim/wavs/cuban_mismatch_declarative-narrow-focus_La-nina-lava-el-plato.wav,./stim/wavs/mexican_mismatch_declarative-narrow-focus_La-nina-lava-el-plato.wav,./stim/wavs/peruvian_mismatch_declarative-narrow-focus_La-nina-lava-el-plato.wav,./stim/wavs/puertorican_mismatch_declarative-narrow-focus_La-nina-lava-el-plato.wav,,,,,,,,,,,,,,,,,,,,,,,,,,,,,,,,,,,,,,,,,,,,,,,,,,,,,,,,
,,,,,,,5d5af833f35ed70001e17a5c,6057c54e64b0b4e5c128b4f9,6059f718af56886e6ae0a51f,Mexico,East coast,13 or older,no,2021-03-23_10h12.18.436,empathy_intonation_perc,2020.2.10,Win32,60,,,,,,,,,,0,cuban,1,0,0.03461,0,29,29,41,1,42,./stim/wavs/andalusian_mismatch_declarative-narrow-focus_El-hombre-mira-la-luna.wav,./stim/wavs/argentine_mismatch_declarative-narrow-focus_El-hombre-mira-la-luna.wav,./stim/wavs/castilian_mismatch_declarative-narrow-focus_El-hombre-mira-la-luna.wav,./stim/wavs/chilean_mismatch_declarative-narrow-focus_El-hombre-mira-la-luna.wav,./stim/wavs/cuban_mismatch_declarative-narrow-focus_El-hombre-mira-la-luna.wav,./stim/wavs/mexican_mismatch_declarative-narrow-focus_El-hombre-mira-la-luna.wav,./stim/wavs/peruvian_mismatch_declarative-narrow-focus_El-hombre-mira-la-luna.wav,./stim/wavs/puertorican_mismatch_declarative-narrow-focus_El-hombre-mira-la-luna.wav,,,,,,,,,,,,,,,,,,,,,,,,,,,,,,,,,,,,,,,,,,,,,,,,,,,,,,,,
,,,,,,,5d5af833f35ed70001e17a5c,6057c54e64b0b4e5c128b4f9,6059f718af56886e6ae0a51f,Mexico,East coast,13 or older,no,2021-03-23_10h12.18.436,empathy_intonation_perc,2020.2.10,Win32,60,,,,,,,,,,1,cuban,1,1,0.03983,0,30,30,27,1,28,./stim/wavs/andalusian_match_interrogative-total-yn_Emilio-ama-la-marcha.wav,./stim/wavs/argentine_match_interrogative-total-yn_Emilio-ama-la-marcha.wav,./stim/wavs/castilian_match_interrogative-total-yn_Emilio-ama-la-marcha.wav,./stim/wavs/chilean_match_interrogative-total-yn_Emilio-ama-la-marcha.wav,./stim/wavs/cuban_match_interrogative-total-yn_Emilio-ama-la-marcha.wav,./stim/wavs/mexican_match_interrogative-total-yn_Emilio-ama-la-marcha.wav,./stim/wavs/peruvian_match_interrogative-total-yn_Emilio-ama-la-marcha.wav,./stim/wavs/puertorican_match_interrogative-total-yn_Emilio-ama-la-marcha.wav,,,,,,,,,,,,,,,,,,,,,,,,,,,,,,,,,,,,,,,,,,,,,,,,,,,,,,,,
,,,,,,,5d5af833f35ed70001e17a5c,6057c54e64b0b4e5c128b4f9,6059f718af56886e6ae0a51f,Mexico,East coast,13 or older,no,2021-03-23_10h12.18.436,empathy_intonation_perc,2020.2.10,Win32,60,,,,,,,,,,0,peruvian,1,0,0.040475,0,31,31,0,1,1,./stim/wavs/andalusian_match_declarative-broad-focus_Ana-lleva-el-abrigo.wav,./stim/wavs/argentine_match_declarative-broad-focus_Ana-lleva-el-abrigo.wav,./stim/wavs/castilian_match_declarative-broad-focus_Ana-lleva-el-abrigo.wav,./stim/wavs/chilean_match_declarative-broad-focus_Ana-lleva-el-abrigo.wav,./stim/wavs/cuban_match_declarative-broad-focus_Ana-lleva-el-abrigo.wav,./stim/wavs/mexican_match_declarative-broad-focus_Ana-lleva-el-abrigo.wav,./stim/wavs/peruvian_match_declarative-broad-focus_Ana-lleva-el-abrigo.wav,./stim/wavs/puertorican_match_declarative-broad-focus_Ana-lleva-el-abrigo.wav,,,,,,,,,,,,,,,,,,,,,,,,,,,,,,,,,,,,,,,,,,,,,,,,,,,,,,,,
,,,,,,,5d5af833f35ed70001e17a5c,6057c54e64b0b4e5c128b4f9,6059f718af56886e6ae0a51f,Mexico,East coast,13 or older,no,2021-03-23_10h12.18.436,empathy_intonation_perc,2020.2.10,Win32,60,,,,,,,,,,0,castilian,1,0,0.05021,0,32,32,39,1,40,./stim/wavs/andalusian_mismatch_declarative-broad-focus_Mi-tia-odia-la-lluvia.wav,./stim/wavs/argentine_mismatch_declarative-broad-focus_Mi-tia-odia-la-lluvia.wav,./stim/wavs/castilian_mismatch_declarative-broad-focus_Mi-tia-odia-la-lluvia.wav,./stim/wavs/chilean_mismatch_declarative-broad-focus_Mi-tia-odia-la-lluvia.wav,./stim/wavs/cuban_mismatch_declarative-broad-focus_Mi-tia-odia-la-lluvia.wav,./stim/wavs/mexican_mismatch_declarative-broad-focus_Mi-tia-odia-la-lluvia.wav,./stim/wavs/peruvian_mismatch_declarative-broad-focus_Mi-tia-odia-la-lluvia.wav,./stim/wavs/puertorican_mismatch_declarative-broad-focus_Mi-tia-odia-la-lluvia.wav,,,,,,,,,,,,,,,,,,,,,,,,,,,,,,,,,,,,,,,,,,,,,,,,,,,,,,,,
,,,,,,,5d5af833f35ed70001e17a5c,6057c54e64b0b4e5c128b4f9,6059f718af56886e6ae0a51f,Mexico,East coast,13 or older,no,2021-03-23_10h12.18.436,empathy_intonation_perc,2020.2.10,Win32,60,,,,,,,,,,0,puertorican,1,0,0.093155,0,33,33,35,1,36,./stim/wavs/andalusian_mismatch_declarative-broad-focus_La-maestra-vive-en-Paris.wav,./stim/wavs/argentine_mismatch_declarative-broad-focus_La-maestra-vive-en-Paris.wav,./stim/wavs/castilian_mismatch_declarative-broad-focus_La-maestra-vive-en-Paris.wav,./stim/wavs/chilean_mismatch_declarative-broad-focus_La-maestra-vive-en-Paris.wav,./stim/wavs/cuban_mismatch_declarative-broad-focus_La-maestra-vive-en-Paris.wav,./stim/wavs/mexican_mismatch_declarative-broad-focus_La-maestra-vive-en-Paris.wav,./stim/wavs/peruvian_mismatch_declarative-broad-focus_La-maestra-vive-en-Paris.wav,./stim/wavs/puertorican_mismatch_declarative-broad-focus_La-maestra-vive-en-Paris.wav,,,,,,,,,,,,,,,,,,,,,,,,,,,,,,,,,,,,,,,,,,,,,,,,,,,,,,,,
,,,,,,,5d5af833f35ed70001e17a5c,6057c54e64b0b4e5c128b4f9,6059f718af56886e6ae0a51f,Mexico,East coast,13 or older,no,2021-03-23_10h12.18.436,empathy_intonation_perc,2020.2.10,Win32,60,,,,,,,,,,1,castilian,1,1,0.965435,0,34,34,61,1,62,./stim/wavs/andalusian_mismatch_interrogative-total-yn_Mi-madre-come-la-fruta.wav,./stim/wavs/argentine_mismatch_interrogative-total-yn_Mi-madre-come-la-fruta.wav,./stim/wavs/castilian_mismatch_interrogative-total-yn_Mi-madre-come-la-fruta.wav,./stim/wavs/chilean_mismatch_interrogative-total-yn_Mi-madre-come-la-fruta.wav,./stim/wavs/cuban_mismatch_interrogative-total-yn_Mi-madre-come-la-fruta.wav,./stim/wavs/mexican_mismatch_interrogative-total-yn_Mi-madre-come-la-fruta.wav,./stim/wavs/peruvian_mismatch_interrogative-total-yn_Mi-madre-come-la-fruta.wav,./stim/wavs/puertorican_mismatch_interrogative-total-yn_Mi-madre-come-la-fruta.wav,,,,,,,,,,,,,,,,,,,,,,,,,,,,,,,,,,,,,,,,,,,,,,,,,,,,,,,,
,,,,,,,5d5af833f35ed70001e17a5c,6057c54e64b0b4e5c128b4f9,6059f718af56886e6ae0a51f,Mexico,East coast,13 or older,no,2021-03-23_10h12.18.436,empathy_intonation_perc,2020.2.10,Win32,60,,,,,,,,,,0,chilean,1,0,0.09631,0,35,35,37,1,38,./stim/wavs/andalusian_mismatch_declarative-broad-focus_Mi-madre-come-la-fruta.wav,./stim/wavs/argentine_mismatch_declarative-broad-focus_Mi-madre-come-la-fruta.wav,./stim/wavs/castilian_mismatch_declarative-broad-focus_Mi-madre-come-la-fruta.wav,./stim/wavs/chilean_mismatch_declarative-broad-focus_Mi-madre-come-la-fruta.wav,./stim/wavs/cuban_mismatch_declarative-broad-focus_Mi-madre-come-la-fruta.wav,./stim/wavs/mexican_mismatch_declarative-broad-focus_Mi-madre-come-la-fruta.wav,./stim/wavs/peruvian_mismatch_declarative-broad-focus_Mi-madre-come-la-fruta.wav,./stim/wavs/puertorican_mismatch_declarative-broad-focus_Mi-madre-come-la-fruta.wav,,,,,,,,,,,,,,,,,,,,,,,,,,,,,,,,,,,,,,,,,,,,,,,,,,,,,,,,
,,,,,,,5d5af833f35ed70001e17a5c,6057c54e64b0b4e5c128b4f9,6059f718af56886e6ae0a51f,Mexico,East coast,13 or older,no,2021-03-23_10h12.18.436,empathy_intonation_perc,2020.2.10,Win32,60,,,,,,,,,,1,argentine,1,1,0.228305,0,36,36,16,1,17,./stim/wavs/andalusian_match_interrogative-partial-wh_Cuando-bebia-el-vino.wav,./stim/wavs/argentine_match_interrogative-partial-wh_Cuando-bebia-el-vino.wav,./stim/wavs/castilian_match_interrogative-partial-wh_Cuando-bebia-el-vino.wav,./stim/wavs/chilean_match_interrogative-partial-wh_Cuando-bebia-el-vino.wav,./stim/wavs/cuban_match_interrogative-partial-wh_Cuando-bebia-el-vino.wav,./stim/wavs/mexican_match_interrogative-partial-wh_Cuando-bebia-el-vino.wav,./stim/wavs/peruvian_match_interrogative-partial-wh_Cuando-bebia-el-vino.wav,./stim/wavs/puertorican_match_interrogative-partial-wh_Cuando-bebia-el-vino.wav,,,,,,,,,,,,,,,,,,,,,,,,,,,,,,,,,,,,,,,,,,,,,,,,,,,,,,,,
,,,,,,,5d5af833f35ed70001e17a5c,6057c54e64b0b4e5c128b4f9,6059f718af56886e6ae0a51f,Mexico,East coast,13 or older,no,2021-03-23_10h12.18.436,empathy_intonation_perc,2020.2.10,Win32,60,,,,,,,,,,0,mexican,1,0,0.133495,0,37,37,10,1,11,./stim/wavs/andalusian_match_declarative-narrow-focus_David-leia-el-libro.wav,./stim/wavs/argentine_match_declarative-narrow-focus_David-leia-el-libro.wav,./stim/wavs/castilian_match_declarative-narrow-focus_David-leia-el-libro.wav,./stim/wavs/chilean_match_declarative-narrow-focus_David-leia-el-libro.wav,./stim/wavs/cuban_match_declarative-narrow-focus_David-leia-el-libro.wav,./stim/wavs/mexican_match_declarative-narrow-focus_David-leia-el-libro.wav,./stim/wavs/peruvian_match_declarative-narrow-focus_David-leia-el-libro.wav,./stim/wavs/puertorican_match_declarative-narrow-focus_David-leia-el-libro.wav,,,,,,,,,,,,,,,,,,,,,,,,,,,,,,,,,,,,,,,,,,,,,,,,,,,,,,,,
,,,,,,,5d5af833f35ed70001e17a5c,6057c54e64b0b4e5c128b4f9,6059f718af56886e6ae0a51f,Mexico,East coast,13 or older,no,2021-03-23_10h12.18.436,empathy_intonation_perc,2020.2.10,Win32,60,,,,,,,,,,1,puertorican,1,1,0.186045,0,38,38,21,1,22,./stim/wavs/andalusian_match_interrogative-partial-wh_Por-que-ama-la-navidad.wav,./stim/wavs/argentine_match_interrogative-partial-wh_Por-que-ama-la-navidad.wav,./stim/wavs/castilian_match_interrogative-partial-wh_Por-que-ama-la-navidad.wav,./stim/wavs/chilean_match_interrogative-partial-wh_Por-que-ama-la-navidad.wav,./stim/wavs/cuban_match_interrogative-partial-wh_Por-que-ama-la-navidad.wav,./stim/wavs/mexican_match_interrogative-partial-wh_Por-que-ama-la-navidad.wav,./stim/wavs/peruvian_match_interrogative-partial-wh_Por-que-ama-la-navidad.wav,./stim/wavs/puertorican_match_interrogative-partial-wh_Por-que-ama-la-navidad.wav,,,,,,,,,,,,,,,,,,,,,,,,,,,,,,,,,,,,,,,,,,,,,,,,,,,,,,,,
,,,,,,,5d5af833f35ed70001e17a5c,6057c54e64b0b4e5c128b4f9,6059f718af56886e6ae0a51f,Mexico,East coast,13 or older,no,2021-03-23_10h12.18.436,empathy_intonation_perc,2020.2.10,Win32,60,,,,,,,,,,1,andalusian,1,1,0.161755,0,39,39,23,1,24,./stim/wavs/andalusian_match_interrogative-partial-wh_Por-que-iba-a-Bolivia.wav,./stim/wavs/argentine_match_interrogative-partial-wh_Por-que-iba-a-Bolivia.wav,./stim/wavs/castilian_match_interrogative-partial-wh_Por-que-iba-a-Bolivia.wav,./stim/wavs/chilean_match_interrogative-partial-wh_Por-que-iba-a-Bolivia.wav,./stim/wavs/cuban_match_interrogative-partial-wh_Por-que-iba-a-Bolivia.wav,./stim/wavs/mexican_match_interrogative-partial-wh_Por-que-iba-a-Bolivia.wav,./stim/wavs/peruvian_match_interrogative-partial-wh_Por-que-iba-a-Bolivia.wav,./stim/wavs/puertorican_match_interrogative-partial-wh_Por-que-iba-a-Bolivia.wav,,,,,,,,,,,,,,,,,,,,,,,,,,,,,,,,,,,,,,,,,,,,,,,,,,,,,,,,
,,,,,,,5d5af833f35ed70001e17a5c,6057c54e64b0b4e5c128b4f9,6059f718af56886e6ae0a51f,Mexico,East coast,13 or older,no,2021-03-23_10h12.18.436,empathy_intonation_perc,2020.2.10,Win32,60,,,,,,,,,,1,mexican,1,1,0.021655,0,40,40,54,1,55,./stim/wavs/andalusian_mismatch_interrogative-partial-wh_Por-que-venia-del-lago.wav,./stim/wavs/argentine_mismatch_interrogative-partial-wh_Por-que-venia-del-lago.wav,./stim/wavs/castilian_mismatch_interrogative-partial-wh_Por-que-venia-del-lago.wav,./stim/wavs/chilean_mismatch_interrogative-partial-wh_Por-que-venia-del-lago.wav,./stim/wavs/cuban_mismatch_interrogative-partial-wh_Por-que-venia-del-lago.wav,./stim/wavs/mexican_mismatch_interrogative-partial-wh_Por-que-venia-del-lago.wav,./stim/wavs/peruvian_mismatch_interrogative-partial-wh_Por-que-venia-del-lago.wav,./stim/wavs/puertorican_mismatch_interrogative-partial-wh_Por-que-venia-del-lago.wav,,,,,,,,,,,,,,,,,,,,,,,,,,,,,,,,,,,,,,,,,,,,,,,,,,,,,,,,
,,,,,,,5d5af833f35ed70001e17a5c,6057c54e64b0b4e5c128b4f9,6059f718af56886e6ae0a51f,Mexico,East coast,13 or older,no,2021-03-23_10h12.18.436,empathy_intonation_perc,2020.2.10,Win32,60,,,,,,,,,,1,cuban,1,1,0.187555,0,41,41,31,1,32,./stim/wavs/andalusian_match_interrogative-total-yn_Marta-abre-el-regalo.wav,./stim/wavs/argentine_match_interrogative-total-yn_Marta-abre-el-regalo.wav,./stim/wavs/castilian_match_interrogative-total-yn_Marta-abre-el-regalo.wav,./stim/wavs/chilean_match_interrogative-total-yn_Marta-abre-el-regalo.wav,./stim/wavs/cuban_match_interrogative-total-yn_Marta-abre-el-regalo.wav,./stim/wavs/mexican_match_interrogative-total-yn_Marta-abre-el-regalo.wav,./stim/wavs/peruvian_match_interrogative-total-yn_Marta-abre-el-regalo.wav,./stim/wavs/puertorican_match_interrogative-total-yn_Marta-abre-el-regalo.wav,,,,,,,,,,,,,,,,,,,,,,,,,,,,,,,,,,,,,,,,,,,,,,,,,,,,,,,,
,,,,,,,5d5af833f35ed70001e17a5c,6057c54e64b0b4e5c128b4f9,6059f718af56886e6ae0a51f,Mexico,East coast,13 or older,no,2021-03-23_10h12.18.436,empathy_intonation_perc,2020.2.10,Win32,60,,,,,,,,,,1,mexican,1,1,0.137865,0,42,42,30,1,31,./stim/wavs/andalusian_match_interrogative-total-yn_Mariano-habla-del-tiempo.wav,./stim/wavs/argentine_match_interrogative-total-yn_Mariano-habla-del-tiempo.wav,./stim/wavs/castilian_match_interrogative-total-yn_Mariano-habla-del-tiempo.wav,./stim/wavs/chilean_match_interrogative-total-yn_Mariano-habla-del-tiempo.wav,./stim/wavs/cuban_match_interrogative-total-yn_Mariano-habla-del-tiempo.wav,./stim/wavs/mexican_match_interrogative-total-yn_Mariano-habla-del-tiempo.wav,./stim/wavs/peruvian_match_interrogative-total-yn_Mariano-habla-del-tiempo.wav,./stim/wavs/puertorican_match_interrogative-total-yn_Mariano-habla-del-tiempo.wav,,,,,,,,,,,,,,,,,,,,,,,,,,,,,,,,,,,,,,,,,,,,,,,,,,,,,,,,
,,,,,,,5d5af833f35ed70001e17a5c,6057c54e64b0b4e5c128b4f9,6059f718af56886e6ae0a51f,Mexico,East coast,13 or older,no,2021-03-23_10h12.18.436,empathy_intonation_perc,2020.2.10,Win32,60,,,,,,,,,,1,castilian,0,0,0.04712,0,43,43,55,1,56,./stim/wavs/andalusian_mismatch_interrogative-partial-wh_Por-que-vivia-en-Paris.wav,./stim/wavs/argentine_mismatch_interrogative-partial-wh_Por-que-vivia-en-Paris.wav,./stim/wavs/castilian_mismatch_interrogative-partial-wh_Por-que-vivia-en-Paris.wav,./stim/wavs/chilean_mismatch_interrogative-partial-wh_Por-que-vivia-en-Paris.wav,./stim/wavs/cuban_mismatch_interrogative-partial-wh_Por-que-vivia-en-Paris.wav,./stim/wavs/mexican_mismatch_interrogative-partial-wh_Por-que-vivia-en-Paris.wav,./stim/wavs/peruvian_mismatch_interrogative-partial-wh_Por-que-vivia-en-Paris.wav,./stim/wavs/puertorican_mismatch_interrogative-partial-wh_Por-que-vivia-en-Paris.wav,,,,,,,,,,,,,,,,,,,,,,,,,,,,,,,,,,,,,,,,,,,,,,,,,,,,,,,,
,,,,,,,5d5af833f35ed70001e17a5c,6057c54e64b0b4e5c128b4f9,6059f718af56886e6ae0a51f,Mexico,East coast,13 or older,no,2021-03-23_10h12.18.436,empathy_intonation_perc,2020.2.10,Win32,60,,,,,,,,,,1,peruvian,0,0,0.30699,0,44,44,20,1,21,./stim/wavs/andalusian_match_interrogative-partial-wh_Por-que-abre-el-regalo.wav,./stim/wavs/argentine_match_interrogative-partial-wh_Por-que-abre-el-regalo.wav,./stim/wavs/castilian_match_interrogative-partial-wh_Por-que-abre-el-regalo.wav,./stim/wavs/chilean_match_interrogative-partial-wh_Por-que-abre-el-regalo.wav,./stim/wavs/cuban_match_interrogative-partial-wh_Por-que-abre-el-regalo.wav,./stim/wavs/mexican_match_interrogative-partial-wh_Por-que-abre-el-regalo.wav,./stim/wavs/peruvian_match_interrogative-partial-wh_Por-que-abre-el-regalo.wav,./stim/wavs/puertorican_match_interrogative-partial-wh_Por-que-abre-el-regalo.wav,,,,,,,,,,,,,,,,,,,,,,,,,,,,,,,,,,,,,,,,,,,,,,,,,,,,,,,,
,,,,,,,5d5af833f35ed70001e17a5c,6057c54e64b0b4e5c128b4f9,6059f718af56886e6ae0a51f,Mexico,East coast,13 or older,no,2021-03-23_10h12.18.436,empathy_intonation_perc,2020.2.10,Win32,60,,,,,,,,,,1,argentine,0,0,0.16425,0,45,45,19,1,20,./stim/wavs/andalusian_match_interrogative-partial-wh_Cuando-vendia-el-carro.wav,./stim/wavs/argentine_match_interrogative-partial-wh_Cuando-vendia-el-carro.wav,./stim/wavs/castilian_match_interrogative-partial-wh_Cuando-vendia-el-carro.wav,./stim/wavs/chilean_match_interrogative-partial-wh_Cuando-vendia-el-carro.wav,./stim/wavs/cuban_match_interrogative-partial-wh_Cuando-vendia-el-carro.wav,./stim/wavs/mexican_match_interrogative-partial-wh_Cuando-vendia-el-carro.wav,./stim/wavs/peruvian_match_interrogative-partial-wh_Cuando-vendia-el-carro.wav,./stim/wavs/puertorican_match_interrogative-partial-wh_Cuando-vendia-el-carro.wav,,,,,,,,,,,,,,,,,,,,,,,,,,,,,,,,,,,,,,,,,,,,,,,,,,,,,,,,
,,,,,,,5d5af833f35ed70001e17a5c,6057c54e64b0b4e5c128b4f9,6059f718af56886e6ae0a51f,Mexico,East coast,13 or older,no,2021-03-23_10h12.18.436,empathy_intonation_perc,2020.2.10,Win32,60,,,,,,,,,,0,chilean,1,0,0.098605,0,46,46,40,1,41,./stim/wavs/andalusian_mismatch_declarative-narrow-focus_El-bebe-comia-muy-bien.wav,./stim/wavs/argentine_mismatch_declarative-narrow-focus_El-bebe-comia-muy-bien.wav,./stim/wavs/castilian_mismatch_declarative-narrow-focus_El-bebe-comia-muy-bien.wav,./stim/wavs/chilean_mismatch_declarative-narrow-focus_El-bebe-comia-muy-bien.wav,./stim/wavs/cuban_mismatch_declarative-narrow-focus_El-bebe-comia-muy-bien.wav,./stim/wavs/mexican_mismatch_declarative-narrow-focus_El-bebe-comia-muy-bien.wav,./stim/wavs/peruvian_mismatch_declarative-narrow-focus_El-bebe-comia-muy-bien.wav,./stim/wavs/puertorican_mismatch_declarative-narrow-focus_El-bebe-comia-muy-bien.wav,,,,,,,,,,,,,,,,,,,,,,,,,,,,,,,,,,,,,,,,,,,,,,,,,,,,,,,,
,,,,,,,5d5af833f35ed70001e17a5c,6057c54e64b0b4e5c128b4f9,6059f718af56886e6ae0a51f,Mexico,East coast,13 or older,no,2021-03-23_10h12.18.436,empathy_intonation_perc,2020.2.10,Win32,60,,,,,,,,,,0,peruvian,1,0,0.088835,0,47,47,38,1,39,./stim/wavs/andalusian_mismatch_declarative-broad-focus_Mi-novio-viene-del-lago.wav,./stim/wavs/argentine_mismatch_declarative-broad-focus_Mi-novio-viene-del-lago.wav,./stim/wavs/castilian_mismatch_declarative-broad-focus_Mi-novio-viene-del-lago.wav,./stim/wavs/chilean_mismatch_declarative-broad-focus_Mi-novio-viene-del-lago.wav,./stim/wavs/cuban_mismatch_declarative-broad-focus_Mi-novio-viene-del-lago.wav,./stim/wavs/mexican_mismatch_declarative-broad-focus_Mi-novio-viene-del-lago.wav,./stim/wavs/peruvian_mismatch_declarative-broad-focus_Mi-novio-viene-del-lago.wav,./stim/wavs/puertorican_mismatch_declarative-broad-focus_Mi-novio-viene-del-lago.wav,,,,,,,,,,,,,,,,,,,,,,,,,,,,,,,,,,,,,,,,,,,,,,,,,,,,,,,,
,,,,,,,5d5af833f35ed70001e17a5c,6057c54e64b0b4e5c128b4f9,6059f718af56886e6ae0a51f,Mexico,East coast,13 or older,no,2021-03-23_10h12.18.436,empathy_intonation_perc,2020.2.10,Win32,60,,,,,,,,,,0,chilean,1,0,0.100725,0,48,48,34,1,35,./stim/wavs/andalusian_mismatch_declarative-broad-focus_El-nino-oye-el-rio.wav,./stim/wavs/argentine_mismatch_declarative-broad-focus_El-nino-oye-el-rio.wav,./stim/wavs/castilian_mismatch_declarative-broad-focus_El-nino-oye-el-rio.wav,./stim/wavs/chilean_mismatch_declarative-broad-focus_El-nino-oye-el-rio.wav,./stim/wavs/cuban_mismatch_declarative-broad-focus_El-nino-oye-el-rio.wav,./stim/wavs/mexican_mismatch_declarative-broad-focus_El-nino-oye-el-rio.wav,./stim/wavs/peruvian_mismatch_declarative-broad-focus_El-nino-oye-el-rio.wav,./stim/wavs/puertorican_mismatch_declarative-broad-focus_El-nino-oye-el-rio.wav,,,,,,,,,,,,,,,,,,,,,,,,,,,,,,,,,,,,,,,,,,,,,,,,,,,,,,,,
,,,,,,,5d5af833f35ed70001e17a5c,6057c54e64b0b4e5c128b4f9,6059f718af56886e6ae0a51f,Mexico,East coast,13 or older,no,2021-03-23_10h12.18.436,empathy_intonation_perc,2020.2.10,Win32,60,,,,,,,,,,1,argentine,1,1,0.041455,0,49,49,24,1,25,./stim/wavs/andalusian_match_interrogative-total-yn_Ana-lleva-el-abrigo.wav,./stim/wavs/argentine_match_interrogative-total-yn_Ana-lleva-el-abrigo.wav,./stim/wavs/castilian_match_interrogative-total-yn_Ana-lleva-el-abrigo.wav,./stim/wavs/chilean_match_interrogative-total-yn_Ana-lleva-el-abrigo.wav,./stim/wavs/cuban_match_interrogative-total-yn_Ana-lleva-el-abrigo.wav,./stim/wavs/mexican_match_interrogative-total-yn_Ana-lleva-el-abrigo.wav,./stim/wavs/peruvian_match_interrogative-total-yn_Ana-lleva-el-abrigo.wav,./stim/wavs/puertorican_match_interrogative-total-yn_Ana-lleva-el-abrigo.wav,,,,,,,,,,,,,,,,,,,,,,,,,,,,,,,,,,,,,,,,,,,,,,,,,,,,,,,,
,,,,,,,5d5af833f35ed70001e17a5c,6057c54e64b0b4e5c128b4f9,6059f718af56886e6ae0a51f,Mexico,East coast,13 or older,no,2021-03-23_10h12.18.436,empathy_intonation_perc,2020.2.10,Win32,60,,,,,,,,,,1,mexican,1,1,0.01425,0,50,50,50,1,51,./stim/wavs/andalusian_mismatch_interrogative-partial-wh_Cuando-miraba-la-luna.wav,./stim/wavs/argentine_mismatch_interrogative-partial-wh_Cuando-miraba-la-luna.wav,./stim/wavs/castilian_mismatch_interrogative-partial-wh_Cuando-miraba-la-luna.wav,./stim/wavs/chilean_mismatch_interrogative-partial-wh_Cuando-miraba-la-luna.wav,./stim/wavs/cuban_mismatch_interrogative-partial-wh_Cuando-miraba-la-luna.wav,./stim/wavs/mexican_mismatch_interrogative-partial-wh_Cuando-miraba-la-luna.wav,./stim/wavs/peruvian_mismatch_interrogative-partial-wh_Cuando-miraba-la-luna.wav,./stim/wavs/puertorican_mismatch_interrogative-partial-wh_Cuando-miraba-la-luna.wav,,,,,,,,,,,,,,,,,,,,,,,,,,,,,,,,,,,,,,,,,,,,,,,,,,,,,,,,
,,,,,,,5d5af833f35ed70001e17a5c,6057c54e64b0b4e5c128b4f9,6059f718af56886e6ae0a51f,Mexico,East coast,13 or older,no,2021-03-23_10h12.18.436,empathy_intonation_perc,2020.2.10,Win32,60,,,,,,,,,,1,argentine,1,1,0.17507,0,51,51,48,1,49,./stim/wavs/andalusian_mismatch_interrogative-partial-wh_Cuando-comia-la-fruta.wav,./stim/wavs/argentine_mismatch_interrogative-partial-wh_Cuando-comia-la-fruta.wav,./stim/wavs/castilian_mismatch_interrogative-partial-wh_Cuando-comia-la-fruta.wav,./stim/wavs/chilean_mismatch_interrogative-partial-wh_Cuando-comia-la-fruta.wav,./stim/wavs/cuban_mismatch_interrogative-partial-wh_Cuando-comia-la-fruta.wav,./stim/wavs/mexican_mismatch_interrogative-partial-wh_Cuando-comia-la-fruta.wav,./stim/wavs/peruvian_mismatch_interrogative-partial-wh_Cuando-comia-la-fruta.wav,./stim/wavs/puertorican_mismatch_interrogative-partial-wh_Cuando-comia-la-fruta.wav,,,,,,,,,,,,,,,,,,,,,,,,,,,,,,,,,,,,,,,,,,,,,,,,,,,,,,,,
,,,,,,,5d5af833f35ed70001e17a5c,6057c54e64b0b4e5c128b4f9,6059f718af56886e6ae0a51f,Mexico,East coast,13 or older,no,2021-03-23_10h12.18.436,empathy_intonation_perc,2020.2.10,Win32,60,,,,,,,,,,0,castilian,1,0,0.08056,0,52,52,12,1,13,./stim/wavs/andalusian_match_declarative-narrow-focus_Manuela-vende-el-carro.wav,./stim/wavs/argentine_match_declarative-narrow-focus_Manuela-vende-el-carro.wav,./stim/wavs/castilian_match_declarative-narrow-focus_Manuela-vende-el-carro.wav,./stim/wavs/chilean_match_declarative-narrow-focus_Manuela-vende-el-carro.wav,./stim/wavs/cuban_match_declarative-narrow-focus_Manuela-vende-el-carro.wav,./stim/wavs/mexican_match_declarative-narrow-focus_Manuela-vende-el-carro.wav,./stim/wavs/peruvian_match_declarative-narrow-focus_Manuela-vende-el-carro.wav,./stim/wavs/puertorican_match_declarative-narrow-focus_Manuela-vende-el-carro.wav,,,,,,,,,,,,,,,,,,,,,,,,,,,,,,,,,,,,,,,,,,,,,,,,,,,,,,,,
,,,,,,,5d5af833f35ed70001e17a5c,6057c54e64b0b4e5c128b4f9,6059f718af56886e6ae0a51f,Mexico,East coast,13 or older,no,2021-03-23_10h12.18.436,empathy_intonation_perc,2020.2.10,Win32,60,,,,,,,,,,0,cuban,1,0,0.08942,0,53,53,32,1,33,./stim/wavs/andalusian_mismatch_declarative-broad-focus_El-bebe-comia-muy-bien.wav,./stim/wavs/argentine_mismatch_declarative-broad-focus_El-bebe-comia-muy-bien.wav,./stim/wavs/castilian_mismatch_declarative-broad-focus_El-bebe-comia-muy-bien.wav,./stim/wavs/chilean_mismatch_declarative-broad-focus_El-bebe-comia-muy-bien.wav,./stim/wavs/cuban_mismatch_declarative-broad-focus_El-bebe-comia-muy-bien.wav,./stim/wavs/mexican_mismatch_declarative-broad-focus_El-bebe-comia-muy-bien.wav,./stim/wavs/peruvian_mismatch_declarative-broad-focus_El-bebe-comia-muy-bien.wav,./stim/wavs/puertorican_mismatch_declarative-broad-focus_El-bebe-comia-muy-bien.wav,,,,,,,,,,,,,,,,,,,,,,,,,,,,,,,,,,,,,,,,,,,,,,,,,,,,,,,,
,,,,,,,5d5af833f35ed70001e17a5c,6057c54e64b0b4e5c128b4f9,6059f718af56886e6ae0a51f,Mexico,East coast,13 or older,no,2021-03-23_10h12.18.436,empathy_intonation_perc,2020.2.10,Win32,60,,,,,,,,,,1,chilean,1,1,0.269085,0,54,54,25,1,26,./stim/wavs/andalusian_match_interrogative-total-yn_Daniel-iba-a-Bolivia.wav,./stim/wavs/argentine_match_interrogative-total-yn_Daniel-iba-a-Bolivia.wav,./stim/wavs/castilian_match_interrogative-total-yn_Daniel-iba-a-Bolivia.wav,./stim/wavs/chilean_match_interrogative-total-yn_Daniel-iba-a-Bolivia.wav,./stim/wavs/cuban_match_interrogative-total-yn_Daniel-iba-a-Bolivia.wav,./stim/wavs/mexican_match_interrogative-total-yn_Daniel-iba-a-Bolivia.wav,./stim/wavs/peruvian_match_interrogative-total-yn_Daniel-iba-a-Bolivia.wav,./stim/wavs/puertorican_match_interrogative-total-yn_Daniel-iba-a-Bolivia.wav,,,,,,,,,,,,,,,,,,,,,,,,,,,,,,,,,,,,,,,,,,,,,,,,,,,,,,,,
,,,,,,,5d5af833f35ed70001e17a5c,6057c54e64b0b4e5c128b4f9,6059f718af56886e6ae0a51f,Mexico,East coast,13 or older,no,2021-03-23_10h12.18.436,empathy_intonation_perc,2020.2.10,Win32,60,,,,,,,,,,1,argentine,1,1,0.272735,0,55,55,56,1,57,./stim/wavs/andalusian_mismatch_interrogative-total-yn_El-bebe-comia-muy-bien.wav,./stim/wavs/argentine_mismatch_interrogative-total-yn_El-bebe-comia-muy-bien.wav,./stim/wavs/castilian_mismatch_interrogative-total-yn_El-bebe-comia-muy-bien.wav,./stim/wavs/chilean_mismatch_interrogative-total-yn_El-bebe-comia-muy-bien.wav,./stim/wavs/cuban_mismatch_interrogative-total-yn_El-bebe-comia-muy-bien.wav,./stim/wavs/mexican_mismatch_interrogative-total-yn_El-bebe-comia-muy-bien.wav,./stim/wavs/peruvian_mismatch_interrogative-total-yn_El-bebe-comia-muy-bien.wav,./stim/wavs/puertorican_mismatch_interrogative-total-yn_El-bebe-comia-muy-bien.wav,,,,,,,,,,,,,,,,,,,,,,,,,,,,,,,,,,,,,,,,,,,,,,,,,,,,,,,,
,,,,,,,5d5af833f35ed70001e17a5c,6057c54e64b0b4e5c128b4f9,6059f718af56886e6ae0a51f,Mexico,East coast,13 or older,no,2021-03-23_10h12.18.436,empathy_intonation_perc,2020.2.10,Win32,60,,,,,,,,,,0,mexican,1,0,0.24725,0,56,56,6,1,7,./stim/wavs/andalusian_match_declarative-broad-focus_Mariano-habla-del-tiempo.wav,./stim/wavs/argentine_match_declarative-broad-focus_Mariano-habla-del-tiempo.wav,./stim/wavs/castilian_match_declarative-broad-focus_Mariano-habla-del-tiempo.wav,./stim/wavs/chilean_match_declarative-broad-focus_Mariano-habla-del-tiempo.wav,./stim/wavs/cuban_match_declarative-broad-focus_Mariano-habla-del-tiempo.wav,./stim/wavs/mexican_match_declarative-broad-focus_Mariano-habla-del-tiempo.wav,./stim/wavs/peruvian_match_declarative-broad-focus_Mariano-habla-del-tiempo.wav,./stim/wavs/puertorican_match_declarative-broad-focus_Mariano-habla-del-tiempo.wav,,,,,,,,,,,,,,,,,,,,,,,,,,,,,,,,,,,,,,,,,,,,,,,,,,,,,,,,
,,,,,,,5d5af833f35ed70001e17a5c,6057c54e64b0b4e5c128b4f9,6059f718af56886e6ae0a51f,Mexico,East coast,13 or older,no,2021-03-23_10h12.18.436,empathy_intonation_perc,2020.2.10,Win32,60,,,,,,,,,,1,puertorican,1,1,0.000445,0,57,57,29,1,30,./stim/wavs/andalusian_match_interrogative-total-yn_Maria-bebe-el-vino.wav,./stim/wavs/argentine_match_interrogative-total-yn_Maria-bebe-el-vino.wav,./stim/wavs/castilian_match_interrogative-total-yn_Maria-bebe-el-vino.wav,./stim/wavs/chilean_match_interrogative-total-yn_Maria-bebe-el-vino.wav,./stim/wavs/cuban_match_interrogative-total-yn_Maria-bebe-el-vino.wav,./stim/wavs/mexican_match_interrogative-total-yn_Maria-bebe-el-vino.wav,./stim/wavs/peruvian_match_interrogative-total-yn_Maria-bebe-el-vino.wav,./stim/wavs/puertorican_match_interrogative-total-yn_Maria-bebe-el-vino.wav,,,,,,,,,,,,,,,,,,,,,,,,,,,,,,,,,,,,,,,,,,,,,,,,,,,,,,,,
,,,,,,,5d5af833f35ed70001e17a5c,6057c54e64b0b4e5c128b4f9,6059f718af56886e6ae0a51f,Mexico,East coast,13 or older,no,2021-03-23_10h12.18.436,empathy_intonation_perc,2020.2.10,Win32,60,,,,,,,,,,0,castilian,1,0,0.024,0,58,58,14,1,15,./stim/wavs/andalusian_match_declarative-narrow-focus_Mariano-habla-del-tiempo.wav,./stim/wavs/argentine_match_declarative-narrow-focus_Mariano-habla-del-tiempo.wav,./stim/wavs/castilian_match_declarative-narrow-focus_Mariano-habla-del-tiempo.wav,./stim/wavs/chilean_match_declarative-narrow-focus_Mariano-habla-del-tiempo.wav,./stim/wavs/cuban_match_declarative-narrow-focus_Mariano-habla-del-tiempo.wav,./stim/wavs/mexican_match_declarative-narrow-focus_Mariano-habla-del-tiempo.wav,./stim/wavs/peruvian_match_declarative-narrow-focus_Mariano-habla-del-tiempo.wav,./stim/wavs/puertorican_match_declarative-narrow-focus_Mariano-habla-del-tiempo.wav,,,,,,,,,,,,,,,,,,,,,,,,,,,,,,,,,,,,,,,,,,,,,,,,,,,,,,,,
,,,,,,,5d5af833f35ed70001e17a5c,6057c54e64b0b4e5c128b4f9,6059f718af56886e6ae0a51f,Mexico,East coast,13 or older,no,2021-03-23_10h12.18.436,empathy_intonation_perc,2020.2.10,Win32,60,,,,,,,,,,1,cuban,1,1,0.093645,0,59,59,26,1,27,./stim/wavs/andalusian_match_interrogative-total-yn_David-leia-el-libro.wav,./stim/wavs/argentine_match_interrogative-total-yn_David-leia-el-libro.wav,./stim/wavs/castilian_match_interrogative-total-yn_David-leia-el-libro.wav,./stim/wavs/chilean_match_interrogative-total-yn_David-leia-el-libro.wav,./stim/wavs/cuban_match_interrogative-total-yn_David-leia-el-libro.wav,./stim/wavs/mexican_match_interrogative-total-yn_David-leia-el-libro.wav,./stim/wavs/peruvian_match_interrogative-total-yn_David-leia-el-libro.wav,./stim/wavs/puertorican_match_interrogative-total-yn_David-leia-el-libro.wav,,,,,,,,,,,,,,,,,,,,,,,,,,,,,,,,,,,,,,,,,,,,,,,,,,,,,,,,
,,,,,,,5d5af833f35ed70001e17a5c,6057c54e64b0b4e5c128b4f9,6059f718af56886e6ae0a51f,Mexico,East coast,13 or older,no,2021-03-23_10h12.18.436,empathy_intonation_perc,2020.2.10,Win32,60,,,,,,,,,,1,castilian,1,1,0.10941,0,60,60,22,1,23,./stim/wavs/andalusian_match_interrogative-partial-wh_Por-que-hablaba-del-agua.wav,./stim/wavs/argentine_match_interrogative-partial-wh_Por-que-hablaba-del-agua.wav,./stim/wavs/castilian_match_interrogative-partial-wh_Por-que-hablaba-del-agua.wav,./stim/wavs/chilean_match_interrogative-partial-wh_Por-que-hablaba-del-agua.wav,./stim/wavs/cuban_match_interrogative-partial-wh_Por-que-hablaba-del-agua.wav,./stim/wavs/mexican_match_interrogative-partial-wh_Por-que-hablaba-del-agua.wav,./stim/wavs/peruvian_match_interrogative-partial-wh_Por-que-hablaba-del-agua.wav,./stim/wavs/puertorican_match_interrogative-partial-wh_Por-que-hablaba-del-agua.wav,,,,,,,,,,,,,,,,,,,,,,,,,,,,,,,,,,,,,,,,,,,,,,,,,,,,,,,,
,,,,,,,5d5af833f35ed70001e17a5c,6057c54e64b0b4e5c128b4f9,6059f718af56886e6ae0a51f,Mexico,East coast,13 or older,no,2021-03-23_10h12.18.436,empathy_intonation_perc,2020.2.10,Win32,60,,,,,,,,,,1,andalusian,1,1,0.064005,0,61,61,63,1,64,./stim/wavs/andalusian_mismatch_interrogative-total-yn_Mi-tia-odia-la-lluvia.wav,./stim/wavs/argentine_mismatch_interrogative-total-yn_Mi-tia-odia-la-lluvia.wav,./stim/wavs/castilian_mismatch_interrogative-total-yn_Mi-tia-odia-la-lluvia.wav,./stim/wavs/chilean_mismatch_interrogative-total-yn_Mi-tia-odia-la-lluvia.wav,./stim/wavs/cuban_mismatch_interrogative-total-yn_Mi-tia-odia-la-lluvia.wav,./stim/wavs/mexican_mismatch_interrogative-total-yn_Mi-tia-odia-la-lluvia.wav,./stim/wavs/peruvian_mismatch_interrogative-total-yn_Mi-tia-odia-la-lluvia.wav,./stim/wavs/puertorican_mismatch_interrogative-total-yn_Mi-tia-odia-la-lluvia.wav,,,,,,,,,,,,,,,,,,,,,,,,,,,,,,,,,,,,,,,,,,,,,,,,,,,,,,,,
,,,,,,,5d5af833f35ed70001e17a5c,6057c54e64b0b4e5c128b4f9,6059f718af56886e6ae0a51f,Mexico,East coast,13 or older,no,2021-03-23_10h12.18.436,empathy_intonation_perc,2020.2.10,Win32,60,,,,,,,,,,1,cuban,1,1,0.071805,0,62,62,59,1,60,./stim/wavs/andalusian_mismatch_interrogative-total-yn_La-maestra-vive-en-Paris.wav,./stim/wavs/argentine_mismatch_interrogative-total-yn_La-maestra-vive-en-Paris.wav,./stim/wavs/castilian_mismatch_interrogative-total-yn_La-maestra-vive-en-Paris.wav,./stim/wavs/chilean_mismatch_interrogative-total-yn_La-maestra-vive-en-Paris.wav,./stim/wavs/cuban_mismatch_interrogative-total-yn_La-maestra-vive-en-Paris.wav,./stim/wavs/mexican_mismatch_interrogative-total-yn_La-maestra-vive-en-Paris.wav,./stim/wavs/peruvian_mismatch_interrogative-total-yn_La-maestra-vive-en-Paris.wav,./stim/wavs/puertorican_mismatch_interrogative-total-yn_La-maestra-vive-en-Paris.wav,,,,,,,,,,,,,,,,,,,,,,,,,,,,,,,,,,,,,,,,,,,,,,,,,,,,,,,,
,,,,,,,5d5af833f35ed70001e17a5c,6057c54e64b0b4e5c128b4f9,6059f718af56886e6ae0a51f,Mexico,East coast,13 or older,no,2021-03-23_10h12.18.436,empathy_intonation_perc,2020.2.10,Win32,60,,,,,,,,,,0,chilean,1,0,0.053385,0,63,63,8,1,9,./stim/wavs/andalusian_match_declarative-narrow-focus_Ana-lleva-el-abrigo.wav,./stim/wavs/argentine_match_declarative-narrow-focus_Ana-lleva-el-abrigo.wav,./stim/wavs/castilian_match_declarative-narrow-focus_Ana-lleva-el-abrigo.wav,./stim/wavs/chilean_match_declarative-narrow-focus_Ana-lleva-el-abrigo.wav,./stim/wavs/cuban_match_declarative-narrow-focus_Ana-lleva-el-abrigo.wav,./stim/wavs/mexican_match_declarative-narrow-focus_Ana-lleva-el-abrigo.wav,./stim/wavs/peruvian_match_declarative-narrow-focus_Ana-lleva-el-abrigo.wav,./stim/wavs/puertorican_match_declarative-narrow-focus_Ana-lleva-el-abrigo.wav,,,,,,,,,,,,,,,,,,,,,,,,,,,,,,,,,,,,,,,,,,,,,,,,,,,,,,,,
,,,,,,,5d5af833f35ed70001e17a5c,6057c54e64b0b4e5c128b4f9,6059f718af56886e6ae0a51f,Mexico,East coast,13 or older,no,2021-03-23_10h12.18.436,empathy_intonation_perc,2020.2.10,Win32,60,,,,,,,,,,,,,,,,,,,,,,,,,,,,,1,0,0.195585,0,0,0,0,1,,,,,,,,,,,,,,,,,,,,,,,,,,,,,,,,,,,,,,,,,,,,,,,,
,,,,,"Great! Now we will move on. The next task consists of about 60 trials, in each of which you will see a string of letters. 
  
  Your task is to decide whether this is a real Spanish word or not.",(press the spacebar to continue),5d5af833f35ed70001e17a5c,6057c54e64b0b4e5c128b4f9,6059f718af56886e6ae0a51f,Mexico,East coast,13 or older,no,2021-03-23_10h12.18.436,empathy_intonation_perc,2020.2.10,Win32,60,,,,,,,,,,,,,,,,,,,,,,,,,,,,,,,,,,,,,0,0,0,0,1,,,,,,,,,,,,,,,,,,,,,,,,,,,,,,,,,,,,,,,,,,,
,,,,,"If you think it is an existing Spanish word, you type '1' (for 'REAL'), and if you think it is not an existing Spanish word, you type '0' (for 'FAKE').",(press the spacebar to continue),5d5af833f35ed70001e17a5c,6057c54e64b0b4e5c128b4f9,6059f718af56886e6ae0a51f,Mexico,East coast,13 or older,no,2021-03-23_10h12.18.436,empathy_intonation_perc,2020.2.10,Win32,60,,,,,,,,,,,,,,,,,,,,,,,,,,,,,,,,,,,,,0,1,1,1,1,,,,,,,,,,,,,,,,,,,,,,,,,,,,,,,,,,,,,,,,,,,
,,,,,"If you are sure that the word exists, even though you dont know its exact meaning, you may still respond '1' (REAL). 
  
  But if you are not sure if it is an existing word, you should respond '0' (FAKE).
  
  Let's do a practice round...",(press the spacebar to continue),5d5af833f35ed70001e17a5c,6057c54e64b0b4e5c128b4f9,6059f718af56886e6ae0a51f,Mexico,East coast,13 or older,no,2021-03-23_10h12.18.436,empathy_intonation_perc,2020.2.10,Win32,60,,,,,,,,,,,,,,,,,,,,,,,,,,,,,,,,,,,,,0,2,2,2,1,,,,,,,,,,,,,,,,,,,,,,,,,,,,,,,,,,,,,,,,,,,
,,,,,,,5d5af833f35ed70001e17a5c,6057c54e64b0b4e5c128b4f9,6059f718af56886e6ae0a51f,Mexico,East coast,13 or older,no,2021-03-23_10h12.18.436,empathy_intonation_perc,2020.2.10,Win32,60,,,,,,,,,,0,,,,,,,,,,,,,,,,,,,,,,,,,,,,,,,,0,1,2.137575,0,0,0,0,1,0,depiste,REAL,FAKE,,,,,,,,,,,,,,,,,,,,,,,,,,,,,,,
,,,,,,,5d5af833f35ed70001e17a5c,6057c54e64b0b4e5c128b4f9,6059f718af56886e6ae0a51f,Mexico,East coast,13 or older,no,2021-03-23_10h12.18.436,empathy_intonation_perc,2020.2.10,Win32,60,,,,,,,,,,1,,,,,,,,,,,,,,,,,,,,,,,,,,,,,,,,1,1,0.79743,0,1,1,1,1,0,s,REAL,FAKE,,,,,,,,,,,,,,,,,,,,,,,,,,,,,,,
,,,,,,,5d5af833f35ed70001e17a5c,6057c54e64b0b4e5c128b4f9,6059f718af56886e6ae0a51f,Mexico,East coast,13 or older,no,2021-03-23_10h12.18.436,empathy_intonation_perc,2020.2.10,Win32,60,,,,,,,,,,0,,,,,,,,,,,,,,,,,,,,,,,,,,,,,,,,1,0,1.04753,0,2,2,2,1,0,con,REAL,FAKE,,,,,,,,,,,,,,,,,,,,,,,,,,,,,,,
,,,,,,,5d5af833f35ed70001e17a5c,6057c54e64b0b4e5c128b4f9,6059f718af56886e6ae0a51f,Mexico,East coast,13 or older,no,2021-03-23_10h12.18.436,empathy_intonation_perc,2020.2.10,Win32,60,,,,,,,,,,0,,,,,,,,,,,,,,,,,,,,,,,,,,,,,,,,1,0,1.30029,0,3,3,3,1,0,calpar,REAL,FAKE,,,,,,,,,,,,,,,,,,,,,,,,,,,,,,,
,,,,,,,5d5af833f35ed70001e17a5c,6057c54e64b0b4e5c128b4f9,6059f718af56886e6ae0a51f,Mexico,East coast,13 or older,no,2021-03-23_10h12.18.436,empathy_intonation_perc,2020.2.10,Win32,60,,,,,,,,,,0,,,,,,,,,,,,,,,,,,,,,,,,,,,,,,,,0,1,1.273985,0,4,4,4,1,0,joten,REAL,FAKE,,,,,,,,,,,,,,,,,,,,,,,,,,,,,,,
,,,,,,,5d5af833f35ed70001e17a5c,6057c54e64b0b4e5c128b4f9,6059f718af56886e6ae0a51f,Mexico,East coast,13 or older,no,2021-03-23_10h12.18.436,empathy_intonation_perc,2020.2.10,Win32,60,,,,,,,,,,1,,,,,,,,,,,,,,,,,,,,,,,,,,,,,,,,1,1,0.827415,0,5,5,5,1,0,sacapuntas,REAL,FAKE,,,,,,,,,,,,,,,,,,,,,,,,,,,,,,,
,,,,,,,5d5af833f35ed70001e17a5c,6057c54e64b0b4e5c128b4f9,6059f718af56886e6ae0a51f,Mexico,East coast,13 or older,no,2021-03-23_10h12.18.436,empathy_intonation_perc,2020.2.10,Win32,60,,,,,,,,,,0,,,,,,,,,,,,,,,,,,,,,,,,,,,,,,,,0,1,0.954185,0,6,6,6,1,0,priba,REAL,FAKE,,,,,,,,,,,,,,,,,,,,,,,,,,,,,,,
,,,,,,,5d5af833f35ed70001e17a5c,6057c54e64b0b4e5c128b4f9,6059f718af56886e6ae0a51f,Mexico,East coast,13 or older,no,2021-03-23_10h12.18.436,empathy_intonation_perc,2020.2.10,Win32,60,,,,,,,,,,0,,,,,,,,,,,,,,,,,,,,,,,,,,,,,,,,0,1,1.003315,0,7,7,7,1,0,pelasula,REAL,FAKE,,,,,,,,,,,,,,,,,,,,,,,,,,,,,,,
,,,,,,,5d5af833f35ed70001e17a5c,6057c54e64b0b4e5c128b4f9,6059f718af56886e6ae0a51f,Mexico,East coast,13 or older,no,2021-03-23_10h12.18.436,empathy_intonation_perc,2020.2.10,Win32,60,,,,,,,,,,1,,,,,,,,,,,,,,,,,,,,,,,,,,,,,,,,1,1,0.6182,0,8,8,8,1,0,bien,REAL,FAKE,,,,,,,,,,,,,,,,,,,,,,,,,,,,,,,
,,,,,,,5d5af833f35ed70001e17a5c,6057c54e64b0b4e5c128b4f9,6059f718af56886e6ae0a51f,Mexico,East coast,13 or older,no,2021-03-23_10h12.18.436,empathy_intonation_perc,2020.2.10,Win32,60,,,,,,,,,,1,,,,,,,,,,,,,,,,,,,,,,,,,,,,,,,,1,1,0.624455,0,9,9,9,1,0,casa,REAL,FAKE,,,,,,,,,,,,,,,,,,,,,,,,,,,,,,,
,,,,,,,5d5af833f35ed70001e17a5c,6057c54e64b0b4e5c128b4f9,6059f718af56886e6ae0a51f,Mexico,East coast,13 or older,no,2021-03-23_10h12.18.436,empathy_intonation_perc,2020.2.10,Win32,60,,,,,,,,,,0,,,,,,,,,,,,,,,,,,,,,,,,,,,,,,,,1,0,0.95951,0,10,10,10,1,0,lejo,REAL,FAKE,,,,,,,,,,,,,,,,,,,,,,,,,,,,,,,
,,,,,,,5d5af833f35ed70001e17a5c,6057c54e64b0b4e5c128b4f9,6059f718af56886e6ae0a51f,Mexico,East coast,13 or older,no,2021-03-23_10h12.18.436,empathy_intonation_perc,2020.2.10,Win32,60,,,,,,,,,,0,,,,,,,,,,,,,,,,,,,,,,,,,,,,,,,,1,0,1.20379,0,11,11,11,1,0,pretantas,REAL,FAKE,,,,,,,,,,,,,,,,,,,,,,,,,,,,,,,
,,,,,,,5d5af833f35ed70001e17a5c,6057c54e64b0b4e5c128b4f9,6059f718af56886e6ae0a51f,Mexico,East coast,13 or older,no,2021-03-23_10h12.18.436,empathy_intonation_perc,2020.2.10,Win32,60,,,,,,,,,,1,,,,,,,,,,,,,,,,,,,,,,,,,,,,,,,,,,,,,,,,81,pozo,,,1,1,1.165955,0,0,0,80,1,REAL,FAKE,,,,,,,,,,,,,,,,,,,,,
,,,,,,,5d5af833f35ed70001e17a5c,6057c54e64b0b4e5c128b4f9,6059f718af56886e6ae0a51f,Mexico,East coast,13 or older,no,2021-03-23_10h12.18.436,empathy_intonation_perc,2020.2.10,Win32,60,,,,,,,,,,1,,,,,,,,,,,,,,,,,,,,,,,,,,,,,,,,,,,,,,,,7,psimo,,,1,1,0.691085,0,1,1,6,1,REAL,FAKE,,,,,,,,,,,,,,,,,,,,,
,,,,,,,5d5af833f35ed70001e17a5c,6057c54e64b0b4e5c128b4f9,6059f718af56886e6ae0a51f,Mexico,East coast,13 or older,no,2021-03-23_10h12.18.436,empathy_intonation_perc,2020.2.10,Win32,60,,,,,,,,,,1,,,,,,,,,,,,,,,,,,,,,,,,,,,,,,,,,,,,,,,,9,hacha,,,0,0,1.10222,0,2,2,8,1,REAL,FAKE,,,,,,,,,,,,,,,,,,,,,
,,,,,,,5d5af833f35ed70001e17a5c,6057c54e64b0b4e5c128b4f9,6059f718af56886e6ae0a51f,Mexico,East coast,13 or older,no,2021-03-23_10h12.18.436,empathy_intonation_perc,2020.2.10,Win32,60,,,,,,,,,,1,,,,,,,,,,,,,,,,,,,,,,,,,,,,,,,,,,,,,,,,2,pellizcar,,,0,0,1.02184,0,3,3,1,1,REAL,FAKE,,,,,,,,,,,,,,,,,,,,,
,,,,,,,5d5af833f35ed70001e17a5c,6057c54e64b0b4e5c128b4f9,6059f718af56886e6ae0a51f,Mexico,East coast,13 or older,no,2021-03-23_10h12.18.436,empathy_intonation_perc,2020.2.10,Win32,60,,,,,,,,,,1,,,,,,,,,,,,,,,,,,,,,,,,,,,,,,,,,,,,,,,,44,cuchara,,,1,1,0.955585,0,4,4,43,1,REAL,FAKE,,,,,,,,,,,,,,,,,,,,,
,,,,,,,5d5af833f35ed70001e17a5c,6057c54e64b0b4e5c128b4f9,6059f718af56886e6ae0a51f,Mexico,East coast,13 or older,no,2021-03-23_10h12.18.436,empathy_intonation_perc,2020.2.10,Win32,60,,,,,,,,,,0,,,,,,,,,,,,,,,,,,,,,,,,,,,,,,,,,,,,,,,,58,plaudir,,,1,0,0.641155,0,5,5,57,1,REAL,FAKE,,,,,,,,,,,,,,,,,,,,,
,,,,,,,5d5af833f35ed70001e17a5c,6057c54e64b0b4e5c128b4f9,6059f718af56886e6ae0a51f,Mexico,East coast,13 or older,no,2021-03-23_10h12.18.436,empathy_intonation_perc,2020.2.10,Win32,60,,,,,,,,,,1,,,,,,,,,,,,,,,,,,,,,,,,,,,,,,,,,,,,,,,,62,flaco,,,0,0,1.08078,0,6,6,61,1,REAL,FAKE,,,,,,,,,,,,,,,,,,,,,
,,,,,,,5d5af833f35ed70001e17a5c,6057c54e64b0b4e5c128b4f9,6059f718af56886e6ae0a51f,Mexico,East coast,13 or older,no,2021-03-23_10h12.18.436,empathy_intonation_perc,2020.2.10,Win32,60,,,,,,,,,,1,,,,,,,,,,,,,,,,,,,,,,,,,,,,,,,,,,,,,,,,34,aviso,,,0,0,0.858535,0,7,7,33,1,REAL,FAKE,,,,,,,,,,,,,,,,,,,,,
,,,,,,,5d5af833f35ed70001e17a5c,6057c54e64b0b4e5c128b4f9,6059f718af56886e6ae0a51f,Mexico,East coast,13 or older,no,2021-03-23_10h12.18.436,empathy_intonation_perc,2020.2.10,Win32,60,,,,,,,,,,1,,,,,,,,,,,,,,,,,,,,,,,,,,,,,,,,,,,,,,,,11,cenefa,,,1,1,0.844365,0,8,8,10,1,REAL,FAKE,,,,,,,,,,,,,,,,,,,,,
,,,,,,,5d5af833f35ed70001e17a5c,6057c54e64b0b4e5c128b4f9,6059f718af56886e6ae0a51f,Mexico,East coast,13 or older,no,2021-03-23_10h12.18.436,empathy_intonation_perc,2020.2.10,Win32,60,,,,,,,,,,1,,,,,,,,,,,,,,,,,,,,,,,,,,,,,,,,,,,,,,,,83,guante,,,0,0,0.865195,0,9,9,82,1,REAL,FAKE,,,,,,,,,,,,,,,,,,,,,
,,,,,,,5d5af833f35ed70001e17a5c,6057c54e64b0b4e5c128b4f9,6059f718af56886e6ae0a51f,Mexico,East coast,13 or older,no,2021-03-23_10h12.18.436,empathy_intonation_perc,2020.2.10,Win32,60,,,,,,,,,,1,,,,,,,,,,,,,,,,,,,,,,,,,,,,,,,,,,,,,,,,31,pandilla,,,0,0,0.860155,0,10,10,30,1,REAL,FAKE,,,,,,,,,,,,,,,,,,,,,
,,,,,,,5d5af833f35ed70001e17a5c,6057c54e64b0b4e5c128b4f9,6059f718af56886e6ae0a51f,Mexico,East coast,13 or older,no,2021-03-23_10h12.18.436,empathy_intonation_perc,2020.2.10,Win32,60,,,,,,,,,,1,,,,,,,,,,,,,,,,,,,,,,,,,,,,,,,,,,,,,,,,49,ganar,,,1,1,0.93543,0,11,11,48,1,REAL,FAKE,,,,,,,,,,,,,,,,,,,,,
,,,,,,,5d5af833f35ed70001e17a5c,6057c54e64b0b4e5c128b4f9,6059f718af56886e6ae0a51f,Mexico,East coast,13 or older,no,2021-03-23_10h12.18.436,empathy_intonation_perc,2020.2.10,Win32,60,,,,,,,,,,1,,,,,,,,,,,,,,,,,,,,,,,,,,,,,,,,,,,,,,,,38,estornudar,,,1,1,0.704395,0,12,12,37,1,REAL,FAKE,,,,,,,,,,,,,,,,,,,,,
,,,,,,,5d5af833f35ed70001e17a5c,6057c54e64b0b4e5c128b4f9,6059f718af56886e6ae0a51f,Mexico,East coast,13 or older,no,2021-03-23_10h12.18.436,empathy_intonation_perc,2020.2.10,Win32,60,,,,,,,,,,0,,,,,,,,,,,,,,,,,,,,,,,,,,,,,,,,,,,,,,,,63,esposante,,,1,0,0.844325,0,13,13,62,1,REAL,FAKE,,,,,,,,,,,,,,,,,,,,,
,,,,,,,5d5af833f35ed70001e17a5c,6057c54e64b0b4e5c128b4f9,6059f718af56886e6ae0a51f,Mexico,East coast,13 or older,no,2021-03-23_10h12.18.436,empathy_intonation_perc,2020.2.10,Win32,60,,,,,,,,,,1,,,,,,,,,,,,,,,,,,,,,,,,,,,,,,,,,,,,,,,,52,camisa,,,1,1,0.720585,0,14,14,51,1,REAL,FAKE,,,,,,,,,,,,,,,,,,,,,
,,,,,,,5d5af833f35ed70001e17a5c,6057c54e64b0b4e5c128b4f9,6059f718af56886e6ae0a51f,Mexico,East coast,13 or older,no,2021-03-23_10h12.18.436,empathy_intonation_perc,2020.2.10,Win32,60,,,,,,,,,,0,,,,,,,,,,,,,,,,,,,,,,,,,,,,,,,,,,,,,,,,33,pauca,,,0,1,0.88799,0,15,15,32,1,REAL,FAKE,,,,,,,,,,,,,,,,,,,,,
,,,,,,,5d5af833f35ed70001e17a5c,6057c54e64b0b4e5c128b4f9,6059f718af56886e6ae0a51f,Mexico,East coast,13 or older,no,2021-03-23_10h12.18.436,empathy_intonation_perc,2020.2.10,Win32,60,,,,,,,,,,1,,,,,,,,,,,,,,,,,,,,,,,,,,,,,,,,,,,,,,,,6,tergiversar,,,0,0,0.85731,0,16,16,5,1,REAL,FAKE,,,,,,,,,,,,,,,,,,,,,
,,,,,,,5d5af833f35ed70001e17a5c,6057c54e64b0b4e5c128b4f9,6059f718af56886e6ae0a51f,Mexico,East coast,13 or older,no,2021-03-23_10h12.18.436,empathy_intonation_perc,2020.2.10,Win32,60,,,,,,,,,,1,,,,,,,,,,,,,,,,,,,,,,,,,,,,,,,,,,,,,,,,22,lacayo,,,0,0,0.980695,0,17,17,21,1,REAL,FAKE,,,,,,,,,,,,,,,,,,,,,
,,,,,,,5d5af833f35ed70001e17a5c,6057c54e64b0b4e5c128b4f9,6059f718af56886e6ae0a51f,Mexico,East coast,13 or older,no,2021-03-23_10h12.18.436,empathy_intonation_perc,2020.2.10,Win32,60,,,,,,,,,,1,,,,,,,,,,,,,,,,,,,,,,,,,,,,,,,,,,,,,,,,86,barato,,,0,0,0.812995,0,18,18,85,1,REAL,FAKE,,,,,,,,,,,,,,,,,,,,,
,,,,,,,5d5af833f35ed70001e17a5c,6057c54e64b0b4e5c128b4f9,6059f718af56886e6ae0a51f,Mexico,East coast,13 or older,no,2021-03-23_10h12.18.436,empathy_intonation_perc,2020.2.10,Win32,60,,,,,,,,,,1,,,,,,,,,,,,,,,,,,,,,,,,,,,,,,,,,,,,,,,,39,torpe,,,0,0,0.685885,0,19,19,38,1,REAL,FAKE,,,,,,,,,,,,,,,,,,,,,
,,,,,,,5d5af833f35ed70001e17a5c,6057c54e64b0b4e5c128b4f9,6059f718af56886e6ae0a51f,Mexico,East coast,13 or older,no,2021-03-23_10h12.18.436,empathy_intonation_perc,2020.2.10,Win32,60,,,,,,,,,,1,,,,,,,,,,,,,,,,,,,,,,,,,,,,,,,,,,,,,,,,76,atar,,,1,1,0.99826,0,20,20,75,1,REAL,FAKE,,,,,,,,,,,,,,,,,,,,,
,,,,,,,5d5af833f35ed70001e17a5c,6057c54e64b0b4e5c128b4f9,6059f718af56886e6ae0a51f,Mexico,East coast,13 or older,no,2021-03-23_10h12.18.436,empathy_intonation_perc,2020.2.10,Win32,60,,,,,,,,,,1,,,,,,,,,,,,,,,,,,,,,,,,,,,,,,,,,,,,,,,,85,lad,,,1,1,0.55484,0,21,21,84,1,REAL,FAKE,,,,,,,,,,,,,,,,,,,,,
,,,,,,,5d5af833f35ed70001e17a5c,6057c54e64b0b4e5c128b4f9,6059f718af56886e6ae0a51f,Mexico,East coast,13 or older,no,2021-03-23_10h12.18.436,empathy_intonation_perc,2020.2.10,Win32,60,,,,,,,,,,0,,,,,,,,,,,,,,,,,,,,,,,,,,,,,,,,,,,,,,,,70,temblo,,,0,1,0.83581,0,22,22,69,1,REAL,FAKE,,,,,,,,,,,,,,,,,,,,,
,,,,,,,5d5af833f35ed70001e17a5c,6057c54e64b0b4e5c128b4f9,6059f718af56886e6ae0a51f,Mexico,East coast,13 or older,no,2021-03-23_10h12.18.436,empathy_intonation_perc,2020.2.10,Win32,60,,,,,,,,,,1,,,,,,,,,,,,,,,,,,,,,,,,,,,,,,,,,,,,,,,,88,acantilado,,,0,0,0.82436,0,23,23,87,1,REAL,FAKE,,,,,,,,,,,,,,,,,,,,,
,,,,,,,5d5af833f35ed70001e17a5c,6057c54e64b0b4e5c128b4f9,6059f718af56886e6ae0a51f,Mexico,East coast,13 or older,no,2021-03-23_10h12.18.436,empathy_intonation_perc,2020.2.10,Win32,60,,,,,,,,,,1,,,,,,,,,,,,,,,,,,,,,,,,,,,,,,,,,,,,,,,,80,hormiga,,,0,0,0.709645,0,24,24,79,1,REAL,FAKE,,,,,,,,,,,,,,,,,,,,,
,,,,,,,5d5af833f35ed70001e17a5c,6057c54e64b0b4e5c128b4f9,6059f718af56886e6ae0a51f,Mexico,East coast,13 or older,no,2021-03-23_10h12.18.436,empathy_intonation_perc,2020.2.10,Win32,60,,,,,,,,,,1,,,,,,,,,,,,,,,,,,,,,,,,,,,,,,,,,,,,,,,,75,yacer,,,0,0,0.689095,0,25,25,74,1,REAL,FAKE,,,,,,,,,,,,,,,,,,,,,
,,,,,,,5d5af833f35ed70001e17a5c,6057c54e64b0b4e5c128b4f9,6059f718af56886e6ae0a51f,Mexico,East coast,13 or older,no,2021-03-23_10h12.18.436,empathy_intonation_perc,2020.2.10,Win32,60,,,,,,,,,,1,,,,,,,,,,,,,,,,,,,,,,,,,,,,,,,,,,,,,,,,45,jilguero,,,0,0,0.823045,0,26,26,44,1,REAL,FAKE,,,,,,,,,,,,,,,,,,,,,
,,,,,,,5d5af833f35ed70001e17a5c,6057c54e64b0b4e5c128b4f9,6059f718af56886e6ae0a51f,Mexico,East coast,13 or older,no,2021-03-23_10h12.18.436,empathy_intonation_perc,2020.2.10,Win32,60,,,,,,,,,,1,,,,,,,,,,,,,,,,,,,,,,,,,,,,,,,,,,,,,,,,56,musgo,,,0,0,0.638025,0,27,27,55,1,REAL,FAKE,,,,,,,,,,,,,,,,,,,,,
,,,,,,,5d5af833f35ed70001e17a5c,6057c54e64b0b4e5c128b4f9,6059f718af56886e6ae0a51f,Mexico,East coast,13 or older,no,2021-03-23_10h12.18.436,empathy_intonation_perc,2020.2.10,Win32,60,,,,,,,,,,0,,,,,,,,,,,,,,,,,,,,,,,,,,,,,,,,,,,,,,,,29,decar,,,1,0,0.64433,0,28,28,28,1,REAL,FAKE,,,,,,,,,,,,,,,,,,,,,
,,,,,,,5d5af833f35ed70001e17a5c,6057c54e64b0b4e5c128b4f9,6059f718af56886e6ae0a51f,Mexico,East coast,13 or older,no,2021-03-23_10h12.18.436,empathy_intonation_perc,2020.2.10,Win32,60,,,,,,,,,,1,,,,,,,,,,,,,,,,,,,,,,,,,,,,,,,,,,,,,,,,77,tiburn,,,0,0,0.763105,0,29,29,76,1,REAL,FAKE,,,,,,,,,,,,,,,,,,,,,
,,,,,,,5d5af833f35ed70001e17a5c,6057c54e64b0b4e5c128b4f9,6059f718af56886e6ae0a51f,Mexico,East coast,13 or older,no,2021-03-23_10h12.18.436,empathy_intonation_perc,2020.2.10,Win32,60,,,,,,,,,,1,,,,,,,,,,,,,,,,,,,,,,,,,,,,,,,,,,,,,,,,73,hervidor,,,0,0,0.720735,0,30,30,72,1,REAL,FAKE,,,,,,,,,,,,,,,,,,,,,
,,,,,,,5d5af833f35ed70001e17a5c,6057c54e64b0b4e5c128b4f9,6059f718af56886e6ae0a51f,Mexico,East coast,13 or older,no,2021-03-23_10h12.18.436,empathy_intonation_perc,2020.2.10,Win32,60,,,,,,,,,,1,,,,,,,,,,,,,,,,,,,,,,,,,,,,,,,,,,,,,,,,3,pulmones,,,0,0,0.61803,0,31,31,2,1,REAL,FAKE,,,,,,,,,,,,,,,,,,,,,
,,,,,,,5d5af833f35ed70001e17a5c,6057c54e64b0b4e5c128b4f9,6059f718af56886e6ae0a51f,Mexico,East coast,13 or older,no,2021-03-23_10h12.18.436,empathy_intonation_perc,2020.2.10,Win32,60,,,,,,,,,,1,,,,,,,,,,,,,,,,,,,,,,,,,,,,,,,,,,,,,,,,67,cabello,,,1,1,1.04403,0,32,32,66,1,REAL,FAKE,,,,,,,,,,,,,,,,,,,,,
,,,,,,,5d5af833f35ed70001e17a5c,6057c54e64b0b4e5c128b4f9,6059f718af56886e6ae0a51f,Mexico,East coast,13 or older,no,2021-03-23_10h12.18.436,empathy_intonation_perc,2020.2.10,Win32,60,,,,,,,,,,1,,,,,,,,,,,,,,,,,,,,,,,,,,,,,,,,,,,,,,,,41,rebuscar,,,0,0,0.5782,0,33,33,40,1,REAL,FAKE,,,,,,,,,,,,,,,,,,,,,
,,,,,,,5d5af833f35ed70001e17a5c,6057c54e64b0b4e5c128b4f9,6059f718af56886e6ae0a51f,Mexico,East coast,13 or older,no,2021-03-23_10h12.18.436,empathy_intonation_perc,2020.2.10,Win32,60,,,,,,,,,,0,,,,,,,,,,,,,,,,,,,,,,,,,,,,,,,,,,,,,,,,66,hacido,,,1,0,0.59744,0,34,34,65,1,REAL,FAKE,,,,,,,,,,,,,,,,,,,,,
,,,,,,,5d5af833f35ed70001e17a5c,6057c54e64b0b4e5c128b4f9,6059f718af56886e6ae0a51f,Mexico,East coast,13 or older,no,2021-03-23_10h12.18.436,empathy_intonation_perc,2020.2.10,Win32,60,,,,,,,,,,1,,,,,,,,,,,,,,,,,,,,,,,,,,,,,,,,,,,,,,,,51,candado,,,0,0,0.816245,0,35,35,50,1,REAL,FAKE,,,,,,,,,,,,,,,,,,,,,
,,,,,,,5d5af833f35ed70001e17a5c,6057c54e64b0b4e5c128b4f9,6059f718af56886e6ae0a51f,Mexico,East coast,13 or older,no,2021-03-23_10h12.18.436,empathy_intonation_perc,2020.2.10,Win32,60,,,,,,,,,,1,,,,,,,,,,,,,,,,,,,,,,,,,,,,,,,,,,,,,,,,24,ltigo,,,0,0,0.70092,0,36,36,23,1,REAL,FAKE,,,,,,,,,,,,,,,,,,,,,
,,,,,,,5d5af833f35ed70001e17a5c,6057c54e64b0b4e5c128b4f9,6059f718af56886e6ae0a51f,Mexico,East coast,13 or older,no,2021-03-23_10h12.18.436,empathy_intonation_perc,2020.2.10,Win32,60,,,,,,,,,,1,,,,,,,,,,,,,,,,,,,,,,,,,,,,,,,,,,,,,,,,40,alfombra,,,0,0,0.785325,0,37,37,39,1,REAL,FAKE,,,,,,,,,,,,,,,,,,,,,
,,,,,,,5d5af833f35ed70001e17a5c,6057c54e64b0b4e5c128b4f9,6059f718af56886e6ae0a51f,Mexico,East coast,13 or older,no,2021-03-23_10h12.18.436,empathy_intonation_perc,2020.2.10,Win32,60,,,,,,,,,,0,,,,,,,,,,,,,,,,,,,,,,,,,,,,,,,,,,,,,,,,72,pemicin,,,0,1,0.741635,0,38,38,71,1,REAL,FAKE,,,,,,,,,,,,,,,,,,,,,
,,,,,,,5d5af833f35ed70001e17a5c,6057c54e64b0b4e5c128b4f9,6059f718af56886e6ae0a51f,Mexico,East coast,13 or older,no,2021-03-23_10h12.18.436,empathy_intonation_perc,2020.2.10,Win32,60,,,,,,,,,,0,,,,,,,,,,,,,,,,,,,,,,,,,,,,,,,,,,,,,,,,74,cintro,,,1,0,0.64594,0,39,39,73,1,REAL,FAKE,,,,,,,,,,,,,,,,,,,,,
,,,,,,,5d5af833f35ed70001e17a5c,6057c54e64b0b4e5c128b4f9,6059f718af56886e6ae0a51f,Mexico,East coast,13 or older,no,2021-03-23_10h12.18.436,empathy_intonation_perc,2020.2.10,Win32,60,,,,,,,,,,1,,,,,,,,,,,,,,,,,,,,,,,,,,,,,,,,,,,,,,,,60,matar,,,0,0,0.64227,0,40,40,59,1,REAL,FAKE,,,,,,,,,,,,,,,,,,,,,
,,,,,,,5d5af833f35ed70001e17a5c,6057c54e64b0b4e5c128b4f9,6059f718af56886e6ae0a51f,Mexico,East coast,13 or older,no,2021-03-23_10h12.18.436,empathy_intonation_perc,2020.2.10,Win32,60,,,,,,,,,,1,,,,,,,,,,,,,,,,,,,,,,,,,,,,,,,,,,,,,,,,54,fomentar,,,0,0,0.730335,0,41,41,53,1,REAL,FAKE,,,,,,,,,,,,,,,,,,,,,
,,,,,,,5d5af833f35ed70001e17a5c,6057c54e64b0b4e5c128b4f9,6059f718af56886e6ae0a51f,Mexico,East coast,13 or older,no,2021-03-23_10h12.18.436,empathy_intonation_perc,2020.2.10,Win32,60,,,,,,,,,,1,,,,,,,,,,,,,,,,,,,,,,,,,,,,,,,,,,,,,,,,57,tacao,,,0,0,0.79581,0,42,42,56,1,REAL,FAKE,,,,,,,,,,,,,,,,,,,,,
,,,,,,,5d5af833f35ed70001e17a5c,6057c54e64b0b4e5c128b4f9,6059f718af56886e6ae0a51f,Mexico,East coast,13 or older,no,2021-03-23_10h12.18.436,empathy_intonation_perc,2020.2.10,Win32,60,,,,,,,,,,0,,,,,,,,,,,,,,,,,,,,,,,,,,,,,,,,,,,,,,,,35,rompido,,,0,1,0.649745,0,43,43,34,1,REAL,FAKE,,,,,,,,,,,,,,,,,,,,,
,,,,,,,5d5af833f35ed70001e17a5c,6057c54e64b0b4e5c128b4f9,6059f718af56886e6ae0a51f,Mexico,East coast,13 or older,no,2021-03-23_10h12.18.436,empathy_intonation_perc,2020.2.10,Win32,60,,,,,,,,,,0,,,,,,,,,,,,,,,,,,,,,,,,,,,,,,,,,,,,,,,,18,arsa,,,0,1,0.648365,0,44,44,17,1,REAL,FAKE,,,,,,,,,,,,,,,,,,,,,
,,,,,,,5d5af833f35ed70001e17a5c,6057c54e64b0b4e5c128b4f9,6059f718af56886e6ae0a51f,Mexico,East coast,13 or older,no,2021-03-23_10h12.18.436,empathy_intonation_perc,2020.2.10,Win32,60,,,,,,,,,,0,,,,,,,,,,,,,,,,,,,,,,,,,,,,,,,,,,,,,,,,8,cadea,,,0,1,0.738665,0,45,45,7,1,REAL,FAKE,,,,,,,,,,,,,,,,,,,,,
,,,,,,,5d5af833f35ed70001e17a5c,6057c54e64b0b4e5c128b4f9,6059f718af56886e6ae0a51f,Mexico,East coast,13 or older,no,2021-03-23_10h12.18.436,empathy_intonation_perc,2020.2.10,Win32,60,,,,,,,,,,0,,,,,,,,,,,,,,,,,,,,,,,,,,,,,,,,,,,,,,,,1,terzo,,,0,1,0.54938,0,46,46,0,1,REAL,FAKE,,,,,,,,,,,,,,,,,,,,,
,,,,,,,5d5af833f35ed70001e17a5c,6057c54e64b0b4e5c128b4f9,6059f718af56886e6ae0a51f,Mexico,East coast,13 or older,no,2021-03-23_10h12.18.436,empathy_intonation_perc,2020.2.10,Win32,60,,,,,,,,,,1,,,,,,,,,,,,,,,,,,,,,,,,,,,,,,,,,,,,,,,,25,bisagra,,,0,0,0.38235,0,47,47,24,1,REAL,FAKE,,,,,,,,,,,,,,,,,,,,,
,,,,,,,5d5af833f35ed70001e17a5c,6057c54e64b0b4e5c128b4f9,6059f718af56886e6ae0a51f,Mexico,East coast,13 or older,no,2021-03-23_10h12.18.436,empathy_intonation_perc,2020.2.10,Win32,60,,,,,,,,,,1,,,,,,,,,,,,,,,,,,,,,,,,,,,,,,,,,,,,,,,,48,ladrn,,,0,0,0.30972,0,48,48,47,1,REAL,FAKE,,,,,,,,,,,,,,,,,,,,,
,,,,,,,5d5af833f35ed70001e17a5c,6057c54e64b0b4e5c128b4f9,6059f718af56886e6ae0a51f,Mexico,East coast,13 or older,no,2021-03-23_10h12.18.436,empathy_intonation_perc,2020.2.10,Win32,60,,,,,,,,,,0,,,,,,,,,,,,,,,,,,,,,,,,,,,,,,,,,,,,,,,,79,tropaje,,,1,0,0.36254,0,49,49,78,1,REAL,FAKE,,,,,,,,,,,,,,,,,,,,,
,,,,,,,5d5af833f35ed70001e17a5c,6057c54e64b0b4e5c128b4f9,6059f718af56886e6ae0a51f,Mexico,East coast,13 or older,no,2021-03-23_10h12.18.436,empathy_intonation_perc,2020.2.10,Win32,60,,,,,,,,,,1,,,,,,,,,,,,,,,,,,,,,,,,,,,,,,,,,,,,,,,,12,asesinato,,,0,0,0.162315,0,50,50,11,1,REAL,FAKE,,,,,,,,,,,,,,,,,,,,,
,,,,,,,5d5af833f35ed70001e17a5c,6057c54e64b0b4e5c128b4f9,6059f718af56886e6ae0a51f,Mexico,East coast,13 or older,no,2021-03-23_10h12.18.436,empathy_intonation_perc,2020.2.10,Win32,60,,,,,,,,,,0,,,,,,,,,,,,,,,,,,,,,,,,,,,,,,,,,,,,,,,,42,cadallo,,,1,0,0.503075,0,51,51,41,1,REAL,FAKE,,,,,,,,,,,,,,,,,,,,,
,,,,,,,5d5af833f35ed70001e17a5c,6057c54e64b0b4e5c128b4f9,6059f718af56886e6ae0a51f,Mexico,East coast,13 or older,no,2021-03-23_10h12.18.436,empathy_intonation_perc,2020.2.10,Win32,60,,,,,,,,,,1,,,,,,,,,,,,,,,,,,,,,,,,,,,,,,,,,,,,,,,,43,canela,,,0,0,0.051595,0,52,52,42,1,REAL,FAKE,,,,,,,,,,,,,,,,,,,,,
,,,,,,,5d5af833f35ed70001e17a5c,6057c54e64b0b4e5c128b4f9,6059f718af56886e6ae0a51f,Mexico,East coast,13 or older,no,2021-03-23_10h12.18.436,empathy_intonation_perc,2020.2.10,Win32,60,,,,,,,,,,1,,,,,,,,,,,,,,,,,,,,,,,,,,,,,,,,,,,,,,,,36,loro,,,1,1,0.312555,0,53,53,35,1,REAL,FAKE,,,,,,,,,,,,,,,,,,,,,
,,,,,,,5d5af833f35ed70001e17a5c,6057c54e64b0b4e5c128b4f9,6059f718af56886e6ae0a51f,Mexico,East coast,13 or older,no,2021-03-23_10h12.18.436,empathy_intonation_perc,2020.2.10,Win32,60,,,,,,,,,,1,,,,,,,,,,,,,,,,,,,,,,,,,,,,,,,,,,,,,,,,59,besar,,,0,0,0.197665,0,54,54,58,1,REAL,FAKE,,,,,,,,,,,,,,,,,,,,,
,,,,,,,5d5af833f35ed70001e17a5c,6057c54e64b0b4e5c128b4f9,6059f718af56886e6ae0a51f,Mexico,East coast,13 or older,no,2021-03-23_10h12.18.436,empathy_intonation_perc,2020.2.10,Win32,60,,,,,,,,,,1,,,,,,,,,,,,,,,,,,,,,,,,,,,,,,,,,,,,,,,,78,frondoso,,,1,1,1.00927,0,55,55,77,1,REAL,FAKE,,,,,,,,,,,,,,,,,,,,,
,,,,,,,5d5af833f35ed70001e17a5c,6057c54e64b0b4e5c128b4f9,6059f718af56886e6ae0a51f,Mexico,East coast,13 or older,no,2021-03-23_10h12.18.436,empathy_intonation_perc,2020.2.10,Win32,60,,,,,,,,,,0,,,,,,,,,,,,,,,,,,,,,,,,,,,,,,,,,,,,,,,,84,escuto,,,0,1,0.52732,0,56,56,83,1,REAL,FAKE,,,,,,,,,,,,,,,,,,,,,
,,,,,,,5d5af833f35ed70001e17a5c,6057c54e64b0b4e5c128b4f9,6059f718af56886e6ae0a51f,Mexico,East coast,13 or older,no,2021-03-23_10h12.18.436,empathy_intonation_perc,2020.2.10,Win32,60,,,,,,,,,,1,,,,,,,,,,,,,,,,,,,,,,,,,,,,,,,,,,,,,,,,26,secuestro,,,0,0,0.35081,0,57,57,25,1,REAL,FAKE,,,,,,,,,,,,,,,,,,,,,
,,,,,,,5d5af833f35ed70001e17a5c,6057c54e64b0b4e5c128b4f9,6059f718af56886e6ae0a51f,Mexico,East coast,13 or older,no,2021-03-23_10h12.18.436,empathy_intonation_perc,2020.2.10,Win32,60,,,,,,,,,,1,,,,,,,,,,,,,,,,,,,,,,,,,,,,,,,,,,,,,,,,55,nevar,,,0,0,0.766705,0,58,58,54,1,REAL,FAKE,,,,,,,,,,,,,,,,,,,,,
,,,,,,,5d5af833f35ed70001e17a5c,6057c54e64b0b4e5c128b4f9,6059f718af56886e6ae0a51f,Mexico,East coast,13 or older,no,2021-03-23_10h12.18.436,empathy_intonation_perc,2020.2.10,Win32,60,,,,,,,,,,1,,,,,,,,,,,,,,,,,,,,,,,,,,,,,,,,,,,,,,,,15,regar,,,0,0,0.435905,0,59,59,14,1,REAL,FAKE,,,,,,,,,,,,,,,,,,,,,
,,,,,,,5d5af833f35ed70001e17a5c,6057c54e64b0b4e5c128b4f9,6059f718af56886e6ae0a51f,Mexico,East coast,13 or older,no,2021-03-23_10h12.18.436,empathy_intonation_perc,2020.2.10,Win32,60,,,,,,,,,,1,,,,,,,,,,,,,,,,,,,,,,,,,,,,,,,,,,,,,,,,46,martillo,,,0,0,0.557945,0,60,60,45,1,REAL,FAKE,,,,,,,,,,,,,,,,,,,,,
,,,,,,,5d5af833f35ed70001e17a5c,6057c54e64b0b4e5c128b4f9,6059f718af56886e6ae0a51f,Mexico,East coast,13 or older,no,2021-03-23_10h12.18.436,empathy_intonation_perc,2020.2.10,Win32,60,,,,,,,,,,1,,,,,,,,,,,,,,,,,,,,,,,,,,,,,,,,,,,,,,,,14,yunque,,,0,0,0.566635,0,61,61,13,1,REAL,FAKE,,,,,,,,,,,,,,,,,,,,,
,,,,,,,5d5af833f35ed70001e17a5c,6057c54e64b0b4e5c128b4f9,6059f718af56886e6ae0a51f,Mexico,East coast,13 or older,no,2021-03-23_10h12.18.436,empathy_intonation_perc,2020.2.10,Win32,60,,,,,,,,,,1,,,,,,,,,,,,,,,,,,,,,,,,,,,,,,,,,,,,,,,,28,merodear,,,0,0,0.871905,0,62,62,27,1,REAL,FAKE,,,,,,,,,,,,,,,,,,,,,
,,,,,,,5d5af833f35ed70001e17a5c,6057c54e64b0b4e5c128b4f9,6059f718af56886e6ae0a51f,Mexico,East coast,13 or older,no,2021-03-23_10h12.18.436,empathy_intonation_perc,2020.2.10,Win32,60,,,,,,,,,,0,,,,,,,,,,,,,,,,,,,,,,,,,,,,,,,,,,,,,,,,32,fatacidad,,,0,1,0.551,0,63,63,31,1,REAL,FAKE,,,,,,,,,,,,,,,,,,,,,
,,,,,,,5d5af833f35ed70001e17a5c,6057c54e64b0b4e5c128b4f9,6059f718af56886e6ae0a51f,Mexico,East coast,13 or older,no,2021-03-23_10h12.18.436,empathy_intonation_perc,2020.2.10,Win32,60,,,,,,,,,,0,,,,,,,,,,,,,,,,,,,,,,,,,,,,,,,,,,,,,,,,19,brecedad,,,0,1,0.537025,0,64,64,18,1,REAL,FAKE,,,,,,,,,,,,,,,,,,,,,
,,,,,,,5d5af833f35ed70001e17a5c,6057c54e64b0b4e5c128b4f9,6059f718af56886e6ae0a51f,Mexico,East coast,13 or older,no,2021-03-23_10h12.18.436,empathy_intonation_perc,2020.2.10,Win32,60,,,,,,,,,,1,,,,,,,,,,,,,,,,,,,,,,,,,,,,,,,,,,,,,,,,71,polvoriento,,,0,0,0.483155,0,65,65,70,1,REAL,FAKE,,,,,,,,,,,,,,,,,,,,,
,,,,,,,5d5af833f35ed70001e17a5c,6057c54e64b0b4e5c128b4f9,6059f718af56886e6ae0a51f,Mexico,East coast,13 or older,no,2021-03-23_10h12.18.436,empathy_intonation_perc,2020.2.10,Win32,60,,,,,,,,,,0,,,,,,,,,,,,,,,,,,,,,,,,,,,,,,,,,,,,,,,,23,lampera,,,1,0,0.7359,0,66,66,22,1,REAL,FAKE,,,,,,,,,,,,,,,,,,,,,
,,,,,,,5d5af833f35ed70001e17a5c,6057c54e64b0b4e5c128b4f9,6059f718af56886e6ae0a51f,Mexico,East coast,13 or older,no,2021-03-23_10h12.18.436,empathy_intonation_perc,2020.2.10,Win32,60,,,,,,,,,,1,,,,,,,,,,,,,,,,,,,,,,,,,,,,,,,,,,,,,,,,65,bizcocho,,,1,1,0.77144,0,67,67,64,1,REAL,FAKE,,,,,,,,,,,,,,,,,,,,,
,,,,,,,5d5af833f35ed70001e17a5c,6057c54e64b0b4e5c128b4f9,6059f718af56886e6ae0a51f,Mexico,East coast,13 or older,no,2021-03-23_10h12.18.436,empathy_intonation_perc,2020.2.10,Win32,60,,,,,,,,,,1,,,,,,,,,,,,,,,,,,,,,,,,,,,,,,,,,,,,,,,,20,vido,,,1,1,0.530315,0,68,68,19,1,REAL,FAKE,,,,,,,,,,,,,,,,,,,,,
,,,,,,,5d5af833f35ed70001e17a5c,6057c54e64b0b4e5c128b4f9,6059f718af56886e6ae0a51f,Mexico,East coast,13 or older,no,2021-03-23_10h12.18.436,empathy_intonation_perc,2020.2.10,Win32,60,,,,,,,,,,0,,,,,,,,,,,,,,,,,,,,,,,,,,,,,,,,,,,,,,,,47,cartinar,,,0,1,0.622185,0,69,69,46,1,REAL,FAKE,,,,,,,,,,,,,,,,,,,,,
,,,,,,,5d5af833f35ed70001e17a5c,6057c54e64b0b4e5c128b4f9,6059f718af56886e6ae0a51f,Mexico,East coast,13 or older,no,2021-03-23_10h12.18.436,empathy_intonation_perc,2020.2.10,Win32,60,,,,,,,,,,0,,,,,,,,,,,,,,,,,,,,,,,,,,,,,,,,,,,,,,,,27,acutacin,,,1,0,0.746565,0,70,70,26,1,REAL,FAKE,,,,,,,,,,,,,,,,,,,,,
,,,,,,,5d5af833f35ed70001e17a5c,6057c54e64b0b4e5c128b4f9,6059f718af56886e6ae0a51f,Mexico,East coast,13 or older,no,2021-03-23_10h12.18.436,empathy_intonation_perc,2020.2.10,Win32,60,,,,,,,,,,0,,,,,,,,,,,,,,,,,,,,,,,,,,,,,,,,,,,,,,,,16,abracer,,,1,0,0.92832,0,71,71,15,1,REAL,FAKE,,,,,,,,,,,,,,,,,,,,,
,,,,,,,5d5af833f35ed70001e17a5c,6057c54e64b0b4e5c128b4f9,6059f718af56886e6ae0a51f,Mexico,East coast,13 or older,no,2021-03-23_10h12.18.436,empathy_intonation_perc,2020.2.10,Win32,60,,,,,,,,,,0,,,,,,,,,,,,,,,,,,,,,,,,,,,,,,,,,,,,,,,,87,grodo,,,0,1,0.536935,0,72,72,86,1,REAL,FAKE,,,,,,,,,,,,,,,,,,,,,
,,,,,,,5d5af833f35ed70001e17a5c,6057c54e64b0b4e5c128b4f9,6059f718af56886e6ae0a51f,Mexico,East coast,13 or older,no,2021-03-23_10h12.18.436,empathy_intonation_perc,2020.2.10,Win32,60,,,,,,,,,,1,,,,,,,,,,,,,,,,,,,,,,,,,,,,,,,,,,,,,,,,64,orgulloso,,,0,0,0.57538,0,73,73,63,1,REAL,FAKE,,,,,,,,,,,,,,,,,,,,,
,,,,,,,5d5af833f35ed70001e17a5c,6057c54e64b0b4e5c128b4f9,6059f718af56886e6ae0a51f,Mexico,East coast,13 or older,no,2021-03-23_10h12.18.436,empathy_intonation_perc,2020.2.10,Win32,60,,,,,,,,,,0,,,,,,,,,,,,,,,,,,,,,,,,,,,,,,,,,,,,,,,,21,capillo,,,1,0,0.91959,0,74,74,20,1,REAL,FAKE,,,,,,,,,,,,,,,,,,,,,
,,,,,,,5d5af833f35ed70001e17a5c,6057c54e64b0b4e5c128b4f9,6059f718af56886e6ae0a51f,Mexico,East coast,13 or older,no,2021-03-23_10h12.18.436,empathy_intonation_perc,2020.2.10,Win32,60,,,,,,,,,,0,,,,,,,,,,,,,,,,,,,,,,,,,,,,,,,,,,,,,,,,82,empirador,,,0,1,0.53419,0,75,75,81,1,REAL,FAKE,,,,,,,,,,,,,,,,,,,,,
,,,,,,,5d5af833f35ed70001e17a5c,6057c54e64b0b4e5c128b4f9,6059f718af56886e6ae0a51f,Mexico,East coast,13 or older,no,2021-03-23_10h12.18.436,empathy_intonation_perc,2020.2.10,Win32,60,,,,,,,,,,1,,,,,,,,,,,,,,,,,,,,,,,,,,,,,,,,,,,,,,,,13,helar,,,1,1,0.66846,0,76,76,12,1,REAL,FAKE,,,,,,,,,,,,,,,,,,,,,
,,,,,,,5d5af833f35ed70001e17a5c,6057c54e64b0b4e5c128b4f9,6059f718af56886e6ae0a51f,Mexico,East coast,13 or older,no,2021-03-23_10h12.18.436,empathy_intonation_perc,2020.2.10,Win32,60,,,,,,,,,,1,,,,,,,,,,,,,,,,,,,,,,,,,,,,,,,,,,,,,,,,89,prisa,,,0,0,0.57014,0,77,77,88,1,REAL,FAKE,,,,,,,,,,,,,,,,,,,,,
,,,,,,,5d5af833f35ed70001e17a5c,6057c54e64b0b4e5c128b4f9,6059f718af56886e6ae0a51f,Mexico,East coast,13 or older,no,2021-03-23_10h12.18.436,empathy_intonation_perc,2020.2.10,Win32,60,,,,,,,,,,1,,,,,,,,,,,,,,,,,,,,,,,,,,,,,,,,,,,,,,,,68,alegre,,,0,0,0.884335,0,78,78,67,1,REAL,FAKE,,,,,,,,,,,,,,,,,,,,,
,,,,,,,5d5af833f35ed70001e17a5c,6057c54e64b0b4e5c128b4f9,6059f718af56886e6ae0a51f,Mexico,East coast,13 or older,no,2021-03-23_10h12.18.436,empathy_intonation_perc,2020.2.10,Win32,60,,,,,,,,,,0,,,,,,,,,,,,,,,,,,,,,,,,,,,,,,,,,,,,,,,,30,alardio,,,0,1,0.61223,0,79,79,29,1,REAL,FAKE,,,,,,,,,,,,,,,,,,,,,
,,,,,,,5d5af833f35ed70001e17a5c,6057c54e64b0b4e5c128b4f9,6059f718af56886e6ae0a51f,Mexico,East coast,13 or older,no,2021-03-23_10h12.18.436,empathy_intonation_perc,2020.2.10,Win32,60,,,,,,,,,,1,,,,,,,,,,,,,,,,,,,,,,,,,,,,,,,,,,,,,,,,61,seda,,,0,0,0.6797,0,80,80,60,1,REAL,FAKE,,,,,,,,,,,,,,,,,,,,,
,,,,,,,5d5af833f35ed70001e17a5c,6057c54e64b0b4e5c128b4f9,6059f718af56886e6ae0a51f,Mexico,East coast,13 or older,no,2021-03-23_10h12.18.436,empathy_intonation_perc,2020.2.10,Win32,60,,,,,,,,,,1,,,,,,,,,,,,,,,,,,,,,,,,,,,,,,,,,,,,,,,,5,zapato,,,1,1,0.667315,0,81,81,4,1,REAL,FAKE,,,,,,,,,,,,,,,,,,,,,
,,,,,,,5d5af833f35ed70001e17a5c,6057c54e64b0b4e5c128b4f9,6059f718af56886e6ae0a51f,Mexico,East coast,13 or older,no,2021-03-23_10h12.18.436,empathy_intonation_perc,2020.2.10,Win32,60,,,,,,,,,,0,,,,,,,,,,,,,,,,,,,,,,,,,,,,,,,,,,,,,,,,50,flamida,,,0,1,0.88789,0,82,82,49,1,REAL,FAKE,,,,,,,,,,,,,,,,,,,,,
,,,,,,,5d5af833f35ed70001e17a5c,6057c54e64b0b4e5c128b4f9,6059f718af56886e6ae0a51f,Mexico,East coast,13 or older,no,2021-03-23_10h12.18.436,empathy_intonation_perc,2020.2.10,Win32,60,,,,,,,,,,1,,,,,,,,,,,,,,,,,,,,,,,,,,,,,,,,,,,,,,,,69,engatusar,,,0,0,0.67217,0,83,83,68,1,REAL,FAKE,,,,,,,,,,,,,,,,,,,,,
,,,,,,,5d5af833f35ed70001e17a5c,6057c54e64b0b4e5c128b4f9,6059f718af56886e6ae0a51f,Mexico,East coast,13 or older,no,2021-03-23_10h12.18.436,empathy_intonation_perc,2020.2.10,Win32,60,,,,,,,,,,0,,,,,,,,,,,,,,,,,,,,,,,,,,,,,,,,,,,,,,,,10,antar,,,0,1,0.617335,0,84,84,9,1,REAL,FAKE,,,,,,,,,,,,,,,,,,,,,
,,,,,,,5d5af833f35ed70001e17a5c,6057c54e64b0b4e5c128b4f9,6059f718af56886e6ae0a51f,Mexico,East coast,13 or older,no,2021-03-23_10h12.18.436,empathy_intonation_perc,2020.2.10,Win32,60,,,,,,,,,,0,,,,,,,,,,,,,,,,,,,,,,,,,,,,,,,,,,,,,,,,53,vegada,,,1,0,0.92642,0,85,85,52,1,REAL,FAKE,,,,,,,,,,,,,,,,,,,,,
,,,,,,,5d5af833f35ed70001e17a5c,6057c54e64b0b4e5c128b4f9,6059f718af56886e6ae0a51f,Mexico,East coast,13 or older,no,2021-03-23_10h12.18.436,empathy_intonation_perc,2020.2.10,Win32,60,,,,,,,,,,1,,,,,,,,,,,,,,,,,,,,,,,,,,,,,,,,,,,,,,,,90,clavel,,,0,0,0.73444,0,86,86,89,1,REAL,FAKE,,,,,,,,,,,,,,,,,,,,,
,,,,,,,5d5af833f35ed70001e17a5c,6057c54e64b0b4e5c128b4f9,6059f718af56886e6ae0a51f,Mexico,East coast,13 or older,no,2021-03-23_10h12.18.436,empathy_intonation_perc,2020.2.10,Win32,60,,,,,,,,,,1,,,,,,,,,,,,,,,,,,,,,,,,,,,,,,,,,,,,,,,,37,granuja,,,0,0,0.778245,0,87,87,36,1,REAL,FAKE,,,,,,,,,,,,,,,,,,,,,
,,,,,,,5d5af833f35ed70001e17a5c,6057c54e64b0b4e5c128b4f9,6059f718af56886e6ae0a51f,Mexico,East coast,13 or older,no,2021-03-23_10h12.18.436,empathy_intonation_perc,2020.2.10,Win32,60,,,,,,,,,,0,,,,,,,,,,,,,,,,,,,,,,,,,,,,,,,,,,,,,,,,17,floroso,,,1,0,0.920765,0,88,88,16,1,REAL,FAKE,,,,,,,,,,,,,,,,,,,,,
,,,,,,,5d5af833f35ed70001e17a5c,6057c54e64b0b4e5c128b4f9,6059f718af56886e6ae0a51f,Mexico,East coast,13 or older,no,2021-03-23_10h12.18.436,empathy_intonation_perc,2020.2.10,Win32,60,,,,,,,,,,0,,,,,,,,,,,,,,,,,,,,,,,,,,,,,,,,,,,,,,,,4,batilln,,,0,1,0.695665,0,89,89,3,1,REAL,FAKE,,,,,,,,,,,,,,,,,,,,,
,,,,,,,5d5af833f35ed70001e17a5c,6057c54e64b0b4e5c128b4f9,6059f718af56886e6ae0a51f,Mexico,East coast,13 or older,no,2021-03-23_10h12.18.436,empathy_intonation_perc,2020.2.10,Win32,60,,,,,,,,,,,,,,,,,,,,,,,,,,,,,,,,,,,,,,,,,,,,,,,,,,,,,,,,,,,,,,,,4,1,2.73848,1,1,0,0,0,0,1,,,,,,,,,,,
,,,,,,,5d5af833f35ed70001e17a5c,6057c54e64b0b4e5c128b4f9,6059f718af56886e6ae0a51f,Mexico,East coast,13 or older,no,2021-03-23_10h12.18.436,empathy_intonation_perc,2020.2.10,Win32,60,,,,,,,,,,,,,,,,,,,,1,,,,,,,,,,,,,,,,,,,,,,,,,,,,,,,,,,,,,,,,,,,,,,,,,,,,,,2,0,0,0,0,1,I can easily tell if someone else wants to enter a conversation.,1,0,1,0
,,,,,,,5d5af833f35ed70001e17a5c,6057c54e64b0b4e5c128b4f9,6059f718af56886e6ae0a51f,Mexico,East coast,13 or older,no,2021-03-23_10h12.18.436,empathy_intonation_perc,2020.2.10,Win32,60,,,,,,,,,,,,,,,,,,,,2,,,,,,,,,,,,,,,,,,,,,,,,,,,,,,,,,,,,,,,,,,,,,,,,,,,,,,2,0,1,1,1,1,I prefer animals to humans.,0,1,0,0
,,,,,,,5d5af833f35ed70001e17a5c,6057c54e64b0b4e5c128b4f9,6059f718af56886e6ae0a51f,Mexico,East coast,13 or older,no,2021-03-23_10h12.18.436,empathy_intonation_perc,2020.2.10,Win32,60,,,,,,,,,,,,,,,,,,,,3,,,,,,,,,,,,,,,,,,,,,,,,,,,,,,,,,,,,,,,,,,,,,,,,,,,,,,2,0,2,2,2,1,I try to keep up with the current trends and fashions.,0,1,0,0
,,,,,,,5d5af833f35ed70001e17a5c,6057c54e64b0b4e5c128b4f9,6059f718af56886e6ae0a51f,Mexico,East coast,13 or older,no,2021-03-23_10h12.18.436,empathy_intonation_perc,2020.2.10,Win32,60,,,,,,,,,,,,,,,,,,,,4,,,,,,,,,,,,,,,,,,,,,,,,,,,,,,,,,,,,,,,,,,,,,,,,,,,,,,1,0,3,3,3,1,"I find it difficult to explain to others things that I understand easily, 
  when they dont understand it first time.",1,0,0,1
,,,,,,,5d5af833f35ed70001e17a5c,6057c54e64b0b4e5c128b4f9,6059f718af56886e6ae0a51f,Mexico,East coast,13 or older,no,2021-03-23_10h12.18.436,empathy_intonation_perc,2020.2.10,Win32,60,,,,,,,,,,,,,,,,,,,,5,,,,,,,,,,,,,,,,,,,,,,,,,,,,,,,,,,,,,,,,,,,,,,,,,,,,,,1,0,4,4,4,1,I dream most nights.,0,1,0,0
,,,,,,,5d5af833f35ed70001e17a5c,6057c54e64b0b4e5c128b4f9,6059f718af56886e6ae0a51f,Mexico,East coast,13 or older,no,2021-03-23_10h12.18.436,empathy_intonation_perc,2020.2.10,Win32,60,,,,,,,,,,,,,,,,,,,,6,,,,,,,,,,,,,,,,,,,,,,,,,,,,,,,,,,,,,,,,,,,,,,,,,,,,,,1,0,5,5,5,1,I really enjoy caring for other people.,1,0,1,0
,,,,,,,5d5af833f35ed70001e17a5c,6057c54e64b0b4e5c128b4f9,6059f718af56886e6ae0a51f,Mexico,East coast,13 or older,no,2021-03-23_10h12.18.436,empathy_intonation_perc,2020.2.10,Win32,60,,,,,,,,,,,,,,,,,,,,7,,,,,,,,,,,,,,,,,,,,,,,,,,,,,,,,,,,,,,,,,,,,,,,,,,,,,,1,0,6,6,6,1,I try to solve my own problems rather than discussing them with others.,0,1,0,0
