instructions_2afc_loop.thisRepN,instructions_2afc_loop.thisTrialN,instructions_2afc_loop.thisN,instructions_2afc_loop.thisIndex,instructions_2afc_loop.ran,instructions_text,continue_text,participant,study_id,session,I am most familiar with Spanish from...*,What part of the US are you from?*,At what age did you begin learning Spanish?*,Are you proficient in any languages other than English/Spanish?*,date,expName,psychopyVersion,OS,frameRate,key_resp_2afc_practice.keys,key_resp_2afc_practice.corr,key_resp_2afc_practice.rt,trials_2afc_practice_loop.thisRepN,trials_2afc_practice_loop.thisTrialN,trials_2afc_practice_loop.thisN,trials_2afc_practice_loop.thisIndex,trials_2afc_practice_loop.ran,path,correct_response,the_col,key_resp_2afc_trial.keys,key_resp_2afc_trial.corr,key_resp_2afc_trial.rt,trials_2afc_loop.thisRepN,trials_2afc_loop.thisTrialN,trials_2afc_loop.thisN,trials_2afc_loop.thisIndex,trials_2afc_loop.ran,item_num,andalusian,argentine,castilian,chilean,cuban,mexican,peruvian,puertorican,key_resp_ac1.keys,key_resp_ac1.corr,key_resp_ac1.rt,ac1_loop.thisRepN,ac1_loop.thisTrialN,ac1_loop.thisN,ac1_loop.thisIndex,ac1_loop.ran,instructions_lextale_loop.thisRepN,instructions_lextale_loop.thisTrialN,instructions_lextale_loop.thisN,instructions_lextale_loop.thisIndex,instructions_lextale_loop.ran,key_resp_lextale_practice.keys,key_resp_lextale_practice.corr,key_resp_lextale_practice.rt,trials_lextale_practice_loop.thisRepN,trials_lextale_practice_loop.thisTrialN,trials_lextale_practice_loop.thisN,trials_lextale_practice_loop.thisIndex,trials_lextale_practice_loop.ran,stim,word,prac_button_real,prac_button_false,key_resp_lextale_trial.keys,key_resp_lextale_trial.corr,key_resp_lextale_trial.rt,trials_lextale_loop.thisRepN,trials_lextale_loop.thisTrialN,trials_lextale_loop.thisN,trials_lextale_loop.thisIndex,trials_lextale_loop.ran,button_real,button_false,key_resp_ac2.keys,key_resp_ac2.corr,key_resp_ac2.rt,check_pass,check_fails,ac2_loop.thisRepN,ac2_loop.thisTrialN,ac2_loop.thisN,ac2_loop.thisIndex,ac2_loop.ran,slider_eq_trial.response,trials_eq_loop.thisRepN,trials_eq_loop.thisTrialN,trials_eq_loop.thisN,trials_eq_loop.thisIndex,trials_eq_loop.ran,item,is_test_item,is_distractor,is_agree_score,is_disagree_score
0,0,0,0,1,"In the following task you are going to hear a series of utterances. 

  You will decide if the utterances sound like questions or not using your keyboard.",(press the spacebar to continue),5d61798f7ad20f001b74922e,6057c54e64b0b4e5c128b4f9,605939bf15a49abad460e96d,Spain,Northeast,13 or older,no,2021-03-22_20h45.03.606,empathy_intonation_perc,2020.2.10,Win32,60,,,,,,,,,,,,,,,,,,,,,,,,,,,,,,,,,,,,,,,,,,,,,,,,,,,,,,,,,,,,,,,,,,,,,,,,,,,,,,,,,,,,
0,1,1,1,1,"If you believe the utterance is a question, type '1' (for 'yes') and if you do not 
  believe it is a question type '0' (for 'no').

  Let's practice a bit...",(press the spacebar to continue),5d61798f7ad20f001b74922e,6057c54e64b0b4e5c128b4f9,605939bf15a49abad460e96d,Spain,Northeast,13 or older,no,2021-03-22_20h45.03.606,empathy_intonation_perc,2020.2.10,Win32,60,,,,,,,,,,,,,,,,,,,,,,,,,,,,,,,,,,,,,,,,,,,,,,,,,,,,,,,,,,,,,,,,,,,,,,,,,,,,,,,,,,,,
,,,,,,,5d61798f7ad20f001b74922e,6057c54e64b0b4e5c128b4f9,605939bf15a49abad460e96d,Spain,Northeast,13 or older,no,2021-03-22_20h45.03.606,empathy_intonation_perc,2020.2.10,Win32,60,0,0,17.05983,0,0,0,3,1,./stim/wavs/mexican_question_filler_Felipe-no-tiene-contrasena.wav,1,,,,,,,,,,,,,,,,,,,,,,,,,,,,,,,,,,,,,,,,,,,,,,,,,,,,,,,,,,,,,,,,,,,,,,,,,,
,,,,,,,5d61798f7ad20f001b74922e,6057c54e64b0b4e5c128b4f9,605939bf15a49abad460e96d,Spain,Northeast,13 or older,no,2021-03-22_20h45.03.606,empathy_intonation_perc,2020.2.10,Win32,60,1,1,7.37876,0,1,1,0,1,./stim/wavs/castilian_question_filler_Mi-esposo-conoce-al-chico.wav,1,,,,,,,,,,,,,,,,,,,,,,,,,,,,,,,,,,,,,,,,,,,,,,,,,,,,,,,,,,,,,,,,,,,,,,,,,,
,,,,,,,5d61798f7ad20f001b74922e,6057c54e64b0b4e5c128b4f9,605939bf15a49abad460e96d,Spain,Northeast,13 or older,no,2021-03-22_20h45.03.606,empathy_intonation_perc,2020.2.10,Win32,60,0,1,2.91393,0,2,2,7,1,./stim/wavs/puertorican_statement_filler_La-nina-pinta-con-su-amiga.wav,0,,,,,,,,,,,,,,,,,,,,,,,,,,,,,,,,,,,,,,,,,,,,,,,,,,,,,,,,,,,,,,,,,,,,,,,,,,
,,,,,,,5d61798f7ad20f001b74922e,6057c54e64b0b4e5c128b4f9,605939bf15a49abad460e96d,Spain,Northeast,13 or older,no,2021-03-22_20h45.03.606,empathy_intonation_perc,2020.2.10,Win32,60,0,0,2.849795,0,3,3,2,1,./stim/wavs/chilean_question_filler_Mi-padre-cantaba-bien.wav,1,,,,,,,,,,,,,,,,,,,,,,,,,,,,,,,,,,,,,,,,,,,,,,,,,,,,,,,,,,,,,,,,,,,,,,,,,,
,,,,,,,5d61798f7ad20f001b74922e,6057c54e64b0b4e5c128b4f9,605939bf15a49abad460e96d,Spain,Northeast,13 or older,no,2021-03-22_20h45.03.606,empathy_intonation_perc,2020.2.10,Win32,60,0,1,2.4974,0,4,4,6,1,./stim/wavs/peruvian_statement_filler_El-nino-habla-con-su-madre.wav,0,,,,,,,,,,,,,,,,,,,,,,,,,,,,,,,,,,,,,,,,,,,,,,,,,,,,,,,,,,,,,,,,,,,,,,,,,,
,,,,,,,5d61798f7ad20f001b74922e,6057c54e64b0b4e5c128b4f9,605939bf15a49abad460e96d,Spain,Northeast,13 or older,no,2021-03-22_20h45.03.606,empathy_intonation_perc,2020.2.10,Win32,60,1,1,1.63212,0,5,5,1,1,./stim/wavs/argentine_question_filler_Mi-vecino-habla-mucho.wav,1,,,,,,,,,,,,,,,,,,,,,,,,,,,,,,,,,,,,,,,,,,,,,,,,,,,,,,,,,,,,,,,,,,,,,,,,,,
,,,,,,,5d61798f7ad20f001b74922e,6057c54e64b0b4e5c128b4f9,605939bf15a49abad460e96d,Spain,Northeast,13 or older,no,2021-03-22_20h45.03.606,empathy_intonation_perc,2020.2.10,Win32,60,0,1,2.316825,0,6,6,4,1,./stim/wavs/cuban_statement_filler_Cocinabas-por-la-noche.wav,0,,,,,,,,,,,,,,,,,,,,,,,,,,,,,,,,,,,,,,,,,,,,,,,,,,,,,,,,,,,,,,,,,,,,,,,,,,
,,,,,,,5d61798f7ad20f001b74922e,6057c54e64b0b4e5c128b4f9,605939bf15a49abad460e96d,Spain,Northeast,13 or older,no,2021-03-22_20h45.03.606,empathy_intonation_perc,2020.2.10,Win32,60,0,1,1.855355,0,7,7,5,1,./stim/wavs/andalusian_statement_filler_Alberto-nunca-se-afeita.wav,0,,,,,,,,,,,,,,,,,,,,,,,,,,,,,,,,,,,,,,,,,,,,,,,,,,,,,,,,,,,,,,,,,,,,,,,,,,
,,,,,,,5d61798f7ad20f001b74922e,6057c54e64b0b4e5c128b4f9,605939bf15a49abad460e96d,Spain,Northeast,13 or older,no,2021-03-22_20h45.03.606,empathy_intonation_perc,2020.2.10,Win32,60,,,,,,,,,,1,andalusian,1,1,1.95048,0,0,0,18,1,19,./stim/wavs/andalusian_match_interrogative-partial-wh_Cuando-lleva-el-abrigo.wav,./stim/wavs/argentine_match_interrogative-partial-wh_Cuando-lleva-el-abrigo.wav,./stim/wavs/castilian_match_interrogative-partial-wh_Cuando-lleva-el-abrigo.wav,./stim/wavs/chilean_match_interrogative-partial-wh_Cuando-lleva-el-abrigo.wav,./stim/wavs/cuban_match_interrogative-partial-wh_Cuando-lleva-el-abrigo.wav,./stim/wavs/mexican_match_interrogative-partial-wh_Cuando-lleva-el-abrigo.wav,./stim/wavs/peruvian_match_interrogative-partial-wh_Cuando-lleva-el-abrigo.wav,./stim/wavs/puertorican_match_interrogative-partial-wh_Cuando-lleva-el-abrigo.wav,,,,,,,,,,,,,,,,,,,,,,,,,,,,,,,,,,,,,,,,,,,,,,,,,,,,,,,,
,,,,,,,5d61798f7ad20f001b74922e,6057c54e64b0b4e5c128b4f9,605939bf15a49abad460e96d,Spain,Northeast,13 or older,no,2021-03-22_20h45.03.606,empathy_intonation_perc,2020.2.10,Win32,60,,,,,,,,,,0,andalusian,0,1,2.067125,0,1,1,11,1,12,./stim/wavs/andalusian_match_declarative-narrow-focus_Emilio-ama-la-marcha.wav,./stim/wavs/argentine_match_declarative-narrow-focus_Emilio-ama-la-marcha.wav,./stim/wavs/castilian_match_declarative-narrow-focus_Emilio-ama-la-marcha.wav,./stim/wavs/chilean_match_declarative-narrow-focus_Emilio-ama-la-marcha.wav,./stim/wavs/cuban_match_declarative-narrow-focus_Emilio-ama-la-marcha.wav,./stim/wavs/mexican_match_declarative-narrow-focus_Emilio-ama-la-marcha.wav,./stim/wavs/peruvian_match_declarative-narrow-focus_Emilio-ama-la-marcha.wav,./stim/wavs/puertorican_match_declarative-narrow-focus_Emilio-ama-la-marcha.wav,,,,,,,,,,,,,,,,,,,,,,,,,,,,,,,,,,,,,,,,,,,,,,,,,,,,,,,,
,,,,,,,5d61798f7ad20f001b74922e,6057c54e64b0b4e5c128b4f9,605939bf15a49abad460e96d,Spain,Northeast,13 or older,no,2021-03-22_20h45.03.606,empathy_intonation_perc,2020.2.10,Win32,60,,,,,,,,,,1,mexican,0,0,2.1439,0,2,2,17,1,18,./stim/wavs/andalusian_match_interrogative-partial-wh_Cuando-leia-el-libro.wav,./stim/wavs/argentine_match_interrogative-partial-wh_Cuando-leia-el-libro.wav,./stim/wavs/castilian_match_interrogative-partial-wh_Cuando-leia-el-libro.wav,./stim/wavs/chilean_match_interrogative-partial-wh_Cuando-leia-el-libro.wav,./stim/wavs/cuban_match_interrogative-partial-wh_Cuando-leia-el-libro.wav,./stim/wavs/mexican_match_interrogative-partial-wh_Cuando-leia-el-libro.wav,./stim/wavs/peruvian_match_interrogative-partial-wh_Cuando-leia-el-libro.wav,./stim/wavs/puertorican_match_interrogative-partial-wh_Cuando-leia-el-libro.wav,,,,,,,,,,,,,,,,,,,,,,,,,,,,,,,,,,,,,,,,,,,,,,,,,,,,,,,,
,,,,,,,5d61798f7ad20f001b74922e,6057c54e64b0b4e5c128b4f9,605939bf15a49abad460e96d,Spain,Northeast,13 or older,no,2021-03-22_20h45.03.606,empathy_intonation_perc,2020.2.10,Win32,60,,,,,,,,,,0,chilean,1,0,1.616355,0,3,3,7,1,8,./stim/wavs/andalusian_match_declarative-broad-focus_Marta-abre-el-regalo.wav,./stim/wavs/argentine_match_declarative-broad-focus_Marta-abre-el-regalo.wav,./stim/wavs/castilian_match_declarative-broad-focus_Marta-abre-el-regalo.wav,./stim/wavs/chilean_match_declarative-broad-focus_Marta-abre-el-regalo.wav,./stim/wavs/cuban_match_declarative-broad-focus_Marta-abre-el-regalo.wav,./stim/wavs/mexican_match_declarative-broad-focus_Marta-abre-el-regalo.wav,./stim/wavs/peruvian_match_declarative-broad-focus_Marta-abre-el-regalo.wav,./stim/wavs/puertorican_match_declarative-broad-focus_Marta-abre-el-regalo.wav,,,,,,,,,,,,,,,,,,,,,,,,,,,,,,,,,,,,,,,,,,,,,,,,,,,,,,,,
,,,,,,,5d61798f7ad20f001b74922e,6057c54e64b0b4e5c128b4f9,605939bf15a49abad460e96d,Spain,Northeast,13 or older,no,2021-03-22_20h45.03.606,empathy_intonation_perc,2020.2.10,Win32,60,,,,,,,,,,0,chilean,1,0,1.37328,0,4,4,9,1,10,./stim/wavs/andalusian_match_declarative-narrow-focus_Daniel-iba-a-Bolivia.wav,./stim/wavs/argentine_match_declarative-narrow-focus_Daniel-iba-a-Bolivia.wav,./stim/wavs/castilian_match_declarative-narrow-focus_Daniel-iba-a-Bolivia.wav,./stim/wavs/chilean_match_declarative-narrow-focus_Daniel-iba-a-Bolivia.wav,./stim/wavs/cuban_match_declarative-narrow-focus_Daniel-iba-a-Bolivia.wav,./stim/wavs/mexican_match_declarative-narrow-focus_Daniel-iba-a-Bolivia.wav,./stim/wavs/peruvian_match_declarative-narrow-focus_Daniel-iba-a-Bolivia.wav,./stim/wavs/puertorican_match_declarative-narrow-focus_Daniel-iba-a-Bolivia.wav,,,,,,,,,,,,,,,,,,,,,,,,,,,,,,,,,,,,,,,,,,,,,,,,,,,,,,,,
,,,,,,,5d61798f7ad20f001b74922e,6057c54e64b0b4e5c128b4f9,605939bf15a49abad460e96d,Spain,Northeast,13 or older,no,2021-03-22_20h45.03.606,empathy_intonation_perc,2020.2.10,Win32,60,,,,,,,,,,1,puertorican,1,1,1.717165,0,5,5,20,1,21,./stim/wavs/andalusian_match_interrogative-partial-wh_Por-que-abre-el-regalo.wav,./stim/wavs/argentine_match_interrogative-partial-wh_Por-que-abre-el-regalo.wav,./stim/wavs/castilian_match_interrogative-partial-wh_Por-que-abre-el-regalo.wav,./stim/wavs/chilean_match_interrogative-partial-wh_Por-que-abre-el-regalo.wav,./stim/wavs/cuban_match_interrogative-partial-wh_Por-que-abre-el-regalo.wav,./stim/wavs/mexican_match_interrogative-partial-wh_Por-que-abre-el-regalo.wav,./stim/wavs/peruvian_match_interrogative-partial-wh_Por-que-abre-el-regalo.wav,./stim/wavs/puertorican_match_interrogative-partial-wh_Por-que-abre-el-regalo.wav,,,,,,,,,,,,,,,,,,,,,,,,,,,,,,,,,,,,,,,,,,,,,,,,,,,,,,,,
,,,,,,,5d61798f7ad20f001b74922e,6057c54e64b0b4e5c128b4f9,605939bf15a49abad460e96d,Spain,Northeast,13 or older,no,2021-03-22_20h45.03.606,empathy_intonation_perc,2020.2.10,Win32,60,,,,,,,,,,1,argentine,0,0,1.94983,0,6,6,23,1,24,./stim/wavs/andalusian_match_interrogative-partial-wh_Por-que-iba-a-Bolivia.wav,./stim/wavs/argentine_match_interrogative-partial-wh_Por-que-iba-a-Bolivia.wav,./stim/wavs/castilian_match_interrogative-partial-wh_Por-que-iba-a-Bolivia.wav,./stim/wavs/chilean_match_interrogative-partial-wh_Por-que-iba-a-Bolivia.wav,./stim/wavs/cuban_match_interrogative-partial-wh_Por-que-iba-a-Bolivia.wav,./stim/wavs/mexican_match_interrogative-partial-wh_Por-que-iba-a-Bolivia.wav,./stim/wavs/peruvian_match_interrogative-partial-wh_Por-que-iba-a-Bolivia.wav,./stim/wavs/puertorican_match_interrogative-partial-wh_Por-que-iba-a-Bolivia.wav,,,,,,,,,,,,,,,,,,,,,,,,,,,,,,,,,,,,,,,,,,,,,,,,,,,,,,,,
,,,,,,,5d61798f7ad20f001b74922e,6057c54e64b0b4e5c128b4f9,605939bf15a49abad460e96d,Spain,Northeast,13 or older,no,2021-03-22_20h45.03.606,empathy_intonation_perc,2020.2.10,Win32,60,,,,,,,,,,0,peruvian,0,1,2.254135,0,7,7,43,1,44,./stim/wavs/andalusian_mismatch_declarative-narrow-focus_La-maestra-vive-en-Paris.wav,./stim/wavs/argentine_mismatch_declarative-narrow-focus_La-maestra-vive-en-Paris.wav,./stim/wavs/castilian_mismatch_declarative-narrow-focus_La-maestra-vive-en-Paris.wav,./stim/wavs/chilean_mismatch_declarative-narrow-focus_La-maestra-vive-en-Paris.wav,./stim/wavs/cuban_mismatch_declarative-narrow-focus_La-maestra-vive-en-Paris.wav,./stim/wavs/mexican_mismatch_declarative-narrow-focus_La-maestra-vive-en-Paris.wav,./stim/wavs/peruvian_mismatch_declarative-narrow-focus_La-maestra-vive-en-Paris.wav,./stim/wavs/puertorican_mismatch_declarative-narrow-focus_La-maestra-vive-en-Paris.wav,,,,,,,,,,,,,,,,,,,,,,,,,,,,,,,,,,,,,,,,,,,,,,,,,,,,,,,,
,,,,,,,5d61798f7ad20f001b74922e,6057c54e64b0b4e5c128b4f9,605939bf15a49abad460e96d,Spain,Northeast,13 or older,no,2021-03-22_20h45.03.606,empathy_intonation_perc,2020.2.10,Win32,60,,,,,,,,,,1,chilean,1,1,1.84388,0,8,8,57,1,58,./stim/wavs/andalusian_mismatch_interrogative-total-yn_El-hombre-mira-la-luna.wav,./stim/wavs/argentine_mismatch_interrogative-total-yn_El-hombre-mira-la-luna.wav,./stim/wavs/castilian_mismatch_interrogative-total-yn_El-hombre-mira-la-luna.wav,./stim/wavs/chilean_mismatch_interrogative-total-yn_El-hombre-mira-la-luna.wav,./stim/wavs/cuban_mismatch_interrogative-total-yn_El-hombre-mira-la-luna.wav,./stim/wavs/mexican_mismatch_interrogative-total-yn_El-hombre-mira-la-luna.wav,./stim/wavs/peruvian_mismatch_interrogative-total-yn_El-hombre-mira-la-luna.wav,./stim/wavs/puertorican_mismatch_interrogative-total-yn_El-hombre-mira-la-luna.wav,,,,,,,,,,,,,,,,,,,,,,,,,,,,,,,,,,,,,,,,,,,,,,,,,,,,,,,,
,,,,,,,5d61798f7ad20f001b74922e,6057c54e64b0b4e5c128b4f9,605939bf15a49abad460e96d,Spain,Northeast,13 or older,no,2021-03-22_20h45.03.606,empathy_intonation_perc,2020.2.10,Win32,60,,,,,,,,,,0,peruvian,0,1,1.849935,0,9,9,36,1,37,./stim/wavs/andalusian_mismatch_declarative-broad-focus_La-nina-lava-el-plato.wav,./stim/wavs/argentine_mismatch_declarative-broad-focus_La-nina-lava-el-plato.wav,./stim/wavs/castilian_mismatch_declarative-broad-focus_La-nina-lava-el-plato.wav,./stim/wavs/chilean_mismatch_declarative-broad-focus_La-nina-lava-el-plato.wav,./stim/wavs/cuban_mismatch_declarative-broad-focus_La-nina-lava-el-plato.wav,./stim/wavs/mexican_mismatch_declarative-broad-focus_La-nina-lava-el-plato.wav,./stim/wavs/peruvian_mismatch_declarative-broad-focus_La-nina-lava-el-plato.wav,./stim/wavs/puertorican_mismatch_declarative-broad-focus_La-nina-lava-el-plato.wav,,,,,,,,,,,,,,,,,,,,,,,,,,,,,,,,,,,,,,,,,,,,,,,,,,,,,,,,
,,,,,,,5d61798f7ad20f001b74922e,6057c54e64b0b4e5c128b4f9,605939bf15a49abad460e96d,Spain,Northeast,13 or older,no,2021-03-22_20h45.03.606,empathy_intonation_perc,2020.2.10,Win32,60,,,,,,,,,,1,peruvian,1,1,1.7396,0,10,10,24,1,25,./stim/wavs/andalusian_match_interrogative-total-yn_Ana-lleva-el-abrigo.wav,./stim/wavs/argentine_match_interrogative-total-yn_Ana-lleva-el-abrigo.wav,./stim/wavs/castilian_match_interrogative-total-yn_Ana-lleva-el-abrigo.wav,./stim/wavs/chilean_match_interrogative-total-yn_Ana-lleva-el-abrigo.wav,./stim/wavs/cuban_match_interrogative-total-yn_Ana-lleva-el-abrigo.wav,./stim/wavs/mexican_match_interrogative-total-yn_Ana-lleva-el-abrigo.wav,./stim/wavs/peruvian_match_interrogative-total-yn_Ana-lleva-el-abrigo.wav,./stim/wavs/puertorican_match_interrogative-total-yn_Ana-lleva-el-abrigo.wav,,,,,,,,,,,,,,,,,,,,,,,,,,,,,,,,,,,,,,,,,,,,,,,,,,,,,,,,
,,,,,,,5d61798f7ad20f001b74922e,6057c54e64b0b4e5c128b4f9,605939bf15a49abad460e96d,Spain,Northeast,13 or older,no,2021-03-22_20h45.03.606,empathy_intonation_perc,2020.2.10,Win32,60,,,,,,,,,,1,andalusian,1,1,2.101275,0,11,11,59,1,60,./stim/wavs/andalusian_mismatch_interrogative-total-yn_La-maestra-vive-en-Paris.wav,./stim/wavs/argentine_mismatch_interrogative-total-yn_La-maestra-vive-en-Paris.wav,./stim/wavs/castilian_mismatch_interrogative-total-yn_La-maestra-vive-en-Paris.wav,./stim/wavs/chilean_mismatch_interrogative-total-yn_La-maestra-vive-en-Paris.wav,./stim/wavs/cuban_mismatch_interrogative-total-yn_La-maestra-vive-en-Paris.wav,./stim/wavs/mexican_mismatch_interrogative-total-yn_La-maestra-vive-en-Paris.wav,./stim/wavs/peruvian_mismatch_interrogative-total-yn_La-maestra-vive-en-Paris.wav,./stim/wavs/puertorican_mismatch_interrogative-total-yn_La-maestra-vive-en-Paris.wav,,,,,,,,,,,,,,,,,,,,,,,,,,,,,,,,,,,,,,,,,,,,,,,,,,,,,,,,
,,,,,,,5d61798f7ad20f001b74922e,6057c54e64b0b4e5c128b4f9,605939bf15a49abad460e96d,Spain,Northeast,13 or older,no,2021-03-22_20h45.03.606,empathy_intonation_perc,2020.2.10,Win32,60,,,,,,,,,,1,puertorican,0,0,1.871475,0,12,12,21,1,22,./stim/wavs/andalusian_match_interrogative-partial-wh_Por-que-ama-la-navidad.wav,./stim/wavs/argentine_match_interrogative-partial-wh_Por-que-ama-la-navidad.wav,./stim/wavs/castilian_match_interrogative-partial-wh_Por-que-ama-la-navidad.wav,./stim/wavs/chilean_match_interrogative-partial-wh_Por-que-ama-la-navidad.wav,./stim/wavs/cuban_match_interrogative-partial-wh_Por-que-ama-la-navidad.wav,./stim/wavs/mexican_match_interrogative-partial-wh_Por-que-ama-la-navidad.wav,./stim/wavs/peruvian_match_interrogative-partial-wh_Por-que-ama-la-navidad.wav,./stim/wavs/puertorican_match_interrogative-partial-wh_Por-que-ama-la-navidad.wav,,,,,,,,,,,,,,,,,,,,,,,,,,,,,,,,,,,,,,,,,,,,,,,,,,,,,,,,
,,,,,,,5d61798f7ad20f001b74922e,6057c54e64b0b4e5c128b4f9,605939bf15a49abad460e96d,Spain,Northeast,13 or older,no,2021-03-22_20h45.03.606,empathy_intonation_perc,2020.2.10,Win32,60,,,,,,,,,,1,castilian,1,1,1.914725,0,13,13,61,1,62,./stim/wavs/andalusian_mismatch_interrogative-total-yn_Mi-madre-come-la-fruta.wav,./stim/wavs/argentine_mismatch_interrogative-total-yn_Mi-madre-come-la-fruta.wav,./stim/wavs/castilian_mismatch_interrogative-total-yn_Mi-madre-come-la-fruta.wav,./stim/wavs/chilean_mismatch_interrogative-total-yn_Mi-madre-come-la-fruta.wav,./stim/wavs/cuban_mismatch_interrogative-total-yn_Mi-madre-come-la-fruta.wav,./stim/wavs/mexican_mismatch_interrogative-total-yn_Mi-madre-come-la-fruta.wav,./stim/wavs/peruvian_mismatch_interrogative-total-yn_Mi-madre-come-la-fruta.wav,./stim/wavs/puertorican_mismatch_interrogative-total-yn_Mi-madre-come-la-fruta.wav,,,,,,,,,,,,,,,,,,,,,,,,,,,,,,,,,,,,,,,,,,,,,,,,,,,,,,,,
,,,,,,,5d61798f7ad20f001b74922e,6057c54e64b0b4e5c128b4f9,605939bf15a49abad460e96d,Spain,Northeast,13 or older,no,2021-03-22_20h45.03.606,empathy_intonation_perc,2020.2.10,Win32,60,,,,,,,,,,1,andalusian,1,1,1.74742,0,14,14,60,1,61,./stim/wavs/andalusian_mismatch_interrogative-total-yn_La-nina-lava-el-plato.wav,./stim/wavs/argentine_mismatch_interrogative-total-yn_La-nina-lava-el-plato.wav,./stim/wavs/castilian_mismatch_interrogative-total-yn_La-nina-lava-el-plato.wav,./stim/wavs/chilean_mismatch_interrogative-total-yn_La-nina-lava-el-plato.wav,./stim/wavs/cuban_mismatch_interrogative-total-yn_La-nina-lava-el-plato.wav,./stim/wavs/mexican_mismatch_interrogative-total-yn_La-nina-lava-el-plato.wav,./stim/wavs/peruvian_mismatch_interrogative-total-yn_La-nina-lava-el-plato.wav,./stim/wavs/puertorican_mismatch_interrogative-total-yn_La-nina-lava-el-plato.wav,,,,,,,,,,,,,,,,,,,,,,,,,,,,,,,,,,,,,,,,,,,,,,,,,,,,,,,,
,,,,,,,5d61798f7ad20f001b74922e,6057c54e64b0b4e5c128b4f9,605939bf15a49abad460e96d,Spain,Northeast,13 or older,no,2021-03-22_20h45.03.606,empathy_intonation_perc,2020.2.10,Win32,60,,,,,,,,,,1,andalusian,0,0,2.599535,0,15,15,22,1,23,./stim/wavs/andalusian_match_interrogative-partial-wh_Por-que-hablaba-del-agua.wav,./stim/wavs/argentine_match_interrogative-partial-wh_Por-que-hablaba-del-agua.wav,./stim/wavs/castilian_match_interrogative-partial-wh_Por-que-hablaba-del-agua.wav,./stim/wavs/chilean_match_interrogative-partial-wh_Por-que-hablaba-del-agua.wav,./stim/wavs/cuban_match_interrogative-partial-wh_Por-que-hablaba-del-agua.wav,./stim/wavs/mexican_match_interrogative-partial-wh_Por-que-hablaba-del-agua.wav,./stim/wavs/peruvian_match_interrogative-partial-wh_Por-que-hablaba-del-agua.wav,./stim/wavs/puertorican_match_interrogative-partial-wh_Por-que-hablaba-del-agua.wav,,,,,,,,,,,,,,,,,,,,,,,,,,,,,,,,,,,,,,,,,,,,,,,,,,,,,,,,
,,,,,,,5d61798f7ad20f001b74922e,6057c54e64b0b4e5c128b4f9,605939bf15a49abad460e96d,Spain,Northeast,13 or older,no,2021-03-22_20h45.03.606,empathy_intonation_perc,2020.2.10,Win32,60,,,,,,,,,,1,cuban,0,0,1.531,0,16,16,58,1,59,./stim/wavs/andalusian_mismatch_interrogative-total-yn_El-nino-oye-el-rio.wav,./stim/wavs/argentine_mismatch_interrogative-total-yn_El-nino-oye-el-rio.wav,./stim/wavs/castilian_mismatch_interrogative-total-yn_El-nino-oye-el-rio.wav,./stim/wavs/chilean_mismatch_interrogative-total-yn_El-nino-oye-el-rio.wav,./stim/wavs/cuban_mismatch_interrogative-total-yn_El-nino-oye-el-rio.wav,./stim/wavs/mexican_mismatch_interrogative-total-yn_El-nino-oye-el-rio.wav,./stim/wavs/peruvian_mismatch_interrogative-total-yn_El-nino-oye-el-rio.wav,./stim/wavs/puertorican_mismatch_interrogative-total-yn_El-nino-oye-el-rio.wav,,,,,,,,,,,,,,,,,,,,,,,,,,,,,,,,,,,,,,,,,,,,,,,,,,,,,,,,
,,,,,,,5d61798f7ad20f001b74922e,6057c54e64b0b4e5c128b4f9,605939bf15a49abad460e96d,Spain,Northeast,13 or older,no,2021-03-22_20h45.03.606,empathy_intonation_perc,2020.2.10,Win32,60,,,,,,,,,,1,andalusian,1,1,1.645085,0,17,17,25,1,26,./stim/wavs/andalusian_match_interrogative-total-yn_Daniel-iba-a-Bolivia.wav,./stim/wavs/argentine_match_interrogative-total-yn_Daniel-iba-a-Bolivia.wav,./stim/wavs/castilian_match_interrogative-total-yn_Daniel-iba-a-Bolivia.wav,./stim/wavs/chilean_match_interrogative-total-yn_Daniel-iba-a-Bolivia.wav,./stim/wavs/cuban_match_interrogative-total-yn_Daniel-iba-a-Bolivia.wav,./stim/wavs/mexican_match_interrogative-total-yn_Daniel-iba-a-Bolivia.wav,./stim/wavs/peruvian_match_interrogative-total-yn_Daniel-iba-a-Bolivia.wav,./stim/wavs/puertorican_match_interrogative-total-yn_Daniel-iba-a-Bolivia.wav,,,,,,,,,,,,,,,,,,,,,,,,,,,,,,,,,,,,,,,,,,,,,,,,,,,,,,,,
,,,,,,,5d61798f7ad20f001b74922e,6057c54e64b0b4e5c128b4f9,605939bf15a49abad460e96d,Spain,Northeast,13 or older,no,2021-03-22_20h45.03.606,empathy_intonation_perc,2020.2.10,Win32,60,,,,,,,,,,1,peruvian,0,0,2.033145,0,18,18,48,1,49,./stim/wavs/andalusian_mismatch_interrogative-partial-wh_Cuando-comia-la-fruta.wav,./stim/wavs/argentine_mismatch_interrogative-partial-wh_Cuando-comia-la-fruta.wav,./stim/wavs/castilian_mismatch_interrogative-partial-wh_Cuando-comia-la-fruta.wav,./stim/wavs/chilean_mismatch_interrogative-partial-wh_Cuando-comia-la-fruta.wav,./stim/wavs/cuban_mismatch_interrogative-partial-wh_Cuando-comia-la-fruta.wav,./stim/wavs/mexican_mismatch_interrogative-partial-wh_Cuando-comia-la-fruta.wav,./stim/wavs/peruvian_mismatch_interrogative-partial-wh_Cuando-comia-la-fruta.wav,./stim/wavs/puertorican_mismatch_interrogative-partial-wh_Cuando-comia-la-fruta.wav,,,,,,,,,,,,,,,,,,,,,,,,,,,,,,,,,,,,,,,,,,,,,,,,,,,,,,,,
,,,,,,,5d61798f7ad20f001b74922e,6057c54e64b0b4e5c128b4f9,605939bf15a49abad460e96d,Spain,Northeast,13 or older,no,2021-03-22_20h45.03.606,empathy_intonation_perc,2020.2.10,Win32,60,,,,,,,,,,0,cuban,0,1,1.66715,0,19,19,12,1,13,./stim/wavs/andalusian_match_declarative-narrow-focus_Manuela-vende-el-carro.wav,./stim/wavs/argentine_match_declarative-narrow-focus_Manuela-vende-el-carro.wav,./stim/wavs/castilian_match_declarative-narrow-focus_Manuela-vende-el-carro.wav,./stim/wavs/chilean_match_declarative-narrow-focus_Manuela-vende-el-carro.wav,./stim/wavs/cuban_match_declarative-narrow-focus_Manuela-vende-el-carro.wav,./stim/wavs/mexican_match_declarative-narrow-focus_Manuela-vende-el-carro.wav,./stim/wavs/peruvian_match_declarative-narrow-focus_Manuela-vende-el-carro.wav,./stim/wavs/puertorican_match_declarative-narrow-focus_Manuela-vende-el-carro.wav,,,,,,,,,,,,,,,,,,,,,,,,,,,,,,,,,,,,,,,,,,,,,,,,,,,,,,,,
,,,,,,,5d61798f7ad20f001b74922e,6057c54e64b0b4e5c128b4f9,605939bf15a49abad460e96d,Spain,Northeast,13 or older,no,2021-03-22_20h45.03.606,empathy_intonation_perc,2020.2.10,Win32,60,,,,,,,,,,1,cuban,0,0,1.52083,0,20,20,28,1,29,./stim/wavs/andalusian_match_interrogative-total-yn_Manuela-vende-el-carro.wav,./stim/wavs/argentine_match_interrogative-total-yn_Manuela-vende-el-carro.wav,./stim/wavs/castilian_match_interrogative-total-yn_Manuela-vende-el-carro.wav,./stim/wavs/chilean_match_interrogative-total-yn_Manuela-vende-el-carro.wav,./stim/wavs/cuban_match_interrogative-total-yn_Manuela-vende-el-carro.wav,./stim/wavs/mexican_match_interrogative-total-yn_Manuela-vende-el-carro.wav,./stim/wavs/peruvian_match_interrogative-total-yn_Manuela-vende-el-carro.wav,./stim/wavs/puertorican_match_interrogative-total-yn_Manuela-vende-el-carro.wav,,,,,,,,,,,,,,,,,,,,,,,,,,,,,,,,,,,,,,,,,,,,,,,,,,,,,,,,
,,,,,,,5d61798f7ad20f001b74922e,6057c54e64b0b4e5c128b4f9,605939bf15a49abad460e96d,Spain,Northeast,13 or older,no,2021-03-22_20h45.03.606,empathy_intonation_perc,2020.2.10,Win32,60,,,,,,,,,,1,cuban,0,0,1.69152,0,21,21,55,1,56,./stim/wavs/andalusian_mismatch_interrogative-partial-wh_Por-que-vivia-en-Paris.wav,./stim/wavs/argentine_mismatch_interrogative-partial-wh_Por-que-vivia-en-Paris.wav,./stim/wavs/castilian_mismatch_interrogative-partial-wh_Por-que-vivia-en-Paris.wav,./stim/wavs/chilean_mismatch_interrogative-partial-wh_Por-que-vivia-en-Paris.wav,./stim/wavs/cuban_mismatch_interrogative-partial-wh_Por-que-vivia-en-Paris.wav,./stim/wavs/mexican_mismatch_interrogative-partial-wh_Por-que-vivia-en-Paris.wav,./stim/wavs/peruvian_mismatch_interrogative-partial-wh_Por-que-vivia-en-Paris.wav,./stim/wavs/puertorican_mismatch_interrogative-partial-wh_Por-que-vivia-en-Paris.wav,,,,,,,,,,,,,,,,,,,,,,,,,,,,,,,,,,,,,,,,,,,,,,,,,,,,,,,,
,,,,,,,5d61798f7ad20f001b74922e,6057c54e64b0b4e5c128b4f9,605939bf15a49abad460e96d,Spain,Northeast,13 or older,no,2021-03-22_20h45.03.606,empathy_intonation_perc,2020.2.10,Win32,60,,,,,,,,,,0,peruvian,0,1,1.93089,0,22,22,42,1,43,./stim/wavs/andalusian_mismatch_declarative-narrow-focus_El-nino-oye-el-rio.wav,./stim/wavs/argentine_mismatch_declarative-narrow-focus_El-nino-oye-el-rio.wav,./stim/wavs/castilian_mismatch_declarative-narrow-focus_El-nino-oye-el-rio.wav,./stim/wavs/chilean_mismatch_declarative-narrow-focus_El-nino-oye-el-rio.wav,./stim/wavs/cuban_mismatch_declarative-narrow-focus_El-nino-oye-el-rio.wav,./stim/wavs/mexican_mismatch_declarative-narrow-focus_El-nino-oye-el-rio.wav,./stim/wavs/peruvian_mismatch_declarative-narrow-focus_El-nino-oye-el-rio.wav,./stim/wavs/puertorican_mismatch_declarative-narrow-focus_El-nino-oye-el-rio.wav,,,,,,,,,,,,,,,,,,,,,,,,,,,,,,,,,,,,,,,,,,,,,,,,,,,,,,,,
,,,,,,,5d61798f7ad20f001b74922e,6057c54e64b0b4e5c128b4f9,605939bf15a49abad460e96d,Spain,Northeast,13 or older,no,2021-03-22_20h45.03.606,empathy_intonation_perc,2020.2.10,Win32,60,,,,,,,,,,0,mexican,0,1,1.617455,0,23,23,39,1,40,./stim/wavs/andalusian_mismatch_declarative-broad-focus_Mi-tia-odia-la-lluvia.wav,./stim/wavs/argentine_mismatch_declarative-broad-focus_Mi-tia-odia-la-lluvia.wav,./stim/wavs/castilian_mismatch_declarative-broad-focus_Mi-tia-odia-la-lluvia.wav,./stim/wavs/chilean_mismatch_declarative-broad-focus_Mi-tia-odia-la-lluvia.wav,./stim/wavs/cuban_mismatch_declarative-broad-focus_Mi-tia-odia-la-lluvia.wav,./stim/wavs/mexican_mismatch_declarative-broad-focus_Mi-tia-odia-la-lluvia.wav,./stim/wavs/peruvian_mismatch_declarative-broad-focus_Mi-tia-odia-la-lluvia.wav,./stim/wavs/puertorican_mismatch_declarative-broad-focus_Mi-tia-odia-la-lluvia.wav,,,,,,,,,,,,,,,,,,,,,,,,,,,,,,,,,,,,,,,,,,,,,,,,,,,,,,,,
,,,,,,,5d61798f7ad20f001b74922e,6057c54e64b0b4e5c128b4f9,605939bf15a49abad460e96d,Spain,Northeast,13 or older,no,2021-03-22_20h45.03.606,empathy_intonation_perc,2020.2.10,Win32,60,,,,,,,,,,0,mexican,0,1,2.053095,0,24,24,35,1,36,./stim/wavs/andalusian_mismatch_declarative-broad-focus_La-maestra-vive-en-Paris.wav,./stim/wavs/argentine_mismatch_declarative-broad-focus_La-maestra-vive-en-Paris.wav,./stim/wavs/castilian_mismatch_declarative-broad-focus_La-maestra-vive-en-Paris.wav,./stim/wavs/chilean_mismatch_declarative-broad-focus_La-maestra-vive-en-Paris.wav,./stim/wavs/cuban_mismatch_declarative-broad-focus_La-maestra-vive-en-Paris.wav,./stim/wavs/mexican_mismatch_declarative-broad-focus_La-maestra-vive-en-Paris.wav,./stim/wavs/peruvian_mismatch_declarative-broad-focus_La-maestra-vive-en-Paris.wav,./stim/wavs/puertorican_mismatch_declarative-broad-focus_La-maestra-vive-en-Paris.wav,,,,,,,,,,,,,,,,,,,,,,,,,,,,,,,,,,,,,,,,,,,,,,,,,,,,,,,,
,,,,,,,5d61798f7ad20f001b74922e,6057c54e64b0b4e5c128b4f9,605939bf15a49abad460e96d,Spain,Northeast,13 or older,no,2021-03-22_20h45.03.606,empathy_intonation_perc,2020.2.10,Win32,60,,,,,,,,,,1,castilian,1,1,1.835625,0,25,25,51,1,52,./stim/wavs/andalusian_mismatch_interrogative-partial-wh_Por-que-desayuna-muy-bien.wav,./stim/wavs/argentine_mismatch_interrogative-partial-wh_Por-que-desayuna-muy-bien.wav,./stim/wavs/castilian_mismatch_interrogative-partial-wh_Por-que-desayuna-muy-bien.wav,./stim/wavs/chilean_mismatch_interrogative-partial-wh_Por-que-desayuna-muy-bien.wav,./stim/wavs/cuban_mismatch_interrogative-partial-wh_Por-que-desayuna-muy-bien.wav,./stim/wavs/mexican_mismatch_interrogative-partial-wh_Por-que-desayuna-muy-bien.wav,./stim/wavs/peruvian_mismatch_interrogative-partial-wh_Por-que-desayuna-muy-bien.wav,./stim/wavs/puertorican_mismatch_interrogative-partial-wh_Por-que-desayuna-muy-bien.wav,,,,,,,,,,,,,,,,,,,,,,,,,,,,,,,,,,,,,,,,,,,,,,,,,,,,,,,,
,,,,,,,5d61798f7ad20f001b74922e,6057c54e64b0b4e5c128b4f9,605939bf15a49abad460e96d,Spain,Northeast,13 or older,no,2021-03-22_20h45.03.606,empathy_intonation_perc,2020.2.10,Win32,60,,,,,,,,,,0,cuban,0,1,1.711515,0,26,26,2,1,3,./stim/wavs/andalusian_match_declarative-broad-focus_David-leia-el-libro.wav,./stim/wavs/argentine_match_declarative-broad-focus_David-leia-el-libro.wav,./stim/wavs/castilian_match_declarative-broad-focus_David-leia-el-libro.wav,./stim/wavs/chilean_match_declarative-broad-focus_David-leia-el-libro.wav,./stim/wavs/cuban_match_declarative-broad-focus_David-leia-el-libro.wav,./stim/wavs/mexican_match_declarative-broad-focus_David-leia-el-libro.wav,./stim/wavs/peruvian_match_declarative-broad-focus_David-leia-el-libro.wav,./stim/wavs/puertorican_match_declarative-broad-focus_David-leia-el-libro.wav,,,,,,,,,,,,,,,,,,,,,,,,,,,,,,,,,,,,,,,,,,,,,,,,,,,,,,,,
,,,,,,,5d61798f7ad20f001b74922e,6057c54e64b0b4e5c128b4f9,605939bf15a49abad460e96d,Spain,Northeast,13 or older,no,2021-03-22_20h45.03.606,empathy_intonation_perc,2020.2.10,Win32,60,,,,,,,,,,0,cuban,0,1,1.81126,0,27,27,41,1,42,./stim/wavs/andalusian_mismatch_declarative-narrow-focus_El-hombre-mira-la-luna.wav,./stim/wavs/argentine_mismatch_declarative-narrow-focus_El-hombre-mira-la-luna.wav,./stim/wavs/castilian_mismatch_declarative-narrow-focus_El-hombre-mira-la-luna.wav,./stim/wavs/chilean_mismatch_declarative-narrow-focus_El-hombre-mira-la-luna.wav,./stim/wavs/cuban_mismatch_declarative-narrow-focus_El-hombre-mira-la-luna.wav,./stim/wavs/mexican_mismatch_declarative-narrow-focus_El-hombre-mira-la-luna.wav,./stim/wavs/peruvian_mismatch_declarative-narrow-focus_El-hombre-mira-la-luna.wav,./stim/wavs/puertorican_mismatch_declarative-narrow-focus_El-hombre-mira-la-luna.wav,,,,,,,,,,,,,,,,,,,,,,,,,,,,,,,,,,,,,,,,,,,,,,,,,,,,,,,,
,,,,,,,5d61798f7ad20f001b74922e,6057c54e64b0b4e5c128b4f9,605939bf15a49abad460e96d,Spain,Northeast,13 or older,no,2021-03-22_20h45.03.606,empathy_intonation_perc,2020.2.10,Win32,60,,,,,,,,,,0,chilean,0,1,1.783545,0,28,28,45,1,46,./stim/wavs/andalusian_mismatch_declarative-narrow-focus_Mi-madre-come-la-fruta.wav,./stim/wavs/argentine_mismatch_declarative-narrow-focus_Mi-madre-come-la-fruta.wav,./stim/wavs/castilian_mismatch_declarative-narrow-focus_Mi-madre-come-la-fruta.wav,./stim/wavs/chilean_mismatch_declarative-narrow-focus_Mi-madre-come-la-fruta.wav,./stim/wavs/cuban_mismatch_declarative-narrow-focus_Mi-madre-come-la-fruta.wav,./stim/wavs/mexican_mismatch_declarative-narrow-focus_Mi-madre-come-la-fruta.wav,./stim/wavs/peruvian_mismatch_declarative-narrow-focus_Mi-madre-come-la-fruta.wav,./stim/wavs/puertorican_mismatch_declarative-narrow-focus_Mi-madre-come-la-fruta.wav,,,,,,,,,,,,,,,,,,,,,,,,,,,,,,,,,,,,,,,,,,,,,,,,,,,,,,,,
,,,,,,,5d61798f7ad20f001b74922e,6057c54e64b0b4e5c128b4f9,605939bf15a49abad460e96d,Spain,Northeast,13 or older,no,2021-03-22_20h45.03.606,empathy_intonation_perc,2020.2.10,Win32,60,,,,,,,,,,1,castilian,1,1,1.816755,0,29,29,52,1,53,./stim/wavs/andalusian_mismatch_interrogative-partial-wh_Por-que-odiaba-la-lluvia.wav,./stim/wavs/argentine_mismatch_interrogative-partial-wh_Por-que-odiaba-la-lluvia.wav,./stim/wavs/castilian_mismatch_interrogative-partial-wh_Por-que-odiaba-la-lluvia.wav,./stim/wavs/chilean_mismatch_interrogative-partial-wh_Por-que-odiaba-la-lluvia.wav,./stim/wavs/cuban_mismatch_interrogative-partial-wh_Por-que-odiaba-la-lluvia.wav,./stim/wavs/mexican_mismatch_interrogative-partial-wh_Por-que-odiaba-la-lluvia.wav,./stim/wavs/peruvian_mismatch_interrogative-partial-wh_Por-que-odiaba-la-lluvia.wav,./stim/wavs/puertorican_mismatch_interrogative-partial-wh_Por-que-odiaba-la-lluvia.wav,,,,,,,,,,,,,,,,,,,,,,,,,,,,,,,,,,,,,,,,,,,,,,,,,,,,,,,,
,,,,,,,5d61798f7ad20f001b74922e,6057c54e64b0b4e5c128b4f9,605939bf15a49abad460e96d,Spain,Northeast,13 or older,no,2021-03-22_20h45.03.606,empathy_intonation_perc,2020.2.10,Win32,60,,,,,,,,,,0,mexican,0,1,2.050155,0,30,30,3,1,4,./stim/wavs/andalusian_match_declarative-broad-focus_Emilio-ama-la-marcha.wav,./stim/wavs/argentine_match_declarative-broad-focus_Emilio-ama-la-marcha.wav,./stim/wavs/castilian_match_declarative-broad-focus_Emilio-ama-la-marcha.wav,./stim/wavs/chilean_match_declarative-broad-focus_Emilio-ama-la-marcha.wav,./stim/wavs/cuban_match_declarative-broad-focus_Emilio-ama-la-marcha.wav,./stim/wavs/mexican_match_declarative-broad-focus_Emilio-ama-la-marcha.wav,./stim/wavs/peruvian_match_declarative-broad-focus_Emilio-ama-la-marcha.wav,./stim/wavs/puertorican_match_declarative-broad-focus_Emilio-ama-la-marcha.wav,,,,,,,,,,,,,,,,,,,,,,,,,,,,,,,,,,,,,,,,,,,,,,,,,,,,,,,,
,,,,,,,5d61798f7ad20f001b74922e,6057c54e64b0b4e5c128b4f9,605939bf15a49abad460e96d,Spain,Northeast,13 or older,no,2021-03-22_20h45.03.606,empathy_intonation_perc,2020.2.10,Win32,60,,,,,,,,,,0,andalusian,0,1,1.86668,0,31,31,6,1,7,./stim/wavs/andalusian_match_declarative-broad-focus_Mariano-habla-del-tiempo.wav,./stim/wavs/argentine_match_declarative-broad-focus_Mariano-habla-del-tiempo.wav,./stim/wavs/castilian_match_declarative-broad-focus_Mariano-habla-del-tiempo.wav,./stim/wavs/chilean_match_declarative-broad-focus_Mariano-habla-del-tiempo.wav,./stim/wavs/cuban_match_declarative-broad-focus_Mariano-habla-del-tiempo.wav,./stim/wavs/mexican_match_declarative-broad-focus_Mariano-habla-del-tiempo.wav,./stim/wavs/peruvian_match_declarative-broad-focus_Mariano-habla-del-tiempo.wav,./stim/wavs/puertorican_match_declarative-broad-focus_Mariano-habla-del-tiempo.wav,,,,,,,,,,,,,,,,,,,,,,,,,,,,,,,,,,,,,,,,,,,,,,,,,,,,,,,,
,,,,,,,5d61798f7ad20f001b74922e,6057c54e64b0b4e5c128b4f9,605939bf15a49abad460e96d,Spain,Northeast,13 or older,no,2021-03-22_20h45.03.606,empathy_intonation_perc,2020.2.10,Win32,60,,,,,,,,,,0,argentine,0,1,2.08223,0,32,32,4,1,5,./stim/wavs/andalusian_match_declarative-broad-focus_Manuela-vende-el-carro.wav,./stim/wavs/argentine_match_declarative-broad-focus_Manuela-vende-el-carro.wav,./stim/wavs/castilian_match_declarative-broad-focus_Manuela-vende-el-carro.wav,./stim/wavs/chilean_match_declarative-broad-focus_Manuela-vende-el-carro.wav,./stim/wavs/cuban_match_declarative-broad-focus_Manuela-vende-el-carro.wav,./stim/wavs/mexican_match_declarative-broad-focus_Manuela-vende-el-carro.wav,./stim/wavs/peruvian_match_declarative-broad-focus_Manuela-vende-el-carro.wav,./stim/wavs/puertorican_match_declarative-broad-focus_Manuela-vende-el-carro.wav,,,,,,,,,,,,,,,,,,,,,,,,,,,,,,,,,,,,,,,,,,,,,,,,,,,,,,,,
,,,,,,,5d61798f7ad20f001b74922e,6057c54e64b0b4e5c128b4f9,605939bf15a49abad460e96d,Spain,Northeast,13 or older,no,2021-03-22_20h45.03.606,empathy_intonation_perc,2020.2.10,Win32,60,,,,,,,,,,0,andalusian,0,1,1.69468,0,33,33,13,1,14,./stim/wavs/andalusian_match_declarative-narrow-focus_Maria-bebe-el-vino.wav,./stim/wavs/argentine_match_declarative-narrow-focus_Maria-bebe-el-vino.wav,./stim/wavs/castilian_match_declarative-narrow-focus_Maria-bebe-el-vino.wav,./stim/wavs/chilean_match_declarative-narrow-focus_Maria-bebe-el-vino.wav,./stim/wavs/cuban_match_declarative-narrow-focus_Maria-bebe-el-vino.wav,./stim/wavs/mexican_match_declarative-narrow-focus_Maria-bebe-el-vino.wav,./stim/wavs/peruvian_match_declarative-narrow-focus_Maria-bebe-el-vino.wav,./stim/wavs/puertorican_match_declarative-narrow-focus_Maria-bebe-el-vino.wav,,,,,,,,,,,,,,,,,,,,,,,,,,,,,,,,,,,,,,,,,,,,,,,,,,,,,,,,
,,,,,,,5d61798f7ad20f001b74922e,6057c54e64b0b4e5c128b4f9,605939bf15a49abad460e96d,Spain,Northeast,13 or older,no,2021-03-22_20h45.03.606,empathy_intonation_perc,2020.2.10,Win32,60,,,,,,,,,,0,andalusian,0,1,2.034,0,34,34,33,1,34,./stim/wavs/andalusian_mismatch_declarative-broad-focus_El-hombre-mira-la-luna.wav,./stim/wavs/argentine_mismatch_declarative-broad-focus_El-hombre-mira-la-luna.wav,./stim/wavs/castilian_mismatch_declarative-broad-focus_El-hombre-mira-la-luna.wav,./stim/wavs/chilean_mismatch_declarative-broad-focus_El-hombre-mira-la-luna.wav,./stim/wavs/cuban_mismatch_declarative-broad-focus_El-hombre-mira-la-luna.wav,./stim/wavs/mexican_mismatch_declarative-broad-focus_El-hombre-mira-la-luna.wav,./stim/wavs/peruvian_mismatch_declarative-broad-focus_El-hombre-mira-la-luna.wav,./stim/wavs/puertorican_mismatch_declarative-broad-focus_El-hombre-mira-la-luna.wav,,,,,,,,,,,,,,,,,,,,,,,,,,,,,,,,,,,,,,,,,,,,,,,,,,,,,,,,
,,,,,,,5d61798f7ad20f001b74922e,6057c54e64b0b4e5c128b4f9,605939bf15a49abad460e96d,Spain,Northeast,13 or older,no,2021-03-22_20h45.03.606,empathy_intonation_perc,2020.2.10,Win32,60,,,,,,,,,,1,puertorican,1,1,1.94968,0,35,35,53,1,54,./stim/wavs/andalusian_mismatch_interrogative-partial-wh_Por-que-oia-el-rio.wav,./stim/wavs/argentine_mismatch_interrogative-partial-wh_Por-que-oia-el-rio.wav,./stim/wavs/castilian_mismatch_interrogative-partial-wh_Por-que-oia-el-rio.wav,./stim/wavs/chilean_mismatch_interrogative-partial-wh_Por-que-oia-el-rio.wav,./stim/wavs/cuban_mismatch_interrogative-partial-wh_Por-que-oia-el-rio.wav,./stim/wavs/mexican_mismatch_interrogative-partial-wh_Por-que-oia-el-rio.wav,./stim/wavs/peruvian_mismatch_interrogative-partial-wh_Por-que-oia-el-rio.wav,./stim/wavs/puertorican_mismatch_interrogative-partial-wh_Por-que-oia-el-rio.wav,,,,,,,,,,,,,,,,,,,,,,,,,,,,,,,,,,,,,,,,,,,,,,,,,,,,,,,,
,,,,,,,5d61798f7ad20f001b74922e,6057c54e64b0b4e5c128b4f9,605939bf15a49abad460e96d,Spain,Northeast,13 or older,no,2021-03-22_20h45.03.606,empathy_intonation_perc,2020.2.10,Win32,60,,,,,,,,,,1,peruvian,0,0,1.82631,0,36,36,16,1,17,./stim/wavs/andalusian_match_interrogative-partial-wh_Cuando-bebia-el-vino.wav,./stim/wavs/argentine_match_interrogative-partial-wh_Cuando-bebia-el-vino.wav,./stim/wavs/castilian_match_interrogative-partial-wh_Cuando-bebia-el-vino.wav,./stim/wavs/chilean_match_interrogative-partial-wh_Cuando-bebia-el-vino.wav,./stim/wavs/cuban_match_interrogative-partial-wh_Cuando-bebia-el-vino.wav,./stim/wavs/mexican_match_interrogative-partial-wh_Cuando-bebia-el-vino.wav,./stim/wavs/peruvian_match_interrogative-partial-wh_Cuando-bebia-el-vino.wav,./stim/wavs/puertorican_match_interrogative-partial-wh_Cuando-bebia-el-vino.wav,,,,,,,,,,,,,,,,,,,,,,,,,,,,,,,,,,,,,,,,,,,,,,,,,,,,,,,,
,,,,,,,5d61798f7ad20f001b74922e,6057c54e64b0b4e5c128b4f9,605939bf15a49abad460e96d,Spain,Northeast,13 or older,no,2021-03-22_20h45.03.606,empathy_intonation_perc,2020.2.10,Win32,60,,,,,,,,,,0,argentine,0,1,1.79841,0,37,37,32,1,33,./stim/wavs/andalusian_mismatch_declarative-broad-focus_El-bebe-comia-muy-bien.wav,./stim/wavs/argentine_mismatch_declarative-broad-focus_El-bebe-comia-muy-bien.wav,./stim/wavs/castilian_mismatch_declarative-broad-focus_El-bebe-comia-muy-bien.wav,./stim/wavs/chilean_mismatch_declarative-broad-focus_El-bebe-comia-muy-bien.wav,./stim/wavs/cuban_mismatch_declarative-broad-focus_El-bebe-comia-muy-bien.wav,./stim/wavs/mexican_mismatch_declarative-broad-focus_El-bebe-comia-muy-bien.wav,./stim/wavs/peruvian_mismatch_declarative-broad-focus_El-bebe-comia-muy-bien.wav,./stim/wavs/puertorican_mismatch_declarative-broad-focus_El-bebe-comia-muy-bien.wav,,,,,,,,,,,,,,,,,,,,,,,,,,,,,,,,,,,,,,,,,,,,,,,,,,,,,,,,
,,,,,,,5d61798f7ad20f001b74922e,6057c54e64b0b4e5c128b4f9,605939bf15a49abad460e96d,Spain,Northeast,13 or older,no,2021-03-22_20h45.03.606,empathy_intonation_perc,2020.2.10,Win32,60,,,,,,,,,,0,peruvian,0,1,2.035495,0,38,38,15,1,16,./stim/wavs/andalusian_match_declarative-narrow-focus_Marta-abre-el-regalo.wav,./stim/wavs/argentine_match_declarative-narrow-focus_Marta-abre-el-regalo.wav,./stim/wavs/castilian_match_declarative-narrow-focus_Marta-abre-el-regalo.wav,./stim/wavs/chilean_match_declarative-narrow-focus_Marta-abre-el-regalo.wav,./stim/wavs/cuban_match_declarative-narrow-focus_Marta-abre-el-regalo.wav,./stim/wavs/mexican_match_declarative-narrow-focus_Marta-abre-el-regalo.wav,./stim/wavs/peruvian_match_declarative-narrow-focus_Marta-abre-el-regalo.wav,./stim/wavs/puertorican_match_declarative-narrow-focus_Marta-abre-el-regalo.wav,,,,,,,,,,,,,,,,,,,,,,,,,,,,,,,,,,,,,,,,,,,,,,,,,,,,,,,,
,,,,,,,5d61798f7ad20f001b74922e,6057c54e64b0b4e5c128b4f9,605939bf15a49abad460e96d,Spain,Northeast,13 or older,no,2021-03-22_20h45.03.606,empathy_intonation_perc,2020.2.10,Win32,60,,,,,,,,,,1,andalusian,0,0,2.4647,0,39,39,50,1,51,./stim/wavs/andalusian_mismatch_interrogative-partial-wh_Cuando-miraba-la-luna.wav,./stim/wavs/argentine_mismatch_interrogative-partial-wh_Cuando-miraba-la-luna.wav,./stim/wavs/castilian_mismatch_interrogative-partial-wh_Cuando-miraba-la-luna.wav,./stim/wavs/chilean_mismatch_interrogative-partial-wh_Cuando-miraba-la-luna.wav,./stim/wavs/cuban_mismatch_interrogative-partial-wh_Cuando-miraba-la-luna.wav,./stim/wavs/mexican_mismatch_interrogative-partial-wh_Cuando-miraba-la-luna.wav,./stim/wavs/peruvian_mismatch_interrogative-partial-wh_Cuando-miraba-la-luna.wav,./stim/wavs/puertorican_mismatch_interrogative-partial-wh_Cuando-miraba-la-luna.wav,,,,,,,,,,,,,,,,,,,,,,,,,,,,,,,,,,,,,,,,,,,,,,,,,,,,,,,,
,,,,,,,5d61798f7ad20f001b74922e,6057c54e64b0b4e5c128b4f9,605939bf15a49abad460e96d,Spain,Northeast,13 or older,no,2021-03-22_20h45.03.606,empathy_intonation_perc,2020.2.10,Win32,60,,,,,,,,,,0,castilian,0,1,1.69468,0,40,40,5,1,6,./stim/wavs/andalusian_match_declarative-broad-focus_Maria-bebe-el-vino.wav,./stim/wavs/argentine_match_declarative-broad-focus_Maria-bebe-el-vino.wav,./stim/wavs/castilian_match_declarative-broad-focus_Maria-bebe-el-vino.wav,./stim/wavs/chilean_match_declarative-broad-focus_Maria-bebe-el-vino.wav,./stim/wavs/cuban_match_declarative-broad-focus_Maria-bebe-el-vino.wav,./stim/wavs/mexican_match_declarative-broad-focus_Maria-bebe-el-vino.wav,./stim/wavs/peruvian_match_declarative-broad-focus_Maria-bebe-el-vino.wav,./stim/wavs/puertorican_match_declarative-broad-focus_Maria-bebe-el-vino.wav,,,,,,,,,,,,,,,,,,,,,,,,,,,,,,,,,,,,,,,,,,,,,,,,,,,,,,,,
,,,,,,,5d61798f7ad20f001b74922e,6057c54e64b0b4e5c128b4f9,605939bf15a49abad460e96d,Spain,Northeast,13 or older,no,2021-03-22_20h45.03.606,empathy_intonation_perc,2020.2.10,Win32,60,,,,,,,,,,1,argentine,1,1,1.773375,0,41,41,30,1,31,./stim/wavs/andalusian_match_interrogative-total-yn_Mariano-habla-del-tiempo.wav,./stim/wavs/argentine_match_interrogative-total-yn_Mariano-habla-del-tiempo.wav,./stim/wavs/castilian_match_interrogative-total-yn_Mariano-habla-del-tiempo.wav,./stim/wavs/chilean_match_interrogative-total-yn_Mariano-habla-del-tiempo.wav,./stim/wavs/cuban_match_interrogative-total-yn_Mariano-habla-del-tiempo.wav,./stim/wavs/mexican_match_interrogative-total-yn_Mariano-habla-del-tiempo.wav,./stim/wavs/peruvian_match_interrogative-total-yn_Mariano-habla-del-tiempo.wav,./stim/wavs/puertorican_match_interrogative-total-yn_Mariano-habla-del-tiempo.wav,,,,,,,,,,,,,,,,,,,,,,,,,,,,,,,,,,,,,,,,,,,,,,,,,,,,,,,,
,,,,,,,5d61798f7ad20f001b74922e,6057c54e64b0b4e5c128b4f9,605939bf15a49abad460e96d,Spain,Northeast,13 or older,no,2021-03-22_20h45.03.606,empathy_intonation_perc,2020.2.10,Win32,60,,,,,,,,,,1,argentine,1,1,1.732785,0,42,42,62,1,63,./stim/wavs/andalusian_mismatch_interrogative-total-yn_Mi-novio-viene-del-lago.wav,./stim/wavs/argentine_mismatch_interrogative-total-yn_Mi-novio-viene-del-lago.wav,./stim/wavs/castilian_mismatch_interrogative-total-yn_Mi-novio-viene-del-lago.wav,./stim/wavs/chilean_mismatch_interrogative-total-yn_Mi-novio-viene-del-lago.wav,./stim/wavs/cuban_mismatch_interrogative-total-yn_Mi-novio-viene-del-lago.wav,./stim/wavs/mexican_mismatch_interrogative-total-yn_Mi-novio-viene-del-lago.wav,./stim/wavs/peruvian_mismatch_interrogative-total-yn_Mi-novio-viene-del-lago.wav,./stim/wavs/puertorican_mismatch_interrogative-total-yn_Mi-novio-viene-del-lago.wav,,,,,,,,,,,,,,,,,,,,,,,,,,,,,,,,,,,,,,,,,,,,,,,,,,,,,,,,
,,,,,,,5d61798f7ad20f001b74922e,6057c54e64b0b4e5c128b4f9,605939bf15a49abad460e96d,Spain,Northeast,13 or older,no,2021-03-22_20h45.03.606,empathy_intonation_perc,2020.2.10,Win32,60,,,,,,,,,,1,andalusian,1,1,1.67357,0,43,43,27,1,28,./stim/wavs/andalusian_match_interrogative-total-yn_Emilio-ama-la-marcha.wav,./stim/wavs/argentine_match_interrogative-total-yn_Emilio-ama-la-marcha.wav,./stim/wavs/castilian_match_interrogative-total-yn_Emilio-ama-la-marcha.wav,./stim/wavs/chilean_match_interrogative-total-yn_Emilio-ama-la-marcha.wav,./stim/wavs/cuban_match_interrogative-total-yn_Emilio-ama-la-marcha.wav,./stim/wavs/mexican_match_interrogative-total-yn_Emilio-ama-la-marcha.wav,./stim/wavs/peruvian_match_interrogative-total-yn_Emilio-ama-la-marcha.wav,./stim/wavs/puertorican_match_interrogative-total-yn_Emilio-ama-la-marcha.wav,,,,,,,,,,,,,,,,,,,,,,,,,,,,,,,,,,,,,,,,,,,,,,,,,,,,,,,,
,,,,,,,5d61798f7ad20f001b74922e,6057c54e64b0b4e5c128b4f9,605939bf15a49abad460e96d,Spain,Northeast,13 or older,no,2021-03-22_20h45.03.606,empathy_intonation_perc,2020.2.10,Win32,60,,,,,,,,,,0,andalusian,0,1,1.58505,0,44,44,34,1,35,./stim/wavs/andalusian_mismatch_declarative-broad-focus_El-nino-oye-el-rio.wav,./stim/wavs/argentine_mismatch_declarative-broad-focus_El-nino-oye-el-rio.wav,./stim/wavs/castilian_mismatch_declarative-broad-focus_El-nino-oye-el-rio.wav,./stim/wavs/chilean_mismatch_declarative-broad-focus_El-nino-oye-el-rio.wav,./stim/wavs/cuban_mismatch_declarative-broad-focus_El-nino-oye-el-rio.wav,./stim/wavs/mexican_mismatch_declarative-broad-focus_El-nino-oye-el-rio.wav,./stim/wavs/peruvian_mismatch_declarative-broad-focus_El-nino-oye-el-rio.wav,./stim/wavs/puertorican_mismatch_declarative-broad-focus_El-nino-oye-el-rio.wav,,,,,,,,,,,,,,,,,,,,,,,,,,,,,,,,,,,,,,,,,,,,,,,,,,,,,,,,
,,,,,,,5d61798f7ad20f001b74922e,6057c54e64b0b4e5c128b4f9,605939bf15a49abad460e96d,Spain,Northeast,13 or older,no,2021-03-22_20h45.03.606,empathy_intonation_perc,2020.2.10,Win32,60,,,,,,,,,,0,chilean,0,1,1.863565,0,45,45,38,1,39,./stim/wavs/andalusian_mismatch_declarative-broad-focus_Mi-novio-viene-del-lago.wav,./stim/wavs/argentine_mismatch_declarative-broad-focus_Mi-novio-viene-del-lago.wav,./stim/wavs/castilian_mismatch_declarative-broad-focus_Mi-novio-viene-del-lago.wav,./stim/wavs/chilean_mismatch_declarative-broad-focus_Mi-novio-viene-del-lago.wav,./stim/wavs/cuban_mismatch_declarative-broad-focus_Mi-novio-viene-del-lago.wav,./stim/wavs/mexican_mismatch_declarative-broad-focus_Mi-novio-viene-del-lago.wav,./stim/wavs/peruvian_mismatch_declarative-broad-focus_Mi-novio-viene-del-lago.wav,./stim/wavs/puertorican_mismatch_declarative-broad-focus_Mi-novio-viene-del-lago.wav,,,,,,,,,,,,,,,,,,,,,,,,,,,,,,,,,,,,,,,,,,,,,,,,,,,,,,,,
,,,,,,,5d61798f7ad20f001b74922e,6057c54e64b0b4e5c128b4f9,605939bf15a49abad460e96d,Spain,Northeast,13 or older,no,2021-03-22_20h45.03.606,empathy_intonation_perc,2020.2.10,Win32,60,,,,,,,,,,0,castilian,0,1,1.653185,0,46,46,10,1,11,./stim/wavs/andalusian_match_declarative-narrow-focus_David-leia-el-libro.wav,./stim/wavs/argentine_match_declarative-narrow-focus_David-leia-el-libro.wav,./stim/wavs/castilian_match_declarative-narrow-focus_David-leia-el-libro.wav,./stim/wavs/chilean_match_declarative-narrow-focus_David-leia-el-libro.wav,./stim/wavs/cuban_match_declarative-narrow-focus_David-leia-el-libro.wav,./stim/wavs/mexican_match_declarative-narrow-focus_David-leia-el-libro.wav,./stim/wavs/peruvian_match_declarative-narrow-focus_David-leia-el-libro.wav,./stim/wavs/puertorican_match_declarative-narrow-focus_David-leia-el-libro.wav,,,,,,,,,,,,,,,,,,,,,,,,,,,,,,,,,,,,,,,,,,,,,,,,,,,,,,,,
,,,,,,,5d61798f7ad20f001b74922e,6057c54e64b0b4e5c128b4f9,605939bf15a49abad460e96d,Spain,Northeast,13 or older,no,2021-03-22_20h45.03.606,empathy_intonation_perc,2020.2.10,Win32,60,,,,,,,,,,1,mexican,1,1,1.564615,0,47,47,63,1,64,./stim/wavs/andalusian_mismatch_interrogative-total-yn_Mi-tia-odia-la-lluvia.wav,./stim/wavs/argentine_mismatch_interrogative-total-yn_Mi-tia-odia-la-lluvia.wav,./stim/wavs/castilian_mismatch_interrogative-total-yn_Mi-tia-odia-la-lluvia.wav,./stim/wavs/chilean_mismatch_interrogative-total-yn_Mi-tia-odia-la-lluvia.wav,./stim/wavs/cuban_mismatch_interrogative-total-yn_Mi-tia-odia-la-lluvia.wav,./stim/wavs/mexican_mismatch_interrogative-total-yn_Mi-tia-odia-la-lluvia.wav,./stim/wavs/peruvian_mismatch_interrogative-total-yn_Mi-tia-odia-la-lluvia.wav,./stim/wavs/puertorican_mismatch_interrogative-total-yn_Mi-tia-odia-la-lluvia.wav,,,,,,,,,,,,,,,,,,,,,,,,,,,,,,,,,,,,,,,,,,,,,,,,,,,,,,,,
,,,,,,,5d61798f7ad20f001b74922e,6057c54e64b0b4e5c128b4f9,605939bf15a49abad460e96d,Spain,Northeast,13 or older,no,2021-03-22_20h45.03.606,empathy_intonation_perc,2020.2.10,Win32,60,,,,,,,,,,0,andalusian,0,1,1.62163,0,48,48,8,1,9,./stim/wavs/andalusian_match_declarative-narrow-focus_Ana-lleva-el-abrigo.wav,./stim/wavs/argentine_match_declarative-narrow-focus_Ana-lleva-el-abrigo.wav,./stim/wavs/castilian_match_declarative-narrow-focus_Ana-lleva-el-abrigo.wav,./stim/wavs/chilean_match_declarative-narrow-focus_Ana-lleva-el-abrigo.wav,./stim/wavs/cuban_match_declarative-narrow-focus_Ana-lleva-el-abrigo.wav,./stim/wavs/mexican_match_declarative-narrow-focus_Ana-lleva-el-abrigo.wav,./stim/wavs/peruvian_match_declarative-narrow-focus_Ana-lleva-el-abrigo.wav,./stim/wavs/puertorican_match_declarative-narrow-focus_Ana-lleva-el-abrigo.wav,,,,,,,,,,,,,,,,,,,,,,,,,,,,,,,,,,,,,,,,,,,,,,,,,,,,,,,,
,,,,,,,5d61798f7ad20f001b74922e,6057c54e64b0b4e5c128b4f9,605939bf15a49abad460e96d,Spain,Northeast,13 or older,no,2021-03-22_20h45.03.606,empathy_intonation_perc,2020.2.10,Win32,60,,,,,,,,,,1,cuban,0,0,1.49337,0,49,49,19,1,20,./stim/wavs/andalusian_match_interrogative-partial-wh_Cuando-vendia-el-carro.wav,./stim/wavs/argentine_match_interrogative-partial-wh_Cuando-vendia-el-carro.wav,./stim/wavs/castilian_match_interrogative-partial-wh_Cuando-vendia-el-carro.wav,./stim/wavs/chilean_match_interrogative-partial-wh_Cuando-vendia-el-carro.wav,./stim/wavs/cuban_match_interrogative-partial-wh_Cuando-vendia-el-carro.wav,./stim/wavs/mexican_match_interrogative-partial-wh_Cuando-vendia-el-carro.wav,./stim/wavs/peruvian_match_interrogative-partial-wh_Cuando-vendia-el-carro.wav,./stim/wavs/puertorican_match_interrogative-partial-wh_Cuando-vendia-el-carro.wav,,,,,,,,,,,,,,,,,,,,,,,,,,,,,,,,,,,,,,,,,,,,,,,,,,,,,,,,
,,,,,,,5d61798f7ad20f001b74922e,6057c54e64b0b4e5c128b4f9,605939bf15a49abad460e96d,Spain,Northeast,13 or older,no,2021-03-22_20h45.03.606,empathy_intonation_perc,2020.2.10,Win32,60,,,,,,,,,,1,puertorican,0,0,1.61447,0,50,50,29,1,30,./stim/wavs/andalusian_match_interrogative-total-yn_Maria-bebe-el-vino.wav,./stim/wavs/argentine_match_interrogative-total-yn_Maria-bebe-el-vino.wav,./stim/wavs/castilian_match_interrogative-total-yn_Maria-bebe-el-vino.wav,./stim/wavs/chilean_match_interrogative-total-yn_Maria-bebe-el-vino.wav,./stim/wavs/cuban_match_interrogative-total-yn_Maria-bebe-el-vino.wav,./stim/wavs/mexican_match_interrogative-total-yn_Maria-bebe-el-vino.wav,./stim/wavs/peruvian_match_interrogative-total-yn_Maria-bebe-el-vino.wav,./stim/wavs/puertorican_match_interrogative-total-yn_Maria-bebe-el-vino.wav,,,,,,,,,,,,,,,,,,,,,,,,,,,,,,,,,,,,,,,,,,,,,,,,,,,,,,,,
,,,,,,,5d61798f7ad20f001b74922e,6057c54e64b0b4e5c128b4f9,605939bf15a49abad460e96d,Spain,Northeast,13 or older,no,2021-03-22_20h45.03.606,empathy_intonation_perc,2020.2.10,Win32,60,,,,,,,,,,0,chilean,0,1,1.54418,0,51,51,37,1,38,./stim/wavs/andalusian_mismatch_declarative-broad-focus_Mi-madre-come-la-fruta.wav,./stim/wavs/argentine_mismatch_declarative-broad-focus_Mi-madre-come-la-fruta.wav,./stim/wavs/castilian_mismatch_declarative-broad-focus_Mi-madre-come-la-fruta.wav,./stim/wavs/chilean_mismatch_declarative-broad-focus_Mi-madre-come-la-fruta.wav,./stim/wavs/cuban_mismatch_declarative-broad-focus_Mi-madre-come-la-fruta.wav,./stim/wavs/mexican_mismatch_declarative-broad-focus_Mi-madre-come-la-fruta.wav,./stim/wavs/peruvian_mismatch_declarative-broad-focus_Mi-madre-come-la-fruta.wav,./stim/wavs/puertorican_mismatch_declarative-broad-focus_Mi-madre-come-la-fruta.wav,,,,,,,,,,,,,,,,,,,,,,,,,,,,,,,,,,,,,,,,,,,,,,,,,,,,,,,,
,,,,,,,5d61798f7ad20f001b74922e,6057c54e64b0b4e5c128b4f9,605939bf15a49abad460e96d,Spain,Northeast,13 or older,no,2021-03-22_20h45.03.606,empathy_intonation_perc,2020.2.10,Win32,60,,,,,,,,,,0,peruvian,0,1,3.17204,0,52,52,46,1,47,./stim/wavs/andalusian_mismatch_declarative-narrow-focus_Mi-novio-viene-del-lago.wav,./stim/wavs/argentine_mismatch_declarative-narrow-focus_Mi-novio-viene-del-lago.wav,./stim/wavs/castilian_mismatch_declarative-narrow-focus_Mi-novio-viene-del-lago.wav,./stim/wavs/chilean_mismatch_declarative-narrow-focus_Mi-novio-viene-del-lago.wav,./stim/wavs/cuban_mismatch_declarative-narrow-focus_Mi-novio-viene-del-lago.wav,./stim/wavs/mexican_mismatch_declarative-narrow-focus_Mi-novio-viene-del-lago.wav,./stim/wavs/peruvian_mismatch_declarative-narrow-focus_Mi-novio-viene-del-lago.wav,./stim/wavs/puertorican_mismatch_declarative-narrow-focus_Mi-novio-viene-del-lago.wav,,,,,,,,,,,,,,,,,,,,,,,,,,,,,,,,,,,,,,,,,,,,,,,,,,,,,,,,
,,,,,,,5d61798f7ad20f001b74922e,6057c54e64b0b4e5c128b4f9,605939bf15a49abad460e96d,Spain,Northeast,13 or older,no,2021-03-22_20h45.03.606,empathy_intonation_perc,2020.2.10,Win32,60,,,,,,,,,,0,chilean,0,1,1.639455,0,53,53,44,1,45,./stim/wavs/andalusian_mismatch_declarative-narrow-focus_La-nina-lava-el-plato.wav,./stim/wavs/argentine_mismatch_declarative-narrow-focus_La-nina-lava-el-plato.wav,./stim/wavs/castilian_mismatch_declarative-narrow-focus_La-nina-lava-el-plato.wav,./stim/wavs/chilean_mismatch_declarative-narrow-focus_La-nina-lava-el-plato.wav,./stim/wavs/cuban_mismatch_declarative-narrow-focus_La-nina-lava-el-plato.wav,./stim/wavs/mexican_mismatch_declarative-narrow-focus_La-nina-lava-el-plato.wav,./stim/wavs/peruvian_mismatch_declarative-narrow-focus_La-nina-lava-el-plato.wav,./stim/wavs/puertorican_mismatch_declarative-narrow-focus_La-nina-lava-el-plato.wav,,,,,,,,,,,,,,,,,,,,,,,,,,,,,,,,,,,,,,,,,,,,,,,,,,,,,,,,
,,,,,,,5d61798f7ad20f001b74922e,6057c54e64b0b4e5c128b4f9,605939bf15a49abad460e96d,Spain,Northeast,13 or older,no,2021-03-22_20h45.03.606,empathy_intonation_perc,2020.2.10,Win32,60,,,,,,,,,,1,mexican,0,0,1.75427,0,54,54,49,1,50,./stim/wavs/andalusian_mismatch_interrogative-partial-wh_Cuando-lavaba-el-plato.wav,./stim/wavs/argentine_mismatch_interrogative-partial-wh_Cuando-lavaba-el-plato.wav,./stim/wavs/castilian_mismatch_interrogative-partial-wh_Cuando-lavaba-el-plato.wav,./stim/wavs/chilean_mismatch_interrogative-partial-wh_Cuando-lavaba-el-plato.wav,./stim/wavs/cuban_mismatch_interrogative-partial-wh_Cuando-lavaba-el-plato.wav,./stim/wavs/mexican_mismatch_interrogative-partial-wh_Cuando-lavaba-el-plato.wav,./stim/wavs/peruvian_mismatch_interrogative-partial-wh_Cuando-lavaba-el-plato.wav,./stim/wavs/puertorican_mismatch_interrogative-partial-wh_Cuando-lavaba-el-plato.wav,,,,,,,,,,,,,,,,,,,,,,,,,,,,,,,,,,,,,,,,,,,,,,,,,,,,,,,,
,,,,,,,5d61798f7ad20f001b74922e,6057c54e64b0b4e5c128b4f9,605939bf15a49abad460e96d,Spain,Northeast,13 or older,no,2021-03-22_20h45.03.606,empathy_intonation_perc,2020.2.10,Win32,60,,,,,,,,,,1,mexican,1,1,1.97097,0,55,55,56,1,57,./stim/wavs/andalusian_mismatch_interrogative-total-yn_El-bebe-comia-muy-bien.wav,./stim/wavs/argentine_mismatch_interrogative-total-yn_El-bebe-comia-muy-bien.wav,./stim/wavs/castilian_mismatch_interrogative-total-yn_El-bebe-comia-muy-bien.wav,./stim/wavs/chilean_mismatch_interrogative-total-yn_El-bebe-comia-muy-bien.wav,./stim/wavs/cuban_mismatch_interrogative-total-yn_El-bebe-comia-muy-bien.wav,./stim/wavs/mexican_mismatch_interrogative-total-yn_El-bebe-comia-muy-bien.wav,./stim/wavs/peruvian_mismatch_interrogative-total-yn_El-bebe-comia-muy-bien.wav,./stim/wavs/puertorican_mismatch_interrogative-total-yn_El-bebe-comia-muy-bien.wav,,,,,,,,,,,,,,,,,,,,,,,,,,,,,,,,,,,,,,,,,,,,,,,,,,,,,,,,
,,,,,,,5d61798f7ad20f001b74922e,6057c54e64b0b4e5c128b4f9,605939bf15a49abad460e96d,Spain,Northeast,13 or older,no,2021-03-22_20h45.03.606,empathy_intonation_perc,2020.2.10,Win32,60,,,,,,,,,,0,peruvian,0,1,1.632235,0,56,56,0,1,1,./stim/wavs/andalusian_match_declarative-broad-focus_Ana-lleva-el-abrigo.wav,./stim/wavs/argentine_match_declarative-broad-focus_Ana-lleva-el-abrigo.wav,./stim/wavs/castilian_match_declarative-broad-focus_Ana-lleva-el-abrigo.wav,./stim/wavs/chilean_match_declarative-broad-focus_Ana-lleva-el-abrigo.wav,./stim/wavs/cuban_match_declarative-broad-focus_Ana-lleva-el-abrigo.wav,./stim/wavs/mexican_match_declarative-broad-focus_Ana-lleva-el-abrigo.wav,./stim/wavs/peruvian_match_declarative-broad-focus_Ana-lleva-el-abrigo.wav,./stim/wavs/puertorican_match_declarative-broad-focus_Ana-lleva-el-abrigo.wav,,,,,,,,,,,,,,,,,,,,,,,,,,,,,,,,,,,,,,,,,,,,,,,,,,,,,,,,
,,,,,,,5d61798f7ad20f001b74922e,6057c54e64b0b4e5c128b4f9,605939bf15a49abad460e96d,Spain,Northeast,13 or older,no,2021-03-22_20h45.03.606,empathy_intonation_perc,2020.2.10,Win32,60,,,,,,,,,,1,castilian,1,1,1.829965,0,57,57,54,1,55,./stim/wavs/andalusian_mismatch_interrogative-partial-wh_Por-que-venia-del-lago.wav,./stim/wavs/argentine_mismatch_interrogative-partial-wh_Por-que-venia-del-lago.wav,./stim/wavs/castilian_mismatch_interrogative-partial-wh_Por-que-venia-del-lago.wav,./stim/wavs/chilean_mismatch_interrogative-partial-wh_Por-que-venia-del-lago.wav,./stim/wavs/cuban_mismatch_interrogative-partial-wh_Por-que-venia-del-lago.wav,./stim/wavs/mexican_mismatch_interrogative-partial-wh_Por-que-venia-del-lago.wav,./stim/wavs/peruvian_mismatch_interrogative-partial-wh_Por-que-venia-del-lago.wav,./stim/wavs/puertorican_mismatch_interrogative-partial-wh_Por-que-venia-del-lago.wav,,,,,,,,,,,,,,,,,,,,,,,,,,,,,,,,,,,,,,,,,,,,,,,,,,,,,,,,
,,,,,,,5d61798f7ad20f001b74922e,6057c54e64b0b4e5c128b4f9,605939bf15a49abad460e96d,Spain,Northeast,13 or older,no,2021-03-22_20h45.03.606,empathy_intonation_perc,2020.2.10,Win32,60,,,,,,,,,,0,castilian,0,1,1.75148,0,58,58,1,1,2,./stim/wavs/andalusian_match_declarative-broad-focus_Daniel-iba-a-Bolivia.wav,./stim/wavs/argentine_match_declarative-broad-focus_Daniel-iba-a-Bolivia.wav,./stim/wavs/castilian_match_declarative-broad-focus_Daniel-iba-a-Bolivia.wav,./stim/wavs/chilean_match_declarative-broad-focus_Daniel-iba-a-Bolivia.wav,./stim/wavs/cuban_match_declarative-broad-focus_Daniel-iba-a-Bolivia.wav,./stim/wavs/mexican_match_declarative-broad-focus_Daniel-iba-a-Bolivia.wav,./stim/wavs/peruvian_match_declarative-broad-focus_Daniel-iba-a-Bolivia.wav,./stim/wavs/puertorican_match_declarative-broad-focus_Daniel-iba-a-Bolivia.wav,,,,,,,,,,,,,,,,,,,,,,,,,,,,,,,,,,,,,,,,,,,,,,,,,,,,,,,,
,,,,,,,5d61798f7ad20f001b74922e,6057c54e64b0b4e5c128b4f9,605939bf15a49abad460e96d,Spain,Northeast,13 or older,no,2021-03-22_20h45.03.606,empathy_intonation_perc,2020.2.10,Win32,60,,,,,,,,,,0,peruvian,0,1,2.257715,0,59,59,40,1,41,./stim/wavs/andalusian_mismatch_declarative-narrow-focus_El-bebe-comia-muy-bien.wav,./stim/wavs/argentine_mismatch_declarative-narrow-focus_El-bebe-comia-muy-bien.wav,./stim/wavs/castilian_mismatch_declarative-narrow-focus_El-bebe-comia-muy-bien.wav,./stim/wavs/chilean_mismatch_declarative-narrow-focus_El-bebe-comia-muy-bien.wav,./stim/wavs/cuban_mismatch_declarative-narrow-focus_El-bebe-comia-muy-bien.wav,./stim/wavs/mexican_mismatch_declarative-narrow-focus_El-bebe-comia-muy-bien.wav,./stim/wavs/peruvian_mismatch_declarative-narrow-focus_El-bebe-comia-muy-bien.wav,./stim/wavs/puertorican_mismatch_declarative-narrow-focus_El-bebe-comia-muy-bien.wav,,,,,,,,,,,,,,,,,,,,,,,,,,,,,,,,,,,,,,,,,,,,,,,,,,,,,,,,
,,,,,,,5d61798f7ad20f001b74922e,6057c54e64b0b4e5c128b4f9,605939bf15a49abad460e96d,Spain,Northeast,13 or older,no,2021-03-22_20h45.03.606,empathy_intonation_perc,2020.2.10,Win32,60,,,,,,,,,,1,cuban,0,0,3.08384,0,60,60,31,1,32,./stim/wavs/andalusian_match_interrogative-total-yn_Marta-abre-el-regalo.wav,./stim/wavs/argentine_match_interrogative-total-yn_Marta-abre-el-regalo.wav,./stim/wavs/castilian_match_interrogative-total-yn_Marta-abre-el-regalo.wav,./stim/wavs/chilean_match_interrogative-total-yn_Marta-abre-el-regalo.wav,./stim/wavs/cuban_match_interrogative-total-yn_Marta-abre-el-regalo.wav,./stim/wavs/mexican_match_interrogative-total-yn_Marta-abre-el-regalo.wav,./stim/wavs/peruvian_match_interrogative-total-yn_Marta-abre-el-regalo.wav,./stim/wavs/puertorican_match_interrogative-total-yn_Marta-abre-el-regalo.wav,,,,,,,,,,,,,,,,,,,,,,,,,,,,,,,,,,,,,,,,,,,,,,,,,,,,,,,,
,,,,,,,5d61798f7ad20f001b74922e,6057c54e64b0b4e5c128b4f9,605939bf15a49abad460e96d,Spain,Northeast,13 or older,no,2021-03-22_20h45.03.606,empathy_intonation_perc,2020.2.10,Win32,60,,,,,,,,,,0,mexican,0,1,1.51305,0,61,61,14,1,15,./stim/wavs/andalusian_match_declarative-narrow-focus_Mariano-habla-del-tiempo.wav,./stim/wavs/argentine_match_declarative-narrow-focus_Mariano-habla-del-tiempo.wav,./stim/wavs/castilian_match_declarative-narrow-focus_Mariano-habla-del-tiempo.wav,./stim/wavs/chilean_match_declarative-narrow-focus_Mariano-habla-del-tiempo.wav,./stim/wavs/cuban_match_declarative-narrow-focus_Mariano-habla-del-tiempo.wav,./stim/wavs/mexican_match_declarative-narrow-focus_Mariano-habla-del-tiempo.wav,./stim/wavs/peruvian_match_declarative-narrow-focus_Mariano-habla-del-tiempo.wav,./stim/wavs/puertorican_match_declarative-narrow-focus_Mariano-habla-del-tiempo.wav,,,,,,,,,,,,,,,,,,,,,,,,,,,,,,,,,,,,,,,,,,,,,,,,,,,,,,,,
,,,,,,,5d61798f7ad20f001b74922e,6057c54e64b0b4e5c128b4f9,605939bf15a49abad460e96d,Spain,Northeast,13 or older,no,2021-03-22_20h45.03.606,empathy_intonation_perc,2020.2.10,Win32,60,,,,,,,,,,1,peruvian,1,1,1.77413,0,62,62,26,1,27,./stim/wavs/andalusian_match_interrogative-total-yn_David-leia-el-libro.wav,./stim/wavs/argentine_match_interrogative-total-yn_David-leia-el-libro.wav,./stim/wavs/castilian_match_interrogative-total-yn_David-leia-el-libro.wav,./stim/wavs/chilean_match_interrogative-total-yn_David-leia-el-libro.wav,./stim/wavs/cuban_match_interrogative-total-yn_David-leia-el-libro.wav,./stim/wavs/mexican_match_interrogative-total-yn_David-leia-el-libro.wav,./stim/wavs/peruvian_match_interrogative-total-yn_David-leia-el-libro.wav,./stim/wavs/puertorican_match_interrogative-total-yn_David-leia-el-libro.wav,,,,,,,,,,,,,,,,,,,,,,,,,,,,,,,,,,,,,,,,,,,,,,,,,,,,,,,,
,,,,,,,5d61798f7ad20f001b74922e,6057c54e64b0b4e5c128b4f9,605939bf15a49abad460e96d,Spain,Northeast,13 or older,no,2021-03-22_20h45.03.606,empathy_intonation_perc,2020.2.10,Win32,60,,,,,,,,,,0,argentine,0,1,1.590615,0,63,63,47,1,48,./stim/wavs/andalusian_mismatch_declarative-narrow-focus_Mi-tia-odia-la-lluvia.wav,./stim/wavs/argentine_mismatch_declarative-narrow-focus_Mi-tia-odia-la-lluvia.wav,./stim/wavs/castilian_mismatch_declarative-narrow-focus_Mi-tia-odia-la-lluvia.wav,./stim/wavs/chilean_mismatch_declarative-narrow-focus_Mi-tia-odia-la-lluvia.wav,./stim/wavs/cuban_mismatch_declarative-narrow-focus_Mi-tia-odia-la-lluvia.wav,./stim/wavs/mexican_mismatch_declarative-narrow-focus_Mi-tia-odia-la-lluvia.wav,./stim/wavs/peruvian_mismatch_declarative-narrow-focus_Mi-tia-odia-la-lluvia.wav,./stim/wavs/puertorican_mismatch_declarative-narrow-focus_Mi-tia-odia-la-lluvia.wav,,,,,,,,,,,,,,,,,,,,,,,,,,,,,,,,,,,,,,,,,,,,,,,,,,,,,,,,
,,,,,,,5d61798f7ad20f001b74922e,6057c54e64b0b4e5c128b4f9,605939bf15a49abad460e96d,Spain,Northeast,13 or older,no,2021-03-22_20h45.03.606,empathy_intonation_perc,2020.2.10,Win32,60,,,,,,,,,,,,,,,,,,,,,,,,,,,,,h,1,4.809605,0,0,0,0,1,,,,,,,,,,,,,,,,,,,,,,,,,,,,,,,,,,,,,,,,,,,,,,,,
,,,,,"Great! Now we will move on. The next task consists of about 60 trials, in each of which you will see a string of letters. 
  
  Your task is to decide whether this is a real Spanish word or not.",(press the spacebar to continue),5d61798f7ad20f001b74922e,6057c54e64b0b4e5c128b4f9,605939bf15a49abad460e96d,Spain,Northeast,13 or older,no,2021-03-22_20h45.03.606,empathy_intonation_perc,2020.2.10,Win32,60,,,,,,,,,,,,,,,,,,,,,,,,,,,,,,,,,,,,,0,0,0,0,1,,,,,,,,,,,,,,,,,,,,,,,,,,,,,,,,,,,,,,,,,,,
,,,,,"If you think it is an existing Spanish word, you type '1' (for 'REAL'), and if you think it is not an existing Spanish word, you type '0' (for 'FAKE').",(press the spacebar to continue),5d61798f7ad20f001b74922e,6057c54e64b0b4e5c128b4f9,605939bf15a49abad460e96d,Spain,Northeast,13 or older,no,2021-03-22_20h45.03.606,empathy_intonation_perc,2020.2.10,Win32,60,,,,,,,,,,,,,,,,,,,,,,,,,,,,,,,,,,,,,0,1,1,1,1,,,,,,,,,,,,,,,,,,,,,,,,,,,,,,,,,,,,,,,,,,,
,,,,,"If you are sure that the word exists, even though you dont know its exact meaning, you may still respond '1' (REAL). 
  
  But if you are not sure if it is an existing word, you should respond '0' (FAKE).
  
  Let's do a practice round...",(press the spacebar to continue),5d61798f7ad20f001b74922e,6057c54e64b0b4e5c128b4f9,605939bf15a49abad460e96d,Spain,Northeast,13 or older,no,2021-03-22_20h45.03.606,empathy_intonation_perc,2020.2.10,Win32,60,,,,,,,,,,,,,,,,,,,,,,,,,,,,,,,,,,,,,0,2,2,2,1,,,,,,,,,,,,,,,,,,,,,,,,,,,,,,,,,,,,,,,,,,,
,,,,,,,5d61798f7ad20f001b74922e,6057c54e64b0b4e5c128b4f9,605939bf15a49abad460e96d,Spain,Northeast,13 or older,no,2021-03-22_20h45.03.606,empathy_intonation_perc,2020.2.10,Win32,60,,,,,,,,,,0,,,,,,,,,,,,,,,,,,,,,,,,,,,,,,,,0,1,3.27978,0,0,0,0,1,0,depiste,REAL,FAKE,,,,,,,,,,,,,,,,,,,,,,,,,,,,,,,
,,,,,,,5d61798f7ad20f001b74922e,6057c54e64b0b4e5c128b4f9,605939bf15a49abad460e96d,Spain,Northeast,13 or older,no,2021-03-22_20h45.03.606,empathy_intonation_perc,2020.2.10,Win32,60,,,,,,,,,,1,,,,,,,,,,,,,,,,,,,,,,,,,,,,,,,,1,1,1.03176,0,1,1,1,1,0,s,REAL,FAKE,,,,,,,,,,,,,,,,,,,,,,,,,,,,,,,
,,,,,,,5d61798f7ad20f001b74922e,6057c54e64b0b4e5c128b4f9,605939bf15a49abad460e96d,Spain,Northeast,13 or older,no,2021-03-22_20h45.03.606,empathy_intonation_perc,2020.2.10,Win32,60,,,,,,,,,,0,,,,,,,,,,,,,,,,,,,,,,,,,,,,,,,,0,1,1.84477,0,2,2,2,1,0,con,REAL,FAKE,,,,,,,,,,,,,,,,,,,,,,,,,,,,,,,
,,,,,,,5d61798f7ad20f001b74922e,6057c54e64b0b4e5c128b4f9,605939bf15a49abad460e96d,Spain,Northeast,13 or older,no,2021-03-22_20h45.03.606,empathy_intonation_perc,2020.2.10,Win32,60,,,,,,,,,,0,,,,,,,,,,,,,,,,,,,,,,,,,,,,,,,,1,0,1.016975,0,3,3,3,1,0,calpar,REAL,FAKE,,,,,,,,,,,,,,,,,,,,,,,,,,,,,,,
,,,,,,,5d61798f7ad20f001b74922e,6057c54e64b0b4e5c128b4f9,605939bf15a49abad460e96d,Spain,Northeast,13 or older,no,2021-03-22_20h45.03.606,empathy_intonation_perc,2020.2.10,Win32,60,,,,,,,,,,0,,,,,,,,,,,,,,,,,,,,,,,,,,,,,,,,0,1,0.82013,0,4,4,4,1,0,joten,REAL,FAKE,,,,,,,,,,,,,,,,,,,,,,,,,,,,,,,
,,,,,,,5d61798f7ad20f001b74922e,6057c54e64b0b4e5c128b4f9,605939bf15a49abad460e96d,Spain,Northeast,13 or older,no,2021-03-22_20h45.03.606,empathy_intonation_perc,2020.2.10,Win32,60,,,,,,,,,,1,,,,,,,,,,,,,,,,,,,,,,,,,,,,,,,,1,1,2.36565,0,5,5,5,1,0,sacapuntas,REAL,FAKE,,,,,,,,,,,,,,,,,,,,,,,,,,,,,,,
,,,,,,,5d61798f7ad20f001b74922e,6057c54e64b0b4e5c128b4f9,605939bf15a49abad460e96d,Spain,Northeast,13 or older,no,2021-03-22_20h45.03.606,empathy_intonation_perc,2020.2.10,Win32,60,,,,,,,,,,0,,,,,,,,,,,,,,,,,,,,,,,,,,,,,,,,1,0,1.151095,0,6,6,6,1,0,priba,REAL,FAKE,,,,,,,,,,,,,,,,,,,,,,,,,,,,,,,
,,,,,,,5d61798f7ad20f001b74922e,6057c54e64b0b4e5c128b4f9,605939bf15a49abad460e96d,Spain,Northeast,13 or older,no,2021-03-22_20h45.03.606,empathy_intonation_perc,2020.2.10,Win32,60,,,,,,,,,,0,,,,,,,,,,,,,,,,,,,,,,,,,,,,,,,,0,1,2.170405,0,7,7,7,1,0,pelasula,REAL,FAKE,,,,,,,,,,,,,,,,,,,,,,,,,,,,,,,
,,,,,,,5d61798f7ad20f001b74922e,6057c54e64b0b4e5c128b4f9,605939bf15a49abad460e96d,Spain,Northeast,13 or older,no,2021-03-22_20h45.03.606,empathy_intonation_perc,2020.2.10,Win32,60,,,,,,,,,,1,,,,,,,,,,,,,,,,,,,,,,,,,,,,,,,,1,1,0.700885,0,8,8,8,1,0,bien,REAL,FAKE,,,,,,,,,,,,,,,,,,,,,,,,,,,,,,,
,,,,,,,5d61798f7ad20f001b74922e,6057c54e64b0b4e5c128b4f9,605939bf15a49abad460e96d,Spain,Northeast,13 or older,no,2021-03-22_20h45.03.606,empathy_intonation_perc,2020.2.10,Win32,60,,,,,,,,,,1,,,,,,,,,,,,,,,,,,,,,,,,,,,,,,,,1,1,0.747175,0,9,9,9,1,0,casa,REAL,FAKE,,,,,,,,,,,,,,,,,,,,,,,,,,,,,,,
,,,,,,,5d61798f7ad20f001b74922e,6057c54e64b0b4e5c128b4f9,605939bf15a49abad460e96d,Spain,Northeast,13 or older,no,2021-03-22_20h45.03.606,empathy_intonation_perc,2020.2.10,Win32,60,,,,,,,,,,0,,,,,,,,,,,,,,,,,,,,,,,,,,,,,,,,1,0,1.150565,0,10,10,10,1,0,lejo,REAL,FAKE,,,,,,,,,,,,,,,,,,,,,,,,,,,,,,,
,,,,,,,5d61798f7ad20f001b74922e,6057c54e64b0b4e5c128b4f9,605939bf15a49abad460e96d,Spain,Northeast,13 or older,no,2021-03-22_20h45.03.606,empathy_intonation_perc,2020.2.10,Win32,60,,,,,,,,,,0,,,,,,,,,,,,,,,,,,,,,,,,,,,,,,,,0,1,2.372465,0,11,11,11,1,0,pretantas,REAL,FAKE,,,,,,,,,,,,,,,,,,,,,,,,,,,,,,,
,,,,,,,5d61798f7ad20f001b74922e,6057c54e64b0b4e5c128b4f9,605939bf15a49abad460e96d,Spain,Northeast,13 or older,no,2021-03-22_20h45.03.606,empathy_intonation_perc,2020.2.10,Win32,60,,,,,,,,,,1,,,,,,,,,,,,,,,,,,,,,,,,,,,,,,,,,,,,,,,,31,pandilla,,,1,1,1.20717,0,0,0,30,1,REAL,FAKE,,,,,,,,,,,,,,,,,,,,,
,,,,,,,5d61798f7ad20f001b74922e,6057c54e64b0b4e5c128b4f9,605939bf15a49abad460e96d,Spain,Northeast,13 or older,no,2021-03-22_20h45.03.606,empathy_intonation_perc,2020.2.10,Win32,60,,,,,,,,,,1,,,,,,,,,,,,,,,,,,,,,,,,,,,,,,,,,,,,,,,,57,tacao,,,1,1,1.575355,0,1,1,56,1,REAL,FAKE,,,,,,,,,,,,,,,,,,,,,
,,,,,,,5d61798f7ad20f001b74922e,6057c54e64b0b4e5c128b4f9,605939bf15a49abad460e96d,Spain,Northeast,13 or older,no,2021-03-22_20h45.03.606,empathy_intonation_perc,2020.2.10,Win32,60,,,,,,,,,,1,,,,,,,,,,,,,,,,,,,,,,,,,,,,,,,,,,,,,,,,52,camisa,,,1,1,0.863505,0,2,2,51,1,REAL,FAKE,,,,,,,,,,,,,,,,,,,,,
,,,,,,,5d61798f7ad20f001b74922e,6057c54e64b0b4e5c128b4f9,605939bf15a49abad460e96d,Spain,Northeast,13 or older,no,2021-03-22_20h45.03.606,empathy_intonation_perc,2020.2.10,Win32,60,,,,,,,,,,1,,,,,,,,,,,,,,,,,,,,,,,,,,,,,,,,,,,,,,,,25,bisagra,,,0,0,1.265195,0,3,3,24,1,REAL,FAKE,,,,,,,,,,,,,,,,,,,,,
,,,,,,,5d61798f7ad20f001b74922e,6057c54e64b0b4e5c128b4f9,605939bf15a49abad460e96d,Spain,Northeast,13 or older,no,2021-03-22_20h45.03.606,empathy_intonation_perc,2020.2.10,Win32,60,,,,,,,,,,0,,,,,,,,,,,,,,,,,,,,,,,,,,,,,,,,,,,,,,,,74,cintro,,,0,1,1.465815,0,4,4,73,1,REAL,FAKE,,,,,,,,,,,,,,,,,,,,,
,,,,,,,5d61798f7ad20f001b74922e,6057c54e64b0b4e5c128b4f9,605939bf15a49abad460e96d,Spain,Northeast,13 or older,no,2021-03-22_20h45.03.606,empathy_intonation_perc,2020.2.10,Win32,60,,,,,,,,,,1,,,,,,,,,,,,,,,,,,,,,,,,,,,,,,,,,,,,,,,,36,loro,,,1,1,3.07324,0,5,5,35,1,REAL,FAKE,,,,,,,,,,,,,,,,,,,,,
,,,,,,,5d61798f7ad20f001b74922e,6057c54e64b0b4e5c128b4f9,605939bf15a49abad460e96d,Spain,Northeast,13 or older,no,2021-03-22_20h45.03.606,empathy_intonation_perc,2020.2.10,Win32,60,,,,,,,,,,1,,,,,,,,,,,,,,,,,,,,,,,,,,,,,,,,,,,,,,,,38,estornudar,,,0,0,2.60078,0,6,6,37,1,REAL,FAKE,,,,,,,,,,,,,,,,,,,,,
,,,,,,,5d61798f7ad20f001b74922e,6057c54e64b0b4e5c128b4f9,605939bf15a49abad460e96d,Spain,Northeast,13 or older,no,2021-03-22_20h45.03.606,empathy_intonation_perc,2020.2.10,Win32,60,,,,,,,,,,1,,,,,,,,,,,,,,,,,,,,,,,,,,,,,,,,,,,,,,,,67,cabello,,,1,1,0.95111,0,7,7,66,1,REAL,FAKE,,,,,,,,,,,,,,,,,,,,,
,,,,,,,5d61798f7ad20f001b74922e,6057c54e64b0b4e5c128b4f9,605939bf15a49abad460e96d,Spain,Northeast,13 or older,no,2021-03-22_20h45.03.606,empathy_intonation_perc,2020.2.10,Win32,60,,,,,,,,,,0,,,,,,,,,,,,,,,,,,,,,,,,,,,,,,,,,,,,,,,,82,empirador,,,1,0,2.385975,0,8,8,81,1,REAL,FAKE,,,,,,,,,,,,,,,,,,,,,
,,,,,,,5d61798f7ad20f001b74922e,6057c54e64b0b4e5c128b4f9,605939bf15a49abad460e96d,Spain,Northeast,13 or older,no,2021-03-22_20h45.03.606,empathy_intonation_perc,2020.2.10,Win32,60,,,,,,,,,,1,,,,,,,,,,,,,,,,,,,,,,,,,,,,,,,,,,,,,,,,40,alfombra,,,1,1,1.06488,0,9,9,39,1,REAL,FAKE,,,,,,,,,,,,,,,,,,,,,
,,,,,,,5d61798f7ad20f001b74922e,6057c54e64b0b4e5c128b4f9,605939bf15a49abad460e96d,Spain,Northeast,13 or older,no,2021-03-22_20h45.03.606,empathy_intonation_perc,2020.2.10,Win32,60,,,,,,,,,,1,,,,,,,,,,,,,,,,,,,,,,,,,,,,,,,,,,,,,,,,5,zapato,,,1,1,0.70326,0,10,10,4,1,REAL,FAKE,,,,,,,,,,,,,,,,,,,,,
,,,,,,,5d61798f7ad20f001b74922e,6057c54e64b0b4e5c128b4f9,605939bf15a49abad460e96d,Spain,Northeast,13 or older,no,2021-03-22_20h45.03.606,empathy_intonation_perc,2020.2.10,Win32,60,,,,,,,,,,1,,,,,,,,,,,,,,,,,,,,,,,,,,,,,,,,,,,,,,,,64,orgulloso,,,0,0,0.867185,0,11,11,63,1,REAL,FAKE,,,,,,,,,,,,,,,,,,,,,
,,,,,,,5d61798f7ad20f001b74922e,6057c54e64b0b4e5c128b4f9,605939bf15a49abad460e96d,Spain,Northeast,13 or older,no,2021-03-22_20h45.03.606,empathy_intonation_perc,2020.2.10,Win32,60,,,,,,,,,,1,,,,,,,,,,,,,,,,,,,,,,,,,,,,,,,,,,,,,,,,7,psimo,,,1,1,1.248125,0,12,12,6,1,REAL,FAKE,,,,,,,,,,,,,,,,,,,,,
,,,,,,,5d61798f7ad20f001b74922e,6057c54e64b0b4e5c128b4f9,605939bf15a49abad460e96d,Spain,Northeast,13 or older,no,2021-03-22_20h45.03.606,empathy_intonation_perc,2020.2.10,Win32,60,,,,,,,,,,0,,,,,,,,,,,,,,,,,,,,,,,,,,,,,,,,,,,,,,,,27,acutacin,,,1,0,3.18408,0,13,13,26,1,REAL,FAKE,,,,,,,,,,,,,,,,,,,,,
,,,,,,,5d61798f7ad20f001b74922e,6057c54e64b0b4e5c128b4f9,605939bf15a49abad460e96d,Spain,Northeast,13 or older,no,2021-03-22_20h45.03.606,empathy_intonation_perc,2020.2.10,Win32,60,,,,,,,,,,1,,,,,,,,,,,,,,,,,,,,,,,,,,,,,,,,,,,,,,,,2,pellizcar,,,0,0,1.362835,0,14,14,1,1,REAL,FAKE,,,,,,,,,,,,,,,,,,,,,
,,,,,,,5d61798f7ad20f001b74922e,6057c54e64b0b4e5c128b4f9,605939bf15a49abad460e96d,Spain,Northeast,13 or older,no,2021-03-22_20h45.03.606,empathy_intonation_perc,2020.2.10,Win32,60,,,,,,,,,,1,,,,,,,,,,,,,,,,,,,,,,,,,,,,,,,,,,,,,,,,9,hacha,,,1,1,1.09184,0,15,15,8,1,REAL,FAKE,,,,,,,,,,,,,,,,,,,,,
,,,,,,,5d61798f7ad20f001b74922e,6057c54e64b0b4e5c128b4f9,605939bf15a49abad460e96d,Spain,Northeast,13 or older,no,2021-03-22_20h45.03.606,empathy_intonation_perc,2020.2.10,Win32,60,,,,,,,,,,0,,,,,,,,,,,,,,,,,,,,,,,,,,,,,,,,,,,,,,,,32,fatacidad,,,0,1,1.746875,0,16,16,31,1,REAL,FAKE,,,,,,,,,,,,,,,,,,,,,
,,,,,,,5d61798f7ad20f001b74922e,6057c54e64b0b4e5c128b4f9,605939bf15a49abad460e96d,Spain,Northeast,13 or older,no,2021-03-22_20h45.03.606,empathy_intonation_perc,2020.2.10,Win32,60,,,,,,,,,,0,,,,,,,,,,,,,,,,,,,,,,,,,,,,,,,,,,,,,,,,1,terzo,,,1,0,1.0455,0,17,17,0,1,REAL,FAKE,,,,,,,,,,,,,,,,,,,,,
,,,,,,,5d61798f7ad20f001b74922e,6057c54e64b0b4e5c128b4f9,605939bf15a49abad460e96d,Spain,Northeast,13 or older,no,2021-03-22_20h45.03.606,empathy_intonation_perc,2020.2.10,Win32,60,,,,,,,,,,0,,,,,,,,,,,,,,,,,,,,,,,,,,,,,,,,,,,,,,,,17,floroso,,,0,1,1.463535,0,18,18,16,1,REAL,FAKE,,,,,,,,,,,,,,,,,,,,,
,,,,,,,5d61798f7ad20f001b74922e,6057c54e64b0b4e5c128b4f9,605939bf15a49abad460e96d,Spain,Northeast,13 or older,no,2021-03-22_20h45.03.606,empathy_intonation_perc,2020.2.10,Win32,60,,,,,,,,,,1,,,,,,,,,,,,,,,,,,,,,,,,,,,,,,,,,,,,,,,,51,candado,,,0,0,1.381675,0,19,19,50,1,REAL,FAKE,,,,,,,,,,,,,,,,,,,,,
,,,,,,,5d61798f7ad20f001b74922e,6057c54e64b0b4e5c128b4f9,605939bf15a49abad460e96d,Spain,Northeast,13 or older,no,2021-03-22_20h45.03.606,empathy_intonation_perc,2020.2.10,Win32,60,,,,,,,,,,1,,,,,,,,,,,,,,,,,,,,,,,,,,,,,,,,,,,,,,,,65,bizcocho,,,0,0,1.97954,0,20,20,64,1,REAL,FAKE,,,,,,,,,,,,,,,,,,,,,
,,,,,,,5d61798f7ad20f001b74922e,6057c54e64b0b4e5c128b4f9,605939bf15a49abad460e96d,Spain,Northeast,13 or older,no,2021-03-22_20h45.03.606,empathy_intonation_perc,2020.2.10,Win32,60,,,,,,,,,,1,,,,,,,,,,,,,,,,,,,,,,,,,,,,,,,,,,,,,,,,12,asesinato,,,0,0,1.44028,0,21,21,11,1,REAL,FAKE,,,,,,,,,,,,,,,,,,,,,
,,,,,,,5d61798f7ad20f001b74922e,6057c54e64b0b4e5c128b4f9,605939bf15a49abad460e96d,Spain,Northeast,13 or older,no,2021-03-22_20h45.03.606,empathy_intonation_perc,2020.2.10,Win32,60,,,,,,,,,,0,,,,,,,,,,,,,,,,,,,,,,,,,,,,,,,,,,,,,,,,42,cadallo,,,1,0,0.606175,0,22,22,41,1,REAL,FAKE,,,,,,,,,,,,,,,,,,,,,
,,,,,,,5d61798f7ad20f001b74922e,6057c54e64b0b4e5c128b4f9,605939bf15a49abad460e96d,Spain,Northeast,13 or older,no,2021-03-22_20h45.03.606,empathy_intonation_perc,2020.2.10,Win32,60,,,,,,,,,,1,,,,,,,,,,,,,,,,,,,,,,,,,,,,,,,,,,,,,,,,90,clavel,,,0,0,1.064875,0,23,23,89,1,REAL,FAKE,,,,,,,,,,,,,,,,,,,,,
,,,,,,,5d61798f7ad20f001b74922e,6057c54e64b0b4e5c128b4f9,605939bf15a49abad460e96d,Spain,Northeast,13 or older,no,2021-03-22_20h45.03.606,empathy_intonation_perc,2020.2.10,Win32,60,,,,,,,,,,0,,,,,,,,,,,,,,,,,,,,,,,,,,,,,,,,,,,,,,,,47,cartinar,,,1,0,0.88714,0,24,24,46,1,REAL,FAKE,,,,,,,,,,,,,,,,,,,,,
,,,,,,,5d61798f7ad20f001b74922e,6057c54e64b0b4e5c128b4f9,605939bf15a49abad460e96d,Spain,Northeast,13 or older,no,2021-03-22_20h45.03.606,empathy_intonation_perc,2020.2.10,Win32,60,,,,,,,,,,1,,,,,,,,,,,,,,,,,,,,,,,,,,,,,,,,,,,,,,,,80,hormiga,,,1,1,0.91064,0,25,25,79,1,REAL,FAKE,,,,,,,,,,,,,,,,,,,,,
,,,,,,,5d61798f7ad20f001b74922e,6057c54e64b0b4e5c128b4f9,605939bf15a49abad460e96d,Spain,Northeast,13 or older,no,2021-03-22_20h45.03.606,empathy_intonation_perc,2020.2.10,Win32,60,,,,,,,,,,1,,,,,,,,,,,,,,,,,,,,,,,,,,,,,,,,,,,,,,,,34,aviso,,,1,1,0.974865,0,26,26,33,1,REAL,FAKE,,,,,,,,,,,,,,,,,,,,,
,,,,,,,5d61798f7ad20f001b74922e,6057c54e64b0b4e5c128b4f9,605939bf15a49abad460e96d,Spain,Northeast,13 or older,no,2021-03-22_20h45.03.606,empathy_intonation_perc,2020.2.10,Win32,60,,,,,,,,,,1,,,,,,,,,,,,,,,,,,,,,,,,,,,,,,,,,,,,,,,,55,nevar,,,1,1,0.998315,0,27,27,54,1,REAL,FAKE,,,,,,,,,,,,,,,,,,,,,
,,,,,,,5d61798f7ad20f001b74922e,6057c54e64b0b4e5c128b4f9,605939bf15a49abad460e96d,Spain,Northeast,13 or older,no,2021-03-22_20h45.03.606,empathy_intonation_perc,2020.2.10,Win32,60,,,,,,,,,,1,,,,,,,,,,,,,,,,,,,,,,,,,,,,,,,,,,,,,,,,73,hervidor,,,0,0,0.78525,0,28,28,72,1,REAL,FAKE,,,,,,,,,,,,,,,,,,,,,
,,,,,,,5d61798f7ad20f001b74922e,6057c54e64b0b4e5c128b4f9,605939bf15a49abad460e96d,Spain,Northeast,13 or older,no,2021-03-22_20h45.03.606,empathy_intonation_perc,2020.2.10,Win32,60,,,,,,,,,,1,,,,,,,,,,,,,,,,,,,,,,,,,,,,,,,,,,,,,,,,41,rebuscar,,,1,1,1.531835,0,29,29,40,1,REAL,FAKE,,,,,,,,,,,,,,,,,,,,,
,,,,,,,5d61798f7ad20f001b74922e,6057c54e64b0b4e5c128b4f9,605939bf15a49abad460e96d,Spain,Northeast,13 or older,no,2021-03-22_20h45.03.606,empathy_intonation_perc,2020.2.10,Win32,60,,,,,,,,,,1,,,,,,,,,,,,,,,,,,,,,,,,,,,,,,,,,,,,,,,,59,besar,,,1,1,0.61282,0,30,30,58,1,REAL,FAKE,,,,,,,,,,,,,,,,,,,,,
,,,,,,,5d61798f7ad20f001b74922e,6057c54e64b0b4e5c128b4f9,605939bf15a49abad460e96d,Spain,Northeast,13 or older,no,2021-03-22_20h45.03.606,empathy_intonation_perc,2020.2.10,Win32,60,,,,,,,,,,1,,,,,,,,,,,,,,,,,,,,,,,,,,,,,,,,,,,,,,,,86,barato,,,1,1,1.039995,0,31,31,85,1,REAL,FAKE,,,,,,,,,,,,,,,,,,,,,
,,,,,,,5d61798f7ad20f001b74922e,6057c54e64b0b4e5c128b4f9,605939bf15a49abad460e96d,Spain,Northeast,13 or older,no,2021-03-22_20h45.03.606,empathy_intonation_perc,2020.2.10,Win32,60,,,,,,,,,,0,,,,,,,,,,,,,,,,,,,,,,,,,,,,,,,,,,,,,,,,58,plaudir,,,0,1,0.78572,0,32,32,57,1,REAL,FAKE,,,,,,,,,,,,,,,,,,,,,
,,,,,,,5d61798f7ad20f001b74922e,6057c54e64b0b4e5c128b4f9,605939bf15a49abad460e96d,Spain,Northeast,13 or older,no,2021-03-22_20h45.03.606,empathy_intonation_perc,2020.2.10,Win32,60,,,,,,,,,,0,,,,,,,,,,,,,,,,,,,,,,,,,,,,,,,,,,,,,,,,50,flamida,,,1,0,1.05122,0,33,33,49,1,REAL,FAKE,,,,,,,,,,,,,,,,,,,,,
,,,,,,,5d61798f7ad20f001b74922e,6057c54e64b0b4e5c128b4f9,605939bf15a49abad460e96d,Spain,Northeast,13 or older,no,2021-03-22_20h45.03.606,empathy_intonation_perc,2020.2.10,Win32,60,,,,,,,,,,1,,,,,,,,,,,,,,,,,,,,,,,,,,,,,,,,,,,,,,,,88,acantilado,,,0,0,1.931755,0,34,34,87,1,REAL,FAKE,,,,,,,,,,,,,,,,,,,,,
,,,,,,,5d61798f7ad20f001b74922e,6057c54e64b0b4e5c128b4f9,605939bf15a49abad460e96d,Spain,Northeast,13 or older,no,2021-03-22_20h45.03.606,empathy_intonation_perc,2020.2.10,Win32,60,,,,,,,,,,0,,,,,,,,,,,,,,,,,,,,,,,,,,,,,,,,,,,,,,,,30,alardio,,,0,1,1.32958,0,35,35,29,1,REAL,FAKE,,,,,,,,,,,,,,,,,,,,,
,,,,,,,5d61798f7ad20f001b74922e,6057c54e64b0b4e5c128b4f9,605939bf15a49abad460e96d,Spain,Northeast,13 or older,no,2021-03-22_20h45.03.606,empathy_intonation_perc,2020.2.10,Win32,60,,,,,,,,,,1,,,,,,,,,,,,,,,,,,,,,,,,,,,,,,,,,,,,,,,,69,engatusar,,,0,0,1.431415,0,36,36,68,1,REAL,FAKE,,,,,,,,,,,,,,,,,,,,,
,,,,,,,5d61798f7ad20f001b74922e,6057c54e64b0b4e5c128b4f9,605939bf15a49abad460e96d,Spain,Northeast,13 or older,no,2021-03-22_20h45.03.606,empathy_intonation_perc,2020.2.10,Win32,60,,,,,,,,,,1,,,,,,,,,,,,,,,,,,,,,,,,,,,,,,,,,,,,,,,,45,jilguero,,,0,0,1.1943,0,37,37,44,1,REAL,FAKE,,,,,,,,,,,,,,,,,,,,,
,,,,,,,5d61798f7ad20f001b74922e,6057c54e64b0b4e5c128b4f9,605939bf15a49abad460e96d,Spain,Northeast,13 or older,no,2021-03-22_20h45.03.606,empathy_intonation_perc,2020.2.10,Win32,60,,,,,,,,,,0,,,,,,,,,,,,,,,,,,,,,,,,,,,,,,,,,,,,,,,,87,grodo,,,1,0,1.1024,0,38,38,86,1,REAL,FAKE,,,,,,,,,,,,,,,,,,,,,
,,,,,,,5d61798f7ad20f001b74922e,6057c54e64b0b4e5c128b4f9,605939bf15a49abad460e96d,Spain,Northeast,13 or older,no,2021-03-22_20h45.03.606,empathy_intonation_perc,2020.2.10,Win32,60,,,,,,,,,,0,,,,,,,,,,,,,,,,,,,,,,,,,,,,,,,,,,,,,,,,8,cadea,,,1,0,0.90792,0,39,39,7,1,REAL,FAKE,,,,,,,,,,,,,,,,,,,,,
,,,,,,,5d61798f7ad20f001b74922e,6057c54e64b0b4e5c128b4f9,605939bf15a49abad460e96d,Spain,Northeast,13 or older,no,2021-03-22_20h45.03.606,empathy_intonation_perc,2020.2.10,Win32,60,,,,,,,,,,1,,,,,,,,,,,,,,,,,,,,,,,,,,,,,,,,,,,,,,,,54,fomentar,,,1,1,1.59916,0,40,40,53,1,REAL,FAKE,,,,,,,,,,,,,,,,,,,,,
,,,,,,,5d61798f7ad20f001b74922e,6057c54e64b0b4e5c128b4f9,605939bf15a49abad460e96d,Spain,Northeast,13 or older,no,2021-03-22_20h45.03.606,empathy_intonation_perc,2020.2.10,Win32,60,,,,,,,,,,0,,,,,,,,,,,,,,,,,,,,,,,,,,,,,,,,,,,,,,,,79,tropaje,,,1,0,0.967185,0,41,41,78,1,REAL,FAKE,,,,,,,,,,,,,,,,,,,,,
,,,,,,,5d61798f7ad20f001b74922e,6057c54e64b0b4e5c128b4f9,605939bf15a49abad460e96d,Spain,Northeast,13 or older,no,2021-03-22_20h45.03.606,empathy_intonation_perc,2020.2.10,Win32,60,,,,,,,,,,0,,,,,,,,,,,,,,,,,,,,,,,,,,,,,,,,,,,,,,,,19,brecedad,,,0,1,2.61232,0,42,42,18,1,REAL,FAKE,,,,,,,,,,,,,,,,,,,,,
,,,,,,,5d61798f7ad20f001b74922e,6057c54e64b0b4e5c128b4f9,605939bf15a49abad460e96d,Spain,Northeast,13 or older,no,2021-03-22_20h45.03.606,empathy_intonation_perc,2020.2.10,Win32,60,,,,,,,,,,1,,,,,,,,,,,,,,,,,,,,,,,,,,,,,,,,,,,,,,,,11,cenefa,,,0,0,1.67609,0,43,43,10,1,REAL,FAKE,,,,,,,,,,,,,,,,,,,,,
,,,,,,,5d61798f7ad20f001b74922e,6057c54e64b0b4e5c128b4f9,605939bf15a49abad460e96d,Spain,Northeast,13 or older,no,2021-03-22_20h45.03.606,empathy_intonation_perc,2020.2.10,Win32,60,,,,,,,,,,1,,,,,,,,,,,,,,,,,,,,,,,,,,,,,,,,,,,,,,,,3,pulmones,,,1,1,1.34728,0,44,44,2,1,REAL,FAKE,,,,,,,,,,,,,,,,,,,,,
,,,,,,,5d61798f7ad20f001b74922e,6057c54e64b0b4e5c128b4f9,605939bf15a49abad460e96d,Spain,Northeast,13 or older,no,2021-03-22_20h45.03.606,empathy_intonation_perc,2020.2.10,Win32,60,,,,,,,,,,1,,,,,,,,,,,,,,,,,,,,,,,,,,,,,,,,,,,,,,,,60,matar,,,1,1,0.631595,0,45,45,59,1,REAL,FAKE,,,,,,,,,,,,,,,,,,,,,
,,,,,,,5d61798f7ad20f001b74922e,6057c54e64b0b4e5c128b4f9,605939bf15a49abad460e96d,Spain,Northeast,13 or older,no,2021-03-22_20h45.03.606,empathy_intonation_perc,2020.2.10,Win32,60,,,,,,,,,,1,,,,,,,,,,,,,,,,,,,,,,,,,,,,,,,,,,,,,,,,22,lacayo,,,0,0,0.754,0,46,46,21,1,REAL,FAKE,,,,,,,,,,,,,,,,,,,,,
,,,,,,,5d61798f7ad20f001b74922e,6057c54e64b0b4e5c128b4f9,605939bf15a49abad460e96d,Spain,Northeast,13 or older,no,2021-03-22_20h45.03.606,empathy_intonation_perc,2020.2.10,Win32,60,,,,,,,,,,0,,,,,,,,,,,,,,,,,,,,,,,,,,,,,,,,,,,,,,,,84,escuto,,,1,0,0.965245,0,47,47,83,1,REAL,FAKE,,,,,,,,,,,,,,,,,,,,,
,,,,,,,5d61798f7ad20f001b74922e,6057c54e64b0b4e5c128b4f9,605939bf15a49abad460e96d,Spain,Northeast,13 or older,no,2021-03-22_20h45.03.606,empathy_intonation_perc,2020.2.10,Win32,60,,,,,,,,,,0,,,,,,,,,,,,,,,,,,,,,,,,,,,,,,,,,,,,,,,,63,esposante,,,0,1,1.97724,0,48,48,62,1,REAL,FAKE,,,,,,,,,,,,,,,,,,,,,
,,,,,,,5d61798f7ad20f001b74922e,6057c54e64b0b4e5c128b4f9,605939bf15a49abad460e96d,Spain,Northeast,13 or older,no,2021-03-22_20h45.03.606,empathy_intonation_perc,2020.2.10,Win32,60,,,,,,,,,,1,,,,,,,,,,,,,,,,,,,,,,,,,,,,,,,,,,,,,,,,26,secuestro,,,1,1,0.89919,0,49,49,25,1,REAL,FAKE,,,,,,,,,,,,,,,,,,,,,
,,,,,,,5d61798f7ad20f001b74922e,6057c54e64b0b4e5c128b4f9,605939bf15a49abad460e96d,Spain,Northeast,13 or older,no,2021-03-22_20h45.03.606,empathy_intonation_perc,2020.2.10,Win32,60,,,,,,,,,,1,,,,,,,,,,,,,,,,,,,,,,,,,,,,,,,,,,,,,,,,71,polvoriento,,,0,0,1.449675,0,50,50,70,1,REAL,FAKE,,,,,,,,,,,,,,,,,,,,,
,,,,,,,5d61798f7ad20f001b74922e,6057c54e64b0b4e5c128b4f9,605939bf15a49abad460e96d,Spain,Northeast,13 or older,no,2021-03-22_20h45.03.606,empathy_intonation_perc,2020.2.10,Win32,60,,,,,,,,,,1,,,,,,,,,,,,,,,,,,,,,,,,,,,,,,,,,,,,,,,,75,yacer,,,1,1,0.994345,0,51,51,74,1,REAL,FAKE,,,,,,,,,,,,,,,,,,,,,
,,,,,,,5d61798f7ad20f001b74922e,6057c54e64b0b4e5c128b4f9,605939bf15a49abad460e96d,Spain,Northeast,13 or older,no,2021-03-22_20h45.03.606,empathy_intonation_perc,2020.2.10,Win32,60,,,,,,,,,,1,,,,,,,,,,,,,,,,,,,,,,,,,,,,,,,,,,,,,,,,56,musgo,,,0,0,1.280065,0,52,52,55,1,REAL,FAKE,,,,,,,,,,,,,,,,,,,,,
,,,,,,,5d61798f7ad20f001b74922e,6057c54e64b0b4e5c128b4f9,605939bf15a49abad460e96d,Spain,Northeast,13 or older,no,2021-03-22_20h45.03.606,empathy_intonation_perc,2020.2.10,Win32,60,,,,,,,,,,1,,,,,,,,,,,,,,,,,,,,,,,,,,,,,,,,,,,,,,,,81,pozo,,,1,1,0.660625,0,53,53,80,1,REAL,FAKE,,,,,,,,,,,,,,,,,,,,,
,,,,,,,5d61798f7ad20f001b74922e,6057c54e64b0b4e5c128b4f9,605939bf15a49abad460e96d,Spain,Northeast,13 or older,no,2021-03-22_20h45.03.606,empathy_intonation_perc,2020.2.10,Win32,60,,,,,,,,,,1,,,,,,,,,,,,,,,,,,,,,,,,,,,,,,,,,,,,,,,,49,ganar,,,1,1,0.824115,0,54,54,48,1,REAL,FAKE,,,,,,,,,,,,,,,,,,,,,
,,,,,,,5d61798f7ad20f001b74922e,6057c54e64b0b4e5c128b4f9,605939bf15a49abad460e96d,Spain,Northeast,13 or older,no,2021-03-22_20h45.03.606,empathy_intonation_perc,2020.2.10,Win32,60,,,,,,,,,,0,,,,,,,,,,,,,,,,,,,,,,,,,,,,,,,,,,,,,,,,53,vegada,,,0,1,1.311385,0,55,55,52,1,REAL,FAKE,,,,,,,,,,,,,,,,,,,,,
,,,,,,,5d61798f7ad20f001b74922e,6057c54e64b0b4e5c128b4f9,605939bf15a49abad460e96d,Spain,Northeast,13 or older,no,2021-03-22_20h45.03.606,empathy_intonation_perc,2020.2.10,Win32,60,,,,,,,,,,0,,,,,,,,,,,,,,,,,,,,,,,,,,,,,,,,,,,,,,,,21,capillo,,,1,0,0.62917,0,56,56,20,1,REAL,FAKE,,,,,,,,,,,,,,,,,,,,,
,,,,,,,5d61798f7ad20f001b74922e,6057c54e64b0b4e5c128b4f9,605939bf15a49abad460e96d,Spain,Northeast,13 or older,no,2021-03-22_20h45.03.606,empathy_intonation_perc,2020.2.10,Win32,60,,,,,,,,,,1,,,,,,,,,,,,,,,,,,,,,,,,,,,,,,,,,,,,,,,,28,merodear,,,0,0,0.756495,0,57,57,27,1,REAL,FAKE,,,,,,,,,,,,,,,,,,,,,
,,,,,,,5d61798f7ad20f001b74922e,6057c54e64b0b4e5c128b4f9,605939bf15a49abad460e96d,Spain,Northeast,13 or older,no,2021-03-22_20h45.03.606,empathy_intonation_perc,2020.2.10,Win32,60,,,,,,,,,,1,,,,,,,,,,,,,,,,,,,,,,,,,,,,,,,,,,,,,,,,37,granuja,,,1,1,0.89481,0,58,58,36,1,REAL,FAKE,,,,,,,,,,,,,,,,,,,,,
,,,,,,,5d61798f7ad20f001b74922e,6057c54e64b0b4e5c128b4f9,605939bf15a49abad460e96d,Spain,Northeast,13 or older,no,2021-03-22_20h45.03.606,empathy_intonation_perc,2020.2.10,Win32,60,,,,,,,,,,0,,,,,,,,,,,,,,,,,,,,,,,,,,,,,,,,,,,,,,,,18,arsa,,,0,1,1.19394,0,59,59,17,1,REAL,FAKE,,,,,,,,,,,,,,,,,,,,,
,,,,,,,5d61798f7ad20f001b74922e,6057c54e64b0b4e5c128b4f9,605939bf15a49abad460e96d,Spain,Northeast,13 or older,no,2021-03-22_20h45.03.606,empathy_intonation_perc,2020.2.10,Win32,60,,,,,,,,,,1,,,,,,,,,,,,,,,,,,,,,,,,,,,,,,,,,,,,,,,,61,seda,,,1,1,0.597235,0,60,60,60,1,REAL,FAKE,,,,,,,,,,,,,,,,,,,,,
,,,,,,,5d61798f7ad20f001b74922e,6057c54e64b0b4e5c128b4f9,605939bf15a49abad460e96d,Spain,Northeast,13 or older,no,2021-03-22_20h45.03.606,empathy_intonation_perc,2020.2.10,Win32,60,,,,,,,,,,1,,,,,,,,,,,,,,,,,,,,,,,,,,,,,,,,,,,,,,,,89,prisa,,,0,0,1.584985,0,61,61,88,1,REAL,FAKE,,,,,,,,,,,,,,,,,,,,,
,,,,,,,5d61798f7ad20f001b74922e,6057c54e64b0b4e5c128b4f9,605939bf15a49abad460e96d,Spain,Northeast,13 or older,no,2021-03-22_20h45.03.606,empathy_intonation_perc,2020.2.10,Win32,60,,,,,,,,,,1,,,,,,,,,,,,,,,,,,,,,,,,,,,,,,,,,,,,,,,,20,vido,,,1,1,0.686285,0,62,62,19,1,REAL,FAKE,,,,,,,,,,,,,,,,,,,,,
,,,,,,,5d61798f7ad20f001b74922e,6057c54e64b0b4e5c128b4f9,605939bf15a49abad460e96d,Spain,Northeast,13 or older,no,2021-03-22_20h45.03.606,empathy_intonation_perc,2020.2.10,Win32,60,,,,,,,,,,1,,,,,,,,,,,,,,,,,,,,,,,,,,,,,,,,,,,,,,,,62,flaco,,,1,1,1.562565,0,63,63,61,1,REAL,FAKE,,,,,,,,,,,,,,,,,,,,,
,,,,,,,5d61798f7ad20f001b74922e,6057c54e64b0b4e5c128b4f9,605939bf15a49abad460e96d,Spain,Northeast,13 or older,no,2021-03-22_20h45.03.606,empathy_intonation_perc,2020.2.10,Win32,60,,,,,,,,,,0,,,,,,,,,,,,,,,,,,,,,,,,,,,,,,,,,,,,,,,,16,abracer,,,1,0,1.12257,0,64,64,15,1,REAL,FAKE,,,,,,,,,,,,,,,,,,,,,
,,,,,,,5d61798f7ad20f001b74922e,6057c54e64b0b4e5c128b4f9,605939bf15a49abad460e96d,Spain,Northeast,13 or older,no,2021-03-22_20h45.03.606,empathy_intonation_perc,2020.2.10,Win32,60,,,,,,,,,,0,,,,,,,,,,,,,,,,,,,,,,,,,,,,,,,,,,,,,,,,66,hacido,,,1,0,0.65018,0,65,65,65,1,REAL,FAKE,,,,,,,,,,,,,,,,,,,,,
,,,,,,,5d61798f7ad20f001b74922e,6057c54e64b0b4e5c128b4f9,605939bf15a49abad460e96d,Spain,Northeast,13 or older,no,2021-03-22_20h45.03.606,empathy_intonation_perc,2020.2.10,Win32,60,,,,,,,,,,1,,,,,,,,,,,,,,,,,,,,,,,,,,,,,,,,,,,,,,,,76,atar,,,1,1,0.925505,0,66,66,75,1,REAL,FAKE,,,,,,,,,,,,,,,,,,,,,
,,,,,,,5d61798f7ad20f001b74922e,6057c54e64b0b4e5c128b4f9,605939bf15a49abad460e96d,Spain,Northeast,13 or older,no,2021-03-22_20h45.03.606,empathy_intonation_perc,2020.2.10,Win32,60,,,,,,,,,,0,,,,,,,,,,,,,,,,,,,,,,,,,,,,,,,,,,,,,,,,4,batilln,,,0,1,0.68532,0,67,67,3,1,REAL,FAKE,,,,,,,,,,,,,,,,,,,,,
,,,,,,,5d61798f7ad20f001b74922e,6057c54e64b0b4e5c128b4f9,605939bf15a49abad460e96d,Spain,Northeast,13 or older,no,2021-03-22_20h45.03.606,empathy_intonation_perc,2020.2.10,Win32,60,,,,,,,,,,0,,,,,,,,,,,,,,,,,,,,,,,,,,,,,,,,,,,,,,,,35,rompido,,,1,0,0.99795,0,68,68,34,1,REAL,FAKE,,,,,,,,,,,,,,,,,,,,,
,,,,,,,5d61798f7ad20f001b74922e,6057c54e64b0b4e5c128b4f9,605939bf15a49abad460e96d,Spain,Northeast,13 or older,no,2021-03-22_20h45.03.606,empathy_intonation_perc,2020.2.10,Win32,60,,,,,,,,,,1,,,,,,,,,,,,,,,,,,,,,,,,,,,,,,,,,,,,,,,,68,alegre,,,0,0,1.215335,0,69,69,67,1,REAL,FAKE,,,,,,,,,,,,,,,,,,,,,
,,,,,,,5d61798f7ad20f001b74922e,6057c54e64b0b4e5c128b4f9,605939bf15a49abad460e96d,Spain,Northeast,13 or older,no,2021-03-22_20h45.03.606,empathy_intonation_perc,2020.2.10,Win32,60,,,,,,,,,,1,,,,,,,,,,,,,,,,,,,,,,,,,,,,,,,,,,,,,,,,43,canela,,,0,0,1.04893,0,70,70,42,1,REAL,FAKE,,,,,,,,,,,,,,,,,,,,,
,,,,,,,5d61798f7ad20f001b74922e,6057c54e64b0b4e5c128b4f9,605939bf15a49abad460e96d,Spain,Northeast,13 or older,no,2021-03-22_20h45.03.606,empathy_intonation_perc,2020.2.10,Win32,60,,,,,,,,,,0,,,,,,,,,,,,,,,,,,,,,,,,,,,,,,,,,,,,,,,,70,temblo,,,0,1,1.61761,0,71,71,69,1,REAL,FAKE,,,,,,,,,,,,,,,,,,,,,
,,,,,,,5d61798f7ad20f001b74922e,6057c54e64b0b4e5c128b4f9,605939bf15a49abad460e96d,Spain,Northeast,13 or older,no,2021-03-22_20h45.03.606,empathy_intonation_perc,2020.2.10,Win32,60,,,,,,,,,,0,,,,,,,,,,,,,,,,,,,,,,,,,,,,,,,,,,,,,,,,72,pemicin,,,1,0,0.89452,0,72,72,71,1,REAL,FAKE,,,,,,,,,,,,,,,,,,,,,
,,,,,,,5d61798f7ad20f001b74922e,6057c54e64b0b4e5c128b4f9,605939bf15a49abad460e96d,Spain,Northeast,13 or older,no,2021-03-22_20h45.03.606,empathy_intonation_perc,2020.2.10,Win32,60,,,,,,,,,,1,,,,,,,,,,,,,,,,,,,,,,,,,,,,,,,,,,,,,,,,6,tergiversar,,,1,1,1.45805,0,73,73,5,1,REAL,FAKE,,,,,,,,,,,,,,,,,,,,,
,,,,,,,5d61798f7ad20f001b74922e,6057c54e64b0b4e5c128b4f9,605939bf15a49abad460e96d,Spain,Northeast,13 or older,no,2021-03-22_20h45.03.606,empathy_intonation_perc,2020.2.10,Win32,60,,,,,,,,,,1,,,,,,,,,,,,,,,,,,,,,,,,,,,,,,,,,,,,,,,,85,lad,,,0,0,0.69631,0,74,74,84,1,REAL,FAKE,,,,,,,,,,,,,,,,,,,,,
,,,,,,,5d61798f7ad20f001b74922e,6057c54e64b0b4e5c128b4f9,605939bf15a49abad460e96d,Spain,Northeast,13 or older,no,2021-03-22_20h45.03.606,empathy_intonation_perc,2020.2.10,Win32,60,,,,,,,,,,1,,,,,,,,,,,,,,,,,,,,,,,,,,,,,,,,,,,,,,,,15,regar,,,1,1,0.669465,0,75,75,14,1,REAL,FAKE,,,,,,,,,,,,,,,,,,,,,
,,,,,,,5d61798f7ad20f001b74922e,6057c54e64b0b4e5c128b4f9,605939bf15a49abad460e96d,Spain,Northeast,13 or older,no,2021-03-22_20h45.03.606,empathy_intonation_perc,2020.2.10,Win32,60,,,,,,,,,,0,,,,,,,,,,,,,,,,,,,,,,,,,,,,,,,,,,,,,,,,29,decar,,,1,0,0.76052,0,76,76,28,1,REAL,FAKE,,,,,,,,,,,,,,,,,,,,,
,,,,,,,5d61798f7ad20f001b74922e,6057c54e64b0b4e5c128b4f9,605939bf15a49abad460e96d,Spain,Northeast,13 or older,no,2021-03-22_20h45.03.606,empathy_intonation_perc,2020.2.10,Win32,60,,,,,,,,,,1,,,,,,,,,,,,,,,,,,,,,,,,,,,,,,,,,,,,,,,,24,ltigo,,,0,0,0.95766,0,77,77,23,1,REAL,FAKE,,,,,,,,,,,,,,,,,,,,,
,,,,,,,5d61798f7ad20f001b74922e,6057c54e64b0b4e5c128b4f9,605939bf15a49abad460e96d,Spain,Northeast,13 or older,no,2021-03-22_20h45.03.606,empathy_intonation_perc,2020.2.10,Win32,60,,,,,,,,,,0,,,,,,,,,,,,,,,,,,,,,,,,,,,,,,,,,,,,,,,,33,pauca,,,0,1,0.68682,0,78,78,32,1,REAL,FAKE,,,,,,,,,,,,,,,,,,,,,
,,,,,,,5d61798f7ad20f001b74922e,6057c54e64b0b4e5c128b4f9,605939bf15a49abad460e96d,Spain,Northeast,13 or older,no,2021-03-22_20h45.03.606,empathy_intonation_perc,2020.2.10,Win32,60,,,,,,,,,,1,,,,,,,,,,,,,,,,,,,,,,,,,,,,,,,,,,,,,,,,83,guante,,,0,0,1.25112,0,79,79,82,1,REAL,FAKE,,,,,,,,,,,,,,,,,,,,,
,,,,,,,5d61798f7ad20f001b74922e,6057c54e64b0b4e5c128b4f9,605939bf15a49abad460e96d,Spain,Northeast,13 or older,no,2021-03-22_20h45.03.606,empathy_intonation_perc,2020.2.10,Win32,60,,,,,,,,,,1,,,,,,,,,,,,,,,,,,,,,,,,,,,,,,,,,,,,,,,,78,frondoso,,,0,0,0.8614,0,80,80,77,1,REAL,FAKE,,,,,,,,,,,,,,,,,,,,,
,,,,,,,5d61798f7ad20f001b74922e,6057c54e64b0b4e5c128b4f9,605939bf15a49abad460e96d,Spain,Northeast,13 or older,no,2021-03-22_20h45.03.606,empathy_intonation_perc,2020.2.10,Win32,60,,,,,,,,,,1,,,,,,,,,,,,,,,,,,,,,,,,,,,,,,,,,,,,,,,,48,ladrn,,,0,0,0.88124,0,81,81,47,1,REAL,FAKE,,,,,,,,,,,,,,,,,,,,,
,,,,,,,5d61798f7ad20f001b74922e,6057c54e64b0b4e5c128b4f9,605939bf15a49abad460e96d,Spain,Northeast,13 or older,no,2021-03-22_20h45.03.606,empathy_intonation_perc,2020.2.10,Win32,60,,,,,,,,,,0,,,,,,,,,,,,,,,,,,,,,,,,,,,,,,,,,,,,,,,,10,antar,,,1,0,0.64391,0,82,82,9,1,REAL,FAKE,,,,,,,,,,,,,,,,,,,,,
,,,,,,,5d61798f7ad20f001b74922e,6057c54e64b0b4e5c128b4f9,605939bf15a49abad460e96d,Spain,Northeast,13 or older,no,2021-03-22_20h45.03.606,empathy_intonation_perc,2020.2.10,Win32,60,,,,,,,,,,1,,,,,,,,,,,,,,,,,,,,,,,,,,,,,,,,,,,,,,,,14,yunque,,,0,0,0.63405,0,83,83,13,1,REAL,FAKE,,,,,,,,,,,,,,,,,,,,,
,,,,,,,5d61798f7ad20f001b74922e,6057c54e64b0b4e5c128b4f9,605939bf15a49abad460e96d,Spain,Northeast,13 or older,no,2021-03-22_20h45.03.606,empathy_intonation_perc,2020.2.10,Win32,60,,,,,,,,,,1,,,,,,,,,,,,,,,,,,,,,,,,,,,,,,,,,,,,,,,,77,tiburn,,,1,1,0.88248,0,84,84,76,1,REAL,FAKE,,,,,,,,,,,,,,,,,,,,,
,,,,,,,5d61798f7ad20f001b74922e,6057c54e64b0b4e5c128b4f9,605939bf15a49abad460e96d,Spain,Northeast,13 or older,no,2021-03-22_20h45.03.606,empathy_intonation_perc,2020.2.10,Win32,60,,,,,,,,,,1,,,,,,,,,,,,,,,,,,,,,,,,,,,,,,,,,,,,,,,,46,martillo,,,1,1,0.782255,0,85,85,45,1,REAL,FAKE,,,,,,,,,,,,,,,,,,,,,
,,,,,,,5d61798f7ad20f001b74922e,6057c54e64b0b4e5c128b4f9,605939bf15a49abad460e96d,Spain,Northeast,13 or older,no,2021-03-22_20h45.03.606,empathy_intonation_perc,2020.2.10,Win32,60,,,,,,,,,,1,,,,,,,,,,,,,,,,,,,,,,,,,,,,,,,,,,,,,,,,13,helar,,,1,1,0.60586,0,86,86,12,1,REAL,FAKE,,,,,,,,,,,,,,,,,,,,,
,,,,,,,5d61798f7ad20f001b74922e,6057c54e64b0b4e5c128b4f9,605939bf15a49abad460e96d,Spain,Northeast,13 or older,no,2021-03-22_20h45.03.606,empathy_intonation_perc,2020.2.10,Win32,60,,,,,,,,,,1,,,,,,,,,,,,,,,,,,,,,,,,,,,,,,,,,,,,,,,,39,torpe,,,1,1,0.777015,0,87,87,38,1,REAL,FAKE,,,,,,,,,,,,,,,,,,,,,
,,,,,,,5d61798f7ad20f001b74922e,6057c54e64b0b4e5c128b4f9,605939bf15a49abad460e96d,Spain,Northeast,13 or older,no,2021-03-22_20h45.03.606,empathy_intonation_perc,2020.2.10,Win32,60,,,,,,,,,,0,,,,,,,,,,,,,,,,,,,,,,,,,,,,,,,,,,,,,,,,23,lampera,,,1,0,0.77586,0,88,88,22,1,REAL,FAKE,,,,,,,,,,,,,,,,,,,,,
,,,,,,,5d61798f7ad20f001b74922e,6057c54e64b0b4e5c128b4f9,605939bf15a49abad460e96d,Spain,Northeast,13 or older,no,2021-03-22_20h45.03.606,empathy_intonation_perc,2020.2.10,Win32,60,,,,,,,,,,1,,,,,,,,,,,,,,,,,,,,,,,,,,,,,,,,,,,,,,,,44,cuchara,,,1,1,0.66491,0,89,89,43,1,REAL,FAKE,,,,,,,,,,,,,,,,,,,,,
,,,,,,,5d61798f7ad20f001b74922e,6057c54e64b0b4e5c128b4f9,605939bf15a49abad460e96d,Spain,Northeast,13 or older,no,2021-03-22_20h45.03.606,empathy_intonation_perc,2020.2.10,Win32,60,,,,,,,,,,,,,,,,,,,,,,,,,,,,,,,,,,,,,,,,,,,,,,,,,,,,,,,,,,,,,,,,4,1,4.08412,1,0,0,0,0,0,1,,,,,,,,,,,
,,,,,,,5d61798f7ad20f001b74922e,6057c54e64b0b4e5c128b4f9,605939bf15a49abad460e96d,Spain,Northeast,13 or older,no,2021-03-22_20h45.03.606,empathy_intonation_perc,2020.2.10,Win32,60,,,,,,,,,,,,,,,,,,,,1,,,,,,,,,,,,,,,,,,,,,,,,,,,,,,,,,,,,,,,,,,,,,,,,,,,,,,1,0,0,0,0,1,I can easily tell if someone else wants to enter a conversation.,1,0,1,0
,,,,,,,5d61798f7ad20f001b74922e,6057c54e64b0b4e5c128b4f9,605939bf15a49abad460e96d,Spain,Northeast,13 or older,no,2021-03-22_20h45.03.606,empathy_intonation_perc,2020.2.10,Win32,60,,,,,,,,,,,,,,,,,,,,2,,,,,,,,,,,,,,,,,,,,,,,,,,,,,,,,,,,,,,,,,,,,,,,,,,,,,,3,0,1,1,1,1,I prefer animals to humans.,0,1,0,0
,,,,,,,5d61798f7ad20f001b74922e,6057c54e64b0b4e5c128b4f9,605939bf15a49abad460e96d,Spain,Northeast,13 or older,no,2021-03-22_20h45.03.606,empathy_intonation_perc,2020.2.10,Win32,60,,,,,,,,,,,,,,,,,,,,3,,,,,,,,,,,,,,,,,,,,,,,,,,,,,,,,,,,,,,,,,,,,,,,,,,,,,,4,0,2,2,2,1,I try to keep up with the current trends and fashions.,0,1,0,0
,,,,,,,5d61798f7ad20f001b74922e,6057c54e64b0b4e5c128b4f9,605939bf15a49abad460e96d,Spain,Northeast,13 or older,no,2021-03-22_20h45.03.606,empathy_intonation_perc,2020.2.10,Win32,60,,,,,,,,,,,,,,,,,,,,4,,,,,,,,,,,,,,,,,,,,,,,,,,,,,,,,,,,,,,,,,,,,,,,,,,,,,,2,0,3,3,3,1,"I find it difficult to explain to others things that I understand easily, 
  when they dont understand it first time.",1,0,0,1
,,,,,,,5d61798f7ad20f001b74922e,6057c54e64b0b4e5c128b4f9,605939bf15a49abad460e96d,Spain,Northeast,13 or older,no,2021-03-22_20h45.03.606,empathy_intonation_perc,2020.2.10,Win32,60,,,,,,,,,,,,,,,,,,,,5,,,,,,,,,,,,,,,,,,,,,,,,,,,,,,,,,,,,,,,,,,,,,,,,,,,,,,2,0,4,4,4,1,I dream most nights.,0,1,0,0
,,,,,,,5d61798f7ad20f001b74922e,6057c54e64b0b4e5c128b4f9,605939bf15a49abad460e96d,Spain,Northeast,13 or older,no,2021-03-22_20h45.03.606,empathy_intonation_perc,2020.2.10,Win32,60,,,,,,,,,,,,,,,,,,,,6,,,,,,,,,,,,,,,,,,,,,,,,,,,,,,,,,,,,,,,,,,,,,,,,,,,,,,2,0,5,5,5,1,I really enjoy caring for other people.,1,0,1,0
,,,,,,,5d61798f7ad20f001b74922e,6057c54e64b0b4e5c128b4f9,605939bf15a49abad460e96d,Spain,Northeast,13 or older,no,2021-03-22_20h45.03.606,empathy_intonation_perc,2020.2.10,Win32,60,,,,,,,,,,,,,,,,,,,,7,,,,,,,,,,,,,,,,,,,,,,,,,,,,,,,,,,,,,,,,,,,,,,,,,,,,,,1,0,6,6,6,1,I try to solve my own problems rather than discussing them with others.,0,1,0,0
,,,,,,,5d61798f7ad20f001b74922e,6057c54e64b0b4e5c128b4f9,605939bf15a49abad460e96d,Spain,Northeast,13 or older,no,2021-03-22_20h45.03.606,empathy_intonation_perc,2020.2.10,Win32,60,,,,,,,,,,,,,,,,,,,,8,,,,,,,,,,,,,,,,,,,,,,,,,,,,,,,,,,,,,,,,,,,,,,,,,,,,,,1,0,7,7,7,1,I find it hard to know what to do in a social situation.,1,0,0,1
