instructions_2afc_loop.thisRepN,instructions_2afc_loop.thisTrialN,instructions_2afc_loop.thisN,instructions_2afc_loop.thisIndex,instructions_2afc_loop.ran,instructions_text,continue_text,participant,study_id,session,I am most familiar with Spanish from...*,What part of the US are you from?*,At what age did you begin learning Spanish?*,Are you proficient in any languages other than English/Spanish?*,date,expName,psychopyVersion,OS,frameRate,key_resp_2afc_practice.keys,key_resp_2afc_practice.corr,key_resp_2afc_practice.rt,trials_2afc_practice_loop.thisRepN,trials_2afc_practice_loop.thisTrialN,trials_2afc_practice_loop.thisN,trials_2afc_practice_loop.thisIndex,trials_2afc_practice_loop.ran,path,correct_response,the_col,key_resp_2afc_trial.keys,key_resp_2afc_trial.corr,key_resp_2afc_trial.rt,trials_2afc_loop.thisRepN,trials_2afc_loop.thisTrialN,trials_2afc_loop.thisN,trials_2afc_loop.thisIndex,trials_2afc_loop.ran,item_num,andalusian,argentine,castilian,chilean,cuban,mexican,peruvian,puertorican,key_resp_ac1.keys,key_resp_ac1.corr,key_resp_ac1.rt,ac1_loop.thisRepN,ac1_loop.thisTrialN,ac1_loop.thisN,ac1_loop.thisIndex,ac1_loop.ran,instructions_lextale_loop.thisRepN,instructions_lextale_loop.thisTrialN,instructions_lextale_loop.thisN,instructions_lextale_loop.thisIndex,instructions_lextale_loop.ran,key_resp_lextale_practice.keys,key_resp_lextale_practice.corr,key_resp_lextale_practice.rt,trials_lextale_practice_loop.thisRepN,trials_lextale_practice_loop.thisTrialN,trials_lextale_practice_loop.thisN,trials_lextale_practice_loop.thisIndex,trials_lextale_practice_loop.ran,stim,word,prac_button_real,prac_button_false,key_resp_lextale_trial.keys,key_resp_lextale_trial.corr,key_resp_lextale_trial.rt,trials_lextale_loop.thisRepN,trials_lextale_loop.thisTrialN,trials_lextale_loop.thisN,trials_lextale_loop.thisIndex,trials_lextale_loop.ran,button_real,button_false,key_resp_ac2.keys,key_resp_ac2.corr,key_resp_ac2.rt,check_pass,check_fails,ac2_loop.thisRepN,ac2_loop.thisTrialN,ac2_loop.thisN,ac2_loop.thisIndex,ac2_loop.ran,slider_eq_trial.response,trials_eq_loop.thisRepN,trials_eq_loop.thisTrialN,trials_eq_loop.thisN,trials_eq_loop.thisIndex,trials_eq_loop.ran,item,is_test_item,is_distractor,is_agree_score,is_disagree_score
0,0,0,0,1,"In the following task you are going to hear a series of utterances. 

  You will decide if the utterances sound like questions or not using your keyboard.",(press the spacebar to continue),5d8f8510f3e52d0018924390,605b45a4d25f287719a41696,6061cb7169cc3f8b3bf14ae9,United States,Northeast,13 or older,no,2021-03-29_07h47.02.816,empathy_intonation_perc,2020.2.10,Win32,60,,,,,,,,,,,,,,,,,,,,,,,,,,,,,,,,,,,,,,,,,,,,,,,,,,,,,,,,,,,,,,,,,,,,,,,,,,,,,,,,,,,,
0,1,1,1,1,"If you believe the utterance is a question, type '1' (for 'yes') and if you do not 
  believe it is a question type '0' (for 'no').

  Let's practice a bit...",(press the spacebar to continue),5d8f8510f3e52d0018924390,605b45a4d25f287719a41696,6061cb7169cc3f8b3bf14ae9,United States,Northeast,13 or older,no,2021-03-29_07h47.02.816,empathy_intonation_perc,2020.2.10,Win32,60,,,,,,,,,,,,,,,,,,,,,,,,,,,,,,,,,,,,,,,,,,,,,,,,,,,,,,,,,,,,,,,,,,,,,,,,,,,,,,,,,,,,
,,,,,,,5d8f8510f3e52d0018924390,605b45a4d25f287719a41696,6061cb7169cc3f8b3bf14ae9,United States,Northeast,13 or older,no,2021-03-29_07h47.02.816,empathy_intonation_perc,2020.2.10,Win32,60,1,0,19.193,0,0,0,5,1,./stim/wavs/andalusian_statement_filler_Alberto-nunca-se-afeita.wav,0,,,,,,,,,,,,,,,,,,,,,,,,,,,,,,,,,,,,,,,,,,,,,,,,,,,,,,,,,,,,,,,,,,,,,,,,,,
,,,,,,,5d8f8510f3e52d0018924390,605b45a4d25f287719a41696,6061cb7169cc3f8b3bf14ae9,United States,Northeast,13 or older,no,2021-03-29_07h47.02.816,empathy_intonation_perc,2020.2.10,Win32,60,1,0,16.058,0,1,1,6,1,./stim/wavs/peruvian_statement_filler_El-nino-habla-con-su-madre.wav,0,,,,,,,,,,,,,,,,,,,,,,,,,,,,,,,,,,,,,,,,,,,,,,,,,,,,,,,,,,,,,,,,,,,,,,,,,,
,,,,,,,5d8f8510f3e52d0018924390,605b45a4d25f287719a41696,6061cb7169cc3f8b3bf14ae9,United States,Northeast,13 or older,no,2021-03-29_07h47.02.816,empathy_intonation_perc,2020.2.10,Win32,60,1,1,3.786,0,2,2,3,1,./stim/wavs/mexican_question_filler_Felipe-no-tiene-contrasena.wav,1,,,,,,,,,,,,,,,,,,,,,,,,,,,,,,,,,,,,,,,,,,,,,,,,,,,,,,,,,,,,,,,,,,,,,,,,,,
,,,,,,,5d8f8510f3e52d0018924390,605b45a4d25f287719a41696,6061cb7169cc3f8b3bf14ae9,United States,Northeast,13 or older,no,2021-03-29_07h47.02.816,empathy_intonation_perc,2020.2.10,Win32,60,0,0,7.797,0,3,3,2,1,./stim/wavs/chilean_question_filler_Mi-padre-cantaba-bien.wav,1,,,,,,,,,,,,,,,,,,,,,,,,,,,,,,,,,,,,,,,,,,,,,,,,,,,,,,,,,,,,,,,,,,,,,,,,,,
,,,,,,,5d8f8510f3e52d0018924390,605b45a4d25f287719a41696,6061cb7169cc3f8b3bf14ae9,United States,Northeast,13 or older,no,2021-03-29_07h47.02.816,empathy_intonation_perc,2020.2.10,Win32,60,1,1,4.817,0,4,4,0,1,./stim/wavs/castilian_question_filler_Mi-esposo-conoce-al-chico.wav,1,,,,,,,,,,,,,,,,,,,,,,,,,,,,,,,,,,,,,,,,,,,,,,,,,,,,,,,,,,,,,,,,,,,,,,,,,,
,,,,,,,5d8f8510f3e52d0018924390,605b45a4d25f287719a41696,6061cb7169cc3f8b3bf14ae9,United States,Northeast,13 or older,no,2021-03-29_07h47.02.816,empathy_intonation_perc,2020.2.10,Win32,60,1,1,3.411,0,5,5,1,1,./stim/wavs/argentine_question_filler_Mi-vecino-habla-mucho.wav,1,,,,,,,,,,,,,,,,,,,,,,,,,,,,,,,,,,,,,,,,,,,,,,,,,,,,,,,,,,,,,,,,,,,,,,,,,,
,,,,,,,5d8f8510f3e52d0018924390,605b45a4d25f287719a41696,6061cb7169cc3f8b3bf14ae9,United States,Northeast,13 or older,no,2021-03-29_07h47.02.816,empathy_intonation_perc,2020.2.10,Win32,60,0,1,2.77,0,6,6,7,1,./stim/wavs/puertorican_statement_filler_La-nina-pinta-con-su-amiga.wav,0,,,,,,,,,,,,,,,,,,,,,,,,,,,,,,,,,,,,,,,,,,,,,,,,,,,,,,,,,,,,,,,,,,,,,,,,,,
,,,,,,,5d8f8510f3e52d0018924390,605b45a4d25f287719a41696,6061cb7169cc3f8b3bf14ae9,United States,Northeast,13 or older,no,2021-03-29_07h47.02.816,empathy_intonation_perc,2020.2.10,Win32,60,0,1,3.082,0,7,7,4,1,./stim/wavs/cuban_statement_filler_Cocinabas-por-la-noche.wav,0,,,,,,,,,,,,,,,,,,,,,,,,,,,,,,,,,,,,,,,,,,,,,,,,,,,,,,,,,,,,,,,,,,,,,,,,,,
,,,,,,,5d8f8510f3e52d0018924390,605b45a4d25f287719a41696,6061cb7169cc3f8b3bf14ae9,United States,Northeast,13 or older,no,2021-03-29_07h47.02.816,empathy_intonation_perc,2020.2.10,Win32,60,,,,,,,,,,0,puertorican,0,1,3.948,0,0,0,7,1,8,./stim/wavs/andalusian_match_declarative-broad-focus_Marta-abre-el-regalo.wav,./stim/wavs/argentine_match_declarative-broad-focus_Marta-abre-el-regalo.wav,./stim/wavs/castilian_match_declarative-broad-focus_Marta-abre-el-regalo.wav,./stim/wavs/chilean_match_declarative-broad-focus_Marta-abre-el-regalo.wav,./stim/wavs/cuban_match_declarative-broad-focus_Marta-abre-el-regalo.wav,./stim/wavs/mexican_match_declarative-broad-focus_Marta-abre-el-regalo.wav,./stim/wavs/peruvian_match_declarative-broad-focus_Marta-abre-el-regalo.wav,./stim/wavs/puertorican_match_declarative-broad-focus_Marta-abre-el-regalo.wav,,,,,,,,,,,,,,,,,,,,,,,,,,,,,,,,,,,,,,,,,,,,,,,,,,,,,,,,
,,,,,,,5d8f8510f3e52d0018924390,605b45a4d25f287719a41696,6061cb7169cc3f8b3bf14ae9,United States,Northeast,13 or older,no,2021-03-29_07h47.02.816,empathy_intonation_perc,2020.2.10,Win32,60,,,,,,,,,,0,puertorican,0,1,2.424,0,1,1,45,1,46,./stim/wavs/andalusian_mismatch_declarative-narrow-focus_Mi-madre-come-la-fruta.wav,./stim/wavs/argentine_mismatch_declarative-narrow-focus_Mi-madre-come-la-fruta.wav,./stim/wavs/castilian_mismatch_declarative-narrow-focus_Mi-madre-come-la-fruta.wav,./stim/wavs/chilean_mismatch_declarative-narrow-focus_Mi-madre-come-la-fruta.wav,./stim/wavs/cuban_mismatch_declarative-narrow-focus_Mi-madre-come-la-fruta.wav,./stim/wavs/mexican_mismatch_declarative-narrow-focus_Mi-madre-come-la-fruta.wav,./stim/wavs/peruvian_mismatch_declarative-narrow-focus_Mi-madre-come-la-fruta.wav,./stim/wavs/puertorican_mismatch_declarative-narrow-focus_Mi-madre-come-la-fruta.wav,,,,,,,,,,,,,,,,,,,,,,,,,,,,,,,,,,,,,,,,,,,,,,,,,,,,,,,,
,,,,,,,5d8f8510f3e52d0018924390,605b45a4d25f287719a41696,6061cb7169cc3f8b3bf14ae9,United States,Northeast,13 or older,no,2021-03-29_07h47.02.816,empathy_intonation_perc,2020.2.10,Win32,60,,,,,,,,,,0,mexican,0,1,2.292,0,2,2,14,1,15,./stim/wavs/andalusian_match_declarative-narrow-focus_Mariano-habla-del-tiempo.wav,./stim/wavs/argentine_match_declarative-narrow-focus_Mariano-habla-del-tiempo.wav,./stim/wavs/castilian_match_declarative-narrow-focus_Mariano-habla-del-tiempo.wav,./stim/wavs/chilean_match_declarative-narrow-focus_Mariano-habla-del-tiempo.wav,./stim/wavs/cuban_match_declarative-narrow-focus_Mariano-habla-del-tiempo.wav,./stim/wavs/mexican_match_declarative-narrow-focus_Mariano-habla-del-tiempo.wav,./stim/wavs/peruvian_match_declarative-narrow-focus_Mariano-habla-del-tiempo.wav,./stim/wavs/puertorican_match_declarative-narrow-focus_Mariano-habla-del-tiempo.wav,,,,,,,,,,,,,,,,,,,,,,,,,,,,,,,,,,,,,,,,,,,,,,,,,,,,,,,,
,,,,,,,5d8f8510f3e52d0018924390,605b45a4d25f287719a41696,6061cb7169cc3f8b3bf14ae9,United States,Northeast,13 or older,no,2021-03-29_07h47.02.816,empathy_intonation_perc,2020.2.10,Win32,60,,,,,,,,,,1,puertorican,0,0,5.252,0,3,3,27,1,28,./stim/wavs/andalusian_match_interrogative-total-yn_Emilio-ama-la-marcha.wav,./stim/wavs/argentine_match_interrogative-total-yn_Emilio-ama-la-marcha.wav,./stim/wavs/castilian_match_interrogative-total-yn_Emilio-ama-la-marcha.wav,./stim/wavs/chilean_match_interrogative-total-yn_Emilio-ama-la-marcha.wav,./stim/wavs/cuban_match_interrogative-total-yn_Emilio-ama-la-marcha.wav,./stim/wavs/mexican_match_interrogative-total-yn_Emilio-ama-la-marcha.wav,./stim/wavs/peruvian_match_interrogative-total-yn_Emilio-ama-la-marcha.wav,./stim/wavs/puertorican_match_interrogative-total-yn_Emilio-ama-la-marcha.wav,,,,,,,,,,,,,,,,,,,,,,,,,,,,,,,,,,,,,,,,,,,,,,,,,,,,,,,,
,,,,,,,5d8f8510f3e52d0018924390,605b45a4d25f287719a41696,6061cb7169cc3f8b3bf14ae9,United States,Northeast,13 or older,no,2021-03-29_07h47.02.816,empathy_intonation_perc,2020.2.10,Win32,60,,,,,,,,,,1,puertorican,1,1,2.028,0,4,4,49,1,50,./stim/wavs/andalusian_mismatch_interrogative-partial-wh_Cuando-lavaba-el-plato.wav,./stim/wavs/argentine_mismatch_interrogative-partial-wh_Cuando-lavaba-el-plato.wav,./stim/wavs/castilian_mismatch_interrogative-partial-wh_Cuando-lavaba-el-plato.wav,./stim/wavs/chilean_mismatch_interrogative-partial-wh_Cuando-lavaba-el-plato.wav,./stim/wavs/cuban_mismatch_interrogative-partial-wh_Cuando-lavaba-el-plato.wav,./stim/wavs/mexican_mismatch_interrogative-partial-wh_Cuando-lavaba-el-plato.wav,./stim/wavs/peruvian_mismatch_interrogative-partial-wh_Cuando-lavaba-el-plato.wav,./stim/wavs/puertorican_mismatch_interrogative-partial-wh_Cuando-lavaba-el-plato.wav,,,,,,,,,,,,,,,,,,,,,,,,,,,,,,,,,,,,,,,,,,,,,,,,,,,,,,,,
,,,,,,,5d8f8510f3e52d0018924390,605b45a4d25f287719a41696,6061cb7169cc3f8b3bf14ae9,United States,Northeast,13 or older,no,2021-03-29_07h47.02.816,empathy_intonation_perc,2020.2.10,Win32,60,,,,,,,,,,0,peruvian,0,1,4.823,0,5,5,11,1,12,./stim/wavs/andalusian_match_declarative-narrow-focus_Emilio-ama-la-marcha.wav,./stim/wavs/argentine_match_declarative-narrow-focus_Emilio-ama-la-marcha.wav,./stim/wavs/castilian_match_declarative-narrow-focus_Emilio-ama-la-marcha.wav,./stim/wavs/chilean_match_declarative-narrow-focus_Emilio-ama-la-marcha.wav,./stim/wavs/cuban_match_declarative-narrow-focus_Emilio-ama-la-marcha.wav,./stim/wavs/mexican_match_declarative-narrow-focus_Emilio-ama-la-marcha.wav,./stim/wavs/peruvian_match_declarative-narrow-focus_Emilio-ama-la-marcha.wav,./stim/wavs/puertorican_match_declarative-narrow-focus_Emilio-ama-la-marcha.wav,,,,,,,,,,,,,,,,,,,,,,,,,,,,,,,,,,,,,,,,,,,,,,,,,,,,,,,,
,,,,,,,5d8f8510f3e52d0018924390,605b45a4d25f287719a41696,6061cb7169cc3f8b3bf14ae9,United States,Northeast,13 or older,no,2021-03-29_07h47.02.816,empathy_intonation_perc,2020.2.10,Win32,60,,,,,,,,,,0,chilean,0,1,5.967,0,6,6,41,1,42,./stim/wavs/andalusian_mismatch_declarative-narrow-focus_El-hombre-mira-la-luna.wav,./stim/wavs/argentine_mismatch_declarative-narrow-focus_El-hombre-mira-la-luna.wav,./stim/wavs/castilian_mismatch_declarative-narrow-focus_El-hombre-mira-la-luna.wav,./stim/wavs/chilean_mismatch_declarative-narrow-focus_El-hombre-mira-la-luna.wav,./stim/wavs/cuban_mismatch_declarative-narrow-focus_El-hombre-mira-la-luna.wav,./stim/wavs/mexican_mismatch_declarative-narrow-focus_El-hombre-mira-la-luna.wav,./stim/wavs/peruvian_mismatch_declarative-narrow-focus_El-hombre-mira-la-luna.wav,./stim/wavs/puertorican_mismatch_declarative-narrow-focus_El-hombre-mira-la-luna.wav,,,,,,,,,,,,,,,,,,,,,,,,,,,,,,,,,,,,,,,,,,,,,,,,,,,,,,,,
,,,,,,,5d8f8510f3e52d0018924390,605b45a4d25f287719a41696,6061cb7169cc3f8b3bf14ae9,United States,Northeast,13 or older,no,2021-03-29_07h47.02.816,empathy_intonation_perc,2020.2.10,Win32,60,,,,,,,,,,0,mexican,1,0,6.88,0,7,7,40,1,41,./stim/wavs/andalusian_mismatch_declarative-narrow-focus_El-bebe-comia-muy-bien.wav,./stim/wavs/argentine_mismatch_declarative-narrow-focus_El-bebe-comia-muy-bien.wav,./stim/wavs/castilian_mismatch_declarative-narrow-focus_El-bebe-comia-muy-bien.wav,./stim/wavs/chilean_mismatch_declarative-narrow-focus_El-bebe-comia-muy-bien.wav,./stim/wavs/cuban_mismatch_declarative-narrow-focus_El-bebe-comia-muy-bien.wav,./stim/wavs/mexican_mismatch_declarative-narrow-focus_El-bebe-comia-muy-bien.wav,./stim/wavs/peruvian_mismatch_declarative-narrow-focus_El-bebe-comia-muy-bien.wav,./stim/wavs/puertorican_mismatch_declarative-narrow-focus_El-bebe-comia-muy-bien.wav,,,,,,,,,,,,,,,,,,,,,,,,,,,,,,,,,,,,,,,,,,,,,,,,,,,,,,,,
,,,,,,,5d8f8510f3e52d0018924390,605b45a4d25f287719a41696,6061cb7169cc3f8b3bf14ae9,United States,Northeast,13 or older,no,2021-03-29_07h47.02.816,empathy_intonation_perc,2020.2.10,Win32,60,,,,,,,,,,1,chilean,1,1,2.251,0,8,8,50,1,51,./stim/wavs/andalusian_mismatch_interrogative-partial-wh_Cuando-miraba-la-luna.wav,./stim/wavs/argentine_mismatch_interrogative-partial-wh_Cuando-miraba-la-luna.wav,./stim/wavs/castilian_mismatch_interrogative-partial-wh_Cuando-miraba-la-luna.wav,./stim/wavs/chilean_mismatch_interrogative-partial-wh_Cuando-miraba-la-luna.wav,./stim/wavs/cuban_mismatch_interrogative-partial-wh_Cuando-miraba-la-luna.wav,./stim/wavs/mexican_mismatch_interrogative-partial-wh_Cuando-miraba-la-luna.wav,./stim/wavs/peruvian_mismatch_interrogative-partial-wh_Cuando-miraba-la-luna.wav,./stim/wavs/puertorican_mismatch_interrogative-partial-wh_Cuando-miraba-la-luna.wav,,,,,,,,,,,,,,,,,,,,,,,,,,,,,,,,,,,,,,,,,,,,,,,,,,,,,,,,
,,,,,,,5d8f8510f3e52d0018924390,605b45a4d25f287719a41696,6061cb7169cc3f8b3bf14ae9,United States,Northeast,13 or older,no,2021-03-29_07h47.02.816,empathy_intonation_perc,2020.2.10,Win32,60,,,,,,,,,,1,chilean,0,0,4.299,0,9,9,24,1,25,./stim/wavs/andalusian_match_interrogative-total-yn_Ana-lleva-el-abrigo.wav,./stim/wavs/argentine_match_interrogative-total-yn_Ana-lleva-el-abrigo.wav,./stim/wavs/castilian_match_interrogative-total-yn_Ana-lleva-el-abrigo.wav,./stim/wavs/chilean_match_interrogative-total-yn_Ana-lleva-el-abrigo.wav,./stim/wavs/cuban_match_interrogative-total-yn_Ana-lleva-el-abrigo.wav,./stim/wavs/mexican_match_interrogative-total-yn_Ana-lleva-el-abrigo.wav,./stim/wavs/peruvian_match_interrogative-total-yn_Ana-lleva-el-abrigo.wav,./stim/wavs/puertorican_match_interrogative-total-yn_Ana-lleva-el-abrigo.wav,,,,,,,,,,,,,,,,,,,,,,,,,,,,,,,,,,,,,,,,,,,,,,,,,,,,,,,,
,,,,,,,5d8f8510f3e52d0018924390,605b45a4d25f287719a41696,6061cb7169cc3f8b3bf14ae9,United States,Northeast,13 or older,no,2021-03-29_07h47.02.816,empathy_intonation_perc,2020.2.10,Win32,60,,,,,,,,,,1,peruvian,0,0,8.623,0,10,10,30,1,31,./stim/wavs/andalusian_match_interrogative-total-yn_Mariano-habla-del-tiempo.wav,./stim/wavs/argentine_match_interrogative-total-yn_Mariano-habla-del-tiempo.wav,./stim/wavs/castilian_match_interrogative-total-yn_Mariano-habla-del-tiempo.wav,./stim/wavs/chilean_match_interrogative-total-yn_Mariano-habla-del-tiempo.wav,./stim/wavs/cuban_match_interrogative-total-yn_Mariano-habla-del-tiempo.wav,./stim/wavs/mexican_match_interrogative-total-yn_Mariano-habla-del-tiempo.wav,./stim/wavs/peruvian_match_interrogative-total-yn_Mariano-habla-del-tiempo.wav,./stim/wavs/puertorican_match_interrogative-total-yn_Mariano-habla-del-tiempo.wav,,,,,,,,,,,,,,,,,,,,,,,,,,,,,,,,,,,,,,,,,,,,,,,,,,,,,,,,
,,,,,,,5d8f8510f3e52d0018924390,605b45a4d25f287719a41696,6061cb7169cc3f8b3bf14ae9,United States,Northeast,13 or older,no,2021-03-29_07h47.02.816,empathy_intonation_perc,2020.2.10,Win32,60,,,,,,,,,,0,cuban,0,1,2.577,0,11,11,0,1,1,./stim/wavs/andalusian_match_declarative-broad-focus_Ana-lleva-el-abrigo.wav,./stim/wavs/argentine_match_declarative-broad-focus_Ana-lleva-el-abrigo.wav,./stim/wavs/castilian_match_declarative-broad-focus_Ana-lleva-el-abrigo.wav,./stim/wavs/chilean_match_declarative-broad-focus_Ana-lleva-el-abrigo.wav,./stim/wavs/cuban_match_declarative-broad-focus_Ana-lleva-el-abrigo.wav,./stim/wavs/mexican_match_declarative-broad-focus_Ana-lleva-el-abrigo.wav,./stim/wavs/peruvian_match_declarative-broad-focus_Ana-lleva-el-abrigo.wav,./stim/wavs/puertorican_match_declarative-broad-focus_Ana-lleva-el-abrigo.wav,,,,,,,,,,,,,,,,,,,,,,,,,,,,,,,,,,,,,,,,,,,,,,,,,,,,,,,,
,,,,,,,5d8f8510f3e52d0018924390,605b45a4d25f287719a41696,6061cb7169cc3f8b3bf14ae9,United States,Northeast,13 or older,no,2021-03-29_07h47.02.816,empathy_intonation_perc,2020.2.10,Win32,60,,,,,,,,,,0,castilian,0,1,2.428,0,12,12,5,1,6,./stim/wavs/andalusian_match_declarative-broad-focus_Maria-bebe-el-vino.wav,./stim/wavs/argentine_match_declarative-broad-focus_Maria-bebe-el-vino.wav,./stim/wavs/castilian_match_declarative-broad-focus_Maria-bebe-el-vino.wav,./stim/wavs/chilean_match_declarative-broad-focus_Maria-bebe-el-vino.wav,./stim/wavs/cuban_match_declarative-broad-focus_Maria-bebe-el-vino.wav,./stim/wavs/mexican_match_declarative-broad-focus_Maria-bebe-el-vino.wav,./stim/wavs/peruvian_match_declarative-broad-focus_Maria-bebe-el-vino.wav,./stim/wavs/puertorican_match_declarative-broad-focus_Maria-bebe-el-vino.wav,,,,,,,,,,,,,,,,,,,,,,,,,,,,,,,,,,,,,,,,,,,,,,,,,,,,,,,,
,,,,,,,5d8f8510f3e52d0018924390,605b45a4d25f287719a41696,6061cb7169cc3f8b3bf14ae9,United States,Northeast,13 or older,no,2021-03-29_07h47.02.816,empathy_intonation_perc,2020.2.10,Win32,60,,,,,,,,,,0,chilean,0,1,5.274,0,13,13,38,1,39,./stim/wavs/andalusian_mismatch_declarative-broad-focus_Mi-novio-viene-del-lago.wav,./stim/wavs/argentine_mismatch_declarative-broad-focus_Mi-novio-viene-del-lago.wav,./stim/wavs/castilian_mismatch_declarative-broad-focus_Mi-novio-viene-del-lago.wav,./stim/wavs/chilean_mismatch_declarative-broad-focus_Mi-novio-viene-del-lago.wav,./stim/wavs/cuban_mismatch_declarative-broad-focus_Mi-novio-viene-del-lago.wav,./stim/wavs/mexican_mismatch_declarative-broad-focus_Mi-novio-viene-del-lago.wav,./stim/wavs/peruvian_mismatch_declarative-broad-focus_Mi-novio-viene-del-lago.wav,./stim/wavs/puertorican_mismatch_declarative-broad-focus_Mi-novio-viene-del-lago.wav,,,,,,,,,,,,,,,,,,,,,,,,,,,,,,,,,,,,,,,,,,,,,,,,,,,,,,,,
,,,,,,,5d8f8510f3e52d0018924390,605b45a4d25f287719a41696,6061cb7169cc3f8b3bf14ae9,United States,Northeast,13 or older,no,2021-03-29_07h47.02.816,empathy_intonation_perc,2020.2.10,Win32,60,,,,,,,,,,1,argentine,1,1,2.299,0,14,14,53,1,54,./stim/wavs/andalusian_mismatch_interrogative-partial-wh_Por-que-oia-el-rio.wav,./stim/wavs/argentine_mismatch_interrogative-partial-wh_Por-que-oia-el-rio.wav,./stim/wavs/castilian_mismatch_interrogative-partial-wh_Por-que-oia-el-rio.wav,./stim/wavs/chilean_mismatch_interrogative-partial-wh_Por-que-oia-el-rio.wav,./stim/wavs/cuban_mismatch_interrogative-partial-wh_Por-que-oia-el-rio.wav,./stim/wavs/mexican_mismatch_interrogative-partial-wh_Por-que-oia-el-rio.wav,./stim/wavs/peruvian_mismatch_interrogative-partial-wh_Por-que-oia-el-rio.wav,./stim/wavs/puertorican_mismatch_interrogative-partial-wh_Por-que-oia-el-rio.wav,,,,,,,,,,,,,,,,,,,,,,,,,,,,,,,,,,,,,,,,,,,,,,,,,,,,,,,,
,,,,,,,5d8f8510f3e52d0018924390,605b45a4d25f287719a41696,6061cb7169cc3f8b3bf14ae9,United States,Northeast,13 or older,no,2021-03-29_07h47.02.816,empathy_intonation_perc,2020.2.10,Win32,60,,,,,,,,,,1,mexican,1,1,5,0,15,15,59,1,60,./stim/wavs/andalusian_mismatch_interrogative-total-yn_La-maestra-vive-en-Paris.wav,./stim/wavs/argentine_mismatch_interrogative-total-yn_La-maestra-vive-en-Paris.wav,./stim/wavs/castilian_mismatch_interrogative-total-yn_La-maestra-vive-en-Paris.wav,./stim/wavs/chilean_mismatch_interrogative-total-yn_La-maestra-vive-en-Paris.wav,./stim/wavs/cuban_mismatch_interrogative-total-yn_La-maestra-vive-en-Paris.wav,./stim/wavs/mexican_mismatch_interrogative-total-yn_La-maestra-vive-en-Paris.wav,./stim/wavs/peruvian_mismatch_interrogative-total-yn_La-maestra-vive-en-Paris.wav,./stim/wavs/puertorican_mismatch_interrogative-total-yn_La-maestra-vive-en-Paris.wav,,,,,,,,,,,,,,,,,,,,,,,,,,,,,,,,,,,,,,,,,,,,,,,,,,,,,,,,
,,,,,,,5d8f8510f3e52d0018924390,605b45a4d25f287719a41696,6061cb7169cc3f8b3bf14ae9,United States,Northeast,13 or older,no,2021-03-29_07h47.02.816,empathy_intonation_perc,2020.2.10,Win32,60,,,,,,,,,,1,castilian,1,1,4.212,0,16,16,51,1,52,./stim/wavs/andalusian_mismatch_interrogative-partial-wh_Por-que-desayuna-muy-bien.wav,./stim/wavs/argentine_mismatch_interrogative-partial-wh_Por-que-desayuna-muy-bien.wav,./stim/wavs/castilian_mismatch_interrogative-partial-wh_Por-que-desayuna-muy-bien.wav,./stim/wavs/chilean_mismatch_interrogative-partial-wh_Por-que-desayuna-muy-bien.wav,./stim/wavs/cuban_mismatch_interrogative-partial-wh_Por-que-desayuna-muy-bien.wav,./stim/wavs/mexican_mismatch_interrogative-partial-wh_Por-que-desayuna-muy-bien.wav,./stim/wavs/peruvian_mismatch_interrogative-partial-wh_Por-que-desayuna-muy-bien.wav,./stim/wavs/puertorican_mismatch_interrogative-partial-wh_Por-que-desayuna-muy-bien.wav,,,,,,,,,,,,,,,,,,,,,,,,,,,,,,,,,,,,,,,,,,,,,,,,,,,,,,,,
,,,,,,,5d8f8510f3e52d0018924390,605b45a4d25f287719a41696,6061cb7169cc3f8b3bf14ae9,United States,Northeast,13 or older,no,2021-03-29_07h47.02.816,empathy_intonation_perc,2020.2.10,Win32,60,,,,,,,,,,1,castilian,1,1,3.698,0,17,17,31,1,32,./stim/wavs/andalusian_match_interrogative-total-yn_Marta-abre-el-regalo.wav,./stim/wavs/argentine_match_interrogative-total-yn_Marta-abre-el-regalo.wav,./stim/wavs/castilian_match_interrogative-total-yn_Marta-abre-el-regalo.wav,./stim/wavs/chilean_match_interrogative-total-yn_Marta-abre-el-regalo.wav,./stim/wavs/cuban_match_interrogative-total-yn_Marta-abre-el-regalo.wav,./stim/wavs/mexican_match_interrogative-total-yn_Marta-abre-el-regalo.wav,./stim/wavs/peruvian_match_interrogative-total-yn_Marta-abre-el-regalo.wav,./stim/wavs/puertorican_match_interrogative-total-yn_Marta-abre-el-regalo.wav,,,,,,,,,,,,,,,,,,,,,,,,,,,,,,,,,,,,,,,,,,,,,,,,,,,,,,,,
,,,,,,,5d8f8510f3e52d0018924390,605b45a4d25f287719a41696,6061cb7169cc3f8b3bf14ae9,United States,Northeast,13 or older,no,2021-03-29_07h47.02.816,empathy_intonation_perc,2020.2.10,Win32,60,,,,,,,,,,0,castilian,0,1,3.052,0,18,18,9,1,10,./stim/wavs/andalusian_match_declarative-narrow-focus_Daniel-iba-a-Bolivia.wav,./stim/wavs/argentine_match_declarative-narrow-focus_Daniel-iba-a-Bolivia.wav,./stim/wavs/castilian_match_declarative-narrow-focus_Daniel-iba-a-Bolivia.wav,./stim/wavs/chilean_match_declarative-narrow-focus_Daniel-iba-a-Bolivia.wav,./stim/wavs/cuban_match_declarative-narrow-focus_Daniel-iba-a-Bolivia.wav,./stim/wavs/mexican_match_declarative-narrow-focus_Daniel-iba-a-Bolivia.wav,./stim/wavs/peruvian_match_declarative-narrow-focus_Daniel-iba-a-Bolivia.wav,./stim/wavs/puertorican_match_declarative-narrow-focus_Daniel-iba-a-Bolivia.wav,,,,,,,,,,,,,,,,,,,,,,,,,,,,,,,,,,,,,,,,,,,,,,,,,,,,,,,,
,,,,,,,5d8f8510f3e52d0018924390,605b45a4d25f287719a41696,6061cb7169cc3f8b3bf14ae9,United States,Northeast,13 or older,no,2021-03-29_07h47.02.816,empathy_intonation_perc,2020.2.10,Win32,60,,,,,,,,,,1,mexican,1,1,3.272,0,19,19,60,1,61,./stim/wavs/andalusian_mismatch_interrogative-total-yn_La-nina-lava-el-plato.wav,./stim/wavs/argentine_mismatch_interrogative-total-yn_La-nina-lava-el-plato.wav,./stim/wavs/castilian_mismatch_interrogative-total-yn_La-nina-lava-el-plato.wav,./stim/wavs/chilean_mismatch_interrogative-total-yn_La-nina-lava-el-plato.wav,./stim/wavs/cuban_mismatch_interrogative-total-yn_La-nina-lava-el-plato.wav,./stim/wavs/mexican_mismatch_interrogative-total-yn_La-nina-lava-el-plato.wav,./stim/wavs/peruvian_mismatch_interrogative-total-yn_La-nina-lava-el-plato.wav,./stim/wavs/puertorican_mismatch_interrogative-total-yn_La-nina-lava-el-plato.wav,,,,,,,,,,,,,,,,,,,,,,,,,,,,,,,,,,,,,,,,,,,,,,,,,,,,,,,,
,,,,,,,5d8f8510f3e52d0018924390,605b45a4d25f287719a41696,6061cb7169cc3f8b3bf14ae9,United States,Northeast,13 or older,no,2021-03-29_07h47.02.816,empathy_intonation_perc,2020.2.10,Win32,60,,,,,,,,,,1,cuban,0,0,3.101,0,20,20,29,1,30,./stim/wavs/andalusian_match_interrogative-total-yn_Maria-bebe-el-vino.wav,./stim/wavs/argentine_match_interrogative-total-yn_Maria-bebe-el-vino.wav,./stim/wavs/castilian_match_interrogative-total-yn_Maria-bebe-el-vino.wav,./stim/wavs/chilean_match_interrogative-total-yn_Maria-bebe-el-vino.wav,./stim/wavs/cuban_match_interrogative-total-yn_Maria-bebe-el-vino.wav,./stim/wavs/mexican_match_interrogative-total-yn_Maria-bebe-el-vino.wav,./stim/wavs/peruvian_match_interrogative-total-yn_Maria-bebe-el-vino.wav,./stim/wavs/puertorican_match_interrogative-total-yn_Maria-bebe-el-vino.wav,,,,,,,,,,,,,,,,,,,,,,,,,,,,,,,,,,,,,,,,,,,,,,,,,,,,,,,,
,,,,,,,5d8f8510f3e52d0018924390,605b45a4d25f287719a41696,6061cb7169cc3f8b3bf14ae9,United States,Northeast,13 or older,no,2021-03-29_07h47.02.816,empathy_intonation_perc,2020.2.10,Win32,60,,,,,,,,,,1,peruvian,1,1,5.34,0,21,21,23,1,24,./stim/wavs/andalusian_match_interrogative-partial-wh_Por-que-iba-a-Bolivia.wav,./stim/wavs/argentine_match_interrogative-partial-wh_Por-que-iba-a-Bolivia.wav,./stim/wavs/castilian_match_interrogative-partial-wh_Por-que-iba-a-Bolivia.wav,./stim/wavs/chilean_match_interrogative-partial-wh_Por-que-iba-a-Bolivia.wav,./stim/wavs/cuban_match_interrogative-partial-wh_Por-que-iba-a-Bolivia.wav,./stim/wavs/mexican_match_interrogative-partial-wh_Por-que-iba-a-Bolivia.wav,./stim/wavs/peruvian_match_interrogative-partial-wh_Por-que-iba-a-Bolivia.wav,./stim/wavs/puertorican_match_interrogative-partial-wh_Por-que-iba-a-Bolivia.wav,,,,,,,,,,,,,,,,,,,,,,,,,,,,,,,,,,,,,,,,,,,,,,,,,,,,,,,,
,,,,,,,5d8f8510f3e52d0018924390,605b45a4d25f287719a41696,6061cb7169cc3f8b3bf14ae9,United States,Northeast,13 or older,no,2021-03-29_07h47.02.816,empathy_intonation_perc,2020.2.10,Win32,60,,,,,,,,,,0,mexican,0,1,3.764,0,22,22,12,1,13,./stim/wavs/andalusian_match_declarative-narrow-focus_Manuela-vende-el-carro.wav,./stim/wavs/argentine_match_declarative-narrow-focus_Manuela-vende-el-carro.wav,./stim/wavs/castilian_match_declarative-narrow-focus_Manuela-vende-el-carro.wav,./stim/wavs/chilean_match_declarative-narrow-focus_Manuela-vende-el-carro.wav,./stim/wavs/cuban_match_declarative-narrow-focus_Manuela-vende-el-carro.wav,./stim/wavs/mexican_match_declarative-narrow-focus_Manuela-vende-el-carro.wav,./stim/wavs/peruvian_match_declarative-narrow-focus_Manuela-vende-el-carro.wav,./stim/wavs/puertorican_match_declarative-narrow-focus_Manuela-vende-el-carro.wav,,,,,,,,,,,,,,,,,,,,,,,,,,,,,,,,,,,,,,,,,,,,,,,,,,,,,,,,
,,,,,,,5d8f8510f3e52d0018924390,605b45a4d25f287719a41696,6061cb7169cc3f8b3bf14ae9,United States,Northeast,13 or older,no,2021-03-29_07h47.02.816,empathy_intonation_perc,2020.2.10,Win32,60,,,,,,,,,,0,mexican,0,1,2.071,0,23,23,8,1,9,./stim/wavs/andalusian_match_declarative-narrow-focus_Ana-lleva-el-abrigo.wav,./stim/wavs/argentine_match_declarative-narrow-focus_Ana-lleva-el-abrigo.wav,./stim/wavs/castilian_match_declarative-narrow-focus_Ana-lleva-el-abrigo.wav,./stim/wavs/chilean_match_declarative-narrow-focus_Ana-lleva-el-abrigo.wav,./stim/wavs/cuban_match_declarative-narrow-focus_Ana-lleva-el-abrigo.wav,./stim/wavs/mexican_match_declarative-narrow-focus_Ana-lleva-el-abrigo.wav,./stim/wavs/peruvian_match_declarative-narrow-focus_Ana-lleva-el-abrigo.wav,./stim/wavs/puertorican_match_declarative-narrow-focus_Ana-lleva-el-abrigo.wav,,,,,,,,,,,,,,,,,,,,,,,,,,,,,,,,,,,,,,,,,,,,,,,,,,,,,,,,
,,,,,,,5d8f8510f3e52d0018924390,605b45a4d25f287719a41696,6061cb7169cc3f8b3bf14ae9,United States,Northeast,13 or older,no,2021-03-29_07h47.02.816,empathy_intonation_perc,2020.2.10,Win32,60,,,,,,,,,,0,cuban,0,1,3.16,0,24,24,10,1,11,./stim/wavs/andalusian_match_declarative-narrow-focus_David-leia-el-libro.wav,./stim/wavs/argentine_match_declarative-narrow-focus_David-leia-el-libro.wav,./stim/wavs/castilian_match_declarative-narrow-focus_David-leia-el-libro.wav,./stim/wavs/chilean_match_declarative-narrow-focus_David-leia-el-libro.wav,./stim/wavs/cuban_match_declarative-narrow-focus_David-leia-el-libro.wav,./stim/wavs/mexican_match_declarative-narrow-focus_David-leia-el-libro.wav,./stim/wavs/peruvian_match_declarative-narrow-focus_David-leia-el-libro.wav,./stim/wavs/puertorican_match_declarative-narrow-focus_David-leia-el-libro.wav,,,,,,,,,,,,,,,,,,,,,,,,,,,,,,,,,,,,,,,,,,,,,,,,,,,,,,,,
,,,,,,,5d8f8510f3e52d0018924390,605b45a4d25f287719a41696,6061cb7169cc3f8b3bf14ae9,United States,Northeast,13 or older,no,2021-03-29_07h47.02.816,empathy_intonation_perc,2020.2.10,Win32,60,,,,,,,,,,1,argentine,1,1,2.838,0,25,25,25,1,26,./stim/wavs/andalusian_match_interrogative-total-yn_Daniel-iba-a-Bolivia.wav,./stim/wavs/argentine_match_interrogative-total-yn_Daniel-iba-a-Bolivia.wav,./stim/wavs/castilian_match_interrogative-total-yn_Daniel-iba-a-Bolivia.wav,./stim/wavs/chilean_match_interrogative-total-yn_Daniel-iba-a-Bolivia.wav,./stim/wavs/cuban_match_interrogative-total-yn_Daniel-iba-a-Bolivia.wav,./stim/wavs/mexican_match_interrogative-total-yn_Daniel-iba-a-Bolivia.wav,./stim/wavs/peruvian_match_interrogative-total-yn_Daniel-iba-a-Bolivia.wav,./stim/wavs/puertorican_match_interrogative-total-yn_Daniel-iba-a-Bolivia.wav,,,,,,,,,,,,,,,,,,,,,,,,,,,,,,,,,,,,,,,,,,,,,,,,,,,,,,,,
,,,,,,,5d8f8510f3e52d0018924390,605b45a4d25f287719a41696,6061cb7169cc3f8b3bf14ae9,United States,Northeast,13 or older,no,2021-03-29_07h47.02.816,empathy_intonation_perc,2020.2.10,Win32,60,,,,,,,,,,0,peruvian,1,0,2.935,0,26,26,42,1,43,./stim/wavs/andalusian_mismatch_declarative-narrow-focus_El-nino-oye-el-rio.wav,./stim/wavs/argentine_mismatch_declarative-narrow-focus_El-nino-oye-el-rio.wav,./stim/wavs/castilian_mismatch_declarative-narrow-focus_El-nino-oye-el-rio.wav,./stim/wavs/chilean_mismatch_declarative-narrow-focus_El-nino-oye-el-rio.wav,./stim/wavs/cuban_mismatch_declarative-narrow-focus_El-nino-oye-el-rio.wav,./stim/wavs/mexican_mismatch_declarative-narrow-focus_El-nino-oye-el-rio.wav,./stim/wavs/peruvian_mismatch_declarative-narrow-focus_El-nino-oye-el-rio.wav,./stim/wavs/puertorican_mismatch_declarative-narrow-focus_El-nino-oye-el-rio.wav,,,,,,,,,,,,,,,,,,,,,,,,,,,,,,,,,,,,,,,,,,,,,,,,,,,,,,,,
,,,,,,,5d8f8510f3e52d0018924390,605b45a4d25f287719a41696,6061cb7169cc3f8b3bf14ae9,United States,Northeast,13 or older,no,2021-03-29_07h47.02.816,empathy_intonation_perc,2020.2.10,Win32,60,,,,,,,,,,1,argentine,1,1,2.057,0,27,27,52,1,53,./stim/wavs/andalusian_mismatch_interrogative-partial-wh_Por-que-odiaba-la-lluvia.wav,./stim/wavs/argentine_mismatch_interrogative-partial-wh_Por-que-odiaba-la-lluvia.wav,./stim/wavs/castilian_mismatch_interrogative-partial-wh_Por-que-odiaba-la-lluvia.wav,./stim/wavs/chilean_mismatch_interrogative-partial-wh_Por-que-odiaba-la-lluvia.wav,./stim/wavs/cuban_mismatch_interrogative-partial-wh_Por-que-odiaba-la-lluvia.wav,./stim/wavs/mexican_mismatch_interrogative-partial-wh_Por-que-odiaba-la-lluvia.wav,./stim/wavs/peruvian_mismatch_interrogative-partial-wh_Por-que-odiaba-la-lluvia.wav,./stim/wavs/puertorican_mismatch_interrogative-partial-wh_Por-que-odiaba-la-lluvia.wav,,,,,,,,,,,,,,,,,,,,,,,,,,,,,,,,,,,,,,,,,,,,,,,,,,,,,,,,
,,,,,,,5d8f8510f3e52d0018924390,605b45a4d25f287719a41696,6061cb7169cc3f8b3bf14ae9,United States,Northeast,13 or older,no,2021-03-29_07h47.02.816,empathy_intonation_perc,2020.2.10,Win32,60,,,,,,,,,,1,mexican,1,1,2.164,0,28,28,22,1,23,./stim/wavs/andalusian_match_interrogative-partial-wh_Por-que-hablaba-del-agua.wav,./stim/wavs/argentine_match_interrogative-partial-wh_Por-que-hablaba-del-agua.wav,./stim/wavs/castilian_match_interrogative-partial-wh_Por-que-hablaba-del-agua.wav,./stim/wavs/chilean_match_interrogative-partial-wh_Por-que-hablaba-del-agua.wav,./stim/wavs/cuban_match_interrogative-partial-wh_Por-que-hablaba-del-agua.wav,./stim/wavs/mexican_match_interrogative-partial-wh_Por-que-hablaba-del-agua.wav,./stim/wavs/peruvian_match_interrogative-partial-wh_Por-que-hablaba-del-agua.wav,./stim/wavs/puertorican_match_interrogative-partial-wh_Por-que-hablaba-del-agua.wav,,,,,,,,,,,,,,,,,,,,,,,,,,,,,,,,,,,,,,,,,,,,,,,,,,,,,,,,
,,,,,,,5d8f8510f3e52d0018924390,605b45a4d25f287719a41696,6061cb7169cc3f8b3bf14ae9,United States,Northeast,13 or older,no,2021-03-29_07h47.02.816,empathy_intonation_perc,2020.2.10,Win32,60,,,,,,,,,,0,mexican,0,1,3.575,0,29,29,2,1,3,./stim/wavs/andalusian_match_declarative-broad-focus_David-leia-el-libro.wav,./stim/wavs/argentine_match_declarative-broad-focus_David-leia-el-libro.wav,./stim/wavs/castilian_match_declarative-broad-focus_David-leia-el-libro.wav,./stim/wavs/chilean_match_declarative-broad-focus_David-leia-el-libro.wav,./stim/wavs/cuban_match_declarative-broad-focus_David-leia-el-libro.wav,./stim/wavs/mexican_match_declarative-broad-focus_David-leia-el-libro.wav,./stim/wavs/peruvian_match_declarative-broad-focus_David-leia-el-libro.wav,./stim/wavs/puertorican_match_declarative-broad-focus_David-leia-el-libro.wav,,,,,,,,,,,,,,,,,,,,,,,,,,,,,,,,,,,,,,,,,,,,,,,,,,,,,,,,
,,,,,,,5d8f8510f3e52d0018924390,605b45a4d25f287719a41696,6061cb7169cc3f8b3bf14ae9,United States,Northeast,13 or older,no,2021-03-29_07h47.02.816,empathy_intonation_perc,2020.2.10,Win32,60,,,,,,,,,,1,puertorican,0,0,2.577,0,30,30,26,1,27,./stim/wavs/andalusian_match_interrogative-total-yn_David-leia-el-libro.wav,./stim/wavs/argentine_match_interrogative-total-yn_David-leia-el-libro.wav,./stim/wavs/castilian_match_interrogative-total-yn_David-leia-el-libro.wav,./stim/wavs/chilean_match_interrogative-total-yn_David-leia-el-libro.wav,./stim/wavs/cuban_match_interrogative-total-yn_David-leia-el-libro.wav,./stim/wavs/mexican_match_interrogative-total-yn_David-leia-el-libro.wav,./stim/wavs/peruvian_match_interrogative-total-yn_David-leia-el-libro.wav,./stim/wavs/puertorican_match_interrogative-total-yn_David-leia-el-libro.wav,,,,,,,,,,,,,,,,,,,,,,,,,,,,,,,,,,,,,,,,,,,,,,,,,,,,,,,,
,,,,,,,5d8f8510f3e52d0018924390,605b45a4d25f287719a41696,6061cb7169cc3f8b3bf14ae9,United States,Northeast,13 or older,no,2021-03-29_07h47.02.816,empathy_intonation_perc,2020.2.10,Win32,60,,,,,,,,,,1,cuban,0,0,2.31,0,31,31,62,1,63,./stim/wavs/andalusian_mismatch_interrogative-total-yn_Mi-novio-viene-del-lago.wav,./stim/wavs/argentine_mismatch_interrogative-total-yn_Mi-novio-viene-del-lago.wav,./stim/wavs/castilian_mismatch_interrogative-total-yn_Mi-novio-viene-del-lago.wav,./stim/wavs/chilean_mismatch_interrogative-total-yn_Mi-novio-viene-del-lago.wav,./stim/wavs/cuban_mismatch_interrogative-total-yn_Mi-novio-viene-del-lago.wav,./stim/wavs/mexican_mismatch_interrogative-total-yn_Mi-novio-viene-del-lago.wav,./stim/wavs/peruvian_mismatch_interrogative-total-yn_Mi-novio-viene-del-lago.wav,./stim/wavs/puertorican_mismatch_interrogative-total-yn_Mi-novio-viene-del-lago.wav,,,,,,,,,,,,,,,,,,,,,,,,,,,,,,,,,,,,,,,,,,,,,,,,,,,,,,,,
,,,,,,,5d8f8510f3e52d0018924390,605b45a4d25f287719a41696,6061cb7169cc3f8b3bf14ae9,United States,Northeast,13 or older,no,2021-03-29_07h47.02.816,empathy_intonation_perc,2020.2.10,Win32,60,,,,,,,,,,0,argentine,0,1,4.635,0,32,32,32,1,33,./stim/wavs/andalusian_mismatch_declarative-broad-focus_El-bebe-comia-muy-bien.wav,./stim/wavs/argentine_mismatch_declarative-broad-focus_El-bebe-comia-muy-bien.wav,./stim/wavs/castilian_mismatch_declarative-broad-focus_El-bebe-comia-muy-bien.wav,./stim/wavs/chilean_mismatch_declarative-broad-focus_El-bebe-comia-muy-bien.wav,./stim/wavs/cuban_mismatch_declarative-broad-focus_El-bebe-comia-muy-bien.wav,./stim/wavs/mexican_mismatch_declarative-broad-focus_El-bebe-comia-muy-bien.wav,./stim/wavs/peruvian_mismatch_declarative-broad-focus_El-bebe-comia-muy-bien.wav,./stim/wavs/puertorican_mismatch_declarative-broad-focus_El-bebe-comia-muy-bien.wav,,,,,,,,,,,,,,,,,,,,,,,,,,,,,,,,,,,,,,,,,,,,,,,,,,,,,,,,
,,,,,,,5d8f8510f3e52d0018924390,605b45a4d25f287719a41696,6061cb7169cc3f8b3bf14ae9,United States,Northeast,13 or older,no,2021-03-29_07h47.02.816,empathy_intonation_perc,2020.2.10,Win32,60,,,,,,,,,,0,castilian,0,1,2.73,0,33,33,34,1,35,./stim/wavs/andalusian_mismatch_declarative-broad-focus_El-nino-oye-el-rio.wav,./stim/wavs/argentine_mismatch_declarative-broad-focus_El-nino-oye-el-rio.wav,./stim/wavs/castilian_mismatch_declarative-broad-focus_El-nino-oye-el-rio.wav,./stim/wavs/chilean_mismatch_declarative-broad-focus_El-nino-oye-el-rio.wav,./stim/wavs/cuban_mismatch_declarative-broad-focus_El-nino-oye-el-rio.wav,./stim/wavs/mexican_mismatch_declarative-broad-focus_El-nino-oye-el-rio.wav,./stim/wavs/peruvian_mismatch_declarative-broad-focus_El-nino-oye-el-rio.wav,./stim/wavs/puertorican_mismatch_declarative-broad-focus_El-nino-oye-el-rio.wav,,,,,,,,,,,,,,,,,,,,,,,,,,,,,,,,,,,,,,,,,,,,,,,,,,,,,,,,
,,,,,,,5d8f8510f3e52d0018924390,605b45a4d25f287719a41696,6061cb7169cc3f8b3bf14ae9,United States,Northeast,13 or older,no,2021-03-29_07h47.02.816,empathy_intonation_perc,2020.2.10,Win32,60,,,,,,,,,,1,mexican,1,1,2.286,0,34,34,58,1,59,./stim/wavs/andalusian_mismatch_interrogative-total-yn_El-nino-oye-el-rio.wav,./stim/wavs/argentine_mismatch_interrogative-total-yn_El-nino-oye-el-rio.wav,./stim/wavs/castilian_mismatch_interrogative-total-yn_El-nino-oye-el-rio.wav,./stim/wavs/chilean_mismatch_interrogative-total-yn_El-nino-oye-el-rio.wav,./stim/wavs/cuban_mismatch_interrogative-total-yn_El-nino-oye-el-rio.wav,./stim/wavs/mexican_mismatch_interrogative-total-yn_El-nino-oye-el-rio.wav,./stim/wavs/peruvian_mismatch_interrogative-total-yn_El-nino-oye-el-rio.wav,./stim/wavs/puertorican_mismatch_interrogative-total-yn_El-nino-oye-el-rio.wav,,,,,,,,,,,,,,,,,,,,,,,,,,,,,,,,,,,,,,,,,,,,,,,,,,,,,,,,
,,,,,,,5d8f8510f3e52d0018924390,605b45a4d25f287719a41696,6061cb7169cc3f8b3bf14ae9,United States,Northeast,13 or older,no,2021-03-29_07h47.02.816,empathy_intonation_perc,2020.2.10,Win32,60,,,,,,,,,,1,castilian,1,1,2.251,0,35,35,63,1,64,./stim/wavs/andalusian_mismatch_interrogative-total-yn_Mi-tia-odia-la-lluvia.wav,./stim/wavs/argentine_mismatch_interrogative-total-yn_Mi-tia-odia-la-lluvia.wav,./stim/wavs/castilian_mismatch_interrogative-total-yn_Mi-tia-odia-la-lluvia.wav,./stim/wavs/chilean_mismatch_interrogative-total-yn_Mi-tia-odia-la-lluvia.wav,./stim/wavs/cuban_mismatch_interrogative-total-yn_Mi-tia-odia-la-lluvia.wav,./stim/wavs/mexican_mismatch_interrogative-total-yn_Mi-tia-odia-la-lluvia.wav,./stim/wavs/peruvian_mismatch_interrogative-total-yn_Mi-tia-odia-la-lluvia.wav,./stim/wavs/puertorican_mismatch_interrogative-total-yn_Mi-tia-odia-la-lluvia.wav,,,,,,,,,,,,,,,,,,,,,,,,,,,,,,,,,,,,,,,,,,,,,,,,,,,,,,,,
,,,,,,,5d8f8510f3e52d0018924390,605b45a4d25f287719a41696,6061cb7169cc3f8b3bf14ae9,United States,Northeast,13 or older,no,2021-03-29_07h47.02.816,empathy_intonation_perc,2020.2.10,Win32,60,,,,,,,,,,0,andalusian,0,1,3.133,0,36,36,44,1,45,./stim/wavs/andalusian_mismatch_declarative-narrow-focus_La-nina-lava-el-plato.wav,./stim/wavs/argentine_mismatch_declarative-narrow-focus_La-nina-lava-el-plato.wav,./stim/wavs/castilian_mismatch_declarative-narrow-focus_La-nina-lava-el-plato.wav,./stim/wavs/chilean_mismatch_declarative-narrow-focus_La-nina-lava-el-plato.wav,./stim/wavs/cuban_mismatch_declarative-narrow-focus_La-nina-lava-el-plato.wav,./stim/wavs/mexican_mismatch_declarative-narrow-focus_La-nina-lava-el-plato.wav,./stim/wavs/peruvian_mismatch_declarative-narrow-focus_La-nina-lava-el-plato.wav,./stim/wavs/puertorican_mismatch_declarative-narrow-focus_La-nina-lava-el-plato.wav,,,,,,,,,,,,,,,,,,,,,,,,,,,,,,,,,,,,,,,,,,,,,,,,,,,,,,,,
,,,,,,,5d8f8510f3e52d0018924390,605b45a4d25f287719a41696,6061cb7169cc3f8b3bf14ae9,United States,Northeast,13 or older,no,2021-03-29_07h47.02.816,empathy_intonation_perc,2020.2.10,Win32,60,,,,,,,,,,0,cuban,0,1,3.369,0,37,37,33,1,34,./stim/wavs/andalusian_mismatch_declarative-broad-focus_El-hombre-mira-la-luna.wav,./stim/wavs/argentine_mismatch_declarative-broad-focus_El-hombre-mira-la-luna.wav,./stim/wavs/castilian_mismatch_declarative-broad-focus_El-hombre-mira-la-luna.wav,./stim/wavs/chilean_mismatch_declarative-broad-focus_El-hombre-mira-la-luna.wav,./stim/wavs/cuban_mismatch_declarative-broad-focus_El-hombre-mira-la-luna.wav,./stim/wavs/mexican_mismatch_declarative-broad-focus_El-hombre-mira-la-luna.wav,./stim/wavs/peruvian_mismatch_declarative-broad-focus_El-hombre-mira-la-luna.wav,./stim/wavs/puertorican_mismatch_declarative-broad-focus_El-hombre-mira-la-luna.wav,,,,,,,,,,,,,,,,,,,,,,,,,,,,,,,,,,,,,,,,,,,,,,,,,,,,,,,,
,,,,,,,5d8f8510f3e52d0018924390,605b45a4d25f287719a41696,6061cb7169cc3f8b3bf14ae9,United States,Northeast,13 or older,no,2021-03-29_07h47.02.816,empathy_intonation_perc,2020.2.10,Win32,60,,,,,,,,,,1,chilean,1,1,4.87,0,38,38,16,1,17,./stim/wavs/andalusian_match_interrogative-partial-wh_Cuando-bebia-el-vino.wav,./stim/wavs/argentine_match_interrogative-partial-wh_Cuando-bebia-el-vino.wav,./stim/wavs/castilian_match_interrogative-partial-wh_Cuando-bebia-el-vino.wav,./stim/wavs/chilean_match_interrogative-partial-wh_Cuando-bebia-el-vino.wav,./stim/wavs/cuban_match_interrogative-partial-wh_Cuando-bebia-el-vino.wav,./stim/wavs/mexican_match_interrogative-partial-wh_Cuando-bebia-el-vino.wav,./stim/wavs/peruvian_match_interrogative-partial-wh_Cuando-bebia-el-vino.wav,./stim/wavs/puertorican_match_interrogative-partial-wh_Cuando-bebia-el-vino.wav,,,,,,,,,,,,,,,,,,,,,,,,,,,,,,,,,,,,,,,,,,,,,,,,,,,,,,,,
,,,,,,,5d8f8510f3e52d0018924390,605b45a4d25f287719a41696,6061cb7169cc3f8b3bf14ae9,United States,Northeast,13 or older,no,2021-03-29_07h47.02.816,empathy_intonation_perc,2020.2.10,Win32,60,,,,,,,,,,1,andalusian,1,1,3.356,0,39,39,61,1,62,./stim/wavs/andalusian_mismatch_interrogative-total-yn_Mi-madre-come-la-fruta.wav,./stim/wavs/argentine_mismatch_interrogative-total-yn_Mi-madre-come-la-fruta.wav,./stim/wavs/castilian_mismatch_interrogative-total-yn_Mi-madre-come-la-fruta.wav,./stim/wavs/chilean_mismatch_interrogative-total-yn_Mi-madre-come-la-fruta.wav,./stim/wavs/cuban_mismatch_interrogative-total-yn_Mi-madre-come-la-fruta.wav,./stim/wavs/mexican_mismatch_interrogative-total-yn_Mi-madre-come-la-fruta.wav,./stim/wavs/peruvian_mismatch_interrogative-total-yn_Mi-madre-come-la-fruta.wav,./stim/wavs/puertorican_mismatch_interrogative-total-yn_Mi-madre-come-la-fruta.wav,,,,,,,,,,,,,,,,,,,,,,,,,,,,,,,,,,,,,,,,,,,,,,,,,,,,,,,,
,,,,,,,5d8f8510f3e52d0018924390,605b45a4d25f287719a41696,6061cb7169cc3f8b3bf14ae9,United States,Northeast,13 or older,no,2021-03-29_07h47.02.816,empathy_intonation_perc,2020.2.10,Win32,60,,,,,,,,,,1,castilian,1,1,2.842,0,40,40,54,1,55,./stim/wavs/andalusian_mismatch_interrogative-partial-wh_Por-que-venia-del-lago.wav,./stim/wavs/argentine_mismatch_interrogative-partial-wh_Por-que-venia-del-lago.wav,./stim/wavs/castilian_mismatch_interrogative-partial-wh_Por-que-venia-del-lago.wav,./stim/wavs/chilean_mismatch_interrogative-partial-wh_Por-que-venia-del-lago.wav,./stim/wavs/cuban_mismatch_interrogative-partial-wh_Por-que-venia-del-lago.wav,./stim/wavs/mexican_mismatch_interrogative-partial-wh_Por-que-venia-del-lago.wav,./stim/wavs/peruvian_mismatch_interrogative-partial-wh_Por-que-venia-del-lago.wav,./stim/wavs/puertorican_mismatch_interrogative-partial-wh_Por-que-venia-del-lago.wav,,,,,,,,,,,,,,,,,,,,,,,,,,,,,,,,,,,,,,,,,,,,,,,,,,,,,,,,
,,,,,,,5d8f8510f3e52d0018924390,605b45a4d25f287719a41696,6061cb7169cc3f8b3bf14ae9,United States,Northeast,13 or older,no,2021-03-29_07h47.02.816,empathy_intonation_perc,2020.2.10,Win32,60,,,,,,,,,,1,puertorican,1,1,2.087,0,41,41,17,1,18,./stim/wavs/andalusian_match_interrogative-partial-wh_Cuando-leia-el-libro.wav,./stim/wavs/argentine_match_interrogative-partial-wh_Cuando-leia-el-libro.wav,./stim/wavs/castilian_match_interrogative-partial-wh_Cuando-leia-el-libro.wav,./stim/wavs/chilean_match_interrogative-partial-wh_Cuando-leia-el-libro.wav,./stim/wavs/cuban_match_interrogative-partial-wh_Cuando-leia-el-libro.wav,./stim/wavs/mexican_match_interrogative-partial-wh_Cuando-leia-el-libro.wav,./stim/wavs/peruvian_match_interrogative-partial-wh_Cuando-leia-el-libro.wav,./stim/wavs/puertorican_match_interrogative-partial-wh_Cuando-leia-el-libro.wav,,,,,,,,,,,,,,,,,,,,,,,,,,,,,,,,,,,,,,,,,,,,,,,,,,,,,,,,
,,,,,,,5d8f8510f3e52d0018924390,605b45a4d25f287719a41696,6061cb7169cc3f8b3bf14ae9,United States,Northeast,13 or older,no,2021-03-29_07h47.02.816,empathy_intonation_perc,2020.2.10,Win32,60,,,,,,,,,,1,peruvian,1,1,2.52,0,42,42,55,1,56,./stim/wavs/andalusian_mismatch_interrogative-partial-wh_Por-que-vivia-en-Paris.wav,./stim/wavs/argentine_mismatch_interrogative-partial-wh_Por-que-vivia-en-Paris.wav,./stim/wavs/castilian_mismatch_interrogative-partial-wh_Por-que-vivia-en-Paris.wav,./stim/wavs/chilean_mismatch_interrogative-partial-wh_Por-que-vivia-en-Paris.wav,./stim/wavs/cuban_mismatch_interrogative-partial-wh_Por-que-vivia-en-Paris.wav,./stim/wavs/mexican_mismatch_interrogative-partial-wh_Por-que-vivia-en-Paris.wav,./stim/wavs/peruvian_mismatch_interrogative-partial-wh_Por-que-vivia-en-Paris.wav,./stim/wavs/puertorican_mismatch_interrogative-partial-wh_Por-que-vivia-en-Paris.wav,,,,,,,,,,,,,,,,,,,,,,,,,,,,,,,,,,,,,,,,,,,,,,,,,,,,,,,,
,,,,,,,5d8f8510f3e52d0018924390,605b45a4d25f287719a41696,6061cb7169cc3f8b3bf14ae9,United States,Northeast,13 or older,no,2021-03-29_07h47.02.816,empathy_intonation_perc,2020.2.10,Win32,60,,,,,,,,,,1,argentine,1,1,1.998,0,43,43,48,1,49,./stim/wavs/andalusian_mismatch_interrogative-partial-wh_Cuando-comia-la-fruta.wav,./stim/wavs/argentine_mismatch_interrogative-partial-wh_Cuando-comia-la-fruta.wav,./stim/wavs/castilian_mismatch_interrogative-partial-wh_Cuando-comia-la-fruta.wav,./stim/wavs/chilean_mismatch_interrogative-partial-wh_Cuando-comia-la-fruta.wav,./stim/wavs/cuban_mismatch_interrogative-partial-wh_Cuando-comia-la-fruta.wav,./stim/wavs/mexican_mismatch_interrogative-partial-wh_Cuando-comia-la-fruta.wav,./stim/wavs/peruvian_mismatch_interrogative-partial-wh_Cuando-comia-la-fruta.wav,./stim/wavs/puertorican_mismatch_interrogative-partial-wh_Cuando-comia-la-fruta.wav,,,,,,,,,,,,,,,,,,,,,,,,,,,,,,,,,,,,,,,,,,,,,,,,,,,,,,,,
,,,,,,,5d8f8510f3e52d0018924390,605b45a4d25f287719a41696,6061cb7169cc3f8b3bf14ae9,United States,Northeast,13 or older,no,2021-03-29_07h47.02.816,empathy_intonation_perc,2020.2.10,Win32,60,,,,,,,,,,0,cuban,0,1,3.055,0,44,44,4,1,5,./stim/wavs/andalusian_match_declarative-broad-focus_Manuela-vende-el-carro.wav,./stim/wavs/argentine_match_declarative-broad-focus_Manuela-vende-el-carro.wav,./stim/wavs/castilian_match_declarative-broad-focus_Manuela-vende-el-carro.wav,./stim/wavs/chilean_match_declarative-broad-focus_Manuela-vende-el-carro.wav,./stim/wavs/cuban_match_declarative-broad-focus_Manuela-vende-el-carro.wav,./stim/wavs/mexican_match_declarative-broad-focus_Manuela-vende-el-carro.wav,./stim/wavs/peruvian_match_declarative-broad-focus_Manuela-vende-el-carro.wav,./stim/wavs/puertorican_match_declarative-broad-focus_Manuela-vende-el-carro.wav,,,,,,,,,,,,,,,,,,,,,,,,,,,,,,,,,,,,,,,,,,,,,,,,,,,,,,,,
,,,,,,,5d8f8510f3e52d0018924390,605b45a4d25f287719a41696,6061cb7169cc3f8b3bf14ae9,United States,Northeast,13 or older,no,2021-03-29_07h47.02.816,empathy_intonation_perc,2020.2.10,Win32,60,,,,,,,,,,0,mexican,0,1,3.372,0,45,45,3,1,4,./stim/wavs/andalusian_match_declarative-broad-focus_Emilio-ama-la-marcha.wav,./stim/wavs/argentine_match_declarative-broad-focus_Emilio-ama-la-marcha.wav,./stim/wavs/castilian_match_declarative-broad-focus_Emilio-ama-la-marcha.wav,./stim/wavs/chilean_match_declarative-broad-focus_Emilio-ama-la-marcha.wav,./stim/wavs/cuban_match_declarative-broad-focus_Emilio-ama-la-marcha.wav,./stim/wavs/mexican_match_declarative-broad-focus_Emilio-ama-la-marcha.wav,./stim/wavs/peruvian_match_declarative-broad-focus_Emilio-ama-la-marcha.wav,./stim/wavs/puertorican_match_declarative-broad-focus_Emilio-ama-la-marcha.wav,,,,,,,,,,,,,,,,,,,,,,,,,,,,,,,,,,,,,,,,,,,,,,,,,,,,,,,,
,,,,,,,5d8f8510f3e52d0018924390,605b45a4d25f287719a41696,6061cb7169cc3f8b3bf14ae9,United States,Northeast,13 or older,no,2021-03-29_07h47.02.816,empathy_intonation_perc,2020.2.10,Win32,60,,,,,,,,,,0,peruvian,0,1,2.405,0,46,46,6,1,7,./stim/wavs/andalusian_match_declarative-broad-focus_Mariano-habla-del-tiempo.wav,./stim/wavs/argentine_match_declarative-broad-focus_Mariano-habla-del-tiempo.wav,./stim/wavs/castilian_match_declarative-broad-focus_Mariano-habla-del-tiempo.wav,./stim/wavs/chilean_match_declarative-broad-focus_Mariano-habla-del-tiempo.wav,./stim/wavs/cuban_match_declarative-broad-focus_Mariano-habla-del-tiempo.wav,./stim/wavs/mexican_match_declarative-broad-focus_Mariano-habla-del-tiempo.wav,./stim/wavs/peruvian_match_declarative-broad-focus_Mariano-habla-del-tiempo.wav,./stim/wavs/puertorican_match_declarative-broad-focus_Mariano-habla-del-tiempo.wav,,,,,,,,,,,,,,,,,,,,,,,,,,,,,,,,,,,,,,,,,,,,,,,,,,,,,,,,
,,,,,,,5d8f8510f3e52d0018924390,605b45a4d25f287719a41696,6061cb7169cc3f8b3bf14ae9,United States,Northeast,13 or older,no,2021-03-29_07h47.02.816,empathy_intonation_perc,2020.2.10,Win32,60,,,,,,,,,,1,argentine,1,1,2.088,0,47,47,57,1,58,./stim/wavs/andalusian_mismatch_interrogative-total-yn_El-hombre-mira-la-luna.wav,./stim/wavs/argentine_mismatch_interrogative-total-yn_El-hombre-mira-la-luna.wav,./stim/wavs/castilian_mismatch_interrogative-total-yn_El-hombre-mira-la-luna.wav,./stim/wavs/chilean_mismatch_interrogative-total-yn_El-hombre-mira-la-luna.wav,./stim/wavs/cuban_mismatch_interrogative-total-yn_El-hombre-mira-la-luna.wav,./stim/wavs/mexican_mismatch_interrogative-total-yn_El-hombre-mira-la-luna.wav,./stim/wavs/peruvian_mismatch_interrogative-total-yn_El-hombre-mira-la-luna.wav,./stim/wavs/puertorican_mismatch_interrogative-total-yn_El-hombre-mira-la-luna.wav,,,,,,,,,,,,,,,,,,,,,,,,,,,,,,,,,,,,,,,,,,,,,,,,,,,,,,,,
,,,,,,,5d8f8510f3e52d0018924390,605b45a4d25f287719a41696,6061cb7169cc3f8b3bf14ae9,United States,Northeast,13 or older,no,2021-03-29_07h47.02.816,empathy_intonation_perc,2020.2.10,Win32,60,,,,,,,,,,1,peruvian,1,1,4.159,0,48,48,20,1,21,./stim/wavs/andalusian_match_interrogative-partial-wh_Por-que-abre-el-regalo.wav,./stim/wavs/argentine_match_interrogative-partial-wh_Por-que-abre-el-regalo.wav,./stim/wavs/castilian_match_interrogative-partial-wh_Por-que-abre-el-regalo.wav,./stim/wavs/chilean_match_interrogative-partial-wh_Por-que-abre-el-regalo.wav,./stim/wavs/cuban_match_interrogative-partial-wh_Por-que-abre-el-regalo.wav,./stim/wavs/mexican_match_interrogative-partial-wh_Por-que-abre-el-regalo.wav,./stim/wavs/peruvian_match_interrogative-partial-wh_Por-que-abre-el-regalo.wav,./stim/wavs/puertorican_match_interrogative-partial-wh_Por-que-abre-el-regalo.wav,,,,,,,,,,,,,,,,,,,,,,,,,,,,,,,,,,,,,,,,,,,,,,,,,,,,,,,,
,,,,,,,5d8f8510f3e52d0018924390,605b45a4d25f287719a41696,6061cb7169cc3f8b3bf14ae9,United States,Northeast,13 or older,no,2021-03-29_07h47.02.816,empathy_intonation_perc,2020.2.10,Win32,60,,,,,,,,,,1,andalusian,1,1,3.87,0,49,49,21,1,22,./stim/wavs/andalusian_match_interrogative-partial-wh_Por-que-ama-la-navidad.wav,./stim/wavs/argentine_match_interrogative-partial-wh_Por-que-ama-la-navidad.wav,./stim/wavs/castilian_match_interrogative-partial-wh_Por-que-ama-la-navidad.wav,./stim/wavs/chilean_match_interrogative-partial-wh_Por-que-ama-la-navidad.wav,./stim/wavs/cuban_match_interrogative-partial-wh_Por-que-ama-la-navidad.wav,./stim/wavs/mexican_match_interrogative-partial-wh_Por-que-ama-la-navidad.wav,./stim/wavs/peruvian_match_interrogative-partial-wh_Por-que-ama-la-navidad.wav,./stim/wavs/puertorican_match_interrogative-partial-wh_Por-que-ama-la-navidad.wav,,,,,,,,,,,,,,,,,,,,,,,,,,,,,,,,,,,,,,,,,,,,,,,,,,,,,,,,
,,,,,,,5d8f8510f3e52d0018924390,605b45a4d25f287719a41696,6061cb7169cc3f8b3bf14ae9,United States,Northeast,13 or older,no,2021-03-29_07h47.02.816,empathy_intonation_perc,2020.2.10,Win32,60,,,,,,,,,,0,mexican,0,1,1.81,0,50,50,35,1,36,./stim/wavs/andalusian_mismatch_declarative-broad-focus_La-maestra-vive-en-Paris.wav,./stim/wavs/argentine_mismatch_declarative-broad-focus_La-maestra-vive-en-Paris.wav,./stim/wavs/castilian_mismatch_declarative-broad-focus_La-maestra-vive-en-Paris.wav,./stim/wavs/chilean_mismatch_declarative-broad-focus_La-maestra-vive-en-Paris.wav,./stim/wavs/cuban_mismatch_declarative-broad-focus_La-maestra-vive-en-Paris.wav,./stim/wavs/mexican_mismatch_declarative-broad-focus_La-maestra-vive-en-Paris.wav,./stim/wavs/peruvian_mismatch_declarative-broad-focus_La-maestra-vive-en-Paris.wav,./stim/wavs/puertorican_mismatch_declarative-broad-focus_La-maestra-vive-en-Paris.wav,,,,,,,,,,,,,,,,,,,,,,,,,,,,,,,,,,,,,,,,,,,,,,,,,,,,,,,,
,,,,,,,5d8f8510f3e52d0018924390,605b45a4d25f287719a41696,6061cb7169cc3f8b3bf14ae9,United States,Northeast,13 or older,no,2021-03-29_07h47.02.816,empathy_intonation_perc,2020.2.10,Win32,60,,,,,,,,,,0,cuban,0,1,2.726,0,51,51,36,1,37,./stim/wavs/andalusian_mismatch_declarative-broad-focus_La-nina-lava-el-plato.wav,./stim/wavs/argentine_mismatch_declarative-broad-focus_La-nina-lava-el-plato.wav,./stim/wavs/castilian_mismatch_declarative-broad-focus_La-nina-lava-el-plato.wav,./stim/wavs/chilean_mismatch_declarative-broad-focus_La-nina-lava-el-plato.wav,./stim/wavs/cuban_mismatch_declarative-broad-focus_La-nina-lava-el-plato.wav,./stim/wavs/mexican_mismatch_declarative-broad-focus_La-nina-lava-el-plato.wav,./stim/wavs/peruvian_mismatch_declarative-broad-focus_La-nina-lava-el-plato.wav,./stim/wavs/puertorican_mismatch_declarative-broad-focus_La-nina-lava-el-plato.wav,,,,,,,,,,,,,,,,,,,,,,,,,,,,,,,,,,,,,,,,,,,,,,,,,,,,,,,,
,,,,,,,5d8f8510f3e52d0018924390,605b45a4d25f287719a41696,6061cb7169cc3f8b3bf14ae9,United States,Northeast,13 or older,no,2021-03-29_07h47.02.816,empathy_intonation_perc,2020.2.10,Win32,60,,,,,,,,,,0,argentine,0,1,2.173,0,52,52,39,1,40,./stim/wavs/andalusian_mismatch_declarative-broad-focus_Mi-tia-odia-la-lluvia.wav,./stim/wavs/argentine_mismatch_declarative-broad-focus_Mi-tia-odia-la-lluvia.wav,./stim/wavs/castilian_mismatch_declarative-broad-focus_Mi-tia-odia-la-lluvia.wav,./stim/wavs/chilean_mismatch_declarative-broad-focus_Mi-tia-odia-la-lluvia.wav,./stim/wavs/cuban_mismatch_declarative-broad-focus_Mi-tia-odia-la-lluvia.wav,./stim/wavs/mexican_mismatch_declarative-broad-focus_Mi-tia-odia-la-lluvia.wav,./stim/wavs/peruvian_mismatch_declarative-broad-focus_Mi-tia-odia-la-lluvia.wav,./stim/wavs/puertorican_mismatch_declarative-broad-focus_Mi-tia-odia-la-lluvia.wav,,,,,,,,,,,,,,,,,,,,,,,,,,,,,,,,,,,,,,,,,,,,,,,,,,,,,,,,
,,,,,,,5d8f8510f3e52d0018924390,605b45a4d25f287719a41696,6061cb7169cc3f8b3bf14ae9,United States,Northeast,13 or older,no,2021-03-29_07h47.02.816,empathy_intonation_perc,2020.2.10,Win32,60,,,,,,,,,,0,peruvian,0,1,2.096,0,53,53,1,1,2,./stim/wavs/andalusian_match_declarative-broad-focus_Daniel-iba-a-Bolivia.wav,./stim/wavs/argentine_match_declarative-broad-focus_Daniel-iba-a-Bolivia.wav,./stim/wavs/castilian_match_declarative-broad-focus_Daniel-iba-a-Bolivia.wav,./stim/wavs/chilean_match_declarative-broad-focus_Daniel-iba-a-Bolivia.wav,./stim/wavs/cuban_match_declarative-broad-focus_Daniel-iba-a-Bolivia.wav,./stim/wavs/mexican_match_declarative-broad-focus_Daniel-iba-a-Bolivia.wav,./stim/wavs/peruvian_match_declarative-broad-focus_Daniel-iba-a-Bolivia.wav,./stim/wavs/puertorican_match_declarative-broad-focus_Daniel-iba-a-Bolivia.wav,,,,,,,,,,,,,,,,,,,,,,,,,,,,,,,,,,,,,,,,,,,,,,,,,,,,,,,,
,,,,,,,5d8f8510f3e52d0018924390,605b45a4d25f287719a41696,6061cb7169cc3f8b3bf14ae9,United States,Northeast,13 or older,no,2021-03-29_07h47.02.816,empathy_intonation_perc,2020.2.10,Win32,60,,,,,,,,,,0,castilian,0,1,2.194,0,54,54,43,1,44,./stim/wavs/andalusian_mismatch_declarative-narrow-focus_La-maestra-vive-en-Paris.wav,./stim/wavs/argentine_mismatch_declarative-narrow-focus_La-maestra-vive-en-Paris.wav,./stim/wavs/castilian_mismatch_declarative-narrow-focus_La-maestra-vive-en-Paris.wav,./stim/wavs/chilean_mismatch_declarative-narrow-focus_La-maestra-vive-en-Paris.wav,./stim/wavs/cuban_mismatch_declarative-narrow-focus_La-maestra-vive-en-Paris.wav,./stim/wavs/mexican_mismatch_declarative-narrow-focus_La-maestra-vive-en-Paris.wav,./stim/wavs/peruvian_mismatch_declarative-narrow-focus_La-maestra-vive-en-Paris.wav,./stim/wavs/puertorican_mismatch_declarative-narrow-focus_La-maestra-vive-en-Paris.wav,,,,,,,,,,,,,,,,,,,,,,,,,,,,,,,,,,,,,,,,,,,,,,,,,,,,,,,,
,,,,,,,5d8f8510f3e52d0018924390,605b45a4d25f287719a41696,6061cb7169cc3f8b3bf14ae9,United States,Northeast,13 or older,no,2021-03-29_07h47.02.816,empathy_intonation_perc,2020.2.10,Win32,60,,,,,,,,,,0,cuban,0,1,2.246,0,55,55,37,1,38,./stim/wavs/andalusian_mismatch_declarative-broad-focus_Mi-madre-come-la-fruta.wav,./stim/wavs/argentine_mismatch_declarative-broad-focus_Mi-madre-come-la-fruta.wav,./stim/wavs/castilian_mismatch_declarative-broad-focus_Mi-madre-come-la-fruta.wav,./stim/wavs/chilean_mismatch_declarative-broad-focus_Mi-madre-come-la-fruta.wav,./stim/wavs/cuban_mismatch_declarative-broad-focus_Mi-madre-come-la-fruta.wav,./stim/wavs/mexican_mismatch_declarative-broad-focus_Mi-madre-come-la-fruta.wav,./stim/wavs/peruvian_mismatch_declarative-broad-focus_Mi-madre-come-la-fruta.wav,./stim/wavs/puertorican_mismatch_declarative-broad-focus_Mi-madre-come-la-fruta.wav,,,,,,,,,,,,,,,,,,,,,,,,,,,,,,,,,,,,,,,,,,,,,,,,,,,,,,,,
,,,,,,,5d8f8510f3e52d0018924390,605b45a4d25f287719a41696,6061cb7169cc3f8b3bf14ae9,United States,Northeast,13 or older,no,2021-03-29_07h47.02.816,empathy_intonation_perc,2020.2.10,Win32,60,,,,,,,,,,1,chilean,1,1,2.407,0,56,56,28,1,29,./stim/wavs/andalusian_match_interrogative-total-yn_Manuela-vende-el-carro.wav,./stim/wavs/argentine_match_interrogative-total-yn_Manuela-vende-el-carro.wav,./stim/wavs/castilian_match_interrogative-total-yn_Manuela-vende-el-carro.wav,./stim/wavs/chilean_match_interrogative-total-yn_Manuela-vende-el-carro.wav,./stim/wavs/cuban_match_interrogative-total-yn_Manuela-vende-el-carro.wav,./stim/wavs/mexican_match_interrogative-total-yn_Manuela-vende-el-carro.wav,./stim/wavs/peruvian_match_interrogative-total-yn_Manuela-vende-el-carro.wav,./stim/wavs/puertorican_match_interrogative-total-yn_Manuela-vende-el-carro.wav,,,,,,,,,,,,,,,,,,,,,,,,,,,,,,,,,,,,,,,,,,,,,,,,,,,,,,,,
,,,,,,,5d8f8510f3e52d0018924390,605b45a4d25f287719a41696,6061cb7169cc3f8b3bf14ae9,United States,Northeast,13 or older,no,2021-03-29_07h47.02.816,empathy_intonation_perc,2020.2.10,Win32,60,,,,,,,,,,0,argentine,0,1,5.091,0,57,57,47,1,48,./stim/wavs/andalusian_mismatch_declarative-narrow-focus_Mi-tia-odia-la-lluvia.wav,./stim/wavs/argentine_mismatch_declarative-narrow-focus_Mi-tia-odia-la-lluvia.wav,./stim/wavs/castilian_mismatch_declarative-narrow-focus_Mi-tia-odia-la-lluvia.wav,./stim/wavs/chilean_mismatch_declarative-narrow-focus_Mi-tia-odia-la-lluvia.wav,./stim/wavs/cuban_mismatch_declarative-narrow-focus_Mi-tia-odia-la-lluvia.wav,./stim/wavs/mexican_mismatch_declarative-narrow-focus_Mi-tia-odia-la-lluvia.wav,./stim/wavs/peruvian_mismatch_declarative-narrow-focus_Mi-tia-odia-la-lluvia.wav,./stim/wavs/puertorican_mismatch_declarative-narrow-focus_Mi-tia-odia-la-lluvia.wav,,,,,,,,,,,,,,,,,,,,,,,,,,,,,,,,,,,,,,,,,,,,,,,,,,,,,,,,
,,,,,,,5d8f8510f3e52d0018924390,605b45a4d25f287719a41696,6061cb7169cc3f8b3bf14ae9,United States,Northeast,13 or older,no,2021-03-29_07h47.02.816,empathy_intonation_perc,2020.2.10,Win32,60,,,,,,,,,,0,argentine,0,1,2.211,0,58,58,15,1,16,./stim/wavs/andalusian_match_declarative-narrow-focus_Marta-abre-el-regalo.wav,./stim/wavs/argentine_match_declarative-narrow-focus_Marta-abre-el-regalo.wav,./stim/wavs/castilian_match_declarative-narrow-focus_Marta-abre-el-regalo.wav,./stim/wavs/chilean_match_declarative-narrow-focus_Marta-abre-el-regalo.wav,./stim/wavs/cuban_match_declarative-narrow-focus_Marta-abre-el-regalo.wav,./stim/wavs/mexican_match_declarative-narrow-focus_Marta-abre-el-regalo.wav,./stim/wavs/peruvian_match_declarative-narrow-focus_Marta-abre-el-regalo.wav,./stim/wavs/puertorican_match_declarative-narrow-focus_Marta-abre-el-regalo.wav,,,,,,,,,,,,,,,,,,,,,,,,,,,,,,,,,,,,,,,,,,,,,,,,,,,,,,,,
,,,,,,,5d8f8510f3e52d0018924390,605b45a4d25f287719a41696,6061cb7169cc3f8b3bf14ae9,United States,Northeast,13 or older,no,2021-03-29_07h47.02.816,empathy_intonation_perc,2020.2.10,Win32,60,,,,,,,,,,1,peruvian,1,1,2.464,0,59,59,18,1,19,./stim/wavs/andalusian_match_interrogative-partial-wh_Cuando-lleva-el-abrigo.wav,./stim/wavs/argentine_match_interrogative-partial-wh_Cuando-lleva-el-abrigo.wav,./stim/wavs/castilian_match_interrogative-partial-wh_Cuando-lleva-el-abrigo.wav,./stim/wavs/chilean_match_interrogative-partial-wh_Cuando-lleva-el-abrigo.wav,./stim/wavs/cuban_match_interrogative-partial-wh_Cuando-lleva-el-abrigo.wav,./stim/wavs/mexican_match_interrogative-partial-wh_Cuando-lleva-el-abrigo.wav,./stim/wavs/peruvian_match_interrogative-partial-wh_Cuando-lleva-el-abrigo.wav,./stim/wavs/puertorican_match_interrogative-partial-wh_Cuando-lleva-el-abrigo.wav,,,,,,,,,,,,,,,,,,,,,,,,,,,,,,,,,,,,,,,,,,,,,,,,,,,,,,,,
,,,,,,,5d8f8510f3e52d0018924390,605b45a4d25f287719a41696,6061cb7169cc3f8b3bf14ae9,United States,Northeast,13 or older,no,2021-03-29_07h47.02.816,empathy_intonation_perc,2020.2.10,Win32,60,,,,,,,,,,0,puertorican,0,1,2.087,0,60,60,46,1,47,./stim/wavs/andalusian_mismatch_declarative-narrow-focus_Mi-novio-viene-del-lago.wav,./stim/wavs/argentine_mismatch_declarative-narrow-focus_Mi-novio-viene-del-lago.wav,./stim/wavs/castilian_mismatch_declarative-narrow-focus_Mi-novio-viene-del-lago.wav,./stim/wavs/chilean_mismatch_declarative-narrow-focus_Mi-novio-viene-del-lago.wav,./stim/wavs/cuban_mismatch_declarative-narrow-focus_Mi-novio-viene-del-lago.wav,./stim/wavs/mexican_mismatch_declarative-narrow-focus_Mi-novio-viene-del-lago.wav,./stim/wavs/peruvian_mismatch_declarative-narrow-focus_Mi-novio-viene-del-lago.wav,./stim/wavs/puertorican_mismatch_declarative-narrow-focus_Mi-novio-viene-del-lago.wav,,,,,,,,,,,,,,,,,,,,,,,,,,,,,,,,,,,,,,,,,,,,,,,,,,,,,,,,
,,,,,,,5d8f8510f3e52d0018924390,605b45a4d25f287719a41696,6061cb7169cc3f8b3bf14ae9,United States,Northeast,13 or older,no,2021-03-29_07h47.02.816,empathy_intonation_perc,2020.2.10,Win32,60,,,,,,,,,,1,andalusian,1,1,2.746,0,61,61,19,1,20,./stim/wavs/andalusian_match_interrogative-partial-wh_Cuando-vendia-el-carro.wav,./stim/wavs/argentine_match_interrogative-partial-wh_Cuando-vendia-el-carro.wav,./stim/wavs/castilian_match_interrogative-partial-wh_Cuando-vendia-el-carro.wav,./stim/wavs/chilean_match_interrogative-partial-wh_Cuando-vendia-el-carro.wav,./stim/wavs/cuban_match_interrogative-partial-wh_Cuando-vendia-el-carro.wav,./stim/wavs/mexican_match_interrogative-partial-wh_Cuando-vendia-el-carro.wav,./stim/wavs/peruvian_match_interrogative-partial-wh_Cuando-vendia-el-carro.wav,./stim/wavs/puertorican_match_interrogative-partial-wh_Cuando-vendia-el-carro.wav,,,,,,,,,,,,,,,,,,,,,,,,,,,,,,,,,,,,,,,,,,,,,,,,,,,,,,,,
,,,,,,,5d8f8510f3e52d0018924390,605b45a4d25f287719a41696,6061cb7169cc3f8b3bf14ae9,United States,Northeast,13 or older,no,2021-03-29_07h47.02.816,empathy_intonation_perc,2020.2.10,Win32,60,,,,,,,,,,1,puertorican,1,1,2.142,0,62,62,56,1,57,./stim/wavs/andalusian_mismatch_interrogative-total-yn_El-bebe-comia-muy-bien.wav,./stim/wavs/argentine_mismatch_interrogative-total-yn_El-bebe-comia-muy-bien.wav,./stim/wavs/castilian_mismatch_interrogative-total-yn_El-bebe-comia-muy-bien.wav,./stim/wavs/chilean_mismatch_interrogative-total-yn_El-bebe-comia-muy-bien.wav,./stim/wavs/cuban_mismatch_interrogative-total-yn_El-bebe-comia-muy-bien.wav,./stim/wavs/mexican_mismatch_interrogative-total-yn_El-bebe-comia-muy-bien.wav,./stim/wavs/peruvian_mismatch_interrogative-total-yn_El-bebe-comia-muy-bien.wav,./stim/wavs/puertorican_mismatch_interrogative-total-yn_El-bebe-comia-muy-bien.wav,,,,,,,,,,,,,,,,,,,,,,,,,,,,,,,,,,,,,,,,,,,,,,,,,,,,,,,,
,,,,,,,5d8f8510f3e52d0018924390,605b45a4d25f287719a41696,6061cb7169cc3f8b3bf14ae9,United States,Northeast,13 or older,no,2021-03-29_07h47.02.816,empathy_intonation_perc,2020.2.10,Win32,60,,,,,,,,,,0,peruvian,0,1,2.203,0,63,63,13,1,14,./stim/wavs/andalusian_match_declarative-narrow-focus_Maria-bebe-el-vino.wav,./stim/wavs/argentine_match_declarative-narrow-focus_Maria-bebe-el-vino.wav,./stim/wavs/castilian_match_declarative-narrow-focus_Maria-bebe-el-vino.wav,./stim/wavs/chilean_match_declarative-narrow-focus_Maria-bebe-el-vino.wav,./stim/wavs/cuban_match_declarative-narrow-focus_Maria-bebe-el-vino.wav,./stim/wavs/mexican_match_declarative-narrow-focus_Maria-bebe-el-vino.wav,./stim/wavs/peruvian_match_declarative-narrow-focus_Maria-bebe-el-vino.wav,./stim/wavs/puertorican_match_declarative-narrow-focus_Maria-bebe-el-vino.wav,,,,,,,,,,,,,,,,,,,,,,,,,,,,,,,,,,,,,,,,,,,,,,,,,,,,,,,,
,,,,,,,5d8f8510f3e52d0018924390,605b45a4d25f287719a41696,6061cb7169cc3f8b3bf14ae9,United States,Northeast,13 or older,no,2021-03-29_07h47.02.816,empathy_intonation_perc,2020.2.10,Win32,60,,,,,,,,,,,,,,,,,,,,,,,,,,,,,h,1,5.326,0,0,0,0,1,,,,,,,,,,,,,,,,,,,,,,,,,,,,,,,,,,,,,,,,,,,,,,,,
,,,,,"Great! Now we will move on. The next task consists of about 60 trials, in each of which you will see a string of letters. 
  
  Your task is to decide whether this is a real Spanish word or not.",(press the spacebar to continue),5d8f8510f3e52d0018924390,605b45a4d25f287719a41696,6061cb7169cc3f8b3bf14ae9,United States,Northeast,13 or older,no,2021-03-29_07h47.02.816,empathy_intonation_perc,2020.2.10,Win32,60,,,,,,,,,,,,,,,,,,,,,,,,,,,,,,,,,,,,,0,0,0,0,1,,,,,,,,,,,,,,,,,,,,,,,,,,,,,,,,,,,,,,,,,,,
,,,,,"If you think it is an existing Spanish word, you type '1' (for 'REAL'), and if you think it is not an existing Spanish word, you type '0' (for 'FAKE').",(press the spacebar to continue),5d8f8510f3e52d0018924390,605b45a4d25f287719a41696,6061cb7169cc3f8b3bf14ae9,United States,Northeast,13 or older,no,2021-03-29_07h47.02.816,empathy_intonation_perc,2020.2.10,Win32,60,,,,,,,,,,,,,,,,,,,,,,,,,,,,,,,,,,,,,0,1,1,1,1,,,,,,,,,,,,,,,,,,,,,,,,,,,,,,,,,,,,,,,,,,,
,,,,,"If you are sure that the word exists, even though you dont know its exact meaning, you may still respond '1' (REAL). 
  
  But if you are not sure if it is an existing word, you should respond '0' (FAKE).
  
  Let's do a practice round...",(press the spacebar to continue),5d8f8510f3e52d0018924390,605b45a4d25f287719a41696,6061cb7169cc3f8b3bf14ae9,United States,Northeast,13 or older,no,2021-03-29_07h47.02.816,empathy_intonation_perc,2020.2.10,Win32,60,,,,,,,,,,,,,,,,,,,,,,,,,,,,,,,,,,,,,0,2,2,2,1,,,,,,,,,,,,,,,,,,,,,,,,,,,,,,,,,,,,,,,,,,,
,,,,,,,5d8f8510f3e52d0018924390,605b45a4d25f287719a41696,6061cb7169cc3f8b3bf14ae9,United States,Northeast,13 or older,no,2021-03-29_07h47.02.816,empathy_intonation_perc,2020.2.10,Win32,60,,,,,,,,,,0,,,,,,,,,,,,,,,,,,,,,,,,,,,,,,,,0,1,4.753,0,0,0,0,1,0,depiste,REAL,FAKE,,,,,,,,,,,,,,,,,,,,,,,,,,,,,,,
,,,,,,,5d8f8510f3e52d0018924390,605b45a4d25f287719a41696,6061cb7169cc3f8b3bf14ae9,United States,Northeast,13 or older,no,2021-03-29_07h47.02.816,empathy_intonation_perc,2020.2.10,Win32,60,,,,,,,,,,1,,,,,,,,,,,,,,,,,,,,,,,,,,,,,,,,1,1,1.572,0,1,1,1,1,0,s,REAL,FAKE,,,,,,,,,,,,,,,,,,,,,,,,,,,,,,,
,,,,,,,5d8f8510f3e52d0018924390,605b45a4d25f287719a41696,6061cb7169cc3f8b3bf14ae9,United States,Northeast,13 or older,no,2021-03-29_07h47.02.816,empathy_intonation_perc,2020.2.10,Win32,60,,,,,,,,,,0,,,,,,,,,,,,,,,,,,,,,,,,,,,,,,,,0,1,1.826,0,2,2,2,1,0,con,REAL,FAKE,,,,,,,,,,,,,,,,,,,,,,,,,,,,,,,
,,,,,,,5d8f8510f3e52d0018924390,605b45a4d25f287719a41696,6061cb7169cc3f8b3bf14ae9,United States,Northeast,13 or older,no,2021-03-29_07h47.02.816,empathy_intonation_perc,2020.2.10,Win32,60,,,,,,,,,,0,,,,,,,,,,,,,,,,,,,,,,,,,,,,,,,,1,0,1.834,0,3,3,3,1,0,calpar,REAL,FAKE,,,,,,,,,,,,,,,,,,,,,,,,,,,,,,,
,,,,,,,5d8f8510f3e52d0018924390,605b45a4d25f287719a41696,6061cb7169cc3f8b3bf14ae9,United States,Northeast,13 or older,no,2021-03-29_07h47.02.816,empathy_intonation_perc,2020.2.10,Win32,60,,,,,,,,,,0,,,,,,,,,,,,,,,,,,,,,,,,,,,,,,,,0,1,1.857,0,4,4,4,1,0,joten,REAL,FAKE,,,,,,,,,,,,,,,,,,,,,,,,,,,,,,,
,,,,,,,5d8f8510f3e52d0018924390,605b45a4d25f287719a41696,6061cb7169cc3f8b3bf14ae9,United States,Northeast,13 or older,no,2021-03-29_07h47.02.816,empathy_intonation_perc,2020.2.10,Win32,60,,,,,,,,,,1,,,,,,,,,,,,,,,,,,,,,,,,,,,,,,,,1,1,2.206,0,5,5,5,1,0,sacapuntas,REAL,FAKE,,,,,,,,,,,,,,,,,,,,,,,,,,,,,,,
,,,,,,,5d8f8510f3e52d0018924390,605b45a4d25f287719a41696,6061cb7169cc3f8b3bf14ae9,United States,Northeast,13 or older,no,2021-03-29_07h47.02.816,empathy_intonation_perc,2020.2.10,Win32,60,,,,,,,,,,0,,,,,,,,,,,,,,,,,,,,,,,,,,,,,,,,0,1,1.602,0,6,6,6,1,0,priba,REAL,FAKE,,,,,,,,,,,,,,,,,,,,,,,,,,,,,,,
,,,,,,,5d8f8510f3e52d0018924390,605b45a4d25f287719a41696,6061cb7169cc3f8b3bf14ae9,United States,Northeast,13 or older,no,2021-03-29_07h47.02.816,empathy_intonation_perc,2020.2.10,Win32,60,,,,,,,,,,0,,,,,,,,,,,,,,,,,,,,,,,,,,,,,,,,1,0,2.935,0,7,7,7,1,0,pelasula,REAL,FAKE,,,,,,,,,,,,,,,,,,,,,,,,,,,,,,,
,,,,,,,5d8f8510f3e52d0018924390,605b45a4d25f287719a41696,6061cb7169cc3f8b3bf14ae9,United States,Northeast,13 or older,no,2021-03-29_07h47.02.816,empathy_intonation_perc,2020.2.10,Win32,60,,,,,,,,,,1,,,,,,,,,,,,,,,,,,,,,,,,,,,,,,,,1,1,0.933,0,8,8,8,1,0,bien,REAL,FAKE,,,,,,,,,,,,,,,,,,,,,,,,,,,,,,,
,,,,,,,5d8f8510f3e52d0018924390,605b45a4d25f287719a41696,6061cb7169cc3f8b3bf14ae9,United States,Northeast,13 or older,no,2021-03-29_07h47.02.816,empathy_intonation_perc,2020.2.10,Win32,60,,,,,,,,,,1,,,,,,,,,,,,,,,,,,,,,,,,,,,,,,,,1,1,0.995,0,9,9,9,1,0,casa,REAL,FAKE,,,,,,,,,,,,,,,,,,,,,,,,,,,,,,,
,,,,,,,5d8f8510f3e52d0018924390,605b45a4d25f287719a41696,6061cb7169cc3f8b3bf14ae9,United States,Northeast,13 or older,no,2021-03-29_07h47.02.816,empathy_intonation_perc,2020.2.10,Win32,60,,,,,,,,,,0,,,,,,,,,,,,,,,,,,,,,,,,,,,,,,,,1,0,1.298,0,10,10,10,1,0,lejo,REAL,FAKE,,,,,,,,,,,,,,,,,,,,,,,,,,,,,,,
,,,,,,,5d8f8510f3e52d0018924390,605b45a4d25f287719a41696,6061cb7169cc3f8b3bf14ae9,United States,Northeast,13 or older,no,2021-03-29_07h47.02.816,empathy_intonation_perc,2020.2.10,Win32,60,,,,,,,,,,0,,,,,,,,,,,,,,,,,,,,,,,,,,,,,,,,0,1,2.345,0,11,11,11,1,0,pretantas,REAL,FAKE,,,,,,,,,,,,,,,,,,,,,,,,,,,,,,,
,,,,,,,5d8f8510f3e52d0018924390,605b45a4d25f287719a41696,6061cb7169cc3f8b3bf14ae9,United States,Northeast,13 or older,no,2021-03-29_07h47.02.816,empathy_intonation_perc,2020.2.10,Win32,60,,,,,,,,,,1,,,,,,,,,,,,,,,,,,,,,,,,,,,,,,,,,,,,,,,,55,nevar,,,1,1,1.739,0,0,0,54,1,REAL,FAKE,,,,,,,,,,,,,,,,,,,,,
,,,,,,,5d8f8510f3e52d0018924390,605b45a4d25f287719a41696,6061cb7169cc3f8b3bf14ae9,United States,Northeast,13 or older,no,2021-03-29_07h47.02.816,empathy_intonation_perc,2020.2.10,Win32,60,,,,,,,,,,1,,,,,,,,,,,,,,,,,,,,,,,,,,,,,,,,,,,,,,,,36,loro,,,0,0,4.122,0,1,1,35,1,REAL,FAKE,,,,,,,,,,,,,,,,,,,,,
,,,,,,,5d8f8510f3e52d0018924390,605b45a4d25f287719a41696,6061cb7169cc3f8b3bf14ae9,United States,Northeast,13 or older,no,2021-03-29_07h47.02.816,empathy_intonation_perc,2020.2.10,Win32,60,,,,,,,,,,1,,,,,,,,,,,,,,,,,,,,,,,,,,,,,,,,,,,,,,,,89,prisa,,,1,1,4.152,0,2,2,88,1,REAL,FAKE,,,,,,,,,,,,,,,,,,,,,
,,,,,,,5d8f8510f3e52d0018924390,605b45a4d25f287719a41696,6061cb7169cc3f8b3bf14ae9,United States,Northeast,13 or older,no,2021-03-29_07h47.02.816,empathy_intonation_perc,2020.2.10,Win32,60,,,,,,,,,,0,,,,,,,,,,,,,,,,,,,,,,,,,,,,,,,,,,,,,,,,33,pauca,,,0,1,1.371,0,3,3,32,1,REAL,FAKE,,,,,,,,,,,,,,,,,,,,,
,,,,,,,5d8f8510f3e52d0018924390,605b45a4d25f287719a41696,6061cb7169cc3f8b3bf14ae9,United States,Northeast,13 or older,no,2021-03-29_07h47.02.816,empathy_intonation_perc,2020.2.10,Win32,60,,,,,,,,,,0,,,,,,,,,,,,,,,,,,,,,,,,,,,,,,,,,,,,,,,,82,empirador,,,0,1,5.342,0,4,4,81,1,REAL,FAKE,,,,,,,,,,,,,,,,,,,,,
,,,,,,,5d8f8510f3e52d0018924390,605b45a4d25f287719a41696,6061cb7169cc3f8b3bf14ae9,United States,Northeast,13 or older,no,2021-03-29_07h47.02.816,empathy_intonation_perc,2020.2.10,Win32,60,,,,,,,,,,1,,,,,,,,,,,,,,,,,,,,,,,,,,,,,,,,,,,,,,,,60,matar,,,1,1,1.179,0,5,5,59,1,REAL,FAKE,,,,,,,,,,,,,,,,,,,,,
,,,,,,,5d8f8510f3e52d0018924390,605b45a4d25f287719a41696,6061cb7169cc3f8b3bf14ae9,United States,Northeast,13 or older,no,2021-03-29_07h47.02.816,empathy_intonation_perc,2020.2.10,Win32,60,,,,,,,,,,0,,,,,,,,,,,,,,,,,,,,,,,,,,,,,,,,,,,,,,,,1,terzo,,,1,0,1.516,0,6,6,0,1,REAL,FAKE,,,,,,,,,,,,,,,,,,,,,
,,,,,,,5d8f8510f3e52d0018924390,605b45a4d25f287719a41696,6061cb7169cc3f8b3bf14ae9,United States,Northeast,13 or older,no,2021-03-29_07h47.02.816,empathy_intonation_perc,2020.2.10,Win32,60,,,,,,,,,,1,,,,,,,,,,,,,,,,,,,,,,,,,,,,,,,,,,,,,,,,2,pellizcar,,,0,0,2.545,0,7,7,1,1,REAL,FAKE,,,,,,,,,,,,,,,,,,,,,
,,,,,,,5d8f8510f3e52d0018924390,605b45a4d25f287719a41696,6061cb7169cc3f8b3bf14ae9,United States,Northeast,13 or older,no,2021-03-29_07h47.02.816,empathy_intonation_perc,2020.2.10,Win32,60,,,,,,,,,,1,,,,,,,,,,,,,,,,,,,,,,,,,,,,,,,,,,,,,,,,68,alegre,,,1,1,1.247,0,8,8,67,1,REAL,FAKE,,,,,,,,,,,,,,,,,,,,,
,,,,,,,5d8f8510f3e52d0018924390,605b45a4d25f287719a41696,6061cb7169cc3f8b3bf14ae9,United States,Northeast,13 or older,no,2021-03-29_07h47.02.816,empathy_intonation_perc,2020.2.10,Win32,60,,,,,,,,,,0,,,,,,,,,,,,,,,,,,,,,,,,,,,,,,,,,,,,,,,,30,alardio,,,0,1,1.628,0,9,9,29,1,REAL,FAKE,,,,,,,,,,,,,,,,,,,,,
,,,,,,,5d8f8510f3e52d0018924390,605b45a4d25f287719a41696,6061cb7169cc3f8b3bf14ae9,United States,Northeast,13 or older,no,2021-03-29_07h47.02.816,empathy_intonation_perc,2020.2.10,Win32,60,,,,,,,,,,1,,,,,,,,,,,,,,,,,,,,,,,,,,,,,,,,,,,,,,,,62,flaco,,,1,1,1.057,0,10,10,61,1,REAL,FAKE,,,,,,,,,,,,,,,,,,,,,
,,,,,,,5d8f8510f3e52d0018924390,605b45a4d25f287719a41696,6061cb7169cc3f8b3bf14ae9,United States,Northeast,13 or older,no,2021-03-29_07h47.02.816,empathy_intonation_perc,2020.2.10,Win32,60,,,,,,,,,,1,,,,,,,,,,,,,,,,,,,,,,,,,,,,,,,,,,,,,,,,46,martillo,,,0,0,1.401,0,11,11,45,1,REAL,FAKE,,,,,,,,,,,,,,,,,,,,,
,,,,,,,5d8f8510f3e52d0018924390,605b45a4d25f287719a41696,6061cb7169cc3f8b3bf14ae9,United States,Northeast,13 or older,no,2021-03-29_07h47.02.816,empathy_intonation_perc,2020.2.10,Win32,60,,,,,,,,,,0,,,,,,,,,,,,,,,,,,,,,,,,,,,,,,,,,,,,,,,,18,arsa,,,1,0,1.463,0,12,12,17,1,REAL,FAKE,,,,,,,,,,,,,,,,,,,,,
,,,,,,,5d8f8510f3e52d0018924390,605b45a4d25f287719a41696,6061cb7169cc3f8b3bf14ae9,United States,Northeast,13 or older,no,2021-03-29_07h47.02.816,empathy_intonation_perc,2020.2.10,Win32,60,,,,,,,,,,1,,,,,,,,,,,,,,,,,,,,,,,,,,,,,,,,,,,,,,,,9,hacha,,,1,1,2.25,0,13,13,8,1,REAL,FAKE,,,,,,,,,,,,,,,,,,,,,
,,,,,,,5d8f8510f3e52d0018924390,605b45a4d25f287719a41696,6061cb7169cc3f8b3bf14ae9,United States,Northeast,13 or older,no,2021-03-29_07h47.02.816,empathy_intonation_perc,2020.2.10,Win32,60,,,,,,,,,,1,,,,,,,,,,,,,,,,,,,,,,,,,,,,,,,,,,,,,,,,13,helar,,,0,0,1.232,0,14,14,12,1,REAL,FAKE,,,,,,,,,,,,,,,,,,,,,
,,,,,,,5d8f8510f3e52d0018924390,605b45a4d25f287719a41696,6061cb7169cc3f8b3bf14ae9,United States,Northeast,13 or older,no,2021-03-29_07h47.02.816,empathy_intonation_perc,2020.2.10,Win32,60,,,,,,,,,,1,,,,,,,,,,,,,,,,,,,,,,,,,,,,,,,,,,,,,,,,34,aviso,,,1,1,1.458,0,15,15,33,1,REAL,FAKE,,,,,,,,,,,,,,,,,,,,,
,,,,,,,5d8f8510f3e52d0018924390,605b45a4d25f287719a41696,6061cb7169cc3f8b3bf14ae9,United States,Northeast,13 or older,no,2021-03-29_07h47.02.816,empathy_intonation_perc,2020.2.10,Win32,60,,,,,,,,,,1,,,,,,,,,,,,,,,,,,,,,,,,,,,,,,,,,,,,,,,,25,bisagra,,,0,0,1.121,0,16,16,24,1,REAL,FAKE,,,,,,,,,,,,,,,,,,,,,
,,,,,,,5d8f8510f3e52d0018924390,605b45a4d25f287719a41696,6061cb7169cc3f8b3bf14ae9,United States,Northeast,13 or older,no,2021-03-29_07h47.02.816,empathy_intonation_perc,2020.2.10,Win32,60,,,,,,,,,,1,,,,,,,,,,,,,,,,,,,,,,,,,,,,,,,,,,,,,,,,85,lad,,,0,0,1.19,0,17,17,84,1,REAL,FAKE,,,,,,,,,,,,,,,,,,,,,
,,,,,,,5d8f8510f3e52d0018924390,605b45a4d25f287719a41696,6061cb7169cc3f8b3bf14ae9,United States,Northeast,13 or older,no,2021-03-29_07h47.02.816,empathy_intonation_perc,2020.2.10,Win32,60,,,,,,,,,,1,,,,,,,,,,,,,,,,,,,,,,,,,,,,,,,,,,,,,,,,75,yacer,,,0,0,1.153,0,18,18,74,1,REAL,FAKE,,,,,,,,,,,,,,,,,,,,,
,,,,,,,5d8f8510f3e52d0018924390,605b45a4d25f287719a41696,6061cb7169cc3f8b3bf14ae9,United States,Northeast,13 or older,no,2021-03-29_07h47.02.816,empathy_intonation_perc,2020.2.10,Win32,60,,,,,,,,,,0,,,,,,,,,,,,,,,,,,,,,,,,,,,,,,,,,,,,,,,,58,plaudir,,,0,1,0.995,0,19,19,57,1,REAL,FAKE,,,,,,,,,,,,,,,,,,,,,
,,,,,,,5d8f8510f3e52d0018924390,605b45a4d25f287719a41696,6061cb7169cc3f8b3bf14ae9,United States,Northeast,13 or older,no,2021-03-29_07h47.02.816,empathy_intonation_perc,2020.2.10,Win32,60,,,,,,,,,,0,,,,,,,,,,,,,,,,,,,,,,,,,,,,,,,,,,,,,,,,8,cadea,,,1,0,1.087,0,20,20,7,1,REAL,FAKE,,,,,,,,,,,,,,,,,,,,,
,,,,,,,5d8f8510f3e52d0018924390,605b45a4d25f287719a41696,6061cb7169cc3f8b3bf14ae9,United States,Northeast,13 or older,no,2021-03-29_07h47.02.816,empathy_intonation_perc,2020.2.10,Win32,60,,,,,,,,,,0,,,,,,,,,,,,,,,,,,,,,,,,,,,,,,,,,,,,,,,,63,esposante,,,0,1,1.661,0,21,21,62,1,REAL,FAKE,,,,,,,,,,,,,,,,,,,,,
,,,,,,,5d8f8510f3e52d0018924390,605b45a4d25f287719a41696,6061cb7169cc3f8b3bf14ae9,United States,Northeast,13 or older,no,2021-03-29_07h47.02.816,empathy_intonation_perc,2020.2.10,Win32,60,,,,,,,,,,1,,,,,,,,,,,,,,,,,,,,,,,,,,,,,,,,,,,,,,,,61,seda,,,0,0,0.829,0,22,22,60,1,REAL,FAKE,,,,,,,,,,,,,,,,,,,,,
,,,,,,,5d8f8510f3e52d0018924390,605b45a4d25f287719a41696,6061cb7169cc3f8b3bf14ae9,United States,Northeast,13 or older,no,2021-03-29_07h47.02.816,empathy_intonation_perc,2020.2.10,Win32,60,,,,,,,,,,0,,,,,,,,,,,,,,,,,,,,,,,,,,,,,,,,,,,,,,,,27,acutacin,,,0,1,1.371,0,23,23,26,1,REAL,FAKE,,,,,,,,,,,,,,,,,,,,,
,,,,,,,5d8f8510f3e52d0018924390,605b45a4d25f287719a41696,6061cb7169cc3f8b3bf14ae9,United States,Northeast,13 or older,no,2021-03-29_07h47.02.816,empathy_intonation_perc,2020.2.10,Win32,60,,,,,,,,,,1,,,,,,,,,,,,,,,,,,,,,,,,,,,,,,,,,,,,,,,,49,ganar,,,1,1,2.139,0,24,24,48,1,REAL,FAKE,,,,,,,,,,,,,,,,,,,,,
,,,,,,,5d8f8510f3e52d0018924390,605b45a4d25f287719a41696,6061cb7169cc3f8b3bf14ae9,United States,Northeast,13 or older,no,2021-03-29_07h47.02.816,empathy_intonation_perc,2020.2.10,Win32,60,,,,,,,,,,0,,,,,,,,,,,,,,,,,,,,,,,,,,,,,,,,,,,,,,,,72,pemicin,,,0,1,1.818,0,25,25,71,1,REAL,FAKE,,,,,,,,,,,,,,,,,,,,,
,,,,,,,5d8f8510f3e52d0018924390,605b45a4d25f287719a41696,6061cb7169cc3f8b3bf14ae9,United States,Northeast,13 or older,no,2021-03-29_07h47.02.816,empathy_intonation_perc,2020.2.10,Win32,60,,,,,,,,,,1,,,,,,,,,,,,,,,,,,,,,,,,,,,,,,,,,,,,,,,,14,yunque,,,0,0,0.957,0,26,26,13,1,REAL,FAKE,,,,,,,,,,,,,,,,,,,,,
,,,,,,,5d8f8510f3e52d0018924390,605b45a4d25f287719a41696,6061cb7169cc3f8b3bf14ae9,United States,Northeast,13 or older,no,2021-03-29_07h47.02.816,empathy_intonation_perc,2020.2.10,Win32,60,,,,,,,,,,1,,,,,,,,,,,,,,,,,,,,,,,,,,,,,,,,,,,,,,,,7,psimo,,,0,0,1.123,0,27,27,6,1,REAL,FAKE,,,,,,,,,,,,,,,,,,,,,
,,,,,,,5d8f8510f3e52d0018924390,605b45a4d25f287719a41696,6061cb7169cc3f8b3bf14ae9,United States,Northeast,13 or older,no,2021-03-29_07h47.02.816,empathy_intonation_perc,2020.2.10,Win32,60,,,,,,,,,,0,,,,,,,,,,,,,,,,,,,,,,,,,,,,,,,,,,,,,,,,17,floroso,,,1,0,5.015,0,28,28,16,1,REAL,FAKE,,,,,,,,,,,,,,,,,,,,,
,,,,,,,5d8f8510f3e52d0018924390,605b45a4d25f287719a41696,6061cb7169cc3f8b3bf14ae9,United States,Northeast,13 or older,no,2021-03-29_07h47.02.816,empathy_intonation_perc,2020.2.10,Win32,60,,,,,,,,,,1,,,,,,,,,,,,,,,,,,,,,,,,,,,,,,,,,,,,,,,,77,tiburn,,,1,1,1.362,0,29,29,76,1,REAL,FAKE,,,,,,,,,,,,,,,,,,,,,
,,,,,,,5d8f8510f3e52d0018924390,605b45a4d25f287719a41696,6061cb7169cc3f8b3bf14ae9,United States,Northeast,13 or older,no,2021-03-29_07h47.02.816,empathy_intonation_perc,2020.2.10,Win32,60,,,,,,,,,,1,,,,,,,,,,,,,,,,,,,,,,,,,,,,,,,,,,,,,,,,45,jilguero,,,0,0,1.702,0,30,30,44,1,REAL,FAKE,,,,,,,,,,,,,,,,,,,,,
,,,,,,,5d8f8510f3e52d0018924390,605b45a4d25f287719a41696,6061cb7169cc3f8b3bf14ae9,United States,Northeast,13 or older,no,2021-03-29_07h47.02.816,empathy_intonation_perc,2020.2.10,Win32,60,,,,,,,,,,1,,,,,,,,,,,,,,,,,,,,,,,,,,,,,,,,,,,,,,,,64,orgulloso,,,1,1,1.383,0,31,31,63,1,REAL,FAKE,,,,,,,,,,,,,,,,,,,,,
,,,,,,,5d8f8510f3e52d0018924390,605b45a4d25f287719a41696,6061cb7169cc3f8b3bf14ae9,United States,Northeast,13 or older,no,2021-03-29_07h47.02.816,empathy_intonation_perc,2020.2.10,Win32,60,,,,,,,,,,1,,,,,,,,,,,,,,,,,,,,,,,,,,,,,,,,,,,,,,,,39,torpe,,,0,0,1.243,0,32,32,38,1,REAL,FAKE,,,,,,,,,,,,,,,,,,,,,
,,,,,,,5d8f8510f3e52d0018924390,605b45a4d25f287719a41696,6061cb7169cc3f8b3bf14ae9,United States,Northeast,13 or older,no,2021-03-29_07h47.02.816,empathy_intonation_perc,2020.2.10,Win32,60,,,,,,,,,,0,,,,,,,,,,,,,,,,,,,,,,,,,,,,,,,,,,,,,,,,29,decar,,,1,0,1.181,0,33,33,28,1,REAL,FAKE,,,,,,,,,,,,,,,,,,,,,
,,,,,,,5d8f8510f3e52d0018924390,605b45a4d25f287719a41696,6061cb7169cc3f8b3bf14ae9,United States,Northeast,13 or older,no,2021-03-29_07h47.02.816,empathy_intonation_perc,2020.2.10,Win32,60,,,,,,,,,,1,,,,,,,,,,,,,,,,,,,,,,,,,,,,,,,,,,,,,,,,28,merodear,,,0,0,1.725,0,34,34,27,1,REAL,FAKE,,,,,,,,,,,,,,,,,,,,,
,,,,,,,5d8f8510f3e52d0018924390,605b45a4d25f287719a41696,6061cb7169cc3f8b3bf14ae9,United States,Northeast,13 or older,no,2021-03-29_07h47.02.816,empathy_intonation_perc,2020.2.10,Win32,60,,,,,,,,,,0,,,,,,,,,,,,,,,,,,,,,,,,,,,,,,,,,,,,,,,,79,tropaje,,,0,1,1.125,0,35,35,78,1,REAL,FAKE,,,,,,,,,,,,,,,,,,,,,
,,,,,,,5d8f8510f3e52d0018924390,605b45a4d25f287719a41696,6061cb7169cc3f8b3bf14ae9,United States,Northeast,13 or older,no,2021-03-29_07h47.02.816,empathy_intonation_perc,2020.2.10,Win32,60,,,,,,,,,,1,,,,,,,,,,,,,,,,,,,,,,,,,,,,,,,,,,,,,,,,57,tacao,,,1,1,1.769,0,36,36,56,1,REAL,FAKE,,,,,,,,,,,,,,,,,,,,,
,,,,,,,5d8f8510f3e52d0018924390,605b45a4d25f287719a41696,6061cb7169cc3f8b3bf14ae9,United States,Northeast,13 or older,no,2021-03-29_07h47.02.816,empathy_intonation_perc,2020.2.10,Win32,60,,,,,,,,,,1,,,,,,,,,,,,,,,,,,,,,,,,,,,,,,,,,,,,,,,,83,guante,,,0,0,1.488,0,37,37,82,1,REAL,FAKE,,,,,,,,,,,,,,,,,,,,,
,,,,,,,5d8f8510f3e52d0018924390,605b45a4d25f287719a41696,6061cb7169cc3f8b3bf14ae9,United States,Northeast,13 or older,no,2021-03-29_07h47.02.816,empathy_intonation_perc,2020.2.10,Win32,60,,,,,,,,,,0,,,,,,,,,,,,,,,,,,,,,,,,,,,,,,,,,,,,,,,,23,lampera,,,1,0,1.685,0,38,38,22,1,REAL,FAKE,,,,,,,,,,,,,,,,,,,,,
,,,,,,,5d8f8510f3e52d0018924390,605b45a4d25f287719a41696,6061cb7169cc3f8b3bf14ae9,United States,Northeast,13 or older,no,2021-03-29_07h47.02.816,empathy_intonation_perc,2020.2.10,Win32,60,,,,,,,,,,0,,,,,,,,,,,,,,,,,,,,,,,,,,,,,,,,,,,,,,,,47,cartinar,,,1,0,4.276,0,39,39,46,1,REAL,FAKE,,,,,,,,,,,,,,,,,,,,,
,,,,,,,5d8f8510f3e52d0018924390,605b45a4d25f287719a41696,6061cb7169cc3f8b3bf14ae9,United States,Northeast,13 or older,no,2021-03-29_07h47.02.816,empathy_intonation_perc,2020.2.10,Win32,60,,,,,,,,,,0,,,,,,,,,,,,,,,,,,,,,,,,,,,,,,,,,,,,,,,,70,temblo,,,0,1,0.872,0,40,40,69,1,REAL,FAKE,,,,,,,,,,,,,,,,,,,,,
,,,,,,,5d8f8510f3e52d0018924390,605b45a4d25f287719a41696,6061cb7169cc3f8b3bf14ae9,United States,Northeast,13 or older,no,2021-03-29_07h47.02.816,empathy_intonation_perc,2020.2.10,Win32,60,,,,,,,,,,0,,,,,,,,,,,,,,,,,,,,,,,,,,,,,,,,,,,,,,,,66,hacido,,,1,0,1.513,0,41,41,65,1,REAL,FAKE,,,,,,,,,,,,,,,,,,,,,
,,,,,,,5d8f8510f3e52d0018924390,605b45a4d25f287719a41696,6061cb7169cc3f8b3bf14ae9,United States,Northeast,13 or older,no,2021-03-29_07h47.02.816,empathy_intonation_perc,2020.2.10,Win32,60,,,,,,,,,,1,,,,,,,,,,,,,,,,,,,,,,,,,,,,,,,,,,,,,,,,76,atar,,,0,0,1.339,0,42,42,75,1,REAL,FAKE,,,,,,,,,,,,,,,,,,,,,
,,,,,,,5d8f8510f3e52d0018924390,605b45a4d25f287719a41696,6061cb7169cc3f8b3bf14ae9,United States,Northeast,13 or older,no,2021-03-29_07h47.02.816,empathy_intonation_perc,2020.2.10,Win32,60,,,,,,,,,,0,,,,,,,,,,,,,,,,,,,,,,,,,,,,,,,,,,,,,,,,42,cadallo,,,0,1,1.293,0,43,43,41,1,REAL,FAKE,,,,,,,,,,,,,,,,,,,,,
,,,,,,,5d8f8510f3e52d0018924390,605b45a4d25f287719a41696,6061cb7169cc3f8b3bf14ae9,United States,Northeast,13 or older,no,2021-03-29_07h47.02.816,empathy_intonation_perc,2020.2.10,Win32,60,,,,,,,,,,1,,,,,,,,,,,,,,,,,,,,,,,,,,,,,,,,,,,,,,,,11,cenefa,,,0,0,1.125,0,44,44,10,1,REAL,FAKE,,,,,,,,,,,,,,,,,,,,,
,,,,,,,5d8f8510f3e52d0018924390,605b45a4d25f287719a41696,6061cb7169cc3f8b3bf14ae9,United States,Northeast,13 or older,no,2021-03-29_07h47.02.816,empathy_intonation_perc,2020.2.10,Win32,60,,,,,,,,,,0,,,,,,,,,,,,,,,,,,,,,,,,,,,,,,,,,,,,,,,,10,antar,,,0,1,1.78,0,45,45,9,1,REAL,FAKE,,,,,,,,,,,,,,,,,,,,,
,,,,,,,5d8f8510f3e52d0018924390,605b45a4d25f287719a41696,6061cb7169cc3f8b3bf14ae9,United States,Northeast,13 or older,no,2021-03-29_07h47.02.816,empathy_intonation_perc,2020.2.10,Win32,60,,,,,,,,,,1,,,,,,,,,,,,,,,,,,,,,,,,,,,,,,,,,,,,,,,,65,bizcocho,,,0,0,1.215,0,46,46,64,1,REAL,FAKE,,,,,,,,,,,,,,,,,,,,,
,,,,,,,5d8f8510f3e52d0018924390,605b45a4d25f287719a41696,6061cb7169cc3f8b3bf14ae9,United States,Northeast,13 or older,no,2021-03-29_07h47.02.816,empathy_intonation_perc,2020.2.10,Win32,60,,,,,,,,,,0,,,,,,,,,,,,,,,,,,,,,,,,,,,,,,,,,,,,,,,,50,flamida,,,0,1,1.649,0,47,47,49,1,REAL,FAKE,,,,,,,,,,,,,,,,,,,,,
,,,,,,,5d8f8510f3e52d0018924390,605b45a4d25f287719a41696,6061cb7169cc3f8b3bf14ae9,United States,Northeast,13 or older,no,2021-03-29_07h47.02.816,empathy_intonation_perc,2020.2.10,Win32,60,,,,,,,,,,1,,,,,,,,,,,,,,,,,,,,,,,,,,,,,,,,,,,,,,,,5,zapato,,,1,1,0.931,0,48,48,4,1,REAL,FAKE,,,,,,,,,,,,,,,,,,,,,
,,,,,,,5d8f8510f3e52d0018924390,605b45a4d25f287719a41696,6061cb7169cc3f8b3bf14ae9,United States,Northeast,13 or older,no,2021-03-29_07h47.02.816,empathy_intonation_perc,2020.2.10,Win32,60,,,,,,,,,,1,,,,,,,,,,,,,,,,,,,,,,,,,,,,,,,,,,,,,,,,41,rebuscar,,,1,1,1.214,0,49,49,40,1,REAL,FAKE,,,,,,,,,,,,,,,,,,,,,
,,,,,,,5d8f8510f3e52d0018924390,605b45a4d25f287719a41696,6061cb7169cc3f8b3bf14ae9,United States,Northeast,13 or older,no,2021-03-29_07h47.02.816,empathy_intonation_perc,2020.2.10,Win32,60,,,,,,,,,,1,,,,,,,,,,,,,,,,,,,,,,,,,,,,,,,,,,,,,,,,52,camisa,,,1,1,1.072,0,50,50,51,1,REAL,FAKE,,,,,,,,,,,,,,,,,,,,,
,,,,,,,5d8f8510f3e52d0018924390,605b45a4d25f287719a41696,6061cb7169cc3f8b3bf14ae9,United States,Northeast,13 or older,no,2021-03-29_07h47.02.816,empathy_intonation_perc,2020.2.10,Win32,60,,,,,,,,,,0,,,,,,,,,,,,,,,,,,,,,,,,,,,,,,,,,,,,,,,,19,brecedad,,,0,1,1.716,0,51,51,18,1,REAL,FAKE,,,,,,,,,,,,,,,,,,,,,
,,,,,,,5d8f8510f3e52d0018924390,605b45a4d25f287719a41696,6061cb7169cc3f8b3bf14ae9,United States,Northeast,13 or older,no,2021-03-29_07h47.02.816,empathy_intonation_perc,2020.2.10,Win32,60,,,,,,,,,,1,,,,,,,,,,,,,,,,,,,,,,,,,,,,,,,,,,,,,,,,6,tergiversar,,,0,0,1.299,0,52,52,5,1,REAL,FAKE,,,,,,,,,,,,,,,,,,,,,
,,,,,,,5d8f8510f3e52d0018924390,605b45a4d25f287719a41696,6061cb7169cc3f8b3bf14ae9,United States,Northeast,13 or older,no,2021-03-29_07h47.02.816,empathy_intonation_perc,2020.2.10,Win32,60,,,,,,,,,,1,,,,,,,,,,,,,,,,,,,,,,,,,,,,,,,,,,,,,,,,31,pandilla,,,0,0,1.385,0,53,53,30,1,REAL,FAKE,,,,,,,,,,,,,,,,,,,,,
,,,,,,,5d8f8510f3e52d0018924390,605b45a4d25f287719a41696,6061cb7169cc3f8b3bf14ae9,United States,Northeast,13 or older,no,2021-03-29_07h47.02.816,empathy_intonation_perc,2020.2.10,Win32,60,,,,,,,,,,0,,,,,,,,,,,,,,,,,,,,,,,,,,,,,,,,,,,,,,,,4,batilln,,,1,0,3.426,0,54,54,3,1,REAL,FAKE,,,,,,,,,,,,,,,,,,,,,
,,,,,,,5d8f8510f3e52d0018924390,605b45a4d25f287719a41696,6061cb7169cc3f8b3bf14ae9,United States,Northeast,13 or older,no,2021-03-29_07h47.02.816,empathy_intonation_perc,2020.2.10,Win32,60,,,,,,,,,,1,,,,,,,,,,,,,,,,,,,,,,,,,,,,,,,,,,,,,,,,26,secuestro,,,0,0,1.476,0,55,55,25,1,REAL,FAKE,,,,,,,,,,,,,,,,,,,,,
,,,,,,,5d8f8510f3e52d0018924390,605b45a4d25f287719a41696,6061cb7169cc3f8b3bf14ae9,United States,Northeast,13 or older,no,2021-03-29_07h47.02.816,empathy_intonation_perc,2020.2.10,Win32,60,,,,,,,,,,1,,,,,,,,,,,,,,,,,,,,,,,,,,,,,,,,,,,,,,,,38,estornudar,,,0,0,1.968,0,56,56,37,1,REAL,FAKE,,,,,,,,,,,,,,,,,,,,,
,,,,,,,5d8f8510f3e52d0018924390,605b45a4d25f287719a41696,6061cb7169cc3f8b3bf14ae9,United States,Northeast,13 or older,no,2021-03-29_07h47.02.816,empathy_intonation_perc,2020.2.10,Win32,60,,,,,,,,,,1,,,,,,,,,,,,,,,,,,,,,,,,,,,,,,,,,,,,,,,,69,engatusar,,,0,0,1.495,0,57,57,68,1,REAL,FAKE,,,,,,,,,,,,,,,,,,,,,
,,,,,,,5d8f8510f3e52d0018924390,605b45a4d25f287719a41696,6061cb7169cc3f8b3bf14ae9,United States,Northeast,13 or older,no,2021-03-29_07h47.02.816,empathy_intonation_perc,2020.2.10,Win32,60,,,,,,,,,,1,,,,,,,,,,,,,,,,,,,,,,,,,,,,,,,,,,,,,,,,71,polvoriento,,,0,0,1.112,0,58,58,70,1,REAL,FAKE,,,,,,,,,,,,,,,,,,,,,
,,,,,,,5d8f8510f3e52d0018924390,605b45a4d25f287719a41696,6061cb7169cc3f8b3bf14ae9,United States,Northeast,13 or older,no,2021-03-29_07h47.02.816,empathy_intonation_perc,2020.2.10,Win32,60,,,,,,,,,,1,,,,,,,,,,,,,,,,,,,,,,,,,,,,,,,,,,,,,,,,90,clavel,,,0,0,1.507,0,59,59,89,1,REAL,FAKE,,,,,,,,,,,,,,,,,,,,,
,,,,,,,5d8f8510f3e52d0018924390,605b45a4d25f287719a41696,6061cb7169cc3f8b3bf14ae9,United States,Northeast,13 or older,no,2021-03-29_07h47.02.816,empathy_intonation_perc,2020.2.10,Win32,60,,,,,,,,,,1,,,,,,,,,,,,,,,,,,,,,,,,,,,,,,,,,,,,,,,,24,ltigo,,,0,0,1.116,0,60,60,23,1,REAL,FAKE,,,,,,,,,,,,,,,,,,,,,
,,,,,,,5d8f8510f3e52d0018924390,605b45a4d25f287719a41696,6061cb7169cc3f8b3bf14ae9,United States,Northeast,13 or older,no,2021-03-29_07h47.02.816,empathy_intonation_perc,2020.2.10,Win32,60,,,,,,,,,,0,,,,,,,,,,,,,,,,,,,,,,,,,,,,,,,,,,,,,,,,87,grodo,,,0,1,1.685,0,61,61,86,1,REAL,FAKE,,,,,,,,,,,,,,,,,,,,,
,,,,,,,5d8f8510f3e52d0018924390,605b45a4d25f287719a41696,6061cb7169cc3f8b3bf14ae9,United States,Northeast,13 or older,no,2021-03-29_07h47.02.816,empathy_intonation_perc,2020.2.10,Win32,60,,,,,,,,,,1,,,,,,,,,,,,,,,,,,,,,,,,,,,,,,,,,,,,,,,,54,fomentar,,,0,0,1.56,0,62,62,53,1,REAL,FAKE,,,,,,,,,,,,,,,,,,,,,
,,,,,,,5d8f8510f3e52d0018924390,605b45a4d25f287719a41696,6061cb7169cc3f8b3bf14ae9,United States,Northeast,13 or older,no,2021-03-29_07h47.02.816,empathy_intonation_perc,2020.2.10,Win32,60,,,,,,,,,,0,,,,,,,,,,,,,,,,,,,,,,,,,,,,,,,,,,,,,,,,53,vegada,,,0,1,1.364,0,63,63,52,1,REAL,FAKE,,,,,,,,,,,,,,,,,,,,,
,,,,,,,5d8f8510f3e52d0018924390,605b45a4d25f287719a41696,6061cb7169cc3f8b3bf14ae9,United States,Northeast,13 or older,no,2021-03-29_07h47.02.816,empathy_intonation_perc,2020.2.10,Win32,60,,,,,,,,,,0,,,,,,,,,,,,,,,,,,,,,,,,,,,,,,,,,,,,,,,,21,capillo,,,0,1,1.024,0,64,64,20,1,REAL,FAKE,,,,,,,,,,,,,,,,,,,,,
,,,,,,,5d8f8510f3e52d0018924390,605b45a4d25f287719a41696,6061cb7169cc3f8b3bf14ae9,United States,Northeast,13 or older,no,2021-03-29_07h47.02.816,empathy_intonation_perc,2020.2.10,Win32,60,,,,,,,,,,1,,,,,,,,,,,,,,,,,,,,,,,,,,,,,,,,,,,,,,,,56,musgo,,,0,0,1.282,0,65,65,55,1,REAL,FAKE,,,,,,,,,,,,,,,,,,,,,
,,,,,,,5d8f8510f3e52d0018924390,605b45a4d25f287719a41696,6061cb7169cc3f8b3bf14ae9,United States,Northeast,13 or older,no,2021-03-29_07h47.02.816,empathy_intonation_perc,2020.2.10,Win32,60,,,,,,,,,,1,,,,,,,,,,,,,,,,,,,,,,,,,,,,,,,,,,,,,,,,15,regar,,,1,1,0.913,0,66,66,14,1,REAL,FAKE,,,,,,,,,,,,,,,,,,,,,
,,,,,,,5d8f8510f3e52d0018924390,605b45a4d25f287719a41696,6061cb7169cc3f8b3bf14ae9,United States,Northeast,13 or older,no,2021-03-29_07h47.02.816,empathy_intonation_perc,2020.2.10,Win32,60,,,,,,,,,,1,,,,,,,,,,,,,,,,,,,,,,,,,,,,,,,,,,,,,,,,40,alfombra,,,1,1,1.085,0,67,67,39,1,REAL,FAKE,,,,,,,,,,,,,,,,,,,,,
,,,,,,,5d8f8510f3e52d0018924390,605b45a4d25f287719a41696,6061cb7169cc3f8b3bf14ae9,United States,Northeast,13 or older,no,2021-03-29_07h47.02.816,empathy_intonation_perc,2020.2.10,Win32,60,,,,,,,,,,1,,,,,,,,,,,,,,,,,,,,,,,,,,,,,,,,,,,,,,,,48,ladrn,,,1,1,1.158,0,68,68,47,1,REAL,FAKE,,,,,,,,,,,,,,,,,,,,,
,,,,,,,5d8f8510f3e52d0018924390,605b45a4d25f287719a41696,6061cb7169cc3f8b3bf14ae9,United States,Northeast,13 or older,no,2021-03-29_07h47.02.816,empathy_intonation_perc,2020.2.10,Win32,60,,,,,,,,,,1,,,,,,,,,,,,,,,,,,,,,,,,,,,,,,,,,,,,,,,,51,candado,,,0,0,3.265,0,69,69,50,1,REAL,FAKE,,,,,,,,,,,,,,,,,,,,,
,,,,,,,5d8f8510f3e52d0018924390,605b45a4d25f287719a41696,6061cb7169cc3f8b3bf14ae9,United States,Northeast,13 or older,no,2021-03-29_07h47.02.816,empathy_intonation_perc,2020.2.10,Win32,60,,,,,,,,,,1,,,,,,,,,,,,,,,,,,,,,,,,,,,,,,,,,,,,,,,,20,vido,,,1,1,0.907,0,70,70,19,1,REAL,FAKE,,,,,,,,,,,,,,,,,,,,,
,,,,,,,5d8f8510f3e52d0018924390,605b45a4d25f287719a41696,6061cb7169cc3f8b3bf14ae9,United States,Northeast,13 or older,no,2021-03-29_07h47.02.816,empathy_intonation_perc,2020.2.10,Win32,60,,,,,,,,,,0,,,,,,,,,,,,,,,,,,,,,,,,,,,,,,,,,,,,,,,,74,cintro,,,1,0,3.662,0,71,71,73,1,REAL,FAKE,,,,,,,,,,,,,,,,,,,,,
,,,,,,,5d8f8510f3e52d0018924390,605b45a4d25f287719a41696,6061cb7169cc3f8b3bf14ae9,United States,Northeast,13 or older,no,2021-03-29_07h47.02.816,empathy_intonation_perc,2020.2.10,Win32,60,,,,,,,,,,0,,,,,,,,,,,,,,,,,,,,,,,,,,,,,,,,,,,,,,,,16,abracer,,,1,0,2.883,0,72,72,15,1,REAL,FAKE,,,,,,,,,,,,,,,,,,,,,
,,,,,,,5d8f8510f3e52d0018924390,605b45a4d25f287719a41696,6061cb7169cc3f8b3bf14ae9,United States,Northeast,13 or older,no,2021-03-29_07h47.02.816,empathy_intonation_perc,2020.2.10,Win32,60,,,,,,,,,,0,,,,,,,,,,,,,,,,,,,,,,,,,,,,,,,,,,,,,,,,84,escuto,,,0,1,0.901,0,73,73,83,1,REAL,FAKE,,,,,,,,,,,,,,,,,,,,,
,,,,,,,5d8f8510f3e52d0018924390,605b45a4d25f287719a41696,6061cb7169cc3f8b3bf14ae9,United States,Northeast,13 or older,no,2021-03-29_07h47.02.816,empathy_intonation_perc,2020.2.10,Win32,60,,,,,,,,,,1,,,,,,,,,,,,,,,,,,,,,,,,,,,,,,,,,,,,,,,,86,barato,,,1,1,1.528,0,74,74,85,1,REAL,FAKE,,,,,,,,,,,,,,,,,,,,,
,,,,,,,5d8f8510f3e52d0018924390,605b45a4d25f287719a41696,6061cb7169cc3f8b3bf14ae9,United States,Northeast,13 or older,no,2021-03-29_07h47.02.816,empathy_intonation_perc,2020.2.10,Win32,60,,,,,,,,,,1,,,,,,,,,,,,,,,,,,,,,,,,,,,,,,,,,,,,,,,,73,hervidor,,,0,0,1.333,0,75,75,72,1,REAL,FAKE,,,,,,,,,,,,,,,,,,,,,
,,,,,,,5d8f8510f3e52d0018924390,605b45a4d25f287719a41696,6061cb7169cc3f8b3bf14ae9,United States,Northeast,13 or older,no,2021-03-29_07h47.02.816,empathy_intonation_perc,2020.2.10,Win32,60,,,,,,,,,,1,,,,,,,,,,,,,,,,,,,,,,,,,,,,,,,,,,,,,,,,59,besar,,,1,1,2.496,0,76,76,58,1,REAL,FAKE,,,,,,,,,,,,,,,,,,,,,
,,,,,,,5d8f8510f3e52d0018924390,605b45a4d25f287719a41696,6061cb7169cc3f8b3bf14ae9,United States,Northeast,13 or older,no,2021-03-29_07h47.02.816,empathy_intonation_perc,2020.2.10,Win32,60,,,,,,,,,,1,,,,,,,,,,,,,,,,,,,,,,,,,,,,,,,,,,,,,,,,12,asesinato,,,0,0,4.644,0,77,77,11,1,REAL,FAKE,,,,,,,,,,,,,,,,,,,,,
,,,,,,,5d8f8510f3e52d0018924390,605b45a4d25f287719a41696,6061cb7169cc3f8b3bf14ae9,United States,Northeast,13 or older,no,2021-03-29_07h47.02.816,empathy_intonation_perc,2020.2.10,Win32,60,,,,,,,,,,1,,,,,,,,,,,,,,,,,,,,,,,,,,,,,,,,,,,,,,,,88,acantilado,,,0,0,1.569,0,78,78,87,1,REAL,FAKE,,,,,,,,,,,,,,,,,,,,,
,,,,,,,5d8f8510f3e52d0018924390,605b45a4d25f287719a41696,6061cb7169cc3f8b3bf14ae9,United States,Northeast,13 or older,no,2021-03-29_07h47.02.816,empathy_intonation_perc,2020.2.10,Win32,60,,,,,,,,,,1,,,,,,,,,,,,,,,,,,,,,,,,,,,,,,,,,,,,,,,,80,hormiga,,,0,0,2.994,0,79,79,79,1,REAL,FAKE,,,,,,,,,,,,,,,,,,,,,
,,,,,,,5d8f8510f3e52d0018924390,605b45a4d25f287719a41696,6061cb7169cc3f8b3bf14ae9,United States,Northeast,13 or older,no,2021-03-29_07h47.02.816,empathy_intonation_perc,2020.2.10,Win32,60,,,,,,,,,,0,,,,,,,,,,,,,,,,,,,,,,,,,,,,,,,,,,,,,,,,32,fatacidad,,,0,1,1.69,0,80,80,31,1,REAL,FAKE,,,,,,,,,,,,,,,,,,,,,
,,,,,,,5d8f8510f3e52d0018924390,605b45a4d25f287719a41696,6061cb7169cc3f8b3bf14ae9,United States,Northeast,13 or older,no,2021-03-29_07h47.02.816,empathy_intonation_perc,2020.2.10,Win32,60,,,,,,,,,,1,,,,,,,,,,,,,,,,,,,,,,,,,,,,,,,,,,,,,,,,44,cuchara,,,1,1,1.055,0,81,81,43,1,REAL,FAKE,,,,,,,,,,,,,,,,,,,,,
,,,,,,,5d8f8510f3e52d0018924390,605b45a4d25f287719a41696,6061cb7169cc3f8b3bf14ae9,United States,Northeast,13 or older,no,2021-03-29_07h47.02.816,empathy_intonation_perc,2020.2.10,Win32,60,,,,,,,,,,1,,,,,,,,,,,,,,,,,,,,,,,,,,,,,,,,,,,,,,,,22,lacayo,,,0,0,1.194,0,82,82,21,1,REAL,FAKE,,,,,,,,,,,,,,,,,,,,,
,,,,,,,5d8f8510f3e52d0018924390,605b45a4d25f287719a41696,6061cb7169cc3f8b3bf14ae9,United States,Northeast,13 or older,no,2021-03-29_07h47.02.816,empathy_intonation_perc,2020.2.10,Win32,60,,,,,,,,,,0,,,,,,,,,,,,,,,,,,,,,,,,,,,,,,,,,,,,,,,,35,rompido,,,0,1,1.391,0,83,83,34,1,REAL,FAKE,,,,,,,,,,,,,,,,,,,,,
,,,,,,,5d8f8510f3e52d0018924390,605b45a4d25f287719a41696,6061cb7169cc3f8b3bf14ae9,United States,Northeast,13 or older,no,2021-03-29_07h47.02.816,empathy_intonation_perc,2020.2.10,Win32,60,,,,,,,,,,1,,,,,,,,,,,,,,,,,,,,,,,,,,,,,,,,,,,,,,,,81,pozo,,,0,0,0.954,0,84,84,80,1,REAL,FAKE,,,,,,,,,,,,,,,,,,,,,
,,,,,,,5d8f8510f3e52d0018924390,605b45a4d25f287719a41696,6061cb7169cc3f8b3bf14ae9,United States,Northeast,13 or older,no,2021-03-29_07h47.02.816,empathy_intonation_perc,2020.2.10,Win32,60,,,,,,,,,,1,,,,,,,,,,,,,,,,,,,,,,,,,,,,,,,,,,,,,,,,67,cabello,,,0,0,4.046,0,85,85,66,1,REAL,FAKE,,,,,,,,,,,,,,,,,,,,,
,,,,,,,5d8f8510f3e52d0018924390,605b45a4d25f287719a41696,6061cb7169cc3f8b3bf14ae9,United States,Northeast,13 or older,no,2021-03-29_07h47.02.816,empathy_intonation_perc,2020.2.10,Win32,60,,,,,,,,,,1,,,,,,,,,,,,,,,,,,,,,,,,,,,,,,,,,,,,,,,,3,pulmones,,,0,0,2.391,0,86,86,2,1,REAL,FAKE,,,,,,,,,,,,,,,,,,,,,
,,,,,,,5d8f8510f3e52d0018924390,605b45a4d25f287719a41696,6061cb7169cc3f8b3bf14ae9,United States,Northeast,13 or older,no,2021-03-29_07h47.02.816,empathy_intonation_perc,2020.2.10,Win32,60,,,,,,,,,,1,,,,,,,,,,,,,,,,,,,,,,,,,,,,,,,,,,,,,,,,78,frondoso,,,0,0,1.472,0,87,87,77,1,REAL,FAKE,,,,,,,,,,,,,,,,,,,,,
,,,,,,,5d8f8510f3e52d0018924390,605b45a4d25f287719a41696,6061cb7169cc3f8b3bf14ae9,United States,Northeast,13 or older,no,2021-03-29_07h47.02.816,empathy_intonation_perc,2020.2.10,Win32,60,,,,,,,,,,1,,,,,,,,,,,,,,,,,,,,,,,,,,,,,,,,,,,,,,,,37,granuja,,,0,0,1.232,0,88,88,36,1,REAL,FAKE,,,,,,,,,,,,,,,,,,,,,
,,,,,,,5d8f8510f3e52d0018924390,605b45a4d25f287719a41696,6061cb7169cc3f8b3bf14ae9,United States,Northeast,13 or older,no,2021-03-29_07h47.02.816,empathy_intonation_perc,2020.2.10,Win32,60,,,,,,,,,,1,,,,,,,,,,,,,,,,,,,,,,,,,,,,,,,,,,,,,,,,43,canela,,,0,0,1.228,0,89,89,42,1,REAL,FAKE,,,,,,,,,,,,,,,,,,,,,
,,,,,,,5d8f8510f3e52d0018924390,605b45a4d25f287719a41696,6061cb7169cc3f8b3bf14ae9,United States,Northeast,13 or older,no,2021-03-29_07h47.02.816,empathy_intonation_perc,2020.2.10,Win32,60,,,,,,,,,,,,,,,,,,,,,,,,,,,,,,,,,,,,,,,,,,,,,,,,,,,,,,,,,,,,,,,,4,1,4.238,1,0,0,0,0,0,1,,,,,,,,,,,
,,,,,,,5d8f8510f3e52d0018924390,605b45a4d25f287719a41696,6061cb7169cc3f8b3bf14ae9,United States,Northeast,13 or older,no,2021-03-29_07h47.02.816,empathy_intonation_perc,2020.2.10,Win32,60,,,,,,,,,,,,,,,,,,,,1,,,,,,,,,,,,,,,,,,,,,,,,,,,,,,,,,,,,,,,,,,,,,,,,,,,,,,1,0,0,0,0,1,I can easily tell if someone else wants to enter a conversation.,1,0,1,0
,,,,,,,5d8f8510f3e52d0018924390,605b45a4d25f287719a41696,6061cb7169cc3f8b3bf14ae9,United States,Northeast,13 or older,no,2021-03-29_07h47.02.816,empathy_intonation_perc,2020.2.10,Win32,60,,,,,,,,,,,,,,,,,,,,2,,,,,,,,,,,,,,,,,,,,,,,,,,,,,,,,,,,,,,,,,,,,,,,,,,,,,,3,0,1,1,1,1,I prefer animals to humans.,0,1,0,0
,,,,,,,5d8f8510f3e52d0018924390,605b45a4d25f287719a41696,6061cb7169cc3f8b3bf14ae9,United States,Northeast,13 or older,no,2021-03-29_07h47.02.816,empathy_intonation_perc,2020.2.10,Win32,60,,,,,,,,,,,,,,,,,,,,3,,,,,,,,,,,,,,,,,,,,,,,,,,,,,,,,,,,,,,,,,,,,,,,,,,,,,,2,0,2,2,2,1,I try to keep up with the current trends and fashions.,0,1,0,0
,,,,,,,5d8f8510f3e52d0018924390,605b45a4d25f287719a41696,6061cb7169cc3f8b3bf14ae9,United States,Northeast,13 or older,no,2021-03-29_07h47.02.816,empathy_intonation_perc,2020.2.10,Win32,60,,,,,,,,,,,,,,,,,,,,4,,,,,,,,,,,,,,,,,,,,,,,,,,,,,,,,,,,,,,,,,,,,,,,,,,,,,,3,0,3,3,3,1,"I find it difficult to explain to others things that I understand easily, 
  when they dont understand it first time.",1,0,0,1
,,,,,,,5d8f8510f3e52d0018924390,605b45a4d25f287719a41696,6061cb7169cc3f8b3bf14ae9,United States,Northeast,13 or older,no,2021-03-29_07h47.02.816,empathy_intonation_perc,2020.2.10,Win32,60,,,,,,,,,,,,,,,,,,,,5,,,,,,,,,,,,,,,,,,,,,,,,,,,,,,,,,,,,,,,,,,,,,,,,,,,,,,2,0,4,4,4,1,I dream most nights.,0,1,0,0
