instructions_2afc_loop.thisRepN,instructions_2afc_loop.thisTrialN,instructions_2afc_loop.thisN,instructions_2afc_loop.thisIndex,instructions_2afc_loop.ran,instructions_text,continue_text,participant,study_id,session,I am most familiar with Spanish from...*,What part of the US are you from?*,At what age did you begin learning Spanish?*,Are you proficient in any languages other than English/Spanish?*,date,expName,psychopyVersion,OS,frameRate,key_resp_2afc_practice.keys,key_resp_2afc_practice.corr,key_resp_2afc_practice.rt,trials_2afc_practice_loop.thisRepN,trials_2afc_practice_loop.thisTrialN,trials_2afc_practice_loop.thisN,trials_2afc_practice_loop.thisIndex,trials_2afc_practice_loop.ran,path,correct_response,the_col,key_resp_2afc_trial.keys,key_resp_2afc_trial.corr,key_resp_2afc_trial.rt,trials_2afc_loop.thisRepN,trials_2afc_loop.thisTrialN,trials_2afc_loop.thisN,trials_2afc_loop.thisIndex,trials_2afc_loop.ran,item_num,andalusian,argentine,castilian,chilean,cuban,mexican,peruvian,puertorican,key_resp_ac1.keys,key_resp_ac1.corr,key_resp_ac1.rt,ac1_loop.thisRepN,ac1_loop.thisTrialN,ac1_loop.thisN,ac1_loop.thisIndex,ac1_loop.ran,instructions_lextale_loop.thisRepN,instructions_lextale_loop.thisTrialN,instructions_lextale_loop.thisN,instructions_lextale_loop.thisIndex,instructions_lextale_loop.ran,key_resp_lextale_practice.keys,key_resp_lextale_practice.corr,key_resp_lextale_practice.rt,trials_lextale_practice_loop.thisRepN,trials_lextale_practice_loop.thisTrialN,trials_lextale_practice_loop.thisN,trials_lextale_practice_loop.thisIndex,trials_lextale_practice_loop.ran,stim,word,prac_button_real,prac_button_false,key_resp_lextale_trial.keys,key_resp_lextale_trial.corr,key_resp_lextale_trial.rt,trials_lextale_loop.thisRepN,trials_lextale_loop.thisTrialN,trials_lextale_loop.thisN,trials_lextale_loop.thisIndex,trials_lextale_loop.ran,button_real,button_false,key_resp_ac2.keys,key_resp_ac2.corr,key_resp_ac2.rt,check_pass,check_fails,ac2_loop.thisRepN,ac2_loop.thisTrialN,ac2_loop.thisN,ac2_loop.thisIndex,ac2_loop.ran,slider_eq_trial.response,trials_eq_loop.thisRepN,trials_eq_loop.thisTrialN,trials_eq_loop.thisN,trials_eq_loop.thisIndex,trials_eq_loop.ran,item,is_test_item,is_distractor,is_agree_score,is_disagree_score
0,0,0,0,1,"In the following task you are going to hear a series of utterances. 

  You will decide if the utterances sound like questions or not using your keyboard.",(press the spacebar to continue),5dcc5f2545b8f98fd44ab4d7,60568611ec04488a9e9da93b,6056abc2e2c53d9f363d68b0,United States,Northeast,13 or older,no,2021-03-20_22h13.56.480,empathy_intonation_perc,2020.2.10,MacIntel,60,,,,,,,,,,,,,,,,,,,,,,,,,,,,,,,,,,,,,,,,,,,,,,,,,,,,,,,,,,,,,,,,,,,,,,,,,,,,,,,,,,,,
0,1,1,1,1,"If you believe the utterance is a question, type '1' (for 'yes') and if you do not 
  believe it is a question type '0' (for 'no').

  Let's practice a bit...",(press the spacebar to continue),5dcc5f2545b8f98fd44ab4d7,60568611ec04488a9e9da93b,6056abc2e2c53d9f363d68b0,United States,Northeast,13 or older,no,2021-03-20_22h13.56.480,empathy_intonation_perc,2020.2.10,MacIntel,60,,,,,,,,,,,,,,,,,,,,,,,,,,,,,,,,,,,,,,,,,,,,,,,,,,,,,,,,,,,,,,,,,,,,,,,,,,,,,,,,,,,,
,,,,,,,5dcc5f2545b8f98fd44ab4d7,60568611ec04488a9e9da93b,6056abc2e2c53d9f363d68b0,United States,Northeast,13 or older,no,2021-03-20_22h13.56.480,empathy_intonation_perc,2020.2.10,MacIntel,60,1,1,3.753845,0,0,0,3,1,./stim/wavs/mexican_question_filler_Felipe-no-tiene-contrasena.wav,1,,,,,,,,,,,,,,,,,,,,,,,,,,,,,,,,,,,,,,,,,,,,,,,,,,,,,,,,,,,,,,,,,,,,,,,,,,
,,,,,,,5dcc5f2545b8f98fd44ab4d7,60568611ec04488a9e9da93b,6056abc2e2c53d9f363d68b0,United States,Northeast,13 or older,no,2021-03-20_22h13.56.480,empathy_intonation_perc,2020.2.10,MacIntel,60,0,1,3.35236,0,1,1,5,1,./stim/wavs/andalusian_statement_filler_Alberto-nunca-se-afeita.wav,0,,,,,,,,,,,,,,,,,,,,,,,,,,,,,,,,,,,,,,,,,,,,,,,,,,,,,,,,,,,,,,,,,,,,,,,,,,
,,,,,,,5dcc5f2545b8f98fd44ab4d7,60568611ec04488a9e9da93b,6056abc2e2c53d9f363d68b0,United States,Northeast,13 or older,no,2021-03-20_22h13.56.480,empathy_intonation_perc,2020.2.10,MacIntel,60,1,0,3.67913,0,2,2,7,1,./stim/wavs/puertorican_statement_filler_La-nina-pinta-con-su-amiga.wav,0,,,,,,,,,,,,,,,,,,,,,,,,,,,,,,,,,,,,,,,,,,,,,,,,,,,,,,,,,,,,,,,,,,,,,,,,,,
,,,,,,,5dcc5f2545b8f98fd44ab4d7,60568611ec04488a9e9da93b,6056abc2e2c53d9f363d68b0,United States,Northeast,13 or older,no,2021-03-20_22h13.56.480,empathy_intonation_perc,2020.2.10,MacIntel,60,1,1,3.43969,0,3,3,2,1,./stim/wavs/chilean_question_filler_Mi-padre-cantaba-bien.wav,1,,,,,,,,,,,,,,,,,,,,,,,,,,,,,,,,,,,,,,,,,,,,,,,,,,,,,,,,,,,,,,,,,,,,,,,,,,
,,,,,,,5dcc5f2545b8f98fd44ab4d7,60568611ec04488a9e9da93b,6056abc2e2c53d9f363d68b0,United States,Northeast,13 or older,no,2021-03-20_22h13.56.480,empathy_intonation_perc,2020.2.10,MacIntel,60,0,0,2.7866,0,4,4,1,1,./stim/wavs/argentine_question_filler_Mi-vecino-habla-mucho.wav,1,,,,,,,,,,,,,,,,,,,,,,,,,,,,,,,,,,,,,,,,,,,,,,,,,,,,,,,,,,,,,,,,,,,,,,,,,,
,,,,,,,5dcc5f2545b8f98fd44ab4d7,60568611ec04488a9e9da93b,6056abc2e2c53d9f363d68b0,United States,Northeast,13 or older,no,2021-03-20_22h13.56.480,empathy_intonation_perc,2020.2.10,MacIntel,60,1,1,3.154225,0,5,5,0,1,./stim/wavs/castilian_question_filler_Mi-esposo-conoce-al-chico.wav,1,,,,,,,,,,,,,,,,,,,,,,,,,,,,,,,,,,,,,,,,,,,,,,,,,,,,,,,,,,,,,,,,,,,,,,,,,,
,,,,,,,5dcc5f2545b8f98fd44ab4d7,60568611ec04488a9e9da93b,6056abc2e2c53d9f363d68b0,United States,Northeast,13 or older,no,2021-03-20_22h13.56.480,empathy_intonation_perc,2020.2.10,MacIntel,60,0,1,3.654965,0,6,6,6,1,./stim/wavs/peruvian_statement_filler_El-nino-habla-con-su-madre.wav,0,,,,,,,,,,,,,,,,,,,,,,,,,,,,,,,,,,,,,,,,,,,,,,,,,,,,,,,,,,,,,,,,,,,,,,,,,,
,,,,,,,5dcc5f2545b8f98fd44ab4d7,60568611ec04488a9e9da93b,6056abc2e2c53d9f363d68b0,United States,Northeast,13 or older,no,2021-03-20_22h13.56.480,empathy_intonation_perc,2020.2.10,MacIntel,60,0,1,2.134545,0,7,7,4,1,./stim/wavs/cuban_statement_filler_Cocinabas-por-la-noche.wav,0,,,,,,,,,,,,,,,,,,,,,,,,,,,,,,,,,,,,,,,,,,,,,,,,,,,,,,,,,,,,,,,,,,,,,,,,,,
,,,,,,,5dcc5f2545b8f98fd44ab4d7,60568611ec04488a9e9da93b,6056abc2e2c53d9f363d68b0,United States,Northeast,13 or older,no,2021-03-20_22h13.56.480,empathy_intonation_perc,2020.2.10,MacIntel,60,,,,,,,,,,0,andalusian,0,1,2.28576,0,0,0,35,1,36,./stim/wavs/andalusian_mismatch_declarative-broad-focus_La-maestra-vive-en-Paris.wav,./stim/wavs/argentine_mismatch_declarative-broad-focus_La-maestra-vive-en-Paris.wav,./stim/wavs/castilian_mismatch_declarative-broad-focus_La-maestra-vive-en-Paris.wav,./stim/wavs/chilean_mismatch_declarative-broad-focus_La-maestra-vive-en-Paris.wav,./stim/wavs/cuban_mismatch_declarative-broad-focus_La-maestra-vive-en-Paris.wav,./stim/wavs/mexican_mismatch_declarative-broad-focus_La-maestra-vive-en-Paris.wav,./stim/wavs/peruvian_mismatch_declarative-broad-focus_La-maestra-vive-en-Paris.wav,./stim/wavs/puertorican_mismatch_declarative-broad-focus_La-maestra-vive-en-Paris.wav,,,,,,,,,,,,,,,,,,,,,,,,,,,,,,,,,,,,,,,,,,,,,,,,,,,,,,,,
,,,,,,,5dcc5f2545b8f98fd44ab4d7,60568611ec04488a9e9da93b,6056abc2e2c53d9f363d68b0,United States,Northeast,13 or older,no,2021-03-20_22h13.56.480,empathy_intonation_perc,2020.2.10,MacIntel,60,,,,,,,,,,0,chilean,1,0,1.7723,0,1,1,15,1,16,./stim/wavs/andalusian_match_declarative-narrow-focus_Marta-abre-el-regalo.wav,./stim/wavs/argentine_match_declarative-narrow-focus_Marta-abre-el-regalo.wav,./stim/wavs/castilian_match_declarative-narrow-focus_Marta-abre-el-regalo.wav,./stim/wavs/chilean_match_declarative-narrow-focus_Marta-abre-el-regalo.wav,./stim/wavs/cuban_match_declarative-narrow-focus_Marta-abre-el-regalo.wav,./stim/wavs/mexican_match_declarative-narrow-focus_Marta-abre-el-regalo.wav,./stim/wavs/peruvian_match_declarative-narrow-focus_Marta-abre-el-regalo.wav,./stim/wavs/puertorican_match_declarative-narrow-focus_Marta-abre-el-regalo.wav,,,,,,,,,,,,,,,,,,,,,,,,,,,,,,,,,,,,,,,,,,,,,,,,,,,,,,,,
,,,,,,,5dcc5f2545b8f98fd44ab4d7,60568611ec04488a9e9da93b,6056abc2e2c53d9f363d68b0,United States,Northeast,13 or older,no,2021-03-20_22h13.56.480,empathy_intonation_perc,2020.2.10,MacIntel,60,,,,,,,,,,1,castilian,1,1,1.901615,0,2,2,17,1,18,./stim/wavs/andalusian_match_interrogative-partial-wh_Cuando-leia-el-libro.wav,./stim/wavs/argentine_match_interrogative-partial-wh_Cuando-leia-el-libro.wav,./stim/wavs/castilian_match_interrogative-partial-wh_Cuando-leia-el-libro.wav,./stim/wavs/chilean_match_interrogative-partial-wh_Cuando-leia-el-libro.wav,./stim/wavs/cuban_match_interrogative-partial-wh_Cuando-leia-el-libro.wav,./stim/wavs/mexican_match_interrogative-partial-wh_Cuando-leia-el-libro.wav,./stim/wavs/peruvian_match_interrogative-partial-wh_Cuando-leia-el-libro.wav,./stim/wavs/puertorican_match_interrogative-partial-wh_Cuando-leia-el-libro.wav,,,,,,,,,,,,,,,,,,,,,,,,,,,,,,,,,,,,,,,,,,,,,,,,,,,,,,,,
,,,,,,,5dcc5f2545b8f98fd44ab4d7,60568611ec04488a9e9da93b,6056abc2e2c53d9f363d68b0,United States,Northeast,13 or older,no,2021-03-20_22h13.56.480,empathy_intonation_perc,2020.2.10,MacIntel,60,,,,,,,,,,1,puertorican,1,1,1.818725,0,3,3,49,1,50,./stim/wavs/andalusian_mismatch_interrogative-partial-wh_Cuando-lavaba-el-plato.wav,./stim/wavs/argentine_mismatch_interrogative-partial-wh_Cuando-lavaba-el-plato.wav,./stim/wavs/castilian_mismatch_interrogative-partial-wh_Cuando-lavaba-el-plato.wav,./stim/wavs/chilean_mismatch_interrogative-partial-wh_Cuando-lavaba-el-plato.wav,./stim/wavs/cuban_mismatch_interrogative-partial-wh_Cuando-lavaba-el-plato.wav,./stim/wavs/mexican_mismatch_interrogative-partial-wh_Cuando-lavaba-el-plato.wav,./stim/wavs/peruvian_mismatch_interrogative-partial-wh_Cuando-lavaba-el-plato.wav,./stim/wavs/puertorican_mismatch_interrogative-partial-wh_Cuando-lavaba-el-plato.wav,,,,,,,,,,,,,,,,,,,,,,,,,,,,,,,,,,,,,,,,,,,,,,,,,,,,,,,,
,,,,,,,5dcc5f2545b8f98fd44ab4d7,60568611ec04488a9e9da93b,6056abc2e2c53d9f363d68b0,United States,Northeast,13 or older,no,2021-03-20_22h13.56.480,empathy_intonation_perc,2020.2.10,MacIntel,60,,,,,,,,,,1,peruvian,1,1,2.08519,0,4,4,29,1,30,./stim/wavs/andalusian_match_interrogative-total-yn_Maria-bebe-el-vino.wav,./stim/wavs/argentine_match_interrogative-total-yn_Maria-bebe-el-vino.wav,./stim/wavs/castilian_match_interrogative-total-yn_Maria-bebe-el-vino.wav,./stim/wavs/chilean_match_interrogative-total-yn_Maria-bebe-el-vino.wav,./stim/wavs/cuban_match_interrogative-total-yn_Maria-bebe-el-vino.wav,./stim/wavs/mexican_match_interrogative-total-yn_Maria-bebe-el-vino.wav,./stim/wavs/peruvian_match_interrogative-total-yn_Maria-bebe-el-vino.wav,./stim/wavs/puertorican_match_interrogative-total-yn_Maria-bebe-el-vino.wav,,,,,,,,,,,,,,,,,,,,,,,,,,,,,,,,,,,,,,,,,,,,,,,,,,,,,,,,
,,,,,,,5dcc5f2545b8f98fd44ab4d7,60568611ec04488a9e9da93b,6056abc2e2c53d9f363d68b0,United States,Northeast,13 or older,no,2021-03-20_22h13.56.480,empathy_intonation_perc,2020.2.10,MacIntel,60,,,,,,,,,,1,andalusian,1,1,1.835825,0,5,5,31,1,32,./stim/wavs/andalusian_match_interrogative-total-yn_Marta-abre-el-regalo.wav,./stim/wavs/argentine_match_interrogative-total-yn_Marta-abre-el-regalo.wav,./stim/wavs/castilian_match_interrogative-total-yn_Marta-abre-el-regalo.wav,./stim/wavs/chilean_match_interrogative-total-yn_Marta-abre-el-regalo.wav,./stim/wavs/cuban_match_interrogative-total-yn_Marta-abre-el-regalo.wav,./stim/wavs/mexican_match_interrogative-total-yn_Marta-abre-el-regalo.wav,./stim/wavs/peruvian_match_interrogative-total-yn_Marta-abre-el-regalo.wav,./stim/wavs/puertorican_match_interrogative-total-yn_Marta-abre-el-regalo.wav,,,,,,,,,,,,,,,,,,,,,,,,,,,,,,,,,,,,,,,,,,,,,,,,,,,,,,,,
,,,,,,,5dcc5f2545b8f98fd44ab4d7,60568611ec04488a9e9da93b,6056abc2e2c53d9f363d68b0,United States,Northeast,13 or older,no,2021-03-20_22h13.56.480,empathy_intonation_perc,2020.2.10,MacIntel,60,,,,,,,,,,1,chilean,0,0,2.38666,0,6,6,63,1,64,./stim/wavs/andalusian_mismatch_interrogative-total-yn_Mi-tia-odia-la-lluvia.wav,./stim/wavs/argentine_mismatch_interrogative-total-yn_Mi-tia-odia-la-lluvia.wav,./stim/wavs/castilian_mismatch_interrogative-total-yn_Mi-tia-odia-la-lluvia.wav,./stim/wavs/chilean_mismatch_interrogative-total-yn_Mi-tia-odia-la-lluvia.wav,./stim/wavs/cuban_mismatch_interrogative-total-yn_Mi-tia-odia-la-lluvia.wav,./stim/wavs/mexican_mismatch_interrogative-total-yn_Mi-tia-odia-la-lluvia.wav,./stim/wavs/peruvian_mismatch_interrogative-total-yn_Mi-tia-odia-la-lluvia.wav,./stim/wavs/puertorican_mismatch_interrogative-total-yn_Mi-tia-odia-la-lluvia.wav,,,,,,,,,,,,,,,,,,,,,,,,,,,,,,,,,,,,,,,,,,,,,,,,,,,,,,,,
,,,,,,,5dcc5f2545b8f98fd44ab4d7,60568611ec04488a9e9da93b,6056abc2e2c53d9f363d68b0,United States,Northeast,13 or older,no,2021-03-20_22h13.56.480,empathy_intonation_perc,2020.2.10,MacIntel,60,,,,,,,,,,0,cuban,0,1,2.101955,0,7,7,1,1,2,./stim/wavs/andalusian_match_declarative-broad-focus_Daniel-iba-a-Bolivia.wav,./stim/wavs/argentine_match_declarative-broad-focus_Daniel-iba-a-Bolivia.wav,./stim/wavs/castilian_match_declarative-broad-focus_Daniel-iba-a-Bolivia.wav,./stim/wavs/chilean_match_declarative-broad-focus_Daniel-iba-a-Bolivia.wav,./stim/wavs/cuban_match_declarative-broad-focus_Daniel-iba-a-Bolivia.wav,./stim/wavs/mexican_match_declarative-broad-focus_Daniel-iba-a-Bolivia.wav,./stim/wavs/peruvian_match_declarative-broad-focus_Daniel-iba-a-Bolivia.wav,./stim/wavs/puertorican_match_declarative-broad-focus_Daniel-iba-a-Bolivia.wav,,,,,,,,,,,,,,,,,,,,,,,,,,,,,,,,,,,,,,,,,,,,,,,,,,,,,,,,
,,,,,,,5dcc5f2545b8f98fd44ab4d7,60568611ec04488a9e9da93b,6056abc2e2c53d9f363d68b0,United States,Northeast,13 or older,no,2021-03-20_22h13.56.480,empathy_intonation_perc,2020.2.10,MacIntel,60,,,,,,,,,,0,puertorican,0,1,1.700595,0,8,8,10,1,11,./stim/wavs/andalusian_match_declarative-narrow-focus_David-leia-el-libro.wav,./stim/wavs/argentine_match_declarative-narrow-focus_David-leia-el-libro.wav,./stim/wavs/castilian_match_declarative-narrow-focus_David-leia-el-libro.wav,./stim/wavs/chilean_match_declarative-narrow-focus_David-leia-el-libro.wav,./stim/wavs/cuban_match_declarative-narrow-focus_David-leia-el-libro.wav,./stim/wavs/mexican_match_declarative-narrow-focus_David-leia-el-libro.wav,./stim/wavs/peruvian_match_declarative-narrow-focus_David-leia-el-libro.wav,./stim/wavs/puertorican_match_declarative-narrow-focus_David-leia-el-libro.wav,,,,,,,,,,,,,,,,,,,,,,,,,,,,,,,,,,,,,,,,,,,,,,,,,,,,,,,,
,,,,,,,5dcc5f2545b8f98fd44ab4d7,60568611ec04488a9e9da93b,6056abc2e2c53d9f363d68b0,United States,Northeast,13 or older,no,2021-03-20_22h13.56.480,empathy_intonation_perc,2020.2.10,MacIntel,60,,,,,,,,,,0,andalusian,0,1,2.152045,0,9,9,11,1,12,./stim/wavs/andalusian_match_declarative-narrow-focus_Emilio-ama-la-marcha.wav,./stim/wavs/argentine_match_declarative-narrow-focus_Emilio-ama-la-marcha.wav,./stim/wavs/castilian_match_declarative-narrow-focus_Emilio-ama-la-marcha.wav,./stim/wavs/chilean_match_declarative-narrow-focus_Emilio-ama-la-marcha.wav,./stim/wavs/cuban_match_declarative-narrow-focus_Emilio-ama-la-marcha.wav,./stim/wavs/mexican_match_declarative-narrow-focus_Emilio-ama-la-marcha.wav,./stim/wavs/peruvian_match_declarative-narrow-focus_Emilio-ama-la-marcha.wav,./stim/wavs/puertorican_match_declarative-narrow-focus_Emilio-ama-la-marcha.wav,,,,,,,,,,,,,,,,,,,,,,,,,,,,,,,,,,,,,,,,,,,,,,,,,,,,,,,,
,,,,,,,5dcc5f2545b8f98fd44ab4d7,60568611ec04488a9e9da93b,6056abc2e2c53d9f363d68b0,United States,Northeast,13 or older,no,2021-03-20_22h13.56.480,empathy_intonation_perc,2020.2.10,MacIntel,60,,,,,,,,,,0,castilian,0,1,1.987005,0,10,10,13,1,14,./stim/wavs/andalusian_match_declarative-narrow-focus_Maria-bebe-el-vino.wav,./stim/wavs/argentine_match_declarative-narrow-focus_Maria-bebe-el-vino.wav,./stim/wavs/castilian_match_declarative-narrow-focus_Maria-bebe-el-vino.wav,./stim/wavs/chilean_match_declarative-narrow-focus_Maria-bebe-el-vino.wav,./stim/wavs/cuban_match_declarative-narrow-focus_Maria-bebe-el-vino.wav,./stim/wavs/mexican_match_declarative-narrow-focus_Maria-bebe-el-vino.wav,./stim/wavs/peruvian_match_declarative-narrow-focus_Maria-bebe-el-vino.wav,./stim/wavs/puertorican_match_declarative-narrow-focus_Maria-bebe-el-vino.wav,,,,,,,,,,,,,,,,,,,,,,,,,,,,,,,,,,,,,,,,,,,,,,,,,,,,,,,,
,,,,,,,5dcc5f2545b8f98fd44ab4d7,60568611ec04488a9e9da93b,6056abc2e2c53d9f363d68b0,United States,Northeast,13 or older,no,2021-03-20_22h13.56.480,empathy_intonation_perc,2020.2.10,MacIntel,60,,,,,,,,,,0,cuban,0,1,1.834795,0,11,11,41,1,42,./stim/wavs/andalusian_mismatch_declarative-narrow-focus_El-hombre-mira-la-luna.wav,./stim/wavs/argentine_mismatch_declarative-narrow-focus_El-hombre-mira-la-luna.wav,./stim/wavs/castilian_mismatch_declarative-narrow-focus_El-hombre-mira-la-luna.wav,./stim/wavs/chilean_mismatch_declarative-narrow-focus_El-hombre-mira-la-luna.wav,./stim/wavs/cuban_mismatch_declarative-narrow-focus_El-hombre-mira-la-luna.wav,./stim/wavs/mexican_mismatch_declarative-narrow-focus_El-hombre-mira-la-luna.wav,./stim/wavs/peruvian_mismatch_declarative-narrow-focus_El-hombre-mira-la-luna.wav,./stim/wavs/puertorican_mismatch_declarative-narrow-focus_El-hombre-mira-la-luna.wav,,,,,,,,,,,,,,,,,,,,,,,,,,,,,,,,,,,,,,,,,,,,,,,,,,,,,,,,
,,,,,,,5dcc5f2545b8f98fd44ab4d7,60568611ec04488a9e9da93b,6056abc2e2c53d9f363d68b0,United States,Northeast,13 or older,no,2021-03-20_22h13.56.480,empathy_intonation_perc,2020.2.10,MacIntel,60,,,,,,,,,,1,mexican,1,1,1.85173,0,12,12,30,1,31,./stim/wavs/andalusian_match_interrogative-total-yn_Mariano-habla-del-tiempo.wav,./stim/wavs/argentine_match_interrogative-total-yn_Mariano-habla-del-tiempo.wav,./stim/wavs/castilian_match_interrogative-total-yn_Mariano-habla-del-tiempo.wav,./stim/wavs/chilean_match_interrogative-total-yn_Mariano-habla-del-tiempo.wav,./stim/wavs/cuban_match_interrogative-total-yn_Mariano-habla-del-tiempo.wav,./stim/wavs/mexican_match_interrogative-total-yn_Mariano-habla-del-tiempo.wav,./stim/wavs/peruvian_match_interrogative-total-yn_Mariano-habla-del-tiempo.wav,./stim/wavs/puertorican_match_interrogative-total-yn_Mariano-habla-del-tiempo.wav,,,,,,,,,,,,,,,,,,,,,,,,,,,,,,,,,,,,,,,,,,,,,,,,,,,,,,,,
,,,,,,,5dcc5f2545b8f98fd44ab4d7,60568611ec04488a9e9da93b,6056abc2e2c53d9f363d68b0,United States,Northeast,13 or older,no,2021-03-20_22h13.56.480,empathy_intonation_perc,2020.2.10,MacIntel,60,,,,,,,,,,0,cuban,0,1,1.768865,0,13,13,14,1,15,./stim/wavs/andalusian_match_declarative-narrow-focus_Mariano-habla-del-tiempo.wav,./stim/wavs/argentine_match_declarative-narrow-focus_Mariano-habla-del-tiempo.wav,./stim/wavs/castilian_match_declarative-narrow-focus_Mariano-habla-del-tiempo.wav,./stim/wavs/chilean_match_declarative-narrow-focus_Mariano-habla-del-tiempo.wav,./stim/wavs/cuban_match_declarative-narrow-focus_Mariano-habla-del-tiempo.wav,./stim/wavs/mexican_match_declarative-narrow-focus_Mariano-habla-del-tiempo.wav,./stim/wavs/peruvian_match_declarative-narrow-focus_Mariano-habla-del-tiempo.wav,./stim/wavs/puertorican_match_declarative-narrow-focus_Mariano-habla-del-tiempo.wav,,,,,,,,,,,,,,,,,,,,,,,,,,,,,,,,,,,,,,,,,,,,,,,,,,,,,,,,
,,,,,,,5dcc5f2545b8f98fd44ab4d7,60568611ec04488a9e9da93b,6056abc2e2c53d9f363d68b0,United States,Northeast,13 or older,no,2021-03-20_22h13.56.480,empathy_intonation_perc,2020.2.10,MacIntel,60,,,,,,,,,,1,argentine,1,1,1.986805,0,14,14,25,1,26,./stim/wavs/andalusian_match_interrogative-total-yn_Daniel-iba-a-Bolivia.wav,./stim/wavs/argentine_match_interrogative-total-yn_Daniel-iba-a-Bolivia.wav,./stim/wavs/castilian_match_interrogative-total-yn_Daniel-iba-a-Bolivia.wav,./stim/wavs/chilean_match_interrogative-total-yn_Daniel-iba-a-Bolivia.wav,./stim/wavs/cuban_match_interrogative-total-yn_Daniel-iba-a-Bolivia.wav,./stim/wavs/mexican_match_interrogative-total-yn_Daniel-iba-a-Bolivia.wav,./stim/wavs/peruvian_match_interrogative-total-yn_Daniel-iba-a-Bolivia.wav,./stim/wavs/puertorican_match_interrogative-total-yn_Daniel-iba-a-Bolivia.wav,,,,,,,,,,,,,,,,,,,,,,,,,,,,,,,,,,,,,,,,,,,,,,,,,,,,,,,,
,,,,,,,5dcc5f2545b8f98fd44ab4d7,60568611ec04488a9e9da93b,6056abc2e2c53d9f363d68b0,United States,Northeast,13 or older,no,2021-03-20_22h13.56.480,empathy_intonation_perc,2020.2.10,MacIntel,60,,,,,,,,,,0,castilian,0,1,2.204575,0,15,15,32,1,33,./stim/wavs/andalusian_mismatch_declarative-broad-focus_El-bebe-comia-muy-bien.wav,./stim/wavs/argentine_mismatch_declarative-broad-focus_El-bebe-comia-muy-bien.wav,./stim/wavs/castilian_mismatch_declarative-broad-focus_El-bebe-comia-muy-bien.wav,./stim/wavs/chilean_mismatch_declarative-broad-focus_El-bebe-comia-muy-bien.wav,./stim/wavs/cuban_mismatch_declarative-broad-focus_El-bebe-comia-muy-bien.wav,./stim/wavs/mexican_mismatch_declarative-broad-focus_El-bebe-comia-muy-bien.wav,./stim/wavs/peruvian_mismatch_declarative-broad-focus_El-bebe-comia-muy-bien.wav,./stim/wavs/puertorican_mismatch_declarative-broad-focus_El-bebe-comia-muy-bien.wav,,,,,,,,,,,,,,,,,,,,,,,,,,,,,,,,,,,,,,,,,,,,,,,,,,,,,,,,
,,,,,,,5dcc5f2545b8f98fd44ab4d7,60568611ec04488a9e9da93b,6056abc2e2c53d9f363d68b0,United States,Northeast,13 or older,no,2021-03-20_22h13.56.480,empathy_intonation_perc,2020.2.10,MacIntel,60,,,,,,,,,,0,argentine,0,1,1.934445,0,16,16,43,1,44,./stim/wavs/andalusian_mismatch_declarative-narrow-focus_La-maestra-vive-en-Paris.wav,./stim/wavs/argentine_mismatch_declarative-narrow-focus_La-maestra-vive-en-Paris.wav,./stim/wavs/castilian_mismatch_declarative-narrow-focus_La-maestra-vive-en-Paris.wav,./stim/wavs/chilean_mismatch_declarative-narrow-focus_La-maestra-vive-en-Paris.wav,./stim/wavs/cuban_mismatch_declarative-narrow-focus_La-maestra-vive-en-Paris.wav,./stim/wavs/mexican_mismatch_declarative-narrow-focus_La-maestra-vive-en-Paris.wav,./stim/wavs/peruvian_mismatch_declarative-narrow-focus_La-maestra-vive-en-Paris.wav,./stim/wavs/puertorican_mismatch_declarative-narrow-focus_La-maestra-vive-en-Paris.wav,,,,,,,,,,,,,,,,,,,,,,,,,,,,,,,,,,,,,,,,,,,,,,,,,,,,,,,,
,,,,,,,5dcc5f2545b8f98fd44ab4d7,60568611ec04488a9e9da93b,6056abc2e2c53d9f363d68b0,United States,Northeast,13 or older,no,2021-03-20_22h13.56.480,empathy_intonation_perc,2020.2.10,MacIntel,60,,,,,,,,,,0,cuban,0,1,2.20624,0,17,17,45,1,46,./stim/wavs/andalusian_mismatch_declarative-narrow-focus_Mi-madre-come-la-fruta.wav,./stim/wavs/argentine_mismatch_declarative-narrow-focus_Mi-madre-come-la-fruta.wav,./stim/wavs/castilian_mismatch_declarative-narrow-focus_Mi-madre-come-la-fruta.wav,./stim/wavs/chilean_mismatch_declarative-narrow-focus_Mi-madre-come-la-fruta.wav,./stim/wavs/cuban_mismatch_declarative-narrow-focus_Mi-madre-come-la-fruta.wav,./stim/wavs/mexican_mismatch_declarative-narrow-focus_Mi-madre-come-la-fruta.wav,./stim/wavs/peruvian_mismatch_declarative-narrow-focus_Mi-madre-come-la-fruta.wav,./stim/wavs/puertorican_mismatch_declarative-narrow-focus_Mi-madre-come-la-fruta.wav,,,,,,,,,,,,,,,,,,,,,,,,,,,,,,,,,,,,,,,,,,,,,,,,,,,,,,,,
,,,,,,,5dcc5f2545b8f98fd44ab4d7,60568611ec04488a9e9da93b,6056abc2e2c53d9f363d68b0,United States,Northeast,13 or older,no,2021-03-20_22h13.56.480,empathy_intonation_perc,2020.2.10,MacIntel,60,,,,,,,,,,1,castilian,1,1,1.7698,0,18,18,24,1,25,./stim/wavs/andalusian_match_interrogative-total-yn_Ana-lleva-el-abrigo.wav,./stim/wavs/argentine_match_interrogative-total-yn_Ana-lleva-el-abrigo.wav,./stim/wavs/castilian_match_interrogative-total-yn_Ana-lleva-el-abrigo.wav,./stim/wavs/chilean_match_interrogative-total-yn_Ana-lleva-el-abrigo.wav,./stim/wavs/cuban_match_interrogative-total-yn_Ana-lleva-el-abrigo.wav,./stim/wavs/mexican_match_interrogative-total-yn_Ana-lleva-el-abrigo.wav,./stim/wavs/peruvian_match_interrogative-total-yn_Ana-lleva-el-abrigo.wav,./stim/wavs/puertorican_match_interrogative-total-yn_Ana-lleva-el-abrigo.wav,,,,,,,,,,,,,,,,,,,,,,,,,,,,,,,,,,,,,,,,,,,,,,,,,,,,,,,,
,,,,,,,5dcc5f2545b8f98fd44ab4d7,60568611ec04488a9e9da93b,6056abc2e2c53d9f363d68b0,United States,Northeast,13 or older,no,2021-03-20_22h13.56.480,empathy_intonation_perc,2020.2.10,MacIntel,60,,,,,,,,,,0,puertorican,0,1,1.719565,0,19,19,36,1,37,./stim/wavs/andalusian_mismatch_declarative-broad-focus_La-nina-lava-el-plato.wav,./stim/wavs/argentine_mismatch_declarative-broad-focus_La-nina-lava-el-plato.wav,./stim/wavs/castilian_mismatch_declarative-broad-focus_La-nina-lava-el-plato.wav,./stim/wavs/chilean_mismatch_declarative-broad-focus_La-nina-lava-el-plato.wav,./stim/wavs/cuban_mismatch_declarative-broad-focus_La-nina-lava-el-plato.wav,./stim/wavs/mexican_mismatch_declarative-broad-focus_La-nina-lava-el-plato.wav,./stim/wavs/peruvian_mismatch_declarative-broad-focus_La-nina-lava-el-plato.wav,./stim/wavs/puertorican_mismatch_declarative-broad-focus_La-nina-lava-el-plato.wav,,,,,,,,,,,,,,,,,,,,,,,,,,,,,,,,,,,,,,,,,,,,,,,,,,,,,,,,
,,,,,,,5dcc5f2545b8f98fd44ab4d7,60568611ec04488a9e9da93b,6056abc2e2c53d9f363d68b0,United States,Northeast,13 or older,no,2021-03-20_22h13.56.480,empathy_intonation_perc,2020.2.10,MacIntel,60,,,,,,,,,,0,chilean,0,1,1.923685,0,20,20,40,1,41,./stim/wavs/andalusian_mismatch_declarative-narrow-focus_El-bebe-comia-muy-bien.wav,./stim/wavs/argentine_mismatch_declarative-narrow-focus_El-bebe-comia-muy-bien.wav,./stim/wavs/castilian_mismatch_declarative-narrow-focus_El-bebe-comia-muy-bien.wav,./stim/wavs/chilean_mismatch_declarative-narrow-focus_El-bebe-comia-muy-bien.wav,./stim/wavs/cuban_mismatch_declarative-narrow-focus_El-bebe-comia-muy-bien.wav,./stim/wavs/mexican_mismatch_declarative-narrow-focus_El-bebe-comia-muy-bien.wav,./stim/wavs/peruvian_mismatch_declarative-narrow-focus_El-bebe-comia-muy-bien.wav,./stim/wavs/puertorican_mismatch_declarative-narrow-focus_El-bebe-comia-muy-bien.wav,,,,,,,,,,,,,,,,,,,,,,,,,,,,,,,,,,,,,,,,,,,,,,,,,,,,,,,,
,,,,,,,5dcc5f2545b8f98fd44ab4d7,60568611ec04488a9e9da93b,6056abc2e2c53d9f363d68b0,United States,Northeast,13 or older,no,2021-03-20_22h13.56.480,empathy_intonation_perc,2020.2.10,MacIntel,60,,,,,,,,,,0,andalusian,0,1,2.05442,0,21,21,44,1,45,./stim/wavs/andalusian_mismatch_declarative-narrow-focus_La-nina-lava-el-plato.wav,./stim/wavs/argentine_mismatch_declarative-narrow-focus_La-nina-lava-el-plato.wav,./stim/wavs/castilian_mismatch_declarative-narrow-focus_La-nina-lava-el-plato.wav,./stim/wavs/chilean_mismatch_declarative-narrow-focus_La-nina-lava-el-plato.wav,./stim/wavs/cuban_mismatch_declarative-narrow-focus_La-nina-lava-el-plato.wav,./stim/wavs/mexican_mismatch_declarative-narrow-focus_La-nina-lava-el-plato.wav,./stim/wavs/peruvian_mismatch_declarative-narrow-focus_La-nina-lava-el-plato.wav,./stim/wavs/puertorican_mismatch_declarative-narrow-focus_La-nina-lava-el-plato.wav,,,,,,,,,,,,,,,,,,,,,,,,,,,,,,,,,,,,,,,,,,,,,,,,,,,,,,,,
,,,,,,,5dcc5f2545b8f98fd44ab4d7,60568611ec04488a9e9da93b,6056abc2e2c53d9f363d68b0,United States,Northeast,13 or older,no,2021-03-20_22h13.56.480,empathy_intonation_perc,2020.2.10,MacIntel,60,,,,,,,,,,1,cuban,1,1,1.869455,0,22,22,60,1,61,./stim/wavs/andalusian_mismatch_interrogative-total-yn_La-nina-lava-el-plato.wav,./stim/wavs/argentine_mismatch_interrogative-total-yn_La-nina-lava-el-plato.wav,./stim/wavs/castilian_mismatch_interrogative-total-yn_La-nina-lava-el-plato.wav,./stim/wavs/chilean_mismatch_interrogative-total-yn_La-nina-lava-el-plato.wav,./stim/wavs/cuban_mismatch_interrogative-total-yn_La-nina-lava-el-plato.wav,./stim/wavs/mexican_mismatch_interrogative-total-yn_La-nina-lava-el-plato.wav,./stim/wavs/peruvian_mismatch_interrogative-total-yn_La-nina-lava-el-plato.wav,./stim/wavs/puertorican_mismatch_interrogative-total-yn_La-nina-lava-el-plato.wav,,,,,,,,,,,,,,,,,,,,,,,,,,,,,,,,,,,,,,,,,,,,,,,,,,,,,,,,
,,,,,,,5dcc5f2545b8f98fd44ab4d7,60568611ec04488a9e9da93b,6056abc2e2c53d9f363d68b0,United States,Northeast,13 or older,no,2021-03-20_22h13.56.480,empathy_intonation_perc,2020.2.10,MacIntel,60,,,,,,,,,,1,mexican,1,1,1.70263,0,23,23,48,1,49,./stim/wavs/andalusian_mismatch_interrogative-partial-wh_Cuando-comia-la-fruta.wav,./stim/wavs/argentine_mismatch_interrogative-partial-wh_Cuando-comia-la-fruta.wav,./stim/wavs/castilian_mismatch_interrogative-partial-wh_Cuando-comia-la-fruta.wav,./stim/wavs/chilean_mismatch_interrogative-partial-wh_Cuando-comia-la-fruta.wav,./stim/wavs/cuban_mismatch_interrogative-partial-wh_Cuando-comia-la-fruta.wav,./stim/wavs/mexican_mismatch_interrogative-partial-wh_Cuando-comia-la-fruta.wav,./stim/wavs/peruvian_mismatch_interrogative-partial-wh_Cuando-comia-la-fruta.wav,./stim/wavs/puertorican_mismatch_interrogative-partial-wh_Cuando-comia-la-fruta.wav,,,,,,,,,,,,,,,,,,,,,,,,,,,,,,,,,,,,,,,,,,,,,,,,,,,,,,,,
,,,,,,,5dcc5f2545b8f98fd44ab4d7,60568611ec04488a9e9da93b,6056abc2e2c53d9f363d68b0,United States,Northeast,13 or older,no,2021-03-20_22h13.56.480,empathy_intonation_perc,2020.2.10,MacIntel,60,,,,,,,,,,0,chilean,0,1,1.75677,0,24,24,4,1,5,./stim/wavs/andalusian_match_declarative-broad-focus_Manuela-vende-el-carro.wav,./stim/wavs/argentine_match_declarative-broad-focus_Manuela-vende-el-carro.wav,./stim/wavs/castilian_match_declarative-broad-focus_Manuela-vende-el-carro.wav,./stim/wavs/chilean_match_declarative-broad-focus_Manuela-vende-el-carro.wav,./stim/wavs/cuban_match_declarative-broad-focus_Manuela-vende-el-carro.wav,./stim/wavs/mexican_match_declarative-broad-focus_Manuela-vende-el-carro.wav,./stim/wavs/peruvian_match_declarative-broad-focus_Manuela-vende-el-carro.wav,./stim/wavs/puertorican_match_declarative-broad-focus_Manuela-vende-el-carro.wav,,,,,,,,,,,,,,,,,,,,,,,,,,,,,,,,,,,,,,,,,,,,,,,,,,,,,,,,
,,,,,,,5dcc5f2545b8f98fd44ab4d7,60568611ec04488a9e9da93b,6056abc2e2c53d9f363d68b0,United States,Northeast,13 or older,no,2021-03-20_22h13.56.480,empathy_intonation_perc,2020.2.10,MacIntel,60,,,,,,,,,,0,peruvian,0,1,1.985805,0,25,25,46,1,47,./stim/wavs/andalusian_mismatch_declarative-narrow-focus_Mi-novio-viene-del-lago.wav,./stim/wavs/argentine_mismatch_declarative-narrow-focus_Mi-novio-viene-del-lago.wav,./stim/wavs/castilian_mismatch_declarative-narrow-focus_Mi-novio-viene-del-lago.wav,./stim/wavs/chilean_mismatch_declarative-narrow-focus_Mi-novio-viene-del-lago.wav,./stim/wavs/cuban_mismatch_declarative-narrow-focus_Mi-novio-viene-del-lago.wav,./stim/wavs/mexican_mismatch_declarative-narrow-focus_Mi-novio-viene-del-lago.wav,./stim/wavs/peruvian_mismatch_declarative-narrow-focus_Mi-novio-viene-del-lago.wav,./stim/wavs/puertorican_mismatch_declarative-narrow-focus_Mi-novio-viene-del-lago.wav,,,,,,,,,,,,,,,,,,,,,,,,,,,,,,,,,,,,,,,,,,,,,,,,,,,,,,,,
,,,,,,,5dcc5f2545b8f98fd44ab4d7,60568611ec04488a9e9da93b,6056abc2e2c53d9f363d68b0,United States,Northeast,13 or older,no,2021-03-20_22h13.56.480,empathy_intonation_perc,2020.2.10,MacIntel,60,,,,,,,,,,1,peruvian,1,1,1.786895,0,26,26,19,1,20,./stim/wavs/andalusian_match_interrogative-partial-wh_Cuando-vendia-el-carro.wav,./stim/wavs/argentine_match_interrogative-partial-wh_Cuando-vendia-el-carro.wav,./stim/wavs/castilian_match_interrogative-partial-wh_Cuando-vendia-el-carro.wav,./stim/wavs/chilean_match_interrogative-partial-wh_Cuando-vendia-el-carro.wav,./stim/wavs/cuban_match_interrogative-partial-wh_Cuando-vendia-el-carro.wav,./stim/wavs/mexican_match_interrogative-partial-wh_Cuando-vendia-el-carro.wav,./stim/wavs/peruvian_match_interrogative-partial-wh_Cuando-vendia-el-carro.wav,./stim/wavs/puertorican_match_interrogative-partial-wh_Cuando-vendia-el-carro.wav,,,,,,,,,,,,,,,,,,,,,,,,,,,,,,,,,,,,,,,,,,,,,,,,,,,,,,,,
,,,,,,,5dcc5f2545b8f98fd44ab4d7,60568611ec04488a9e9da93b,6056abc2e2c53d9f363d68b0,United States,Northeast,13 or older,no,2021-03-20_22h13.56.480,empathy_intonation_perc,2020.2.10,MacIntel,60,,,,,,,,,,1,andalusian,1,1,1.754175,0,27,27,26,1,27,./stim/wavs/andalusian_match_interrogative-total-yn_David-leia-el-libro.wav,./stim/wavs/argentine_match_interrogative-total-yn_David-leia-el-libro.wav,./stim/wavs/castilian_match_interrogative-total-yn_David-leia-el-libro.wav,./stim/wavs/chilean_match_interrogative-total-yn_David-leia-el-libro.wav,./stim/wavs/cuban_match_interrogative-total-yn_David-leia-el-libro.wav,./stim/wavs/mexican_match_interrogative-total-yn_David-leia-el-libro.wav,./stim/wavs/peruvian_match_interrogative-total-yn_David-leia-el-libro.wav,./stim/wavs/puertorican_match_interrogative-total-yn_David-leia-el-libro.wav,,,,,,,,,,,,,,,,,,,,,,,,,,,,,,,,,,,,,,,,,,,,,,,,,,,,,,,,
,,,,,,,5dcc5f2545b8f98fd44ab4d7,60568611ec04488a9e9da93b,6056abc2e2c53d9f363d68b0,United States,Northeast,13 or older,no,2021-03-20_22h13.56.480,empathy_intonation_perc,2020.2.10,MacIntel,60,,,,,,,,,,1,chilean,1,1,1.70274,0,28,28,16,1,17,./stim/wavs/andalusian_match_interrogative-partial-wh_Cuando-bebia-el-vino.wav,./stim/wavs/argentine_match_interrogative-partial-wh_Cuando-bebia-el-vino.wav,./stim/wavs/castilian_match_interrogative-partial-wh_Cuando-bebia-el-vino.wav,./stim/wavs/chilean_match_interrogative-partial-wh_Cuando-bebia-el-vino.wav,./stim/wavs/cuban_match_interrogative-partial-wh_Cuando-bebia-el-vino.wav,./stim/wavs/mexican_match_interrogative-partial-wh_Cuando-bebia-el-vino.wav,./stim/wavs/peruvian_match_interrogative-partial-wh_Cuando-bebia-el-vino.wav,./stim/wavs/puertorican_match_interrogative-partial-wh_Cuando-bebia-el-vino.wav,,,,,,,,,,,,,,,,,,,,,,,,,,,,,,,,,,,,,,,,,,,,,,,,,,,,,,,,
,,,,,,,5dcc5f2545b8f98fd44ab4d7,60568611ec04488a9e9da93b,6056abc2e2c53d9f363d68b0,United States,Northeast,13 or older,no,2021-03-20_22h13.56.480,empathy_intonation_perc,2020.2.10,MacIntel,60,,,,,,,,,,0,argentine,0,1,2.035495,0,29,29,12,1,13,./stim/wavs/andalusian_match_declarative-narrow-focus_Manuela-vende-el-carro.wav,./stim/wavs/argentine_match_declarative-narrow-focus_Manuela-vende-el-carro.wav,./stim/wavs/castilian_match_declarative-narrow-focus_Manuela-vende-el-carro.wav,./stim/wavs/chilean_match_declarative-narrow-focus_Manuela-vende-el-carro.wav,./stim/wavs/cuban_match_declarative-narrow-focus_Manuela-vende-el-carro.wav,./stim/wavs/mexican_match_declarative-narrow-focus_Manuela-vende-el-carro.wav,./stim/wavs/peruvian_match_declarative-narrow-focus_Manuela-vende-el-carro.wav,./stim/wavs/puertorican_match_declarative-narrow-focus_Manuela-vende-el-carro.wav,,,,,,,,,,,,,,,,,,,,,,,,,,,,,,,,,,,,,,,,,,,,,,,,,,,,,,,,
,,,,,,,5dcc5f2545b8f98fd44ab4d7,60568611ec04488a9e9da93b,6056abc2e2c53d9f363d68b0,United States,Northeast,13 or older,no,2021-03-20_22h13.56.480,empathy_intonation_perc,2020.2.10,MacIntel,60,,,,,,,,,,1,chilean,1,1,1.838485,0,30,30,20,1,21,./stim/wavs/andalusian_match_interrogative-partial-wh_Por-que-abre-el-regalo.wav,./stim/wavs/argentine_match_interrogative-partial-wh_Por-que-abre-el-regalo.wav,./stim/wavs/castilian_match_interrogative-partial-wh_Por-que-abre-el-regalo.wav,./stim/wavs/chilean_match_interrogative-partial-wh_Por-que-abre-el-regalo.wav,./stim/wavs/cuban_match_interrogative-partial-wh_Por-que-abre-el-regalo.wav,./stim/wavs/mexican_match_interrogative-partial-wh_Por-que-abre-el-regalo.wav,./stim/wavs/peruvian_match_interrogative-partial-wh_Por-que-abre-el-regalo.wav,./stim/wavs/puertorican_match_interrogative-partial-wh_Por-que-abre-el-regalo.wav,,,,,,,,,,,,,,,,,,,,,,,,,,,,,,,,,,,,,,,,,,,,,,,,,,,,,,,,
,,,,,,,5dcc5f2545b8f98fd44ab4d7,60568611ec04488a9e9da93b,6056abc2e2c53d9f363d68b0,United States,Northeast,13 or older,no,2021-03-20_22h13.56.480,empathy_intonation_perc,2020.2.10,MacIntel,60,,,,,,,,,,1,cuban,0,0,1.968755,0,31,31,51,1,52,./stim/wavs/andalusian_mismatch_interrogative-partial-wh_Por-que-desayuna-muy-bien.wav,./stim/wavs/argentine_mismatch_interrogative-partial-wh_Por-que-desayuna-muy-bien.wav,./stim/wavs/castilian_mismatch_interrogative-partial-wh_Por-que-desayuna-muy-bien.wav,./stim/wavs/chilean_mismatch_interrogative-partial-wh_Por-que-desayuna-muy-bien.wav,./stim/wavs/cuban_mismatch_interrogative-partial-wh_Por-que-desayuna-muy-bien.wav,./stim/wavs/mexican_mismatch_interrogative-partial-wh_Por-que-desayuna-muy-bien.wav,./stim/wavs/peruvian_mismatch_interrogative-partial-wh_Por-que-desayuna-muy-bien.wav,./stim/wavs/puertorican_mismatch_interrogative-partial-wh_Por-que-desayuna-muy-bien.wav,,,,,,,,,,,,,,,,,,,,,,,,,,,,,,,,,,,,,,,,,,,,,,,,,,,,,,,,
,,,,,,,5dcc5f2545b8f98fd44ab4d7,60568611ec04488a9e9da93b,6056abc2e2c53d9f363d68b0,United States,Northeast,13 or older,no,2021-03-20_22h13.56.480,empathy_intonation_perc,2020.2.10,MacIntel,60,,,,,,,,,,1,puertorican,0,0,1.928775,0,32,32,61,1,62,./stim/wavs/andalusian_mismatch_interrogative-total-yn_Mi-madre-come-la-fruta.wav,./stim/wavs/argentine_mismatch_interrogative-total-yn_Mi-madre-come-la-fruta.wav,./stim/wavs/castilian_mismatch_interrogative-total-yn_Mi-madre-come-la-fruta.wav,./stim/wavs/chilean_mismatch_interrogative-total-yn_Mi-madre-come-la-fruta.wav,./stim/wavs/cuban_mismatch_interrogative-total-yn_Mi-madre-come-la-fruta.wav,./stim/wavs/mexican_mismatch_interrogative-total-yn_Mi-madre-come-la-fruta.wav,./stim/wavs/peruvian_mismatch_interrogative-total-yn_Mi-madre-come-la-fruta.wav,./stim/wavs/puertorican_mismatch_interrogative-total-yn_Mi-madre-come-la-fruta.wav,,,,,,,,,,,,,,,,,,,,,,,,,,,,,,,,,,,,,,,,,,,,,,,,,,,,,,,,
,,,,,,,5dcc5f2545b8f98fd44ab4d7,60568611ec04488a9e9da93b,6056abc2e2c53d9f363d68b0,United States,Northeast,13 or older,no,2021-03-20_22h13.56.480,empathy_intonation_perc,2020.2.10,MacIntel,60,,,,,,,,,,0,peruvian,0,1,2.034645,0,33,33,37,1,38,./stim/wavs/andalusian_mismatch_declarative-broad-focus_Mi-madre-come-la-fruta.wav,./stim/wavs/argentine_mismatch_declarative-broad-focus_Mi-madre-come-la-fruta.wav,./stim/wavs/castilian_mismatch_declarative-broad-focus_Mi-madre-come-la-fruta.wav,./stim/wavs/chilean_mismatch_declarative-broad-focus_Mi-madre-come-la-fruta.wav,./stim/wavs/cuban_mismatch_declarative-broad-focus_Mi-madre-come-la-fruta.wav,./stim/wavs/mexican_mismatch_declarative-broad-focus_Mi-madre-come-la-fruta.wav,./stim/wavs/peruvian_mismatch_declarative-broad-focus_Mi-madre-come-la-fruta.wav,./stim/wavs/puertorican_mismatch_declarative-broad-focus_Mi-madre-come-la-fruta.wav,,,,,,,,,,,,,,,,,,,,,,,,,,,,,,,,,,,,,,,,,,,,,,,,,,,,,,,,
,,,,,,,5dcc5f2545b8f98fd44ab4d7,60568611ec04488a9e9da93b,6056abc2e2c53d9f363d68b0,United States,Northeast,13 or older,no,2021-03-20_22h13.56.480,empathy_intonation_perc,2020.2.10,MacIntel,60,,,,,,,,,,0,peruvian,0,1,1.93704,0,34,34,3,1,4,./stim/wavs/andalusian_match_declarative-broad-focus_Emilio-ama-la-marcha.wav,./stim/wavs/argentine_match_declarative-broad-focus_Emilio-ama-la-marcha.wav,./stim/wavs/castilian_match_declarative-broad-focus_Emilio-ama-la-marcha.wav,./stim/wavs/chilean_match_declarative-broad-focus_Emilio-ama-la-marcha.wav,./stim/wavs/cuban_match_declarative-broad-focus_Emilio-ama-la-marcha.wav,./stim/wavs/mexican_match_declarative-broad-focus_Emilio-ama-la-marcha.wav,./stim/wavs/peruvian_match_declarative-broad-focus_Emilio-ama-la-marcha.wav,./stim/wavs/puertorican_match_declarative-broad-focus_Emilio-ama-la-marcha.wav,,,,,,,,,,,,,,,,,,,,,,,,,,,,,,,,,,,,,,,,,,,,,,,,,,,,,,,,
,,,,,,,5dcc5f2545b8f98fd44ab4d7,60568611ec04488a9e9da93b,6056abc2e2c53d9f363d68b0,United States,Northeast,13 or older,no,2021-03-20_22h13.56.480,empathy_intonation_perc,2020.2.10,MacIntel,60,,,,,,,,,,0,mexican,0,1,1.65343,0,35,35,39,1,40,./stim/wavs/andalusian_mismatch_declarative-broad-focus_Mi-tia-odia-la-lluvia.wav,./stim/wavs/argentine_mismatch_declarative-broad-focus_Mi-tia-odia-la-lluvia.wav,./stim/wavs/castilian_mismatch_declarative-broad-focus_Mi-tia-odia-la-lluvia.wav,./stim/wavs/chilean_mismatch_declarative-broad-focus_Mi-tia-odia-la-lluvia.wav,./stim/wavs/cuban_mismatch_declarative-broad-focus_Mi-tia-odia-la-lluvia.wav,./stim/wavs/mexican_mismatch_declarative-broad-focus_Mi-tia-odia-la-lluvia.wav,./stim/wavs/peruvian_mismatch_declarative-broad-focus_Mi-tia-odia-la-lluvia.wav,./stim/wavs/puertorican_mismatch_declarative-broad-focus_Mi-tia-odia-la-lluvia.wav,,,,,,,,,,,,,,,,,,,,,,,,,,,,,,,,,,,,,,,,,,,,,,,,,,,,,,,,
,,,,,,,5dcc5f2545b8f98fd44ab4d7,60568611ec04488a9e9da93b,6056abc2e2c53d9f363d68b0,United States,Northeast,13 or older,no,2021-03-20_22h13.56.480,empathy_intonation_perc,2020.2.10,MacIntel,60,,,,,,,,,,0,castilian,0,1,1.751425,0,36,36,5,1,6,./stim/wavs/andalusian_match_declarative-broad-focus_Maria-bebe-el-vino.wav,./stim/wavs/argentine_match_declarative-broad-focus_Maria-bebe-el-vino.wav,./stim/wavs/castilian_match_declarative-broad-focus_Maria-bebe-el-vino.wav,./stim/wavs/chilean_match_declarative-broad-focus_Maria-bebe-el-vino.wav,./stim/wavs/cuban_match_declarative-broad-focus_Maria-bebe-el-vino.wav,./stim/wavs/mexican_match_declarative-broad-focus_Maria-bebe-el-vino.wav,./stim/wavs/peruvian_match_declarative-broad-focus_Maria-bebe-el-vino.wav,./stim/wavs/puertorican_match_declarative-broad-focus_Maria-bebe-el-vino.wav,,,,,,,,,,,,,,,,,,,,,,,,,,,,,,,,,,,,,,,,,,,,,,,,,,,,,,,,
,,,,,,,5dcc5f2545b8f98fd44ab4d7,60568611ec04488a9e9da93b,6056abc2e2c53d9f363d68b0,United States,Northeast,13 or older,no,2021-03-20_22h13.56.480,empathy_intonation_perc,2020.2.10,MacIntel,60,,,,,,,,,,1,chilean,1,1,1.651525,0,37,37,58,1,59,./stim/wavs/andalusian_mismatch_interrogative-total-yn_El-nino-oye-el-rio.wav,./stim/wavs/argentine_mismatch_interrogative-total-yn_El-nino-oye-el-rio.wav,./stim/wavs/castilian_mismatch_interrogative-total-yn_El-nino-oye-el-rio.wav,./stim/wavs/chilean_mismatch_interrogative-total-yn_El-nino-oye-el-rio.wav,./stim/wavs/cuban_mismatch_interrogative-total-yn_El-nino-oye-el-rio.wav,./stim/wavs/mexican_mismatch_interrogative-total-yn_El-nino-oye-el-rio.wav,./stim/wavs/peruvian_mismatch_interrogative-total-yn_El-nino-oye-el-rio.wav,./stim/wavs/puertorican_mismatch_interrogative-total-yn_El-nino-oye-el-rio.wav,,,,,,,,,,,,,,,,,,,,,,,,,,,,,,,,,,,,,,,,,,,,,,,,,,,,,,,,
,,,,,,,5dcc5f2545b8f98fd44ab4d7,60568611ec04488a9e9da93b,6056abc2e2c53d9f363d68b0,United States,Northeast,13 or older,no,2021-03-20_22h13.56.480,empathy_intonation_perc,2020.2.10,MacIntel,60,,,,,,,,,,0,cuban,0,1,1.79336,0,38,38,2,1,3,./stim/wavs/andalusian_match_declarative-broad-focus_David-leia-el-libro.wav,./stim/wavs/argentine_match_declarative-broad-focus_David-leia-el-libro.wav,./stim/wavs/castilian_match_declarative-broad-focus_David-leia-el-libro.wav,./stim/wavs/chilean_match_declarative-broad-focus_David-leia-el-libro.wav,./stim/wavs/cuban_match_declarative-broad-focus_David-leia-el-libro.wav,./stim/wavs/mexican_match_declarative-broad-focus_David-leia-el-libro.wav,./stim/wavs/peruvian_match_declarative-broad-focus_David-leia-el-libro.wav,./stim/wavs/puertorican_match_declarative-broad-focus_David-leia-el-libro.wav,,,,,,,,,,,,,,,,,,,,,,,,,,,,,,,,,,,,,,,,,,,,,,,,,,,,,,,,
,,,,,,,5dcc5f2545b8f98fd44ab4d7,60568611ec04488a9e9da93b,6056abc2e2c53d9f363d68b0,United States,Northeast,13 or older,no,2021-03-20_22h13.56.480,empathy_intonation_perc,2020.2.10,MacIntel,60,,,,,,,,,,1,cuban,1,1,1.653105,0,39,39,23,1,24,./stim/wavs/andalusian_match_interrogative-partial-wh_Por-que-iba-a-Bolivia.wav,./stim/wavs/argentine_match_interrogative-partial-wh_Por-que-iba-a-Bolivia.wav,./stim/wavs/castilian_match_interrogative-partial-wh_Por-que-iba-a-Bolivia.wav,./stim/wavs/chilean_match_interrogative-partial-wh_Por-que-iba-a-Bolivia.wav,./stim/wavs/cuban_match_interrogative-partial-wh_Por-que-iba-a-Bolivia.wav,./stim/wavs/mexican_match_interrogative-partial-wh_Por-que-iba-a-Bolivia.wav,./stim/wavs/peruvian_match_interrogative-partial-wh_Por-que-iba-a-Bolivia.wav,./stim/wavs/puertorican_match_interrogative-partial-wh_Por-que-iba-a-Bolivia.wav,,,,,,,,,,,,,,,,,,,,,,,,,,,,,,,,,,,,,,,,,,,,,,,,,,,,,,,,
,,,,,,,5dcc5f2545b8f98fd44ab4d7,60568611ec04488a9e9da93b,6056abc2e2c53d9f363d68b0,United States,Northeast,13 or older,no,2021-03-20_22h13.56.480,empathy_intonation_perc,2020.2.10,MacIntel,60,,,,,,,,,,1,cuban,0,0,1.702,0,40,40,27,1,28,./stim/wavs/andalusian_match_interrogative-total-yn_Emilio-ama-la-marcha.wav,./stim/wavs/argentine_match_interrogative-total-yn_Emilio-ama-la-marcha.wav,./stim/wavs/castilian_match_interrogative-total-yn_Emilio-ama-la-marcha.wav,./stim/wavs/chilean_match_interrogative-total-yn_Emilio-ama-la-marcha.wav,./stim/wavs/cuban_match_interrogative-total-yn_Emilio-ama-la-marcha.wav,./stim/wavs/mexican_match_interrogative-total-yn_Emilio-ama-la-marcha.wav,./stim/wavs/peruvian_match_interrogative-total-yn_Emilio-ama-la-marcha.wav,./stim/wavs/puertorican_match_interrogative-total-yn_Emilio-ama-la-marcha.wav,,,,,,,,,,,,,,,,,,,,,,,,,,,,,,,,,,,,,,,,,,,,,,,,,,,,,,,,
,,,,,,,5dcc5f2545b8f98fd44ab4d7,60568611ec04488a9e9da93b,6056abc2e2c53d9f363d68b0,United States,Northeast,13 or older,no,2021-03-20_22h13.56.480,empathy_intonation_perc,2020.2.10,MacIntel,60,,,,,,,,,,1,chilean,1,1,1.87021,0,41,41,28,1,29,./stim/wavs/andalusian_match_interrogative-total-yn_Manuela-vende-el-carro.wav,./stim/wavs/argentine_match_interrogative-total-yn_Manuela-vende-el-carro.wav,./stim/wavs/castilian_match_interrogative-total-yn_Manuela-vende-el-carro.wav,./stim/wavs/chilean_match_interrogative-total-yn_Manuela-vende-el-carro.wav,./stim/wavs/cuban_match_interrogative-total-yn_Manuela-vende-el-carro.wav,./stim/wavs/mexican_match_interrogative-total-yn_Manuela-vende-el-carro.wav,./stim/wavs/peruvian_match_interrogative-total-yn_Manuela-vende-el-carro.wav,./stim/wavs/puertorican_match_interrogative-total-yn_Manuela-vende-el-carro.wav,,,,,,,,,,,,,,,,,,,,,,,,,,,,,,,,,,,,,,,,,,,,,,,,,,,,,,,,
,,,,,,,5dcc5f2545b8f98fd44ab4d7,60568611ec04488a9e9da93b,6056abc2e2c53d9f363d68b0,United States,Northeast,13 or older,no,2021-03-20_22h13.56.480,empathy_intonation_perc,2020.2.10,MacIntel,60,,,,,,,,,,0,andalusian,0,1,1.90342,0,42,42,0,1,1,./stim/wavs/andalusian_match_declarative-broad-focus_Ana-lleva-el-abrigo.wav,./stim/wavs/argentine_match_declarative-broad-focus_Ana-lleva-el-abrigo.wav,./stim/wavs/castilian_match_declarative-broad-focus_Ana-lleva-el-abrigo.wav,./stim/wavs/chilean_match_declarative-broad-focus_Ana-lleva-el-abrigo.wav,./stim/wavs/cuban_match_declarative-broad-focus_Ana-lleva-el-abrigo.wav,./stim/wavs/mexican_match_declarative-broad-focus_Ana-lleva-el-abrigo.wav,./stim/wavs/peruvian_match_declarative-broad-focus_Ana-lleva-el-abrigo.wav,./stim/wavs/puertorican_match_declarative-broad-focus_Ana-lleva-el-abrigo.wav,,,,,,,,,,,,,,,,,,,,,,,,,,,,,,,,,,,,,,,,,,,,,,,,,,,,,,,,
,,,,,,,5dcc5f2545b8f98fd44ab4d7,60568611ec04488a9e9da93b,6056abc2e2c53d9f363d68b0,United States,Northeast,13 or older,no,2021-03-20_22h13.56.480,empathy_intonation_perc,2020.2.10,MacIntel,60,,,,,,,,,,0,chilean,0,1,1.51982,0,43,43,9,1,10,./stim/wavs/andalusian_match_declarative-narrow-focus_Daniel-iba-a-Bolivia.wav,./stim/wavs/argentine_match_declarative-narrow-focus_Daniel-iba-a-Bolivia.wav,./stim/wavs/castilian_match_declarative-narrow-focus_Daniel-iba-a-Bolivia.wav,./stim/wavs/chilean_match_declarative-narrow-focus_Daniel-iba-a-Bolivia.wav,./stim/wavs/cuban_match_declarative-narrow-focus_Daniel-iba-a-Bolivia.wav,./stim/wavs/mexican_match_declarative-narrow-focus_Daniel-iba-a-Bolivia.wav,./stim/wavs/peruvian_match_declarative-narrow-focus_Daniel-iba-a-Bolivia.wav,./stim/wavs/puertorican_match_declarative-narrow-focus_Daniel-iba-a-Bolivia.wav,,,,,,,,,,,,,,,,,,,,,,,,,,,,,,,,,,,,,,,,,,,,,,,,,,,,,,,,
,,,,,,,5dcc5f2545b8f98fd44ab4d7,60568611ec04488a9e9da93b,6056abc2e2c53d9f363d68b0,United States,Northeast,13 or older,no,2021-03-20_22h13.56.480,empathy_intonation_perc,2020.2.10,MacIntel,60,,,,,,,,,,1,chilean,1,1,2.01975,0,44,44,21,1,22,./stim/wavs/andalusian_match_interrogative-partial-wh_Por-que-ama-la-navidad.wav,./stim/wavs/argentine_match_interrogative-partial-wh_Por-que-ama-la-navidad.wav,./stim/wavs/castilian_match_interrogative-partial-wh_Por-que-ama-la-navidad.wav,./stim/wavs/chilean_match_interrogative-partial-wh_Por-que-ama-la-navidad.wav,./stim/wavs/cuban_match_interrogative-partial-wh_Por-que-ama-la-navidad.wav,./stim/wavs/mexican_match_interrogative-partial-wh_Por-que-ama-la-navidad.wav,./stim/wavs/peruvian_match_interrogative-partial-wh_Por-que-ama-la-navidad.wav,./stim/wavs/puertorican_match_interrogative-partial-wh_Por-que-ama-la-navidad.wav,,,,,,,,,,,,,,,,,,,,,,,,,,,,,,,,,,,,,,,,,,,,,,,,,,,,,,,,
,,,,,,,5dcc5f2545b8f98fd44ab4d7,60568611ec04488a9e9da93b,6056abc2e2c53d9f363d68b0,United States,Northeast,13 or older,no,2021-03-20_22h13.56.480,empathy_intonation_perc,2020.2.10,MacIntel,60,,,,,,,,,,1,andalusian,1,1,1.82233,0,45,45,62,1,63,./stim/wavs/andalusian_mismatch_interrogative-total-yn_Mi-novio-viene-del-lago.wav,./stim/wavs/argentine_mismatch_interrogative-total-yn_Mi-novio-viene-del-lago.wav,./stim/wavs/castilian_mismatch_interrogative-total-yn_Mi-novio-viene-del-lago.wav,./stim/wavs/chilean_mismatch_interrogative-total-yn_Mi-novio-viene-del-lago.wav,./stim/wavs/cuban_mismatch_interrogative-total-yn_Mi-novio-viene-del-lago.wav,./stim/wavs/mexican_mismatch_interrogative-total-yn_Mi-novio-viene-del-lago.wav,./stim/wavs/peruvian_mismatch_interrogative-total-yn_Mi-novio-viene-del-lago.wav,./stim/wavs/puertorican_mismatch_interrogative-total-yn_Mi-novio-viene-del-lago.wav,,,,,,,,,,,,,,,,,,,,,,,,,,,,,,,,,,,,,,,,,,,,,,,,,,,,,,,,
,,,,,,,5dcc5f2545b8f98fd44ab4d7,60568611ec04488a9e9da93b,6056abc2e2c53d9f363d68b0,United States,Northeast,13 or older,no,2021-03-20_22h13.56.480,empathy_intonation_perc,2020.2.10,MacIntel,60,,,,,,,,,,0,andalusian,1,0,1.90653,0,46,46,42,1,43,./stim/wavs/andalusian_mismatch_declarative-narrow-focus_El-nino-oye-el-rio.wav,./stim/wavs/argentine_mismatch_declarative-narrow-focus_El-nino-oye-el-rio.wav,./stim/wavs/castilian_mismatch_declarative-narrow-focus_El-nino-oye-el-rio.wav,./stim/wavs/chilean_mismatch_declarative-narrow-focus_El-nino-oye-el-rio.wav,./stim/wavs/cuban_mismatch_declarative-narrow-focus_El-nino-oye-el-rio.wav,./stim/wavs/mexican_mismatch_declarative-narrow-focus_El-nino-oye-el-rio.wav,./stim/wavs/peruvian_mismatch_declarative-narrow-focus_El-nino-oye-el-rio.wav,./stim/wavs/puertorican_mismatch_declarative-narrow-focus_El-nino-oye-el-rio.wav,,,,,,,,,,,,,,,,,,,,,,,,,,,,,,,,,,,,,,,,,,,,,,,,,,,,,,,,
,,,,,,,5dcc5f2545b8f98fd44ab4d7,60568611ec04488a9e9da93b,6056abc2e2c53d9f363d68b0,United States,Northeast,13 or older,no,2021-03-20_22h13.56.480,empathy_intonation_perc,2020.2.10,MacIntel,60,,,,,,,,,,1,mexican,1,1,1.87027,0,47,47,22,1,23,./stim/wavs/andalusian_match_interrogative-partial-wh_Por-que-hablaba-del-agua.wav,./stim/wavs/argentine_match_interrogative-partial-wh_Por-que-hablaba-del-agua.wav,./stim/wavs/castilian_match_interrogative-partial-wh_Por-que-hablaba-del-agua.wav,./stim/wavs/chilean_match_interrogative-partial-wh_Por-que-hablaba-del-agua.wav,./stim/wavs/cuban_match_interrogative-partial-wh_Por-que-hablaba-del-agua.wav,./stim/wavs/mexican_match_interrogative-partial-wh_Por-que-hablaba-del-agua.wav,./stim/wavs/peruvian_match_interrogative-partial-wh_Por-que-hablaba-del-agua.wav,./stim/wavs/puertorican_match_interrogative-partial-wh_Por-que-hablaba-del-agua.wav,,,,,,,,,,,,,,,,,,,,,,,,,,,,,,,,,,,,,,,,,,,,,,,,,,,,,,,,
,,,,,,,5dcc5f2545b8f98fd44ab4d7,60568611ec04488a9e9da93b,6056abc2e2c53d9f363d68b0,United States,Northeast,13 or older,no,2021-03-20_22h13.56.480,empathy_intonation_perc,2020.2.10,MacIntel,60,,,,,,,,,,0,mexican,0,1,1.53608,0,48,48,8,1,9,./stim/wavs/andalusian_match_declarative-narrow-focus_Ana-lleva-el-abrigo.wav,./stim/wavs/argentine_match_declarative-narrow-focus_Ana-lleva-el-abrigo.wav,./stim/wavs/castilian_match_declarative-narrow-focus_Ana-lleva-el-abrigo.wav,./stim/wavs/chilean_match_declarative-narrow-focus_Ana-lleva-el-abrigo.wav,./stim/wavs/cuban_match_declarative-narrow-focus_Ana-lleva-el-abrigo.wav,./stim/wavs/mexican_match_declarative-narrow-focus_Ana-lleva-el-abrigo.wav,./stim/wavs/peruvian_match_declarative-narrow-focus_Ana-lleva-el-abrigo.wav,./stim/wavs/puertorican_match_declarative-narrow-focus_Ana-lleva-el-abrigo.wav,,,,,,,,,,,,,,,,,,,,,,,,,,,,,,,,,,,,,,,,,,,,,,,,,,,,,,,,
,,,,,,,5dcc5f2545b8f98fd44ab4d7,60568611ec04488a9e9da93b,6056abc2e2c53d9f363d68b0,United States,Northeast,13 or older,no,2021-03-20_22h13.56.480,empathy_intonation_perc,2020.2.10,MacIntel,60,,,,,,,,,,0,chilean,0,1,2.019725,0,49,49,38,1,39,./stim/wavs/andalusian_mismatch_declarative-broad-focus_Mi-novio-viene-del-lago.wav,./stim/wavs/argentine_mismatch_declarative-broad-focus_Mi-novio-viene-del-lago.wav,./stim/wavs/castilian_mismatch_declarative-broad-focus_Mi-novio-viene-del-lago.wav,./stim/wavs/chilean_mismatch_declarative-broad-focus_Mi-novio-viene-del-lago.wav,./stim/wavs/cuban_mismatch_declarative-broad-focus_Mi-novio-viene-del-lago.wav,./stim/wavs/mexican_mismatch_declarative-broad-focus_Mi-novio-viene-del-lago.wav,./stim/wavs/peruvian_mismatch_declarative-broad-focus_Mi-novio-viene-del-lago.wav,./stim/wavs/puertorican_mismatch_declarative-broad-focus_Mi-novio-viene-del-lago.wav,,,,,,,,,,,,,,,,,,,,,,,,,,,,,,,,,,,,,,,,,,,,,,,,,,,,,,,,
,,,,,,,5dcc5f2545b8f98fd44ab4d7,60568611ec04488a9e9da93b,6056abc2e2c53d9f363d68b0,United States,Northeast,13 or older,no,2021-03-20_22h13.56.480,empathy_intonation_perc,2020.2.10,MacIntel,60,,,,,,,,,,1,castilian,1,1,1.78773,0,50,50,18,1,19,./stim/wavs/andalusian_match_interrogative-partial-wh_Cuando-lleva-el-abrigo.wav,./stim/wavs/argentine_match_interrogative-partial-wh_Cuando-lleva-el-abrigo.wav,./stim/wavs/castilian_match_interrogative-partial-wh_Cuando-lleva-el-abrigo.wav,./stim/wavs/chilean_match_interrogative-partial-wh_Cuando-lleva-el-abrigo.wav,./stim/wavs/cuban_match_interrogative-partial-wh_Cuando-lleva-el-abrigo.wav,./stim/wavs/mexican_match_interrogative-partial-wh_Cuando-lleva-el-abrigo.wav,./stim/wavs/peruvian_match_interrogative-partial-wh_Cuando-lleva-el-abrigo.wav,./stim/wavs/puertorican_match_interrogative-partial-wh_Cuando-lleva-el-abrigo.wav,,,,,,,,,,,,,,,,,,,,,,,,,,,,,,,,,,,,,,,,,,,,,,,,,,,,,,,,
,,,,,,,5dcc5f2545b8f98fd44ab4d7,60568611ec04488a9e9da93b,6056abc2e2c53d9f363d68b0,United States,Northeast,13 or older,no,2021-03-20_22h13.56.480,empathy_intonation_perc,2020.2.10,MacIntel,60,,,,,,,,,,1,mexican,1,1,1.7541,0,51,51,56,1,57,./stim/wavs/andalusian_mismatch_interrogative-total-yn_El-bebe-comia-muy-bien.wav,./stim/wavs/argentine_mismatch_interrogative-total-yn_El-bebe-comia-muy-bien.wav,./stim/wavs/castilian_mismatch_interrogative-total-yn_El-bebe-comia-muy-bien.wav,./stim/wavs/chilean_mismatch_interrogative-total-yn_El-bebe-comia-muy-bien.wav,./stim/wavs/cuban_mismatch_interrogative-total-yn_El-bebe-comia-muy-bien.wav,./stim/wavs/mexican_mismatch_interrogative-total-yn_El-bebe-comia-muy-bien.wav,./stim/wavs/peruvian_mismatch_interrogative-total-yn_El-bebe-comia-muy-bien.wav,./stim/wavs/puertorican_mismatch_interrogative-total-yn_El-bebe-comia-muy-bien.wav,,,,,,,,,,,,,,,,,,,,,,,,,,,,,,,,,,,,,,,,,,,,,,,,,,,,,,,,
,,,,,,,5dcc5f2545b8f98fd44ab4d7,60568611ec04488a9e9da93b,6056abc2e2c53d9f363d68b0,United States,Northeast,13 or older,no,2021-03-20_22h13.56.480,empathy_intonation_perc,2020.2.10,MacIntel,60,,,,,,,,,,1,chilean,1,1,1.62173,0,52,52,57,1,58,./stim/wavs/andalusian_mismatch_interrogative-total-yn_El-hombre-mira-la-luna.wav,./stim/wavs/argentine_mismatch_interrogative-total-yn_El-hombre-mira-la-luna.wav,./stim/wavs/castilian_mismatch_interrogative-total-yn_El-hombre-mira-la-luna.wav,./stim/wavs/chilean_mismatch_interrogative-total-yn_El-hombre-mira-la-luna.wav,./stim/wavs/cuban_mismatch_interrogative-total-yn_El-hombre-mira-la-luna.wav,./stim/wavs/mexican_mismatch_interrogative-total-yn_El-hombre-mira-la-luna.wav,./stim/wavs/peruvian_mismatch_interrogative-total-yn_El-hombre-mira-la-luna.wav,./stim/wavs/puertorican_mismatch_interrogative-total-yn_El-hombre-mira-la-luna.wav,,,,,,,,,,,,,,,,,,,,,,,,,,,,,,,,,,,,,,,,,,,,,,,,,,,,,,,,
,,,,,,,5dcc5f2545b8f98fd44ab4d7,60568611ec04488a9e9da93b,6056abc2e2c53d9f363d68b0,United States,Northeast,13 or older,no,2021-03-20_22h13.56.480,empathy_intonation_perc,2020.2.10,MacIntel,60,,,,,,,,,,0,andalusian,0,1,1.969175,0,53,53,7,1,8,./stim/wavs/andalusian_match_declarative-broad-focus_Marta-abre-el-regalo.wav,./stim/wavs/argentine_match_declarative-broad-focus_Marta-abre-el-regalo.wav,./stim/wavs/castilian_match_declarative-broad-focus_Marta-abre-el-regalo.wav,./stim/wavs/chilean_match_declarative-broad-focus_Marta-abre-el-regalo.wav,./stim/wavs/cuban_match_declarative-broad-focus_Marta-abre-el-regalo.wav,./stim/wavs/mexican_match_declarative-broad-focus_Marta-abre-el-regalo.wav,./stim/wavs/peruvian_match_declarative-broad-focus_Marta-abre-el-regalo.wav,./stim/wavs/puertorican_match_declarative-broad-focus_Marta-abre-el-regalo.wav,,,,,,,,,,,,,,,,,,,,,,,,,,,,,,,,,,,,,,,,,,,,,,,,,,,,,,,,
,,,,,,,5dcc5f2545b8f98fd44ab4d7,60568611ec04488a9e9da93b,6056abc2e2c53d9f363d68b0,United States,Northeast,13 or older,no,2021-03-20_22h13.56.480,empathy_intonation_perc,2020.2.10,MacIntel,60,,,,,,,,,,1,castilian,1,1,1.90373,0,54,54,52,1,53,./stim/wavs/andalusian_mismatch_interrogative-partial-wh_Por-que-odiaba-la-lluvia.wav,./stim/wavs/argentine_mismatch_interrogative-partial-wh_Por-que-odiaba-la-lluvia.wav,./stim/wavs/castilian_mismatch_interrogative-partial-wh_Por-que-odiaba-la-lluvia.wav,./stim/wavs/chilean_mismatch_interrogative-partial-wh_Por-que-odiaba-la-lluvia.wav,./stim/wavs/cuban_mismatch_interrogative-partial-wh_Por-que-odiaba-la-lluvia.wav,./stim/wavs/mexican_mismatch_interrogative-partial-wh_Por-que-odiaba-la-lluvia.wav,./stim/wavs/peruvian_mismatch_interrogative-partial-wh_Por-que-odiaba-la-lluvia.wav,./stim/wavs/puertorican_mismatch_interrogative-partial-wh_Por-que-odiaba-la-lluvia.wav,,,,,,,,,,,,,,,,,,,,,,,,,,,,,,,,,,,,,,,,,,,,,,,,,,,,,,,,
,,,,,,,5dcc5f2545b8f98fd44ab4d7,60568611ec04488a9e9da93b,6056abc2e2c53d9f363d68b0,United States,Northeast,13 or older,no,2021-03-20_22h13.56.480,empathy_intonation_perc,2020.2.10,MacIntel,60,,,,,,,,,,0,puertorican,0,1,1.818845,0,55,55,33,1,34,./stim/wavs/andalusian_mismatch_declarative-broad-focus_El-hombre-mira-la-luna.wav,./stim/wavs/argentine_mismatch_declarative-broad-focus_El-hombre-mira-la-luna.wav,./stim/wavs/castilian_mismatch_declarative-broad-focus_El-hombre-mira-la-luna.wav,./stim/wavs/chilean_mismatch_declarative-broad-focus_El-hombre-mira-la-luna.wav,./stim/wavs/cuban_mismatch_declarative-broad-focus_El-hombre-mira-la-luna.wav,./stim/wavs/mexican_mismatch_declarative-broad-focus_El-hombre-mira-la-luna.wav,./stim/wavs/peruvian_mismatch_declarative-broad-focus_El-hombre-mira-la-luna.wav,./stim/wavs/puertorican_mismatch_declarative-broad-focus_El-hombre-mira-la-luna.wav,,,,,,,,,,,,,,,,,,,,,,,,,,,,,,,,,,,,,,,,,,,,,,,,,,,,,,,,
,,,,,,,5dcc5f2545b8f98fd44ab4d7,60568611ec04488a9e9da93b,6056abc2e2c53d9f363d68b0,United States,Northeast,13 or older,no,2021-03-20_22h13.56.480,empathy_intonation_perc,2020.2.10,MacIntel,60,,,,,,,,,,1,castilian,1,1,1.80331,0,56,56,53,1,54,./stim/wavs/andalusian_mismatch_interrogative-partial-wh_Por-que-oia-el-rio.wav,./stim/wavs/argentine_mismatch_interrogative-partial-wh_Por-que-oia-el-rio.wav,./stim/wavs/castilian_mismatch_interrogative-partial-wh_Por-que-oia-el-rio.wav,./stim/wavs/chilean_mismatch_interrogative-partial-wh_Por-que-oia-el-rio.wav,./stim/wavs/cuban_mismatch_interrogative-partial-wh_Por-que-oia-el-rio.wav,./stim/wavs/mexican_mismatch_interrogative-partial-wh_Por-que-oia-el-rio.wav,./stim/wavs/peruvian_mismatch_interrogative-partial-wh_Por-que-oia-el-rio.wav,./stim/wavs/puertorican_mismatch_interrogative-partial-wh_Por-que-oia-el-rio.wav,,,,,,,,,,,,,,,,,,,,,,,,,,,,,,,,,,,,,,,,,,,,,,,,,,,,,,,,
,,,,,,,5dcc5f2545b8f98fd44ab4d7,60568611ec04488a9e9da93b,6056abc2e2c53d9f363d68b0,United States,Northeast,13 or older,no,2021-03-20_22h13.56.480,empathy_intonation_perc,2020.2.10,MacIntel,60,,,,,,,,,,1,argentine,0,0,1.58577,0,57,57,55,1,56,./stim/wavs/andalusian_mismatch_interrogative-partial-wh_Por-que-vivia-en-Paris.wav,./stim/wavs/argentine_mismatch_interrogative-partial-wh_Por-que-vivia-en-Paris.wav,./stim/wavs/castilian_mismatch_interrogative-partial-wh_Por-que-vivia-en-Paris.wav,./stim/wavs/chilean_mismatch_interrogative-partial-wh_Por-que-vivia-en-Paris.wav,./stim/wavs/cuban_mismatch_interrogative-partial-wh_Por-que-vivia-en-Paris.wav,./stim/wavs/mexican_mismatch_interrogative-partial-wh_Por-que-vivia-en-Paris.wav,./stim/wavs/peruvian_mismatch_interrogative-partial-wh_Por-que-vivia-en-Paris.wav,./stim/wavs/puertorican_mismatch_interrogative-partial-wh_Por-que-vivia-en-Paris.wav,,,,,,,,,,,,,,,,,,,,,,,,,,,,,,,,,,,,,,,,,,,,,,,,,,,,,,,,
,,,,,,,5dcc5f2545b8f98fd44ab4d7,60568611ec04488a9e9da93b,6056abc2e2c53d9f363d68b0,United States,Northeast,13 or older,no,2021-03-20_22h13.56.480,empathy_intonation_perc,2020.2.10,MacIntel,60,,,,,,,,,,1,puertorican,0,0,2.41916,0,58,58,50,1,51,./stim/wavs/andalusian_mismatch_interrogative-partial-wh_Cuando-miraba-la-luna.wav,./stim/wavs/argentine_mismatch_interrogative-partial-wh_Cuando-miraba-la-luna.wav,./stim/wavs/castilian_mismatch_interrogative-partial-wh_Cuando-miraba-la-luna.wav,./stim/wavs/chilean_mismatch_interrogative-partial-wh_Cuando-miraba-la-luna.wav,./stim/wavs/cuban_mismatch_interrogative-partial-wh_Cuando-miraba-la-luna.wav,./stim/wavs/mexican_mismatch_interrogative-partial-wh_Cuando-miraba-la-luna.wav,./stim/wavs/peruvian_mismatch_interrogative-partial-wh_Cuando-miraba-la-luna.wav,./stim/wavs/puertorican_mismatch_interrogative-partial-wh_Cuando-miraba-la-luna.wav,,,,,,,,,,,,,,,,,,,,,,,,,,,,,,,,,,,,,,,,,,,,,,,,,,,,,,,,
,,,,,,,5dcc5f2545b8f98fd44ab4d7,60568611ec04488a9e9da93b,6056abc2e2c53d9f363d68b0,United States,Northeast,13 or older,no,2021-03-20_22h13.56.480,empathy_intonation_perc,2020.2.10,MacIntel,60,,,,,,,,,,0,castilian,0,1,2.63485,0,59,59,6,1,7,./stim/wavs/andalusian_match_declarative-broad-focus_Mariano-habla-del-tiempo.wav,./stim/wavs/argentine_match_declarative-broad-focus_Mariano-habla-del-tiempo.wav,./stim/wavs/castilian_match_declarative-broad-focus_Mariano-habla-del-tiempo.wav,./stim/wavs/chilean_match_declarative-broad-focus_Mariano-habla-del-tiempo.wav,./stim/wavs/cuban_match_declarative-broad-focus_Mariano-habla-del-tiempo.wav,./stim/wavs/mexican_match_declarative-broad-focus_Mariano-habla-del-tiempo.wav,./stim/wavs/peruvian_match_declarative-broad-focus_Mariano-habla-del-tiempo.wav,./stim/wavs/puertorican_match_declarative-broad-focus_Mariano-habla-del-tiempo.wav,,,,,,,,,,,,,,,,,,,,,,,,,,,,,,,,,,,,,,,,,,,,,,,,,,,,,,,,
,,,,,,,5dcc5f2545b8f98fd44ab4d7,60568611ec04488a9e9da93b,6056abc2e2c53d9f363d68b0,United States,Northeast,13 or older,no,2021-03-20_22h13.56.480,empathy_intonation_perc,2020.2.10,MacIntel,60,,,,,,,,,,0,castilian,0,1,2.00398,0,60,60,34,1,35,./stim/wavs/andalusian_mismatch_declarative-broad-focus_El-nino-oye-el-rio.wav,./stim/wavs/argentine_mismatch_declarative-broad-focus_El-nino-oye-el-rio.wav,./stim/wavs/castilian_mismatch_declarative-broad-focus_El-nino-oye-el-rio.wav,./stim/wavs/chilean_mismatch_declarative-broad-focus_El-nino-oye-el-rio.wav,./stim/wavs/cuban_mismatch_declarative-broad-focus_El-nino-oye-el-rio.wav,./stim/wavs/mexican_mismatch_declarative-broad-focus_El-nino-oye-el-rio.wav,./stim/wavs/peruvian_mismatch_declarative-broad-focus_El-nino-oye-el-rio.wav,./stim/wavs/puertorican_mismatch_declarative-broad-focus_El-nino-oye-el-rio.wav,,,,,,,,,,,,,,,,,,,,,,,,,,,,,,,,,,,,,,,,,,,,,,,,,,,,,,,,
,,,,,,,5dcc5f2545b8f98fd44ab4d7,60568611ec04488a9e9da93b,6056abc2e2c53d9f363d68b0,United States,Northeast,13 or older,no,2021-03-20_22h13.56.480,empathy_intonation_perc,2020.2.10,MacIntel,60,,,,,,,,,,0,andalusian,0,1,1.902265,0,61,61,47,1,48,./stim/wavs/andalusian_mismatch_declarative-narrow-focus_Mi-tia-odia-la-lluvia.wav,./stim/wavs/argentine_mismatch_declarative-narrow-focus_Mi-tia-odia-la-lluvia.wav,./stim/wavs/castilian_mismatch_declarative-narrow-focus_Mi-tia-odia-la-lluvia.wav,./stim/wavs/chilean_mismatch_declarative-narrow-focus_Mi-tia-odia-la-lluvia.wav,./stim/wavs/cuban_mismatch_declarative-narrow-focus_Mi-tia-odia-la-lluvia.wav,./stim/wavs/mexican_mismatch_declarative-narrow-focus_Mi-tia-odia-la-lluvia.wav,./stim/wavs/peruvian_mismatch_declarative-narrow-focus_Mi-tia-odia-la-lluvia.wav,./stim/wavs/puertorican_mismatch_declarative-narrow-focus_Mi-tia-odia-la-lluvia.wav,,,,,,,,,,,,,,,,,,,,,,,,,,,,,,,,,,,,,,,,,,,,,,,,,,,,,,,,
,,,,,,,5dcc5f2545b8f98fd44ab4d7,60568611ec04488a9e9da93b,6056abc2e2c53d9f363d68b0,United States,Northeast,13 or older,no,2021-03-20_22h13.56.480,empathy_intonation_perc,2020.2.10,MacIntel,60,,,,,,,,,,1,peruvian,1,1,2.27006,0,62,62,59,1,60,./stim/wavs/andalusian_mismatch_interrogative-total-yn_La-maestra-vive-en-Paris.wav,./stim/wavs/argentine_mismatch_interrogative-total-yn_La-maestra-vive-en-Paris.wav,./stim/wavs/castilian_mismatch_interrogative-total-yn_La-maestra-vive-en-Paris.wav,./stim/wavs/chilean_mismatch_interrogative-total-yn_La-maestra-vive-en-Paris.wav,./stim/wavs/cuban_mismatch_interrogative-total-yn_La-maestra-vive-en-Paris.wav,./stim/wavs/mexican_mismatch_interrogative-total-yn_La-maestra-vive-en-Paris.wav,./stim/wavs/peruvian_mismatch_interrogative-total-yn_La-maestra-vive-en-Paris.wav,./stim/wavs/puertorican_mismatch_interrogative-total-yn_La-maestra-vive-en-Paris.wav,,,,,,,,,,,,,,,,,,,,,,,,,,,,,,,,,,,,,,,,,,,,,,,,,,,,,,,,
,,,,,,,5dcc5f2545b8f98fd44ab4d7,60568611ec04488a9e9da93b,6056abc2e2c53d9f363d68b0,United States,Northeast,13 or older,no,2021-03-20_22h13.56.480,empathy_intonation_perc,2020.2.10,MacIntel,60,,,,,,,,,,1,andalusian,0,0,1.784225,0,63,63,54,1,55,./stim/wavs/andalusian_mismatch_interrogative-partial-wh_Por-que-venia-del-lago.wav,./stim/wavs/argentine_mismatch_interrogative-partial-wh_Por-que-venia-del-lago.wav,./stim/wavs/castilian_mismatch_interrogative-partial-wh_Por-que-venia-del-lago.wav,./stim/wavs/chilean_mismatch_interrogative-partial-wh_Por-que-venia-del-lago.wav,./stim/wavs/cuban_mismatch_interrogative-partial-wh_Por-que-venia-del-lago.wav,./stim/wavs/mexican_mismatch_interrogative-partial-wh_Por-que-venia-del-lago.wav,./stim/wavs/peruvian_mismatch_interrogative-partial-wh_Por-que-venia-del-lago.wav,./stim/wavs/puertorican_mismatch_interrogative-partial-wh_Por-que-venia-del-lago.wav,,,,,,,,,,,,,,,,,,,,,,,,,,,,,,,,,,,,,,,,,,,,,,,,,,,,,,,,
,,,,,,,5dcc5f2545b8f98fd44ab4d7,60568611ec04488a9e9da93b,6056abc2e2c53d9f363d68b0,United States,Northeast,13 or older,no,2021-03-20_22h13.56.480,empathy_intonation_perc,2020.2.10,MacIntel,60,,,,,,,,,,,,,,,,,,,,,,,,,,,,,h,1,4.765405,0,0,0,0,1,,,,,,,,,,,,,,,,,,,,,,,,,,,,,,,,,,,,,,,,,,,,,,,,
,,,,,"Great! Now we will move on. The next task consists of about 60 trials, in each of which you will see a string of letters. 
  
  Your task is to decide whether this is a real Spanish word or not.",(press the spacebar to continue),5dcc5f2545b8f98fd44ab4d7,60568611ec04488a9e9da93b,6056abc2e2c53d9f363d68b0,United States,Northeast,13 or older,no,2021-03-20_22h13.56.480,empathy_intonation_perc,2020.2.10,MacIntel,60,,,,,,,,,,,,,,,,,,,,,,,,,,,,,,,,,,,,,0,0,0,0,1,,,,,,,,,,,,,,,,,,,,,,,,,,,,,,,,,,,,,,,,,,,
,,,,,"If you think it is an existing Spanish word, you type '1' (for 'REAL'), and if you think it is not an existing Spanish word, you type '0' (for 'FAKE').",(press the spacebar to continue),5dcc5f2545b8f98fd44ab4d7,60568611ec04488a9e9da93b,6056abc2e2c53d9f363d68b0,United States,Northeast,13 or older,no,2021-03-20_22h13.56.480,empathy_intonation_perc,2020.2.10,MacIntel,60,,,,,,,,,,,,,,,,,,,,,,,,,,,,,,,,,,,,,0,1,1,1,1,,,,,,,,,,,,,,,,,,,,,,,,,,,,,,,,,,,,,,,,,,,
,,,,,"If you are sure that the word exists, even though you dont know its exact meaning, you may still respond '1' (REAL). 
  
  But if you are not sure if it is an existing word, you should respond '0' (FAKE).
  
  Let's do a practice round...",(press the spacebar to continue),5dcc5f2545b8f98fd44ab4d7,60568611ec04488a9e9da93b,6056abc2e2c53d9f363d68b0,United States,Northeast,13 or older,no,2021-03-20_22h13.56.480,empathy_intonation_perc,2020.2.10,MacIntel,60,,,,,,,,,,,,,,,,,,,,,,,,,,,,,,,,,,,,,0,2,2,2,1,,,,,,,,,,,,,,,,,,,,,,,,,,,,,,,,,,,,,,,,,,,
,,,,,,,5dcc5f2545b8f98fd44ab4d7,60568611ec04488a9e9da93b,6056abc2e2c53d9f363d68b0,United States,Northeast,13 or older,no,2021-03-20_22h13.56.480,empathy_intonation_perc,2020.2.10,MacIntel,60,,,,,,,,,,0,,,,,,,,,,,,,,,,,,,,,,,,,,,,,,,,0,1,2.437735,0,0,0,0,1,0,depiste,REAL,FAKE,,,,,,,,,,,,,,,,,,,,,,,,,,,,,,,
,,,,,,,5dcc5f2545b8f98fd44ab4d7,60568611ec04488a9e9da93b,6056abc2e2c53d9f363d68b0,United States,Northeast,13 or older,no,2021-03-20_22h13.56.480,empathy_intonation_perc,2020.2.10,MacIntel,60,,,,,,,,,,1,,,,,,,,,,,,,,,,,,,,,,,,,,,,,,,,1,1,1.014775,0,1,1,1,1,0,s,REAL,FAKE,,,,,,,,,,,,,,,,,,,,,,,,,,,,,,,
,,,,,,,5dcc5f2545b8f98fd44ab4d7,60568611ec04488a9e9da93b,6056abc2e2c53d9f363d68b0,United States,Northeast,13 or older,no,2021-03-20_22h13.56.480,empathy_intonation_perc,2020.2.10,MacIntel,60,,,,,,,,,,0,,,,,,,,,,,,,,,,,,,,,,,,,,,,,,,,1,0,1.200695,0,2,2,2,1,0,con,REAL,FAKE,,,,,,,,,,,,,,,,,,,,,,,,,,,,,,,
,,,,,,,5dcc5f2545b8f98fd44ab4d7,60568611ec04488a9e9da93b,6056abc2e2c53d9f363d68b0,United States,Northeast,13 or older,no,2021-03-20_22h13.56.480,empathy_intonation_perc,2020.2.10,MacIntel,60,,,,,,,,,,0,,,,,,,,,,,,,,,,,,,,,,,,,,,,,,,,0,1,2.13414,0,3,3,3,1,0,calpar,REAL,FAKE,,,,,,,,,,,,,,,,,,,,,,,,,,,,,,,
,,,,,,,5dcc5f2545b8f98fd44ab4d7,60568611ec04488a9e9da93b,6056abc2e2c53d9f363d68b0,United States,Northeast,13 or older,no,2021-03-20_22h13.56.480,empathy_intonation_perc,2020.2.10,MacIntel,60,,,,,,,,,,0,,,,,,,,,,,,,,,,,,,,,,,,,,,,,,,,1,0,1.66737,0,4,4,4,1,0,joten,REAL,FAKE,,,,,,,,,,,,,,,,,,,,,,,,,,,,,,,
,,,,,,,5dcc5f2545b8f98fd44ab4d7,60568611ec04488a9e9da93b,6056abc2e2c53d9f363d68b0,United States,Northeast,13 or older,no,2021-03-20_22h13.56.480,empathy_intonation_perc,2020.2.10,MacIntel,60,,,,,,,,,,1,,,,,,,,,,,,,,,,,,,,,,,,,,,,,,,,1,1,1.483025,0,5,5,5,1,0,sacapuntas,REAL,FAKE,,,,,,,,,,,,,,,,,,,,,,,,,,,,,,,
,,,,,,,5dcc5f2545b8f98fd44ab4d7,60568611ec04488a9e9da93b,6056abc2e2c53d9f363d68b0,United States,Northeast,13 or older,no,2021-03-20_22h13.56.480,empathy_intonation_perc,2020.2.10,MacIntel,60,,,,,,,,,,0,,,,,,,,,,,,,,,,,,,,,,,,,,,,,,,,1,0,1.0307,0,6,6,6,1,0,priba,REAL,FAKE,,,,,,,,,,,,,,,,,,,,,,,,,,,,,,,
,,,,,,,5dcc5f2545b8f98fd44ab4d7,60568611ec04488a9e9da93b,6056abc2e2c53d9f363d68b0,United States,Northeast,13 or older,no,2021-03-20_22h13.56.480,empathy_intonation_perc,2020.2.10,MacIntel,60,,,,,,,,,,0,,,,,,,,,,,,,,,,,,,,,,,,,,,,,,,,1,0,1.24934,0,7,7,7,1,0,pelasula,REAL,FAKE,,,,,,,,,,,,,,,,,,,,,,,,,,,,,,,
,,,,,,,5dcc5f2545b8f98fd44ab4d7,60568611ec04488a9e9da93b,6056abc2e2c53d9f363d68b0,United States,Northeast,13 or older,no,2021-03-20_22h13.56.480,empathy_intonation_perc,2020.2.10,MacIntel,60,,,,,,,,,,1,,,,,,,,,,,,,,,,,,,,,,,,,,,,,,,,1,1,0.751645,0,8,8,8,1,0,bien,REAL,FAKE,,,,,,,,,,,,,,,,,,,,,,,,,,,,,,,
,,,,,,,5dcc5f2545b8f98fd44ab4d7,60568611ec04488a9e9da93b,6056abc2e2c53d9f363d68b0,United States,Northeast,13 or older,no,2021-03-20_22h13.56.480,empathy_intonation_perc,2020.2.10,MacIntel,60,,,,,,,,,,1,,,,,,,,,,,,,,,,,,,,,,,,,,,,,,,,1,1,0.902155,0,9,9,9,1,0,casa,REAL,FAKE,,,,,,,,,,,,,,,,,,,,,,,,,,,,,,,
,,,,,,,5dcc5f2545b8f98fd44ab4d7,60568611ec04488a9e9da93b,6056abc2e2c53d9f363d68b0,United States,Northeast,13 or older,no,2021-03-20_22h13.56.480,empathy_intonation_perc,2020.2.10,MacIntel,60,,,,,,,,,,0,,,,,,,,,,,,,,,,,,,,,,,,,,,,,,,,1,0,0.956715,0,10,10,10,1,0,lejo,REAL,FAKE,,,,,,,,,,,,,,,,,,,,,,,,,,,,,,,
,,,,,,,5dcc5f2545b8f98fd44ab4d7,60568611ec04488a9e9da93b,6056abc2e2c53d9f363d68b0,United States,Northeast,13 or older,no,2021-03-20_22h13.56.480,empathy_intonation_perc,2020.2.10,MacIntel,60,,,,,,,,,,0,,,,,,,,,,,,,,,,,,,,,,,,,,,,,,,,1,0,1.14957,0,11,11,11,1,0,pretantas,REAL,FAKE,,,,,,,,,,,,,,,,,,,,,,,,,,,,,,,
,,,,,,,5dcc5f2545b8f98fd44ab4d7,60568611ec04488a9e9da93b,6056abc2e2c53d9f363d68b0,United States,Northeast,13 or older,no,2021-03-20_22h13.56.480,empathy_intonation_perc,2020.2.10,MacIntel,60,,,,,,,,,,1,,,,,,,,,,,,,,,,,,,,,,,,,,,,,,,,,,,,,,,,78,frondoso,,,0,0,1.332205,0,0,0,77,1,REAL,FAKE,,,,,,,,,,,,,,,,,,,,,
,,,,,,,5dcc5f2545b8f98fd44ab4d7,60568611ec04488a9e9da93b,6056abc2e2c53d9f363d68b0,United States,Northeast,13 or older,no,2021-03-20_22h13.56.480,empathy_intonation_perc,2020.2.10,MacIntel,60,,,,,,,,,,0,,,,,,,,,,,,,,,,,,,,,,,,,,,,,,,,,,,,,,,,32,fatacidad,,,1,0,1.25813,0,1,1,31,1,REAL,FAKE,,,,,,,,,,,,,,,,,,,,,
,,,,,,,5dcc5f2545b8f98fd44ab4d7,60568611ec04488a9e9da93b,6056abc2e2c53d9f363d68b0,United States,Northeast,13 or older,no,2021-03-20_22h13.56.480,empathy_intonation_perc,2020.2.10,MacIntel,60,,,,,,,,,,1,,,,,,,,,,,,,,,,,,,,,,,,,,,,,,,,,,,,,,,,81,pozo,,,0,0,1.470605,0,2,2,80,1,REAL,FAKE,,,,,,,,,,,,,,,,,,,,,
,,,,,,,5dcc5f2545b8f98fd44ab4d7,60568611ec04488a9e9da93b,6056abc2e2c53d9f363d68b0,United States,Northeast,13 or older,no,2021-03-20_22h13.56.480,empathy_intonation_perc,2020.2.10,MacIntel,60,,,,,,,,,,1,,,,,,,,,,,,,,,,,,,,,,,,,,,,,,,,,,,,,,,,28,merodear,,,1,1,1.76486,0,3,3,27,1,REAL,FAKE,,,,,,,,,,,,,,,,,,,,,
,,,,,,,5dcc5f2545b8f98fd44ab4d7,60568611ec04488a9e9da93b,6056abc2e2c53d9f363d68b0,United States,Northeast,13 or older,no,2021-03-20_22h13.56.480,empathy_intonation_perc,2020.2.10,MacIntel,60,,,,,,,,,,1,,,,,,,,,,,,,,,,,,,,,,,,,,,,,,,,,,,,,,,,26,secuestro,,,1,1,1.49792,0,4,4,25,1,REAL,FAKE,,,,,,,,,,,,,,,,,,,,,
,,,,,,,5dcc5f2545b8f98fd44ab4d7,60568611ec04488a9e9da93b,6056abc2e2c53d9f363d68b0,United States,Northeast,13 or older,no,2021-03-20_22h13.56.480,empathy_intonation_perc,2020.2.10,MacIntel,60,,,,,,,,,,1,,,,,,,,,,,,,,,,,,,,,,,,,,,,,,,,,,,,,,,,20,vido,,,1,1,1.59979,0,5,5,19,1,REAL,FAKE,,,,,,,,,,,,,,,,,,,,,
,,,,,,,5dcc5f2545b8f98fd44ab4d7,60568611ec04488a9e9da93b,6056abc2e2c53d9f363d68b0,United States,Northeast,13 or older,no,2021-03-20_22h13.56.480,empathy_intonation_perc,2020.2.10,MacIntel,60,,,,,,,,,,1,,,,,,,,,,,,,,,,,,,,,,,,,,,,,,,,,,,,,,,,67,cabello,,,1,1,1.48459,0,6,6,66,1,REAL,FAKE,,,,,,,,,,,,,,,,,,,,,
,,,,,,,5dcc5f2545b8f98fd44ab4d7,60568611ec04488a9e9da93b,6056abc2e2c53d9f363d68b0,United States,Northeast,13 or older,no,2021-03-20_22h13.56.480,empathy_intonation_perc,2020.2.10,MacIntel,60,,,,,,,,,,0,,,,,,,,,,,,,,,,,,,,,,,,,,,,,,,,,,,,,,,,30,alardio,,,0,1,2.337465,0,7,7,29,1,REAL,FAKE,,,,,,,,,,,,,,,,,,,,,
,,,,,,,5dcc5f2545b8f98fd44ab4d7,60568611ec04488a9e9da93b,6056abc2e2c53d9f363d68b0,United States,Northeast,13 or older,no,2021-03-20_22h13.56.480,empathy_intonation_perc,2020.2.10,MacIntel,60,,,,,,,,,,0,,,,,,,,,,,,,,,,,,,,,,,,,,,,,,,,,,,,,,,,66,hacido,,,1,0,0.851425,0,8,8,65,1,REAL,FAKE,,,,,,,,,,,,,,,,,,,,,
,,,,,,,5dcc5f2545b8f98fd44ab4d7,60568611ec04488a9e9da93b,6056abc2e2c53d9f363d68b0,United States,Northeast,13 or older,no,2021-03-20_22h13.56.480,empathy_intonation_perc,2020.2.10,MacIntel,60,,,,,,,,,,1,,,,,,,,,,,,,,,,,,,,,,,,,,,,,,,,,,,,,,,,44,cuchara,,,1,1,1.199945,0,9,9,43,1,REAL,FAKE,,,,,,,,,,,,,,,,,,,,,
,,,,,,,5dcc5f2545b8f98fd44ab4d7,60568611ec04488a9e9da93b,6056abc2e2c53d9f363d68b0,United States,Northeast,13 or older,no,2021-03-20_22h13.56.480,empathy_intonation_perc,2020.2.10,MacIntel,60,,,,,,,,,,0,,,,,,,,,,,,,,,,,,,,,,,,,,,,,,,,,,,,,,,,82,empirador,,,1,0,1.030905,0,10,10,81,1,REAL,FAKE,,,,,,,,,,,,,,,,,,,,,
,,,,,,,5dcc5f2545b8f98fd44ab4d7,60568611ec04488a9e9da93b,6056abc2e2c53d9f363d68b0,United States,Northeast,13 or older,no,2021-03-20_22h13.56.480,empathy_intonation_perc,2020.2.10,MacIntel,60,,,,,,,,,,0,,,,,,,,,,,,,,,,,,,,,,,,,,,,,,,,,,,,,,,,27,acutacin,,,1,0,1.299745,0,11,11,26,1,REAL,FAKE,,,,,,,,,,,,,,,,,,,,,
,,,,,,,5dcc5f2545b8f98fd44ab4d7,60568611ec04488a9e9da93b,6056abc2e2c53d9f363d68b0,United States,Northeast,13 or older,no,2021-03-20_22h13.56.480,empathy_intonation_perc,2020.2.10,MacIntel,60,,,,,,,,,,1,,,,,,,,,,,,,,,,,,,,,,,,,,,,,,,,,,,,,,,,13,helar,,,1,1,0.71551,0,12,12,12,1,REAL,FAKE,,,,,,,,,,,,,,,,,,,,,
,,,,,,,5dcc5f2545b8f98fd44ab4d7,60568611ec04488a9e9da93b,6056abc2e2c53d9f363d68b0,United States,Northeast,13 or older,no,2021-03-20_22h13.56.480,empathy_intonation_perc,2020.2.10,MacIntel,60,,,,,,,,,,0,,,,,,,,,,,,,,,,,,,,,,,,,,,,,,,,,,,,,,,,74,cintro,,,0,1,0.917195,0,13,13,73,1,REAL,FAKE,,,,,,,,,,,,,,,,,,,,,
,,,,,,,5dcc5f2545b8f98fd44ab4d7,60568611ec04488a9e9da93b,6056abc2e2c53d9f363d68b0,United States,Northeast,13 or older,no,2021-03-20_22h13.56.480,empathy_intonation_perc,2020.2.10,MacIntel,60,,,,,,,,,,0,,,,,,,,,,,,,,,,,,,,,,,,,,,,,,,,,,,,,,,,4,batilln,,,1,0,1.48173,0,14,14,3,1,REAL,FAKE,,,,,,,,,,,,,,,,,,,,,
,,,,,,,5dcc5f2545b8f98fd44ab4d7,60568611ec04488a9e9da93b,6056abc2e2c53d9f363d68b0,United States,Northeast,13 or older,no,2021-03-20_22h13.56.480,empathy_intonation_perc,2020.2.10,MacIntel,60,,,,,,,,,,1,,,,,,,,,,,,,,,,,,,,,,,,,,,,,,,,,,,,,,,,86,barato,,,0,0,1.715415,0,15,15,85,1,REAL,FAKE,,,,,,,,,,,,,,,,,,,,,
,,,,,,,5dcc5f2545b8f98fd44ab4d7,60568611ec04488a9e9da93b,6056abc2e2c53d9f363d68b0,United States,Northeast,13 or older,no,2021-03-20_22h13.56.480,empathy_intonation_perc,2020.2.10,MacIntel,60,,,,,,,,,,1,,,,,,,,,,,,,,,,,,,,,,,,,,,,,,,,,,,,,,,,45,jilguero,,,0,0,1.19938,0,16,16,44,1,REAL,FAKE,,,,,,,,,,,,,,,,,,,,,
,,,,,,,5dcc5f2545b8f98fd44ab4d7,60568611ec04488a9e9da93b,6056abc2e2c53d9f363d68b0,United States,Northeast,13 or older,no,2021-03-20_22h13.56.480,empathy_intonation_perc,2020.2.10,MacIntel,60,,,,,,,,,,1,,,,,,,,,,,,,,,,,,,,,,,,,,,,,,,,,,,,,,,,52,camisa,,,1,1,0.78484,0,17,17,51,1,REAL,FAKE,,,,,,,,,,,,,,,,,,,,,
,,,,,,,5dcc5f2545b8f98fd44ab4d7,60568611ec04488a9e9da93b,6056abc2e2c53d9f363d68b0,United States,Northeast,13 or older,no,2021-03-20_22h13.56.480,empathy_intonation_perc,2020.2.10,MacIntel,60,,,,,,,,,,0,,,,,,,,,,,,,,,,,,,,,,,,,,,,,,,,,,,,,,,,16,abracer,,,1,0,1.41526,0,18,18,15,1,REAL,FAKE,,,,,,,,,,,,,,,,,,,,,
,,,,,,,5dcc5f2545b8f98fd44ab4d7,60568611ec04488a9e9da93b,6056abc2e2c53d9f363d68b0,United States,Northeast,13 or older,no,2021-03-20_22h13.56.480,empathy_intonation_perc,2020.2.10,MacIntel,60,,,,,,,,,,1,,,,,,,,,,,,,,,,,,,,,,,,,,,,,,,,,,,,,,,,24,ltigo,,,0,0,0.897975,0,19,19,23,1,REAL,FAKE,,,,,,,,,,,,,,,,,,,,,
,,,,,,,5dcc5f2545b8f98fd44ab4d7,60568611ec04488a9e9da93b,6056abc2e2c53d9f363d68b0,United States,Northeast,13 or older,no,2021-03-20_22h13.56.480,empathy_intonation_perc,2020.2.10,MacIntel,60,,,,,,,,,,0,,,,,,,,,,,,,,,,,,,,,,,,,,,,,,,,,,,,,,,,29,decar,,,1,0,0.94855,0,20,20,28,1,REAL,FAKE,,,,,,,,,,,,,,,,,,,,,
,,,,,,,5dcc5f2545b8f98fd44ab4d7,60568611ec04488a9e9da93b,6056abc2e2c53d9f363d68b0,United States,Northeast,13 or older,no,2021-03-20_22h13.56.480,empathy_intonation_perc,2020.2.10,MacIntel,60,,,,,,,,,,1,,,,,,,,,,,,,,,,,,,,,,,,,,,,,,,,,,,,,,,,31,pandilla,,,1,1,1.283905,0,21,21,30,1,REAL,FAKE,,,,,,,,,,,,,,,,,,,,,
,,,,,,,5dcc5f2545b8f98fd44ab4d7,60568611ec04488a9e9da93b,6056abc2e2c53d9f363d68b0,United States,Northeast,13 or older,no,2021-03-20_22h13.56.480,empathy_intonation_perc,2020.2.10,MacIntel,60,,,,,,,,,,1,,,,,,,,,,,,,,,,,,,,,,,,,,,,,,,,,,,,,,,,62,flaco,,,1,1,1.50009,0,22,22,61,1,REAL,FAKE,,,,,,,,,,,,,,,,,,,,,
,,,,,,,5dcc5f2545b8f98fd44ab4d7,60568611ec04488a9e9da93b,6056abc2e2c53d9f363d68b0,United States,Northeast,13 or older,no,2021-03-20_22h13.56.480,empathy_intonation_perc,2020.2.10,MacIntel,60,,,,,,,,,,1,,,,,,,,,,,,,,,,,,,,,,,,,,,,,,,,,,,,,,,,57,tacao,,,0,0,1.80233,0,23,23,56,1,REAL,FAKE,,,,,,,,,,,,,,,,,,,,,
,,,,,,,5dcc5f2545b8f98fd44ab4d7,60568611ec04488a9e9da93b,6056abc2e2c53d9f363d68b0,United States,Northeast,13 or older,no,2021-03-20_22h13.56.480,empathy_intonation_perc,2020.2.10,MacIntel,60,,,,,,,,,,1,,,,,,,,,,,,,,,,,,,,,,,,,,,,,,,,,,,,,,,,41,rebuscar,,,1,1,2.30115,0,24,24,40,1,REAL,FAKE,,,,,,,,,,,,,,,,,,,,,
,,,,,,,5dcc5f2545b8f98fd44ab4d7,60568611ec04488a9e9da93b,6056abc2e2c53d9f363d68b0,United States,Northeast,13 or older,no,2021-03-20_22h13.56.480,empathy_intonation_perc,2020.2.10,MacIntel,60,,,,,,,,,,0,,,,,,,,,,,,,,,,,,,,,,,,,,,,,,,,,,,,,,,,1,terzo,,,1,0,1.214735,0,25,25,0,1,REAL,FAKE,,,,,,,,,,,,,,,,,,,,,
,,,,,,,5dcc5f2545b8f98fd44ab4d7,60568611ec04488a9e9da93b,6056abc2e2c53d9f363d68b0,United States,Northeast,13 or older,no,2021-03-20_22h13.56.480,empathy_intonation_perc,2020.2.10,MacIntel,60,,,,,,,,,,0,,,,,,,,,,,,,,,,,,,,,,,,,,,,,,,,,,,,,,,,8,cadea,,,1,0,2.449655,0,26,26,7,1,REAL,FAKE,,,,,,,,,,,,,,,,,,,,,
,,,,,,,5dcc5f2545b8f98fd44ab4d7,60568611ec04488a9e9da93b,6056abc2e2c53d9f363d68b0,United States,Northeast,13 or older,no,2021-03-20_22h13.56.480,empathy_intonation_perc,2020.2.10,MacIntel,60,,,,,,,,,,1,,,,,,,,,,,,,,,,,,,,,,,,,,,,,,,,,,,,,,,,36,loro,,,0,0,1.03117,0,27,27,35,1,REAL,FAKE,,,,,,,,,,,,,,,,,,,,,
,,,,,,,5dcc5f2545b8f98fd44ab4d7,60568611ec04488a9e9da93b,6056abc2e2c53d9f363d68b0,United States,Northeast,13 or older,no,2021-03-20_22h13.56.480,empathy_intonation_perc,2020.2.10,MacIntel,60,,,,,,,,,,1,,,,,,,,,,,,,,,,,,,,,,,,,,,,,,,,,,,,,,,,83,guante,,,0,0,1.59991,0,28,28,82,1,REAL,FAKE,,,,,,,,,,,,,,,,,,,,,
,,,,,,,5dcc5f2545b8f98fd44ab4d7,60568611ec04488a9e9da93b,6056abc2e2c53d9f363d68b0,United States,Northeast,13 or older,no,2021-03-20_22h13.56.480,empathy_intonation_perc,2020.2.10,MacIntel,60,,,,,,,,,,0,,,,,,,,,,,,,,,,,,,,,,,,,,,,,,,,,,,,,,,,17,floroso,,,0,1,1.18248,0,29,29,16,1,REAL,FAKE,,,,,,,,,,,,,,,,,,,,,
,,,,,,,5dcc5f2545b8f98fd44ab4d7,60568611ec04488a9e9da93b,6056abc2e2c53d9f363d68b0,United States,Northeast,13 or older,no,2021-03-20_22h13.56.480,empathy_intonation_perc,2020.2.10,MacIntel,60,,,,,,,,,,1,,,,,,,,,,,,,,,,,,,,,,,,,,,,,,,,,,,,,,,,48,ladrn,,,1,1,1.46638,0,30,30,47,1,REAL,FAKE,,,,,,,,,,,,,,,,,,,,,
,,,,,,,5dcc5f2545b8f98fd44ab4d7,60568611ec04488a9e9da93b,6056abc2e2c53d9f363d68b0,United States,Northeast,13 or older,no,2021-03-20_22h13.56.480,empathy_intonation_perc,2020.2.10,MacIntel,60,,,,,,,,,,1,,,,,,,,,,,,,,,,,,,,,,,,,,,,,,,,,,,,,,,,7,psimo,,,1,1,0.91507,0,31,31,6,1,REAL,FAKE,,,,,,,,,,,,,,,,,,,,,
,,,,,,,5dcc5f2545b8f98fd44ab4d7,60568611ec04488a9e9da93b,6056abc2e2c53d9f363d68b0,United States,Northeast,13 or older,no,2021-03-20_22h13.56.480,empathy_intonation_perc,2020.2.10,MacIntel,60,,,,,,,,,,1,,,,,,,,,,,,,,,,,,,,,,,,,,,,,,,,,,,,,,,,6,tergiversar,,,0,0,1.348745,0,32,32,5,1,REAL,FAKE,,,,,,,,,,,,,,,,,,,,,
,,,,,,,5dcc5f2545b8f98fd44ab4d7,60568611ec04488a9e9da93b,6056abc2e2c53d9f363d68b0,United States,Northeast,13 or older,no,2021-03-20_22h13.56.480,empathy_intonation_perc,2020.2.10,MacIntel,60,,,,,,,,,,0,,,,,,,,,,,,,,,,,,,,,,,,,,,,,,,,,,,,,,,,18,arsa,,,0,1,1.299555,0,33,33,17,1,REAL,FAKE,,,,,,,,,,,,,,,,,,,,,
,,,,,,,5dcc5f2545b8f98fd44ab4d7,60568611ec04488a9e9da93b,6056abc2e2c53d9f363d68b0,United States,Northeast,13 or older,no,2021-03-20_22h13.56.480,empathy_intonation_perc,2020.2.10,MacIntel,60,,,,,,,,,,1,,,,,,,,,,,,,,,,,,,,,,,,,,,,,,,,,,,,,,,,49,ganar,,,1,1,0.748935,0,34,34,48,1,REAL,FAKE,,,,,,,,,,,,,,,,,,,,,
,,,,,,,5dcc5f2545b8f98fd44ab4d7,60568611ec04488a9e9da93b,6056abc2e2c53d9f363d68b0,United States,Northeast,13 or older,no,2021-03-20_22h13.56.480,empathy_intonation_perc,2020.2.10,MacIntel,60,,,,,,,,,,1,,,,,,,,,,,,,,,,,,,,,,,,,,,,,,,,,,,,,,,,2,pellizcar,,,0,0,0.81766,0,35,35,1,1,REAL,FAKE,,,,,,,,,,,,,,,,,,,,,
,,,,,,,5dcc5f2545b8f98fd44ab4d7,60568611ec04488a9e9da93b,6056abc2e2c53d9f363d68b0,United States,Northeast,13 or older,no,2021-03-20_22h13.56.480,empathy_intonation_perc,2020.2.10,MacIntel,60,,,,,,,,,,0,,,,,,,,,,,,,,,,,,,,,,,,,,,,,,,,,,,,,,,,35,rompido,,,1,0,1.50023,0,36,36,34,1,REAL,FAKE,,,,,,,,,,,,,,,,,,,,,
,,,,,,,5dcc5f2545b8f98fd44ab4d7,60568611ec04488a9e9da93b,6056abc2e2c53d9f363d68b0,United States,Northeast,13 or older,no,2021-03-20_22h13.56.480,empathy_intonation_perc,2020.2.10,MacIntel,60,,,,,,,,,,0,,,,,,,,,,,,,,,,,,,,,,,,,,,,,,,,,,,,,,,,87,grodo,,,0,1,0.89912,0,37,37,86,1,REAL,FAKE,,,,,,,,,,,,,,,,,,,,,
,,,,,,,5dcc5f2545b8f98fd44ab4d7,60568611ec04488a9e9da93b,6056abc2e2c53d9f363d68b0,United States,Northeast,13 or older,no,2021-03-20_22h13.56.480,empathy_intonation_perc,2020.2.10,MacIntel,60,,,,,,,,,,0,,,,,,,,,,,,,,,,,,,,,,,,,,,,,,,,,,,,,,,,58,plaudir,,,0,1,0.948765,0,38,38,57,1,REAL,FAKE,,,,,,,,,,,,,,,,,,,,,
,,,,,,,5dcc5f2545b8f98fd44ab4d7,60568611ec04488a9e9da93b,6056abc2e2c53d9f363d68b0,United States,Northeast,13 or older,no,2021-03-20_22h13.56.480,empathy_intonation_perc,2020.2.10,MacIntel,60,,,,,,,,,,1,,,,,,,,,,,,,,,,,,,,,,,,,,,,,,,,,,,,,,,,90,clavel,,,0,0,1.78201,0,39,39,89,1,REAL,FAKE,,,,,,,,,,,,,,,,,,,,,
,,,,,,,5dcc5f2545b8f98fd44ab4d7,60568611ec04488a9e9da93b,6056abc2e2c53d9f363d68b0,United States,Northeast,13 or older,no,2021-03-20_22h13.56.480,empathy_intonation_perc,2020.2.10,MacIntel,60,,,,,,,,,,1,,,,,,,,,,,,,,,,,,,,,,,,,,,,,,,,,,,,,,,,25,bisagra,,,0,0,1.399565,0,40,40,24,1,REAL,FAKE,,,,,,,,,,,,,,,,,,,,,
,,,,,,,5dcc5f2545b8f98fd44ab4d7,60568611ec04488a9e9da93b,6056abc2e2c53d9f363d68b0,United States,Northeast,13 or older,no,2021-03-20_22h13.56.480,empathy_intonation_perc,2020.2.10,MacIntel,60,,,,,,,,,,0,,,,,,,,,,,,,,,,,,,,,,,,,,,,,,,,,,,,,,,,84,escuto,,,0,1,1.206875,0,41,41,83,1,REAL,FAKE,,,,,,,,,,,,,,,,,,,,,
,,,,,,,5dcc5f2545b8f98fd44ab4d7,60568611ec04488a9e9da93b,6056abc2e2c53d9f363d68b0,United States,Northeast,13 or older,no,2021-03-20_22h13.56.480,empathy_intonation_perc,2020.2.10,MacIntel,60,,,,,,,,,,0,,,,,,,,,,,,,,,,,,,,,,,,,,,,,,,,,,,,,,,,63,esposante,,,0,1,2.032865,0,42,42,62,1,REAL,FAKE,,,,,,,,,,,,,,,,,,,,,
,,,,,,,5dcc5f2545b8f98fd44ab4d7,60568611ec04488a9e9da93b,6056abc2e2c53d9f363d68b0,United States,Northeast,13 or older,no,2021-03-20_22h13.56.480,empathy_intonation_perc,2020.2.10,MacIntel,60,,,,,,,,,,1,,,,,,,,,,,,,,,,,,,,,,,,,,,,,,,,,,,,,,,,15,regar,,,1,1,0.89828,0,43,43,14,1,REAL,FAKE,,,,,,,,,,,,,,,,,,,,,
,,,,,,,5dcc5f2545b8f98fd44ab4d7,60568611ec04488a9e9da93b,6056abc2e2c53d9f363d68b0,United States,Northeast,13 or older,no,2021-03-20_22h13.56.480,empathy_intonation_perc,2020.2.10,MacIntel,60,,,,,,,,,,1,,,,,,,,,,,,,,,,,,,,,,,,,,,,,,,,,,,,,,,,11,cenefa,,,0,0,0.867835,0,44,44,10,1,REAL,FAKE,,,,,,,,,,,,,,,,,,,,,
,,,,,,,5dcc5f2545b8f98fd44ab4d7,60568611ec04488a9e9da93b,6056abc2e2c53d9f363d68b0,United States,Northeast,13 or older,no,2021-03-20_22h13.56.480,empathy_intonation_perc,2020.2.10,MacIntel,60,,,,,,,,,,1,,,,,,,,,,,,,,,,,,,,,,,,,,,,,,,,,,,,,,,,75,yacer,,,0,0,1.3012,0,45,45,74,1,REAL,FAKE,,,,,,,,,,,,,,,,,,,,,
,,,,,,,5dcc5f2545b8f98fd44ab4d7,60568611ec04488a9e9da93b,6056abc2e2c53d9f363d68b0,United States,Northeast,13 or older,no,2021-03-20_22h13.56.480,empathy_intonation_perc,2020.2.10,MacIntel,60,,,,,,,,,,1,,,,,,,,,,,,,,,,,,,,,,,,,,,,,,,,,,,,,,,,69,engatusar,,,0,0,1.36698,0,46,46,68,1,REAL,FAKE,,,,,,,,,,,,,,,,,,,,,
,,,,,,,5dcc5f2545b8f98fd44ab4d7,60568611ec04488a9e9da93b,6056abc2e2c53d9f363d68b0,United States,Northeast,13 or older,no,2021-03-20_22h13.56.480,empathy_intonation_perc,2020.2.10,MacIntel,60,,,,,,,,,,1,,,,,,,,,,,,,,,,,,,,,,,,,,,,,,,,,,,,,,,,61,seda,,,0,0,0.78288,0,47,47,60,1,REAL,FAKE,,,,,,,,,,,,,,,,,,,,,
,,,,,,,5dcc5f2545b8f98fd44ab4d7,60568611ec04488a9e9da93b,6056abc2e2c53d9f363d68b0,United States,Northeast,13 or older,no,2021-03-20_22h13.56.480,empathy_intonation_perc,2020.2.10,MacIntel,60,,,,,,,,,,0,,,,,,,,,,,,,,,,,,,,,,,,,,,,,,,,,,,,,,,,53,vegada,,,0,1,0.665065,0,48,48,52,1,REAL,FAKE,,,,,,,,,,,,,,,,,,,,,
,,,,,,,5dcc5f2545b8f98fd44ab4d7,60568611ec04488a9e9da93b,6056abc2e2c53d9f363d68b0,United States,Northeast,13 or older,no,2021-03-20_22h13.56.480,empathy_intonation_perc,2020.2.10,MacIntel,60,,,,,,,,,,0,,,,,,,,,,,,,,,,,,,,,,,,,,,,,,,,,,,,,,,,72,pemicin,,,1,0,2.52006,0,49,49,71,1,REAL,FAKE,,,,,,,,,,,,,,,,,,,,,
,,,,,,,5dcc5f2545b8f98fd44ab4d7,60568611ec04488a9e9da93b,6056abc2e2c53d9f363d68b0,United States,Northeast,13 or older,no,2021-03-20_22h13.56.480,empathy_intonation_perc,2020.2.10,MacIntel,60,,,,,,,,,,0,,,,,,,,,,,,,,,,,,,,,,,,,,,,,,,,,,,,,,,,79,tropaje,,,1,0,1.433685,0,50,50,78,1,REAL,FAKE,,,,,,,,,,,,,,,,,,,,,
,,,,,,,5dcc5f2545b8f98fd44ab4d7,60568611ec04488a9e9da93b,6056abc2e2c53d9f363d68b0,United States,Northeast,13 or older,no,2021-03-20_22h13.56.480,empathy_intonation_perc,2020.2.10,MacIntel,60,,,,,,,,,,1,,,,,,,,,,,,,,,,,,,,,,,,,,,,,,,,,,,,,,,,22,lacayo,,,0,0,0.681245,0,51,51,21,1,REAL,FAKE,,,,,,,,,,,,,,,,,,,,,
,,,,,,,5dcc5f2545b8f98fd44ab4d7,60568611ec04488a9e9da93b,6056abc2e2c53d9f363d68b0,United States,Northeast,13 or older,no,2021-03-20_22h13.56.480,empathy_intonation_perc,2020.2.10,MacIntel,60,,,,,,,,,,1,,,,,,,,,,,,,,,,,,,,,,,,,,,,,,,,,,,,,,,,88,acantilado,,,0,0,1.751945,0,52,52,87,1,REAL,FAKE,,,,,,,,,,,,,,,,,,,,,
,,,,,,,5dcc5f2545b8f98fd44ab4d7,60568611ec04488a9e9da93b,6056abc2e2c53d9f363d68b0,United States,Northeast,13 or older,no,2021-03-20_22h13.56.480,empathy_intonation_perc,2020.2.10,MacIntel,60,,,,,,,,,,1,,,,,,,,,,,,,,,,,,,,,,,,,,,,,,,,,,,,,,,,39,torpe,,,1,1,0.69947,0,53,53,38,1,REAL,FAKE,,,,,,,,,,,,,,,,,,,,,
,,,,,,,5dcc5f2545b8f98fd44ab4d7,60568611ec04488a9e9da93b,6056abc2e2c53d9f363d68b0,United States,Northeast,13 or older,no,2021-03-20_22h13.56.480,empathy_intonation_perc,2020.2.10,MacIntel,60,,,,,,,,,,1,,,,,,,,,,,,,,,,,,,,,,,,,,,,,,,,,,,,,,,,14,yunque,,,0,0,0.63438,0,54,54,13,1,REAL,FAKE,,,,,,,,,,,,,,,,,,,,,
,,,,,,,5dcc5f2545b8f98fd44ab4d7,60568611ec04488a9e9da93b,6056abc2e2c53d9f363d68b0,United States,Northeast,13 or older,no,2021-03-20_22h13.56.480,empathy_intonation_perc,2020.2.10,MacIntel,60,,,,,,,,,,1,,,,,,,,,,,,,,,,,,,,,,,,,,,,,,,,,,,,,,,,76,atar,,,0,0,1.116215,0,55,55,75,1,REAL,FAKE,,,,,,,,,,,,,,,,,,,,,
,,,,,,,5dcc5f2545b8f98fd44ab4d7,60568611ec04488a9e9da93b,6056abc2e2c53d9f363d68b0,United States,Northeast,13 or older,no,2021-03-20_22h13.56.480,empathy_intonation_perc,2020.2.10,MacIntel,60,,,,,,,,,,1,,,,,,,,,,,,,,,,,,,,,,,,,,,,,,,,,,,,,,,,77,tiburn,,,0,0,0.73546,0,56,56,76,1,REAL,FAKE,,,,,,,,,,,,,,,,,,,,,
,,,,,,,5dcc5f2545b8f98fd44ab4d7,60568611ec04488a9e9da93b,6056abc2e2c53d9f363d68b0,United States,Northeast,13 or older,no,2021-03-20_22h13.56.480,empathy_intonation_perc,2020.2.10,MacIntel,60,,,,,,,,,,1,,,,,,,,,,,,,,,,,,,,,,,,,,,,,,,,,,,,,,,,51,candado,,,0,0,1.04941,0,57,57,50,1,REAL,FAKE,,,,,,,,,,,,,,,,,,,,,
,,,,,,,5dcc5f2545b8f98fd44ab4d7,60568611ec04488a9e9da93b,6056abc2e2c53d9f363d68b0,United States,Northeast,13 or older,no,2021-03-20_22h13.56.480,empathy_intonation_perc,2020.2.10,MacIntel,60,,,,,,,,,,1,,,,,,,,,,,,,,,,,,,,,,,,,,,,,,,,,,,,,,,,89,prisa,,,0,0,0.96804,0,58,58,88,1,REAL,FAKE,,,,,,,,,,,,,,,,,,,,,
,,,,,,,5dcc5f2545b8f98fd44ab4d7,60568611ec04488a9e9da93b,6056abc2e2c53d9f363d68b0,United States,Northeast,13 or older,no,2021-03-20_22h13.56.480,empathy_intonation_perc,2020.2.10,MacIntel,60,,,,,,,,,,0,,,,,,,,,,,,,,,,,,,,,,,,,,,,,,,,,,,,,,,,19,brecedad,,,0,1,0.748885,0,59,59,18,1,REAL,FAKE,,,,,,,,,,,,,,,,,,,,,
,,,,,,,5dcc5f2545b8f98fd44ab4d7,60568611ec04488a9e9da93b,6056abc2e2c53d9f363d68b0,United States,Northeast,13 or older,no,2021-03-20_22h13.56.480,empathy_intonation_perc,2020.2.10,MacIntel,60,,,,,,,,,,0,,,,,,,,,,,,,,,,,,,,,,,,,,,,,,,,,,,,,,,,21,capillo,,,0,1,1.150455,0,60,60,20,1,REAL,FAKE,,,,,,,,,,,,,,,,,,,,,
,,,,,,,5dcc5f2545b8f98fd44ab4d7,60568611ec04488a9e9da93b,6056abc2e2c53d9f363d68b0,United States,Northeast,13 or older,no,2021-03-20_22h13.56.480,empathy_intonation_perc,2020.2.10,MacIntel,60,,,,,,,,,,1,,,,,,,,,,,,,,,,,,,,,,,,,,,,,,,,,,,,,,,,38,estornudar,,,0,0,0.982485,0,61,61,37,1,REAL,FAKE,,,,,,,,,,,,,,,,,,,,,
,,,,,,,5dcc5f2545b8f98fd44ab4d7,60568611ec04488a9e9da93b,6056abc2e2c53d9f363d68b0,United States,Northeast,13 or older,no,2021-03-20_22h13.56.480,empathy_intonation_perc,2020.2.10,MacIntel,60,,,,,,,,,,1,,,,,,,,,,,,,,,,,,,,,,,,,,,,,,,,,,,,,,,,54,fomentar,,,0,0,1.39966,0,62,62,53,1,REAL,FAKE,,,,,,,,,,,,,,,,,,,,,
,,,,,,,5dcc5f2545b8f98fd44ab4d7,60568611ec04488a9e9da93b,6056abc2e2c53d9f363d68b0,United States,Northeast,13 or older,no,2021-03-20_22h13.56.480,empathy_intonation_perc,2020.2.10,MacIntel,60,,,,,,,,,,1,,,,,,,,,,,,,,,,,,,,,,,,,,,,,,,,,,,,,,,,34,aviso,,,1,1,1.182585,0,63,63,33,1,REAL,FAKE,,,,,,,,,,,,,,,,,,,,,
,,,,,,,5dcc5f2545b8f98fd44ab4d7,60568611ec04488a9e9da93b,6056abc2e2c53d9f363d68b0,United States,Northeast,13 or older,no,2021-03-20_22h13.56.480,empathy_intonation_perc,2020.2.10,MacIntel,60,,,,,,,,,,1,,,,,,,,,,,,,,,,,,,,,,,,,,,,,,,,,,,,,,,,64,orgulloso,,,1,1,1.381845,0,64,64,63,1,REAL,FAKE,,,,,,,,,,,,,,,,,,,,,
,,,,,,,5dcc5f2545b8f98fd44ab4d7,60568611ec04488a9e9da93b,6056abc2e2c53d9f363d68b0,United States,Northeast,13 or older,no,2021-03-20_22h13.56.480,empathy_intonation_perc,2020.2.10,MacIntel,60,,,,,,,,,,0,,,,,,,,,,,,,,,,,,,,,,,,,,,,,,,,,,,,,,,,10,antar,,,1,0,1.116155,0,65,65,9,1,REAL,FAKE,,,,,,,,,,,,,,,,,,,,,
,,,,,,,5dcc5f2545b8f98fd44ab4d7,60568611ec04488a9e9da93b,6056abc2e2c53d9f363d68b0,United States,Northeast,13 or older,no,2021-03-20_22h13.56.480,empathy_intonation_perc,2020.2.10,MacIntel,60,,,,,,,,,,1,,,,,,,,,,,,,,,,,,,,,,,,,,,,,,,,,,,,,,,,65,bizcocho,,,1,1,1.602355,0,66,66,64,1,REAL,FAKE,,,,,,,,,,,,,,,,,,,,,
,,,,,,,5dcc5f2545b8f98fd44ab4d7,60568611ec04488a9e9da93b,6056abc2e2c53d9f363d68b0,United States,Northeast,13 or older,no,2021-03-20_22h13.56.480,empathy_intonation_perc,2020.2.10,MacIntel,60,,,,,,,,,,1,,,,,,,,,,,,,,,,,,,,,,,,,,,,,,,,,,,,,,,,12,asesinato,,,0,0,3.067875,0,67,67,11,1,REAL,FAKE,,,,,,,,,,,,,,,,,,,,,
,,,,,,,5dcc5f2545b8f98fd44ab4d7,60568611ec04488a9e9da93b,6056abc2e2c53d9f363d68b0,United States,Northeast,13 or older,no,2021-03-20_22h13.56.480,empathy_intonation_perc,2020.2.10,MacIntel,60,,,,,,,,,,1,,,,,,,,,,,,,,,,,,,,,,,,,,,,,,,,,,,,,,,,85,lad,,,0,0,1.31611,0,68,68,84,1,REAL,FAKE,,,,,,,,,,,,,,,,,,,,,
,,,,,,,5dcc5f2545b8f98fd44ab4d7,60568611ec04488a9e9da93b,6056abc2e2c53d9f363d68b0,United States,Northeast,13 or older,no,2021-03-20_22h13.56.480,empathy_intonation_perc,2020.2.10,MacIntel,60,,,,,,,,,,1,,,,,,,,,,,,,,,,,,,,,,,,,,,,,,,,,,,,,,,,60,matar,,,1,1,0.984115,0,69,69,59,1,REAL,FAKE,,,,,,,,,,,,,,,,,,,,,
,,,,,,,5dcc5f2545b8f98fd44ab4d7,60568611ec04488a9e9da93b,6056abc2e2c53d9f363d68b0,United States,Northeast,13 or older,no,2021-03-20_22h13.56.480,empathy_intonation_perc,2020.2.10,MacIntel,60,,,,,,,,,,0,,,,,,,,,,,,,,,,,,,,,,,,,,,,,,,,,,,,,,,,42,cadallo,,,0,1,1.0657,0,70,70,41,1,REAL,FAKE,,,,,,,,,,,,,,,,,,,,,
,,,,,,,5dcc5f2545b8f98fd44ab4d7,60568611ec04488a9e9da93b,6056abc2e2c53d9f363d68b0,United States,Northeast,13 or older,no,2021-03-20_22h13.56.480,empathy_intonation_perc,2020.2.10,MacIntel,60,,,,,,,,,,1,,,,,,,,,,,,,,,,,,,,,,,,,,,,,,,,,,,,,,,,73,hervidor,,,0,0,1.169695,0,71,71,72,1,REAL,FAKE,,,,,,,,,,,,,,,,,,,,,
,,,,,,,5dcc5f2545b8f98fd44ab4d7,60568611ec04488a9e9da93b,6056abc2e2c53d9f363d68b0,United States,Northeast,13 or older,no,2021-03-20_22h13.56.480,empathy_intonation_perc,2020.2.10,MacIntel,60,,,,,,,,,,1,,,,,,,,,,,,,,,,,,,,,,,,,,,,,,,,,,,,,,,,9,hacha,,,1,1,0.802725,0,72,72,8,1,REAL,FAKE,,,,,,,,,,,,,,,,,,,,,
,,,,,,,5dcc5f2545b8f98fd44ab4d7,60568611ec04488a9e9da93b,6056abc2e2c53d9f363d68b0,United States,Northeast,13 or older,no,2021-03-20_22h13.56.480,empathy_intonation_perc,2020.2.10,MacIntel,60,,,,,,,,,,0,,,,,,,,,,,,,,,,,,,,,,,,,,,,,,,,,,,,,,,,47,cartinar,,,0,1,1.26794,0,73,73,46,1,REAL,FAKE,,,,,,,,,,,,,,,,,,,,,
,,,,,,,5dcc5f2545b8f98fd44ab4d7,60568611ec04488a9e9da93b,6056abc2e2c53d9f363d68b0,United States,Northeast,13 or older,no,2021-03-20_22h13.56.480,empathy_intonation_perc,2020.2.10,MacIntel,60,,,,,,,,,,1,,,,,,,,,,,,,,,,,,,,,,,,,,,,,,,,,,,,,,,,3,pulmones,,,1,1,1.965575,0,74,74,2,1,REAL,FAKE,,,,,,,,,,,,,,,,,,,,,
,,,,,,,5dcc5f2545b8f98fd44ab4d7,60568611ec04488a9e9da93b,6056abc2e2c53d9f363d68b0,United States,Northeast,13 or older,no,2021-03-20_22h13.56.480,empathy_intonation_perc,2020.2.10,MacIntel,60,,,,,,,,,,1,,,,,,,,,,,,,,,,,,,,,,,,,,,,,,,,,,,,,,,,5,zapato,,,1,1,0.832655,0,75,75,4,1,REAL,FAKE,,,,,,,,,,,,,,,,,,,,,
,,,,,,,5dcc5f2545b8f98fd44ab4d7,60568611ec04488a9e9da93b,6056abc2e2c53d9f363d68b0,United States,Northeast,13 or older,no,2021-03-20_22h13.56.480,empathy_intonation_perc,2020.2.10,MacIntel,60,,,,,,,,,,0,,,,,,,,,,,,,,,,,,,,,,,,,,,,,,,,,,,,,,,,23,lampera,,,0,1,0.983385,0,76,76,22,1,REAL,FAKE,,,,,,,,,,,,,,,,,,,,,
,,,,,,,5dcc5f2545b8f98fd44ab4d7,60568611ec04488a9e9da93b,6056abc2e2c53d9f363d68b0,United States,Northeast,13 or older,no,2021-03-20_22h13.56.480,empathy_intonation_perc,2020.2.10,MacIntel,60,,,,,,,,,,1,,,,,,,,,,,,,,,,,,,,,,,,,,,,,,,,,,,,,,,,37,granuja,,,0,0,1.667395,0,77,77,36,1,REAL,FAKE,,,,,,,,,,,,,,,,,,,,,
,,,,,,,5dcc5f2545b8f98fd44ab4d7,60568611ec04488a9e9da93b,6056abc2e2c53d9f363d68b0,United States,Northeast,13 or older,no,2021-03-20_22h13.56.480,empathy_intonation_perc,2020.2.10,MacIntel,60,,,,,,,,,,1,,,,,,,,,,,,,,,,,,,,,,,,,,,,,,,,,,,,,,,,46,martillo,,,0,0,0.820205,0,78,78,45,1,REAL,FAKE,,,,,,,,,,,,,,,,,,,,,
,,,,,,,5dcc5f2545b8f98fd44ab4d7,60568611ec04488a9e9da93b,6056abc2e2c53d9f363d68b0,United States,Northeast,13 or older,no,2021-03-20_22h13.56.480,empathy_intonation_perc,2020.2.10,MacIntel,60,,,,,,,,,,1,,,,,,,,,,,,,,,,,,,,,,,,,,,,,,,,,,,,,,,,55,nevar,,,0,0,1.58125,0,79,79,54,1,REAL,FAKE,,,,,,,,,,,,,,,,,,,,,
,,,,,,,5dcc5f2545b8f98fd44ab4d7,60568611ec04488a9e9da93b,6056abc2e2c53d9f363d68b0,United States,Northeast,13 or older,no,2021-03-20_22h13.56.480,empathy_intonation_perc,2020.2.10,MacIntel,60,,,,,,,,,,1,,,,,,,,,,,,,,,,,,,,,,,,,,,,,,,,,,,,,,,,40,alfombra,,,1,1,1.014335,0,80,80,39,1,REAL,FAKE,,,,,,,,,,,,,,,,,,,,,
,,,,,,,5dcc5f2545b8f98fd44ab4d7,60568611ec04488a9e9da93b,6056abc2e2c53d9f363d68b0,United States,Northeast,13 or older,no,2021-03-20_22h13.56.480,empathy_intonation_perc,2020.2.10,MacIntel,60,,,,,,,,,,0,,,,,,,,,,,,,,,,,,,,,,,,,,,,,,,,,,,,,,,,70,temblo,,,0,1,1.11705,0,81,81,69,1,REAL,FAKE,,,,,,,,,,,,,,,,,,,,,
,,,,,,,5dcc5f2545b8f98fd44ab4d7,60568611ec04488a9e9da93b,6056abc2e2c53d9f363d68b0,United States,Northeast,13 or older,no,2021-03-20_22h13.56.480,empathy_intonation_perc,2020.2.10,MacIntel,60,,,,,,,,,,1,,,,,,,,,,,,,,,,,,,,,,,,,,,,,,,,,,,,,,,,71,polvoriento,,,0,0,1.14846,0,82,82,70,1,REAL,FAKE,,,,,,,,,,,,,,,,,,,,,
,,,,,,,5dcc5f2545b8f98fd44ab4d7,60568611ec04488a9e9da93b,6056abc2e2c53d9f363d68b0,United States,Northeast,13 or older,no,2021-03-20_22h13.56.480,empathy_intonation_perc,2020.2.10,MacIntel,60,,,,,,,,,,1,,,,,,,,,,,,,,,,,,,,,,,,,,,,,,,,,,,,,,,,68,alegre,,,1,1,0.84933,0,83,83,67,1,REAL,FAKE,,,,,,,,,,,,,,,,,,,,,
,,,,,,,5dcc5f2545b8f98fd44ab4d7,60568611ec04488a9e9da93b,6056abc2e2c53d9f363d68b0,United States,Northeast,13 or older,no,2021-03-20_22h13.56.480,empathy_intonation_perc,2020.2.10,MacIntel,60,,,,,,,,,,1,,,,,,,,,,,,,,,,,,,,,,,,,,,,,,,,,,,,,,,,59,besar,,,1,1,1.150015,0,84,84,58,1,REAL,FAKE,,,,,,,,,,,,,,,,,,,,,
,,,,,,,5dcc5f2545b8f98fd44ab4d7,60568611ec04488a9e9da93b,6056abc2e2c53d9f363d68b0,United States,Northeast,13 or older,no,2021-03-20_22h13.56.480,empathy_intonation_perc,2020.2.10,MacIntel,60,,,,,,,,,,1,,,,,,,,,,,,,,,,,,,,,,,,,,,,,,,,,,,,,,,,56,musgo,,,0,0,0.870525,0,85,85,55,1,REAL,FAKE,,,,,,,,,,,,,,,,,,,,,
,,,,,,,5dcc5f2545b8f98fd44ab4d7,60568611ec04488a9e9da93b,6056abc2e2c53d9f363d68b0,United States,Northeast,13 or older,no,2021-03-20_22h13.56.480,empathy_intonation_perc,2020.2.10,MacIntel,60,,,,,,,,,,1,,,,,,,,,,,,,,,,,,,,,,,,,,,,,,,,,,,,,,,,43,canela,,,1,1,0.798295,0,86,86,42,1,REAL,FAKE,,,,,,,,,,,,,,,,,,,,,
,,,,,,,5dcc5f2545b8f98fd44ab4d7,60568611ec04488a9e9da93b,6056abc2e2c53d9f363d68b0,United States,Northeast,13 or older,no,2021-03-20_22h13.56.480,empathy_intonation_perc,2020.2.10,MacIntel,60,,,,,,,,,,0,,,,,,,,,,,,,,,,,,,,,,,,,,,,,,,,,,,,,,,,50,flamida,,,1,0,1.285955,0,87,87,49,1,REAL,FAKE,,,,,,,,,,,,,,,,,,,,,
,,,,,,,5dcc5f2545b8f98fd44ab4d7,60568611ec04488a9e9da93b,6056abc2e2c53d9f363d68b0,United States,Northeast,13 or older,no,2021-03-20_22h13.56.480,empathy_intonation_perc,2020.2.10,MacIntel,60,,,,,,,,,,1,,,,,,,,,,,,,,,,,,,,,,,,,,,,,,,,,,,,,,,,80,hormiga,,,0,0,0.831995,0,88,88,79,1,REAL,FAKE,,,,,,,,,,,,,,,,,,,,,
,,,,,,,5dcc5f2545b8f98fd44ab4d7,60568611ec04488a9e9da93b,6056abc2e2c53d9f363d68b0,United States,Northeast,13 or older,no,2021-03-20_22h13.56.480,empathy_intonation_perc,2020.2.10,MacIntel,60,,,,,,,,,,0,,,,,,,,,,,,,,,,,,,,,,,,,,,,,,,,,,,,,,,,33,pauca,,,0,1,0.95137,0,89,89,32,1,REAL,FAKE,,,,,,,,,,,,,,,,,,,,,
,,,,,,,5dcc5f2545b8f98fd44ab4d7,60568611ec04488a9e9da93b,6056abc2e2c53d9f363d68b0,United States,Northeast,13 or older,no,2021-03-20_22h13.56.480,empathy_intonation_perc,2020.2.10,MacIntel,60,,,,,,,,,,,,,,,,,,,,,,,,,,,,,,,,,,,,,,,,,,,,,,,,,,,,,,,,,,,,,,,,4,1,3.314505,1,0,0,0,0,0,1,,,,,,,,,,,
,,,,,,,5dcc5f2545b8f98fd44ab4d7,60568611ec04488a9e9da93b,6056abc2e2c53d9f363d68b0,United States,Northeast,13 or older,no,2021-03-20_22h13.56.480,empathy_intonation_perc,2020.2.10,MacIntel,60,,,,,,,,,,,,,,,,,,,,1,,,,,,,,,,,,,,,,,,,,,,,,,,,,,,,,,,,,,,,,,,,,,,,,,,,,,,5,0,0,0,0,1,I can easily tell if someone else wants to enter a conversation.,1,0,1,0
,,,,,,,5dcc5f2545b8f98fd44ab4d7,60568611ec04488a9e9da93b,6056abc2e2c53d9f363d68b0,United States,Northeast,13 or older,no,2021-03-20_22h13.56.480,empathy_intonation_perc,2020.2.10,MacIntel,60,,,,,,,,,,,,,,,,,,,,2,,,,,,,,,,,,,,,,,,,,,,,,,,,,,,,,,,,,,,,,,,,,,,,,,,,,,,4,0,1,1,1,1,I prefer animals to humans.,0,1,0,0
