instructions_2afc_loop.thisRepN,instructions_2afc_loop.thisTrialN,instructions_2afc_loop.thisN,instructions_2afc_loop.thisIndex,instructions_2afc_loop.ran,instructions_text,continue_text,participant,study_id,session,I am most familiar with Spanish from...*,What part of the US are you from?*,At what age did you begin learning Spanish?*,Are you proficient in any languages other than English/Spanish?*,date,expName,psychopyVersion,OS,frameRate,key_resp_2afc_practice.keys,key_resp_2afc_practice.corr,key_resp_2afc_practice.rt,trials_2afc_practice_loop.thisRepN,trials_2afc_practice_loop.thisTrialN,trials_2afc_practice_loop.thisN,trials_2afc_practice_loop.thisIndex,trials_2afc_practice_loop.ran,path,correct_response,the_col,key_resp_2afc_trial.keys,key_resp_2afc_trial.corr,key_resp_2afc_trial.rt,trials_2afc_loop.thisRepN,trials_2afc_loop.thisTrialN,trials_2afc_loop.thisN,trials_2afc_loop.thisIndex,trials_2afc_loop.ran,item_num,andalusian,argentine,castilian,chilean,cuban,mexican,peruvian,puertorican,key_resp_ac1.keys,key_resp_ac1.corr,key_resp_ac1.rt,ac1_loop.thisRepN,ac1_loop.thisTrialN,ac1_loop.thisN,ac1_loop.thisIndex,ac1_loop.ran,instructions_lextale_loop.thisRepN,instructions_lextale_loop.thisTrialN,instructions_lextale_loop.thisN,instructions_lextale_loop.thisIndex,instructions_lextale_loop.ran,key_resp_lextale_practice.keys,key_resp_lextale_practice.corr,key_resp_lextale_practice.rt,trials_lextale_practice_loop.thisRepN,trials_lextale_practice_loop.thisTrialN,trials_lextale_practice_loop.thisN,trials_lextale_practice_loop.thisIndex,trials_lextale_practice_loop.ran,stim,word,prac_button_real,prac_button_false,key_resp_lextale_trial.keys,key_resp_lextale_trial.corr,key_resp_lextale_trial.rt,trials_lextale_loop.thisRepN,trials_lextale_loop.thisTrialN,trials_lextale_loop.thisN,trials_lextale_loop.thisIndex,trials_lextale_loop.ran,button_real,button_false,key_resp_ac2.keys,key_resp_ac2.corr,key_resp_ac2.rt,check_pass,check_fails,ac2_loop.thisRepN,ac2_loop.thisTrialN,ac2_loop.thisN,ac2_loop.thisIndex,ac2_loop.ran,slider_eq_trial.response,trials_eq_loop.thisRepN,trials_eq_loop.thisTrialN,trials_eq_loop.thisN,trials_eq_loop.thisIndex,trials_eq_loop.ran,item,is_test_item,is_distractor,is_agree_score,is_disagree_score
0,0,0,0,1,"In the following task you are going to hear a series of utterances. 

  You will decide if the utterances sound like questions or not using your keyboard.",(press the spacebar to continue),5dcd91a0b7ebf606d16c971e,60568611ec04488a9e9da93b,6056ac137045a34e645d8fbe,I am not familiar with Spanish,East coast,NA,no,2021-03-20_22h15.44.775,empathy_intonation_perc,2020.2.10,Win32,60,,,,,,,,,,,,,,,,,,,,,,,,,,,,,,,,,,,,,,,,,,,,,,,,,,,,,,,,,,,,,,,,,,,,,,,,,,,,,,,,,,,,
0,1,1,1,1,"If you believe the utterance is a question, type '1' (for 'yes') and if you do not 
  believe it is a question type '0' (for 'no').

  Let's practice a bit...",(press the spacebar to continue),5dcd91a0b7ebf606d16c971e,60568611ec04488a9e9da93b,6056ac137045a34e645d8fbe,I am not familiar with Spanish,East coast,NA,no,2021-03-20_22h15.44.775,empathy_intonation_perc,2020.2.10,Win32,60,,,,,,,,,,,,,,,,,,,,,,,,,,,,,,,,,,,,,,,,,,,,,,,,,,,,,,,,,,,,,,,,,,,,,,,,,,,,,,,,,,,,
,,,,,,,5dcd91a0b7ebf606d16c971e,60568611ec04488a9e9da93b,6056ac137045a34e645d8fbe,I am not familiar with Spanish,East coast,NA,no,2021-03-20_22h15.44.775,empathy_intonation_perc,2020.2.10,Win32,60,0,1,2.86458,0,0,0,6,1,./stim/wavs/peruvian_statement_filler_El-nino-habla-con-su-madre.wav,0,,,,,,,,,,,,,,,,,,,,,,,,,,,,,,,,,,,,,,,,,,,,,,,,,,,,,,,,,,,,,,,,,,,,,,,,,,
,,,,,,,5dcd91a0b7ebf606d16c971e,60568611ec04488a9e9da93b,6056ac137045a34e645d8fbe,I am not familiar with Spanish,East coast,NA,no,2021-03-20_22h15.44.775,empathy_intonation_perc,2020.2.10,Win32,60,1,1,1.573005,0,1,1,1,1,./stim/wavs/argentine_question_filler_Mi-vecino-habla-mucho.wav,1,,,,,,,,,,,,,,,,,,,,,,,,,,,,,,,,,,,,,,,,,,,,,,,,,,,,,,,,,,,,,,,,,,,,,,,,,,
,,,,,,,5dcd91a0b7ebf606d16c971e,60568611ec04488a9e9da93b,6056ac137045a34e645d8fbe,I am not familiar with Spanish,East coast,NA,no,2021-03-20_22h15.44.775,empathy_intonation_perc,2020.2.10,Win32,60,1,1,1.59623,0,2,2,2,1,./stim/wavs/chilean_question_filler_Mi-padre-cantaba-bien.wav,1,,,,,,,,,,,,,,,,,,,,,,,,,,,,,,,,,,,,,,,,,,,,,,,,,,,,,,,,,,,,,,,,,,,,,,,,,,
,,,,,,,5dcd91a0b7ebf606d16c971e,60568611ec04488a9e9da93b,6056ac137045a34e645d8fbe,I am not familiar with Spanish,East coast,NA,no,2021-03-20_22h15.44.775,empathy_intonation_perc,2020.2.10,Win32,60,1,1,2.042955,0,3,3,0,1,./stim/wavs/castilian_question_filler_Mi-esposo-conoce-al-chico.wav,1,,,,,,,,,,,,,,,,,,,,,,,,,,,,,,,,,,,,,,,,,,,,,,,,,,,,,,,,,,,,,,,,,,,,,,,,,,
,,,,,,,5dcd91a0b7ebf606d16c971e,60568611ec04488a9e9da93b,6056ac137045a34e645d8fbe,I am not familiar with Spanish,East coast,NA,no,2021-03-20_22h15.44.775,empathy_intonation_perc,2020.2.10,Win32,60,0,1,1.52439,0,4,4,4,1,./stim/wavs/cuban_statement_filler_Cocinabas-por-la-noche.wav,0,,,,,,,,,,,,,,,,,,,,,,,,,,,,,,,,,,,,,,,,,,,,,,,,,,,,,,,,,,,,,,,,,,,,,,,,,,
,,,,,,,5dcd91a0b7ebf606d16c971e,60568611ec04488a9e9da93b,6056ac137045a34e645d8fbe,I am not familiar with Spanish,East coast,NA,no,2021-03-20_22h15.44.775,empathy_intonation_perc,2020.2.10,Win32,60,0,1,1.72886,0,5,5,7,1,./stim/wavs/puertorican_statement_filler_La-nina-pinta-con-su-amiga.wav,0,,,,,,,,,,,,,,,,,,,,,,,,,,,,,,,,,,,,,,,,,,,,,,,,,,,,,,,,,,,,,,,,,,,,,,,,,,
,,,,,,,5dcd91a0b7ebf606d16c971e,60568611ec04488a9e9da93b,6056ac137045a34e645d8fbe,I am not familiar with Spanish,East coast,NA,no,2021-03-20_22h15.44.775,empathy_intonation_perc,2020.2.10,Win32,60,0,1,1.616775,0,6,6,5,1,./stim/wavs/andalusian_statement_filler_Alberto-nunca-se-afeita.wav,0,,,,,,,,,,,,,,,,,,,,,,,,,,,,,,,,,,,,,,,,,,,,,,,,,,,,,,,,,,,,,,,,,,,,,,,,,,
,,,,,,,5dcd91a0b7ebf606d16c971e,60568611ec04488a9e9da93b,6056ac137045a34e645d8fbe,I am not familiar with Spanish,East coast,NA,no,2021-03-20_22h15.44.775,empathy_intonation_perc,2020.2.10,Win32,60,1,1,2.129315,0,7,7,3,1,./stim/wavs/mexican_question_filler_Felipe-no-tiene-contrasena.wav,1,,,,,,,,,,,,,,,,,,,,,,,,,,,,,,,,,,,,,,,,,,,,,,,,,,,,,,,,,,,,,,,,,,,,,,,,,,
,,,,,,,5dcd91a0b7ebf606d16c971e,60568611ec04488a9e9da93b,6056ac137045a34e645d8fbe,I am not familiar with Spanish,East coast,NA,no,2021-03-20_22h15.44.775,empathy_intonation_perc,2020.2.10,Win32,60,,,,,,,,,,1,puertorican,0,0,4.759775,0,0,0,31,1,32,./stim/wavs/andalusian_match_interrogative-total-yn_Marta-abre-el-regalo.wav,./stim/wavs/argentine_match_interrogative-total-yn_Marta-abre-el-regalo.wav,./stim/wavs/castilian_match_interrogative-total-yn_Marta-abre-el-regalo.wav,./stim/wavs/chilean_match_interrogative-total-yn_Marta-abre-el-regalo.wav,./stim/wavs/cuban_match_interrogative-total-yn_Marta-abre-el-regalo.wav,./stim/wavs/mexican_match_interrogative-total-yn_Marta-abre-el-regalo.wav,./stim/wavs/peruvian_match_interrogative-total-yn_Marta-abre-el-regalo.wav,./stim/wavs/puertorican_match_interrogative-total-yn_Marta-abre-el-regalo.wav,,,,,,,,,,,,,,,,,,,,,,,,,,,,,,,,,,,,,,,,,,,,,,,,,,,,,,,,
,,,,,,,5dcd91a0b7ebf606d16c971e,60568611ec04488a9e9da93b,6056ac137045a34e645d8fbe,I am not familiar with Spanish,East coast,NA,no,2021-03-20_22h15.44.775,empathy_intonation_perc,2020.2.10,Win32,60,,,,,,,,,,1,mexican,0,0,0.82223,0,1,1,16,1,17,./stim/wavs/andalusian_match_interrogative-partial-wh_Cuando-bebia-el-vino.wav,./stim/wavs/argentine_match_interrogative-partial-wh_Cuando-bebia-el-vino.wav,./stim/wavs/castilian_match_interrogative-partial-wh_Cuando-bebia-el-vino.wav,./stim/wavs/chilean_match_interrogative-partial-wh_Cuando-bebia-el-vino.wav,./stim/wavs/cuban_match_interrogative-partial-wh_Cuando-bebia-el-vino.wav,./stim/wavs/mexican_match_interrogative-partial-wh_Cuando-bebia-el-vino.wav,./stim/wavs/peruvian_match_interrogative-partial-wh_Cuando-bebia-el-vino.wav,./stim/wavs/puertorican_match_interrogative-partial-wh_Cuando-bebia-el-vino.wav,,,,,,,,,,,,,,,,,,,,,,,,,,,,,,,,,,,,,,,,,,,,,,,,,,,,,,,,
,,,,,,,5dcd91a0b7ebf606d16c971e,60568611ec04488a9e9da93b,6056ac137045a34e645d8fbe,I am not familiar with Spanish,East coast,NA,no,2021-03-20_22h15.44.775,empathy_intonation_perc,2020.2.10,Win32,60,,,,,,,,,,0,castilian,0,1,1.92811,0,2,2,34,1,35,./stim/wavs/andalusian_mismatch_declarative-broad-focus_El-nino-oye-el-rio.wav,./stim/wavs/argentine_mismatch_declarative-broad-focus_El-nino-oye-el-rio.wav,./stim/wavs/castilian_mismatch_declarative-broad-focus_El-nino-oye-el-rio.wav,./stim/wavs/chilean_mismatch_declarative-broad-focus_El-nino-oye-el-rio.wav,./stim/wavs/cuban_mismatch_declarative-broad-focus_El-nino-oye-el-rio.wav,./stim/wavs/mexican_mismatch_declarative-broad-focus_El-nino-oye-el-rio.wav,./stim/wavs/peruvian_mismatch_declarative-broad-focus_El-nino-oye-el-rio.wav,./stim/wavs/puertorican_mismatch_declarative-broad-focus_El-nino-oye-el-rio.wav,,,,,,,,,,,,,,,,,,,,,,,,,,,,,,,,,,,,,,,,,,,,,,,,,,,,,,,,
,,,,,,,5dcd91a0b7ebf606d16c971e,60568611ec04488a9e9da93b,6056ac137045a34e645d8fbe,I am not familiar with Spanish,East coast,NA,no,2021-03-20_22h15.44.775,empathy_intonation_perc,2020.2.10,Win32,60,,,,,,,,,,0,argentine,0,1,1.525975,0,3,3,0,1,1,./stim/wavs/andalusian_match_declarative-broad-focus_Ana-lleva-el-abrigo.wav,./stim/wavs/argentine_match_declarative-broad-focus_Ana-lleva-el-abrigo.wav,./stim/wavs/castilian_match_declarative-broad-focus_Ana-lleva-el-abrigo.wav,./stim/wavs/chilean_match_declarative-broad-focus_Ana-lleva-el-abrigo.wav,./stim/wavs/cuban_match_declarative-broad-focus_Ana-lleva-el-abrigo.wav,./stim/wavs/mexican_match_declarative-broad-focus_Ana-lleva-el-abrigo.wav,./stim/wavs/peruvian_match_declarative-broad-focus_Ana-lleva-el-abrigo.wav,./stim/wavs/puertorican_match_declarative-broad-focus_Ana-lleva-el-abrigo.wav,,,,,,,,,,,,,,,,,,,,,,,,,,,,,,,,,,,,,,,,,,,,,,,,,,,,,,,,
,,,,,,,5dcd91a0b7ebf606d16c971e,60568611ec04488a9e9da93b,6056ac137045a34e645d8fbe,I am not familiar with Spanish,East coast,NA,no,2021-03-20_22h15.44.775,empathy_intonation_perc,2020.2.10,Win32,60,,,,,,,,,,0,puertorican,0,1,1.390895,0,4,4,10,1,11,./stim/wavs/andalusian_match_declarative-narrow-focus_David-leia-el-libro.wav,./stim/wavs/argentine_match_declarative-narrow-focus_David-leia-el-libro.wav,./stim/wavs/castilian_match_declarative-narrow-focus_David-leia-el-libro.wav,./stim/wavs/chilean_match_declarative-narrow-focus_David-leia-el-libro.wav,./stim/wavs/cuban_match_declarative-narrow-focus_David-leia-el-libro.wav,./stim/wavs/mexican_match_declarative-narrow-focus_David-leia-el-libro.wav,./stim/wavs/peruvian_match_declarative-narrow-focus_David-leia-el-libro.wav,./stim/wavs/puertorican_match_declarative-narrow-focus_David-leia-el-libro.wav,,,,,,,,,,,,,,,,,,,,,,,,,,,,,,,,,,,,,,,,,,,,,,,,,,,,,,,,
,,,,,,,5dcd91a0b7ebf606d16c971e,60568611ec04488a9e9da93b,6056ac137045a34e645d8fbe,I am not familiar with Spanish,East coast,NA,no,2021-03-20_22h15.44.775,empathy_intonation_perc,2020.2.10,Win32,60,,,,,,,,,,1,cuban,1,1,1.462145,0,5,5,56,1,57,./stim/wavs/andalusian_mismatch_interrogative-total-yn_El-bebe-comia-muy-bien.wav,./stim/wavs/argentine_mismatch_interrogative-total-yn_El-bebe-comia-muy-bien.wav,./stim/wavs/castilian_mismatch_interrogative-total-yn_El-bebe-comia-muy-bien.wav,./stim/wavs/chilean_mismatch_interrogative-total-yn_El-bebe-comia-muy-bien.wav,./stim/wavs/cuban_mismatch_interrogative-total-yn_El-bebe-comia-muy-bien.wav,./stim/wavs/mexican_mismatch_interrogative-total-yn_El-bebe-comia-muy-bien.wav,./stim/wavs/peruvian_mismatch_interrogative-total-yn_El-bebe-comia-muy-bien.wav,./stim/wavs/puertorican_mismatch_interrogative-total-yn_El-bebe-comia-muy-bien.wav,,,,,,,,,,,,,,,,,,,,,,,,,,,,,,,,,,,,,,,,,,,,,,,,,,,,,,,,
,,,,,,,5dcd91a0b7ebf606d16c971e,60568611ec04488a9e9da93b,6056ac137045a34e645d8fbe,I am not familiar with Spanish,East coast,NA,no,2021-03-20_22h15.44.775,empathy_intonation_perc,2020.2.10,Win32,60,,,,,,,,,,0,chilean,0,1,1.41928,0,6,6,45,1,46,./stim/wavs/andalusian_mismatch_declarative-narrow-focus_Mi-madre-come-la-fruta.wav,./stim/wavs/argentine_mismatch_declarative-narrow-focus_Mi-madre-come-la-fruta.wav,./stim/wavs/castilian_mismatch_declarative-narrow-focus_Mi-madre-come-la-fruta.wav,./stim/wavs/chilean_mismatch_declarative-narrow-focus_Mi-madre-come-la-fruta.wav,./stim/wavs/cuban_mismatch_declarative-narrow-focus_Mi-madre-come-la-fruta.wav,./stim/wavs/mexican_mismatch_declarative-narrow-focus_Mi-madre-come-la-fruta.wav,./stim/wavs/peruvian_mismatch_declarative-narrow-focus_Mi-madre-come-la-fruta.wav,./stim/wavs/puertorican_mismatch_declarative-narrow-focus_Mi-madre-come-la-fruta.wav,,,,,,,,,,,,,,,,,,,,,,,,,,,,,,,,,,,,,,,,,,,,,,,,,,,,,,,,
,,,,,,,5dcd91a0b7ebf606d16c971e,60568611ec04488a9e9da93b,6056ac137045a34e645d8fbe,I am not familiar with Spanish,East coast,NA,no,2021-03-20_22h15.44.775,empathy_intonation_perc,2020.2.10,Win32,60,,,,,,,,,,1,argentine,0,0,1.34713,0,7,7,27,1,28,./stim/wavs/andalusian_match_interrogative-total-yn_Emilio-ama-la-marcha.wav,./stim/wavs/argentine_match_interrogative-total-yn_Emilio-ama-la-marcha.wav,./stim/wavs/castilian_match_interrogative-total-yn_Emilio-ama-la-marcha.wav,./stim/wavs/chilean_match_interrogative-total-yn_Emilio-ama-la-marcha.wav,./stim/wavs/cuban_match_interrogative-total-yn_Emilio-ama-la-marcha.wav,./stim/wavs/mexican_match_interrogative-total-yn_Emilio-ama-la-marcha.wav,./stim/wavs/peruvian_match_interrogative-total-yn_Emilio-ama-la-marcha.wav,./stim/wavs/puertorican_match_interrogative-total-yn_Emilio-ama-la-marcha.wav,,,,,,,,,,,,,,,,,,,,,,,,,,,,,,,,,,,,,,,,,,,,,,,,,,,,,,,,
,,,,,,,5dcd91a0b7ebf606d16c971e,60568611ec04488a9e9da93b,6056ac137045a34e645d8fbe,I am not familiar with Spanish,East coast,NA,no,2021-03-20_22h15.44.775,empathy_intonation_perc,2020.2.10,Win32,60,,,,,,,,,,1,mexican,1,1,1.768035,0,8,8,60,1,61,./stim/wavs/andalusian_mismatch_interrogative-total-yn_La-nina-lava-el-plato.wav,./stim/wavs/argentine_mismatch_interrogative-total-yn_La-nina-lava-el-plato.wav,./stim/wavs/castilian_mismatch_interrogative-total-yn_La-nina-lava-el-plato.wav,./stim/wavs/chilean_mismatch_interrogative-total-yn_La-nina-lava-el-plato.wav,./stim/wavs/cuban_mismatch_interrogative-total-yn_La-nina-lava-el-plato.wav,./stim/wavs/mexican_mismatch_interrogative-total-yn_La-nina-lava-el-plato.wav,./stim/wavs/peruvian_mismatch_interrogative-total-yn_La-nina-lava-el-plato.wav,./stim/wavs/puertorican_mismatch_interrogative-total-yn_La-nina-lava-el-plato.wav,,,,,,,,,,,,,,,,,,,,,,,,,,,,,,,,,,,,,,,,,,,,,,,,,,,,,,,,
,,,,,,,5dcd91a0b7ebf606d16c971e,60568611ec04488a9e9da93b,6056ac137045a34e645d8fbe,I am not familiar with Spanish,East coast,NA,no,2021-03-20_22h15.44.775,empathy_intonation_perc,2020.2.10,Win32,60,,,,,,,,,,1,andalusian,0,0,1.52858,0,9,9,20,1,21,./stim/wavs/andalusian_match_interrogative-partial-wh_Por-que-abre-el-regalo.wav,./stim/wavs/argentine_match_interrogative-partial-wh_Por-que-abre-el-regalo.wav,./stim/wavs/castilian_match_interrogative-partial-wh_Por-que-abre-el-regalo.wav,./stim/wavs/chilean_match_interrogative-partial-wh_Por-que-abre-el-regalo.wav,./stim/wavs/cuban_match_interrogative-partial-wh_Por-que-abre-el-regalo.wav,./stim/wavs/mexican_match_interrogative-partial-wh_Por-que-abre-el-regalo.wav,./stim/wavs/peruvian_match_interrogative-partial-wh_Por-que-abre-el-regalo.wav,./stim/wavs/puertorican_match_interrogative-partial-wh_Por-que-abre-el-regalo.wav,,,,,,,,,,,,,,,,,,,,,,,,,,,,,,,,,,,,,,,,,,,,,,,,,,,,,,,,
,,,,,,,5dcd91a0b7ebf606d16c971e,60568611ec04488a9e9da93b,6056ac137045a34e645d8fbe,I am not familiar with Spanish,East coast,NA,no,2021-03-20_22h15.44.775,empathy_intonation_perc,2020.2.10,Win32,60,,,,,,,,,,1,mexican,1,1,1.80211,0,10,10,50,1,51,./stim/wavs/andalusian_mismatch_interrogative-partial-wh_Cuando-miraba-la-luna.wav,./stim/wavs/argentine_mismatch_interrogative-partial-wh_Cuando-miraba-la-luna.wav,./stim/wavs/castilian_mismatch_interrogative-partial-wh_Cuando-miraba-la-luna.wav,./stim/wavs/chilean_mismatch_interrogative-partial-wh_Cuando-miraba-la-luna.wav,./stim/wavs/cuban_mismatch_interrogative-partial-wh_Cuando-miraba-la-luna.wav,./stim/wavs/mexican_mismatch_interrogative-partial-wh_Cuando-miraba-la-luna.wav,./stim/wavs/peruvian_mismatch_interrogative-partial-wh_Cuando-miraba-la-luna.wav,./stim/wavs/puertorican_mismatch_interrogative-partial-wh_Cuando-miraba-la-luna.wav,,,,,,,,,,,,,,,,,,,,,,,,,,,,,,,,,,,,,,,,,,,,,,,,,,,,,,,,
,,,,,,,5dcd91a0b7ebf606d16c971e,60568611ec04488a9e9da93b,6056ac137045a34e645d8fbe,I am not familiar with Spanish,East coast,NA,no,2021-03-20_22h15.44.775,empathy_intonation_perc,2020.2.10,Win32,60,,,,,,,,,,1,cuban,0,0,1.537795,0,11,11,55,1,56,./stim/wavs/andalusian_mismatch_interrogative-partial-wh_Por-que-vivia-en-Paris.wav,./stim/wavs/argentine_mismatch_interrogative-partial-wh_Por-que-vivia-en-Paris.wav,./stim/wavs/castilian_mismatch_interrogative-partial-wh_Por-que-vivia-en-Paris.wav,./stim/wavs/chilean_mismatch_interrogative-partial-wh_Por-que-vivia-en-Paris.wav,./stim/wavs/cuban_mismatch_interrogative-partial-wh_Por-que-vivia-en-Paris.wav,./stim/wavs/mexican_mismatch_interrogative-partial-wh_Por-que-vivia-en-Paris.wav,./stim/wavs/peruvian_mismatch_interrogative-partial-wh_Por-que-vivia-en-Paris.wav,./stim/wavs/puertorican_mismatch_interrogative-partial-wh_Por-que-vivia-en-Paris.wav,,,,,,,,,,,,,,,,,,,,,,,,,,,,,,,,,,,,,,,,,,,,,,,,,,,,,,,,
,,,,,,,5dcd91a0b7ebf606d16c971e,60568611ec04488a9e9da93b,6056ac137045a34e645d8fbe,I am not familiar with Spanish,East coast,NA,no,2021-03-20_22h15.44.775,empathy_intonation_perc,2020.2.10,Win32,60,,,,,,,,,,1,andalusian,1,1,1.72833,0,12,12,57,1,58,./stim/wavs/andalusian_mismatch_interrogative-total-yn_El-hombre-mira-la-luna.wav,./stim/wavs/argentine_mismatch_interrogative-total-yn_El-hombre-mira-la-luna.wav,./stim/wavs/castilian_mismatch_interrogative-total-yn_El-hombre-mira-la-luna.wav,./stim/wavs/chilean_mismatch_interrogative-total-yn_El-hombre-mira-la-luna.wav,./stim/wavs/cuban_mismatch_interrogative-total-yn_El-hombre-mira-la-luna.wav,./stim/wavs/mexican_mismatch_interrogative-total-yn_El-hombre-mira-la-luna.wav,./stim/wavs/peruvian_mismatch_interrogative-total-yn_El-hombre-mira-la-luna.wav,./stim/wavs/puertorican_mismatch_interrogative-total-yn_El-hombre-mira-la-luna.wav,,,,,,,,,,,,,,,,,,,,,,,,,,,,,,,,,,,,,,,,,,,,,,,,,,,,,,,,
,,,,,,,5dcd91a0b7ebf606d16c971e,60568611ec04488a9e9da93b,6056ac137045a34e645d8fbe,I am not familiar with Spanish,East coast,NA,no,2021-03-20_22h15.44.775,empathy_intonation_perc,2020.2.10,Win32,60,,,,,,,,,,0,castilian,0,1,1.781715,0,13,13,42,1,43,./stim/wavs/andalusian_mismatch_declarative-narrow-focus_El-nino-oye-el-rio.wav,./stim/wavs/argentine_mismatch_declarative-narrow-focus_El-nino-oye-el-rio.wav,./stim/wavs/castilian_mismatch_declarative-narrow-focus_El-nino-oye-el-rio.wav,./stim/wavs/chilean_mismatch_declarative-narrow-focus_El-nino-oye-el-rio.wav,./stim/wavs/cuban_mismatch_declarative-narrow-focus_El-nino-oye-el-rio.wav,./stim/wavs/mexican_mismatch_declarative-narrow-focus_El-nino-oye-el-rio.wav,./stim/wavs/peruvian_mismatch_declarative-narrow-focus_El-nino-oye-el-rio.wav,./stim/wavs/puertorican_mismatch_declarative-narrow-focus_El-nino-oye-el-rio.wav,,,,,,,,,,,,,,,,,,,,,,,,,,,,,,,,,,,,,,,,,,,,,,,,,,,,,,,,
,,,,,,,5dcd91a0b7ebf606d16c971e,60568611ec04488a9e9da93b,6056ac137045a34e645d8fbe,I am not familiar with Spanish,East coast,NA,no,2021-03-20_22h15.44.775,empathy_intonation_perc,2020.2.10,Win32,60,,,,,,,,,,0,peruvian,0,1,1.939425,0,14,14,35,1,36,./stim/wavs/andalusian_mismatch_declarative-broad-focus_La-maestra-vive-en-Paris.wav,./stim/wavs/argentine_mismatch_declarative-broad-focus_La-maestra-vive-en-Paris.wav,./stim/wavs/castilian_mismatch_declarative-broad-focus_La-maestra-vive-en-Paris.wav,./stim/wavs/chilean_mismatch_declarative-broad-focus_La-maestra-vive-en-Paris.wav,./stim/wavs/cuban_mismatch_declarative-broad-focus_La-maestra-vive-en-Paris.wav,./stim/wavs/mexican_mismatch_declarative-broad-focus_La-maestra-vive-en-Paris.wav,./stim/wavs/peruvian_mismatch_declarative-broad-focus_La-maestra-vive-en-Paris.wav,./stim/wavs/puertorican_mismatch_declarative-broad-focus_La-maestra-vive-en-Paris.wav,,,,,,,,,,,,,,,,,,,,,,,,,,,,,,,,,,,,,,,,,,,,,,,,,,,,,,,,
,,,,,,,5dcd91a0b7ebf606d16c971e,60568611ec04488a9e9da93b,6056ac137045a34e645d8fbe,I am not familiar with Spanish,East coast,NA,no,2021-03-20_22h15.44.775,empathy_intonation_perc,2020.2.10,Win32,60,,,,,,,,,,0,cuban,0,1,1.383665,0,15,15,11,1,12,./stim/wavs/andalusian_match_declarative-narrow-focus_Emilio-ama-la-marcha.wav,./stim/wavs/argentine_match_declarative-narrow-focus_Emilio-ama-la-marcha.wav,./stim/wavs/castilian_match_declarative-narrow-focus_Emilio-ama-la-marcha.wav,./stim/wavs/chilean_match_declarative-narrow-focus_Emilio-ama-la-marcha.wav,./stim/wavs/cuban_match_declarative-narrow-focus_Emilio-ama-la-marcha.wav,./stim/wavs/mexican_match_declarative-narrow-focus_Emilio-ama-la-marcha.wav,./stim/wavs/peruvian_match_declarative-narrow-focus_Emilio-ama-la-marcha.wav,./stim/wavs/puertorican_match_declarative-narrow-focus_Emilio-ama-la-marcha.wav,,,,,,,,,,,,,,,,,,,,,,,,,,,,,,,,,,,,,,,,,,,,,,,,,,,,,,,,
,,,,,,,5dcd91a0b7ebf606d16c971e,60568611ec04488a9e9da93b,6056ac137045a34e645d8fbe,I am not familiar with Spanish,East coast,NA,no,2021-03-20_22h15.44.775,empathy_intonation_perc,2020.2.10,Win32,60,,,,,,,,,,0,chilean,0,1,1.67754,0,16,16,47,1,48,./stim/wavs/andalusian_mismatch_declarative-narrow-focus_Mi-tia-odia-la-lluvia.wav,./stim/wavs/argentine_mismatch_declarative-narrow-focus_Mi-tia-odia-la-lluvia.wav,./stim/wavs/castilian_mismatch_declarative-narrow-focus_Mi-tia-odia-la-lluvia.wav,./stim/wavs/chilean_mismatch_declarative-narrow-focus_Mi-tia-odia-la-lluvia.wav,./stim/wavs/cuban_mismatch_declarative-narrow-focus_Mi-tia-odia-la-lluvia.wav,./stim/wavs/mexican_mismatch_declarative-narrow-focus_Mi-tia-odia-la-lluvia.wav,./stim/wavs/peruvian_mismatch_declarative-narrow-focus_Mi-tia-odia-la-lluvia.wav,./stim/wavs/puertorican_mismatch_declarative-narrow-focus_Mi-tia-odia-la-lluvia.wav,,,,,,,,,,,,,,,,,,,,,,,,,,,,,,,,,,,,,,,,,,,,,,,,,,,,,,,,
,,,,,,,5dcd91a0b7ebf606d16c971e,60568611ec04488a9e9da93b,6056ac137045a34e645d8fbe,I am not familiar with Spanish,East coast,NA,no,2021-03-20_22h15.44.775,empathy_intonation_perc,2020.2.10,Win32,60,,,,,,,,,,0,puertorican,0,1,1.624275,0,17,17,40,1,41,./stim/wavs/andalusian_mismatch_declarative-narrow-focus_El-bebe-comia-muy-bien.wav,./stim/wavs/argentine_mismatch_declarative-narrow-focus_El-bebe-comia-muy-bien.wav,./stim/wavs/castilian_mismatch_declarative-narrow-focus_El-bebe-comia-muy-bien.wav,./stim/wavs/chilean_mismatch_declarative-narrow-focus_El-bebe-comia-muy-bien.wav,./stim/wavs/cuban_mismatch_declarative-narrow-focus_El-bebe-comia-muy-bien.wav,./stim/wavs/mexican_mismatch_declarative-narrow-focus_El-bebe-comia-muy-bien.wav,./stim/wavs/peruvian_mismatch_declarative-narrow-focus_El-bebe-comia-muy-bien.wav,./stim/wavs/puertorican_mismatch_declarative-narrow-focus_El-bebe-comia-muy-bien.wav,,,,,,,,,,,,,,,,,,,,,,,,,,,,,,,,,,,,,,,,,,,,,,,,,,,,,,,,
,,,,,,,5dcd91a0b7ebf606d16c971e,60568611ec04488a9e9da93b,6056ac137045a34e645d8fbe,I am not familiar with Spanish,East coast,NA,no,2021-03-20_22h15.44.775,empathy_intonation_perc,2020.2.10,Win32,60,,,,,,,,,,1,andalusian,0,0,1.47113,0,18,18,53,1,54,./stim/wavs/andalusian_mismatch_interrogative-partial-wh_Por-que-oia-el-rio.wav,./stim/wavs/argentine_mismatch_interrogative-partial-wh_Por-que-oia-el-rio.wav,./stim/wavs/castilian_mismatch_interrogative-partial-wh_Por-que-oia-el-rio.wav,./stim/wavs/chilean_mismatch_interrogative-partial-wh_Por-que-oia-el-rio.wav,./stim/wavs/cuban_mismatch_interrogative-partial-wh_Por-que-oia-el-rio.wav,./stim/wavs/mexican_mismatch_interrogative-partial-wh_Por-que-oia-el-rio.wav,./stim/wavs/peruvian_mismatch_interrogative-partial-wh_Por-que-oia-el-rio.wav,./stim/wavs/puertorican_mismatch_interrogative-partial-wh_Por-que-oia-el-rio.wav,,,,,,,,,,,,,,,,,,,,,,,,,,,,,,,,,,,,,,,,,,,,,,,,,,,,,,,,
,,,,,,,5dcd91a0b7ebf606d16c971e,60568611ec04488a9e9da93b,6056ac137045a34e645d8fbe,I am not familiar with Spanish,East coast,NA,no,2021-03-20_22h15.44.775,empathy_intonation_perc,2020.2.10,Win32,60,,,,,,,,,,1,peruvian,1,1,0.853865,0,19,19,62,1,63,./stim/wavs/andalusian_mismatch_interrogative-total-yn_Mi-novio-viene-del-lago.wav,./stim/wavs/argentine_mismatch_interrogative-total-yn_Mi-novio-viene-del-lago.wav,./stim/wavs/castilian_mismatch_interrogative-total-yn_Mi-novio-viene-del-lago.wav,./stim/wavs/chilean_mismatch_interrogative-total-yn_Mi-novio-viene-del-lago.wav,./stim/wavs/cuban_mismatch_interrogative-total-yn_Mi-novio-viene-del-lago.wav,./stim/wavs/mexican_mismatch_interrogative-total-yn_Mi-novio-viene-del-lago.wav,./stim/wavs/peruvian_mismatch_interrogative-total-yn_Mi-novio-viene-del-lago.wav,./stim/wavs/puertorican_mismatch_interrogative-total-yn_Mi-novio-viene-del-lago.wav,,,,,,,,,,,,,,,,,,,,,,,,,,,,,,,,,,,,,,,,,,,,,,,,,,,,,,,,
,,,,,,,5dcd91a0b7ebf606d16c971e,60568611ec04488a9e9da93b,6056ac137045a34e645d8fbe,I am not familiar with Spanish,East coast,NA,no,2021-03-20_22h15.44.775,empathy_intonation_perc,2020.2.10,Win32,60,,,,,,,,,,0,mexican,0,1,1.435685,0,20,20,2,1,3,./stim/wavs/andalusian_match_declarative-broad-focus_David-leia-el-libro.wav,./stim/wavs/argentine_match_declarative-broad-focus_David-leia-el-libro.wav,./stim/wavs/castilian_match_declarative-broad-focus_David-leia-el-libro.wav,./stim/wavs/chilean_match_declarative-broad-focus_David-leia-el-libro.wav,./stim/wavs/cuban_match_declarative-broad-focus_David-leia-el-libro.wav,./stim/wavs/mexican_match_declarative-broad-focus_David-leia-el-libro.wav,./stim/wavs/peruvian_match_declarative-broad-focus_David-leia-el-libro.wav,./stim/wavs/puertorican_match_declarative-broad-focus_David-leia-el-libro.wav,,,,,,,,,,,,,,,,,,,,,,,,,,,,,,,,,,,,,,,,,,,,,,,,,,,,,,,,
,,,,,,,5dcd91a0b7ebf606d16c971e,60568611ec04488a9e9da93b,6056ac137045a34e645d8fbe,I am not familiar with Spanish,East coast,NA,no,2021-03-20_22h15.44.775,empathy_intonation_perc,2020.2.10,Win32,60,,,,,,,,,,0,mexican,0,1,1.501355,0,21,21,43,1,44,./stim/wavs/andalusian_mismatch_declarative-narrow-focus_La-maestra-vive-en-Paris.wav,./stim/wavs/argentine_mismatch_declarative-narrow-focus_La-maestra-vive-en-Paris.wav,./stim/wavs/castilian_mismatch_declarative-narrow-focus_La-maestra-vive-en-Paris.wav,./stim/wavs/chilean_mismatch_declarative-narrow-focus_La-maestra-vive-en-Paris.wav,./stim/wavs/cuban_mismatch_declarative-narrow-focus_La-maestra-vive-en-Paris.wav,./stim/wavs/mexican_mismatch_declarative-narrow-focus_La-maestra-vive-en-Paris.wav,./stim/wavs/peruvian_mismatch_declarative-narrow-focus_La-maestra-vive-en-Paris.wav,./stim/wavs/puertorican_mismatch_declarative-narrow-focus_La-maestra-vive-en-Paris.wav,,,,,,,,,,,,,,,,,,,,,,,,,,,,,,,,,,,,,,,,,,,,,,,,,,,,,,,,
,,,,,,,5dcd91a0b7ebf606d16c971e,60568611ec04488a9e9da93b,6056ac137045a34e645d8fbe,I am not familiar with Spanish,East coast,NA,no,2021-03-20_22h15.44.775,empathy_intonation_perc,2020.2.10,Win32,60,,,,,,,,,,1,cuban,0,0,1.72621,0,22,22,61,1,62,./stim/wavs/andalusian_mismatch_interrogative-total-yn_Mi-madre-come-la-fruta.wav,./stim/wavs/argentine_mismatch_interrogative-total-yn_Mi-madre-come-la-fruta.wav,./stim/wavs/castilian_mismatch_interrogative-total-yn_Mi-madre-come-la-fruta.wav,./stim/wavs/chilean_mismatch_interrogative-total-yn_Mi-madre-come-la-fruta.wav,./stim/wavs/cuban_mismatch_interrogative-total-yn_Mi-madre-come-la-fruta.wav,./stim/wavs/mexican_mismatch_interrogative-total-yn_Mi-madre-come-la-fruta.wav,./stim/wavs/peruvian_mismatch_interrogative-total-yn_Mi-madre-come-la-fruta.wav,./stim/wavs/puertorican_mismatch_interrogative-total-yn_Mi-madre-come-la-fruta.wav,,,,,,,,,,,,,,,,,,,,,,,,,,,,,,,,,,,,,,,,,,,,,,,,,,,,,,,,
,,,,,,,5dcd91a0b7ebf606d16c971e,60568611ec04488a9e9da93b,6056ac137045a34e645d8fbe,I am not familiar with Spanish,East coast,NA,no,2021-03-20_22h15.44.775,empathy_intonation_perc,2020.2.10,Win32,60,,,,,,,,,,0,castilian,0,1,1.83892,0,23,23,37,1,38,./stim/wavs/andalusian_mismatch_declarative-broad-focus_Mi-madre-come-la-fruta.wav,./stim/wavs/argentine_mismatch_declarative-broad-focus_Mi-madre-come-la-fruta.wav,./stim/wavs/castilian_mismatch_declarative-broad-focus_Mi-madre-come-la-fruta.wav,./stim/wavs/chilean_mismatch_declarative-broad-focus_Mi-madre-come-la-fruta.wav,./stim/wavs/cuban_mismatch_declarative-broad-focus_Mi-madre-come-la-fruta.wav,./stim/wavs/mexican_mismatch_declarative-broad-focus_Mi-madre-come-la-fruta.wav,./stim/wavs/peruvian_mismatch_declarative-broad-focus_Mi-madre-come-la-fruta.wav,./stim/wavs/puertorican_mismatch_declarative-broad-focus_Mi-madre-come-la-fruta.wav,,,,,,,,,,,,,,,,,,,,,,,,,,,,,,,,,,,,,,,,,,,,,,,,,,,,,,,,
,,,,,,,5dcd91a0b7ebf606d16c971e,60568611ec04488a9e9da93b,6056ac137045a34e645d8fbe,I am not familiar with Spanish,East coast,NA,no,2021-03-20_22h15.44.775,empathy_intonation_perc,2020.2.10,Win32,60,,,,,,,,,,1,mexican,1,1,1.9011,0,24,24,59,1,60,./stim/wavs/andalusian_mismatch_interrogative-total-yn_La-maestra-vive-en-Paris.wav,./stim/wavs/argentine_mismatch_interrogative-total-yn_La-maestra-vive-en-Paris.wav,./stim/wavs/castilian_mismatch_interrogative-total-yn_La-maestra-vive-en-Paris.wav,./stim/wavs/chilean_mismatch_interrogative-total-yn_La-maestra-vive-en-Paris.wav,./stim/wavs/cuban_mismatch_interrogative-total-yn_La-maestra-vive-en-Paris.wav,./stim/wavs/mexican_mismatch_interrogative-total-yn_La-maestra-vive-en-Paris.wav,./stim/wavs/peruvian_mismatch_interrogative-total-yn_La-maestra-vive-en-Paris.wav,./stim/wavs/puertorican_mismatch_interrogative-total-yn_La-maestra-vive-en-Paris.wav,,,,,,,,,,,,,,,,,,,,,,,,,,,,,,,,,,,,,,,,,,,,,,,,,,,,,,,,
,,,,,,,5dcd91a0b7ebf606d16c971e,60568611ec04488a9e9da93b,6056ac137045a34e645d8fbe,I am not familiar with Spanish,East coast,NA,no,2021-03-20_22h15.44.775,empathy_intonation_perc,2020.2.10,Win32,60,,,,,,,,,,1,puertorican,0,0,1.618165,0,25,25,48,1,49,./stim/wavs/andalusian_mismatch_interrogative-partial-wh_Cuando-comia-la-fruta.wav,./stim/wavs/argentine_mismatch_interrogative-partial-wh_Cuando-comia-la-fruta.wav,./stim/wavs/castilian_mismatch_interrogative-partial-wh_Cuando-comia-la-fruta.wav,./stim/wavs/chilean_mismatch_interrogative-partial-wh_Cuando-comia-la-fruta.wav,./stim/wavs/cuban_mismatch_interrogative-partial-wh_Cuando-comia-la-fruta.wav,./stim/wavs/mexican_mismatch_interrogative-partial-wh_Cuando-comia-la-fruta.wav,./stim/wavs/peruvian_mismatch_interrogative-partial-wh_Cuando-comia-la-fruta.wav,./stim/wavs/puertorican_mismatch_interrogative-partial-wh_Cuando-comia-la-fruta.wav,,,,,,,,,,,,,,,,,,,,,,,,,,,,,,,,,,,,,,,,,,,,,,,,,,,,,,,,
,,,,,,,5dcd91a0b7ebf606d16c971e,60568611ec04488a9e9da93b,6056ac137045a34e645d8fbe,I am not familiar with Spanish,East coast,NA,no,2021-03-20_22h15.44.775,empathy_intonation_perc,2020.2.10,Win32,60,,,,,,,,,,1,chilean,0,0,1.500965,0,26,26,63,1,64,./stim/wavs/andalusian_mismatch_interrogative-total-yn_Mi-tia-odia-la-lluvia.wav,./stim/wavs/argentine_mismatch_interrogative-total-yn_Mi-tia-odia-la-lluvia.wav,./stim/wavs/castilian_mismatch_interrogative-total-yn_Mi-tia-odia-la-lluvia.wav,./stim/wavs/chilean_mismatch_interrogative-total-yn_Mi-tia-odia-la-lluvia.wav,./stim/wavs/cuban_mismatch_interrogative-total-yn_Mi-tia-odia-la-lluvia.wav,./stim/wavs/mexican_mismatch_interrogative-total-yn_Mi-tia-odia-la-lluvia.wav,./stim/wavs/peruvian_mismatch_interrogative-total-yn_Mi-tia-odia-la-lluvia.wav,./stim/wavs/puertorican_mismatch_interrogative-total-yn_Mi-tia-odia-la-lluvia.wav,,,,,,,,,,,,,,,,,,,,,,,,,,,,,,,,,,,,,,,,,,,,,,,,,,,,,,,,
,,,,,,,5dcd91a0b7ebf606d16c971e,60568611ec04488a9e9da93b,6056ac137045a34e645d8fbe,I am not familiar with Spanish,East coast,NA,no,2021-03-20_22h15.44.775,empathy_intonation_perc,2020.2.10,Win32,60,,,,,,,,,,0,mexican,0,1,1.48086,0,27,27,1,1,2,./stim/wavs/andalusian_match_declarative-broad-focus_Daniel-iba-a-Bolivia.wav,./stim/wavs/argentine_match_declarative-broad-focus_Daniel-iba-a-Bolivia.wav,./stim/wavs/castilian_match_declarative-broad-focus_Daniel-iba-a-Bolivia.wav,./stim/wavs/chilean_match_declarative-broad-focus_Daniel-iba-a-Bolivia.wav,./stim/wavs/cuban_match_declarative-broad-focus_Daniel-iba-a-Bolivia.wav,./stim/wavs/mexican_match_declarative-broad-focus_Daniel-iba-a-Bolivia.wav,./stim/wavs/peruvian_match_declarative-broad-focus_Daniel-iba-a-Bolivia.wav,./stim/wavs/puertorican_match_declarative-broad-focus_Daniel-iba-a-Bolivia.wav,,,,,,,,,,,,,,,,,,,,,,,,,,,,,,,,,,,,,,,,,,,,,,,,,,,,,,,,
,,,,,,,5dcd91a0b7ebf606d16c971e,60568611ec04488a9e9da93b,6056ac137045a34e645d8fbe,I am not familiar with Spanish,East coast,NA,no,2021-03-20_22h15.44.775,empathy_intonation_perc,2020.2.10,Win32,60,,,,,,,,,,1,cuban,0,0,1.44085,0,28,28,19,1,20,./stim/wavs/andalusian_match_interrogative-partial-wh_Cuando-vendia-el-carro.wav,./stim/wavs/argentine_match_interrogative-partial-wh_Cuando-vendia-el-carro.wav,./stim/wavs/castilian_match_interrogative-partial-wh_Cuando-vendia-el-carro.wav,./stim/wavs/chilean_match_interrogative-partial-wh_Cuando-vendia-el-carro.wav,./stim/wavs/cuban_match_interrogative-partial-wh_Cuando-vendia-el-carro.wav,./stim/wavs/mexican_match_interrogative-partial-wh_Cuando-vendia-el-carro.wav,./stim/wavs/peruvian_match_interrogative-partial-wh_Cuando-vendia-el-carro.wav,./stim/wavs/puertorican_match_interrogative-partial-wh_Cuando-vendia-el-carro.wav,,,,,,,,,,,,,,,,,,,,,,,,,,,,,,,,,,,,,,,,,,,,,,,,,,,,,,,,
,,,,,,,5dcd91a0b7ebf606d16c971e,60568611ec04488a9e9da93b,6056ac137045a34e645d8fbe,I am not familiar with Spanish,East coast,NA,no,2021-03-20_22h15.44.775,empathy_intonation_perc,2020.2.10,Win32,60,,,,,,,,,,0,castilian,0,1,1.513005,0,29,29,36,1,37,./stim/wavs/andalusian_mismatch_declarative-broad-focus_La-nina-lava-el-plato.wav,./stim/wavs/argentine_mismatch_declarative-broad-focus_La-nina-lava-el-plato.wav,./stim/wavs/castilian_mismatch_declarative-broad-focus_La-nina-lava-el-plato.wav,./stim/wavs/chilean_mismatch_declarative-broad-focus_La-nina-lava-el-plato.wav,./stim/wavs/cuban_mismatch_declarative-broad-focus_La-nina-lava-el-plato.wav,./stim/wavs/mexican_mismatch_declarative-broad-focus_La-nina-lava-el-plato.wav,./stim/wavs/peruvian_mismatch_declarative-broad-focus_La-nina-lava-el-plato.wav,./stim/wavs/puertorican_mismatch_declarative-broad-focus_La-nina-lava-el-plato.wav,,,,,,,,,,,,,,,,,,,,,,,,,,,,,,,,,,,,,,,,,,,,,,,,,,,,,,,,
,,,,,,,5dcd91a0b7ebf606d16c971e,60568611ec04488a9e9da93b,6056ac137045a34e645d8fbe,I am not familiar with Spanish,East coast,NA,no,2021-03-20_22h15.44.775,empathy_intonation_perc,2020.2.10,Win32,60,,,,,,,,,,1,castilian,0,0,1.504615,0,30,30,25,1,26,./stim/wavs/andalusian_match_interrogative-total-yn_Daniel-iba-a-Bolivia.wav,./stim/wavs/argentine_match_interrogative-total-yn_Daniel-iba-a-Bolivia.wav,./stim/wavs/castilian_match_interrogative-total-yn_Daniel-iba-a-Bolivia.wav,./stim/wavs/chilean_match_interrogative-total-yn_Daniel-iba-a-Bolivia.wav,./stim/wavs/cuban_match_interrogative-total-yn_Daniel-iba-a-Bolivia.wav,./stim/wavs/mexican_match_interrogative-total-yn_Daniel-iba-a-Bolivia.wav,./stim/wavs/peruvian_match_interrogative-total-yn_Daniel-iba-a-Bolivia.wav,./stim/wavs/puertorican_match_interrogative-total-yn_Daniel-iba-a-Bolivia.wav,,,,,,,,,,,,,,,,,,,,,,,,,,,,,,,,,,,,,,,,,,,,,,,,,,,,,,,,
,,,,,,,5dcd91a0b7ebf606d16c971e,60568611ec04488a9e9da93b,6056ac137045a34e645d8fbe,I am not familiar with Spanish,East coast,NA,no,2021-03-20_22h15.44.775,empathy_intonation_perc,2020.2.10,Win32,60,,,,,,,,,,0,mexican,0,1,1.329705,0,31,31,13,1,14,./stim/wavs/andalusian_match_declarative-narrow-focus_Maria-bebe-el-vino.wav,./stim/wavs/argentine_match_declarative-narrow-focus_Maria-bebe-el-vino.wav,./stim/wavs/castilian_match_declarative-narrow-focus_Maria-bebe-el-vino.wav,./stim/wavs/chilean_match_declarative-narrow-focus_Maria-bebe-el-vino.wav,./stim/wavs/cuban_match_declarative-narrow-focus_Maria-bebe-el-vino.wav,./stim/wavs/mexican_match_declarative-narrow-focus_Maria-bebe-el-vino.wav,./stim/wavs/peruvian_match_declarative-narrow-focus_Maria-bebe-el-vino.wav,./stim/wavs/puertorican_match_declarative-narrow-focus_Maria-bebe-el-vino.wav,,,,,,,,,,,,,,,,,,,,,,,,,,,,,,,,,,,,,,,,,,,,,,,,,,,,,,,,
,,,,,,,5dcd91a0b7ebf606d16c971e,60568611ec04488a9e9da93b,6056ac137045a34e645d8fbe,I am not familiar with Spanish,East coast,NA,no,2021-03-20_22h15.44.775,empathy_intonation_perc,2020.2.10,Win32,60,,,,,,,,,,1,chilean,1,1,1.158885,0,32,32,30,1,31,./stim/wavs/andalusian_match_interrogative-total-yn_Mariano-habla-del-tiempo.wav,./stim/wavs/argentine_match_interrogative-total-yn_Mariano-habla-del-tiempo.wav,./stim/wavs/castilian_match_interrogative-total-yn_Mariano-habla-del-tiempo.wav,./stim/wavs/chilean_match_interrogative-total-yn_Mariano-habla-del-tiempo.wav,./stim/wavs/cuban_match_interrogative-total-yn_Mariano-habla-del-tiempo.wav,./stim/wavs/mexican_match_interrogative-total-yn_Mariano-habla-del-tiempo.wav,./stim/wavs/peruvian_match_interrogative-total-yn_Mariano-habla-del-tiempo.wav,./stim/wavs/puertorican_match_interrogative-total-yn_Mariano-habla-del-tiempo.wav,,,,,,,,,,,,,,,,,,,,,,,,,,,,,,,,,,,,,,,,,,,,,,,,,,,,,,,,
,,,,,,,5dcd91a0b7ebf606d16c971e,60568611ec04488a9e9da93b,6056ac137045a34e645d8fbe,I am not familiar with Spanish,East coast,NA,no,2021-03-20_22h15.44.775,empathy_intonation_perc,2020.2.10,Win32,60,,,,,,,,,,1,cuban,0,0,1.52476,0,33,33,23,1,24,./stim/wavs/andalusian_match_interrogative-partial-wh_Por-que-iba-a-Bolivia.wav,./stim/wavs/argentine_match_interrogative-partial-wh_Por-que-iba-a-Bolivia.wav,./stim/wavs/castilian_match_interrogative-partial-wh_Por-que-iba-a-Bolivia.wav,./stim/wavs/chilean_match_interrogative-partial-wh_Por-que-iba-a-Bolivia.wav,./stim/wavs/cuban_match_interrogative-partial-wh_Por-que-iba-a-Bolivia.wav,./stim/wavs/mexican_match_interrogative-partial-wh_Por-que-iba-a-Bolivia.wav,./stim/wavs/peruvian_match_interrogative-partial-wh_Por-que-iba-a-Bolivia.wav,./stim/wavs/puertorican_match_interrogative-partial-wh_Por-que-iba-a-Bolivia.wav,,,,,,,,,,,,,,,,,,,,,,,,,,,,,,,,,,,,,,,,,,,,,,,,,,,,,,,,
,,,,,,,5dcd91a0b7ebf606d16c971e,60568611ec04488a9e9da93b,6056ac137045a34e645d8fbe,I am not familiar with Spanish,East coast,NA,no,2021-03-20_22h15.44.775,empathy_intonation_perc,2020.2.10,Win32,60,,,,,,,,,,1,mexican,0,0,1.43451,0,34,34,18,1,19,./stim/wavs/andalusian_match_interrogative-partial-wh_Cuando-lleva-el-abrigo.wav,./stim/wavs/argentine_match_interrogative-partial-wh_Cuando-lleva-el-abrigo.wav,./stim/wavs/castilian_match_interrogative-partial-wh_Cuando-lleva-el-abrigo.wav,./stim/wavs/chilean_match_interrogative-partial-wh_Cuando-lleva-el-abrigo.wav,./stim/wavs/cuban_match_interrogative-partial-wh_Cuando-lleva-el-abrigo.wav,./stim/wavs/mexican_match_interrogative-partial-wh_Cuando-lleva-el-abrigo.wav,./stim/wavs/peruvian_match_interrogative-partial-wh_Cuando-lleva-el-abrigo.wav,./stim/wavs/puertorican_match_interrogative-partial-wh_Cuando-lleva-el-abrigo.wav,,,,,,,,,,,,,,,,,,,,,,,,,,,,,,,,,,,,,,,,,,,,,,,,,,,,,,,,
,,,,,,,5dcd91a0b7ebf606d16c971e,60568611ec04488a9e9da93b,6056ac137045a34e645d8fbe,I am not familiar with Spanish,East coast,NA,no,2021-03-20_22h15.44.775,empathy_intonation_perc,2020.2.10,Win32,60,,,,,,,,,,0,andalusian,0,1,1.53406,0,35,35,6,1,7,./stim/wavs/andalusian_match_declarative-broad-focus_Mariano-habla-del-tiempo.wav,./stim/wavs/argentine_match_declarative-broad-focus_Mariano-habla-del-tiempo.wav,./stim/wavs/castilian_match_declarative-broad-focus_Mariano-habla-del-tiempo.wav,./stim/wavs/chilean_match_declarative-broad-focus_Mariano-habla-del-tiempo.wav,./stim/wavs/cuban_match_declarative-broad-focus_Mariano-habla-del-tiempo.wav,./stim/wavs/mexican_match_declarative-broad-focus_Mariano-habla-del-tiempo.wav,./stim/wavs/peruvian_match_declarative-broad-focus_Mariano-habla-del-tiempo.wav,./stim/wavs/puertorican_match_declarative-broad-focus_Mariano-habla-del-tiempo.wav,,,,,,,,,,,,,,,,,,,,,,,,,,,,,,,,,,,,,,,,,,,,,,,,,,,,,,,,
,,,,,,,5dcd91a0b7ebf606d16c971e,60568611ec04488a9e9da93b,6056ac137045a34e645d8fbe,I am not familiar with Spanish,East coast,NA,no,2021-03-20_22h15.44.775,empathy_intonation_perc,2020.2.10,Win32,60,,,,,,,,,,0,andalusian,0,1,1.891975,0,36,36,7,1,8,./stim/wavs/andalusian_match_declarative-broad-focus_Marta-abre-el-regalo.wav,./stim/wavs/argentine_match_declarative-broad-focus_Marta-abre-el-regalo.wav,./stim/wavs/castilian_match_declarative-broad-focus_Marta-abre-el-regalo.wav,./stim/wavs/chilean_match_declarative-broad-focus_Marta-abre-el-regalo.wav,./stim/wavs/cuban_match_declarative-broad-focus_Marta-abre-el-regalo.wav,./stim/wavs/mexican_match_declarative-broad-focus_Marta-abre-el-regalo.wav,./stim/wavs/peruvian_match_declarative-broad-focus_Marta-abre-el-regalo.wav,./stim/wavs/puertorican_match_declarative-broad-focus_Marta-abre-el-regalo.wav,,,,,,,,,,,,,,,,,,,,,,,,,,,,,,,,,,,,,,,,,,,,,,,,,,,,,,,,
,,,,,,,5dcd91a0b7ebf606d16c971e,60568611ec04488a9e9da93b,6056ac137045a34e645d8fbe,I am not familiar with Spanish,East coast,NA,no,2021-03-20_22h15.44.775,empathy_intonation_perc,2020.2.10,Win32,60,,,,,,,,,,1,andalusian,0,0,1.889285,0,37,37,58,1,59,./stim/wavs/andalusian_mismatch_interrogative-total-yn_El-nino-oye-el-rio.wav,./stim/wavs/argentine_mismatch_interrogative-total-yn_El-nino-oye-el-rio.wav,./stim/wavs/castilian_mismatch_interrogative-total-yn_El-nino-oye-el-rio.wav,./stim/wavs/chilean_mismatch_interrogative-total-yn_El-nino-oye-el-rio.wav,./stim/wavs/cuban_mismatch_interrogative-total-yn_El-nino-oye-el-rio.wav,./stim/wavs/mexican_mismatch_interrogative-total-yn_El-nino-oye-el-rio.wav,./stim/wavs/peruvian_mismatch_interrogative-total-yn_El-nino-oye-el-rio.wav,./stim/wavs/puertorican_mismatch_interrogative-total-yn_El-nino-oye-el-rio.wav,,,,,,,,,,,,,,,,,,,,,,,,,,,,,,,,,,,,,,,,,,,,,,,,,,,,,,,,
,,,,,,,5dcd91a0b7ebf606d16c971e,60568611ec04488a9e9da93b,6056ac137045a34e645d8fbe,I am not familiar with Spanish,East coast,NA,no,2021-03-20_22h15.44.775,empathy_intonation_perc,2020.2.10,Win32,60,,,,,,,,,,0,mexican,0,1,1.65103,0,38,38,41,1,42,./stim/wavs/andalusian_mismatch_declarative-narrow-focus_El-hombre-mira-la-luna.wav,./stim/wavs/argentine_mismatch_declarative-narrow-focus_El-hombre-mira-la-luna.wav,./stim/wavs/castilian_mismatch_declarative-narrow-focus_El-hombre-mira-la-luna.wav,./stim/wavs/chilean_mismatch_declarative-narrow-focus_El-hombre-mira-la-luna.wav,./stim/wavs/cuban_mismatch_declarative-narrow-focus_El-hombre-mira-la-luna.wav,./stim/wavs/mexican_mismatch_declarative-narrow-focus_El-hombre-mira-la-luna.wav,./stim/wavs/peruvian_mismatch_declarative-narrow-focus_El-hombre-mira-la-luna.wav,./stim/wavs/puertorican_mismatch_declarative-narrow-focus_El-hombre-mira-la-luna.wav,,,,,,,,,,,,,,,,,,,,,,,,,,,,,,,,,,,,,,,,,,,,,,,,,,,,,,,,
,,,,,,,5dcd91a0b7ebf606d16c971e,60568611ec04488a9e9da93b,6056ac137045a34e645d8fbe,I am not familiar with Spanish,East coast,NA,no,2021-03-20_22h15.44.775,empathy_intonation_perc,2020.2.10,Win32,60,,,,,,,,,,1,argentine,0,0,2.453955,0,39,39,51,1,52,./stim/wavs/andalusian_mismatch_interrogative-partial-wh_Por-que-desayuna-muy-bien.wav,./stim/wavs/argentine_mismatch_interrogative-partial-wh_Por-que-desayuna-muy-bien.wav,./stim/wavs/castilian_mismatch_interrogative-partial-wh_Por-que-desayuna-muy-bien.wav,./stim/wavs/chilean_mismatch_interrogative-partial-wh_Por-que-desayuna-muy-bien.wav,./stim/wavs/cuban_mismatch_interrogative-partial-wh_Por-que-desayuna-muy-bien.wav,./stim/wavs/mexican_mismatch_interrogative-partial-wh_Por-que-desayuna-muy-bien.wav,./stim/wavs/peruvian_mismatch_interrogative-partial-wh_Por-que-desayuna-muy-bien.wav,./stim/wavs/puertorican_mismatch_interrogative-partial-wh_Por-que-desayuna-muy-bien.wav,,,,,,,,,,,,,,,,,,,,,,,,,,,,,,,,,,,,,,,,,,,,,,,,,,,,,,,,
,,,,,,,5dcd91a0b7ebf606d16c971e,60568611ec04488a9e9da93b,6056ac137045a34e645d8fbe,I am not familiar with Spanish,East coast,NA,no,2021-03-20_22h15.44.775,empathy_intonation_perc,2020.2.10,Win32,60,,,,,,,,,,0,puertorican,0,1,1.539285,0,40,40,3,1,4,./stim/wavs/andalusian_match_declarative-broad-focus_Emilio-ama-la-marcha.wav,./stim/wavs/argentine_match_declarative-broad-focus_Emilio-ama-la-marcha.wav,./stim/wavs/castilian_match_declarative-broad-focus_Emilio-ama-la-marcha.wav,./stim/wavs/chilean_match_declarative-broad-focus_Emilio-ama-la-marcha.wav,./stim/wavs/cuban_match_declarative-broad-focus_Emilio-ama-la-marcha.wav,./stim/wavs/mexican_match_declarative-broad-focus_Emilio-ama-la-marcha.wav,./stim/wavs/peruvian_match_declarative-broad-focus_Emilio-ama-la-marcha.wav,./stim/wavs/puertorican_match_declarative-broad-focus_Emilio-ama-la-marcha.wav,,,,,,,,,,,,,,,,,,,,,,,,,,,,,,,,,,,,,,,,,,,,,,,,,,,,,,,,
,,,,,,,5dcd91a0b7ebf606d16c971e,60568611ec04488a9e9da93b,6056ac137045a34e645d8fbe,I am not familiar with Spanish,East coast,NA,no,2021-03-20_22h15.44.775,empathy_intonation_perc,2020.2.10,Win32,60,,,,,,,,,,1,argentine,0,0,1.396135,0,41,41,54,1,55,./stim/wavs/andalusian_mismatch_interrogative-partial-wh_Por-que-venia-del-lago.wav,./stim/wavs/argentine_mismatch_interrogative-partial-wh_Por-que-venia-del-lago.wav,./stim/wavs/castilian_mismatch_interrogative-partial-wh_Por-que-venia-del-lago.wav,./stim/wavs/chilean_mismatch_interrogative-partial-wh_Por-que-venia-del-lago.wav,./stim/wavs/cuban_mismatch_interrogative-partial-wh_Por-que-venia-del-lago.wav,./stim/wavs/mexican_mismatch_interrogative-partial-wh_Por-que-venia-del-lago.wav,./stim/wavs/peruvian_mismatch_interrogative-partial-wh_Por-que-venia-del-lago.wav,./stim/wavs/puertorican_mismatch_interrogative-partial-wh_Por-que-venia-del-lago.wav,,,,,,,,,,,,,,,,,,,,,,,,,,,,,,,,,,,,,,,,,,,,,,,,,,,,,,,,
,,,,,,,5dcd91a0b7ebf606d16c971e,60568611ec04488a9e9da93b,6056ac137045a34e645d8fbe,I am not familiar with Spanish,East coast,NA,no,2021-03-20_22h15.44.775,empathy_intonation_perc,2020.2.10,Win32,60,,,,,,,,,,0,peruvian,0,1,1.4513,0,42,42,44,1,45,./stim/wavs/andalusian_mismatch_declarative-narrow-focus_La-nina-lava-el-plato.wav,./stim/wavs/argentine_mismatch_declarative-narrow-focus_La-nina-lava-el-plato.wav,./stim/wavs/castilian_mismatch_declarative-narrow-focus_La-nina-lava-el-plato.wav,./stim/wavs/chilean_mismatch_declarative-narrow-focus_La-nina-lava-el-plato.wav,./stim/wavs/cuban_mismatch_declarative-narrow-focus_La-nina-lava-el-plato.wav,./stim/wavs/mexican_mismatch_declarative-narrow-focus_La-nina-lava-el-plato.wav,./stim/wavs/peruvian_mismatch_declarative-narrow-focus_La-nina-lava-el-plato.wav,./stim/wavs/puertorican_mismatch_declarative-narrow-focus_La-nina-lava-el-plato.wav,,,,,,,,,,,,,,,,,,,,,,,,,,,,,,,,,,,,,,,,,,,,,,,,,,,,,,,,
,,,,,,,5dcd91a0b7ebf606d16c971e,60568611ec04488a9e9da93b,6056ac137045a34e645d8fbe,I am not familiar with Spanish,East coast,NA,no,2021-03-20_22h15.44.775,empathy_intonation_perc,2020.2.10,Win32,60,,,,,,,,,,0,chilean,1,0,1.62613,0,43,43,5,1,6,./stim/wavs/andalusian_match_declarative-broad-focus_Maria-bebe-el-vino.wav,./stim/wavs/argentine_match_declarative-broad-focus_Maria-bebe-el-vino.wav,./stim/wavs/castilian_match_declarative-broad-focus_Maria-bebe-el-vino.wav,./stim/wavs/chilean_match_declarative-broad-focus_Maria-bebe-el-vino.wav,./stim/wavs/cuban_match_declarative-broad-focus_Maria-bebe-el-vino.wav,./stim/wavs/mexican_match_declarative-broad-focus_Maria-bebe-el-vino.wav,./stim/wavs/peruvian_match_declarative-broad-focus_Maria-bebe-el-vino.wav,./stim/wavs/puertorican_match_declarative-broad-focus_Maria-bebe-el-vino.wav,,,,,,,,,,,,,,,,,,,,,,,,,,,,,,,,,,,,,,,,,,,,,,,,,,,,,,,,
,,,,,,,5dcd91a0b7ebf606d16c971e,60568611ec04488a9e9da93b,6056ac137045a34e645d8fbe,I am not familiar with Spanish,East coast,NA,no,2021-03-20_22h15.44.775,empathy_intonation_perc,2020.2.10,Win32,60,,,,,,,,,,1,castilian,1,1,1.62259,0,44,44,17,1,18,./stim/wavs/andalusian_match_interrogative-partial-wh_Cuando-leia-el-libro.wav,./stim/wavs/argentine_match_interrogative-partial-wh_Cuando-leia-el-libro.wav,./stim/wavs/castilian_match_interrogative-partial-wh_Cuando-leia-el-libro.wav,./stim/wavs/chilean_match_interrogative-partial-wh_Cuando-leia-el-libro.wav,./stim/wavs/cuban_match_interrogative-partial-wh_Cuando-leia-el-libro.wav,./stim/wavs/mexican_match_interrogative-partial-wh_Cuando-leia-el-libro.wav,./stim/wavs/peruvian_match_interrogative-partial-wh_Cuando-leia-el-libro.wav,./stim/wavs/puertorican_match_interrogative-partial-wh_Cuando-leia-el-libro.wav,,,,,,,,,,,,,,,,,,,,,,,,,,,,,,,,,,,,,,,,,,,,,,,,,,,,,,,,
,,,,,,,5dcd91a0b7ebf606d16c971e,60568611ec04488a9e9da93b,6056ac137045a34e645d8fbe,I am not familiar with Spanish,East coast,NA,no,2021-03-20_22h15.44.775,empathy_intonation_perc,2020.2.10,Win32,60,,,,,,,,,,1,castilian,1,1,1.78567,0,45,45,22,1,23,./stim/wavs/andalusian_match_interrogative-partial-wh_Por-que-hablaba-del-agua.wav,./stim/wavs/argentine_match_interrogative-partial-wh_Por-que-hablaba-del-agua.wav,./stim/wavs/castilian_match_interrogative-partial-wh_Por-que-hablaba-del-agua.wav,./stim/wavs/chilean_match_interrogative-partial-wh_Por-que-hablaba-del-agua.wav,./stim/wavs/cuban_match_interrogative-partial-wh_Por-que-hablaba-del-agua.wav,./stim/wavs/mexican_match_interrogative-partial-wh_Por-que-hablaba-del-agua.wav,./stim/wavs/peruvian_match_interrogative-partial-wh_Por-que-hablaba-del-agua.wav,./stim/wavs/puertorican_match_interrogative-partial-wh_Por-que-hablaba-del-agua.wav,,,,,,,,,,,,,,,,,,,,,,,,,,,,,,,,,,,,,,,,,,,,,,,,,,,,,,,,
,,,,,,,5dcd91a0b7ebf606d16c971e,60568611ec04488a9e9da93b,6056ac137045a34e645d8fbe,I am not familiar with Spanish,East coast,NA,no,2021-03-20_22h15.44.775,empathy_intonation_perc,2020.2.10,Win32,60,,,,,,,,,,0,andalusian,0,1,1.552325,0,46,46,32,1,33,./stim/wavs/andalusian_mismatch_declarative-broad-focus_El-bebe-comia-muy-bien.wav,./stim/wavs/argentine_mismatch_declarative-broad-focus_El-bebe-comia-muy-bien.wav,./stim/wavs/castilian_mismatch_declarative-broad-focus_El-bebe-comia-muy-bien.wav,./stim/wavs/chilean_mismatch_declarative-broad-focus_El-bebe-comia-muy-bien.wav,./stim/wavs/cuban_mismatch_declarative-broad-focus_El-bebe-comia-muy-bien.wav,./stim/wavs/mexican_mismatch_declarative-broad-focus_El-bebe-comia-muy-bien.wav,./stim/wavs/peruvian_mismatch_declarative-broad-focus_El-bebe-comia-muy-bien.wav,./stim/wavs/puertorican_mismatch_declarative-broad-focus_El-bebe-comia-muy-bien.wav,,,,,,,,,,,,,,,,,,,,,,,,,,,,,,,,,,,,,,,,,,,,,,,,,,,,,,,,
,,,,,,,5dcd91a0b7ebf606d16c971e,60568611ec04488a9e9da93b,6056ac137045a34e645d8fbe,I am not familiar with Spanish,East coast,NA,no,2021-03-20_22h15.44.775,empathy_intonation_perc,2020.2.10,Win32,60,,,,,,,,,,1,chilean,0,0,1.66806,0,47,47,28,1,29,./stim/wavs/andalusian_match_interrogative-total-yn_Manuela-vende-el-carro.wav,./stim/wavs/argentine_match_interrogative-total-yn_Manuela-vende-el-carro.wav,./stim/wavs/castilian_match_interrogative-total-yn_Manuela-vende-el-carro.wav,./stim/wavs/chilean_match_interrogative-total-yn_Manuela-vende-el-carro.wav,./stim/wavs/cuban_match_interrogative-total-yn_Manuela-vende-el-carro.wav,./stim/wavs/mexican_match_interrogative-total-yn_Manuela-vende-el-carro.wav,./stim/wavs/peruvian_match_interrogative-total-yn_Manuela-vende-el-carro.wav,./stim/wavs/puertorican_match_interrogative-total-yn_Manuela-vende-el-carro.wav,,,,,,,,,,,,,,,,,,,,,,,,,,,,,,,,,,,,,,,,,,,,,,,,,,,,,,,,
,,,,,,,5dcd91a0b7ebf606d16c971e,60568611ec04488a9e9da93b,6056ac137045a34e645d8fbe,I am not familiar with Spanish,East coast,NA,no,2021-03-20_22h15.44.775,empathy_intonation_perc,2020.2.10,Win32,60,,,,,,,,,,1,mexican,0,0,1.421025,0,48,48,49,1,50,./stim/wavs/andalusian_mismatch_interrogative-partial-wh_Cuando-lavaba-el-plato.wav,./stim/wavs/argentine_mismatch_interrogative-partial-wh_Cuando-lavaba-el-plato.wav,./stim/wavs/castilian_mismatch_interrogative-partial-wh_Cuando-lavaba-el-plato.wav,./stim/wavs/chilean_mismatch_interrogative-partial-wh_Cuando-lavaba-el-plato.wav,./stim/wavs/cuban_mismatch_interrogative-partial-wh_Cuando-lavaba-el-plato.wav,./stim/wavs/mexican_mismatch_interrogative-partial-wh_Cuando-lavaba-el-plato.wav,./stim/wavs/peruvian_mismatch_interrogative-partial-wh_Cuando-lavaba-el-plato.wav,./stim/wavs/puertorican_mismatch_interrogative-partial-wh_Cuando-lavaba-el-plato.wav,,,,,,,,,,,,,,,,,,,,,,,,,,,,,,,,,,,,,,,,,,,,,,,,,,,,,,,,
,,,,,,,5dcd91a0b7ebf606d16c971e,60568611ec04488a9e9da93b,6056ac137045a34e645d8fbe,I am not familiar with Spanish,East coast,NA,no,2021-03-20_22h15.44.775,empathy_intonation_perc,2020.2.10,Win32,60,,,,,,,,,,0,chilean,0,1,1.541155,0,49,49,39,1,40,./stim/wavs/andalusian_mismatch_declarative-broad-focus_Mi-tia-odia-la-lluvia.wav,./stim/wavs/argentine_mismatch_declarative-broad-focus_Mi-tia-odia-la-lluvia.wav,./stim/wavs/castilian_mismatch_declarative-broad-focus_Mi-tia-odia-la-lluvia.wav,./stim/wavs/chilean_mismatch_declarative-broad-focus_Mi-tia-odia-la-lluvia.wav,./stim/wavs/cuban_mismatch_declarative-broad-focus_Mi-tia-odia-la-lluvia.wav,./stim/wavs/mexican_mismatch_declarative-broad-focus_Mi-tia-odia-la-lluvia.wav,./stim/wavs/peruvian_mismatch_declarative-broad-focus_Mi-tia-odia-la-lluvia.wav,./stim/wavs/puertorican_mismatch_declarative-broad-focus_Mi-tia-odia-la-lluvia.wav,,,,,,,,,,,,,,,,,,,,,,,,,,,,,,,,,,,,,,,,,,,,,,,,,,,,,,,,
,,,,,,,5dcd91a0b7ebf606d16c971e,60568611ec04488a9e9da93b,6056ac137045a34e645d8fbe,I am not familiar with Spanish,East coast,NA,no,2021-03-20_22h15.44.775,empathy_intonation_perc,2020.2.10,Win32,60,,,,,,,,,,0,castilian,0,1,1.62566,0,50,50,9,1,10,./stim/wavs/andalusian_match_declarative-narrow-focus_Daniel-iba-a-Bolivia.wav,./stim/wavs/argentine_match_declarative-narrow-focus_Daniel-iba-a-Bolivia.wav,./stim/wavs/castilian_match_declarative-narrow-focus_Daniel-iba-a-Bolivia.wav,./stim/wavs/chilean_match_declarative-narrow-focus_Daniel-iba-a-Bolivia.wav,./stim/wavs/cuban_match_declarative-narrow-focus_Daniel-iba-a-Bolivia.wav,./stim/wavs/mexican_match_declarative-narrow-focus_Daniel-iba-a-Bolivia.wav,./stim/wavs/peruvian_match_declarative-narrow-focus_Daniel-iba-a-Bolivia.wav,./stim/wavs/puertorican_match_declarative-narrow-focus_Daniel-iba-a-Bolivia.wav,,,,,,,,,,,,,,,,,,,,,,,,,,,,,,,,,,,,,,,,,,,,,,,,,,,,,,,,
,,,,,,,5dcd91a0b7ebf606d16c971e,60568611ec04488a9e9da93b,6056ac137045a34e645d8fbe,I am not familiar with Spanish,East coast,NA,no,2021-03-20_22h15.44.775,empathy_intonation_perc,2020.2.10,Win32,60,,,,,,,,,,0,cuban,0,1,1.50356,0,51,51,4,1,5,./stim/wavs/andalusian_match_declarative-broad-focus_Manuela-vende-el-carro.wav,./stim/wavs/argentine_match_declarative-broad-focus_Manuela-vende-el-carro.wav,./stim/wavs/castilian_match_declarative-broad-focus_Manuela-vende-el-carro.wav,./stim/wavs/chilean_match_declarative-broad-focus_Manuela-vende-el-carro.wav,./stim/wavs/cuban_match_declarative-broad-focus_Manuela-vende-el-carro.wav,./stim/wavs/mexican_match_declarative-broad-focus_Manuela-vende-el-carro.wav,./stim/wavs/peruvian_match_declarative-broad-focus_Manuela-vende-el-carro.wav,./stim/wavs/puertorican_match_declarative-broad-focus_Manuela-vende-el-carro.wav,,,,,,,,,,,,,,,,,,,,,,,,,,,,,,,,,,,,,,,,,,,,,,,,,,,,,,,,
,,,,,,,5dcd91a0b7ebf606d16c971e,60568611ec04488a9e9da93b,6056ac137045a34e645d8fbe,I am not familiar with Spanish,East coast,NA,no,2021-03-20_22h15.44.775,empathy_intonation_perc,2020.2.10,Win32,60,,,,,,,,,,0,peruvian,0,1,1.62984,0,52,52,8,1,9,./stim/wavs/andalusian_match_declarative-narrow-focus_Ana-lleva-el-abrigo.wav,./stim/wavs/argentine_match_declarative-narrow-focus_Ana-lleva-el-abrigo.wav,./stim/wavs/castilian_match_declarative-narrow-focus_Ana-lleva-el-abrigo.wav,./stim/wavs/chilean_match_declarative-narrow-focus_Ana-lleva-el-abrigo.wav,./stim/wavs/cuban_match_declarative-narrow-focus_Ana-lleva-el-abrigo.wav,./stim/wavs/mexican_match_declarative-narrow-focus_Ana-lleva-el-abrigo.wav,./stim/wavs/peruvian_match_declarative-narrow-focus_Ana-lleva-el-abrigo.wav,./stim/wavs/puertorican_match_declarative-narrow-focus_Ana-lleva-el-abrigo.wav,,,,,,,,,,,,,,,,,,,,,,,,,,,,,,,,,,,,,,,,,,,,,,,,,,,,,,,,
,,,,,,,5dcd91a0b7ebf606d16c971e,60568611ec04488a9e9da93b,6056ac137045a34e645d8fbe,I am not familiar with Spanish,East coast,NA,no,2021-03-20_22h15.44.775,empathy_intonation_perc,2020.2.10,Win32,60,,,,,,,,,,1,mexican,1,1,1.60067,0,53,53,29,1,30,./stim/wavs/andalusian_match_interrogative-total-yn_Maria-bebe-el-vino.wav,./stim/wavs/argentine_match_interrogative-total-yn_Maria-bebe-el-vino.wav,./stim/wavs/castilian_match_interrogative-total-yn_Maria-bebe-el-vino.wav,./stim/wavs/chilean_match_interrogative-total-yn_Maria-bebe-el-vino.wav,./stim/wavs/cuban_match_interrogative-total-yn_Maria-bebe-el-vino.wav,./stim/wavs/mexican_match_interrogative-total-yn_Maria-bebe-el-vino.wav,./stim/wavs/peruvian_match_interrogative-total-yn_Maria-bebe-el-vino.wav,./stim/wavs/puertorican_match_interrogative-total-yn_Maria-bebe-el-vino.wav,,,,,,,,,,,,,,,,,,,,,,,,,,,,,,,,,,,,,,,,,,,,,,,,,,,,,,,,
,,,,,,,5dcd91a0b7ebf606d16c971e,60568611ec04488a9e9da93b,6056ac137045a34e645d8fbe,I am not familiar with Spanish,East coast,NA,no,2021-03-20_22h15.44.775,empathy_intonation_perc,2020.2.10,Win32,60,,,,,,,,,,0,peruvian,0,1,1.88407,0,54,54,46,1,47,./stim/wavs/andalusian_mismatch_declarative-narrow-focus_Mi-novio-viene-del-lago.wav,./stim/wavs/argentine_mismatch_declarative-narrow-focus_Mi-novio-viene-del-lago.wav,./stim/wavs/castilian_mismatch_declarative-narrow-focus_Mi-novio-viene-del-lago.wav,./stim/wavs/chilean_mismatch_declarative-narrow-focus_Mi-novio-viene-del-lago.wav,./stim/wavs/cuban_mismatch_declarative-narrow-focus_Mi-novio-viene-del-lago.wav,./stim/wavs/mexican_mismatch_declarative-narrow-focus_Mi-novio-viene-del-lago.wav,./stim/wavs/peruvian_mismatch_declarative-narrow-focus_Mi-novio-viene-del-lago.wav,./stim/wavs/puertorican_mismatch_declarative-narrow-focus_Mi-novio-viene-del-lago.wav,,,,,,,,,,,,,,,,,,,,,,,,,,,,,,,,,,,,,,,,,,,,,,,,,,,,,,,,
,,,,,,,5dcd91a0b7ebf606d16c971e,60568611ec04488a9e9da93b,6056ac137045a34e645d8fbe,I am not familiar with Spanish,East coast,NA,no,2021-03-20_22h15.44.775,empathy_intonation_perc,2020.2.10,Win32,60,,,,,,,,,,0,peruvian,0,1,1.92439,0,55,55,15,1,16,./stim/wavs/andalusian_match_declarative-narrow-focus_Marta-abre-el-regalo.wav,./stim/wavs/argentine_match_declarative-narrow-focus_Marta-abre-el-regalo.wav,./stim/wavs/castilian_match_declarative-narrow-focus_Marta-abre-el-regalo.wav,./stim/wavs/chilean_match_declarative-narrow-focus_Marta-abre-el-regalo.wav,./stim/wavs/cuban_match_declarative-narrow-focus_Marta-abre-el-regalo.wav,./stim/wavs/mexican_match_declarative-narrow-focus_Marta-abre-el-regalo.wav,./stim/wavs/peruvian_match_declarative-narrow-focus_Marta-abre-el-regalo.wav,./stim/wavs/puertorican_match_declarative-narrow-focus_Marta-abre-el-regalo.wav,,,,,,,,,,,,,,,,,,,,,,,,,,,,,,,,,,,,,,,,,,,,,,,,,,,,,,,,
,,,,,,,5dcd91a0b7ebf606d16c971e,60568611ec04488a9e9da93b,6056ac137045a34e645d8fbe,I am not familiar with Spanish,East coast,NA,no,2021-03-20_22h15.44.775,empathy_intonation_perc,2020.2.10,Win32,60,,,,,,,,,,0,mexican,0,1,1.460075,0,56,56,38,1,39,./stim/wavs/andalusian_mismatch_declarative-broad-focus_Mi-novio-viene-del-lago.wav,./stim/wavs/argentine_mismatch_declarative-broad-focus_Mi-novio-viene-del-lago.wav,./stim/wavs/castilian_mismatch_declarative-broad-focus_Mi-novio-viene-del-lago.wav,./stim/wavs/chilean_mismatch_declarative-broad-focus_Mi-novio-viene-del-lago.wav,./stim/wavs/cuban_mismatch_declarative-broad-focus_Mi-novio-viene-del-lago.wav,./stim/wavs/mexican_mismatch_declarative-broad-focus_Mi-novio-viene-del-lago.wav,./stim/wavs/peruvian_mismatch_declarative-broad-focus_Mi-novio-viene-del-lago.wav,./stim/wavs/puertorican_mismatch_declarative-broad-focus_Mi-novio-viene-del-lago.wav,,,,,,,,,,,,,,,,,,,,,,,,,,,,,,,,,,,,,,,,,,,,,,,,,,,,,,,,
,,,,,,,5dcd91a0b7ebf606d16c971e,60568611ec04488a9e9da93b,6056ac137045a34e645d8fbe,I am not familiar with Spanish,East coast,NA,no,2021-03-20_22h15.44.775,empathy_intonation_perc,2020.2.10,Win32,60,,,,,,,,,,1,peruvian,1,1,1.59375,0,57,57,52,1,53,./stim/wavs/andalusian_mismatch_interrogative-partial-wh_Por-que-odiaba-la-lluvia.wav,./stim/wavs/argentine_mismatch_interrogative-partial-wh_Por-que-odiaba-la-lluvia.wav,./stim/wavs/castilian_mismatch_interrogative-partial-wh_Por-que-odiaba-la-lluvia.wav,./stim/wavs/chilean_mismatch_interrogative-partial-wh_Por-que-odiaba-la-lluvia.wav,./stim/wavs/cuban_mismatch_interrogative-partial-wh_Por-que-odiaba-la-lluvia.wav,./stim/wavs/mexican_mismatch_interrogative-partial-wh_Por-que-odiaba-la-lluvia.wav,./stim/wavs/peruvian_mismatch_interrogative-partial-wh_Por-que-odiaba-la-lluvia.wav,./stim/wavs/puertorican_mismatch_interrogative-partial-wh_Por-que-odiaba-la-lluvia.wav,,,,,,,,,,,,,,,,,,,,,,,,,,,,,,,,,,,,,,,,,,,,,,,,,,,,,,,,
,,,,,,,5dcd91a0b7ebf606d16c971e,60568611ec04488a9e9da93b,6056ac137045a34e645d8fbe,I am not familiar with Spanish,East coast,NA,no,2021-03-20_22h15.44.775,empathy_intonation_perc,2020.2.10,Win32,60,,,,,,,,,,0,chilean,1,0,2.992765,0,58,58,14,1,15,./stim/wavs/andalusian_match_declarative-narrow-focus_Mariano-habla-del-tiempo.wav,./stim/wavs/argentine_match_declarative-narrow-focus_Mariano-habla-del-tiempo.wav,./stim/wavs/castilian_match_declarative-narrow-focus_Mariano-habla-del-tiempo.wav,./stim/wavs/chilean_match_declarative-narrow-focus_Mariano-habla-del-tiempo.wav,./stim/wavs/cuban_match_declarative-narrow-focus_Mariano-habla-del-tiempo.wav,./stim/wavs/mexican_match_declarative-narrow-focus_Mariano-habla-del-tiempo.wav,./stim/wavs/peruvian_match_declarative-narrow-focus_Mariano-habla-del-tiempo.wav,./stim/wavs/puertorican_match_declarative-narrow-focus_Mariano-habla-del-tiempo.wav,,,,,,,,,,,,,,,,,,,,,,,,,,,,,,,,,,,,,,,,,,,,,,,,,,,,,,,,
,,,,,,,5dcd91a0b7ebf606d16c971e,60568611ec04488a9e9da93b,6056ac137045a34e645d8fbe,I am not familiar with Spanish,East coast,NA,no,2021-03-20_22h15.44.775,empathy_intonation_perc,2020.2.10,Win32,60,,,,,,,,,,1,peruvian,1,1,2.02084,0,59,59,24,1,25,./stim/wavs/andalusian_match_interrogative-total-yn_Ana-lleva-el-abrigo.wav,./stim/wavs/argentine_match_interrogative-total-yn_Ana-lleva-el-abrigo.wav,./stim/wavs/castilian_match_interrogative-total-yn_Ana-lleva-el-abrigo.wav,./stim/wavs/chilean_match_interrogative-total-yn_Ana-lleva-el-abrigo.wav,./stim/wavs/cuban_match_interrogative-total-yn_Ana-lleva-el-abrigo.wav,./stim/wavs/mexican_match_interrogative-total-yn_Ana-lleva-el-abrigo.wav,./stim/wavs/peruvian_match_interrogative-total-yn_Ana-lleva-el-abrigo.wav,./stim/wavs/puertorican_match_interrogative-total-yn_Ana-lleva-el-abrigo.wav,,,,,,,,,,,,,,,,,,,,,,,,,,,,,,,,,,,,,,,,,,,,,,,,,,,,,,,,
,,,,,,,5dcd91a0b7ebf606d16c971e,60568611ec04488a9e9da93b,6056ac137045a34e645d8fbe,I am not familiar with Spanish,East coast,NA,no,2021-03-20_22h15.44.775,empathy_intonation_perc,2020.2.10,Win32,60,,,,,,,,,,1,andalusian,1,1,1.70561,0,60,60,21,1,22,./stim/wavs/andalusian_match_interrogative-partial-wh_Por-que-ama-la-navidad.wav,./stim/wavs/argentine_match_interrogative-partial-wh_Por-que-ama-la-navidad.wav,./stim/wavs/castilian_match_interrogative-partial-wh_Por-que-ama-la-navidad.wav,./stim/wavs/chilean_match_interrogative-partial-wh_Por-que-ama-la-navidad.wav,./stim/wavs/cuban_match_interrogative-partial-wh_Por-que-ama-la-navidad.wav,./stim/wavs/mexican_match_interrogative-partial-wh_Por-que-ama-la-navidad.wav,./stim/wavs/peruvian_match_interrogative-partial-wh_Por-que-ama-la-navidad.wav,./stim/wavs/puertorican_match_interrogative-partial-wh_Por-que-ama-la-navidad.wav,,,,,,,,,,,,,,,,,,,,,,,,,,,,,,,,,,,,,,,,,,,,,,,,,,,,,,,,
,,,,,,,5dcd91a0b7ebf606d16c971e,60568611ec04488a9e9da93b,6056ac137045a34e645d8fbe,I am not familiar with Spanish,East coast,NA,no,2021-03-20_22h15.44.775,empathy_intonation_perc,2020.2.10,Win32,60,,,,,,,,,,0,peruvian,0,1,1.75571,0,61,61,12,1,13,./stim/wavs/andalusian_match_declarative-narrow-focus_Manuela-vende-el-carro.wav,./stim/wavs/argentine_match_declarative-narrow-focus_Manuela-vende-el-carro.wav,./stim/wavs/castilian_match_declarative-narrow-focus_Manuela-vende-el-carro.wav,./stim/wavs/chilean_match_declarative-narrow-focus_Manuela-vende-el-carro.wav,./stim/wavs/cuban_match_declarative-narrow-focus_Manuela-vende-el-carro.wav,./stim/wavs/mexican_match_declarative-narrow-focus_Manuela-vende-el-carro.wav,./stim/wavs/peruvian_match_declarative-narrow-focus_Manuela-vende-el-carro.wav,./stim/wavs/puertorican_match_declarative-narrow-focus_Manuela-vende-el-carro.wav,,,,,,,,,,,,,,,,,,,,,,,,,,,,,,,,,,,,,,,,,,,,,,,,,,,,,,,,
,,,,,,,5dcd91a0b7ebf606d16c971e,60568611ec04488a9e9da93b,6056ac137045a34e645d8fbe,I am not familiar with Spanish,East coast,NA,no,2021-03-20_22h15.44.775,empathy_intonation_perc,2020.2.10,Win32,60,,,,,,,,,,0,chilean,0,1,1.45414,0,62,62,33,1,34,./stim/wavs/andalusian_mismatch_declarative-broad-focus_El-hombre-mira-la-luna.wav,./stim/wavs/argentine_mismatch_declarative-broad-focus_El-hombre-mira-la-luna.wav,./stim/wavs/castilian_mismatch_declarative-broad-focus_El-hombre-mira-la-luna.wav,./stim/wavs/chilean_mismatch_declarative-broad-focus_El-hombre-mira-la-luna.wav,./stim/wavs/cuban_mismatch_declarative-broad-focus_El-hombre-mira-la-luna.wav,./stim/wavs/mexican_mismatch_declarative-broad-focus_El-hombre-mira-la-luna.wav,./stim/wavs/peruvian_mismatch_declarative-broad-focus_El-hombre-mira-la-luna.wav,./stim/wavs/puertorican_mismatch_declarative-broad-focus_El-hombre-mira-la-luna.wav,,,,,,,,,,,,,,,,,,,,,,,,,,,,,,,,,,,,,,,,,,,,,,,,,,,,,,,,
,,,,,,,5dcd91a0b7ebf606d16c971e,60568611ec04488a9e9da93b,6056ac137045a34e645d8fbe,I am not familiar with Spanish,East coast,NA,no,2021-03-20_22h15.44.775,empathy_intonation_perc,2020.2.10,Win32,60,,,,,,,,,,1,puertorican,0,0,1.375445,0,63,63,26,1,27,./stim/wavs/andalusian_match_interrogative-total-yn_David-leia-el-libro.wav,./stim/wavs/argentine_match_interrogative-total-yn_David-leia-el-libro.wav,./stim/wavs/castilian_match_interrogative-total-yn_David-leia-el-libro.wav,./stim/wavs/chilean_match_interrogative-total-yn_David-leia-el-libro.wav,./stim/wavs/cuban_match_interrogative-total-yn_David-leia-el-libro.wav,./stim/wavs/mexican_match_interrogative-total-yn_David-leia-el-libro.wav,./stim/wavs/peruvian_match_interrogative-total-yn_David-leia-el-libro.wav,./stim/wavs/puertorican_match_interrogative-total-yn_David-leia-el-libro.wav,,,,,,,,,,,,,,,,,,,,,,,,,,,,,,,,,,,,,,,,,,,,,,,,,,,,,,,,
,,,,,,,5dcd91a0b7ebf606d16c971e,60568611ec04488a9e9da93b,6056ac137045a34e645d8fbe,I am not familiar with Spanish,East coast,NA,no,2021-03-20_22h15.44.775,empathy_intonation_perc,2020.2.10,Win32,60,,,,,,,,,,,,,,,,,,,,,,,,,,,,,0,0,1.954445,0,0,0,0,1,,,,,,,,,,,,,,,,,,,,,,,,,,,,,,,,,,,,,,,,,,,,,,,,
,,,,,"Great! Now we will move on. The next task consists of about 60 trials, in each of which you will see a string of letters. 
  
  Your task is to decide whether this is a real Spanish word or not.",(press the spacebar to continue),5dcd91a0b7ebf606d16c971e,60568611ec04488a9e9da93b,6056ac137045a34e645d8fbe,I am not familiar with Spanish,East coast,NA,no,2021-03-20_22h15.44.775,empathy_intonation_perc,2020.2.10,Win32,60,,,,,,,,,,,,,,,,,,,,,,,,,,,,,,,,,,,,,0,0,0,0,1,,,,,,,,,,,,,,,,,,,,,,,,,,,,,,,,,,,,,,,,,,,
,,,,,"If you think it is an existing Spanish word, you type '1' (for 'REAL'), and if you think it is not an existing Spanish word, you type '0' (for 'FAKE').",(press the spacebar to continue),5dcd91a0b7ebf606d16c971e,60568611ec04488a9e9da93b,6056ac137045a34e645d8fbe,I am not familiar with Spanish,East coast,NA,no,2021-03-20_22h15.44.775,empathy_intonation_perc,2020.2.10,Win32,60,,,,,,,,,,,,,,,,,,,,,,,,,,,,,,,,,,,,,0,1,1,1,1,,,,,,,,,,,,,,,,,,,,,,,,,,,,,,,,,,,,,,,,,,,
,,,,,"If you are sure that the word exists, even though you dont know its exact meaning, you may still respond '1' (REAL). 
  
  But if you are not sure if it is an existing word, you should respond '0' (FAKE).
  
  Let's do a practice round...",(press the spacebar to continue),5dcd91a0b7ebf606d16c971e,60568611ec04488a9e9da93b,6056ac137045a34e645d8fbe,I am not familiar with Spanish,East coast,NA,no,2021-03-20_22h15.44.775,empathy_intonation_perc,2020.2.10,Win32,60,,,,,,,,,,,,,,,,,,,,,,,,,,,,,,,,,,,,,0,2,2,2,1,,,,,,,,,,,,,,,,,,,,,,,,,,,,,,,,,,,,,,,,,,,
,,,,,,,5dcd91a0b7ebf606d16c971e,60568611ec04488a9e9da93b,6056ac137045a34e645d8fbe,I am not familiar with Spanish,East coast,NA,no,2021-03-20_22h15.44.775,empathy_intonation_perc,2020.2.10,Win32,60,,,,,,,,,,0,,,,,,,,,,,,,,,,,,,,,,,,,,,,,,,,0,1,2.201685,0,0,0,0,1,0,depiste,REAL,FAKE,,,,,,,,,,,,,,,,,,,,,,,,,,,,,,,
,,,,,,,5dcd91a0b7ebf606d16c971e,60568611ec04488a9e9da93b,6056ac137045a34e645d8fbe,I am not familiar with Spanish,East coast,NA,no,2021-03-20_22h15.44.775,empathy_intonation_perc,2020.2.10,Win32,60,,,,,,,,,,1,,,,,,,,,,,,,,,,,,,,,,,,,,,,,,,,1,1,1.08714,0,1,1,1,1,0,s,REAL,FAKE,,,,,,,,,,,,,,,,,,,,,,,,,,,,,,,
,,,,,,,5dcd91a0b7ebf606d16c971e,60568611ec04488a9e9da93b,6056ac137045a34e645d8fbe,I am not familiar with Spanish,East coast,NA,no,2021-03-20_22h15.44.775,empathy_intonation_perc,2020.2.10,Win32,60,,,,,,,,,,0,,,,,,,,,,,,,,,,,,,,,,,,,,,,,,,,0,1,1.26422,0,2,2,2,1,0,con,REAL,FAKE,,,,,,,,,,,,,,,,,,,,,,,,,,,,,,,
,,,,,,,5dcd91a0b7ebf606d16c971e,60568611ec04488a9e9da93b,6056ac137045a34e645d8fbe,I am not familiar with Spanish,East coast,NA,no,2021-03-20_22h15.44.775,empathy_intonation_perc,2020.2.10,Win32,60,,,,,,,,,,0,,,,,,,,,,,,,,,,,,,,,,,,,,,,,,,,0,1,0.6972,0,3,3,3,1,0,calpar,REAL,FAKE,,,,,,,,,,,,,,,,,,,,,,,,,,,,,,,
,,,,,,,5dcd91a0b7ebf606d16c971e,60568611ec04488a9e9da93b,6056ac137045a34e645d8fbe,I am not familiar with Spanish,East coast,NA,no,2021-03-20_22h15.44.775,empathy_intonation_perc,2020.2.10,Win32,60,,,,,,,,,,0,,,,,,,,,,,,,,,,,,,,,,,,,,,,,,,,0,1,0.803265,0,4,4,4,1,0,joten,REAL,FAKE,,,,,,,,,,,,,,,,,,,,,,,,,,,,,,,
,,,,,,,5dcd91a0b7ebf606d16c971e,60568611ec04488a9e9da93b,6056ac137045a34e645d8fbe,I am not familiar with Spanish,East coast,NA,no,2021-03-20_22h15.44.775,empathy_intonation_perc,2020.2.10,Win32,60,,,,,,,,,,1,,,,,,,,,,,,,,,,,,,,,,,,,,,,,,,,0,0,0.555475,0,5,5,5,1,0,sacapuntas,REAL,FAKE,,,,,,,,,,,,,,,,,,,,,,,,,,,,,,,
,,,,,,,5dcd91a0b7ebf606d16c971e,60568611ec04488a9e9da93b,6056ac137045a34e645d8fbe,I am not familiar with Spanish,East coast,NA,no,2021-03-20_22h15.44.775,empathy_intonation_perc,2020.2.10,Win32,60,,,,,,,,,,0,,,,,,,,,,,,,,,,,,,,,,,,,,,,,,,,0,1,0.813175,0,6,6,6,1,0,priba,REAL,FAKE,,,,,,,,,,,,,,,,,,,,,,,,,,,,,,,
,,,,,,,5dcd91a0b7ebf606d16c971e,60568611ec04488a9e9da93b,6056ac137045a34e645d8fbe,I am not familiar with Spanish,East coast,NA,no,2021-03-20_22h15.44.775,empathy_intonation_perc,2020.2.10,Win32,60,,,,,,,,,,0,,,,,,,,,,,,,,,,,,,,,,,,,,,,,,,,0,1,1.009795,0,7,7,7,1,0,pelasula,REAL,FAKE,,,,,,,,,,,,,,,,,,,,,,,,,,,,,,,
,,,,,,,5dcd91a0b7ebf606d16c971e,60568611ec04488a9e9da93b,6056ac137045a34e645d8fbe,I am not familiar with Spanish,East coast,NA,no,2021-03-20_22h15.44.775,empathy_intonation_perc,2020.2.10,Win32,60,,,,,,,,,,1,,,,,,,,,,,,,,,,,,,,,,,,,,,,,,,,1,1,0.97921,0,8,8,8,1,0,bien,REAL,FAKE,,,,,,,,,,,,,,,,,,,,,,,,,,,,,,,
,,,,,,,5dcd91a0b7ebf606d16c971e,60568611ec04488a9e9da93b,6056ac137045a34e645d8fbe,I am not familiar with Spanish,East coast,NA,no,2021-03-20_22h15.44.775,empathy_intonation_perc,2020.2.10,Win32,60,,,,,,,,,,1,,,,,,,,,,,,,,,,,,,,,,,,,,,,,,,,1,1,0.6205,0,9,9,9,1,0,casa,REAL,FAKE,,,,,,,,,,,,,,,,,,,,,,,,,,,,,,,
,,,,,,,5dcd91a0b7ebf606d16c971e,60568611ec04488a9e9da93b,6056ac137045a34e645d8fbe,I am not familiar with Spanish,East coast,NA,no,2021-03-20_22h15.44.775,empathy_intonation_perc,2020.2.10,Win32,60,,,,,,,,,,0,,,,,,,,,,,,,,,,,,,,,,,,,,,,,,,,0,1,0.825255,0,10,10,10,1,0,lejo,REAL,FAKE,,,,,,,,,,,,,,,,,,,,,,,,,,,,,,,
,,,,,,,5dcd91a0b7ebf606d16c971e,60568611ec04488a9e9da93b,6056ac137045a34e645d8fbe,I am not familiar with Spanish,East coast,NA,no,2021-03-20_22h15.44.775,empathy_intonation_perc,2020.2.10,Win32,60,,,,,,,,,,0,,,,,,,,,,,,,,,,,,,,,,,,,,,,,,,,0,1,0.59568,0,11,11,11,1,0,pretantas,REAL,FAKE,,,,,,,,,,,,,,,,,,,,,,,,,,,,,,,
,,,,,,,5dcd91a0b7ebf606d16c971e,60568611ec04488a9e9da93b,6056ac137045a34e645d8fbe,I am not familiar with Spanish,East coast,NA,no,2021-03-20_22h15.44.775,empathy_intonation_perc,2020.2.10,Win32,60,,,,,,,,,,1,,,,,,,,,,,,,,,,,,,,,,,,,,,,,,,,,,,,,,,,80,hormiga,,,0,0,0.80357,0,0,0,79,1,REAL,FAKE,,,,,,,,,,,,,,,,,,,,,
,,,,,,,5dcd91a0b7ebf606d16c971e,60568611ec04488a9e9da93b,6056ac137045a34e645d8fbe,I am not familiar with Spanish,East coast,NA,no,2021-03-20_22h15.44.775,empathy_intonation_perc,2020.2.10,Win32,60,,,,,,,,,,0,,,,,,,,,,,,,,,,,,,,,,,,,,,,,,,,,,,,,,,,23,lampera,,,1,0,0.889655,0,1,1,22,1,REAL,FAKE,,,,,,,,,,,,,,,,,,,,,
,,,,,,,5dcd91a0b7ebf606d16c971e,60568611ec04488a9e9da93b,6056ac137045a34e645d8fbe,I am not familiar with Spanish,East coast,NA,no,2021-03-20_22h15.44.775,empathy_intonation_perc,2020.2.10,Win32,60,,,,,,,,,,0,,,,,,,,,,,,,,,,,,,,,,,,,,,,,,,,,,,,,,,,10,antar,,,0,1,0.53967,0,2,2,9,1,REAL,FAKE,,,,,,,,,,,,,,,,,,,,,
,,,,,,,5dcd91a0b7ebf606d16c971e,60568611ec04488a9e9da93b,6056ac137045a34e645d8fbe,I am not familiar with Spanish,East coast,NA,no,2021-03-20_22h15.44.775,empathy_intonation_perc,2020.2.10,Win32,60,,,,,,,,,,1,,,,,,,,,,,,,,,,,,,,,,,,,,,,,,,,,,,,,,,,14,yunque,,,0,0,0.571725,0,3,3,13,1,REAL,FAKE,,,,,,,,,,,,,,,,,,,,,
,,,,,,,5dcd91a0b7ebf606d16c971e,60568611ec04488a9e9da93b,6056ac137045a34e645d8fbe,I am not familiar with Spanish,East coast,NA,no,2021-03-20_22h15.44.775,empathy_intonation_perc,2020.2.10,Win32,60,,,,,,,,,,1,,,,,,,,,,,,,,,,,,,,,,,,,,,,,,,,,,,,,,,,25,bisagra,,,0,0,0.58496,0,4,4,24,1,REAL,FAKE,,,,,,,,,,,,,,,,,,,,,
,,,,,,,5dcd91a0b7ebf606d16c971e,60568611ec04488a9e9da93b,6056ac137045a34e645d8fbe,I am not familiar with Spanish,East coast,NA,no,2021-03-20_22h15.44.775,empathy_intonation_perc,2020.2.10,Win32,60,,,,,,,,,,1,,,,,,,,,,,,,,,,,,,,,,,,,,,,,,,,,,,,,,,,34,aviso,,,0,0,0.78922,0,5,5,33,1,REAL,FAKE,,,,,,,,,,,,,,,,,,,,,
,,,,,,,5dcd91a0b7ebf606d16c971e,60568611ec04488a9e9da93b,6056ac137045a34e645d8fbe,I am not familiar with Spanish,East coast,NA,no,2021-03-20_22h15.44.775,empathy_intonation_perc,2020.2.10,Win32,60,,,,,,,,,,1,,,,,,,,,,,,,,,,,,,,,,,,,,,,,,,,,,,,,,,,45,jilguero,,,0,0,0.63555,0,6,6,44,1,REAL,FAKE,,,,,,,,,,,,,,,,,,,,,
,,,,,,,5dcd91a0b7ebf606d16c971e,60568611ec04488a9e9da93b,6056ac137045a34e645d8fbe,I am not familiar with Spanish,East coast,NA,no,2021-03-20_22h15.44.775,empathy_intonation_perc,2020.2.10,Win32,60,,,,,,,,,,1,,,,,,,,,,,,,,,,,,,,,,,,,,,,,,,,,,,,,,,,55,nevar,,,0,0,0.896205,0,7,7,54,1,REAL,FAKE,,,,,,,,,,,,,,,,,,,,,
,,,,,,,5dcd91a0b7ebf606d16c971e,60568611ec04488a9e9da93b,6056ac137045a34e645d8fbe,I am not familiar with Spanish,East coast,NA,no,2021-03-20_22h15.44.775,empathy_intonation_perc,2020.2.10,Win32,60,,,,,,,,,,1,,,,,,,,,,,,,,,,,,,,,,,,,,,,,,,,,,,,,,,,57,tacao,,,0,0,0.72779,0,8,8,56,1,REAL,FAKE,,,,,,,,,,,,,,,,,,,,,
,,,,,,,5dcd91a0b7ebf606d16c971e,60568611ec04488a9e9da93b,6056ac137045a34e645d8fbe,I am not familiar with Spanish,East coast,NA,no,2021-03-20_22h15.44.775,empathy_intonation_perc,2020.2.10,Win32,60,,,,,,,,,,0,,,,,,,,,,,,,,,,,,,,,,,,,,,,,,,,,,,,,,,,70,temblo,,,0,1,0.76587,0,9,9,69,1,REAL,FAKE,,,,,,,,,,,,,,,,,,,,,
,,,,,,,5dcd91a0b7ebf606d16c971e,60568611ec04488a9e9da93b,6056ac137045a34e645d8fbe,I am not familiar with Spanish,East coast,NA,no,2021-03-20_22h15.44.775,empathy_intonation_perc,2020.2.10,Win32,60,,,,,,,,,,1,,,,,,,,,,,,,,,,,,,,,,,,,,,,,,,,,,,,,,,,85,lad,,,0,0,0.59453,0,10,10,84,1,REAL,FAKE,,,,,,,,,,,,,,,,,,,,,
,,,,,,,5dcd91a0b7ebf606d16c971e,60568611ec04488a9e9da93b,6056ac137045a34e645d8fbe,I am not familiar with Spanish,East coast,NA,no,2021-03-20_22h15.44.775,empathy_intonation_perc,2020.2.10,Win32,60,,,,,,,,,,1,,,,,,,,,,,,,,,,,,,,,,,,,,,,,,,,,,,,,,,,59,besar,,,0,0,0.644725,0,11,11,58,1,REAL,FAKE,,,,,,,,,,,,,,,,,,,,,
,,,,,,,5dcd91a0b7ebf606d16c971e,60568611ec04488a9e9da93b,6056ac137045a34e645d8fbe,I am not familiar with Spanish,East coast,NA,no,2021-03-20_22h15.44.775,empathy_intonation_perc,2020.2.10,Win32,60,,,,,,,,,,1,,,,,,,,,,,,,,,,,,,,,,,,,,,,,,,,,,,,,,,,69,engatusar,,,0,0,0.51578,0,12,12,68,1,REAL,FAKE,,,,,,,,,,,,,,,,,,,,,
,,,,,,,5dcd91a0b7ebf606d16c971e,60568611ec04488a9e9da93b,6056ac137045a34e645d8fbe,I am not familiar with Spanish,East coast,NA,no,2021-03-20_22h15.44.775,empathy_intonation_perc,2020.2.10,Win32,60,,,,,,,,,,1,,,,,,,,,,,,,,,,,,,,,,,,,,,,,,,,,,,,,,,,90,clavel,,,0,0,0.785505,0,13,13,89,1,REAL,FAKE,,,,,,,,,,,,,,,,,,,,,
,,,,,,,5dcd91a0b7ebf606d16c971e,60568611ec04488a9e9da93b,6056ac137045a34e645d8fbe,I am not familiar with Spanish,East coast,NA,no,2021-03-20_22h15.44.775,empathy_intonation_perc,2020.2.10,Win32,60,,,,,,,,,,1,,,,,,,,,,,,,,,,,,,,,,,,,,,,,,,,,,,,,,,,39,torpe,,,0,0,0.72715,0,14,14,38,1,REAL,FAKE,,,,,,,,,,,,,,,,,,,,,
,,,,,,,5dcd91a0b7ebf606d16c971e,60568611ec04488a9e9da93b,6056ac137045a34e645d8fbe,I am not familiar with Spanish,East coast,NA,no,2021-03-20_22h15.44.775,empathy_intonation_perc,2020.2.10,Win32,60,,,,,,,,,,1,,,,,,,,,,,,,,,,,,,,,,,,,,,,,,,,,,,,,,,,2,pellizcar,,,0,0,0.71655,0,15,15,1,1,REAL,FAKE,,,,,,,,,,,,,,,,,,,,,
,,,,,,,5dcd91a0b7ebf606d16c971e,60568611ec04488a9e9da93b,6056ac137045a34e645d8fbe,I am not familiar with Spanish,East coast,NA,no,2021-03-20_22h15.44.775,empathy_intonation_perc,2020.2.10,Win32,60,,,,,,,,,,1,,,,,,,,,,,,,,,,,,,,,,,,,,,,,,,,,,,,,,,,77,tiburn,,,1,1,0.74778,0,16,16,76,1,REAL,FAKE,,,,,,,,,,,,,,,,,,,,,
,,,,,,,5dcd91a0b7ebf606d16c971e,60568611ec04488a9e9da93b,6056ac137045a34e645d8fbe,I am not familiar with Spanish,East coast,NA,no,2021-03-20_22h15.44.775,empathy_intonation_perc,2020.2.10,Win32,60,,,,,,,,,,1,,,,,,,,,,,,,,,,,,,,,,,,,,,,,,,,,,,,,,,,49,ganar,,,0,0,1.383245,0,17,17,48,1,REAL,FAKE,,,,,,,,,,,,,,,,,,,,,
,,,,,,,5dcd91a0b7ebf606d16c971e,60568611ec04488a9e9da93b,6056ac137045a34e645d8fbe,I am not familiar with Spanish,East coast,NA,no,2021-03-20_22h15.44.775,empathy_intonation_perc,2020.2.10,Win32,60,,,,,,,,,,1,,,,,,,,,,,,,,,,,,,,,,,,,,,,,,,,,,,,,,,,89,prisa,,,0,0,0.81075,0,18,18,88,1,REAL,FAKE,,,,,,,,,,,,,,,,,,,,,
,,,,,,,5dcd91a0b7ebf606d16c971e,60568611ec04488a9e9da93b,6056ac137045a34e645d8fbe,I am not familiar with Spanish,East coast,NA,no,2021-03-20_22h15.44.775,empathy_intonation_perc,2020.2.10,Win32,60,,,,,,,,,,1,,,,,,,,,,,,,,,,,,,,,,,,,,,,,,,,,,,,,,,,7,psimo,,,1,1,0.74898,0,19,19,6,1,REAL,FAKE,,,,,,,,,,,,,,,,,,,,,
,,,,,,,5dcd91a0b7ebf606d16c971e,60568611ec04488a9e9da93b,6056ac137045a34e645d8fbe,I am not familiar with Spanish,East coast,NA,no,2021-03-20_22h15.44.775,empathy_intonation_perc,2020.2.10,Win32,60,,,,,,,,,,1,,,,,,,,,,,,,,,,,,,,,,,,,,,,,,,,,,,,,,,,3,pulmones,,,0,0,0.72236,0,20,20,2,1,REAL,FAKE,,,,,,,,,,,,,,,,,,,,,
,,,,,,,5dcd91a0b7ebf606d16c971e,60568611ec04488a9e9da93b,6056ac137045a34e645d8fbe,I am not familiar with Spanish,East coast,NA,no,2021-03-20_22h15.44.775,empathy_intonation_perc,2020.2.10,Win32,60,,,,,,,,,,1,,,,,,,,,,,,,,,,,,,,,,,,,,,,,,,,,,,,,,,,6,tergiversar,,,0,0,0.668045,0,21,21,5,1,REAL,FAKE,,,,,,,,,,,,,,,,,,,,,
,,,,,,,5dcd91a0b7ebf606d16c971e,60568611ec04488a9e9da93b,6056ac137045a34e645d8fbe,I am not familiar with Spanish,East coast,NA,no,2021-03-20_22h15.44.775,empathy_intonation_perc,2020.2.10,Win32,60,,,,,,,,,,0,,,,,,,,,,,,,,,,,,,,,,,,,,,,,,,,,,,,,,,,58,plaudir,,,1,0,0.54935,0,22,22,57,1,REAL,FAKE,,,,,,,,,,,,,,,,,,,,,
,,,,,,,5dcd91a0b7ebf606d16c971e,60568611ec04488a9e9da93b,6056ac137045a34e645d8fbe,I am not familiar with Spanish,East coast,NA,no,2021-03-20_22h15.44.775,empathy_intonation_perc,2020.2.10,Win32,60,,,,,,,,,,0,,,,,,,,,,,,,,,,,,,,,,,,,,,,,,,,,,,,,,,,32,fatacidad,,,0,1,0.696925,0,23,23,31,1,REAL,FAKE,,,,,,,,,,,,,,,,,,,,,
,,,,,,,5dcd91a0b7ebf606d16c971e,60568611ec04488a9e9da93b,6056ac137045a34e645d8fbe,I am not familiar with Spanish,East coast,NA,no,2021-03-20_22h15.44.775,empathy_intonation_perc,2020.2.10,Win32,60,,,,,,,,,,0,,,,,,,,,,,,,,,,,,,,,,,,,,,,,,,,,,,,,,,,84,escuto,,,0,1,0.440085,0,24,24,83,1,REAL,FAKE,,,,,,,,,,,,,,,,,,,,,
,,,,,,,5dcd91a0b7ebf606d16c971e,60568611ec04488a9e9da93b,6056ac137045a34e645d8fbe,I am not familiar with Spanish,East coast,NA,no,2021-03-20_22h15.44.775,empathy_intonation_perc,2020.2.10,Win32,60,,,,,,,,,,1,,,,,,,,,,,,,,,,,,,,,,,,,,,,,,,,,,,,,,,,9,hacha,,,0,0,0.579225,0,25,25,8,1,REAL,FAKE,,,,,,,,,,,,,,,,,,,,,
,,,,,,,5dcd91a0b7ebf606d16c971e,60568611ec04488a9e9da93b,6056ac137045a34e645d8fbe,I am not familiar with Spanish,East coast,NA,no,2021-03-20_22h15.44.775,empathy_intonation_perc,2020.2.10,Win32,60,,,,,,,,,,0,,,,,,,,,,,,,,,,,,,,,,,,,,,,,,,,,,,,,,,,66,hacido,,,0,1,0.41069,0,26,26,65,1,REAL,FAKE,,,,,,,,,,,,,,,,,,,,,
,,,,,,,5dcd91a0b7ebf606d16c971e,60568611ec04488a9e9da93b,6056ac137045a34e645d8fbe,I am not familiar with Spanish,East coast,NA,no,2021-03-20_22h15.44.775,empathy_intonation_perc,2020.2.10,Win32,60,,,,,,,,,,0,,,,,,,,,,,,,,,,,,,,,,,,,,,,,,,,,,,,,,,,21,capillo,,,0,1,0.67323,0,27,27,20,1,REAL,FAKE,,,,,,,,,,,,,,,,,,,,,
,,,,,,,5dcd91a0b7ebf606d16c971e,60568611ec04488a9e9da93b,6056ac137045a34e645d8fbe,I am not familiar with Spanish,East coast,NA,no,2021-03-20_22h15.44.775,empathy_intonation_perc,2020.2.10,Win32,60,,,,,,,,,,1,,,,,,,,,,,,,,,,,,,,,,,,,,,,,,,,,,,,,,,,51,candado,,,0,0,0.57567,0,28,28,50,1,REAL,FAKE,,,,,,,,,,,,,,,,,,,,,
,,,,,,,5dcd91a0b7ebf606d16c971e,60568611ec04488a9e9da93b,6056ac137045a34e645d8fbe,I am not familiar with Spanish,East coast,NA,no,2021-03-20_22h15.44.775,empathy_intonation_perc,2020.2.10,Win32,60,,,,,,,,,,1,,,,,,,,,,,,,,,,,,,,,,,,,,,,,,,,,,,,,,,,81,pozo,,,0,0,0.614675,0,29,29,80,1,REAL,FAKE,,,,,,,,,,,,,,,,,,,,,
,,,,,,,5dcd91a0b7ebf606d16c971e,60568611ec04488a9e9da93b,6056ac137045a34e645d8fbe,I am not familiar with Spanish,East coast,NA,no,2021-03-20_22h15.44.775,empathy_intonation_perc,2020.2.10,Win32,60,,,,,,,,,,0,,,,,,,,,,,,,,,,,,,,,,,,,,,,,,,,,,,,,,,,74,cintro,,,0,1,0.556515,0,30,30,73,1,REAL,FAKE,,,,,,,,,,,,,,,,,,,,,
,,,,,,,5dcd91a0b7ebf606d16c971e,60568611ec04488a9e9da93b,6056ac137045a34e645d8fbe,I am not familiar with Spanish,East coast,NA,no,2021-03-20_22h15.44.775,empathy_intonation_perc,2020.2.10,Win32,60,,,,,,,,,,1,,,,,,,,,,,,,,,,,,,,,,,,,,,,,,,,,,,,,,,,12,asesinato,,,0,0,1.19882,0,31,31,11,1,REAL,FAKE,,,,,,,,,,,,,,,,,,,,,
,,,,,,,5dcd91a0b7ebf606d16c971e,60568611ec04488a9e9da93b,6056ac137045a34e645d8fbe,I am not familiar with Spanish,East coast,NA,no,2021-03-20_22h15.44.775,empathy_intonation_perc,2020.2.10,Win32,60,,,,,,,,,,1,,,,,,,,,,,,,,,,,,,,,,,,,,,,,,,,,,,,,,,,71,polvoriento,,,0,0,0.789665,0,32,32,70,1,REAL,FAKE,,,,,,,,,,,,,,,,,,,,,
,,,,,,,5dcd91a0b7ebf606d16c971e,60568611ec04488a9e9da93b,6056ac137045a34e645d8fbe,I am not familiar with Spanish,East coast,NA,no,2021-03-20_22h15.44.775,empathy_intonation_perc,2020.2.10,Win32,60,,,,,,,,,,1,,,,,,,,,,,,,,,,,,,,,,,,,,,,,,,,,,,,,,,,67,cabello,,,1,1,0.849785,0,33,33,66,1,REAL,FAKE,,,,,,,,,,,,,,,,,,,,,
,,,,,,,5dcd91a0b7ebf606d16c971e,60568611ec04488a9e9da93b,6056ac137045a34e645d8fbe,I am not familiar with Spanish,East coast,NA,no,2021-03-20_22h15.44.775,empathy_intonation_perc,2020.2.10,Win32,60,,,,,,,,,,1,,,,,,,,,,,,,,,,,,,,,,,,,,,,,,,,,,,,,,,,37,granuja,,,1,1,1.09508,0,34,34,36,1,REAL,FAKE,,,,,,,,,,,,,,,,,,,,,
,,,,,,,5dcd91a0b7ebf606d16c971e,60568611ec04488a9e9da93b,6056ac137045a34e645d8fbe,I am not familiar with Spanish,East coast,NA,no,2021-03-20_22h15.44.775,empathy_intonation_perc,2020.2.10,Win32,60,,,,,,,,,,1,,,,,,,,,,,,,,,,,,,,,,,,,,,,,,,,,,,,,,,,56,musgo,,,0,0,0.52326,0,35,35,55,1,REAL,FAKE,,,,,,,,,,,,,,,,,,,,,
,,,,,,,5dcd91a0b7ebf606d16c971e,60568611ec04488a9e9da93b,6056ac137045a34e645d8fbe,I am not familiar with Spanish,East coast,NA,no,2021-03-20_22h15.44.775,empathy_intonation_perc,2020.2.10,Win32,60,,,,,,,,,,1,,,,,,,,,,,,,,,,,,,,,,,,,,,,,,,,,,,,,,,,40,alfombra,,,0,0,0.869825,0,36,36,39,1,REAL,FAKE,,,,,,,,,,,,,,,,,,,,,
,,,,,,,5dcd91a0b7ebf606d16c971e,60568611ec04488a9e9da93b,6056ac137045a34e645d8fbe,I am not familiar with Spanish,East coast,NA,no,2021-03-20_22h15.44.775,empathy_intonation_perc,2020.2.10,Win32,60,,,,,,,,,,1,,,,,,,,,,,,,,,,,,,,,,,,,,,,,,,,,,,,,,,,5,zapato,,,1,1,0.653245,0,37,37,4,1,REAL,FAKE,,,,,,,,,,,,,,,,,,,,,
,,,,,,,5dcd91a0b7ebf606d16c971e,60568611ec04488a9e9da93b,6056ac137045a34e645d8fbe,I am not familiar with Spanish,East coast,NA,no,2021-03-20_22h15.44.775,empathy_intonation_perc,2020.2.10,Win32,60,,,,,,,,,,1,,,,,,,,,,,,,,,,,,,,,,,,,,,,,,,,,,,,,,,,46,martillo,,,0,0,1.15194,0,38,38,45,1,REAL,FAKE,,,,,,,,,,,,,,,,,,,,,
,,,,,,,5dcd91a0b7ebf606d16c971e,60568611ec04488a9e9da93b,6056ac137045a34e645d8fbe,I am not familiar with Spanish,East coast,NA,no,2021-03-20_22h15.44.775,empathy_intonation_perc,2020.2.10,Win32,60,,,,,,,,,,1,,,,,,,,,,,,,,,,,,,,,,,,,,,,,,,,,,,,,,,,13,helar,,,0,0,0.60178,0,39,39,12,1,REAL,FAKE,,,,,,,,,,,,,,,,,,,,,
,,,,,,,5dcd91a0b7ebf606d16c971e,60568611ec04488a9e9da93b,6056ac137045a34e645d8fbe,I am not familiar with Spanish,East coast,NA,no,2021-03-20_22h15.44.775,empathy_intonation_perc,2020.2.10,Win32,60,,,,,,,,,,0,,,,,,,,,,,,,,,,,,,,,,,,,,,,,,,,,,,,,,,,29,decar,,,1,0,0.68218,0,40,40,28,1,REAL,FAKE,,,,,,,,,,,,,,,,,,,,,
,,,,,,,5dcd91a0b7ebf606d16c971e,60568611ec04488a9e9da93b,6056ac137045a34e645d8fbe,I am not familiar with Spanish,East coast,NA,no,2021-03-20_22h15.44.775,empathy_intonation_perc,2020.2.10,Win32,60,,,,,,,,,,0,,,,,,,,,,,,,,,,,,,,,,,,,,,,,,,,,,,,,,,,33,pauca,,,1,0,0.962415,0,41,41,32,1,REAL,FAKE,,,,,,,,,,,,,,,,,,,,,
,,,,,,,5dcd91a0b7ebf606d16c971e,60568611ec04488a9e9da93b,6056ac137045a34e645d8fbe,I am not familiar with Spanish,East coast,NA,no,2021-03-20_22h15.44.775,empathy_intonation_perc,2020.2.10,Win32,60,,,,,,,,,,0,,,,,,,,,,,,,,,,,,,,,,,,,,,,,,,,,,,,,,,,16,abracer,,,0,1,0.474155,0,42,42,15,1,REAL,FAKE,,,,,,,,,,,,,,,,,,,,,
,,,,,,,5dcd91a0b7ebf606d16c971e,60568611ec04488a9e9da93b,6056ac137045a34e645d8fbe,I am not familiar with Spanish,East coast,NA,no,2021-03-20_22h15.44.775,empathy_intonation_perc,2020.2.10,Win32,60,,,,,,,,,,0,,,,,,,,,,,,,,,,,,,,,,,,,,,,,,,,,,,,,,,,42,cadallo,,,0,1,0.53495,0,43,43,41,1,REAL,FAKE,,,,,,,,,,,,,,,,,,,,,
,,,,,,,5dcd91a0b7ebf606d16c971e,60568611ec04488a9e9da93b,6056ac137045a34e645d8fbe,I am not familiar with Spanish,East coast,NA,no,2021-03-20_22h15.44.775,empathy_intonation_perc,2020.2.10,Win32,60,,,,,,,,,,1,,,,,,,,,,,,,,,,,,,,,,,,,,,,,,,,,,,,,,,,78,frondoso,,,0,0,0.562415,0,44,44,77,1,REAL,FAKE,,,,,,,,,,,,,,,,,,,,,
,,,,,,,5dcd91a0b7ebf606d16c971e,60568611ec04488a9e9da93b,6056ac137045a34e645d8fbe,I am not familiar with Spanish,East coast,NA,no,2021-03-20_22h15.44.775,empathy_intonation_perc,2020.2.10,Win32,60,,,,,,,,,,0,,,,,,,,,,,,,,,,,,,,,,,,,,,,,,,,,,,,,,,,8,cadea,,,0,1,0.63338,0,45,45,7,1,REAL,FAKE,,,,,,,,,,,,,,,,,,,,,
,,,,,,,5dcd91a0b7ebf606d16c971e,60568611ec04488a9e9da93b,6056ac137045a34e645d8fbe,I am not familiar with Spanish,East coast,NA,no,2021-03-20_22h15.44.775,empathy_intonation_perc,2020.2.10,Win32,60,,,,,,,,,,0,,,,,,,,,,,,,,,,,,,,,,,,,,,,,,,,,,,,,,,,72,pemicin,,,0,1,0.64969,0,46,46,71,1,REAL,FAKE,,,,,,,,,,,,,,,,,,,,,
,,,,,,,5dcd91a0b7ebf606d16c971e,60568611ec04488a9e9da93b,6056ac137045a34e645d8fbe,I am not familiar with Spanish,East coast,NA,no,2021-03-20_22h15.44.775,empathy_intonation_perc,2020.2.10,Win32,60,,,,,,,,,,1,,,,,,,,,,,,,,,,,,,,,,,,,,,,,,,,,,,,,,,,64,orgulloso,,,1,1,0.433695,0,47,47,63,1,REAL,FAKE,,,,,,,,,,,,,,,,,,,,,
,,,,,,,5dcd91a0b7ebf606d16c971e,60568611ec04488a9e9da93b,6056ac137045a34e645d8fbe,I am not familiar with Spanish,East coast,NA,no,2021-03-20_22h15.44.775,empathy_intonation_perc,2020.2.10,Win32,60,,,,,,,,,,0,,,,,,,,,,,,,,,,,,,,,,,,,,,,,,,,,,,,,,,,79,tropaje,,,0,1,0.568725,0,48,48,78,1,REAL,FAKE,,,,,,,,,,,,,,,,,,,,,
,,,,,,,5dcd91a0b7ebf606d16c971e,60568611ec04488a9e9da93b,6056ac137045a34e645d8fbe,I am not familiar with Spanish,East coast,NA,no,2021-03-20_22h15.44.775,empathy_intonation_perc,2020.2.10,Win32,60,,,,,,,,,,0,,,,,,,,,,,,,,,,,,,,,,,,,,,,,,,,,,,,,,,,18,arsa,,,0,1,0.82973,0,49,49,17,1,REAL,FAKE,,,,,,,,,,,,,,,,,,,,,
,,,,,,,5dcd91a0b7ebf606d16c971e,60568611ec04488a9e9da93b,6056ac137045a34e645d8fbe,I am not familiar with Spanish,East coast,NA,no,2021-03-20_22h15.44.775,empathy_intonation_perc,2020.2.10,Win32,60,,,,,,,,,,0,,,,,,,,,,,,,,,,,,,,,,,,,,,,,,,,,,,,,,,,1,terzo,,,0,1,0.621195,0,50,50,0,1,REAL,FAKE,,,,,,,,,,,,,,,,,,,,,
,,,,,,,5dcd91a0b7ebf606d16c971e,60568611ec04488a9e9da93b,6056ac137045a34e645d8fbe,I am not familiar with Spanish,East coast,NA,no,2021-03-20_22h15.44.775,empathy_intonation_perc,2020.2.10,Win32,60,,,,,,,,,,0,,,,,,,,,,,,,,,,,,,,,,,,,,,,,,,,,,,,,,,,63,esposante,,,1,0,0.771085,0,51,51,62,1,REAL,FAKE,,,,,,,,,,,,,,,,,,,,,
,,,,,,,5dcd91a0b7ebf606d16c971e,60568611ec04488a9e9da93b,6056ac137045a34e645d8fbe,I am not familiar with Spanish,East coast,NA,no,2021-03-20_22h15.44.775,empathy_intonation_perc,2020.2.10,Win32,60,,,,,,,,,,1,,,,,,,,,,,,,,,,,,,,,,,,,,,,,,,,,,,,,,,,48,ladrn,,,0,0,0.733335,0,52,52,47,1,REAL,FAKE,,,,,,,,,,,,,,,,,,,,,
,,,,,,,5dcd91a0b7ebf606d16c971e,60568611ec04488a9e9da93b,6056ac137045a34e645d8fbe,I am not familiar with Spanish,East coast,NA,no,2021-03-20_22h15.44.775,empathy_intonation_perc,2020.2.10,Win32,60,,,,,,,,,,0,,,,,,,,,,,,,,,,,,,,,,,,,,,,,,,,,,,,,,,,47,cartinar,,,0,1,0.614805,0,53,53,46,1,REAL,FAKE,,,,,,,,,,,,,,,,,,,,,
,,,,,,,5dcd91a0b7ebf606d16c971e,60568611ec04488a9e9da93b,6056ac137045a34e645d8fbe,I am not familiar with Spanish,East coast,NA,no,2021-03-20_22h15.44.775,empathy_intonation_perc,2020.2.10,Win32,60,,,,,,,,,,1,,,,,,,,,,,,,,,,,,,,,,,,,,,,,,,,,,,,,,,,41,rebuscar,,,0,0,0.668565,0,54,54,40,1,REAL,FAKE,,,,,,,,,,,,,,,,,,,,,
,,,,,,,5dcd91a0b7ebf606d16c971e,60568611ec04488a9e9da93b,6056ac137045a34e645d8fbe,I am not familiar with Spanish,East coast,NA,no,2021-03-20_22h15.44.775,empathy_intonation_perc,2020.2.10,Win32,60,,,,,,,,,,0,,,,,,,,,,,,,,,,,,,,,,,,,,,,,,,,,,,,,,,,50,flamida,,,0,1,0.58173,0,55,55,49,1,REAL,FAKE,,,,,,,,,,,,,,,,,,,,,
,,,,,,,5dcd91a0b7ebf606d16c971e,60568611ec04488a9e9da93b,6056ac137045a34e645d8fbe,I am not familiar with Spanish,East coast,NA,no,2021-03-20_22h15.44.775,empathy_intonation_perc,2020.2.10,Win32,60,,,,,,,,,,1,,,,,,,,,,,,,,,,,,,,,,,,,,,,,,,,,,,,,,,,31,pandilla,,,1,1,0.66266,0,56,56,30,1,REAL,FAKE,,,,,,,,,,,,,,,,,,,,,
,,,,,,,5dcd91a0b7ebf606d16c971e,60568611ec04488a9e9da93b,6056ac137045a34e645d8fbe,I am not familiar with Spanish,East coast,NA,no,2021-03-20_22h15.44.775,empathy_intonation_perc,2020.2.10,Win32,60,,,,,,,,,,1,,,,,,,,,,,,,,,,,,,,,,,,,,,,,,,,,,,,,,,,73,hervidor,,,0,0,0.663005,0,57,57,72,1,REAL,FAKE,,,,,,,,,,,,,,,,,,,,,
,,,,,,,5dcd91a0b7ebf606d16c971e,60568611ec04488a9e9da93b,6056ac137045a34e645d8fbe,I am not familiar with Spanish,East coast,NA,no,2021-03-20_22h15.44.775,empathy_intonation_perc,2020.2.10,Win32,60,,,,,,,,,,1,,,,,,,,,,,,,,,,,,,,,,,,,,,,,,,,,,,,,,,,52,camisa,,,0,0,0.429635,0,58,58,51,1,REAL,FAKE,,,,,,,,,,,,,,,,,,,,,
,,,,,,,5dcd91a0b7ebf606d16c971e,60568611ec04488a9e9da93b,6056ac137045a34e645d8fbe,I am not familiar with Spanish,East coast,NA,no,2021-03-20_22h15.44.775,empathy_intonation_perc,2020.2.10,Win32,60,,,,,,,,,,1,,,,,,,,,,,,,,,,,,,,,,,,,,,,,,,,,,,,,,,,68,alegre,,,1,1,0.882035,0,59,59,67,1,REAL,FAKE,,,,,,,,,,,,,,,,,,,,,
,,,,,,,5dcd91a0b7ebf606d16c971e,60568611ec04488a9e9da93b,6056ac137045a34e645d8fbe,I am not familiar with Spanish,East coast,NA,no,2021-03-20_22h15.44.775,empathy_intonation_perc,2020.2.10,Win32,60,,,,,,,,,,1,,,,,,,,,,,,,,,,,,,,,,,,,,,,,,,,,,,,,,,,65,bizcocho,,,0,0,0.664835,0,60,60,64,1,REAL,FAKE,,,,,,,,,,,,,,,,,,,,,
,,,,,,,5dcd91a0b7ebf606d16c971e,60568611ec04488a9e9da93b,6056ac137045a34e645d8fbe,I am not familiar with Spanish,East coast,NA,no,2021-03-20_22h15.44.775,empathy_intonation_perc,2020.2.10,Win32,60,,,,,,,,,,1,,,,,,,,,,,,,,,,,,,,,,,,,,,,,,,,,,,,,,,,62,flaco,,,0,0,0.4287,0,61,61,61,1,REAL,FAKE,,,,,,,,,,,,,,,,,,,,,
,,,,,,,5dcd91a0b7ebf606d16c971e,60568611ec04488a9e9da93b,6056ac137045a34e645d8fbe,I am not familiar with Spanish,East coast,NA,no,2021-03-20_22h15.44.775,empathy_intonation_perc,2020.2.10,Win32,60,,,,,,,,,,1,,,,,,,,,,,,,,,,,,,,,,,,,,,,,,,,,,,,,,,,15,regar,,,1,1,0.451025,0,62,62,14,1,REAL,FAKE,,,,,,,,,,,,,,,,,,,,,
,,,,,,,5dcd91a0b7ebf606d16c971e,60568611ec04488a9e9da93b,6056ac137045a34e645d8fbe,I am not familiar with Spanish,East coast,NA,no,2021-03-20_22h15.44.775,empathy_intonation_perc,2020.2.10,Win32,60,,,,,,,,,,0,,,,,,,,,,,,,,,,,,,,,,,,,,,,,,,,,,,,,,,,30,alardio,,,0,1,0.614715,0,63,63,29,1,REAL,FAKE,,,,,,,,,,,,,,,,,,,,,
,,,,,,,5dcd91a0b7ebf606d16c971e,60568611ec04488a9e9da93b,6056ac137045a34e645d8fbe,I am not familiar with Spanish,East coast,NA,no,2021-03-20_22h15.44.775,empathy_intonation_perc,2020.2.10,Win32,60,,,,,,,,,,0,,,,,,,,,,,,,,,,,,,,,,,,,,,,,,,,,,,,,,,,27,acutacin,,,0,1,0.40293,0,64,64,26,1,REAL,FAKE,,,,,,,,,,,,,,,,,,,,,
,,,,,,,5dcd91a0b7ebf606d16c971e,60568611ec04488a9e9da93b,6056ac137045a34e645d8fbe,I am not familiar with Spanish,East coast,NA,no,2021-03-20_22h15.44.775,empathy_intonation_perc,2020.2.10,Win32,60,,,,,,,,,,0,,,,,,,,,,,,,,,,,,,,,,,,,,,,,,,,,,,,,,,,4,batilln,,,0,1,0.43158,0,65,65,3,1,REAL,FAKE,,,,,,,,,,,,,,,,,,,,,
,,,,,,,5dcd91a0b7ebf606d16c971e,60568611ec04488a9e9da93b,6056ac137045a34e645d8fbe,I am not familiar with Spanish,East coast,NA,no,2021-03-20_22h15.44.775,empathy_intonation_perc,2020.2.10,Win32,60,,,,,,,,,,1,,,,,,,,,,,,,,,,,,,,,,,,,,,,,,,,,,,,,,,,24,ltigo,,,0,0,0.43285,0,66,66,23,1,REAL,FAKE,,,,,,,,,,,,,,,,,,,,,
,,,,,,,5dcd91a0b7ebf606d16c971e,60568611ec04488a9e9da93b,6056ac137045a34e645d8fbe,I am not familiar with Spanish,East coast,NA,no,2021-03-20_22h15.44.775,empathy_intonation_perc,2020.2.10,Win32,60,,,,,,,,,,1,,,,,,,,,,,,,,,,,,,,,,,,,,,,,,,,,,,,,,,,22,lacayo,,,0,0,0.41493,0,67,67,21,1,REAL,FAKE,,,,,,,,,,,,,,,,,,,,,
,,,,,,,5dcd91a0b7ebf606d16c971e,60568611ec04488a9e9da93b,6056ac137045a34e645d8fbe,I am not familiar with Spanish,East coast,NA,no,2021-03-20_22h15.44.775,empathy_intonation_perc,2020.2.10,Win32,60,,,,,,,,,,0,,,,,,,,,,,,,,,,,,,,,,,,,,,,,,,,,,,,,,,,53,vegada,,,0,1,0.50404,0,68,68,52,1,REAL,FAKE,,,,,,,,,,,,,,,,,,,,,
,,,,,,,5dcd91a0b7ebf606d16c971e,60568611ec04488a9e9da93b,6056ac137045a34e645d8fbe,I am not familiar with Spanish,East coast,NA,no,2021-03-20_22h15.44.775,empathy_intonation_perc,2020.2.10,Win32,60,,,,,,,,,,1,,,,,,,,,,,,,,,,,,,,,,,,,,,,,,,,,,,,,,,,83,guante,,,0,0,0.556315,0,69,69,82,1,REAL,FAKE,,,,,,,,,,,,,,,,,,,,,
,,,,,,,5dcd91a0b7ebf606d16c971e,60568611ec04488a9e9da93b,6056ac137045a34e645d8fbe,I am not familiar with Spanish,East coast,NA,no,2021-03-20_22h15.44.775,empathy_intonation_perc,2020.2.10,Win32,60,,,,,,,,,,1,,,,,,,,,,,,,,,,,,,,,,,,,,,,,,,,,,,,,,,,26,secuestro,,,0,0,0.822945,0,70,70,25,1,REAL,FAKE,,,,,,,,,,,,,,,,,,,,,
,,,,,,,5dcd91a0b7ebf606d16c971e,60568611ec04488a9e9da93b,6056ac137045a34e645d8fbe,I am not familiar with Spanish,East coast,NA,no,2021-03-20_22h15.44.775,empathy_intonation_perc,2020.2.10,Win32,60,,,,,,,,,,1,,,,,,,,,,,,,,,,,,,,,,,,,,,,,,,,,,,,,,,,86,barato,,,1,1,0.635205,0,71,71,85,1,REAL,FAKE,,,,,,,,,,,,,,,,,,,,,
,,,,,,,5dcd91a0b7ebf606d16c971e,60568611ec04488a9e9da93b,6056ac137045a34e645d8fbe,I am not familiar with Spanish,East coast,NA,no,2021-03-20_22h15.44.775,empathy_intonation_perc,2020.2.10,Win32,60,,,,,,,,,,0,,,,,,,,,,,,,,,,,,,,,,,,,,,,,,,,,,,,,,,,35,rompido,,,0,1,0.6627,0,72,72,34,1,REAL,FAKE,,,,,,,,,,,,,,,,,,,,,
,,,,,,,5dcd91a0b7ebf606d16c971e,60568611ec04488a9e9da93b,6056ac137045a34e645d8fbe,I am not familiar with Spanish,East coast,NA,no,2021-03-20_22h15.44.775,empathy_intonation_perc,2020.2.10,Win32,60,,,,,,,,,,1,,,,,,,,,,,,,,,,,,,,,,,,,,,,,,,,,,,,,,,,28,merodear,,,0,0,0.534425,0,73,73,27,1,REAL,FAKE,,,,,,,,,,,,,,,,,,,,,
,,,,,,,5dcd91a0b7ebf606d16c971e,60568611ec04488a9e9da93b,6056ac137045a34e645d8fbe,I am not familiar with Spanish,East coast,NA,no,2021-03-20_22h15.44.775,empathy_intonation_perc,2020.2.10,Win32,60,,,,,,,,,,1,,,,,,,,,,,,,,,,,,,,,,,,,,,,,,,,,,,,,,,,76,atar,,,0,0,0.78824,0,74,74,75,1,REAL,FAKE,,,,,,,,,,,,,,,,,,,,,
,,,,,,,5dcd91a0b7ebf606d16c971e,60568611ec04488a9e9da93b,6056ac137045a34e645d8fbe,I am not familiar with Spanish,East coast,NA,no,2021-03-20_22h15.44.775,empathy_intonation_perc,2020.2.10,Win32,60,,,,,,,,,,0,,,,,,,,,,,,,,,,,,,,,,,,,,,,,,,,,,,,,,,,17,floroso,,,1,0,0.816085,0,75,75,16,1,REAL,FAKE,,,,,,,,,,,,,,,,,,,,,
,,,,,,,5dcd91a0b7ebf606d16c971e,60568611ec04488a9e9da93b,6056ac137045a34e645d8fbe,I am not familiar with Spanish,East coast,NA,no,2021-03-20_22h15.44.775,empathy_intonation_perc,2020.2.10,Win32,60,,,,,,,,,,1,,,,,,,,,,,,,,,,,,,,,,,,,,,,,,,,,,,,,,,,20,vido,,,1,1,0.547855,0,76,76,19,1,REAL,FAKE,,,,,,,,,,,,,,,,,,,,,
,,,,,,,5dcd91a0b7ebf606d16c971e,60568611ec04488a9e9da93b,6056ac137045a34e645d8fbe,I am not familiar with Spanish,East coast,NA,no,2021-03-20_22h15.44.775,empathy_intonation_perc,2020.2.10,Win32,60,,,,,,,,,,1,,,,,,,,,,,,,,,,,,,,,,,,,,,,,,,,,,,,,,,,61,seda,,,1,1,0.41165,0,77,77,60,1,REAL,FAKE,,,,,,,,,,,,,,,,,,,,,
,,,,,,,5dcd91a0b7ebf606d16c971e,60568611ec04488a9e9da93b,6056ac137045a34e645d8fbe,I am not familiar with Spanish,East coast,NA,no,2021-03-20_22h15.44.775,empathy_intonation_perc,2020.2.10,Win32,60,,,,,,,,,,1,,,,,,,,,,,,,,,,,,,,,,,,,,,,,,,,,,,,,,,,75,yacer,,,0,0,0.53307,0,78,78,74,1,REAL,FAKE,,,,,,,,,,,,,,,,,,,,,
,,,,,,,5dcd91a0b7ebf606d16c971e,60568611ec04488a9e9da93b,6056ac137045a34e645d8fbe,I am not familiar with Spanish,East coast,NA,no,2021-03-20_22h15.44.775,empathy_intonation_perc,2020.2.10,Win32,60,,,,,,,,,,1,,,,,,,,,,,,,,,,,,,,,,,,,,,,,,,,,,,,,,,,38,estornudar,,,0,0,0.56644,0,79,79,37,1,REAL,FAKE,,,,,,,,,,,,,,,,,,,,,
,,,,,,,5dcd91a0b7ebf606d16c971e,60568611ec04488a9e9da93b,6056ac137045a34e645d8fbe,I am not familiar with Spanish,East coast,NA,no,2021-03-20_22h15.44.775,empathy_intonation_perc,2020.2.10,Win32,60,,,,,,,,,,0,,,,,,,,,,,,,,,,,,,,,,,,,,,,,,,,,,,,,,,,87,grodo,,,0,1,0.422595,0,80,80,86,1,REAL,FAKE,,,,,,,,,,,,,,,,,,,,,
,,,,,,,5dcd91a0b7ebf606d16c971e,60568611ec04488a9e9da93b,6056ac137045a34e645d8fbe,I am not familiar with Spanish,East coast,NA,no,2021-03-20_22h15.44.775,empathy_intonation_perc,2020.2.10,Win32,60,,,,,,,,,,1,,,,,,,,,,,,,,,,,,,,,,,,,,,,,,,,,,,,,,,,11,cenefa,,,0,0,0.405665,0,81,81,10,1,REAL,FAKE,,,,,,,,,,,,,,,,,,,,,
,,,,,,,5dcd91a0b7ebf606d16c971e,60568611ec04488a9e9da93b,6056ac137045a34e645d8fbe,I am not familiar with Spanish,East coast,NA,no,2021-03-20_22h15.44.775,empathy_intonation_perc,2020.2.10,Win32,60,,,,,,,,,,1,,,,,,,,,,,,,,,,,,,,,,,,,,,,,,,,,,,,,,,,88,acantilado,,,0,0,0.67685,0,82,82,87,1,REAL,FAKE,,,,,,,,,,,,,,,,,,,,,
,,,,,,,5dcd91a0b7ebf606d16c971e,60568611ec04488a9e9da93b,6056ac137045a34e645d8fbe,I am not familiar with Spanish,East coast,NA,no,2021-03-20_22h15.44.775,empathy_intonation_perc,2020.2.10,Win32,60,,,,,,,,,,1,,,,,,,,,,,,,,,,,,,,,,,,,,,,,,,,,,,,,,,,36,loro,,,0,0,0.390695,0,83,83,35,1,REAL,FAKE,,,,,,,,,,,,,,,,,,,,,
,,,,,,,5dcd91a0b7ebf606d16c971e,60568611ec04488a9e9da93b,6056ac137045a34e645d8fbe,I am not familiar with Spanish,East coast,NA,no,2021-03-20_22h15.44.775,empathy_intonation_perc,2020.2.10,Win32,60,,,,,,,,,,1,,,,,,,,,,,,,,,,,,,,,,,,,,,,,,,,,,,,,,,,44,cuchara,,,0,0,0.427885,0,84,84,43,1,REAL,FAKE,,,,,,,,,,,,,,,,,,,,,
,,,,,,,5dcd91a0b7ebf606d16c971e,60568611ec04488a9e9da93b,6056ac137045a34e645d8fbe,I am not familiar with Spanish,East coast,NA,no,2021-03-20_22h15.44.775,empathy_intonation_perc,2020.2.10,Win32,60,,,,,,,,,,0,,,,,,,,,,,,,,,,,,,,,,,,,,,,,,,,,,,,,,,,82,empirador,,,0,1,0.335875,0,85,85,81,1,REAL,FAKE,,,,,,,,,,,,,,,,,,,,,
,,,,,,,5dcd91a0b7ebf606d16c971e,60568611ec04488a9e9da93b,6056ac137045a34e645d8fbe,I am not familiar with Spanish,East coast,NA,no,2021-03-20_22h15.44.775,empathy_intonation_perc,2020.2.10,Win32,60,,,,,,,,,,0,,,,,,,,,,,,,,,,,,,,,,,,,,,,,,,,,,,,,,,,19,brecedad,,,0,1,0.370975,0,86,86,18,1,REAL,FAKE,,,,,,,,,,,,,,,,,,,,,
,,,,,,,5dcd91a0b7ebf606d16c971e,60568611ec04488a9e9da93b,6056ac137045a34e645d8fbe,I am not familiar with Spanish,East coast,NA,no,2021-03-20_22h15.44.775,empathy_intonation_perc,2020.2.10,Win32,60,,,,,,,,,,1,,,,,,,,,,,,,,,,,,,,,,,,,,,,,,,,,,,,,,,,43,canela,,,0,0,0.4287,0,87,87,42,1,REAL,FAKE,,,,,,,,,,,,,,,,,,,,,
,,,,,,,5dcd91a0b7ebf606d16c971e,60568611ec04488a9e9da93b,6056ac137045a34e645d8fbe,I am not familiar with Spanish,East coast,NA,no,2021-03-20_22h15.44.775,empathy_intonation_perc,2020.2.10,Win32,60,,,,,,,,,,1,,,,,,,,,,,,,,,,,,,,,,,,,,,,,,,,,,,,,,,,54,fomentar,,,0,0,0.348975,0,88,88,53,1,REAL,FAKE,,,,,,,,,,,,,,,,,,,,,
,,,,,,,5dcd91a0b7ebf606d16c971e,60568611ec04488a9e9da93b,6056ac137045a34e645d8fbe,I am not familiar with Spanish,East coast,NA,no,2021-03-20_22h15.44.775,empathy_intonation_perc,2020.2.10,Win32,60,,,,,,,,,,1,,,,,,,,,,,,,,,,,,,,,,,,,,,,,,,,,,,,,,,,60,matar,,,0,0,0.365935,0,89,89,59,1,REAL,FAKE,,,,,,,,,,,,,,,,,,,,,
