instructions_2afc_loop.thisRepN,instructions_2afc_loop.thisTrialN,instructions_2afc_loop.thisN,instructions_2afc_loop.thisIndex,instructions_2afc_loop.ran,instructions_text,continue_text,participant,study_id,session,I am most familiar with Spanish from...*,What part of the US are you from?*,At what age did you begin learning Spanish?*,Are you proficient in any languages other than English/Spanish?*,date,expName,psychopyVersion,OS,frameRate,key_resp_2afc_practice.keys,key_resp_2afc_practice.corr,key_resp_2afc_practice.rt,trials_2afc_practice_loop.thisRepN,trials_2afc_practice_loop.thisTrialN,trials_2afc_practice_loop.thisN,trials_2afc_practice_loop.thisIndex,trials_2afc_practice_loop.ran,path,correct_response,the_col,key_resp_2afc_trial.keys,key_resp_2afc_trial.corr,key_resp_2afc_trial.rt,trials_2afc_loop.thisRepN,trials_2afc_loop.thisTrialN,trials_2afc_loop.thisN,trials_2afc_loop.thisIndex,trials_2afc_loop.ran,item_num,andalusian,argentine,castilian,chilean,cuban,mexican,peruvian,puertorican,key_resp_ac1.keys,key_resp_ac1.corr,key_resp_ac1.rt,ac1_loop.thisRepN,ac1_loop.thisTrialN,ac1_loop.thisN,ac1_loop.thisIndex,ac1_loop.ran,instructions_lextale_loop.thisRepN,instructions_lextale_loop.thisTrialN,instructions_lextale_loop.thisN,instructions_lextale_loop.thisIndex,instructions_lextale_loop.ran,key_resp_lextale_practice.keys,key_resp_lextale_practice.corr,key_resp_lextale_practice.rt,trials_lextale_practice_loop.thisRepN,trials_lextale_practice_loop.thisTrialN,trials_lextale_practice_loop.thisN,trials_lextale_practice_loop.thisIndex,trials_lextale_practice_loop.ran,stim,word,prac_button_real,prac_button_false,key_resp_lextale_trial.keys,key_resp_lextale_trial.corr,key_resp_lextale_trial.rt,trials_lextale_loop.thisRepN,trials_lextale_loop.thisTrialN,trials_lextale_loop.thisN,trials_lextale_loop.thisIndex,trials_lextale_loop.ran,button_real,button_false,key_resp_ac2.keys,key_resp_ac2.corr,key_resp_ac2.rt,check_pass,check_fails,ac2_loop.thisRepN,ac2_loop.thisTrialN,ac2_loop.thisN,ac2_loop.thisIndex,ac2_loop.ran,slider_eq_trial.response,trials_eq_loop.thisRepN,trials_eq_loop.thisTrialN,trials_eq_loop.thisN,trials_eq_loop.thisIndex,trials_eq_loop.ran,item,is_test_item,is_distractor,is_agree_score,is_disagree_score
0,0,0,0,1,"In the following task you are going to hear a series of utterances. 

  You will decide if the utterances sound like questions or not using your keyboard.",(press the spacebar to continue),5dd32e9deab0423455e0358f,60568611ec04488a9e9da93b,6056b091f6469e8a273535c5,United States,South,13 or older,no,2021-03-20_22h38.10.613,empathy_intonation_perc,2020.2.10,Win32,60,,,,,,,,,,,,,,,,,,,,,,,,,,,,,,,,,,,,,,,,,,,,,,,,,,,,,,,,,,,,,,,,,,,,,,,,,,,,,,,,,,,,
0,1,1,1,1,"If you believe the utterance is a question, type '1' (for 'yes') and if you do not 
  believe it is a question type '0' (for 'no').

  Let's practice a bit...",(press the spacebar to continue),5dd32e9deab0423455e0358f,60568611ec04488a9e9da93b,6056b091f6469e8a273535c5,United States,South,13 or older,no,2021-03-20_22h38.10.613,empathy_intonation_perc,2020.2.10,Win32,60,,,,,,,,,,,,,,,,,,,,,,,,,,,,,,,,,,,,,,,,,,,,,,,,,,,,,,,,,,,,,,,,,,,,,,,,,,,,,,,,,,,,
,,,,,,,5dd32e9deab0423455e0358f,60568611ec04488a9e9da93b,6056b091f6469e8a273535c5,United States,South,13 or older,no,2021-03-20_22h38.10.613,empathy_intonation_perc,2020.2.10,Win32,60,0,1,3.48355,0,0,0,6,1,./stim/wavs/peruvian_statement_filler_El-nino-habla-con-su-madre.wav,0,,,,,,,,,,,,,,,,,,,,,,,,,,,,,,,,,,,,,,,,,,,,,,,,,,,,,,,,,,,,,,,,,,,,,,,,,,
,,,,,,,5dd32e9deab0423455e0358f,60568611ec04488a9e9da93b,6056b091f6469e8a273535c5,United States,South,13 or older,no,2021-03-20_22h38.10.613,empathy_intonation_perc,2020.2.10,Win32,60,1,1,2.76746,0,1,1,0,1,./stim/wavs/castilian_question_filler_Mi-esposo-conoce-al-chico.wav,1,,,,,,,,,,,,,,,,,,,,,,,,,,,,,,,,,,,,,,,,,,,,,,,,,,,,,,,,,,,,,,,,,,,,,,,,,,
,,,,,,,5dd32e9deab0423455e0358f,60568611ec04488a9e9da93b,6056b091f6469e8a273535c5,United States,South,13 or older,no,2021-03-20_22h38.10.613,empathy_intonation_perc,2020.2.10,Win32,60,0,1,2.184295,0,2,2,7,1,./stim/wavs/puertorican_statement_filler_La-nina-pinta-con-su-amiga.wav,0,,,,,,,,,,,,,,,,,,,,,,,,,,,,,,,,,,,,,,,,,,,,,,,,,,,,,,,,,,,,,,,,,,,,,,,,,,
,,,,,,,5dd32e9deab0423455e0358f,60568611ec04488a9e9da93b,6056b091f6469e8a273535c5,United States,South,13 or older,no,2021-03-20_22h38.10.613,empathy_intonation_perc,2020.2.10,Win32,60,0,1,3.13392,0,3,3,5,1,./stim/wavs/andalusian_statement_filler_Alberto-nunca-se-afeita.wav,0,,,,,,,,,,,,,,,,,,,,,,,,,,,,,,,,,,,,,,,,,,,,,,,,,,,,,,,,,,,,,,,,,,,,,,,,,,
,,,,,,,5dd32e9deab0423455e0358f,60568611ec04488a9e9da93b,6056b091f6469e8a273535c5,United States,South,13 or older,no,2021-03-20_22h38.10.613,empathy_intonation_perc,2020.2.10,Win32,60,1,1,2.03413,0,4,4,1,1,./stim/wavs/argentine_question_filler_Mi-vecino-habla-mucho.wav,1,,,,,,,,,,,,,,,,,,,,,,,,,,,,,,,,,,,,,,,,,,,,,,,,,,,,,,,,,,,,,,,,,,,,,,,,,,
,,,,,,,5dd32e9deab0423455e0358f,60568611ec04488a9e9da93b,6056b091f6469e8a273535c5,United States,South,13 or older,no,2021-03-20_22h38.10.613,empathy_intonation_perc,2020.2.10,Win32,60,1,1,2.06965,0,5,5,3,1,./stim/wavs/mexican_question_filler_Felipe-no-tiene-contrasena.wav,1,,,,,,,,,,,,,,,,,,,,,,,,,,,,,,,,,,,,,,,,,,,,,,,,,,,,,,,,,,,,,,,,,,,,,,,,,,
,,,,,,,5dd32e9deab0423455e0358f,60568611ec04488a9e9da93b,6056b091f6469e8a273535c5,United States,South,13 or older,no,2021-03-20_22h38.10.613,empathy_intonation_perc,2020.2.10,Win32,60,0,0,2.604425,0,6,6,2,1,./stim/wavs/chilean_question_filler_Mi-padre-cantaba-bien.wav,1,,,,,,,,,,,,,,,,,,,,,,,,,,,,,,,,,,,,,,,,,,,,,,,,,,,,,,,,,,,,,,,,,,,,,,,,,,
,,,,,,,5dd32e9deab0423455e0358f,60568611ec04488a9e9da93b,6056b091f6469e8a273535c5,United States,South,13 or older,no,2021-03-20_22h38.10.613,empathy_intonation_perc,2020.2.10,Win32,60,0,1,2.47902,0,7,7,4,1,./stim/wavs/cuban_statement_filler_Cocinabas-por-la-noche.wav,0,,,,,,,,,,,,,,,,,,,,,,,,,,,,,,,,,,,,,,,,,,,,,,,,,,,,,,,,,,,,,,,,,,,,,,,,,,
,,,,,,,5dd32e9deab0423455e0358f,60568611ec04488a9e9da93b,6056b091f6469e8a273535c5,United States,South,13 or older,no,2021-03-20_22h38.10.613,empathy_intonation_perc,2020.2.10,Win32,60,,,,,,,,,,0,puertorican,0,1,1.69622,0,0,0,15,1,16,./stim/wavs/andalusian_match_declarative-narrow-focus_Marta-abre-el-regalo.wav,./stim/wavs/argentine_match_declarative-narrow-focus_Marta-abre-el-regalo.wav,./stim/wavs/castilian_match_declarative-narrow-focus_Marta-abre-el-regalo.wav,./stim/wavs/chilean_match_declarative-narrow-focus_Marta-abre-el-regalo.wav,./stim/wavs/cuban_match_declarative-narrow-focus_Marta-abre-el-regalo.wav,./stim/wavs/mexican_match_declarative-narrow-focus_Marta-abre-el-regalo.wav,./stim/wavs/peruvian_match_declarative-narrow-focus_Marta-abre-el-regalo.wav,./stim/wavs/puertorican_match_declarative-narrow-focus_Marta-abre-el-regalo.wav,,,,,,,,,,,,,,,,,,,,,,,,,,,,,,,,,,,,,,,,,,,,,,,,,,,,,,,,
,,,,,,,5dd32e9deab0423455e0358f,60568611ec04488a9e9da93b,6056b091f6469e8a273535c5,United States,South,13 or older,no,2021-03-20_22h38.10.613,empathy_intonation_perc,2020.2.10,Win32,60,,,,,,,,,,1,peruvian,0,0,2.838935,0,1,1,52,1,53,./stim/wavs/andalusian_mismatch_interrogative-partial-wh_Por-que-odiaba-la-lluvia.wav,./stim/wavs/argentine_mismatch_interrogative-partial-wh_Por-que-odiaba-la-lluvia.wav,./stim/wavs/castilian_mismatch_interrogative-partial-wh_Por-que-odiaba-la-lluvia.wav,./stim/wavs/chilean_mismatch_interrogative-partial-wh_Por-que-odiaba-la-lluvia.wav,./stim/wavs/cuban_mismatch_interrogative-partial-wh_Por-que-odiaba-la-lluvia.wav,./stim/wavs/mexican_mismatch_interrogative-partial-wh_Por-que-odiaba-la-lluvia.wav,./stim/wavs/peruvian_mismatch_interrogative-partial-wh_Por-que-odiaba-la-lluvia.wav,./stim/wavs/puertorican_mismatch_interrogative-partial-wh_Por-que-odiaba-la-lluvia.wav,,,,,,,,,,,,,,,,,,,,,,,,,,,,,,,,,,,,,,,,,,,,,,,,,,,,,,,,
,,,,,,,5dd32e9deab0423455e0358f,60568611ec04488a9e9da93b,6056b091f6469e8a273535c5,United States,South,13 or older,no,2021-03-20_22h38.10.613,empathy_intonation_perc,2020.2.10,Win32,60,,,,,,,,,,1,castilian,1,1,1.856975,0,2,2,18,1,19,./stim/wavs/andalusian_match_interrogative-partial-wh_Cuando-lleva-el-abrigo.wav,./stim/wavs/argentine_match_interrogative-partial-wh_Cuando-lleva-el-abrigo.wav,./stim/wavs/castilian_match_interrogative-partial-wh_Cuando-lleva-el-abrigo.wav,./stim/wavs/chilean_match_interrogative-partial-wh_Cuando-lleva-el-abrigo.wav,./stim/wavs/cuban_match_interrogative-partial-wh_Cuando-lleva-el-abrigo.wav,./stim/wavs/mexican_match_interrogative-partial-wh_Cuando-lleva-el-abrigo.wav,./stim/wavs/peruvian_match_interrogative-partial-wh_Cuando-lleva-el-abrigo.wav,./stim/wavs/puertorican_match_interrogative-partial-wh_Cuando-lleva-el-abrigo.wav,,,,,,,,,,,,,,,,,,,,,,,,,,,,,,,,,,,,,,,,,,,,,,,,,,,,,,,,
,,,,,,,5dd32e9deab0423455e0358f,60568611ec04488a9e9da93b,6056b091f6469e8a273535c5,United States,South,13 or older,no,2021-03-20_22h38.10.613,empathy_intonation_perc,2020.2.10,Win32,60,,,,,,,,,,1,cuban,0,0,2.11326,0,3,3,29,1,30,./stim/wavs/andalusian_match_interrogative-total-yn_Maria-bebe-el-vino.wav,./stim/wavs/argentine_match_interrogative-total-yn_Maria-bebe-el-vino.wav,./stim/wavs/castilian_match_interrogative-total-yn_Maria-bebe-el-vino.wav,./stim/wavs/chilean_match_interrogative-total-yn_Maria-bebe-el-vino.wav,./stim/wavs/cuban_match_interrogative-total-yn_Maria-bebe-el-vino.wav,./stim/wavs/mexican_match_interrogative-total-yn_Maria-bebe-el-vino.wav,./stim/wavs/peruvian_match_interrogative-total-yn_Maria-bebe-el-vino.wav,./stim/wavs/puertorican_match_interrogative-total-yn_Maria-bebe-el-vino.wav,,,,,,,,,,,,,,,,,,,,,,,,,,,,,,,,,,,,,,,,,,,,,,,,,,,,,,,,
,,,,,,,5dd32e9deab0423455e0358f,60568611ec04488a9e9da93b,6056b091f6469e8a273535c5,United States,South,13 or older,no,2021-03-20_22h38.10.613,empathy_intonation_perc,2020.2.10,Win32,60,,,,,,,,,,0,chilean,0,1,1.847475,0,4,4,37,1,38,./stim/wavs/andalusian_mismatch_declarative-broad-focus_Mi-madre-come-la-fruta.wav,./stim/wavs/argentine_mismatch_declarative-broad-focus_Mi-madre-come-la-fruta.wav,./stim/wavs/castilian_mismatch_declarative-broad-focus_Mi-madre-come-la-fruta.wav,./stim/wavs/chilean_mismatch_declarative-broad-focus_Mi-madre-come-la-fruta.wav,./stim/wavs/cuban_mismatch_declarative-broad-focus_Mi-madre-come-la-fruta.wav,./stim/wavs/mexican_mismatch_declarative-broad-focus_Mi-madre-come-la-fruta.wav,./stim/wavs/peruvian_mismatch_declarative-broad-focus_Mi-madre-come-la-fruta.wav,./stim/wavs/puertorican_mismatch_declarative-broad-focus_Mi-madre-come-la-fruta.wav,,,,,,,,,,,,,,,,,,,,,,,,,,,,,,,,,,,,,,,,,,,,,,,,,,,,,,,,
,,,,,,,5dd32e9deab0423455e0358f,60568611ec04488a9e9da93b,6056b091f6469e8a273535c5,United States,South,13 or older,no,2021-03-20_22h38.10.613,empathy_intonation_perc,2020.2.10,Win32,60,,,,,,,,,,0,cuban,0,1,1.54398,0,5,5,13,1,14,./stim/wavs/andalusian_match_declarative-narrow-focus_Maria-bebe-el-vino.wav,./stim/wavs/argentine_match_declarative-narrow-focus_Maria-bebe-el-vino.wav,./stim/wavs/castilian_match_declarative-narrow-focus_Maria-bebe-el-vino.wav,./stim/wavs/chilean_match_declarative-narrow-focus_Maria-bebe-el-vino.wav,./stim/wavs/cuban_match_declarative-narrow-focus_Maria-bebe-el-vino.wav,./stim/wavs/mexican_match_declarative-narrow-focus_Maria-bebe-el-vino.wav,./stim/wavs/peruvian_match_declarative-narrow-focus_Maria-bebe-el-vino.wav,./stim/wavs/puertorican_match_declarative-narrow-focus_Maria-bebe-el-vino.wav,,,,,,,,,,,,,,,,,,,,,,,,,,,,,,,,,,,,,,,,,,,,,,,,,,,,,,,,
,,,,,,,5dd32e9deab0423455e0358f,60568611ec04488a9e9da93b,6056b091f6469e8a273535c5,United States,South,13 or older,no,2021-03-20_22h38.10.613,empathy_intonation_perc,2020.2.10,Win32,60,,,,,,,,,,0,peruvian,0,1,1.97555,0,6,6,39,1,40,./stim/wavs/andalusian_mismatch_declarative-broad-focus_Mi-tia-odia-la-lluvia.wav,./stim/wavs/argentine_mismatch_declarative-broad-focus_Mi-tia-odia-la-lluvia.wav,./stim/wavs/castilian_mismatch_declarative-broad-focus_Mi-tia-odia-la-lluvia.wav,./stim/wavs/chilean_mismatch_declarative-broad-focus_Mi-tia-odia-la-lluvia.wav,./stim/wavs/cuban_mismatch_declarative-broad-focus_Mi-tia-odia-la-lluvia.wav,./stim/wavs/mexican_mismatch_declarative-broad-focus_Mi-tia-odia-la-lluvia.wav,./stim/wavs/peruvian_mismatch_declarative-broad-focus_Mi-tia-odia-la-lluvia.wav,./stim/wavs/puertorican_mismatch_declarative-broad-focus_Mi-tia-odia-la-lluvia.wav,,,,,,,,,,,,,,,,,,,,,,,,,,,,,,,,,,,,,,,,,,,,,,,,,,,,,,,,
,,,,,,,5dd32e9deab0423455e0358f,60568611ec04488a9e9da93b,6056b091f6469e8a273535c5,United States,South,13 or older,no,2021-03-20_22h38.10.613,empathy_intonation_perc,2020.2.10,Win32,60,,,,,,,,,,1,mexican,1,1,2.30702,0,7,7,17,1,18,./stim/wavs/andalusian_match_interrogative-partial-wh_Cuando-leia-el-libro.wav,./stim/wavs/argentine_match_interrogative-partial-wh_Cuando-leia-el-libro.wav,./stim/wavs/castilian_match_interrogative-partial-wh_Cuando-leia-el-libro.wav,./stim/wavs/chilean_match_interrogative-partial-wh_Cuando-leia-el-libro.wav,./stim/wavs/cuban_match_interrogative-partial-wh_Cuando-leia-el-libro.wav,./stim/wavs/mexican_match_interrogative-partial-wh_Cuando-leia-el-libro.wav,./stim/wavs/peruvian_match_interrogative-partial-wh_Cuando-leia-el-libro.wav,./stim/wavs/puertorican_match_interrogative-partial-wh_Cuando-leia-el-libro.wav,,,,,,,,,,,,,,,,,,,,,,,,,,,,,,,,,,,,,,,,,,,,,,,,,,,,,,,,
,,,,,,,5dd32e9deab0423455e0358f,60568611ec04488a9e9da93b,6056b091f6469e8a273535c5,United States,South,13 or older,no,2021-03-20_22h38.10.613,empathy_intonation_perc,2020.2.10,Win32,60,,,,,,,,,,1,castilian,1,1,2.401885,0,8,8,24,1,25,./stim/wavs/andalusian_match_interrogative-total-yn_Ana-lleva-el-abrigo.wav,./stim/wavs/argentine_match_interrogative-total-yn_Ana-lleva-el-abrigo.wav,./stim/wavs/castilian_match_interrogative-total-yn_Ana-lleva-el-abrigo.wav,./stim/wavs/chilean_match_interrogative-total-yn_Ana-lleva-el-abrigo.wav,./stim/wavs/cuban_match_interrogative-total-yn_Ana-lleva-el-abrigo.wav,./stim/wavs/mexican_match_interrogative-total-yn_Ana-lleva-el-abrigo.wav,./stim/wavs/peruvian_match_interrogative-total-yn_Ana-lleva-el-abrigo.wav,./stim/wavs/puertorican_match_interrogative-total-yn_Ana-lleva-el-abrigo.wav,,,,,,,,,,,,,,,,,,,,,,,,,,,,,,,,,,,,,,,,,,,,,,,,,,,,,,,,
,,,,,,,5dd32e9deab0423455e0358f,60568611ec04488a9e9da93b,6056b091f6469e8a273535c5,United States,South,13 or older,no,2021-03-20_22h38.10.613,empathy_intonation_perc,2020.2.10,Win32,60,,,,,,,,,,0,argentine,0,1,2.60431,0,9,9,32,1,33,./stim/wavs/andalusian_mismatch_declarative-broad-focus_El-bebe-comia-muy-bien.wav,./stim/wavs/argentine_mismatch_declarative-broad-focus_El-bebe-comia-muy-bien.wav,./stim/wavs/castilian_mismatch_declarative-broad-focus_El-bebe-comia-muy-bien.wav,./stim/wavs/chilean_mismatch_declarative-broad-focus_El-bebe-comia-muy-bien.wav,./stim/wavs/cuban_mismatch_declarative-broad-focus_El-bebe-comia-muy-bien.wav,./stim/wavs/mexican_mismatch_declarative-broad-focus_El-bebe-comia-muy-bien.wav,./stim/wavs/peruvian_mismatch_declarative-broad-focus_El-bebe-comia-muy-bien.wav,./stim/wavs/puertorican_mismatch_declarative-broad-focus_El-bebe-comia-muy-bien.wav,,,,,,,,,,,,,,,,,,,,,,,,,,,,,,,,,,,,,,,,,,,,,,,,,,,,,,,,
,,,,,,,5dd32e9deab0423455e0358f,60568611ec04488a9e9da93b,6056b091f6469e8a273535c5,United States,South,13 or older,no,2021-03-20_22h38.10.613,empathy_intonation_perc,2020.2.10,Win32,60,,,,,,,,,,0,peruvian,0,1,1.91941,0,10,10,46,1,47,./stim/wavs/andalusian_mismatch_declarative-narrow-focus_Mi-novio-viene-del-lago.wav,./stim/wavs/argentine_mismatch_declarative-narrow-focus_Mi-novio-viene-del-lago.wav,./stim/wavs/castilian_mismatch_declarative-narrow-focus_Mi-novio-viene-del-lago.wav,./stim/wavs/chilean_mismatch_declarative-narrow-focus_Mi-novio-viene-del-lago.wav,./stim/wavs/cuban_mismatch_declarative-narrow-focus_Mi-novio-viene-del-lago.wav,./stim/wavs/mexican_mismatch_declarative-narrow-focus_Mi-novio-viene-del-lago.wav,./stim/wavs/peruvian_mismatch_declarative-narrow-focus_Mi-novio-viene-del-lago.wav,./stim/wavs/puertorican_mismatch_declarative-narrow-focus_Mi-novio-viene-del-lago.wav,,,,,,,,,,,,,,,,,,,,,,,,,,,,,,,,,,,,,,,,,,,,,,,,,,,,,,,,
,,,,,,,5dd32e9deab0423455e0358f,60568611ec04488a9e9da93b,6056b091f6469e8a273535c5,United States,South,13 or older,no,2021-03-20_22h38.10.613,empathy_intonation_perc,2020.2.10,Win32,60,,,,,,,,,,1,andalusian,1,1,1.98087,0,11,11,57,1,58,./stim/wavs/andalusian_mismatch_interrogative-total-yn_El-hombre-mira-la-luna.wav,./stim/wavs/argentine_mismatch_interrogative-total-yn_El-hombre-mira-la-luna.wav,./stim/wavs/castilian_mismatch_interrogative-total-yn_El-hombre-mira-la-luna.wav,./stim/wavs/chilean_mismatch_interrogative-total-yn_El-hombre-mira-la-luna.wav,./stim/wavs/cuban_mismatch_interrogative-total-yn_El-hombre-mira-la-luna.wav,./stim/wavs/mexican_mismatch_interrogative-total-yn_El-hombre-mira-la-luna.wav,./stim/wavs/peruvian_mismatch_interrogative-total-yn_El-hombre-mira-la-luna.wav,./stim/wavs/puertorican_mismatch_interrogative-total-yn_El-hombre-mira-la-luna.wav,,,,,,,,,,,,,,,,,,,,,,,,,,,,,,,,,,,,,,,,,,,,,,,,,,,,,,,,
,,,,,,,5dd32e9deab0423455e0358f,60568611ec04488a9e9da93b,6056b091f6469e8a273535c5,United States,South,13 or older,no,2021-03-20_22h38.10.613,empathy_intonation_perc,2020.2.10,Win32,60,,,,,,,,,,1,castilian,1,1,2.02476,0,12,12,50,1,51,./stim/wavs/andalusian_mismatch_interrogative-partial-wh_Cuando-miraba-la-luna.wav,./stim/wavs/argentine_mismatch_interrogative-partial-wh_Cuando-miraba-la-luna.wav,./stim/wavs/castilian_mismatch_interrogative-partial-wh_Cuando-miraba-la-luna.wav,./stim/wavs/chilean_mismatch_interrogative-partial-wh_Cuando-miraba-la-luna.wav,./stim/wavs/cuban_mismatch_interrogative-partial-wh_Cuando-miraba-la-luna.wav,./stim/wavs/mexican_mismatch_interrogative-partial-wh_Cuando-miraba-la-luna.wav,./stim/wavs/peruvian_mismatch_interrogative-partial-wh_Cuando-miraba-la-luna.wav,./stim/wavs/puertorican_mismatch_interrogative-partial-wh_Cuando-miraba-la-luna.wav,,,,,,,,,,,,,,,,,,,,,,,,,,,,,,,,,,,,,,,,,,,,,,,,,,,,,,,,
,,,,,,,5dd32e9deab0423455e0358f,60568611ec04488a9e9da93b,6056b091f6469e8a273535c5,United States,South,13 or older,no,2021-03-20_22h38.10.613,empathy_intonation_perc,2020.2.10,Win32,60,,,,,,,,,,1,castilian,1,1,2.003035,0,13,13,25,1,26,./stim/wavs/andalusian_match_interrogative-total-yn_Daniel-iba-a-Bolivia.wav,./stim/wavs/argentine_match_interrogative-total-yn_Daniel-iba-a-Bolivia.wav,./stim/wavs/castilian_match_interrogative-total-yn_Daniel-iba-a-Bolivia.wav,./stim/wavs/chilean_match_interrogative-total-yn_Daniel-iba-a-Bolivia.wav,./stim/wavs/cuban_match_interrogative-total-yn_Daniel-iba-a-Bolivia.wav,./stim/wavs/mexican_match_interrogative-total-yn_Daniel-iba-a-Bolivia.wav,./stim/wavs/peruvian_match_interrogative-total-yn_Daniel-iba-a-Bolivia.wav,./stim/wavs/puertorican_match_interrogative-total-yn_Daniel-iba-a-Bolivia.wav,,,,,,,,,,,,,,,,,,,,,,,,,,,,,,,,,,,,,,,,,,,,,,,,,,,,,,,,
,,,,,,,5dd32e9deab0423455e0358f,60568611ec04488a9e9da93b,6056b091f6469e8a273535c5,United States,South,13 or older,no,2021-03-20_22h38.10.613,empathy_intonation_perc,2020.2.10,Win32,60,,,,,,,,,,1,argentine,1,1,2.1252,0,14,14,26,1,27,./stim/wavs/andalusian_match_interrogative-total-yn_David-leia-el-libro.wav,./stim/wavs/argentine_match_interrogative-total-yn_David-leia-el-libro.wav,./stim/wavs/castilian_match_interrogative-total-yn_David-leia-el-libro.wav,./stim/wavs/chilean_match_interrogative-total-yn_David-leia-el-libro.wav,./stim/wavs/cuban_match_interrogative-total-yn_David-leia-el-libro.wav,./stim/wavs/mexican_match_interrogative-total-yn_David-leia-el-libro.wav,./stim/wavs/peruvian_match_interrogative-total-yn_David-leia-el-libro.wav,./stim/wavs/puertorican_match_interrogative-total-yn_David-leia-el-libro.wav,,,,,,,,,,,,,,,,,,,,,,,,,,,,,,,,,,,,,,,,,,,,,,,,,,,,,,,,
,,,,,,,5dd32e9deab0423455e0358f,60568611ec04488a9e9da93b,6056b091f6469e8a273535c5,United States,South,13 or older,no,2021-03-20_22h38.10.613,empathy_intonation_perc,2020.2.10,Win32,60,,,,,,,,,,1,puertorican,1,1,2.947365,0,15,15,30,1,31,./stim/wavs/andalusian_match_interrogative-total-yn_Mariano-habla-del-tiempo.wav,./stim/wavs/argentine_match_interrogative-total-yn_Mariano-habla-del-tiempo.wav,./stim/wavs/castilian_match_interrogative-total-yn_Mariano-habla-del-tiempo.wav,./stim/wavs/chilean_match_interrogative-total-yn_Mariano-habla-del-tiempo.wav,./stim/wavs/cuban_match_interrogative-total-yn_Mariano-habla-del-tiempo.wav,./stim/wavs/mexican_match_interrogative-total-yn_Mariano-habla-del-tiempo.wav,./stim/wavs/peruvian_match_interrogative-total-yn_Mariano-habla-del-tiempo.wav,./stim/wavs/puertorican_match_interrogative-total-yn_Mariano-habla-del-tiempo.wav,,,,,,,,,,,,,,,,,,,,,,,,,,,,,,,,,,,,,,,,,,,,,,,,,,,,,,,,
,,,,,,,5dd32e9deab0423455e0358f,60568611ec04488a9e9da93b,6056b091f6469e8a273535c5,United States,South,13 or older,no,2021-03-20_22h38.10.613,empathy_intonation_perc,2020.2.10,Win32,60,,,,,,,,,,1,cuban,0,0,3.320975,0,16,16,62,1,63,./stim/wavs/andalusian_mismatch_interrogative-total-yn_Mi-novio-viene-del-lago.wav,./stim/wavs/argentine_mismatch_interrogative-total-yn_Mi-novio-viene-del-lago.wav,./stim/wavs/castilian_mismatch_interrogative-total-yn_Mi-novio-viene-del-lago.wav,./stim/wavs/chilean_mismatch_interrogative-total-yn_Mi-novio-viene-del-lago.wav,./stim/wavs/cuban_mismatch_interrogative-total-yn_Mi-novio-viene-del-lago.wav,./stim/wavs/mexican_mismatch_interrogative-total-yn_Mi-novio-viene-del-lago.wav,./stim/wavs/peruvian_mismatch_interrogative-total-yn_Mi-novio-viene-del-lago.wav,./stim/wavs/puertorican_mismatch_interrogative-total-yn_Mi-novio-viene-del-lago.wav,,,,,,,,,,,,,,,,,,,,,,,,,,,,,,,,,,,,,,,,,,,,,,,,,,,,,,,,
,,,,,,,5dd32e9deab0423455e0358f,60568611ec04488a9e9da93b,6056b091f6469e8a273535c5,United States,South,13 or older,no,2021-03-20_22h38.10.613,empathy_intonation_perc,2020.2.10,Win32,60,,,,,,,,,,1,argentine,0,0,2.417155,0,17,17,28,1,29,./stim/wavs/andalusian_match_interrogative-total-yn_Manuela-vende-el-carro.wav,./stim/wavs/argentine_match_interrogative-total-yn_Manuela-vende-el-carro.wav,./stim/wavs/castilian_match_interrogative-total-yn_Manuela-vende-el-carro.wav,./stim/wavs/chilean_match_interrogative-total-yn_Manuela-vende-el-carro.wav,./stim/wavs/cuban_match_interrogative-total-yn_Manuela-vende-el-carro.wav,./stim/wavs/mexican_match_interrogative-total-yn_Manuela-vende-el-carro.wav,./stim/wavs/peruvian_match_interrogative-total-yn_Manuela-vende-el-carro.wav,./stim/wavs/puertorican_match_interrogative-total-yn_Manuela-vende-el-carro.wav,,,,,,,,,,,,,,,,,,,,,,,,,,,,,,,,,,,,,,,,,,,,,,,,,,,,,,,,
,,,,,,,5dd32e9deab0423455e0358f,60568611ec04488a9e9da93b,6056b091f6469e8a273535c5,United States,South,13 or older,no,2021-03-20_22h38.10.613,empathy_intonation_perc,2020.2.10,Win32,60,,,,,,,,,,0,argentine,0,1,2.68093,0,18,18,43,1,44,./stim/wavs/andalusian_mismatch_declarative-narrow-focus_La-maestra-vive-en-Paris.wav,./stim/wavs/argentine_mismatch_declarative-narrow-focus_La-maestra-vive-en-Paris.wav,./stim/wavs/castilian_mismatch_declarative-narrow-focus_La-maestra-vive-en-Paris.wav,./stim/wavs/chilean_mismatch_declarative-narrow-focus_La-maestra-vive-en-Paris.wav,./stim/wavs/cuban_mismatch_declarative-narrow-focus_La-maestra-vive-en-Paris.wav,./stim/wavs/mexican_mismatch_declarative-narrow-focus_La-maestra-vive-en-Paris.wav,./stim/wavs/peruvian_mismatch_declarative-narrow-focus_La-maestra-vive-en-Paris.wav,./stim/wavs/puertorican_mismatch_declarative-narrow-focus_La-maestra-vive-en-Paris.wav,,,,,,,,,,,,,,,,,,,,,,,,,,,,,,,,,,,,,,,,,,,,,,,,,,,,,,,,
,,,,,,,5dd32e9deab0423455e0358f,60568611ec04488a9e9da93b,6056b091f6469e8a273535c5,United States,South,13 or older,no,2021-03-20_22h38.10.613,empathy_intonation_perc,2020.2.10,Win32,60,,,,,,,,,,1,chilean,0,0,1.960955,0,19,19,59,1,60,./stim/wavs/andalusian_mismatch_interrogative-total-yn_La-maestra-vive-en-Paris.wav,./stim/wavs/argentine_mismatch_interrogative-total-yn_La-maestra-vive-en-Paris.wav,./stim/wavs/castilian_mismatch_interrogative-total-yn_La-maestra-vive-en-Paris.wav,./stim/wavs/chilean_mismatch_interrogative-total-yn_La-maestra-vive-en-Paris.wav,./stim/wavs/cuban_mismatch_interrogative-total-yn_La-maestra-vive-en-Paris.wav,./stim/wavs/mexican_mismatch_interrogative-total-yn_La-maestra-vive-en-Paris.wav,./stim/wavs/peruvian_mismatch_interrogative-total-yn_La-maestra-vive-en-Paris.wav,./stim/wavs/puertorican_mismatch_interrogative-total-yn_La-maestra-vive-en-Paris.wav,,,,,,,,,,,,,,,,,,,,,,,,,,,,,,,,,,,,,,,,,,,,,,,,,,,,,,,,
,,,,,,,5dd32e9deab0423455e0358f,60568611ec04488a9e9da93b,6056b091f6469e8a273535c5,United States,South,13 or older,no,2021-03-20_22h38.10.613,empathy_intonation_perc,2020.2.10,Win32,60,,,,,,,,,,0,chilean,0,1,2.1674,0,20,20,6,1,7,./stim/wavs/andalusian_match_declarative-broad-focus_Mariano-habla-del-tiempo.wav,./stim/wavs/argentine_match_declarative-broad-focus_Mariano-habla-del-tiempo.wav,./stim/wavs/castilian_match_declarative-broad-focus_Mariano-habla-del-tiempo.wav,./stim/wavs/chilean_match_declarative-broad-focus_Mariano-habla-del-tiempo.wav,./stim/wavs/cuban_match_declarative-broad-focus_Mariano-habla-del-tiempo.wav,./stim/wavs/mexican_match_declarative-broad-focus_Mariano-habla-del-tiempo.wav,./stim/wavs/peruvian_match_declarative-broad-focus_Mariano-habla-del-tiempo.wav,./stim/wavs/puertorican_match_declarative-broad-focus_Mariano-habla-del-tiempo.wav,,,,,,,,,,,,,,,,,,,,,,,,,,,,,,,,,,,,,,,,,,,,,,,,,,,,,,,,
,,,,,,,5dd32e9deab0423455e0358f,60568611ec04488a9e9da93b,6056b091f6469e8a273535c5,United States,South,13 or older,no,2021-03-20_22h38.10.613,empathy_intonation_perc,2020.2.10,Win32,60,,,,,,,,,,1,cuban,0,0,1.898565,0,21,21,55,1,56,./stim/wavs/andalusian_mismatch_interrogative-partial-wh_Por-que-vivia-en-Paris.wav,./stim/wavs/argentine_mismatch_interrogative-partial-wh_Por-que-vivia-en-Paris.wav,./stim/wavs/castilian_mismatch_interrogative-partial-wh_Por-que-vivia-en-Paris.wav,./stim/wavs/chilean_mismatch_interrogative-partial-wh_Por-que-vivia-en-Paris.wav,./stim/wavs/cuban_mismatch_interrogative-partial-wh_Por-que-vivia-en-Paris.wav,./stim/wavs/mexican_mismatch_interrogative-partial-wh_Por-que-vivia-en-Paris.wav,./stim/wavs/peruvian_mismatch_interrogative-partial-wh_Por-que-vivia-en-Paris.wav,./stim/wavs/puertorican_mismatch_interrogative-partial-wh_Por-que-vivia-en-Paris.wav,,,,,,,,,,,,,,,,,,,,,,,,,,,,,,,,,,,,,,,,,,,,,,,,,,,,,,,,
,,,,,,,5dd32e9deab0423455e0358f,60568611ec04488a9e9da93b,6056b091f6469e8a273535c5,United States,South,13 or older,no,2021-03-20_22h38.10.613,empathy_intonation_perc,2020.2.10,Win32,60,,,,,,,,,,0,mexican,0,1,1.752785,0,22,22,38,1,39,./stim/wavs/andalusian_mismatch_declarative-broad-focus_Mi-novio-viene-del-lago.wav,./stim/wavs/argentine_mismatch_declarative-broad-focus_Mi-novio-viene-del-lago.wav,./stim/wavs/castilian_mismatch_declarative-broad-focus_Mi-novio-viene-del-lago.wav,./stim/wavs/chilean_mismatch_declarative-broad-focus_Mi-novio-viene-del-lago.wav,./stim/wavs/cuban_mismatch_declarative-broad-focus_Mi-novio-viene-del-lago.wav,./stim/wavs/mexican_mismatch_declarative-broad-focus_Mi-novio-viene-del-lago.wav,./stim/wavs/peruvian_mismatch_declarative-broad-focus_Mi-novio-viene-del-lago.wav,./stim/wavs/puertorican_mismatch_declarative-broad-focus_Mi-novio-viene-del-lago.wav,,,,,,,,,,,,,,,,,,,,,,,,,,,,,,,,,,,,,,,,,,,,,,,,,,,,,,,,
,,,,,,,5dd32e9deab0423455e0358f,60568611ec04488a9e9da93b,6056b091f6469e8a273535c5,United States,South,13 or older,no,2021-03-20_22h38.10.613,empathy_intonation_perc,2020.2.10,Win32,60,,,,,,,,,,1,cuban,0,0,2.043715,0,23,23,51,1,52,./stim/wavs/andalusian_mismatch_interrogative-partial-wh_Por-que-desayuna-muy-bien.wav,./stim/wavs/argentine_mismatch_interrogative-partial-wh_Por-que-desayuna-muy-bien.wav,./stim/wavs/castilian_mismatch_interrogative-partial-wh_Por-que-desayuna-muy-bien.wav,./stim/wavs/chilean_mismatch_interrogative-partial-wh_Por-que-desayuna-muy-bien.wav,./stim/wavs/cuban_mismatch_interrogative-partial-wh_Por-que-desayuna-muy-bien.wav,./stim/wavs/mexican_mismatch_interrogative-partial-wh_Por-que-desayuna-muy-bien.wav,./stim/wavs/peruvian_mismatch_interrogative-partial-wh_Por-que-desayuna-muy-bien.wav,./stim/wavs/puertorican_mismatch_interrogative-partial-wh_Por-que-desayuna-muy-bien.wav,,,,,,,,,,,,,,,,,,,,,,,,,,,,,,,,,,,,,,,,,,,,,,,,,,,,,,,,
,,,,,,,5dd32e9deab0423455e0358f,60568611ec04488a9e9da93b,6056b091f6469e8a273535c5,United States,South,13 or older,no,2021-03-20_22h38.10.613,empathy_intonation_perc,2020.2.10,Win32,60,,,,,,,,,,1,castilian,1,1,2.23097,0,24,24,60,1,61,./stim/wavs/andalusian_mismatch_interrogative-total-yn_La-nina-lava-el-plato.wav,./stim/wavs/argentine_mismatch_interrogative-total-yn_La-nina-lava-el-plato.wav,./stim/wavs/castilian_mismatch_interrogative-total-yn_La-nina-lava-el-plato.wav,./stim/wavs/chilean_mismatch_interrogative-total-yn_La-nina-lava-el-plato.wav,./stim/wavs/cuban_mismatch_interrogative-total-yn_La-nina-lava-el-plato.wav,./stim/wavs/mexican_mismatch_interrogative-total-yn_La-nina-lava-el-plato.wav,./stim/wavs/peruvian_mismatch_interrogative-total-yn_La-nina-lava-el-plato.wav,./stim/wavs/puertorican_mismatch_interrogative-total-yn_La-nina-lava-el-plato.wav,,,,,,,,,,,,,,,,,,,,,,,,,,,,,,,,,,,,,,,,,,,,,,,,,,,,,,,,
,,,,,,,5dd32e9deab0423455e0358f,60568611ec04488a9e9da93b,6056b091f6469e8a273535c5,United States,South,13 or older,no,2021-03-20_22h38.10.613,empathy_intonation_perc,2020.2.10,Win32,60,,,,,,,,,,0,cuban,0,1,1.65669,0,25,25,0,1,1,./stim/wavs/andalusian_match_declarative-broad-focus_Ana-lleva-el-abrigo.wav,./stim/wavs/argentine_match_declarative-broad-focus_Ana-lleva-el-abrigo.wav,./stim/wavs/castilian_match_declarative-broad-focus_Ana-lleva-el-abrigo.wav,./stim/wavs/chilean_match_declarative-broad-focus_Ana-lleva-el-abrigo.wav,./stim/wavs/cuban_match_declarative-broad-focus_Ana-lleva-el-abrigo.wav,./stim/wavs/mexican_match_declarative-broad-focus_Ana-lleva-el-abrigo.wav,./stim/wavs/peruvian_match_declarative-broad-focus_Ana-lleva-el-abrigo.wav,./stim/wavs/puertorican_match_declarative-broad-focus_Ana-lleva-el-abrigo.wav,,,,,,,,,,,,,,,,,,,,,,,,,,,,,,,,,,,,,,,,,,,,,,,,,,,,,,,,
,,,,,,,5dd32e9deab0423455e0358f,60568611ec04488a9e9da93b,6056b091f6469e8a273535c5,United States,South,13 or older,no,2021-03-20_22h38.10.613,empathy_intonation_perc,2020.2.10,Win32,60,,,,,,,,,,0,argentine,0,1,1.841925,0,26,26,1,1,2,./stim/wavs/andalusian_match_declarative-broad-focus_Daniel-iba-a-Bolivia.wav,./stim/wavs/argentine_match_declarative-broad-focus_Daniel-iba-a-Bolivia.wav,./stim/wavs/castilian_match_declarative-broad-focus_Daniel-iba-a-Bolivia.wav,./stim/wavs/chilean_match_declarative-broad-focus_Daniel-iba-a-Bolivia.wav,./stim/wavs/cuban_match_declarative-broad-focus_Daniel-iba-a-Bolivia.wav,./stim/wavs/mexican_match_declarative-broad-focus_Daniel-iba-a-Bolivia.wav,./stim/wavs/peruvian_match_declarative-broad-focus_Daniel-iba-a-Bolivia.wav,./stim/wavs/puertorican_match_declarative-broad-focus_Daniel-iba-a-Bolivia.wav,,,,,,,,,,,,,,,,,,,,,,,,,,,,,,,,,,,,,,,,,,,,,,,,,,,,,,,,
,,,,,,,5dd32e9deab0423455e0358f,60568611ec04488a9e9da93b,6056b091f6469e8a273535c5,United States,South,13 or older,no,2021-03-20_22h38.10.613,empathy_intonation_perc,2020.2.10,Win32,60,,,,,,,,,,0,chilean,0,1,1.8749,0,27,27,3,1,4,./stim/wavs/andalusian_match_declarative-broad-focus_Emilio-ama-la-marcha.wav,./stim/wavs/argentine_match_declarative-broad-focus_Emilio-ama-la-marcha.wav,./stim/wavs/castilian_match_declarative-broad-focus_Emilio-ama-la-marcha.wav,./stim/wavs/chilean_match_declarative-broad-focus_Emilio-ama-la-marcha.wav,./stim/wavs/cuban_match_declarative-broad-focus_Emilio-ama-la-marcha.wav,./stim/wavs/mexican_match_declarative-broad-focus_Emilio-ama-la-marcha.wav,./stim/wavs/peruvian_match_declarative-broad-focus_Emilio-ama-la-marcha.wav,./stim/wavs/puertorican_match_declarative-broad-focus_Emilio-ama-la-marcha.wav,,,,,,,,,,,,,,,,,,,,,,,,,,,,,,,,,,,,,,,,,,,,,,,,,,,,,,,,
,,,,,,,5dd32e9deab0423455e0358f,60568611ec04488a9e9da93b,6056b091f6469e8a273535c5,United States,South,13 or older,no,2021-03-20_22h38.10.613,empathy_intonation_perc,2020.2.10,Win32,60,,,,,,,,,,1,cuban,1,1,2.03488,0,28,28,49,1,50,./stim/wavs/andalusian_mismatch_interrogative-partial-wh_Cuando-lavaba-el-plato.wav,./stim/wavs/argentine_mismatch_interrogative-partial-wh_Cuando-lavaba-el-plato.wav,./stim/wavs/castilian_mismatch_interrogative-partial-wh_Cuando-lavaba-el-plato.wav,./stim/wavs/chilean_mismatch_interrogative-partial-wh_Cuando-lavaba-el-plato.wav,./stim/wavs/cuban_mismatch_interrogative-partial-wh_Cuando-lavaba-el-plato.wav,./stim/wavs/mexican_mismatch_interrogative-partial-wh_Cuando-lavaba-el-plato.wav,./stim/wavs/peruvian_mismatch_interrogative-partial-wh_Cuando-lavaba-el-plato.wav,./stim/wavs/puertorican_mismatch_interrogative-partial-wh_Cuando-lavaba-el-plato.wav,,,,,,,,,,,,,,,,,,,,,,,,,,,,,,,,,,,,,,,,,,,,,,,,,,,,,,,,
,,,,,,,5dd32e9deab0423455e0358f,60568611ec04488a9e9da93b,6056b091f6469e8a273535c5,United States,South,13 or older,no,2021-03-20_22h38.10.613,empathy_intonation_perc,2020.2.10,Win32,60,,,,,,,,,,1,mexican,1,1,2.667985,0,29,29,61,1,62,./stim/wavs/andalusian_mismatch_interrogative-total-yn_Mi-madre-come-la-fruta.wav,./stim/wavs/argentine_mismatch_interrogative-total-yn_Mi-madre-come-la-fruta.wav,./stim/wavs/castilian_mismatch_interrogative-total-yn_Mi-madre-come-la-fruta.wav,./stim/wavs/chilean_mismatch_interrogative-total-yn_Mi-madre-come-la-fruta.wav,./stim/wavs/cuban_mismatch_interrogative-total-yn_Mi-madre-come-la-fruta.wav,./stim/wavs/mexican_mismatch_interrogative-total-yn_Mi-madre-come-la-fruta.wav,./stim/wavs/peruvian_mismatch_interrogative-total-yn_Mi-madre-come-la-fruta.wav,./stim/wavs/puertorican_mismatch_interrogative-total-yn_Mi-madre-come-la-fruta.wav,,,,,,,,,,,,,,,,,,,,,,,,,,,,,,,,,,,,,,,,,,,,,,,,,,,,,,,,
,,,,,,,5dd32e9deab0423455e0358f,60568611ec04488a9e9da93b,6056b091f6469e8a273535c5,United States,South,13 or older,no,2021-03-20_22h38.10.613,empathy_intonation_perc,2020.2.10,Win32,60,,,,,,,,,,0,castilian,0,1,2.25222,0,30,30,11,1,12,./stim/wavs/andalusian_match_declarative-narrow-focus_Emilio-ama-la-marcha.wav,./stim/wavs/argentine_match_declarative-narrow-focus_Emilio-ama-la-marcha.wav,./stim/wavs/castilian_match_declarative-narrow-focus_Emilio-ama-la-marcha.wav,./stim/wavs/chilean_match_declarative-narrow-focus_Emilio-ama-la-marcha.wav,./stim/wavs/cuban_match_declarative-narrow-focus_Emilio-ama-la-marcha.wav,./stim/wavs/mexican_match_declarative-narrow-focus_Emilio-ama-la-marcha.wav,./stim/wavs/peruvian_match_declarative-narrow-focus_Emilio-ama-la-marcha.wav,./stim/wavs/puertorican_match_declarative-narrow-focus_Emilio-ama-la-marcha.wav,,,,,,,,,,,,,,,,,,,,,,,,,,,,,,,,,,,,,,,,,,,,,,,,,,,,,,,,
,,,,,,,5dd32e9deab0423455e0358f,60568611ec04488a9e9da93b,6056b091f6469e8a273535c5,United States,South,13 or older,no,2021-03-20_22h38.10.613,empathy_intonation_perc,2020.2.10,Win32,60,,,,,,,,,,0,cuban,0,1,1.788765,0,31,31,12,1,13,./stim/wavs/andalusian_match_declarative-narrow-focus_Manuela-vende-el-carro.wav,./stim/wavs/argentine_match_declarative-narrow-focus_Manuela-vende-el-carro.wav,./stim/wavs/castilian_match_declarative-narrow-focus_Manuela-vende-el-carro.wav,./stim/wavs/chilean_match_declarative-narrow-focus_Manuela-vende-el-carro.wav,./stim/wavs/cuban_match_declarative-narrow-focus_Manuela-vende-el-carro.wav,./stim/wavs/mexican_match_declarative-narrow-focus_Manuela-vende-el-carro.wav,./stim/wavs/peruvian_match_declarative-narrow-focus_Manuela-vende-el-carro.wav,./stim/wavs/puertorican_match_declarative-narrow-focus_Manuela-vende-el-carro.wav,,,,,,,,,,,,,,,,,,,,,,,,,,,,,,,,,,,,,,,,,,,,,,,,,,,,,,,,
,,,,,,,5dd32e9deab0423455e0358f,60568611ec04488a9e9da93b,6056b091f6469e8a273535c5,United States,South,13 or older,no,2021-03-20_22h38.10.613,empathy_intonation_perc,2020.2.10,Win32,60,,,,,,,,,,1,cuban,0,0,2.160255,0,32,32,23,1,24,./stim/wavs/andalusian_match_interrogative-partial-wh_Por-que-iba-a-Bolivia.wav,./stim/wavs/argentine_match_interrogative-partial-wh_Por-que-iba-a-Bolivia.wav,./stim/wavs/castilian_match_interrogative-partial-wh_Por-que-iba-a-Bolivia.wav,./stim/wavs/chilean_match_interrogative-partial-wh_Por-que-iba-a-Bolivia.wav,./stim/wavs/cuban_match_interrogative-partial-wh_Por-que-iba-a-Bolivia.wav,./stim/wavs/mexican_match_interrogative-partial-wh_Por-que-iba-a-Bolivia.wav,./stim/wavs/peruvian_match_interrogative-partial-wh_Por-que-iba-a-Bolivia.wav,./stim/wavs/puertorican_match_interrogative-partial-wh_Por-que-iba-a-Bolivia.wav,,,,,,,,,,,,,,,,,,,,,,,,,,,,,,,,,,,,,,,,,,,,,,,,,,,,,,,,
,,,,,,,5dd32e9deab0423455e0358f,60568611ec04488a9e9da93b,6056b091f6469e8a273535c5,United States,South,13 or older,no,2021-03-20_22h38.10.613,empathy_intonation_perc,2020.2.10,Win32,60,,,,,,,,,,0,castilian,0,1,2.45271,0,33,33,44,1,45,./stim/wavs/andalusian_mismatch_declarative-narrow-focus_La-nina-lava-el-plato.wav,./stim/wavs/argentine_mismatch_declarative-narrow-focus_La-nina-lava-el-plato.wav,./stim/wavs/castilian_mismatch_declarative-narrow-focus_La-nina-lava-el-plato.wav,./stim/wavs/chilean_mismatch_declarative-narrow-focus_La-nina-lava-el-plato.wav,./stim/wavs/cuban_mismatch_declarative-narrow-focus_La-nina-lava-el-plato.wav,./stim/wavs/mexican_mismatch_declarative-narrow-focus_La-nina-lava-el-plato.wav,./stim/wavs/peruvian_mismatch_declarative-narrow-focus_La-nina-lava-el-plato.wav,./stim/wavs/puertorican_mismatch_declarative-narrow-focus_La-nina-lava-el-plato.wav,,,,,,,,,,,,,,,,,,,,,,,,,,,,,,,,,,,,,,,,,,,,,,,,,,,,,,,,
,,,,,,,5dd32e9deab0423455e0358f,60568611ec04488a9e9da93b,6056b091f6469e8a273535c5,United States,South,13 or older,no,2021-03-20_22h38.10.613,empathy_intonation_perc,2020.2.10,Win32,60,,,,,,,,,,1,chilean,0,0,3.66177,0,34,34,54,1,55,./stim/wavs/andalusian_mismatch_interrogative-partial-wh_Por-que-venia-del-lago.wav,./stim/wavs/argentine_mismatch_interrogative-partial-wh_Por-que-venia-del-lago.wav,./stim/wavs/castilian_mismatch_interrogative-partial-wh_Por-que-venia-del-lago.wav,./stim/wavs/chilean_mismatch_interrogative-partial-wh_Por-que-venia-del-lago.wav,./stim/wavs/cuban_mismatch_interrogative-partial-wh_Por-que-venia-del-lago.wav,./stim/wavs/mexican_mismatch_interrogative-partial-wh_Por-que-venia-del-lago.wav,./stim/wavs/peruvian_mismatch_interrogative-partial-wh_Por-que-venia-del-lago.wav,./stim/wavs/puertorican_mismatch_interrogative-partial-wh_Por-que-venia-del-lago.wav,,,,,,,,,,,,,,,,,,,,,,,,,,,,,,,,,,,,,,,,,,,,,,,,,,,,,,,,
,,,,,,,5dd32e9deab0423455e0358f,60568611ec04488a9e9da93b,6056b091f6469e8a273535c5,United States,South,13 or older,no,2021-03-20_22h38.10.613,empathy_intonation_perc,2020.2.10,Win32,60,,,,,,,,,,0,argentine,0,1,2.0059,0,35,35,47,1,48,./stim/wavs/andalusian_mismatch_declarative-narrow-focus_Mi-tia-odia-la-lluvia.wav,./stim/wavs/argentine_mismatch_declarative-narrow-focus_Mi-tia-odia-la-lluvia.wav,./stim/wavs/castilian_mismatch_declarative-narrow-focus_Mi-tia-odia-la-lluvia.wav,./stim/wavs/chilean_mismatch_declarative-narrow-focus_Mi-tia-odia-la-lluvia.wav,./stim/wavs/cuban_mismatch_declarative-narrow-focus_Mi-tia-odia-la-lluvia.wav,./stim/wavs/mexican_mismatch_declarative-narrow-focus_Mi-tia-odia-la-lluvia.wav,./stim/wavs/peruvian_mismatch_declarative-narrow-focus_Mi-tia-odia-la-lluvia.wav,./stim/wavs/puertorican_mismatch_declarative-narrow-focus_Mi-tia-odia-la-lluvia.wav,,,,,,,,,,,,,,,,,,,,,,,,,,,,,,,,,,,,,,,,,,,,,,,,,,,,,,,,
,,,,,,,5dd32e9deab0423455e0358f,60568611ec04488a9e9da93b,6056b091f6469e8a273535c5,United States,South,13 or older,no,2021-03-20_22h38.10.613,empathy_intonation_perc,2020.2.10,Win32,60,,,,,,,,,,1,mexican,1,1,1.98465,0,36,36,58,1,59,./stim/wavs/andalusian_mismatch_interrogative-total-yn_El-nino-oye-el-rio.wav,./stim/wavs/argentine_mismatch_interrogative-total-yn_El-nino-oye-el-rio.wav,./stim/wavs/castilian_mismatch_interrogative-total-yn_El-nino-oye-el-rio.wav,./stim/wavs/chilean_mismatch_interrogative-total-yn_El-nino-oye-el-rio.wav,./stim/wavs/cuban_mismatch_interrogative-total-yn_El-nino-oye-el-rio.wav,./stim/wavs/mexican_mismatch_interrogative-total-yn_El-nino-oye-el-rio.wav,./stim/wavs/peruvian_mismatch_interrogative-total-yn_El-nino-oye-el-rio.wav,./stim/wavs/puertorican_mismatch_interrogative-total-yn_El-nino-oye-el-rio.wav,,,,,,,,,,,,,,,,,,,,,,,,,,,,,,,,,,,,,,,,,,,,,,,,,,,,,,,,
,,,,,,,5dd32e9deab0423455e0358f,60568611ec04488a9e9da93b,6056b091f6469e8a273535c5,United States,South,13 or older,no,2021-03-20_22h38.10.613,empathy_intonation_perc,2020.2.10,Win32,60,,,,,,,,,,0,chilean,0,1,1.90063,0,37,37,45,1,46,./stim/wavs/andalusian_mismatch_declarative-narrow-focus_Mi-madre-come-la-fruta.wav,./stim/wavs/argentine_mismatch_declarative-narrow-focus_Mi-madre-come-la-fruta.wav,./stim/wavs/castilian_mismatch_declarative-narrow-focus_Mi-madre-come-la-fruta.wav,./stim/wavs/chilean_mismatch_declarative-narrow-focus_Mi-madre-come-la-fruta.wav,./stim/wavs/cuban_mismatch_declarative-narrow-focus_Mi-madre-come-la-fruta.wav,./stim/wavs/mexican_mismatch_declarative-narrow-focus_Mi-madre-come-la-fruta.wav,./stim/wavs/peruvian_mismatch_declarative-narrow-focus_Mi-madre-come-la-fruta.wav,./stim/wavs/puertorican_mismatch_declarative-narrow-focus_Mi-madre-come-la-fruta.wav,,,,,,,,,,,,,,,,,,,,,,,,,,,,,,,,,,,,,,,,,,,,,,,,,,,,,,,,
,,,,,,,5dd32e9deab0423455e0358f,60568611ec04488a9e9da93b,6056b091f6469e8a273535c5,United States,South,13 or older,no,2021-03-20_22h38.10.613,empathy_intonation_perc,2020.2.10,Win32,60,,,,,,,,,,0,castilian,0,1,2.123205,0,38,38,36,1,37,./stim/wavs/andalusian_mismatch_declarative-broad-focus_La-nina-lava-el-plato.wav,./stim/wavs/argentine_mismatch_declarative-broad-focus_La-nina-lava-el-plato.wav,./stim/wavs/castilian_mismatch_declarative-broad-focus_La-nina-lava-el-plato.wav,./stim/wavs/chilean_mismatch_declarative-broad-focus_La-nina-lava-el-plato.wav,./stim/wavs/cuban_mismatch_declarative-broad-focus_La-nina-lava-el-plato.wav,./stim/wavs/mexican_mismatch_declarative-broad-focus_La-nina-lava-el-plato.wav,./stim/wavs/peruvian_mismatch_declarative-broad-focus_La-nina-lava-el-plato.wav,./stim/wavs/puertorican_mismatch_declarative-broad-focus_La-nina-lava-el-plato.wav,,,,,,,,,,,,,,,,,,,,,,,,,,,,,,,,,,,,,,,,,,,,,,,,,,,,,,,,
,,,,,,,5dd32e9deab0423455e0358f,60568611ec04488a9e9da93b,6056b091f6469e8a273535c5,United States,South,13 or older,no,2021-03-20_22h38.10.613,empathy_intonation_perc,2020.2.10,Win32,60,,,,,,,,,,0,cuban,0,1,1.568915,0,39,39,8,1,9,./stim/wavs/andalusian_match_declarative-narrow-focus_Ana-lleva-el-abrigo.wav,./stim/wavs/argentine_match_declarative-narrow-focus_Ana-lleva-el-abrigo.wav,./stim/wavs/castilian_match_declarative-narrow-focus_Ana-lleva-el-abrigo.wav,./stim/wavs/chilean_match_declarative-narrow-focus_Ana-lleva-el-abrigo.wav,./stim/wavs/cuban_match_declarative-narrow-focus_Ana-lleva-el-abrigo.wav,./stim/wavs/mexican_match_declarative-narrow-focus_Ana-lleva-el-abrigo.wav,./stim/wavs/peruvian_match_declarative-narrow-focus_Ana-lleva-el-abrigo.wav,./stim/wavs/puertorican_match_declarative-narrow-focus_Ana-lleva-el-abrigo.wav,,,,,,,,,,,,,,,,,,,,,,,,,,,,,,,,,,,,,,,,,,,,,,,,,,,,,,,,
,,,,,,,5dd32e9deab0423455e0358f,60568611ec04488a9e9da93b,6056b091f6469e8a273535c5,United States,South,13 or older,no,2021-03-20_22h38.10.613,empathy_intonation_perc,2020.2.10,Win32,60,,,,,,,,,,1,chilean,1,1,1.933395,0,40,40,21,1,22,./stim/wavs/andalusian_match_interrogative-partial-wh_Por-que-ama-la-navidad.wav,./stim/wavs/argentine_match_interrogative-partial-wh_Por-que-ama-la-navidad.wav,./stim/wavs/castilian_match_interrogative-partial-wh_Por-que-ama-la-navidad.wav,./stim/wavs/chilean_match_interrogative-partial-wh_Por-que-ama-la-navidad.wav,./stim/wavs/cuban_match_interrogative-partial-wh_Por-que-ama-la-navidad.wav,./stim/wavs/mexican_match_interrogative-partial-wh_Por-que-ama-la-navidad.wav,./stim/wavs/peruvian_match_interrogative-partial-wh_Por-que-ama-la-navidad.wav,./stim/wavs/puertorican_match_interrogative-partial-wh_Por-que-ama-la-navidad.wav,,,,,,,,,,,,,,,,,,,,,,,,,,,,,,,,,,,,,,,,,,,,,,,,,,,,,,,,
,,,,,,,5dd32e9deab0423455e0358f,60568611ec04488a9e9da93b,6056b091f6469e8a273535c5,United States,South,13 or older,no,2021-03-20_22h38.10.613,empathy_intonation_perc,2020.2.10,Win32,60,,,,,,,,,,0,peruvian,0,1,2.267375,0,41,41,14,1,15,./stim/wavs/andalusian_match_declarative-narrow-focus_Mariano-habla-del-tiempo.wav,./stim/wavs/argentine_match_declarative-narrow-focus_Mariano-habla-del-tiempo.wav,./stim/wavs/castilian_match_declarative-narrow-focus_Mariano-habla-del-tiempo.wav,./stim/wavs/chilean_match_declarative-narrow-focus_Mariano-habla-del-tiempo.wav,./stim/wavs/cuban_match_declarative-narrow-focus_Mariano-habla-del-tiempo.wav,./stim/wavs/mexican_match_declarative-narrow-focus_Mariano-habla-del-tiempo.wav,./stim/wavs/peruvian_match_declarative-narrow-focus_Mariano-habla-del-tiempo.wav,./stim/wavs/puertorican_match_declarative-narrow-focus_Mariano-habla-del-tiempo.wav,,,,,,,,,,,,,,,,,,,,,,,,,,,,,,,,,,,,,,,,,,,,,,,,,,,,,,,,
,,,,,,,5dd32e9deab0423455e0358f,60568611ec04488a9e9da93b,6056b091f6469e8a273535c5,United States,South,13 or older,no,2021-03-20_22h38.10.613,empathy_intonation_perc,2020.2.10,Win32,60,,,,,,,,,,0,chilean,0,1,2.8431,0,42,42,41,1,42,./stim/wavs/andalusian_mismatch_declarative-narrow-focus_El-hombre-mira-la-luna.wav,./stim/wavs/argentine_mismatch_declarative-narrow-focus_El-hombre-mira-la-luna.wav,./stim/wavs/castilian_mismatch_declarative-narrow-focus_El-hombre-mira-la-luna.wav,./stim/wavs/chilean_mismatch_declarative-narrow-focus_El-hombre-mira-la-luna.wav,./stim/wavs/cuban_mismatch_declarative-narrow-focus_El-hombre-mira-la-luna.wav,./stim/wavs/mexican_mismatch_declarative-narrow-focus_El-hombre-mira-la-luna.wav,./stim/wavs/peruvian_mismatch_declarative-narrow-focus_El-hombre-mira-la-luna.wav,./stim/wavs/puertorican_mismatch_declarative-narrow-focus_El-hombre-mira-la-luna.wav,,,,,,,,,,,,,,,,,,,,,,,,,,,,,,,,,,,,,,,,,,,,,,,,,,,,,,,,
,,,,,,,5dd32e9deab0423455e0358f,60568611ec04488a9e9da93b,6056b091f6469e8a273535c5,United States,South,13 or older,no,2021-03-20_22h38.10.613,empathy_intonation_perc,2020.2.10,Win32,60,,,,,,,,,,0,castilian,0,1,1.939875,0,43,43,5,1,6,./stim/wavs/andalusian_match_declarative-broad-focus_Maria-bebe-el-vino.wav,./stim/wavs/argentine_match_declarative-broad-focus_Maria-bebe-el-vino.wav,./stim/wavs/castilian_match_declarative-broad-focus_Maria-bebe-el-vino.wav,./stim/wavs/chilean_match_declarative-broad-focus_Maria-bebe-el-vino.wav,./stim/wavs/cuban_match_declarative-broad-focus_Maria-bebe-el-vino.wav,./stim/wavs/mexican_match_declarative-broad-focus_Maria-bebe-el-vino.wav,./stim/wavs/peruvian_match_declarative-broad-focus_Maria-bebe-el-vino.wav,./stim/wavs/puertorican_match_declarative-broad-focus_Maria-bebe-el-vino.wav,,,,,,,,,,,,,,,,,,,,,,,,,,,,,,,,,,,,,,,,,,,,,,,,,,,,,,,,
,,,,,,,5dd32e9deab0423455e0358f,60568611ec04488a9e9da93b,6056b091f6469e8a273535c5,United States,South,13 or older,no,2021-03-20_22h38.10.613,empathy_intonation_perc,2020.2.10,Win32,60,,,,,,,,,,0,peruvian,0,1,2.05191,0,44,44,2,1,3,./stim/wavs/andalusian_match_declarative-broad-focus_David-leia-el-libro.wav,./stim/wavs/argentine_match_declarative-broad-focus_David-leia-el-libro.wav,./stim/wavs/castilian_match_declarative-broad-focus_David-leia-el-libro.wav,./stim/wavs/chilean_match_declarative-broad-focus_David-leia-el-libro.wav,./stim/wavs/cuban_match_declarative-broad-focus_David-leia-el-libro.wav,./stim/wavs/mexican_match_declarative-broad-focus_David-leia-el-libro.wav,./stim/wavs/peruvian_match_declarative-broad-focus_David-leia-el-libro.wav,./stim/wavs/puertorican_match_declarative-broad-focus_David-leia-el-libro.wav,,,,,,,,,,,,,,,,,,,,,,,,,,,,,,,,,,,,,,,,,,,,,,,,,,,,,,,,
,,,,,,,5dd32e9deab0423455e0358f,60568611ec04488a9e9da93b,6056b091f6469e8a273535c5,United States,South,13 or older,no,2021-03-20_22h38.10.613,empathy_intonation_perc,2020.2.10,Win32,60,,,,,,,,,,1,argentine,1,1,1.78577,0,45,45,19,1,20,./stim/wavs/andalusian_match_interrogative-partial-wh_Cuando-vendia-el-carro.wav,./stim/wavs/argentine_match_interrogative-partial-wh_Cuando-vendia-el-carro.wav,./stim/wavs/castilian_match_interrogative-partial-wh_Cuando-vendia-el-carro.wav,./stim/wavs/chilean_match_interrogative-partial-wh_Cuando-vendia-el-carro.wav,./stim/wavs/cuban_match_interrogative-partial-wh_Cuando-vendia-el-carro.wav,./stim/wavs/mexican_match_interrogative-partial-wh_Cuando-vendia-el-carro.wav,./stim/wavs/peruvian_match_interrogative-partial-wh_Cuando-vendia-el-carro.wav,./stim/wavs/puertorican_match_interrogative-partial-wh_Cuando-vendia-el-carro.wav,,,,,,,,,,,,,,,,,,,,,,,,,,,,,,,,,,,,,,,,,,,,,,,,,,,,,,,,
,,,,,,,5dd32e9deab0423455e0358f,60568611ec04488a9e9da93b,6056b091f6469e8a273535c5,United States,South,13 or older,no,2021-03-20_22h38.10.613,empathy_intonation_perc,2020.2.10,Win32,60,,,,,,,,,,1,puertorican,1,1,1.93376,0,46,46,48,1,49,./stim/wavs/andalusian_mismatch_interrogative-partial-wh_Cuando-comia-la-fruta.wav,./stim/wavs/argentine_mismatch_interrogative-partial-wh_Cuando-comia-la-fruta.wav,./stim/wavs/castilian_mismatch_interrogative-partial-wh_Cuando-comia-la-fruta.wav,./stim/wavs/chilean_mismatch_interrogative-partial-wh_Cuando-comia-la-fruta.wav,./stim/wavs/cuban_mismatch_interrogative-partial-wh_Cuando-comia-la-fruta.wav,./stim/wavs/mexican_mismatch_interrogative-partial-wh_Cuando-comia-la-fruta.wav,./stim/wavs/peruvian_mismatch_interrogative-partial-wh_Cuando-comia-la-fruta.wav,./stim/wavs/puertorican_mismatch_interrogative-partial-wh_Cuando-comia-la-fruta.wav,,,,,,,,,,,,,,,,,,,,,,,,,,,,,,,,,,,,,,,,,,,,,,,,,,,,,,,,
,,,,,,,5dd32e9deab0423455e0358f,60568611ec04488a9e9da93b,6056b091f6469e8a273535c5,United States,South,13 or older,no,2021-03-20_22h38.10.613,empathy_intonation_perc,2020.2.10,Win32,60,,,,,,,,,,1,peruvian,1,1,2.603095,0,47,47,31,1,32,./stim/wavs/andalusian_match_interrogative-total-yn_Marta-abre-el-regalo.wav,./stim/wavs/argentine_match_interrogative-total-yn_Marta-abre-el-regalo.wav,./stim/wavs/castilian_match_interrogative-total-yn_Marta-abre-el-regalo.wav,./stim/wavs/chilean_match_interrogative-total-yn_Marta-abre-el-regalo.wav,./stim/wavs/cuban_match_interrogative-total-yn_Marta-abre-el-regalo.wav,./stim/wavs/mexican_match_interrogative-total-yn_Marta-abre-el-regalo.wav,./stim/wavs/peruvian_match_interrogative-total-yn_Marta-abre-el-regalo.wav,./stim/wavs/puertorican_match_interrogative-total-yn_Marta-abre-el-regalo.wav,,,,,,,,,,,,,,,,,,,,,,,,,,,,,,,,,,,,,,,,,,,,,,,,,,,,,,,,
,,,,,,,5dd32e9deab0423455e0358f,60568611ec04488a9e9da93b,6056b091f6469e8a273535c5,United States,South,13 or older,no,2021-03-20_22h38.10.613,empathy_intonation_perc,2020.2.10,Win32,60,,,,,,,,,,0,puertorican,0,1,2.18907,0,48,48,4,1,5,./stim/wavs/andalusian_match_declarative-broad-focus_Manuela-vende-el-carro.wav,./stim/wavs/argentine_match_declarative-broad-focus_Manuela-vende-el-carro.wav,./stim/wavs/castilian_match_declarative-broad-focus_Manuela-vende-el-carro.wav,./stim/wavs/chilean_match_declarative-broad-focus_Manuela-vende-el-carro.wav,./stim/wavs/cuban_match_declarative-broad-focus_Manuela-vende-el-carro.wav,./stim/wavs/mexican_match_declarative-broad-focus_Manuela-vende-el-carro.wav,./stim/wavs/peruvian_match_declarative-broad-focus_Manuela-vende-el-carro.wav,./stim/wavs/puertorican_match_declarative-broad-focus_Manuela-vende-el-carro.wav,,,,,,,,,,,,,,,,,,,,,,,,,,,,,,,,,,,,,,,,,,,,,,,,,,,,,,,,
,,,,,,,5dd32e9deab0423455e0358f,60568611ec04488a9e9da93b,6056b091f6469e8a273535c5,United States,South,13 or older,no,2021-03-20_22h38.10.613,empathy_intonation_perc,2020.2.10,Win32,60,,,,,,,,,,0,puertorican,0,1,1.856555,0,49,49,10,1,11,./stim/wavs/andalusian_match_declarative-narrow-focus_David-leia-el-libro.wav,./stim/wavs/argentine_match_declarative-narrow-focus_David-leia-el-libro.wav,./stim/wavs/castilian_match_declarative-narrow-focus_David-leia-el-libro.wav,./stim/wavs/chilean_match_declarative-narrow-focus_David-leia-el-libro.wav,./stim/wavs/cuban_match_declarative-narrow-focus_David-leia-el-libro.wav,./stim/wavs/mexican_match_declarative-narrow-focus_David-leia-el-libro.wav,./stim/wavs/peruvian_match_declarative-narrow-focus_David-leia-el-libro.wav,./stim/wavs/puertorican_match_declarative-narrow-focus_David-leia-el-libro.wav,,,,,,,,,,,,,,,,,,,,,,,,,,,,,,,,,,,,,,,,,,,,,,,,,,,,,,,,
,,,,,,,5dd32e9deab0423455e0358f,60568611ec04488a9e9da93b,6056b091f6469e8a273535c5,United States,South,13 or older,no,2021-03-20_22h38.10.613,empathy_intonation_perc,2020.2.10,Win32,60,,,,,,,,,,1,castilian,1,1,2.113105,0,50,50,56,1,57,./stim/wavs/andalusian_mismatch_interrogative-total-yn_El-bebe-comia-muy-bien.wav,./stim/wavs/argentine_mismatch_interrogative-total-yn_El-bebe-comia-muy-bien.wav,./stim/wavs/castilian_mismatch_interrogative-total-yn_El-bebe-comia-muy-bien.wav,./stim/wavs/chilean_mismatch_interrogative-total-yn_El-bebe-comia-muy-bien.wav,./stim/wavs/cuban_mismatch_interrogative-total-yn_El-bebe-comia-muy-bien.wav,./stim/wavs/mexican_mismatch_interrogative-total-yn_El-bebe-comia-muy-bien.wav,./stim/wavs/peruvian_mismatch_interrogative-total-yn_El-bebe-comia-muy-bien.wav,./stim/wavs/puertorican_mismatch_interrogative-total-yn_El-bebe-comia-muy-bien.wav,,,,,,,,,,,,,,,,,,,,,,,,,,,,,,,,,,,,,,,,,,,,,,,,,,,,,,,,
,,,,,,,5dd32e9deab0423455e0358f,60568611ec04488a9e9da93b,6056b091f6469e8a273535c5,United States,South,13 or older,no,2021-03-20_22h38.10.613,empathy_intonation_perc,2020.2.10,Win32,60,,,,,,,,,,0,cuban,0,1,1.84887,0,51,51,42,1,43,./stim/wavs/andalusian_mismatch_declarative-narrow-focus_El-nino-oye-el-rio.wav,./stim/wavs/argentine_mismatch_declarative-narrow-focus_El-nino-oye-el-rio.wav,./stim/wavs/castilian_mismatch_declarative-narrow-focus_El-nino-oye-el-rio.wav,./stim/wavs/chilean_mismatch_declarative-narrow-focus_El-nino-oye-el-rio.wav,./stim/wavs/cuban_mismatch_declarative-narrow-focus_El-nino-oye-el-rio.wav,./stim/wavs/mexican_mismatch_declarative-narrow-focus_El-nino-oye-el-rio.wav,./stim/wavs/peruvian_mismatch_declarative-narrow-focus_El-nino-oye-el-rio.wav,./stim/wavs/puertorican_mismatch_declarative-narrow-focus_El-nino-oye-el-rio.wav,,,,,,,,,,,,,,,,,,,,,,,,,,,,,,,,,,,,,,,,,,,,,,,,,,,,,,,,
,,,,,,,5dd32e9deab0423455e0358f,60568611ec04488a9e9da93b,6056b091f6469e8a273535c5,United States,South,13 or older,no,2021-03-20_22h38.10.613,empathy_intonation_perc,2020.2.10,Win32,60,,,,,,,,,,0,puertorican,0,1,1.721,0,52,52,33,1,34,./stim/wavs/andalusian_mismatch_declarative-broad-focus_El-hombre-mira-la-luna.wav,./stim/wavs/argentine_mismatch_declarative-broad-focus_El-hombre-mira-la-luna.wav,./stim/wavs/castilian_mismatch_declarative-broad-focus_El-hombre-mira-la-luna.wav,./stim/wavs/chilean_mismatch_declarative-broad-focus_El-hombre-mira-la-luna.wav,./stim/wavs/cuban_mismatch_declarative-broad-focus_El-hombre-mira-la-luna.wav,./stim/wavs/mexican_mismatch_declarative-broad-focus_El-hombre-mira-la-luna.wav,./stim/wavs/peruvian_mismatch_declarative-broad-focus_El-hombre-mira-la-luna.wav,./stim/wavs/puertorican_mismatch_declarative-broad-focus_El-hombre-mira-la-luna.wav,,,,,,,,,,,,,,,,,,,,,,,,,,,,,,,,,,,,,,,,,,,,,,,,,,,,,,,,
,,,,,,,5dd32e9deab0423455e0358f,60568611ec04488a9e9da93b,6056b091f6469e8a273535c5,United States,South,13 or older,no,2021-03-20_22h38.10.613,empathy_intonation_perc,2020.2.10,Win32,60,,,,,,,,,,1,castilian,1,1,1.951225,0,53,53,63,1,64,./stim/wavs/andalusian_mismatch_interrogative-total-yn_Mi-tia-odia-la-lluvia.wav,./stim/wavs/argentine_mismatch_interrogative-total-yn_Mi-tia-odia-la-lluvia.wav,./stim/wavs/castilian_mismatch_interrogative-total-yn_Mi-tia-odia-la-lluvia.wav,./stim/wavs/chilean_mismatch_interrogative-total-yn_Mi-tia-odia-la-lluvia.wav,./stim/wavs/cuban_mismatch_interrogative-total-yn_Mi-tia-odia-la-lluvia.wav,./stim/wavs/mexican_mismatch_interrogative-total-yn_Mi-tia-odia-la-lluvia.wav,./stim/wavs/peruvian_mismatch_interrogative-total-yn_Mi-tia-odia-la-lluvia.wav,./stim/wavs/puertorican_mismatch_interrogative-total-yn_Mi-tia-odia-la-lluvia.wav,,,,,,,,,,,,,,,,,,,,,,,,,,,,,,,,,,,,,,,,,,,,,,,,,,,,,,,,
,,,,,,,5dd32e9deab0423455e0358f,60568611ec04488a9e9da93b,6056b091f6469e8a273535c5,United States,South,13 or older,no,2021-03-20_22h38.10.613,empathy_intonation_perc,2020.2.10,Win32,60,,,,,,,,,,1,castilian,1,1,1.62787,0,54,54,16,1,17,./stim/wavs/andalusian_match_interrogative-partial-wh_Cuando-bebia-el-vino.wav,./stim/wavs/argentine_match_interrogative-partial-wh_Cuando-bebia-el-vino.wav,./stim/wavs/castilian_match_interrogative-partial-wh_Cuando-bebia-el-vino.wav,./stim/wavs/chilean_match_interrogative-partial-wh_Cuando-bebia-el-vino.wav,./stim/wavs/cuban_match_interrogative-partial-wh_Cuando-bebia-el-vino.wav,./stim/wavs/mexican_match_interrogative-partial-wh_Cuando-bebia-el-vino.wav,./stim/wavs/peruvian_match_interrogative-partial-wh_Cuando-bebia-el-vino.wav,./stim/wavs/puertorican_match_interrogative-partial-wh_Cuando-bebia-el-vino.wav,,,,,,,,,,,,,,,,,,,,,,,,,,,,,,,,,,,,,,,,,,,,,,,,,,,,,,,,
,,,,,,,5dd32e9deab0423455e0358f,60568611ec04488a9e9da93b,6056b091f6469e8a273535c5,United States,South,13 or older,no,2021-03-20_22h38.10.613,empathy_intonation_perc,2020.2.10,Win32,60,,,,,,,,,,1,castilian,1,1,1.97365,0,55,55,27,1,28,./stim/wavs/andalusian_match_interrogative-total-yn_Emilio-ama-la-marcha.wav,./stim/wavs/argentine_match_interrogative-total-yn_Emilio-ama-la-marcha.wav,./stim/wavs/castilian_match_interrogative-total-yn_Emilio-ama-la-marcha.wav,./stim/wavs/chilean_match_interrogative-total-yn_Emilio-ama-la-marcha.wav,./stim/wavs/cuban_match_interrogative-total-yn_Emilio-ama-la-marcha.wav,./stim/wavs/mexican_match_interrogative-total-yn_Emilio-ama-la-marcha.wav,./stim/wavs/peruvian_match_interrogative-total-yn_Emilio-ama-la-marcha.wav,./stim/wavs/puertorican_match_interrogative-total-yn_Emilio-ama-la-marcha.wav,,,,,,,,,,,,,,,,,,,,,,,,,,,,,,,,,,,,,,,,,,,,,,,,,,,,,,,,
,,,,,,,5dd32e9deab0423455e0358f,60568611ec04488a9e9da93b,6056b091f6469e8a273535c5,United States,South,13 or older,no,2021-03-20_22h38.10.613,empathy_intonation_perc,2020.2.10,Win32,60,,,,,,,,,,0,cuban,0,1,2.14638,0,56,56,34,1,35,./stim/wavs/andalusian_mismatch_declarative-broad-focus_El-nino-oye-el-rio.wav,./stim/wavs/argentine_mismatch_declarative-broad-focus_El-nino-oye-el-rio.wav,./stim/wavs/castilian_mismatch_declarative-broad-focus_El-nino-oye-el-rio.wav,./stim/wavs/chilean_mismatch_declarative-broad-focus_El-nino-oye-el-rio.wav,./stim/wavs/cuban_mismatch_declarative-broad-focus_El-nino-oye-el-rio.wav,./stim/wavs/mexican_mismatch_declarative-broad-focus_El-nino-oye-el-rio.wav,./stim/wavs/peruvian_mismatch_declarative-broad-focus_El-nino-oye-el-rio.wav,./stim/wavs/puertorican_mismatch_declarative-broad-focus_El-nino-oye-el-rio.wav,,,,,,,,,,,,,,,,,,,,,,,,,,,,,,,,,,,,,,,,,,,,,,,,,,,,,,,,
,,,,,,,5dd32e9deab0423455e0358f,60568611ec04488a9e9da93b,6056b091f6469e8a273535c5,United States,South,13 or older,no,2021-03-20_22h38.10.613,empathy_intonation_perc,2020.2.10,Win32,60,,,,,,,,,,0,argentine,0,1,1.89521,0,57,57,7,1,8,./stim/wavs/andalusian_match_declarative-broad-focus_Marta-abre-el-regalo.wav,./stim/wavs/argentine_match_declarative-broad-focus_Marta-abre-el-regalo.wav,./stim/wavs/castilian_match_declarative-broad-focus_Marta-abre-el-regalo.wav,./stim/wavs/chilean_match_declarative-broad-focus_Marta-abre-el-regalo.wav,./stim/wavs/cuban_match_declarative-broad-focus_Marta-abre-el-regalo.wav,./stim/wavs/mexican_match_declarative-broad-focus_Marta-abre-el-regalo.wav,./stim/wavs/peruvian_match_declarative-broad-focus_Marta-abre-el-regalo.wav,./stim/wavs/puertorican_match_declarative-broad-focus_Marta-abre-el-regalo.wav,,,,,,,,,,,,,,,,,,,,,,,,,,,,,,,,,,,,,,,,,,,,,,,,,,,,,,,,
,,,,,,,5dd32e9deab0423455e0358f,60568611ec04488a9e9da93b,6056b091f6469e8a273535c5,United States,South,13 or older,no,2021-03-20_22h38.10.613,empathy_intonation_perc,2020.2.10,Win32,60,,,,,,,,,,0,chilean,0,1,2.19857,0,58,58,35,1,36,./stim/wavs/andalusian_mismatch_declarative-broad-focus_La-maestra-vive-en-Paris.wav,./stim/wavs/argentine_mismatch_declarative-broad-focus_La-maestra-vive-en-Paris.wav,./stim/wavs/castilian_mismatch_declarative-broad-focus_La-maestra-vive-en-Paris.wav,./stim/wavs/chilean_mismatch_declarative-broad-focus_La-maestra-vive-en-Paris.wav,./stim/wavs/cuban_mismatch_declarative-broad-focus_La-maestra-vive-en-Paris.wav,./stim/wavs/mexican_mismatch_declarative-broad-focus_La-maestra-vive-en-Paris.wav,./stim/wavs/peruvian_mismatch_declarative-broad-focus_La-maestra-vive-en-Paris.wav,./stim/wavs/puertorican_mismatch_declarative-broad-focus_La-maestra-vive-en-Paris.wav,,,,,,,,,,,,,,,,,,,,,,,,,,,,,,,,,,,,,,,,,,,,,,,,,,,,,,,,
,,,,,,,5dd32e9deab0423455e0358f,60568611ec04488a9e9da93b,6056b091f6469e8a273535c5,United States,South,13 or older,no,2021-03-20_22h38.10.613,empathy_intonation_perc,2020.2.10,Win32,60,,,,,,,,,,1,mexican,1,1,1.625685,0,59,59,53,1,54,./stim/wavs/andalusian_mismatch_interrogative-partial-wh_Por-que-oia-el-rio.wav,./stim/wavs/argentine_mismatch_interrogative-partial-wh_Por-que-oia-el-rio.wav,./stim/wavs/castilian_mismatch_interrogative-partial-wh_Por-que-oia-el-rio.wav,./stim/wavs/chilean_mismatch_interrogative-partial-wh_Por-que-oia-el-rio.wav,./stim/wavs/cuban_mismatch_interrogative-partial-wh_Por-que-oia-el-rio.wav,./stim/wavs/mexican_mismatch_interrogative-partial-wh_Por-que-oia-el-rio.wav,./stim/wavs/peruvian_mismatch_interrogative-partial-wh_Por-que-oia-el-rio.wav,./stim/wavs/puertorican_mismatch_interrogative-partial-wh_Por-que-oia-el-rio.wav,,,,,,,,,,,,,,,,,,,,,,,,,,,,,,,,,,,,,,,,,,,,,,,,,,,,,,,,
,,,,,,,5dd32e9deab0423455e0358f,60568611ec04488a9e9da93b,6056b091f6469e8a273535c5,United States,South,13 or older,no,2021-03-20_22h38.10.613,empathy_intonation_perc,2020.2.10,Win32,60,,,,,,,,,,1,argentine,1,1,2.004085,0,60,60,22,1,23,./stim/wavs/andalusian_match_interrogative-partial-wh_Por-que-hablaba-del-agua.wav,./stim/wavs/argentine_match_interrogative-partial-wh_Por-que-hablaba-del-agua.wav,./stim/wavs/castilian_match_interrogative-partial-wh_Por-que-hablaba-del-agua.wav,./stim/wavs/chilean_match_interrogative-partial-wh_Por-que-hablaba-del-agua.wav,./stim/wavs/cuban_match_interrogative-partial-wh_Por-que-hablaba-del-agua.wav,./stim/wavs/mexican_match_interrogative-partial-wh_Por-que-hablaba-del-agua.wav,./stim/wavs/peruvian_match_interrogative-partial-wh_Por-que-hablaba-del-agua.wav,./stim/wavs/puertorican_match_interrogative-partial-wh_Por-que-hablaba-del-agua.wav,,,,,,,,,,,,,,,,,,,,,,,,,,,,,,,,,,,,,,,,,,,,,,,,,,,,,,,,
,,,,,,,5dd32e9deab0423455e0358f,60568611ec04488a9e9da93b,6056b091f6469e8a273535c5,United States,South,13 or older,no,2021-03-20_22h38.10.613,empathy_intonation_perc,2020.2.10,Win32,60,,,,,,,,,,0,peruvian,0,1,2.73519,0,61,61,40,1,41,./stim/wavs/andalusian_mismatch_declarative-narrow-focus_El-bebe-comia-muy-bien.wav,./stim/wavs/argentine_mismatch_declarative-narrow-focus_El-bebe-comia-muy-bien.wav,./stim/wavs/castilian_mismatch_declarative-narrow-focus_El-bebe-comia-muy-bien.wav,./stim/wavs/chilean_mismatch_declarative-narrow-focus_El-bebe-comia-muy-bien.wav,./stim/wavs/cuban_mismatch_declarative-narrow-focus_El-bebe-comia-muy-bien.wav,./stim/wavs/mexican_mismatch_declarative-narrow-focus_El-bebe-comia-muy-bien.wav,./stim/wavs/peruvian_mismatch_declarative-narrow-focus_El-bebe-comia-muy-bien.wav,./stim/wavs/puertorican_mismatch_declarative-narrow-focus_El-bebe-comia-muy-bien.wav,,,,,,,,,,,,,,,,,,,,,,,,,,,,,,,,,,,,,,,,,,,,,,,,,,,,,,,,
,,,,,,,5dd32e9deab0423455e0358f,60568611ec04488a9e9da93b,6056b091f6469e8a273535c5,United States,South,13 or older,no,2021-03-20_22h38.10.613,empathy_intonation_perc,2020.2.10,Win32,60,,,,,,,,,,0,argentine,0,1,2.011785,0,62,62,9,1,10,./stim/wavs/andalusian_match_declarative-narrow-focus_Daniel-iba-a-Bolivia.wav,./stim/wavs/argentine_match_declarative-narrow-focus_Daniel-iba-a-Bolivia.wav,./stim/wavs/castilian_match_declarative-narrow-focus_Daniel-iba-a-Bolivia.wav,./stim/wavs/chilean_match_declarative-narrow-focus_Daniel-iba-a-Bolivia.wav,./stim/wavs/cuban_match_declarative-narrow-focus_Daniel-iba-a-Bolivia.wav,./stim/wavs/mexican_match_declarative-narrow-focus_Daniel-iba-a-Bolivia.wav,./stim/wavs/peruvian_match_declarative-narrow-focus_Daniel-iba-a-Bolivia.wav,./stim/wavs/puertorican_match_declarative-narrow-focus_Daniel-iba-a-Bolivia.wav,,,,,,,,,,,,,,,,,,,,,,,,,,,,,,,,,,,,,,,,,,,,,,,,,,,,,,,,
,,,,,,,5dd32e9deab0423455e0358f,60568611ec04488a9e9da93b,6056b091f6469e8a273535c5,United States,South,13 or older,no,2021-03-20_22h38.10.613,empathy_intonation_perc,2020.2.10,Win32,60,,,,,,,,,,1,puertorican,0,0,2.886465,0,63,63,20,1,21,./stim/wavs/andalusian_match_interrogative-partial-wh_Por-que-abre-el-regalo.wav,./stim/wavs/argentine_match_interrogative-partial-wh_Por-que-abre-el-regalo.wav,./stim/wavs/castilian_match_interrogative-partial-wh_Por-que-abre-el-regalo.wav,./stim/wavs/chilean_match_interrogative-partial-wh_Por-que-abre-el-regalo.wav,./stim/wavs/cuban_match_interrogative-partial-wh_Por-que-abre-el-regalo.wav,./stim/wavs/mexican_match_interrogative-partial-wh_Por-que-abre-el-regalo.wav,./stim/wavs/peruvian_match_interrogative-partial-wh_Por-que-abre-el-regalo.wav,./stim/wavs/puertorican_match_interrogative-partial-wh_Por-que-abre-el-regalo.wav,,,,,,,,,,,,,,,,,,,,,,,,,,,,,,,,,,,,,,,,,,,,,,,,,,,,,,,,
,,,,,,,5dd32e9deab0423455e0358f,60568611ec04488a9e9da93b,6056b091f6469e8a273535c5,United States,South,13 or older,no,2021-03-20_22h38.10.613,empathy_intonation_perc,2020.2.10,Win32,60,,,,,,,,,,,,,,,,,,,,,,,,,,,,,h,1,7.579745,0,0,0,0,1,,,,,,,,,,,,,,,,,,,,,,,,,,,,,,,,,,,,,,,,,,,,,,,,
,,,,,"Great! Now we will move on. The next task consists of about 60 trials, in each of which you will see a string of letters. 
  
  Your task is to decide whether this is a real Spanish word or not.",(press the spacebar to continue),5dd32e9deab0423455e0358f,60568611ec04488a9e9da93b,6056b091f6469e8a273535c5,United States,South,13 or older,no,2021-03-20_22h38.10.613,empathy_intonation_perc,2020.2.10,Win32,60,,,,,,,,,,,,,,,,,,,,,,,,,,,,,,,,,,,,,0,0,0,0,1,,,,,,,,,,,,,,,,,,,,,,,,,,,,,,,,,,,,,,,,,,,
,,,,,"If you think it is an existing Spanish word, you type '1' (for 'REAL'), and if you think it is not an existing Spanish word, you type '0' (for 'FAKE').",(press the spacebar to continue),5dd32e9deab0423455e0358f,60568611ec04488a9e9da93b,6056b091f6469e8a273535c5,United States,South,13 or older,no,2021-03-20_22h38.10.613,empathy_intonation_perc,2020.2.10,Win32,60,,,,,,,,,,,,,,,,,,,,,,,,,,,,,,,,,,,,,0,1,1,1,1,,,,,,,,,,,,,,,,,,,,,,,,,,,,,,,,,,,,,,,,,,,
,,,,,"If you are sure that the word exists, even though you dont know its exact meaning, you may still respond '1' (REAL). 
  
  But if you are not sure if it is an existing word, you should respond '0' (FAKE).
  
  Let's do a practice round...",(press the spacebar to continue),5dd32e9deab0423455e0358f,60568611ec04488a9e9da93b,6056b091f6469e8a273535c5,United States,South,13 or older,no,2021-03-20_22h38.10.613,empathy_intonation_perc,2020.2.10,Win32,60,,,,,,,,,,,,,,,,,,,,,,,,,,,,,,,,,,,,,0,2,2,2,1,,,,,,,,,,,,,,,,,,,,,,,,,,,,,,,,,,,,,,,,,,,
,,,,,,,5dd32e9deab0423455e0358f,60568611ec04488a9e9da93b,6056b091f6469e8a273535c5,United States,South,13 or older,no,2021-03-20_22h38.10.613,empathy_intonation_perc,2020.2.10,Win32,60,,,,,,,,,,0,,,,,,,,,,,,,,,,,,,,,,,,,,,,,,,,1,0,1.790935,0,0,0,0,1,0,depiste,REAL,FAKE,,,,,,,,,,,,,,,,,,,,,,,,,,,,,,,
,,,,,,,5dd32e9deab0423455e0358f,60568611ec04488a9e9da93b,6056b091f6469e8a273535c5,United States,South,13 or older,no,2021-03-20_22h38.10.613,empathy_intonation_perc,2020.2.10,Win32,60,,,,,,,,,,1,,,,,,,,,,,,,,,,,,,,,,,,,,,,,,,,1,1,1.61164,0,1,1,1,1,0,s,REAL,FAKE,,,,,,,,,,,,,,,,,,,,,,,,,,,,,,,
,,,,,,,5dd32e9deab0423455e0358f,60568611ec04488a9e9da93b,6056b091f6469e8a273535c5,United States,South,13 or older,no,2021-03-20_22h38.10.613,empathy_intonation_perc,2020.2.10,Win32,60,,,,,,,,,,0,,,,,,,,,,,,,,,,,,,,,,,,,,,,,,,,0,1,2.141155,0,2,2,2,1,0,con,REAL,FAKE,,,,,,,,,,,,,,,,,,,,,,,,,,,,,,,
,,,,,,,5dd32e9deab0423455e0358f,60568611ec04488a9e9da93b,6056b091f6469e8a273535c5,United States,South,13 or older,no,2021-03-20_22h38.10.613,empathy_intonation_perc,2020.2.10,Win32,60,,,,,,,,,,0,,,,,,,,,,,,,,,,,,,,,,,,,,,,,,,,1,0,1.530905,0,3,3,3,1,0,calpar,REAL,FAKE,,,,,,,,,,,,,,,,,,,,,,,,,,,,,,,
,,,,,,,5dd32e9deab0423455e0358f,60568611ec04488a9e9da93b,6056b091f6469e8a273535c5,United States,South,13 or older,no,2021-03-20_22h38.10.613,empathy_intonation_perc,2020.2.10,Win32,60,,,,,,,,,,0,,,,,,,,,,,,,,,,,,,,,,,,,,,,,,,,0,1,1.985595,0,4,4,4,1,0,joten,REAL,FAKE,,,,,,,,,,,,,,,,,,,,,,,,,,,,,,,
,,,,,,,5dd32e9deab0423455e0358f,60568611ec04488a9e9da93b,6056b091f6469e8a273535c5,United States,South,13 or older,no,2021-03-20_22h38.10.613,empathy_intonation_perc,2020.2.10,Win32,60,,,,,,,,,,1,,,,,,,,,,,,,,,,,,,,,,,,,,,,,,,,0,0,1.716595,0,5,5,5,1,0,sacapuntas,REAL,FAKE,,,,,,,,,,,,,,,,,,,,,,,,,,,,,,,
,,,,,,,5dd32e9deab0423455e0358f,60568611ec04488a9e9da93b,6056b091f6469e8a273535c5,United States,South,13 or older,no,2021-03-20_22h38.10.613,empathy_intonation_perc,2020.2.10,Win32,60,,,,,,,,,,0,,,,,,,,,,,,,,,,,,,,,,,,,,,,,,,,0,1,1.585255,0,6,6,6,1,0,priba,REAL,FAKE,,,,,,,,,,,,,,,,,,,,,,,,,,,,,,,
,,,,,,,5dd32e9deab0423455e0358f,60568611ec04488a9e9da93b,6056b091f6469e8a273535c5,United States,South,13 or older,no,2021-03-20_22h38.10.613,empathy_intonation_perc,2020.2.10,Win32,60,,,,,,,,,,0,,,,,,,,,,,,,,,,,,,,,,,,,,,,,,,,0,1,1.3665,0,7,7,7,1,0,pelasula,REAL,FAKE,,,,,,,,,,,,,,,,,,,,,,,,,,,,,,,
,,,,,,,5dd32e9deab0423455e0358f,60568611ec04488a9e9da93b,6056b091f6469e8a273535c5,United States,South,13 or older,no,2021-03-20_22h38.10.613,empathy_intonation_perc,2020.2.10,Win32,60,,,,,,,,,,1,,,,,,,,,,,,,,,,,,,,,,,,,,,,,,,,1,1,1.21762,0,8,8,8,1,0,bien,REAL,FAKE,,,,,,,,,,,,,,,,,,,,,,,,,,,,,,,
,,,,,,,5dd32e9deab0423455e0358f,60568611ec04488a9e9da93b,6056b091f6469e8a273535c5,United States,South,13 or older,no,2021-03-20_22h38.10.613,empathy_intonation_perc,2020.2.10,Win32,60,,,,,,,,,,1,,,,,,,,,,,,,,,,,,,,,,,,,,,,,,,,1,1,1.091715,0,9,9,9,1,0,casa,REAL,FAKE,,,,,,,,,,,,,,,,,,,,,,,,,,,,,,,
,,,,,,,5dd32e9deab0423455e0358f,60568611ec04488a9e9da93b,6056b091f6469e8a273535c5,United States,South,13 or older,no,2021-03-20_22h38.10.613,empathy_intonation_perc,2020.2.10,Win32,60,,,,,,,,,,0,,,,,,,,,,,,,,,,,,,,,,,,,,,,,,,,0,1,2.170035,0,10,10,10,1,0,lejo,REAL,FAKE,,,,,,,,,,,,,,,,,,,,,,,,,,,,,,,
,,,,,,,5dd32e9deab0423455e0358f,60568611ec04488a9e9da93b,6056b091f6469e8a273535c5,United States,South,13 or older,no,2021-03-20_22h38.10.613,empathy_intonation_perc,2020.2.10,Win32,60,,,,,,,,,,0,,,,,,,,,,,,,,,,,,,,,,,,,,,,,,,,0,1,1.319475,0,11,11,11,1,0,pretantas,REAL,FAKE,,,,,,,,,,,,,,,,,,,,,,,,,,,,,,,
,,,,,,,5dd32e9deab0423455e0358f,60568611ec04488a9e9da93b,6056b091f6469e8a273535c5,United States,South,13 or older,no,2021-03-20_22h38.10.613,empathy_intonation_perc,2020.2.10,Win32,60,,,,,,,,,,0,,,,,,,,,,,,,,,,,,,,,,,,,,,,,,,,,,,,,,,,33,pauca,,,0,1,1.432685,0,0,0,32,1,REAL,FAKE,,,,,,,,,,,,,,,,,,,,,
,,,,,,,5dd32e9deab0423455e0358f,60568611ec04488a9e9da93b,6056b091f6469e8a273535c5,United States,South,13 or older,no,2021-03-20_22h38.10.613,empathy_intonation_perc,2020.2.10,Win32,60,,,,,,,,,,1,,,,,,,,,,,,,,,,,,,,,,,,,,,,,,,,,,,,,,,,65,bizcocho,,,0,0,1.70669,0,1,1,64,1,REAL,FAKE,,,,,,,,,,,,,,,,,,,,,
,,,,,,,5dd32e9deab0423455e0358f,60568611ec04488a9e9da93b,6056b091f6469e8a273535c5,United States,South,13 or older,no,2021-03-20_22h38.10.613,empathy_intonation_perc,2020.2.10,Win32,60,,,,,,,,,,1,,,,,,,,,,,,,,,,,,,,,,,,,,,,,,,,,,,,,,,,81,pozo,,,0,0,1.216705,0,2,2,80,1,REAL,FAKE,,,,,,,,,,,,,,,,,,,,,
,,,,,,,5dd32e9deab0423455e0358f,60568611ec04488a9e9da93b,6056b091f6469e8a273535c5,United States,South,13 or older,no,2021-03-20_22h38.10.613,empathy_intonation_perc,2020.2.10,Win32,60,,,,,,,,,,1,,,,,,,,,,,,,,,,,,,,,,,,,,,,,,,,,,,,,,,,61,seda,,,0,0,1.258735,0,3,3,60,1,REAL,FAKE,,,,,,,,,,,,,,,,,,,,,
,,,,,,,5dd32e9deab0423455e0358f,60568611ec04488a9e9da93b,6056b091f6469e8a273535c5,United States,South,13 or older,no,2021-03-20_22h38.10.613,empathy_intonation_perc,2020.2.10,Win32,60,,,,,,,,,,1,,,,,,,,,,,,,,,,,,,,,,,,,,,,,,,,,,,,,,,,85,lad,,,0,0,1.155225,0,4,4,84,1,REAL,FAKE,,,,,,,,,,,,,,,,,,,,,
,,,,,,,5dd32e9deab0423455e0358f,60568611ec04488a9e9da93b,6056b091f6469e8a273535c5,United States,South,13 or older,no,2021-03-20_22h38.10.613,empathy_intonation_perc,2020.2.10,Win32,60,,,,,,,,,,1,,,,,,,,,,,,,,,,,,,,,,,,,,,,,,,,,,,,,,,,39,torpe,,,0,0,1.39199,0,5,5,38,1,REAL,FAKE,,,,,,,,,,,,,,,,,,,,,
,,,,,,,5dd32e9deab0423455e0358f,60568611ec04488a9e9da93b,6056b091f6469e8a273535c5,United States,South,13 or older,no,2021-03-20_22h38.10.613,empathy_intonation_perc,2020.2.10,Win32,60,,,,,,,,,,1,,,,,,,,,,,,,,,,,,,,,,,,,,,,,,,,,,,,,,,,57,tacao,,,0,0,1.298615,0,6,6,56,1,REAL,FAKE,,,,,,,,,,,,,,,,,,,,,
,,,,,,,5dd32e9deab0423455e0358f,60568611ec04488a9e9da93b,6056b091f6469e8a273535c5,United States,South,13 or older,no,2021-03-20_22h38.10.613,empathy_intonation_perc,2020.2.10,Win32,60,,,,,,,,,,1,,,,,,,,,,,,,,,,,,,,,,,,,,,,,,,,,,,,,,,,22,lacayo,,,0,0,0.936825,0,7,7,21,1,REAL,FAKE,,,,,,,,,,,,,,,,,,,,,
,,,,,,,5dd32e9deab0423455e0358f,60568611ec04488a9e9da93b,6056b091f6469e8a273535c5,United States,South,13 or older,no,2021-03-20_22h38.10.613,empathy_intonation_perc,2020.2.10,Win32,60,,,,,,,,,,0,,,,,,,,,,,,,,,,,,,,,,,,,,,,,,,,,,,,,,,,4,batilln,,,0,1,1.03852,0,8,8,3,1,REAL,FAKE,,,,,,,,,,,,,,,,,,,,,
,,,,,,,5dd32e9deab0423455e0358f,60568611ec04488a9e9da93b,6056b091f6469e8a273535c5,United States,South,13 or older,no,2021-03-20_22h38.10.613,empathy_intonation_perc,2020.2.10,Win32,60,,,,,,,,,,0,,,,,,,,,,,,,,,,,,,,,,,,,,,,,,,,,,,,,,,,1,terzo,,,0,1,1.088005,0,9,9,0,1,REAL,FAKE,,,,,,,,,,,,,,,,,,,,,
,,,,,,,5dd32e9deab0423455e0358f,60568611ec04488a9e9da93b,6056b091f6469e8a273535c5,United States,South,13 or older,no,2021-03-20_22h38.10.613,empathy_intonation_perc,2020.2.10,Win32,60,,,,,,,,,,1,,,,,,,,,,,,,,,,,,,,,,,,,,,,,,,,,,,,,,,,14,yunque,,,0,0,0.86665,0,10,10,13,1,REAL,FAKE,,,,,,,,,,,,,,,,,,,,,
,,,,,,,5dd32e9deab0423455e0358f,60568611ec04488a9e9da93b,6056b091f6469e8a273535c5,United States,South,13 or older,no,2021-03-20_22h38.10.613,empathy_intonation_perc,2020.2.10,Win32,60,,,,,,,,,,1,,,,,,,,,,,,,,,,,,,,,,,,,,,,,,,,,,,,,,,,77,tiburn,,,0,0,1.016625,0,11,11,76,1,REAL,FAKE,,,,,,,,,,,,,,,,,,,,,
,,,,,,,5dd32e9deab0423455e0358f,60568611ec04488a9e9da93b,6056b091f6469e8a273535c5,United States,South,13 or older,no,2021-03-20_22h38.10.613,empathy_intonation_perc,2020.2.10,Win32,60,,,,,,,,,,0,,,,,,,,,,,,,,,,,,,,,,,,,,,,,,,,,,,,,,,,82,empirador,,,1,0,1.561155,0,12,12,81,1,REAL,FAKE,,,,,,,,,,,,,,,,,,,,,
,,,,,,,5dd32e9deab0423455e0358f,60568611ec04488a9e9da93b,6056b091f6469e8a273535c5,United States,South,13 or older,no,2021-03-20_22h38.10.613,empathy_intonation_perc,2020.2.10,Win32,60,,,,,,,,,,1,,,,,,,,,,,,,,,,,,,,,,,,,,,,,,,,,,,,,,,,12,asesinato,,,0,0,1.5905,0,13,13,11,1,REAL,FAKE,,,,,,,,,,,,,,,,,,,,,
,,,,,,,5dd32e9deab0423455e0358f,60568611ec04488a9e9da93b,6056b091f6469e8a273535c5,United States,South,13 or older,no,2021-03-20_22h38.10.613,empathy_intonation_perc,2020.2.10,Win32,60,,,,,,,,,,1,,,,,,,,,,,,,,,,,,,,,,,,,,,,,,,,,,,,,,,,62,flaco,,,1,1,1.15333,0,14,14,61,1,REAL,FAKE,,,,,,,,,,,,,,,,,,,,,
,,,,,,,5dd32e9deab0423455e0358f,60568611ec04488a9e9da93b,6056b091f6469e8a273535c5,United States,South,13 or older,no,2021-03-20_22h38.10.613,empathy_intonation_perc,2020.2.10,Win32,60,,,,,,,,,,1,,,,,,,,,,,,,,,,,,,,,,,,,,,,,,,,,,,,,,,,51,candado,,,1,1,1.8066,0,15,15,50,1,REAL,FAKE,,,,,,,,,,,,,,,,,,,,,
,,,,,,,5dd32e9deab0423455e0358f,60568611ec04488a9e9da93b,6056b091f6469e8a273535c5,United States,South,13 or older,no,2021-03-20_22h38.10.613,empathy_intonation_perc,2020.2.10,Win32,60,,,,,,,,,,0,,,,,,,,,,,,,,,,,,,,,,,,,,,,,,,,,,,,,,,,70,temblo,,,0,1,1.20141,0,16,16,69,1,REAL,FAKE,,,,,,,,,,,,,,,,,,,,,
,,,,,,,5dd32e9deab0423455e0358f,60568611ec04488a9e9da93b,6056b091f6469e8a273535c5,United States,South,13 or older,no,2021-03-20_22h38.10.613,empathy_intonation_perc,2020.2.10,Win32,60,,,,,,,,,,1,,,,,,,,,,,,,,,,,,,,,,,,,,,,,,,,,,,,,,,,46,martillo,,,0,0,1.38896,0,17,17,45,1,REAL,FAKE,,,,,,,,,,,,,,,,,,,,,
,,,,,,,5dd32e9deab0423455e0358f,60568611ec04488a9e9da93b,6056b091f6469e8a273535c5,United States,South,13 or older,no,2021-03-20_22h38.10.613,empathy_intonation_perc,2020.2.10,Win32,60,,,,,,,,,,0,,,,,,,,,,,,,,,,,,,,,,,,,,,,,,,,,,,,,,,,42,cadallo,,,0,1,1.27964,0,18,18,41,1,REAL,FAKE,,,,,,,,,,,,,,,,,,,,,
,,,,,,,5dd32e9deab0423455e0358f,60568611ec04488a9e9da93b,6056b091f6469e8a273535c5,United States,South,13 or older,no,2021-03-20_22h38.10.613,empathy_intonation_perc,2020.2.10,Win32,60,,,,,,,,,,1,,,,,,,,,,,,,,,,,,,,,,,,,,,,,,,,,,,,,,,,45,jilguero,,,0,0,1.050715,0,19,19,44,1,REAL,FAKE,,,,,,,,,,,,,,,,,,,,,
,,,,,,,5dd32e9deab0423455e0358f,60568611ec04488a9e9da93b,6056b091f6469e8a273535c5,United States,South,13 or older,no,2021-03-20_22h38.10.613,empathy_intonation_perc,2020.2.10,Win32,60,,,,,,,,,,1,,,,,,,,,,,,,,,,,,,,,,,,,,,,,,,,,,,,,,,,49,ganar,,,0,0,1.319145,0,20,20,48,1,REAL,FAKE,,,,,,,,,,,,,,,,,,,,,
,,,,,,,5dd32e9deab0423455e0358f,60568611ec04488a9e9da93b,6056b091f6469e8a273535c5,United States,South,13 or older,no,2021-03-20_22h38.10.613,empathy_intonation_perc,2020.2.10,Win32,60,,,,,,,,,,1,,,,,,,,,,,,,,,,,,,,,,,,,,,,,,,,,,,,,,,,3,pulmones,,,0,0,1.326195,0,21,21,2,1,REAL,FAKE,,,,,,,,,,,,,,,,,,,,,
,,,,,,,5dd32e9deab0423455e0358f,60568611ec04488a9e9da93b,6056b091f6469e8a273535c5,United States,South,13 or older,no,2021-03-20_22h38.10.613,empathy_intonation_perc,2020.2.10,Win32,60,,,,,,,,,,0,,,,,,,,,,,,,,,,,,,,,,,,,,,,,,,,,,,,,,,,10,antar,,,0,1,1.55602,0,22,22,9,1,REAL,FAKE,,,,,,,,,,,,,,,,,,,,,
,,,,,,,5dd32e9deab0423455e0358f,60568611ec04488a9e9da93b,6056b091f6469e8a273535c5,United States,South,13 or older,no,2021-03-20_22h38.10.613,empathy_intonation_perc,2020.2.10,Win32,60,,,,,,,,,,1,,,,,,,,,,,,,,,,,,,,,,,,,,,,,,,,,,,,,,,,13,helar,,,0,0,0.91365,0,23,23,12,1,REAL,FAKE,,,,,,,,,,,,,,,,,,,,,
,,,,,,,5dd32e9deab0423455e0358f,60568611ec04488a9e9da93b,6056b091f6469e8a273535c5,United States,South,13 or older,no,2021-03-20_22h38.10.613,empathy_intonation_perc,2020.2.10,Win32,60,,,,,,,,,,1,,,,,,,,,,,,,,,,,,,,,,,,,,,,,,,,,,,,,,,,43,canela,,,1,1,1.12488,0,24,24,42,1,REAL,FAKE,,,,,,,,,,,,,,,,,,,,,
,,,,,,,5dd32e9deab0423455e0358f,60568611ec04488a9e9da93b,6056b091f6469e8a273535c5,United States,South,13 or older,no,2021-03-20_22h38.10.613,empathy_intonation_perc,2020.2.10,Win32,60,,,,,,,,,,0,,,,,,,,,,,,,,,,,,,,,,,,,,,,,,,,,,,,,,,,29,decar,,,0,1,1.12539,0,25,25,28,1,REAL,FAKE,,,,,,,,,,,,,,,,,,,,,
,,,,,,,5dd32e9deab0423455e0358f,60568611ec04488a9e9da93b,6056b091f6469e8a273535c5,United States,South,13 or older,no,2021-03-20_22h38.10.613,empathy_intonation_perc,2020.2.10,Win32,60,,,,,,,,,,1,,,,,,,,,,,,,,,,,,,,,,,,,,,,,,,,,,,,,,,,7,psimo,,,0,0,1.235305,0,26,26,6,1,REAL,FAKE,,,,,,,,,,,,,,,,,,,,,
,,,,,,,5dd32e9deab0423455e0358f,60568611ec04488a9e9da93b,6056b091f6469e8a273535c5,United States,South,13 or older,no,2021-03-20_22h38.10.613,empathy_intonation_perc,2020.2.10,Win32,60,,,,,,,,,,0,,,,,,,,,,,,,,,,,,,,,,,,,,,,,,,,,,,,,,,,66,hacido,,,0,1,1.34141,0,27,27,65,1,REAL,FAKE,,,,,,,,,,,,,,,,,,,,,
,,,,,,,5dd32e9deab0423455e0358f,60568611ec04488a9e9da93b,6056b091f6469e8a273535c5,United States,South,13 or older,no,2021-03-20_22h38.10.613,empathy_intonation_perc,2020.2.10,Win32,60,,,,,,,,,,1,,,,,,,,,,,,,,,,,,,,,,,,,,,,,,,,,,,,,,,,31,pandilla,,,0,0,0.99324,0,28,28,30,1,REAL,FAKE,,,,,,,,,,,,,,,,,,,,,
,,,,,,,5dd32e9deab0423455e0358f,60568611ec04488a9e9da93b,6056b091f6469e8a273535c5,United States,South,13 or older,no,2021-03-20_22h38.10.613,empathy_intonation_perc,2020.2.10,Win32,60,,,,,,,,,,0,,,,,,,,,,,,,,,,,,,,,,,,,,,,,,,,,,,,,,,,8,cadea,,,0,1,0.981045,0,29,29,7,1,REAL,FAKE,,,,,,,,,,,,,,,,,,,,,
,,,,,,,5dd32e9deab0423455e0358f,60568611ec04488a9e9da93b,6056b091f6469e8a273535c5,United States,South,13 or older,no,2021-03-20_22h38.10.613,empathy_intonation_perc,2020.2.10,Win32,60,,,,,,,,,,0,,,,,,,,,,,,,,,,,,,,,,,,,,,,,,,,,,,,,,,,30,alardio,,,0,1,0.857955,0,30,30,29,1,REAL,FAKE,,,,,,,,,,,,,,,,,,,,,
,,,,,,,5dd32e9deab0423455e0358f,60568611ec04488a9e9da93b,6056b091f6469e8a273535c5,United States,South,13 or older,no,2021-03-20_22h38.10.613,empathy_intonation_perc,2020.2.10,Win32,60,,,,,,,,,,1,,,,,,,,,,,,,,,,,,,,,,,,,,,,,,,,,,,,,,,,67,cabello,,,1,1,1.15245,0,31,31,66,1,REAL,FAKE,,,,,,,,,,,,,,,,,,,,,
,,,,,,,5dd32e9deab0423455e0358f,60568611ec04488a9e9da93b,6056b091f6469e8a273535c5,United States,South,13 or older,no,2021-03-20_22h38.10.613,empathy_intonation_perc,2020.2.10,Win32,60,,,,,,,,,,1,,,,,,,,,,,,,,,,,,,,,,,,,,,,,,,,,,,,,,,,89,prisa,,,0,0,1.454135,0,32,32,88,1,REAL,FAKE,,,,,,,,,,,,,,,,,,,,,
,,,,,,,5dd32e9deab0423455e0358f,60568611ec04488a9e9da93b,6056b091f6469e8a273535c5,United States,South,13 or older,no,2021-03-20_22h38.10.613,empathy_intonation_perc,2020.2.10,Win32,60,,,,,,,,,,1,,,,,,,,,,,,,,,,,,,,,,,,,,,,,,,,,,,,,,,,71,polvoriento,,,0,0,1.85471,0,33,33,70,1,REAL,FAKE,,,,,,,,,,,,,,,,,,,,,
,,,,,,,5dd32e9deab0423455e0358f,60568611ec04488a9e9da93b,6056b091f6469e8a273535c5,United States,South,13 or older,no,2021-03-20_22h38.10.613,empathy_intonation_perc,2020.2.10,Win32,60,,,,,,,,,,1,,,,,,,,,,,,,,,,,,,,,,,,,,,,,,,,,,,,,,,,60,matar,,,0,0,1.327225,0,34,34,59,1,REAL,FAKE,,,,,,,,,,,,,,,,,,,,,
,,,,,,,5dd32e9deab0423455e0358f,60568611ec04488a9e9da93b,6056b091f6469e8a273535c5,United States,South,13 or older,no,2021-03-20_22h38.10.613,empathy_intonation_perc,2020.2.10,Win32,60,,,,,,,,,,1,,,,,,,,,,,,,,,,,,,,,,,,,,,,,,,,,,,,,,,,40,alfombra,,,0,0,1.07721,0,35,35,39,1,REAL,FAKE,,,,,,,,,,,,,,,,,,,,,
,,,,,,,5dd32e9deab0423455e0358f,60568611ec04488a9e9da93b,6056b091f6469e8a273535c5,United States,South,13 or older,no,2021-03-20_22h38.10.613,empathy_intonation_perc,2020.2.10,Win32,60,,,,,,,,,,1,,,,,,,,,,,,,,,,,,,,,,,,,,,,,,,,,,,,,,,,75,yacer,,,0,0,1.23721,0,36,36,74,1,REAL,FAKE,,,,,,,,,,,,,,,,,,,,,
,,,,,,,5dd32e9deab0423455e0358f,60568611ec04488a9e9da93b,6056b091f6469e8a273535c5,United States,South,13 or older,no,2021-03-20_22h38.10.613,empathy_intonation_perc,2020.2.10,Win32,60,,,,,,,,,,1,,,,,,,,,,,,,,,,,,,,,,,,,,,,,,,,,,,,,,,,88,acantilado,,,0,0,1.40667,0,37,37,87,1,REAL,FAKE,,,,,,,,,,,,,,,,,,,,,
,,,,,,,5dd32e9deab0423455e0358f,60568611ec04488a9e9da93b,6056b091f6469e8a273535c5,United States,South,13 or older,no,2021-03-20_22h38.10.613,empathy_intonation_perc,2020.2.10,Win32,60,,,,,,,,,,0,,,,,,,,,,,,,,,,,,,,,,,,,,,,,,,,,,,,,,,,23,lampera,,,0,1,1.13656,0,38,38,22,1,REAL,FAKE,,,,,,,,,,,,,,,,,,,,,
,,,,,,,5dd32e9deab0423455e0358f,60568611ec04488a9e9da93b,6056b091f6469e8a273535c5,United States,South,13 or older,no,2021-03-20_22h38.10.613,empathy_intonation_perc,2020.2.10,Win32,60,,,,,,,,,,0,,,,,,,,,,,,,,,,,,,,,,,,,,,,,,,,,,,,,,,,47,cartinar,,,0,1,0.90987,0,39,39,46,1,REAL,FAKE,,,,,,,,,,,,,,,,,,,,,
,,,,,,,5dd32e9deab0423455e0358f,60568611ec04488a9e9da93b,6056b091f6469e8a273535c5,United States,South,13 or older,no,2021-03-20_22h38.10.613,empathy_intonation_perc,2020.2.10,Win32,60,,,,,,,,,,1,,,,,,,,,,,,,,,,,,,,,,,,,,,,,,,,,,,,,,,,68,alegre,,,1,1,1.57343,0,40,40,67,1,REAL,FAKE,,,,,,,,,,,,,,,,,,,,,
,,,,,,,5dd32e9deab0423455e0358f,60568611ec04488a9e9da93b,6056b091f6469e8a273535c5,United States,South,13 or older,no,2021-03-20_22h38.10.613,empathy_intonation_perc,2020.2.10,Win32,60,,,,,,,,,,0,,,,,,,,,,,,,,,,,,,,,,,,,,,,,,,,,,,,,,,,79,tropaje,,,0,1,1.120275,0,41,41,78,1,REAL,FAKE,,,,,,,,,,,,,,,,,,,,,
,,,,,,,5dd32e9deab0423455e0358f,60568611ec04488a9e9da93b,6056b091f6469e8a273535c5,United States,South,13 or older,no,2021-03-20_22h38.10.613,empathy_intonation_perc,2020.2.10,Win32,60,,,,,,,,,,1,,,,,,,,,,,,,,,,,,,,,,,,,,,,,,,,,,,,,,,,6,tergiversar,,,0,0,0.95997,0,42,42,5,1,REAL,FAKE,,,,,,,,,,,,,,,,,,,,,
,,,,,,,5dd32e9deab0423455e0358f,60568611ec04488a9e9da93b,6056b091f6469e8a273535c5,United States,South,13 or older,no,2021-03-20_22h38.10.613,empathy_intonation_perc,2020.2.10,Win32,60,,,,,,,,,,1,,,,,,,,,,,,,,,,,,,,,,,,,,,,,,,,,,,,,,,,48,ladrn,,,0,0,1.26854,0,43,43,47,1,REAL,FAKE,,,,,,,,,,,,,,,,,,,,,
,,,,,,,5dd32e9deab0423455e0358f,60568611ec04488a9e9da93b,6056b091f6469e8a273535c5,United States,South,13 or older,no,2021-03-20_22h38.10.613,empathy_intonation_perc,2020.2.10,Win32,60,,,,,,,,,,1,,,,,,,,,,,,,,,,,,,,,,,,,,,,,,,,,,,,,,,,2,pellizcar,,,0,0,1.16565,0,44,44,1,1,REAL,FAKE,,,,,,,,,,,,,,,,,,,,,
,,,,,,,5dd32e9deab0423455e0358f,60568611ec04488a9e9da93b,6056b091f6469e8a273535c5,United States,South,13 or older,no,2021-03-20_22h38.10.613,empathy_intonation_perc,2020.2.10,Win32,60,,,,,,,,,,1,,,,,,,,,,,,,,,,,,,,,,,,,,,,,,,,,,,,,,,,59,besar,,,0,0,1.800125,0,45,45,58,1,REAL,FAKE,,,,,,,,,,,,,,,,,,,,,
,,,,,,,5dd32e9deab0423455e0358f,60568611ec04488a9e9da93b,6056b091f6469e8a273535c5,United States,South,13 or older,no,2021-03-20_22h38.10.613,empathy_intonation_perc,2020.2.10,Win32,60,,,,,,,,,,0,,,,,,,,,,,,,,,,,,,,,,,,,,,,,,,,,,,,,,,,27,acutacin,,,0,1,1.59464,0,46,46,26,1,REAL,FAKE,,,,,,,,,,,,,,,,,,,,,
,,,,,,,5dd32e9deab0423455e0358f,60568611ec04488a9e9da93b,6056b091f6469e8a273535c5,United States,South,13 or older,no,2021-03-20_22h38.10.613,empathy_intonation_perc,2020.2.10,Win32,60,,,,,,,,,,1,,,,,,,,,,,,,,,,,,,,,,,,,,,,,,,,,,,,,,,,28,merodear,,,0,0,1.493925,0,47,47,27,1,REAL,FAKE,,,,,,,,,,,,,,,,,,,,,
,,,,,,,5dd32e9deab0423455e0358f,60568611ec04488a9e9da93b,6056b091f6469e8a273535c5,United States,South,13 or older,no,2021-03-20_22h38.10.613,empathy_intonation_perc,2020.2.10,Win32,60,,,,,,,,,,1,,,,,,,,,,,,,,,,,,,,,,,,,,,,,,,,,,,,,,,,36,loro,,,0,0,1.109965,0,48,48,35,1,REAL,FAKE,,,,,,,,,,,,,,,,,,,,,
,,,,,,,5dd32e9deab0423455e0358f,60568611ec04488a9e9da93b,6056b091f6469e8a273535c5,United States,South,13 or older,no,2021-03-20_22h38.10.613,empathy_intonation_perc,2020.2.10,Win32,60,,,,,,,,,,0,,,,,,,,,,,,,,,,,,,,,,,,,,,,,,,,,,,,,,,,72,pemicin,,,0,1,1.283255,0,49,49,71,1,REAL,FAKE,,,,,,,,,,,,,,,,,,,,,
,,,,,,,5dd32e9deab0423455e0358f,60568611ec04488a9e9da93b,6056b091f6469e8a273535c5,United States,South,13 or older,no,2021-03-20_22h38.10.613,empathy_intonation_perc,2020.2.10,Win32,60,,,,,,,,,,0,,,,,,,,,,,,,,,,,,,,,,,,,,,,,,,,,,,,,,,,74,cintro,,,1,0,1.786725,0,50,50,73,1,REAL,FAKE,,,,,,,,,,,,,,,,,,,,,
,,,,,,,5dd32e9deab0423455e0358f,60568611ec04488a9e9da93b,6056b091f6469e8a273535c5,United States,South,13 or older,no,2021-03-20_22h38.10.613,empathy_intonation_perc,2020.2.10,Win32,60,,,,,,,,,,1,,,,,,,,,,,,,,,,,,,,,,,,,,,,,,,,,,,,,,,,34,aviso,,,1,1,1.582625,0,51,51,33,1,REAL,FAKE,,,,,,,,,,,,,,,,,,,,,
,,,,,,,5dd32e9deab0423455e0358f,60568611ec04488a9e9da93b,6056b091f6469e8a273535c5,United States,South,13 or older,no,2021-03-20_22h38.10.613,empathy_intonation_perc,2020.2.10,Win32,60,,,,,,,,,,1,,,,,,,,,,,,,,,,,,,,,,,,,,,,,,,,,,,,,,,,41,rebuscar,,,0,0,1.338245,0,52,52,40,1,REAL,FAKE,,,,,,,,,,,,,,,,,,,,,
,,,,,,,5dd32e9deab0423455e0358f,60568611ec04488a9e9da93b,6056b091f6469e8a273535c5,United States,South,13 or older,no,2021-03-20_22h38.10.613,empathy_intonation_perc,2020.2.10,Win32,60,,,,,,,,,,1,,,,,,,,,,,,,,,,,,,,,,,,,,,,,,,,,,,,,,,,78,frondoso,,,0,0,1.02216,0,53,53,77,1,REAL,FAKE,,,,,,,,,,,,,,,,,,,,,
,,,,,,,5dd32e9deab0423455e0358f,60568611ec04488a9e9da93b,6056b091f6469e8a273535c5,United States,South,13 or older,no,2021-03-20_22h38.10.613,empathy_intonation_perc,2020.2.10,Win32,60,,,,,,,,,,0,,,,,,,,,,,,,,,,,,,,,,,,,,,,,,,,,,,,,,,,63,esposante,,,0,1,1.040775,0,54,54,62,1,REAL,FAKE,,,,,,,,,,,,,,,,,,,,,
,,,,,,,5dd32e9deab0423455e0358f,60568611ec04488a9e9da93b,6056b091f6469e8a273535c5,United States,South,13 or older,no,2021-03-20_22h38.10.613,empathy_intonation_perc,2020.2.10,Win32,60,,,,,,,,,,0,,,,,,,,,,,,,,,,,,,,,,,,,,,,,,,,,,,,,,,,53,vegada,,,0,1,1.05868,0,55,55,52,1,REAL,FAKE,,,,,,,,,,,,,,,,,,,,,
,,,,,,,5dd32e9deab0423455e0358f,60568611ec04488a9e9da93b,6056b091f6469e8a273535c5,United States,South,13 or older,no,2021-03-20_22h38.10.613,empathy_intonation_perc,2020.2.10,Win32,60,,,,,,,,,,1,,,,,,,,,,,,,,,,,,,,,,,,,,,,,,,,,,,,,,,,86,barato,,,0,0,1.667185,0,56,56,85,1,REAL,FAKE,,,,,,,,,,,,,,,,,,,,,
,,,,,,,5dd32e9deab0423455e0358f,60568611ec04488a9e9da93b,6056b091f6469e8a273535c5,United States,South,13 or older,no,2021-03-20_22h38.10.613,empathy_intonation_perc,2020.2.10,Win32,60,,,,,,,,,,1,,,,,,,,,,,,,,,,,,,,,,,,,,,,,,,,,,,,,,,,80,hormiga,,,0,0,1.002155,0,57,57,79,1,REAL,FAKE,,,,,,,,,,,,,,,,,,,,,
,,,,,,,5dd32e9deab0423455e0358f,60568611ec04488a9e9da93b,6056b091f6469e8a273535c5,United States,South,13 or older,no,2021-03-20_22h38.10.613,empathy_intonation_perc,2020.2.10,Win32,60,,,,,,,,,,0,,,,,,,,,,,,,,,,,,,,,,,,,,,,,,,,,,,,,,,,35,rompido,,,0,1,1.62995,0,58,58,34,1,REAL,FAKE,,,,,,,,,,,,,,,,,,,,,
,,,,,,,5dd32e9deab0423455e0358f,60568611ec04488a9e9da93b,6056b091f6469e8a273535c5,United States,South,13 or older,no,2021-03-20_22h38.10.613,empathy_intonation_perc,2020.2.10,Win32,60,,,,,,,,,,1,,,,,,,,,,,,,,,,,,,,,,,,,,,,,,,,,,,,,,,,73,hervidor,,,0,0,1.928475,0,59,59,72,1,REAL,FAKE,,,,,,,,,,,,,,,,,,,,,
,,,,,,,5dd32e9deab0423455e0358f,60568611ec04488a9e9da93b,6056b091f6469e8a273535c5,United States,South,13 or older,no,2021-03-20_22h38.10.613,empathy_intonation_perc,2020.2.10,Win32,60,,,,,,,,,,1,,,,,,,,,,,,,,,,,,,,,,,,,,,,,,,,,,,,,,,,9,hacha,,,0,0,1.03103,0,60,60,8,1,REAL,FAKE,,,,,,,,,,,,,,,,,,,,,
,,,,,,,5dd32e9deab0423455e0358f,60568611ec04488a9e9da93b,6056b091f6469e8a273535c5,United States,South,13 or older,no,2021-03-20_22h38.10.613,empathy_intonation_perc,2020.2.10,Win32,60,,,,,,,,,,1,,,,,,,,,,,,,,,,,,,,,,,,,,,,,,,,,,,,,,,,37,granuja,,,0,0,0.966085,0,61,61,36,1,REAL,FAKE,,,,,,,,,,,,,,,,,,,,,
,,,,,,,5dd32e9deab0423455e0358f,60568611ec04488a9e9da93b,6056b091f6469e8a273535c5,United States,South,13 or older,no,2021-03-20_22h38.10.613,empathy_intonation_perc,2020.2.10,Win32,60,,,,,,,,,,0,,,,,,,,,,,,,,,,,,,,,,,,,,,,,,,,,,,,,,,,84,escuto,,,0,1,2.058115,0,62,62,83,1,REAL,FAKE,,,,,,,,,,,,,,,,,,,,,
,,,,,,,5dd32e9deab0423455e0358f,60568611ec04488a9e9da93b,6056b091f6469e8a273535c5,United States,South,13 or older,no,2021-03-20_22h38.10.613,empathy_intonation_perc,2020.2.10,Win32,60,,,,,,,,,,1,,,,,,,,,,,,,,,,,,,,,,,,,,,,,,,,,,,,,,,,90,clavel,,,0,0,2.70694,0,63,63,89,1,REAL,FAKE,,,,,,,,,,,,,,,,,,,,,
,,,,,,,5dd32e9deab0423455e0358f,60568611ec04488a9e9da93b,6056b091f6469e8a273535c5,United States,South,13 or older,no,2021-03-20_22h38.10.613,empathy_intonation_perc,2020.2.10,Win32,60,,,,,,,,,,1,,,,,,,,,,,,,,,,,,,,,,,,,,,,,,,,,,,,,,,,11,cenefa,,,0,0,0.786305,0,64,64,10,1,REAL,FAKE,,,,,,,,,,,,,,,,,,,,,
,,,,,,,5dd32e9deab0423455e0358f,60568611ec04488a9e9da93b,6056b091f6469e8a273535c5,United States,South,13 or older,no,2021-03-20_22h38.10.613,empathy_intonation_perc,2020.2.10,Win32,60,,,,,,,,,,1,,,,,,,,,,,,,,,,,,,,,,,,,,,,,,,,,,,,,,,,69,engatusar,,,0,0,0.89348,0,65,65,68,1,REAL,FAKE,,,,,,,,,,,,,,,,,,,,,
,,,,,,,5dd32e9deab0423455e0358f,60568611ec04488a9e9da93b,6056b091f6469e8a273535c5,United States,South,13 or older,no,2021-03-20_22h38.10.613,empathy_intonation_perc,2020.2.10,Win32,60,,,,,,,,,,1,,,,,,,,,,,,,,,,,,,,,,,,,,,,,,,,,,,,,,,,25,bisagra,,,0,0,0.868125,0,66,66,24,1,REAL,FAKE,,,,,,,,,,,,,,,,,,,,,
,,,,,,,5dd32e9deab0423455e0358f,60568611ec04488a9e9da93b,6056b091f6469e8a273535c5,United States,South,13 or older,no,2021-03-20_22h38.10.613,empathy_intonation_perc,2020.2.10,Win32,60,,,,,,,,,,0,,,,,,,,,,,,,,,,,,,,,,,,,,,,,,,,,,,,,,,,21,capillo,,,0,1,0.909355,0,67,67,20,1,REAL,FAKE,,,,,,,,,,,,,,,,,,,,,
,,,,,,,5dd32e9deab0423455e0358f,60568611ec04488a9e9da93b,6056b091f6469e8a273535c5,United States,South,13 or older,no,2021-03-20_22h38.10.613,empathy_intonation_perc,2020.2.10,Win32,60,,,,,,,,,,1,,,,,,,,,,,,,,,,,,,,,,,,,,,,,,,,,,,,,,,,56,musgo,,,0,0,0.96597,0,68,68,55,1,REAL,FAKE,,,,,,,,,,,,,,,,,,,,,
,,,,,,,5dd32e9deab0423455e0358f,60568611ec04488a9e9da93b,6056b091f6469e8a273535c5,United States,South,13 or older,no,2021-03-20_22h38.10.613,empathy_intonation_perc,2020.2.10,Win32,60,,,,,,,,,,1,,,,,,,,,,,,,,,,,,,,,,,,,,,,,,,,,,,,,,,,52,camisa,,,1,1,1.03118,0,69,69,51,1,REAL,FAKE,,,,,,,,,,,,,,,,,,,,,
,,,,,,,5dd32e9deab0423455e0358f,60568611ec04488a9e9da93b,6056b091f6469e8a273535c5,United States,South,13 or older,no,2021-03-20_22h38.10.613,empathy_intonation_perc,2020.2.10,Win32,60,,,,,,,,,,0,,,,,,,,,,,,,,,,,,,,,,,,,,,,,,,,,,,,,,,,50,flamida,,,0,1,1.704035,0,70,70,49,1,REAL,FAKE,,,,,,,,,,,,,,,,,,,,,
,,,,,,,5dd32e9deab0423455e0358f,60568611ec04488a9e9da93b,6056b091f6469e8a273535c5,United States,South,13 or older,no,2021-03-20_22h38.10.613,empathy_intonation_perc,2020.2.10,Win32,60,,,,,,,,,,1,,,,,,,,,,,,,,,,,,,,,,,,,,,,,,,,,,,,,,,,83,guante,,,0,0,1.05474,0,71,71,82,1,REAL,FAKE,,,,,,,,,,,,,,,,,,,,,
,,,,,,,5dd32e9deab0423455e0358f,60568611ec04488a9e9da93b,6056b091f6469e8a273535c5,United States,South,13 or older,no,2021-03-20_22h38.10.613,empathy_intonation_perc,2020.2.10,Win32,60,,,,,,,,,,0,,,,,,,,,,,,,,,,,,,,,,,,,,,,,,,,,,,,,,,,87,grodo,,,0,1,0.883005,0,72,72,86,1,REAL,FAKE,,,,,,,,,,,,,,,,,,,,,
,,,,,,,5dd32e9deab0423455e0358f,60568611ec04488a9e9da93b,6056b091f6469e8a273535c5,United States,South,13 or older,no,2021-03-20_22h38.10.613,empathy_intonation_perc,2020.2.10,Win32,60,,,,,,,,,,0,,,,,,,,,,,,,,,,,,,,,,,,,,,,,,,,,,,,,,,,58,plaudir,,,0,1,0.80843,0,73,73,57,1,REAL,FAKE,,,,,,,,,,,,,,,,,,,,,
,,,,,,,5dd32e9deab0423455e0358f,60568611ec04488a9e9da93b,6056b091f6469e8a273535c5,United States,South,13 or older,no,2021-03-20_22h38.10.613,empathy_intonation_perc,2020.2.10,Win32,60,,,,,,,,,,0,,,,,,,,,,,,,,,,,,,,,,,,,,,,,,,,,,,,,,,,19,brecedad,,,0,1,1.249795,0,74,74,18,1,REAL,FAKE,,,,,,,,,,,,,,,,,,,,,
,,,,,,,5dd32e9deab0423455e0358f,60568611ec04488a9e9da93b,6056b091f6469e8a273535c5,United States,South,13 or older,no,2021-03-20_22h38.10.613,empathy_intonation_perc,2020.2.10,Win32,60,,,,,,,,,,1,,,,,,,,,,,,,,,,,,,,,,,,,,,,,,,,,,,,,,,,15,regar,,,0,0,1.018305,0,75,75,14,1,REAL,FAKE,,,,,,,,,,,,,,,,,,,,,
,,,,,,,5dd32e9deab0423455e0358f,60568611ec04488a9e9da93b,6056b091f6469e8a273535c5,United States,South,13 or older,no,2021-03-20_22h38.10.613,empathy_intonation_perc,2020.2.10,Win32,60,,,,,,,,,,0,,,,,,,,,,,,,,,,,,,,,,,,,,,,,,,,,,,,,,,,17,floroso,,,0,1,0.86124,0,76,76,16,1,REAL,FAKE,,,,,,,,,,,,,,,,,,,,,
,,,,,,,5dd32e9deab0423455e0358f,60568611ec04488a9e9da93b,6056b091f6469e8a273535c5,United States,South,13 or older,no,2021-03-20_22h38.10.613,empathy_intonation_perc,2020.2.10,Win32,60,,,,,,,,,,1,,,,,,,,,,,,,,,,,,,,,,,,,,,,,,,,,,,,,,,,54,fomentar,,,0,0,0.772865,0,77,77,53,1,REAL,FAKE,,,,,,,,,,,,,,,,,,,,,
,,,,,,,5dd32e9deab0423455e0358f,60568611ec04488a9e9da93b,6056b091f6469e8a273535c5,United States,South,13 or older,no,2021-03-20_22h38.10.613,empathy_intonation_perc,2020.2.10,Win32,60,,,,,,,,,,1,,,,,,,,,,,,,,,,,,,,,,,,,,,,,,,,,,,,,,,,5,zapato,,,1,1,1.02673,0,78,78,4,1,REAL,FAKE,,,,,,,,,,,,,,,,,,,,,
,,,,,,,5dd32e9deab0423455e0358f,60568611ec04488a9e9da93b,6056b091f6469e8a273535c5,United States,South,13 or older,no,2021-03-20_22h38.10.613,empathy_intonation_perc,2020.2.10,Win32,60,,,,,,,,,,1,,,,,,,,,,,,,,,,,,,,,,,,,,,,,,,,,,,,,,,,20,vido,,,0,0,1.235095,0,79,79,19,1,REAL,FAKE,,,,,,,,,,,,,,,,,,,,,
,,,,,,,5dd32e9deab0423455e0358f,60568611ec04488a9e9da93b,6056b091f6469e8a273535c5,United States,South,13 or older,no,2021-03-20_22h38.10.613,empathy_intonation_perc,2020.2.10,Win32,60,,,,,,,,,,1,,,,,,,,,,,,,,,,,,,,,,,,,,,,,,,,,,,,,,,,76,atar,,,0,0,0.86139,0,80,80,75,1,REAL,FAKE,,,,,,,,,,,,,,,,,,,,,
,,,,,,,5dd32e9deab0423455e0358f,60568611ec04488a9e9da93b,6056b091f6469e8a273535c5,United States,South,13 or older,no,2021-03-20_22h38.10.613,empathy_intonation_perc,2020.2.10,Win32,60,,,,,,,,,,1,,,,,,,,,,,,,,,,,,,,,,,,,,,,,,,,,,,,,,,,55,nevar,,,0,0,0.917695,0,81,81,54,1,REAL,FAKE,,,,,,,,,,,,,,,,,,,,,
,,,,,,,5dd32e9deab0423455e0358f,60568611ec04488a9e9da93b,6056b091f6469e8a273535c5,United States,South,13 or older,no,2021-03-20_22h38.10.613,empathy_intonation_perc,2020.2.10,Win32,60,,,,,,,,,,1,,,,,,,,,,,,,,,,,,,,,,,,,,,,,,,,,,,,,,,,64,orgulloso,,,0,0,0.89062,0,82,82,63,1,REAL,FAKE,,,,,,,,,,,,,,,,,,,,,
,,,,,,,5dd32e9deab0423455e0358f,60568611ec04488a9e9da93b,6056b091f6469e8a273535c5,United States,South,13 or older,no,2021-03-20_22h38.10.613,empathy_intonation_perc,2020.2.10,Win32,60,,,,,,,,,,0,,,,,,,,,,,,,,,,,,,,,,,,,,,,,,,,,,,,,,,,16,abracer,,,0,1,0.91441,0,83,83,15,1,REAL,FAKE,,,,,,,,,,,,,,,,,,,,,
,,,,,,,5dd32e9deab0423455e0358f,60568611ec04488a9e9da93b,6056b091f6469e8a273535c5,United States,South,13 or older,no,2021-03-20_22h38.10.613,empathy_intonation_perc,2020.2.10,Win32,60,,,,,,,,,,1,,,,,,,,,,,,,,,,,,,,,,,,,,,,,,,,,,,,,,,,24,ltigo,,,0,0,1.033455,0,84,84,23,1,REAL,FAKE,,,,,,,,,,,,,,,,,,,,,
,,,,,,,5dd32e9deab0423455e0358f,60568611ec04488a9e9da93b,6056b091f6469e8a273535c5,United States,South,13 or older,no,2021-03-20_22h38.10.613,empathy_intonation_perc,2020.2.10,Win32,60,,,,,,,,,,0,,,,,,,,,,,,,,,,,,,,,,,,,,,,,,,,,,,,,,,,32,fatacidad,,,0,1,0.843175,0,85,85,31,1,REAL,FAKE,,,,,,,,,,,,,,,,,,,,,
,,,,,,,5dd32e9deab0423455e0358f,60568611ec04488a9e9da93b,6056b091f6469e8a273535c5,United States,South,13 or older,no,2021-03-20_22h38.10.613,empathy_intonation_perc,2020.2.10,Win32,60,,,,,,,,,,1,,,,,,,,,,,,,,,,,,,,,,,,,,,,,,,,,,,,,,,,44,cuchara,,,0,0,2.131595,0,86,86,43,1,REAL,FAKE,,,,,,,,,,,,,,,,,,,,,
,,,,,,,5dd32e9deab0423455e0358f,60568611ec04488a9e9da93b,6056b091f6469e8a273535c5,United States,South,13 or older,no,2021-03-20_22h38.10.613,empathy_intonation_perc,2020.2.10,Win32,60,,,,,,,,,,1,,,,,,,,,,,,,,,,,,,,,,,,,,,,,,,,,,,,,,,,38,estornudar,,,0,0,0.856085,0,87,87,37,1,REAL,FAKE,,,,,,,,,,,,,,,,,,,,,
,,,,,,,5dd32e9deab0423455e0358f,60568611ec04488a9e9da93b,6056b091f6469e8a273535c5,United States,South,13 or older,no,2021-03-20_22h38.10.613,empathy_intonation_perc,2020.2.10,Win32,60,,,,,,,,,,0,,,,,,,,,,,,,,,,,,,,,,,,,,,,,,,,,,,,,,,,18,arsa,,,0,1,1.281165,0,88,88,17,1,REAL,FAKE,,,,,,,,,,,,,,,,,,,,,
,,,,,,,5dd32e9deab0423455e0358f,60568611ec04488a9e9da93b,6056b091f6469e8a273535c5,United States,South,13 or older,no,2021-03-20_22h38.10.613,empathy_intonation_perc,2020.2.10,Win32,60,,,,,,,,,,1,,,,,,,,,,,,,,,,,,,,,,,,,,,,,,,,,,,,,,,,26,secuestro,,,0,0,1.815895,0,89,89,25,1,REAL,FAKE,,,,,,,,,,,,,,,,,,,,,
,,,,,,,5dd32e9deab0423455e0358f,60568611ec04488a9e9da93b,6056b091f6469e8a273535c5,United States,South,13 or older,no,2021-03-20_22h38.10.613,empathy_intonation_perc,2020.2.10,Win32,60,,,,,,,,,,,,,,,,,,,,,,,,,,,,,,,,,,,,,,,,,,,,,,,,,,,,,,,,,,,,,,,,4,1,5.662975,1,0,0,0,0,0,1,,,,,,,,,,,
,,,,,,,5dd32e9deab0423455e0358f,60568611ec04488a9e9da93b,6056b091f6469e8a273535c5,United States,South,13 or older,no,2021-03-20_22h38.10.613,empathy_intonation_perc,2020.2.10,Win32,60,,,,,,,,,,,,,,,,,,,,1,,,,,,,,,,,,,,,,,,,,,,,,,,,,,,,,,,,,,,,,,,,,,,,,,,,,,,5,0,0,0,0,1,I can easily tell if someone else wants to enter a conversation.,1,0,1,0
,,,,,,,5dd32e9deab0423455e0358f,60568611ec04488a9e9da93b,6056b091f6469e8a273535c5,United States,South,13 or older,no,2021-03-20_22h38.10.613,empathy_intonation_perc,2020.2.10,Win32,60,,,,,,,,,,,,,,,,,,,,2,,,,,,,,,,,,,,,,,,,,,,,,,,,,,,,,,,,,,,,,,,,,,,,,,,,,,,1,0,1,1,1,1,I prefer animals to humans.,0,1,0,0
,,,,,,,5dd32e9deab0423455e0358f,60568611ec04488a9e9da93b,6056b091f6469e8a273535c5,United States,South,13 or older,no,2021-03-20_22h38.10.613,empathy_intonation_perc,2020.2.10,Win32,60,,,,,,,,,,,,,,,,,,,,3,,,,,,,,,,,,,,,,,,,,,,,,,,,,,,,,,,,,,,,,,,,,,,,,,,,,,,5,0,2,2,2,1,I try to keep up with the current trends and fashions.,0,1,0,0
,,,,,,,5dd32e9deab0423455e0358f,60568611ec04488a9e9da93b,6056b091f6469e8a273535c5,United States,South,13 or older,no,2021-03-20_22h38.10.613,empathy_intonation_perc,2020.2.10,Win32,60,,,,,,,,,,,,,,,,,,,,4,,,,,,,,,,,,,,,,,,,,,,,,,,,,,,,,,,,,,,,,,,,,,,,,,,,,,,1,0,3,3,3,1,"I find it difficult to explain to others things that I understand easily, 
  when they dont understand it first time.",1,0,0,1
,,,,,,,5dd32e9deab0423455e0358f,60568611ec04488a9e9da93b,6056b091f6469e8a273535c5,United States,South,13 or older,no,2021-03-20_22h38.10.613,empathy_intonation_perc,2020.2.10,Win32,60,,,,,,,,,,,,,,,,,,,,5,,,,,,,,,,,,,,,,,,,,,,,,,,,,,,,,,,,,,,,,,,,,,,,,,,,,,,1,0,4,4,4,1,I dream most nights.,0,1,0,0
,,,,,,,5dd32e9deab0423455e0358f,60568611ec04488a9e9da93b,6056b091f6469e8a273535c5,United States,South,13 or older,no,2021-03-20_22h38.10.613,empathy_intonation_perc,2020.2.10,Win32,60,,,,,,,,,,,,,,,,,,,,6,,,,,,,,,,,,,,,,,,,,,,,,,,,,,,,,,,,,,,,,,,,,,,,,,,,,,,3,0,5,5,5,1,I really enjoy caring for other people.,1,0,1,0
