instructions_2afc_loop.thisRepN,instructions_2afc_loop.thisTrialN,instructions_2afc_loop.thisN,instructions_2afc_loop.thisIndex,instructions_2afc_loop.ran,instructions_text,continue_text,participant,study_id,session,I am most familiar with Spanish from...*,What part of the US are you from?*,At what age did you begin learning Spanish?*,Are you proficient in any languages other than English/Spanish?*,date,expName,psychopyVersion,OS,frameRate,key_resp_2afc_practice.keys,key_resp_2afc_practice.corr,key_resp_2afc_practice.rt,trials_2afc_practice_loop.thisRepN,trials_2afc_practice_loop.thisTrialN,trials_2afc_practice_loop.thisN,trials_2afc_practice_loop.thisIndex,trials_2afc_practice_loop.ran,path,correct_response,the_col,key_resp_2afc_trial.keys,key_resp_2afc_trial.corr,key_resp_2afc_trial.rt,trials_2afc_loop.thisRepN,trials_2afc_loop.thisTrialN,trials_2afc_loop.thisN,trials_2afc_loop.thisIndex,trials_2afc_loop.ran,item_num,andalusian,argentine,castilian,chilean,cuban,mexican,peruvian,puertorican,key_resp_ac1.keys,key_resp_ac1.corr,key_resp_ac1.rt,ac1_loop.thisRepN,ac1_loop.thisTrialN,ac1_loop.thisN,ac1_loop.thisIndex,ac1_loop.ran,instructions_lextale_loop.thisRepN,instructions_lextale_loop.thisTrialN,instructions_lextale_loop.thisN,instructions_lextale_loop.thisIndex,instructions_lextale_loop.ran,key_resp_lextale_practice.keys,key_resp_lextale_practice.corr,key_resp_lextale_practice.rt,trials_lextale_practice_loop.thisRepN,trials_lextale_practice_loop.thisTrialN,trials_lextale_practice_loop.thisN,trials_lextale_practice_loop.thisIndex,trials_lextale_practice_loop.ran,stim,word,prac_button_real,prac_button_false,key_resp_lextale_trial.keys,key_resp_lextale_trial.corr,key_resp_lextale_trial.rt,trials_lextale_loop.thisRepN,trials_lextale_loop.thisTrialN,trials_lextale_loop.thisN,trials_lextale_loop.thisIndex,trials_lextale_loop.ran,button_real,button_false,key_resp_ac2.keys,key_resp_ac2.corr,key_resp_ac2.rt,check_pass,check_fails,ac2_loop.thisRepN,ac2_loop.thisTrialN,ac2_loop.thisN,ac2_loop.thisIndex,ac2_loop.ran,slider_eq_trial.response,trials_eq_loop.thisRepN,trials_eq_loop.thisTrialN,trials_eq_loop.thisN,trials_eq_loop.thisIndex,trials_eq_loop.ran,item,is_test_item,is_distractor,is_agree_score,is_disagree_score
0,0,0,0,1,"In the following task you are going to hear a series of utterances. 

  You will decide if the utterances sound like questions or not using your keyboard.",(press the spacebar to continue),5e14bd64617219ae6593485a,6057c54e64b0b4e5c128b4f9,605917217b99c9c6a455d489,Spain,Northeast,13 or older,no,2021-03-22_18h18.07.583,empathy_intonation_perc,2020.2.10,Win32,60,,,,,,,,,,,,,,,,,,,,,,,,,,,,,,,,,,,,,,,,,,,,,,,,,,,,,,,,,,,,,,,,,,,,,,,,,,,,,,,,,,,,
0,1,1,1,1,"If you believe the utterance is a question, type '1' (for 'yes') and if you do not 
  believe it is a question type '0' (for 'no').

  Let's practice a bit...",(press the spacebar to continue),5e14bd64617219ae6593485a,6057c54e64b0b4e5c128b4f9,605917217b99c9c6a455d489,Spain,Northeast,13 or older,no,2021-03-22_18h18.07.583,empathy_intonation_perc,2020.2.10,Win32,60,,,,,,,,,,,,,,,,,,,,,,,,,,,,,,,,,,,,,,,,,,,,,,,,,,,,,,,,,,,,,,,,,,,,,,,,,,,,,,,,,,,,
,,,,,,,5e14bd64617219ae6593485a,6057c54e64b0b4e5c128b4f9,605917217b99c9c6a455d489,Spain,Northeast,13 or older,no,2021-03-22_18h18.07.583,empathy_intonation_perc,2020.2.10,Win32,60,0,1,4.17982,0,0,0,5,1,./stim/wavs/andalusian_statement_filler_Alberto-nunca-se-afeita.wav,0,,,,,,,,,,,,,,,,,,,,,,,,,,,,,,,,,,,,,,,,,,,,,,,,,,,,,,,,,,,,,,,,,,,,,,,,,,
,,,,,,,5e14bd64617219ae6593485a,6057c54e64b0b4e5c128b4f9,605917217b99c9c6a455d489,Spain,Northeast,13 or older,no,2021-03-22_18h18.07.583,empathy_intonation_perc,2020.2.10,Win32,60,1,1,9.88308,0,1,1,0,1,./stim/wavs/castilian_question_filler_Mi-esposo-conoce-al-chico.wav,1,,,,,,,,,,,,,,,,,,,,,,,,,,,,,,,,,,,,,,,,,,,,,,,,,,,,,,,,,,,,,,,,,,,,,,,,,,
,,,,,,,5e14bd64617219ae6593485a,6057c54e64b0b4e5c128b4f9,605917217b99c9c6a455d489,Spain,Northeast,13 or older,no,2021-03-22_18h18.07.583,empathy_intonation_perc,2020.2.10,Win32,60,1,1,1.515425,0,2,2,1,1,./stim/wavs/argentine_question_filler_Mi-vecino-habla-mucho.wav,1,,,,,,,,,,,,,,,,,,,,,,,,,,,,,,,,,,,,,,,,,,,,,,,,,,,,,,,,,,,,,,,,,,,,,,,,,,
,,,,,,,5e14bd64617219ae6593485a,6057c54e64b0b4e5c128b4f9,605917217b99c9c6a455d489,Spain,Northeast,13 or older,no,2021-03-22_18h18.07.583,empathy_intonation_perc,2020.2.10,Win32,60,0,1,1.78391,0,3,3,6,1,./stim/wavs/peruvian_statement_filler_El-nino-habla-con-su-madre.wav,0,,,,,,,,,,,,,,,,,,,,,,,,,,,,,,,,,,,,,,,,,,,,,,,,,,,,,,,,,,,,,,,,,,,,,,,,,,
,,,,,,,5e14bd64617219ae6593485a,6057c54e64b0b4e5c128b4f9,605917217b99c9c6a455d489,Spain,Northeast,13 or older,no,2021-03-22_18h18.07.583,empathy_intonation_perc,2020.2.10,Win32,60,1,1,1.82833,0,4,4,3,1,./stim/wavs/mexican_question_filler_Felipe-no-tiene-contrasena.wav,1,,,,,,,,,,,,,,,,,,,,,,,,,,,,,,,,,,,,,,,,,,,,,,,,,,,,,,,,,,,,,,,,,,,,,,,,,,
,,,,,,,5e14bd64617219ae6593485a,6057c54e64b0b4e5c128b4f9,605917217b99c9c6a455d489,Spain,Northeast,13 or older,no,2021-03-22_18h18.07.583,empathy_intonation_perc,2020.2.10,Win32,60,1,1,1.627145,0,5,5,2,1,./stim/wavs/chilean_question_filler_Mi-padre-cantaba-bien.wav,1,,,,,,,,,,,,,,,,,,,,,,,,,,,,,,,,,,,,,,,,,,,,,,,,,,,,,,,,,,,,,,,,,,,,,,,,,,
,,,,,,,5e14bd64617219ae6593485a,6057c54e64b0b4e5c128b4f9,605917217b99c9c6a455d489,Spain,Northeast,13 or older,no,2021-03-22_18h18.07.583,empathy_intonation_perc,2020.2.10,Win32,60,0,1,1.709985,0,6,6,4,1,./stim/wavs/cuban_statement_filler_Cocinabas-por-la-noche.wav,0,,,,,,,,,,,,,,,,,,,,,,,,,,,,,,,,,,,,,,,,,,,,,,,,,,,,,,,,,,,,,,,,,,,,,,,,,,
,,,,,,,5e14bd64617219ae6593485a,6057c54e64b0b4e5c128b4f9,605917217b99c9c6a455d489,Spain,Northeast,13 or older,no,2021-03-22_18h18.07.583,empathy_intonation_perc,2020.2.10,Win32,60,0,1,2.91202,0,7,7,7,1,./stim/wavs/puertorican_statement_filler_La-nina-pinta-con-su-amiga.wav,0,,,,,,,,,,,,,,,,,,,,,,,,,,,,,,,,,,,,,,,,,,,,,,,,,,,,,,,,,,,,,,,,,,,,,,,,,,
,,,,,,,5e14bd64617219ae6593485a,6057c54e64b0b4e5c128b4f9,605917217b99c9c6a455d489,Spain,Northeast,13 or older,no,2021-03-22_18h18.07.583,empathy_intonation_perc,2020.2.10,Win32,60,,,,,,,,,,1,chilean,1,1,1.5499,0,0,0,49,1,50,./stim/wavs/andalusian_mismatch_interrogative-partial-wh_Cuando-lavaba-el-plato.wav,./stim/wavs/argentine_mismatch_interrogative-partial-wh_Cuando-lavaba-el-plato.wav,./stim/wavs/castilian_mismatch_interrogative-partial-wh_Cuando-lavaba-el-plato.wav,./stim/wavs/chilean_mismatch_interrogative-partial-wh_Cuando-lavaba-el-plato.wav,./stim/wavs/cuban_mismatch_interrogative-partial-wh_Cuando-lavaba-el-plato.wav,./stim/wavs/mexican_mismatch_interrogative-partial-wh_Cuando-lavaba-el-plato.wav,./stim/wavs/peruvian_mismatch_interrogative-partial-wh_Cuando-lavaba-el-plato.wav,./stim/wavs/puertorican_mismatch_interrogative-partial-wh_Cuando-lavaba-el-plato.wav,,,,,,,,,,,,,,,,,,,,,,,,,,,,,,,,,,,,,,,,,,,,,,,,,,,,,,,,
,,,,,,,5e14bd64617219ae6593485a,6057c54e64b0b4e5c128b4f9,605917217b99c9c6a455d489,Spain,Northeast,13 or older,no,2021-03-22_18h18.07.583,empathy_intonation_perc,2020.2.10,Win32,60,,,,,,,,,,0,andalusian,0,1,1.646275,0,1,1,11,1,12,./stim/wavs/andalusian_match_declarative-narrow-focus_Emilio-ama-la-marcha.wav,./stim/wavs/argentine_match_declarative-narrow-focus_Emilio-ama-la-marcha.wav,./stim/wavs/castilian_match_declarative-narrow-focus_Emilio-ama-la-marcha.wav,./stim/wavs/chilean_match_declarative-narrow-focus_Emilio-ama-la-marcha.wav,./stim/wavs/cuban_match_declarative-narrow-focus_Emilio-ama-la-marcha.wav,./stim/wavs/mexican_match_declarative-narrow-focus_Emilio-ama-la-marcha.wav,./stim/wavs/peruvian_match_declarative-narrow-focus_Emilio-ama-la-marcha.wav,./stim/wavs/puertorican_match_declarative-narrow-focus_Emilio-ama-la-marcha.wav,,,,,,,,,,,,,,,,,,,,,,,,,,,,,,,,,,,,,,,,,,,,,,,,,,,,,,,,
,,,,,,,5e14bd64617219ae6593485a,6057c54e64b0b4e5c128b4f9,605917217b99c9c6a455d489,Spain,Northeast,13 or older,no,2021-03-22_18h18.07.583,empathy_intonation_perc,2020.2.10,Win32,60,,,,,,,,,,1,cuban,1,1,1.400005,0,2,2,50,1,51,./stim/wavs/andalusian_mismatch_interrogative-partial-wh_Cuando-miraba-la-luna.wav,./stim/wavs/argentine_mismatch_interrogative-partial-wh_Cuando-miraba-la-luna.wav,./stim/wavs/castilian_mismatch_interrogative-partial-wh_Cuando-miraba-la-luna.wav,./stim/wavs/chilean_mismatch_interrogative-partial-wh_Cuando-miraba-la-luna.wav,./stim/wavs/cuban_mismatch_interrogative-partial-wh_Cuando-miraba-la-luna.wav,./stim/wavs/mexican_mismatch_interrogative-partial-wh_Cuando-miraba-la-luna.wav,./stim/wavs/peruvian_mismatch_interrogative-partial-wh_Cuando-miraba-la-luna.wav,./stim/wavs/puertorican_mismatch_interrogative-partial-wh_Cuando-miraba-la-luna.wav,,,,,,,,,,,,,,,,,,,,,,,,,,,,,,,,,,,,,,,,,,,,,,,,,,,,,,,,
,,,,,,,5e14bd64617219ae6593485a,6057c54e64b0b4e5c128b4f9,605917217b99c9c6a455d489,Spain,Northeast,13 or older,no,2021-03-22_18h18.07.583,empathy_intonation_perc,2020.2.10,Win32,60,,,,,,,,,,1,castilian,0,0,1.3226,0,3,3,27,1,28,./stim/wavs/andalusian_match_interrogative-total-yn_Emilio-ama-la-marcha.wav,./stim/wavs/argentine_match_interrogative-total-yn_Emilio-ama-la-marcha.wav,./stim/wavs/castilian_match_interrogative-total-yn_Emilio-ama-la-marcha.wav,./stim/wavs/chilean_match_interrogative-total-yn_Emilio-ama-la-marcha.wav,./stim/wavs/cuban_match_interrogative-total-yn_Emilio-ama-la-marcha.wav,./stim/wavs/mexican_match_interrogative-total-yn_Emilio-ama-la-marcha.wav,./stim/wavs/peruvian_match_interrogative-total-yn_Emilio-ama-la-marcha.wav,./stim/wavs/puertorican_match_interrogative-total-yn_Emilio-ama-la-marcha.wav,,,,,,,,,,,,,,,,,,,,,,,,,,,,,,,,,,,,,,,,,,,,,,,,,,,,,,,,
,,,,,,,5e14bd64617219ae6593485a,6057c54e64b0b4e5c128b4f9,605917217b99c9c6a455d489,Spain,Northeast,13 or older,no,2021-03-22_18h18.07.583,empathy_intonation_perc,2020.2.10,Win32,60,,,,,,,,,,1,castilian,1,1,1.64116,0,4,4,57,1,58,./stim/wavs/andalusian_mismatch_interrogative-total-yn_El-hombre-mira-la-luna.wav,./stim/wavs/argentine_mismatch_interrogative-total-yn_El-hombre-mira-la-luna.wav,./stim/wavs/castilian_mismatch_interrogative-total-yn_El-hombre-mira-la-luna.wav,./stim/wavs/chilean_mismatch_interrogative-total-yn_El-hombre-mira-la-luna.wav,./stim/wavs/cuban_mismatch_interrogative-total-yn_El-hombre-mira-la-luna.wav,./stim/wavs/mexican_mismatch_interrogative-total-yn_El-hombre-mira-la-luna.wav,./stim/wavs/peruvian_mismatch_interrogative-total-yn_El-hombre-mira-la-luna.wav,./stim/wavs/puertorican_mismatch_interrogative-total-yn_El-hombre-mira-la-luna.wav,,,,,,,,,,,,,,,,,,,,,,,,,,,,,,,,,,,,,,,,,,,,,,,,,,,,,,,,
,,,,,,,5e14bd64617219ae6593485a,6057c54e64b0b4e5c128b4f9,605917217b99c9c6a455d489,Spain,Northeast,13 or older,no,2021-03-22_18h18.07.583,empathy_intonation_perc,2020.2.10,Win32,60,,,,,,,,,,0,peruvian,0,1,1.498675,0,5,5,35,1,36,./stim/wavs/andalusian_mismatch_declarative-broad-focus_La-maestra-vive-en-Paris.wav,./stim/wavs/argentine_mismatch_declarative-broad-focus_La-maestra-vive-en-Paris.wav,./stim/wavs/castilian_mismatch_declarative-broad-focus_La-maestra-vive-en-Paris.wav,./stim/wavs/chilean_mismatch_declarative-broad-focus_La-maestra-vive-en-Paris.wav,./stim/wavs/cuban_mismatch_declarative-broad-focus_La-maestra-vive-en-Paris.wav,./stim/wavs/mexican_mismatch_declarative-broad-focus_La-maestra-vive-en-Paris.wav,./stim/wavs/peruvian_mismatch_declarative-broad-focus_La-maestra-vive-en-Paris.wav,./stim/wavs/puertorican_mismatch_declarative-broad-focus_La-maestra-vive-en-Paris.wav,,,,,,,,,,,,,,,,,,,,,,,,,,,,,,,,,,,,,,,,,,,,,,,,,,,,,,,,
,,,,,,,5e14bd64617219ae6593485a,6057c54e64b0b4e5c128b4f9,605917217b99c9c6a455d489,Spain,Northeast,13 or older,no,2021-03-22_18h18.07.583,empathy_intonation_perc,2020.2.10,Win32,60,,,,,,,,,,0,andalusian,0,1,1.696495,0,6,6,13,1,14,./stim/wavs/andalusian_match_declarative-narrow-focus_Maria-bebe-el-vino.wav,./stim/wavs/argentine_match_declarative-narrow-focus_Maria-bebe-el-vino.wav,./stim/wavs/castilian_match_declarative-narrow-focus_Maria-bebe-el-vino.wav,./stim/wavs/chilean_match_declarative-narrow-focus_Maria-bebe-el-vino.wav,./stim/wavs/cuban_match_declarative-narrow-focus_Maria-bebe-el-vino.wav,./stim/wavs/mexican_match_declarative-narrow-focus_Maria-bebe-el-vino.wav,./stim/wavs/peruvian_match_declarative-narrow-focus_Maria-bebe-el-vino.wav,./stim/wavs/puertorican_match_declarative-narrow-focus_Maria-bebe-el-vino.wav,,,,,,,,,,,,,,,,,,,,,,,,,,,,,,,,,,,,,,,,,,,,,,,,,,,,,,,,
,,,,,,,5e14bd64617219ae6593485a,6057c54e64b0b4e5c128b4f9,605917217b99c9c6a455d489,Spain,Northeast,13 or older,no,2021-03-22_18h18.07.583,empathy_intonation_perc,2020.2.10,Win32,60,,,,,,,,,,0,peruvian,0,1,1.12659,0,7,7,2,1,3,./stim/wavs/andalusian_match_declarative-broad-focus_David-leia-el-libro.wav,./stim/wavs/argentine_match_declarative-broad-focus_David-leia-el-libro.wav,./stim/wavs/castilian_match_declarative-broad-focus_David-leia-el-libro.wav,./stim/wavs/chilean_match_declarative-broad-focus_David-leia-el-libro.wav,./stim/wavs/cuban_match_declarative-broad-focus_David-leia-el-libro.wav,./stim/wavs/mexican_match_declarative-broad-focus_David-leia-el-libro.wav,./stim/wavs/peruvian_match_declarative-broad-focus_David-leia-el-libro.wav,./stim/wavs/puertorican_match_declarative-broad-focus_David-leia-el-libro.wav,,,,,,,,,,,,,,,,,,,,,,,,,,,,,,,,,,,,,,,,,,,,,,,,,,,,,,,,
,,,,,,,5e14bd64617219ae6593485a,6057c54e64b0b4e5c128b4f9,605917217b99c9c6a455d489,Spain,Northeast,13 or older,no,2021-03-22_18h18.07.583,empathy_intonation_perc,2020.2.10,Win32,60,,,,,,,,,,0,mexican,0,1,1.31343,0,8,8,15,1,16,./stim/wavs/andalusian_match_declarative-narrow-focus_Marta-abre-el-regalo.wav,./stim/wavs/argentine_match_declarative-narrow-focus_Marta-abre-el-regalo.wav,./stim/wavs/castilian_match_declarative-narrow-focus_Marta-abre-el-regalo.wav,./stim/wavs/chilean_match_declarative-narrow-focus_Marta-abre-el-regalo.wav,./stim/wavs/cuban_match_declarative-narrow-focus_Marta-abre-el-regalo.wav,./stim/wavs/mexican_match_declarative-narrow-focus_Marta-abre-el-regalo.wav,./stim/wavs/peruvian_match_declarative-narrow-focus_Marta-abre-el-regalo.wav,./stim/wavs/puertorican_match_declarative-narrow-focus_Marta-abre-el-regalo.wav,,,,,,,,,,,,,,,,,,,,,,,,,,,,,,,,,,,,,,,,,,,,,,,,,,,,,,,,
,,,,,,,5e14bd64617219ae6593485a,6057c54e64b0b4e5c128b4f9,605917217b99c9c6a455d489,Spain,Northeast,13 or older,no,2021-03-22_18h18.07.583,empathy_intonation_perc,2020.2.10,Win32,60,,,,,,,,,,1,chilean,1,1,1.422365,0,9,9,59,1,60,./stim/wavs/andalusian_mismatch_interrogative-total-yn_La-maestra-vive-en-Paris.wav,./stim/wavs/argentine_mismatch_interrogative-total-yn_La-maestra-vive-en-Paris.wav,./stim/wavs/castilian_mismatch_interrogative-total-yn_La-maestra-vive-en-Paris.wav,./stim/wavs/chilean_mismatch_interrogative-total-yn_La-maestra-vive-en-Paris.wav,./stim/wavs/cuban_mismatch_interrogative-total-yn_La-maestra-vive-en-Paris.wav,./stim/wavs/mexican_mismatch_interrogative-total-yn_La-maestra-vive-en-Paris.wav,./stim/wavs/peruvian_mismatch_interrogative-total-yn_La-maestra-vive-en-Paris.wav,./stim/wavs/puertorican_mismatch_interrogative-total-yn_La-maestra-vive-en-Paris.wav,,,,,,,,,,,,,,,,,,,,,,,,,,,,,,,,,,,,,,,,,,,,,,,,,,,,,,,,
,,,,,,,5e14bd64617219ae6593485a,6057c54e64b0b4e5c128b4f9,605917217b99c9c6a455d489,Spain,Northeast,13 or older,no,2021-03-22_18h18.07.583,empathy_intonation_perc,2020.2.10,Win32,60,,,,,,,,,,0,peruvian,0,1,1.658435,0,10,10,44,1,45,./stim/wavs/andalusian_mismatch_declarative-narrow-focus_La-nina-lava-el-plato.wav,./stim/wavs/argentine_mismatch_declarative-narrow-focus_La-nina-lava-el-plato.wav,./stim/wavs/castilian_mismatch_declarative-narrow-focus_La-nina-lava-el-plato.wav,./stim/wavs/chilean_mismatch_declarative-narrow-focus_La-nina-lava-el-plato.wav,./stim/wavs/cuban_mismatch_declarative-narrow-focus_La-nina-lava-el-plato.wav,./stim/wavs/mexican_mismatch_declarative-narrow-focus_La-nina-lava-el-plato.wav,./stim/wavs/peruvian_mismatch_declarative-narrow-focus_La-nina-lava-el-plato.wav,./stim/wavs/puertorican_mismatch_declarative-narrow-focus_La-nina-lava-el-plato.wav,,,,,,,,,,,,,,,,,,,,,,,,,,,,,,,,,,,,,,,,,,,,,,,,,,,,,,,,
,,,,,,,5e14bd64617219ae6593485a,6057c54e64b0b4e5c128b4f9,605917217b99c9c6a455d489,Spain,Northeast,13 or older,no,2021-03-22_18h18.07.583,empathy_intonation_perc,2020.2.10,Win32,60,,,,,,,,,,0,peruvian,0,1,1.60924,0,11,11,1,1,2,./stim/wavs/andalusian_match_declarative-broad-focus_Daniel-iba-a-Bolivia.wav,./stim/wavs/argentine_match_declarative-broad-focus_Daniel-iba-a-Bolivia.wav,./stim/wavs/castilian_match_declarative-broad-focus_Daniel-iba-a-Bolivia.wav,./stim/wavs/chilean_match_declarative-broad-focus_Daniel-iba-a-Bolivia.wav,./stim/wavs/cuban_match_declarative-broad-focus_Daniel-iba-a-Bolivia.wav,./stim/wavs/mexican_match_declarative-broad-focus_Daniel-iba-a-Bolivia.wav,./stim/wavs/peruvian_match_declarative-broad-focus_Daniel-iba-a-Bolivia.wav,./stim/wavs/puertorican_match_declarative-broad-focus_Daniel-iba-a-Bolivia.wav,,,,,,,,,,,,,,,,,,,,,,,,,,,,,,,,,,,,,,,,,,,,,,,,,,,,,,,,
,,,,,,,5e14bd64617219ae6593485a,6057c54e64b0b4e5c128b4f9,605917217b99c9c6a455d489,Spain,Northeast,13 or older,no,2021-03-22_18h18.07.583,empathy_intonation_perc,2020.2.10,Win32,60,,,,,,,,,,1,puertorican,0,0,1.32748,0,12,12,62,1,63,./stim/wavs/andalusian_mismatch_interrogative-total-yn_Mi-novio-viene-del-lago.wav,./stim/wavs/argentine_mismatch_interrogative-total-yn_Mi-novio-viene-del-lago.wav,./stim/wavs/castilian_mismatch_interrogative-total-yn_Mi-novio-viene-del-lago.wav,./stim/wavs/chilean_mismatch_interrogative-total-yn_Mi-novio-viene-del-lago.wav,./stim/wavs/cuban_mismatch_interrogative-total-yn_Mi-novio-viene-del-lago.wav,./stim/wavs/mexican_mismatch_interrogative-total-yn_Mi-novio-viene-del-lago.wav,./stim/wavs/peruvian_mismatch_interrogative-total-yn_Mi-novio-viene-del-lago.wav,./stim/wavs/puertorican_mismatch_interrogative-total-yn_Mi-novio-viene-del-lago.wav,,,,,,,,,,,,,,,,,,,,,,,,,,,,,,,,,,,,,,,,,,,,,,,,,,,,,,,,
,,,,,,,5e14bd64617219ae6593485a,6057c54e64b0b4e5c128b4f9,605917217b99c9c6a455d489,Spain,Northeast,13 or older,no,2021-03-22_18h18.07.583,empathy_intonation_perc,2020.2.10,Win32,60,,,,,,,,,,0,castilian,0,1,1.568205,0,13,13,7,1,8,./stim/wavs/andalusian_match_declarative-broad-focus_Marta-abre-el-regalo.wav,./stim/wavs/argentine_match_declarative-broad-focus_Marta-abre-el-regalo.wav,./stim/wavs/castilian_match_declarative-broad-focus_Marta-abre-el-regalo.wav,./stim/wavs/chilean_match_declarative-broad-focus_Marta-abre-el-regalo.wav,./stim/wavs/cuban_match_declarative-broad-focus_Marta-abre-el-regalo.wav,./stim/wavs/mexican_match_declarative-broad-focus_Marta-abre-el-regalo.wav,./stim/wavs/peruvian_match_declarative-broad-focus_Marta-abre-el-regalo.wav,./stim/wavs/puertorican_match_declarative-broad-focus_Marta-abre-el-regalo.wav,,,,,,,,,,,,,,,,,,,,,,,,,,,,,,,,,,,,,,,,,,,,,,,,,,,,,,,,
,,,,,,,5e14bd64617219ae6593485a,6057c54e64b0b4e5c128b4f9,605917217b99c9c6a455d489,Spain,Northeast,13 or older,no,2021-03-22_18h18.07.583,empathy_intonation_perc,2020.2.10,Win32,60,,,,,,,,,,0,mexican,0,1,1.316245,0,14,14,39,1,40,./stim/wavs/andalusian_mismatch_declarative-broad-focus_Mi-tia-odia-la-lluvia.wav,./stim/wavs/argentine_mismatch_declarative-broad-focus_Mi-tia-odia-la-lluvia.wav,./stim/wavs/castilian_mismatch_declarative-broad-focus_Mi-tia-odia-la-lluvia.wav,./stim/wavs/chilean_mismatch_declarative-broad-focus_Mi-tia-odia-la-lluvia.wav,./stim/wavs/cuban_mismatch_declarative-broad-focus_Mi-tia-odia-la-lluvia.wav,./stim/wavs/mexican_mismatch_declarative-broad-focus_Mi-tia-odia-la-lluvia.wav,./stim/wavs/peruvian_mismatch_declarative-broad-focus_Mi-tia-odia-la-lluvia.wav,./stim/wavs/puertorican_mismatch_declarative-broad-focus_Mi-tia-odia-la-lluvia.wav,,,,,,,,,,,,,,,,,,,,,,,,,,,,,,,,,,,,,,,,,,,,,,,,,,,,,,,,
,,,,,,,5e14bd64617219ae6593485a,6057c54e64b0b4e5c128b4f9,605917217b99c9c6a455d489,Spain,Northeast,13 or older,no,2021-03-22_18h18.07.583,empathy_intonation_perc,2020.2.10,Win32,60,,,,,,,,,,1,argentine,1,1,1.482655,0,15,15,28,1,29,./stim/wavs/andalusian_match_interrogative-total-yn_Manuela-vende-el-carro.wav,./stim/wavs/argentine_match_interrogative-total-yn_Manuela-vende-el-carro.wav,./stim/wavs/castilian_match_interrogative-total-yn_Manuela-vende-el-carro.wav,./stim/wavs/chilean_match_interrogative-total-yn_Manuela-vende-el-carro.wav,./stim/wavs/cuban_match_interrogative-total-yn_Manuela-vende-el-carro.wav,./stim/wavs/mexican_match_interrogative-total-yn_Manuela-vende-el-carro.wav,./stim/wavs/peruvian_match_interrogative-total-yn_Manuela-vende-el-carro.wav,./stim/wavs/puertorican_match_interrogative-total-yn_Manuela-vende-el-carro.wav,,,,,,,,,,,,,,,,,,,,,,,,,,,,,,,,,,,,,,,,,,,,,,,,,,,,,,,,
,,,,,,,5e14bd64617219ae6593485a,6057c54e64b0b4e5c128b4f9,605917217b99c9c6a455d489,Spain,Northeast,13 or older,no,2021-03-22_18h18.07.583,empathy_intonation_perc,2020.2.10,Win32,60,,,,,,,,,,0,puertorican,0,1,1.67283,0,16,16,40,1,41,./stim/wavs/andalusian_mismatch_declarative-narrow-focus_El-bebe-comia-muy-bien.wav,./stim/wavs/argentine_mismatch_declarative-narrow-focus_El-bebe-comia-muy-bien.wav,./stim/wavs/castilian_mismatch_declarative-narrow-focus_El-bebe-comia-muy-bien.wav,./stim/wavs/chilean_mismatch_declarative-narrow-focus_El-bebe-comia-muy-bien.wav,./stim/wavs/cuban_mismatch_declarative-narrow-focus_El-bebe-comia-muy-bien.wav,./stim/wavs/mexican_mismatch_declarative-narrow-focus_El-bebe-comia-muy-bien.wav,./stim/wavs/peruvian_mismatch_declarative-narrow-focus_El-bebe-comia-muy-bien.wav,./stim/wavs/puertorican_mismatch_declarative-narrow-focus_El-bebe-comia-muy-bien.wav,,,,,,,,,,,,,,,,,,,,,,,,,,,,,,,,,,,,,,,,,,,,,,,,,,,,,,,,
,,,,,,,5e14bd64617219ae6593485a,6057c54e64b0b4e5c128b4f9,605917217b99c9c6a455d489,Spain,Northeast,13 or older,no,2021-03-22_18h18.07.583,empathy_intonation_perc,2020.2.10,Win32,60,,,,,,,,,,1,castilian,1,1,1.586925,0,17,17,58,1,59,./stim/wavs/andalusian_mismatch_interrogative-total-yn_El-nino-oye-el-rio.wav,./stim/wavs/argentine_mismatch_interrogative-total-yn_El-nino-oye-el-rio.wav,./stim/wavs/castilian_mismatch_interrogative-total-yn_El-nino-oye-el-rio.wav,./stim/wavs/chilean_mismatch_interrogative-total-yn_El-nino-oye-el-rio.wav,./stim/wavs/cuban_mismatch_interrogative-total-yn_El-nino-oye-el-rio.wav,./stim/wavs/mexican_mismatch_interrogative-total-yn_El-nino-oye-el-rio.wav,./stim/wavs/peruvian_mismatch_interrogative-total-yn_El-nino-oye-el-rio.wav,./stim/wavs/puertorican_mismatch_interrogative-total-yn_El-nino-oye-el-rio.wav,,,,,,,,,,,,,,,,,,,,,,,,,,,,,,,,,,,,,,,,,,,,,,,,,,,,,,,,
,,,,,,,5e14bd64617219ae6593485a,6057c54e64b0b4e5c128b4f9,605917217b99c9c6a455d489,Spain,Northeast,13 or older,no,2021-03-22_18h18.07.583,empathy_intonation_perc,2020.2.10,Win32,60,,,,,,,,,,0,andalusian,0,1,1.55389,0,18,18,12,1,13,./stim/wavs/andalusian_match_declarative-narrow-focus_Manuela-vende-el-carro.wav,./stim/wavs/argentine_match_declarative-narrow-focus_Manuela-vende-el-carro.wav,./stim/wavs/castilian_match_declarative-narrow-focus_Manuela-vende-el-carro.wav,./stim/wavs/chilean_match_declarative-narrow-focus_Manuela-vende-el-carro.wav,./stim/wavs/cuban_match_declarative-narrow-focus_Manuela-vende-el-carro.wav,./stim/wavs/mexican_match_declarative-narrow-focus_Manuela-vende-el-carro.wav,./stim/wavs/peruvian_match_declarative-narrow-focus_Manuela-vende-el-carro.wav,./stim/wavs/puertorican_match_declarative-narrow-focus_Manuela-vende-el-carro.wav,,,,,,,,,,,,,,,,,,,,,,,,,,,,,,,,,,,,,,,,,,,,,,,,,,,,,,,,
,,,,,,,5e14bd64617219ae6593485a,6057c54e64b0b4e5c128b4f9,605917217b99c9c6a455d489,Spain,Northeast,13 or older,no,2021-03-22_18h18.07.583,empathy_intonation_perc,2020.2.10,Win32,60,,,,,,,,,,1,peruvian,1,1,1.674405,0,19,19,63,1,64,./stim/wavs/andalusian_mismatch_interrogative-total-yn_Mi-tia-odia-la-lluvia.wav,./stim/wavs/argentine_mismatch_interrogative-total-yn_Mi-tia-odia-la-lluvia.wav,./stim/wavs/castilian_mismatch_interrogative-total-yn_Mi-tia-odia-la-lluvia.wav,./stim/wavs/chilean_mismatch_interrogative-total-yn_Mi-tia-odia-la-lluvia.wav,./stim/wavs/cuban_mismatch_interrogative-total-yn_Mi-tia-odia-la-lluvia.wav,./stim/wavs/mexican_mismatch_interrogative-total-yn_Mi-tia-odia-la-lluvia.wav,./stim/wavs/peruvian_mismatch_interrogative-total-yn_Mi-tia-odia-la-lluvia.wav,./stim/wavs/puertorican_mismatch_interrogative-total-yn_Mi-tia-odia-la-lluvia.wav,,,,,,,,,,,,,,,,,,,,,,,,,,,,,,,,,,,,,,,,,,,,,,,,,,,,,,,,
,,,,,,,5e14bd64617219ae6593485a,6057c54e64b0b4e5c128b4f9,605917217b99c9c6a455d489,Spain,Northeast,13 or older,no,2021-03-22_18h18.07.583,empathy_intonation_perc,2020.2.10,Win32,60,,,,,,,,,,0,cuban,0,1,1.58681,0,20,20,4,1,5,./stim/wavs/andalusian_match_declarative-broad-focus_Manuela-vende-el-carro.wav,./stim/wavs/argentine_match_declarative-broad-focus_Manuela-vende-el-carro.wav,./stim/wavs/castilian_match_declarative-broad-focus_Manuela-vende-el-carro.wav,./stim/wavs/chilean_match_declarative-broad-focus_Manuela-vende-el-carro.wav,./stim/wavs/cuban_match_declarative-broad-focus_Manuela-vende-el-carro.wav,./stim/wavs/mexican_match_declarative-broad-focus_Manuela-vende-el-carro.wav,./stim/wavs/peruvian_match_declarative-broad-focus_Manuela-vende-el-carro.wav,./stim/wavs/puertorican_match_declarative-broad-focus_Manuela-vende-el-carro.wav,,,,,,,,,,,,,,,,,,,,,,,,,,,,,,,,,,,,,,,,,,,,,,,,,,,,,,,,
,,,,,,,5e14bd64617219ae6593485a,6057c54e64b0b4e5c128b4f9,605917217b99c9c6a455d489,Spain,Northeast,13 or older,no,2021-03-22_18h18.07.583,empathy_intonation_perc,2020.2.10,Win32,60,,,,,,,,,,0,mexican,0,1,1.3274,0,21,21,38,1,39,./stim/wavs/andalusian_mismatch_declarative-broad-focus_Mi-novio-viene-del-lago.wav,./stim/wavs/argentine_mismatch_declarative-broad-focus_Mi-novio-viene-del-lago.wav,./stim/wavs/castilian_mismatch_declarative-broad-focus_Mi-novio-viene-del-lago.wav,./stim/wavs/chilean_mismatch_declarative-broad-focus_Mi-novio-viene-del-lago.wav,./stim/wavs/cuban_mismatch_declarative-broad-focus_Mi-novio-viene-del-lago.wav,./stim/wavs/mexican_mismatch_declarative-broad-focus_Mi-novio-viene-del-lago.wav,./stim/wavs/peruvian_mismatch_declarative-broad-focus_Mi-novio-viene-del-lago.wav,./stim/wavs/puertorican_mismatch_declarative-broad-focus_Mi-novio-viene-del-lago.wav,,,,,,,,,,,,,,,,,,,,,,,,,,,,,,,,,,,,,,,,,,,,,,,,,,,,,,,,
,,,,,,,5e14bd64617219ae6593485a,6057c54e64b0b4e5c128b4f9,605917217b99c9c6a455d489,Spain,Northeast,13 or older,no,2021-03-22_18h18.07.583,empathy_intonation_perc,2020.2.10,Win32,60,,,,,,,,,,1,argentine,1,1,1.0599,0,22,22,19,1,20,./stim/wavs/andalusian_match_interrogative-partial-wh_Cuando-vendia-el-carro.wav,./stim/wavs/argentine_match_interrogative-partial-wh_Cuando-vendia-el-carro.wav,./stim/wavs/castilian_match_interrogative-partial-wh_Cuando-vendia-el-carro.wav,./stim/wavs/chilean_match_interrogative-partial-wh_Cuando-vendia-el-carro.wav,./stim/wavs/cuban_match_interrogative-partial-wh_Cuando-vendia-el-carro.wav,./stim/wavs/mexican_match_interrogative-partial-wh_Cuando-vendia-el-carro.wav,./stim/wavs/peruvian_match_interrogative-partial-wh_Cuando-vendia-el-carro.wav,./stim/wavs/puertorican_match_interrogative-partial-wh_Cuando-vendia-el-carro.wav,,,,,,,,,,,,,,,,,,,,,,,,,,,,,,,,,,,,,,,,,,,,,,,,,,,,,,,,
,,,,,,,5e14bd64617219ae6593485a,6057c54e64b0b4e5c128b4f9,605917217b99c9c6a455d489,Spain,Northeast,13 or older,no,2021-03-22_18h18.07.583,empathy_intonation_perc,2020.2.10,Win32,60,,,,,,,,,,1,mexican,0,0,1.38692,0,23,23,60,1,61,./stim/wavs/andalusian_mismatch_interrogative-total-yn_La-nina-lava-el-plato.wav,./stim/wavs/argentine_mismatch_interrogative-total-yn_La-nina-lava-el-plato.wav,./stim/wavs/castilian_mismatch_interrogative-total-yn_La-nina-lava-el-plato.wav,./stim/wavs/chilean_mismatch_interrogative-total-yn_La-nina-lava-el-plato.wav,./stim/wavs/cuban_mismatch_interrogative-total-yn_La-nina-lava-el-plato.wav,./stim/wavs/mexican_mismatch_interrogative-total-yn_La-nina-lava-el-plato.wav,./stim/wavs/peruvian_mismatch_interrogative-total-yn_La-nina-lava-el-plato.wav,./stim/wavs/puertorican_mismatch_interrogative-total-yn_La-nina-lava-el-plato.wav,,,,,,,,,,,,,,,,,,,,,,,,,,,,,,,,,,,,,,,,,,,,,,,,,,,,,,,,
,,,,,,,5e14bd64617219ae6593485a,6057c54e64b0b4e5c128b4f9,605917217b99c9c6a455d489,Spain,Northeast,13 or older,no,2021-03-22_18h18.07.583,empathy_intonation_perc,2020.2.10,Win32,60,,,,,,,,,,0,puertorican,0,1,2.176045,0,24,24,41,1,42,./stim/wavs/andalusian_mismatch_declarative-narrow-focus_El-hombre-mira-la-luna.wav,./stim/wavs/argentine_mismatch_declarative-narrow-focus_El-hombre-mira-la-luna.wav,./stim/wavs/castilian_mismatch_declarative-narrow-focus_El-hombre-mira-la-luna.wav,./stim/wavs/chilean_mismatch_declarative-narrow-focus_El-hombre-mira-la-luna.wav,./stim/wavs/cuban_mismatch_declarative-narrow-focus_El-hombre-mira-la-luna.wav,./stim/wavs/mexican_mismatch_declarative-narrow-focus_El-hombre-mira-la-luna.wav,./stim/wavs/peruvian_mismatch_declarative-narrow-focus_El-hombre-mira-la-luna.wav,./stim/wavs/puertorican_mismatch_declarative-narrow-focus_El-hombre-mira-la-luna.wav,,,,,,,,,,,,,,,,,,,,,,,,,,,,,,,,,,,,,,,,,,,,,,,,,,,,,,,,
,,,,,,,5e14bd64617219ae6593485a,6057c54e64b0b4e5c128b4f9,605917217b99c9c6a455d489,Spain,Northeast,13 or older,no,2021-03-22_18h18.07.583,empathy_intonation_perc,2020.2.10,Win32,60,,,,,,,,,,0,argentine,1,0,1.657595,0,25,25,6,1,7,./stim/wavs/andalusian_match_declarative-broad-focus_Mariano-habla-del-tiempo.wav,./stim/wavs/argentine_match_declarative-broad-focus_Mariano-habla-del-tiempo.wav,./stim/wavs/castilian_match_declarative-broad-focus_Mariano-habla-del-tiempo.wav,./stim/wavs/chilean_match_declarative-broad-focus_Mariano-habla-del-tiempo.wav,./stim/wavs/cuban_match_declarative-broad-focus_Mariano-habla-del-tiempo.wav,./stim/wavs/mexican_match_declarative-broad-focus_Mariano-habla-del-tiempo.wav,./stim/wavs/peruvian_match_declarative-broad-focus_Mariano-habla-del-tiempo.wav,./stim/wavs/puertorican_match_declarative-broad-focus_Mariano-habla-del-tiempo.wav,,,,,,,,,,,,,,,,,,,,,,,,,,,,,,,,,,,,,,,,,,,,,,,,,,,,,,,,
,,,,,,,5e14bd64617219ae6593485a,6057c54e64b0b4e5c128b4f9,605917217b99c9c6a455d489,Spain,Northeast,13 or older,no,2021-03-22_18h18.07.583,empathy_intonation_perc,2020.2.10,Win32,60,,,,,,,,,,1,puertorican,1,1,1.322305,0,26,26,54,1,55,./stim/wavs/andalusian_mismatch_interrogative-partial-wh_Por-que-venia-del-lago.wav,./stim/wavs/argentine_mismatch_interrogative-partial-wh_Por-que-venia-del-lago.wav,./stim/wavs/castilian_mismatch_interrogative-partial-wh_Por-que-venia-del-lago.wav,./stim/wavs/chilean_mismatch_interrogative-partial-wh_Por-que-venia-del-lago.wav,./stim/wavs/cuban_mismatch_interrogative-partial-wh_Por-que-venia-del-lago.wav,./stim/wavs/mexican_mismatch_interrogative-partial-wh_Por-que-venia-del-lago.wav,./stim/wavs/peruvian_mismatch_interrogative-partial-wh_Por-que-venia-del-lago.wav,./stim/wavs/puertorican_mismatch_interrogative-partial-wh_Por-que-venia-del-lago.wav,,,,,,,,,,,,,,,,,,,,,,,,,,,,,,,,,,,,,,,,,,,,,,,,,,,,,,,,
,,,,,,,5e14bd64617219ae6593485a,6057c54e64b0b4e5c128b4f9,605917217b99c9c6a455d489,Spain,Northeast,13 or older,no,2021-03-22_18h18.07.583,empathy_intonation_perc,2020.2.10,Win32,60,,,,,,,,,,1,mexican,1,1,1.286085,0,27,27,55,1,56,./stim/wavs/andalusian_mismatch_interrogative-partial-wh_Por-que-vivia-en-Paris.wav,./stim/wavs/argentine_mismatch_interrogative-partial-wh_Por-que-vivia-en-Paris.wav,./stim/wavs/castilian_mismatch_interrogative-partial-wh_Por-que-vivia-en-Paris.wav,./stim/wavs/chilean_mismatch_interrogative-partial-wh_Por-que-vivia-en-Paris.wav,./stim/wavs/cuban_mismatch_interrogative-partial-wh_Por-que-vivia-en-Paris.wav,./stim/wavs/mexican_mismatch_interrogative-partial-wh_Por-que-vivia-en-Paris.wav,./stim/wavs/peruvian_mismatch_interrogative-partial-wh_Por-que-vivia-en-Paris.wav,./stim/wavs/puertorican_mismatch_interrogative-partial-wh_Por-que-vivia-en-Paris.wav,,,,,,,,,,,,,,,,,,,,,,,,,,,,,,,,,,,,,,,,,,,,,,,,,,,,,,,,
,,,,,,,5e14bd64617219ae6593485a,6057c54e64b0b4e5c128b4f9,605917217b99c9c6a455d489,Spain,Northeast,13 or older,no,2021-03-22_18h18.07.583,empathy_intonation_perc,2020.2.10,Win32,60,,,,,,,,,,0,puertorican,0,1,1.413845,0,28,28,8,1,9,./stim/wavs/andalusian_match_declarative-narrow-focus_Ana-lleva-el-abrigo.wav,./stim/wavs/argentine_match_declarative-narrow-focus_Ana-lleva-el-abrigo.wav,./stim/wavs/castilian_match_declarative-narrow-focus_Ana-lleva-el-abrigo.wav,./stim/wavs/chilean_match_declarative-narrow-focus_Ana-lleva-el-abrigo.wav,./stim/wavs/cuban_match_declarative-narrow-focus_Ana-lleva-el-abrigo.wav,./stim/wavs/mexican_match_declarative-narrow-focus_Ana-lleva-el-abrigo.wav,./stim/wavs/peruvian_match_declarative-narrow-focus_Ana-lleva-el-abrigo.wav,./stim/wavs/puertorican_match_declarative-narrow-focus_Ana-lleva-el-abrigo.wav,,,,,,,,,,,,,,,,,,,,,,,,,,,,,,,,,,,,,,,,,,,,,,,,,,,,,,,,
,,,,,,,5e14bd64617219ae6593485a,6057c54e64b0b4e5c128b4f9,605917217b99c9c6a455d489,Spain,Northeast,13 or older,no,2021-03-22_18h18.07.583,empathy_intonation_perc,2020.2.10,Win32,60,,,,,,,,,,0,argentine,0,1,1.29355,0,29,29,10,1,11,./stim/wavs/andalusian_match_declarative-narrow-focus_David-leia-el-libro.wav,./stim/wavs/argentine_match_declarative-narrow-focus_David-leia-el-libro.wav,./stim/wavs/castilian_match_declarative-narrow-focus_David-leia-el-libro.wav,./stim/wavs/chilean_match_declarative-narrow-focus_David-leia-el-libro.wav,./stim/wavs/cuban_match_declarative-narrow-focus_David-leia-el-libro.wav,./stim/wavs/mexican_match_declarative-narrow-focus_David-leia-el-libro.wav,./stim/wavs/peruvian_match_declarative-narrow-focus_David-leia-el-libro.wav,./stim/wavs/puertorican_match_declarative-narrow-focus_David-leia-el-libro.wav,,,,,,,,,,,,,,,,,,,,,,,,,,,,,,,,,,,,,,,,,,,,,,,,,,,,,,,,
,,,,,,,5e14bd64617219ae6593485a,6057c54e64b0b4e5c128b4f9,605917217b99c9c6a455d489,Spain,Northeast,13 or older,no,2021-03-22_18h18.07.583,empathy_intonation_perc,2020.2.10,Win32,60,,,,,,,,,,0,andalusian,0,1,1.29689,0,30,30,46,1,47,./stim/wavs/andalusian_mismatch_declarative-narrow-focus_Mi-novio-viene-del-lago.wav,./stim/wavs/argentine_mismatch_declarative-narrow-focus_Mi-novio-viene-del-lago.wav,./stim/wavs/castilian_mismatch_declarative-narrow-focus_Mi-novio-viene-del-lago.wav,./stim/wavs/chilean_mismatch_declarative-narrow-focus_Mi-novio-viene-del-lago.wav,./stim/wavs/cuban_mismatch_declarative-narrow-focus_Mi-novio-viene-del-lago.wav,./stim/wavs/mexican_mismatch_declarative-narrow-focus_Mi-novio-viene-del-lago.wav,./stim/wavs/peruvian_mismatch_declarative-narrow-focus_Mi-novio-viene-del-lago.wav,./stim/wavs/puertorican_mismatch_declarative-narrow-focus_Mi-novio-viene-del-lago.wav,,,,,,,,,,,,,,,,,,,,,,,,,,,,,,,,,,,,,,,,,,,,,,,,,,,,,,,,
,,,,,,,5e14bd64617219ae6593485a,6057c54e64b0b4e5c128b4f9,605917217b99c9c6a455d489,Spain,Northeast,13 or older,no,2021-03-22_18h18.07.583,empathy_intonation_perc,2020.2.10,Win32,60,,,,,,,,,,0,argentine,0,1,1.47077,0,31,31,47,1,48,./stim/wavs/andalusian_mismatch_declarative-narrow-focus_Mi-tia-odia-la-lluvia.wav,./stim/wavs/argentine_mismatch_declarative-narrow-focus_Mi-tia-odia-la-lluvia.wav,./stim/wavs/castilian_mismatch_declarative-narrow-focus_Mi-tia-odia-la-lluvia.wav,./stim/wavs/chilean_mismatch_declarative-narrow-focus_Mi-tia-odia-la-lluvia.wav,./stim/wavs/cuban_mismatch_declarative-narrow-focus_Mi-tia-odia-la-lluvia.wav,./stim/wavs/mexican_mismatch_declarative-narrow-focus_Mi-tia-odia-la-lluvia.wav,./stim/wavs/peruvian_mismatch_declarative-narrow-focus_Mi-tia-odia-la-lluvia.wav,./stim/wavs/puertorican_mismatch_declarative-narrow-focus_Mi-tia-odia-la-lluvia.wav,,,,,,,,,,,,,,,,,,,,,,,,,,,,,,,,,,,,,,,,,,,,,,,,,,,,,,,,
,,,,,,,5e14bd64617219ae6593485a,6057c54e64b0b4e5c128b4f9,605917217b99c9c6a455d489,Spain,Northeast,13 or older,no,2021-03-22_18h18.07.583,empathy_intonation_perc,2020.2.10,Win32,60,,,,,,,,,,1,argentine,0,0,1.360295,0,32,32,29,1,30,./stim/wavs/andalusian_match_interrogative-total-yn_Maria-bebe-el-vino.wav,./stim/wavs/argentine_match_interrogative-total-yn_Maria-bebe-el-vino.wav,./stim/wavs/castilian_match_interrogative-total-yn_Maria-bebe-el-vino.wav,./stim/wavs/chilean_match_interrogative-total-yn_Maria-bebe-el-vino.wav,./stim/wavs/cuban_match_interrogative-total-yn_Maria-bebe-el-vino.wav,./stim/wavs/mexican_match_interrogative-total-yn_Maria-bebe-el-vino.wav,./stim/wavs/peruvian_match_interrogative-total-yn_Maria-bebe-el-vino.wav,./stim/wavs/puertorican_match_interrogative-total-yn_Maria-bebe-el-vino.wav,,,,,,,,,,,,,,,,,,,,,,,,,,,,,,,,,,,,,,,,,,,,,,,,,,,,,,,,
,,,,,,,5e14bd64617219ae6593485a,6057c54e64b0b4e5c128b4f9,605917217b99c9c6a455d489,Spain,Northeast,13 or older,no,2021-03-22_18h18.07.583,empathy_intonation_perc,2020.2.10,Win32,60,,,,,,,,,,0,puertorican,0,1,1.764015,0,33,33,45,1,46,./stim/wavs/andalusian_mismatch_declarative-narrow-focus_Mi-madre-come-la-fruta.wav,./stim/wavs/argentine_mismatch_declarative-narrow-focus_Mi-madre-come-la-fruta.wav,./stim/wavs/castilian_mismatch_declarative-narrow-focus_Mi-madre-come-la-fruta.wav,./stim/wavs/chilean_mismatch_declarative-narrow-focus_Mi-madre-come-la-fruta.wav,./stim/wavs/cuban_mismatch_declarative-narrow-focus_Mi-madre-come-la-fruta.wav,./stim/wavs/mexican_mismatch_declarative-narrow-focus_Mi-madre-come-la-fruta.wav,./stim/wavs/peruvian_mismatch_declarative-narrow-focus_Mi-madre-come-la-fruta.wav,./stim/wavs/puertorican_mismatch_declarative-narrow-focus_Mi-madre-come-la-fruta.wav,,,,,,,,,,,,,,,,,,,,,,,,,,,,,,,,,,,,,,,,,,,,,,,,,,,,,,,,
,,,,,,,5e14bd64617219ae6593485a,6057c54e64b0b4e5c128b4f9,605917217b99c9c6a455d489,Spain,Northeast,13 or older,no,2021-03-22_18h18.07.583,empathy_intonation_perc,2020.2.10,Win32,60,,,,,,,,,,1,cuban,0,0,1.431315,0,34,34,26,1,27,./stim/wavs/andalusian_match_interrogative-total-yn_David-leia-el-libro.wav,./stim/wavs/argentine_match_interrogative-total-yn_David-leia-el-libro.wav,./stim/wavs/castilian_match_interrogative-total-yn_David-leia-el-libro.wav,./stim/wavs/chilean_match_interrogative-total-yn_David-leia-el-libro.wav,./stim/wavs/cuban_match_interrogative-total-yn_David-leia-el-libro.wav,./stim/wavs/mexican_match_interrogative-total-yn_David-leia-el-libro.wav,./stim/wavs/peruvian_match_interrogative-total-yn_David-leia-el-libro.wav,./stim/wavs/puertorican_match_interrogative-total-yn_David-leia-el-libro.wav,,,,,,,,,,,,,,,,,,,,,,,,,,,,,,,,,,,,,,,,,,,,,,,,,,,,,,,,
,,,,,,,5e14bd64617219ae6593485a,6057c54e64b0b4e5c128b4f9,605917217b99c9c6a455d489,Spain,Northeast,13 or older,no,2021-03-22_18h18.07.583,empathy_intonation_perc,2020.2.10,Win32,60,,,,,,,,,,1,peruvian,1,1,1.60026,0,35,35,25,1,26,./stim/wavs/andalusian_match_interrogative-total-yn_Daniel-iba-a-Bolivia.wav,./stim/wavs/argentine_match_interrogative-total-yn_Daniel-iba-a-Bolivia.wav,./stim/wavs/castilian_match_interrogative-total-yn_Daniel-iba-a-Bolivia.wav,./stim/wavs/chilean_match_interrogative-total-yn_Daniel-iba-a-Bolivia.wav,./stim/wavs/cuban_match_interrogative-total-yn_Daniel-iba-a-Bolivia.wav,./stim/wavs/mexican_match_interrogative-total-yn_Daniel-iba-a-Bolivia.wav,./stim/wavs/peruvian_match_interrogative-total-yn_Daniel-iba-a-Bolivia.wav,./stim/wavs/puertorican_match_interrogative-total-yn_Daniel-iba-a-Bolivia.wav,,,,,,,,,,,,,,,,,,,,,,,,,,,,,,,,,,,,,,,,,,,,,,,,,,,,,,,,
,,,,,,,5e14bd64617219ae6593485a,6057c54e64b0b4e5c128b4f9,605917217b99c9c6a455d489,Spain,Northeast,13 or older,no,2021-03-22_18h18.07.583,empathy_intonation_perc,2020.2.10,Win32,60,,,,,,,,,,1,cuban,1,1,1.013885,0,36,36,16,1,17,./stim/wavs/andalusian_match_interrogative-partial-wh_Cuando-bebia-el-vino.wav,./stim/wavs/argentine_match_interrogative-partial-wh_Cuando-bebia-el-vino.wav,./stim/wavs/castilian_match_interrogative-partial-wh_Cuando-bebia-el-vino.wav,./stim/wavs/chilean_match_interrogative-partial-wh_Cuando-bebia-el-vino.wav,./stim/wavs/cuban_match_interrogative-partial-wh_Cuando-bebia-el-vino.wav,./stim/wavs/mexican_match_interrogative-partial-wh_Cuando-bebia-el-vino.wav,./stim/wavs/peruvian_match_interrogative-partial-wh_Cuando-bebia-el-vino.wav,./stim/wavs/puertorican_match_interrogative-partial-wh_Cuando-bebia-el-vino.wav,,,,,,,,,,,,,,,,,,,,,,,,,,,,,,,,,,,,,,,,,,,,,,,,,,,,,,,,
,,,,,,,5e14bd64617219ae6593485a,6057c54e64b0b4e5c128b4f9,605917217b99c9c6a455d489,Spain,Northeast,13 or older,no,2021-03-22_18h18.07.583,empathy_intonation_perc,2020.2.10,Win32,60,,,,,,,,,,0,cuban,0,1,1.122405,0,37,37,14,1,15,./stim/wavs/andalusian_match_declarative-narrow-focus_Mariano-habla-del-tiempo.wav,./stim/wavs/argentine_match_declarative-narrow-focus_Mariano-habla-del-tiempo.wav,./stim/wavs/castilian_match_declarative-narrow-focus_Mariano-habla-del-tiempo.wav,./stim/wavs/chilean_match_declarative-narrow-focus_Mariano-habla-del-tiempo.wav,./stim/wavs/cuban_match_declarative-narrow-focus_Mariano-habla-del-tiempo.wav,./stim/wavs/mexican_match_declarative-narrow-focus_Mariano-habla-del-tiempo.wav,./stim/wavs/peruvian_match_declarative-narrow-focus_Mariano-habla-del-tiempo.wav,./stim/wavs/puertorican_match_declarative-narrow-focus_Mariano-habla-del-tiempo.wav,,,,,,,,,,,,,,,,,,,,,,,,,,,,,,,,,,,,,,,,,,,,,,,,,,,,,,,,
,,,,,,,5e14bd64617219ae6593485a,6057c54e64b0b4e5c128b4f9,605917217b99c9c6a455d489,Spain,Northeast,13 or older,no,2021-03-22_18h18.07.583,empathy_intonation_perc,2020.2.10,Win32,60,,,,,,,,,,1,puertorican,0,0,1.28032,0,38,38,24,1,25,./stim/wavs/andalusian_match_interrogative-total-yn_Ana-lleva-el-abrigo.wav,./stim/wavs/argentine_match_interrogative-total-yn_Ana-lleva-el-abrigo.wav,./stim/wavs/castilian_match_interrogative-total-yn_Ana-lleva-el-abrigo.wav,./stim/wavs/chilean_match_interrogative-total-yn_Ana-lleva-el-abrigo.wav,./stim/wavs/cuban_match_interrogative-total-yn_Ana-lleva-el-abrigo.wav,./stim/wavs/mexican_match_interrogative-total-yn_Ana-lleva-el-abrigo.wav,./stim/wavs/peruvian_match_interrogative-total-yn_Ana-lleva-el-abrigo.wav,./stim/wavs/puertorican_match_interrogative-total-yn_Ana-lleva-el-abrigo.wav,,,,,,,,,,,,,,,,,,,,,,,,,,,,,,,,,,,,,,,,,,,,,,,,,,,,,,,,
,,,,,,,5e14bd64617219ae6593485a,6057c54e64b0b4e5c128b4f9,605917217b99c9c6a455d489,Spain,Northeast,13 or older,no,2021-03-22_18h18.07.583,empathy_intonation_perc,2020.2.10,Win32,60,,,,,,,,,,1,peruvian,1,1,0.85356,0,39,39,51,1,52,./stim/wavs/andalusian_mismatch_interrogative-partial-wh_Por-que-desayuna-muy-bien.wav,./stim/wavs/argentine_mismatch_interrogative-partial-wh_Por-que-desayuna-muy-bien.wav,./stim/wavs/castilian_mismatch_interrogative-partial-wh_Por-que-desayuna-muy-bien.wav,./stim/wavs/chilean_mismatch_interrogative-partial-wh_Por-que-desayuna-muy-bien.wav,./stim/wavs/cuban_mismatch_interrogative-partial-wh_Por-que-desayuna-muy-bien.wav,./stim/wavs/mexican_mismatch_interrogative-partial-wh_Por-que-desayuna-muy-bien.wav,./stim/wavs/peruvian_mismatch_interrogative-partial-wh_Por-que-desayuna-muy-bien.wav,./stim/wavs/puertorican_mismatch_interrogative-partial-wh_Por-que-desayuna-muy-bien.wav,,,,,,,,,,,,,,,,,,,,,,,,,,,,,,,,,,,,,,,,,,,,,,,,,,,,,,,,
,,,,,,,5e14bd64617219ae6593485a,6057c54e64b0b4e5c128b4f9,605917217b99c9c6a455d489,Spain,Northeast,13 or older,no,2021-03-22_18h18.07.583,empathy_intonation_perc,2020.2.10,Win32,60,,,,,,,,,,0,castilian,0,1,1.16044,0,40,40,43,1,44,./stim/wavs/andalusian_mismatch_declarative-narrow-focus_La-maestra-vive-en-Paris.wav,./stim/wavs/argentine_mismatch_declarative-narrow-focus_La-maestra-vive-en-Paris.wav,./stim/wavs/castilian_mismatch_declarative-narrow-focus_La-maestra-vive-en-Paris.wav,./stim/wavs/chilean_mismatch_declarative-narrow-focus_La-maestra-vive-en-Paris.wav,./stim/wavs/cuban_mismatch_declarative-narrow-focus_La-maestra-vive-en-Paris.wav,./stim/wavs/mexican_mismatch_declarative-narrow-focus_La-maestra-vive-en-Paris.wav,./stim/wavs/peruvian_mismatch_declarative-narrow-focus_La-maestra-vive-en-Paris.wav,./stim/wavs/puertorican_mismatch_declarative-narrow-focus_La-maestra-vive-en-Paris.wav,,,,,,,,,,,,,,,,,,,,,,,,,,,,,,,,,,,,,,,,,,,,,,,,,,,,,,,,
,,,,,,,5e14bd64617219ae6593485a,6057c54e64b0b4e5c128b4f9,605917217b99c9c6a455d489,Spain,Northeast,13 or older,no,2021-03-22_18h18.07.583,empathy_intonation_perc,2020.2.10,Win32,60,,,,,,,,,,0,cuban,0,1,1.41638,0,41,41,37,1,38,./stim/wavs/andalusian_mismatch_declarative-broad-focus_Mi-madre-come-la-fruta.wav,./stim/wavs/argentine_mismatch_declarative-broad-focus_Mi-madre-come-la-fruta.wav,./stim/wavs/castilian_mismatch_declarative-broad-focus_Mi-madre-come-la-fruta.wav,./stim/wavs/chilean_mismatch_declarative-broad-focus_Mi-madre-come-la-fruta.wav,./stim/wavs/cuban_mismatch_declarative-broad-focus_Mi-madre-come-la-fruta.wav,./stim/wavs/mexican_mismatch_declarative-broad-focus_Mi-madre-come-la-fruta.wav,./stim/wavs/peruvian_mismatch_declarative-broad-focus_Mi-madre-come-la-fruta.wav,./stim/wavs/puertorican_mismatch_declarative-broad-focus_Mi-madre-come-la-fruta.wav,,,,,,,,,,,,,,,,,,,,,,,,,,,,,,,,,,,,,,,,,,,,,,,,,,,,,,,,
,,,,,,,5e14bd64617219ae6593485a,6057c54e64b0b4e5c128b4f9,605917217b99c9c6a455d489,Spain,Northeast,13 or older,no,2021-03-22_18h18.07.583,empathy_intonation_perc,2020.2.10,Win32,60,,,,,,,,,,0,puertorican,0,1,1.25597,0,42,42,3,1,4,./stim/wavs/andalusian_match_declarative-broad-focus_Emilio-ama-la-marcha.wav,./stim/wavs/argentine_match_declarative-broad-focus_Emilio-ama-la-marcha.wav,./stim/wavs/castilian_match_declarative-broad-focus_Emilio-ama-la-marcha.wav,./stim/wavs/chilean_match_declarative-broad-focus_Emilio-ama-la-marcha.wav,./stim/wavs/cuban_match_declarative-broad-focus_Emilio-ama-la-marcha.wav,./stim/wavs/mexican_match_declarative-broad-focus_Emilio-ama-la-marcha.wav,./stim/wavs/peruvian_match_declarative-broad-focus_Emilio-ama-la-marcha.wav,./stim/wavs/puertorican_match_declarative-broad-focus_Emilio-ama-la-marcha.wav,,,,,,,,,,,,,,,,,,,,,,,,,,,,,,,,,,,,,,,,,,,,,,,,,,,,,,,,
,,,,,,,5e14bd64617219ae6593485a,6057c54e64b0b4e5c128b4f9,605917217b99c9c6a455d489,Spain,Northeast,13 or older,no,2021-03-22_18h18.07.583,empathy_intonation_perc,2020.2.10,Win32,60,,,,,,,,,,0,castilian,0,1,1.346985,0,43,43,32,1,33,./stim/wavs/andalusian_mismatch_declarative-broad-focus_El-bebe-comia-muy-bien.wav,./stim/wavs/argentine_mismatch_declarative-broad-focus_El-bebe-comia-muy-bien.wav,./stim/wavs/castilian_mismatch_declarative-broad-focus_El-bebe-comia-muy-bien.wav,./stim/wavs/chilean_mismatch_declarative-broad-focus_El-bebe-comia-muy-bien.wav,./stim/wavs/cuban_mismatch_declarative-broad-focus_El-bebe-comia-muy-bien.wav,./stim/wavs/mexican_mismatch_declarative-broad-focus_El-bebe-comia-muy-bien.wav,./stim/wavs/peruvian_mismatch_declarative-broad-focus_El-bebe-comia-muy-bien.wav,./stim/wavs/puertorican_mismatch_declarative-broad-focus_El-bebe-comia-muy-bien.wav,,,,,,,,,,,,,,,,,,,,,,,,,,,,,,,,,,,,,,,,,,,,,,,,,,,,,,,,
,,,,,,,5e14bd64617219ae6593485a,6057c54e64b0b4e5c128b4f9,605917217b99c9c6a455d489,Spain,Northeast,13 or older,no,2021-03-22_18h18.07.583,empathy_intonation_perc,2020.2.10,Win32,60,,,,,,,,,,1,castilian,1,1,1.467065,0,44,44,31,1,32,./stim/wavs/andalusian_match_interrogative-total-yn_Marta-abre-el-regalo.wav,./stim/wavs/argentine_match_interrogative-total-yn_Marta-abre-el-regalo.wav,./stim/wavs/castilian_match_interrogative-total-yn_Marta-abre-el-regalo.wav,./stim/wavs/chilean_match_interrogative-total-yn_Marta-abre-el-regalo.wav,./stim/wavs/cuban_match_interrogative-total-yn_Marta-abre-el-regalo.wav,./stim/wavs/mexican_match_interrogative-total-yn_Marta-abre-el-regalo.wav,./stim/wavs/peruvian_match_interrogative-total-yn_Marta-abre-el-regalo.wav,./stim/wavs/puertorican_match_interrogative-total-yn_Marta-abre-el-regalo.wav,,,,,,,,,,,,,,,,,,,,,,,,,,,,,,,,,,,,,,,,,,,,,,,,,,,,,,,,
,,,,,,,5e14bd64617219ae6593485a,6057c54e64b0b4e5c128b4f9,605917217b99c9c6a455d489,Spain,Northeast,13 or older,no,2021-03-22_18h18.07.583,empathy_intonation_perc,2020.2.10,Win32,60,,,,,,,,,,1,peruvian,1,1,0.866975,0,45,45,53,1,54,./stim/wavs/andalusian_mismatch_interrogative-partial-wh_Por-que-oia-el-rio.wav,./stim/wavs/argentine_mismatch_interrogative-partial-wh_Por-que-oia-el-rio.wav,./stim/wavs/castilian_mismatch_interrogative-partial-wh_Por-que-oia-el-rio.wav,./stim/wavs/chilean_mismatch_interrogative-partial-wh_Por-que-oia-el-rio.wav,./stim/wavs/cuban_mismatch_interrogative-partial-wh_Por-que-oia-el-rio.wav,./stim/wavs/mexican_mismatch_interrogative-partial-wh_Por-que-oia-el-rio.wav,./stim/wavs/peruvian_mismatch_interrogative-partial-wh_Por-que-oia-el-rio.wav,./stim/wavs/puertorican_mismatch_interrogative-partial-wh_Por-que-oia-el-rio.wav,,,,,,,,,,,,,,,,,,,,,,,,,,,,,,,,,,,,,,,,,,,,,,,,,,,,,,,,
,,,,,,,5e14bd64617219ae6593485a,6057c54e64b0b4e5c128b4f9,605917217b99c9c6a455d489,Spain,Northeast,13 or older,no,2021-03-22_18h18.07.583,empathy_intonation_perc,2020.2.10,Win32,60,,,,,,,,,,1,andalusian,1,1,0.81374,0,46,46,20,1,21,./stim/wavs/andalusian_match_interrogative-partial-wh_Por-que-abre-el-regalo.wav,./stim/wavs/argentine_match_interrogative-partial-wh_Por-que-abre-el-regalo.wav,./stim/wavs/castilian_match_interrogative-partial-wh_Por-que-abre-el-regalo.wav,./stim/wavs/chilean_match_interrogative-partial-wh_Por-que-abre-el-regalo.wav,./stim/wavs/cuban_match_interrogative-partial-wh_Por-que-abre-el-regalo.wav,./stim/wavs/mexican_match_interrogative-partial-wh_Por-que-abre-el-regalo.wav,./stim/wavs/peruvian_match_interrogative-partial-wh_Por-que-abre-el-regalo.wav,./stim/wavs/puertorican_match_interrogative-partial-wh_Por-que-abre-el-regalo.wav,,,,,,,,,,,,,,,,,,,,,,,,,,,,,,,,,,,,,,,,,,,,,,,,,,,,,,,,
,,,,,,,5e14bd64617219ae6593485a,6057c54e64b0b4e5c128b4f9,605917217b99c9c6a455d489,Spain,Northeast,13 or older,no,2021-03-22_18h18.07.583,empathy_intonation_perc,2020.2.10,Win32,60,,,,,,,,,,1,cuban,1,1,0.672765,0,47,47,48,1,49,./stim/wavs/andalusian_mismatch_interrogative-partial-wh_Cuando-comia-la-fruta.wav,./stim/wavs/argentine_mismatch_interrogative-partial-wh_Cuando-comia-la-fruta.wav,./stim/wavs/castilian_mismatch_interrogative-partial-wh_Cuando-comia-la-fruta.wav,./stim/wavs/chilean_mismatch_interrogative-partial-wh_Cuando-comia-la-fruta.wav,./stim/wavs/cuban_mismatch_interrogative-partial-wh_Cuando-comia-la-fruta.wav,./stim/wavs/mexican_mismatch_interrogative-partial-wh_Cuando-comia-la-fruta.wav,./stim/wavs/peruvian_mismatch_interrogative-partial-wh_Cuando-comia-la-fruta.wav,./stim/wavs/puertorican_mismatch_interrogative-partial-wh_Cuando-comia-la-fruta.wav,,,,,,,,,,,,,,,,,,,,,,,,,,,,,,,,,,,,,,,,,,,,,,,,,,,,,,,,
,,,,,,,5e14bd64617219ae6593485a,6057c54e64b0b4e5c128b4f9,605917217b99c9c6a455d489,Spain,Northeast,13 or older,no,2021-03-22_18h18.07.583,empathy_intonation_perc,2020.2.10,Win32,60,,,,,,,,,,1,cuban,1,1,0.680425,0,48,48,21,1,22,./stim/wavs/andalusian_match_interrogative-partial-wh_Por-que-ama-la-navidad.wav,./stim/wavs/argentine_match_interrogative-partial-wh_Por-que-ama-la-navidad.wav,./stim/wavs/castilian_match_interrogative-partial-wh_Por-que-ama-la-navidad.wav,./stim/wavs/chilean_match_interrogative-partial-wh_Por-que-ama-la-navidad.wav,./stim/wavs/cuban_match_interrogative-partial-wh_Por-que-ama-la-navidad.wav,./stim/wavs/mexican_match_interrogative-partial-wh_Por-que-ama-la-navidad.wav,./stim/wavs/peruvian_match_interrogative-partial-wh_Por-que-ama-la-navidad.wav,./stim/wavs/puertorican_match_interrogative-partial-wh_Por-que-ama-la-navidad.wav,,,,,,,,,,,,,,,,,,,,,,,,,,,,,,,,,,,,,,,,,,,,,,,,,,,,,,,,
,,,,,,,5e14bd64617219ae6593485a,6057c54e64b0b4e5c128b4f9,605917217b99c9c6a455d489,Spain,Northeast,13 or older,no,2021-03-22_18h18.07.583,empathy_intonation_perc,2020.2.10,Win32,60,,,,,,,,,,0,cuban,0,1,1.24119,0,49,49,33,1,34,./stim/wavs/andalusian_mismatch_declarative-broad-focus_El-hombre-mira-la-luna.wav,./stim/wavs/argentine_mismatch_declarative-broad-focus_El-hombre-mira-la-luna.wav,./stim/wavs/castilian_mismatch_declarative-broad-focus_El-hombre-mira-la-luna.wav,./stim/wavs/chilean_mismatch_declarative-broad-focus_El-hombre-mira-la-luna.wav,./stim/wavs/cuban_mismatch_declarative-broad-focus_El-hombre-mira-la-luna.wav,./stim/wavs/mexican_mismatch_declarative-broad-focus_El-hombre-mira-la-luna.wav,./stim/wavs/peruvian_mismatch_declarative-broad-focus_El-hombre-mira-la-luna.wav,./stim/wavs/puertorican_mismatch_declarative-broad-focus_El-hombre-mira-la-luna.wav,,,,,,,,,,,,,,,,,,,,,,,,,,,,,,,,,,,,,,,,,,,,,,,,,,,,,,,,
,,,,,,,5e14bd64617219ae6593485a,6057c54e64b0b4e5c128b4f9,605917217b99c9c6a455d489,Spain,Northeast,13 or older,no,2021-03-22_18h18.07.583,empathy_intonation_perc,2020.2.10,Win32,60,,,,,,,,,,0,puertorican,0,1,1.226905,0,50,50,0,1,1,./stim/wavs/andalusian_match_declarative-broad-focus_Ana-lleva-el-abrigo.wav,./stim/wavs/argentine_match_declarative-broad-focus_Ana-lleva-el-abrigo.wav,./stim/wavs/castilian_match_declarative-broad-focus_Ana-lleva-el-abrigo.wav,./stim/wavs/chilean_match_declarative-broad-focus_Ana-lleva-el-abrigo.wav,./stim/wavs/cuban_match_declarative-broad-focus_Ana-lleva-el-abrigo.wav,./stim/wavs/mexican_match_declarative-broad-focus_Ana-lleva-el-abrigo.wav,./stim/wavs/peruvian_match_declarative-broad-focus_Ana-lleva-el-abrigo.wav,./stim/wavs/puertorican_match_declarative-broad-focus_Ana-lleva-el-abrigo.wav,,,,,,,,,,,,,,,,,,,,,,,,,,,,,,,,,,,,,,,,,,,,,,,,,,,,,,,,
,,,,,,,5e14bd64617219ae6593485a,6057c54e64b0b4e5c128b4f9,605917217b99c9c6a455d489,Spain,Northeast,13 or older,no,2021-03-22_18h18.07.583,empathy_intonation_perc,2020.2.10,Win32,60,,,,,,,,,,1,argentine,0,0,1.333685,0,51,51,30,1,31,./stim/wavs/andalusian_match_interrogative-total-yn_Mariano-habla-del-tiempo.wav,./stim/wavs/argentine_match_interrogative-total-yn_Mariano-habla-del-tiempo.wav,./stim/wavs/castilian_match_interrogative-total-yn_Mariano-habla-del-tiempo.wav,./stim/wavs/chilean_match_interrogative-total-yn_Mariano-habla-del-tiempo.wav,./stim/wavs/cuban_match_interrogative-total-yn_Mariano-habla-del-tiempo.wav,./stim/wavs/mexican_match_interrogative-total-yn_Mariano-habla-del-tiempo.wav,./stim/wavs/peruvian_match_interrogative-total-yn_Mariano-habla-del-tiempo.wav,./stim/wavs/puertorican_match_interrogative-total-yn_Mariano-habla-del-tiempo.wav,,,,,,,,,,,,,,,,,,,,,,,,,,,,,,,,,,,,,,,,,,,,,,,,,,,,,,,,
,,,,,,,5e14bd64617219ae6593485a,6057c54e64b0b4e5c128b4f9,605917217b99c9c6a455d489,Spain,Northeast,13 or older,no,2021-03-22_18h18.07.583,empathy_intonation_perc,2020.2.10,Win32,60,,,,,,,,,,1,mexican,0,0,1.16038,0,52,52,52,1,53,./stim/wavs/andalusian_mismatch_interrogative-partial-wh_Por-que-odiaba-la-lluvia.wav,./stim/wavs/argentine_mismatch_interrogative-partial-wh_Por-que-odiaba-la-lluvia.wav,./stim/wavs/castilian_mismatch_interrogative-partial-wh_Por-que-odiaba-la-lluvia.wav,./stim/wavs/chilean_mismatch_interrogative-partial-wh_Por-que-odiaba-la-lluvia.wav,./stim/wavs/cuban_mismatch_interrogative-partial-wh_Por-que-odiaba-la-lluvia.wav,./stim/wavs/mexican_mismatch_interrogative-partial-wh_Por-que-odiaba-la-lluvia.wav,./stim/wavs/peruvian_mismatch_interrogative-partial-wh_Por-que-odiaba-la-lluvia.wav,./stim/wavs/puertorican_mismatch_interrogative-partial-wh_Por-que-odiaba-la-lluvia.wav,,,,,,,,,,,,,,,,,,,,,,,,,,,,,,,,,,,,,,,,,,,,,,,,,,,,,,,,
,,,,,,,5e14bd64617219ae6593485a,6057c54e64b0b4e5c128b4f9,605917217b99c9c6a455d489,Spain,Northeast,13 or older,no,2021-03-22_18h18.07.583,empathy_intonation_perc,2020.2.10,Win32,60,,,,,,,,,,1,argentine,0,0,1.361465,0,53,53,56,1,57,./stim/wavs/andalusian_mismatch_interrogative-total-yn_El-bebe-comia-muy-bien.wav,./stim/wavs/argentine_mismatch_interrogative-total-yn_El-bebe-comia-muy-bien.wav,./stim/wavs/castilian_mismatch_interrogative-total-yn_El-bebe-comia-muy-bien.wav,./stim/wavs/chilean_mismatch_interrogative-total-yn_El-bebe-comia-muy-bien.wav,./stim/wavs/cuban_mismatch_interrogative-total-yn_El-bebe-comia-muy-bien.wav,./stim/wavs/mexican_mismatch_interrogative-total-yn_El-bebe-comia-muy-bien.wav,./stim/wavs/peruvian_mismatch_interrogative-total-yn_El-bebe-comia-muy-bien.wav,./stim/wavs/puertorican_mismatch_interrogative-total-yn_El-bebe-comia-muy-bien.wav,,,,,,,,,,,,,,,,,,,,,,,,,,,,,,,,,,,,,,,,,,,,,,,,,,,,,,,,
,,,,,,,5e14bd64617219ae6593485a,6057c54e64b0b4e5c128b4f9,605917217b99c9c6a455d489,Spain,Northeast,13 or older,no,2021-03-22_18h18.07.583,empathy_intonation_perc,2020.2.10,Win32,60,,,,,,,,,,0,andalusian,0,1,1.310475,0,54,54,5,1,6,./stim/wavs/andalusian_match_declarative-broad-focus_Maria-bebe-el-vino.wav,./stim/wavs/argentine_match_declarative-broad-focus_Maria-bebe-el-vino.wav,./stim/wavs/castilian_match_declarative-broad-focus_Maria-bebe-el-vino.wav,./stim/wavs/chilean_match_declarative-broad-focus_Maria-bebe-el-vino.wav,./stim/wavs/cuban_match_declarative-broad-focus_Maria-bebe-el-vino.wav,./stim/wavs/mexican_match_declarative-broad-focus_Maria-bebe-el-vino.wav,./stim/wavs/peruvian_match_declarative-broad-focus_Maria-bebe-el-vino.wav,./stim/wavs/puertorican_match_declarative-broad-focus_Maria-bebe-el-vino.wav,,,,,,,,,,,,,,,,,,,,,,,,,,,,,,,,,,,,,,,,,,,,,,,,,,,,,,,,
,,,,,,,5e14bd64617219ae6593485a,6057c54e64b0b4e5c128b4f9,605917217b99c9c6a455d489,Spain,Northeast,13 or older,no,2021-03-22_18h18.07.583,empathy_intonation_perc,2020.2.10,Win32,60,,,,,,,,,,0,peruvian,0,1,1.79212,0,55,55,42,1,43,./stim/wavs/andalusian_mismatch_declarative-narrow-focus_El-nino-oye-el-rio.wav,./stim/wavs/argentine_mismatch_declarative-narrow-focus_El-nino-oye-el-rio.wav,./stim/wavs/castilian_mismatch_declarative-narrow-focus_El-nino-oye-el-rio.wav,./stim/wavs/chilean_mismatch_declarative-narrow-focus_El-nino-oye-el-rio.wav,./stim/wavs/cuban_mismatch_declarative-narrow-focus_El-nino-oye-el-rio.wav,./stim/wavs/mexican_mismatch_declarative-narrow-focus_El-nino-oye-el-rio.wav,./stim/wavs/peruvian_mismatch_declarative-narrow-focus_El-nino-oye-el-rio.wav,./stim/wavs/puertorican_mismatch_declarative-narrow-focus_El-nino-oye-el-rio.wav,,,,,,,,,,,,,,,,,,,,,,,,,,,,,,,,,,,,,,,,,,,,,,,,,,,,,,,,
,,,,,,,5e14bd64617219ae6593485a,6057c54e64b0b4e5c128b4f9,605917217b99c9c6a455d489,Spain,Northeast,13 or older,no,2021-03-22_18h18.07.583,empathy_intonation_perc,2020.2.10,Win32,60,,,,,,,,,,0,chilean,0,1,1.59544,0,56,56,34,1,35,./stim/wavs/andalusian_mismatch_declarative-broad-focus_El-nino-oye-el-rio.wav,./stim/wavs/argentine_mismatch_declarative-broad-focus_El-nino-oye-el-rio.wav,./stim/wavs/castilian_mismatch_declarative-broad-focus_El-nino-oye-el-rio.wav,./stim/wavs/chilean_mismatch_declarative-broad-focus_El-nino-oye-el-rio.wav,./stim/wavs/cuban_mismatch_declarative-broad-focus_El-nino-oye-el-rio.wav,./stim/wavs/mexican_mismatch_declarative-broad-focus_El-nino-oye-el-rio.wav,./stim/wavs/peruvian_mismatch_declarative-broad-focus_El-nino-oye-el-rio.wav,./stim/wavs/puertorican_mismatch_declarative-broad-focus_El-nino-oye-el-rio.wav,,,,,,,,,,,,,,,,,,,,,,,,,,,,,,,,,,,,,,,,,,,,,,,,,,,,,,,,
,,,,,,,5e14bd64617219ae6593485a,6057c54e64b0b4e5c128b4f9,605917217b99c9c6a455d489,Spain,Northeast,13 or older,no,2021-03-22_18h18.07.583,empathy_intonation_perc,2020.2.10,Win32,60,,,,,,,,,,0,argentine,0,1,1.308885,0,57,57,36,1,37,./stim/wavs/andalusian_mismatch_declarative-broad-focus_La-nina-lava-el-plato.wav,./stim/wavs/argentine_mismatch_declarative-broad-focus_La-nina-lava-el-plato.wav,./stim/wavs/castilian_mismatch_declarative-broad-focus_La-nina-lava-el-plato.wav,./stim/wavs/chilean_mismatch_declarative-broad-focus_La-nina-lava-el-plato.wav,./stim/wavs/cuban_mismatch_declarative-broad-focus_La-nina-lava-el-plato.wav,./stim/wavs/mexican_mismatch_declarative-broad-focus_La-nina-lava-el-plato.wav,./stim/wavs/peruvian_mismatch_declarative-broad-focus_La-nina-lava-el-plato.wav,./stim/wavs/puertorican_mismatch_declarative-broad-focus_La-nina-lava-el-plato.wav,,,,,,,,,,,,,,,,,,,,,,,,,,,,,,,,,,,,,,,,,,,,,,,,,,,,,,,,
,,,,,,,5e14bd64617219ae6593485a,6057c54e64b0b4e5c128b4f9,605917217b99c9c6a455d489,Spain,Northeast,13 or older,no,2021-03-22_18h18.07.583,empathy_intonation_perc,2020.2.10,Win32,60,,,,,,,,,,1,chilean,1,1,0.90919,0,58,58,17,1,18,./stim/wavs/andalusian_match_interrogative-partial-wh_Cuando-leia-el-libro.wav,./stim/wavs/argentine_match_interrogative-partial-wh_Cuando-leia-el-libro.wav,./stim/wavs/castilian_match_interrogative-partial-wh_Cuando-leia-el-libro.wav,./stim/wavs/chilean_match_interrogative-partial-wh_Cuando-leia-el-libro.wav,./stim/wavs/cuban_match_interrogative-partial-wh_Cuando-leia-el-libro.wav,./stim/wavs/mexican_match_interrogative-partial-wh_Cuando-leia-el-libro.wav,./stim/wavs/peruvian_match_interrogative-partial-wh_Cuando-leia-el-libro.wav,./stim/wavs/puertorican_match_interrogative-partial-wh_Cuando-leia-el-libro.wav,,,,,,,,,,,,,,,,,,,,,,,,,,,,,,,,,,,,,,,,,,,,,,,,,,,,,,,,
,,,,,,,5e14bd64617219ae6593485a,6057c54e64b0b4e5c128b4f9,605917217b99c9c6a455d489,Spain,Northeast,13 or older,no,2021-03-22_18h18.07.583,empathy_intonation_perc,2020.2.10,Win32,60,,,,,,,,,,1,cuban,0,0,1.366515,0,59,59,23,1,24,./stim/wavs/andalusian_match_interrogative-partial-wh_Por-que-iba-a-Bolivia.wav,./stim/wavs/argentine_match_interrogative-partial-wh_Por-que-iba-a-Bolivia.wav,./stim/wavs/castilian_match_interrogative-partial-wh_Por-que-iba-a-Bolivia.wav,./stim/wavs/chilean_match_interrogative-partial-wh_Por-que-iba-a-Bolivia.wav,./stim/wavs/cuban_match_interrogative-partial-wh_Por-que-iba-a-Bolivia.wav,./stim/wavs/mexican_match_interrogative-partial-wh_Por-que-iba-a-Bolivia.wav,./stim/wavs/peruvian_match_interrogative-partial-wh_Por-que-iba-a-Bolivia.wav,./stim/wavs/puertorican_match_interrogative-partial-wh_Por-que-iba-a-Bolivia.wav,,,,,,,,,,,,,,,,,,,,,,,,,,,,,,,,,,,,,,,,,,,,,,,,,,,,,,,,
,,,,,,,5e14bd64617219ae6593485a,6057c54e64b0b4e5c128b4f9,605917217b99c9c6a455d489,Spain,Northeast,13 or older,no,2021-03-22_18h18.07.583,empathy_intonation_perc,2020.2.10,Win32,60,,,,,,,,,,0,peruvian,0,1,1.10673,0,60,60,9,1,10,./stim/wavs/andalusian_match_declarative-narrow-focus_Daniel-iba-a-Bolivia.wav,./stim/wavs/argentine_match_declarative-narrow-focus_Daniel-iba-a-Bolivia.wav,./stim/wavs/castilian_match_declarative-narrow-focus_Daniel-iba-a-Bolivia.wav,./stim/wavs/chilean_match_declarative-narrow-focus_Daniel-iba-a-Bolivia.wav,./stim/wavs/cuban_match_declarative-narrow-focus_Daniel-iba-a-Bolivia.wav,./stim/wavs/mexican_match_declarative-narrow-focus_Daniel-iba-a-Bolivia.wav,./stim/wavs/peruvian_match_declarative-narrow-focus_Daniel-iba-a-Bolivia.wav,./stim/wavs/puertorican_match_declarative-narrow-focus_Daniel-iba-a-Bolivia.wav,,,,,,,,,,,,,,,,,,,,,,,,,,,,,,,,,,,,,,,,,,,,,,,,,,,,,,,,
,,,,,,,5e14bd64617219ae6593485a,6057c54e64b0b4e5c128b4f9,605917217b99c9c6a455d489,Spain,Northeast,13 or older,no,2021-03-22_18h18.07.583,empathy_intonation_perc,2020.2.10,Win32,60,,,,,,,,,,1,andalusian,1,1,1.420245,0,61,61,61,1,62,./stim/wavs/andalusian_mismatch_interrogative-total-yn_Mi-madre-come-la-fruta.wav,./stim/wavs/argentine_mismatch_interrogative-total-yn_Mi-madre-come-la-fruta.wav,./stim/wavs/castilian_mismatch_interrogative-total-yn_Mi-madre-come-la-fruta.wav,./stim/wavs/chilean_mismatch_interrogative-total-yn_Mi-madre-come-la-fruta.wav,./stim/wavs/cuban_mismatch_interrogative-total-yn_Mi-madre-come-la-fruta.wav,./stim/wavs/mexican_mismatch_interrogative-total-yn_Mi-madre-come-la-fruta.wav,./stim/wavs/peruvian_mismatch_interrogative-total-yn_Mi-madre-come-la-fruta.wav,./stim/wavs/puertorican_mismatch_interrogative-total-yn_Mi-madre-come-la-fruta.wav,,,,,,,,,,,,,,,,,,,,,,,,,,,,,,,,,,,,,,,,,,,,,,,,,,,,,,,,
,,,,,,,5e14bd64617219ae6593485a,6057c54e64b0b4e5c128b4f9,605917217b99c9c6a455d489,Spain,Northeast,13 or older,no,2021-03-22_18h18.07.583,empathy_intonation_perc,2020.2.10,Win32,60,,,,,,,,,,1,puertorican,0,0,1.09355,0,62,62,18,1,19,./stim/wavs/andalusian_match_interrogative-partial-wh_Cuando-lleva-el-abrigo.wav,./stim/wavs/argentine_match_interrogative-partial-wh_Cuando-lleva-el-abrigo.wav,./stim/wavs/castilian_match_interrogative-partial-wh_Cuando-lleva-el-abrigo.wav,./stim/wavs/chilean_match_interrogative-partial-wh_Cuando-lleva-el-abrigo.wav,./stim/wavs/cuban_match_interrogative-partial-wh_Cuando-lleva-el-abrigo.wav,./stim/wavs/mexican_match_interrogative-partial-wh_Cuando-lleva-el-abrigo.wav,./stim/wavs/peruvian_match_interrogative-partial-wh_Cuando-lleva-el-abrigo.wav,./stim/wavs/puertorican_match_interrogative-partial-wh_Cuando-lleva-el-abrigo.wav,,,,,,,,,,,,,,,,,,,,,,,,,,,,,,,,,,,,,,,,,,,,,,,,,,,,,,,,
,,,,,,,5e14bd64617219ae6593485a,6057c54e64b0b4e5c128b4f9,605917217b99c9c6a455d489,Spain,Northeast,13 or older,no,2021-03-22_18h18.07.583,empathy_intonation_perc,2020.2.10,Win32,60,,,,,,,,,,1,puertorican,1,1,1.148425,0,63,63,22,1,23,./stim/wavs/andalusian_match_interrogative-partial-wh_Por-que-hablaba-del-agua.wav,./stim/wavs/argentine_match_interrogative-partial-wh_Por-que-hablaba-del-agua.wav,./stim/wavs/castilian_match_interrogative-partial-wh_Por-que-hablaba-del-agua.wav,./stim/wavs/chilean_match_interrogative-partial-wh_Por-que-hablaba-del-agua.wav,./stim/wavs/cuban_match_interrogative-partial-wh_Por-que-hablaba-del-agua.wav,./stim/wavs/mexican_match_interrogative-partial-wh_Por-que-hablaba-del-agua.wav,./stim/wavs/peruvian_match_interrogative-partial-wh_Por-que-hablaba-del-agua.wav,./stim/wavs/puertorican_match_interrogative-partial-wh_Por-que-hablaba-del-agua.wav,,,,,,,,,,,,,,,,,,,,,,,,,,,,,,,,,,,,,,,,,,,,,,,,,,,,,,,,
,,,,,,,5e14bd64617219ae6593485a,6057c54e64b0b4e5c128b4f9,605917217b99c9c6a455d489,Spain,Northeast,13 or older,no,2021-03-22_18h18.07.583,empathy_intonation_perc,2020.2.10,Win32,60,,,,,,,,,,,,,,,,,,,,,,,,,,,,,h,1,5.63746,0,0,0,0,1,,,,,,,,,,,,,,,,,,,,,,,,,,,,,,,,,,,,,,,,,,,,,,,,
,,,,,"Great! Now we will move on. The next task consists of about 60 trials, in each of which you will see a string of letters. 
  
  Your task is to decide whether this is a real Spanish word or not.",(press the spacebar to continue),5e14bd64617219ae6593485a,6057c54e64b0b4e5c128b4f9,605917217b99c9c6a455d489,Spain,Northeast,13 or older,no,2021-03-22_18h18.07.583,empathy_intonation_perc,2020.2.10,Win32,60,,,,,,,,,,,,,,,,,,,,,,,,,,,,,,,,,,,,,0,0,0,0,1,,,,,,,,,,,,,,,,,,,,,,,,,,,,,,,,,,,,,,,,,,,
,,,,,"If you think it is an existing Spanish word, you type '1' (for 'REAL'), and if you think it is not an existing Spanish word, you type '0' (for 'FAKE').",(press the spacebar to continue),5e14bd64617219ae6593485a,6057c54e64b0b4e5c128b4f9,605917217b99c9c6a455d489,Spain,Northeast,13 or older,no,2021-03-22_18h18.07.583,empathy_intonation_perc,2020.2.10,Win32,60,,,,,,,,,,,,,,,,,,,,,,,,,,,,,,,,,,,,,0,1,1,1,1,,,,,,,,,,,,,,,,,,,,,,,,,,,,,,,,,,,,,,,,,,,
,,,,,"If you are sure that the word exists, even though you dont know its exact meaning, you may still respond '1' (REAL). 
  
  But if you are not sure if it is an existing word, you should respond '0' (FAKE).
  
  Let's do a practice round...",(press the spacebar to continue),5e14bd64617219ae6593485a,6057c54e64b0b4e5c128b4f9,605917217b99c9c6a455d489,Spain,Northeast,13 or older,no,2021-03-22_18h18.07.583,empathy_intonation_perc,2020.2.10,Win32,60,,,,,,,,,,,,,,,,,,,,,,,,,,,,,,,,,,,,,0,2,2,2,1,,,,,,,,,,,,,,,,,,,,,,,,,,,,,,,,,,,,,,,,,,,
,,,,,,,5e14bd64617219ae6593485a,6057c54e64b0b4e5c128b4f9,605917217b99c9c6a455d489,Spain,Northeast,13 or older,no,2021-03-22_18h18.07.583,empathy_intonation_perc,2020.2.10,Win32,60,,,,,,,,,,0,,,,,,,,,,,,,,,,,,,,,,,,,,,,,,,,1,0,2.67978,0,0,0,0,1,0,depiste,REAL,FAKE,,,,,,,,,,,,,,,,,,,,,,,,,,,,,,,
,,,,,,,5e14bd64617219ae6593485a,6057c54e64b0b4e5c128b4f9,605917217b99c9c6a455d489,Spain,Northeast,13 or older,no,2021-03-22_18h18.07.583,empathy_intonation_perc,2020.2.10,Win32,60,,,,,,,,,,1,,,,,,,,,,,,,,,,,,,,,,,,,,,,,,,,1,1,1.199525,0,1,1,1,1,0,s,REAL,FAKE,,,,,,,,,,,,,,,,,,,,,,,,,,,,,,,
,,,,,,,5e14bd64617219ae6593485a,6057c54e64b0b4e5c128b4f9,605917217b99c9c6a455d489,Spain,Northeast,13 or older,no,2021-03-22_18h18.07.583,empathy_intonation_perc,2020.2.10,Win32,60,,,,,,,,,,0,,,,,,,,,,,,,,,,,,,,,,,,,,,,,,,,1,0,0.80004,0,2,2,2,1,0,con,REAL,FAKE,,,,,,,,,,,,,,,,,,,,,,,,,,,,,,,
,,,,,,,5e14bd64617219ae6593485a,6057c54e64b0b4e5c128b4f9,605917217b99c9c6a455d489,Spain,Northeast,13 or older,no,2021-03-22_18h18.07.583,empathy_intonation_perc,2020.2.10,Win32,60,,,,,,,,,,0,,,,,,,,,,,,,,,,,,,,,,,,,,,,,,,,1,0,0.993245,0,3,3,3,1,0,calpar,REAL,FAKE,,,,,,,,,,,,,,,,,,,,,,,,,,,,,,,
,,,,,,,5e14bd64617219ae6593485a,6057c54e64b0b4e5c128b4f9,605917217b99c9c6a455d489,Spain,Northeast,13 or older,no,2021-03-22_18h18.07.583,empathy_intonation_perc,2020.2.10,Win32,60,,,,,,,,,,0,,,,,,,,,,,,,,,,,,,,,,,,,,,,,,,,0,1,1.465625,0,4,4,4,1,0,joten,REAL,FAKE,,,,,,,,,,,,,,,,,,,,,,,,,,,,,,,
,,,,,,,5e14bd64617219ae6593485a,6057c54e64b0b4e5c128b4f9,605917217b99c9c6a455d489,Spain,Northeast,13 or older,no,2021-03-22_18h18.07.583,empathy_intonation_perc,2020.2.10,Win32,60,,,,,,,,,,1,,,,,,,,,,,,,,,,,,,,,,,,,,,,,,,,1,1,1.16091,0,5,5,5,1,0,sacapuntas,REAL,FAKE,,,,,,,,,,,,,,,,,,,,,,,,,,,,,,,
,,,,,,,5e14bd64617219ae6593485a,6057c54e64b0b4e5c128b4f9,605917217b99c9c6a455d489,Spain,Northeast,13 or older,no,2021-03-22_18h18.07.583,empathy_intonation_perc,2020.2.10,Win32,60,,,,,,,,,,0,,,,,,,,,,,,,,,,,,,,,,,,,,,,,,,,1,0,0.79923,0,6,6,6,1,0,priba,REAL,FAKE,,,,,,,,,,,,,,,,,,,,,,,,,,,,,,,
,,,,,,,5e14bd64617219ae6593485a,6057c54e64b0b4e5c128b4f9,605917217b99c9c6a455d489,Spain,Northeast,13 or older,no,2021-03-22_18h18.07.583,empathy_intonation_perc,2020.2.10,Win32,60,,,,,,,,,,0,,,,,,,,,,,,,,,,,,,,,,,,,,,,,,,,0,1,1.068105,0,7,7,7,1,0,pelasula,REAL,FAKE,,,,,,,,,,,,,,,,,,,,,,,,,,,,,,,
,,,,,,,5e14bd64617219ae6593485a,6057c54e64b0b4e5c128b4f9,605917217b99c9c6a455d489,Spain,Northeast,13 or older,no,2021-03-22_18h18.07.583,empathy_intonation_perc,2020.2.10,Win32,60,,,,,,,,,,1,,,,,,,,,,,,,,,,,,,,,,,,,,,,,,,,1,1,0.869845,0,8,8,8,1,0,bien,REAL,FAKE,,,,,,,,,,,,,,,,,,,,,,,,,,,,,,,
,,,,,,,5e14bd64617219ae6593485a,6057c54e64b0b4e5c128b4f9,605917217b99c9c6a455d489,Spain,Northeast,13 or older,no,2021-03-22_18h18.07.583,empathy_intonation_perc,2020.2.10,Win32,60,,,,,,,,,,1,,,,,,,,,,,,,,,,,,,,,,,,,,,,,,,,1,1,0.551995,0,9,9,9,1,0,casa,REAL,FAKE,,,,,,,,,,,,,,,,,,,,,,,,,,,,,,,
,,,,,,,5e14bd64617219ae6593485a,6057c54e64b0b4e5c128b4f9,605917217b99c9c6a455d489,Spain,Northeast,13 or older,no,2021-03-22_18h18.07.583,empathy_intonation_perc,2020.2.10,Win32,60,,,,,,,,,,0,,,,,,,,,,,,,,,,,,,,,,,,,,,,,,,,0,1,1.13222,0,10,10,10,1,0,lejo,REAL,FAKE,,,,,,,,,,,,,,,,,,,,,,,,,,,,,,,
,,,,,,,5e14bd64617219ae6593485a,6057c54e64b0b4e5c128b4f9,605917217b99c9c6a455d489,Spain,Northeast,13 or older,no,2021-03-22_18h18.07.583,empathy_intonation_perc,2020.2.10,Win32,60,,,,,,,,,,0,,,,,,,,,,,,,,,,,,,,,,,,,,,,,,,,1,0,1.06592,0,11,11,11,1,0,pretantas,REAL,FAKE,,,,,,,,,,,,,,,,,,,,,,,,,,,,,,,
,,,,,,,5e14bd64617219ae6593485a,6057c54e64b0b4e5c128b4f9,605917217b99c9c6a455d489,Spain,Northeast,13 or older,no,2021-03-22_18h18.07.583,empathy_intonation_perc,2020.2.10,Win32,60,,,,,,,,,,1,,,,,,,,,,,,,,,,,,,,,,,,,,,,,,,,,,,,,,,,77,tiburn,,,0,0,1.16606,0,0,0,76,1,REAL,FAKE,,,,,,,,,,,,,,,,,,,,,
,,,,,,,5e14bd64617219ae6593485a,6057c54e64b0b4e5c128b4f9,605917217b99c9c6a455d489,Spain,Northeast,13 or older,no,2021-03-22_18h18.07.583,empathy_intonation_perc,2020.2.10,Win32,60,,,,,,,,,,0,,,,,,,,,,,,,,,,,,,,,,,,,,,,,,,,,,,,,,,,70,temblo,,,0,1,1.252485,0,1,1,69,1,REAL,FAKE,,,,,,,,,,,,,,,,,,,,,
,,,,,,,5e14bd64617219ae6593485a,6057c54e64b0b4e5c128b4f9,605917217b99c9c6a455d489,Spain,Northeast,13 or older,no,2021-03-22_18h18.07.583,empathy_intonation_perc,2020.2.10,Win32,60,,,,,,,,,,1,,,,,,,,,,,,,,,,,,,,,,,,,,,,,,,,,,,,,,,,26,secuestro,,,1,1,0.76313,0,2,2,25,1,REAL,FAKE,,,,,,,,,,,,,,,,,,,,,
,,,,,,,5e14bd64617219ae6593485a,6057c54e64b0b4e5c128b4f9,605917217b99c9c6a455d489,Spain,Northeast,13 or older,no,2021-03-22_18h18.07.583,empathy_intonation_perc,2020.2.10,Win32,60,,,,,,,,,,1,,,,,,,,,,,,,,,,,,,,,,,,,,,,,,,,,,,,,,,,78,frondoso,,,0,0,0.881085,0,3,3,77,1,REAL,FAKE,,,,,,,,,,,,,,,,,,,,,
,,,,,,,5e14bd64617219ae6593485a,6057c54e64b0b4e5c128b4f9,605917217b99c9c6a455d489,Spain,Northeast,13 or older,no,2021-03-22_18h18.07.583,empathy_intonation_perc,2020.2.10,Win32,60,,,,,,,,,,1,,,,,,,,,,,,,,,,,,,,,,,,,,,,,,,,,,,,,,,,24,ltigo,,,1,1,0.75928,0,4,4,23,1,REAL,FAKE,,,,,,,,,,,,,,,,,,,,,
,,,,,,,5e14bd64617219ae6593485a,6057c54e64b0b4e5c128b4f9,605917217b99c9c6a455d489,Spain,Northeast,13 or older,no,2021-03-22_18h18.07.583,empathy_intonation_perc,2020.2.10,Win32,60,,,,,,,,,,1,,,,,,,,,,,,,,,,,,,,,,,,,,,,,,,,,,,,,,,,76,atar,,,1,1,0.642515,0,5,5,75,1,REAL,FAKE,,,,,,,,,,,,,,,,,,,,,
,,,,,,,5e14bd64617219ae6593485a,6057c54e64b0b4e5c128b4f9,605917217b99c9c6a455d489,Spain,Northeast,13 or older,no,2021-03-22_18h18.07.583,empathy_intonation_perc,2020.2.10,Win32,60,,,,,,,,,,1,,,,,,,,,,,,,,,,,,,,,,,,,,,,,,,,,,,,,,,,65,bizcocho,,,0,0,0.60607,0,6,6,64,1,REAL,FAKE,,,,,,,,,,,,,,,,,,,,,
,,,,,,,5e14bd64617219ae6593485a,6057c54e64b0b4e5c128b4f9,605917217b99c9c6a455d489,Spain,Northeast,13 or older,no,2021-03-22_18h18.07.583,empathy_intonation_perc,2020.2.10,Win32,60,,,,,,,,,,0,,,,,,,,,,,,,,,,,,,,,,,,,,,,,,,,,,,,,,,,30,alardio,,,1,0,0.737335,0,7,7,29,1,REAL,FAKE,,,,,,,,,,,,,,,,,,,,,
,,,,,,,5e14bd64617219ae6593485a,6057c54e64b0b4e5c128b4f9,605917217b99c9c6a455d489,Spain,Northeast,13 or older,no,2021-03-22_18h18.07.583,empathy_intonation_perc,2020.2.10,Win32,60,,,,,,,,,,0,,,,,,,,,,,,,,,,,,,,,,,,,,,,,,,,,,,,,,,,8,cadea,,,1,0,0.532755,0,8,8,7,1,REAL,FAKE,,,,,,,,,,,,,,,,,,,,,
,,,,,,,5e14bd64617219ae6593485a,6057c54e64b0b4e5c128b4f9,605917217b99c9c6a455d489,Spain,Northeast,13 or older,no,2021-03-22_18h18.07.583,empathy_intonation_perc,2020.2.10,Win32,60,,,,,,,,,,0,,,,,,,,,,,,,,,,,,,,,,,,,,,,,,,,,,,,,,,,63,esposante,,,1,0,0.73469,0,9,9,62,1,REAL,FAKE,,,,,,,,,,,,,,,,,,,,,
,,,,,,,5e14bd64617219ae6593485a,6057c54e64b0b4e5c128b4f9,605917217b99c9c6a455d489,Spain,Northeast,13 or older,no,2021-03-22_18h18.07.583,empathy_intonation_perc,2020.2.10,Win32,60,,,,,,,,,,0,,,,,,,,,,,,,,,,,,,,,,,,,,,,,,,,,,,,,,,,53,vegada,,,1,0,0.706465,0,10,10,52,1,REAL,FAKE,,,,,,,,,,,,,,,,,,,,,
,,,,,,,5e14bd64617219ae6593485a,6057c54e64b0b4e5c128b4f9,605917217b99c9c6a455d489,Spain,Northeast,13 or older,no,2021-03-22_18h18.07.583,empathy_intonation_perc,2020.2.10,Win32,60,,,,,,,,,,1,,,,,,,,,,,,,,,,,,,,,,,,,,,,,,,,,,,,,,,,20,vido,,,1,1,0.546065,0,11,11,19,1,REAL,FAKE,,,,,,,,,,,,,,,,,,,,,
,,,,,,,5e14bd64617219ae6593485a,6057c54e64b0b4e5c128b4f9,605917217b99c9c6a455d489,Spain,Northeast,13 or older,no,2021-03-22_18h18.07.583,empathy_intonation_perc,2020.2.10,Win32,60,,,,,,,,,,1,,,,,,,,,,,,,,,,,,,,,,,,,,,,,,,,,,,,,,,,2,pellizcar,,,0,0,0.54904,0,12,12,1,1,REAL,FAKE,,,,,,,,,,,,,,,,,,,,,
,,,,,,,5e14bd64617219ae6593485a,6057c54e64b0b4e5c128b4f9,605917217b99c9c6a455d489,Spain,Northeast,13 or older,no,2021-03-22_18h18.07.583,empathy_intonation_perc,2020.2.10,Win32,60,,,,,,,,,,1,,,,,,,,,,,,,,,,,,,,,,,,,,,,,,,,,,,,,,,,44,cuchara,,,1,1,0.81377,0,13,13,43,1,REAL,FAKE,,,,,,,,,,,,,,,,,,,,,
,,,,,,,5e14bd64617219ae6593485a,6057c54e64b0b4e5c128b4f9,605917217b99c9c6a455d489,Spain,Northeast,13 or older,no,2021-03-22_18h18.07.583,empathy_intonation_perc,2020.2.10,Win32,60,,,,,,,,,,1,,,,,,,,,,,,,,,,,,,,,,,,,,,,,,,,,,,,,,,,51,candado,,,1,1,0.57262,0,14,14,50,1,REAL,FAKE,,,,,,,,,,,,,,,,,,,,,
,,,,,,,5e14bd64617219ae6593485a,6057c54e64b0b4e5c128b4f9,605917217b99c9c6a455d489,Spain,Northeast,13 or older,no,2021-03-22_18h18.07.583,empathy_intonation_perc,2020.2.10,Win32,60,,,,,,,,,,1,,,,,,,,,,,,,,,,,,,,,,,,,,,,,,,,,,,,,,,,22,lacayo,,,0,0,0.67935,0,15,15,21,1,REAL,FAKE,,,,,,,,,,,,,,,,,,,,,
,,,,,,,5e14bd64617219ae6593485a,6057c54e64b0b4e5c128b4f9,605917217b99c9c6a455d489,Spain,Northeast,13 or older,no,2021-03-22_18h18.07.583,empathy_intonation_perc,2020.2.10,Win32,60,,,,,,,,,,0,,,,,,,,,,,,,,,,,,,,,,,,,,,,,,,,,,,,,,,,33,pauca,,,0,1,0.7192,0,16,16,32,1,REAL,FAKE,,,,,,,,,,,,,,,,,,,,,
,,,,,,,5e14bd64617219ae6593485a,6057c54e64b0b4e5c128b4f9,605917217b99c9c6a455d489,Spain,Northeast,13 or older,no,2021-03-22_18h18.07.583,empathy_intonation_perc,2020.2.10,Win32,60,,,,,,,,,,0,,,,,,,,,,,,,,,,,,,,,,,,,,,,,,,,,,,,,,,,79,tropaje,,,1,0,0.879055,0,17,17,78,1,REAL,FAKE,,,,,,,,,,,,,,,,,,,,,
,,,,,,,5e14bd64617219ae6593485a,6057c54e64b0b4e5c128b4f9,605917217b99c9c6a455d489,Spain,Northeast,13 or older,no,2021-03-22_18h18.07.583,empathy_intonation_perc,2020.2.10,Win32,60,,,,,,,,,,0,,,,,,,,,,,,,,,,,,,,,,,,,,,,,,,,,,,,,,,,21,capillo,,,1,0,0.644015,0,18,18,20,1,REAL,FAKE,,,,,,,,,,,,,,,,,,,,,
,,,,,,,5e14bd64617219ae6593485a,6057c54e64b0b4e5c128b4f9,605917217b99c9c6a455d489,Spain,Northeast,13 or older,no,2021-03-22_18h18.07.583,empathy_intonation_perc,2020.2.10,Win32,60,,,,,,,,,,1,,,,,,,,,,,,,,,,,,,,,,,,,,,,,,,,,,,,,,,,75,yacer,,,0,0,0.720325,0,19,19,74,1,REAL,FAKE,,,,,,,,,,,,,,,,,,,,,
,,,,,,,5e14bd64617219ae6593485a,6057c54e64b0b4e5c128b4f9,605917217b99c9c6a455d489,Spain,Northeast,13 or older,no,2021-03-22_18h18.07.583,empathy_intonation_perc,2020.2.10,Win32,60,,,,,,,,,,1,,,,,,,,,,,,,,,,,,,,,,,,,,,,,,,,,,,,,,,,7,psimo,,,1,1,0.77275,0,20,20,6,1,REAL,FAKE,,,,,,,,,,,,,,,,,,,,,
,,,,,,,5e14bd64617219ae6593485a,6057c54e64b0b4e5c128b4f9,605917217b99c9c6a455d489,Spain,Northeast,13 or older,no,2021-03-22_18h18.07.583,empathy_intonation_perc,2020.2.10,Win32,60,,,,,,,,,,0,,,,,,,,,,,,,,,,,,,,,,,,,,,,,,,,,,,,,,,,27,acutacin,,,0,1,0.69489,0,21,21,26,1,REAL,FAKE,,,,,,,,,,,,,,,,,,,,,
,,,,,,,5e14bd64617219ae6593485a,6057c54e64b0b4e5c128b4f9,605917217b99c9c6a455d489,Spain,Northeast,13 or older,no,2021-03-22_18h18.07.583,empathy_intonation_perc,2020.2.10,Win32,60,,,,,,,,,,0,,,,,,,,,,,,,,,,,,,,,,,,,,,,,,,,,,,,,,,,47,cartinar,,,0,1,0.94596,0,22,22,46,1,REAL,FAKE,,,,,,,,,,,,,,,,,,,,,
,,,,,,,5e14bd64617219ae6593485a,6057c54e64b0b4e5c128b4f9,605917217b99c9c6a455d489,Spain,Northeast,13 or older,no,2021-03-22_18h18.07.583,empathy_intonation_perc,2020.2.10,Win32,60,,,,,,,,,,0,,,,,,,,,,,,,,,,,,,,,,,,,,,,,,,,,,,,,,,,72,pemicin,,,0,1,0.481945,0,23,23,71,1,REAL,FAKE,,,,,,,,,,,,,,,,,,,,,
,,,,,,,5e14bd64617219ae6593485a,6057c54e64b0b4e5c128b4f9,605917217b99c9c6a455d489,Spain,Northeast,13 or older,no,2021-03-22_18h18.07.583,empathy_intonation_perc,2020.2.10,Win32,60,,,,,,,,,,0,,,,,,,,,,,,,,,,,,,,,,,,,,,,,,,,,,,,,,,,32,fatacidad,,,0,1,0.628025,0,24,24,31,1,REAL,FAKE,,,,,,,,,,,,,,,,,,,,,
,,,,,,,5e14bd64617219ae6593485a,6057c54e64b0b4e5c128b4f9,605917217b99c9c6a455d489,Spain,Northeast,13 or older,no,2021-03-22_18h18.07.583,empathy_intonation_perc,2020.2.10,Win32,60,,,,,,,,,,1,,,,,,,,,,,,,,,,,,,,,,,,,,,,,,,,,,,,,,,,81,pozo,,,0,0,0.69266,0,25,25,80,1,REAL,FAKE,,,,,,,,,,,,,,,,,,,,,
,,,,,,,5e14bd64617219ae6593485a,6057c54e64b0b4e5c128b4f9,605917217b99c9c6a455d489,Spain,Northeast,13 or older,no,2021-03-22_18h18.07.583,empathy_intonation_perc,2020.2.10,Win32,60,,,,,,,,,,1,,,,,,,,,,,,,,,,,,,,,,,,,,,,,,,,,,,,,,,,3,pulmones,,,1,1,0.573135,0,26,26,2,1,REAL,FAKE,,,,,,,,,,,,,,,,,,,,,
,,,,,,,5e14bd64617219ae6593485a,6057c54e64b0b4e5c128b4f9,605917217b99c9c6a455d489,Spain,Northeast,13 or older,no,2021-03-22_18h18.07.583,empathy_intonation_perc,2020.2.10,Win32,60,,,,,,,,,,1,,,,,,,,,,,,,,,,,,,,,,,,,,,,,,,,,,,,,,,,69,engatusar,,,0,0,0.89573,0,27,27,68,1,REAL,FAKE,,,,,,,,,,,,,,,,,,,,,
,,,,,,,5e14bd64617219ae6593485a,6057c54e64b0b4e5c128b4f9,605917217b99c9c6a455d489,Spain,Northeast,13 or older,no,2021-03-22_18h18.07.583,empathy_intonation_perc,2020.2.10,Win32,60,,,,,,,,,,1,,,,,,,,,,,,,,,,,,,,,,,,,,,,,,,,,,,,,,,,83,guante,,,1,1,0.803605,0,28,28,82,1,REAL,FAKE,,,,,,,,,,,,,,,,,,,,,
,,,,,,,5e14bd64617219ae6593485a,6057c54e64b0b4e5c128b4f9,605917217b99c9c6a455d489,Spain,Northeast,13 or older,no,2021-03-22_18h18.07.583,empathy_intonation_perc,2020.2.10,Win32,60,,,,,,,,,,1,,,,,,,,,,,,,,,,,,,,,,,,,,,,,,,,,,,,,,,,90,clavel,,,0,0,0.73947,0,29,29,89,1,REAL,FAKE,,,,,,,,,,,,,,,,,,,,,
,,,,,,,5e14bd64617219ae6593485a,6057c54e64b0b4e5c128b4f9,605917217b99c9c6a455d489,Spain,Northeast,13 or older,no,2021-03-22_18h18.07.583,empathy_intonation_perc,2020.2.10,Win32,60,,,,,,,,,,1,,,,,,,,,,,,,,,,,,,,,,,,,,,,,,,,,,,,,,,,9,hacha,,,0,0,0.546145,0,30,30,8,1,REAL,FAKE,,,,,,,,,,,,,,,,,,,,,
,,,,,,,5e14bd64617219ae6593485a,6057c54e64b0b4e5c128b4f9,605917217b99c9c6a455d489,Spain,Northeast,13 or older,no,2021-03-22_18h18.07.583,empathy_intonation_perc,2020.2.10,Win32,60,,,,,,,,,,0,,,,,,,,,,,,,,,,,,,,,,,,,,,,,,,,,,,,,,,,42,cadallo,,,1,0,0.932335,0,31,31,41,1,REAL,FAKE,,,,,,,,,,,,,,,,,,,,,
,,,,,,,5e14bd64617219ae6593485a,6057c54e64b0b4e5c128b4f9,605917217b99c9c6a455d489,Spain,Northeast,13 or older,no,2021-03-22_18h18.07.583,empathy_intonation_perc,2020.2.10,Win32,60,,,,,,,,,,1,,,,,,,,,,,,,,,,,,,,,,,,,,,,,,,,,,,,,,,,15,regar,,,1,1,0.99234,0,32,32,14,1,REAL,FAKE,,,,,,,,,,,,,,,,,,,,,
,,,,,,,5e14bd64617219ae6593485a,6057c54e64b0b4e5c128b4f9,605917217b99c9c6a455d489,Spain,Northeast,13 or older,no,2021-03-22_18h18.07.583,empathy_intonation_perc,2020.2.10,Win32,60,,,,,,,,,,1,,,,,,,,,,,,,,,,,,,,,,,,,,,,,,,,,,,,,,,,31,pandilla,,,1,1,0.786845,0,33,33,30,1,REAL,FAKE,,,,,,,,,,,,,,,,,,,,,
,,,,,,,5e14bd64617219ae6593485a,6057c54e64b0b4e5c128b4f9,605917217b99c9c6a455d489,Spain,Northeast,13 or older,no,2021-03-22_18h18.07.583,empathy_intonation_perc,2020.2.10,Win32,60,,,,,,,,,,1,,,,,,,,,,,,,,,,,,,,,,,,,,,,,,,,,,,,,,,,71,polvoriento,,,0,0,0.56038,0,34,34,70,1,REAL,FAKE,,,,,,,,,,,,,,,,,,,,,
,,,,,,,5e14bd64617219ae6593485a,6057c54e64b0b4e5c128b4f9,605917217b99c9c6a455d489,Spain,Northeast,13 or older,no,2021-03-22_18h18.07.583,empathy_intonation_perc,2020.2.10,Win32,60,,,,,,,,,,0,,,,,,,,,,,,,,,,,,,,,,,,,,,,,,,,,,,,,,,,23,lampera,,,0,1,0.99304,0,35,35,22,1,REAL,FAKE,,,,,,,,,,,,,,,,,,,,,
,,,,,,,5e14bd64617219ae6593485a,6057c54e64b0b4e5c128b4f9,605917217b99c9c6a455d489,Spain,Northeast,13 or older,no,2021-03-22_18h18.07.583,empathy_intonation_perc,2020.2.10,Win32,60,,,,,,,,,,1,,,,,,,,,,,,,,,,,,,,,,,,,,,,,,,,,,,,,,,,46,martillo,,,0,0,0.97855,0,36,36,45,1,REAL,FAKE,,,,,,,,,,,,,,,,,,,,,
,,,,,,,5e14bd64617219ae6593485a,6057c54e64b0b4e5c128b4f9,605917217b99c9c6a455d489,Spain,Northeast,13 or older,no,2021-03-22_18h18.07.583,empathy_intonation_perc,2020.2.10,Win32,60,,,,,,,,,,1,,,,,,,,,,,,,,,,,,,,,,,,,,,,,,,,,,,,,,,,73,hervidor,,,0,0,0.92142,0,37,37,72,1,REAL,FAKE,,,,,,,,,,,,,,,,,,,,,
,,,,,,,5e14bd64617219ae6593485a,6057c54e64b0b4e5c128b4f9,605917217b99c9c6a455d489,Spain,Northeast,13 or older,no,2021-03-22_18h18.07.583,empathy_intonation_perc,2020.2.10,Win32,60,,,,,,,,,,1,,,,,,,,,,,,,,,,,,,,,,,,,,,,,,,,,,,,,,,,38,estornudar,,,1,1,0.733165,0,38,38,37,1,REAL,FAKE,,,,,,,,,,,,,,,,,,,,,
,,,,,,,5e14bd64617219ae6593485a,6057c54e64b0b4e5c128b4f9,605917217b99c9c6a455d489,Spain,Northeast,13 or older,no,2021-03-22_18h18.07.583,empathy_intonation_perc,2020.2.10,Win32,60,,,,,,,,,,0,,,,,,,,,,,,,,,,,,,,,,,,,,,,,,,,,,,,,,,,50,flamida,,,0,1,0.807115,0,39,39,49,1,REAL,FAKE,,,,,,,,,,,,,,,,,,,,,
,,,,,,,5e14bd64617219ae6593485a,6057c54e64b0b4e5c128b4f9,605917217b99c9c6a455d489,Spain,Northeast,13 or older,no,2021-03-22_18h18.07.583,empathy_intonation_perc,2020.2.10,Win32,60,,,,,,,,,,1,,,,,,,,,,,,,,,,,,,,,,,,,,,,,,,,,,,,,,,,49,ganar,,,0,0,0.64303,0,40,40,48,1,REAL,FAKE,,,,,,,,,,,,,,,,,,,,,
,,,,,,,5e14bd64617219ae6593485a,6057c54e64b0b4e5c128b4f9,605917217b99c9c6a455d489,Spain,Northeast,13 or older,no,2021-03-22_18h18.07.583,empathy_intonation_perc,2020.2.10,Win32,60,,,,,,,,,,1,,,,,,,,,,,,,,,,,,,,,,,,,,,,,,,,,,,,,,,,86,barato,,,0,0,0.56628,0,41,41,85,1,REAL,FAKE,,,,,,,,,,,,,,,,,,,,,
,,,,,,,5e14bd64617219ae6593485a,6057c54e64b0b4e5c128b4f9,605917217b99c9c6a455d489,Spain,Northeast,13 or older,no,2021-03-22_18h18.07.583,empathy_intonation_perc,2020.2.10,Win32,60,,,,,,,,,,1,,,,,,,,,,,,,,,,,,,,,,,,,,,,,,,,,,,,,,,,28,merodear,,,0,0,0.548245,0,42,42,27,1,REAL,FAKE,,,,,,,,,,,,,,,,,,,,,
,,,,,,,5e14bd64617219ae6593485a,6057c54e64b0b4e5c128b4f9,605917217b99c9c6a455d489,Spain,Northeast,13 or older,no,2021-03-22_18h18.07.583,empathy_intonation_perc,2020.2.10,Win32,60,,,,,,,,,,1,,,,,,,,,,,,,,,,,,,,,,,,,,,,,,,,,,,,,,,,25,bisagra,,,0,0,0.55927,0,43,43,24,1,REAL,FAKE,,,,,,,,,,,,,,,,,,,,,
,,,,,,,5e14bd64617219ae6593485a,6057c54e64b0b4e5c128b4f9,605917217b99c9c6a455d489,Spain,Northeast,13 or older,no,2021-03-22_18h18.07.583,empathy_intonation_perc,2020.2.10,Win32,60,,,,,,,,,,0,,,,,,,,,,,,,,,,,,,,,,,,,,,,,,,,,,,,,,,,16,abracer,,,1,0,0.60644,0,44,44,15,1,REAL,FAKE,,,,,,,,,,,,,,,,,,,,,
,,,,,,,5e14bd64617219ae6593485a,6057c54e64b0b4e5c128b4f9,605917217b99c9c6a455d489,Spain,Northeast,13 or older,no,2021-03-22_18h18.07.583,empathy_intonation_perc,2020.2.10,Win32,60,,,,,,,,,,1,,,,,,,,,,,,,,,,,,,,,,,,,,,,,,,,,,,,,,,,55,nevar,,,0,0,0.77574,0,45,45,54,1,REAL,FAKE,,,,,,,,,,,,,,,,,,,,,
,,,,,,,5e14bd64617219ae6593485a,6057c54e64b0b4e5c128b4f9,605917217b99c9c6a455d489,Spain,Northeast,13 or older,no,2021-03-22_18h18.07.583,empathy_intonation_perc,2020.2.10,Win32,60,,,,,,,,,,1,,,,,,,,,,,,,,,,,,,,,,,,,,,,,,,,,,,,,,,,62,flaco,,,1,1,0.87926,0,46,46,61,1,REAL,FAKE,,,,,,,,,,,,,,,,,,,,,
,,,,,,,5e14bd64617219ae6593485a,6057c54e64b0b4e5c128b4f9,605917217b99c9c6a455d489,Spain,Northeast,13 or older,no,2021-03-22_18h18.07.583,empathy_intonation_perc,2020.2.10,Win32,60,,,,,,,,,,1,,,,,,,,,,,,,,,,,,,,,,,,,,,,,,,,,,,,,,,,45,jilguero,,,0,0,0.549565,0,47,47,44,1,REAL,FAKE,,,,,,,,,,,,,,,,,,,,,
,,,,,,,5e14bd64617219ae6593485a,6057c54e64b0b4e5c128b4f9,605917217b99c9c6a455d489,Spain,Northeast,13 or older,no,2021-03-22_18h18.07.583,empathy_intonation_perc,2020.2.10,Win32,60,,,,,,,,,,0,,,,,,,,,,,,,,,,,,,,,,,,,,,,,,,,,,,,,,,,82,empirador,,,1,0,0.57269,0,48,48,81,1,REAL,FAKE,,,,,,,,,,,,,,,,,,,,,
,,,,,,,5e14bd64617219ae6593485a,6057c54e64b0b4e5c128b4f9,605917217b99c9c6a455d489,Spain,Northeast,13 or older,no,2021-03-22_18h18.07.583,empathy_intonation_perc,2020.2.10,Win32,60,,,,,,,,,,1,,,,,,,,,,,,,,,,,,,,,,,,,,,,,,,,,,,,,,,,60,matar,,,1,1,0.8927,0,49,49,59,1,REAL,FAKE,,,,,,,,,,,,,,,,,,,,,
,,,,,,,5e14bd64617219ae6593485a,6057c54e64b0b4e5c128b4f9,605917217b99c9c6a455d489,Spain,Northeast,13 or older,no,2021-03-22_18h18.07.583,empathy_intonation_perc,2020.2.10,Win32,60,,,,,,,,,,1,,,,,,,,,,,,,,,,,,,,,,,,,,,,,,,,,,,,,,,,57,tacao,,,0,0,0.52345,0,50,50,56,1,REAL,FAKE,,,,,,,,,,,,,,,,,,,,,
,,,,,,,5e14bd64617219ae6593485a,6057c54e64b0b4e5c128b4f9,605917217b99c9c6a455d489,Spain,Northeast,13 or older,no,2021-03-22_18h18.07.583,empathy_intonation_perc,2020.2.10,Win32,60,,,,,,,,,,1,,,,,,,,,,,,,,,,,,,,,,,,,,,,,,,,,,,,,,,,41,rebuscar,,,0,0,1.177285,0,51,51,40,1,REAL,FAKE,,,,,,,,,,,,,,,,,,,,,
,,,,,,,5e14bd64617219ae6593485a,6057c54e64b0b4e5c128b4f9,605917217b99c9c6a455d489,Spain,Northeast,13 or older,no,2021-03-22_18h18.07.583,empathy_intonation_perc,2020.2.10,Win32,60,,,,,,,,,,0,,,,,,,,,,,,,,,,,,,,,,,,,,,,,,,,,,,,,,,,1,terzo,,,0,1,0.819,0,52,52,0,1,REAL,FAKE,,,,,,,,,,,,,,,,,,,,,
,,,,,,,5e14bd64617219ae6593485a,6057c54e64b0b4e5c128b4f9,605917217b99c9c6a455d489,Spain,Northeast,13 or older,no,2021-03-22_18h18.07.583,empathy_intonation_perc,2020.2.10,Win32,60,,,,,,,,,,1,,,,,,,,,,,,,,,,,,,,,,,,,,,,,,,,,,,,,,,,39,torpe,,,0,0,0.53273,0,53,53,38,1,REAL,FAKE,,,,,,,,,,,,,,,,,,,,,
,,,,,,,5e14bd64617219ae6593485a,6057c54e64b0b4e5c128b4f9,605917217b99c9c6a455d489,Spain,Northeast,13 or older,no,2021-03-22_18h18.07.583,empathy_intonation_perc,2020.2.10,Win32,60,,,,,,,,,,1,,,,,,,,,,,,,,,,,,,,,,,,,,,,,,,,,,,,,,,,5,zapato,,,0,0,0.50956,0,54,54,4,1,REAL,FAKE,,,,,,,,,,,,,,,,,,,,,
,,,,,,,5e14bd64617219ae6593485a,6057c54e64b0b4e5c128b4f9,605917217b99c9c6a455d489,Spain,Northeast,13 or older,no,2021-03-22_18h18.07.583,empathy_intonation_perc,2020.2.10,Win32,60,,,,,,,,,,1,,,,,,,,,,,,,,,,,,,,,,,,,,,,,,,,,,,,,,,,54,fomentar,,,0,0,0.6931,0,55,55,53,1,REAL,FAKE,,,,,,,,,,,,,,,,,,,,,
,,,,,,,5e14bd64617219ae6593485a,6057c54e64b0b4e5c128b4f9,605917217b99c9c6a455d489,Spain,Northeast,13 or older,no,2021-03-22_18h18.07.583,empathy_intonation_perc,2020.2.10,Win32,60,,,,,,,,,,1,,,,,,,,,,,,,,,,,,,,,,,,,,,,,,,,,,,,,,,,56,musgo,,,0,0,0.59154,0,56,56,55,1,REAL,FAKE,,,,,,,,,,,,,,,,,,,,,
,,,,,,,5e14bd64617219ae6593485a,6057c54e64b0b4e5c128b4f9,605917217b99c9c6a455d489,Spain,Northeast,13 or older,no,2021-03-22_18h18.07.583,empathy_intonation_perc,2020.2.10,Win32,60,,,,,,,,,,0,,,,,,,,,,,,,,,,,,,,,,,,,,,,,,,,,,,,,,,,66,hacido,,,1,0,0.41382,0,57,57,65,1,REAL,FAKE,,,,,,,,,,,,,,,,,,,,,
,,,,,,,5e14bd64617219ae6593485a,6057c54e64b0b4e5c128b4f9,605917217b99c9c6a455d489,Spain,Northeast,13 or older,no,2021-03-22_18h18.07.583,empathy_intonation_perc,2020.2.10,Win32,60,,,,,,,,,,1,,,,,,,,,,,,,,,,,,,,,,,,,,,,,,,,,,,,,,,,14,yunque,,,0,0,0.559135,0,58,58,13,1,REAL,FAKE,,,,,,,,,,,,,,,,,,,,,
,,,,,,,5e14bd64617219ae6593485a,6057c54e64b0b4e5c128b4f9,605917217b99c9c6a455d489,Spain,Northeast,13 or older,no,2021-03-22_18h18.07.583,empathy_intonation_perc,2020.2.10,Win32,60,,,,,,,,,,1,,,,,,,,,,,,,,,,,,,,,,,,,,,,,,,,,,,,,,,,12,asesinato,,,1,1,0.84765,0,59,59,11,1,REAL,FAKE,,,,,,,,,,,,,,,,,,,,,
,,,,,,,5e14bd64617219ae6593485a,6057c54e64b0b4e5c128b4f9,605917217b99c9c6a455d489,Spain,Northeast,13 or older,no,2021-03-22_18h18.07.583,empathy_intonation_perc,2020.2.10,Win32,60,,,,,,,,,,1,,,,,,,,,,,,,,,,,,,,,,,,,,,,,,,,,,,,,,,,68,alegre,,,1,1,0.825995,0,60,60,67,1,REAL,FAKE,,,,,,,,,,,,,,,,,,,,,
,,,,,,,5e14bd64617219ae6593485a,6057c54e64b0b4e5c128b4f9,605917217b99c9c6a455d489,Spain,Northeast,13 or older,no,2021-03-22_18h18.07.583,empathy_intonation_perc,2020.2.10,Win32,60,,,,,,,,,,1,,,,,,,,,,,,,,,,,,,,,,,,,,,,,,,,,,,,,,,,85,lad,,,0,0,0.71935,0,61,61,84,1,REAL,FAKE,,,,,,,,,,,,,,,,,,,,,
,,,,,,,5e14bd64617219ae6593485a,6057c54e64b0b4e5c128b4f9,605917217b99c9c6a455d489,Spain,Northeast,13 or older,no,2021-03-22_18h18.07.583,empathy_intonation_perc,2020.2.10,Win32,60,,,,,,,,,,1,,,,,,,,,,,,,,,,,,,,,,,,,,,,,,,,,,,,,,,,59,besar,,,1,1,1.79021,0,62,62,58,1,REAL,FAKE,,,,,,,,,,,,,,,,,,,,,
,,,,,,,5e14bd64617219ae6593485a,6057c54e64b0b4e5c128b4f9,605917217b99c9c6a455d489,Spain,Northeast,13 or older,no,2021-03-22_18h18.07.583,empathy_intonation_perc,2020.2.10,Win32,60,,,,,,,,,,1,,,,,,,,,,,,,,,,,,,,,,,,,,,,,,,,,,,,,,,,6,tergiversar,,,1,1,0.05853,0,63,63,5,1,REAL,FAKE,,,,,,,,,,,,,,,,,,,,,
,,,,,,,5e14bd64617219ae6593485a,6057c54e64b0b4e5c128b4f9,605917217b99c9c6a455d489,Spain,Northeast,13 or older,no,2021-03-22_18h18.07.583,empathy_intonation_perc,2020.2.10,Win32,60,,,,,,,,,,1,,,,,,,,,,,,,,,,,,,,,,,,,,,,,,,,,,,,,,,,37,granuja,,,0,0,0.719145,0,64,64,36,1,REAL,FAKE,,,,,,,,,,,,,,,,,,,,,
,,,,,,,5e14bd64617219ae6593485a,6057c54e64b0b4e5c128b4f9,605917217b99c9c6a455d489,Spain,Northeast,13 or older,no,2021-03-22_18h18.07.583,empathy_intonation_perc,2020.2.10,Win32,60,,,,,,,,,,0,,,,,,,,,,,,,,,,,,,,,,,,,,,,,,,,,,,,,,,,10,antar,,,1,0,0.42604,0,65,65,9,1,REAL,FAKE,,,,,,,,,,,,,,,,,,,,,
,,,,,,,5e14bd64617219ae6593485a,6057c54e64b0b4e5c128b4f9,605917217b99c9c6a455d489,Spain,Northeast,13 or older,no,2021-03-22_18h18.07.583,empathy_intonation_perc,2020.2.10,Win32,60,,,,,,,,,,0,,,,,,,,,,,,,,,,,,,,,,,,,,,,,,,,,,,,,,,,74,cintro,,,0,1,0.74605,0,66,66,73,1,REAL,FAKE,,,,,,,,,,,,,,,,,,,,,
,,,,,,,5e14bd64617219ae6593485a,6057c54e64b0b4e5c128b4f9,605917217b99c9c6a455d489,Spain,Northeast,13 or older,no,2021-03-22_18h18.07.583,empathy_intonation_perc,2020.2.10,Win32,60,,,,,,,,,,1,,,,,,,,,,,,,,,,,,,,,,,,,,,,,,,,,,,,,,,,48,ladrn,,,0,0,0.56781,0,67,67,47,1,REAL,FAKE,,,,,,,,,,,,,,,,,,,,,
,,,,,,,5e14bd64617219ae6593485a,6057c54e64b0b4e5c128b4f9,605917217b99c9c6a455d489,Spain,Northeast,13 or older,no,2021-03-22_18h18.07.583,empathy_intonation_perc,2020.2.10,Win32,60,,,,,,,,,,1,,,,,,,,,,,,,,,,,,,,,,,,,,,,,,,,,,,,,,,,40,alfombra,,,0,0,0.508815,0,68,68,39,1,REAL,FAKE,,,,,,,,,,,,,,,,,,,,,
,,,,,,,5e14bd64617219ae6593485a,6057c54e64b0b4e5c128b4f9,605917217b99c9c6a455d489,Spain,Northeast,13 or older,no,2021-03-22_18h18.07.583,empathy_intonation_perc,2020.2.10,Win32,60,,,,,,,,,,0,,,,,,,,,,,,,,,,,,,,,,,,,,,,,,,,,,,,,,,,19,brecedad,,,1,0,0.34613,0,69,69,18,1,REAL,FAKE,,,,,,,,,,,,,,,,,,,,,
,,,,,,,5e14bd64617219ae6593485a,6057c54e64b0b4e5c128b4f9,605917217b99c9c6a455d489,Spain,Northeast,13 or older,no,2021-03-22_18h18.07.583,empathy_intonation_perc,2020.2.10,Win32,60,,,,,,,,,,0,,,,,,,,,,,,,,,,,,,,,,,,,,,,,,,,,,,,,,,,4,batilln,,,1,0,0.564785,0,70,70,3,1,REAL,FAKE,,,,,,,,,,,,,,,,,,,,,
,,,,,,,5e14bd64617219ae6593485a,6057c54e64b0b4e5c128b4f9,605917217b99c9c6a455d489,Spain,Northeast,13 or older,no,2021-03-22_18h18.07.583,empathy_intonation_perc,2020.2.10,Win32,60,,,,,,,,,,0,,,,,,,,,,,,,,,,,,,,,,,,,,,,,,,,,,,,,,,,29,decar,,,1,0,0.659525,0,71,71,28,1,REAL,FAKE,,,,,,,,,,,,,,,,,,,,,
,,,,,,,5e14bd64617219ae6593485a,6057c54e64b0b4e5c128b4f9,605917217b99c9c6a455d489,Spain,Northeast,13 or older,no,2021-03-22_18h18.07.583,empathy_intonation_perc,2020.2.10,Win32,60,,,,,,,,,,1,,,,,,,,,,,,,,,,,,,,,,,,,,,,,,,,,,,,,,,,52,camisa,,,0,0,0.83356,0,72,72,51,1,REAL,FAKE,,,,,,,,,,,,,,,,,,,,,
,,,,,,,5e14bd64617219ae6593485a,6057c54e64b0b4e5c128b4f9,605917217b99c9c6a455d489,Spain,Northeast,13 or older,no,2021-03-22_18h18.07.583,empathy_intonation_perc,2020.2.10,Win32,60,,,,,,,,,,1,,,,,,,,,,,,,,,,,,,,,,,,,,,,,,,,,,,,,,,,67,cabello,,,1,1,0.61236,0,73,73,66,1,REAL,FAKE,,,,,,,,,,,,,,,,,,,,,
,,,,,,,5e14bd64617219ae6593485a,6057c54e64b0b4e5c128b4f9,605917217b99c9c6a455d489,Spain,Northeast,13 or older,no,2021-03-22_18h18.07.583,empathy_intonation_perc,2020.2.10,Win32,60,,,,,,,,,,0,,,,,,,,,,,,,,,,,,,,,,,,,,,,,,,,,,,,,,,,17,floroso,,,1,0,0.577545,0,74,74,16,1,REAL,FAKE,,,,,,,,,,,,,,,,,,,,,
,,,,,,,5e14bd64617219ae6593485a,6057c54e64b0b4e5c128b4f9,605917217b99c9c6a455d489,Spain,Northeast,13 or older,no,2021-03-22_18h18.07.583,empathy_intonation_perc,2020.2.10,Win32,60,,,,,,,,,,1,,,,,,,,,,,,,,,,,,,,,,,,,,,,,,,,,,,,,,,,34,aviso,,,1,1,0.5505,0,75,75,33,1,REAL,FAKE,,,,,,,,,,,,,,,,,,,,,
,,,,,,,5e14bd64617219ae6593485a,6057c54e64b0b4e5c128b4f9,605917217b99c9c6a455d489,Spain,Northeast,13 or older,no,2021-03-22_18h18.07.583,empathy_intonation_perc,2020.2.10,Win32,60,,,,,,,,,,1,,,,,,,,,,,,,,,,,,,,,,,,,,,,,,,,,,,,,,,,88,acantilado,,,0,0,0.82588,0,76,76,87,1,REAL,FAKE,,,,,,,,,,,,,,,,,,,,,
,,,,,,,5e14bd64617219ae6593485a,6057c54e64b0b4e5c128b4f9,605917217b99c9c6a455d489,Spain,Northeast,13 or older,no,2021-03-22_18h18.07.583,empathy_intonation_perc,2020.2.10,Win32,60,,,,,,,,,,1,,,,,,,,,,,,,,,,,,,,,,,,,,,,,,,,,,,,,,,,61,seda,,,1,1,1.044165,0,77,77,60,1,REAL,FAKE,,,,,,,,,,,,,,,,,,,,,
,,,,,,,5e14bd64617219ae6593485a,6057c54e64b0b4e5c128b4f9,605917217b99c9c6a455d489,Spain,Northeast,13 or older,no,2021-03-22_18h18.07.583,empathy_intonation_perc,2020.2.10,Win32,60,,,,,,,,,,1,,,,,,,,,,,,,,,,,,,,,,,,,,,,,,,,,,,,,,,,89,prisa,,,1,1,0.80728,0,78,78,88,1,REAL,FAKE,,,,,,,,,,,,,,,,,,,,,
,,,,,,,5e14bd64617219ae6593485a,6057c54e64b0b4e5c128b4f9,605917217b99c9c6a455d489,Spain,Northeast,13 or older,no,2021-03-22_18h18.07.583,empathy_intonation_perc,2020.2.10,Win32,60,,,,,,,,,,1,,,,,,,,,,,,,,,,,,,,,,,,,,,,,,,,,,,,,,,,43,canela,,,0,0,0.746005,0,79,79,42,1,REAL,FAKE,,,,,,,,,,,,,,,,,,,,,
,,,,,,,5e14bd64617219ae6593485a,6057c54e64b0b4e5c128b4f9,605917217b99c9c6a455d489,Spain,Northeast,13 or older,no,2021-03-22_18h18.07.583,empathy_intonation_perc,2020.2.10,Win32,60,,,,,,,,,,0,,,,,,,,,,,,,,,,,,,,,,,,,,,,,,,,,,,,,,,,87,grodo,,,0,1,0.57559,0,80,80,86,1,REAL,FAKE,,,,,,,,,,,,,,,,,,,,,
,,,,,,,5e14bd64617219ae6593485a,6057c54e64b0b4e5c128b4f9,605917217b99c9c6a455d489,Spain,Northeast,13 or older,no,2021-03-22_18h18.07.583,empathy_intonation_perc,2020.2.10,Win32,60,,,,,,,,,,1,,,,,,,,,,,,,,,,,,,,,,,,,,,,,,,,,,,,,,,,11,cenefa,,,0,0,0.6315,0,81,81,10,1,REAL,FAKE,,,,,,,,,,,,,,,,,,,,,
,,,,,,,5e14bd64617219ae6593485a,6057c54e64b0b4e5c128b4f9,605917217b99c9c6a455d489,Spain,Northeast,13 or older,no,2021-03-22_18h18.07.583,empathy_intonation_perc,2020.2.10,Win32,60,,,,,,,,,,1,,,,,,,,,,,,,,,,,,,,,,,,,,,,,,,,,,,,,,,,36,loro,,,0,0,0.946955,0,82,82,35,1,REAL,FAKE,,,,,,,,,,,,,,,,,,,,,
,,,,,,,5e14bd64617219ae6593485a,6057c54e64b0b4e5c128b4f9,605917217b99c9c6a455d489,Spain,Northeast,13 or older,no,2021-03-22_18h18.07.583,empathy_intonation_perc,2020.2.10,Win32,60,,,,,,,,,,0,,,,,,,,,,,,,,,,,,,,,,,,,,,,,,,,,,,,,,,,18,arsa,,,0,1,0.68609,0,83,83,17,1,REAL,FAKE,,,,,,,,,,,,,,,,,,,,,
,,,,,,,5e14bd64617219ae6593485a,6057c54e64b0b4e5c128b4f9,605917217b99c9c6a455d489,Spain,Northeast,13 or older,no,2021-03-22_18h18.07.583,empathy_intonation_perc,2020.2.10,Win32,60,,,,,,,,,,1,,,,,,,,,,,,,,,,,,,,,,,,,,,,,,,,,,,,,,,,80,hormiga,,,1,1,0.986875,0,84,84,79,1,REAL,FAKE,,,,,,,,,,,,,,,,,,,,,
,,,,,,,5e14bd64617219ae6593485a,6057c54e64b0b4e5c128b4f9,605917217b99c9c6a455d489,Spain,Northeast,13 or older,no,2021-03-22_18h18.07.583,empathy_intonation_perc,2020.2.10,Win32,60,,,,,,,,,,1,,,,,,,,,,,,,,,,,,,,,,,,,,,,,,,,,,,,,,,,64,orgulloso,,,0,0,0.80283,0,85,85,63,1,REAL,FAKE,,,,,,,,,,,,,,,,,,,,,
,,,,,,,5e14bd64617219ae6593485a,6057c54e64b0b4e5c128b4f9,605917217b99c9c6a455d489,Spain,Northeast,13 or older,no,2021-03-22_18h18.07.583,empathy_intonation_perc,2020.2.10,Win32,60,,,,,,,,,,0,,,,,,,,,,,,,,,,,,,,,,,,,,,,,,,,,,,,,,,,58,plaudir,,,0,1,0.78053,0,86,86,57,1,REAL,FAKE,,,,,,,,,,,,,,,,,,,,,
,,,,,,,5e14bd64617219ae6593485a,6057c54e64b0b4e5c128b4f9,605917217b99c9c6a455d489,Spain,Northeast,13 or older,no,2021-03-22_18h18.07.583,empathy_intonation_perc,2020.2.10,Win32,60,,,,,,,,,,0,,,,,,,,,,,,,,,,,,,,,,,,,,,,,,,,,,,,,,,,35,rompido,,,1,0,1.05271,0,87,87,34,1,REAL,FAKE,,,,,,,,,,,,,,,,,,,,,
,,,,,,,5e14bd64617219ae6593485a,6057c54e64b0b4e5c128b4f9,605917217b99c9c6a455d489,Spain,Northeast,13 or older,no,2021-03-22_18h18.07.583,empathy_intonation_perc,2020.2.10,Win32,60,,,,,,,,,,1,,,,,,,,,,,,,,,,,,,,,,,,,,,,,,,,,,,,,,,,13,helar,,,1,1,0.75908,0,88,88,12,1,REAL,FAKE,,,,,,,,,,,,,,,,,,,,,
,,,,,,,5e14bd64617219ae6593485a,6057c54e64b0b4e5c128b4f9,605917217b99c9c6a455d489,Spain,Northeast,13 or older,no,2021-03-22_18h18.07.583,empathy_intonation_perc,2020.2.10,Win32,60,,,,,,,,,,0,,,,,,,,,,,,,,,,,,,,,,,,,,,,,,,,,,,,,,,,84,escuto,,,1,0,0.745895,0,89,89,83,1,REAL,FAKE,,,,,,,,,,,,,,,,,,,,,
,,,,,,,5e14bd64617219ae6593485a,6057c54e64b0b4e5c128b4f9,605917217b99c9c6a455d489,Spain,Northeast,13 or older,no,2021-03-22_18h18.07.583,empathy_intonation_perc,2020.2.10,Win32,60,,,,,,,,,,,,,,,,,,,,,,,,,,,,,,,,,,,,,,,,,,,,,,,,,,,,,,,,,,,,,,,,4,1,2.956445,1,0,0,0,0,0,1,,,,,,,,,,,
,,,,,,,5e14bd64617219ae6593485a,6057c54e64b0b4e5c128b4f9,605917217b99c9c6a455d489,Spain,Northeast,13 or older,no,2021-03-22_18h18.07.583,empathy_intonation_perc,2020.2.10,Win32,60,,,,,,,,,,,,,,,,,,,,1,,,,,,,,,,,,,,,,,,,,,,,,,,,,,,,,,,,,,,,,,,,,,,,,,,,,,,4,0,0,0,0,1,I can easily tell if someone else wants to enter a conversation.,1,0,1,0
,,,,,,,5e14bd64617219ae6593485a,6057c54e64b0b4e5c128b4f9,605917217b99c9c6a455d489,Spain,Northeast,13 or older,no,2021-03-22_18h18.07.583,empathy_intonation_perc,2020.2.10,Win32,60,,,,,,,,,,,,,,,,,,,,2,,,,,,,,,,,,,,,,,,,,,,,,,,,,,,,,,,,,,,,,,,,,,,,,,,,,,,1,0,1,1,1,1,I prefer animals to humans.,0,1,0,0
,,,,,,,5e14bd64617219ae6593485a,6057c54e64b0b4e5c128b4f9,605917217b99c9c6a455d489,Spain,Northeast,13 or older,no,2021-03-22_18h18.07.583,empathy_intonation_perc,2020.2.10,Win32,60,,,,,,,,,,,,,,,,,,,,3,,,,,,,,,,,,,,,,,,,,,,,,,,,,,,,,,,,,,,,,,,,,,,,,,,,,,,2,0,2,2,2,1,I try to keep up with the current trends and fashions.,0,1,0,0
,,,,,,,5e14bd64617219ae6593485a,6057c54e64b0b4e5c128b4f9,605917217b99c9c6a455d489,Spain,Northeast,13 or older,no,2021-03-22_18h18.07.583,empathy_intonation_perc,2020.2.10,Win32,60,,,,,,,,,,,,,,,,,,,,4,,,,,,,,,,,,,,,,,,,,,,,,,,,,,,,,,,,,,,,,,,,,,,,,,,,,,,3,0,3,3,3,1,"I find it difficult to explain to others things that I understand easily, 
  when they dont understand it first time.",1,0,0,1
,,,,,,,5e14bd64617219ae6593485a,6057c54e64b0b4e5c128b4f9,605917217b99c9c6a455d489,Spain,Northeast,13 or older,no,2021-03-22_18h18.07.583,empathy_intonation_perc,2020.2.10,Win32,60,,,,,,,,,,,,,,,,,,,,5,,,,,,,,,,,,,,,,,,,,,,,,,,,,,,,,,,,,,,,,,,,,,,,,,,,,,,1,0,4,4,4,1,I dream most nights.,0,1,0,0
,,,,,,,5e14bd64617219ae6593485a,6057c54e64b0b4e5c128b4f9,605917217b99c9c6a455d489,Spain,Northeast,13 or older,no,2021-03-22_18h18.07.583,empathy_intonation_perc,2020.2.10,Win32,60,,,,,,,,,,,,,,,,,,,,6,,,,,,,,,,,,,,,,,,,,,,,,,,,,,,,,,,,,,,,,,,,,,,,,,,,,,,2,0,5,5,5,1,I really enjoy caring for other people.,1,0,1,0
,,,,,,,5e14bd64617219ae6593485a,6057c54e64b0b4e5c128b4f9,605917217b99c9c6a455d489,Spain,Northeast,13 or older,no,2021-03-22_18h18.07.583,empathy_intonation_perc,2020.2.10,Win32,60,,,,,,,,,,,,,,,,,,,,7,,,,,,,,,,,,,,,,,,,,,,,,,,,,,,,,,,,,,,,,,,,,,,,,,,,,,,4,0,6,6,6,1,I try to solve my own problems rather than discussing them with others.,0,1,0,0
,,,,,,,5e14bd64617219ae6593485a,6057c54e64b0b4e5c128b4f9,605917217b99c9c6a455d489,Spain,Northeast,13 or older,no,2021-03-22_18h18.07.583,empathy_intonation_perc,2020.2.10,Win32,60,,,,,,,,,,,,,,,,,,,,8,,,,,,,,,,,,,,,,,,,,,,,,,,,,,,,,,,,,,,,,,,,,,,,,,,,,,,3,0,7,7,7,1,I find it hard to know what to do in a social situation.,1,0,0,1
