instructions_2afc_loop.thisRepN,instructions_2afc_loop.thisTrialN,instructions_2afc_loop.thisN,instructions_2afc_loop.thisIndex,instructions_2afc_loop.ran,instructions_text,continue_text,participant,study_id,session,I am most familiar with Spanish from...*,What part of the US are you from?*,At what age did you begin learning Spanish?*,Are you proficient in any languages other than English/Spanish?*,date,expName,psychopyVersion,OS,frameRate,key_resp_2afc_practice.keys,key_resp_2afc_practice.corr,key_resp_2afc_practice.rt,trials_2afc_practice_loop.thisRepN,trials_2afc_practice_loop.thisTrialN,trials_2afc_practice_loop.thisN,trials_2afc_practice_loop.thisIndex,trials_2afc_practice_loop.ran,path,correct_response,the_col,key_resp_2afc_trial.keys,key_resp_2afc_trial.corr,key_resp_2afc_trial.rt,trials_2afc_loop.thisRepN,trials_2afc_loop.thisTrialN,trials_2afc_loop.thisN,trials_2afc_loop.thisIndex,trials_2afc_loop.ran,item_num,andalusian,argentine,castilian,chilean,cuban,mexican,peruvian,puertorican,key_resp_ac1.keys,key_resp_ac1.corr,key_resp_ac1.rt,ac1_loop.thisRepN,ac1_loop.thisTrialN,ac1_loop.thisN,ac1_loop.thisIndex,ac1_loop.ran,instructions_lextale_loop.thisRepN,instructions_lextale_loop.thisTrialN,instructions_lextale_loop.thisN,instructions_lextale_loop.thisIndex,instructions_lextale_loop.ran,key_resp_lextale_practice.keys,key_resp_lextale_practice.corr,key_resp_lextale_practice.rt,trials_lextale_practice_loop.thisRepN,trials_lextale_practice_loop.thisTrialN,trials_lextale_practice_loop.thisN,trials_lextale_practice_loop.thisIndex,trials_lextale_practice_loop.ran,stim,word,prac_button_real,prac_button_false,key_resp_lextale_trial.keys,key_resp_lextale_trial.corr,key_resp_lextale_trial.rt,trials_lextale_loop.thisRepN,trials_lextale_loop.thisTrialN,trials_lextale_loop.thisN,trials_lextale_loop.thisIndex,trials_lextale_loop.ran,button_real,button_false,key_resp_ac2.keys,key_resp_ac2.corr,key_resp_ac2.rt,check_pass,check_fails,ac2_loop.thisRepN,ac2_loop.thisTrialN,ac2_loop.thisN,ac2_loop.thisIndex,ac2_loop.ran,slider_eq_trial.response,trials_eq_loop.thisRepN,trials_eq_loop.thisTrialN,trials_eq_loop.thisN,trials_eq_loop.thisIndex,trials_eq_loop.ran,item,is_test_item,is_distractor,is_agree_score,is_disagree_score
0,0,0,0,1,"In the following task you are going to hear a series of utterances. 

  You will decide if the utterances sound like questions or not using your keyboard.",(press the spacebar to continue),5e2ec46a316225000cf293ce,6057c54e64b0b4e5c128b4f9,605874a8583faa87ecd35c87,Spain,Northeast,13 or older,no,2021-03-22_06h43.19.826,empathy_intonation_perc,2020.2.10,Win32,60,,,,,,,,,,,,,,,,,,,,,,,,,,,,,,,,,,,,,,,,,,,,,,,,,,,,,,,,,,,,,,,,,,,,,,,,,,,,,,,,,,,,
0,1,1,1,1,"If you believe the utterance is a question, type '1' (for 'yes') and if you do not 
  believe it is a question type '0' (for 'no').

  Let's practice a bit...",(press the spacebar to continue),5e2ec46a316225000cf293ce,6057c54e64b0b4e5c128b4f9,605874a8583faa87ecd35c87,Spain,Northeast,13 or older,no,2021-03-22_06h43.19.826,empathy_intonation_perc,2020.2.10,Win32,60,,,,,,,,,,,,,,,,,,,,,,,,,,,,,,,,,,,,,,,,,,,,,,,,,,,,,,,,,,,,,,,,,,,,,,,,,,,,,,,,,,,,
,,,,,,,5e2ec46a316225000cf293ce,6057c54e64b0b4e5c128b4f9,605874a8583faa87ecd35c87,Spain,Northeast,13 or older,no,2021-03-22_06h43.19.826,empathy_intonation_perc,2020.2.10,Win32,60,0,1,2.68812,0,0,0,7,1,./stim/wavs/puertorican_statement_filler_La-nina-pinta-con-su-amiga.wav,0,,,,,,,,,,,,,,,,,,,,,,,,,,,,,,,,,,,,,,,,,,,,,,,,,,,,,,,,,,,,,,,,,,,,,,,,,,
,,,,,,,5e2ec46a316225000cf293ce,6057c54e64b0b4e5c128b4f9,605874a8583faa87ecd35c87,Spain,Northeast,13 or older,no,2021-03-22_06h43.19.826,empathy_intonation_perc,2020.2.10,Win32,60,1,1,1.852365,0,1,1,0,1,./stim/wavs/castilian_question_filler_Mi-esposo-conoce-al-chico.wav,1,,,,,,,,,,,,,,,,,,,,,,,,,,,,,,,,,,,,,,,,,,,,,,,,,,,,,,,,,,,,,,,,,,,,,,,,,,
,,,,,,,5e2ec46a316225000cf293ce,6057c54e64b0b4e5c128b4f9,605874a8583faa87ecd35c87,Spain,Northeast,13 or older,no,2021-03-22_06h43.19.826,empathy_intonation_perc,2020.2.10,Win32,60,1,1,5.39827,0,2,2,1,1,./stim/wavs/argentine_question_filler_Mi-vecino-habla-mucho.wav,1,,,,,,,,,,,,,,,,,,,,,,,,,,,,,,,,,,,,,,,,,,,,,,,,,,,,,,,,,,,,,,,,,,,,,,,,,,
,,,,,,,5e2ec46a316225000cf293ce,6057c54e64b0b4e5c128b4f9,605874a8583faa87ecd35c87,Spain,Northeast,13 or older,no,2021-03-22_06h43.19.826,empathy_intonation_perc,2020.2.10,Win32,60,0,1,1.892035,0,3,3,4,1,./stim/wavs/cuban_statement_filler_Cocinabas-por-la-noche.wav,0,,,,,,,,,,,,,,,,,,,,,,,,,,,,,,,,,,,,,,,,,,,,,,,,,,,,,,,,,,,,,,,,,,,,,,,,,,
,,,,,,,5e2ec46a316225000cf293ce,6057c54e64b0b4e5c128b4f9,605874a8583faa87ecd35c87,Spain,Northeast,13 or older,no,2021-03-22_06h43.19.826,empathy_intonation_perc,2020.2.10,Win32,60,0,1,2.40612,0,4,4,5,1,./stim/wavs/andalusian_statement_filler_Alberto-nunca-se-afeita.wav,0,,,,,,,,,,,,,,,,,,,,,,,,,,,,,,,,,,,,,,,,,,,,,,,,,,,,,,,,,,,,,,,,,,,,,,,,,,
,,,,,,,5e2ec46a316225000cf293ce,6057c54e64b0b4e5c128b4f9,605874a8583faa87ecd35c87,Spain,Northeast,13 or older,no,2021-03-22_06h43.19.826,empathy_intonation_perc,2020.2.10,Win32,60,0,1,2.87947,0,5,5,6,1,./stim/wavs/peruvian_statement_filler_El-nino-habla-con-su-madre.wav,0,,,,,,,,,,,,,,,,,,,,,,,,,,,,,,,,,,,,,,,,,,,,,,,,,,,,,,,,,,,,,,,,,,,,,,,,,,
,,,,,,,5e2ec46a316225000cf293ce,6057c54e64b0b4e5c128b4f9,605874a8583faa87ecd35c87,Spain,Northeast,13 or older,no,2021-03-22_06h43.19.826,empathy_intonation_perc,2020.2.10,Win32,60,1,1,2.07847,0,6,6,3,1,./stim/wavs/mexican_question_filler_Felipe-no-tiene-contrasena.wav,1,,,,,,,,,,,,,,,,,,,,,,,,,,,,,,,,,,,,,,,,,,,,,,,,,,,,,,,,,,,,,,,,,,,,,,,,,,
,,,,,,,5e2ec46a316225000cf293ce,6057c54e64b0b4e5c128b4f9,605874a8583faa87ecd35c87,Spain,Northeast,13 or older,no,2021-03-22_06h43.19.826,empathy_intonation_perc,2020.2.10,Win32,60,0,0,2.611065,0,7,7,2,1,./stim/wavs/chilean_question_filler_Mi-padre-cantaba-bien.wav,1,,,,,,,,,,,,,,,,,,,,,,,,,,,,,,,,,,,,,,,,,,,,,,,,,,,,,,,,,,,,,,,,,,,,,,,,,,
,,,,,,,5e2ec46a316225000cf293ce,6057c54e64b0b4e5c128b4f9,605874a8583faa87ecd35c87,Spain,Northeast,13 or older,no,2021-03-22_06h43.19.826,empathy_intonation_perc,2020.2.10,Win32,60,,,,,,,,,,1,chilean,1,1,1.813415,0,0,0,50,1,51,./stim/wavs/andalusian_mismatch_interrogative-partial-wh_Cuando-miraba-la-luna.wav,./stim/wavs/argentine_mismatch_interrogative-partial-wh_Cuando-miraba-la-luna.wav,./stim/wavs/castilian_mismatch_interrogative-partial-wh_Cuando-miraba-la-luna.wav,./stim/wavs/chilean_mismatch_interrogative-partial-wh_Cuando-miraba-la-luna.wav,./stim/wavs/cuban_mismatch_interrogative-partial-wh_Cuando-miraba-la-luna.wav,./stim/wavs/mexican_mismatch_interrogative-partial-wh_Cuando-miraba-la-luna.wav,./stim/wavs/peruvian_mismatch_interrogative-partial-wh_Cuando-miraba-la-luna.wav,./stim/wavs/puertorican_mismatch_interrogative-partial-wh_Cuando-miraba-la-luna.wav,,,,,,,,,,,,,,,,,,,,,,,,,,,,,,,,,,,,,,,,,,,,,,,,,,,,,,,,
,,,,,,,5e2ec46a316225000cf293ce,6057c54e64b0b4e5c128b4f9,605874a8583faa87ecd35c87,Spain,Northeast,13 or older,no,2021-03-22_06h43.19.826,empathy_intonation_perc,2020.2.10,Win32,60,,,,,,,,,,0,andalusian,0,1,1.9484,0,1,1,4,1,5,./stim/wavs/andalusian_match_declarative-broad-focus_Manuela-vende-el-carro.wav,./stim/wavs/argentine_match_declarative-broad-focus_Manuela-vende-el-carro.wav,./stim/wavs/castilian_match_declarative-broad-focus_Manuela-vende-el-carro.wav,./stim/wavs/chilean_match_declarative-broad-focus_Manuela-vende-el-carro.wav,./stim/wavs/cuban_match_declarative-broad-focus_Manuela-vende-el-carro.wav,./stim/wavs/mexican_match_declarative-broad-focus_Manuela-vende-el-carro.wav,./stim/wavs/peruvian_match_declarative-broad-focus_Manuela-vende-el-carro.wav,./stim/wavs/puertorican_match_declarative-broad-focus_Manuela-vende-el-carro.wav,,,,,,,,,,,,,,,,,,,,,,,,,,,,,,,,,,,,,,,,,,,,,,,,,,,,,,,,
,,,,,,,5e2ec46a316225000cf293ce,6057c54e64b0b4e5c128b4f9,605874a8583faa87ecd35c87,Spain,Northeast,13 or older,no,2021-03-22_06h43.19.826,empathy_intonation_perc,2020.2.10,Win32,60,,,,,,,,,,1,chilean,1,1,2.44479,0,2,2,20,1,21,./stim/wavs/andalusian_match_interrogative-partial-wh_Por-que-abre-el-regalo.wav,./stim/wavs/argentine_match_interrogative-partial-wh_Por-que-abre-el-regalo.wav,./stim/wavs/castilian_match_interrogative-partial-wh_Por-que-abre-el-regalo.wav,./stim/wavs/chilean_match_interrogative-partial-wh_Por-que-abre-el-regalo.wav,./stim/wavs/cuban_match_interrogative-partial-wh_Por-que-abre-el-regalo.wav,./stim/wavs/mexican_match_interrogative-partial-wh_Por-que-abre-el-regalo.wav,./stim/wavs/peruvian_match_interrogative-partial-wh_Por-que-abre-el-regalo.wav,./stim/wavs/puertorican_match_interrogative-partial-wh_Por-que-abre-el-regalo.wav,,,,,,,,,,,,,,,,,,,,,,,,,,,,,,,,,,,,,,,,,,,,,,,,,,,,,,,,
,,,,,,,5e2ec46a316225000cf293ce,6057c54e64b0b4e5c128b4f9,605874a8583faa87ecd35c87,Spain,Northeast,13 or older,no,2021-03-22_06h43.19.826,empathy_intonation_perc,2020.2.10,Win32,60,,,,,,,,,,0,argentine,0,1,1.93134,0,3,3,38,1,39,./stim/wavs/andalusian_mismatch_declarative-broad-focus_Mi-novio-viene-del-lago.wav,./stim/wavs/argentine_mismatch_declarative-broad-focus_Mi-novio-viene-del-lago.wav,./stim/wavs/castilian_mismatch_declarative-broad-focus_Mi-novio-viene-del-lago.wav,./stim/wavs/chilean_mismatch_declarative-broad-focus_Mi-novio-viene-del-lago.wav,./stim/wavs/cuban_mismatch_declarative-broad-focus_Mi-novio-viene-del-lago.wav,./stim/wavs/mexican_mismatch_declarative-broad-focus_Mi-novio-viene-del-lago.wav,./stim/wavs/peruvian_mismatch_declarative-broad-focus_Mi-novio-viene-del-lago.wav,./stim/wavs/puertorican_mismatch_declarative-broad-focus_Mi-novio-viene-del-lago.wav,,,,,,,,,,,,,,,,,,,,,,,,,,,,,,,,,,,,,,,,,,,,,,,,,,,,,,,,
,,,,,,,5e2ec46a316225000cf293ce,6057c54e64b0b4e5c128b4f9,605874a8583faa87ecd35c87,Spain,Northeast,13 or older,no,2021-03-22_06h43.19.826,empathy_intonation_perc,2020.2.10,Win32,60,,,,,,,,,,1,cuban,0,0,1.58217,0,4,4,27,1,28,./stim/wavs/andalusian_match_interrogative-total-yn_Emilio-ama-la-marcha.wav,./stim/wavs/argentine_match_interrogative-total-yn_Emilio-ama-la-marcha.wav,./stim/wavs/castilian_match_interrogative-total-yn_Emilio-ama-la-marcha.wav,./stim/wavs/chilean_match_interrogative-total-yn_Emilio-ama-la-marcha.wav,./stim/wavs/cuban_match_interrogative-total-yn_Emilio-ama-la-marcha.wav,./stim/wavs/mexican_match_interrogative-total-yn_Emilio-ama-la-marcha.wav,./stim/wavs/peruvian_match_interrogative-total-yn_Emilio-ama-la-marcha.wav,./stim/wavs/puertorican_match_interrogative-total-yn_Emilio-ama-la-marcha.wav,,,,,,,,,,,,,,,,,,,,,,,,,,,,,,,,,,,,,,,,,,,,,,,,,,,,,,,,
,,,,,,,5e2ec46a316225000cf293ce,6057c54e64b0b4e5c128b4f9,605874a8583faa87ecd35c87,Spain,Northeast,13 or older,no,2021-03-22_06h43.19.826,empathy_intonation_perc,2020.2.10,Win32,60,,,,,,,,,,1,puertorican,0,0,2.22795,0,5,5,24,1,25,./stim/wavs/andalusian_match_interrogative-total-yn_Ana-lleva-el-abrigo.wav,./stim/wavs/argentine_match_interrogative-total-yn_Ana-lleva-el-abrigo.wav,./stim/wavs/castilian_match_interrogative-total-yn_Ana-lleva-el-abrigo.wav,./stim/wavs/chilean_match_interrogative-total-yn_Ana-lleva-el-abrigo.wav,./stim/wavs/cuban_match_interrogative-total-yn_Ana-lleva-el-abrigo.wav,./stim/wavs/mexican_match_interrogative-total-yn_Ana-lleva-el-abrigo.wav,./stim/wavs/peruvian_match_interrogative-total-yn_Ana-lleva-el-abrigo.wav,./stim/wavs/puertorican_match_interrogative-total-yn_Ana-lleva-el-abrigo.wav,,,,,,,,,,,,,,,,,,,,,,,,,,,,,,,,,,,,,,,,,,,,,,,,,,,,,,,,
,,,,,,,5e2ec46a316225000cf293ce,6057c54e64b0b4e5c128b4f9,605874a8583faa87ecd35c87,Spain,Northeast,13 or older,no,2021-03-22_06h43.19.826,empathy_intonation_perc,2020.2.10,Win32,60,,,,,,,,,,0,chilean,0,1,1.56484,0,6,6,2,1,3,./stim/wavs/andalusian_match_declarative-broad-focus_David-leia-el-libro.wav,./stim/wavs/argentine_match_declarative-broad-focus_David-leia-el-libro.wav,./stim/wavs/castilian_match_declarative-broad-focus_David-leia-el-libro.wav,./stim/wavs/chilean_match_declarative-broad-focus_David-leia-el-libro.wav,./stim/wavs/cuban_match_declarative-broad-focus_David-leia-el-libro.wav,./stim/wavs/mexican_match_declarative-broad-focus_David-leia-el-libro.wav,./stim/wavs/peruvian_match_declarative-broad-focus_David-leia-el-libro.wav,./stim/wavs/puertorican_match_declarative-broad-focus_David-leia-el-libro.wav,,,,,,,,,,,,,,,,,,,,,,,,,,,,,,,,,,,,,,,,,,,,,,,,,,,,,,,,
,,,,,,,5e2ec46a316225000cf293ce,6057c54e64b0b4e5c128b4f9,605874a8583faa87ecd35c87,Spain,Northeast,13 or older,no,2021-03-22_06h43.19.826,empathy_intonation_perc,2020.2.10,Win32,60,,,,,,,,,,0,andalusian,0,1,1.6991,0,7,7,5,1,6,./stim/wavs/andalusian_match_declarative-broad-focus_Maria-bebe-el-vino.wav,./stim/wavs/argentine_match_declarative-broad-focus_Maria-bebe-el-vino.wav,./stim/wavs/castilian_match_declarative-broad-focus_Maria-bebe-el-vino.wav,./stim/wavs/chilean_match_declarative-broad-focus_Maria-bebe-el-vino.wav,./stim/wavs/cuban_match_declarative-broad-focus_Maria-bebe-el-vino.wav,./stim/wavs/mexican_match_declarative-broad-focus_Maria-bebe-el-vino.wav,./stim/wavs/peruvian_match_declarative-broad-focus_Maria-bebe-el-vino.wav,./stim/wavs/puertorican_match_declarative-broad-focus_Maria-bebe-el-vino.wav,,,,,,,,,,,,,,,,,,,,,,,,,,,,,,,,,,,,,,,,,,,,,,,,,,,,,,,,
,,,,,,,5e2ec46a316225000cf293ce,6057c54e64b0b4e5c128b4f9,605874a8583faa87ecd35c87,Spain,Northeast,13 or older,no,2021-03-22_06h43.19.826,empathy_intonation_perc,2020.2.10,Win32,60,,,,,,,,,,1,cuban,0,0,2.024835,0,8,8,29,1,30,./stim/wavs/andalusian_match_interrogative-total-yn_Maria-bebe-el-vino.wav,./stim/wavs/argentine_match_interrogative-total-yn_Maria-bebe-el-vino.wav,./stim/wavs/castilian_match_interrogative-total-yn_Maria-bebe-el-vino.wav,./stim/wavs/chilean_match_interrogative-total-yn_Maria-bebe-el-vino.wav,./stim/wavs/cuban_match_interrogative-total-yn_Maria-bebe-el-vino.wav,./stim/wavs/mexican_match_interrogative-total-yn_Maria-bebe-el-vino.wav,./stim/wavs/peruvian_match_interrogative-total-yn_Maria-bebe-el-vino.wav,./stim/wavs/puertorican_match_interrogative-total-yn_Maria-bebe-el-vino.wav,,,,,,,,,,,,,,,,,,,,,,,,,,,,,,,,,,,,,,,,,,,,,,,,,,,,,,,,
,,,,,,,5e2ec46a316225000cf293ce,6057c54e64b0b4e5c128b4f9,605874a8583faa87ecd35c87,Spain,Northeast,13 or older,no,2021-03-22_06h43.19.826,empathy_intonation_perc,2020.2.10,Win32,60,,,,,,,,,,0,argentine,0,1,1.99877,0,9,9,45,1,46,./stim/wavs/andalusian_mismatch_declarative-narrow-focus_Mi-madre-come-la-fruta.wav,./stim/wavs/argentine_mismatch_declarative-narrow-focus_Mi-madre-come-la-fruta.wav,./stim/wavs/castilian_mismatch_declarative-narrow-focus_Mi-madre-come-la-fruta.wav,./stim/wavs/chilean_mismatch_declarative-narrow-focus_Mi-madre-come-la-fruta.wav,./stim/wavs/cuban_mismatch_declarative-narrow-focus_Mi-madre-come-la-fruta.wav,./stim/wavs/mexican_mismatch_declarative-narrow-focus_Mi-madre-come-la-fruta.wav,./stim/wavs/peruvian_mismatch_declarative-narrow-focus_Mi-madre-come-la-fruta.wav,./stim/wavs/puertorican_mismatch_declarative-narrow-focus_Mi-madre-come-la-fruta.wav,,,,,,,,,,,,,,,,,,,,,,,,,,,,,,,,,,,,,,,,,,,,,,,,,,,,,,,,
,,,,,,,5e2ec46a316225000cf293ce,6057c54e64b0b4e5c128b4f9,605874a8583faa87ecd35c87,Spain,Northeast,13 or older,no,2021-03-22_06h43.19.826,empathy_intonation_perc,2020.2.10,Win32,60,,,,,,,,,,1,andalusian,1,1,1.931505,0,10,10,28,1,29,./stim/wavs/andalusian_match_interrogative-total-yn_Manuela-vende-el-carro.wav,./stim/wavs/argentine_match_interrogative-total-yn_Manuela-vende-el-carro.wav,./stim/wavs/castilian_match_interrogative-total-yn_Manuela-vende-el-carro.wav,./stim/wavs/chilean_match_interrogative-total-yn_Manuela-vende-el-carro.wav,./stim/wavs/cuban_match_interrogative-total-yn_Manuela-vende-el-carro.wav,./stim/wavs/mexican_match_interrogative-total-yn_Manuela-vende-el-carro.wav,./stim/wavs/peruvian_match_interrogative-total-yn_Manuela-vende-el-carro.wav,./stim/wavs/puertorican_match_interrogative-total-yn_Manuela-vende-el-carro.wav,,,,,,,,,,,,,,,,,,,,,,,,,,,,,,,,,,,,,,,,,,,,,,,,,,,,,,,,
,,,,,,,5e2ec46a316225000cf293ce,6057c54e64b0b4e5c128b4f9,605874a8583faa87ecd35c87,Spain,Northeast,13 or older,no,2021-03-22_06h43.19.826,empathy_intonation_perc,2020.2.10,Win32,60,,,,,,,,,,1,cuban,1,1,1.79992,0,11,11,52,1,53,./stim/wavs/andalusian_mismatch_interrogative-partial-wh_Por-que-odiaba-la-lluvia.wav,./stim/wavs/argentine_mismatch_interrogative-partial-wh_Por-que-odiaba-la-lluvia.wav,./stim/wavs/castilian_mismatch_interrogative-partial-wh_Por-que-odiaba-la-lluvia.wav,./stim/wavs/chilean_mismatch_interrogative-partial-wh_Por-que-odiaba-la-lluvia.wav,./stim/wavs/cuban_mismatch_interrogative-partial-wh_Por-que-odiaba-la-lluvia.wav,./stim/wavs/mexican_mismatch_interrogative-partial-wh_Por-que-odiaba-la-lluvia.wav,./stim/wavs/peruvian_mismatch_interrogative-partial-wh_Por-que-odiaba-la-lluvia.wav,./stim/wavs/puertorican_mismatch_interrogative-partial-wh_Por-que-odiaba-la-lluvia.wav,,,,,,,,,,,,,,,,,,,,,,,,,,,,,,,,,,,,,,,,,,,,,,,,,,,,,,,,
,,,,,,,5e2ec46a316225000cf293ce,6057c54e64b0b4e5c128b4f9,605874a8583faa87ecd35c87,Spain,Northeast,13 or older,no,2021-03-22_06h43.19.826,empathy_intonation_perc,2020.2.10,Win32,60,,,,,,,,,,1,andalusian,1,1,1.18035,0,12,12,16,1,17,./stim/wavs/andalusian_match_interrogative-partial-wh_Cuando-bebia-el-vino.wav,./stim/wavs/argentine_match_interrogative-partial-wh_Cuando-bebia-el-vino.wav,./stim/wavs/castilian_match_interrogative-partial-wh_Cuando-bebia-el-vino.wav,./stim/wavs/chilean_match_interrogative-partial-wh_Cuando-bebia-el-vino.wav,./stim/wavs/cuban_match_interrogative-partial-wh_Cuando-bebia-el-vino.wav,./stim/wavs/mexican_match_interrogative-partial-wh_Cuando-bebia-el-vino.wav,./stim/wavs/peruvian_match_interrogative-partial-wh_Cuando-bebia-el-vino.wav,./stim/wavs/puertorican_match_interrogative-partial-wh_Cuando-bebia-el-vino.wav,,,,,,,,,,,,,,,,,,,,,,,,,,,,,,,,,,,,,,,,,,,,,,,,,,,,,,,,
,,,,,,,5e2ec46a316225000cf293ce,6057c54e64b0b4e5c128b4f9,605874a8583faa87ecd35c87,Spain,Northeast,13 or older,no,2021-03-22_06h43.19.826,empathy_intonation_perc,2020.2.10,Win32,60,,,,,,,,,,1,chilean,1,1,1.26424,0,13,13,17,1,18,./stim/wavs/andalusian_match_interrogative-partial-wh_Cuando-leia-el-libro.wav,./stim/wavs/argentine_match_interrogative-partial-wh_Cuando-leia-el-libro.wav,./stim/wavs/castilian_match_interrogative-partial-wh_Cuando-leia-el-libro.wav,./stim/wavs/chilean_match_interrogative-partial-wh_Cuando-leia-el-libro.wav,./stim/wavs/cuban_match_interrogative-partial-wh_Cuando-leia-el-libro.wav,./stim/wavs/mexican_match_interrogative-partial-wh_Cuando-leia-el-libro.wav,./stim/wavs/peruvian_match_interrogative-partial-wh_Cuando-leia-el-libro.wav,./stim/wavs/puertorican_match_interrogative-partial-wh_Cuando-leia-el-libro.wav,,,,,,,,,,,,,,,,,,,,,,,,,,,,,,,,,,,,,,,,,,,,,,,,,,,,,,,,
,,,,,,,5e2ec46a316225000cf293ce,6057c54e64b0b4e5c128b4f9,605874a8583faa87ecd35c87,Spain,Northeast,13 or older,no,2021-03-22_06h43.19.826,empathy_intonation_perc,2020.2.10,Win32,60,,,,,,,,,,0,mexican,0,1,2.794675,0,14,14,1,1,2,./stim/wavs/andalusian_match_declarative-broad-focus_Daniel-iba-a-Bolivia.wav,./stim/wavs/argentine_match_declarative-broad-focus_Daniel-iba-a-Bolivia.wav,./stim/wavs/castilian_match_declarative-broad-focus_Daniel-iba-a-Bolivia.wav,./stim/wavs/chilean_match_declarative-broad-focus_Daniel-iba-a-Bolivia.wav,./stim/wavs/cuban_match_declarative-broad-focus_Daniel-iba-a-Bolivia.wav,./stim/wavs/mexican_match_declarative-broad-focus_Daniel-iba-a-Bolivia.wav,./stim/wavs/peruvian_match_declarative-broad-focus_Daniel-iba-a-Bolivia.wav,./stim/wavs/puertorican_match_declarative-broad-focus_Daniel-iba-a-Bolivia.wav,,,,,,,,,,,,,,,,,,,,,,,,,,,,,,,,,,,,,,,,,,,,,,,,,,,,,,,,
,,,,,,,5e2ec46a316225000cf293ce,6057c54e64b0b4e5c128b4f9,605874a8583faa87ecd35c87,Spain,Northeast,13 or older,no,2021-03-22_06h43.19.826,empathy_intonation_perc,2020.2.10,Win32,60,,,,,,,,,,0,andalusian,0,1,1.75646,0,15,15,7,1,8,./stim/wavs/andalusian_match_declarative-broad-focus_Marta-abre-el-regalo.wav,./stim/wavs/argentine_match_declarative-broad-focus_Marta-abre-el-regalo.wav,./stim/wavs/castilian_match_declarative-broad-focus_Marta-abre-el-regalo.wav,./stim/wavs/chilean_match_declarative-broad-focus_Marta-abre-el-regalo.wav,./stim/wavs/cuban_match_declarative-broad-focus_Marta-abre-el-regalo.wav,./stim/wavs/mexican_match_declarative-broad-focus_Marta-abre-el-regalo.wav,./stim/wavs/peruvian_match_declarative-broad-focus_Marta-abre-el-regalo.wav,./stim/wavs/puertorican_match_declarative-broad-focus_Marta-abre-el-regalo.wav,,,,,,,,,,,,,,,,,,,,,,,,,,,,,,,,,,,,,,,,,,,,,,,,,,,,,,,,
,,,,,,,5e2ec46a316225000cf293ce,6057c54e64b0b4e5c128b4f9,605874a8583faa87ecd35c87,Spain,Northeast,13 or older,no,2021-03-22_06h43.19.826,empathy_intonation_perc,2020.2.10,Win32,60,,,,,,,,,,1,argentine,1,1,2.128645,0,16,16,61,1,62,./stim/wavs/andalusian_mismatch_interrogative-total-yn_Mi-madre-come-la-fruta.wav,./stim/wavs/argentine_mismatch_interrogative-total-yn_Mi-madre-come-la-fruta.wav,./stim/wavs/castilian_mismatch_interrogative-total-yn_Mi-madre-come-la-fruta.wav,./stim/wavs/chilean_mismatch_interrogative-total-yn_Mi-madre-come-la-fruta.wav,./stim/wavs/cuban_mismatch_interrogative-total-yn_Mi-madre-come-la-fruta.wav,./stim/wavs/mexican_mismatch_interrogative-total-yn_Mi-madre-come-la-fruta.wav,./stim/wavs/peruvian_mismatch_interrogative-total-yn_Mi-madre-come-la-fruta.wav,./stim/wavs/puertorican_mismatch_interrogative-total-yn_Mi-madre-come-la-fruta.wav,,,,,,,,,,,,,,,,,,,,,,,,,,,,,,,,,,,,,,,,,,,,,,,,,,,,,,,,
,,,,,,,5e2ec46a316225000cf293ce,6057c54e64b0b4e5c128b4f9,605874a8583faa87ecd35c87,Spain,Northeast,13 or older,no,2021-03-22_06h43.19.826,empathy_intonation_perc,2020.2.10,Win32,60,,,,,,,,,,0,argentine,0,1,1.735525,0,17,17,0,1,1,./stim/wavs/andalusian_match_declarative-broad-focus_Ana-lleva-el-abrigo.wav,./stim/wavs/argentine_match_declarative-broad-focus_Ana-lleva-el-abrigo.wav,./stim/wavs/castilian_match_declarative-broad-focus_Ana-lleva-el-abrigo.wav,./stim/wavs/chilean_match_declarative-broad-focus_Ana-lleva-el-abrigo.wav,./stim/wavs/cuban_match_declarative-broad-focus_Ana-lleva-el-abrigo.wav,./stim/wavs/mexican_match_declarative-broad-focus_Ana-lleva-el-abrigo.wav,./stim/wavs/peruvian_match_declarative-broad-focus_Ana-lleva-el-abrigo.wav,./stim/wavs/puertorican_match_declarative-broad-focus_Ana-lleva-el-abrigo.wav,,,,,,,,,,,,,,,,,,,,,,,,,,,,,,,,,,,,,,,,,,,,,,,,,,,,,,,,
,,,,,,,5e2ec46a316225000cf293ce,6057c54e64b0b4e5c128b4f9,605874a8583faa87ecd35c87,Spain,Northeast,13 or older,no,2021-03-22_06h43.19.826,empathy_intonation_perc,2020.2.10,Win32,60,,,,,,,,,,0,andalusian,0,1,2.462915,0,18,18,36,1,37,./stim/wavs/andalusian_mismatch_declarative-broad-focus_La-nina-lava-el-plato.wav,./stim/wavs/argentine_mismatch_declarative-broad-focus_La-nina-lava-el-plato.wav,./stim/wavs/castilian_mismatch_declarative-broad-focus_La-nina-lava-el-plato.wav,./stim/wavs/chilean_mismatch_declarative-broad-focus_La-nina-lava-el-plato.wav,./stim/wavs/cuban_mismatch_declarative-broad-focus_La-nina-lava-el-plato.wav,./stim/wavs/mexican_mismatch_declarative-broad-focus_La-nina-lava-el-plato.wav,./stim/wavs/peruvian_mismatch_declarative-broad-focus_La-nina-lava-el-plato.wav,./stim/wavs/puertorican_mismatch_declarative-broad-focus_La-nina-lava-el-plato.wav,,,,,,,,,,,,,,,,,,,,,,,,,,,,,,,,,,,,,,,,,,,,,,,,,,,,,,,,
,,,,,,,5e2ec46a316225000cf293ce,6057c54e64b0b4e5c128b4f9,605874a8583faa87ecd35c87,Spain,Northeast,13 or older,no,2021-03-22_06h43.19.826,empathy_intonation_perc,2020.2.10,Win32,60,,,,,,,,,,1,castilian,1,1,0.9348,0,19,19,53,1,54,./stim/wavs/andalusian_mismatch_interrogative-partial-wh_Por-que-oia-el-rio.wav,./stim/wavs/argentine_mismatch_interrogative-partial-wh_Por-que-oia-el-rio.wav,./stim/wavs/castilian_mismatch_interrogative-partial-wh_Por-que-oia-el-rio.wav,./stim/wavs/chilean_mismatch_interrogative-partial-wh_Por-que-oia-el-rio.wav,./stim/wavs/cuban_mismatch_interrogative-partial-wh_Por-que-oia-el-rio.wav,./stim/wavs/mexican_mismatch_interrogative-partial-wh_Por-que-oia-el-rio.wav,./stim/wavs/peruvian_mismatch_interrogative-partial-wh_Por-que-oia-el-rio.wav,./stim/wavs/puertorican_mismatch_interrogative-partial-wh_Por-que-oia-el-rio.wav,,,,,,,,,,,,,,,,,,,,,,,,,,,,,,,,,,,,,,,,,,,,,,,,,,,,,,,,
,,,,,,,5e2ec46a316225000cf293ce,6057c54e64b0b4e5c128b4f9,605874a8583faa87ecd35c87,Spain,Northeast,13 or older,no,2021-03-22_06h43.19.826,empathy_intonation_perc,2020.2.10,Win32,60,,,,,,,,,,1,andalusian,1,1,1.342755,0,20,20,23,1,24,./stim/wavs/andalusian_match_interrogative-partial-wh_Por-que-iba-a-Bolivia.wav,./stim/wavs/argentine_match_interrogative-partial-wh_Por-que-iba-a-Bolivia.wav,./stim/wavs/castilian_match_interrogative-partial-wh_Por-que-iba-a-Bolivia.wav,./stim/wavs/chilean_match_interrogative-partial-wh_Por-que-iba-a-Bolivia.wav,./stim/wavs/cuban_match_interrogative-partial-wh_Por-que-iba-a-Bolivia.wav,./stim/wavs/mexican_match_interrogative-partial-wh_Por-que-iba-a-Bolivia.wav,./stim/wavs/peruvian_match_interrogative-partial-wh_Por-que-iba-a-Bolivia.wav,./stim/wavs/puertorican_match_interrogative-partial-wh_Por-que-iba-a-Bolivia.wav,,,,,,,,,,,,,,,,,,,,,,,,,,,,,,,,,,,,,,,,,,,,,,,,,,,,,,,,
,,,,,,,5e2ec46a316225000cf293ce,6057c54e64b0b4e5c128b4f9,605874a8583faa87ecd35c87,Spain,Northeast,13 or older,no,2021-03-22_06h43.19.826,empathy_intonation_perc,2020.2.10,Win32,60,,,,,,,,,,1,argentine,1,1,2.823945,0,21,21,25,1,26,./stim/wavs/andalusian_match_interrogative-total-yn_Daniel-iba-a-Bolivia.wav,./stim/wavs/argentine_match_interrogative-total-yn_Daniel-iba-a-Bolivia.wav,./stim/wavs/castilian_match_interrogative-total-yn_Daniel-iba-a-Bolivia.wav,./stim/wavs/chilean_match_interrogative-total-yn_Daniel-iba-a-Bolivia.wav,./stim/wavs/cuban_match_interrogative-total-yn_Daniel-iba-a-Bolivia.wav,./stim/wavs/mexican_match_interrogative-total-yn_Daniel-iba-a-Bolivia.wav,./stim/wavs/peruvian_match_interrogative-total-yn_Daniel-iba-a-Bolivia.wav,./stim/wavs/puertorican_match_interrogative-total-yn_Daniel-iba-a-Bolivia.wav,,,,,,,,,,,,,,,,,,,,,,,,,,,,,,,,,,,,,,,,,,,,,,,,,,,,,,,,
,,,,,,,5e2ec46a316225000cf293ce,6057c54e64b0b4e5c128b4f9,605874a8583faa87ecd35c87,Spain,Northeast,13 or older,no,2021-03-22_06h43.19.826,empathy_intonation_perc,2020.2.10,Win32,60,,,,,,,,,,0,andalusian,0,1,2.28676,0,22,22,37,1,38,./stim/wavs/andalusian_mismatch_declarative-broad-focus_Mi-madre-come-la-fruta.wav,./stim/wavs/argentine_mismatch_declarative-broad-focus_Mi-madre-come-la-fruta.wav,./stim/wavs/castilian_mismatch_declarative-broad-focus_Mi-madre-come-la-fruta.wav,./stim/wavs/chilean_mismatch_declarative-broad-focus_Mi-madre-come-la-fruta.wav,./stim/wavs/cuban_mismatch_declarative-broad-focus_Mi-madre-come-la-fruta.wav,./stim/wavs/mexican_mismatch_declarative-broad-focus_Mi-madre-come-la-fruta.wav,./stim/wavs/peruvian_mismatch_declarative-broad-focus_Mi-madre-come-la-fruta.wav,./stim/wavs/puertorican_mismatch_declarative-broad-focus_Mi-madre-come-la-fruta.wav,,,,,,,,,,,,,,,,,,,,,,,,,,,,,,,,,,,,,,,,,,,,,,,,,,,,,,,,
,,,,,,,5e2ec46a316225000cf293ce,6057c54e64b0b4e5c128b4f9,605874a8583faa87ecd35c87,Spain,Northeast,13 or older,no,2021-03-22_06h43.19.826,empathy_intonation_perc,2020.2.10,Win32,60,,,,,,,,,,1,mexican,1,1,2.8397,0,23,23,21,1,22,./stim/wavs/andalusian_match_interrogative-partial-wh_Por-que-ama-la-navidad.wav,./stim/wavs/argentine_match_interrogative-partial-wh_Por-que-ama-la-navidad.wav,./stim/wavs/castilian_match_interrogative-partial-wh_Por-que-ama-la-navidad.wav,./stim/wavs/chilean_match_interrogative-partial-wh_Por-que-ama-la-navidad.wav,./stim/wavs/cuban_match_interrogative-partial-wh_Por-que-ama-la-navidad.wav,./stim/wavs/mexican_match_interrogative-partial-wh_Por-que-ama-la-navidad.wav,./stim/wavs/peruvian_match_interrogative-partial-wh_Por-que-ama-la-navidad.wav,./stim/wavs/puertorican_match_interrogative-partial-wh_Por-que-ama-la-navidad.wav,,,,,,,,,,,,,,,,,,,,,,,,,,,,,,,,,,,,,,,,,,,,,,,,,,,,,,,,
,,,,,,,5e2ec46a316225000cf293ce,6057c54e64b0b4e5c128b4f9,605874a8583faa87ecd35c87,Spain,Northeast,13 or older,no,2021-03-22_06h43.19.826,empathy_intonation_perc,2020.2.10,Win32,60,,,,,,,,,,1,mexican,1,1,1.67502,0,24,24,57,1,58,./stim/wavs/andalusian_mismatch_interrogative-total-yn_El-hombre-mira-la-luna.wav,./stim/wavs/argentine_mismatch_interrogative-total-yn_El-hombre-mira-la-luna.wav,./stim/wavs/castilian_mismatch_interrogative-total-yn_El-hombre-mira-la-luna.wav,./stim/wavs/chilean_mismatch_interrogative-total-yn_El-hombre-mira-la-luna.wav,./stim/wavs/cuban_mismatch_interrogative-total-yn_El-hombre-mira-la-luna.wav,./stim/wavs/mexican_mismatch_interrogative-total-yn_El-hombre-mira-la-luna.wav,./stim/wavs/peruvian_mismatch_interrogative-total-yn_El-hombre-mira-la-luna.wav,./stim/wavs/puertorican_mismatch_interrogative-total-yn_El-hombre-mira-la-luna.wav,,,,,,,,,,,,,,,,,,,,,,,,,,,,,,,,,,,,,,,,,,,,,,,,,,,,,,,,
,,,,,,,5e2ec46a316225000cf293ce,6057c54e64b0b4e5c128b4f9,605874a8583faa87ecd35c87,Spain,Northeast,13 or older,no,2021-03-22_06h43.19.826,empathy_intonation_perc,2020.2.10,Win32,60,,,,,,,,,,1,chilean,0,0,1.916125,0,25,25,30,1,31,./stim/wavs/andalusian_match_interrogative-total-yn_Mariano-habla-del-tiempo.wav,./stim/wavs/argentine_match_interrogative-total-yn_Mariano-habla-del-tiempo.wav,./stim/wavs/castilian_match_interrogative-total-yn_Mariano-habla-del-tiempo.wav,./stim/wavs/chilean_match_interrogative-total-yn_Mariano-habla-del-tiempo.wav,./stim/wavs/cuban_match_interrogative-total-yn_Mariano-habla-del-tiempo.wav,./stim/wavs/mexican_match_interrogative-total-yn_Mariano-habla-del-tiempo.wav,./stim/wavs/peruvian_match_interrogative-total-yn_Mariano-habla-del-tiempo.wav,./stim/wavs/puertorican_match_interrogative-total-yn_Mariano-habla-del-tiempo.wav,,,,,,,,,,,,,,,,,,,,,,,,,,,,,,,,,,,,,,,,,,,,,,,,,,,,,,,,
,,,,,,,5e2ec46a316225000cf293ce,6057c54e64b0b4e5c128b4f9,605874a8583faa87ecd35c87,Spain,Northeast,13 or older,no,2021-03-22_06h43.19.826,empathy_intonation_perc,2020.2.10,Win32,60,,,,,,,,,,0,peruvian,0,1,1.81046,0,26,26,10,1,11,./stim/wavs/andalusian_match_declarative-narrow-focus_David-leia-el-libro.wav,./stim/wavs/argentine_match_declarative-narrow-focus_David-leia-el-libro.wav,./stim/wavs/castilian_match_declarative-narrow-focus_David-leia-el-libro.wav,./stim/wavs/chilean_match_declarative-narrow-focus_David-leia-el-libro.wav,./stim/wavs/cuban_match_declarative-narrow-focus_David-leia-el-libro.wav,./stim/wavs/mexican_match_declarative-narrow-focus_David-leia-el-libro.wav,./stim/wavs/peruvian_match_declarative-narrow-focus_David-leia-el-libro.wav,./stim/wavs/puertorican_match_declarative-narrow-focus_David-leia-el-libro.wav,,,,,,,,,,,,,,,,,,,,,,,,,,,,,,,,,,,,,,,,,,,,,,,,,,,,,,,,
,,,,,,,5e2ec46a316225000cf293ce,6057c54e64b0b4e5c128b4f9,605874a8583faa87ecd35c87,Spain,Northeast,13 or older,no,2021-03-22_06h43.19.826,empathy_intonation_perc,2020.2.10,Win32,60,,,,,,,,,,1,puertorican,1,1,1.585105,0,27,27,22,1,23,./stim/wavs/andalusian_match_interrogative-partial-wh_Por-que-hablaba-del-agua.wav,./stim/wavs/argentine_match_interrogative-partial-wh_Por-que-hablaba-del-agua.wav,./stim/wavs/castilian_match_interrogative-partial-wh_Por-que-hablaba-del-agua.wav,./stim/wavs/chilean_match_interrogative-partial-wh_Por-que-hablaba-del-agua.wav,./stim/wavs/cuban_match_interrogative-partial-wh_Por-que-hablaba-del-agua.wav,./stim/wavs/mexican_match_interrogative-partial-wh_Por-que-hablaba-del-agua.wav,./stim/wavs/peruvian_match_interrogative-partial-wh_Por-que-hablaba-del-agua.wav,./stim/wavs/puertorican_match_interrogative-partial-wh_Por-que-hablaba-del-agua.wav,,,,,,,,,,,,,,,,,,,,,,,,,,,,,,,,,,,,,,,,,,,,,,,,,,,,,,,,
,,,,,,,5e2ec46a316225000cf293ce,6057c54e64b0b4e5c128b4f9,605874a8583faa87ecd35c87,Spain,Northeast,13 or older,no,2021-03-22_06h43.19.826,empathy_intonation_perc,2020.2.10,Win32,60,,,,,,,,,,0,chilean,0,1,2.59016,0,28,28,40,1,41,./stim/wavs/andalusian_mismatch_declarative-narrow-focus_El-bebe-comia-muy-bien.wav,./stim/wavs/argentine_mismatch_declarative-narrow-focus_El-bebe-comia-muy-bien.wav,./stim/wavs/castilian_mismatch_declarative-narrow-focus_El-bebe-comia-muy-bien.wav,./stim/wavs/chilean_mismatch_declarative-narrow-focus_El-bebe-comia-muy-bien.wav,./stim/wavs/cuban_mismatch_declarative-narrow-focus_El-bebe-comia-muy-bien.wav,./stim/wavs/mexican_mismatch_declarative-narrow-focus_El-bebe-comia-muy-bien.wav,./stim/wavs/peruvian_mismatch_declarative-narrow-focus_El-bebe-comia-muy-bien.wav,./stim/wavs/puertorican_mismatch_declarative-narrow-focus_El-bebe-comia-muy-bien.wav,,,,,,,,,,,,,,,,,,,,,,,,,,,,,,,,,,,,,,,,,,,,,,,,,,,,,,,,
,,,,,,,5e2ec46a316225000cf293ce,6057c54e64b0b4e5c128b4f9,605874a8583faa87ecd35c87,Spain,Northeast,13 or older,no,2021-03-22_06h43.19.826,empathy_intonation_perc,2020.2.10,Win32,60,,,,,,,,,,1,andalusian,1,1,2.470875,0,29,29,59,1,60,./stim/wavs/andalusian_mismatch_interrogative-total-yn_La-maestra-vive-en-Paris.wav,./stim/wavs/argentine_mismatch_interrogative-total-yn_La-maestra-vive-en-Paris.wav,./stim/wavs/castilian_mismatch_interrogative-total-yn_La-maestra-vive-en-Paris.wav,./stim/wavs/chilean_mismatch_interrogative-total-yn_La-maestra-vive-en-Paris.wav,./stim/wavs/cuban_mismatch_interrogative-total-yn_La-maestra-vive-en-Paris.wav,./stim/wavs/mexican_mismatch_interrogative-total-yn_La-maestra-vive-en-Paris.wav,./stim/wavs/peruvian_mismatch_interrogative-total-yn_La-maestra-vive-en-Paris.wav,./stim/wavs/puertorican_mismatch_interrogative-total-yn_La-maestra-vive-en-Paris.wav,,,,,,,,,,,,,,,,,,,,,,,,,,,,,,,,,,,,,,,,,,,,,,,,,,,,,,,,
,,,,,,,5e2ec46a316225000cf293ce,6057c54e64b0b4e5c128b4f9,605874a8583faa87ecd35c87,Spain,Northeast,13 or older,no,2021-03-22_06h43.19.826,empathy_intonation_perc,2020.2.10,Win32,60,,,,,,,,,,1,andalusian,1,1,1.611855,0,30,30,58,1,59,./stim/wavs/andalusian_mismatch_interrogative-total-yn_El-nino-oye-el-rio.wav,./stim/wavs/argentine_mismatch_interrogative-total-yn_El-nino-oye-el-rio.wav,./stim/wavs/castilian_mismatch_interrogative-total-yn_El-nino-oye-el-rio.wav,./stim/wavs/chilean_mismatch_interrogative-total-yn_El-nino-oye-el-rio.wav,./stim/wavs/cuban_mismatch_interrogative-total-yn_El-nino-oye-el-rio.wav,./stim/wavs/mexican_mismatch_interrogative-total-yn_El-nino-oye-el-rio.wav,./stim/wavs/peruvian_mismatch_interrogative-total-yn_El-nino-oye-el-rio.wav,./stim/wavs/puertorican_mismatch_interrogative-total-yn_El-nino-oye-el-rio.wav,,,,,,,,,,,,,,,,,,,,,,,,,,,,,,,,,,,,,,,,,,,,,,,,,,,,,,,,
,,,,,,,5e2ec46a316225000cf293ce,6057c54e64b0b4e5c128b4f9,605874a8583faa87ecd35c87,Spain,Northeast,13 or older,no,2021-03-22_06h43.19.826,empathy_intonation_perc,2020.2.10,Win32,60,,,,,,,,,,1,peruvian,1,1,3.947935,0,31,31,18,1,19,./stim/wavs/andalusian_match_interrogative-partial-wh_Cuando-lleva-el-abrigo.wav,./stim/wavs/argentine_match_interrogative-partial-wh_Cuando-lleva-el-abrigo.wav,./stim/wavs/castilian_match_interrogative-partial-wh_Cuando-lleva-el-abrigo.wav,./stim/wavs/chilean_match_interrogative-partial-wh_Cuando-lleva-el-abrigo.wav,./stim/wavs/cuban_match_interrogative-partial-wh_Cuando-lleva-el-abrigo.wav,./stim/wavs/mexican_match_interrogative-partial-wh_Cuando-lleva-el-abrigo.wav,./stim/wavs/peruvian_match_interrogative-partial-wh_Cuando-lleva-el-abrigo.wav,./stim/wavs/puertorican_match_interrogative-partial-wh_Cuando-lleva-el-abrigo.wav,,,,,,,,,,,,,,,,,,,,,,,,,,,,,,,,,,,,,,,,,,,,,,,,,,,,,,,,
,,,,,,,5e2ec46a316225000cf293ce,6057c54e64b0b4e5c128b4f9,605874a8583faa87ecd35c87,Spain,Northeast,13 or older,no,2021-03-22_06h43.19.826,empathy_intonation_perc,2020.2.10,Win32,60,,,,,,,,,,0,peruvian,0,1,1.867875,0,32,32,44,1,45,./stim/wavs/andalusian_mismatch_declarative-narrow-focus_La-nina-lava-el-plato.wav,./stim/wavs/argentine_mismatch_declarative-narrow-focus_La-nina-lava-el-plato.wav,./stim/wavs/castilian_mismatch_declarative-narrow-focus_La-nina-lava-el-plato.wav,./stim/wavs/chilean_mismatch_declarative-narrow-focus_La-nina-lava-el-plato.wav,./stim/wavs/cuban_mismatch_declarative-narrow-focus_La-nina-lava-el-plato.wav,./stim/wavs/mexican_mismatch_declarative-narrow-focus_La-nina-lava-el-plato.wav,./stim/wavs/peruvian_mismatch_declarative-narrow-focus_La-nina-lava-el-plato.wav,./stim/wavs/puertorican_mismatch_declarative-narrow-focus_La-nina-lava-el-plato.wav,,,,,,,,,,,,,,,,,,,,,,,,,,,,,,,,,,,,,,,,,,,,,,,,,,,,,,,,
,,,,,,,5e2ec46a316225000cf293ce,6057c54e64b0b4e5c128b4f9,605874a8583faa87ecd35c87,Spain,Northeast,13 or older,no,2021-03-22_06h43.19.826,empathy_intonation_perc,2020.2.10,Win32,60,,,,,,,,,,0,argentine,0,1,1.819785,0,33,33,32,1,33,./stim/wavs/andalusian_mismatch_declarative-broad-focus_El-bebe-comia-muy-bien.wav,./stim/wavs/argentine_mismatch_declarative-broad-focus_El-bebe-comia-muy-bien.wav,./stim/wavs/castilian_mismatch_declarative-broad-focus_El-bebe-comia-muy-bien.wav,./stim/wavs/chilean_mismatch_declarative-broad-focus_El-bebe-comia-muy-bien.wav,./stim/wavs/cuban_mismatch_declarative-broad-focus_El-bebe-comia-muy-bien.wav,./stim/wavs/mexican_mismatch_declarative-broad-focus_El-bebe-comia-muy-bien.wav,./stim/wavs/peruvian_mismatch_declarative-broad-focus_El-bebe-comia-muy-bien.wav,./stim/wavs/puertorican_mismatch_declarative-broad-focus_El-bebe-comia-muy-bien.wav,,,,,,,,,,,,,,,,,,,,,,,,,,,,,,,,,,,,,,,,,,,,,,,,,,,,,,,,
,,,,,,,5e2ec46a316225000cf293ce,6057c54e64b0b4e5c128b4f9,605874a8583faa87ecd35c87,Spain,Northeast,13 or older,no,2021-03-22_06h43.19.826,empathy_intonation_perc,2020.2.10,Win32,60,,,,,,,,,,1,cuban,0,0,1.669275,0,34,34,63,1,64,./stim/wavs/andalusian_mismatch_interrogative-total-yn_Mi-tia-odia-la-lluvia.wav,./stim/wavs/argentine_mismatch_interrogative-total-yn_Mi-tia-odia-la-lluvia.wav,./stim/wavs/castilian_mismatch_interrogative-total-yn_Mi-tia-odia-la-lluvia.wav,./stim/wavs/chilean_mismatch_interrogative-total-yn_Mi-tia-odia-la-lluvia.wav,./stim/wavs/cuban_mismatch_interrogative-total-yn_Mi-tia-odia-la-lluvia.wav,./stim/wavs/mexican_mismatch_interrogative-total-yn_Mi-tia-odia-la-lluvia.wav,./stim/wavs/peruvian_mismatch_interrogative-total-yn_Mi-tia-odia-la-lluvia.wav,./stim/wavs/puertorican_mismatch_interrogative-total-yn_Mi-tia-odia-la-lluvia.wav,,,,,,,,,,,,,,,,,,,,,,,,,,,,,,,,,,,,,,,,,,,,,,,,,,,,,,,,
,,,,,,,5e2ec46a316225000cf293ce,6057c54e64b0b4e5c128b4f9,605874a8583faa87ecd35c87,Spain,Northeast,13 or older,no,2021-03-22_06h43.19.826,empathy_intonation_perc,2020.2.10,Win32,60,,,,,,,,,,0,mexican,0,1,2.491245,0,35,35,41,1,42,./stim/wavs/andalusian_mismatch_declarative-narrow-focus_El-hombre-mira-la-luna.wav,./stim/wavs/argentine_mismatch_declarative-narrow-focus_El-hombre-mira-la-luna.wav,./stim/wavs/castilian_mismatch_declarative-narrow-focus_El-hombre-mira-la-luna.wav,./stim/wavs/chilean_mismatch_declarative-narrow-focus_El-hombre-mira-la-luna.wav,./stim/wavs/cuban_mismatch_declarative-narrow-focus_El-hombre-mira-la-luna.wav,./stim/wavs/mexican_mismatch_declarative-narrow-focus_El-hombre-mira-la-luna.wav,./stim/wavs/peruvian_mismatch_declarative-narrow-focus_El-hombre-mira-la-luna.wav,./stim/wavs/puertorican_mismatch_declarative-narrow-focus_El-hombre-mira-la-luna.wav,,,,,,,,,,,,,,,,,,,,,,,,,,,,,,,,,,,,,,,,,,,,,,,,,,,,,,,,
,,,,,,,5e2ec46a316225000cf293ce,6057c54e64b0b4e5c128b4f9,605874a8583faa87ecd35c87,Spain,Northeast,13 or older,no,2021-03-22_06h43.19.826,empathy_intonation_perc,2020.2.10,Win32,60,,,,,,,,,,0,andalusian,0,1,1.60156,0,36,36,12,1,13,./stim/wavs/andalusian_match_declarative-narrow-focus_Manuela-vende-el-carro.wav,./stim/wavs/argentine_match_declarative-narrow-focus_Manuela-vende-el-carro.wav,./stim/wavs/castilian_match_declarative-narrow-focus_Manuela-vende-el-carro.wav,./stim/wavs/chilean_match_declarative-narrow-focus_Manuela-vende-el-carro.wav,./stim/wavs/cuban_match_declarative-narrow-focus_Manuela-vende-el-carro.wav,./stim/wavs/mexican_match_declarative-narrow-focus_Manuela-vende-el-carro.wav,./stim/wavs/peruvian_match_declarative-narrow-focus_Manuela-vende-el-carro.wav,./stim/wavs/puertorican_match_declarative-narrow-focus_Manuela-vende-el-carro.wav,,,,,,,,,,,,,,,,,,,,,,,,,,,,,,,,,,,,,,,,,,,,,,,,,,,,,,,,
,,,,,,,5e2ec46a316225000cf293ce,6057c54e64b0b4e5c128b4f9,605874a8583faa87ecd35c87,Spain,Northeast,13 or older,no,2021-03-22_06h43.19.826,empathy_intonation_perc,2020.2.10,Win32,60,,,,,,,,,,0,andalusian,0,1,1.90958,0,37,37,34,1,35,./stim/wavs/andalusian_mismatch_declarative-broad-focus_El-nino-oye-el-rio.wav,./stim/wavs/argentine_mismatch_declarative-broad-focus_El-nino-oye-el-rio.wav,./stim/wavs/castilian_mismatch_declarative-broad-focus_El-nino-oye-el-rio.wav,./stim/wavs/chilean_mismatch_declarative-broad-focus_El-nino-oye-el-rio.wav,./stim/wavs/cuban_mismatch_declarative-broad-focus_El-nino-oye-el-rio.wav,./stim/wavs/mexican_mismatch_declarative-broad-focus_El-nino-oye-el-rio.wav,./stim/wavs/peruvian_mismatch_declarative-broad-focus_El-nino-oye-el-rio.wav,./stim/wavs/puertorican_mismatch_declarative-broad-focus_El-nino-oye-el-rio.wav,,,,,,,,,,,,,,,,,,,,,,,,,,,,,,,,,,,,,,,,,,,,,,,,,,,,,,,,
,,,,,,,5e2ec46a316225000cf293ce,6057c54e64b0b4e5c128b4f9,605874a8583faa87ecd35c87,Spain,Northeast,13 or older,no,2021-03-22_06h43.19.826,empathy_intonation_perc,2020.2.10,Win32,60,,,,,,,,,,0,puertorican,0,1,3.286015,0,38,38,6,1,7,./stim/wavs/andalusian_match_declarative-broad-focus_Mariano-habla-del-tiempo.wav,./stim/wavs/argentine_match_declarative-broad-focus_Mariano-habla-del-tiempo.wav,./stim/wavs/castilian_match_declarative-broad-focus_Mariano-habla-del-tiempo.wav,./stim/wavs/chilean_match_declarative-broad-focus_Mariano-habla-del-tiempo.wav,./stim/wavs/cuban_match_declarative-broad-focus_Mariano-habla-del-tiempo.wav,./stim/wavs/mexican_match_declarative-broad-focus_Mariano-habla-del-tiempo.wav,./stim/wavs/peruvian_match_declarative-broad-focus_Mariano-habla-del-tiempo.wav,./stim/wavs/puertorican_match_declarative-broad-focus_Mariano-habla-del-tiempo.wav,,,,,,,,,,,,,,,,,,,,,,,,,,,,,,,,,,,,,,,,,,,,,,,,,,,,,,,,
,,,,,,,5e2ec46a316225000cf293ce,6057c54e64b0b4e5c128b4f9,605874a8583faa87ecd35c87,Spain,Northeast,13 or older,no,2021-03-22_06h43.19.826,empathy_intonation_perc,2020.2.10,Win32,60,,,,,,,,,,0,cuban,0,1,1.986025,0,39,39,43,1,44,./stim/wavs/andalusian_mismatch_declarative-narrow-focus_La-maestra-vive-en-Paris.wav,./stim/wavs/argentine_mismatch_declarative-narrow-focus_La-maestra-vive-en-Paris.wav,./stim/wavs/castilian_mismatch_declarative-narrow-focus_La-maestra-vive-en-Paris.wav,./stim/wavs/chilean_mismatch_declarative-narrow-focus_La-maestra-vive-en-Paris.wav,./stim/wavs/cuban_mismatch_declarative-narrow-focus_La-maestra-vive-en-Paris.wav,./stim/wavs/mexican_mismatch_declarative-narrow-focus_La-maestra-vive-en-Paris.wav,./stim/wavs/peruvian_mismatch_declarative-narrow-focus_La-maestra-vive-en-Paris.wav,./stim/wavs/puertorican_mismatch_declarative-narrow-focus_La-maestra-vive-en-Paris.wav,,,,,,,,,,,,,,,,,,,,,,,,,,,,,,,,,,,,,,,,,,,,,,,,,,,,,,,,
,,,,,,,5e2ec46a316225000cf293ce,6057c54e64b0b4e5c128b4f9,605874a8583faa87ecd35c87,Spain,Northeast,13 or older,no,2021-03-22_06h43.19.826,empathy_intonation_perc,2020.2.10,Win32,60,,,,,,,,,,1,argentine,1,1,1.674405,0,40,40,31,1,32,./stim/wavs/andalusian_match_interrogative-total-yn_Marta-abre-el-regalo.wav,./stim/wavs/argentine_match_interrogative-total-yn_Marta-abre-el-regalo.wav,./stim/wavs/castilian_match_interrogative-total-yn_Marta-abre-el-regalo.wav,./stim/wavs/chilean_match_interrogative-total-yn_Marta-abre-el-regalo.wav,./stim/wavs/cuban_match_interrogative-total-yn_Marta-abre-el-regalo.wav,./stim/wavs/mexican_match_interrogative-total-yn_Marta-abre-el-regalo.wav,./stim/wavs/peruvian_match_interrogative-total-yn_Marta-abre-el-regalo.wav,./stim/wavs/puertorican_match_interrogative-total-yn_Marta-abre-el-regalo.wav,,,,,,,,,,,,,,,,,,,,,,,,,,,,,,,,,,,,,,,,,,,,,,,,,,,,,,,,
,,,,,,,5e2ec46a316225000cf293ce,6057c54e64b0b4e5c128b4f9,605874a8583faa87ecd35c87,Spain,Northeast,13 or older,no,2021-03-22_06h43.19.826,empathy_intonation_perc,2020.2.10,Win32,60,,,,,,,,,,1,andalusian,1,1,2.352505,0,41,41,56,1,57,./stim/wavs/andalusian_mismatch_interrogative-total-yn_El-bebe-comia-muy-bien.wav,./stim/wavs/argentine_mismatch_interrogative-total-yn_El-bebe-comia-muy-bien.wav,./stim/wavs/castilian_mismatch_interrogative-total-yn_El-bebe-comia-muy-bien.wav,./stim/wavs/chilean_mismatch_interrogative-total-yn_El-bebe-comia-muy-bien.wav,./stim/wavs/cuban_mismatch_interrogative-total-yn_El-bebe-comia-muy-bien.wav,./stim/wavs/mexican_mismatch_interrogative-total-yn_El-bebe-comia-muy-bien.wav,./stim/wavs/peruvian_mismatch_interrogative-total-yn_El-bebe-comia-muy-bien.wav,./stim/wavs/puertorican_mismatch_interrogative-total-yn_El-bebe-comia-muy-bien.wav,,,,,,,,,,,,,,,,,,,,,,,,,,,,,,,,,,,,,,,,,,,,,,,,,,,,,,,,
,,,,,,,5e2ec46a316225000cf293ce,6057c54e64b0b4e5c128b4f9,605874a8583faa87ecd35c87,Spain,Northeast,13 or older,no,2021-03-22_06h43.19.826,empathy_intonation_perc,2020.2.10,Win32,60,,,,,,,,,,1,cuban,0,0,1.782315,0,42,42,55,1,56,./stim/wavs/andalusian_mismatch_interrogative-partial-wh_Por-que-vivia-en-Paris.wav,./stim/wavs/argentine_mismatch_interrogative-partial-wh_Por-que-vivia-en-Paris.wav,./stim/wavs/castilian_mismatch_interrogative-partial-wh_Por-que-vivia-en-Paris.wav,./stim/wavs/chilean_mismatch_interrogative-partial-wh_Por-que-vivia-en-Paris.wav,./stim/wavs/cuban_mismatch_interrogative-partial-wh_Por-que-vivia-en-Paris.wav,./stim/wavs/mexican_mismatch_interrogative-partial-wh_Por-que-vivia-en-Paris.wav,./stim/wavs/peruvian_mismatch_interrogative-partial-wh_Por-que-vivia-en-Paris.wav,./stim/wavs/puertorican_mismatch_interrogative-partial-wh_Por-que-vivia-en-Paris.wav,,,,,,,,,,,,,,,,,,,,,,,,,,,,,,,,,,,,,,,,,,,,,,,,,,,,,,,,
,,,,,,,5e2ec46a316225000cf293ce,6057c54e64b0b4e5c128b4f9,605874a8583faa87ecd35c87,Spain,Northeast,13 or older,no,2021-03-22_06h43.19.826,empathy_intonation_perc,2020.2.10,Win32,60,,,,,,,,,,1,chilean,1,1,1.688545,0,43,43,26,1,27,./stim/wavs/andalusian_match_interrogative-total-yn_David-leia-el-libro.wav,./stim/wavs/argentine_match_interrogative-total-yn_David-leia-el-libro.wav,./stim/wavs/castilian_match_interrogative-total-yn_David-leia-el-libro.wav,./stim/wavs/chilean_match_interrogative-total-yn_David-leia-el-libro.wav,./stim/wavs/cuban_match_interrogative-total-yn_David-leia-el-libro.wav,./stim/wavs/mexican_match_interrogative-total-yn_David-leia-el-libro.wav,./stim/wavs/peruvian_match_interrogative-total-yn_David-leia-el-libro.wav,./stim/wavs/puertorican_match_interrogative-total-yn_David-leia-el-libro.wav,,,,,,,,,,,,,,,,,,,,,,,,,,,,,,,,,,,,,,,,,,,,,,,,,,,,,,,,
,,,,,,,5e2ec46a316225000cf293ce,6057c54e64b0b4e5c128b4f9,605874a8583faa87ecd35c87,Spain,Northeast,13 or older,no,2021-03-22_06h43.19.826,empathy_intonation_perc,2020.2.10,Win32,60,,,,,,,,,,1,cuban,0,0,1.675435,0,44,44,19,1,20,./stim/wavs/andalusian_match_interrogative-partial-wh_Cuando-vendia-el-carro.wav,./stim/wavs/argentine_match_interrogative-partial-wh_Cuando-vendia-el-carro.wav,./stim/wavs/castilian_match_interrogative-partial-wh_Cuando-vendia-el-carro.wav,./stim/wavs/chilean_match_interrogative-partial-wh_Cuando-vendia-el-carro.wav,./stim/wavs/cuban_match_interrogative-partial-wh_Cuando-vendia-el-carro.wav,./stim/wavs/mexican_match_interrogative-partial-wh_Cuando-vendia-el-carro.wav,./stim/wavs/peruvian_match_interrogative-partial-wh_Cuando-vendia-el-carro.wav,./stim/wavs/puertorican_match_interrogative-partial-wh_Cuando-vendia-el-carro.wav,,,,,,,,,,,,,,,,,,,,,,,,,,,,,,,,,,,,,,,,,,,,,,,,,,,,,,,,
,,,,,,,5e2ec46a316225000cf293ce,6057c54e64b0b4e5c128b4f9,605874a8583faa87ecd35c87,Spain,Northeast,13 or older,no,2021-03-22_06h43.19.826,empathy_intonation_perc,2020.2.10,Win32,60,,,,,,,,,,0,argentine,0,1,1.57134,0,45,45,9,1,10,./stim/wavs/andalusian_match_declarative-narrow-focus_Daniel-iba-a-Bolivia.wav,./stim/wavs/argentine_match_declarative-narrow-focus_Daniel-iba-a-Bolivia.wav,./stim/wavs/castilian_match_declarative-narrow-focus_Daniel-iba-a-Bolivia.wav,./stim/wavs/chilean_match_declarative-narrow-focus_Daniel-iba-a-Bolivia.wav,./stim/wavs/cuban_match_declarative-narrow-focus_Daniel-iba-a-Bolivia.wav,./stim/wavs/mexican_match_declarative-narrow-focus_Daniel-iba-a-Bolivia.wav,./stim/wavs/peruvian_match_declarative-narrow-focus_Daniel-iba-a-Bolivia.wav,./stim/wavs/puertorican_match_declarative-narrow-focus_Daniel-iba-a-Bolivia.wav,,,,,,,,,,,,,,,,,,,,,,,,,,,,,,,,,,,,,,,,,,,,,,,,,,,,,,,,
,,,,,,,5e2ec46a316225000cf293ce,6057c54e64b0b4e5c128b4f9,605874a8583faa87ecd35c87,Spain,Northeast,13 or older,no,2021-03-22_06h43.19.826,empathy_intonation_perc,2020.2.10,Win32,60,,,,,,,,,,0,argentine,0,1,1.683965,0,46,46,33,1,34,./stim/wavs/andalusian_mismatch_declarative-broad-focus_El-hombre-mira-la-luna.wav,./stim/wavs/argentine_mismatch_declarative-broad-focus_El-hombre-mira-la-luna.wav,./stim/wavs/castilian_mismatch_declarative-broad-focus_El-hombre-mira-la-luna.wav,./stim/wavs/chilean_mismatch_declarative-broad-focus_El-hombre-mira-la-luna.wav,./stim/wavs/cuban_mismatch_declarative-broad-focus_El-hombre-mira-la-luna.wav,./stim/wavs/mexican_mismatch_declarative-broad-focus_El-hombre-mira-la-luna.wav,./stim/wavs/peruvian_mismatch_declarative-broad-focus_El-hombre-mira-la-luna.wav,./stim/wavs/puertorican_mismatch_declarative-broad-focus_El-hombre-mira-la-luna.wav,,,,,,,,,,,,,,,,,,,,,,,,,,,,,,,,,,,,,,,,,,,,,,,,,,,,,,,,
,,,,,,,5e2ec46a316225000cf293ce,6057c54e64b0b4e5c128b4f9,605874a8583faa87ecd35c87,Spain,Northeast,13 or older,no,2021-03-22_06h43.19.826,empathy_intonation_perc,2020.2.10,Win32,60,,,,,,,,,,0,puertorican,0,1,1.951305,0,47,47,11,1,12,./stim/wavs/andalusian_match_declarative-narrow-focus_Emilio-ama-la-marcha.wav,./stim/wavs/argentine_match_declarative-narrow-focus_Emilio-ama-la-marcha.wav,./stim/wavs/castilian_match_declarative-narrow-focus_Emilio-ama-la-marcha.wav,./stim/wavs/chilean_match_declarative-narrow-focus_Emilio-ama-la-marcha.wav,./stim/wavs/cuban_match_declarative-narrow-focus_Emilio-ama-la-marcha.wav,./stim/wavs/mexican_match_declarative-narrow-focus_Emilio-ama-la-marcha.wav,./stim/wavs/peruvian_match_declarative-narrow-focus_Emilio-ama-la-marcha.wav,./stim/wavs/puertorican_match_declarative-narrow-focus_Emilio-ama-la-marcha.wav,,,,,,,,,,,,,,,,,,,,,,,,,,,,,,,,,,,,,,,,,,,,,,,,,,,,,,,,
,,,,,,,5e2ec46a316225000cf293ce,6057c54e64b0b4e5c128b4f9,605874a8583faa87ecd35c87,Spain,Northeast,13 or older,no,2021-03-22_06h43.19.826,empathy_intonation_perc,2020.2.10,Win32,60,,,,,,,,,,0,puertorican,0,1,2.18388,0,48,48,15,1,16,./stim/wavs/andalusian_match_declarative-narrow-focus_Marta-abre-el-regalo.wav,./stim/wavs/argentine_match_declarative-narrow-focus_Marta-abre-el-regalo.wav,./stim/wavs/castilian_match_declarative-narrow-focus_Marta-abre-el-regalo.wav,./stim/wavs/chilean_match_declarative-narrow-focus_Marta-abre-el-regalo.wav,./stim/wavs/cuban_match_declarative-narrow-focus_Marta-abre-el-regalo.wav,./stim/wavs/mexican_match_declarative-narrow-focus_Marta-abre-el-regalo.wav,./stim/wavs/peruvian_match_declarative-narrow-focus_Marta-abre-el-regalo.wav,./stim/wavs/puertorican_match_declarative-narrow-focus_Marta-abre-el-regalo.wav,,,,,,,,,,,,,,,,,,,,,,,,,,,,,,,,,,,,,,,,,,,,,,,,,,,,,,,,
,,,,,,,5e2ec46a316225000cf293ce,6057c54e64b0b4e5c128b4f9,605874a8583faa87ecd35c87,Spain,Northeast,13 or older,no,2021-03-22_06h43.19.826,empathy_intonation_perc,2020.2.10,Win32,60,,,,,,,,,,1,puertorican,1,1,1.893195,0,49,49,49,1,50,./stim/wavs/andalusian_mismatch_interrogative-partial-wh_Cuando-lavaba-el-plato.wav,./stim/wavs/argentine_mismatch_interrogative-partial-wh_Cuando-lavaba-el-plato.wav,./stim/wavs/castilian_mismatch_interrogative-partial-wh_Cuando-lavaba-el-plato.wav,./stim/wavs/chilean_mismatch_interrogative-partial-wh_Cuando-lavaba-el-plato.wav,./stim/wavs/cuban_mismatch_interrogative-partial-wh_Cuando-lavaba-el-plato.wav,./stim/wavs/mexican_mismatch_interrogative-partial-wh_Cuando-lavaba-el-plato.wav,./stim/wavs/peruvian_mismatch_interrogative-partial-wh_Cuando-lavaba-el-plato.wav,./stim/wavs/puertorican_mismatch_interrogative-partial-wh_Cuando-lavaba-el-plato.wav,,,,,,,,,,,,,,,,,,,,,,,,,,,,,,,,,,,,,,,,,,,,,,,,,,,,,,,,
,,,,,,,5e2ec46a316225000cf293ce,6057c54e64b0b4e5c128b4f9,605874a8583faa87ecd35c87,Spain,Northeast,13 or older,no,2021-03-22_06h43.19.826,empathy_intonation_perc,2020.2.10,Win32,60,,,,,,,,,,0,andalusian,0,1,1.52992,0,50,50,46,1,47,./stim/wavs/andalusian_mismatch_declarative-narrow-focus_Mi-novio-viene-del-lago.wav,./stim/wavs/argentine_mismatch_declarative-narrow-focus_Mi-novio-viene-del-lago.wav,./stim/wavs/castilian_mismatch_declarative-narrow-focus_Mi-novio-viene-del-lago.wav,./stim/wavs/chilean_mismatch_declarative-narrow-focus_Mi-novio-viene-del-lago.wav,./stim/wavs/cuban_mismatch_declarative-narrow-focus_Mi-novio-viene-del-lago.wav,./stim/wavs/mexican_mismatch_declarative-narrow-focus_Mi-novio-viene-del-lago.wav,./stim/wavs/peruvian_mismatch_declarative-narrow-focus_Mi-novio-viene-del-lago.wav,./stim/wavs/puertorican_mismatch_declarative-narrow-focus_Mi-novio-viene-del-lago.wav,,,,,,,,,,,,,,,,,,,,,,,,,,,,,,,,,,,,,,,,,,,,,,,,,,,,,,,,
,,,,,,,5e2ec46a316225000cf293ce,6057c54e64b0b4e5c128b4f9,605874a8583faa87ecd35c87,Spain,Northeast,13 or older,no,2021-03-22_06h43.19.826,empathy_intonation_perc,2020.2.10,Win32,60,,,,,,,,,,0,mexican,0,1,1.94166,0,51,51,42,1,43,./stim/wavs/andalusian_mismatch_declarative-narrow-focus_El-nino-oye-el-rio.wav,./stim/wavs/argentine_mismatch_declarative-narrow-focus_El-nino-oye-el-rio.wav,./stim/wavs/castilian_mismatch_declarative-narrow-focus_El-nino-oye-el-rio.wav,./stim/wavs/chilean_mismatch_declarative-narrow-focus_El-nino-oye-el-rio.wav,./stim/wavs/cuban_mismatch_declarative-narrow-focus_El-nino-oye-el-rio.wav,./stim/wavs/mexican_mismatch_declarative-narrow-focus_El-nino-oye-el-rio.wav,./stim/wavs/peruvian_mismatch_declarative-narrow-focus_El-nino-oye-el-rio.wav,./stim/wavs/puertorican_mismatch_declarative-narrow-focus_El-nino-oye-el-rio.wav,,,,,,,,,,,,,,,,,,,,,,,,,,,,,,,,,,,,,,,,,,,,,,,,,,,,,,,,
,,,,,,,5e2ec46a316225000cf293ce,6057c54e64b0b4e5c128b4f9,605874a8583faa87ecd35c87,Spain,Northeast,13 or older,no,2021-03-22_06h43.19.826,empathy_intonation_perc,2020.2.10,Win32,60,,,,,,,,,,0,cuban,0,1,1.96222,0,52,52,39,1,40,./stim/wavs/andalusian_mismatch_declarative-broad-focus_Mi-tia-odia-la-lluvia.wav,./stim/wavs/argentine_mismatch_declarative-broad-focus_Mi-tia-odia-la-lluvia.wav,./stim/wavs/castilian_mismatch_declarative-broad-focus_Mi-tia-odia-la-lluvia.wav,./stim/wavs/chilean_mismatch_declarative-broad-focus_Mi-tia-odia-la-lluvia.wav,./stim/wavs/cuban_mismatch_declarative-broad-focus_Mi-tia-odia-la-lluvia.wav,./stim/wavs/mexican_mismatch_declarative-broad-focus_Mi-tia-odia-la-lluvia.wav,./stim/wavs/peruvian_mismatch_declarative-broad-focus_Mi-tia-odia-la-lluvia.wav,./stim/wavs/puertorican_mismatch_declarative-broad-focus_Mi-tia-odia-la-lluvia.wav,,,,,,,,,,,,,,,,,,,,,,,,,,,,,,,,,,,,,,,,,,,,,,,,,,,,,,,,
,,,,,,,5e2ec46a316225000cf293ce,6057c54e64b0b4e5c128b4f9,605874a8583faa87ecd35c87,Spain,Northeast,13 or older,no,2021-03-22_06h43.19.826,empathy_intonation_perc,2020.2.10,Win32,60,,,,,,,,,,0,cuban,0,1,2.0419,0,53,53,3,1,4,./stim/wavs/andalusian_match_declarative-broad-focus_Emilio-ama-la-marcha.wav,./stim/wavs/argentine_match_declarative-broad-focus_Emilio-ama-la-marcha.wav,./stim/wavs/castilian_match_declarative-broad-focus_Emilio-ama-la-marcha.wav,./stim/wavs/chilean_match_declarative-broad-focus_Emilio-ama-la-marcha.wav,./stim/wavs/cuban_match_declarative-broad-focus_Emilio-ama-la-marcha.wav,./stim/wavs/mexican_match_declarative-broad-focus_Emilio-ama-la-marcha.wav,./stim/wavs/peruvian_match_declarative-broad-focus_Emilio-ama-la-marcha.wav,./stim/wavs/puertorican_match_declarative-broad-focus_Emilio-ama-la-marcha.wav,,,,,,,,,,,,,,,,,,,,,,,,,,,,,,,,,,,,,,,,,,,,,,,,,,,,,,,,
,,,,,,,5e2ec46a316225000cf293ce,6057c54e64b0b4e5c128b4f9,605874a8583faa87ecd35c87,Spain,Northeast,13 or older,no,2021-03-22_06h43.19.826,empathy_intonation_perc,2020.2.10,Win32,60,,,,,,,,,,1,puertorican,0,0,2.913485,0,54,54,51,1,52,./stim/wavs/andalusian_mismatch_interrogative-partial-wh_Por-que-desayuna-muy-bien.wav,./stim/wavs/argentine_mismatch_interrogative-partial-wh_Por-que-desayuna-muy-bien.wav,./stim/wavs/castilian_mismatch_interrogative-partial-wh_Por-que-desayuna-muy-bien.wav,./stim/wavs/chilean_mismatch_interrogative-partial-wh_Por-que-desayuna-muy-bien.wav,./stim/wavs/cuban_mismatch_interrogative-partial-wh_Por-que-desayuna-muy-bien.wav,./stim/wavs/mexican_mismatch_interrogative-partial-wh_Por-que-desayuna-muy-bien.wav,./stim/wavs/peruvian_mismatch_interrogative-partial-wh_Por-que-desayuna-muy-bien.wav,./stim/wavs/puertorican_mismatch_interrogative-partial-wh_Por-que-desayuna-muy-bien.wav,,,,,,,,,,,,,,,,,,,,,,,,,,,,,,,,,,,,,,,,,,,,,,,,,,,,,,,,
,,,,,,,5e2ec46a316225000cf293ce,6057c54e64b0b4e5c128b4f9,605874a8583faa87ecd35c87,Spain,Northeast,13 or older,no,2021-03-22_06h43.19.826,empathy_intonation_perc,2020.2.10,Win32,60,,,,,,,,,,0,mexican,0,1,1.821775,0,55,55,14,1,15,./stim/wavs/andalusian_match_declarative-narrow-focus_Mariano-habla-del-tiempo.wav,./stim/wavs/argentine_match_declarative-narrow-focus_Mariano-habla-del-tiempo.wav,./stim/wavs/castilian_match_declarative-narrow-focus_Mariano-habla-del-tiempo.wav,./stim/wavs/chilean_match_declarative-narrow-focus_Mariano-habla-del-tiempo.wav,./stim/wavs/cuban_match_declarative-narrow-focus_Mariano-habla-del-tiempo.wav,./stim/wavs/mexican_match_declarative-narrow-focus_Mariano-habla-del-tiempo.wav,./stim/wavs/peruvian_match_declarative-narrow-focus_Mariano-habla-del-tiempo.wav,./stim/wavs/puertorican_match_declarative-narrow-focus_Mariano-habla-del-tiempo.wav,,,,,,,,,,,,,,,,,,,,,,,,,,,,,,,,,,,,,,,,,,,,,,,,,,,,,,,,
,,,,,,,5e2ec46a316225000cf293ce,6057c54e64b0b4e5c128b4f9,605874a8583faa87ecd35c87,Spain,Northeast,13 or older,no,2021-03-22_06h43.19.826,empathy_intonation_perc,2020.2.10,Win32,60,,,,,,,,,,1,cuban,0,0,1.55067,0,56,56,54,1,55,./stim/wavs/andalusian_mismatch_interrogative-partial-wh_Por-que-venia-del-lago.wav,./stim/wavs/argentine_mismatch_interrogative-partial-wh_Por-que-venia-del-lago.wav,./stim/wavs/castilian_mismatch_interrogative-partial-wh_Por-que-venia-del-lago.wav,./stim/wavs/chilean_mismatch_interrogative-partial-wh_Por-que-venia-del-lago.wav,./stim/wavs/cuban_mismatch_interrogative-partial-wh_Por-que-venia-del-lago.wav,./stim/wavs/mexican_mismatch_interrogative-partial-wh_Por-que-venia-del-lago.wav,./stim/wavs/peruvian_mismatch_interrogative-partial-wh_Por-que-venia-del-lago.wav,./stim/wavs/puertorican_mismatch_interrogative-partial-wh_Por-que-venia-del-lago.wav,,,,,,,,,,,,,,,,,,,,,,,,,,,,,,,,,,,,,,,,,,,,,,,,,,,,,,,,
,,,,,,,5e2ec46a316225000cf293ce,6057c54e64b0b4e5c128b4f9,605874a8583faa87ecd35c87,Spain,Northeast,13 or older,no,2021-03-22_06h43.19.826,empathy_intonation_perc,2020.2.10,Win32,60,,,,,,,,,,1,castilian,1,1,1.5562,0,57,57,48,1,49,./stim/wavs/andalusian_mismatch_interrogative-partial-wh_Cuando-comia-la-fruta.wav,./stim/wavs/argentine_mismatch_interrogative-partial-wh_Cuando-comia-la-fruta.wav,./stim/wavs/castilian_mismatch_interrogative-partial-wh_Cuando-comia-la-fruta.wav,./stim/wavs/chilean_mismatch_interrogative-partial-wh_Cuando-comia-la-fruta.wav,./stim/wavs/cuban_mismatch_interrogative-partial-wh_Cuando-comia-la-fruta.wav,./stim/wavs/mexican_mismatch_interrogative-partial-wh_Cuando-comia-la-fruta.wav,./stim/wavs/peruvian_mismatch_interrogative-partial-wh_Cuando-comia-la-fruta.wav,./stim/wavs/puertorican_mismatch_interrogative-partial-wh_Cuando-comia-la-fruta.wav,,,,,,,,,,,,,,,,,,,,,,,,,,,,,,,,,,,,,,,,,,,,,,,,,,,,,,,,
,,,,,,,5e2ec46a316225000cf293ce,6057c54e64b0b4e5c128b4f9,605874a8583faa87ecd35c87,Spain,Northeast,13 or older,no,2021-03-22_06h43.19.826,empathy_intonation_perc,2020.2.10,Win32,60,,,,,,,,,,0,andalusian,0,1,2.328035,0,58,58,8,1,9,./stim/wavs/andalusian_match_declarative-narrow-focus_Ana-lleva-el-abrigo.wav,./stim/wavs/argentine_match_declarative-narrow-focus_Ana-lleva-el-abrigo.wav,./stim/wavs/castilian_match_declarative-narrow-focus_Ana-lleva-el-abrigo.wav,./stim/wavs/chilean_match_declarative-narrow-focus_Ana-lleva-el-abrigo.wav,./stim/wavs/cuban_match_declarative-narrow-focus_Ana-lleva-el-abrigo.wav,./stim/wavs/mexican_match_declarative-narrow-focus_Ana-lleva-el-abrigo.wav,./stim/wavs/peruvian_match_declarative-narrow-focus_Ana-lleva-el-abrigo.wav,./stim/wavs/puertorican_match_declarative-narrow-focus_Ana-lleva-el-abrigo.wav,,,,,,,,,,,,,,,,,,,,,,,,,,,,,,,,,,,,,,,,,,,,,,,,,,,,,,,,
,,,,,,,5e2ec46a316225000cf293ce,6057c54e64b0b4e5c128b4f9,605874a8583faa87ecd35c87,Spain,Northeast,13 or older,no,2021-03-22_06h43.19.826,empathy_intonation_perc,2020.2.10,Win32,60,,,,,,,,,,1,castilian,1,1,1.634845,0,59,59,60,1,61,./stim/wavs/andalusian_mismatch_interrogative-total-yn_La-nina-lava-el-plato.wav,./stim/wavs/argentine_mismatch_interrogative-total-yn_La-nina-lava-el-plato.wav,./stim/wavs/castilian_mismatch_interrogative-total-yn_La-nina-lava-el-plato.wav,./stim/wavs/chilean_mismatch_interrogative-total-yn_La-nina-lava-el-plato.wav,./stim/wavs/cuban_mismatch_interrogative-total-yn_La-nina-lava-el-plato.wav,./stim/wavs/mexican_mismatch_interrogative-total-yn_La-nina-lava-el-plato.wav,./stim/wavs/peruvian_mismatch_interrogative-total-yn_La-nina-lava-el-plato.wav,./stim/wavs/puertorican_mismatch_interrogative-total-yn_La-nina-lava-el-plato.wav,,,,,,,,,,,,,,,,,,,,,,,,,,,,,,,,,,,,,,,,,,,,,,,,,,,,,,,,
,,,,,,,5e2ec46a316225000cf293ce,6057c54e64b0b4e5c128b4f9,605874a8583faa87ecd35c87,Spain,Northeast,13 or older,no,2021-03-22_06h43.19.826,empathy_intonation_perc,2020.2.10,Win32,60,,,,,,,,,,1,puertorican,0,0,1.917825,0,60,60,62,1,63,./stim/wavs/andalusian_mismatch_interrogative-total-yn_Mi-novio-viene-del-lago.wav,./stim/wavs/argentine_mismatch_interrogative-total-yn_Mi-novio-viene-del-lago.wav,./stim/wavs/castilian_mismatch_interrogative-total-yn_Mi-novio-viene-del-lago.wav,./stim/wavs/chilean_mismatch_interrogative-total-yn_Mi-novio-viene-del-lago.wav,./stim/wavs/cuban_mismatch_interrogative-total-yn_Mi-novio-viene-del-lago.wav,./stim/wavs/mexican_mismatch_interrogative-total-yn_Mi-novio-viene-del-lago.wav,./stim/wavs/peruvian_mismatch_interrogative-total-yn_Mi-novio-viene-del-lago.wav,./stim/wavs/puertorican_mismatch_interrogative-total-yn_Mi-novio-viene-del-lago.wav,,,,,,,,,,,,,,,,,,,,,,,,,,,,,,,,,,,,,,,,,,,,,,,,,,,,,,,,
,,,,,,,5e2ec46a316225000cf293ce,6057c54e64b0b4e5c128b4f9,605874a8583faa87ecd35c87,Spain,Northeast,13 or older,no,2021-03-22_06h43.19.826,empathy_intonation_perc,2020.2.10,Win32,60,,,,,,,,,,0,cuban,0,1,1.591885,0,61,61,47,1,48,./stim/wavs/andalusian_mismatch_declarative-narrow-focus_Mi-tia-odia-la-lluvia.wav,./stim/wavs/argentine_mismatch_declarative-narrow-focus_Mi-tia-odia-la-lluvia.wav,./stim/wavs/castilian_mismatch_declarative-narrow-focus_Mi-tia-odia-la-lluvia.wav,./stim/wavs/chilean_mismatch_declarative-narrow-focus_Mi-tia-odia-la-lluvia.wav,./stim/wavs/cuban_mismatch_declarative-narrow-focus_Mi-tia-odia-la-lluvia.wav,./stim/wavs/mexican_mismatch_declarative-narrow-focus_Mi-tia-odia-la-lluvia.wav,./stim/wavs/peruvian_mismatch_declarative-narrow-focus_Mi-tia-odia-la-lluvia.wav,./stim/wavs/puertorican_mismatch_declarative-narrow-focus_Mi-tia-odia-la-lluvia.wav,,,,,,,,,,,,,,,,,,,,,,,,,,,,,,,,,,,,,,,,,,,,,,,,,,,,,,,,
,,,,,,,5e2ec46a316225000cf293ce,6057c54e64b0b4e5c128b4f9,605874a8583faa87ecd35c87,Spain,Northeast,13 or older,no,2021-03-22_06h43.19.826,empathy_intonation_perc,2020.2.10,Win32,60,,,,,,,,,,0,puertorican,0,1,2.060845,0,62,62,35,1,36,./stim/wavs/andalusian_mismatch_declarative-broad-focus_La-maestra-vive-en-Paris.wav,./stim/wavs/argentine_mismatch_declarative-broad-focus_La-maestra-vive-en-Paris.wav,./stim/wavs/castilian_mismatch_declarative-broad-focus_La-maestra-vive-en-Paris.wav,./stim/wavs/chilean_mismatch_declarative-broad-focus_La-maestra-vive-en-Paris.wav,./stim/wavs/cuban_mismatch_declarative-broad-focus_La-maestra-vive-en-Paris.wav,./stim/wavs/mexican_mismatch_declarative-broad-focus_La-maestra-vive-en-Paris.wav,./stim/wavs/peruvian_mismatch_declarative-broad-focus_La-maestra-vive-en-Paris.wav,./stim/wavs/puertorican_mismatch_declarative-broad-focus_La-maestra-vive-en-Paris.wav,,,,,,,,,,,,,,,,,,,,,,,,,,,,,,,,,,,,,,,,,,,,,,,,,,,,,,,,
,,,,,,,5e2ec46a316225000cf293ce,6057c54e64b0b4e5c128b4f9,605874a8583faa87ecd35c87,Spain,Northeast,13 or older,no,2021-03-22_06h43.19.826,empathy_intonation_perc,2020.2.10,Win32,60,,,,,,,,,,0,peruvian,0,1,1.936845,0,63,63,13,1,14,./stim/wavs/andalusian_match_declarative-narrow-focus_Maria-bebe-el-vino.wav,./stim/wavs/argentine_match_declarative-narrow-focus_Maria-bebe-el-vino.wav,./stim/wavs/castilian_match_declarative-narrow-focus_Maria-bebe-el-vino.wav,./stim/wavs/chilean_match_declarative-narrow-focus_Maria-bebe-el-vino.wav,./stim/wavs/cuban_match_declarative-narrow-focus_Maria-bebe-el-vino.wav,./stim/wavs/mexican_match_declarative-narrow-focus_Maria-bebe-el-vino.wav,./stim/wavs/peruvian_match_declarative-narrow-focus_Maria-bebe-el-vino.wav,./stim/wavs/puertorican_match_declarative-narrow-focus_Maria-bebe-el-vino.wav,,,,,,,,,,,,,,,,,,,,,,,,,,,,,,,,,,,,,,,,,,,,,,,,,,,,,,,,
,,,,,,,5e2ec46a316225000cf293ce,6057c54e64b0b4e5c128b4f9,605874a8583faa87ecd35c87,Spain,Northeast,13 or older,no,2021-03-22_06h43.19.826,empathy_intonation_perc,2020.2.10,Win32,60,,,,,,,,,,,,,,,,,,,,,,,,,,,,,h,1,5.74901,0,0,0,0,1,,,,,,,,,,,,,,,,,,,,,,,,,,,,,,,,,,,,,,,,,,,,,,,,
,,,,,"Great! Now we will move on. The next task consists of about 60 trials, in each of which you will see a string of letters. 
  
  Your task is to decide whether this is a real Spanish word or not.",(press the spacebar to continue),5e2ec46a316225000cf293ce,6057c54e64b0b4e5c128b4f9,605874a8583faa87ecd35c87,Spain,Northeast,13 or older,no,2021-03-22_06h43.19.826,empathy_intonation_perc,2020.2.10,Win32,60,,,,,,,,,,,,,,,,,,,,,,,,,,,,,,,,,,,,,0,0,0,0,1,,,,,,,,,,,,,,,,,,,,,,,,,,,,,,,,,,,,,,,,,,,
,,,,,"If you think it is an existing Spanish word, you type '1' (for 'REAL'), and if you think it is not an existing Spanish word, you type '0' (for 'FAKE').",(press the spacebar to continue),5e2ec46a316225000cf293ce,6057c54e64b0b4e5c128b4f9,605874a8583faa87ecd35c87,Spain,Northeast,13 or older,no,2021-03-22_06h43.19.826,empathy_intonation_perc,2020.2.10,Win32,60,,,,,,,,,,,,,,,,,,,,,,,,,,,,,,,,,,,,,0,1,1,1,1,,,,,,,,,,,,,,,,,,,,,,,,,,,,,,,,,,,,,,,,,,,
,,,,,"If you are sure that the word exists, even though you dont know its exact meaning, you may still respond '1' (REAL). 
  
  But if you are not sure if it is an existing word, you should respond '0' (FAKE).
  
  Let's do a practice round...",(press the spacebar to continue),5e2ec46a316225000cf293ce,6057c54e64b0b4e5c128b4f9,605874a8583faa87ecd35c87,Spain,Northeast,13 or older,no,2021-03-22_06h43.19.826,empathy_intonation_perc,2020.2.10,Win32,60,,,,,,,,,,,,,,,,,,,,,,,,,,,,,,,,,,,,,0,2,2,2,1,,,,,,,,,,,,,,,,,,,,,,,,,,,,,,,,,,,,,,,,,,,
,,,,,,,5e2ec46a316225000cf293ce,6057c54e64b0b4e5c128b4f9,605874a8583faa87ecd35c87,Spain,Northeast,13 or older,no,2021-03-22_06h43.19.826,empathy_intonation_perc,2020.2.10,Win32,60,,,,,,,,,,0,,,,,,,,,,,,,,,,,,,,,,,,,,,,,,,,1,0,2.912435,0,0,0,0,1,0,depiste,REAL,FAKE,,,,,,,,,,,,,,,,,,,,,,,,,,,,,,,
,,,,,,,5e2ec46a316225000cf293ce,6057c54e64b0b4e5c128b4f9,605874a8583faa87ecd35c87,Spain,Northeast,13 or older,no,2021-03-22_06h43.19.826,empathy_intonation_perc,2020.2.10,Win32,60,,,,,,,,,,1,,,,,,,,,,,,,,,,,,,,,,,,,,,,,,,,1,1,1.568775,0,1,1,1,1,0,s,REAL,FAKE,,,,,,,,,,,,,,,,,,,,,,,,,,,,,,,
,,,,,,,5e2ec46a316225000cf293ce,6057c54e64b0b4e5c128b4f9,605874a8583faa87ecd35c87,Spain,Northeast,13 or older,no,2021-03-22_06h43.19.826,empathy_intonation_perc,2020.2.10,Win32,60,,,,,,,,,,0,,,,,,,,,,,,,,,,,,,,,,,,,,,,,,,,0,1,2.94526,0,2,2,2,1,0,con,REAL,FAKE,,,,,,,,,,,,,,,,,,,,,,,,,,,,,,,
,,,,,,,5e2ec46a316225000cf293ce,6057c54e64b0b4e5c128b4f9,605874a8583faa87ecd35c87,Spain,Northeast,13 or older,no,2021-03-22_06h43.19.826,empathy_intonation_perc,2020.2.10,Win32,60,,,,,,,,,,0,,,,,,,,,,,,,,,,,,,,,,,,,,,,,,,,1,0,1.5602,0,3,3,3,1,0,calpar,REAL,FAKE,,,,,,,,,,,,,,,,,,,,,,,,,,,,,,,
,,,,,,,5e2ec46a316225000cf293ce,6057c54e64b0b4e5c128b4f9,605874a8583faa87ecd35c87,Spain,Northeast,13 or older,no,2021-03-22_06h43.19.826,empathy_intonation_perc,2020.2.10,Win32,60,,,,,,,,,,0,,,,,,,,,,,,,,,,,,,,,,,,,,,,,,,,1,0,2.382195,0,4,4,4,1,0,joten,REAL,FAKE,,,,,,,,,,,,,,,,,,,,,,,,,,,,,,,
,,,,,,,5e2ec46a316225000cf293ce,6057c54e64b0b4e5c128b4f9,605874a8583faa87ecd35c87,Spain,Northeast,13 or older,no,2021-03-22_06h43.19.826,empathy_intonation_perc,2020.2.10,Win32,60,,,,,,,,,,1,,,,,,,,,,,,,,,,,,,,,,,,,,,,,,,,1,1,3.070465,0,5,5,5,1,0,sacapuntas,REAL,FAKE,,,,,,,,,,,,,,,,,,,,,,,,,,,,,,,
,,,,,,,5e2ec46a316225000cf293ce,6057c54e64b0b4e5c128b4f9,605874a8583faa87ecd35c87,Spain,Northeast,13 or older,no,2021-03-22_06h43.19.826,empathy_intonation_perc,2020.2.10,Win32,60,,,,,,,,,,0,,,,,,,,,,,,,,,,,,,,,,,,,,,,,,,,1,0,1.13223,0,6,6,6,1,0,priba,REAL,FAKE,,,,,,,,,,,,,,,,,,,,,,,,,,,,,,,
,,,,,,,5e2ec46a316225000cf293ce,6057c54e64b0b4e5c128b4f9,605874a8583faa87ecd35c87,Spain,Northeast,13 or older,no,2021-03-22_06h43.19.826,empathy_intonation_perc,2020.2.10,Win32,60,,,,,,,,,,0,,,,,,,,,,,,,,,,,,,,,,,,,,,,,,,,0,1,2.41701,0,7,7,7,1,0,pelasula,REAL,FAKE,,,,,,,,,,,,,,,,,,,,,,,,,,,,,,,
,,,,,,,5e2ec46a316225000cf293ce,6057c54e64b0b4e5c128b4f9,605874a8583faa87ecd35c87,Spain,Northeast,13 or older,no,2021-03-22_06h43.19.826,empathy_intonation_perc,2020.2.10,Win32,60,,,,,,,,,,1,,,,,,,,,,,,,,,,,,,,,,,,,,,,,,,,1,1,1.165605,0,8,8,8,1,0,bien,REAL,FAKE,,,,,,,,,,,,,,,,,,,,,,,,,,,,,,,
,,,,,,,5e2ec46a316225000cf293ce,6057c54e64b0b4e5c128b4f9,605874a8583faa87ecd35c87,Spain,Northeast,13 or older,no,2021-03-22_06h43.19.826,empathy_intonation_perc,2020.2.10,Win32,60,,,,,,,,,,1,,,,,,,,,,,,,,,,,,,,,,,,,,,,,,,,1,1,0.750395,0,9,9,9,1,0,casa,REAL,FAKE,,,,,,,,,,,,,,,,,,,,,,,,,,,,,,,
,,,,,,,5e2ec46a316225000cf293ce,6057c54e64b0b4e5c128b4f9,605874a8583faa87ecd35c87,Spain,Northeast,13 or older,no,2021-03-22_06h43.19.826,empathy_intonation_perc,2020.2.10,Win32,60,,,,,,,,,,0,,,,,,,,,,,,,,,,,,,,,,,,,,,,,,,,1,0,0.98365,0,10,10,10,1,0,lejo,REAL,FAKE,,,,,,,,,,,,,,,,,,,,,,,,,,,,,,,
,,,,,,,5e2ec46a316225000cf293ce,6057c54e64b0b4e5c128b4f9,605874a8583faa87ecd35c87,Spain,Northeast,13 or older,no,2021-03-22_06h43.19.826,empathy_intonation_perc,2020.2.10,Win32,60,,,,,,,,,,0,,,,,,,,,,,,,,,,,,,,,,,,,,,,,,,,1,0,3.61413,0,11,11,11,1,0,pretantas,REAL,FAKE,,,,,,,,,,,,,,,,,,,,,,,,,,,,,,,
,,,,,,,5e2ec46a316225000cf293ce,6057c54e64b0b4e5c128b4f9,605874a8583faa87ecd35c87,Spain,Northeast,13 or older,no,2021-03-22_06h43.19.826,empathy_intonation_perc,2020.2.10,Win32,60,,,,,,,,,,0,,,,,,,,,,,,,,,,,,,,,,,,,,,,,,,,,,,,,,,,4,batilln,,,1,0,1.482015,0,0,0,3,1,REAL,FAKE,,,,,,,,,,,,,,,,,,,,,
,,,,,,,5e2ec46a316225000cf293ce,6057c54e64b0b4e5c128b4f9,605874a8583faa87ecd35c87,Spain,Northeast,13 or older,no,2021-03-22_06h43.19.826,empathy_intonation_perc,2020.2.10,Win32,60,,,,,,,,,,1,,,,,,,,,,,,,,,,,,,,,,,,,,,,,,,,,,,,,,,,76,atar,,,1,1,1.40892,0,1,1,75,1,REAL,FAKE,,,,,,,,,,,,,,,,,,,,,
,,,,,,,5e2ec46a316225000cf293ce,6057c54e64b0b4e5c128b4f9,605874a8583faa87ecd35c87,Spain,Northeast,13 or older,no,2021-03-22_06h43.19.826,empathy_intonation_perc,2020.2.10,Win32,60,,,,,,,,,,0,,,,,,,,,,,,,,,,,,,,,,,,,,,,,,,,,,,,,,,,50,flamida,,,0,1,2.578545,0,2,2,49,1,REAL,FAKE,,,,,,,,,,,,,,,,,,,,,
,,,,,,,5e2ec46a316225000cf293ce,6057c54e64b0b4e5c128b4f9,605874a8583faa87ecd35c87,Spain,Northeast,13 or older,no,2021-03-22_06h43.19.826,empathy_intonation_perc,2020.2.10,Win32,60,,,,,,,,,,0,,,,,,,,,,,,,,,,,,,,,,,,,,,,,,,,,,,,,,,,72,pemicin,,,1,0,2.648995,0,3,3,71,1,REAL,FAKE,,,,,,,,,,,,,,,,,,,,,
,,,,,,,5e2ec46a316225000cf293ce,6057c54e64b0b4e5c128b4f9,605874a8583faa87ecd35c87,Spain,Northeast,13 or older,no,2021-03-22_06h43.19.826,empathy_intonation_perc,2020.2.10,Win32,60,,,,,,,,,,0,,,,,,,,,,,,,,,,,,,,,,,,,,,,,,,,,,,,,,,,21,capillo,,,1,0,1.946585,0,4,4,20,1,REAL,FAKE,,,,,,,,,,,,,,,,,,,,,
,,,,,,,5e2ec46a316225000cf293ce,6057c54e64b0b4e5c128b4f9,605874a8583faa87ecd35c87,Spain,Northeast,13 or older,no,2021-03-22_06h43.19.826,empathy_intonation_perc,2020.2.10,Win32,60,,,,,,,,,,0,,,,,,,,,,,,,,,,,,,,,,,,,,,,,,,,,,,,,,,,8,cadea,,,1,0,1.5528,0,5,5,7,1,REAL,FAKE,,,,,,,,,,,,,,,,,,,,,
,,,,,,,5e2ec46a316225000cf293ce,6057c54e64b0b4e5c128b4f9,605874a8583faa87ecd35c87,Spain,Northeast,13 or older,no,2021-03-22_06h43.19.826,empathy_intonation_perc,2020.2.10,Win32,60,,,,,,,,,,1,,,,,,,,,,,,,,,,,,,,,,,,,,,,,,,,,,,,,,,,48,ladrn,,,1,1,1.252875,0,6,6,47,1,REAL,FAKE,,,,,,,,,,,,,,,,,,,,,
,,,,,,,5e2ec46a316225000cf293ce,6057c54e64b0b4e5c128b4f9,605874a8583faa87ecd35c87,Spain,Northeast,13 or older,no,2021-03-22_06h43.19.826,empathy_intonation_perc,2020.2.10,Win32,60,,,,,,,,,,0,,,,,,,,,,,,,,,,,,,,,,,,,,,,,,,,,,,,,,,,79,tropaje,,,0,1,2.135965,0,7,7,78,1,REAL,FAKE,,,,,,,,,,,,,,,,,,,,,
,,,,,,,5e2ec46a316225000cf293ce,6057c54e64b0b4e5c128b4f9,605874a8583faa87ecd35c87,Spain,Northeast,13 or older,no,2021-03-22_06h43.19.826,empathy_intonation_perc,2020.2.10,Win32,60,,,,,,,,,,1,,,,,,,,,,,,,,,,,,,,,,,,,,,,,,,,,,,,,,,,52,camisa,,,1,1,0.7512,0,8,8,51,1,REAL,FAKE,,,,,,,,,,,,,,,,,,,,,
,,,,,,,5e2ec46a316225000cf293ce,6057c54e64b0b4e5c128b4f9,605874a8583faa87ecd35c87,Spain,Northeast,13 or older,no,2021-03-22_06h43.19.826,empathy_intonation_perc,2020.2.10,Win32,60,,,,,,,,,,0,,,,,,,,,,,,,,,,,,,,,,,,,,,,,,,,,,,,,,,,35,rompido,,,0,1,2.45015,0,9,9,34,1,REAL,FAKE,,,,,,,,,,,,,,,,,,,,,
,,,,,,,5e2ec46a316225000cf293ce,6057c54e64b0b4e5c128b4f9,605874a8583faa87ecd35c87,Spain,Northeast,13 or older,no,2021-03-22_06h43.19.826,empathy_intonation_perc,2020.2.10,Win32,60,,,,,,,,,,1,,,,,,,,,,,,,,,,,,,,,,,,,,,,,,,,,,,,,,,,36,loro,,,0,0,1.54919,0,10,10,35,1,REAL,FAKE,,,,,,,,,,,,,,,,,,,,,
,,,,,,,5e2ec46a316225000cf293ce,6057c54e64b0b4e5c128b4f9,605874a8583faa87ecd35c87,Spain,Northeast,13 or older,no,2021-03-22_06h43.19.826,empathy_intonation_perc,2020.2.10,Win32,60,,,,,,,,,,1,,,,,,,,,,,,,,,,,,,,,,,,,,,,,,,,,,,,,,,,88,acantilado,,,0,0,2.001105,0,11,11,87,1,REAL,FAKE,,,,,,,,,,,,,,,,,,,,,
,,,,,,,5e2ec46a316225000cf293ce,6057c54e64b0b4e5c128b4f9,605874a8583faa87ecd35c87,Spain,Northeast,13 or older,no,2021-03-22_06h43.19.826,empathy_intonation_perc,2020.2.10,Win32,60,,,,,,,,,,1,,,,,,,,,,,,,,,,,,,,,,,,,,,,,,,,,,,,,,,,86,barato,,,1,1,1.08396,0,12,12,85,1,REAL,FAKE,,,,,,,,,,,,,,,,,,,,,
,,,,,,,5e2ec46a316225000cf293ce,6057c54e64b0b4e5c128b4f9,605874a8583faa87ecd35c87,Spain,Northeast,13 or older,no,2021-03-22_06h43.19.826,empathy_intonation_perc,2020.2.10,Win32,60,,,,,,,,,,0,,,,,,,,,,,,,,,,,,,,,,,,,,,,,,,,,,,,,,,,27,acutacin,,,0,1,2.942435,0,13,13,26,1,REAL,FAKE,,,,,,,,,,,,,,,,,,,,,
,,,,,,,5e2ec46a316225000cf293ce,6057c54e64b0b4e5c128b4f9,605874a8583faa87ecd35c87,Spain,Northeast,13 or older,no,2021-03-22_06h43.19.826,empathy_intonation_perc,2020.2.10,Win32,60,,,,,,,,,,1,,,,,,,,,,,,,,,,,,,,,,,,,,,,,,,,,,,,,,,,64,orgulloso,,,1,1,1.38959,0,14,14,63,1,REAL,FAKE,,,,,,,,,,,,,,,,,,,,,
,,,,,,,5e2ec46a316225000cf293ce,6057c54e64b0b4e5c128b4f9,605874a8583faa87ecd35c87,Spain,Northeast,13 or older,no,2021-03-22_06h43.19.826,empathy_intonation_perc,2020.2.10,Win32,60,,,,,,,,,,0,,,,,,,,,,,,,,,,,,,,,,,,,,,,,,,,,,,,,,,,23,lampera,,,1,0,1.08293,0,15,15,22,1,REAL,FAKE,,,,,,,,,,,,,,,,,,,,,
,,,,,,,5e2ec46a316225000cf293ce,6057c54e64b0b4e5c128b4f9,605874a8583faa87ecd35c87,Spain,Northeast,13 or older,no,2021-03-22_06h43.19.826,empathy_intonation_perc,2020.2.10,Win32,60,,,,,,,,,,0,,,,,,,,,,,,,,,,,,,,,,,,,,,,,,,,,,,,,,,,1,terzo,,,0,1,1.332515,0,16,16,0,1,REAL,FAKE,,,,,,,,,,,,,,,,,,,,,
,,,,,,,5e2ec46a316225000cf293ce,6057c54e64b0b4e5c128b4f9,605874a8583faa87ecd35c87,Spain,Northeast,13 or older,no,2021-03-22_06h43.19.826,empathy_intonation_perc,2020.2.10,Win32,60,,,,,,,,,,1,,,,,,,,,,,,,,,,,,,,,,,,,,,,,,,,,,,,,,,,38,estornudar,,,1,1,2.84816,0,17,17,37,1,REAL,FAKE,,,,,,,,,,,,,,,,,,,,,
,,,,,,,5e2ec46a316225000cf293ce,6057c54e64b0b4e5c128b4f9,605874a8583faa87ecd35c87,Spain,Northeast,13 or older,no,2021-03-22_06h43.19.826,empathy_intonation_perc,2020.2.10,Win32,60,,,,,,,,,,1,,,,,,,,,,,,,,,,,,,,,,,,,,,,,,,,,,,,,,,,34,aviso,,,1,1,0.849385,0,18,18,33,1,REAL,FAKE,,,,,,,,,,,,,,,,,,,,,
,,,,,,,5e2ec46a316225000cf293ce,6057c54e64b0b4e5c128b4f9,605874a8583faa87ecd35c87,Spain,Northeast,13 or older,no,2021-03-22_06h43.19.826,empathy_intonation_perc,2020.2.10,Win32,60,,,,,,,,,,1,,,,,,,,,,,,,,,,,,,,,,,,,,,,,,,,,,,,,,,,41,rebuscar,,,1,1,1.0832,0,19,19,40,1,REAL,FAKE,,,,,,,,,,,,,,,,,,,,,
,,,,,,,5e2ec46a316225000cf293ce,6057c54e64b0b4e5c128b4f9,605874a8583faa87ecd35c87,Spain,Northeast,13 or older,no,2021-03-22_06h43.19.826,empathy_intonation_perc,2020.2.10,Win32,60,,,,,,,,,,0,,,,,,,,,,,,,,,,,,,,,,,,,,,,,,,,,,,,,,,,32,fatacidad,,,0,1,1.665895,0,20,20,31,1,REAL,FAKE,,,,,,,,,,,,,,,,,,,,,
,,,,,,,5e2ec46a316225000cf293ce,6057c54e64b0b4e5c128b4f9,605874a8583faa87ecd35c87,Spain,Northeast,13 or older,no,2021-03-22_06h43.19.826,empathy_intonation_perc,2020.2.10,Win32,60,,,,,,,,,,1,,,,,,,,,,,,,,,,,,,,,,,,,,,,,,,,,,,,,,,,59,besar,,,1,1,0.856835,0,21,21,58,1,REAL,FAKE,,,,,,,,,,,,,,,,,,,,,
,,,,,,,5e2ec46a316225000cf293ce,6057c54e64b0b4e5c128b4f9,605874a8583faa87ecd35c87,Spain,Northeast,13 or older,no,2021-03-22_06h43.19.826,empathy_intonation_perc,2020.2.10,Win32,60,,,,,,,,,,1,,,,,,,,,,,,,,,,,,,,,,,,,,,,,,,,,,,,,,,,20,vido,,,0,0,2.29999,0,22,22,19,1,REAL,FAKE,,,,,,,,,,,,,,,,,,,,,
,,,,,,,5e2ec46a316225000cf293ce,6057c54e64b0b4e5c128b4f9,605874a8583faa87ecd35c87,Spain,Northeast,13 or older,no,2021-03-22_06h43.19.826,empathy_intonation_perc,2020.2.10,Win32,60,,,,,,,,,,0,,,,,,,,,,,,,,,,,,,,,,,,,,,,,,,,,,,,,,,,84,escuto,,,0,1,1.39816,0,23,23,83,1,REAL,FAKE,,,,,,,,,,,,,,,,,,,,,
,,,,,,,5e2ec46a316225000cf293ce,6057c54e64b0b4e5c128b4f9,605874a8583faa87ecd35c87,Spain,Northeast,13 or older,no,2021-03-22_06h43.19.826,empathy_intonation_perc,2020.2.10,Win32,60,,,,,,,,,,1,,,,,,,,,,,,,,,,,,,,,,,,,,,,,,,,,,,,,,,,46,martillo,,,0,0,2.55391,0,24,24,45,1,REAL,FAKE,,,,,,,,,,,,,,,,,,,,,
,,,,,,,5e2ec46a316225000cf293ce,6057c54e64b0b4e5c128b4f9,605874a8583faa87ecd35c87,Spain,Northeast,13 or older,no,2021-03-22_06h43.19.826,empathy_intonation_perc,2020.2.10,Win32,60,,,,,,,,,,1,,,,,,,,,,,,,,,,,,,,,,,,,,,,,,,,,,,,,,,,71,polvoriento,,,0,0,3.27521,0,25,25,70,1,REAL,FAKE,,,,,,,,,,,,,,,,,,,,,
,,,,,,,5e2ec46a316225000cf293ce,6057c54e64b0b4e5c128b4f9,605874a8583faa87ecd35c87,Spain,Northeast,13 or older,no,2021-03-22_06h43.19.826,empathy_intonation_perc,2020.2.10,Win32,60,,,,,,,,,,1,,,,,,,,,,,,,,,,,,,,,,,,,,,,,,,,,,,,,,,,5,zapato,,,1,1,0.816565,0,26,26,4,1,REAL,FAKE,,,,,,,,,,,,,,,,,,,,,
,,,,,,,5e2ec46a316225000cf293ce,6057c54e64b0b4e5c128b4f9,605874a8583faa87ecd35c87,Spain,Northeast,13 or older,no,2021-03-22_06h43.19.826,empathy_intonation_perc,2020.2.10,Win32,60,,,,,,,,,,1,,,,,,,,,,,,,,,,,,,,,,,,,,,,,,,,,,,,,,,,67,cabello,,,1,1,0.76699,0,27,27,66,1,REAL,FAKE,,,,,,,,,,,,,,,,,,,,,
,,,,,,,5e2ec46a316225000cf293ce,6057c54e64b0b4e5c128b4f9,605874a8583faa87ecd35c87,Spain,Northeast,13 or older,no,2021-03-22_06h43.19.826,empathy_intonation_perc,2020.2.10,Win32,60,,,,,,,,,,0,,,,,,,,,,,,,,,,,,,,,,,,,,,,,,,,,,,,,,,,66,hacido,,,1,0,1.23205,0,28,28,65,1,REAL,FAKE,,,,,,,,,,,,,,,,,,,,,
,,,,,,,5e2ec46a316225000cf293ce,6057c54e64b0b4e5c128b4f9,605874a8583faa87ecd35c87,Spain,Northeast,13 or older,no,2021-03-22_06h43.19.826,empathy_intonation_perc,2020.2.10,Win32,60,,,,,,,,,,1,,,,,,,,,,,,,,,,,,,,,,,,,,,,,,,,,,,,,,,,65,bizcocho,,,0,0,1.199025,0,29,29,64,1,REAL,FAKE,,,,,,,,,,,,,,,,,,,,,
,,,,,,,5e2ec46a316225000cf293ce,6057c54e64b0b4e5c128b4f9,605874a8583faa87ecd35c87,Spain,Northeast,13 or older,no,2021-03-22_06h43.19.826,empathy_intonation_perc,2020.2.10,Win32,60,,,,,,,,,,1,,,,,,,,,,,,,,,,,,,,,,,,,,,,,,,,,,,,,,,,14,yunque,,,0,0,1.648795,0,30,30,13,1,REAL,FAKE,,,,,,,,,,,,,,,,,,,,,
,,,,,,,5e2ec46a316225000cf293ce,6057c54e64b0b4e5c128b4f9,605874a8583faa87ecd35c87,Spain,Northeast,13 or older,no,2021-03-22_06h43.19.826,empathy_intonation_perc,2020.2.10,Win32,60,,,,,,,,,,0,,,,,,,,,,,,,,,,,,,,,,,,,,,,,,,,,,,,,,,,47,cartinar,,,1,0,1.100505,0,31,31,46,1,REAL,FAKE,,,,,,,,,,,,,,,,,,,,,
,,,,,,,5e2ec46a316225000cf293ce,6057c54e64b0b4e5c128b4f9,605874a8583faa87ecd35c87,Spain,Northeast,13 or older,no,2021-03-22_06h43.19.826,empathy_intonation_perc,2020.2.10,Win32,60,,,,,,,,,,1,,,,,,,,,,,,,,,,,,,,,,,,,,,,,,,,,,,,,,,,57,tacao,,,0,0,2.165455,0,32,32,56,1,REAL,FAKE,,,,,,,,,,,,,,,,,,,,,
,,,,,,,5e2ec46a316225000cf293ce,6057c54e64b0b4e5c128b4f9,605874a8583faa87ecd35c87,Spain,Northeast,13 or older,no,2021-03-22_06h43.19.826,empathy_intonation_perc,2020.2.10,Win32,60,,,,,,,,,,1,,,,,,,,,,,,,,,,,,,,,,,,,,,,,,,,,,,,,,,,22,lacayo,,,0,0,0.81711,0,33,33,21,1,REAL,FAKE,,,,,,,,,,,,,,,,,,,,,
,,,,,,,5e2ec46a316225000cf293ce,6057c54e64b0b4e5c128b4f9,605874a8583faa87ecd35c87,Spain,Northeast,13 or older,no,2021-03-22_06h43.19.826,empathy_intonation_perc,2020.2.10,Win32,60,,,,,,,,,,0,,,,,,,,,,,,,,,,,,,,,,,,,,,,,,,,,,,,,,,,74,cintro,,,1,0,0.933915,0,34,34,73,1,REAL,FAKE,,,,,,,,,,,,,,,,,,,,,
,,,,,,,5e2ec46a316225000cf293ce,6057c54e64b0b4e5c128b4f9,605874a8583faa87ecd35c87,Spain,Northeast,13 or older,no,2021-03-22_06h43.19.826,empathy_intonation_perc,2020.2.10,Win32,60,,,,,,,,,,1,,,,,,,,,,,,,,,,,,,,,,,,,,,,,,,,,,,,,,,,26,secuestro,,,1,1,0.91679,0,35,35,25,1,REAL,FAKE,,,,,,,,,,,,,,,,,,,,,
,,,,,,,5e2ec46a316225000cf293ce,6057c54e64b0b4e5c128b4f9,605874a8583faa87ecd35c87,Spain,Northeast,13 or older,no,2021-03-22_06h43.19.826,empathy_intonation_perc,2020.2.10,Win32,60,,,,,,,,,,0,,,,,,,,,,,,,,,,,,,,,,,,,,,,,,,,,,,,,,,,16,abracer,,,1,0,0.99638,0,36,36,15,1,REAL,FAKE,,,,,,,,,,,,,,,,,,,,,
,,,,,,,5e2ec46a316225000cf293ce,6057c54e64b0b4e5c128b4f9,605874a8583faa87ecd35c87,Spain,Northeast,13 or older,no,2021-03-22_06h43.19.826,empathy_intonation_perc,2020.2.10,Win32,60,,,,,,,,,,0,,,,,,,,,,,,,,,,,,,,,,,,,,,,,,,,,,,,,,,,87,grodo,,,0,1,1.43361,0,37,37,86,1,REAL,FAKE,,,,,,,,,,,,,,,,,,,,,
,,,,,,,5e2ec46a316225000cf293ce,6057c54e64b0b4e5c128b4f9,605874a8583faa87ecd35c87,Spain,Northeast,13 or older,no,2021-03-22_06h43.19.826,empathy_intonation_perc,2020.2.10,Win32,60,,,,,,,,,,1,,,,,,,,,,,,,,,,,,,,,,,,,,,,,,,,,,,,,,,,83,guante,,,0,0,0.966505,0,38,38,82,1,REAL,FAKE,,,,,,,,,,,,,,,,,,,,,
,,,,,,,5e2ec46a316225000cf293ce,6057c54e64b0b4e5c128b4f9,605874a8583faa87ecd35c87,Spain,Northeast,13 or older,no,2021-03-22_06h43.19.826,empathy_intonation_perc,2020.2.10,Win32,60,,,,,,,,,,1,,,,,,,,,,,,,,,,,,,,,,,,,,,,,,,,,,,,,,,,40,alfombra,,,1,1,1.16641,0,39,39,39,1,REAL,FAKE,,,,,,,,,,,,,,,,,,,,,
,,,,,,,5e2ec46a316225000cf293ce,6057c54e64b0b4e5c128b4f9,605874a8583faa87ecd35c87,Spain,Northeast,13 or older,no,2021-03-22_06h43.19.826,empathy_intonation_perc,2020.2.10,Win32,60,,,,,,,,,,0,,,,,,,,,,,,,,,,,,,,,,,,,,,,,,,,,,,,,,,,70,temblo,,,0,1,0.86964,0,40,40,69,1,REAL,FAKE,,,,,,,,,,,,,,,,,,,,,
,,,,,,,5e2ec46a316225000cf293ce,6057c54e64b0b4e5c128b4f9,605874a8583faa87ecd35c87,Spain,Northeast,13 or older,no,2021-03-22_06h43.19.826,empathy_intonation_perc,2020.2.10,Win32,60,,,,,,,,,,1,,,,,,,,,,,,,,,,,,,,,,,,,,,,,,,,,,,,,,,,6,tergiversar,,,1,1,1.116145,0,41,41,5,1,REAL,FAKE,,,,,,,,,,,,,,,,,,,,,
,,,,,,,5e2ec46a316225000cf293ce,6057c54e64b0b4e5c128b4f9,605874a8583faa87ecd35c87,Spain,Northeast,13 or older,no,2021-03-22_06h43.19.826,empathy_intonation_perc,2020.2.10,Win32,60,,,,,,,,,,0,,,,,,,,,,,,,,,,,,,,,,,,,,,,,,,,,,,,,,,,82,empirador,,,1,0,0.87475,0,42,42,81,1,REAL,FAKE,,,,,,,,,,,,,,,,,,,,,
,,,,,,,5e2ec46a316225000cf293ce,6057c54e64b0b4e5c128b4f9,605874a8583faa87ecd35c87,Spain,Northeast,13 or older,no,2021-03-22_06h43.19.826,empathy_intonation_perc,2020.2.10,Win32,60,,,,,,,,,,1,,,,,,,,,,,,,,,,,,,,,,,,,,,,,,,,,,,,,,,,13,helar,,,0,0,0.74858,0,43,43,12,1,REAL,FAKE,,,,,,,,,,,,,,,,,,,,,
,,,,,,,5e2ec46a316225000cf293ce,6057c54e64b0b4e5c128b4f9,605874a8583faa87ecd35c87,Spain,Northeast,13 or older,no,2021-03-22_06h43.19.826,empathy_intonation_perc,2020.2.10,Win32,60,,,,,,,,,,1,,,,,,,,,,,,,,,,,,,,,,,,,,,,,,,,,,,,,,,,60,matar,,,1,1,0.951345,0,44,44,59,1,REAL,FAKE,,,,,,,,,,,,,,,,,,,,,
,,,,,,,5e2ec46a316225000cf293ce,6057c54e64b0b4e5c128b4f9,605874a8583faa87ecd35c87,Spain,Northeast,13 or older,no,2021-03-22_06h43.19.826,empathy_intonation_perc,2020.2.10,Win32,60,,,,,,,,,,1,,,,,,,,,,,,,,,,,,,,,,,,,,,,,,,,,,,,,,,,25,bisagra,,,0,0,0.82392,0,45,45,24,1,REAL,FAKE,,,,,,,,,,,,,,,,,,,,,
,,,,,,,5e2ec46a316225000cf293ce,6057c54e64b0b4e5c128b4f9,605874a8583faa87ecd35c87,Spain,Northeast,13 or older,no,2021-03-22_06h43.19.826,empathy_intonation_perc,2020.2.10,Win32,60,,,,,,,,,,1,,,,,,,,,,,,,,,,,,,,,,,,,,,,,,,,,,,,,,,,54,fomentar,,,1,1,2.041485,0,46,46,53,1,REAL,FAKE,,,,,,,,,,,,,,,,,,,,,
,,,,,,,5e2ec46a316225000cf293ce,6057c54e64b0b4e5c128b4f9,605874a8583faa87ecd35c87,Spain,Northeast,13 or older,no,2021-03-22_06h43.19.826,empathy_intonation_perc,2020.2.10,Win32,60,,,,,,,,,,1,,,,,,,,,,,,,,,,,,,,,,,,,,,,,,,,,,,,,,,,73,hervidor,,,0,0,1.315845,0,47,47,72,1,REAL,FAKE,,,,,,,,,,,,,,,,,,,,,
,,,,,,,5e2ec46a316225000cf293ce,6057c54e64b0b4e5c128b4f9,605874a8583faa87ecd35c87,Spain,Northeast,13 or older,no,2021-03-22_06h43.19.826,empathy_intonation_perc,2020.2.10,Win32,60,,,,,,,,,,0,,,,,,,,,,,,,,,,,,,,,,,,,,,,,,,,,,,,,,,,30,alardio,,,0,1,0.87274,0,48,48,29,1,REAL,FAKE,,,,,,,,,,,,,,,,,,,,,
,,,,,,,5e2ec46a316225000cf293ce,6057c54e64b0b4e5c128b4f9,605874a8583faa87ecd35c87,Spain,Northeast,13 or older,no,2021-03-22_06h43.19.826,empathy_intonation_perc,2020.2.10,Win32,60,,,,,,,,,,0,,,,,,,,,,,,,,,,,,,,,,,,,,,,,,,,,,,,,,,,33,pauca,,,0,1,1.08348,0,49,49,32,1,REAL,FAKE,,,,,,,,,,,,,,,,,,,,,
,,,,,,,5e2ec46a316225000cf293ce,6057c54e64b0b4e5c128b4f9,605874a8583faa87ecd35c87,Spain,Northeast,13 or older,no,2021-03-22_06h43.19.826,empathy_intonation_perc,2020.2.10,Win32,60,,,,,,,,,,1,,,,,,,,,,,,,,,,,,,,,,,,,,,,,,,,,,,,,,,,45,jilguero,,,0,0,1.27343,0,50,50,44,1,REAL,FAKE,,,,,,,,,,,,,,,,,,,,,
,,,,,,,5e2ec46a316225000cf293ce,6057c54e64b0b4e5c128b4f9,605874a8583faa87ecd35c87,Spain,Northeast,13 or older,no,2021-03-22_06h43.19.826,empathy_intonation_perc,2020.2.10,Win32,60,,,,,,,,,,1,,,,,,,,,,,,,,,,,,,,,,,,,,,,,,,,,,,,,,,,90,clavel,,,0,0,1.415705,0,51,51,89,1,REAL,FAKE,,,,,,,,,,,,,,,,,,,,,
,,,,,,,5e2ec46a316225000cf293ce,6057c54e64b0b4e5c128b4f9,605874a8583faa87ecd35c87,Spain,Northeast,13 or older,no,2021-03-22_06h43.19.826,empathy_intonation_perc,2020.2.10,Win32,60,,,,,,,,,,1,,,,,,,,,,,,,,,,,,,,,,,,,,,,,,,,,,,,,,,,9,hacha,,,1,1,1.28759,0,52,52,8,1,REAL,FAKE,,,,,,,,,,,,,,,,,,,,,
,,,,,,,5e2ec46a316225000cf293ce,6057c54e64b0b4e5c128b4f9,605874a8583faa87ecd35c87,Spain,Northeast,13 or older,no,2021-03-22_06h43.19.826,empathy_intonation_perc,2020.2.10,Win32,60,,,,,,,,,,1,,,,,,,,,,,,,,,,,,,,,,,,,,,,,,,,,,,,,,,,15,regar,,,1,1,0.753475,0,53,53,14,1,REAL,FAKE,,,,,,,,,,,,,,,,,,,,,
,,,,,,,5e2ec46a316225000cf293ce,6057c54e64b0b4e5c128b4f9,605874a8583faa87ecd35c87,Spain,Northeast,13 or older,no,2021-03-22_06h43.19.826,empathy_intonation_perc,2020.2.10,Win32,60,,,,,,,,,,0,,,,,,,,,,,,,,,,,,,,,,,,,,,,,,,,,,,,,,,,63,esposante,,,1,0,2.63357,0,54,54,62,1,REAL,FAKE,,,,,,,,,,,,,,,,,,,,,
,,,,,,,5e2ec46a316225000cf293ce,6057c54e64b0b4e5c128b4f9,605874a8583faa87ecd35c87,Spain,Northeast,13 or older,no,2021-03-22_06h43.19.826,empathy_intonation_perc,2020.2.10,Win32,60,,,,,,,,,,1,,,,,,,,,,,,,,,,,,,,,,,,,,,,,,,,,,,,,,,,55,nevar,,,1,1,1.08341,0,55,55,54,1,REAL,FAKE,,,,,,,,,,,,,,,,,,,,,
,,,,,,,5e2ec46a316225000cf293ce,6057c54e64b0b4e5c128b4f9,605874a8583faa87ecd35c87,Spain,Northeast,13 or older,no,2021-03-22_06h43.19.826,empathy_intonation_perc,2020.2.10,Win32,60,,,,,,,,,,1,,,,,,,,,,,,,,,,,,,,,,,,,,,,,,,,,,,,,,,,7,psimo,,,0,0,1.932215,0,56,56,6,1,REAL,FAKE,,,,,,,,,,,,,,,,,,,,,
,,,,,,,5e2ec46a316225000cf293ce,6057c54e64b0b4e5c128b4f9,605874a8583faa87ecd35c87,Spain,Northeast,13 or older,no,2021-03-22_06h43.19.826,empathy_intonation_perc,2020.2.10,Win32,60,,,,,,,,,,1,,,,,,,,,,,,,,,,,,,,,,,,,,,,,,,,,,,,,,,,28,merodear,,,1,1,2.810185,0,57,57,27,1,REAL,FAKE,,,,,,,,,,,,,,,,,,,,,
,,,,,,,5e2ec46a316225000cf293ce,6057c54e64b0b4e5c128b4f9,605874a8583faa87ecd35c87,Spain,Northeast,13 or older,no,2021-03-22_06h43.19.826,empathy_intonation_perc,2020.2.10,Win32,60,,,,,,,,,,0,,,,,,,,,,,,,,,,,,,,,,,,,,,,,,,,,,,,,,,,42,cadallo,,,0,1,0.94961,0,58,58,41,1,REAL,FAKE,,,,,,,,,,,,,,,,,,,,,
,,,,,,,5e2ec46a316225000cf293ce,6057c54e64b0b4e5c128b4f9,605874a8583faa87ecd35c87,Spain,Northeast,13 or older,no,2021-03-22_06h43.19.826,empathy_intonation_perc,2020.2.10,Win32,60,,,,,,,,,,0,,,,,,,,,,,,,,,,,,,,,,,,,,,,,,,,,,,,,,,,10,antar,,,1,0,0.8834,0,59,59,9,1,REAL,FAKE,,,,,,,,,,,,,,,,,,,,,
,,,,,,,5e2ec46a316225000cf293ce,6057c54e64b0b4e5c128b4f9,605874a8583faa87ecd35c87,Spain,Northeast,13 or older,no,2021-03-22_06h43.19.826,empathy_intonation_perc,2020.2.10,Win32,60,,,,,,,,,,1,,,,,,,,,,,,,,,,,,,,,,,,,,,,,,,,,,,,,,,,49,ganar,,,1,1,0.72313,0,60,60,48,1,REAL,FAKE,,,,,,,,,,,,,,,,,,,,,
,,,,,,,5e2ec46a316225000cf293ce,6057c54e64b0b4e5c128b4f9,605874a8583faa87ecd35c87,Spain,Northeast,13 or older,no,2021-03-22_06h43.19.826,empathy_intonation_perc,2020.2.10,Win32,60,,,,,,,,,,1,,,,,,,,,,,,,,,,,,,,,,,,,,,,,,,,,,,,,,,,81,pozo,,,0,0,1.515385,0,61,61,80,1,REAL,FAKE,,,,,,,,,,,,,,,,,,,,,
,,,,,,,5e2ec46a316225000cf293ce,6057c54e64b0b4e5c128b4f9,605874a8583faa87ecd35c87,Spain,Northeast,13 or older,no,2021-03-22_06h43.19.826,empathy_intonation_perc,2020.2.10,Win32,60,,,,,,,,,,1,,,,,,,,,,,,,,,,,,,,,,,,,,,,,,,,,,,,,,,,31,pandilla,,,0,0,1.33279,0,62,62,30,1,REAL,FAKE,,,,,,,,,,,,,,,,,,,,,
,,,,,,,5e2ec46a316225000cf293ce,6057c54e64b0b4e5c128b4f9,605874a8583faa87ecd35c87,Spain,Northeast,13 or older,no,2021-03-22_06h43.19.826,empathy_intonation_perc,2020.2.10,Win32,60,,,,,,,,,,1,,,,,,,,,,,,,,,,,,,,,,,,,,,,,,,,,,,,,,,,77,tiburn,,,1,1,1.64925,0,63,63,76,1,REAL,FAKE,,,,,,,,,,,,,,,,,,,,,
,,,,,,,5e2ec46a316225000cf293ce,6057c54e64b0b4e5c128b4f9,605874a8583faa87ecd35c87,Spain,Northeast,13 or older,no,2021-03-22_06h43.19.826,empathy_intonation_perc,2020.2.10,Win32,60,,,,,,,,,,1,,,,,,,,,,,,,,,,,,,,,,,,,,,,,,,,,,,,,,,,62,flaco,,,1,1,0.75433,0,64,64,61,1,REAL,FAKE,,,,,,,,,,,,,,,,,,,,,
,,,,,,,5e2ec46a316225000cf293ce,6057c54e64b0b4e5c128b4f9,605874a8583faa87ecd35c87,Spain,Northeast,13 or older,no,2021-03-22_06h43.19.826,empathy_intonation_perc,2020.2.10,Win32,60,,,,,,,,,,1,,,,,,,,,,,,,,,,,,,,,,,,,,,,,,,,,,,,,,,,69,engatusar,,,0,0,0.916355,0,65,65,68,1,REAL,FAKE,,,,,,,,,,,,,,,,,,,,,
,,,,,,,5e2ec46a316225000cf293ce,6057c54e64b0b4e5c128b4f9,605874a8583faa87ecd35c87,Spain,Northeast,13 or older,no,2021-03-22_06h43.19.826,empathy_intonation_perc,2020.2.10,Win32,60,,,,,,,,,,1,,,,,,,,,,,,,,,,,,,,,,,,,,,,,,,,,,,,,,,,3,pulmones,,,1,1,1.341205,0,66,66,2,1,REAL,FAKE,,,,,,,,,,,,,,,,,,,,,
,,,,,,,5e2ec46a316225000cf293ce,6057c54e64b0b4e5c128b4f9,605874a8583faa87ecd35c87,Spain,Northeast,13 or older,no,2021-03-22_06h43.19.826,empathy_intonation_perc,2020.2.10,Win32,60,,,,,,,,,,1,,,,,,,,,,,,,,,,,,,,,,,,,,,,,,,,,,,,,,,,89,prisa,,,1,1,0.883175,0,67,67,88,1,REAL,FAKE,,,,,,,,,,,,,,,,,,,,,
,,,,,,,5e2ec46a316225000cf293ce,6057c54e64b0b4e5c128b4f9,605874a8583faa87ecd35c87,Spain,Northeast,13 or older,no,2021-03-22_06h43.19.826,empathy_intonation_perc,2020.2.10,Win32,60,,,,,,,,,,1,,,,,,,,,,,,,,,,,,,,,,,,,,,,,,,,,,,,,,,,68,alegre,,,0,0,1.64945,0,68,68,67,1,REAL,FAKE,,,,,,,,,,,,,,,,,,,,,
,,,,,,,5e2ec46a316225000cf293ce,6057c54e64b0b4e5c128b4f9,605874a8583faa87ecd35c87,Spain,Northeast,13 or older,no,2021-03-22_06h43.19.826,empathy_intonation_perc,2020.2.10,Win32,60,,,,,,,,,,1,,,,,,,,,,,,,,,,,,,,,,,,,,,,,,,,,,,,,,,,11,cenefa,,,0,0,1.465565,0,69,69,10,1,REAL,FAKE,,,,,,,,,,,,,,,,,,,,,
,,,,,,,5e2ec46a316225000cf293ce,6057c54e64b0b4e5c128b4f9,605874a8583faa87ecd35c87,Spain,Northeast,13 or older,no,2021-03-22_06h43.19.826,empathy_intonation_perc,2020.2.10,Win32,60,,,,,,,,,,1,,,,,,,,,,,,,,,,,,,,,,,,,,,,,,,,,,,,,,,,43,canela,,,0,0,0.71603,0,70,70,42,1,REAL,FAKE,,,,,,,,,,,,,,,,,,,,,
,,,,,,,5e2ec46a316225000cf293ce,6057c54e64b0b4e5c128b4f9,605874a8583faa87ecd35c87,Spain,Northeast,13 or older,no,2021-03-22_06h43.19.826,empathy_intonation_perc,2020.2.10,Win32,60,,,,,,,,,,1,,,,,,,,,,,,,,,,,,,,,,,,,,,,,,,,,,,,,,,,56,musgo,,,0,0,0.692125,0,71,71,55,1,REAL,FAKE,,,,,,,,,,,,,,,,,,,,,
,,,,,,,5e2ec46a316225000cf293ce,6057c54e64b0b4e5c128b4f9,605874a8583faa87ecd35c87,Spain,Northeast,13 or older,no,2021-03-22_06h43.19.826,empathy_intonation_perc,2020.2.10,Win32,60,,,,,,,,,,1,,,,,,,,,,,,,,,,,,,,,,,,,,,,,,,,,,,,,,,,44,cuchara,,,1,1,1.16674,0,72,72,43,1,REAL,FAKE,,,,,,,,,,,,,,,,,,,,,
,,,,,,,5e2ec46a316225000cf293ce,6057c54e64b0b4e5c128b4f9,605874a8583faa87ecd35c87,Spain,Northeast,13 or older,no,2021-03-22_06h43.19.826,empathy_intonation_perc,2020.2.10,Win32,60,,,,,,,,,,1,,,,,,,,,,,,,,,,,,,,,,,,,,,,,,,,,,,,,,,,80,hormiga,,,1,1,0.92228,0,73,73,79,1,REAL,FAKE,,,,,,,,,,,,,,,,,,,,,
,,,,,,,5e2ec46a316225000cf293ce,6057c54e64b0b4e5c128b4f9,605874a8583faa87ecd35c87,Spain,Northeast,13 or older,no,2021-03-22_06h43.19.826,empathy_intonation_perc,2020.2.10,Win32,60,,,,,,,,,,0,,,,,,,,,,,,,,,,,,,,,,,,,,,,,,,,,,,,,,,,17,floroso,,,0,1,0.900325,0,74,74,16,1,REAL,FAKE,,,,,,,,,,,,,,,,,,,,,
,,,,,,,5e2ec46a316225000cf293ce,6057c54e64b0b4e5c128b4f9,605874a8583faa87ecd35c87,Spain,Northeast,13 or older,no,2021-03-22_06h43.19.826,empathy_intonation_perc,2020.2.10,Win32,60,,,,,,,,,,1,,,,,,,,,,,,,,,,,,,,,,,,,,,,,,,,,,,,,,,,12,asesinato,,,1,1,1.438545,0,75,75,11,1,REAL,FAKE,,,,,,,,,,,,,,,,,,,,,
,,,,,,,5e2ec46a316225000cf293ce,6057c54e64b0b4e5c128b4f9,605874a8583faa87ecd35c87,Spain,Northeast,13 or older,no,2021-03-22_06h43.19.826,empathy_intonation_perc,2020.2.10,Win32,60,,,,,,,,,,1,,,,,,,,,,,,,,,,,,,,,,,,,,,,,,,,,,,,,,,,85,lad,,,0,0,0.974995,0,76,76,84,1,REAL,FAKE,,,,,,,,,,,,,,,,,,,,,
,,,,,,,5e2ec46a316225000cf293ce,6057c54e64b0b4e5c128b4f9,605874a8583faa87ecd35c87,Spain,Northeast,13 or older,no,2021-03-22_06h43.19.826,empathy_intonation_perc,2020.2.10,Win32,60,,,,,,,,,,0,,,,,,,,,,,,,,,,,,,,,,,,,,,,,,,,,,,,,,,,18,arsa,,,0,1,0.801775,0,77,77,17,1,REAL,FAKE,,,,,,,,,,,,,,,,,,,,,
,,,,,,,5e2ec46a316225000cf293ce,6057c54e64b0b4e5c128b4f9,605874a8583faa87ecd35c87,Spain,Northeast,13 or older,no,2021-03-22_06h43.19.826,empathy_intonation_perc,2020.2.10,Win32,60,,,,,,,,,,1,,,,,,,,,,,,,,,,,,,,,,,,,,,,,,,,,,,,,,,,24,ltigo,,,0,0,0.751525,0,78,78,23,1,REAL,FAKE,,,,,,,,,,,,,,,,,,,,,
,,,,,,,5e2ec46a316225000cf293ce,6057c54e64b0b4e5c128b4f9,605874a8583faa87ecd35c87,Spain,Northeast,13 or older,no,2021-03-22_06h43.19.826,empathy_intonation_perc,2020.2.10,Win32,60,,,,,,,,,,1,,,,,,,,,,,,,,,,,,,,,,,,,,,,,,,,,,,,,,,,39,torpe,,,0,0,1.322105,0,79,79,38,1,REAL,FAKE,,,,,,,,,,,,,,,,,,,,,
,,,,,,,5e2ec46a316225000cf293ce,6057c54e64b0b4e5c128b4f9,605874a8583faa87ecd35c87,Spain,Northeast,13 or older,no,2021-03-22_06h43.19.826,empathy_intonation_perc,2020.2.10,Win32,60,,,,,,,,,,1,,,,,,,,,,,,,,,,,,,,,,,,,,,,,,,,,,,,,,,,78,frondoso,,,1,1,0.867055,0,80,80,77,1,REAL,FAKE,,,,,,,,,,,,,,,,,,,,,
,,,,,,,5e2ec46a316225000cf293ce,6057c54e64b0b4e5c128b4f9,605874a8583faa87ecd35c87,Spain,Northeast,13 or older,no,2021-03-22_06h43.19.826,empathy_intonation_perc,2020.2.10,Win32,60,,,,,,,,,,1,,,,,,,,,,,,,,,,,,,,,,,,,,,,,,,,,,,,,,,,61,seda,,,0,0,0.708985,0,81,81,60,1,REAL,FAKE,,,,,,,,,,,,,,,,,,,,,
,,,,,,,5e2ec46a316225000cf293ce,6057c54e64b0b4e5c128b4f9,605874a8583faa87ecd35c87,Spain,Northeast,13 or older,no,2021-03-22_06h43.19.826,empathy_intonation_perc,2020.2.10,Win32,60,,,,,,,,,,0,,,,,,,,,,,,,,,,,,,,,,,,,,,,,,,,,,,,,,,,58,plaudir,,,1,0,0.971975,0,82,82,57,1,REAL,FAKE,,,,,,,,,,,,,,,,,,,,,
,,,,,,,5e2ec46a316225000cf293ce,6057c54e64b0b4e5c128b4f9,605874a8583faa87ecd35c87,Spain,Northeast,13 or older,no,2021-03-22_06h43.19.826,empathy_intonation_perc,2020.2.10,Win32,60,,,,,,,,,,0,,,,,,,,,,,,,,,,,,,,,,,,,,,,,,,,,,,,,,,,19,brecedad,,,0,1,1.78217,0,83,83,18,1,REAL,FAKE,,,,,,,,,,,,,,,,,,,,,
,,,,,,,5e2ec46a316225000cf293ce,6057c54e64b0b4e5c128b4f9,605874a8583faa87ecd35c87,Spain,Northeast,13 or older,no,2021-03-22_06h43.19.826,empathy_intonation_perc,2020.2.10,Win32,60,,,,,,,,,,0,,,,,,,,,,,,,,,,,,,,,,,,,,,,,,,,,,,,,,,,53,vegada,,,1,0,1.29123,0,84,84,52,1,REAL,FAKE,,,,,,,,,,,,,,,,,,,,,
,,,,,,,5e2ec46a316225000cf293ce,6057c54e64b0b4e5c128b4f9,605874a8583faa87ecd35c87,Spain,Northeast,13 or older,no,2021-03-22_06h43.19.826,empathy_intonation_perc,2020.2.10,Win32,60,,,,,,,,,,1,,,,,,,,,,,,,,,,,,,,,,,,,,,,,,,,,,,,,,,,51,candado,,,1,1,1.16288,0,85,85,50,1,REAL,FAKE,,,,,,,,,,,,,,,,,,,,,
,,,,,,,5e2ec46a316225000cf293ce,6057c54e64b0b4e5c128b4f9,605874a8583faa87ecd35c87,Spain,Northeast,13 or older,no,2021-03-22_06h43.19.826,empathy_intonation_perc,2020.2.10,Win32,60,,,,,,,,,,1,,,,,,,,,,,,,,,,,,,,,,,,,,,,,,,,,,,,,,,,75,yacer,,,0,0,1.0902,0,86,86,74,1,REAL,FAKE,,,,,,,,,,,,,,,,,,,,,
,,,,,,,5e2ec46a316225000cf293ce,6057c54e64b0b4e5c128b4f9,605874a8583faa87ecd35c87,Spain,Northeast,13 or older,no,2021-03-22_06h43.19.826,empathy_intonation_perc,2020.2.10,Win32,60,,,,,,,,,,1,,,,,,,,,,,,,,,,,,,,,,,,,,,,,,,,,,,,,,,,37,granuja,,,0,0,0.916255,0,87,87,36,1,REAL,FAKE,,,,,,,,,,,,,,,,,,,,,
,,,,,,,5e2ec46a316225000cf293ce,6057c54e64b0b4e5c128b4f9,605874a8583faa87ecd35c87,Spain,Northeast,13 or older,no,2021-03-22_06h43.19.826,empathy_intonation_perc,2020.2.10,Win32,60,,,,,,,,,,0,,,,,,,,,,,,,,,,,,,,,,,,,,,,,,,,,,,,,,,,29,decar,,,1,0,1.036215,0,88,88,28,1,REAL,FAKE,,,,,,,,,,,,,,,,,,,,,
,,,,,,,5e2ec46a316225000cf293ce,6057c54e64b0b4e5c128b4f9,605874a8583faa87ecd35c87,Spain,Northeast,13 or older,no,2021-03-22_06h43.19.826,empathy_intonation_perc,2020.2.10,Win32,60,,,,,,,,,,1,,,,,,,,,,,,,,,,,,,,,,,,,,,,,,,,,,,,,,,,2,pellizcar,,,0,0,1.548555,0,89,89,1,1,REAL,FAKE,,,,,,,,,,,,,,,,,,,,,
,,,,,,,5e2ec46a316225000cf293ce,6057c54e64b0b4e5c128b4f9,605874a8583faa87ecd35c87,Spain,Northeast,13 or older,no,2021-03-22_06h43.19.826,empathy_intonation_perc,2020.2.10,Win32,60,,,,,,,,,,,,,,,,,,,,,,,,,,,,,,,,,,,,,,,,,,,,,,,,,,,,,,,,,,,,,,,,4,1,2.53127,1,0,0,0,0,0,1,,,,,,,,,,,
,,,,,,,5e2ec46a316225000cf293ce,6057c54e64b0b4e5c128b4f9,605874a8583faa87ecd35c87,Spain,Northeast,13 or older,no,2021-03-22_06h43.19.826,empathy_intonation_perc,2020.2.10,Win32,60,,,,,,,,,,,,,,,,,,,,1,,,,,,,,,,,,,,,,,,,,,,,,,,,,,,,,,,,,,,,,,,,,,,,,,,,,,,3,0,0,0,0,1,I can easily tell if someone else wants to enter a conversation.,1,0,1,0
,,,,,,,5e2ec46a316225000cf293ce,6057c54e64b0b4e5c128b4f9,605874a8583faa87ecd35c87,Spain,Northeast,13 or older,no,2021-03-22_06h43.19.826,empathy_intonation_perc,2020.2.10,Win32,60,,,,,,,,,,,,,,,,,,,,2,,,,,,,,,,,,,,,,,,,,,,,,,,,,,,,,,,,,,,,,,,,,,,,,,,,,,,2,0,1,1,1,1,I prefer animals to humans.,0,1,0,0
,,,,,,,5e2ec46a316225000cf293ce,6057c54e64b0b4e5c128b4f9,605874a8583faa87ecd35c87,Spain,Northeast,13 or older,no,2021-03-22_06h43.19.826,empathy_intonation_perc,2020.2.10,Win32,60,,,,,,,,,,,,,,,,,,,,3,,,,,,,,,,,,,,,,,,,,,,,,,,,,,,,,,,,,,,,,,,,,,,,,,,,,,,5,0,2,2,2,1,I try to keep up with the current trends and fashions.,0,1,0,0
,,,,,,,5e2ec46a316225000cf293ce,6057c54e64b0b4e5c128b4f9,605874a8583faa87ecd35c87,Spain,Northeast,13 or older,no,2021-03-22_06h43.19.826,empathy_intonation_perc,2020.2.10,Win32,60,,,,,,,,,,,,,,,,,,,,4,,,,,,,,,,,,,,,,,,,,,,,,,,,,,,,,,,,,,,,,,,,,,,,,,,,,,,2,0,3,3,3,1,"I find it difficult to explain to others things that I understand easily, 
  when they dont understand it first time.",1,0,0,1
,,,,,,,5e2ec46a316225000cf293ce,6057c54e64b0b4e5c128b4f9,605874a8583faa87ecd35c87,Spain,Northeast,13 or older,no,2021-03-22_06h43.19.826,empathy_intonation_perc,2020.2.10,Win32,60,,,,,,,,,,,,,,,,,,,,5,,,,,,,,,,,,,,,,,,,,,,,,,,,,,,,,,,,,,,,,,,,,,,,,,,,,,,2,0,4,4,4,1,I dream most nights.,0,1,0,0
,,,,,,,5e2ec46a316225000cf293ce,6057c54e64b0b4e5c128b4f9,605874a8583faa87ecd35c87,Spain,Northeast,13 or older,no,2021-03-22_06h43.19.826,empathy_intonation_perc,2020.2.10,Win32,60,,,,,,,,,,,,,,,,,,,,6,,,,,,,,,,,,,,,,,,,,,,,,,,,,,,,,,,,,,,,,,,,,,,,,,,,,,,4,0,5,5,5,1,I really enjoy caring for other people.,1,0,1,0
,,,,,,,5e2ec46a316225000cf293ce,6057c54e64b0b4e5c128b4f9,605874a8583faa87ecd35c87,Spain,Northeast,13 or older,no,2021-03-22_06h43.19.826,empathy_intonation_perc,2020.2.10,Win32,60,,,,,,,,,,,,,,,,,,,,7,,,,,,,,,,,,,,,,,,,,,,,,,,,,,,,,,,,,,,,,,,,,,,,,,,,,,,2,0,6,6,6,1,I try to solve my own problems rather than discussing them with others.,0,1,0,0
,,,,,,,5e2ec46a316225000cf293ce,6057c54e64b0b4e5c128b4f9,605874a8583faa87ecd35c87,Spain,Northeast,13 or older,no,2021-03-22_06h43.19.826,empathy_intonation_perc,2020.2.10,Win32,60,,,,,,,,,,,,,,,,,,,,8,,,,,,,,,,,,,,,,,,,,,,,,,,,,,,,,,,,,,,,,,,,,,,,,,,,,,,2,0,7,7,7,1,I find it hard to know what to do in a social situation.,1,0,0,1
