instructions_2afc_loop.thisRepN,instructions_2afc_loop.thisTrialN,instructions_2afc_loop.thisN,instructions_2afc_loop.thisIndex,instructions_2afc_loop.ran,instructions_text,continue_text,participant,study_id,session,I am most familiar with Spanish from...*,What part of the US are you from?*,At what age did you begin learning Spanish?*,Are you proficient in any languages other than English/Spanish?*,date,expName,psychopyVersion,OS,frameRate,key_resp_2afc_practice.keys,key_resp_2afc_practice.corr,key_resp_2afc_practice.rt,trials_2afc_practice_loop.thisRepN,trials_2afc_practice_loop.thisTrialN,trials_2afc_practice_loop.thisN,trials_2afc_practice_loop.thisIndex,trials_2afc_practice_loop.ran,path,correct_response,the_col,key_resp_2afc_trial.keys,key_resp_2afc_trial.corr,key_resp_2afc_trial.rt,trials_2afc_loop.thisRepN,trials_2afc_loop.thisTrialN,trials_2afc_loop.thisN,trials_2afc_loop.thisIndex,trials_2afc_loop.ran,item_num,andalusian,argentine,castilian,chilean,cuban,mexican,peruvian,puertorican,key_resp_ac1.keys,key_resp_ac1.corr,key_resp_ac1.rt,ac1_loop.thisRepN,ac1_loop.thisTrialN,ac1_loop.thisN,ac1_loop.thisIndex,ac1_loop.ran,instructions_lextale_loop.thisRepN,instructions_lextale_loop.thisTrialN,instructions_lextale_loop.thisN,instructions_lextale_loop.thisIndex,instructions_lextale_loop.ran,key_resp_lextale_practice.keys,key_resp_lextale_practice.corr,key_resp_lextale_practice.rt,trials_lextale_practice_loop.thisRepN,trials_lextale_practice_loop.thisTrialN,trials_lextale_practice_loop.thisN,trials_lextale_practice_loop.thisIndex,trials_lextale_practice_loop.ran,stim,word,prac_button_real,prac_button_false,key_resp_lextale_trial.keys,key_resp_lextale_trial.corr,key_resp_lextale_trial.rt,trials_lextale_loop.thisRepN,trials_lextale_loop.thisTrialN,trials_lextale_loop.thisN,trials_lextale_loop.thisIndex,trials_lextale_loop.ran,button_real,button_false,key_resp_ac2.keys,key_resp_ac2.corr,key_resp_ac2.rt,check_pass,check_fails,ac2_loop.thisRepN,ac2_loop.thisTrialN,ac2_loop.thisN,ac2_loop.thisIndex,ac2_loop.ran,slider_eq_trial.response,trials_eq_loop.thisRepN,trials_eq_loop.thisTrialN,trials_eq_loop.thisN,trials_eq_loop.thisIndex,trials_eq_loop.ran,item,is_test_item,is_distractor,is_agree_score,is_disagree_score
0,0,0,0,1,"In the following task you are going to hear a series of utterances. 

  You will decide if the utterances sound like questions or not using your keyboard.",(press the spacebar to continue),5e3dff6b8714b707b9a258b0,60568611ec04488a9e9da93b,6056b43c74a8331f64e78567,United States,West coast,13 or older,yes,2021-03-20_19h50.08.413,empathy_intonation_perc,2020.2.10,Win32,60,,,,,,,,,,,,,,,,,,,,,,,,,,,,,,,,,,,,,,,,,,,,,,,,,,,,,,,,,,,,,,,,,,,,,,,,,,,,,,,,,,,,
0,1,1,1,1,"If you believe the utterance is a question, type '1' (for 'yes') and if you do not 
  believe it is a question type '0' (for 'no').

  Let's practice a bit...",(press the spacebar to continue),5e3dff6b8714b707b9a258b0,60568611ec04488a9e9da93b,6056b43c74a8331f64e78567,United States,West coast,13 or older,yes,2021-03-20_19h50.08.413,empathy_intonation_perc,2020.2.10,Win32,60,,,,,,,,,,,,,,,,,,,,,,,,,,,,,,,,,,,,,,,,,,,,,,,,,,,,,,,,,,,,,,,,,,,,,,,,,,,,,,,,,,,,
,,,,,,,5e3dff6b8714b707b9a258b0,60568611ec04488a9e9da93b,6056b43c74a8331f64e78567,United States,West coast,13 or older,yes,2021-03-20_19h50.08.413,empathy_intonation_perc,2020.2.10,Win32,60,1,0,1.500975,0,0,0,5,1,./stim/wavs/andalusian_statement_filler_Alberto-nunca-se-afeita.wav,0,,,,,,,,,,,,,,,,,,,,,,,,,,,,,,,,,,,,,,,,,,,,,,,,,,,,,,,,,,,,,,,,,,,,,,,,,,
,,,,,,,5e3dff6b8714b707b9a258b0,60568611ec04488a9e9da93b,6056b43c74a8331f64e78567,United States,West coast,13 or older,yes,2021-03-20_19h50.08.413,empathy_intonation_perc,2020.2.10,Win32,60,1,0,0.305435,0,1,1,4,1,./stim/wavs/cuban_statement_filler_Cocinabas-por-la-noche.wav,0,,,,,,,,,,,,,,,,,,,,,,,,,,,,,,,,,,,,,,,,,,,,,,,,,,,,,,,,,,,,,,,,,,,,,,,,,,
,,,,,,,5e3dff6b8714b707b9a258b0,60568611ec04488a9e9da93b,6056b43c74a8331f64e78567,United States,West coast,13 or older,yes,2021-03-20_19h50.08.413,empathy_intonation_perc,2020.2.10,Win32,60,1,1,0.010385,0,2,2,1,1,./stim/wavs/argentine_question_filler_Mi-vecino-habla-mucho.wav,1,,,,,,,,,,,,,,,,,,,,,,,,,,,,,,,,,,,,,,,,,,,,,,,,,,,,,,,,,,,,,,,,,,,,,,,,,,
,,,,,,,5e3dff6b8714b707b9a258b0,60568611ec04488a9e9da93b,6056b43c74a8331f64e78567,United States,West coast,13 or older,yes,2021-03-20_19h50.08.413,empathy_intonation_perc,2020.2.10,Win32,60,1,0,0.00362,0,3,3,6,1,./stim/wavs/peruvian_statement_filler_El-nino-habla-con-su-madre.wav,0,,,,,,,,,,,,,,,,,,,,,,,,,,,,,,,,,,,,,,,,,,,,,,,,,,,,,,,,,,,,,,,,,,,,,,,,,,
,,,,,,,5e3dff6b8714b707b9a258b0,60568611ec04488a9e9da93b,6056b43c74a8331f64e78567,United States,West coast,13 or older,yes,2021-03-20_19h50.08.413,empathy_intonation_perc,2020.2.10,Win32,60,1,1,0.084115,0,4,4,2,1,./stim/wavs/chilean_question_filler_Mi-padre-cantaba-bien.wav,1,,,,,,,,,,,,,,,,,,,,,,,,,,,,,,,,,,,,,,,,,,,,,,,,,,,,,,,,,,,,,,,,,,,,,,,,,,
,,,,,,,5e3dff6b8714b707b9a258b0,60568611ec04488a9e9da93b,6056b43c74a8331f64e78567,United States,West coast,13 or older,yes,2021-03-20_19h50.08.413,empathy_intonation_perc,2020.2.10,Win32,60,1,1,0.182765,0,5,5,0,1,./stim/wavs/castilian_question_filler_Mi-esposo-conoce-al-chico.wav,1,,,,,,,,,,,,,,,,,,,,,,,,,,,,,,,,,,,,,,,,,,,,,,,,,,,,,,,,,,,,,,,,,,,,,,,,,,
,,,,,,,5e3dff6b8714b707b9a258b0,60568611ec04488a9e9da93b,6056b43c74a8331f64e78567,United States,West coast,13 or older,yes,2021-03-20_19h50.08.413,empathy_intonation_perc,2020.2.10,Win32,60,1,0,4.045195,0,6,6,7,1,./stim/wavs/puertorican_statement_filler_La-nina-pinta-con-su-amiga.wav,0,,,,,,,,,,,,,,,,,,,,,,,,,,,,,,,,,,,,,,,,,,,,,,,,,,,,,,,,,,,,,,,,,,,,,,,,,,
,,,,,,,5e3dff6b8714b707b9a258b0,60568611ec04488a9e9da93b,6056b43c74a8331f64e78567,United States,West coast,13 or older,yes,2021-03-20_19h50.08.413,empathy_intonation_perc,2020.2.10,Win32,60,1,1,2.008085,0,7,7,3,1,./stim/wavs/mexican_question_filler_Felipe-no-tiene-contrasena.wav,1,,,,,,,,,,,,,,,,,,,,,,,,,,,,,,,,,,,,,,,,,,,,,,,,,,,,,,,,,,,,,,,,,,,,,,,,,,
,,,,,,,5e3dff6b8714b707b9a258b0,60568611ec04488a9e9da93b,6056b43c74a8331f64e78567,United States,West coast,13 or older,yes,2021-03-20_19h50.08.413,empathy_intonation_perc,2020.2.10,Win32,60,,,,,,,,,,0,chilean,0,1,5.370185,0,0,0,1,1,2,./stim/wavs/andalusian_match_declarative-broad-focus_Daniel-iba-a-Bolivia.wav,./stim/wavs/argentine_match_declarative-broad-focus_Daniel-iba-a-Bolivia.wav,./stim/wavs/castilian_match_declarative-broad-focus_Daniel-iba-a-Bolivia.wav,./stim/wavs/chilean_match_declarative-broad-focus_Daniel-iba-a-Bolivia.wav,./stim/wavs/cuban_match_declarative-broad-focus_Daniel-iba-a-Bolivia.wav,./stim/wavs/mexican_match_declarative-broad-focus_Daniel-iba-a-Bolivia.wav,./stim/wavs/peruvian_match_declarative-broad-focus_Daniel-iba-a-Bolivia.wav,./stim/wavs/puertorican_match_declarative-broad-focus_Daniel-iba-a-Bolivia.wav,,,,,,,,,,,,,,,,,,,,,,,,,,,,,,,,,,,,,,,,,,,,,,,,,,,,,,,,
,,,,,,,5e3dff6b8714b707b9a258b0,60568611ec04488a9e9da93b,6056b43c74a8331f64e78567,United States,West coast,13 or older,yes,2021-03-20_19h50.08.413,empathy_intonation_perc,2020.2.10,Win32,60,,,,,,,,,,0,castilian,0,1,1.737545,0,1,1,4,1,5,./stim/wavs/andalusian_match_declarative-broad-focus_Manuela-vende-el-carro.wav,./stim/wavs/argentine_match_declarative-broad-focus_Manuela-vende-el-carro.wav,./stim/wavs/castilian_match_declarative-broad-focus_Manuela-vende-el-carro.wav,./stim/wavs/chilean_match_declarative-broad-focus_Manuela-vende-el-carro.wav,./stim/wavs/cuban_match_declarative-broad-focus_Manuela-vende-el-carro.wav,./stim/wavs/mexican_match_declarative-broad-focus_Manuela-vende-el-carro.wav,./stim/wavs/peruvian_match_declarative-broad-focus_Manuela-vende-el-carro.wav,./stim/wavs/puertorican_match_declarative-broad-focus_Manuela-vende-el-carro.wav,,,,,,,,,,,,,,,,,,,,,,,,,,,,,,,,,,,,,,,,,,,,,,,,,,,,,,,,
,,,,,,,5e3dff6b8714b707b9a258b0,60568611ec04488a9e9da93b,6056b43c74a8331f64e78567,United States,West coast,13 or older,yes,2021-03-20_19h50.08.413,empathy_intonation_perc,2020.2.10,Win32,60,,,,,,,,,,0,peruvian,0,1,1.982205,0,2,2,6,1,7,./stim/wavs/andalusian_match_declarative-broad-focus_Mariano-habla-del-tiempo.wav,./stim/wavs/argentine_match_declarative-broad-focus_Mariano-habla-del-tiempo.wav,./stim/wavs/castilian_match_declarative-broad-focus_Mariano-habla-del-tiempo.wav,./stim/wavs/chilean_match_declarative-broad-focus_Mariano-habla-del-tiempo.wav,./stim/wavs/cuban_match_declarative-broad-focus_Mariano-habla-del-tiempo.wav,./stim/wavs/mexican_match_declarative-broad-focus_Mariano-habla-del-tiempo.wav,./stim/wavs/peruvian_match_declarative-broad-focus_Mariano-habla-del-tiempo.wav,./stim/wavs/puertorican_match_declarative-broad-focus_Mariano-habla-del-tiempo.wav,,,,,,,,,,,,,,,,,,,,,,,,,,,,,,,,,,,,,,,,,,,,,,,,,,,,,,,,
,,,,,,,5e3dff6b8714b707b9a258b0,60568611ec04488a9e9da93b,6056b43c74a8331f64e78567,United States,West coast,13 or older,yes,2021-03-20_19h50.08.413,empathy_intonation_perc,2020.2.10,Win32,60,,,,,,,,,,0,argentine,0,1,2.673845,0,3,3,32,1,33,./stim/wavs/andalusian_mismatch_declarative-broad-focus_El-bebe-comia-muy-bien.wav,./stim/wavs/argentine_mismatch_declarative-broad-focus_El-bebe-comia-muy-bien.wav,./stim/wavs/castilian_mismatch_declarative-broad-focus_El-bebe-comia-muy-bien.wav,./stim/wavs/chilean_mismatch_declarative-broad-focus_El-bebe-comia-muy-bien.wav,./stim/wavs/cuban_mismatch_declarative-broad-focus_El-bebe-comia-muy-bien.wav,./stim/wavs/mexican_mismatch_declarative-broad-focus_El-bebe-comia-muy-bien.wav,./stim/wavs/peruvian_mismatch_declarative-broad-focus_El-bebe-comia-muy-bien.wav,./stim/wavs/puertorican_mismatch_declarative-broad-focus_El-bebe-comia-muy-bien.wav,,,,,,,,,,,,,,,,,,,,,,,,,,,,,,,,,,,,,,,,,,,,,,,,,,,,,,,,
,,,,,,,5e3dff6b8714b707b9a258b0,60568611ec04488a9e9da93b,6056b43c74a8331f64e78567,United States,West coast,13 or older,yes,2021-03-20_19h50.08.413,empathy_intonation_perc,2020.2.10,Win32,60,,,,,,,,,,1,puertorican,0,0,2.51348,0,4,4,30,1,31,./stim/wavs/andalusian_match_interrogative-total-yn_Mariano-habla-del-tiempo.wav,./stim/wavs/argentine_match_interrogative-total-yn_Mariano-habla-del-tiempo.wav,./stim/wavs/castilian_match_interrogative-total-yn_Mariano-habla-del-tiempo.wav,./stim/wavs/chilean_match_interrogative-total-yn_Mariano-habla-del-tiempo.wav,./stim/wavs/cuban_match_interrogative-total-yn_Mariano-habla-del-tiempo.wav,./stim/wavs/mexican_match_interrogative-total-yn_Mariano-habla-del-tiempo.wav,./stim/wavs/peruvian_match_interrogative-total-yn_Mariano-habla-del-tiempo.wav,./stim/wavs/puertorican_match_interrogative-total-yn_Mariano-habla-del-tiempo.wav,,,,,,,,,,,,,,,,,,,,,,,,,,,,,,,,,,,,,,,,,,,,,,,,,,,,,,,,
,,,,,,,5e3dff6b8714b707b9a258b0,60568611ec04488a9e9da93b,6056b43c74a8331f64e78567,United States,West coast,13 or older,yes,2021-03-20_19h50.08.413,empathy_intonation_perc,2020.2.10,Win32,60,,,,,,,,,,1,argentine,1,1,1.42009,0,5,5,55,1,56,./stim/wavs/andalusian_mismatch_interrogative-partial-wh_Por-que-vivia-en-Paris.wav,./stim/wavs/argentine_mismatch_interrogative-partial-wh_Por-que-vivia-en-Paris.wav,./stim/wavs/castilian_mismatch_interrogative-partial-wh_Por-que-vivia-en-Paris.wav,./stim/wavs/chilean_mismatch_interrogative-partial-wh_Por-que-vivia-en-Paris.wav,./stim/wavs/cuban_mismatch_interrogative-partial-wh_Por-que-vivia-en-Paris.wav,./stim/wavs/mexican_mismatch_interrogative-partial-wh_Por-que-vivia-en-Paris.wav,./stim/wavs/peruvian_mismatch_interrogative-partial-wh_Por-que-vivia-en-Paris.wav,./stim/wavs/puertorican_mismatch_interrogative-partial-wh_Por-que-vivia-en-Paris.wav,,,,,,,,,,,,,,,,,,,,,,,,,,,,,,,,,,,,,,,,,,,,,,,,,,,,,,,,
,,,,,,,5e3dff6b8714b707b9a258b0,60568611ec04488a9e9da93b,6056b43c74a8331f64e78567,United States,West coast,13 or older,yes,2021-03-20_19h50.08.413,empathy_intonation_perc,2020.2.10,Win32,60,,,,,,,,,,1,cuban,0,0,3.579505,0,6,6,60,1,61,./stim/wavs/andalusian_mismatch_interrogative-total-yn_La-nina-lava-el-plato.wav,./stim/wavs/argentine_mismatch_interrogative-total-yn_La-nina-lava-el-plato.wav,./stim/wavs/castilian_mismatch_interrogative-total-yn_La-nina-lava-el-plato.wav,./stim/wavs/chilean_mismatch_interrogative-total-yn_La-nina-lava-el-plato.wav,./stim/wavs/cuban_mismatch_interrogative-total-yn_La-nina-lava-el-plato.wav,./stim/wavs/mexican_mismatch_interrogative-total-yn_La-nina-lava-el-plato.wav,./stim/wavs/peruvian_mismatch_interrogative-total-yn_La-nina-lava-el-plato.wav,./stim/wavs/puertorican_mismatch_interrogative-total-yn_La-nina-lava-el-plato.wav,,,,,,,,,,,,,,,,,,,,,,,,,,,,,,,,,,,,,,,,,,,,,,,,,,,,,,,,
,,,,,,,5e3dff6b8714b707b9a258b0,60568611ec04488a9e9da93b,6056b43c74a8331f64e78567,United States,West coast,13 or older,yes,2021-03-20_19h50.08.413,empathy_intonation_perc,2020.2.10,Win32,60,,,,,,,,,,0,puertorican,0,1,2.50634,0,7,7,47,1,48,./stim/wavs/andalusian_mismatch_declarative-narrow-focus_Mi-tia-odia-la-lluvia.wav,./stim/wavs/argentine_mismatch_declarative-narrow-focus_Mi-tia-odia-la-lluvia.wav,./stim/wavs/castilian_mismatch_declarative-narrow-focus_Mi-tia-odia-la-lluvia.wav,./stim/wavs/chilean_mismatch_declarative-narrow-focus_Mi-tia-odia-la-lluvia.wav,./stim/wavs/cuban_mismatch_declarative-narrow-focus_Mi-tia-odia-la-lluvia.wav,./stim/wavs/mexican_mismatch_declarative-narrow-focus_Mi-tia-odia-la-lluvia.wav,./stim/wavs/peruvian_mismatch_declarative-narrow-focus_Mi-tia-odia-la-lluvia.wav,./stim/wavs/puertorican_mismatch_declarative-narrow-focus_Mi-tia-odia-la-lluvia.wav,,,,,,,,,,,,,,,,,,,,,,,,,,,,,,,,,,,,,,,,,,,,,,,,,,,,,,,,
,,,,,,,5e3dff6b8714b707b9a258b0,60568611ec04488a9e9da93b,6056b43c74a8331f64e78567,United States,West coast,13 or older,yes,2021-03-20_19h50.08.413,empathy_intonation_perc,2020.2.10,Win32,60,,,,,,,,,,0,andalusian,1,0,1.55804,0,8,8,46,1,47,./stim/wavs/andalusian_mismatch_declarative-narrow-focus_Mi-novio-viene-del-lago.wav,./stim/wavs/argentine_mismatch_declarative-narrow-focus_Mi-novio-viene-del-lago.wav,./stim/wavs/castilian_mismatch_declarative-narrow-focus_Mi-novio-viene-del-lago.wav,./stim/wavs/chilean_mismatch_declarative-narrow-focus_Mi-novio-viene-del-lago.wav,./stim/wavs/cuban_mismatch_declarative-narrow-focus_Mi-novio-viene-del-lago.wav,./stim/wavs/mexican_mismatch_declarative-narrow-focus_Mi-novio-viene-del-lago.wav,./stim/wavs/peruvian_mismatch_declarative-narrow-focus_Mi-novio-viene-del-lago.wav,./stim/wavs/puertorican_mismatch_declarative-narrow-focus_Mi-novio-viene-del-lago.wav,,,,,,,,,,,,,,,,,,,,,,,,,,,,,,,,,,,,,,,,,,,,,,,,,,,,,,,,
,,,,,,,5e3dff6b8714b707b9a258b0,60568611ec04488a9e9da93b,6056b43c74a8331f64e78567,United States,West coast,13 or older,yes,2021-03-20_19h50.08.413,empathy_intonation_perc,2020.2.10,Win32,60,,,,,,,,,,1,puertorican,1,1,1.428885,0,9,9,19,1,20,./stim/wavs/andalusian_match_interrogative-partial-wh_Cuando-vendia-el-carro.wav,./stim/wavs/argentine_match_interrogative-partial-wh_Cuando-vendia-el-carro.wav,./stim/wavs/castilian_match_interrogative-partial-wh_Cuando-vendia-el-carro.wav,./stim/wavs/chilean_match_interrogative-partial-wh_Cuando-vendia-el-carro.wav,./stim/wavs/cuban_match_interrogative-partial-wh_Cuando-vendia-el-carro.wav,./stim/wavs/mexican_match_interrogative-partial-wh_Cuando-vendia-el-carro.wav,./stim/wavs/peruvian_match_interrogative-partial-wh_Cuando-vendia-el-carro.wav,./stim/wavs/puertorican_match_interrogative-partial-wh_Cuando-vendia-el-carro.wav,,,,,,,,,,,,,,,,,,,,,,,,,,,,,,,,,,,,,,,,,,,,,,,,,,,,,,,,
,,,,,,,5e3dff6b8714b707b9a258b0,60568611ec04488a9e9da93b,6056b43c74a8331f64e78567,United States,West coast,13 or older,yes,2021-03-20_19h50.08.413,empathy_intonation_perc,2020.2.10,Win32,60,,,,,,,,,,0,puertorican,0,1,1.5196,0,10,10,2,1,3,./stim/wavs/andalusian_match_declarative-broad-focus_David-leia-el-libro.wav,./stim/wavs/argentine_match_declarative-broad-focus_David-leia-el-libro.wav,./stim/wavs/castilian_match_declarative-broad-focus_David-leia-el-libro.wav,./stim/wavs/chilean_match_declarative-broad-focus_David-leia-el-libro.wav,./stim/wavs/cuban_match_declarative-broad-focus_David-leia-el-libro.wav,./stim/wavs/mexican_match_declarative-broad-focus_David-leia-el-libro.wav,./stim/wavs/peruvian_match_declarative-broad-focus_David-leia-el-libro.wav,./stim/wavs/puertorican_match_declarative-broad-focus_David-leia-el-libro.wav,,,,,,,,,,,,,,,,,,,,,,,,,,,,,,,,,,,,,,,,,,,,,,,,,,,,,,,,
,,,,,,,5e3dff6b8714b707b9a258b0,60568611ec04488a9e9da93b,6056b43c74a8331f64e78567,United States,West coast,13 or older,yes,2021-03-20_19h50.08.413,empathy_intonation_perc,2020.2.10,Win32,60,,,,,,,,,,1,peruvian,1,1,1.58528,0,11,11,24,1,25,./stim/wavs/andalusian_match_interrogative-total-yn_Ana-lleva-el-abrigo.wav,./stim/wavs/argentine_match_interrogative-total-yn_Ana-lleva-el-abrigo.wav,./stim/wavs/castilian_match_interrogative-total-yn_Ana-lleva-el-abrigo.wav,./stim/wavs/chilean_match_interrogative-total-yn_Ana-lleva-el-abrigo.wav,./stim/wavs/cuban_match_interrogative-total-yn_Ana-lleva-el-abrigo.wav,./stim/wavs/mexican_match_interrogative-total-yn_Ana-lleva-el-abrigo.wav,./stim/wavs/peruvian_match_interrogative-total-yn_Ana-lleva-el-abrigo.wav,./stim/wavs/puertorican_match_interrogative-total-yn_Ana-lleva-el-abrigo.wav,,,,,,,,,,,,,,,,,,,,,,,,,,,,,,,,,,,,,,,,,,,,,,,,,,,,,,,,
,,,,,,,5e3dff6b8714b707b9a258b0,60568611ec04488a9e9da93b,6056b43c74a8331f64e78567,United States,West coast,13 or older,yes,2021-03-20_19h50.08.413,empathy_intonation_perc,2020.2.10,Win32,60,,,,,,,,,,1,andalusian,0,0,2.275745,0,12,12,23,1,24,./stim/wavs/andalusian_match_interrogative-partial-wh_Por-que-iba-a-Bolivia.wav,./stim/wavs/argentine_match_interrogative-partial-wh_Por-que-iba-a-Bolivia.wav,./stim/wavs/castilian_match_interrogative-partial-wh_Por-que-iba-a-Bolivia.wav,./stim/wavs/chilean_match_interrogative-partial-wh_Por-que-iba-a-Bolivia.wav,./stim/wavs/cuban_match_interrogative-partial-wh_Por-que-iba-a-Bolivia.wav,./stim/wavs/mexican_match_interrogative-partial-wh_Por-que-iba-a-Bolivia.wav,./stim/wavs/peruvian_match_interrogative-partial-wh_Por-que-iba-a-Bolivia.wav,./stim/wavs/puertorican_match_interrogative-partial-wh_Por-que-iba-a-Bolivia.wav,,,,,,,,,,,,,,,,,,,,,,,,,,,,,,,,,,,,,,,,,,,,,,,,,,,,,,,,
,,,,,,,5e3dff6b8714b707b9a258b0,60568611ec04488a9e9da93b,6056b43c74a8331f64e78567,United States,West coast,13 or older,yes,2021-03-20_19h50.08.413,empathy_intonation_perc,2020.2.10,Win32,60,,,,,,,,,,1,chilean,0,0,3.12181,0,13,13,18,1,19,./stim/wavs/andalusian_match_interrogative-partial-wh_Cuando-lleva-el-abrigo.wav,./stim/wavs/argentine_match_interrogative-partial-wh_Cuando-lleva-el-abrigo.wav,./stim/wavs/castilian_match_interrogative-partial-wh_Cuando-lleva-el-abrigo.wav,./stim/wavs/chilean_match_interrogative-partial-wh_Cuando-lleva-el-abrigo.wav,./stim/wavs/cuban_match_interrogative-partial-wh_Cuando-lleva-el-abrigo.wav,./stim/wavs/mexican_match_interrogative-partial-wh_Cuando-lleva-el-abrigo.wav,./stim/wavs/peruvian_match_interrogative-partial-wh_Cuando-lleva-el-abrigo.wav,./stim/wavs/puertorican_match_interrogative-partial-wh_Cuando-lleva-el-abrigo.wav,,,,,,,,,,,,,,,,,,,,,,,,,,,,,,,,,,,,,,,,,,,,,,,,,,,,,,,,
,,,,,,,5e3dff6b8714b707b9a258b0,60568611ec04488a9e9da93b,6056b43c74a8331f64e78567,United States,West coast,13 or older,yes,2021-03-20_19h50.08.413,empathy_intonation_perc,2020.2.10,Win32,60,,,,,,,,,,0,chilean,0,1,2.121745,0,14,14,10,1,11,./stim/wavs/andalusian_match_declarative-narrow-focus_David-leia-el-libro.wav,./stim/wavs/argentine_match_declarative-narrow-focus_David-leia-el-libro.wav,./stim/wavs/castilian_match_declarative-narrow-focus_David-leia-el-libro.wav,./stim/wavs/chilean_match_declarative-narrow-focus_David-leia-el-libro.wav,./stim/wavs/cuban_match_declarative-narrow-focus_David-leia-el-libro.wav,./stim/wavs/mexican_match_declarative-narrow-focus_David-leia-el-libro.wav,./stim/wavs/peruvian_match_declarative-narrow-focus_David-leia-el-libro.wav,./stim/wavs/puertorican_match_declarative-narrow-focus_David-leia-el-libro.wav,,,,,,,,,,,,,,,,,,,,,,,,,,,,,,,,,,,,,,,,,,,,,,,,,,,,,,,,
,,,,,,,5e3dff6b8714b707b9a258b0,60568611ec04488a9e9da93b,6056b43c74a8331f64e78567,United States,West coast,13 or older,yes,2021-03-20_19h50.08.413,empathy_intonation_perc,2020.2.10,Win32,60,,,,,,,,,,0,chilean,0,1,1.935135,0,15,15,45,1,46,./stim/wavs/andalusian_mismatch_declarative-narrow-focus_Mi-madre-come-la-fruta.wav,./stim/wavs/argentine_mismatch_declarative-narrow-focus_Mi-madre-come-la-fruta.wav,./stim/wavs/castilian_mismatch_declarative-narrow-focus_Mi-madre-come-la-fruta.wav,./stim/wavs/chilean_mismatch_declarative-narrow-focus_Mi-madre-come-la-fruta.wav,./stim/wavs/cuban_mismatch_declarative-narrow-focus_Mi-madre-come-la-fruta.wav,./stim/wavs/mexican_mismatch_declarative-narrow-focus_Mi-madre-come-la-fruta.wav,./stim/wavs/peruvian_mismatch_declarative-narrow-focus_Mi-madre-come-la-fruta.wav,./stim/wavs/puertorican_mismatch_declarative-narrow-focus_Mi-madre-come-la-fruta.wav,,,,,,,,,,,,,,,,,,,,,,,,,,,,,,,,,,,,,,,,,,,,,,,,,,,,,,,,
,,,,,,,5e3dff6b8714b707b9a258b0,60568611ec04488a9e9da93b,6056b43c74a8331f64e78567,United States,West coast,13 or older,yes,2021-03-20_19h50.08.413,empathy_intonation_perc,2020.2.10,Win32,60,,,,,,,,,,0,peruvian,0,1,1.701685,0,16,16,0,1,1,./stim/wavs/andalusian_match_declarative-broad-focus_Ana-lleva-el-abrigo.wav,./stim/wavs/argentine_match_declarative-broad-focus_Ana-lleva-el-abrigo.wav,./stim/wavs/castilian_match_declarative-broad-focus_Ana-lleva-el-abrigo.wav,./stim/wavs/chilean_match_declarative-broad-focus_Ana-lleva-el-abrigo.wav,./stim/wavs/cuban_match_declarative-broad-focus_Ana-lleva-el-abrigo.wav,./stim/wavs/mexican_match_declarative-broad-focus_Ana-lleva-el-abrigo.wav,./stim/wavs/peruvian_match_declarative-broad-focus_Ana-lleva-el-abrigo.wav,./stim/wavs/puertorican_match_declarative-broad-focus_Ana-lleva-el-abrigo.wav,,,,,,,,,,,,,,,,,,,,,,,,,,,,,,,,,,,,,,,,,,,,,,,,,,,,,,,,
,,,,,,,5e3dff6b8714b707b9a258b0,60568611ec04488a9e9da93b,6056b43c74a8331f64e78567,United States,West coast,13 or older,yes,2021-03-20_19h50.08.413,empathy_intonation_perc,2020.2.10,Win32,60,,,,,,,,,,1,castilian,1,1,1.624195,0,17,17,31,1,32,./stim/wavs/andalusian_match_interrogative-total-yn_Marta-abre-el-regalo.wav,./stim/wavs/argentine_match_interrogative-total-yn_Marta-abre-el-regalo.wav,./stim/wavs/castilian_match_interrogative-total-yn_Marta-abre-el-regalo.wav,./stim/wavs/chilean_match_interrogative-total-yn_Marta-abre-el-regalo.wav,./stim/wavs/cuban_match_interrogative-total-yn_Marta-abre-el-regalo.wav,./stim/wavs/mexican_match_interrogative-total-yn_Marta-abre-el-regalo.wav,./stim/wavs/peruvian_match_interrogative-total-yn_Marta-abre-el-regalo.wav,./stim/wavs/puertorican_match_interrogative-total-yn_Marta-abre-el-regalo.wav,,,,,,,,,,,,,,,,,,,,,,,,,,,,,,,,,,,,,,,,,,,,,,,,,,,,,,,,
,,,,,,,5e3dff6b8714b707b9a258b0,60568611ec04488a9e9da93b,6056b43c74a8331f64e78567,United States,West coast,13 or older,yes,2021-03-20_19h50.08.413,empathy_intonation_perc,2020.2.10,Win32,60,,,,,,,,,,0,cuban,0,1,1.321595,0,18,18,33,1,34,./stim/wavs/andalusian_mismatch_declarative-broad-focus_El-hombre-mira-la-luna.wav,./stim/wavs/argentine_mismatch_declarative-broad-focus_El-hombre-mira-la-luna.wav,./stim/wavs/castilian_mismatch_declarative-broad-focus_El-hombre-mira-la-luna.wav,./stim/wavs/chilean_mismatch_declarative-broad-focus_El-hombre-mira-la-luna.wav,./stim/wavs/cuban_mismatch_declarative-broad-focus_El-hombre-mira-la-luna.wav,./stim/wavs/mexican_mismatch_declarative-broad-focus_El-hombre-mira-la-luna.wav,./stim/wavs/peruvian_mismatch_declarative-broad-focus_El-hombre-mira-la-luna.wav,./stim/wavs/puertorican_mismatch_declarative-broad-focus_El-hombre-mira-la-luna.wav,,,,,,,,,,,,,,,,,,,,,,,,,,,,,,,,,,,,,,,,,,,,,,,,,,,,,,,,
,,,,,,,5e3dff6b8714b707b9a258b0,60568611ec04488a9e9da93b,6056b43c74a8331f64e78567,United States,West coast,13 or older,yes,2021-03-20_19h50.08.413,empathy_intonation_perc,2020.2.10,Win32,60,,,,,,,,,,1,chilean,1,1,1.58767,0,19,19,61,1,62,./stim/wavs/andalusian_mismatch_interrogative-total-yn_Mi-madre-come-la-fruta.wav,./stim/wavs/argentine_mismatch_interrogative-total-yn_Mi-madre-come-la-fruta.wav,./stim/wavs/castilian_mismatch_interrogative-total-yn_Mi-madre-come-la-fruta.wav,./stim/wavs/chilean_mismatch_interrogative-total-yn_Mi-madre-come-la-fruta.wav,./stim/wavs/cuban_mismatch_interrogative-total-yn_Mi-madre-come-la-fruta.wav,./stim/wavs/mexican_mismatch_interrogative-total-yn_Mi-madre-come-la-fruta.wav,./stim/wavs/peruvian_mismatch_interrogative-total-yn_Mi-madre-come-la-fruta.wav,./stim/wavs/puertorican_mismatch_interrogative-total-yn_Mi-madre-come-la-fruta.wav,,,,,,,,,,,,,,,,,,,,,,,,,,,,,,,,,,,,,,,,,,,,,,,,,,,,,,,,
,,,,,,,5e3dff6b8714b707b9a258b0,60568611ec04488a9e9da93b,6056b43c74a8331f64e78567,United States,West coast,13 or older,yes,2021-03-20_19h50.08.413,empathy_intonation_perc,2020.2.10,Win32,60,,,,,,,,,,1,castilian,1,1,1.601905,0,20,20,58,1,59,./stim/wavs/andalusian_mismatch_interrogative-total-yn_El-nino-oye-el-rio.wav,./stim/wavs/argentine_mismatch_interrogative-total-yn_El-nino-oye-el-rio.wav,./stim/wavs/castilian_mismatch_interrogative-total-yn_El-nino-oye-el-rio.wav,./stim/wavs/chilean_mismatch_interrogative-total-yn_El-nino-oye-el-rio.wav,./stim/wavs/cuban_mismatch_interrogative-total-yn_El-nino-oye-el-rio.wav,./stim/wavs/mexican_mismatch_interrogative-total-yn_El-nino-oye-el-rio.wav,./stim/wavs/peruvian_mismatch_interrogative-total-yn_El-nino-oye-el-rio.wav,./stim/wavs/puertorican_mismatch_interrogative-total-yn_El-nino-oye-el-rio.wav,,,,,,,,,,,,,,,,,,,,,,,,,,,,,,,,,,,,,,,,,,,,,,,,,,,,,,,,
,,,,,,,5e3dff6b8714b707b9a258b0,60568611ec04488a9e9da93b,6056b43c74a8331f64e78567,United States,West coast,13 or older,yes,2021-03-20_19h50.08.413,empathy_intonation_perc,2020.2.10,Win32,60,,,,,,,,,,1,puertorican,0,0,1.55637,0,21,21,63,1,64,./stim/wavs/andalusian_mismatch_interrogative-total-yn_Mi-tia-odia-la-lluvia.wav,./stim/wavs/argentine_mismatch_interrogative-total-yn_Mi-tia-odia-la-lluvia.wav,./stim/wavs/castilian_mismatch_interrogative-total-yn_Mi-tia-odia-la-lluvia.wav,./stim/wavs/chilean_mismatch_interrogative-total-yn_Mi-tia-odia-la-lluvia.wav,./stim/wavs/cuban_mismatch_interrogative-total-yn_Mi-tia-odia-la-lluvia.wav,./stim/wavs/mexican_mismatch_interrogative-total-yn_Mi-tia-odia-la-lluvia.wav,./stim/wavs/peruvian_mismatch_interrogative-total-yn_Mi-tia-odia-la-lluvia.wav,./stim/wavs/puertorican_mismatch_interrogative-total-yn_Mi-tia-odia-la-lluvia.wav,,,,,,,,,,,,,,,,,,,,,,,,,,,,,,,,,,,,,,,,,,,,,,,,,,,,,,,,
,,,,,,,5e3dff6b8714b707b9a258b0,60568611ec04488a9e9da93b,6056b43c74a8331f64e78567,United States,West coast,13 or older,yes,2021-03-20_19h50.08.413,empathy_intonation_perc,2020.2.10,Win32,60,,,,,,,,,,0,mexican,0,1,1.497395,0,22,22,42,1,43,./stim/wavs/andalusian_mismatch_declarative-narrow-focus_El-nino-oye-el-rio.wav,./stim/wavs/argentine_mismatch_declarative-narrow-focus_El-nino-oye-el-rio.wav,./stim/wavs/castilian_mismatch_declarative-narrow-focus_El-nino-oye-el-rio.wav,./stim/wavs/chilean_mismatch_declarative-narrow-focus_El-nino-oye-el-rio.wav,./stim/wavs/cuban_mismatch_declarative-narrow-focus_El-nino-oye-el-rio.wav,./stim/wavs/mexican_mismatch_declarative-narrow-focus_El-nino-oye-el-rio.wav,./stim/wavs/peruvian_mismatch_declarative-narrow-focus_El-nino-oye-el-rio.wav,./stim/wavs/puertorican_mismatch_declarative-narrow-focus_El-nino-oye-el-rio.wav,,,,,,,,,,,,,,,,,,,,,,,,,,,,,,,,,,,,,,,,,,,,,,,,,,,,,,,,
,,,,,,,5e3dff6b8714b707b9a258b0,60568611ec04488a9e9da93b,6056b43c74a8331f64e78567,United States,West coast,13 or older,yes,2021-03-20_19h50.08.413,empathy_intonation_perc,2020.2.10,Win32,60,,,,,,,,,,0,andalusian,0,1,1.71296,0,23,23,36,1,37,./stim/wavs/andalusian_mismatch_declarative-broad-focus_La-nina-lava-el-plato.wav,./stim/wavs/argentine_mismatch_declarative-broad-focus_La-nina-lava-el-plato.wav,./stim/wavs/castilian_mismatch_declarative-broad-focus_La-nina-lava-el-plato.wav,./stim/wavs/chilean_mismatch_declarative-broad-focus_La-nina-lava-el-plato.wav,./stim/wavs/cuban_mismatch_declarative-broad-focus_La-nina-lava-el-plato.wav,./stim/wavs/mexican_mismatch_declarative-broad-focus_La-nina-lava-el-plato.wav,./stim/wavs/peruvian_mismatch_declarative-broad-focus_La-nina-lava-el-plato.wav,./stim/wavs/puertorican_mismatch_declarative-broad-focus_La-nina-lava-el-plato.wav,,,,,,,,,,,,,,,,,,,,,,,,,,,,,,,,,,,,,,,,,,,,,,,,,,,,,,,,
,,,,,,,5e3dff6b8714b707b9a258b0,60568611ec04488a9e9da93b,6056b43c74a8331f64e78567,United States,West coast,13 or older,yes,2021-03-20_19h50.08.413,empathy_intonation_perc,2020.2.10,Win32,60,,,,,,,,,,0,peruvian,0,1,1.462345,0,24,24,8,1,9,./stim/wavs/andalusian_match_declarative-narrow-focus_Ana-lleva-el-abrigo.wav,./stim/wavs/argentine_match_declarative-narrow-focus_Ana-lleva-el-abrigo.wav,./stim/wavs/castilian_match_declarative-narrow-focus_Ana-lleva-el-abrigo.wav,./stim/wavs/chilean_match_declarative-narrow-focus_Ana-lleva-el-abrigo.wav,./stim/wavs/cuban_match_declarative-narrow-focus_Ana-lleva-el-abrigo.wav,./stim/wavs/mexican_match_declarative-narrow-focus_Ana-lleva-el-abrigo.wav,./stim/wavs/peruvian_match_declarative-narrow-focus_Ana-lleva-el-abrigo.wav,./stim/wavs/puertorican_match_declarative-narrow-focus_Ana-lleva-el-abrigo.wav,,,,,,,,,,,,,,,,,,,,,,,,,,,,,,,,,,,,,,,,,,,,,,,,,,,,,,,,
,,,,,,,5e3dff6b8714b707b9a258b0,60568611ec04488a9e9da93b,6056b43c74a8331f64e78567,United States,West coast,13 or older,yes,2021-03-20_19h50.08.413,empathy_intonation_perc,2020.2.10,Win32,60,,,,,,,,,,1,mexican,1,1,1.105235,0,25,25,20,1,21,./stim/wavs/andalusian_match_interrogative-partial-wh_Por-que-abre-el-regalo.wav,./stim/wavs/argentine_match_interrogative-partial-wh_Por-que-abre-el-regalo.wav,./stim/wavs/castilian_match_interrogative-partial-wh_Por-que-abre-el-regalo.wav,./stim/wavs/chilean_match_interrogative-partial-wh_Por-que-abre-el-regalo.wav,./stim/wavs/cuban_match_interrogative-partial-wh_Por-que-abre-el-regalo.wav,./stim/wavs/mexican_match_interrogative-partial-wh_Por-que-abre-el-regalo.wav,./stim/wavs/peruvian_match_interrogative-partial-wh_Por-que-abre-el-regalo.wav,./stim/wavs/puertorican_match_interrogative-partial-wh_Por-que-abre-el-regalo.wav,,,,,,,,,,,,,,,,,,,,,,,,,,,,,,,,,,,,,,,,,,,,,,,,,,,,,,,,
,,,,,,,5e3dff6b8714b707b9a258b0,60568611ec04488a9e9da93b,6056b43c74a8331f64e78567,United States,West coast,13 or older,yes,2021-03-20_19h50.08.413,empathy_intonation_perc,2020.2.10,Win32,60,,,,,,,,,,0,mexican,0,1,1.536115,0,26,26,37,1,38,./stim/wavs/andalusian_mismatch_declarative-broad-focus_Mi-madre-come-la-fruta.wav,./stim/wavs/argentine_mismatch_declarative-broad-focus_Mi-madre-come-la-fruta.wav,./stim/wavs/castilian_mismatch_declarative-broad-focus_Mi-madre-come-la-fruta.wav,./stim/wavs/chilean_mismatch_declarative-broad-focus_Mi-madre-come-la-fruta.wav,./stim/wavs/cuban_mismatch_declarative-broad-focus_Mi-madre-come-la-fruta.wav,./stim/wavs/mexican_mismatch_declarative-broad-focus_Mi-madre-come-la-fruta.wav,./stim/wavs/peruvian_mismatch_declarative-broad-focus_Mi-madre-come-la-fruta.wav,./stim/wavs/puertorican_mismatch_declarative-broad-focus_Mi-madre-come-la-fruta.wav,,,,,,,,,,,,,,,,,,,,,,,,,,,,,,,,,,,,,,,,,,,,,,,,,,,,,,,,
,,,,,,,5e3dff6b8714b707b9a258b0,60568611ec04488a9e9da93b,6056b43c74a8331f64e78567,United States,West coast,13 or older,yes,2021-03-20_19h50.08.413,empathy_intonation_perc,2020.2.10,Win32,60,,,,,,,,,,0,puertorican,0,1,1.354015,0,27,27,9,1,10,./stim/wavs/andalusian_match_declarative-narrow-focus_Daniel-iba-a-Bolivia.wav,./stim/wavs/argentine_match_declarative-narrow-focus_Daniel-iba-a-Bolivia.wav,./stim/wavs/castilian_match_declarative-narrow-focus_Daniel-iba-a-Bolivia.wav,./stim/wavs/chilean_match_declarative-narrow-focus_Daniel-iba-a-Bolivia.wav,./stim/wavs/cuban_match_declarative-narrow-focus_Daniel-iba-a-Bolivia.wav,./stim/wavs/mexican_match_declarative-narrow-focus_Daniel-iba-a-Bolivia.wav,./stim/wavs/peruvian_match_declarative-narrow-focus_Daniel-iba-a-Bolivia.wav,./stim/wavs/puertorican_match_declarative-narrow-focus_Daniel-iba-a-Bolivia.wav,,,,,,,,,,,,,,,,,,,,,,,,,,,,,,,,,,,,,,,,,,,,,,,,,,,,,,,,
,,,,,,,5e3dff6b8714b707b9a258b0,60568611ec04488a9e9da93b,6056b43c74a8331f64e78567,United States,West coast,13 or older,yes,2021-03-20_19h50.08.413,empathy_intonation_perc,2020.2.10,Win32,60,,,,,,,,,,0,peruvian,0,1,1.75211,0,28,28,44,1,45,./stim/wavs/andalusian_mismatch_declarative-narrow-focus_La-nina-lava-el-plato.wav,./stim/wavs/argentine_mismatch_declarative-narrow-focus_La-nina-lava-el-plato.wav,./stim/wavs/castilian_mismatch_declarative-narrow-focus_La-nina-lava-el-plato.wav,./stim/wavs/chilean_mismatch_declarative-narrow-focus_La-nina-lava-el-plato.wav,./stim/wavs/cuban_mismatch_declarative-narrow-focus_La-nina-lava-el-plato.wav,./stim/wavs/mexican_mismatch_declarative-narrow-focus_La-nina-lava-el-plato.wav,./stim/wavs/peruvian_mismatch_declarative-narrow-focus_La-nina-lava-el-plato.wav,./stim/wavs/puertorican_mismatch_declarative-narrow-focus_La-nina-lava-el-plato.wav,,,,,,,,,,,,,,,,,,,,,,,,,,,,,,,,,,,,,,,,,,,,,,,,,,,,,,,,
,,,,,,,5e3dff6b8714b707b9a258b0,60568611ec04488a9e9da93b,6056b43c74a8331f64e78567,United States,West coast,13 or older,yes,2021-03-20_19h50.08.413,empathy_intonation_perc,2020.2.10,Win32,60,,,,,,,,,,1,mexican,0,0,1.35813,0,29,29,27,1,28,./stim/wavs/andalusian_match_interrogative-total-yn_Emilio-ama-la-marcha.wav,./stim/wavs/argentine_match_interrogative-total-yn_Emilio-ama-la-marcha.wav,./stim/wavs/castilian_match_interrogative-total-yn_Emilio-ama-la-marcha.wav,./stim/wavs/chilean_match_interrogative-total-yn_Emilio-ama-la-marcha.wav,./stim/wavs/cuban_match_interrogative-total-yn_Emilio-ama-la-marcha.wav,./stim/wavs/mexican_match_interrogative-total-yn_Emilio-ama-la-marcha.wav,./stim/wavs/peruvian_match_interrogative-total-yn_Emilio-ama-la-marcha.wav,./stim/wavs/puertorican_match_interrogative-total-yn_Emilio-ama-la-marcha.wav,,,,,,,,,,,,,,,,,,,,,,,,,,,,,,,,,,,,,,,,,,,,,,,,,,,,,,,,
,,,,,,,5e3dff6b8714b707b9a258b0,60568611ec04488a9e9da93b,6056b43c74a8331f64e78567,United States,West coast,13 or older,yes,2021-03-20_19h50.08.413,empathy_intonation_perc,2020.2.10,Win32,60,,,,,,,,,,0,andalusian,0,1,1.265995,0,30,30,43,1,44,./stim/wavs/andalusian_mismatch_declarative-narrow-focus_La-maestra-vive-en-Paris.wav,./stim/wavs/argentine_mismatch_declarative-narrow-focus_La-maestra-vive-en-Paris.wav,./stim/wavs/castilian_mismatch_declarative-narrow-focus_La-maestra-vive-en-Paris.wav,./stim/wavs/chilean_mismatch_declarative-narrow-focus_La-maestra-vive-en-Paris.wav,./stim/wavs/cuban_mismatch_declarative-narrow-focus_La-maestra-vive-en-Paris.wav,./stim/wavs/mexican_mismatch_declarative-narrow-focus_La-maestra-vive-en-Paris.wav,./stim/wavs/peruvian_mismatch_declarative-narrow-focus_La-maestra-vive-en-Paris.wav,./stim/wavs/puertorican_mismatch_declarative-narrow-focus_La-maestra-vive-en-Paris.wav,,,,,,,,,,,,,,,,,,,,,,,,,,,,,,,,,,,,,,,,,,,,,,,,,,,,,,,,
,,,,,,,5e3dff6b8714b707b9a258b0,60568611ec04488a9e9da93b,6056b43c74a8331f64e78567,United States,West coast,13 or older,yes,2021-03-20_19h50.08.413,empathy_intonation_perc,2020.2.10,Win32,60,,,,,,,,,,1,cuban,0,0,2.091215,0,31,31,25,1,26,./stim/wavs/andalusian_match_interrogative-total-yn_Daniel-iba-a-Bolivia.wav,./stim/wavs/argentine_match_interrogative-total-yn_Daniel-iba-a-Bolivia.wav,./stim/wavs/castilian_match_interrogative-total-yn_Daniel-iba-a-Bolivia.wav,./stim/wavs/chilean_match_interrogative-total-yn_Daniel-iba-a-Bolivia.wav,./stim/wavs/cuban_match_interrogative-total-yn_Daniel-iba-a-Bolivia.wav,./stim/wavs/mexican_match_interrogative-total-yn_Daniel-iba-a-Bolivia.wav,./stim/wavs/peruvian_match_interrogative-total-yn_Daniel-iba-a-Bolivia.wav,./stim/wavs/puertorican_match_interrogative-total-yn_Daniel-iba-a-Bolivia.wav,,,,,,,,,,,,,,,,,,,,,,,,,,,,,,,,,,,,,,,,,,,,,,,,,,,,,,,,
,,,,,,,5e3dff6b8714b707b9a258b0,60568611ec04488a9e9da93b,6056b43c74a8331f64e78567,United States,West coast,13 or older,yes,2021-03-20_19h50.08.413,empathy_intonation_perc,2020.2.10,Win32,60,,,,,,,,,,1,peruvian,1,1,1.51566,0,32,32,22,1,23,./stim/wavs/andalusian_match_interrogative-partial-wh_Por-que-hablaba-del-agua.wav,./stim/wavs/argentine_match_interrogative-partial-wh_Por-que-hablaba-del-agua.wav,./stim/wavs/castilian_match_interrogative-partial-wh_Por-que-hablaba-del-agua.wav,./stim/wavs/chilean_match_interrogative-partial-wh_Por-que-hablaba-del-agua.wav,./stim/wavs/cuban_match_interrogative-partial-wh_Por-que-hablaba-del-agua.wav,./stim/wavs/mexican_match_interrogative-partial-wh_Por-que-hablaba-del-agua.wav,./stim/wavs/peruvian_match_interrogative-partial-wh_Por-que-hablaba-del-agua.wav,./stim/wavs/puertorican_match_interrogative-partial-wh_Por-que-hablaba-del-agua.wav,,,,,,,,,,,,,,,,,,,,,,,,,,,,,,,,,,,,,,,,,,,,,,,,,,,,,,,,
,,,,,,,5e3dff6b8714b707b9a258b0,60568611ec04488a9e9da93b,6056b43c74a8331f64e78567,United States,West coast,13 or older,yes,2021-03-20_19h50.08.413,empathy_intonation_perc,2020.2.10,Win32,60,,,,,,,,,,1,andalusian,1,1,1.008945,0,33,33,51,1,52,./stim/wavs/andalusian_mismatch_interrogative-partial-wh_Por-que-desayuna-muy-bien.wav,./stim/wavs/argentine_mismatch_interrogative-partial-wh_Por-que-desayuna-muy-bien.wav,./stim/wavs/castilian_mismatch_interrogative-partial-wh_Por-que-desayuna-muy-bien.wav,./stim/wavs/chilean_mismatch_interrogative-partial-wh_Por-que-desayuna-muy-bien.wav,./stim/wavs/cuban_mismatch_interrogative-partial-wh_Por-que-desayuna-muy-bien.wav,./stim/wavs/mexican_mismatch_interrogative-partial-wh_Por-que-desayuna-muy-bien.wav,./stim/wavs/peruvian_mismatch_interrogative-partial-wh_Por-que-desayuna-muy-bien.wav,./stim/wavs/puertorican_mismatch_interrogative-partial-wh_Por-que-desayuna-muy-bien.wav,,,,,,,,,,,,,,,,,,,,,,,,,,,,,,,,,,,,,,,,,,,,,,,,,,,,,,,,
,,,,,,,5e3dff6b8714b707b9a258b0,60568611ec04488a9e9da93b,6056b43c74a8331f64e78567,United States,West coast,13 or older,yes,2021-03-20_19h50.08.413,empathy_intonation_perc,2020.2.10,Win32,60,,,,,,,,,,0,castilian,0,1,1.272655,0,34,34,34,1,35,./stim/wavs/andalusian_mismatch_declarative-broad-focus_El-nino-oye-el-rio.wav,./stim/wavs/argentine_mismatch_declarative-broad-focus_El-nino-oye-el-rio.wav,./stim/wavs/castilian_mismatch_declarative-broad-focus_El-nino-oye-el-rio.wav,./stim/wavs/chilean_mismatch_declarative-broad-focus_El-nino-oye-el-rio.wav,./stim/wavs/cuban_mismatch_declarative-broad-focus_El-nino-oye-el-rio.wav,./stim/wavs/mexican_mismatch_declarative-broad-focus_El-nino-oye-el-rio.wav,./stim/wavs/peruvian_mismatch_declarative-broad-focus_El-nino-oye-el-rio.wav,./stim/wavs/puertorican_mismatch_declarative-broad-focus_El-nino-oye-el-rio.wav,,,,,,,,,,,,,,,,,,,,,,,,,,,,,,,,,,,,,,,,,,,,,,,,,,,,,,,,
,,,,,,,5e3dff6b8714b707b9a258b0,60568611ec04488a9e9da93b,6056b43c74a8331f64e78567,United States,West coast,13 or older,yes,2021-03-20_19h50.08.413,empathy_intonation_perc,2020.2.10,Win32,60,,,,,,,,,,1,peruvian,1,1,1.87297,0,35,35,59,1,60,./stim/wavs/andalusian_mismatch_interrogative-total-yn_La-maestra-vive-en-Paris.wav,./stim/wavs/argentine_mismatch_interrogative-total-yn_La-maestra-vive-en-Paris.wav,./stim/wavs/castilian_mismatch_interrogative-total-yn_La-maestra-vive-en-Paris.wav,./stim/wavs/chilean_mismatch_interrogative-total-yn_La-maestra-vive-en-Paris.wav,./stim/wavs/cuban_mismatch_interrogative-total-yn_La-maestra-vive-en-Paris.wav,./stim/wavs/mexican_mismatch_interrogative-total-yn_La-maestra-vive-en-Paris.wav,./stim/wavs/peruvian_mismatch_interrogative-total-yn_La-maestra-vive-en-Paris.wav,./stim/wavs/puertorican_mismatch_interrogative-total-yn_La-maestra-vive-en-Paris.wav,,,,,,,,,,,,,,,,,,,,,,,,,,,,,,,,,,,,,,,,,,,,,,,,,,,,,,,,
,,,,,,,5e3dff6b8714b707b9a258b0,60568611ec04488a9e9da93b,6056b43c74a8331f64e78567,United States,West coast,13 or older,yes,2021-03-20_19h50.08.413,empathy_intonation_perc,2020.2.10,Win32,60,,,,,,,,,,1,mexican,1,1,1.79423,0,36,36,53,1,54,./stim/wavs/andalusian_mismatch_interrogative-partial-wh_Por-que-oia-el-rio.wav,./stim/wavs/argentine_mismatch_interrogative-partial-wh_Por-que-oia-el-rio.wav,./stim/wavs/castilian_mismatch_interrogative-partial-wh_Por-que-oia-el-rio.wav,./stim/wavs/chilean_mismatch_interrogative-partial-wh_Por-que-oia-el-rio.wav,./stim/wavs/cuban_mismatch_interrogative-partial-wh_Por-que-oia-el-rio.wav,./stim/wavs/mexican_mismatch_interrogative-partial-wh_Por-que-oia-el-rio.wav,./stim/wavs/peruvian_mismatch_interrogative-partial-wh_Por-que-oia-el-rio.wav,./stim/wavs/puertorican_mismatch_interrogative-partial-wh_Por-que-oia-el-rio.wav,,,,,,,,,,,,,,,,,,,,,,,,,,,,,,,,,,,,,,,,,,,,,,,,,,,,,,,,
,,,,,,,5e3dff6b8714b707b9a258b0,60568611ec04488a9e9da93b,6056b43c74a8331f64e78567,United States,West coast,13 or older,yes,2021-03-20_19h50.08.413,empathy_intonation_perc,2020.2.10,Win32,60,,,,,,,,,,0,peruvian,0,1,2.281595,0,37,37,14,1,15,./stim/wavs/andalusian_match_declarative-narrow-focus_Mariano-habla-del-tiempo.wav,./stim/wavs/argentine_match_declarative-narrow-focus_Mariano-habla-del-tiempo.wav,./stim/wavs/castilian_match_declarative-narrow-focus_Mariano-habla-del-tiempo.wav,./stim/wavs/chilean_match_declarative-narrow-focus_Mariano-habla-del-tiempo.wav,./stim/wavs/cuban_match_declarative-narrow-focus_Mariano-habla-del-tiempo.wav,./stim/wavs/mexican_match_declarative-narrow-focus_Mariano-habla-del-tiempo.wav,./stim/wavs/peruvian_match_declarative-narrow-focus_Mariano-habla-del-tiempo.wav,./stim/wavs/puertorican_match_declarative-narrow-focus_Mariano-habla-del-tiempo.wav,,,,,,,,,,,,,,,,,,,,,,,,,,,,,,,,,,,,,,,,,,,,,,,,,,,,,,,,
,,,,,,,5e3dff6b8714b707b9a258b0,60568611ec04488a9e9da93b,6056b43c74a8331f64e78567,United States,West coast,13 or older,yes,2021-03-20_19h50.08.413,empathy_intonation_perc,2020.2.10,Win32,60,,,,,,,,,,1,argentine,1,1,1.051285,0,38,38,21,1,22,./stim/wavs/andalusian_match_interrogative-partial-wh_Por-que-ama-la-navidad.wav,./stim/wavs/argentine_match_interrogative-partial-wh_Por-que-ama-la-navidad.wav,./stim/wavs/castilian_match_interrogative-partial-wh_Por-que-ama-la-navidad.wav,./stim/wavs/chilean_match_interrogative-partial-wh_Por-que-ama-la-navidad.wav,./stim/wavs/cuban_match_interrogative-partial-wh_Por-que-ama-la-navidad.wav,./stim/wavs/mexican_match_interrogative-partial-wh_Por-que-ama-la-navidad.wav,./stim/wavs/peruvian_match_interrogative-partial-wh_Por-que-ama-la-navidad.wav,./stim/wavs/puertorican_match_interrogative-partial-wh_Por-que-ama-la-navidad.wav,,,,,,,,,,,,,,,,,,,,,,,,,,,,,,,,,,,,,,,,,,,,,,,,,,,,,,,,
,,,,,,,5e3dff6b8714b707b9a258b0,60568611ec04488a9e9da93b,6056b43c74a8331f64e78567,United States,West coast,13 or older,yes,2021-03-20_19h50.08.413,empathy_intonation_perc,2020.2.10,Win32,60,,,,,,,,,,1,puertorican,1,1,0.577285,0,39,39,52,1,53,./stim/wavs/andalusian_mismatch_interrogative-partial-wh_Por-que-odiaba-la-lluvia.wav,./stim/wavs/argentine_mismatch_interrogative-partial-wh_Por-que-odiaba-la-lluvia.wav,./stim/wavs/castilian_mismatch_interrogative-partial-wh_Por-que-odiaba-la-lluvia.wav,./stim/wavs/chilean_mismatch_interrogative-partial-wh_Por-que-odiaba-la-lluvia.wav,./stim/wavs/cuban_mismatch_interrogative-partial-wh_Por-que-odiaba-la-lluvia.wav,./stim/wavs/mexican_mismatch_interrogative-partial-wh_Por-que-odiaba-la-lluvia.wav,./stim/wavs/peruvian_mismatch_interrogative-partial-wh_Por-que-odiaba-la-lluvia.wav,./stim/wavs/puertorican_mismatch_interrogative-partial-wh_Por-que-odiaba-la-lluvia.wav,,,,,,,,,,,,,,,,,,,,,,,,,,,,,,,,,,,,,,,,,,,,,,,,,,,,,,,,
,,,,,,,5e3dff6b8714b707b9a258b0,60568611ec04488a9e9da93b,6056b43c74a8331f64e78567,United States,West coast,13 or older,yes,2021-03-20_19h50.08.413,empathy_intonation_perc,2020.2.10,Win32,60,,,,,,,,,,0,andalusian,0,1,1.609565,0,40,40,3,1,4,./stim/wavs/andalusian_match_declarative-broad-focus_Emilio-ama-la-marcha.wav,./stim/wavs/argentine_match_declarative-broad-focus_Emilio-ama-la-marcha.wav,./stim/wavs/castilian_match_declarative-broad-focus_Emilio-ama-la-marcha.wav,./stim/wavs/chilean_match_declarative-broad-focus_Emilio-ama-la-marcha.wav,./stim/wavs/cuban_match_declarative-broad-focus_Emilio-ama-la-marcha.wav,./stim/wavs/mexican_match_declarative-broad-focus_Emilio-ama-la-marcha.wav,./stim/wavs/peruvian_match_declarative-broad-focus_Emilio-ama-la-marcha.wav,./stim/wavs/puertorican_match_declarative-broad-focus_Emilio-ama-la-marcha.wav,,,,,,,,,,,,,,,,,,,,,,,,,,,,,,,,,,,,,,,,,,,,,,,,,,,,,,,,
,,,,,,,5e3dff6b8714b707b9a258b0,60568611ec04488a9e9da93b,6056b43c74a8331f64e78567,United States,West coast,13 or older,yes,2021-03-20_19h50.08.413,empathy_intonation_perc,2020.2.10,Win32,60,,,,,,,,,,1,argentine,1,1,2.084325,0,41,41,57,1,58,./stim/wavs/andalusian_mismatch_interrogative-total-yn_El-hombre-mira-la-luna.wav,./stim/wavs/argentine_mismatch_interrogative-total-yn_El-hombre-mira-la-luna.wav,./stim/wavs/castilian_mismatch_interrogative-total-yn_El-hombre-mira-la-luna.wav,./stim/wavs/chilean_mismatch_interrogative-total-yn_El-hombre-mira-la-luna.wav,./stim/wavs/cuban_mismatch_interrogative-total-yn_El-hombre-mira-la-luna.wav,./stim/wavs/mexican_mismatch_interrogative-total-yn_El-hombre-mira-la-luna.wav,./stim/wavs/peruvian_mismatch_interrogative-total-yn_El-hombre-mira-la-luna.wav,./stim/wavs/puertorican_mismatch_interrogative-total-yn_El-hombre-mira-la-luna.wav,,,,,,,,,,,,,,,,,,,,,,,,,,,,,,,,,,,,,,,,,,,,,,,,,,,,,,,,
,,,,,,,5e3dff6b8714b707b9a258b0,60568611ec04488a9e9da93b,6056b43c74a8331f64e78567,United States,West coast,13 or older,yes,2021-03-20_19h50.08.413,empathy_intonation_perc,2020.2.10,Win32,60,,,,,,,,,,1,mexican,0,0,1.307045,0,42,42,17,1,18,./stim/wavs/andalusian_match_interrogative-partial-wh_Cuando-leia-el-libro.wav,./stim/wavs/argentine_match_interrogative-partial-wh_Cuando-leia-el-libro.wav,./stim/wavs/castilian_match_interrogative-partial-wh_Cuando-leia-el-libro.wav,./stim/wavs/chilean_match_interrogative-partial-wh_Cuando-leia-el-libro.wav,./stim/wavs/cuban_match_interrogative-partial-wh_Cuando-leia-el-libro.wav,./stim/wavs/mexican_match_interrogative-partial-wh_Cuando-leia-el-libro.wav,./stim/wavs/peruvian_match_interrogative-partial-wh_Cuando-leia-el-libro.wav,./stim/wavs/puertorican_match_interrogative-partial-wh_Cuando-leia-el-libro.wav,,,,,,,,,,,,,,,,,,,,,,,,,,,,,,,,,,,,,,,,,,,,,,,,,,,,,,,,
,,,,,,,5e3dff6b8714b707b9a258b0,60568611ec04488a9e9da93b,6056b43c74a8331f64e78567,United States,West coast,13 or older,yes,2021-03-20_19h50.08.413,empathy_intonation_perc,2020.2.10,Win32,60,,,,,,,,,,1,mexican,0,0,1.36306,0,43,43,49,1,50,./stim/wavs/andalusian_mismatch_interrogative-partial-wh_Cuando-lavaba-el-plato.wav,./stim/wavs/argentine_mismatch_interrogative-partial-wh_Cuando-lavaba-el-plato.wav,./stim/wavs/castilian_mismatch_interrogative-partial-wh_Cuando-lavaba-el-plato.wav,./stim/wavs/chilean_mismatch_interrogative-partial-wh_Cuando-lavaba-el-plato.wav,./stim/wavs/cuban_mismatch_interrogative-partial-wh_Cuando-lavaba-el-plato.wav,./stim/wavs/mexican_mismatch_interrogative-partial-wh_Cuando-lavaba-el-plato.wav,./stim/wavs/peruvian_mismatch_interrogative-partial-wh_Cuando-lavaba-el-plato.wav,./stim/wavs/puertorican_mismatch_interrogative-partial-wh_Cuando-lavaba-el-plato.wav,,,,,,,,,,,,,,,,,,,,,,,,,,,,,,,,,,,,,,,,,,,,,,,,,,,,,,,,
,,,,,,,5e3dff6b8714b707b9a258b0,60568611ec04488a9e9da93b,6056b43c74a8331f64e78567,United States,West coast,13 or older,yes,2021-03-20_19h50.08.413,empathy_intonation_perc,2020.2.10,Win32,60,,,,,,,,,,0,andalusian,0,1,1.43553,0,44,44,41,1,42,./stim/wavs/andalusian_mismatch_declarative-narrow-focus_El-hombre-mira-la-luna.wav,./stim/wavs/argentine_mismatch_declarative-narrow-focus_El-hombre-mira-la-luna.wav,./stim/wavs/castilian_mismatch_declarative-narrow-focus_El-hombre-mira-la-luna.wav,./stim/wavs/chilean_mismatch_declarative-narrow-focus_El-hombre-mira-la-luna.wav,./stim/wavs/cuban_mismatch_declarative-narrow-focus_El-hombre-mira-la-luna.wav,./stim/wavs/mexican_mismatch_declarative-narrow-focus_El-hombre-mira-la-luna.wav,./stim/wavs/peruvian_mismatch_declarative-narrow-focus_El-hombre-mira-la-luna.wav,./stim/wavs/puertorican_mismatch_declarative-narrow-focus_El-hombre-mira-la-luna.wav,,,,,,,,,,,,,,,,,,,,,,,,,,,,,,,,,,,,,,,,,,,,,,,,,,,,,,,,
,,,,,,,5e3dff6b8714b707b9a258b0,60568611ec04488a9e9da93b,6056b43c74a8331f64e78567,United States,West coast,13 or older,yes,2021-03-20_19h50.08.413,empathy_intonation_perc,2020.2.10,Win32,60,,,,,,,,,,0,peruvian,0,1,1.772545,0,45,45,38,1,39,./stim/wavs/andalusian_mismatch_declarative-broad-focus_Mi-novio-viene-del-lago.wav,./stim/wavs/argentine_mismatch_declarative-broad-focus_Mi-novio-viene-del-lago.wav,./stim/wavs/castilian_mismatch_declarative-broad-focus_Mi-novio-viene-del-lago.wav,./stim/wavs/chilean_mismatch_declarative-broad-focus_Mi-novio-viene-del-lago.wav,./stim/wavs/cuban_mismatch_declarative-broad-focus_Mi-novio-viene-del-lago.wav,./stim/wavs/mexican_mismatch_declarative-broad-focus_Mi-novio-viene-del-lago.wav,./stim/wavs/peruvian_mismatch_declarative-broad-focus_Mi-novio-viene-del-lago.wav,./stim/wavs/puertorican_mismatch_declarative-broad-focus_Mi-novio-viene-del-lago.wav,,,,,,,,,,,,,,,,,,,,,,,,,,,,,,,,,,,,,,,,,,,,,,,,,,,,,,,,
,,,,,,,5e3dff6b8714b707b9a258b0,60568611ec04488a9e9da93b,6056b43c74a8331f64e78567,United States,West coast,13 or older,yes,2021-03-20_19h50.08.413,empathy_intonation_perc,2020.2.10,Win32,60,,,,,,,,,,0,mexican,0,1,1.52039,0,46,46,35,1,36,./stim/wavs/andalusian_mismatch_declarative-broad-focus_La-maestra-vive-en-Paris.wav,./stim/wavs/argentine_mismatch_declarative-broad-focus_La-maestra-vive-en-Paris.wav,./stim/wavs/castilian_mismatch_declarative-broad-focus_La-maestra-vive-en-Paris.wav,./stim/wavs/chilean_mismatch_declarative-broad-focus_La-maestra-vive-en-Paris.wav,./stim/wavs/cuban_mismatch_declarative-broad-focus_La-maestra-vive-en-Paris.wav,./stim/wavs/mexican_mismatch_declarative-broad-focus_La-maestra-vive-en-Paris.wav,./stim/wavs/peruvian_mismatch_declarative-broad-focus_La-maestra-vive-en-Paris.wav,./stim/wavs/puertorican_mismatch_declarative-broad-focus_La-maestra-vive-en-Paris.wav,,,,,,,,,,,,,,,,,,,,,,,,,,,,,,,,,,,,,,,,,,,,,,,,,,,,,,,,
,,,,,,,5e3dff6b8714b707b9a258b0,60568611ec04488a9e9da93b,6056b43c74a8331f64e78567,United States,West coast,13 or older,yes,2021-03-20_19h50.08.413,empathy_intonation_perc,2020.2.10,Win32,60,,,,,,,,,,1,chilean,1,1,1.48494,0,47,47,26,1,27,./stim/wavs/andalusian_match_interrogative-total-yn_David-leia-el-libro.wav,./stim/wavs/argentine_match_interrogative-total-yn_David-leia-el-libro.wav,./stim/wavs/castilian_match_interrogative-total-yn_David-leia-el-libro.wav,./stim/wavs/chilean_match_interrogative-total-yn_David-leia-el-libro.wav,./stim/wavs/cuban_match_interrogative-total-yn_David-leia-el-libro.wav,./stim/wavs/mexican_match_interrogative-total-yn_David-leia-el-libro.wav,./stim/wavs/peruvian_match_interrogative-total-yn_David-leia-el-libro.wav,./stim/wavs/puertorican_match_interrogative-total-yn_David-leia-el-libro.wav,,,,,,,,,,,,,,,,,,,,,,,,,,,,,,,,,,,,,,,,,,,,,,,,,,,,,,,,
,,,,,,,5e3dff6b8714b707b9a258b0,60568611ec04488a9e9da93b,6056b43c74a8331f64e78567,United States,West coast,13 or older,yes,2021-03-20_19h50.08.413,empathy_intonation_perc,2020.2.10,Win32,60,,,,,,,,,,0,chilean,0,1,1.857715,0,48,48,13,1,14,./stim/wavs/andalusian_match_declarative-narrow-focus_Maria-bebe-el-vino.wav,./stim/wavs/argentine_match_declarative-narrow-focus_Maria-bebe-el-vino.wav,./stim/wavs/castilian_match_declarative-narrow-focus_Maria-bebe-el-vino.wav,./stim/wavs/chilean_match_declarative-narrow-focus_Maria-bebe-el-vino.wav,./stim/wavs/cuban_match_declarative-narrow-focus_Maria-bebe-el-vino.wav,./stim/wavs/mexican_match_declarative-narrow-focus_Maria-bebe-el-vino.wav,./stim/wavs/peruvian_match_declarative-narrow-focus_Maria-bebe-el-vino.wav,./stim/wavs/puertorican_match_declarative-narrow-focus_Maria-bebe-el-vino.wav,,,,,,,,,,,,,,,,,,,,,,,,,,,,,,,,,,,,,,,,,,,,,,,,,,,,,,,,
,,,,,,,5e3dff6b8714b707b9a258b0,60568611ec04488a9e9da93b,6056b43c74a8331f64e78567,United States,West coast,13 or older,yes,2021-03-20_19h50.08.413,empathy_intonation_perc,2020.2.10,Win32,60,,,,,,,,,,1,chilean,1,1,1.43998,0,49,49,16,1,17,./stim/wavs/andalusian_match_interrogative-partial-wh_Cuando-bebia-el-vino.wav,./stim/wavs/argentine_match_interrogative-partial-wh_Cuando-bebia-el-vino.wav,./stim/wavs/castilian_match_interrogative-partial-wh_Cuando-bebia-el-vino.wav,./stim/wavs/chilean_match_interrogative-partial-wh_Cuando-bebia-el-vino.wav,./stim/wavs/cuban_match_interrogative-partial-wh_Cuando-bebia-el-vino.wav,./stim/wavs/mexican_match_interrogative-partial-wh_Cuando-bebia-el-vino.wav,./stim/wavs/peruvian_match_interrogative-partial-wh_Cuando-bebia-el-vino.wav,./stim/wavs/puertorican_match_interrogative-partial-wh_Cuando-bebia-el-vino.wav,,,,,,,,,,,,,,,,,,,,,,,,,,,,,,,,,,,,,,,,,,,,,,,,,,,,,,,,
,,,,,,,5e3dff6b8714b707b9a258b0,60568611ec04488a9e9da93b,6056b43c74a8331f64e78567,United States,West coast,13 or older,yes,2021-03-20_19h50.08.413,empathy_intonation_perc,2020.2.10,Win32,60,,,,,,,,,,0,mexican,0,1,1.406065,0,50,50,15,1,16,./stim/wavs/andalusian_match_declarative-narrow-focus_Marta-abre-el-regalo.wav,./stim/wavs/argentine_match_declarative-narrow-focus_Marta-abre-el-regalo.wav,./stim/wavs/castilian_match_declarative-narrow-focus_Marta-abre-el-regalo.wav,./stim/wavs/chilean_match_declarative-narrow-focus_Marta-abre-el-regalo.wav,./stim/wavs/cuban_match_declarative-narrow-focus_Marta-abre-el-regalo.wav,./stim/wavs/mexican_match_declarative-narrow-focus_Marta-abre-el-regalo.wav,./stim/wavs/peruvian_match_declarative-narrow-focus_Marta-abre-el-regalo.wav,./stim/wavs/puertorican_match_declarative-narrow-focus_Marta-abre-el-regalo.wav,,,,,,,,,,,,,,,,,,,,,,,,,,,,,,,,,,,,,,,,,,,,,,,,,,,,,,,,
,,,,,,,5e3dff6b8714b707b9a258b0,60568611ec04488a9e9da93b,6056b43c74a8331f64e78567,United States,West coast,13 or older,yes,2021-03-20_19h50.08.413,empathy_intonation_perc,2020.2.10,Win32,60,,,,,,,,,,1,puertorican,1,1,1.010365,0,51,51,54,1,55,./stim/wavs/andalusian_mismatch_interrogative-partial-wh_Por-que-venia-del-lago.wav,./stim/wavs/argentine_mismatch_interrogative-partial-wh_Por-que-venia-del-lago.wav,./stim/wavs/castilian_mismatch_interrogative-partial-wh_Por-que-venia-del-lago.wav,./stim/wavs/chilean_mismatch_interrogative-partial-wh_Por-que-venia-del-lago.wav,./stim/wavs/cuban_mismatch_interrogative-partial-wh_Por-que-venia-del-lago.wav,./stim/wavs/mexican_mismatch_interrogative-partial-wh_Por-que-venia-del-lago.wav,./stim/wavs/peruvian_mismatch_interrogative-partial-wh_Por-que-venia-del-lago.wav,./stim/wavs/puertorican_mismatch_interrogative-partial-wh_Por-que-venia-del-lago.wav,,,,,,,,,,,,,,,,,,,,,,,,,,,,,,,,,,,,,,,,,,,,,,,,,,,,,,,,
,,,,,,,5e3dff6b8714b707b9a258b0,60568611ec04488a9e9da93b,6056b43c74a8331f64e78567,United States,West coast,13 or older,yes,2021-03-20_19h50.08.413,empathy_intonation_perc,2020.2.10,Win32,60,,,,,,,,,,1,chilean,0,0,0.86879,0,52,52,28,1,29,./stim/wavs/andalusian_match_interrogative-total-yn_Manuela-vende-el-carro.wav,./stim/wavs/argentine_match_interrogative-total-yn_Manuela-vende-el-carro.wav,./stim/wavs/castilian_match_interrogative-total-yn_Manuela-vende-el-carro.wav,./stim/wavs/chilean_match_interrogative-total-yn_Manuela-vende-el-carro.wav,./stim/wavs/cuban_match_interrogative-total-yn_Manuela-vende-el-carro.wav,./stim/wavs/mexican_match_interrogative-total-yn_Manuela-vende-el-carro.wav,./stim/wavs/peruvian_match_interrogative-total-yn_Manuela-vende-el-carro.wav,./stim/wavs/puertorican_match_interrogative-total-yn_Manuela-vende-el-carro.wav,,,,,,,,,,,,,,,,,,,,,,,,,,,,,,,,,,,,,,,,,,,,,,,,,,,,,,,,
,,,,,,,5e3dff6b8714b707b9a258b0,60568611ec04488a9e9da93b,6056b43c74a8331f64e78567,United States,West coast,13 or older,yes,2021-03-20_19h50.08.413,empathy_intonation_perc,2020.2.10,Win32,60,,,,,,,,,,1,castilian,1,1,1.8221,0,53,53,48,1,49,./stim/wavs/andalusian_mismatch_interrogative-partial-wh_Cuando-comia-la-fruta.wav,./stim/wavs/argentine_mismatch_interrogative-partial-wh_Cuando-comia-la-fruta.wav,./stim/wavs/castilian_mismatch_interrogative-partial-wh_Cuando-comia-la-fruta.wav,./stim/wavs/chilean_mismatch_interrogative-partial-wh_Cuando-comia-la-fruta.wav,./stim/wavs/cuban_mismatch_interrogative-partial-wh_Cuando-comia-la-fruta.wav,./stim/wavs/mexican_mismatch_interrogative-partial-wh_Cuando-comia-la-fruta.wav,./stim/wavs/peruvian_mismatch_interrogative-partial-wh_Cuando-comia-la-fruta.wav,./stim/wavs/puertorican_mismatch_interrogative-partial-wh_Cuando-comia-la-fruta.wav,,,,,,,,,,,,,,,,,,,,,,,,,,,,,,,,,,,,,,,,,,,,,,,,,,,,,,,,
,,,,,,,5e3dff6b8714b707b9a258b0,60568611ec04488a9e9da93b,6056b43c74a8331f64e78567,United States,West coast,13 or older,yes,2021-03-20_19h50.08.413,empathy_intonation_perc,2020.2.10,Win32,60,,,,,,,,,,1,peruvian,1,1,1.5034,0,54,54,50,1,51,./stim/wavs/andalusian_mismatch_interrogative-partial-wh_Cuando-miraba-la-luna.wav,./stim/wavs/argentine_mismatch_interrogative-partial-wh_Cuando-miraba-la-luna.wav,./stim/wavs/castilian_mismatch_interrogative-partial-wh_Cuando-miraba-la-luna.wav,./stim/wavs/chilean_mismatch_interrogative-partial-wh_Cuando-miraba-la-luna.wav,./stim/wavs/cuban_mismatch_interrogative-partial-wh_Cuando-miraba-la-luna.wav,./stim/wavs/mexican_mismatch_interrogative-partial-wh_Cuando-miraba-la-luna.wav,./stim/wavs/peruvian_mismatch_interrogative-partial-wh_Cuando-miraba-la-luna.wav,./stim/wavs/puertorican_mismatch_interrogative-partial-wh_Cuando-miraba-la-luna.wav,,,,,,,,,,,,,,,,,,,,,,,,,,,,,,,,,,,,,,,,,,,,,,,,,,,,,,,,
,,,,,,,5e3dff6b8714b707b9a258b0,60568611ec04488a9e9da93b,6056b43c74a8331f64e78567,United States,West coast,13 or older,yes,2021-03-20_19h50.08.413,empathy_intonation_perc,2020.2.10,Win32,60,,,,,,,,,,0,cuban,0,1,1.77769,0,55,55,39,1,40,./stim/wavs/andalusian_mismatch_declarative-broad-focus_Mi-tia-odia-la-lluvia.wav,./stim/wavs/argentine_mismatch_declarative-broad-focus_Mi-tia-odia-la-lluvia.wav,./stim/wavs/castilian_mismatch_declarative-broad-focus_Mi-tia-odia-la-lluvia.wav,./stim/wavs/chilean_mismatch_declarative-broad-focus_Mi-tia-odia-la-lluvia.wav,./stim/wavs/cuban_mismatch_declarative-broad-focus_Mi-tia-odia-la-lluvia.wav,./stim/wavs/mexican_mismatch_declarative-broad-focus_Mi-tia-odia-la-lluvia.wav,./stim/wavs/peruvian_mismatch_declarative-broad-focus_Mi-tia-odia-la-lluvia.wav,./stim/wavs/puertorican_mismatch_declarative-broad-focus_Mi-tia-odia-la-lluvia.wav,,,,,,,,,,,,,,,,,,,,,,,,,,,,,,,,,,,,,,,,,,,,,,,,,,,,,,,,
,,,,,,,5e3dff6b8714b707b9a258b0,60568611ec04488a9e9da93b,6056b43c74a8331f64e78567,United States,West coast,13 or older,yes,2021-03-20_19h50.08.413,empathy_intonation_perc,2020.2.10,Win32,60,,,,,,,,,,0,mexican,0,1,1.31954,0,56,56,11,1,12,./stim/wavs/andalusian_match_declarative-narrow-focus_Emilio-ama-la-marcha.wav,./stim/wavs/argentine_match_declarative-narrow-focus_Emilio-ama-la-marcha.wav,./stim/wavs/castilian_match_declarative-narrow-focus_Emilio-ama-la-marcha.wav,./stim/wavs/chilean_match_declarative-narrow-focus_Emilio-ama-la-marcha.wav,./stim/wavs/cuban_match_declarative-narrow-focus_Emilio-ama-la-marcha.wav,./stim/wavs/mexican_match_declarative-narrow-focus_Emilio-ama-la-marcha.wav,./stim/wavs/peruvian_match_declarative-narrow-focus_Emilio-ama-la-marcha.wav,./stim/wavs/puertorican_match_declarative-narrow-focus_Emilio-ama-la-marcha.wav,,,,,,,,,,,,,,,,,,,,,,,,,,,,,,,,,,,,,,,,,,,,,,,,,,,,,,,,
,,,,,,,5e3dff6b8714b707b9a258b0,60568611ec04488a9e9da93b,6056b43c74a8331f64e78567,United States,West coast,13 or older,yes,2021-03-20_19h50.08.413,empathy_intonation_perc,2020.2.10,Win32,60,,,,,,,,,,0,andalusian,0,1,1.518215,0,57,57,7,1,8,./stim/wavs/andalusian_match_declarative-broad-focus_Marta-abre-el-regalo.wav,./stim/wavs/argentine_match_declarative-broad-focus_Marta-abre-el-regalo.wav,./stim/wavs/castilian_match_declarative-broad-focus_Marta-abre-el-regalo.wav,./stim/wavs/chilean_match_declarative-broad-focus_Marta-abre-el-regalo.wav,./stim/wavs/cuban_match_declarative-broad-focus_Marta-abre-el-regalo.wav,./stim/wavs/mexican_match_declarative-broad-focus_Marta-abre-el-regalo.wav,./stim/wavs/peruvian_match_declarative-broad-focus_Marta-abre-el-regalo.wav,./stim/wavs/puertorican_match_declarative-broad-focus_Marta-abre-el-regalo.wav,,,,,,,,,,,,,,,,,,,,,,,,,,,,,,,,,,,,,,,,,,,,,,,,,,,,,,,,
,,,,,,,5e3dff6b8714b707b9a258b0,60568611ec04488a9e9da93b,6056b43c74a8331f64e78567,United States,West coast,13 or older,yes,2021-03-20_19h50.08.413,empathy_intonation_perc,2020.2.10,Win32,60,,,,,,,,,,1,mexican,1,1,1.518175,0,58,58,56,1,57,./stim/wavs/andalusian_mismatch_interrogative-total-yn_El-bebe-comia-muy-bien.wav,./stim/wavs/argentine_mismatch_interrogative-total-yn_El-bebe-comia-muy-bien.wav,./stim/wavs/castilian_mismatch_interrogative-total-yn_El-bebe-comia-muy-bien.wav,./stim/wavs/chilean_mismatch_interrogative-total-yn_El-bebe-comia-muy-bien.wav,./stim/wavs/cuban_mismatch_interrogative-total-yn_El-bebe-comia-muy-bien.wav,./stim/wavs/mexican_mismatch_interrogative-total-yn_El-bebe-comia-muy-bien.wav,./stim/wavs/peruvian_mismatch_interrogative-total-yn_El-bebe-comia-muy-bien.wav,./stim/wavs/puertorican_mismatch_interrogative-total-yn_El-bebe-comia-muy-bien.wav,,,,,,,,,,,,,,,,,,,,,,,,,,,,,,,,,,,,,,,,,,,,,,,,,,,,,,,,
,,,,,,,5e3dff6b8714b707b9a258b0,60568611ec04488a9e9da93b,6056b43c74a8331f64e78567,United States,West coast,13 or older,yes,2021-03-20_19h50.08.413,empathy_intonation_perc,2020.2.10,Win32,60,,,,,,,,,,1,peruvian,1,1,1.522565,0,59,59,29,1,30,./stim/wavs/andalusian_match_interrogative-total-yn_Maria-bebe-el-vino.wav,./stim/wavs/argentine_match_interrogative-total-yn_Maria-bebe-el-vino.wav,./stim/wavs/castilian_match_interrogative-total-yn_Maria-bebe-el-vino.wav,./stim/wavs/chilean_match_interrogative-total-yn_Maria-bebe-el-vino.wav,./stim/wavs/cuban_match_interrogative-total-yn_Maria-bebe-el-vino.wav,./stim/wavs/mexican_match_interrogative-total-yn_Maria-bebe-el-vino.wav,./stim/wavs/peruvian_match_interrogative-total-yn_Maria-bebe-el-vino.wav,./stim/wavs/puertorican_match_interrogative-total-yn_Maria-bebe-el-vino.wav,,,,,,,,,,,,,,,,,,,,,,,,,,,,,,,,,,,,,,,,,,,,,,,,,,,,,,,,
,,,,,,,5e3dff6b8714b707b9a258b0,60568611ec04488a9e9da93b,6056b43c74a8331f64e78567,United States,West coast,13 or older,yes,2021-03-20_19h50.08.413,empathy_intonation_perc,2020.2.10,Win32,60,,,,,,,,,,0,peruvian,0,1,1.594065,0,60,60,12,1,13,./stim/wavs/andalusian_match_declarative-narrow-focus_Manuela-vende-el-carro.wav,./stim/wavs/argentine_match_declarative-narrow-focus_Manuela-vende-el-carro.wav,./stim/wavs/castilian_match_declarative-narrow-focus_Manuela-vende-el-carro.wav,./stim/wavs/chilean_match_declarative-narrow-focus_Manuela-vende-el-carro.wav,./stim/wavs/cuban_match_declarative-narrow-focus_Manuela-vende-el-carro.wav,./stim/wavs/mexican_match_declarative-narrow-focus_Manuela-vende-el-carro.wav,./stim/wavs/peruvian_match_declarative-narrow-focus_Manuela-vende-el-carro.wav,./stim/wavs/puertorican_match_declarative-narrow-focus_Manuela-vende-el-carro.wav,,,,,,,,,,,,,,,,,,,,,,,,,,,,,,,,,,,,,,,,,,,,,,,,,,,,,,,,
,,,,,,,5e3dff6b8714b707b9a258b0,60568611ec04488a9e9da93b,6056b43c74a8331f64e78567,United States,West coast,13 or older,yes,2021-03-20_19h50.08.413,empathy_intonation_perc,2020.2.10,Win32,60,,,,,,,,,,0,puertorican,1,0,1.270985,0,61,61,5,1,6,./stim/wavs/andalusian_match_declarative-broad-focus_Maria-bebe-el-vino.wav,./stim/wavs/argentine_match_declarative-broad-focus_Maria-bebe-el-vino.wav,./stim/wavs/castilian_match_declarative-broad-focus_Maria-bebe-el-vino.wav,./stim/wavs/chilean_match_declarative-broad-focus_Maria-bebe-el-vino.wav,./stim/wavs/cuban_match_declarative-broad-focus_Maria-bebe-el-vino.wav,./stim/wavs/mexican_match_declarative-broad-focus_Maria-bebe-el-vino.wav,./stim/wavs/peruvian_match_declarative-broad-focus_Maria-bebe-el-vino.wav,./stim/wavs/puertorican_match_declarative-broad-focus_Maria-bebe-el-vino.wav,,,,,,,,,,,,,,,,,,,,,,,,,,,,,,,,,,,,,,,,,,,,,,,,,,,,,,,,
,,,,,,,5e3dff6b8714b707b9a258b0,60568611ec04488a9e9da93b,6056b43c74a8331f64e78567,United States,West coast,13 or older,yes,2021-03-20_19h50.08.413,empathy_intonation_perc,2020.2.10,Win32,60,,,,,,,,,,0,chilean,0,1,1.618075,0,62,62,40,1,41,./stim/wavs/andalusian_mismatch_declarative-narrow-focus_El-bebe-comia-muy-bien.wav,./stim/wavs/argentine_mismatch_declarative-narrow-focus_El-bebe-comia-muy-bien.wav,./stim/wavs/castilian_mismatch_declarative-narrow-focus_El-bebe-comia-muy-bien.wav,./stim/wavs/chilean_mismatch_declarative-narrow-focus_El-bebe-comia-muy-bien.wav,./stim/wavs/cuban_mismatch_declarative-narrow-focus_El-bebe-comia-muy-bien.wav,./stim/wavs/mexican_mismatch_declarative-narrow-focus_El-bebe-comia-muy-bien.wav,./stim/wavs/peruvian_mismatch_declarative-narrow-focus_El-bebe-comia-muy-bien.wav,./stim/wavs/puertorican_mismatch_declarative-narrow-focus_El-bebe-comia-muy-bien.wav,,,,,,,,,,,,,,,,,,,,,,,,,,,,,,,,,,,,,,,,,,,,,,,,,,,,,,,,
,,,,,,,5e3dff6b8714b707b9a258b0,60568611ec04488a9e9da93b,6056b43c74a8331f64e78567,United States,West coast,13 or older,yes,2021-03-20_19h50.08.413,empathy_intonation_perc,2020.2.10,Win32,60,,,,,,,,,,1,andalusian,1,1,1.65449,0,63,63,62,1,63,./stim/wavs/andalusian_mismatch_interrogative-total-yn_Mi-novio-viene-del-lago.wav,./stim/wavs/argentine_mismatch_interrogative-total-yn_Mi-novio-viene-del-lago.wav,./stim/wavs/castilian_mismatch_interrogative-total-yn_Mi-novio-viene-del-lago.wav,./stim/wavs/chilean_mismatch_interrogative-total-yn_Mi-novio-viene-del-lago.wav,./stim/wavs/cuban_mismatch_interrogative-total-yn_Mi-novio-viene-del-lago.wav,./stim/wavs/mexican_mismatch_interrogative-total-yn_Mi-novio-viene-del-lago.wav,./stim/wavs/peruvian_mismatch_interrogative-total-yn_Mi-novio-viene-del-lago.wav,./stim/wavs/puertorican_mismatch_interrogative-total-yn_Mi-novio-viene-del-lago.wav,,,,,,,,,,,,,,,,,,,,,,,,,,,,,,,,,,,,,,,,,,,,,,,,,,,,,,,,
,,,,,,,5e3dff6b8714b707b9a258b0,60568611ec04488a9e9da93b,6056b43c74a8331f64e78567,United States,West coast,13 or older,yes,2021-03-20_19h50.08.413,empathy_intonation_perc,2020.2.10,Win32,60,,,,,,,,,,,,,,,,,,,,,,,,,,,,,h,1,6.777415,0,0,0,0,1,,,,,,,,,,,,,,,,,,,,,,,,,,,,,,,,,,,,,,,,,,,,,,,,
,,,,,"Great! Now we will move on. The next task consists of about 60 trials, in each of which you will see a string of letters. 
  
  Your task is to decide whether this is a real Spanish word or not.",(press the spacebar to continue),5e3dff6b8714b707b9a258b0,60568611ec04488a9e9da93b,6056b43c74a8331f64e78567,United States,West coast,13 or older,yes,2021-03-20_19h50.08.413,empathy_intonation_perc,2020.2.10,Win32,60,,,,,,,,,,,,,,,,,,,,,,,,,,,,,,,,,,,,,0,0,0,0,1,,,,,,,,,,,,,,,,,,,,,,,,,,,,,,,,,,,,,,,,,,,
,,,,,"If you think it is an existing Spanish word, you type '1' (for 'REAL'), and if you think it is not an existing Spanish word, you type '0' (for 'FAKE').",(press the spacebar to continue),5e3dff6b8714b707b9a258b0,60568611ec04488a9e9da93b,6056b43c74a8331f64e78567,United States,West coast,13 or older,yes,2021-03-20_19h50.08.413,empathy_intonation_perc,2020.2.10,Win32,60,,,,,,,,,,,,,,,,,,,,,,,,,,,,,,,,,,,,,0,1,1,1,1,,,,,,,,,,,,,,,,,,,,,,,,,,,,,,,,,,,,,,,,,,,
,,,,,"If you are sure that the word exists, even though you dont know its exact meaning, you may still respond '1' (REAL). 
  
  But if you are not sure if it is an existing word, you should respond '0' (FAKE).
  
  Let's do a practice round...",(press the spacebar to continue),5e3dff6b8714b707b9a258b0,60568611ec04488a9e9da93b,6056b43c74a8331f64e78567,United States,West coast,13 or older,yes,2021-03-20_19h50.08.413,empathy_intonation_perc,2020.2.10,Win32,60,,,,,,,,,,,,,,,,,,,,,,,,,,,,,,,,,,,,,0,2,2,2,1,,,,,,,,,,,,,,,,,,,,,,,,,,,,,,,,,,,,,,,,,,,
,,,,,,,5e3dff6b8714b707b9a258b0,60568611ec04488a9e9da93b,6056b43c74a8331f64e78567,United States,West coast,13 or older,yes,2021-03-20_19h50.08.413,empathy_intonation_perc,2020.2.10,Win32,60,,,,,,,,,,0,,,,,,,,,,,,,,,,,,,,,,,,,,,,,,,,0,1,3.0292,0,0,0,0,1,0,depiste,REAL,FAKE,,,,,,,,,,,,,,,,,,,,,,,,,,,,,,,
,,,,,,,5e3dff6b8714b707b9a258b0,60568611ec04488a9e9da93b,6056b43c74a8331f64e78567,United States,West coast,13 or older,yes,2021-03-20_19h50.08.413,empathy_intonation_perc,2020.2.10,Win32,60,,,,,,,,,,1,,,,,,,,,,,,,,,,,,,,,,,,,,,,,,,,1,1,1.0121,0,1,1,1,1,0,s,REAL,FAKE,,,,,,,,,,,,,,,,,,,,,,,,,,,,,,,
,,,,,,,5e3dff6b8714b707b9a258b0,60568611ec04488a9e9da93b,6056b43c74a8331f64e78567,United States,West coast,13 or older,yes,2021-03-20_19h50.08.413,empathy_intonation_perc,2020.2.10,Win32,60,,,,,,,,,,0,,,,,,,,,,,,,,,,,,,,,,,,,,,,,,,,1,0,0.470535,0,2,2,2,1,0,con,REAL,FAKE,,,,,,,,,,,,,,,,,,,,,,,,,,,,,,,
,,,,,,,5e3dff6b8714b707b9a258b0,60568611ec04488a9e9da93b,6056b43c74a8331f64e78567,United States,West coast,13 or older,yes,2021-03-20_19h50.08.413,empathy_intonation_perc,2020.2.10,Win32,60,,,,,,,,,,0,,,,,,,,,,,,,,,,,,,,,,,,,,,,,,,,1,0,0.83057,0,3,3,3,1,0,calpar,REAL,FAKE,,,,,,,,,,,,,,,,,,,,,,,,,,,,,,,
,,,,,,,5e3dff6b8714b707b9a258b0,60568611ec04488a9e9da93b,6056b43c74a8331f64e78567,United States,West coast,13 or older,yes,2021-03-20_19h50.08.413,empathy_intonation_perc,2020.2.10,Win32,60,,,,,,,,,,0,,,,,,,,,,,,,,,,,,,,,,,,,,,,,,,,1,0,0.61927,0,4,4,4,1,0,joten,REAL,FAKE,,,,,,,,,,,,,,,,,,,,,,,,,,,,,,,
,,,,,,,5e3dff6b8714b707b9a258b0,60568611ec04488a9e9da93b,6056b43c74a8331f64e78567,United States,West coast,13 or older,yes,2021-03-20_19h50.08.413,empathy_intonation_perc,2020.2.10,Win32,60,,,,,,,,,,1,,,,,,,,,,,,,,,,,,,,,,,,,,,,,,,,0,0,1.754155,0,5,5,5,1,0,sacapuntas,REAL,FAKE,,,,,,,,,,,,,,,,,,,,,,,,,,,,,,,
,,,,,,,5e3dff6b8714b707b9a258b0,60568611ec04488a9e9da93b,6056b43c74a8331f64e78567,United States,West coast,13 or older,yes,2021-03-20_19h50.08.413,empathy_intonation_perc,2020.2.10,Win32,60,,,,,,,,,,0,,,,,,,,,,,,,,,,,,,,,,,,,,,,,,,,1,0,0.479955,0,6,6,6,1,0,priba,REAL,FAKE,,,,,,,,,,,,,,,,,,,,,,,,,,,,,,,
,,,,,,,5e3dff6b8714b707b9a258b0,60568611ec04488a9e9da93b,6056b43c74a8331f64e78567,United States,West coast,13 or older,yes,2021-03-20_19h50.08.413,empathy_intonation_perc,2020.2.10,Win32,60,,,,,,,,,,0,,,,,,,,,,,,,,,,,,,,,,,,,,,,,,,,1,0,0.842705,0,7,7,7,1,0,pelasula,REAL,FAKE,,,,,,,,,,,,,,,,,,,,,,,,,,,,,,,
,,,,,,,5e3dff6b8714b707b9a258b0,60568611ec04488a9e9da93b,6056b43c74a8331f64e78567,United States,West coast,13 or older,yes,2021-03-20_19h50.08.413,empathy_intonation_perc,2020.2.10,Win32,60,,,,,,,,,,1,,,,,,,,,,,,,,,,,,,,,,,,,,,,,,,,1,1,0.71054,0,8,8,8,1,0,bien,REAL,FAKE,,,,,,,,,,,,,,,,,,,,,,,,,,,,,,,
,,,,,,,5e3dff6b8714b707b9a258b0,60568611ec04488a9e9da93b,6056b43c74a8331f64e78567,United States,West coast,13 or older,yes,2021-03-20_19h50.08.413,empathy_intonation_perc,2020.2.10,Win32,60,,,,,,,,,,1,,,,,,,,,,,,,,,,,,,,,,,,,,,,,,,,1,1,0.59098,0,9,9,9,1,0,casa,REAL,FAKE,,,,,,,,,,,,,,,,,,,,,,,,,,,,,,,
,,,,,,,5e3dff6b8714b707b9a258b0,60568611ec04488a9e9da93b,6056b43c74a8331f64e78567,United States,West coast,13 or older,yes,2021-03-20_19h50.08.413,empathy_intonation_perc,2020.2.10,Win32,60,,,,,,,,,,0,,,,,,,,,,,,,,,,,,,,,,,,,,,,,,,,1,0,0.47879,0,10,10,10,1,0,lejo,REAL,FAKE,,,,,,,,,,,,,,,,,,,,,,,,,,,,,,,
,,,,,,,5e3dff6b8714b707b9a258b0,60568611ec04488a9e9da93b,6056b43c74a8331f64e78567,United States,West coast,13 or older,yes,2021-03-20_19h50.08.413,empathy_intonation_perc,2020.2.10,Win32,60,,,,,,,,,,0,,,,,,,,,,,,,,,,,,,,,,,,,,,,,,,,0,1,0.69203,0,11,11,11,1,0,pretantas,REAL,FAKE,,,,,,,,,,,,,,,,,,,,,,,,,,,,,,,
,,,,,,,5e3dff6b8714b707b9a258b0,60568611ec04488a9e9da93b,6056b43c74a8331f64e78567,United States,West coast,13 or older,yes,2021-03-20_19h50.08.413,empathy_intonation_perc,2020.2.10,Win32,60,,,,,,,,,,1,,,,,,,,,,,,,,,,,,,,,,,,,,,,,,,,,,,,,,,,6,tergiversar,,,0,0,2.921545,0,0,0,5,1,REAL,FAKE,,,,,,,,,,,,,,,,,,,,,
,,,,,,,5e3dff6b8714b707b9a258b0,60568611ec04488a9e9da93b,6056b43c74a8331f64e78567,United States,West coast,13 or older,yes,2021-03-20_19h50.08.413,empathy_intonation_perc,2020.2.10,Win32,60,,,,,,,,,,0,,,,,,,,,,,,,,,,,,,,,,,,,,,,,,,,,,,,,,,,87,grodo,,,0,1,0.977145,0,1,1,86,1,REAL,FAKE,,,,,,,,,,,,,,,,,,,,,
,,,,,,,5e3dff6b8714b707b9a258b0,60568611ec04488a9e9da93b,6056b43c74a8331f64e78567,United States,West coast,13 or older,yes,2021-03-20_19h50.08.413,empathy_intonation_perc,2020.2.10,Win32,60,,,,,,,,,,0,,,,,,,,,,,,,,,,,,,,,,,,,,,,,,,,,,,,,,,,27,acutacin,,,1,0,0.77471,0,2,2,26,1,REAL,FAKE,,,,,,,,,,,,,,,,,,,,,
,,,,,,,5e3dff6b8714b707b9a258b0,60568611ec04488a9e9da93b,6056b43c74a8331f64e78567,United States,West coast,13 or older,yes,2021-03-20_19h50.08.413,empathy_intonation_perc,2020.2.10,Win32,60,,,,,,,,,,1,,,,,,,,,,,,,,,,,,,,,,,,,,,,,,,,,,,,,,,,65,bizcocho,,,0,0,0.72111,0,3,3,64,1,REAL,FAKE,,,,,,,,,,,,,,,,,,,,,
,,,,,,,5e3dff6b8714b707b9a258b0,60568611ec04488a9e9da93b,6056b43c74a8331f64e78567,United States,West coast,13 or older,yes,2021-03-20_19h50.08.413,empathy_intonation_perc,2020.2.10,Win32,60,,,,,,,,,,0,,,,,,,,,,,,,,,,,,,,,,,,,,,,,,,,,,,,,,,,35,rompido,,,0,1,0.72867,0,4,4,34,1,REAL,FAKE,,,,,,,,,,,,,,,,,,,,,
,,,,,,,5e3dff6b8714b707b9a258b0,60568611ec04488a9e9da93b,6056b43c74a8331f64e78567,United States,West coast,13 or older,yes,2021-03-20_19h50.08.413,empathy_intonation_perc,2020.2.10,Win32,60,,,,,,,,,,1,,,,,,,,,,,,,,,,,,,,,,,,,,,,,,,,,,,,,,,,22,lacayo,,,0,0,1.157075,0,5,5,21,1,REAL,FAKE,,,,,,,,,,,,,,,,,,,,,
,,,,,,,5e3dff6b8714b707b9a258b0,60568611ec04488a9e9da93b,6056b43c74a8331f64e78567,United States,West coast,13 or older,yes,2021-03-20_19h50.08.413,empathy_intonation_perc,2020.2.10,Win32,60,,,,,,,,,,0,,,,,,,,,,,,,,,,,,,,,,,,,,,,,,,,,,,,,,,,50,flamida,,,1,0,1.05698,0,6,6,49,1,REAL,FAKE,,,,,,,,,,,,,,,,,,,,,
,,,,,,,5e3dff6b8714b707b9a258b0,60568611ec04488a9e9da93b,6056b43c74a8331f64e78567,United States,West coast,13 or older,yes,2021-03-20_19h50.08.413,empathy_intonation_perc,2020.2.10,Win32,60,,,,,,,,,,1,,,,,,,,,,,,,,,,,,,,,,,,,,,,,,,,,,,,,,,,83,guante,,,1,1,0.682055,0,7,7,82,1,REAL,FAKE,,,,,,,,,,,,,,,,,,,,,
,,,,,,,5e3dff6b8714b707b9a258b0,60568611ec04488a9e9da93b,6056b43c74a8331f64e78567,United States,West coast,13 or older,yes,2021-03-20_19h50.08.413,empathy_intonation_perc,2020.2.10,Win32,60,,,,,,,,,,1,,,,,,,,,,,,,,,,,,,,,,,,,,,,,,,,,,,,,,,,43,canela,,,0,0,0.7611,0,8,8,42,1,REAL,FAKE,,,,,,,,,,,,,,,,,,,,,
,,,,,,,5e3dff6b8714b707b9a258b0,60568611ec04488a9e9da93b,6056b43c74a8331f64e78567,United States,West coast,13 or older,yes,2021-03-20_19h50.08.413,empathy_intonation_perc,2020.2.10,Win32,60,,,,,,,,,,0,,,,,,,,,,,,,,,,,,,,,,,,,,,,,,,,,,,,,,,,58,plaudir,,,0,1,0.815045,0,9,9,57,1,REAL,FAKE,,,,,,,,,,,,,,,,,,,,,
,,,,,,,5e3dff6b8714b707b9a258b0,60568611ec04488a9e9da93b,6056b43c74a8331f64e78567,United States,West coast,13 or older,yes,2021-03-20_19h50.08.413,empathy_intonation_perc,2020.2.10,Win32,60,,,,,,,,,,1,,,,,,,,,,,,,,,,,,,,,,,,,,,,,,,,,,,,,,,,76,atar,,,0,0,1.45123,0,10,10,75,1,REAL,FAKE,,,,,,,,,,,,,,,,,,,,,
,,,,,,,5e3dff6b8714b707b9a258b0,60568611ec04488a9e9da93b,6056b43c74a8331f64e78567,United States,West coast,13 or older,yes,2021-03-20_19h50.08.413,empathy_intonation_perc,2020.2.10,Win32,60,,,,,,,,,,1,,,,,,,,,,,,,,,,,,,,,,,,,,,,,,,,,,,,,,,,15,regar,,,1,1,0.678,0,11,11,14,1,REAL,FAKE,,,,,,,,,,,,,,,,,,,,,
,,,,,,,5e3dff6b8714b707b9a258b0,60568611ec04488a9e9da93b,6056b43c74a8331f64e78567,United States,West coast,13 or older,yes,2021-03-20_19h50.08.413,empathy_intonation_perc,2020.2.10,Win32,60,,,,,,,,,,1,,,,,,,,,,,,,,,,,,,,,,,,,,,,,,,,,,,,,,,,67,cabello,,,1,1,1.031475,0,12,12,66,1,REAL,FAKE,,,,,,,,,,,,,,,,,,,,,
,,,,,,,5e3dff6b8714b707b9a258b0,60568611ec04488a9e9da93b,6056b43c74a8331f64e78567,United States,West coast,13 or older,yes,2021-03-20_19h50.08.413,empathy_intonation_perc,2020.2.10,Win32,60,,,,,,,,,,0,,,,,,,,,,,,,,,,,,,,,,,,,,,,,,,,,,,,,,,,63,esposante,,,1,0,0.79861,0,13,13,62,1,REAL,FAKE,,,,,,,,,,,,,,,,,,,,,
,,,,,,,5e3dff6b8714b707b9a258b0,60568611ec04488a9e9da93b,6056b43c74a8331f64e78567,United States,West coast,13 or older,yes,2021-03-20_19h50.08.413,empathy_intonation_perc,2020.2.10,Win32,60,,,,,,,,,,1,,,,,,,,,,,,,,,,,,,,,,,,,,,,,,,,,,,,,,,,20,vido,,,1,1,0.844255,0,14,14,19,1,REAL,FAKE,,,,,,,,,,,,,,,,,,,,,
,,,,,,,5e3dff6b8714b707b9a258b0,60568611ec04488a9e9da93b,6056b43c74a8331f64e78567,United States,West coast,13 or older,yes,2021-03-20_19h50.08.413,empathy_intonation_perc,2020.2.10,Win32,60,,,,,,,,,,1,,,,,,,,,,,,,,,,,,,,,,,,,,,,,,,,,,,,,,,,34,aviso,,,0,0,0.734335,0,15,15,33,1,REAL,FAKE,,,,,,,,,,,,,,,,,,,,,
,,,,,,,5e3dff6b8714b707b9a258b0,60568611ec04488a9e9da93b,6056b43c74a8331f64e78567,United States,West coast,13 or older,yes,2021-03-20_19h50.08.413,empathy_intonation_perc,2020.2.10,Win32,60,,,,,,,,,,1,,,,,,,,,,,,,,,,,,,,,,,,,,,,,,,,,,,,,,,,41,rebuscar,,,1,1,1.08383,0,16,16,40,1,REAL,FAKE,,,,,,,,,,,,,,,,,,,,,
,,,,,,,5e3dff6b8714b707b9a258b0,60568611ec04488a9e9da93b,6056b43c74a8331f64e78567,United States,West coast,13 or older,yes,2021-03-20_19h50.08.413,empathy_intonation_perc,2020.2.10,Win32,60,,,,,,,,,,1,,,,,,,,,,,,,,,,,,,,,,,,,,,,,,,,,,,,,,,,62,flaco,,,1,1,0.775295,0,17,17,61,1,REAL,FAKE,,,,,,,,,,,,,,,,,,,,,
,,,,,,,5e3dff6b8714b707b9a258b0,60568611ec04488a9e9da93b,6056b43c74a8331f64e78567,United States,West coast,13 or older,yes,2021-03-20_19h50.08.413,empathy_intonation_perc,2020.2.10,Win32,60,,,,,,,,,,1,,,,,,,,,,,,,,,,,,,,,,,,,,,,,,,,,,,,,,,,2,pellizcar,,,0,0,0.94499,0,18,18,1,1,REAL,FAKE,,,,,,,,,,,,,,,,,,,,,
,,,,,,,5e3dff6b8714b707b9a258b0,60568611ec04488a9e9da93b,6056b43c74a8331f64e78567,United States,West coast,13 or older,yes,2021-03-20_19h50.08.413,empathy_intonation_perc,2020.2.10,Win32,60,,,,,,,,,,1,,,,,,,,,,,,,,,,,,,,,,,,,,,,,,,,,,,,,,,,48,ladrn,,,1,1,0.5929,0,19,19,47,1,REAL,FAKE,,,,,,,,,,,,,,,,,,,,,
,,,,,,,5e3dff6b8714b707b9a258b0,60568611ec04488a9e9da93b,6056b43c74a8331f64e78567,United States,West coast,13 or older,yes,2021-03-20_19h50.08.413,empathy_intonation_perc,2020.2.10,Win32,60,,,,,,,,,,0,,,,,,,,,,,,,,,,,,,,,,,,,,,,,,,,,,,,,,,,19,brecedad,,,0,1,0.6489,0,20,20,18,1,REAL,FAKE,,,,,,,,,,,,,,,,,,,,,
,,,,,,,5e3dff6b8714b707b9a258b0,60568611ec04488a9e9da93b,6056b43c74a8331f64e78567,United States,West coast,13 or older,yes,2021-03-20_19h50.08.413,empathy_intonation_perc,2020.2.10,Win32,60,,,,,,,,,,1,,,,,,,,,,,,,,,,,,,,,,,,,,,,,,,,,,,,,,,,56,musgo,,,0,0,0.76155,0,21,21,55,1,REAL,FAKE,,,,,,,,,,,,,,,,,,,,,
,,,,,,,5e3dff6b8714b707b9a258b0,60568611ec04488a9e9da93b,6056b43c74a8331f64e78567,United States,West coast,13 or older,yes,2021-03-20_19h50.08.413,empathy_intonation_perc,2020.2.10,Win32,60,,,,,,,,,,1,,,,,,,,,,,,,,,,,,,,,,,,,,,,,,,,,,,,,,,,85,lad,,,1,1,0.562455,0,22,22,84,1,REAL,FAKE,,,,,,,,,,,,,,,,,,,,,
,,,,,,,5e3dff6b8714b707b9a258b0,60568611ec04488a9e9da93b,6056b43c74a8331f64e78567,United States,West coast,13 or older,yes,2021-03-20_19h50.08.413,empathy_intonation_perc,2020.2.10,Win32,60,,,,,,,,,,1,,,,,,,,,,,,,,,,,,,,,,,,,,,,,,,,,,,,,,,,31,pandilla,,,0,0,0.935545,0,23,23,30,1,REAL,FAKE,,,,,,,,,,,,,,,,,,,,,
,,,,,,,5e3dff6b8714b707b9a258b0,60568611ec04488a9e9da93b,6056b43c74a8331f64e78567,United States,West coast,13 or older,yes,2021-03-20_19h50.08.413,empathy_intonation_perc,2020.2.10,Win32,60,,,,,,,,,,0,,,,,,,,,,,,,,,,,,,,,,,,,,,,,,,,,,,,,,,,4,batilln,,,1,0,0.65073,0,24,24,3,1,REAL,FAKE,,,,,,,,,,,,,,,,,,,,,
,,,,,,,5e3dff6b8714b707b9a258b0,60568611ec04488a9e9da93b,6056b43c74a8331f64e78567,United States,West coast,13 or older,yes,2021-03-20_19h50.08.413,empathy_intonation_perc,2020.2.10,Win32,60,,,,,,,,,,1,,,,,,,,,,,,,,,,,,,,,,,,,,,,,,,,,,,,,,,,89,prisa,,,0,0,0.691475,0,25,25,88,1,REAL,FAKE,,,,,,,,,,,,,,,,,,,,,
,,,,,,,5e3dff6b8714b707b9a258b0,60568611ec04488a9e9da93b,6056b43c74a8331f64e78567,United States,West coast,13 or older,yes,2021-03-20_19h50.08.413,empathy_intonation_perc,2020.2.10,Win32,60,,,,,,,,,,0,,,,,,,,,,,,,,,,,,,,,,,,,,,,,,,,,,,,,,,,16,abracer,,,0,1,0.724245,0,26,26,15,1,REAL,FAKE,,,,,,,,,,,,,,,,,,,,,
,,,,,,,5e3dff6b8714b707b9a258b0,60568611ec04488a9e9da93b,6056b43c74a8331f64e78567,United States,West coast,13 or older,yes,2021-03-20_19h50.08.413,empathy_intonation_perc,2020.2.10,Win32,60,,,,,,,,,,0,,,,,,,,,,,,,,,,,,,,,,,,,,,,,,,,,,,,,,,,1,terzo,,,0,1,0.567605,0,27,27,0,1,REAL,FAKE,,,,,,,,,,,,,,,,,,,,,
,,,,,,,5e3dff6b8714b707b9a258b0,60568611ec04488a9e9da93b,6056b43c74a8331f64e78567,United States,West coast,13 or older,yes,2021-03-20_19h50.08.413,empathy_intonation_perc,2020.2.10,Win32,60,,,,,,,,,,1,,,,,,,,,,,,,,,,,,,,,,,,,,,,,,,,,,,,,,,,39,torpe,,,1,1,0.4866,0,28,28,38,1,REAL,FAKE,,,,,,,,,,,,,,,,,,,,,
,,,,,,,5e3dff6b8714b707b9a258b0,60568611ec04488a9e9da93b,6056b43c74a8331f64e78567,United States,West coast,13 or older,yes,2021-03-20_19h50.08.413,empathy_intonation_perc,2020.2.10,Win32,60,,,,,,,,,,1,,,,,,,,,,,,,,,,,,,,,,,,,,,,,,,,,,,,,,,,59,besar,,,0,0,0.905155,0,29,29,58,1,REAL,FAKE,,,,,,,,,,,,,,,,,,,,,
,,,,,,,5e3dff6b8714b707b9a258b0,60568611ec04488a9e9da93b,6056b43c74a8331f64e78567,United States,West coast,13 or older,yes,2021-03-20_19h50.08.413,empathy_intonation_perc,2020.2.10,Win32,60,,,,,,,,,,1,,,,,,,,,,,,,,,,,,,,,,,,,,,,,,,,,,,,,,,,14,yunque,,,0,0,0.825695,0,30,30,13,1,REAL,FAKE,,,,,,,,,,,,,,,,,,,,,
,,,,,,,5e3dff6b8714b707b9a258b0,60568611ec04488a9e9da93b,6056b43c74a8331f64e78567,United States,West coast,13 or older,yes,2021-03-20_19h50.08.413,empathy_intonation_perc,2020.2.10,Win32,60,,,,,,,,,,1,,,,,,,,,,,,,,,,,,,,,,,,,,,,,,,,,,,,,,,,57,tacao,,,1,1,0.67346,0,31,31,56,1,REAL,FAKE,,,,,,,,,,,,,,,,,,,,,
,,,,,,,5e3dff6b8714b707b9a258b0,60568611ec04488a9e9da93b,6056b43c74a8331f64e78567,United States,West coast,13 or older,yes,2021-03-20_19h50.08.413,empathy_intonation_perc,2020.2.10,Win32,60,,,,,,,,,,1,,,,,,,,,,,,,,,,,,,,,,,,,,,,,,,,,,,,,,,,13,helar,,,1,1,0.75161,0,32,32,12,1,REAL,FAKE,,,,,,,,,,,,,,,,,,,,,
,,,,,,,5e3dff6b8714b707b9a258b0,60568611ec04488a9e9da93b,6056b43c74a8331f64e78567,United States,West coast,13 or older,yes,2021-03-20_19h50.08.413,empathy_intonation_perc,2020.2.10,Win32,60,,,,,,,,,,1,,,,,,,,,,,,,,,,,,,,,,,,,,,,,,,,,,,,,,,,61,seda,,,1,1,0.63694,0,33,33,60,1,REAL,FAKE,,,,,,,,,,,,,,,,,,,,,
,,,,,,,5e3dff6b8714b707b9a258b0,60568611ec04488a9e9da93b,6056b43c74a8331f64e78567,United States,West coast,13 or older,yes,2021-03-20_19h50.08.413,empathy_intonation_perc,2020.2.10,Win32,60,,,,,,,,,,1,,,,,,,,,,,,,,,,,,,,,,,,,,,,,,,,,,,,,,,,26,secuestro,,,1,1,0.653855,0,34,34,25,1,REAL,FAKE,,,,,,,,,,,,,,,,,,,,,
,,,,,,,5e3dff6b8714b707b9a258b0,60568611ec04488a9e9da93b,6056b43c74a8331f64e78567,United States,West coast,13 or older,yes,2021-03-20_19h50.08.413,empathy_intonation_perc,2020.2.10,Win32,60,,,,,,,,,,0,,,,,,,,,,,,,,,,,,,,,,,,,,,,,,,,,,,,,,,,79,tropaje,,,0,1,0.78929,0,35,35,78,1,REAL,FAKE,,,,,,,,,,,,,,,,,,,,,
,,,,,,,5e3dff6b8714b707b9a258b0,60568611ec04488a9e9da93b,6056b43c74a8331f64e78567,United States,West coast,13 or older,yes,2021-03-20_19h50.08.413,empathy_intonation_perc,2020.2.10,Win32,60,,,,,,,,,,1,,,,,,,,,,,,,,,,,,,,,,,,,,,,,,,,,,,,,,,,75,yacer,,,0,0,0.806085,0,36,36,74,1,REAL,FAKE,,,,,,,,,,,,,,,,,,,,,
,,,,,,,5e3dff6b8714b707b9a258b0,60568611ec04488a9e9da93b,6056b43c74a8331f64e78567,United States,West coast,13 or older,yes,2021-03-20_19h50.08.413,empathy_intonation_perc,2020.2.10,Win32,60,,,,,,,,,,1,,,,,,,,,,,,,,,,,,,,,,,,,,,,,,,,,,,,,,,,7,psimo,,,1,1,0.554665,0,37,37,6,1,REAL,FAKE,,,,,,,,,,,,,,,,,,,,,
,,,,,,,5e3dff6b8714b707b9a258b0,60568611ec04488a9e9da93b,6056b43c74a8331f64e78567,United States,West coast,13 or older,yes,2021-03-20_19h50.08.413,empathy_intonation_perc,2020.2.10,Win32,60,,,,,,,,,,0,,,,,,,,,,,,,,,,,,,,,,,,,,,,,,,,,,,,,,,,74,cintro,,,1,0,0.62605,0,38,38,73,1,REAL,FAKE,,,,,,,,,,,,,,,,,,,,,
,,,,,,,5e3dff6b8714b707b9a258b0,60568611ec04488a9e9da93b,6056b43c74a8331f64e78567,United States,West coast,13 or older,yes,2021-03-20_19h50.08.413,empathy_intonation_perc,2020.2.10,Win32,60,,,,,,,,,,1,,,,,,,,,,,,,,,,,,,,,,,,,,,,,,,,,,,,,,,,88,acantilado,,,1,1,1.862145,0,39,39,87,1,REAL,FAKE,,,,,,,,,,,,,,,,,,,,,
,,,,,,,5e3dff6b8714b707b9a258b0,60568611ec04488a9e9da93b,6056b43c74a8331f64e78567,United States,West coast,13 or older,yes,2021-03-20_19h50.08.413,empathy_intonation_perc,2020.2.10,Win32,60,,,,,,,,,,0,,,,,,,,,,,,,,,,,,,,,,,,,,,,,,,,,,,,,,,,84,escuto,,,1,0,0.63155,0,40,40,83,1,REAL,FAKE,,,,,,,,,,,,,,,,,,,,,
,,,,,,,5e3dff6b8714b707b9a258b0,60568611ec04488a9e9da93b,6056b43c74a8331f64e78567,United States,West coast,13 or older,yes,2021-03-20_19h50.08.413,empathy_intonation_perc,2020.2.10,Win32,60,,,,,,,,,,1,,,,,,,,,,,,,,,,,,,,,,,,,,,,,,,,,,,,,,,,5,zapato,,,0,0,0.56927,0,41,41,4,1,REAL,FAKE,,,,,,,,,,,,,,,,,,,,,
,,,,,,,5e3dff6b8714b707b9a258b0,60568611ec04488a9e9da93b,6056b43c74a8331f64e78567,United States,West coast,13 or older,yes,2021-03-20_19h50.08.413,empathy_intonation_perc,2020.2.10,Win32,60,,,,,,,,,,1,,,,,,,,,,,,,,,,,,,,,,,,,,,,,,,,,,,,,,,,52,camisa,,,0,0,1.222525,0,42,42,51,1,REAL,FAKE,,,,,,,,,,,,,,,,,,,,,
,,,,,,,5e3dff6b8714b707b9a258b0,60568611ec04488a9e9da93b,6056b43c74a8331f64e78567,United States,West coast,13 or older,yes,2021-03-20_19h50.08.413,empathy_intonation_perc,2020.2.10,Win32,60,,,,,,,,,,1,,,,,,,,,,,,,,,,,,,,,,,,,,,,,,,,,,,,,,,,73,hervidor,,,0,0,0.78141,0,43,43,72,1,REAL,FAKE,,,,,,,,,,,,,,,,,,,,,
,,,,,,,5e3dff6b8714b707b9a258b0,60568611ec04488a9e9da93b,6056b43c74a8331f64e78567,United States,West coast,13 or older,yes,2021-03-20_19h50.08.413,empathy_intonation_perc,2020.2.10,Win32,60,,,,,,,,,,0,,,,,,,,,,,,,,,,,,,,,,,,,,,,,,,,,,,,,,,,21,capillo,,,0,1,1.08583,0,44,44,20,1,REAL,FAKE,,,,,,,,,,,,,,,,,,,,,
,,,,,,,5e3dff6b8714b707b9a258b0,60568611ec04488a9e9da93b,6056b43c74a8331f64e78567,United States,West coast,13 or older,yes,2021-03-20_19h50.08.413,empathy_intonation_perc,2020.2.10,Win32,60,,,,,,,,,,1,,,,,,,,,,,,,,,,,,,,,,,,,,,,,,,,,,,,,,,,40,alfombra,,,0,0,1.05932,0,45,45,39,1,REAL,FAKE,,,,,,,,,,,,,,,,,,,,,
,,,,,,,5e3dff6b8714b707b9a258b0,60568611ec04488a9e9da93b,6056b43c74a8331f64e78567,United States,West coast,13 or older,yes,2021-03-20_19h50.08.413,empathy_intonation_perc,2020.2.10,Win32,60,,,,,,,,,,1,,,,,,,,,,,,,,,,,,,,,,,,,,,,,,,,,,,,,,,,60,matar,,,0,0,1.01898,0,46,46,59,1,REAL,FAKE,,,,,,,,,,,,,,,,,,,,,
,,,,,,,5e3dff6b8714b707b9a258b0,60568611ec04488a9e9da93b,6056b43c74a8331f64e78567,United States,West coast,13 or older,yes,2021-03-20_19h50.08.413,empathy_intonation_perc,2020.2.10,Win32,60,,,,,,,,,,1,,,,,,,,,,,,,,,,,,,,,,,,,,,,,,,,,,,,,,,,44,cuchara,,,1,1,0.700145,0,47,47,43,1,REAL,FAKE,,,,,,,,,,,,,,,,,,,,,
,,,,,,,5e3dff6b8714b707b9a258b0,60568611ec04488a9e9da93b,6056b43c74a8331f64e78567,United States,West coast,13 or older,yes,2021-03-20_19h50.08.413,empathy_intonation_perc,2020.2.10,Win32,60,,,,,,,,,,0,,,,,,,,,,,,,,,,,,,,,,,,,,,,,,,,,,,,,,,,10,antar,,,1,0,0.958655,0,48,48,9,1,REAL,FAKE,,,,,,,,,,,,,,,,,,,,,
,,,,,,,5e3dff6b8714b707b9a258b0,60568611ec04488a9e9da93b,6056b43c74a8331f64e78567,United States,West coast,13 or older,yes,2021-03-20_19h50.08.413,empathy_intonation_perc,2020.2.10,Win32,60,,,,,,,,,,1,,,,,,,,,,,,,,,,,,,,,,,,,,,,,,,,,,,,,,,,38,estornudar,,,0,0,1.341015,0,49,49,37,1,REAL,FAKE,,,,,,,,,,,,,,,,,,,,,
,,,,,,,5e3dff6b8714b707b9a258b0,60568611ec04488a9e9da93b,6056b43c74a8331f64e78567,United States,West coast,13 or older,yes,2021-03-20_19h50.08.413,empathy_intonation_perc,2020.2.10,Win32,60,,,,,,,,,,1,,,,,,,,,,,,,,,,,,,,,,,,,,,,,,,,,,,,,,,,68,alegre,,,1,1,1.579575,0,50,50,67,1,REAL,FAKE,,,,,,,,,,,,,,,,,,,,,
,,,,,,,5e3dff6b8714b707b9a258b0,60568611ec04488a9e9da93b,6056b43c74a8331f64e78567,United States,West coast,13 or older,yes,2021-03-20_19h50.08.413,empathy_intonation_perc,2020.2.10,Win32,60,,,,,,,,,,1,,,,,,,,,,,,,,,,,,,,,,,,,,,,,,,,,,,,,,,,69,engatusar,,,0,0,0.8758,0,51,51,68,1,REAL,FAKE,,,,,,,,,,,,,,,,,,,,,
,,,,,,,5e3dff6b8714b707b9a258b0,60568611ec04488a9e9da93b,6056b43c74a8331f64e78567,United States,West coast,13 or older,yes,2021-03-20_19h50.08.413,empathy_intonation_perc,2020.2.10,Win32,60,,,,,,,,,,0,,,,,,,,,,,,,,,,,,,,,,,,,,,,,,,,,,,,,,,,8,cadea,,,1,0,1.55438,0,52,52,7,1,REAL,FAKE,,,,,,,,,,,,,,,,,,,,,
,,,,,,,5e3dff6b8714b707b9a258b0,60568611ec04488a9e9da93b,6056b43c74a8331f64e78567,United States,West coast,13 or older,yes,2021-03-20_19h50.08.413,empathy_intonation_perc,2020.2.10,Win32,60,,,,,,,,,,1,,,,,,,,,,,,,,,,,,,,,,,,,,,,,,,,,,,,,,,,3,pulmones,,,0,0,0.673675,0,53,53,2,1,REAL,FAKE,,,,,,,,,,,,,,,,,,,,,
,,,,,,,5e3dff6b8714b707b9a258b0,60568611ec04488a9e9da93b,6056b43c74a8331f64e78567,United States,West coast,13 or older,yes,2021-03-20_19h50.08.413,empathy_intonation_perc,2020.2.10,Win32,60,,,,,,,,,,0,,,,,,,,,,,,,,,,,,,,,,,,,,,,,,,,,,,,,,,,66,hacido,,,1,0,0.68545,0,54,54,65,1,REAL,FAKE,,,,,,,,,,,,,,,,,,,,,
,,,,,,,5e3dff6b8714b707b9a258b0,60568611ec04488a9e9da93b,6056b43c74a8331f64e78567,United States,West coast,13 or older,yes,2021-03-20_19h50.08.413,empathy_intonation_perc,2020.2.10,Win32,60,,,,,,,,,,0,,,,,,,,,,,,,,,,,,,,,,,,,,,,,,,,,,,,,,,,23,lampera,,,1,0,0.788675,0,55,55,22,1,REAL,FAKE,,,,,,,,,,,,,,,,,,,,,
,,,,,,,5e3dff6b8714b707b9a258b0,60568611ec04488a9e9da93b,6056b43c74a8331f64e78567,United States,West coast,13 or older,yes,2021-03-20_19h50.08.413,empathy_intonation_perc,2020.2.10,Win32,60,,,,,,,,,,1,,,,,,,,,,,,,,,,,,,,,,,,,,,,,,,,,,,,,,,,28,merodear,,,0,0,1.077125,0,56,56,27,1,REAL,FAKE,,,,,,,,,,,,,,,,,,,,,
,,,,,,,5e3dff6b8714b707b9a258b0,60568611ec04488a9e9da93b,6056b43c74a8331f64e78567,United States,West coast,13 or older,yes,2021-03-20_19h50.08.413,empathy_intonation_perc,2020.2.10,Win32,60,,,,,,,,,,1,,,,,,,,,,,,,,,,,,,,,,,,,,,,,,,,,,,,,,,,9,hacha,,,1,1,0.55167,0,57,57,8,1,REAL,FAKE,,,,,,,,,,,,,,,,,,,,,
,,,,,,,5e3dff6b8714b707b9a258b0,60568611ec04488a9e9da93b,6056b43c74a8331f64e78567,United States,West coast,13 or older,yes,2021-03-20_19h50.08.413,empathy_intonation_perc,2020.2.10,Win32,60,,,,,,,,,,0,,,,,,,,,,,,,,,,,,,,,,,,,,,,,,,,,,,,,,,,47,cartinar,,,1,0,0.65895,0,58,58,46,1,REAL,FAKE,,,,,,,,,,,,,,,,,,,,,
,,,,,,,5e3dff6b8714b707b9a258b0,60568611ec04488a9e9da93b,6056b43c74a8331f64e78567,United States,West coast,13 or older,yes,2021-03-20_19h50.08.413,empathy_intonation_perc,2020.2.10,Win32,60,,,,,,,,,,1,,,,,,,,,,,,,,,,,,,,,,,,,,,,,,,,,,,,,,,,25,bisagra,,,0,0,1.071665,0,59,59,24,1,REAL,FAKE,,,,,,,,,,,,,,,,,,,,,
,,,,,,,5e3dff6b8714b707b9a258b0,60568611ec04488a9e9da93b,6056b43c74a8331f64e78567,United States,West coast,13 or older,yes,2021-03-20_19h50.08.413,empathy_intonation_perc,2020.2.10,Win32,60,,,,,,,,,,1,,,,,,,,,,,,,,,,,,,,,,,,,,,,,,,,,,,,,,,,51,candado,,,1,1,1.041665,0,60,60,50,1,REAL,FAKE,,,,,,,,,,,,,,,,,,,,,
,,,,,,,5e3dff6b8714b707b9a258b0,60568611ec04488a9e9da93b,6056b43c74a8331f64e78567,United States,West coast,13 or older,yes,2021-03-20_19h50.08.413,empathy_intonation_perc,2020.2.10,Win32,60,,,,,,,,,,1,,,,,,,,,,,,,,,,,,,,,,,,,,,,,,,,,,,,,,,,55,nevar,,,1,1,0.706385,0,61,61,54,1,REAL,FAKE,,,,,,,,,,,,,,,,,,,,,
,,,,,,,5e3dff6b8714b707b9a258b0,60568611ec04488a9e9da93b,6056b43c74a8331f64e78567,United States,West coast,13 or older,yes,2021-03-20_19h50.08.413,empathy_intonation_perc,2020.2.10,Win32,60,,,,,,,,,,0,,,,,,,,,,,,,,,,,,,,,,,,,,,,,,,,,,,,,,,,18,arsa,,,0,1,0.648655,0,62,62,17,1,REAL,FAKE,,,,,,,,,,,,,,,,,,,,,
,,,,,,,5e3dff6b8714b707b9a258b0,60568611ec04488a9e9da93b,6056b43c74a8331f64e78567,United States,West coast,13 or older,yes,2021-03-20_19h50.08.413,empathy_intonation_perc,2020.2.10,Win32,60,,,,,,,,,,1,,,,,,,,,,,,,,,,,,,,,,,,,,,,,,,,,,,,,,,,12,asesinato,,,1,1,0.79585,0,63,63,11,1,REAL,FAKE,,,,,,,,,,,,,,,,,,,,,
,,,,,,,5e3dff6b8714b707b9a258b0,60568611ec04488a9e9da93b,6056b43c74a8331f64e78567,United States,West coast,13 or older,yes,2021-03-20_19h50.08.413,empathy_intonation_perc,2020.2.10,Win32,60,,,,,,,,,,1,,,,,,,,,,,,,,,,,,,,,,,,,,,,,,,,,,,,,,,,81,pozo,,,0,0,0.744865,0,64,64,80,1,REAL,FAKE,,,,,,,,,,,,,,,,,,,,,
,,,,,,,5e3dff6b8714b707b9a258b0,60568611ec04488a9e9da93b,6056b43c74a8331f64e78567,United States,West coast,13 or older,yes,2021-03-20_19h50.08.413,empathy_intonation_perc,2020.2.10,Win32,60,,,,,,,,,,1,,,,,,,,,,,,,,,,,,,,,,,,,,,,,,,,,,,,,,,,78,frondoso,,,0,0,0.83803,0,65,65,77,1,REAL,FAKE,,,,,,,,,,,,,,,,,,,,,
,,,,,,,5e3dff6b8714b707b9a258b0,60568611ec04488a9e9da93b,6056b43c74a8331f64e78567,United States,West coast,13 or older,yes,2021-03-20_19h50.08.413,empathy_intonation_perc,2020.2.10,Win32,60,,,,,,,,,,1,,,,,,,,,,,,,,,,,,,,,,,,,,,,,,,,,,,,,,,,54,fomentar,,,1,1,0.688765,0,66,66,53,1,REAL,FAKE,,,,,,,,,,,,,,,,,,,,,
,,,,,,,5e3dff6b8714b707b9a258b0,60568611ec04488a9e9da93b,6056b43c74a8331f64e78567,United States,West coast,13 or older,yes,2021-03-20_19h50.08.413,empathy_intonation_perc,2020.2.10,Win32,60,,,,,,,,,,1,,,,,,,,,,,,,,,,,,,,,,,,,,,,,,,,,,,,,,,,46,martillo,,,0,0,0.585575,0,67,67,45,1,REAL,FAKE,,,,,,,,,,,,,,,,,,,,,
,,,,,,,5e3dff6b8714b707b9a258b0,60568611ec04488a9e9da93b,6056b43c74a8331f64e78567,United States,West coast,13 or older,yes,2021-03-20_19h50.08.413,empathy_intonation_perc,2020.2.10,Win32,60,,,,,,,,,,1,,,,,,,,,,,,,,,,,,,,,,,,,,,,,,,,,,,,,,,,36,loro,,,0,0,0.50664,0,68,68,35,1,REAL,FAKE,,,,,,,,,,,,,,,,,,,,,
,,,,,,,5e3dff6b8714b707b9a258b0,60568611ec04488a9e9da93b,6056b43c74a8331f64e78567,United States,West coast,13 or older,yes,2021-03-20_19h50.08.413,empathy_intonation_perc,2020.2.10,Win32,60,,,,,,,,,,0,,,,,,,,,,,,,,,,,,,,,,,,,,,,,,,,,,,,,,,,70,temblo,,,0,1,2.13012,0,69,69,69,1,REAL,FAKE,,,,,,,,,,,,,,,,,,,,,
,,,,,,,5e3dff6b8714b707b9a258b0,60568611ec04488a9e9da93b,6056b43c74a8331f64e78567,United States,West coast,13 or older,yes,2021-03-20_19h50.08.413,empathy_intonation_perc,2020.2.10,Win32,60,,,,,,,,,,1,,,,,,,,,,,,,,,,,,,,,,,,,,,,,,,,,,,,,,,,86,barato,,,0,0,0.96475,0,70,70,85,1,REAL,FAKE,,,,,,,,,,,,,,,,,,,,,
,,,,,,,5e3dff6b8714b707b9a258b0,60568611ec04488a9e9da93b,6056b43c74a8331f64e78567,United States,West coast,13 or older,yes,2021-03-20_19h50.08.413,empathy_intonation_perc,2020.2.10,Win32,60,,,,,,,,,,0,,,,,,,,,,,,,,,,,,,,,,,,,,,,,,,,,,,,,,,,29,decar,,,1,0,0.745575,0,71,71,28,1,REAL,FAKE,,,,,,,,,,,,,,,,,,,,,
,,,,,,,5e3dff6b8714b707b9a258b0,60568611ec04488a9e9da93b,6056b43c74a8331f64e78567,United States,West coast,13 or older,yes,2021-03-20_19h50.08.413,empathy_intonation_perc,2020.2.10,Win32,60,,,,,,,,,,1,,,,,,,,,,,,,,,,,,,,,,,,,,,,,,,,,,,,,,,,49,ganar,,,0,0,0.81234,0,72,72,48,1,REAL,FAKE,,,,,,,,,,,,,,,,,,,,,
,,,,,,,5e3dff6b8714b707b9a258b0,60568611ec04488a9e9da93b,6056b43c74a8331f64e78567,United States,West coast,13 or older,yes,2021-03-20_19h50.08.413,empathy_intonation_perc,2020.2.10,Win32,60,,,,,,,,,,0,,,,,,,,,,,,,,,,,,,,,,,,,,,,,,,,,,,,,,,,17,floroso,,,0,1,0.743335,0,73,73,16,1,REAL,FAKE,,,,,,,,,,,,,,,,,,,,,
,,,,,,,5e3dff6b8714b707b9a258b0,60568611ec04488a9e9da93b,6056b43c74a8331f64e78567,United States,West coast,13 or older,yes,2021-03-20_19h50.08.413,empathy_intonation_perc,2020.2.10,Win32,60,,,,,,,,,,0,,,,,,,,,,,,,,,,,,,,,,,,,,,,,,,,,,,,,,,,33,pauca,,,1,0,0.665195,0,74,74,32,1,REAL,FAKE,,,,,,,,,,,,,,,,,,,,,
,,,,,,,5e3dff6b8714b707b9a258b0,60568611ec04488a9e9da93b,6056b43c74a8331f64e78567,United States,West coast,13 or older,yes,2021-03-20_19h50.08.413,empathy_intonation_perc,2020.2.10,Win32,60,,,,,,,,,,1,,,,,,,,,,,,,,,,,,,,,,,,,,,,,,,,,,,,,,,,80,hormiga,,,0,0,0.86039,0,75,75,79,1,REAL,FAKE,,,,,,,,,,,,,,,,,,,,,
,,,,,,,5e3dff6b8714b707b9a258b0,60568611ec04488a9e9da93b,6056b43c74a8331f64e78567,United States,West coast,13 or older,yes,2021-03-20_19h50.08.413,empathy_intonation_perc,2020.2.10,Win32,60,,,,,,,,,,0,,,,,,,,,,,,,,,,,,,,,,,,,,,,,,,,,,,,,,,,42,cadallo,,,1,0,0.58686,0,76,76,41,1,REAL,FAKE,,,,,,,,,,,,,,,,,,,,,
,,,,,,,5e3dff6b8714b707b9a258b0,60568611ec04488a9e9da93b,6056b43c74a8331f64e78567,United States,West coast,13 or older,yes,2021-03-20_19h50.08.413,empathy_intonation_perc,2020.2.10,Win32,60,,,,,,,,,,0,,,,,,,,,,,,,,,,,,,,,,,,,,,,,,,,,,,,,,,,82,empirador,,,1,0,0.566975,0,77,77,81,1,REAL,FAKE,,,,,,,,,,,,,,,,,,,,,
,,,,,,,5e3dff6b8714b707b9a258b0,60568611ec04488a9e9da93b,6056b43c74a8331f64e78567,United States,West coast,13 or older,yes,2021-03-20_19h50.08.413,empathy_intonation_perc,2020.2.10,Win32,60,,,,,,,,,,1,,,,,,,,,,,,,,,,,,,,,,,,,,,,,,,,,,,,,,,,71,polvoriento,,,1,1,0.553195,0,78,78,70,1,REAL,FAKE,,,,,,,,,,,,,,,,,,,,,
,,,,,,,5e3dff6b8714b707b9a258b0,60568611ec04488a9e9da93b,6056b43c74a8331f64e78567,United States,West coast,13 or older,yes,2021-03-20_19h50.08.413,empathy_intonation_perc,2020.2.10,Win32,60,,,,,,,,,,0,,,,,,,,,,,,,,,,,,,,,,,,,,,,,,,,,,,,,,,,32,fatacidad,,,0,1,0.825265,0,79,79,31,1,REAL,FAKE,,,,,,,,,,,,,,,,,,,,,
,,,,,,,5e3dff6b8714b707b9a258b0,60568611ec04488a9e9da93b,6056b43c74a8331f64e78567,United States,West coast,13 or older,yes,2021-03-20_19h50.08.413,empathy_intonation_perc,2020.2.10,Win32,60,,,,,,,,,,1,,,,,,,,,,,,,,,,,,,,,,,,,,,,,,,,,,,,,,,,11,cenefa,,,0,0,0.74934,0,80,80,10,1,REAL,FAKE,,,,,,,,,,,,,,,,,,,,,
,,,,,,,5e3dff6b8714b707b9a258b0,60568611ec04488a9e9da93b,6056b43c74a8331f64e78567,United States,West coast,13 or older,yes,2021-03-20_19h50.08.413,empathy_intonation_perc,2020.2.10,Win32,60,,,,,,,,,,1,,,,,,,,,,,,,,,,,,,,,,,,,,,,,,,,,,,,,,,,37,granuja,,,0,0,0.44917,0,81,81,36,1,REAL,FAKE,,,,,,,,,,,,,,,,,,,,,
,,,,,,,5e3dff6b8714b707b9a258b0,60568611ec04488a9e9da93b,6056b43c74a8331f64e78567,United States,West coast,13 or older,yes,2021-03-20_19h50.08.413,empathy_intonation_perc,2020.2.10,Win32,60,,,,,,,,,,1,,,,,,,,,,,,,,,,,,,,,,,,,,,,,,,,,,,,,,,,45,jilguero,,,0,0,0.52431,0,82,82,44,1,REAL,FAKE,,,,,,,,,,,,,,,,,,,,,
,,,,,,,5e3dff6b8714b707b9a258b0,60568611ec04488a9e9da93b,6056b43c74a8331f64e78567,United States,West coast,13 or older,yes,2021-03-20_19h50.08.413,empathy_intonation_perc,2020.2.10,Win32,60,,,,,,,,,,1,,,,,,,,,,,,,,,,,,,,,,,,,,,,,,,,,,,,,,,,90,clavel,,,0,0,0.721205,0,83,83,89,1,REAL,FAKE,,,,,,,,,,,,,,,,,,,,,
,,,,,,,5e3dff6b8714b707b9a258b0,60568611ec04488a9e9da93b,6056b43c74a8331f64e78567,United States,West coast,13 or older,yes,2021-03-20_19h50.08.413,empathy_intonation_perc,2020.2.10,Win32,60,,,,,,,,,,1,,,,,,,,,,,,,,,,,,,,,,,,,,,,,,,,,,,,,,,,77,tiburn,,,0,0,0.595315,0,84,84,76,1,REAL,FAKE,,,,,,,,,,,,,,,,,,,,,
,,,,,,,5e3dff6b8714b707b9a258b0,60568611ec04488a9e9da93b,6056b43c74a8331f64e78567,United States,West coast,13 or older,yes,2021-03-20_19h50.08.413,empathy_intonation_perc,2020.2.10,Win32,60,,,,,,,,,,0,,,,,,,,,,,,,,,,,,,,,,,,,,,,,,,,,,,,,,,,72,pemicin,,,1,0,1.123445,0,85,85,71,1,REAL,FAKE,,,,,,,,,,,,,,,,,,,,,
,,,,,,,5e3dff6b8714b707b9a258b0,60568611ec04488a9e9da93b,6056b43c74a8331f64e78567,United States,West coast,13 or older,yes,2021-03-20_19h50.08.413,empathy_intonation_perc,2020.2.10,Win32,60,,,,,,,,,,1,,,,,,,,,,,,,,,,,,,,,,,,,,,,,,,,,,,,,,,,64,orgulloso,,,0,0,0.675075,0,86,86,63,1,REAL,FAKE,,,,,,,,,,,,,,,,,,,,,
,,,,,,,5e3dff6b8714b707b9a258b0,60568611ec04488a9e9da93b,6056b43c74a8331f64e78567,United States,West coast,13 or older,yes,2021-03-20_19h50.08.413,empathy_intonation_perc,2020.2.10,Win32,60,,,,,,,,,,0,,,,,,,,,,,,,,,,,,,,,,,,,,,,,,,,,,,,,,,,53,vegada,,,0,1,0.539905,0,87,87,52,1,REAL,FAKE,,,,,,,,,,,,,,,,,,,,,
,,,,,,,5e3dff6b8714b707b9a258b0,60568611ec04488a9e9da93b,6056b43c74a8331f64e78567,United States,West coast,13 or older,yes,2021-03-20_19h50.08.413,empathy_intonation_perc,2020.2.10,Win32,60,,,,,,,,,,0,,,,,,,,,,,,,,,,,,,,,,,,,,,,,,,,,,,,,,,,30,alardio,,,0,1,0.81333,0,88,88,29,1,REAL,FAKE,,,,,,,,,,,,,,,,,,,,,
,,,,,,,5e3dff6b8714b707b9a258b0,60568611ec04488a9e9da93b,6056b43c74a8331f64e78567,United States,West coast,13 or older,yes,2021-03-20_19h50.08.413,empathy_intonation_perc,2020.2.10,Win32,60,,,,,,,,,,1,,,,,,,,,,,,,,,,,,,,,,,,,,,,,,,,,,,,,,,,24,ltigo,,,1,1,0.52914,0,89,89,23,1,REAL,FAKE,,,,,,,,,,,,,,,,,,,,,
,,,,,,,5e3dff6b8714b707b9a258b0,60568611ec04488a9e9da93b,6056b43c74a8331f64e78567,United States,West coast,13 or older,yes,2021-03-20_19h50.08.413,empathy_intonation_perc,2020.2.10,Win32,60,,,,,,,,,,,,,,,,,,,,,,,,,,,,,,,,,,,,,,,,,,,,,,,,,,,,,,,,,,,,,,,,4,1,2.474545,1,0,0,0,0,0,1,,,,,,,,,,,
,,,,,,,5e3dff6b8714b707b9a258b0,60568611ec04488a9e9da93b,6056b43c74a8331f64e78567,United States,West coast,13 or older,yes,2021-03-20_19h50.08.413,empathy_intonation_perc,2020.2.10,Win32,60,,,,,,,,,,,,,,,,,,,,1,,,,,,,,,,,,,,,,,,,,,,,,,,,,,,,,,,,,,,,,,,,,,,,,,,,,,,2,0,0,0,0,1,I can easily tell if someone else wants to enter a conversation.,1,0,1,0
,,,,,,,5e3dff6b8714b707b9a258b0,60568611ec04488a9e9da93b,6056b43c74a8331f64e78567,United States,West coast,13 or older,yes,2021-03-20_19h50.08.413,empathy_intonation_perc,2020.2.10,Win32,60,,,,,,,,,,,,,,,,,,,,2,,,,,,,,,,,,,,,,,,,,,,,,,,,,,,,,,,,,,,,,,,,,,,,,,,,,,,2,0,1,1,1,1,I prefer animals to humans.,0,1,0,0
,,,,,,,5e3dff6b8714b707b9a258b0,60568611ec04488a9e9da93b,6056b43c74a8331f64e78567,United States,West coast,13 or older,yes,2021-03-20_19h50.08.413,empathy_intonation_perc,2020.2.10,Win32,60,,,,,,,,,,,,,,,,,,,,3,,,,,,,,,,,,,,,,,,,,,,,,,,,,,,,,,,,,,,,,,,,,,,,,,,,,,,3,0,2,2,2,1,I try to keep up with the current trends and fashions.,0,1,0,0
