instructions_2afc_loop.thisRepN,instructions_2afc_loop.thisTrialN,instructions_2afc_loop.thisN,instructions_2afc_loop.thisIndex,instructions_2afc_loop.ran,instructions_text,continue_text,participant,study_id,session,I am most familiar with Spanish from...*,What part of the US are you from?*,At what age did you begin learning Spanish?*,Are you proficient in any languages other than English/Spanish?*,date,expName,psychopyVersion,OS,frameRate,key_resp_2afc_practice.keys,key_resp_2afc_practice.corr,key_resp_2afc_practice.rt,trials_2afc_practice_loop.thisRepN,trials_2afc_practice_loop.thisTrialN,trials_2afc_practice_loop.thisN,trials_2afc_practice_loop.thisIndex,trials_2afc_practice_loop.ran,path,correct_response,the_col,key_resp_2afc_trial.keys,key_resp_2afc_trial.corr,key_resp_2afc_trial.rt,trials_2afc_loop.thisRepN,trials_2afc_loop.thisTrialN,trials_2afc_loop.thisN,trials_2afc_loop.thisIndex,trials_2afc_loop.ran,item_num,andalusian,argentine,castilian,chilean,cuban,mexican,peruvian,puertorican,key_resp_ac1.keys,key_resp_ac1.corr,key_resp_ac1.rt,ac1_loop.thisRepN,ac1_loop.thisTrialN,ac1_loop.thisN,ac1_loop.thisIndex,ac1_loop.ran,instructions_lextale_loop.thisRepN,instructions_lextale_loop.thisTrialN,instructions_lextale_loop.thisN,instructions_lextale_loop.thisIndex,instructions_lextale_loop.ran,key_resp_lextale_practice.keys,key_resp_lextale_practice.corr,key_resp_lextale_practice.rt,trials_lextale_practice_loop.thisRepN,trials_lextale_practice_loop.thisTrialN,trials_lextale_practice_loop.thisN,trials_lextale_practice_loop.thisIndex,trials_lextale_practice_loop.ran,stim,word,prac_button_real,prac_button_false,key_resp_lextale_trial.keys,key_resp_lextale_trial.corr,key_resp_lextale_trial.rt,trials_lextale_loop.thisRepN,trials_lextale_loop.thisTrialN,trials_lextale_loop.thisN,trials_lextale_loop.thisIndex,trials_lextale_loop.ran,button_real,button_false,key_resp_ac2.keys,key_resp_ac2.corr,key_resp_ac2.rt,check_pass,check_fails,ac2_loop.thisRepN,ac2_loop.thisTrialN,ac2_loop.thisN,ac2_loop.thisIndex,ac2_loop.ran,slider_eq_trial.response,trials_eq_loop.thisRepN,trials_eq_loop.thisTrialN,trials_eq_loop.thisN,trials_eq_loop.thisIndex,trials_eq_loop.ran,item,is_test_item,is_distractor,is_agree_score,is_disagree_score
0,0,0,0,1,"In the following task you are going to hear a series of utterances. 

  You will decide if the utterances sound like questions or not using your keyboard.",(press the spacebar to continue),5e5e11aed2420e129dc155ce,60568611ec04488a9e9da93b,6056a98fe4659ec0ed80cb41,United States,Midwest,13 or older,no,2021-03-20_20h04.49.112,empathy_intonation_perc,2020.2.10,MacIntel,60,,,,,,,,,,,,,,,,,,,,,,,,,,,,,,,,,,,,,,,,,,,,,,,,,,,,,,,,,,,,,,,,,,,,,,,,,,,,,,,,,,,,
0,1,1,1,1,"If you believe the utterance is a question, type '1' (for 'yes') and if you do not 
  believe it is a question type '0' (for 'no').

  Let's practice a bit...",(press the spacebar to continue),5e5e11aed2420e129dc155ce,60568611ec04488a9e9da93b,6056a98fe4659ec0ed80cb41,United States,Midwest,13 or older,no,2021-03-20_20h04.49.112,empathy_intonation_perc,2020.2.10,MacIntel,60,,,,,,,,,,,,,,,,,,,,,,,,,,,,,,,,,,,,,,,,,,,,,,,,,,,,,,,,,,,,,,,,,,,,,,,,,,,,,,,,,,,,
,,,,,,,5e5e11aed2420e129dc155ce,60568611ec04488a9e9da93b,6056a98fe4659ec0ed80cb41,United States,Midwest,13 or older,no,2021-03-20_20h04.49.112,empathy_intonation_perc,2020.2.10,MacIntel,60,1,1,3.56796,0,0,0,0,1,./stim/wavs/castilian_question_filler_Mi-esposo-conoce-al-chico.wav,1,,,,,,,,,,,,,,,,,,,,,,,,,,,,,,,,,,,,,,,,,,,,,,,,,,,,,,,,,,,,,,,,,,,,,,,,,,
,,,,,,,5e5e11aed2420e129dc155ce,60568611ec04488a9e9da93b,6056a98fe4659ec0ed80cb41,United States,Midwest,13 or older,no,2021-03-20_20h04.49.112,empathy_intonation_perc,2020.2.10,MacIntel,60,0,0,7.190775,0,1,1,1,1,./stim/wavs/argentine_question_filler_Mi-vecino-habla-mucho.wav,1,,,,,,,,,,,,,,,,,,,,,,,,,,,,,,,,,,,,,,,,,,,,,,,,,,,,,,,,,,,,,,,,,,,,,,,,,,
,,,,,,,5e5e11aed2420e129dc155ce,60568611ec04488a9e9da93b,6056a98fe4659ec0ed80cb41,United States,Midwest,13 or older,no,2021-03-20_20h04.49.112,empathy_intonation_perc,2020.2.10,MacIntel,60,0,1,2.135165,0,2,2,5,1,./stim/wavs/andalusian_statement_filler_Alberto-nunca-se-afeita.wav,0,,,,,,,,,,,,,,,,,,,,,,,,,,,,,,,,,,,,,,,,,,,,,,,,,,,,,,,,,,,,,,,,,,,,,,,,,,
,,,,,,,5e5e11aed2420e129dc155ce,60568611ec04488a9e9da93b,6056a98fe4659ec0ed80cb41,United States,Midwest,13 or older,no,2021-03-20_20h04.49.112,empathy_intonation_perc,2020.2.10,MacIntel,60,0,1,1.819395,0,3,3,4,1,./stim/wavs/cuban_statement_filler_Cocinabas-por-la-noche.wav,0,,,,,,,,,,,,,,,,,,,,,,,,,,,,,,,,,,,,,,,,,,,,,,,,,,,,,,,,,,,,,,,,,,,,,,,,,,
,,,,,,,5e5e11aed2420e129dc155ce,60568611ec04488a9e9da93b,6056a98fe4659ec0ed80cb41,United States,Midwest,13 or older,no,2021-03-20_20h04.49.112,empathy_intonation_perc,2020.2.10,MacIntel,60,0,1,2.805145,0,4,4,7,1,./stim/wavs/puertorican_statement_filler_La-nina-pinta-con-su-amiga.wav,0,,,,,,,,,,,,,,,,,,,,,,,,,,,,,,,,,,,,,,,,,,,,,,,,,,,,,,,,,,,,,,,,,,,,,,,,,,
,,,,,,,5e5e11aed2420e129dc155ce,60568611ec04488a9e9da93b,6056a98fe4659ec0ed80cb41,United States,Midwest,13 or older,no,2021-03-20_20h04.49.112,empathy_intonation_perc,2020.2.10,MacIntel,60,1,1,1.8521,0,5,5,3,1,./stim/wavs/mexican_question_filler_Felipe-no-tiene-contrasena.wav,1,,,,,,,,,,,,,,,,,,,,,,,,,,,,,,,,,,,,,,,,,,,,,,,,,,,,,,,,,,,,,,,,,,,,,,,,,,
,,,,,,,5e5e11aed2420e129dc155ce,60568611ec04488a9e9da93b,6056a98fe4659ec0ed80cb41,United States,Midwest,13 or older,no,2021-03-20_20h04.49.112,empathy_intonation_perc,2020.2.10,MacIntel,60,0,0,4.44394,0,6,6,2,1,./stim/wavs/chilean_question_filler_Mi-padre-cantaba-bien.wav,1,,,,,,,,,,,,,,,,,,,,,,,,,,,,,,,,,,,,,,,,,,,,,,,,,,,,,,,,,,,,,,,,,,,,,,,,,,
,,,,,,,5e5e11aed2420e129dc155ce,60568611ec04488a9e9da93b,6056a98fe4659ec0ed80cb41,United States,Midwest,13 or older,no,2021-03-20_20h04.49.112,empathy_intonation_perc,2020.2.10,MacIntel,60,0,1,2.104345,0,7,7,6,1,./stim/wavs/peruvian_statement_filler_El-nino-habla-con-su-madre.wav,0,,,,,,,,,,,,,,,,,,,,,,,,,,,,,,,,,,,,,,,,,,,,,,,,,,,,,,,,,,,,,,,,,,,,,,,,,,
,,,,,,,5e5e11aed2420e129dc155ce,60568611ec04488a9e9da93b,6056a98fe4659ec0ed80cb41,United States,Midwest,13 or older,no,2021-03-20_20h04.49.112,empathy_intonation_perc,2020.2.10,MacIntel,60,,,,,,,,,,0,argentine,0,1,1.92349,0,0,0,14,1,15,./stim/wavs/andalusian_match_declarative-narrow-focus_Mariano-habla-del-tiempo.wav,./stim/wavs/argentine_match_declarative-narrow-focus_Mariano-habla-del-tiempo.wav,./stim/wavs/castilian_match_declarative-narrow-focus_Mariano-habla-del-tiempo.wav,./stim/wavs/chilean_match_declarative-narrow-focus_Mariano-habla-del-tiempo.wav,./stim/wavs/cuban_match_declarative-narrow-focus_Mariano-habla-del-tiempo.wav,./stim/wavs/mexican_match_declarative-narrow-focus_Mariano-habla-del-tiempo.wav,./stim/wavs/peruvian_match_declarative-narrow-focus_Mariano-habla-del-tiempo.wav,./stim/wavs/puertorican_match_declarative-narrow-focus_Mariano-habla-del-tiempo.wav,,,,,,,,,,,,,,,,,,,,,,,,,,,,,,,,,,,,,,,,,,,,,,,,,,,,,,,,
,,,,,,,5e5e11aed2420e129dc155ce,60568611ec04488a9e9da93b,6056a98fe4659ec0ed80cb41,United States,Midwest,13 or older,no,2021-03-20_20h04.49.112,empathy_intonation_perc,2020.2.10,MacIntel,60,,,,,,,,,,1,peruvian,0,0,1.903135,0,1,1,55,1,56,./stim/wavs/andalusian_mismatch_interrogative-partial-wh_Por-que-vivia-en-Paris.wav,./stim/wavs/argentine_mismatch_interrogative-partial-wh_Por-que-vivia-en-Paris.wav,./stim/wavs/castilian_mismatch_interrogative-partial-wh_Por-que-vivia-en-Paris.wav,./stim/wavs/chilean_mismatch_interrogative-partial-wh_Por-que-vivia-en-Paris.wav,./stim/wavs/cuban_mismatch_interrogative-partial-wh_Por-que-vivia-en-Paris.wav,./stim/wavs/mexican_mismatch_interrogative-partial-wh_Por-que-vivia-en-Paris.wav,./stim/wavs/peruvian_mismatch_interrogative-partial-wh_Por-que-vivia-en-Paris.wav,./stim/wavs/puertorican_mismatch_interrogative-partial-wh_Por-que-vivia-en-Paris.wav,,,,,,,,,,,,,,,,,,,,,,,,,,,,,,,,,,,,,,,,,,,,,,,,,,,,,,,,
,,,,,,,5e5e11aed2420e129dc155ce,60568611ec04488a9e9da93b,6056a98fe4659ec0ed80cb41,United States,Midwest,13 or older,no,2021-03-20_20h04.49.112,empathy_intonation_perc,2020.2.10,MacIntel,60,,,,,,,,,,0,castilian,0,1,1.636715,0,2,2,0,1,1,./stim/wavs/andalusian_match_declarative-broad-focus_Ana-lleva-el-abrigo.wav,./stim/wavs/argentine_match_declarative-broad-focus_Ana-lleva-el-abrigo.wav,./stim/wavs/castilian_match_declarative-broad-focus_Ana-lleva-el-abrigo.wav,./stim/wavs/chilean_match_declarative-broad-focus_Ana-lleva-el-abrigo.wav,./stim/wavs/cuban_match_declarative-broad-focus_Ana-lleva-el-abrigo.wav,./stim/wavs/mexican_match_declarative-broad-focus_Ana-lleva-el-abrigo.wav,./stim/wavs/peruvian_match_declarative-broad-focus_Ana-lleva-el-abrigo.wav,./stim/wavs/puertorican_match_declarative-broad-focus_Ana-lleva-el-abrigo.wav,,,,,,,,,,,,,,,,,,,,,,,,,,,,,,,,,,,,,,,,,,,,,,,,,,,,,,,,
,,,,,,,5e5e11aed2420e129dc155ce,60568611ec04488a9e9da93b,6056a98fe4659ec0ed80cb41,United States,Midwest,13 or older,no,2021-03-20_20h04.49.112,empathy_intonation_perc,2020.2.10,MacIntel,60,,,,,,,,,,0,argentine,0,1,1.58784,0,3,3,43,1,44,./stim/wavs/andalusian_mismatch_declarative-narrow-focus_La-maestra-vive-en-Paris.wav,./stim/wavs/argentine_mismatch_declarative-narrow-focus_La-maestra-vive-en-Paris.wav,./stim/wavs/castilian_mismatch_declarative-narrow-focus_La-maestra-vive-en-Paris.wav,./stim/wavs/chilean_mismatch_declarative-narrow-focus_La-maestra-vive-en-Paris.wav,./stim/wavs/cuban_mismatch_declarative-narrow-focus_La-maestra-vive-en-Paris.wav,./stim/wavs/mexican_mismatch_declarative-narrow-focus_La-maestra-vive-en-Paris.wav,./stim/wavs/peruvian_mismatch_declarative-narrow-focus_La-maestra-vive-en-Paris.wav,./stim/wavs/puertorican_mismatch_declarative-narrow-focus_La-maestra-vive-en-Paris.wav,,,,,,,,,,,,,,,,,,,,,,,,,,,,,,,,,,,,,,,,,,,,,,,,,,,,,,,,
,,,,,,,5e5e11aed2420e129dc155ce,60568611ec04488a9e9da93b,6056a98fe4659ec0ed80cb41,United States,Midwest,13 or older,no,2021-03-20_20h04.49.112,empathy_intonation_perc,2020.2.10,MacIntel,60,,,,,,,,,,1,cuban,0,0,1.60065,0,4,4,60,1,61,./stim/wavs/andalusian_mismatch_interrogative-total-yn_La-nina-lava-el-plato.wav,./stim/wavs/argentine_mismatch_interrogative-total-yn_La-nina-lava-el-plato.wav,./stim/wavs/castilian_mismatch_interrogative-total-yn_La-nina-lava-el-plato.wav,./stim/wavs/chilean_mismatch_interrogative-total-yn_La-nina-lava-el-plato.wav,./stim/wavs/cuban_mismatch_interrogative-total-yn_La-nina-lava-el-plato.wav,./stim/wavs/mexican_mismatch_interrogative-total-yn_La-nina-lava-el-plato.wav,./stim/wavs/peruvian_mismatch_interrogative-total-yn_La-nina-lava-el-plato.wav,./stim/wavs/puertorican_mismatch_interrogative-total-yn_La-nina-lava-el-plato.wav,,,,,,,,,,,,,,,,,,,,,,,,,,,,,,,,,,,,,,,,,,,,,,,,,,,,,,,,
,,,,,,,5e5e11aed2420e129dc155ce,60568611ec04488a9e9da93b,6056a98fe4659ec0ed80cb41,United States,Midwest,13 or older,no,2021-03-20_20h04.49.112,empathy_intonation_perc,2020.2.10,MacIntel,60,,,,,,,,,,1,chilean,1,1,2.017035,0,5,5,20,1,21,./stim/wavs/andalusian_match_interrogative-partial-wh_Por-que-abre-el-regalo.wav,./stim/wavs/argentine_match_interrogative-partial-wh_Por-que-abre-el-regalo.wav,./stim/wavs/castilian_match_interrogative-partial-wh_Por-que-abre-el-regalo.wav,./stim/wavs/chilean_match_interrogative-partial-wh_Por-que-abre-el-regalo.wav,./stim/wavs/cuban_match_interrogative-partial-wh_Por-que-abre-el-regalo.wav,./stim/wavs/mexican_match_interrogative-partial-wh_Por-que-abre-el-regalo.wav,./stim/wavs/peruvian_match_interrogative-partial-wh_Por-que-abre-el-regalo.wav,./stim/wavs/puertorican_match_interrogative-partial-wh_Por-que-abre-el-regalo.wav,,,,,,,,,,,,,,,,,,,,,,,,,,,,,,,,,,,,,,,,,,,,,,,,,,,,,,,,
,,,,,,,5e5e11aed2420e129dc155ce,60568611ec04488a9e9da93b,6056a98fe4659ec0ed80cb41,United States,Midwest,13 or older,no,2021-03-20_20h04.49.112,empathy_intonation_perc,2020.2.10,MacIntel,60,,,,,,,,,,1,castilian,1,1,1.91193,0,6,6,57,1,58,./stim/wavs/andalusian_mismatch_interrogative-total-yn_El-hombre-mira-la-luna.wav,./stim/wavs/argentine_mismatch_interrogative-total-yn_El-hombre-mira-la-luna.wav,./stim/wavs/castilian_mismatch_interrogative-total-yn_El-hombre-mira-la-luna.wav,./stim/wavs/chilean_mismatch_interrogative-total-yn_El-hombre-mira-la-luna.wav,./stim/wavs/cuban_mismatch_interrogative-total-yn_El-hombre-mira-la-luna.wav,./stim/wavs/mexican_mismatch_interrogative-total-yn_El-hombre-mira-la-luna.wav,./stim/wavs/peruvian_mismatch_interrogative-total-yn_El-hombre-mira-la-luna.wav,./stim/wavs/puertorican_mismatch_interrogative-total-yn_El-hombre-mira-la-luna.wav,,,,,,,,,,,,,,,,,,,,,,,,,,,,,,,,,,,,,,,,,,,,,,,,,,,,,,,,
,,,,,,,5e5e11aed2420e129dc155ce,60568611ec04488a9e9da93b,6056a98fe4659ec0ed80cb41,United States,Midwest,13 or older,no,2021-03-20_20h04.49.112,empathy_intonation_perc,2020.2.10,MacIntel,60,,,,,,,,,,0,castilian,0,1,2.59651,0,7,7,9,1,10,./stim/wavs/andalusian_match_declarative-narrow-focus_Daniel-iba-a-Bolivia.wav,./stim/wavs/argentine_match_declarative-narrow-focus_Daniel-iba-a-Bolivia.wav,./stim/wavs/castilian_match_declarative-narrow-focus_Daniel-iba-a-Bolivia.wav,./stim/wavs/chilean_match_declarative-narrow-focus_Daniel-iba-a-Bolivia.wav,./stim/wavs/cuban_match_declarative-narrow-focus_Daniel-iba-a-Bolivia.wav,./stim/wavs/mexican_match_declarative-narrow-focus_Daniel-iba-a-Bolivia.wav,./stim/wavs/peruvian_match_declarative-narrow-focus_Daniel-iba-a-Bolivia.wav,./stim/wavs/puertorican_match_declarative-narrow-focus_Daniel-iba-a-Bolivia.wav,,,,,,,,,,,,,,,,,,,,,,,,,,,,,,,,,,,,,,,,,,,,,,,,,,,,,,,,
,,,,,,,5e5e11aed2420e129dc155ce,60568611ec04488a9e9da93b,6056a98fe4659ec0ed80cb41,United States,Midwest,13 or older,no,2021-03-20_20h04.49.112,empathy_intonation_perc,2020.2.10,MacIntel,60,,,,,,,,,,0,puertorican,0,1,1.68271,0,8,8,36,1,37,./stim/wavs/andalusian_mismatch_declarative-broad-focus_La-nina-lava-el-plato.wav,./stim/wavs/argentine_mismatch_declarative-broad-focus_La-nina-lava-el-plato.wav,./stim/wavs/castilian_mismatch_declarative-broad-focus_La-nina-lava-el-plato.wav,./stim/wavs/chilean_mismatch_declarative-broad-focus_La-nina-lava-el-plato.wav,./stim/wavs/cuban_mismatch_declarative-broad-focus_La-nina-lava-el-plato.wav,./stim/wavs/mexican_mismatch_declarative-broad-focus_La-nina-lava-el-plato.wav,./stim/wavs/peruvian_mismatch_declarative-broad-focus_La-nina-lava-el-plato.wav,./stim/wavs/puertorican_mismatch_declarative-broad-focus_La-nina-lava-el-plato.wav,,,,,,,,,,,,,,,,,,,,,,,,,,,,,,,,,,,,,,,,,,,,,,,,,,,,,,,,
,,,,,,,5e5e11aed2420e129dc155ce,60568611ec04488a9e9da93b,6056a98fe4659ec0ed80cb41,United States,Midwest,13 or older,no,2021-03-20_20h04.49.112,empathy_intonation_perc,2020.2.10,MacIntel,60,,,,,,,,,,1,mexican,0,0,1.457415,0,9,9,50,1,51,./stim/wavs/andalusian_mismatch_interrogative-partial-wh_Cuando-miraba-la-luna.wav,./stim/wavs/argentine_mismatch_interrogative-partial-wh_Cuando-miraba-la-luna.wav,./stim/wavs/castilian_mismatch_interrogative-partial-wh_Cuando-miraba-la-luna.wav,./stim/wavs/chilean_mismatch_interrogative-partial-wh_Cuando-miraba-la-luna.wav,./stim/wavs/cuban_mismatch_interrogative-partial-wh_Cuando-miraba-la-luna.wav,./stim/wavs/mexican_mismatch_interrogative-partial-wh_Cuando-miraba-la-luna.wav,./stim/wavs/peruvian_mismatch_interrogative-partial-wh_Cuando-miraba-la-luna.wav,./stim/wavs/puertorican_mismatch_interrogative-partial-wh_Cuando-miraba-la-luna.wav,,,,,,,,,,,,,,,,,,,,,,,,,,,,,,,,,,,,,,,,,,,,,,,,,,,,,,,,
,,,,,,,5e5e11aed2420e129dc155ce,60568611ec04488a9e9da93b,6056a98fe4659ec0ed80cb41,United States,Midwest,13 or older,no,2021-03-20_20h04.49.112,empathy_intonation_perc,2020.2.10,MacIntel,60,,,,,,,,,,0,cuban,0,1,2.29446,0,10,10,34,1,35,./stim/wavs/andalusian_mismatch_declarative-broad-focus_El-nino-oye-el-rio.wav,./stim/wavs/argentine_mismatch_declarative-broad-focus_El-nino-oye-el-rio.wav,./stim/wavs/castilian_mismatch_declarative-broad-focus_El-nino-oye-el-rio.wav,./stim/wavs/chilean_mismatch_declarative-broad-focus_El-nino-oye-el-rio.wav,./stim/wavs/cuban_mismatch_declarative-broad-focus_El-nino-oye-el-rio.wav,./stim/wavs/mexican_mismatch_declarative-broad-focus_El-nino-oye-el-rio.wav,./stim/wavs/peruvian_mismatch_declarative-broad-focus_El-nino-oye-el-rio.wav,./stim/wavs/puertorican_mismatch_declarative-broad-focus_El-nino-oye-el-rio.wav,,,,,,,,,,,,,,,,,,,,,,,,,,,,,,,,,,,,,,,,,,,,,,,,,,,,,,,,
,,,,,,,5e5e11aed2420e129dc155ce,60568611ec04488a9e9da93b,6056a98fe4659ec0ed80cb41,United States,Midwest,13 or older,no,2021-03-20_20h04.49.112,empathy_intonation_perc,2020.2.10,MacIntel,60,,,,,,,,,,0,mexican,0,1,1.61883,0,11,11,45,1,46,./stim/wavs/andalusian_mismatch_declarative-narrow-focus_Mi-madre-come-la-fruta.wav,./stim/wavs/argentine_mismatch_declarative-narrow-focus_Mi-madre-come-la-fruta.wav,./stim/wavs/castilian_mismatch_declarative-narrow-focus_Mi-madre-come-la-fruta.wav,./stim/wavs/chilean_mismatch_declarative-narrow-focus_Mi-madre-come-la-fruta.wav,./stim/wavs/cuban_mismatch_declarative-narrow-focus_Mi-madre-come-la-fruta.wav,./stim/wavs/mexican_mismatch_declarative-narrow-focus_Mi-madre-come-la-fruta.wav,./stim/wavs/peruvian_mismatch_declarative-narrow-focus_Mi-madre-come-la-fruta.wav,./stim/wavs/puertorican_mismatch_declarative-narrow-focus_Mi-madre-come-la-fruta.wav,,,,,,,,,,,,,,,,,,,,,,,,,,,,,,,,,,,,,,,,,,,,,,,,,,,,,,,,
,,,,,,,5e5e11aed2420e129dc155ce,60568611ec04488a9e9da93b,6056a98fe4659ec0ed80cb41,United States,Midwest,13 or older,no,2021-03-20_20h04.49.112,empathy_intonation_perc,2020.2.10,MacIntel,60,,,,,,,,,,1,cuban,0,0,1.684415,0,12,12,58,1,59,./stim/wavs/andalusian_mismatch_interrogative-total-yn_El-nino-oye-el-rio.wav,./stim/wavs/argentine_mismatch_interrogative-total-yn_El-nino-oye-el-rio.wav,./stim/wavs/castilian_mismatch_interrogative-total-yn_El-nino-oye-el-rio.wav,./stim/wavs/chilean_mismatch_interrogative-total-yn_El-nino-oye-el-rio.wav,./stim/wavs/cuban_mismatch_interrogative-total-yn_El-nino-oye-el-rio.wav,./stim/wavs/mexican_mismatch_interrogative-total-yn_El-nino-oye-el-rio.wav,./stim/wavs/peruvian_mismatch_interrogative-total-yn_El-nino-oye-el-rio.wav,./stim/wavs/puertorican_mismatch_interrogative-total-yn_El-nino-oye-el-rio.wav,,,,,,,,,,,,,,,,,,,,,,,,,,,,,,,,,,,,,,,,,,,,,,,,,,,,,,,,
,,,,,,,5e5e11aed2420e129dc155ce,60568611ec04488a9e9da93b,6056a98fe4659ec0ed80cb41,United States,Midwest,13 or older,no,2021-03-20_20h04.49.112,empathy_intonation_perc,2020.2.10,MacIntel,60,,,,,,,,,,0,castilian,0,1,1.672375,0,13,13,12,1,13,./stim/wavs/andalusian_match_declarative-narrow-focus_Manuela-vende-el-carro.wav,./stim/wavs/argentine_match_declarative-narrow-focus_Manuela-vende-el-carro.wav,./stim/wavs/castilian_match_declarative-narrow-focus_Manuela-vende-el-carro.wav,./stim/wavs/chilean_match_declarative-narrow-focus_Manuela-vende-el-carro.wav,./stim/wavs/cuban_match_declarative-narrow-focus_Manuela-vende-el-carro.wav,./stim/wavs/mexican_match_declarative-narrow-focus_Manuela-vende-el-carro.wav,./stim/wavs/peruvian_match_declarative-narrow-focus_Manuela-vende-el-carro.wav,./stim/wavs/puertorican_match_declarative-narrow-focus_Manuela-vende-el-carro.wav,,,,,,,,,,,,,,,,,,,,,,,,,,,,,,,,,,,,,,,,,,,,,,,,,,,,,,,,
,,,,,,,5e5e11aed2420e129dc155ce,60568611ec04488a9e9da93b,6056a98fe4659ec0ed80cb41,United States,Midwest,13 or older,no,2021-03-20_20h04.49.112,empathy_intonation_perc,2020.2.10,MacIntel,60,,,,,,,,,,0,chilean,0,1,1.84524,0,14,14,40,1,41,./stim/wavs/andalusian_mismatch_declarative-narrow-focus_El-bebe-comia-muy-bien.wav,./stim/wavs/argentine_mismatch_declarative-narrow-focus_El-bebe-comia-muy-bien.wav,./stim/wavs/castilian_mismatch_declarative-narrow-focus_El-bebe-comia-muy-bien.wav,./stim/wavs/chilean_mismatch_declarative-narrow-focus_El-bebe-comia-muy-bien.wav,./stim/wavs/cuban_mismatch_declarative-narrow-focus_El-bebe-comia-muy-bien.wav,./stim/wavs/mexican_mismatch_declarative-narrow-focus_El-bebe-comia-muy-bien.wav,./stim/wavs/peruvian_mismatch_declarative-narrow-focus_El-bebe-comia-muy-bien.wav,./stim/wavs/puertorican_mismatch_declarative-narrow-focus_El-bebe-comia-muy-bien.wav,,,,,,,,,,,,,,,,,,,,,,,,,,,,,,,,,,,,,,,,,,,,,,,,,,,,,,,,
,,,,,,,5e5e11aed2420e129dc155ce,60568611ec04488a9e9da93b,6056a98fe4659ec0ed80cb41,United States,Midwest,13 or older,no,2021-03-20_20h04.49.112,empathy_intonation_perc,2020.2.10,MacIntel,60,,,,,,,,,,0,cuban,0,1,1.769545,0,15,15,3,1,4,./stim/wavs/andalusian_match_declarative-broad-focus_Emilio-ama-la-marcha.wav,./stim/wavs/argentine_match_declarative-broad-focus_Emilio-ama-la-marcha.wav,./stim/wavs/castilian_match_declarative-broad-focus_Emilio-ama-la-marcha.wav,./stim/wavs/chilean_match_declarative-broad-focus_Emilio-ama-la-marcha.wav,./stim/wavs/cuban_match_declarative-broad-focus_Emilio-ama-la-marcha.wav,./stim/wavs/mexican_match_declarative-broad-focus_Emilio-ama-la-marcha.wav,./stim/wavs/peruvian_match_declarative-broad-focus_Emilio-ama-la-marcha.wav,./stim/wavs/puertorican_match_declarative-broad-focus_Emilio-ama-la-marcha.wav,,,,,,,,,,,,,,,,,,,,,,,,,,,,,,,,,,,,,,,,,,,,,,,,,,,,,,,,
,,,,,,,5e5e11aed2420e129dc155ce,60568611ec04488a9e9da93b,6056a98fe4659ec0ed80cb41,United States,Midwest,13 or older,no,2021-03-20_20h04.49.112,empathy_intonation_perc,2020.2.10,MacIntel,60,,,,,,,,,,0,cuban,0,1,1.766485,0,16,16,47,1,48,./stim/wavs/andalusian_mismatch_declarative-narrow-focus_Mi-tia-odia-la-lluvia.wav,./stim/wavs/argentine_mismatch_declarative-narrow-focus_Mi-tia-odia-la-lluvia.wav,./stim/wavs/castilian_mismatch_declarative-narrow-focus_Mi-tia-odia-la-lluvia.wav,./stim/wavs/chilean_mismatch_declarative-narrow-focus_Mi-tia-odia-la-lluvia.wav,./stim/wavs/cuban_mismatch_declarative-narrow-focus_Mi-tia-odia-la-lluvia.wav,./stim/wavs/mexican_mismatch_declarative-narrow-focus_Mi-tia-odia-la-lluvia.wav,./stim/wavs/peruvian_mismatch_declarative-narrow-focus_Mi-tia-odia-la-lluvia.wav,./stim/wavs/puertorican_mismatch_declarative-narrow-focus_Mi-tia-odia-la-lluvia.wav,,,,,,,,,,,,,,,,,,,,,,,,,,,,,,,,,,,,,,,,,,,,,,,,,,,,,,,,
,,,,,,,5e5e11aed2420e129dc155ce,60568611ec04488a9e9da93b,6056a98fe4659ec0ed80cb41,United States,Midwest,13 or older,no,2021-03-20_20h04.49.112,empathy_intonation_perc,2020.2.10,MacIntel,60,,,,,,,,,,1,andalusian,1,1,3.77008,0,17,17,48,1,49,./stim/wavs/andalusian_mismatch_interrogative-partial-wh_Cuando-comia-la-fruta.wav,./stim/wavs/argentine_mismatch_interrogative-partial-wh_Cuando-comia-la-fruta.wav,./stim/wavs/castilian_mismatch_interrogative-partial-wh_Cuando-comia-la-fruta.wav,./stim/wavs/chilean_mismatch_interrogative-partial-wh_Cuando-comia-la-fruta.wav,./stim/wavs/cuban_mismatch_interrogative-partial-wh_Cuando-comia-la-fruta.wav,./stim/wavs/mexican_mismatch_interrogative-partial-wh_Cuando-comia-la-fruta.wav,./stim/wavs/peruvian_mismatch_interrogative-partial-wh_Cuando-comia-la-fruta.wav,./stim/wavs/puertorican_mismatch_interrogative-partial-wh_Cuando-comia-la-fruta.wav,,,,,,,,,,,,,,,,,,,,,,,,,,,,,,,,,,,,,,,,,,,,,,,,,,,,,,,,
,,,,,,,5e5e11aed2420e129dc155ce,60568611ec04488a9e9da93b,6056a98fe4659ec0ed80cb41,United States,Midwest,13 or older,no,2021-03-20_20h04.49.112,empathy_intonation_perc,2020.2.10,MacIntel,60,,,,,,,,,,0,peruvian,0,1,1.407335,0,18,18,44,1,45,./stim/wavs/andalusian_mismatch_declarative-narrow-focus_La-nina-lava-el-plato.wav,./stim/wavs/argentine_mismatch_declarative-narrow-focus_La-nina-lava-el-plato.wav,./stim/wavs/castilian_mismatch_declarative-narrow-focus_La-nina-lava-el-plato.wav,./stim/wavs/chilean_mismatch_declarative-narrow-focus_La-nina-lava-el-plato.wav,./stim/wavs/cuban_mismatch_declarative-narrow-focus_La-nina-lava-el-plato.wav,./stim/wavs/mexican_mismatch_declarative-narrow-focus_La-nina-lava-el-plato.wav,./stim/wavs/peruvian_mismatch_declarative-narrow-focus_La-nina-lava-el-plato.wav,./stim/wavs/puertorican_mismatch_declarative-narrow-focus_La-nina-lava-el-plato.wav,,,,,,,,,,,,,,,,,,,,,,,,,,,,,,,,,,,,,,,,,,,,,,,,,,,,,,,,
,,,,,,,5e5e11aed2420e129dc155ce,60568611ec04488a9e9da93b,6056a98fe4659ec0ed80cb41,United States,Midwest,13 or older,no,2021-03-20_20h04.49.112,empathy_intonation_perc,2020.2.10,MacIntel,60,,,,,,,,,,1,puertorican,0,0,1.767515,0,19,19,22,1,23,./stim/wavs/andalusian_match_interrogative-partial-wh_Por-que-hablaba-del-agua.wav,./stim/wavs/argentine_match_interrogative-partial-wh_Por-que-hablaba-del-agua.wav,./stim/wavs/castilian_match_interrogative-partial-wh_Por-que-hablaba-del-agua.wav,./stim/wavs/chilean_match_interrogative-partial-wh_Por-que-hablaba-del-agua.wav,./stim/wavs/cuban_match_interrogative-partial-wh_Por-que-hablaba-del-agua.wav,./stim/wavs/mexican_match_interrogative-partial-wh_Por-que-hablaba-del-agua.wav,./stim/wavs/peruvian_match_interrogative-partial-wh_Por-que-hablaba-del-agua.wav,./stim/wavs/puertorican_match_interrogative-partial-wh_Por-que-hablaba-del-agua.wav,,,,,,,,,,,,,,,,,,,,,,,,,,,,,,,,,,,,,,,,,,,,,,,,,,,,,,,,
,,,,,,,5e5e11aed2420e129dc155ce,60568611ec04488a9e9da93b,6056a98fe4659ec0ed80cb41,United States,Midwest,13 or older,no,2021-03-20_20h04.49.112,empathy_intonation_perc,2020.2.10,MacIntel,60,,,,,,,,,,1,argentine,1,1,3.829575,0,20,20,31,1,32,./stim/wavs/andalusian_match_interrogative-total-yn_Marta-abre-el-regalo.wav,./stim/wavs/argentine_match_interrogative-total-yn_Marta-abre-el-regalo.wav,./stim/wavs/castilian_match_interrogative-total-yn_Marta-abre-el-regalo.wav,./stim/wavs/chilean_match_interrogative-total-yn_Marta-abre-el-regalo.wav,./stim/wavs/cuban_match_interrogative-total-yn_Marta-abre-el-regalo.wav,./stim/wavs/mexican_match_interrogative-total-yn_Marta-abre-el-regalo.wav,./stim/wavs/peruvian_match_interrogative-total-yn_Marta-abre-el-regalo.wav,./stim/wavs/puertorican_match_interrogative-total-yn_Marta-abre-el-regalo.wav,,,,,,,,,,,,,,,,,,,,,,,,,,,,,,,,,,,,,,,,,,,,,,,,,,,,,,,,
,,,,,,,5e5e11aed2420e129dc155ce,60568611ec04488a9e9da93b,6056a98fe4659ec0ed80cb41,United States,Midwest,13 or older,no,2021-03-20_20h04.49.112,empathy_intonation_perc,2020.2.10,MacIntel,60,,,,,,,,,,0,cuban,0,1,1.6514,0,21,21,35,1,36,./stim/wavs/andalusian_mismatch_declarative-broad-focus_La-maestra-vive-en-Paris.wav,./stim/wavs/argentine_mismatch_declarative-broad-focus_La-maestra-vive-en-Paris.wav,./stim/wavs/castilian_mismatch_declarative-broad-focus_La-maestra-vive-en-Paris.wav,./stim/wavs/chilean_mismatch_declarative-broad-focus_La-maestra-vive-en-Paris.wav,./stim/wavs/cuban_mismatch_declarative-broad-focus_La-maestra-vive-en-Paris.wav,./stim/wavs/mexican_mismatch_declarative-broad-focus_La-maestra-vive-en-Paris.wav,./stim/wavs/peruvian_mismatch_declarative-broad-focus_La-maestra-vive-en-Paris.wav,./stim/wavs/puertorican_mismatch_declarative-broad-focus_La-maestra-vive-en-Paris.wav,,,,,,,,,,,,,,,,,,,,,,,,,,,,,,,,,,,,,,,,,,,,,,,,,,,,,,,,
,,,,,,,5e5e11aed2420e129dc155ce,60568611ec04488a9e9da93b,6056a98fe4659ec0ed80cb41,United States,Midwest,13 or older,no,2021-03-20_20h04.49.112,empathy_intonation_perc,2020.2.10,MacIntel,60,,,,,,,,,,0,argentine,0,1,1.567505,0,22,22,6,1,7,./stim/wavs/andalusian_match_declarative-broad-focus_Mariano-habla-del-tiempo.wav,./stim/wavs/argentine_match_declarative-broad-focus_Mariano-habla-del-tiempo.wav,./stim/wavs/castilian_match_declarative-broad-focus_Mariano-habla-del-tiempo.wav,./stim/wavs/chilean_match_declarative-broad-focus_Mariano-habla-del-tiempo.wav,./stim/wavs/cuban_match_declarative-broad-focus_Mariano-habla-del-tiempo.wav,./stim/wavs/mexican_match_declarative-broad-focus_Mariano-habla-del-tiempo.wav,./stim/wavs/peruvian_match_declarative-broad-focus_Mariano-habla-del-tiempo.wav,./stim/wavs/puertorican_match_declarative-broad-focus_Mariano-habla-del-tiempo.wav,,,,,,,,,,,,,,,,,,,,,,,,,,,,,,,,,,,,,,,,,,,,,,,,,,,,,,,,
,,,,,,,5e5e11aed2420e129dc155ce,60568611ec04488a9e9da93b,6056a98fe4659ec0ed80cb41,United States,Midwest,13 or older,no,2021-03-20_20h04.49.112,empathy_intonation_perc,2020.2.10,MacIntel,60,,,,,,,,,,1,mexican,0,0,1.628255,0,23,23,17,1,18,./stim/wavs/andalusian_match_interrogative-partial-wh_Cuando-leia-el-libro.wav,./stim/wavs/argentine_match_interrogative-partial-wh_Cuando-leia-el-libro.wav,./stim/wavs/castilian_match_interrogative-partial-wh_Cuando-leia-el-libro.wav,./stim/wavs/chilean_match_interrogative-partial-wh_Cuando-leia-el-libro.wav,./stim/wavs/cuban_match_interrogative-partial-wh_Cuando-leia-el-libro.wav,./stim/wavs/mexican_match_interrogative-partial-wh_Cuando-leia-el-libro.wav,./stim/wavs/peruvian_match_interrogative-partial-wh_Cuando-leia-el-libro.wav,./stim/wavs/puertorican_match_interrogative-partial-wh_Cuando-leia-el-libro.wav,,,,,,,,,,,,,,,,,,,,,,,,,,,,,,,,,,,,,,,,,,,,,,,,,,,,,,,,
,,,,,,,5e5e11aed2420e129dc155ce,60568611ec04488a9e9da93b,6056a98fe4659ec0ed80cb41,United States,Midwest,13 or older,no,2021-03-20_20h04.49.112,empathy_intonation_perc,2020.2.10,MacIntel,60,,,,,,,,,,0,puertorican,0,1,1.45413,0,24,24,2,1,3,./stim/wavs/andalusian_match_declarative-broad-focus_David-leia-el-libro.wav,./stim/wavs/argentine_match_declarative-broad-focus_David-leia-el-libro.wav,./stim/wavs/castilian_match_declarative-broad-focus_David-leia-el-libro.wav,./stim/wavs/chilean_match_declarative-broad-focus_David-leia-el-libro.wav,./stim/wavs/cuban_match_declarative-broad-focus_David-leia-el-libro.wav,./stim/wavs/mexican_match_declarative-broad-focus_David-leia-el-libro.wav,./stim/wavs/peruvian_match_declarative-broad-focus_David-leia-el-libro.wav,./stim/wavs/puertorican_match_declarative-broad-focus_David-leia-el-libro.wav,,,,,,,,,,,,,,,,,,,,,,,,,,,,,,,,,,,,,,,,,,,,,,,,,,,,,,,,
,,,,,,,5e5e11aed2420e129dc155ce,60568611ec04488a9e9da93b,6056a98fe4659ec0ed80cb41,United States,Midwest,13 or older,no,2021-03-20_20h04.49.112,empathy_intonation_perc,2020.2.10,MacIntel,60,,,,,,,,,,0,andalusian,0,1,1.55294,0,25,25,10,1,11,./stim/wavs/andalusian_match_declarative-narrow-focus_David-leia-el-libro.wav,./stim/wavs/argentine_match_declarative-narrow-focus_David-leia-el-libro.wav,./stim/wavs/castilian_match_declarative-narrow-focus_David-leia-el-libro.wav,./stim/wavs/chilean_match_declarative-narrow-focus_David-leia-el-libro.wav,./stim/wavs/cuban_match_declarative-narrow-focus_David-leia-el-libro.wav,./stim/wavs/mexican_match_declarative-narrow-focus_David-leia-el-libro.wav,./stim/wavs/peruvian_match_declarative-narrow-focus_David-leia-el-libro.wav,./stim/wavs/puertorican_match_declarative-narrow-focus_David-leia-el-libro.wav,,,,,,,,,,,,,,,,,,,,,,,,,,,,,,,,,,,,,,,,,,,,,,,,,,,,,,,,
,,,,,,,5e5e11aed2420e129dc155ce,60568611ec04488a9e9da93b,6056a98fe4659ec0ed80cb41,United States,Midwest,13 or older,no,2021-03-20_20h04.49.112,empathy_intonation_perc,2020.2.10,MacIntel,60,,,,,,,,,,1,chilean,0,0,2.071985,0,26,26,54,1,55,./stim/wavs/andalusian_mismatch_interrogative-partial-wh_Por-que-venia-del-lago.wav,./stim/wavs/argentine_mismatch_interrogative-partial-wh_Por-que-venia-del-lago.wav,./stim/wavs/castilian_mismatch_interrogative-partial-wh_Por-que-venia-del-lago.wav,./stim/wavs/chilean_mismatch_interrogative-partial-wh_Por-que-venia-del-lago.wav,./stim/wavs/cuban_mismatch_interrogative-partial-wh_Por-que-venia-del-lago.wav,./stim/wavs/mexican_mismatch_interrogative-partial-wh_Por-que-venia-del-lago.wav,./stim/wavs/peruvian_mismatch_interrogative-partial-wh_Por-que-venia-del-lago.wav,./stim/wavs/puertorican_mismatch_interrogative-partial-wh_Por-que-venia-del-lago.wav,,,,,,,,,,,,,,,,,,,,,,,,,,,,,,,,,,,,,,,,,,,,,,,,,,,,,,,,
,,,,,,,5e5e11aed2420e129dc155ce,60568611ec04488a9e9da93b,6056a98fe4659ec0ed80cb41,United States,Midwest,13 or older,no,2021-03-20_20h04.49.112,empathy_intonation_perc,2020.2.10,MacIntel,60,,,,,,,,,,1,castilian,1,1,1.845625,0,27,27,49,1,50,./stim/wavs/andalusian_mismatch_interrogative-partial-wh_Cuando-lavaba-el-plato.wav,./stim/wavs/argentine_mismatch_interrogative-partial-wh_Cuando-lavaba-el-plato.wav,./stim/wavs/castilian_mismatch_interrogative-partial-wh_Cuando-lavaba-el-plato.wav,./stim/wavs/chilean_mismatch_interrogative-partial-wh_Cuando-lavaba-el-plato.wav,./stim/wavs/cuban_mismatch_interrogative-partial-wh_Cuando-lavaba-el-plato.wav,./stim/wavs/mexican_mismatch_interrogative-partial-wh_Cuando-lavaba-el-plato.wav,./stim/wavs/peruvian_mismatch_interrogative-partial-wh_Cuando-lavaba-el-plato.wav,./stim/wavs/puertorican_mismatch_interrogative-partial-wh_Cuando-lavaba-el-plato.wav,,,,,,,,,,,,,,,,,,,,,,,,,,,,,,,,,,,,,,,,,,,,,,,,,,,,,,,,
,,,,,,,5e5e11aed2420e129dc155ce,60568611ec04488a9e9da93b,6056a98fe4659ec0ed80cb41,United States,Midwest,13 or older,no,2021-03-20_20h04.49.112,empathy_intonation_perc,2020.2.10,MacIntel,60,,,,,,,,,,0,cuban,0,1,1.91906,0,28,28,4,1,5,./stim/wavs/andalusian_match_declarative-broad-focus_Manuela-vende-el-carro.wav,./stim/wavs/argentine_match_declarative-broad-focus_Manuela-vende-el-carro.wav,./stim/wavs/castilian_match_declarative-broad-focus_Manuela-vende-el-carro.wav,./stim/wavs/chilean_match_declarative-broad-focus_Manuela-vende-el-carro.wav,./stim/wavs/cuban_match_declarative-broad-focus_Manuela-vende-el-carro.wav,./stim/wavs/mexican_match_declarative-broad-focus_Manuela-vende-el-carro.wav,./stim/wavs/peruvian_match_declarative-broad-focus_Manuela-vende-el-carro.wav,./stim/wavs/puertorican_match_declarative-broad-focus_Manuela-vende-el-carro.wav,,,,,,,,,,,,,,,,,,,,,,,,,,,,,,,,,,,,,,,,,,,,,,,,,,,,,,,,
,,,,,,,5e5e11aed2420e129dc155ce,60568611ec04488a9e9da93b,6056a98fe4659ec0ed80cb41,United States,Midwest,13 or older,no,2021-03-20_20h04.49.112,empathy_intonation_perc,2020.2.10,MacIntel,60,,,,,,,,,,1,peruvian,0,0,1.8371,0,29,29,61,1,62,./stim/wavs/andalusian_mismatch_interrogative-total-yn_Mi-madre-come-la-fruta.wav,./stim/wavs/argentine_mismatch_interrogative-total-yn_Mi-madre-come-la-fruta.wav,./stim/wavs/castilian_mismatch_interrogative-total-yn_Mi-madre-come-la-fruta.wav,./stim/wavs/chilean_mismatch_interrogative-total-yn_Mi-madre-come-la-fruta.wav,./stim/wavs/cuban_mismatch_interrogative-total-yn_Mi-madre-come-la-fruta.wav,./stim/wavs/mexican_mismatch_interrogative-total-yn_Mi-madre-come-la-fruta.wav,./stim/wavs/peruvian_mismatch_interrogative-total-yn_Mi-madre-come-la-fruta.wav,./stim/wavs/puertorican_mismatch_interrogative-total-yn_Mi-madre-come-la-fruta.wav,,,,,,,,,,,,,,,,,,,,,,,,,,,,,,,,,,,,,,,,,,,,,,,,,,,,,,,,
,,,,,,,5e5e11aed2420e129dc155ce,60568611ec04488a9e9da93b,6056a98fe4659ec0ed80cb41,United States,Midwest,13 or older,no,2021-03-20_20h04.49.112,empathy_intonation_perc,2020.2.10,MacIntel,60,,,,,,,,,,1,chilean,1,1,2.303695,0,30,30,63,1,64,./stim/wavs/andalusian_mismatch_interrogative-total-yn_Mi-tia-odia-la-lluvia.wav,./stim/wavs/argentine_mismatch_interrogative-total-yn_Mi-tia-odia-la-lluvia.wav,./stim/wavs/castilian_mismatch_interrogative-total-yn_Mi-tia-odia-la-lluvia.wav,./stim/wavs/chilean_mismatch_interrogative-total-yn_Mi-tia-odia-la-lluvia.wav,./stim/wavs/cuban_mismatch_interrogative-total-yn_Mi-tia-odia-la-lluvia.wav,./stim/wavs/mexican_mismatch_interrogative-total-yn_Mi-tia-odia-la-lluvia.wav,./stim/wavs/peruvian_mismatch_interrogative-total-yn_Mi-tia-odia-la-lluvia.wav,./stim/wavs/puertorican_mismatch_interrogative-total-yn_Mi-tia-odia-la-lluvia.wav,,,,,,,,,,,,,,,,,,,,,,,,,,,,,,,,,,,,,,,,,,,,,,,,,,,,,,,,
,,,,,,,5e5e11aed2420e129dc155ce,60568611ec04488a9e9da93b,6056a98fe4659ec0ed80cb41,United States,Midwest,13 or older,no,2021-03-20_20h04.49.112,empathy_intonation_perc,2020.2.10,MacIntel,60,,,,,,,,,,0,peruvian,0,1,1.903745,0,31,31,37,1,38,./stim/wavs/andalusian_mismatch_declarative-broad-focus_Mi-madre-come-la-fruta.wav,./stim/wavs/argentine_mismatch_declarative-broad-focus_Mi-madre-come-la-fruta.wav,./stim/wavs/castilian_mismatch_declarative-broad-focus_Mi-madre-come-la-fruta.wav,./stim/wavs/chilean_mismatch_declarative-broad-focus_Mi-madre-come-la-fruta.wav,./stim/wavs/cuban_mismatch_declarative-broad-focus_Mi-madre-come-la-fruta.wav,./stim/wavs/mexican_mismatch_declarative-broad-focus_Mi-madre-come-la-fruta.wav,./stim/wavs/peruvian_mismatch_declarative-broad-focus_Mi-madre-come-la-fruta.wav,./stim/wavs/puertorican_mismatch_declarative-broad-focus_Mi-madre-come-la-fruta.wav,,,,,,,,,,,,,,,,,,,,,,,,,,,,,,,,,,,,,,,,,,,,,,,,,,,,,,,,
,,,,,,,5e5e11aed2420e129dc155ce,60568611ec04488a9e9da93b,6056a98fe4659ec0ed80cb41,United States,Midwest,13 or older,no,2021-03-20_20h04.49.112,empathy_intonation_perc,2020.2.10,MacIntel,60,,,,,,,,,,0,argentine,0,1,1.71736,0,32,32,11,1,12,./stim/wavs/andalusian_match_declarative-narrow-focus_Emilio-ama-la-marcha.wav,./stim/wavs/argentine_match_declarative-narrow-focus_Emilio-ama-la-marcha.wav,./stim/wavs/castilian_match_declarative-narrow-focus_Emilio-ama-la-marcha.wav,./stim/wavs/chilean_match_declarative-narrow-focus_Emilio-ama-la-marcha.wav,./stim/wavs/cuban_match_declarative-narrow-focus_Emilio-ama-la-marcha.wav,./stim/wavs/mexican_match_declarative-narrow-focus_Emilio-ama-la-marcha.wav,./stim/wavs/peruvian_match_declarative-narrow-focus_Emilio-ama-la-marcha.wav,./stim/wavs/puertorican_match_declarative-narrow-focus_Emilio-ama-la-marcha.wav,,,,,,,,,,,,,,,,,,,,,,,,,,,,,,,,,,,,,,,,,,,,,,,,,,,,,,,,
,,,,,,,5e5e11aed2420e129dc155ce,60568611ec04488a9e9da93b,6056a98fe4659ec0ed80cb41,United States,Midwest,13 or older,no,2021-03-20_20h04.49.112,empathy_intonation_perc,2020.2.10,MacIntel,60,,,,,,,,,,1,puertorican,0,0,1.65695,0,33,33,52,1,53,./stim/wavs/andalusian_mismatch_interrogative-partial-wh_Por-que-odiaba-la-lluvia.wav,./stim/wavs/argentine_mismatch_interrogative-partial-wh_Por-que-odiaba-la-lluvia.wav,./stim/wavs/castilian_mismatch_interrogative-partial-wh_Por-que-odiaba-la-lluvia.wav,./stim/wavs/chilean_mismatch_interrogative-partial-wh_Por-que-odiaba-la-lluvia.wav,./stim/wavs/cuban_mismatch_interrogative-partial-wh_Por-que-odiaba-la-lluvia.wav,./stim/wavs/mexican_mismatch_interrogative-partial-wh_Por-que-odiaba-la-lluvia.wav,./stim/wavs/peruvian_mismatch_interrogative-partial-wh_Por-que-odiaba-la-lluvia.wav,./stim/wavs/puertorican_mismatch_interrogative-partial-wh_Por-que-odiaba-la-lluvia.wav,,,,,,,,,,,,,,,,,,,,,,,,,,,,,,,,,,,,,,,,,,,,,,,,,,,,,,,,
,,,,,,,5e5e11aed2420e129dc155ce,60568611ec04488a9e9da93b,6056a98fe4659ec0ed80cb41,United States,Midwest,13 or older,no,2021-03-20_20h04.49.112,empathy_intonation_perc,2020.2.10,MacIntel,60,,,,,,,,,,1,castilian,1,1,1.752455,0,34,34,19,1,20,./stim/wavs/andalusian_match_interrogative-partial-wh_Cuando-vendia-el-carro.wav,./stim/wavs/argentine_match_interrogative-partial-wh_Cuando-vendia-el-carro.wav,./stim/wavs/castilian_match_interrogative-partial-wh_Cuando-vendia-el-carro.wav,./stim/wavs/chilean_match_interrogative-partial-wh_Cuando-vendia-el-carro.wav,./stim/wavs/cuban_match_interrogative-partial-wh_Cuando-vendia-el-carro.wav,./stim/wavs/mexican_match_interrogative-partial-wh_Cuando-vendia-el-carro.wav,./stim/wavs/peruvian_match_interrogative-partial-wh_Cuando-vendia-el-carro.wav,./stim/wavs/puertorican_match_interrogative-partial-wh_Cuando-vendia-el-carro.wav,,,,,,,,,,,,,,,,,,,,,,,,,,,,,,,,,,,,,,,,,,,,,,,,,,,,,,,,
,,,,,,,5e5e11aed2420e129dc155ce,60568611ec04488a9e9da93b,6056a98fe4659ec0ed80cb41,United States,Midwest,13 or older,no,2021-03-20_20h04.49.112,empathy_intonation_perc,2020.2.10,MacIntel,60,,,,,,,,,,0,mexican,0,1,1.351685,0,35,35,13,1,14,./stim/wavs/andalusian_match_declarative-narrow-focus_Maria-bebe-el-vino.wav,./stim/wavs/argentine_match_declarative-narrow-focus_Maria-bebe-el-vino.wav,./stim/wavs/castilian_match_declarative-narrow-focus_Maria-bebe-el-vino.wav,./stim/wavs/chilean_match_declarative-narrow-focus_Maria-bebe-el-vino.wav,./stim/wavs/cuban_match_declarative-narrow-focus_Maria-bebe-el-vino.wav,./stim/wavs/mexican_match_declarative-narrow-focus_Maria-bebe-el-vino.wav,./stim/wavs/peruvian_match_declarative-narrow-focus_Maria-bebe-el-vino.wav,./stim/wavs/puertorican_match_declarative-narrow-focus_Maria-bebe-el-vino.wav,,,,,,,,,,,,,,,,,,,,,,,,,,,,,,,,,,,,,,,,,,,,,,,,,,,,,,,,
,,,,,,,5e5e11aed2420e129dc155ce,60568611ec04488a9e9da93b,6056a98fe4659ec0ed80cb41,United States,Midwest,13 or older,no,2021-03-20_20h04.49.112,empathy_intonation_perc,2020.2.10,MacIntel,60,,,,,,,,,,1,cuban,0,0,1.820955,0,36,36,21,1,22,./stim/wavs/andalusian_match_interrogative-partial-wh_Por-que-ama-la-navidad.wav,./stim/wavs/argentine_match_interrogative-partial-wh_Por-que-ama-la-navidad.wav,./stim/wavs/castilian_match_interrogative-partial-wh_Por-que-ama-la-navidad.wav,./stim/wavs/chilean_match_interrogative-partial-wh_Por-que-ama-la-navidad.wav,./stim/wavs/cuban_match_interrogative-partial-wh_Por-que-ama-la-navidad.wav,./stim/wavs/mexican_match_interrogative-partial-wh_Por-que-ama-la-navidad.wav,./stim/wavs/peruvian_match_interrogative-partial-wh_Por-que-ama-la-navidad.wav,./stim/wavs/puertorican_match_interrogative-partial-wh_Por-que-ama-la-navidad.wav,,,,,,,,,,,,,,,,,,,,,,,,,,,,,,,,,,,,,,,,,,,,,,,,,,,,,,,,
,,,,,,,5e5e11aed2420e129dc155ce,60568611ec04488a9e9da93b,6056a98fe4659ec0ed80cb41,United States,Midwest,13 or older,no,2021-03-20_20h04.49.112,empathy_intonation_perc,2020.2.10,MacIntel,60,,,,,,,,,,0,peruvian,0,1,1.91887,0,37,37,38,1,39,./stim/wavs/andalusian_mismatch_declarative-broad-focus_Mi-novio-viene-del-lago.wav,./stim/wavs/argentine_mismatch_declarative-broad-focus_Mi-novio-viene-del-lago.wav,./stim/wavs/castilian_mismatch_declarative-broad-focus_Mi-novio-viene-del-lago.wav,./stim/wavs/chilean_mismatch_declarative-broad-focus_Mi-novio-viene-del-lago.wav,./stim/wavs/cuban_mismatch_declarative-broad-focus_Mi-novio-viene-del-lago.wav,./stim/wavs/mexican_mismatch_declarative-broad-focus_Mi-novio-viene-del-lago.wav,./stim/wavs/peruvian_mismatch_declarative-broad-focus_Mi-novio-viene-del-lago.wav,./stim/wavs/puertorican_mismatch_declarative-broad-focus_Mi-novio-viene-del-lago.wav,,,,,,,,,,,,,,,,,,,,,,,,,,,,,,,,,,,,,,,,,,,,,,,,,,,,,,,,
,,,,,,,5e5e11aed2420e129dc155ce,60568611ec04488a9e9da93b,6056a98fe4659ec0ed80cb41,United States,Midwest,13 or older,no,2021-03-20_20h04.49.112,empathy_intonation_perc,2020.2.10,MacIntel,60,,,,,,,,,,0,argentine,0,1,1.619575,0,38,38,42,1,43,./stim/wavs/andalusian_mismatch_declarative-narrow-focus_El-nino-oye-el-rio.wav,./stim/wavs/argentine_mismatch_declarative-narrow-focus_El-nino-oye-el-rio.wav,./stim/wavs/castilian_mismatch_declarative-narrow-focus_El-nino-oye-el-rio.wav,./stim/wavs/chilean_mismatch_declarative-narrow-focus_El-nino-oye-el-rio.wav,./stim/wavs/cuban_mismatch_declarative-narrow-focus_El-nino-oye-el-rio.wav,./stim/wavs/mexican_mismatch_declarative-narrow-focus_El-nino-oye-el-rio.wav,./stim/wavs/peruvian_mismatch_declarative-narrow-focus_El-nino-oye-el-rio.wav,./stim/wavs/puertorican_mismatch_declarative-narrow-focus_El-nino-oye-el-rio.wav,,,,,,,,,,,,,,,,,,,,,,,,,,,,,,,,,,,,,,,,,,,,,,,,,,,,,,,,
,,,,,,,5e5e11aed2420e129dc155ce,60568611ec04488a9e9da93b,6056a98fe4659ec0ed80cb41,United States,Midwest,13 or older,no,2021-03-20_20h04.49.112,empathy_intonation_perc,2020.2.10,MacIntel,60,,,,,,,,,,0,peruvian,0,1,2.008715,0,39,39,32,1,33,./stim/wavs/andalusian_mismatch_declarative-broad-focus_El-bebe-comia-muy-bien.wav,./stim/wavs/argentine_mismatch_declarative-broad-focus_El-bebe-comia-muy-bien.wav,./stim/wavs/castilian_mismatch_declarative-broad-focus_El-bebe-comia-muy-bien.wav,./stim/wavs/chilean_mismatch_declarative-broad-focus_El-bebe-comia-muy-bien.wav,./stim/wavs/cuban_mismatch_declarative-broad-focus_El-bebe-comia-muy-bien.wav,./stim/wavs/mexican_mismatch_declarative-broad-focus_El-bebe-comia-muy-bien.wav,./stim/wavs/peruvian_mismatch_declarative-broad-focus_El-bebe-comia-muy-bien.wav,./stim/wavs/puertorican_mismatch_declarative-broad-focus_El-bebe-comia-muy-bien.wav,,,,,,,,,,,,,,,,,,,,,,,,,,,,,,,,,,,,,,,,,,,,,,,,,,,,,,,,
,,,,,,,5e5e11aed2420e129dc155ce,60568611ec04488a9e9da93b,6056a98fe4659ec0ed80cb41,United States,Midwest,13 or older,no,2021-03-20_20h04.49.112,empathy_intonation_perc,2020.2.10,MacIntel,60,,,,,,,,,,1,mexican,0,0,1.540445,0,40,40,23,1,24,./stim/wavs/andalusian_match_interrogative-partial-wh_Por-que-iba-a-Bolivia.wav,./stim/wavs/argentine_match_interrogative-partial-wh_Por-que-iba-a-Bolivia.wav,./stim/wavs/castilian_match_interrogative-partial-wh_Por-que-iba-a-Bolivia.wav,./stim/wavs/chilean_match_interrogative-partial-wh_Por-que-iba-a-Bolivia.wav,./stim/wavs/cuban_match_interrogative-partial-wh_Por-que-iba-a-Bolivia.wav,./stim/wavs/mexican_match_interrogative-partial-wh_Por-que-iba-a-Bolivia.wav,./stim/wavs/peruvian_match_interrogative-partial-wh_Por-que-iba-a-Bolivia.wav,./stim/wavs/puertorican_match_interrogative-partial-wh_Por-que-iba-a-Bolivia.wav,,,,,,,,,,,,,,,,,,,,,,,,,,,,,,,,,,,,,,,,,,,,,,,,,,,,,,,,
,,,,,,,5e5e11aed2420e129dc155ce,60568611ec04488a9e9da93b,6056a98fe4659ec0ed80cb41,United States,Midwest,13 or older,no,2021-03-20_20h04.49.112,empathy_intonation_perc,2020.2.10,MacIntel,60,,,,,,,,,,1,castilian,1,1,1.65512,0,41,41,18,1,19,./stim/wavs/andalusian_match_interrogative-partial-wh_Cuando-lleva-el-abrigo.wav,./stim/wavs/argentine_match_interrogative-partial-wh_Cuando-lleva-el-abrigo.wav,./stim/wavs/castilian_match_interrogative-partial-wh_Cuando-lleva-el-abrigo.wav,./stim/wavs/chilean_match_interrogative-partial-wh_Cuando-lleva-el-abrigo.wav,./stim/wavs/cuban_match_interrogative-partial-wh_Cuando-lleva-el-abrigo.wav,./stim/wavs/mexican_match_interrogative-partial-wh_Cuando-lleva-el-abrigo.wav,./stim/wavs/peruvian_match_interrogative-partial-wh_Cuando-lleva-el-abrigo.wav,./stim/wavs/puertorican_match_interrogative-partial-wh_Cuando-lleva-el-abrigo.wav,,,,,,,,,,,,,,,,,,,,,,,,,,,,,,,,,,,,,,,,,,,,,,,,,,,,,,,,
,,,,,,,5e5e11aed2420e129dc155ce,60568611ec04488a9e9da93b,6056a98fe4659ec0ed80cb41,United States,Midwest,13 or older,no,2021-03-20_20h04.49.112,empathy_intonation_perc,2020.2.10,MacIntel,60,,,,,,,,,,1,andalusian,1,1,1.486585,0,42,42,24,1,25,./stim/wavs/andalusian_match_interrogative-total-yn_Ana-lleva-el-abrigo.wav,./stim/wavs/argentine_match_interrogative-total-yn_Ana-lleva-el-abrigo.wav,./stim/wavs/castilian_match_interrogative-total-yn_Ana-lleva-el-abrigo.wav,./stim/wavs/chilean_match_interrogative-total-yn_Ana-lleva-el-abrigo.wav,./stim/wavs/cuban_match_interrogative-total-yn_Ana-lleva-el-abrigo.wav,./stim/wavs/mexican_match_interrogative-total-yn_Ana-lleva-el-abrigo.wav,./stim/wavs/peruvian_match_interrogative-total-yn_Ana-lleva-el-abrigo.wav,./stim/wavs/puertorican_match_interrogative-total-yn_Ana-lleva-el-abrigo.wav,,,,,,,,,,,,,,,,,,,,,,,,,,,,,,,,,,,,,,,,,,,,,,,,,,,,,,,,
,,,,,,,5e5e11aed2420e129dc155ce,60568611ec04488a9e9da93b,6056a98fe4659ec0ed80cb41,United States,Midwest,13 or older,no,2021-03-20_20h04.49.112,empathy_intonation_perc,2020.2.10,MacIntel,60,,,,,,,,,,1,puertorican,0,0,2.06371,0,43,43,56,1,57,./stim/wavs/andalusian_mismatch_interrogative-total-yn_El-bebe-comia-muy-bien.wav,./stim/wavs/argentine_mismatch_interrogative-total-yn_El-bebe-comia-muy-bien.wav,./stim/wavs/castilian_mismatch_interrogative-total-yn_El-bebe-comia-muy-bien.wav,./stim/wavs/chilean_mismatch_interrogative-total-yn_El-bebe-comia-muy-bien.wav,./stim/wavs/cuban_mismatch_interrogative-total-yn_El-bebe-comia-muy-bien.wav,./stim/wavs/mexican_mismatch_interrogative-total-yn_El-bebe-comia-muy-bien.wav,./stim/wavs/peruvian_mismatch_interrogative-total-yn_El-bebe-comia-muy-bien.wav,./stim/wavs/puertorican_mismatch_interrogative-total-yn_El-bebe-comia-muy-bien.wav,,,,,,,,,,,,,,,,,,,,,,,,,,,,,,,,,,,,,,,,,,,,,,,,,,,,,,,,
,,,,,,,5e5e11aed2420e129dc155ce,60568611ec04488a9e9da93b,6056a98fe4659ec0ed80cb41,United States,Midwest,13 or older,no,2021-03-20_20h04.49.112,empathy_intonation_perc,2020.2.10,MacIntel,60,,,,,,,,,,0,puertorican,0,1,1.57828,0,44,44,33,1,34,./stim/wavs/andalusian_mismatch_declarative-broad-focus_El-hombre-mira-la-luna.wav,./stim/wavs/argentine_mismatch_declarative-broad-focus_El-hombre-mira-la-luna.wav,./stim/wavs/castilian_mismatch_declarative-broad-focus_El-hombre-mira-la-luna.wav,./stim/wavs/chilean_mismatch_declarative-broad-focus_El-hombre-mira-la-luna.wav,./stim/wavs/cuban_mismatch_declarative-broad-focus_El-hombre-mira-la-luna.wav,./stim/wavs/mexican_mismatch_declarative-broad-focus_El-hombre-mira-la-luna.wav,./stim/wavs/peruvian_mismatch_declarative-broad-focus_El-hombre-mira-la-luna.wav,./stim/wavs/puertorican_mismatch_declarative-broad-focus_El-hombre-mira-la-luna.wav,,,,,,,,,,,,,,,,,,,,,,,,,,,,,,,,,,,,,,,,,,,,,,,,,,,,,,,,
,,,,,,,5e5e11aed2420e129dc155ce,60568611ec04488a9e9da93b,6056a98fe4659ec0ed80cb41,United States,Midwest,13 or older,no,2021-03-20_20h04.49.112,empathy_intonation_perc,2020.2.10,MacIntel,60,,,,,,,,,,1,argentine,0,0,3.602725,0,45,45,28,1,29,./stim/wavs/andalusian_match_interrogative-total-yn_Manuela-vende-el-carro.wav,./stim/wavs/argentine_match_interrogative-total-yn_Manuela-vende-el-carro.wav,./stim/wavs/castilian_match_interrogative-total-yn_Manuela-vende-el-carro.wav,./stim/wavs/chilean_match_interrogative-total-yn_Manuela-vende-el-carro.wav,./stim/wavs/cuban_match_interrogative-total-yn_Manuela-vende-el-carro.wav,./stim/wavs/mexican_match_interrogative-total-yn_Manuela-vende-el-carro.wav,./stim/wavs/peruvian_match_interrogative-total-yn_Manuela-vende-el-carro.wav,./stim/wavs/puertorican_match_interrogative-total-yn_Manuela-vende-el-carro.wav,,,,,,,,,,,,,,,,,,,,,,,,,,,,,,,,,,,,,,,,,,,,,,,,,,,,,,,,
,,,,,,,5e5e11aed2420e129dc155ce,60568611ec04488a9e9da93b,6056a98fe4659ec0ed80cb41,United States,Midwest,13 or older,no,2021-03-20_20h04.49.112,empathy_intonation_perc,2020.2.10,MacIntel,60,,,,,,,,,,1,peruvian,0,0,2.405575,0,46,46,26,1,27,./stim/wavs/andalusian_match_interrogative-total-yn_David-leia-el-libro.wav,./stim/wavs/argentine_match_interrogative-total-yn_David-leia-el-libro.wav,./stim/wavs/castilian_match_interrogative-total-yn_David-leia-el-libro.wav,./stim/wavs/chilean_match_interrogative-total-yn_David-leia-el-libro.wav,./stim/wavs/cuban_match_interrogative-total-yn_David-leia-el-libro.wav,./stim/wavs/mexican_match_interrogative-total-yn_David-leia-el-libro.wav,./stim/wavs/peruvian_match_interrogative-total-yn_David-leia-el-libro.wav,./stim/wavs/puertorican_match_interrogative-total-yn_David-leia-el-libro.wav,,,,,,,,,,,,,,,,,,,,,,,,,,,,,,,,,,,,,,,,,,,,,,,,,,,,,,,,
,,,,,,,5e5e11aed2420e129dc155ce,60568611ec04488a9e9da93b,6056a98fe4659ec0ed80cb41,United States,Midwest,13 or older,no,2021-03-20_20h04.49.112,empathy_intonation_perc,2020.2.10,MacIntel,60,,,,,,,,,,0,chilean,0,1,1.255605,0,47,47,5,1,6,./stim/wavs/andalusian_match_declarative-broad-focus_Maria-bebe-el-vino.wav,./stim/wavs/argentine_match_declarative-broad-focus_Maria-bebe-el-vino.wav,./stim/wavs/castilian_match_declarative-broad-focus_Maria-bebe-el-vino.wav,./stim/wavs/chilean_match_declarative-broad-focus_Maria-bebe-el-vino.wav,./stim/wavs/cuban_match_declarative-broad-focus_Maria-bebe-el-vino.wav,./stim/wavs/mexican_match_declarative-broad-focus_Maria-bebe-el-vino.wav,./stim/wavs/peruvian_match_declarative-broad-focus_Maria-bebe-el-vino.wav,./stim/wavs/puertorican_match_declarative-broad-focus_Maria-bebe-el-vino.wav,,,,,,,,,,,,,,,,,,,,,,,,,,,,,,,,,,,,,,,,,,,,,,,,,,,,,,,,
,,,,,,,5e5e11aed2420e129dc155ce,60568611ec04488a9e9da93b,6056a98fe4659ec0ed80cb41,United States,Midwest,13 or older,no,2021-03-20_20h04.49.112,empathy_intonation_perc,2020.2.10,MacIntel,60,,,,,,,,,,1,andalusian,1,1,1.451915,0,48,48,27,1,28,./stim/wavs/andalusian_match_interrogative-total-yn_Emilio-ama-la-marcha.wav,./stim/wavs/argentine_match_interrogative-total-yn_Emilio-ama-la-marcha.wav,./stim/wavs/castilian_match_interrogative-total-yn_Emilio-ama-la-marcha.wav,./stim/wavs/chilean_match_interrogative-total-yn_Emilio-ama-la-marcha.wav,./stim/wavs/cuban_match_interrogative-total-yn_Emilio-ama-la-marcha.wav,./stim/wavs/mexican_match_interrogative-total-yn_Emilio-ama-la-marcha.wav,./stim/wavs/peruvian_match_interrogative-total-yn_Emilio-ama-la-marcha.wav,./stim/wavs/puertorican_match_interrogative-total-yn_Emilio-ama-la-marcha.wav,,,,,,,,,,,,,,,,,,,,,,,,,,,,,,,,,,,,,,,,,,,,,,,,,,,,,,,,
,,,,,,,5e5e11aed2420e129dc155ce,60568611ec04488a9e9da93b,6056a98fe4659ec0ed80cb41,United States,Midwest,13 or older,no,2021-03-20_20h04.49.112,empathy_intonation_perc,2020.2.10,MacIntel,60,,,,,,,,,,1,cuban,0,0,1.92325,0,49,49,59,1,60,./stim/wavs/andalusian_mismatch_interrogative-total-yn_La-maestra-vive-en-Paris.wav,./stim/wavs/argentine_mismatch_interrogative-total-yn_La-maestra-vive-en-Paris.wav,./stim/wavs/castilian_mismatch_interrogative-total-yn_La-maestra-vive-en-Paris.wav,./stim/wavs/chilean_mismatch_interrogative-total-yn_La-maestra-vive-en-Paris.wav,./stim/wavs/cuban_mismatch_interrogative-total-yn_La-maestra-vive-en-Paris.wav,./stim/wavs/mexican_mismatch_interrogative-total-yn_La-maestra-vive-en-Paris.wav,./stim/wavs/peruvian_mismatch_interrogative-total-yn_La-maestra-vive-en-Paris.wav,./stim/wavs/puertorican_mismatch_interrogative-total-yn_La-maestra-vive-en-Paris.wav,,,,,,,,,,,,,,,,,,,,,,,,,,,,,,,,,,,,,,,,,,,,,,,,,,,,,,,,
,,,,,,,5e5e11aed2420e129dc155ce,60568611ec04488a9e9da93b,6056a98fe4659ec0ed80cb41,United States,Midwest,13 or older,no,2021-03-20_20h04.49.112,empathy_intonation_perc,2020.2.10,MacIntel,60,,,,,,,,,,1,mexican,1,1,2.119245,0,50,50,51,1,52,./stim/wavs/andalusian_mismatch_interrogative-partial-wh_Por-que-desayuna-muy-bien.wav,./stim/wavs/argentine_mismatch_interrogative-partial-wh_Por-que-desayuna-muy-bien.wav,./stim/wavs/castilian_mismatch_interrogative-partial-wh_Por-que-desayuna-muy-bien.wav,./stim/wavs/chilean_mismatch_interrogative-partial-wh_Por-que-desayuna-muy-bien.wav,./stim/wavs/cuban_mismatch_interrogative-partial-wh_Por-que-desayuna-muy-bien.wav,./stim/wavs/mexican_mismatch_interrogative-partial-wh_Por-que-desayuna-muy-bien.wav,./stim/wavs/peruvian_mismatch_interrogative-partial-wh_Por-que-desayuna-muy-bien.wav,./stim/wavs/puertorican_mismatch_interrogative-partial-wh_Por-que-desayuna-muy-bien.wav,,,,,,,,,,,,,,,,,,,,,,,,,,,,,,,,,,,,,,,,,,,,,,,,,,,,,,,,
,,,,,,,5e5e11aed2420e129dc155ce,60568611ec04488a9e9da93b,6056a98fe4659ec0ed80cb41,United States,Midwest,13 or older,no,2021-03-20_20h04.49.112,empathy_intonation_perc,2020.2.10,MacIntel,60,,,,,,,,,,1,peruvian,1,1,1.936155,0,51,51,30,1,31,./stim/wavs/andalusian_match_interrogative-total-yn_Mariano-habla-del-tiempo.wav,./stim/wavs/argentine_match_interrogative-total-yn_Mariano-habla-del-tiempo.wav,./stim/wavs/castilian_match_interrogative-total-yn_Mariano-habla-del-tiempo.wav,./stim/wavs/chilean_match_interrogative-total-yn_Mariano-habla-del-tiempo.wav,./stim/wavs/cuban_match_interrogative-total-yn_Mariano-habla-del-tiempo.wav,./stim/wavs/mexican_match_interrogative-total-yn_Mariano-habla-del-tiempo.wav,./stim/wavs/peruvian_match_interrogative-total-yn_Mariano-habla-del-tiempo.wav,./stim/wavs/puertorican_match_interrogative-total-yn_Mariano-habla-del-tiempo.wav,,,,,,,,,,,,,,,,,,,,,,,,,,,,,,,,,,,,,,,,,,,,,,,,,,,,,,,,
,,,,,,,5e5e11aed2420e129dc155ce,60568611ec04488a9e9da93b,6056a98fe4659ec0ed80cb41,United States,Midwest,13 or older,no,2021-03-20_20h04.49.112,empathy_intonation_perc,2020.2.10,MacIntel,60,,,,,,,,,,1,andalusian,0,0,1.938805,0,52,52,16,1,17,./stim/wavs/andalusian_match_interrogative-partial-wh_Cuando-bebia-el-vino.wav,./stim/wavs/argentine_match_interrogative-partial-wh_Cuando-bebia-el-vino.wav,./stim/wavs/castilian_match_interrogative-partial-wh_Cuando-bebia-el-vino.wav,./stim/wavs/chilean_match_interrogative-partial-wh_Cuando-bebia-el-vino.wav,./stim/wavs/cuban_match_interrogative-partial-wh_Cuando-bebia-el-vino.wav,./stim/wavs/mexican_match_interrogative-partial-wh_Cuando-bebia-el-vino.wav,./stim/wavs/peruvian_match_interrogative-partial-wh_Cuando-bebia-el-vino.wav,./stim/wavs/puertorican_match_interrogative-partial-wh_Cuando-bebia-el-vino.wav,,,,,,,,,,,,,,,,,,,,,,,,,,,,,,,,,,,,,,,,,,,,,,,,,,,,,,,,
,,,,,,,5e5e11aed2420e129dc155ce,60568611ec04488a9e9da93b,6056a98fe4659ec0ed80cb41,United States,Midwest,13 or older,no,2021-03-20_20h04.49.112,empathy_intonation_perc,2020.2.10,MacIntel,60,,,,,,,,,,1,puertorican,0,0,1.85201,0,53,53,62,1,63,./stim/wavs/andalusian_mismatch_interrogative-total-yn_Mi-novio-viene-del-lago.wav,./stim/wavs/argentine_mismatch_interrogative-total-yn_Mi-novio-viene-del-lago.wav,./stim/wavs/castilian_mismatch_interrogative-total-yn_Mi-novio-viene-del-lago.wav,./stim/wavs/chilean_mismatch_interrogative-total-yn_Mi-novio-viene-del-lago.wav,./stim/wavs/cuban_mismatch_interrogative-total-yn_Mi-novio-viene-del-lago.wav,./stim/wavs/mexican_mismatch_interrogative-total-yn_Mi-novio-viene-del-lago.wav,./stim/wavs/peruvian_mismatch_interrogative-total-yn_Mi-novio-viene-del-lago.wav,./stim/wavs/puertorican_mismatch_interrogative-total-yn_Mi-novio-viene-del-lago.wav,,,,,,,,,,,,,,,,,,,,,,,,,,,,,,,,,,,,,,,,,,,,,,,,,,,,,,,,
,,,,,,,5e5e11aed2420e129dc155ce,60568611ec04488a9e9da93b,6056a98fe4659ec0ed80cb41,United States,Midwest,13 or older,no,2021-03-20_20h04.49.112,empathy_intonation_perc,2020.2.10,MacIntel,60,,,,,,,,,,1,mexican,0,0,1.9346,0,54,54,25,1,26,./stim/wavs/andalusian_match_interrogative-total-yn_Daniel-iba-a-Bolivia.wav,./stim/wavs/argentine_match_interrogative-total-yn_Daniel-iba-a-Bolivia.wav,./stim/wavs/castilian_match_interrogative-total-yn_Daniel-iba-a-Bolivia.wav,./stim/wavs/chilean_match_interrogative-total-yn_Daniel-iba-a-Bolivia.wav,./stim/wavs/cuban_match_interrogative-total-yn_Daniel-iba-a-Bolivia.wav,./stim/wavs/mexican_match_interrogative-total-yn_Daniel-iba-a-Bolivia.wav,./stim/wavs/peruvian_match_interrogative-total-yn_Daniel-iba-a-Bolivia.wav,./stim/wavs/puertorican_match_interrogative-total-yn_Daniel-iba-a-Bolivia.wav,,,,,,,,,,,,,,,,,,,,,,,,,,,,,,,,,,,,,,,,,,,,,,,,,,,,,,,,
,,,,,,,5e5e11aed2420e129dc155ce,60568611ec04488a9e9da93b,6056a98fe4659ec0ed80cb41,United States,Midwest,13 or older,no,2021-03-20_20h04.49.112,empathy_intonation_perc,2020.2.10,MacIntel,60,,,,,,,,,,1,cuban,0,0,1.484375,0,55,55,29,1,30,./stim/wavs/andalusian_match_interrogative-total-yn_Maria-bebe-el-vino.wav,./stim/wavs/argentine_match_interrogative-total-yn_Maria-bebe-el-vino.wav,./stim/wavs/castilian_match_interrogative-total-yn_Maria-bebe-el-vino.wav,./stim/wavs/chilean_match_interrogative-total-yn_Maria-bebe-el-vino.wav,./stim/wavs/cuban_match_interrogative-total-yn_Maria-bebe-el-vino.wav,./stim/wavs/mexican_match_interrogative-total-yn_Maria-bebe-el-vino.wav,./stim/wavs/peruvian_match_interrogative-total-yn_Maria-bebe-el-vino.wav,./stim/wavs/puertorican_match_interrogative-total-yn_Maria-bebe-el-vino.wav,,,,,,,,,,,,,,,,,,,,,,,,,,,,,,,,,,,,,,,,,,,,,,,,,,,,,,,,
,,,,,,,5e5e11aed2420e129dc155ce,60568611ec04488a9e9da93b,6056a98fe4659ec0ed80cb41,United States,Midwest,13 or older,no,2021-03-20_20h04.49.112,empathy_intonation_perc,2020.2.10,MacIntel,60,,,,,,,,,,0,chilean,0,1,1.588,0,56,56,39,1,40,./stim/wavs/andalusian_mismatch_declarative-broad-focus_Mi-tia-odia-la-lluvia.wav,./stim/wavs/argentine_mismatch_declarative-broad-focus_Mi-tia-odia-la-lluvia.wav,./stim/wavs/castilian_mismatch_declarative-broad-focus_Mi-tia-odia-la-lluvia.wav,./stim/wavs/chilean_mismatch_declarative-broad-focus_Mi-tia-odia-la-lluvia.wav,./stim/wavs/cuban_mismatch_declarative-broad-focus_Mi-tia-odia-la-lluvia.wav,./stim/wavs/mexican_mismatch_declarative-broad-focus_Mi-tia-odia-la-lluvia.wav,./stim/wavs/peruvian_mismatch_declarative-broad-focus_Mi-tia-odia-la-lluvia.wav,./stim/wavs/puertorican_mismatch_declarative-broad-focus_Mi-tia-odia-la-lluvia.wav,,,,,,,,,,,,,,,,,,,,,,,,,,,,,,,,,,,,,,,,,,,,,,,,,,,,,,,,
,,,,,,,5e5e11aed2420e129dc155ce,60568611ec04488a9e9da93b,6056a98fe4659ec0ed80cb41,United States,Midwest,13 or older,no,2021-03-20_20h04.49.112,empathy_intonation_perc,2020.2.10,MacIntel,60,,,,,,,,,,0,puertorican,0,1,1.437065,0,57,57,7,1,8,./stim/wavs/andalusian_match_declarative-broad-focus_Marta-abre-el-regalo.wav,./stim/wavs/argentine_match_declarative-broad-focus_Marta-abre-el-regalo.wav,./stim/wavs/castilian_match_declarative-broad-focus_Marta-abre-el-regalo.wav,./stim/wavs/chilean_match_declarative-broad-focus_Marta-abre-el-regalo.wav,./stim/wavs/cuban_match_declarative-broad-focus_Marta-abre-el-regalo.wav,./stim/wavs/mexican_match_declarative-broad-focus_Marta-abre-el-regalo.wav,./stim/wavs/peruvian_match_declarative-broad-focus_Marta-abre-el-regalo.wav,./stim/wavs/puertorican_match_declarative-broad-focus_Marta-abre-el-regalo.wav,,,,,,,,,,,,,,,,,,,,,,,,,,,,,,,,,,,,,,,,,,,,,,,,,,,,,,,,
,,,,,,,5e5e11aed2420e129dc155ce,60568611ec04488a9e9da93b,6056a98fe4659ec0ed80cb41,United States,Midwest,13 or older,no,2021-03-20_20h04.49.112,empathy_intonation_perc,2020.2.10,MacIntel,60,,,,,,,,,,0,argentine,0,1,1.421295,0,58,58,41,1,42,./stim/wavs/andalusian_mismatch_declarative-narrow-focus_El-hombre-mira-la-luna.wav,./stim/wavs/argentine_mismatch_declarative-narrow-focus_El-hombre-mira-la-luna.wav,./stim/wavs/castilian_mismatch_declarative-narrow-focus_El-hombre-mira-la-luna.wav,./stim/wavs/chilean_mismatch_declarative-narrow-focus_El-hombre-mira-la-luna.wav,./stim/wavs/cuban_mismatch_declarative-narrow-focus_El-hombre-mira-la-luna.wav,./stim/wavs/mexican_mismatch_declarative-narrow-focus_El-hombre-mira-la-luna.wav,./stim/wavs/peruvian_mismatch_declarative-narrow-focus_El-hombre-mira-la-luna.wav,./stim/wavs/puertorican_mismatch_declarative-narrow-focus_El-hombre-mira-la-luna.wav,,,,,,,,,,,,,,,,,,,,,,,,,,,,,,,,,,,,,,,,,,,,,,,,,,,,,,,,
,,,,,,,5e5e11aed2420e129dc155ce,60568611ec04488a9e9da93b,6056a98fe4659ec0ed80cb41,United States,Midwest,13 or older,no,2021-03-20_20h04.49.112,empathy_intonation_perc,2020.2.10,MacIntel,60,,,,,,,,,,0,cuban,0,1,1.271,0,59,59,8,1,9,./stim/wavs/andalusian_match_declarative-narrow-focus_Ana-lleva-el-abrigo.wav,./stim/wavs/argentine_match_declarative-narrow-focus_Ana-lleva-el-abrigo.wav,./stim/wavs/castilian_match_declarative-narrow-focus_Ana-lleva-el-abrigo.wav,./stim/wavs/chilean_match_declarative-narrow-focus_Ana-lleva-el-abrigo.wav,./stim/wavs/cuban_match_declarative-narrow-focus_Ana-lleva-el-abrigo.wav,./stim/wavs/mexican_match_declarative-narrow-focus_Ana-lleva-el-abrigo.wav,./stim/wavs/peruvian_match_declarative-narrow-focus_Ana-lleva-el-abrigo.wav,./stim/wavs/puertorican_match_declarative-narrow-focus_Ana-lleva-el-abrigo.wav,,,,,,,,,,,,,,,,,,,,,,,,,,,,,,,,,,,,,,,,,,,,,,,,,,,,,,,,
,,,,,,,5e5e11aed2420e129dc155ce,60568611ec04488a9e9da93b,6056a98fe4659ec0ed80cb41,United States,Midwest,13 or older,no,2021-03-20_20h04.49.112,empathy_intonation_perc,2020.2.10,MacIntel,60,,,,,,,,,,0,andalusian,0,1,1.58604,0,60,60,46,1,47,./stim/wavs/andalusian_mismatch_declarative-narrow-focus_Mi-novio-viene-del-lago.wav,./stim/wavs/argentine_mismatch_declarative-narrow-focus_Mi-novio-viene-del-lago.wav,./stim/wavs/castilian_mismatch_declarative-narrow-focus_Mi-novio-viene-del-lago.wav,./stim/wavs/chilean_mismatch_declarative-narrow-focus_Mi-novio-viene-del-lago.wav,./stim/wavs/cuban_mismatch_declarative-narrow-focus_Mi-novio-viene-del-lago.wav,./stim/wavs/mexican_mismatch_declarative-narrow-focus_Mi-novio-viene-del-lago.wav,./stim/wavs/peruvian_mismatch_declarative-narrow-focus_Mi-novio-viene-del-lago.wav,./stim/wavs/puertorican_mismatch_declarative-narrow-focus_Mi-novio-viene-del-lago.wav,,,,,,,,,,,,,,,,,,,,,,,,,,,,,,,,,,,,,,,,,,,,,,,,,,,,,,,,
,,,,,,,5e5e11aed2420e129dc155ce,60568611ec04488a9e9da93b,6056a98fe4659ec0ed80cb41,United States,Midwest,13 or older,no,2021-03-20_20h04.49.112,empathy_intonation_perc,2020.2.10,MacIntel,60,,,,,,,,,,0,mexican,0,1,1.451275,0,61,61,15,1,16,./stim/wavs/andalusian_match_declarative-narrow-focus_Marta-abre-el-regalo.wav,./stim/wavs/argentine_match_declarative-narrow-focus_Marta-abre-el-regalo.wav,./stim/wavs/castilian_match_declarative-narrow-focus_Marta-abre-el-regalo.wav,./stim/wavs/chilean_match_declarative-narrow-focus_Marta-abre-el-regalo.wav,./stim/wavs/cuban_match_declarative-narrow-focus_Marta-abre-el-regalo.wav,./stim/wavs/mexican_match_declarative-narrow-focus_Marta-abre-el-regalo.wav,./stim/wavs/peruvian_match_declarative-narrow-focus_Marta-abre-el-regalo.wav,./stim/wavs/puertorican_match_declarative-narrow-focus_Marta-abre-el-regalo.wav,,,,,,,,,,,,,,,,,,,,,,,,,,,,,,,,,,,,,,,,,,,,,,,,,,,,,,,,
,,,,,,,5e5e11aed2420e129dc155ce,60568611ec04488a9e9da93b,6056a98fe4659ec0ed80cb41,United States,Midwest,13 or older,no,2021-03-20_20h04.49.112,empathy_intonation_perc,2020.2.10,MacIntel,60,,,,,,,,,,0,andalusian,0,1,1.67021,0,62,62,1,1,2,./stim/wavs/andalusian_match_declarative-broad-focus_Daniel-iba-a-Bolivia.wav,./stim/wavs/argentine_match_declarative-broad-focus_Daniel-iba-a-Bolivia.wav,./stim/wavs/castilian_match_declarative-broad-focus_Daniel-iba-a-Bolivia.wav,./stim/wavs/chilean_match_declarative-broad-focus_Daniel-iba-a-Bolivia.wav,./stim/wavs/cuban_match_declarative-broad-focus_Daniel-iba-a-Bolivia.wav,./stim/wavs/mexican_match_declarative-broad-focus_Daniel-iba-a-Bolivia.wav,./stim/wavs/peruvian_match_declarative-broad-focus_Daniel-iba-a-Bolivia.wav,./stim/wavs/puertorican_match_declarative-broad-focus_Daniel-iba-a-Bolivia.wav,,,,,,,,,,,,,,,,,,,,,,,,,,,,,,,,,,,,,,,,,,,,,,,,,,,,,,,,
,,,,,,,5e5e11aed2420e129dc155ce,60568611ec04488a9e9da93b,6056a98fe4659ec0ed80cb41,United States,Midwest,13 or older,no,2021-03-20_20h04.49.112,empathy_intonation_perc,2020.2.10,MacIntel,60,,,,,,,,,,1,peruvian,0,0,1.985435,0,63,63,53,1,54,./stim/wavs/andalusian_mismatch_interrogative-partial-wh_Por-que-oia-el-rio.wav,./stim/wavs/argentine_mismatch_interrogative-partial-wh_Por-que-oia-el-rio.wav,./stim/wavs/castilian_mismatch_interrogative-partial-wh_Por-que-oia-el-rio.wav,./stim/wavs/chilean_mismatch_interrogative-partial-wh_Por-que-oia-el-rio.wav,./stim/wavs/cuban_mismatch_interrogative-partial-wh_Por-que-oia-el-rio.wav,./stim/wavs/mexican_mismatch_interrogative-partial-wh_Por-que-oia-el-rio.wav,./stim/wavs/peruvian_mismatch_interrogative-partial-wh_Por-que-oia-el-rio.wav,./stim/wavs/puertorican_mismatch_interrogative-partial-wh_Por-que-oia-el-rio.wav,,,,,,,,,,,,,,,,,,,,,,,,,,,,,,,,,,,,,,,,,,,,,,,,,,,,,,,,
,,,,,,,5e5e11aed2420e129dc155ce,60568611ec04488a9e9da93b,6056a98fe4659ec0ed80cb41,United States,Midwest,13 or older,no,2021-03-20_20h04.49.112,empathy_intonation_perc,2020.2.10,MacIntel,60,,,,,,,,,,,,,,,,,,,,,,,,,,,,,h,1,8.173705,0,0,0,0,1,,,,,,,,,,,,,,,,,,,,,,,,,,,,,,,,,,,,,,,,,,,,,,,,
,,,,,"Great! Now we will move on. The next task consists of about 60 trials, in each of which you will see a string of letters. 
  
  Your task is to decide whether this is a real Spanish word or not.",(press the spacebar to continue),5e5e11aed2420e129dc155ce,60568611ec04488a9e9da93b,6056a98fe4659ec0ed80cb41,United States,Midwest,13 or older,no,2021-03-20_20h04.49.112,empathy_intonation_perc,2020.2.10,MacIntel,60,,,,,,,,,,,,,,,,,,,,,,,,,,,,,,,,,,,,,0,0,0,0,1,,,,,,,,,,,,,,,,,,,,,,,,,,,,,,,,,,,,,,,,,,,
,,,,,"If you think it is an existing Spanish word, you type '1' (for 'REAL'), and if you think it is not an existing Spanish word, you type '0' (for 'FAKE').",(press the spacebar to continue),5e5e11aed2420e129dc155ce,60568611ec04488a9e9da93b,6056a98fe4659ec0ed80cb41,United States,Midwest,13 or older,no,2021-03-20_20h04.49.112,empathy_intonation_perc,2020.2.10,MacIntel,60,,,,,,,,,,,,,,,,,,,,,,,,,,,,,,,,,,,,,0,1,1,1,1,,,,,,,,,,,,,,,,,,,,,,,,,,,,,,,,,,,,,,,,,,,
,,,,,"If you are sure that the word exists, even though you dont know its exact meaning, you may still respond '1' (REAL). 
  
  But if you are not sure if it is an existing word, you should respond '0' (FAKE).
  
  Let's do a practice round...",(press the spacebar to continue),5e5e11aed2420e129dc155ce,60568611ec04488a9e9da93b,6056a98fe4659ec0ed80cb41,United States,Midwest,13 or older,no,2021-03-20_20h04.49.112,empathy_intonation_perc,2020.2.10,MacIntel,60,,,,,,,,,,,,,,,,,,,,,,,,,,,,,,,,,,,,,0,2,2,2,1,,,,,,,,,,,,,,,,,,,,,,,,,,,,,,,,,,,,,,,,,,,
,,,,,,,5e5e11aed2420e129dc155ce,60568611ec04488a9e9da93b,6056a98fe4659ec0ed80cb41,United States,Midwest,13 or older,no,2021-03-20_20h04.49.112,empathy_intonation_perc,2020.2.10,MacIntel,60,,,,,,,,,,0,,,,,,,,,,,,,,,,,,,,,,,,,,,,,,,,0,1,2.875495,0,0,0,0,1,0,depiste,REAL,FAKE,,,,,,,,,,,,,,,,,,,,,,,,,,,,,,,
,,,,,,,5e5e11aed2420e129dc155ce,60568611ec04488a9e9da93b,6056a98fe4659ec0ed80cb41,United States,Midwest,13 or older,no,2021-03-20_20h04.49.112,empathy_intonation_perc,2020.2.10,MacIntel,60,,,,,,,,,,1,,,,,,,,,,,,,,,,,,,,,,,,,,,,,,,,1,1,1.101365,0,1,1,1,1,0,s,REAL,FAKE,,,,,,,,,,,,,,,,,,,,,,,,,,,,,,,
,,,,,,,5e5e11aed2420e129dc155ce,60568611ec04488a9e9da93b,6056a98fe4659ec0ed80cb41,United States,Midwest,13 or older,no,2021-03-20_20h04.49.112,empathy_intonation_perc,2020.2.10,MacIntel,60,,,,,,,,,,0,,,,,,,,,,,,,,,,,,,,,,,,,,,,,,,,0,1,0.85149,0,2,2,2,1,0,con,REAL,FAKE,,,,,,,,,,,,,,,,,,,,,,,,,,,,,,,
,,,,,,,5e5e11aed2420e129dc155ce,60568611ec04488a9e9da93b,6056a98fe4659ec0ed80cb41,United States,Midwest,13 or older,no,2021-03-20_20h04.49.112,empathy_intonation_perc,2020.2.10,MacIntel,60,,,,,,,,,,0,,,,,,,,,,,,,,,,,,,,,,,,,,,,,,,,0,1,0.834595,0,3,3,3,1,0,calpar,REAL,FAKE,,,,,,,,,,,,,,,,,,,,,,,,,,,,,,,
,,,,,,,5e5e11aed2420e129dc155ce,60568611ec04488a9e9da93b,6056a98fe4659ec0ed80cb41,United States,Midwest,13 or older,no,2021-03-20_20h04.49.112,empathy_intonation_perc,2020.2.10,MacIntel,60,,,,,,,,,,0,,,,,,,,,,,,,,,,,,,,,,,,,,,,,,,,0,1,0.66667,0,4,4,4,1,0,joten,REAL,FAKE,,,,,,,,,,,,,,,,,,,,,,,,,,,,,,,
,,,,,,,5e5e11aed2420e129dc155ce,60568611ec04488a9e9da93b,6056a98fe4659ec0ed80cb41,United States,Midwest,13 or older,no,2021-03-20_20h04.49.112,empathy_intonation_perc,2020.2.10,MacIntel,60,,,,,,,,,,1,,,,,,,,,,,,,,,,,,,,,,,,,,,,,,,,0,0,1.01801,0,5,5,5,1,0,sacapuntas,REAL,FAKE,,,,,,,,,,,,,,,,,,,,,,,,,,,,,,,
,,,,,,,5e5e11aed2420e129dc155ce,60568611ec04488a9e9da93b,6056a98fe4659ec0ed80cb41,United States,Midwest,13 or older,no,2021-03-20_20h04.49.112,empathy_intonation_perc,2020.2.10,MacIntel,60,,,,,,,,,,0,,,,,,,,,,,,,,,,,,,,,,,,,,,,,,,,0,1,0.898885,0,6,6,6,1,0,priba,REAL,FAKE,,,,,,,,,,,,,,,,,,,,,,,,,,,,,,,
,,,,,,,5e5e11aed2420e129dc155ce,60568611ec04488a9e9da93b,6056a98fe4659ec0ed80cb41,United States,Midwest,13 or older,no,2021-03-20_20h04.49.112,empathy_intonation_perc,2020.2.10,MacIntel,60,,,,,,,,,,0,,,,,,,,,,,,,,,,,,,,,,,,,,,,,,,,0,1,1.236935,0,7,7,7,1,0,pelasula,REAL,FAKE,,,,,,,,,,,,,,,,,,,,,,,,,,,,,,,
,,,,,,,5e5e11aed2420e129dc155ce,60568611ec04488a9e9da93b,6056a98fe4659ec0ed80cb41,United States,Midwest,13 or older,no,2021-03-20_20h04.49.112,empathy_intonation_perc,2020.2.10,MacIntel,60,,,,,,,,,,1,,,,,,,,,,,,,,,,,,,,,,,,,,,,,,,,1,1,0.86407,0,8,8,8,1,0,bien,REAL,FAKE,,,,,,,,,,,,,,,,,,,,,,,,,,,,,,,
,,,,,,,5e5e11aed2420e129dc155ce,60568611ec04488a9e9da93b,6056a98fe4659ec0ed80cb41,United States,Midwest,13 or older,no,2021-03-20_20h04.49.112,empathy_intonation_perc,2020.2.10,MacIntel,60,,,,,,,,,,1,,,,,,,,,,,,,,,,,,,,,,,,,,,,,,,,1,1,0.73579,0,9,9,9,1,0,casa,REAL,FAKE,,,,,,,,,,,,,,,,,,,,,,,,,,,,,,,
,,,,,,,5e5e11aed2420e129dc155ce,60568611ec04488a9e9da93b,6056a98fe4659ec0ed80cb41,United States,Midwest,13 or older,no,2021-03-20_20h04.49.112,empathy_intonation_perc,2020.2.10,MacIntel,60,,,,,,,,,,0,,,,,,,,,,,,,,,,,,,,,,,,,,,,,,,,0,1,0.99977,0,10,10,10,1,0,lejo,REAL,FAKE,,,,,,,,,,,,,,,,,,,,,,,,,,,,,,,
,,,,,,,5e5e11aed2420e129dc155ce,60568611ec04488a9e9da93b,6056a98fe4659ec0ed80cb41,United States,Midwest,13 or older,no,2021-03-20_20h04.49.112,empathy_intonation_perc,2020.2.10,MacIntel,60,,,,,,,,,,0,,,,,,,,,,,,,,,,,,,,,,,,,,,,,,,,0,1,1.167555,0,11,11,11,1,0,pretantas,REAL,FAKE,,,,,,,,,,,,,,,,,,,,,,,,,,,,,,,
,,,,,,,5e5e11aed2420e129dc155ce,60568611ec04488a9e9da93b,6056a98fe4659ec0ed80cb41,United States,Midwest,13 or older,no,2021-03-20_20h04.49.112,empathy_intonation_perc,2020.2.10,MacIntel,60,,,,,,,,,,1,,,,,,,,,,,,,,,,,,,,,,,,,,,,,,,,,,,,,,,,85,lad,,,0,0,0.78268,0,0,0,84,1,REAL,FAKE,,,,,,,,,,,,,,,,,,,,,
,,,,,,,5e5e11aed2420e129dc155ce,60568611ec04488a9e9da93b,6056a98fe4659ec0ed80cb41,United States,Midwest,13 or older,no,2021-03-20_20h04.49.112,empathy_intonation_perc,2020.2.10,MacIntel,60,,,,,,,,,,1,,,,,,,,,,,,,,,,,,,,,,,,,,,,,,,,,,,,,,,,25,bisagra,,,0,0,1.05114,0,1,1,24,1,REAL,FAKE,,,,,,,,,,,,,,,,,,,,,
,,,,,,,5e5e11aed2420e129dc155ce,60568611ec04488a9e9da93b,6056a98fe4659ec0ed80cb41,United States,Midwest,13 or older,no,2021-03-20_20h04.49.112,empathy_intonation_perc,2020.2.10,MacIntel,60,,,,,,,,,,0,,,,,,,,,,,,,,,,,,,,,,,,,,,,,,,,,,,,,,,,53,vegada,,,0,1,0.801765,0,2,2,52,1,REAL,FAKE,,,,,,,,,,,,,,,,,,,,,
,,,,,,,5e5e11aed2420e129dc155ce,60568611ec04488a9e9da93b,6056a98fe4659ec0ed80cb41,United States,Midwest,13 or older,no,2021-03-20_20h04.49.112,empathy_intonation_perc,2020.2.10,MacIntel,60,,,,,,,,,,0,,,,,,,,,,,,,,,,,,,,,,,,,,,,,,,,,,,,,,,,70,temblo,,,0,1,0.717205,0,3,3,69,1,REAL,FAKE,,,,,,,,,,,,,,,,,,,,,
,,,,,,,5e5e11aed2420e129dc155ce,60568611ec04488a9e9da93b,6056a98fe4659ec0ed80cb41,United States,Midwest,13 or older,no,2021-03-20_20h04.49.112,empathy_intonation_perc,2020.2.10,MacIntel,60,,,,,,,,,,0,,,,,,,,,,,,,,,,,,,,,,,,,,,,,,,,,,,,,,,,50,flamida,,,0,1,0.644775,0,4,4,49,1,REAL,FAKE,,,,,,,,,,,,,,,,,,,,,
,,,,,,,5e5e11aed2420e129dc155ce,60568611ec04488a9e9da93b,6056a98fe4659ec0ed80cb41,United States,Midwest,13 or older,no,2021-03-20_20h04.49.112,empathy_intonation_perc,2020.2.10,MacIntel,60,,,,,,,,,,0,,,,,,,,,,,,,,,,,,,,,,,,,,,,,,,,,,,,,,,,19,brecedad,,,0,1,0.66692,0,5,5,18,1,REAL,FAKE,,,,,,,,,,,,,,,,,,,,,
,,,,,,,5e5e11aed2420e129dc155ce,60568611ec04488a9e9da93b,6056a98fe4659ec0ed80cb41,United States,Midwest,13 or older,no,2021-03-20_20h04.49.112,empathy_intonation_perc,2020.2.10,MacIntel,60,,,,,,,,,,0,,,,,,,,,,,,,,,,,,,,,,,,,,,,,,,,,,,,,,,,84,escuto,,,0,1,0.632965,0,6,6,83,1,REAL,FAKE,,,,,,,,,,,,,,,,,,,,,
,,,,,,,5e5e11aed2420e129dc155ce,60568611ec04488a9e9da93b,6056a98fe4659ec0ed80cb41,United States,Midwest,13 or older,no,2021-03-20_20h04.49.112,empathy_intonation_perc,2020.2.10,MacIntel,60,,,,,,,,,,0,,,,,,,,,,,,,,,,,,,,,,,,,,,,,,,,,,,,,,,,16,abracer,,,1,0,1.435095,0,7,7,15,1,REAL,FAKE,,,,,,,,,,,,,,,,,,,,,
,,,,,,,5e5e11aed2420e129dc155ce,60568611ec04488a9e9da93b,6056a98fe4659ec0ed80cb41,United States,Midwest,13 or older,no,2021-03-20_20h04.49.112,empathy_intonation_perc,2020.2.10,MacIntel,60,,,,,,,,,,1,,,,,,,,,,,,,,,,,,,,,,,,,,,,,,,,,,,,,,,,54,fomentar,,,0,0,0.703345,0,8,8,53,1,REAL,FAKE,,,,,,,,,,,,,,,,,,,,,
,,,,,,,5e5e11aed2420e129dc155ce,60568611ec04488a9e9da93b,6056a98fe4659ec0ed80cb41,United States,Midwest,13 or older,no,2021-03-20_20h04.49.112,empathy_intonation_perc,2020.2.10,MacIntel,60,,,,,,,,,,0,,,,,,,,,,,,,,,,,,,,,,,,,,,,,,,,,,,,,,,,58,plaudir,,,0,1,0.68516,0,9,9,57,1,REAL,FAKE,,,,,,,,,,,,,,,,,,,,,
,,,,,,,5e5e11aed2420e129dc155ce,60568611ec04488a9e9da93b,6056a98fe4659ec0ed80cb41,United States,Midwest,13 or older,no,2021-03-20_20h04.49.112,empathy_intonation_perc,2020.2.10,MacIntel,60,,,,,,,,,,1,,,,,,,,,,,,,,,,,,,,,,,,,,,,,,,,,,,,,,,,68,alegre,,,0,0,2.319525,0,10,10,67,1,REAL,FAKE,,,,,,,,,,,,,,,,,,,,,
,,,,,,,5e5e11aed2420e129dc155ce,60568611ec04488a9e9da93b,6056a98fe4659ec0ed80cb41,United States,Midwest,13 or older,no,2021-03-20_20h04.49.112,empathy_intonation_perc,2020.2.10,MacIntel,60,,,,,,,,,,1,,,,,,,,,,,,,,,,,,,,,,,,,,,,,,,,,,,,,,,,31,pandilla,,,0,0,0.805745,0,11,11,30,1,REAL,FAKE,,,,,,,,,,,,,,,,,,,,,
,,,,,,,5e5e11aed2420e129dc155ce,60568611ec04488a9e9da93b,6056a98fe4659ec0ed80cb41,United States,Midwest,13 or older,no,2021-03-20_20h04.49.112,empathy_intonation_perc,2020.2.10,MacIntel,60,,,,,,,,,,1,,,,,,,,,,,,,,,,,,,,,,,,,,,,,,,,,,,,,,,,90,clavel,,,0,0,0.64189,0,12,12,89,1,REAL,FAKE,,,,,,,,,,,,,,,,,,,,,
,,,,,,,5e5e11aed2420e129dc155ce,60568611ec04488a9e9da93b,6056a98fe4659ec0ed80cb41,United States,Midwest,13 or older,no,2021-03-20_20h04.49.112,empathy_intonation_perc,2020.2.10,MacIntel,60,,,,,,,,,,0,,,,,,,,,,,,,,,,,,,,,,,,,,,,,,,,,,,,,,,,35,rompido,,,0,1,1.16482,0,13,13,34,1,REAL,FAKE,,,,,,,,,,,,,,,,,,,,,
,,,,,,,5e5e11aed2420e129dc155ce,60568611ec04488a9e9da93b,6056a98fe4659ec0ed80cb41,United States,Midwest,13 or older,no,2021-03-20_20h04.49.112,empathy_intonation_perc,2020.2.10,MacIntel,60,,,,,,,,,,1,,,,,,,,,,,,,,,,,,,,,,,,,,,,,,,,,,,,,,,,51,candado,,,0,0,1.52289,0,14,14,50,1,REAL,FAKE,,,,,,,,,,,,,,,,,,,,,
,,,,,,,5e5e11aed2420e129dc155ce,60568611ec04488a9e9da93b,6056a98fe4659ec0ed80cb41,United States,Midwest,13 or older,no,2021-03-20_20h04.49.112,empathy_intonation_perc,2020.2.10,MacIntel,60,,,,,,,,,,1,,,,,,,,,,,,,,,,,,,,,,,,,,,,,,,,,,,,,,,,12,asesinato,,,0,0,0.76917,0,15,15,11,1,REAL,FAKE,,,,,,,,,,,,,,,,,,,,,
,,,,,,,5e5e11aed2420e129dc155ce,60568611ec04488a9e9da93b,6056a98fe4659ec0ed80cb41,United States,Midwest,13 or older,no,2021-03-20_20h04.49.112,empathy_intonation_perc,2020.2.10,MacIntel,60,,,,,,,,,,1,,,,,,,,,,,,,,,,,,,,,,,,,,,,,,,,,,,,,,,,46,martillo,,,0,0,0.6662,0,16,16,45,1,REAL,FAKE,,,,,,,,,,,,,,,,,,,,,
,,,,,,,5e5e11aed2420e129dc155ce,60568611ec04488a9e9da93b,6056a98fe4659ec0ed80cb41,United States,Midwest,13 or older,no,2021-03-20_20h04.49.112,empathy_intonation_perc,2020.2.10,MacIntel,60,,,,,,,,,,0,,,,,,,,,,,,,,,,,,,,,,,,,,,,,,,,,,,,,,,,21,capillo,,,0,1,0.58343,0,17,17,20,1,REAL,FAKE,,,,,,,,,,,,,,,,,,,,,
,,,,,,,5e5e11aed2420e129dc155ce,60568611ec04488a9e9da93b,6056a98fe4659ec0ed80cb41,United States,Midwest,13 or older,no,2021-03-20_20h04.49.112,empathy_intonation_perc,2020.2.10,MacIntel,60,,,,,,,,,,1,,,,,,,,,,,,,,,,,,,,,,,,,,,,,,,,,,,,,,,,40,alfombra,,,0,0,0.618165,0,18,18,39,1,REAL,FAKE,,,,,,,,,,,,,,,,,,,,,
,,,,,,,5e5e11aed2420e129dc155ce,60568611ec04488a9e9da93b,6056a98fe4659ec0ed80cb41,United States,Midwest,13 or older,no,2021-03-20_20h04.49.112,empathy_intonation_perc,2020.2.10,MacIntel,60,,,,,,,,,,1,,,,,,,,,,,,,,,,,,,,,,,,,,,,,,,,,,,,,,,,86,barato,,,0,0,0.8249,0,19,19,85,1,REAL,FAKE,,,,,,,,,,,,,,,,,,,,,
,,,,,,,5e5e11aed2420e129dc155ce,60568611ec04488a9e9da93b,6056a98fe4659ec0ed80cb41,United States,Midwest,13 or older,no,2021-03-20_20h04.49.112,empathy_intonation_perc,2020.2.10,MacIntel,60,,,,,,,,,,0,,,,,,,,,,,,,,,,,,,,,,,,,,,,,,,,,,,,,,,,30,alardio,,,0,1,0.55536,0,20,20,29,1,REAL,FAKE,,,,,,,,,,,,,,,,,,,,,
,,,,,,,5e5e11aed2420e129dc155ce,60568611ec04488a9e9da93b,6056a98fe4659ec0ed80cb41,United States,Midwest,13 or older,no,2021-03-20_20h04.49.112,empathy_intonation_perc,2020.2.10,MacIntel,60,,,,,,,,,,1,,,,,,,,,,,,,,,,,,,,,,,,,,,,,,,,,,,,,,,,65,bizcocho,,,0,0,0.610265,0,21,21,64,1,REAL,FAKE,,,,,,,,,,,,,,,,,,,,,
,,,,,,,5e5e11aed2420e129dc155ce,60568611ec04488a9e9da93b,6056a98fe4659ec0ed80cb41,United States,Midwest,13 or older,no,2021-03-20_20h04.49.112,empathy_intonation_perc,2020.2.10,MacIntel,60,,,,,,,,,,1,,,,,,,,,,,,,,,,,,,,,,,,,,,,,,,,,,,,,,,,39,torpe,,,0,0,0.58356,0,22,22,38,1,REAL,FAKE,,,,,,,,,,,,,,,,,,,,,
,,,,,,,5e5e11aed2420e129dc155ce,60568611ec04488a9e9da93b,6056a98fe4659ec0ed80cb41,United States,Midwest,13 or older,no,2021-03-20_20h04.49.112,empathy_intonation_perc,2020.2.10,MacIntel,60,,,,,,,,,,1,,,,,,,,,,,,,,,,,,,,,,,,,,,,,,,,,,,,,,,,28,merodear,,,0,0,0.56937,0,23,23,27,1,REAL,FAKE,,,,,,,,,,,,,,,,,,,,,
,,,,,,,5e5e11aed2420e129dc155ce,60568611ec04488a9e9da93b,6056a98fe4659ec0ed80cb41,United States,Midwest,13 or older,no,2021-03-20_20h04.49.112,empathy_intonation_perc,2020.2.10,MacIntel,60,,,,,,,,,,0,,,,,,,,,,,,,,,,,,,,,,,,,,,,,,,,,,,,,,,,33,pauca,,,0,1,0.634295,0,24,24,32,1,REAL,FAKE,,,,,,,,,,,,,,,,,,,,,
,,,,,,,5e5e11aed2420e129dc155ce,60568611ec04488a9e9da93b,6056a98fe4659ec0ed80cb41,United States,Midwest,13 or older,no,2021-03-20_20h04.49.112,empathy_intonation_perc,2020.2.10,MacIntel,60,,,,,,,,,,1,,,,,,,,,,,,,,,,,,,,,,,,,,,,,,,,,,,,,,,,57,tacao,,,0,0,0.701775,0,25,25,56,1,REAL,FAKE,,,,,,,,,,,,,,,,,,,,,
,,,,,,,5e5e11aed2420e129dc155ce,60568611ec04488a9e9da93b,6056a98fe4659ec0ed80cb41,United States,Midwest,13 or older,no,2021-03-20_20h04.49.112,empathy_intonation_perc,2020.2.10,MacIntel,60,,,,,,,,,,1,,,,,,,,,,,,,,,,,,,,,,,,,,,,,,,,,,,,,,,,48,ladrn,,,0,0,0.534175,0,26,26,47,1,REAL,FAKE,,,,,,,,,,,,,,,,,,,,,
,,,,,,,5e5e11aed2420e129dc155ce,60568611ec04488a9e9da93b,6056a98fe4659ec0ed80cb41,United States,Midwest,13 or older,no,2021-03-20_20h04.49.112,empathy_intonation_perc,2020.2.10,MacIntel,60,,,,,,,,,,1,,,,,,,,,,,,,,,,,,,,,,,,,,,,,,,,,,,,,,,,56,musgo,,,0,0,0.6026,0,27,27,55,1,REAL,FAKE,,,,,,,,,,,,,,,,,,,,,
,,,,,,,5e5e11aed2420e129dc155ce,60568611ec04488a9e9da93b,6056a98fe4659ec0ed80cb41,United States,Midwest,13 or older,no,2021-03-20_20h04.49.112,empathy_intonation_perc,2020.2.10,MacIntel,60,,,,,,,,,,1,,,,,,,,,,,,,,,,,,,,,,,,,,,,,,,,,,,,,,,,9,hacha,,,0,0,0.86789,0,28,28,8,1,REAL,FAKE,,,,,,,,,,,,,,,,,,,,,
,,,,,,,5e5e11aed2420e129dc155ce,60568611ec04488a9e9da93b,6056a98fe4659ec0ed80cb41,United States,Midwest,13 or older,no,2021-03-20_20h04.49.112,empathy_intonation_perc,2020.2.10,MacIntel,60,,,,,,,,,,1,,,,,,,,,,,,,,,,,,,,,,,,,,,,,,,,,,,,,,,,61,seda,,,0,0,0.49888,0,29,29,60,1,REAL,FAKE,,,,,,,,,,,,,,,,,,,,,
,,,,,,,5e5e11aed2420e129dc155ce,60568611ec04488a9e9da93b,6056a98fe4659ec0ed80cb41,United States,Midwest,13 or older,no,2021-03-20_20h04.49.112,empathy_intonation_perc,2020.2.10,MacIntel,60,,,,,,,,,,1,,,,,,,,,,,,,,,,,,,,,,,,,,,,,,,,,,,,,,,,71,polvoriento,,,0,0,0.617565,0,30,30,70,1,REAL,FAKE,,,,,,,,,,,,,,,,,,,,,
,,,,,,,5e5e11aed2420e129dc155ce,60568611ec04488a9e9da93b,6056a98fe4659ec0ed80cb41,United States,Midwest,13 or older,no,2021-03-20_20h04.49.112,empathy_intonation_perc,2020.2.10,MacIntel,60,,,,,,,,,,1,,,,,,,,,,,,,,,,,,,,,,,,,,,,,,,,,,,,,,,,6,tergiversar,,,0,0,0.50017,0,31,31,5,1,REAL,FAKE,,,,,,,,,,,,,,,,,,,,,
,,,,,,,5e5e11aed2420e129dc155ce,60568611ec04488a9e9da93b,6056a98fe4659ec0ed80cb41,United States,Midwest,13 or older,no,2021-03-20_20h04.49.112,empathy_intonation_perc,2020.2.10,MacIntel,60,,,,,,,,,,1,,,,,,,,,,,,,,,,,,,,,,,,,,,,,,,,,,,,,,,,81,pozo,,,0,0,0.58355,0,32,32,80,1,REAL,FAKE,,,,,,,,,,,,,,,,,,,,,
,,,,,,,5e5e11aed2420e129dc155ce,60568611ec04488a9e9da93b,6056a98fe4659ec0ed80cb41,United States,Midwest,13 or older,no,2021-03-20_20h04.49.112,empathy_intonation_perc,2020.2.10,MacIntel,60,,,,,,,,,,1,,,,,,,,,,,,,,,,,,,,,,,,,,,,,,,,,,,,,,,,43,canela,,,0,0,0.55061,0,33,33,42,1,REAL,FAKE,,,,,,,,,,,,,,,,,,,,,
,,,,,,,5e5e11aed2420e129dc155ce,60568611ec04488a9e9da93b,6056a98fe4659ec0ed80cb41,United States,Midwest,13 or older,no,2021-03-20_20h04.49.112,empathy_intonation_perc,2020.2.10,MacIntel,60,,,,,,,,,,1,,,,,,,,,,,,,,,,,,,,,,,,,,,,,,,,,,,,,,,,13,helar,,,0,0,0.50156,0,34,34,12,1,REAL,FAKE,,,,,,,,,,,,,,,,,,,,,
,,,,,,,5e5e11aed2420e129dc155ce,60568611ec04488a9e9da93b,6056a98fe4659ec0ed80cb41,United States,Midwest,13 or older,no,2021-03-20_20h04.49.112,empathy_intonation_perc,2020.2.10,MacIntel,60,,,,,,,,,,1,,,,,,,,,,,,,,,,,,,,,,,,,,,,,,,,,,,,,,,,67,cabello,,,1,1,3.5409,0,35,35,66,1,REAL,FAKE,,,,,,,,,,,,,,,,,,,,,
,,,,,,,5e5e11aed2420e129dc155ce,60568611ec04488a9e9da93b,6056a98fe4659ec0ed80cb41,United States,Midwest,13 or older,no,2021-03-20_20h04.49.112,empathy_intonation_perc,2020.2.10,MacIntel,60,,,,,,,,,,0,,,,,,,,,,,,,,,,,,,,,,,,,,,,,,,,,,,,,,,,72,pemicin,,,0,1,0.534085,0,36,36,71,1,REAL,FAKE,,,,,,,,,,,,,,,,,,,,,
,,,,,,,5e5e11aed2420e129dc155ce,60568611ec04488a9e9da93b,6056a98fe4659ec0ed80cb41,United States,Midwest,13 or older,no,2021-03-20_20h04.49.112,empathy_intonation_perc,2020.2.10,MacIntel,60,,,,,,,,,,1,,,,,,,,,,,,,,,,,,,,,,,,,,,,,,,,,,,,,,,,44,cuchara,,,0,0,1.451955,0,37,37,43,1,REAL,FAKE,,,,,,,,,,,,,,,,,,,,,
,,,,,,,5e5e11aed2420e129dc155ce,60568611ec04488a9e9da93b,6056a98fe4659ec0ed80cb41,United States,Midwest,13 or older,no,2021-03-20_20h04.49.112,empathy_intonation_perc,2020.2.10,MacIntel,60,,,,,,,,,,0,,,,,,,,,,,,,,,,,,,,,,,,,,,,,,,,,,,,,,,,4,batilln,,,0,1,0.86258,0,38,38,3,1,REAL,FAKE,,,,,,,,,,,,,,,,,,,,,
,,,,,,,5e5e11aed2420e129dc155ce,60568611ec04488a9e9da93b,6056a98fe4659ec0ed80cb41,United States,Midwest,13 or older,no,2021-03-20_20h04.49.112,empathy_intonation_perc,2020.2.10,MacIntel,60,,,,,,,,,,1,,,,,,,,,,,,,,,,,,,,,,,,,,,,,,,,,,,,,,,,69,engatusar,,,0,0,1.339155,0,39,39,68,1,REAL,FAKE,,,,,,,,,,,,,,,,,,,,,
,,,,,,,5e5e11aed2420e129dc155ce,60568611ec04488a9e9da93b,6056a98fe4659ec0ed80cb41,United States,Midwest,13 or older,no,2021-03-20_20h04.49.112,empathy_intonation_perc,2020.2.10,MacIntel,60,,,,,,,,,,1,,,,,,,,,,,,,,,,,,,,,,,,,,,,,,,,,,,,,,,,5,zapato,,,1,1,3.80613,0,40,40,4,1,REAL,FAKE,,,,,,,,,,,,,,,,,,,,,
,,,,,,,5e5e11aed2420e129dc155ce,60568611ec04488a9e9da93b,6056a98fe4659ec0ed80cb41,United States,Midwest,13 or older,no,2021-03-20_20h04.49.112,empathy_intonation_perc,2020.2.10,MacIntel,60,,,,,,,,,,0,,,,,,,,,,,,,,,,,,,,,,,,,,,,,,,,,,,,,,,,66,hacido,,,0,1,1.027805,0,41,41,65,1,REAL,FAKE,,,,,,,,,,,,,,,,,,,,,
,,,,,,,5e5e11aed2420e129dc155ce,60568611ec04488a9e9da93b,6056a98fe4659ec0ed80cb41,United States,Midwest,13 or older,no,2021-03-20_20h04.49.112,empathy_intonation_perc,2020.2.10,MacIntel,60,,,,,,,,,,1,,,,,,,,,,,,,,,,,,,,,,,,,,,,,,,,,,,,,,,,78,frondoso,,,0,0,0.63588,0,42,42,77,1,REAL,FAKE,,,,,,,,,,,,,,,,,,,,,
,,,,,,,5e5e11aed2420e129dc155ce,60568611ec04488a9e9da93b,6056a98fe4659ec0ed80cb41,United States,Midwest,13 or older,no,2021-03-20_20h04.49.112,empathy_intonation_perc,2020.2.10,MacIntel,60,,,,,,,,,,1,,,,,,,,,,,,,,,,,,,,,,,,,,,,,,,,,,,,,,,,24,ltigo,,,0,0,0.61611,0,43,43,23,1,REAL,FAKE,,,,,,,,,,,,,,,,,,,,,
,,,,,,,5e5e11aed2420e129dc155ce,60568611ec04488a9e9da93b,6056a98fe4659ec0ed80cb41,United States,Midwest,13 or older,no,2021-03-20_20h04.49.112,empathy_intonation_perc,2020.2.10,MacIntel,60,,,,,,,,,,0,,,,,,,,,,,,,,,,,,,,,,,,,,,,,,,,,,,,,,,,47,cartinar,,,0,1,0.61784,0,44,44,46,1,REAL,FAKE,,,,,,,,,,,,,,,,,,,,,
,,,,,,,5e5e11aed2420e129dc155ce,60568611ec04488a9e9da93b,6056a98fe4659ec0ed80cb41,United States,Midwest,13 or older,no,2021-03-20_20h04.49.112,empathy_intonation_perc,2020.2.10,MacIntel,60,,,,,,,,,,1,,,,,,,,,,,,,,,,,,,,,,,,,,,,,,,,,,,,,,,,77,tiburn,,,0,0,0.466675,0,45,45,76,1,REAL,FAKE,,,,,,,,,,,,,,,,,,,,,
,,,,,,,5e5e11aed2420e129dc155ce,60568611ec04488a9e9da93b,6056a98fe4659ec0ed80cb41,United States,Midwest,13 or older,no,2021-03-20_20h04.49.112,empathy_intonation_perc,2020.2.10,MacIntel,60,,,,,,,,,,1,,,,,,,,,,,,,,,,,,,,,,,,,,,,,,,,,,,,,,,,3,pulmones,,,0,0,0.889605,0,46,46,2,1,REAL,FAKE,,,,,,,,,,,,,,,,,,,,,
,,,,,,,5e5e11aed2420e129dc155ce,60568611ec04488a9e9da93b,6056a98fe4659ec0ed80cb41,United States,Midwest,13 or older,no,2021-03-20_20h04.49.112,empathy_intonation_perc,2020.2.10,MacIntel,60,,,,,,,,,,1,,,,,,,,,,,,,,,,,,,,,,,,,,,,,,,,,,,,,,,,59,besar,,,0,0,0.594225,0,47,47,58,1,REAL,FAKE,,,,,,,,,,,,,,,,,,,,,
,,,,,,,5e5e11aed2420e129dc155ce,60568611ec04488a9e9da93b,6056a98fe4659ec0ed80cb41,United States,Midwest,13 or older,no,2021-03-20_20h04.49.112,empathy_intonation_perc,2020.2.10,MacIntel,60,,,,,,,,,,1,,,,,,,,,,,,,,,,,,,,,,,,,,,,,,,,,,,,,,,,55,nevar,,,0,0,0.558325,0,48,48,54,1,REAL,FAKE,,,,,,,,,,,,,,,,,,,,,
,,,,,,,5e5e11aed2420e129dc155ce,60568611ec04488a9e9da93b,6056a98fe4659ec0ed80cb41,United States,Midwest,13 or older,no,2021-03-20_20h04.49.112,empathy_intonation_perc,2020.2.10,MacIntel,60,,,,,,,,,,1,,,,,,,,,,,,,,,,,,,,,,,,,,,,,,,,,,,,,,,,37,granuja,,,0,0,0.47756,0,49,49,36,1,REAL,FAKE,,,,,,,,,,,,,,,,,,,,,
,,,,,,,5e5e11aed2420e129dc155ce,60568611ec04488a9e9da93b,6056a98fe4659ec0ed80cb41,United States,Midwest,13 or older,no,2021-03-20_20h04.49.112,empathy_intonation_perc,2020.2.10,MacIntel,60,,,,,,,,,,0,,,,,,,,,,,,,,,,,,,,,,,,,,,,,,,,,,,,,,,,27,acutacin,,,0,1,0.454885,0,50,50,26,1,REAL,FAKE,,,,,,,,,,,,,,,,,,,,,
,,,,,,,5e5e11aed2420e129dc155ce,60568611ec04488a9e9da93b,6056a98fe4659ec0ed80cb41,United States,Midwest,13 or older,no,2021-03-20_20h04.49.112,empathy_intonation_perc,2020.2.10,MacIntel,60,,,,,,,,,,1,,,,,,,,,,,,,,,,,,,,,,,,,,,,,,,,,,,,,,,,36,loro,,,0,0,0.58319,0,51,51,35,1,REAL,FAKE,,,,,,,,,,,,,,,,,,,,,
,,,,,,,5e5e11aed2420e129dc155ce,60568611ec04488a9e9da93b,6056a98fe4659ec0ed80cb41,United States,Midwest,13 or older,no,2021-03-20_20h04.49.112,empathy_intonation_perc,2020.2.10,MacIntel,60,,,,,,,,,,1,,,,,,,,,,,,,,,,,,,,,,,,,,,,,,,,,,,,,,,,73,hervidor,,,0,0,0.56858,0,52,52,72,1,REAL,FAKE,,,,,,,,,,,,,,,,,,,,,
,,,,,,,5e5e11aed2420e129dc155ce,60568611ec04488a9e9da93b,6056a98fe4659ec0ed80cb41,United States,Midwest,13 or older,no,2021-03-20_20h04.49.112,empathy_intonation_perc,2020.2.10,MacIntel,60,,,,,,,,,,0,,,,,,,,,,,,,,,,,,,,,,,,,,,,,,,,,,,,,,,,17,floroso,,,0,1,0.65344,0,53,53,16,1,REAL,FAKE,,,,,,,,,,,,,,,,,,,,,
,,,,,,,5e5e11aed2420e129dc155ce,60568611ec04488a9e9da93b,6056a98fe4659ec0ed80cb41,United States,Midwest,13 or older,no,2021-03-20_20h04.49.112,empathy_intonation_perc,2020.2.10,MacIntel,60,,,,,,,,,,1,,,,,,,,,,,,,,,,,,,,,,,,,,,,,,,,,,,,,,,,88,acantilado,,,0,0,0.584865,0,54,54,87,1,REAL,FAKE,,,,,,,,,,,,,,,,,,,,,
,,,,,,,5e5e11aed2420e129dc155ce,60568611ec04488a9e9da93b,6056a98fe4659ec0ed80cb41,United States,Midwest,13 or older,no,2021-03-20_20h04.49.112,empathy_intonation_perc,2020.2.10,MacIntel,60,,,,,,,,,,1,,,,,,,,,,,,,,,,,,,,,,,,,,,,,,,,,,,,,,,,76,atar,,,0,0,0.63283,0,55,55,75,1,REAL,FAKE,,,,,,,,,,,,,,,,,,,,,
,,,,,,,5e5e11aed2420e129dc155ce,60568611ec04488a9e9da93b,6056a98fe4659ec0ed80cb41,United States,Midwest,13 or older,no,2021-03-20_20h04.49.112,empathy_intonation_perc,2020.2.10,MacIntel,60,,,,,,,,,,0,,,,,,,,,,,,,,,,,,,,,,,,,,,,,,,,,,,,,,,,29,decar,,,0,1,0.47044,0,56,56,28,1,REAL,FAKE,,,,,,,,,,,,,,,,,,,,,
,,,,,,,5e5e11aed2420e129dc155ce,60568611ec04488a9e9da93b,6056a98fe4659ec0ed80cb41,United States,Midwest,13 or older,no,2021-03-20_20h04.49.112,empathy_intonation_perc,2020.2.10,MacIntel,60,,,,,,,,,,0,,,,,,,,,,,,,,,,,,,,,,,,,,,,,,,,,,,,,,,,10,antar,,,0,1,0.434455,0,57,57,9,1,REAL,FAKE,,,,,,,,,,,,,,,,,,,,,
,,,,,,,5e5e11aed2420e129dc155ce,60568611ec04488a9e9da93b,6056a98fe4659ec0ed80cb41,United States,Midwest,13 or older,no,2021-03-20_20h04.49.112,empathy_intonation_perc,2020.2.10,MacIntel,60,,,,,,,,,,1,,,,,,,,,,,,,,,,,,,,,,,,,,,,,,,,,,,,,,,,52,camisa,,,0,0,0.503495,0,58,58,51,1,REAL,FAKE,,,,,,,,,,,,,,,,,,,,,
,,,,,,,5e5e11aed2420e129dc155ce,60568611ec04488a9e9da93b,6056a98fe4659ec0ed80cb41,United States,Midwest,13 or older,no,2021-03-20_20h04.49.112,empathy_intonation_perc,2020.2.10,MacIntel,60,,,,,,,,,,1,,,,,,,,,,,,,,,,,,,,,,,,,,,,,,,,,,,,,,,,89,prisa,,,0,0,0.41808,0,59,59,88,1,REAL,FAKE,,,,,,,,,,,,,,,,,,,,,
,,,,,,,5e5e11aed2420e129dc155ce,60568611ec04488a9e9da93b,6056a98fe4659ec0ed80cb41,United States,Midwest,13 or older,no,2021-03-20_20h04.49.112,empathy_intonation_perc,2020.2.10,MacIntel,60,,,,,,,,,,0,,,,,,,,,,,,,,,,,,,,,,,,,,,,,,,,,,,,,,,,87,grodo,,,0,1,0.567815,0,60,60,86,1,REAL,FAKE,,,,,,,,,,,,,,,,,,,,,
,,,,,,,5e5e11aed2420e129dc155ce,60568611ec04488a9e9da93b,6056a98fe4659ec0ed80cb41,United States,Midwest,13 or older,no,2021-03-20_20h04.49.112,empathy_intonation_perc,2020.2.10,MacIntel,60,,,,,,,,,,0,,,,,,,,,,,,,,,,,,,,,,,,,,,,,,,,,,,,,,,,1,terzo,,,0,1,0.46841,0,61,61,0,1,REAL,FAKE,,,,,,,,,,,,,,,,,,,,,
,,,,,,,5e5e11aed2420e129dc155ce,60568611ec04488a9e9da93b,6056a98fe4659ec0ed80cb41,United States,Midwest,13 or older,no,2021-03-20_20h04.49.112,empathy_intonation_perc,2020.2.10,MacIntel,60,,,,,,,,,,1,,,,,,,,,,,,,,,,,,,,,,,,,,,,,,,,,,,,,,,,45,jilguero,,,0,0,0.418795,0,62,62,44,1,REAL,FAKE,,,,,,,,,,,,,,,,,,,,,
,,,,,,,5e5e11aed2420e129dc155ce,60568611ec04488a9e9da93b,6056a98fe4659ec0ed80cb41,United States,Midwest,13 or older,no,2021-03-20_20h04.49.112,empathy_intonation_perc,2020.2.10,MacIntel,60,,,,,,,,,,0,,,,,,,,,,,,,,,,,,,,,,,,,,,,,,,,,,,,,,,,42,cadallo,,,0,1,0.450885,0,63,63,41,1,REAL,FAKE,,,,,,,,,,,,,,,,,,,,,
,,,,,,,5e5e11aed2420e129dc155ce,60568611ec04488a9e9da93b,6056a98fe4659ec0ed80cb41,United States,Midwest,13 or older,no,2021-03-20_20h04.49.112,empathy_intonation_perc,2020.2.10,MacIntel,60,,,,,,,,,,0,,,,,,,,,,,,,,,,,,,,,,,,,,,,,,,,,,,,,,,,32,fatacidad,,,0,1,0.50379,0,64,64,31,1,REAL,FAKE,,,,,,,,,,,,,,,,,,,,,
,,,,,,,5e5e11aed2420e129dc155ce,60568611ec04488a9e9da93b,6056a98fe4659ec0ed80cb41,United States,Midwest,13 or older,no,2021-03-20_20h04.49.112,empathy_intonation_perc,2020.2.10,MacIntel,60,,,,,,,,,,1,,,,,,,,,,,,,,,,,,,,,,,,,,,,,,,,,,,,,,,,22,lacayo,,,0,0,0.46997,0,65,65,21,1,REAL,FAKE,,,,,,,,,,,,,,,,,,,,,
,,,,,,,5e5e11aed2420e129dc155ce,60568611ec04488a9e9da93b,6056a98fe4659ec0ed80cb41,United States,Midwest,13 or older,no,2021-03-20_20h04.49.112,empathy_intonation_perc,2020.2.10,MacIntel,60,,,,,,,,,,0,,,,,,,,,,,,,,,,,,,,,,,,,,,,,,,,,,,,,,,,79,tropaje,,,0,1,0.599855,0,66,66,78,1,REAL,FAKE,,,,,,,,,,,,,,,,,,,,,
,,,,,,,5e5e11aed2420e129dc155ce,60568611ec04488a9e9da93b,6056a98fe4659ec0ed80cb41,United States,Midwest,13 or older,no,2021-03-20_20h04.49.112,empathy_intonation_perc,2020.2.10,MacIntel,60,,,,,,,,,,1,,,,,,,,,,,,,,,,,,,,,,,,,,,,,,,,,,,,,,,,62,flaco,,,0,0,0.45274,0,67,67,61,1,REAL,FAKE,,,,,,,,,,,,,,,,,,,,,
,,,,,,,5e5e11aed2420e129dc155ce,60568611ec04488a9e9da93b,6056a98fe4659ec0ed80cb41,United States,Midwest,13 or older,no,2021-03-20_20h04.49.112,empathy_intonation_perc,2020.2.10,MacIntel,60,,,,,,,,,,0,,,,,,,,,,,,,,,,,,,,,,,,,,,,,,,,,,,,,,,,18,arsa,,,0,1,0.4334,0,68,68,17,1,REAL,FAKE,,,,,,,,,,,,,,,,,,,,,
,,,,,,,5e5e11aed2420e129dc155ce,60568611ec04488a9e9da93b,6056a98fe4659ec0ed80cb41,United States,Midwest,13 or older,no,2021-03-20_20h04.49.112,empathy_intonation_perc,2020.2.10,MacIntel,60,,,,,,,,,,1,,,,,,,,,,,,,,,,,,,,,,,,,,,,,,,,,,,,,,,,14,yunque,,,0,0,0.46741,0,69,69,13,1,REAL,FAKE,,,,,,,,,,,,,,,,,,,,,
,,,,,,,5e5e11aed2420e129dc155ce,60568611ec04488a9e9da93b,6056a98fe4659ec0ed80cb41,United States,Midwest,13 or older,no,2021-03-20_20h04.49.112,empathy_intonation_perc,2020.2.10,MacIntel,60,,,,,,,,,,0,,,,,,,,,,,,,,,,,,,,,,,,,,,,,,,,,,,,,,,,74,cintro,,,0,1,0.400715,0,70,70,73,1,REAL,FAKE,,,,,,,,,,,,,,,,,,,,,
,,,,,,,5e5e11aed2420e129dc155ce,60568611ec04488a9e9da93b,6056a98fe4659ec0ed80cb41,United States,Midwest,13 or older,no,2021-03-20_20h04.49.112,empathy_intonation_perc,2020.2.10,MacIntel,60,,,,,,,,,,1,,,,,,,,,,,,,,,,,,,,,,,,,,,,,,,,,,,,,,,,80,hormiga,,,0,0,0.42092,0,71,71,79,1,REAL,FAKE,,,,,,,,,,,,,,,,,,,,,
,,,,,,,5e5e11aed2420e129dc155ce,60568611ec04488a9e9da93b,6056a98fe4659ec0ed80cb41,United States,Midwest,13 or older,no,2021-03-20_20h04.49.112,empathy_intonation_perc,2020.2.10,MacIntel,60,,,,,,,,,,1,,,,,,,,,,,,,,,,,,,,,,,,,,,,,,,,,,,,,,,,7,psimo,,,0,0,0.43362,0,72,72,6,1,REAL,FAKE,,,,,,,,,,,,,,,,,,,,,
,,,,,,,5e5e11aed2420e129dc155ce,60568611ec04488a9e9da93b,6056a98fe4659ec0ed80cb41,United States,Midwest,13 or older,no,2021-03-20_20h04.49.112,empathy_intonation_perc,2020.2.10,MacIntel,60,,,,,,,,,,1,,,,,,,,,,,,,,,,,,,,,,,,,,,,,,,,,,,,,,,,64,orgulloso,,,0,0,0.418355,0,73,73,63,1,REAL,FAKE,,,,,,,,,,,,,,,,,,,,,
,,,,,,,5e5e11aed2420e129dc155ce,60568611ec04488a9e9da93b,6056a98fe4659ec0ed80cb41,United States,Midwest,13 or older,no,2021-03-20_20h04.49.112,empathy_intonation_perc,2020.2.10,MacIntel,60,,,,,,,,,,1,,,,,,,,,,,,,,,,,,,,,,,,,,,,,,,,,,,,,,,,38,estornudar,,,0,0,0.433415,0,74,74,37,1,REAL,FAKE,,,,,,,,,,,,,,,,,,,,,
,,,,,,,5e5e11aed2420e129dc155ce,60568611ec04488a9e9da93b,6056a98fe4659ec0ed80cb41,United States,Midwest,13 or older,no,2021-03-20_20h04.49.112,empathy_intonation_perc,2020.2.10,MacIntel,60,,,,,,,,,,1,,,,,,,,,,,,,,,,,,,,,,,,,,,,,,,,,,,,,,,,2,pellizcar,,,0,0,0.4175,0,75,75,1,1,REAL,FAKE,,,,,,,,,,,,,,,,,,,,,
,,,,,,,5e5e11aed2420e129dc155ce,60568611ec04488a9e9da93b,6056a98fe4659ec0ed80cb41,United States,Midwest,13 or older,no,2021-03-20_20h04.49.112,empathy_intonation_perc,2020.2.10,MacIntel,60,,,,,,,,,,0,,,,,,,,,,,,,,,,,,,,,,,,,,,,,,,,,,,,,,,,8,cadea,,,0,1,0.43351,0,76,76,7,1,REAL,FAKE,,,,,,,,,,,,,,,,,,,,,
,,,,,,,5e5e11aed2420e129dc155ce,60568611ec04488a9e9da93b,6056a98fe4659ec0ed80cb41,United States,Midwest,13 or older,no,2021-03-20_20h04.49.112,empathy_intonation_perc,2020.2.10,MacIntel,60,,,,,,,,,,1,,,,,,,,,,,,,,,,,,,,,,,,,,,,,,,,,,,,,,,,26,secuestro,,,0,0,0.51428,0,77,77,25,1,REAL,FAKE,,,,,,,,,,,,,,,,,,,,,
,,,,,,,5e5e11aed2420e129dc155ce,60568611ec04488a9e9da93b,6056a98fe4659ec0ed80cb41,United States,Midwest,13 or older,no,2021-03-20_20h04.49.112,empathy_intonation_perc,2020.2.10,MacIntel,60,,,,,,,,,,1,,,,,,,,,,,,,,,,,,,,,,,,,,,,,,,,,,,,,,,,60,matar,,,0,0,0.60144,0,78,78,59,1,REAL,FAKE,,,,,,,,,,,,,,,,,,,,,
,,,,,,,5e5e11aed2420e129dc155ce,60568611ec04488a9e9da93b,6056a98fe4659ec0ed80cb41,United States,Midwest,13 or older,no,2021-03-20_20h04.49.112,empathy_intonation_perc,2020.2.10,MacIntel,60,,,,,,,,,,1,,,,,,,,,,,,,,,,,,,,,,,,,,,,,,,,,,,,,,,,75,yacer,,,0,0,0.468845,0,79,79,74,1,REAL,FAKE,,,,,,,,,,,,,,,,,,,,,
,,,,,,,5e5e11aed2420e129dc155ce,60568611ec04488a9e9da93b,6056a98fe4659ec0ed80cb41,United States,Midwest,13 or older,no,2021-03-20_20h04.49.112,empathy_intonation_perc,2020.2.10,MacIntel,60,,,,,,,,,,0,,,,,,,,,,,,,,,,,,,,,,,,,,,,,,,,,,,,,,,,82,empirador,,,0,1,0.667475,0,80,80,81,1,REAL,FAKE,,,,,,,,,,,,,,,,,,,,,
,,,,,,,5e5e11aed2420e129dc155ce,60568611ec04488a9e9da93b,6056a98fe4659ec0ed80cb41,United States,Midwest,13 or older,no,2021-03-20_20h04.49.112,empathy_intonation_perc,2020.2.10,MacIntel,60,,,,,,,,,,1,,,,,,,,,,,,,,,,,,,,,,,,,,,,,,,,,,,,,,,,34,aviso,,,0,0,0.468165,0,81,81,33,1,REAL,FAKE,,,,,,,,,,,,,,,,,,,,,
,,,,,,,5e5e11aed2420e129dc155ce,60568611ec04488a9e9da93b,6056a98fe4659ec0ed80cb41,United States,Midwest,13 or older,no,2021-03-20_20h04.49.112,empathy_intonation_perc,2020.2.10,MacIntel,60,,,,,,,,,,0,,,,,,,,,,,,,,,,,,,,,,,,,,,,,,,,,,,,,,,,23,lampera,,,0,1,0.585395,0,82,82,22,1,REAL,FAKE,,,,,,,,,,,,,,,,,,,,,
,,,,,,,5e5e11aed2420e129dc155ce,60568611ec04488a9e9da93b,6056a98fe4659ec0ed80cb41,United States,Midwest,13 or older,no,2021-03-20_20h04.49.112,empathy_intonation_perc,2020.2.10,MacIntel,60,,,,,,,,,,1,,,,,,,,,,,,,,,,,,,,,,,,,,,,,,,,,,,,,,,,15,regar,,,0,0,0.46549,0,83,83,14,1,REAL,FAKE,,,,,,,,,,,,,,,,,,,,,
,,,,,,,5e5e11aed2420e129dc155ce,60568611ec04488a9e9da93b,6056a98fe4659ec0ed80cb41,United States,Midwest,13 or older,no,2021-03-20_20h04.49.112,empathy_intonation_perc,2020.2.10,MacIntel,60,,,,,,,,,,0,,,,,,,,,,,,,,,,,,,,,,,,,,,,,,,,,,,,,,,,63,esposante,,,0,1,0.48889,0,84,84,62,1,REAL,FAKE,,,,,,,,,,,,,,,,,,,,,
,,,,,,,5e5e11aed2420e129dc155ce,60568611ec04488a9e9da93b,6056a98fe4659ec0ed80cb41,United States,Midwest,13 or older,no,2021-03-20_20h04.49.112,empathy_intonation_perc,2020.2.10,MacIntel,60,,,,,,,,,,1,,,,,,,,,,,,,,,,,,,,,,,,,,,,,,,,,,,,,,,,49,ganar,,,0,0,0.400595,0,85,85,48,1,REAL,FAKE,,,,,,,,,,,,,,,,,,,,,
,,,,,,,5e5e11aed2420e129dc155ce,60568611ec04488a9e9da93b,6056a98fe4659ec0ed80cb41,United States,Midwest,13 or older,no,2021-03-20_20h04.49.112,empathy_intonation_perc,2020.2.10,MacIntel,60,,,,,,,,,,1,,,,,,,,,,,,,,,,,,,,,,,,,,,,,,,,,,,,,,,,11,cenefa,,,0,0,0.457035,0,86,86,10,1,REAL,FAKE,,,,,,,,,,,,,,,,,,,,,
,,,,,,,5e5e11aed2420e129dc155ce,60568611ec04488a9e9da93b,6056a98fe4659ec0ed80cb41,United States,Midwest,13 or older,no,2021-03-20_20h04.49.112,empathy_intonation_perc,2020.2.10,MacIntel,60,,,,,,,,,,1,,,,,,,,,,,,,,,,,,,,,,,,,,,,,,,,,,,,,,,,41,rebuscar,,,0,0,0.46651,0,87,87,40,1,REAL,FAKE,,,,,,,,,,,,,,,,,,,,,
,,,,,,,5e5e11aed2420e129dc155ce,60568611ec04488a9e9da93b,6056a98fe4659ec0ed80cb41,United States,Midwest,13 or older,no,2021-03-20_20h04.49.112,empathy_intonation_perc,2020.2.10,MacIntel,60,,,,,,,,,,1,,,,,,,,,,,,,,,,,,,,,,,,,,,,,,,,,,,,,,,,83,guante,,,0,0,0.484705,0,88,88,82,1,REAL,FAKE,,,,,,,,,,,,,,,,,,,,,
,,,,,,,5e5e11aed2420e129dc155ce,60568611ec04488a9e9da93b,6056a98fe4659ec0ed80cb41,United States,Midwest,13 or older,no,2021-03-20_20h04.49.112,empathy_intonation_perc,2020.2.10,MacIntel,60,,,,,,,,,,1,,,,,,,,,,,,,,,,,,,,,,,,,,,,,,,,,,,,,,,,20,vido,,,0,0,0.451075,0,89,89,19,1,REAL,FAKE,,,,,,,,,,,,,,,,,,,,,
,,,,,,,5e5e11aed2420e129dc155ce,60568611ec04488a9e9da93b,6056a98fe4659ec0ed80cb41,United States,Midwest,13 or older,no,2021-03-20_20h04.49.112,empathy_intonation_perc,2020.2.10,MacIntel,60,,,,,,,,,,,,,,,,,,,,,,,,,,,,,,,,,,,,,,,,,,,,,,,,,,,,,,,,,,,,,,,,4,1,4.01786,1,0,0,0,0,0,1,,,,,,,,,,,
,,,,,,,5e5e11aed2420e129dc155ce,60568611ec04488a9e9da93b,6056a98fe4659ec0ed80cb41,United States,Midwest,13 or older,no,2021-03-20_20h04.49.112,empathy_intonation_perc,2020.2.10,MacIntel,60,,,,,,,,,,,,,,,,,,,,1,,,,,,,,,,,,,,,,,,,,,,,,,,,,,,,,,,,,,,,,,,,,,,,,,,,,,,1,0,0,0,0,1,I can easily tell if someone else wants to enter a conversation.,1,0,1,0
,,,,,,,5e5e11aed2420e129dc155ce,60568611ec04488a9e9da93b,6056a98fe4659ec0ed80cb41,United States,Midwest,13 or older,no,2021-03-20_20h04.49.112,empathy_intonation_perc,2020.2.10,MacIntel,60,,,,,,,,,,,,,,,,,,,,2,,,,,,,,,,,,,,,,,,,,,,,,,,,,,,,,,,,,,,,,,,,,,,,,,,,,,,2,0,1,1,1,1,I prefer animals to humans.,0,1,0,0
,,,,,,,5e5e11aed2420e129dc155ce,60568611ec04488a9e9da93b,6056a98fe4659ec0ed80cb41,United States,Midwest,13 or older,no,2021-03-20_20h04.49.112,empathy_intonation_perc,2020.2.10,MacIntel,60,,,,,,,,,,,,,,,,,,,,3,,,,,,,,,,,,,,,,,,,,,,,,,,,,,,,,,,,,,,,,,,,,,,,,,,,,,,4,0,2,2,2,1,I try to keep up with the current trends and fashions.,0,1,0,0
