instructions_2afc_loop.thisRepN,instructions_2afc_loop.thisTrialN,instructions_2afc_loop.thisN,instructions_2afc_loop.thisIndex,instructions_2afc_loop.ran,instructions_text,continue_text,participant,study_id,session,I am most familiar with Spanish from...*,What part of the US are you from?*,At what age did you begin learning Spanish?*,Are you proficient in any languages other than English/Spanish?*,date,expName,psychopyVersion,OS,frameRate,key_resp_2afc_practice.keys,key_resp_2afc_practice.corr,key_resp_2afc_practice.rt,trials_2afc_practice_loop.thisRepN,trials_2afc_practice_loop.thisTrialN,trials_2afc_practice_loop.thisN,trials_2afc_practice_loop.thisIndex,trials_2afc_practice_loop.ran,path,correct_response,the_col,key_resp_2afc_trial.keys,key_resp_2afc_trial.corr,key_resp_2afc_trial.rt,trials_2afc_loop.thisRepN,trials_2afc_loop.thisTrialN,trials_2afc_loop.thisN,trials_2afc_loop.thisIndex,trials_2afc_loop.ran,item_num,andalusian,argentine,castilian,chilean,cuban,mexican,peruvian,puertorican,key_resp_ac1.keys,key_resp_ac1.corr,key_resp_ac1.rt,ac1_loop.thisRepN,ac1_loop.thisTrialN,ac1_loop.thisN,ac1_loop.thisIndex,ac1_loop.ran,instructions_lextale_loop.thisRepN,instructions_lextale_loop.thisTrialN,instructions_lextale_loop.thisN,instructions_lextale_loop.thisIndex,instructions_lextale_loop.ran,key_resp_lextale_practice.keys,key_resp_lextale_practice.corr,key_resp_lextale_practice.rt,trials_lextale_practice_loop.thisRepN,trials_lextale_practice_loop.thisTrialN,trials_lextale_practice_loop.thisN,trials_lextale_practice_loop.thisIndex,trials_lextale_practice_loop.ran,stim,word,prac_button_real,prac_button_false,key_resp_lextale_trial.keys,key_resp_lextale_trial.corr,key_resp_lextale_trial.rt,trials_lextale_loop.thisRepN,trials_lextale_loop.thisTrialN,trials_lextale_loop.thisN,trials_lextale_loop.thisIndex,trials_lextale_loop.ran,button_real,button_false,key_resp_ac2.keys,key_resp_ac2.corr,key_resp_ac2.rt,check_pass,check_fails,ac2_loop.thisRepN,ac2_loop.thisTrialN,ac2_loop.thisN,ac2_loop.thisIndex,ac2_loop.ran,slider_eq_trial.response,trials_eq_loop.thisRepN,trials_eq_loop.thisTrialN,trials_eq_loop.thisN,trials_eq_loop.thisIndex,trials_eq_loop.ran,item,is_test_item,is_distractor,is_agree_score,is_disagree_score
0,0,0,0,1,"In the following task you are going to hear a series of utterances. 

  You will decide if the utterances sound like questions or not using your keyboard.",(press the spacebar to continue),5e92a1a4fc57e20f92eef47f,60568611ec04488a9e9da93b,6057830754f90515f6c1b42a,I am not familiar with Spanish,Northeast,NA,no,2021-03-21_10h35.15.558,empathy_intonation_perc,2020.2.10,Win32,60,,,,,,,,,,,,,,,,,,,,,,,,,,,,,,,,,,,,,,,,,,,,,,,,,,,,,,,,,,,,,,,,,,,,,,,,,,,,,,,,,,,,
0,1,1,1,1,"If you believe the utterance is a question, type '1' (for 'yes') and if you do not 
  believe it is a question type '0' (for 'no').

  Let's practice a bit...",(press the spacebar to continue),5e92a1a4fc57e20f92eef47f,60568611ec04488a9e9da93b,6057830754f90515f6c1b42a,I am not familiar with Spanish,Northeast,NA,no,2021-03-21_10h35.15.558,empathy_intonation_perc,2020.2.10,Win32,60,,,,,,,,,,,,,,,,,,,,,,,,,,,,,,,,,,,,,,,,,,,,,,,,,,,,,,,,,,,,,,,,,,,,,,,,,,,,,,,,,,,,
,,,,,,,5e92a1a4fc57e20f92eef47f,60568611ec04488a9e9da93b,6057830754f90515f6c1b42a,I am not familiar with Spanish,Northeast,NA,no,2021-03-21_10h35.15.558,empathy_intonation_perc,2020.2.10,Win32,60,0,1,5.324515,0,0,0,4,1,./stim/wavs/cuban_statement_filler_Cocinabas-por-la-noche.wav,0,,,,,,,,,,,,,,,,,,,,,,,,,,,,,,,,,,,,,,,,,,,,,,,,,,,,,,,,,,,,,,,,,,,,,,,,,,
,,,,,,,5e92a1a4fc57e20f92eef47f,60568611ec04488a9e9da93b,6057830754f90515f6c1b42a,I am not familiar with Spanish,Northeast,NA,no,2021-03-21_10h35.15.558,empathy_intonation_perc,2020.2.10,Win32,60,1,1,2.937055,0,1,1,0,1,./stim/wavs/castilian_question_filler_Mi-esposo-conoce-al-chico.wav,1,,,,,,,,,,,,,,,,,,,,,,,,,,,,,,,,,,,,,,,,,,,,,,,,,,,,,,,,,,,,,,,,,,,,,,,,,,
,,,,,,,5e92a1a4fc57e20f92eef47f,60568611ec04488a9e9da93b,6057830754f90515f6c1b42a,I am not familiar with Spanish,Northeast,NA,no,2021-03-21_10h35.15.558,empathy_intonation_perc,2020.2.10,Win32,60,0,1,3.036425,0,2,2,7,1,./stim/wavs/puertorican_statement_filler_La-nina-pinta-con-su-amiga.wav,0,,,,,,,,,,,,,,,,,,,,,,,,,,,,,,,,,,,,,,,,,,,,,,,,,,,,,,,,,,,,,,,,,,,,,,,,,,
,,,,,,,5e92a1a4fc57e20f92eef47f,60568611ec04488a9e9da93b,6057830754f90515f6c1b42a,I am not familiar with Spanish,Northeast,NA,no,2021-03-21_10h35.15.558,empathy_intonation_perc,2020.2.10,Win32,60,0,0,1.945685,0,3,3,2,1,./stim/wavs/chilean_question_filler_Mi-padre-cantaba-bien.wav,1,,,,,,,,,,,,,,,,,,,,,,,,,,,,,,,,,,,,,,,,,,,,,,,,,,,,,,,,,,,,,,,,,,,,,,,,,,
,,,,,,,5e92a1a4fc57e20f92eef47f,60568611ec04488a9e9da93b,6057830754f90515f6c1b42a,I am not familiar with Spanish,Northeast,NA,no,2021-03-21_10h35.15.558,empathy_intonation_perc,2020.2.10,Win32,60,0,1,1.87753,0,4,4,5,1,./stim/wavs/andalusian_statement_filler_Alberto-nunca-se-afeita.wav,0,,,,,,,,,,,,,,,,,,,,,,,,,,,,,,,,,,,,,,,,,,,,,,,,,,,,,,,,,,,,,,,,,,,,,,,,,,
,,,,,,,5e92a1a4fc57e20f92eef47f,60568611ec04488a9e9da93b,6057830754f90515f6c1b42a,I am not familiar with Spanish,Northeast,NA,no,2021-03-21_10h35.15.558,empathy_intonation_perc,2020.2.10,Win32,60,1,1,1.942325,0,5,5,1,1,./stim/wavs/argentine_question_filler_Mi-vecino-habla-mucho.wav,1,,,,,,,,,,,,,,,,,,,,,,,,,,,,,,,,,,,,,,,,,,,,,,,,,,,,,,,,,,,,,,,,,,,,,,,,,,
,,,,,,,5e92a1a4fc57e20f92eef47f,60568611ec04488a9e9da93b,6057830754f90515f6c1b42a,I am not familiar with Spanish,Northeast,NA,no,2021-03-21_10h35.15.558,empathy_intonation_perc,2020.2.10,Win32,60,1,1,2.198075,0,6,6,3,1,./stim/wavs/mexican_question_filler_Felipe-no-tiene-contrasena.wav,1,,,,,,,,,,,,,,,,,,,,,,,,,,,,,,,,,,,,,,,,,,,,,,,,,,,,,,,,,,,,,,,,,,,,,,,,,,
,,,,,,,5e92a1a4fc57e20f92eef47f,60568611ec04488a9e9da93b,6057830754f90515f6c1b42a,I am not familiar with Spanish,Northeast,NA,no,2021-03-21_10h35.15.558,empathy_intonation_perc,2020.2.10,Win32,60,0,1,2.608015,0,7,7,6,1,./stim/wavs/peruvian_statement_filler_El-nino-habla-con-su-madre.wav,0,,,,,,,,,,,,,,,,,,,,,,,,,,,,,,,,,,,,,,,,,,,,,,,,,,,,,,,,,,,,,,,,,,,,,,,,,,
,,,,,,,5e92a1a4fc57e20f92eef47f,60568611ec04488a9e9da93b,6057830754f90515f6c1b42a,I am not familiar with Spanish,Northeast,NA,no,2021-03-21_10h35.15.558,empathy_intonation_perc,2020.2.10,Win32,60,,,,,,,,,,1,cuban,0,0,1.796625,0,0,0,21,1,22,./stim/wavs/andalusian_match_interrogative-partial-wh_Por-que-ama-la-navidad.wav,./stim/wavs/argentine_match_interrogative-partial-wh_Por-que-ama-la-navidad.wav,./stim/wavs/castilian_match_interrogative-partial-wh_Por-que-ama-la-navidad.wav,./stim/wavs/chilean_match_interrogative-partial-wh_Por-que-ama-la-navidad.wav,./stim/wavs/cuban_match_interrogative-partial-wh_Por-que-ama-la-navidad.wav,./stim/wavs/mexican_match_interrogative-partial-wh_Por-que-ama-la-navidad.wav,./stim/wavs/peruvian_match_interrogative-partial-wh_Por-que-ama-la-navidad.wav,./stim/wavs/puertorican_match_interrogative-partial-wh_Por-que-ama-la-navidad.wav,,,,,,,,,,,,,,,,,,,,,,,,,,,,,,,,,,,,,,,,,,,,,,,,,,,,,,,,
,,,,,,,5e92a1a4fc57e20f92eef47f,60568611ec04488a9e9da93b,6057830754f90515f6c1b42a,I am not familiar with Spanish,Northeast,NA,no,2021-03-21_10h35.15.558,empathy_intonation_perc,2020.2.10,Win32,60,,,,,,,,,,0,cuban,0,1,1.606175,0,1,1,0,1,1,./stim/wavs/andalusian_match_declarative-broad-focus_Ana-lleva-el-abrigo.wav,./stim/wavs/argentine_match_declarative-broad-focus_Ana-lleva-el-abrigo.wav,./stim/wavs/castilian_match_declarative-broad-focus_Ana-lleva-el-abrigo.wav,./stim/wavs/chilean_match_declarative-broad-focus_Ana-lleva-el-abrigo.wav,./stim/wavs/cuban_match_declarative-broad-focus_Ana-lleva-el-abrigo.wav,./stim/wavs/mexican_match_declarative-broad-focus_Ana-lleva-el-abrigo.wav,./stim/wavs/peruvian_match_declarative-broad-focus_Ana-lleva-el-abrigo.wav,./stim/wavs/puertorican_match_declarative-broad-focus_Ana-lleva-el-abrigo.wav,,,,,,,,,,,,,,,,,,,,,,,,,,,,,,,,,,,,,,,,,,,,,,,,,,,,,,,,
,,,,,,,5e92a1a4fc57e20f92eef47f,60568611ec04488a9e9da93b,6057830754f90515f6c1b42a,I am not familiar with Spanish,Northeast,NA,no,2021-03-21_10h35.15.558,empathy_intonation_perc,2020.2.10,Win32,60,,,,,,,,,,1,cuban,0,0,1.870135,0,2,2,62,1,63,./stim/wavs/andalusian_mismatch_interrogative-total-yn_Mi-novio-viene-del-lago.wav,./stim/wavs/argentine_mismatch_interrogative-total-yn_Mi-novio-viene-del-lago.wav,./stim/wavs/castilian_mismatch_interrogative-total-yn_Mi-novio-viene-del-lago.wav,./stim/wavs/chilean_mismatch_interrogative-total-yn_Mi-novio-viene-del-lago.wav,./stim/wavs/cuban_mismatch_interrogative-total-yn_Mi-novio-viene-del-lago.wav,./stim/wavs/mexican_mismatch_interrogative-total-yn_Mi-novio-viene-del-lago.wav,./stim/wavs/peruvian_mismatch_interrogative-total-yn_Mi-novio-viene-del-lago.wav,./stim/wavs/puertorican_mismatch_interrogative-total-yn_Mi-novio-viene-del-lago.wav,,,,,,,,,,,,,,,,,,,,,,,,,,,,,,,,,,,,,,,,,,,,,,,,,,,,,,,,
,,,,,,,5e92a1a4fc57e20f92eef47f,60568611ec04488a9e9da93b,6057830754f90515f6c1b42a,I am not familiar with Spanish,Northeast,NA,no,2021-03-21_10h35.15.558,empathy_intonation_perc,2020.2.10,Win32,60,,,,,,,,,,1,cuban,0,0,1.606985,0,3,3,25,1,26,./stim/wavs/andalusian_match_interrogative-total-yn_Daniel-iba-a-Bolivia.wav,./stim/wavs/argentine_match_interrogative-total-yn_Daniel-iba-a-Bolivia.wav,./stim/wavs/castilian_match_interrogative-total-yn_Daniel-iba-a-Bolivia.wav,./stim/wavs/chilean_match_interrogative-total-yn_Daniel-iba-a-Bolivia.wav,./stim/wavs/cuban_match_interrogative-total-yn_Daniel-iba-a-Bolivia.wav,./stim/wavs/mexican_match_interrogative-total-yn_Daniel-iba-a-Bolivia.wav,./stim/wavs/peruvian_match_interrogative-total-yn_Daniel-iba-a-Bolivia.wav,./stim/wavs/puertorican_match_interrogative-total-yn_Daniel-iba-a-Bolivia.wav,,,,,,,,,,,,,,,,,,,,,,,,,,,,,,,,,,,,,,,,,,,,,,,,,,,,,,,,
,,,,,,,5e92a1a4fc57e20f92eef47f,60568611ec04488a9e9da93b,6057830754f90515f6c1b42a,I am not familiar with Spanish,Northeast,NA,no,2021-03-21_10h35.15.558,empathy_intonation_perc,2020.2.10,Win32,60,,,,,,,,,,1,cuban,0,0,1.613355,0,4,4,29,1,30,./stim/wavs/andalusian_match_interrogative-total-yn_Maria-bebe-el-vino.wav,./stim/wavs/argentine_match_interrogative-total-yn_Maria-bebe-el-vino.wav,./stim/wavs/castilian_match_interrogative-total-yn_Maria-bebe-el-vino.wav,./stim/wavs/chilean_match_interrogative-total-yn_Maria-bebe-el-vino.wav,./stim/wavs/cuban_match_interrogative-total-yn_Maria-bebe-el-vino.wav,./stim/wavs/mexican_match_interrogative-total-yn_Maria-bebe-el-vino.wav,./stim/wavs/peruvian_match_interrogative-total-yn_Maria-bebe-el-vino.wav,./stim/wavs/puertorican_match_interrogative-total-yn_Maria-bebe-el-vino.wav,,,,,,,,,,,,,,,,,,,,,,,,,,,,,,,,,,,,,,,,,,,,,,,,,,,,,,,,
,,,,,,,5e92a1a4fc57e20f92eef47f,60568611ec04488a9e9da93b,6057830754f90515f6c1b42a,I am not familiar with Spanish,Northeast,NA,no,2021-03-21_10h35.15.558,empathy_intonation_perc,2020.2.10,Win32,60,,,,,,,,,,1,mexican,1,1,1.73937,0,5,5,30,1,31,./stim/wavs/andalusian_match_interrogative-total-yn_Mariano-habla-del-tiempo.wav,./stim/wavs/argentine_match_interrogative-total-yn_Mariano-habla-del-tiempo.wav,./stim/wavs/castilian_match_interrogative-total-yn_Mariano-habla-del-tiempo.wav,./stim/wavs/chilean_match_interrogative-total-yn_Mariano-habla-del-tiempo.wav,./stim/wavs/cuban_match_interrogative-total-yn_Mariano-habla-del-tiempo.wav,./stim/wavs/mexican_match_interrogative-total-yn_Mariano-habla-del-tiempo.wav,./stim/wavs/peruvian_match_interrogative-total-yn_Mariano-habla-del-tiempo.wav,./stim/wavs/puertorican_match_interrogative-total-yn_Mariano-habla-del-tiempo.wav,,,,,,,,,,,,,,,,,,,,,,,,,,,,,,,,,,,,,,,,,,,,,,,,,,,,,,,,
,,,,,,,5e92a1a4fc57e20f92eef47f,60568611ec04488a9e9da93b,6057830754f90515f6c1b42a,I am not familiar with Spanish,Northeast,NA,no,2021-03-21_10h35.15.558,empathy_intonation_perc,2020.2.10,Win32,60,,,,,,,,,,0,chilean,1,0,1.94812,0,6,6,43,1,44,./stim/wavs/andalusian_mismatch_declarative-narrow-focus_La-maestra-vive-en-Paris.wav,./stim/wavs/argentine_mismatch_declarative-narrow-focus_La-maestra-vive-en-Paris.wav,./stim/wavs/castilian_mismatch_declarative-narrow-focus_La-maestra-vive-en-Paris.wav,./stim/wavs/chilean_mismatch_declarative-narrow-focus_La-maestra-vive-en-Paris.wav,./stim/wavs/cuban_mismatch_declarative-narrow-focus_La-maestra-vive-en-Paris.wav,./stim/wavs/mexican_mismatch_declarative-narrow-focus_La-maestra-vive-en-Paris.wav,./stim/wavs/peruvian_mismatch_declarative-narrow-focus_La-maestra-vive-en-Paris.wav,./stim/wavs/puertorican_mismatch_declarative-narrow-focus_La-maestra-vive-en-Paris.wav,,,,,,,,,,,,,,,,,,,,,,,,,,,,,,,,,,,,,,,,,,,,,,,,,,,,,,,,
,,,,,,,5e92a1a4fc57e20f92eef47f,60568611ec04488a9e9da93b,6057830754f90515f6c1b42a,I am not familiar with Spanish,Northeast,NA,no,2021-03-21_10h35.15.558,empathy_intonation_perc,2020.2.10,Win32,60,,,,,,,,,,1,andalusian,1,1,1.539065,0,7,7,24,1,25,./stim/wavs/andalusian_match_interrogative-total-yn_Ana-lleva-el-abrigo.wav,./stim/wavs/argentine_match_interrogative-total-yn_Ana-lleva-el-abrigo.wav,./stim/wavs/castilian_match_interrogative-total-yn_Ana-lleva-el-abrigo.wav,./stim/wavs/chilean_match_interrogative-total-yn_Ana-lleva-el-abrigo.wav,./stim/wavs/cuban_match_interrogative-total-yn_Ana-lleva-el-abrigo.wav,./stim/wavs/mexican_match_interrogative-total-yn_Ana-lleva-el-abrigo.wav,./stim/wavs/peruvian_match_interrogative-total-yn_Ana-lleva-el-abrigo.wav,./stim/wavs/puertorican_match_interrogative-total-yn_Ana-lleva-el-abrigo.wav,,,,,,,,,,,,,,,,,,,,,,,,,,,,,,,,,,,,,,,,,,,,,,,,,,,,,,,,
,,,,,,,5e92a1a4fc57e20f92eef47f,60568611ec04488a9e9da93b,6057830754f90515f6c1b42a,I am not familiar with Spanish,Northeast,NA,no,2021-03-21_10h35.15.558,empathy_intonation_perc,2020.2.10,Win32,60,,,,,,,,,,1,cuban,0,0,2.34348,0,8,8,61,1,62,./stim/wavs/andalusian_mismatch_interrogative-total-yn_Mi-madre-come-la-fruta.wav,./stim/wavs/argentine_mismatch_interrogative-total-yn_Mi-madre-come-la-fruta.wav,./stim/wavs/castilian_mismatch_interrogative-total-yn_Mi-madre-come-la-fruta.wav,./stim/wavs/chilean_mismatch_interrogative-total-yn_Mi-madre-come-la-fruta.wav,./stim/wavs/cuban_mismatch_interrogative-total-yn_Mi-madre-come-la-fruta.wav,./stim/wavs/mexican_mismatch_interrogative-total-yn_Mi-madre-come-la-fruta.wav,./stim/wavs/peruvian_mismatch_interrogative-total-yn_Mi-madre-come-la-fruta.wav,./stim/wavs/puertorican_mismatch_interrogative-total-yn_Mi-madre-come-la-fruta.wav,,,,,,,,,,,,,,,,,,,,,,,,,,,,,,,,,,,,,,,,,,,,,,,,,,,,,,,,
,,,,,,,5e92a1a4fc57e20f92eef47f,60568611ec04488a9e9da93b,6057830754f90515f6c1b42a,I am not familiar with Spanish,Northeast,NA,no,2021-03-21_10h35.15.558,empathy_intonation_perc,2020.2.10,Win32,60,,,,,,,,,,0,andalusian,1,0,1.940845,0,9,9,36,1,37,./stim/wavs/andalusian_mismatch_declarative-broad-focus_La-nina-lava-el-plato.wav,./stim/wavs/argentine_mismatch_declarative-broad-focus_La-nina-lava-el-plato.wav,./stim/wavs/castilian_mismatch_declarative-broad-focus_La-nina-lava-el-plato.wav,./stim/wavs/chilean_mismatch_declarative-broad-focus_La-nina-lava-el-plato.wav,./stim/wavs/cuban_mismatch_declarative-broad-focus_La-nina-lava-el-plato.wav,./stim/wavs/mexican_mismatch_declarative-broad-focus_La-nina-lava-el-plato.wav,./stim/wavs/peruvian_mismatch_declarative-broad-focus_La-nina-lava-el-plato.wav,./stim/wavs/puertorican_mismatch_declarative-broad-focus_La-nina-lava-el-plato.wav,,,,,,,,,,,,,,,,,,,,,,,,,,,,,,,,,,,,,,,,,,,,,,,,,,,,,,,,
,,,,,,,5e92a1a4fc57e20f92eef47f,60568611ec04488a9e9da93b,6057830754f90515f6c1b42a,I am not familiar with Spanish,Northeast,NA,no,2021-03-21_10h35.15.558,empathy_intonation_perc,2020.2.10,Win32,60,,,,,,,,,,0,peruvian,0,1,1.77958,0,10,10,1,1,2,./stim/wavs/andalusian_match_declarative-broad-focus_Daniel-iba-a-Bolivia.wav,./stim/wavs/argentine_match_declarative-broad-focus_Daniel-iba-a-Bolivia.wav,./stim/wavs/castilian_match_declarative-broad-focus_Daniel-iba-a-Bolivia.wav,./stim/wavs/chilean_match_declarative-broad-focus_Daniel-iba-a-Bolivia.wav,./stim/wavs/cuban_match_declarative-broad-focus_Daniel-iba-a-Bolivia.wav,./stim/wavs/mexican_match_declarative-broad-focus_Daniel-iba-a-Bolivia.wav,./stim/wavs/peruvian_match_declarative-broad-focus_Daniel-iba-a-Bolivia.wav,./stim/wavs/puertorican_match_declarative-broad-focus_Daniel-iba-a-Bolivia.wav,,,,,,,,,,,,,,,,,,,,,,,,,,,,,,,,,,,,,,,,,,,,,,,,,,,,,,,,
,,,,,,,5e92a1a4fc57e20f92eef47f,60568611ec04488a9e9da93b,6057830754f90515f6c1b42a,I am not familiar with Spanish,Northeast,NA,no,2021-03-21_10h35.15.558,empathy_intonation_perc,2020.2.10,Win32,60,,,,,,,,,,0,cuban,0,1,1.471435,0,11,11,42,1,43,./stim/wavs/andalusian_mismatch_declarative-narrow-focus_El-nino-oye-el-rio.wav,./stim/wavs/argentine_mismatch_declarative-narrow-focus_El-nino-oye-el-rio.wav,./stim/wavs/castilian_mismatch_declarative-narrow-focus_El-nino-oye-el-rio.wav,./stim/wavs/chilean_mismatch_declarative-narrow-focus_El-nino-oye-el-rio.wav,./stim/wavs/cuban_mismatch_declarative-narrow-focus_El-nino-oye-el-rio.wav,./stim/wavs/mexican_mismatch_declarative-narrow-focus_El-nino-oye-el-rio.wav,./stim/wavs/peruvian_mismatch_declarative-narrow-focus_El-nino-oye-el-rio.wav,./stim/wavs/puertorican_mismatch_declarative-narrow-focus_El-nino-oye-el-rio.wav,,,,,,,,,,,,,,,,,,,,,,,,,,,,,,,,,,,,,,,,,,,,,,,,,,,,,,,,
,,,,,,,5e92a1a4fc57e20f92eef47f,60568611ec04488a9e9da93b,6057830754f90515f6c1b42a,I am not familiar with Spanish,Northeast,NA,no,2021-03-21_10h35.15.558,empathy_intonation_perc,2020.2.10,Win32,60,,,,,,,,,,0,mexican,0,1,1.62181,0,12,12,33,1,34,./stim/wavs/andalusian_mismatch_declarative-broad-focus_El-hombre-mira-la-luna.wav,./stim/wavs/argentine_mismatch_declarative-broad-focus_El-hombre-mira-la-luna.wav,./stim/wavs/castilian_mismatch_declarative-broad-focus_El-hombre-mira-la-luna.wav,./stim/wavs/chilean_mismatch_declarative-broad-focus_El-hombre-mira-la-luna.wav,./stim/wavs/cuban_mismatch_declarative-broad-focus_El-hombre-mira-la-luna.wav,./stim/wavs/mexican_mismatch_declarative-broad-focus_El-hombre-mira-la-luna.wav,./stim/wavs/peruvian_mismatch_declarative-broad-focus_El-hombre-mira-la-luna.wav,./stim/wavs/puertorican_mismatch_declarative-broad-focus_El-hombre-mira-la-luna.wav,,,,,,,,,,,,,,,,,,,,,,,,,,,,,,,,,,,,,,,,,,,,,,,,,,,,,,,,
,,,,,,,5e92a1a4fc57e20f92eef47f,60568611ec04488a9e9da93b,6057830754f90515f6c1b42a,I am not familiar with Spanish,Northeast,NA,no,2021-03-21_10h35.15.558,empathy_intonation_perc,2020.2.10,Win32,60,,,,,,,,,,0,puertorican,0,1,1.54204,0,13,13,2,1,3,./stim/wavs/andalusian_match_declarative-broad-focus_David-leia-el-libro.wav,./stim/wavs/argentine_match_declarative-broad-focus_David-leia-el-libro.wav,./stim/wavs/castilian_match_declarative-broad-focus_David-leia-el-libro.wav,./stim/wavs/chilean_match_declarative-broad-focus_David-leia-el-libro.wav,./stim/wavs/cuban_match_declarative-broad-focus_David-leia-el-libro.wav,./stim/wavs/mexican_match_declarative-broad-focus_David-leia-el-libro.wav,./stim/wavs/peruvian_match_declarative-broad-focus_David-leia-el-libro.wav,./stim/wavs/puertorican_match_declarative-broad-focus_David-leia-el-libro.wav,,,,,,,,,,,,,,,,,,,,,,,,,,,,,,,,,,,,,,,,,,,,,,,,,,,,,,,,
,,,,,,,5e92a1a4fc57e20f92eef47f,60568611ec04488a9e9da93b,6057830754f90515f6c1b42a,I am not familiar with Spanish,Northeast,NA,no,2021-03-21_10h35.15.558,empathy_intonation_perc,2020.2.10,Win32,60,,,,,,,,,,0,mexican,0,1,1.774665,0,14,14,15,1,16,./stim/wavs/andalusian_match_declarative-narrow-focus_Marta-abre-el-regalo.wav,./stim/wavs/argentine_match_declarative-narrow-focus_Marta-abre-el-regalo.wav,./stim/wavs/castilian_match_declarative-narrow-focus_Marta-abre-el-regalo.wav,./stim/wavs/chilean_match_declarative-narrow-focus_Marta-abre-el-regalo.wav,./stim/wavs/cuban_match_declarative-narrow-focus_Marta-abre-el-regalo.wav,./stim/wavs/mexican_match_declarative-narrow-focus_Marta-abre-el-regalo.wav,./stim/wavs/peruvian_match_declarative-narrow-focus_Marta-abre-el-regalo.wav,./stim/wavs/puertorican_match_declarative-narrow-focus_Marta-abre-el-regalo.wav,,,,,,,,,,,,,,,,,,,,,,,,,,,,,,,,,,,,,,,,,,,,,,,,,,,,,,,,
,,,,,,,5e92a1a4fc57e20f92eef47f,60568611ec04488a9e9da93b,6057830754f90515f6c1b42a,I am not familiar with Spanish,Northeast,NA,no,2021-03-21_10h35.15.558,empathy_intonation_perc,2020.2.10,Win32,60,,,,,,,,,,1,argentine,1,1,1.539695,0,15,15,60,1,61,./stim/wavs/andalusian_mismatch_interrogative-total-yn_La-nina-lava-el-plato.wav,./stim/wavs/argentine_mismatch_interrogative-total-yn_La-nina-lava-el-plato.wav,./stim/wavs/castilian_mismatch_interrogative-total-yn_La-nina-lava-el-plato.wav,./stim/wavs/chilean_mismatch_interrogative-total-yn_La-nina-lava-el-plato.wav,./stim/wavs/cuban_mismatch_interrogative-total-yn_La-nina-lava-el-plato.wav,./stim/wavs/mexican_mismatch_interrogative-total-yn_La-nina-lava-el-plato.wav,./stim/wavs/peruvian_mismatch_interrogative-total-yn_La-nina-lava-el-plato.wav,./stim/wavs/puertorican_mismatch_interrogative-total-yn_La-nina-lava-el-plato.wav,,,,,,,,,,,,,,,,,,,,,,,,,,,,,,,,,,,,,,,,,,,,,,,,,,,,,,,,
,,,,,,,5e92a1a4fc57e20f92eef47f,60568611ec04488a9e9da93b,6057830754f90515f6c1b42a,I am not familiar with Spanish,Northeast,NA,no,2021-03-21_10h35.15.558,empathy_intonation_perc,2020.2.10,Win32,60,,,,,,,,,,0,cuban,0,1,1.67229,0,16,16,35,1,36,./stim/wavs/andalusian_mismatch_declarative-broad-focus_La-maestra-vive-en-Paris.wav,./stim/wavs/argentine_mismatch_declarative-broad-focus_La-maestra-vive-en-Paris.wav,./stim/wavs/castilian_mismatch_declarative-broad-focus_La-maestra-vive-en-Paris.wav,./stim/wavs/chilean_mismatch_declarative-broad-focus_La-maestra-vive-en-Paris.wav,./stim/wavs/cuban_mismatch_declarative-broad-focus_La-maestra-vive-en-Paris.wav,./stim/wavs/mexican_mismatch_declarative-broad-focus_La-maestra-vive-en-Paris.wav,./stim/wavs/peruvian_mismatch_declarative-broad-focus_La-maestra-vive-en-Paris.wav,./stim/wavs/puertorican_mismatch_declarative-broad-focus_La-maestra-vive-en-Paris.wav,,,,,,,,,,,,,,,,,,,,,,,,,,,,,,,,,,,,,,,,,,,,,,,,,,,,,,,,
,,,,,,,5e92a1a4fc57e20f92eef47f,60568611ec04488a9e9da93b,6057830754f90515f6c1b42a,I am not familiar with Spanish,Northeast,NA,no,2021-03-21_10h35.15.558,empathy_intonation_perc,2020.2.10,Win32,60,,,,,,,,,,0,castilian,0,1,1.756495,0,17,17,9,1,10,./stim/wavs/andalusian_match_declarative-narrow-focus_Daniel-iba-a-Bolivia.wav,./stim/wavs/argentine_match_declarative-narrow-focus_Daniel-iba-a-Bolivia.wav,./stim/wavs/castilian_match_declarative-narrow-focus_Daniel-iba-a-Bolivia.wav,./stim/wavs/chilean_match_declarative-narrow-focus_Daniel-iba-a-Bolivia.wav,./stim/wavs/cuban_match_declarative-narrow-focus_Daniel-iba-a-Bolivia.wav,./stim/wavs/mexican_match_declarative-narrow-focus_Daniel-iba-a-Bolivia.wav,./stim/wavs/peruvian_match_declarative-narrow-focus_Daniel-iba-a-Bolivia.wav,./stim/wavs/puertorican_match_declarative-narrow-focus_Daniel-iba-a-Bolivia.wav,,,,,,,,,,,,,,,,,,,,,,,,,,,,,,,,,,,,,,,,,,,,,,,,,,,,,,,,
,,,,,,,5e92a1a4fc57e20f92eef47f,60568611ec04488a9e9da93b,6057830754f90515f6c1b42a,I am not familiar with Spanish,Northeast,NA,no,2021-03-21_10h35.15.558,empathy_intonation_perc,2020.2.10,Win32,60,,,,,,,,,,0,andalusian,0,1,1.744565,0,18,18,13,1,14,./stim/wavs/andalusian_match_declarative-narrow-focus_Maria-bebe-el-vino.wav,./stim/wavs/argentine_match_declarative-narrow-focus_Maria-bebe-el-vino.wav,./stim/wavs/castilian_match_declarative-narrow-focus_Maria-bebe-el-vino.wav,./stim/wavs/chilean_match_declarative-narrow-focus_Maria-bebe-el-vino.wav,./stim/wavs/cuban_match_declarative-narrow-focus_Maria-bebe-el-vino.wav,./stim/wavs/mexican_match_declarative-narrow-focus_Maria-bebe-el-vino.wav,./stim/wavs/peruvian_match_declarative-narrow-focus_Maria-bebe-el-vino.wav,./stim/wavs/puertorican_match_declarative-narrow-focus_Maria-bebe-el-vino.wav,,,,,,,,,,,,,,,,,,,,,,,,,,,,,,,,,,,,,,,,,,,,,,,,,,,,,,,,
,,,,,,,5e92a1a4fc57e20f92eef47f,60568611ec04488a9e9da93b,6057830754f90515f6c1b42a,I am not familiar with Spanish,Northeast,NA,no,2021-03-21_10h35.15.558,empathy_intonation_perc,2020.2.10,Win32,60,,,,,,,,,,0,mexican,0,1,1.47096,0,19,19,11,1,12,./stim/wavs/andalusian_match_declarative-narrow-focus_Emilio-ama-la-marcha.wav,./stim/wavs/argentine_match_declarative-narrow-focus_Emilio-ama-la-marcha.wav,./stim/wavs/castilian_match_declarative-narrow-focus_Emilio-ama-la-marcha.wav,./stim/wavs/chilean_match_declarative-narrow-focus_Emilio-ama-la-marcha.wav,./stim/wavs/cuban_match_declarative-narrow-focus_Emilio-ama-la-marcha.wav,./stim/wavs/mexican_match_declarative-narrow-focus_Emilio-ama-la-marcha.wav,./stim/wavs/peruvian_match_declarative-narrow-focus_Emilio-ama-la-marcha.wav,./stim/wavs/puertorican_match_declarative-narrow-focus_Emilio-ama-la-marcha.wav,,,,,,,,,,,,,,,,,,,,,,,,,,,,,,,,,,,,,,,,,,,,,,,,,,,,,,,,
,,,,,,,5e92a1a4fc57e20f92eef47f,60568611ec04488a9e9da93b,6057830754f90515f6c1b42a,I am not familiar with Spanish,Northeast,NA,no,2021-03-21_10h35.15.558,empathy_intonation_perc,2020.2.10,Win32,60,,,,,,,,,,1,cuban,0,0,1.41333,0,20,20,16,1,17,./stim/wavs/andalusian_match_interrogative-partial-wh_Cuando-bebia-el-vino.wav,./stim/wavs/argentine_match_interrogative-partial-wh_Cuando-bebia-el-vino.wav,./stim/wavs/castilian_match_interrogative-partial-wh_Cuando-bebia-el-vino.wav,./stim/wavs/chilean_match_interrogative-partial-wh_Cuando-bebia-el-vino.wav,./stim/wavs/cuban_match_interrogative-partial-wh_Cuando-bebia-el-vino.wav,./stim/wavs/mexican_match_interrogative-partial-wh_Cuando-bebia-el-vino.wav,./stim/wavs/peruvian_match_interrogative-partial-wh_Cuando-bebia-el-vino.wav,./stim/wavs/puertorican_match_interrogative-partial-wh_Cuando-bebia-el-vino.wav,,,,,,,,,,,,,,,,,,,,,,,,,,,,,,,,,,,,,,,,,,,,,,,,,,,,,,,,
,,,,,,,5e92a1a4fc57e20f92eef47f,60568611ec04488a9e9da93b,6057830754f90515f6c1b42a,I am not familiar with Spanish,Northeast,NA,no,2021-03-21_10h35.15.558,empathy_intonation_perc,2020.2.10,Win32,60,,,,,,,,,,1,puertorican,0,0,1.788165,0,21,21,59,1,60,./stim/wavs/andalusian_mismatch_interrogative-total-yn_La-maestra-vive-en-Paris.wav,./stim/wavs/argentine_mismatch_interrogative-total-yn_La-maestra-vive-en-Paris.wav,./stim/wavs/castilian_mismatch_interrogative-total-yn_La-maestra-vive-en-Paris.wav,./stim/wavs/chilean_mismatch_interrogative-total-yn_La-maestra-vive-en-Paris.wav,./stim/wavs/cuban_mismatch_interrogative-total-yn_La-maestra-vive-en-Paris.wav,./stim/wavs/mexican_mismatch_interrogative-total-yn_La-maestra-vive-en-Paris.wav,./stim/wavs/peruvian_mismatch_interrogative-total-yn_La-maestra-vive-en-Paris.wav,./stim/wavs/puertorican_mismatch_interrogative-total-yn_La-maestra-vive-en-Paris.wav,,,,,,,,,,,,,,,,,,,,,,,,,,,,,,,,,,,,,,,,,,,,,,,,,,,,,,,,
,,,,,,,5e92a1a4fc57e20f92eef47f,60568611ec04488a9e9da93b,6057830754f90515f6c1b42a,I am not familiar with Spanish,Northeast,NA,no,2021-03-21_10h35.15.558,empathy_intonation_perc,2020.2.10,Win32,60,,,,,,,,,,0,chilean,0,1,1.45295,0,22,22,10,1,11,./stim/wavs/andalusian_match_declarative-narrow-focus_David-leia-el-libro.wav,./stim/wavs/argentine_match_declarative-narrow-focus_David-leia-el-libro.wav,./stim/wavs/castilian_match_declarative-narrow-focus_David-leia-el-libro.wav,./stim/wavs/chilean_match_declarative-narrow-focus_David-leia-el-libro.wav,./stim/wavs/cuban_match_declarative-narrow-focus_David-leia-el-libro.wav,./stim/wavs/mexican_match_declarative-narrow-focus_David-leia-el-libro.wav,./stim/wavs/peruvian_match_declarative-narrow-focus_David-leia-el-libro.wav,./stim/wavs/puertorican_match_declarative-narrow-focus_David-leia-el-libro.wav,,,,,,,,,,,,,,,,,,,,,,,,,,,,,,,,,,,,,,,,,,,,,,,,,,,,,,,,
,,,,,,,5e92a1a4fc57e20f92eef47f,60568611ec04488a9e9da93b,6057830754f90515f6c1b42a,I am not familiar with Spanish,Northeast,NA,no,2021-03-21_10h35.15.558,empathy_intonation_perc,2020.2.10,Win32,60,,,,,,,,,,0,argentine,0,1,1.85501,0,23,23,39,1,40,./stim/wavs/andalusian_mismatch_declarative-broad-focus_Mi-tia-odia-la-lluvia.wav,./stim/wavs/argentine_mismatch_declarative-broad-focus_Mi-tia-odia-la-lluvia.wav,./stim/wavs/castilian_mismatch_declarative-broad-focus_Mi-tia-odia-la-lluvia.wav,./stim/wavs/chilean_mismatch_declarative-broad-focus_Mi-tia-odia-la-lluvia.wav,./stim/wavs/cuban_mismatch_declarative-broad-focus_Mi-tia-odia-la-lluvia.wav,./stim/wavs/mexican_mismatch_declarative-broad-focus_Mi-tia-odia-la-lluvia.wav,./stim/wavs/peruvian_mismatch_declarative-broad-focus_Mi-tia-odia-la-lluvia.wav,./stim/wavs/puertorican_mismatch_declarative-broad-focus_Mi-tia-odia-la-lluvia.wav,,,,,,,,,,,,,,,,,,,,,,,,,,,,,,,,,,,,,,,,,,,,,,,,,,,,,,,,
,,,,,,,5e92a1a4fc57e20f92eef47f,60568611ec04488a9e9da93b,6057830754f90515f6c1b42a,I am not familiar with Spanish,Northeast,NA,no,2021-03-21_10h35.15.558,empathy_intonation_perc,2020.2.10,Win32,60,,,,,,,,,,0,castilian,0,1,1.65582,0,24,24,40,1,41,./stim/wavs/andalusian_mismatch_declarative-narrow-focus_El-bebe-comia-muy-bien.wav,./stim/wavs/argentine_mismatch_declarative-narrow-focus_El-bebe-comia-muy-bien.wav,./stim/wavs/castilian_mismatch_declarative-narrow-focus_El-bebe-comia-muy-bien.wav,./stim/wavs/chilean_mismatch_declarative-narrow-focus_El-bebe-comia-muy-bien.wav,./stim/wavs/cuban_mismatch_declarative-narrow-focus_El-bebe-comia-muy-bien.wav,./stim/wavs/mexican_mismatch_declarative-narrow-focus_El-bebe-comia-muy-bien.wav,./stim/wavs/peruvian_mismatch_declarative-narrow-focus_El-bebe-comia-muy-bien.wav,./stim/wavs/puertorican_mismatch_declarative-narrow-focus_El-bebe-comia-muy-bien.wav,,,,,,,,,,,,,,,,,,,,,,,,,,,,,,,,,,,,,,,,,,,,,,,,,,,,,,,,
,,,,,,,5e92a1a4fc57e20f92eef47f,60568611ec04488a9e9da93b,6057830754f90515f6c1b42a,I am not familiar with Spanish,Northeast,NA,no,2021-03-21_10h35.15.558,empathy_intonation_perc,2020.2.10,Win32,60,,,,,,,,,,1,mexican,1,1,2.02334,0,25,25,49,1,50,./stim/wavs/andalusian_mismatch_interrogative-partial-wh_Cuando-lavaba-el-plato.wav,./stim/wavs/argentine_mismatch_interrogative-partial-wh_Cuando-lavaba-el-plato.wav,./stim/wavs/castilian_mismatch_interrogative-partial-wh_Cuando-lavaba-el-plato.wav,./stim/wavs/chilean_mismatch_interrogative-partial-wh_Cuando-lavaba-el-plato.wav,./stim/wavs/cuban_mismatch_interrogative-partial-wh_Cuando-lavaba-el-plato.wav,./stim/wavs/mexican_mismatch_interrogative-partial-wh_Cuando-lavaba-el-plato.wav,./stim/wavs/peruvian_mismatch_interrogative-partial-wh_Cuando-lavaba-el-plato.wav,./stim/wavs/puertorican_mismatch_interrogative-partial-wh_Cuando-lavaba-el-plato.wav,,,,,,,,,,,,,,,,,,,,,,,,,,,,,,,,,,,,,,,,,,,,,,,,,,,,,,,,
,,,,,,,5e92a1a4fc57e20f92eef47f,60568611ec04488a9e9da93b,6057830754f90515f6c1b42a,I am not familiar with Spanish,Northeast,NA,no,2021-03-21_10h35.15.558,empathy_intonation_perc,2020.2.10,Win32,60,,,,,,,,,,1,cuban,0,0,1.5061,0,26,26,31,1,32,./stim/wavs/andalusian_match_interrogative-total-yn_Marta-abre-el-regalo.wav,./stim/wavs/argentine_match_interrogative-total-yn_Marta-abre-el-regalo.wav,./stim/wavs/castilian_match_interrogative-total-yn_Marta-abre-el-regalo.wav,./stim/wavs/chilean_match_interrogative-total-yn_Marta-abre-el-regalo.wav,./stim/wavs/cuban_match_interrogative-total-yn_Marta-abre-el-regalo.wav,./stim/wavs/mexican_match_interrogative-total-yn_Marta-abre-el-regalo.wav,./stim/wavs/peruvian_match_interrogative-total-yn_Marta-abre-el-regalo.wav,./stim/wavs/puertorican_match_interrogative-total-yn_Marta-abre-el-regalo.wav,,,,,,,,,,,,,,,,,,,,,,,,,,,,,,,,,,,,,,,,,,,,,,,,,,,,,,,,
,,,,,,,5e92a1a4fc57e20f92eef47f,60568611ec04488a9e9da93b,6057830754f90515f6c1b42a,I am not familiar with Spanish,Northeast,NA,no,2021-03-21_10h35.15.558,empathy_intonation_perc,2020.2.10,Win32,60,,,,,,,,,,0,mexican,0,1,1.522255,0,27,27,12,1,13,./stim/wavs/andalusian_match_declarative-narrow-focus_Manuela-vende-el-carro.wav,./stim/wavs/argentine_match_declarative-narrow-focus_Manuela-vende-el-carro.wav,./stim/wavs/castilian_match_declarative-narrow-focus_Manuela-vende-el-carro.wav,./stim/wavs/chilean_match_declarative-narrow-focus_Manuela-vende-el-carro.wav,./stim/wavs/cuban_match_declarative-narrow-focus_Manuela-vende-el-carro.wav,./stim/wavs/mexican_match_declarative-narrow-focus_Manuela-vende-el-carro.wav,./stim/wavs/peruvian_match_declarative-narrow-focus_Manuela-vende-el-carro.wav,./stim/wavs/puertorican_match_declarative-narrow-focus_Manuela-vende-el-carro.wav,,,,,,,,,,,,,,,,,,,,,,,,,,,,,,,,,,,,,,,,,,,,,,,,,,,,,,,,
,,,,,,,5e92a1a4fc57e20f92eef47f,60568611ec04488a9e9da93b,6057830754f90515f6c1b42a,I am not familiar with Spanish,Northeast,NA,no,2021-03-21_10h35.15.558,empathy_intonation_perc,2020.2.10,Win32,60,,,,,,,,,,1,mexican,0,0,1.466535,0,28,28,50,1,51,./stim/wavs/andalusian_mismatch_interrogative-partial-wh_Cuando-miraba-la-luna.wav,./stim/wavs/argentine_mismatch_interrogative-partial-wh_Cuando-miraba-la-luna.wav,./stim/wavs/castilian_mismatch_interrogative-partial-wh_Cuando-miraba-la-luna.wav,./stim/wavs/chilean_mismatch_interrogative-partial-wh_Cuando-miraba-la-luna.wav,./stim/wavs/cuban_mismatch_interrogative-partial-wh_Cuando-miraba-la-luna.wav,./stim/wavs/mexican_mismatch_interrogative-partial-wh_Cuando-miraba-la-luna.wav,./stim/wavs/peruvian_mismatch_interrogative-partial-wh_Cuando-miraba-la-luna.wav,./stim/wavs/puertorican_mismatch_interrogative-partial-wh_Cuando-miraba-la-luna.wav,,,,,,,,,,,,,,,,,,,,,,,,,,,,,,,,,,,,,,,,,,,,,,,,,,,,,,,,
,,,,,,,5e92a1a4fc57e20f92eef47f,60568611ec04488a9e9da93b,6057830754f90515f6c1b42a,I am not familiar with Spanish,Northeast,NA,no,2021-03-21_10h35.15.558,empathy_intonation_perc,2020.2.10,Win32,60,,,,,,,,,,1,argentine,1,1,1.56427,0,29,29,26,1,27,./stim/wavs/andalusian_match_interrogative-total-yn_David-leia-el-libro.wav,./stim/wavs/argentine_match_interrogative-total-yn_David-leia-el-libro.wav,./stim/wavs/castilian_match_interrogative-total-yn_David-leia-el-libro.wav,./stim/wavs/chilean_match_interrogative-total-yn_David-leia-el-libro.wav,./stim/wavs/cuban_match_interrogative-total-yn_David-leia-el-libro.wav,./stim/wavs/mexican_match_interrogative-total-yn_David-leia-el-libro.wav,./stim/wavs/peruvian_match_interrogative-total-yn_David-leia-el-libro.wav,./stim/wavs/puertorican_match_interrogative-total-yn_David-leia-el-libro.wav,,,,,,,,,,,,,,,,,,,,,,,,,,,,,,,,,,,,,,,,,,,,,,,,,,,,,,,,
,,,,,,,5e92a1a4fc57e20f92eef47f,60568611ec04488a9e9da93b,6057830754f90515f6c1b42a,I am not familiar with Spanish,Northeast,NA,no,2021-03-21_10h35.15.558,empathy_intonation_perc,2020.2.10,Win32,60,,,,,,,,,,1,argentine,0,0,1.506045,0,30,30,19,1,20,./stim/wavs/andalusian_match_interrogative-partial-wh_Cuando-vendia-el-carro.wav,./stim/wavs/argentine_match_interrogative-partial-wh_Cuando-vendia-el-carro.wav,./stim/wavs/castilian_match_interrogative-partial-wh_Cuando-vendia-el-carro.wav,./stim/wavs/chilean_match_interrogative-partial-wh_Cuando-vendia-el-carro.wav,./stim/wavs/cuban_match_interrogative-partial-wh_Cuando-vendia-el-carro.wav,./stim/wavs/mexican_match_interrogative-partial-wh_Cuando-vendia-el-carro.wav,./stim/wavs/peruvian_match_interrogative-partial-wh_Cuando-vendia-el-carro.wav,./stim/wavs/puertorican_match_interrogative-partial-wh_Cuando-vendia-el-carro.wav,,,,,,,,,,,,,,,,,,,,,,,,,,,,,,,,,,,,,,,,,,,,,,,,,,,,,,,,
,,,,,,,5e92a1a4fc57e20f92eef47f,60568611ec04488a9e9da93b,6057830754f90515f6c1b42a,I am not familiar with Spanish,Northeast,NA,no,2021-03-21_10h35.15.558,empathy_intonation_perc,2020.2.10,Win32,60,,,,,,,,,,0,castilian,0,1,1.759345,0,31,31,45,1,46,./stim/wavs/andalusian_mismatch_declarative-narrow-focus_Mi-madre-come-la-fruta.wav,./stim/wavs/argentine_mismatch_declarative-narrow-focus_Mi-madre-come-la-fruta.wav,./stim/wavs/castilian_mismatch_declarative-narrow-focus_Mi-madre-come-la-fruta.wav,./stim/wavs/chilean_mismatch_declarative-narrow-focus_Mi-madre-come-la-fruta.wav,./stim/wavs/cuban_mismatch_declarative-narrow-focus_Mi-madre-come-la-fruta.wav,./stim/wavs/mexican_mismatch_declarative-narrow-focus_Mi-madre-come-la-fruta.wav,./stim/wavs/peruvian_mismatch_declarative-narrow-focus_Mi-madre-come-la-fruta.wav,./stim/wavs/puertorican_mismatch_declarative-narrow-focus_Mi-madre-come-la-fruta.wav,,,,,,,,,,,,,,,,,,,,,,,,,,,,,,,,,,,,,,,,,,,,,,,,,,,,,,,,
,,,,,,,5e92a1a4fc57e20f92eef47f,60568611ec04488a9e9da93b,6057830754f90515f6c1b42a,I am not familiar with Spanish,Northeast,NA,no,2021-03-21_10h35.15.558,empathy_intonation_perc,2020.2.10,Win32,60,,,,,,,,,,0,andalusian,0,1,1.655765,0,32,32,7,1,8,./stim/wavs/andalusian_match_declarative-broad-focus_Marta-abre-el-regalo.wav,./stim/wavs/argentine_match_declarative-broad-focus_Marta-abre-el-regalo.wav,./stim/wavs/castilian_match_declarative-broad-focus_Marta-abre-el-regalo.wav,./stim/wavs/chilean_match_declarative-broad-focus_Marta-abre-el-regalo.wav,./stim/wavs/cuban_match_declarative-broad-focus_Marta-abre-el-regalo.wav,./stim/wavs/mexican_match_declarative-broad-focus_Marta-abre-el-regalo.wav,./stim/wavs/peruvian_match_declarative-broad-focus_Marta-abre-el-regalo.wav,./stim/wavs/puertorican_match_declarative-broad-focus_Marta-abre-el-regalo.wav,,,,,,,,,,,,,,,,,,,,,,,,,,,,,,,,,,,,,,,,,,,,,,,,,,,,,,,,
,,,,,,,5e92a1a4fc57e20f92eef47f,60568611ec04488a9e9da93b,6057830754f90515f6c1b42a,I am not familiar with Spanish,Northeast,NA,no,2021-03-21_10h35.15.558,empathy_intonation_perc,2020.2.10,Win32,60,,,,,,,,,,1,castilian,1,1,1.784335,0,33,33,53,1,54,./stim/wavs/andalusian_mismatch_interrogative-partial-wh_Por-que-oia-el-rio.wav,./stim/wavs/argentine_mismatch_interrogative-partial-wh_Por-que-oia-el-rio.wav,./stim/wavs/castilian_mismatch_interrogative-partial-wh_Por-que-oia-el-rio.wav,./stim/wavs/chilean_mismatch_interrogative-partial-wh_Por-que-oia-el-rio.wav,./stim/wavs/cuban_mismatch_interrogative-partial-wh_Por-que-oia-el-rio.wav,./stim/wavs/mexican_mismatch_interrogative-partial-wh_Por-que-oia-el-rio.wav,./stim/wavs/peruvian_mismatch_interrogative-partial-wh_Por-que-oia-el-rio.wav,./stim/wavs/puertorican_mismatch_interrogative-partial-wh_Por-que-oia-el-rio.wav,,,,,,,,,,,,,,,,,,,,,,,,,,,,,,,,,,,,,,,,,,,,,,,,,,,,,,,,
,,,,,,,5e92a1a4fc57e20f92eef47f,60568611ec04488a9e9da93b,6057830754f90515f6c1b42a,I am not familiar with Spanish,Northeast,NA,no,2021-03-21_10h35.15.558,empathy_intonation_perc,2020.2.10,Win32,60,,,,,,,,,,1,cuban,0,0,1.673885,0,34,34,51,1,52,./stim/wavs/andalusian_mismatch_interrogative-partial-wh_Por-que-desayuna-muy-bien.wav,./stim/wavs/argentine_mismatch_interrogative-partial-wh_Por-que-desayuna-muy-bien.wav,./stim/wavs/castilian_mismatch_interrogative-partial-wh_Por-que-desayuna-muy-bien.wav,./stim/wavs/chilean_mismatch_interrogative-partial-wh_Por-que-desayuna-muy-bien.wav,./stim/wavs/cuban_mismatch_interrogative-partial-wh_Por-que-desayuna-muy-bien.wav,./stim/wavs/mexican_mismatch_interrogative-partial-wh_Por-que-desayuna-muy-bien.wav,./stim/wavs/peruvian_mismatch_interrogative-partial-wh_Por-que-desayuna-muy-bien.wav,./stim/wavs/puertorican_mismatch_interrogative-partial-wh_Por-que-desayuna-muy-bien.wav,,,,,,,,,,,,,,,,,,,,,,,,,,,,,,,,,,,,,,,,,,,,,,,,,,,,,,,,
,,,,,,,5e92a1a4fc57e20f92eef47f,60568611ec04488a9e9da93b,6057830754f90515f6c1b42a,I am not familiar with Spanish,Northeast,NA,no,2021-03-21_10h35.15.558,empathy_intonation_perc,2020.2.10,Win32,60,,,,,,,,,,0,argentine,1,0,2.09193,0,35,35,32,1,33,./stim/wavs/andalusian_mismatch_declarative-broad-focus_El-bebe-comia-muy-bien.wav,./stim/wavs/argentine_mismatch_declarative-broad-focus_El-bebe-comia-muy-bien.wav,./stim/wavs/castilian_mismatch_declarative-broad-focus_El-bebe-comia-muy-bien.wav,./stim/wavs/chilean_mismatch_declarative-broad-focus_El-bebe-comia-muy-bien.wav,./stim/wavs/cuban_mismatch_declarative-broad-focus_El-bebe-comia-muy-bien.wav,./stim/wavs/mexican_mismatch_declarative-broad-focus_El-bebe-comia-muy-bien.wav,./stim/wavs/peruvian_mismatch_declarative-broad-focus_El-bebe-comia-muy-bien.wav,./stim/wavs/puertorican_mismatch_declarative-broad-focus_El-bebe-comia-muy-bien.wav,,,,,,,,,,,,,,,,,,,,,,,,,,,,,,,,,,,,,,,,,,,,,,,,,,,,,,,,
,,,,,,,5e92a1a4fc57e20f92eef47f,60568611ec04488a9e9da93b,6057830754f90515f6c1b42a,I am not familiar with Spanish,Northeast,NA,no,2021-03-21_10h35.15.558,empathy_intonation_perc,2020.2.10,Win32,60,,,,,,,,,,1,argentine,0,0,1.4248,0,36,36,56,1,57,./stim/wavs/andalusian_mismatch_interrogative-total-yn_El-bebe-comia-muy-bien.wav,./stim/wavs/argentine_mismatch_interrogative-total-yn_El-bebe-comia-muy-bien.wav,./stim/wavs/castilian_mismatch_interrogative-total-yn_El-bebe-comia-muy-bien.wav,./stim/wavs/chilean_mismatch_interrogative-total-yn_El-bebe-comia-muy-bien.wav,./stim/wavs/cuban_mismatch_interrogative-total-yn_El-bebe-comia-muy-bien.wav,./stim/wavs/mexican_mismatch_interrogative-total-yn_El-bebe-comia-muy-bien.wav,./stim/wavs/peruvian_mismatch_interrogative-total-yn_El-bebe-comia-muy-bien.wav,./stim/wavs/puertorican_mismatch_interrogative-total-yn_El-bebe-comia-muy-bien.wav,,,,,,,,,,,,,,,,,,,,,,,,,,,,,,,,,,,,,,,,,,,,,,,,,,,,,,,,
,,,,,,,5e92a1a4fc57e20f92eef47f,60568611ec04488a9e9da93b,6057830754f90515f6c1b42a,I am not familiar with Spanish,Northeast,NA,no,2021-03-21_10h35.15.558,empathy_intonation_perc,2020.2.10,Win32,60,,,,,,,,,,1,mexican,1,1,1.655385,0,37,37,63,1,64,./stim/wavs/andalusian_mismatch_interrogative-total-yn_Mi-tia-odia-la-lluvia.wav,./stim/wavs/argentine_mismatch_interrogative-total-yn_Mi-tia-odia-la-lluvia.wav,./stim/wavs/castilian_mismatch_interrogative-total-yn_Mi-tia-odia-la-lluvia.wav,./stim/wavs/chilean_mismatch_interrogative-total-yn_Mi-tia-odia-la-lluvia.wav,./stim/wavs/cuban_mismatch_interrogative-total-yn_Mi-tia-odia-la-lluvia.wav,./stim/wavs/mexican_mismatch_interrogative-total-yn_Mi-tia-odia-la-lluvia.wav,./stim/wavs/peruvian_mismatch_interrogative-total-yn_Mi-tia-odia-la-lluvia.wav,./stim/wavs/puertorican_mismatch_interrogative-total-yn_Mi-tia-odia-la-lluvia.wav,,,,,,,,,,,,,,,,,,,,,,,,,,,,,,,,,,,,,,,,,,,,,,,,,,,,,,,,
,,,,,,,5e92a1a4fc57e20f92eef47f,60568611ec04488a9e9da93b,6057830754f90515f6c1b42a,I am not familiar with Spanish,Northeast,NA,no,2021-03-21_10h35.15.558,empathy_intonation_perc,2020.2.10,Win32,60,,,,,,,,,,1,cuban,0,0,1.255695,0,38,38,55,1,56,./stim/wavs/andalusian_mismatch_interrogative-partial-wh_Por-que-vivia-en-Paris.wav,./stim/wavs/argentine_mismatch_interrogative-partial-wh_Por-que-vivia-en-Paris.wav,./stim/wavs/castilian_mismatch_interrogative-partial-wh_Por-que-vivia-en-Paris.wav,./stim/wavs/chilean_mismatch_interrogative-partial-wh_Por-que-vivia-en-Paris.wav,./stim/wavs/cuban_mismatch_interrogative-partial-wh_Por-que-vivia-en-Paris.wav,./stim/wavs/mexican_mismatch_interrogative-partial-wh_Por-que-vivia-en-Paris.wav,./stim/wavs/peruvian_mismatch_interrogative-partial-wh_Por-que-vivia-en-Paris.wav,./stim/wavs/puertorican_mismatch_interrogative-partial-wh_Por-que-vivia-en-Paris.wav,,,,,,,,,,,,,,,,,,,,,,,,,,,,,,,,,,,,,,,,,,,,,,,,,,,,,,,,
,,,,,,,5e92a1a4fc57e20f92eef47f,60568611ec04488a9e9da93b,6057830754f90515f6c1b42a,I am not familiar with Spanish,Northeast,NA,no,2021-03-21_10h35.15.558,empathy_intonation_perc,2020.2.10,Win32,60,,,,,,,,,,0,argentine,0,1,1.609865,0,39,39,46,1,47,./stim/wavs/andalusian_mismatch_declarative-narrow-focus_Mi-novio-viene-del-lago.wav,./stim/wavs/argentine_mismatch_declarative-narrow-focus_Mi-novio-viene-del-lago.wav,./stim/wavs/castilian_mismatch_declarative-narrow-focus_Mi-novio-viene-del-lago.wav,./stim/wavs/chilean_mismatch_declarative-narrow-focus_Mi-novio-viene-del-lago.wav,./stim/wavs/cuban_mismatch_declarative-narrow-focus_Mi-novio-viene-del-lago.wav,./stim/wavs/mexican_mismatch_declarative-narrow-focus_Mi-novio-viene-del-lago.wav,./stim/wavs/peruvian_mismatch_declarative-narrow-focus_Mi-novio-viene-del-lago.wav,./stim/wavs/puertorican_mismatch_declarative-narrow-focus_Mi-novio-viene-del-lago.wav,,,,,,,,,,,,,,,,,,,,,,,,,,,,,,,,,,,,,,,,,,,,,,,,,,,,,,,,
,,,,,,,5e92a1a4fc57e20f92eef47f,60568611ec04488a9e9da93b,6057830754f90515f6c1b42a,I am not familiar with Spanish,Northeast,NA,no,2021-03-21_10h35.15.558,empathy_intonation_perc,2020.2.10,Win32,60,,,,,,,,,,1,andalusian,0,0,1.56356,0,40,40,22,1,23,./stim/wavs/andalusian_match_interrogative-partial-wh_Por-que-hablaba-del-agua.wav,./stim/wavs/argentine_match_interrogative-partial-wh_Por-que-hablaba-del-agua.wav,./stim/wavs/castilian_match_interrogative-partial-wh_Por-que-hablaba-del-agua.wav,./stim/wavs/chilean_match_interrogative-partial-wh_Por-que-hablaba-del-agua.wav,./stim/wavs/cuban_match_interrogative-partial-wh_Por-que-hablaba-del-agua.wav,./stim/wavs/mexican_match_interrogative-partial-wh_Por-que-hablaba-del-agua.wav,./stim/wavs/peruvian_match_interrogative-partial-wh_Por-que-hablaba-del-agua.wav,./stim/wavs/puertorican_match_interrogative-partial-wh_Por-que-hablaba-del-agua.wav,,,,,,,,,,,,,,,,,,,,,,,,,,,,,,,,,,,,,,,,,,,,,,,,,,,,,,,,
,,,,,,,5e92a1a4fc57e20f92eef47f,60568611ec04488a9e9da93b,6057830754f90515f6c1b42a,I am not familiar with Spanish,Northeast,NA,no,2021-03-21_10h35.15.558,empathy_intonation_perc,2020.2.10,Win32,60,,,,,,,,,,0,cuban,0,1,1.3129,0,41,41,41,1,42,./stim/wavs/andalusian_mismatch_declarative-narrow-focus_El-hombre-mira-la-luna.wav,./stim/wavs/argentine_mismatch_declarative-narrow-focus_El-hombre-mira-la-luna.wav,./stim/wavs/castilian_mismatch_declarative-narrow-focus_El-hombre-mira-la-luna.wav,./stim/wavs/chilean_mismatch_declarative-narrow-focus_El-hombre-mira-la-luna.wav,./stim/wavs/cuban_mismatch_declarative-narrow-focus_El-hombre-mira-la-luna.wav,./stim/wavs/mexican_mismatch_declarative-narrow-focus_El-hombre-mira-la-luna.wav,./stim/wavs/peruvian_mismatch_declarative-narrow-focus_El-hombre-mira-la-luna.wav,./stim/wavs/puertorican_mismatch_declarative-narrow-focus_El-hombre-mira-la-luna.wav,,,,,,,,,,,,,,,,,,,,,,,,,,,,,,,,,,,,,,,,,,,,,,,,,,,,,,,,
,,,,,,,5e92a1a4fc57e20f92eef47f,60568611ec04488a9e9da93b,6057830754f90515f6c1b42a,I am not familiar with Spanish,Northeast,NA,no,2021-03-21_10h35.15.558,empathy_intonation_perc,2020.2.10,Win32,60,,,,,,,,,,1,argentine,1,1,1.67063,0,42,42,28,1,29,./stim/wavs/andalusian_match_interrogative-total-yn_Manuela-vende-el-carro.wav,./stim/wavs/argentine_match_interrogative-total-yn_Manuela-vende-el-carro.wav,./stim/wavs/castilian_match_interrogative-total-yn_Manuela-vende-el-carro.wav,./stim/wavs/chilean_match_interrogative-total-yn_Manuela-vende-el-carro.wav,./stim/wavs/cuban_match_interrogative-total-yn_Manuela-vende-el-carro.wav,./stim/wavs/mexican_match_interrogative-total-yn_Manuela-vende-el-carro.wav,./stim/wavs/peruvian_match_interrogative-total-yn_Manuela-vende-el-carro.wav,./stim/wavs/puertorican_match_interrogative-total-yn_Manuela-vende-el-carro.wav,,,,,,,,,,,,,,,,,,,,,,,,,,,,,,,,,,,,,,,,,,,,,,,,,,,,,,,,
,,,,,,,5e92a1a4fc57e20f92eef47f,60568611ec04488a9e9da93b,6057830754f90515f6c1b42a,I am not familiar with Spanish,Northeast,NA,no,2021-03-21_10h35.15.558,empathy_intonation_perc,2020.2.10,Win32,60,,,,,,,,,,1,puertorican,1,1,1.475945,0,43,43,20,1,21,./stim/wavs/andalusian_match_interrogative-partial-wh_Por-que-abre-el-regalo.wav,./stim/wavs/argentine_match_interrogative-partial-wh_Por-que-abre-el-regalo.wav,./stim/wavs/castilian_match_interrogative-partial-wh_Por-que-abre-el-regalo.wav,./stim/wavs/chilean_match_interrogative-partial-wh_Por-que-abre-el-regalo.wav,./stim/wavs/cuban_match_interrogative-partial-wh_Por-que-abre-el-regalo.wav,./stim/wavs/mexican_match_interrogative-partial-wh_Por-que-abre-el-regalo.wav,./stim/wavs/peruvian_match_interrogative-partial-wh_Por-que-abre-el-regalo.wav,./stim/wavs/puertorican_match_interrogative-partial-wh_Por-que-abre-el-regalo.wav,,,,,,,,,,,,,,,,,,,,,,,,,,,,,,,,,,,,,,,,,,,,,,,,,,,,,,,,
,,,,,,,5e92a1a4fc57e20f92eef47f,60568611ec04488a9e9da93b,6057830754f90515f6c1b42a,I am not familiar with Spanish,Northeast,NA,no,2021-03-21_10h35.15.558,empathy_intonation_perc,2020.2.10,Win32,60,,,,,,,,,,1,chilean,0,0,1.42496,0,44,44,57,1,58,./stim/wavs/andalusian_mismatch_interrogative-total-yn_El-hombre-mira-la-luna.wav,./stim/wavs/argentine_mismatch_interrogative-total-yn_El-hombre-mira-la-luna.wav,./stim/wavs/castilian_mismatch_interrogative-total-yn_El-hombre-mira-la-luna.wav,./stim/wavs/chilean_mismatch_interrogative-total-yn_El-hombre-mira-la-luna.wav,./stim/wavs/cuban_mismatch_interrogative-total-yn_El-hombre-mira-la-luna.wav,./stim/wavs/mexican_mismatch_interrogative-total-yn_El-hombre-mira-la-luna.wav,./stim/wavs/peruvian_mismatch_interrogative-total-yn_El-hombre-mira-la-luna.wav,./stim/wavs/puertorican_mismatch_interrogative-total-yn_El-hombre-mira-la-luna.wav,,,,,,,,,,,,,,,,,,,,,,,,,,,,,,,,,,,,,,,,,,,,,,,,,,,,,,,,
,,,,,,,5e92a1a4fc57e20f92eef47f,60568611ec04488a9e9da93b,6057830754f90515f6c1b42a,I am not familiar with Spanish,Northeast,NA,no,2021-03-21_10h35.15.558,empathy_intonation_perc,2020.2.10,Win32,60,,,,,,,,,,1,argentine,0,0,1.36085,0,45,45,17,1,18,./stim/wavs/andalusian_match_interrogative-partial-wh_Cuando-leia-el-libro.wav,./stim/wavs/argentine_match_interrogative-partial-wh_Cuando-leia-el-libro.wav,./stim/wavs/castilian_match_interrogative-partial-wh_Cuando-leia-el-libro.wav,./stim/wavs/chilean_match_interrogative-partial-wh_Cuando-leia-el-libro.wav,./stim/wavs/cuban_match_interrogative-partial-wh_Cuando-leia-el-libro.wav,./stim/wavs/mexican_match_interrogative-partial-wh_Cuando-leia-el-libro.wav,./stim/wavs/peruvian_match_interrogative-partial-wh_Cuando-leia-el-libro.wav,./stim/wavs/puertorican_match_interrogative-partial-wh_Cuando-leia-el-libro.wav,,,,,,,,,,,,,,,,,,,,,,,,,,,,,,,,,,,,,,,,,,,,,,,,,,,,,,,,
,,,,,,,5e92a1a4fc57e20f92eef47f,60568611ec04488a9e9da93b,6057830754f90515f6c1b42a,I am not familiar with Spanish,Northeast,NA,no,2021-03-21_10h35.15.558,empathy_intonation_perc,2020.2.10,Win32,60,,,,,,,,,,0,andalusian,0,1,1.491555,0,46,46,8,1,9,./stim/wavs/andalusian_match_declarative-narrow-focus_Ana-lleva-el-abrigo.wav,./stim/wavs/argentine_match_declarative-narrow-focus_Ana-lleva-el-abrigo.wav,./stim/wavs/castilian_match_declarative-narrow-focus_Ana-lleva-el-abrigo.wav,./stim/wavs/chilean_match_declarative-narrow-focus_Ana-lleva-el-abrigo.wav,./stim/wavs/cuban_match_declarative-narrow-focus_Ana-lleva-el-abrigo.wav,./stim/wavs/mexican_match_declarative-narrow-focus_Ana-lleva-el-abrigo.wav,./stim/wavs/peruvian_match_declarative-narrow-focus_Ana-lleva-el-abrigo.wav,./stim/wavs/puertorican_match_declarative-narrow-focus_Ana-lleva-el-abrigo.wav,,,,,,,,,,,,,,,,,,,,,,,,,,,,,,,,,,,,,,,,,,,,,,,,,,,,,,,,
,,,,,,,5e92a1a4fc57e20f92eef47f,60568611ec04488a9e9da93b,6057830754f90515f6c1b42a,I am not familiar with Spanish,Northeast,NA,no,2021-03-21_10h35.15.558,empathy_intonation_perc,2020.2.10,Win32,60,,,,,,,,,,0,castilian,0,1,1.91016,0,47,47,14,1,15,./stim/wavs/andalusian_match_declarative-narrow-focus_Mariano-habla-del-tiempo.wav,./stim/wavs/argentine_match_declarative-narrow-focus_Mariano-habla-del-tiempo.wav,./stim/wavs/castilian_match_declarative-narrow-focus_Mariano-habla-del-tiempo.wav,./stim/wavs/chilean_match_declarative-narrow-focus_Mariano-habla-del-tiempo.wav,./stim/wavs/cuban_match_declarative-narrow-focus_Mariano-habla-del-tiempo.wav,./stim/wavs/mexican_match_declarative-narrow-focus_Mariano-habla-del-tiempo.wav,./stim/wavs/peruvian_match_declarative-narrow-focus_Mariano-habla-del-tiempo.wav,./stim/wavs/puertorican_match_declarative-narrow-focus_Mariano-habla-del-tiempo.wav,,,,,,,,,,,,,,,,,,,,,,,,,,,,,,,,,,,,,,,,,,,,,,,,,,,,,,,,
,,,,,,,5e92a1a4fc57e20f92eef47f,60568611ec04488a9e9da93b,6057830754f90515f6c1b42a,I am not familiar with Spanish,Northeast,NA,no,2021-03-21_10h35.15.558,empathy_intonation_perc,2020.2.10,Win32,60,,,,,,,,,,0,argentine,0,1,1.38548,0,48,48,5,1,6,./stim/wavs/andalusian_match_declarative-broad-focus_Maria-bebe-el-vino.wav,./stim/wavs/argentine_match_declarative-broad-focus_Maria-bebe-el-vino.wav,./stim/wavs/castilian_match_declarative-broad-focus_Maria-bebe-el-vino.wav,./stim/wavs/chilean_match_declarative-broad-focus_Maria-bebe-el-vino.wav,./stim/wavs/cuban_match_declarative-broad-focus_Maria-bebe-el-vino.wav,./stim/wavs/mexican_match_declarative-broad-focus_Maria-bebe-el-vino.wav,./stim/wavs/peruvian_match_declarative-broad-focus_Maria-bebe-el-vino.wav,./stim/wavs/puertorican_match_declarative-broad-focus_Maria-bebe-el-vino.wav,,,,,,,,,,,,,,,,,,,,,,,,,,,,,,,,,,,,,,,,,,,,,,,,,,,,,,,,
,,,,,,,5e92a1a4fc57e20f92eef47f,60568611ec04488a9e9da93b,6057830754f90515f6c1b42a,I am not familiar with Spanish,Northeast,NA,no,2021-03-21_10h35.15.558,empathy_intonation_perc,2020.2.10,Win32,60,,,,,,,,,,0,mexican,0,1,1.47346,0,49,49,38,1,39,./stim/wavs/andalusian_mismatch_declarative-broad-focus_Mi-novio-viene-del-lago.wav,./stim/wavs/argentine_mismatch_declarative-broad-focus_Mi-novio-viene-del-lago.wav,./stim/wavs/castilian_mismatch_declarative-broad-focus_Mi-novio-viene-del-lago.wav,./stim/wavs/chilean_mismatch_declarative-broad-focus_Mi-novio-viene-del-lago.wav,./stim/wavs/cuban_mismatch_declarative-broad-focus_Mi-novio-viene-del-lago.wav,./stim/wavs/mexican_mismatch_declarative-broad-focus_Mi-novio-viene-del-lago.wav,./stim/wavs/peruvian_mismatch_declarative-broad-focus_Mi-novio-viene-del-lago.wav,./stim/wavs/puertorican_mismatch_declarative-broad-focus_Mi-novio-viene-del-lago.wav,,,,,,,,,,,,,,,,,,,,,,,,,,,,,,,,,,,,,,,,,,,,,,,,,,,,,,,,
,,,,,,,5e92a1a4fc57e20f92eef47f,60568611ec04488a9e9da93b,6057830754f90515f6c1b42a,I am not familiar with Spanish,Northeast,NA,no,2021-03-21_10h35.15.558,empathy_intonation_perc,2020.2.10,Win32,60,,,,,,,,,,0,peruvian,0,1,1.99421,0,50,50,6,1,7,./stim/wavs/andalusian_match_declarative-broad-focus_Mariano-habla-del-tiempo.wav,./stim/wavs/argentine_match_declarative-broad-focus_Mariano-habla-del-tiempo.wav,./stim/wavs/castilian_match_declarative-broad-focus_Mariano-habla-del-tiempo.wav,./stim/wavs/chilean_match_declarative-broad-focus_Mariano-habla-del-tiempo.wav,./stim/wavs/cuban_match_declarative-broad-focus_Mariano-habla-del-tiempo.wav,./stim/wavs/mexican_match_declarative-broad-focus_Mariano-habla-del-tiempo.wav,./stim/wavs/peruvian_match_declarative-broad-focus_Mariano-habla-del-tiempo.wav,./stim/wavs/puertorican_match_declarative-broad-focus_Mariano-habla-del-tiempo.wav,,,,,,,,,,,,,,,,,,,,,,,,,,,,,,,,,,,,,,,,,,,,,,,,,,,,,,,,
,,,,,,,5e92a1a4fc57e20f92eef47f,60568611ec04488a9e9da93b,6057830754f90515f6c1b42a,I am not familiar with Spanish,Northeast,NA,no,2021-03-21_10h35.15.558,empathy_intonation_perc,2020.2.10,Win32,60,,,,,,,,,,1,argentine,0,0,1.494715,0,51,51,23,1,24,./stim/wavs/andalusian_match_interrogative-partial-wh_Por-que-iba-a-Bolivia.wav,./stim/wavs/argentine_match_interrogative-partial-wh_Por-que-iba-a-Bolivia.wav,./stim/wavs/castilian_match_interrogative-partial-wh_Por-que-iba-a-Bolivia.wav,./stim/wavs/chilean_match_interrogative-partial-wh_Por-que-iba-a-Bolivia.wav,./stim/wavs/cuban_match_interrogative-partial-wh_Por-que-iba-a-Bolivia.wav,./stim/wavs/mexican_match_interrogative-partial-wh_Por-que-iba-a-Bolivia.wav,./stim/wavs/peruvian_match_interrogative-partial-wh_Por-que-iba-a-Bolivia.wav,./stim/wavs/puertorican_match_interrogative-partial-wh_Por-que-iba-a-Bolivia.wav,,,,,,,,,,,,,,,,,,,,,,,,,,,,,,,,,,,,,,,,,,,,,,,,,,,,,,,,
,,,,,,,5e92a1a4fc57e20f92eef47f,60568611ec04488a9e9da93b,6057830754f90515f6c1b42a,I am not familiar with Spanish,Northeast,NA,no,2021-03-21_10h35.15.558,empathy_intonation_perc,2020.2.10,Win32,60,,,,,,,,,,0,cuban,0,1,1.623975,0,52,52,34,1,35,./stim/wavs/andalusian_mismatch_declarative-broad-focus_El-nino-oye-el-rio.wav,./stim/wavs/argentine_mismatch_declarative-broad-focus_El-nino-oye-el-rio.wav,./stim/wavs/castilian_mismatch_declarative-broad-focus_El-nino-oye-el-rio.wav,./stim/wavs/chilean_mismatch_declarative-broad-focus_El-nino-oye-el-rio.wav,./stim/wavs/cuban_mismatch_declarative-broad-focus_El-nino-oye-el-rio.wav,./stim/wavs/mexican_mismatch_declarative-broad-focus_El-nino-oye-el-rio.wav,./stim/wavs/peruvian_mismatch_declarative-broad-focus_El-nino-oye-el-rio.wav,./stim/wavs/puertorican_mismatch_declarative-broad-focus_El-nino-oye-el-rio.wav,,,,,,,,,,,,,,,,,,,,,,,,,,,,,,,,,,,,,,,,,,,,,,,,,,,,,,,,
,,,,,,,5e92a1a4fc57e20f92eef47f,60568611ec04488a9e9da93b,6057830754f90515f6c1b42a,I am not familiar with Spanish,Northeast,NA,no,2021-03-21_10h35.15.558,empathy_intonation_perc,2020.2.10,Win32,60,,,,,,,,,,1,peruvian,1,1,1.72628,0,53,53,58,1,59,./stim/wavs/andalusian_mismatch_interrogative-total-yn_El-nino-oye-el-rio.wav,./stim/wavs/argentine_mismatch_interrogative-total-yn_El-nino-oye-el-rio.wav,./stim/wavs/castilian_mismatch_interrogative-total-yn_El-nino-oye-el-rio.wav,./stim/wavs/chilean_mismatch_interrogative-total-yn_El-nino-oye-el-rio.wav,./stim/wavs/cuban_mismatch_interrogative-total-yn_El-nino-oye-el-rio.wav,./stim/wavs/mexican_mismatch_interrogative-total-yn_El-nino-oye-el-rio.wav,./stim/wavs/peruvian_mismatch_interrogative-total-yn_El-nino-oye-el-rio.wav,./stim/wavs/puertorican_mismatch_interrogative-total-yn_El-nino-oye-el-rio.wav,,,,,,,,,,,,,,,,,,,,,,,,,,,,,,,,,,,,,,,,,,,,,,,,,,,,,,,,
,,,,,,,5e92a1a4fc57e20f92eef47f,60568611ec04488a9e9da93b,6057830754f90515f6c1b42a,I am not familiar with Spanish,Northeast,NA,no,2021-03-21_10h35.15.558,empathy_intonation_perc,2020.2.10,Win32,60,,,,,,,,,,1,mexican,1,1,1.486295,0,54,54,18,1,19,./stim/wavs/andalusian_match_interrogative-partial-wh_Cuando-lleva-el-abrigo.wav,./stim/wavs/argentine_match_interrogative-partial-wh_Cuando-lleva-el-abrigo.wav,./stim/wavs/castilian_match_interrogative-partial-wh_Cuando-lleva-el-abrigo.wav,./stim/wavs/chilean_match_interrogative-partial-wh_Cuando-lleva-el-abrigo.wav,./stim/wavs/cuban_match_interrogative-partial-wh_Cuando-lleva-el-abrigo.wav,./stim/wavs/mexican_match_interrogative-partial-wh_Cuando-lleva-el-abrigo.wav,./stim/wavs/peruvian_match_interrogative-partial-wh_Cuando-lleva-el-abrigo.wav,./stim/wavs/puertorican_match_interrogative-partial-wh_Cuando-lleva-el-abrigo.wav,,,,,,,,,,,,,,,,,,,,,,,,,,,,,,,,,,,,,,,,,,,,,,,,,,,,,,,,
,,,,,,,5e92a1a4fc57e20f92eef47f,60568611ec04488a9e9da93b,6057830754f90515f6c1b42a,I am not familiar with Spanish,Northeast,NA,no,2021-03-21_10h35.15.558,empathy_intonation_perc,2020.2.10,Win32,60,,,,,,,,,,1,chilean,1,1,1.554765,0,55,55,54,1,55,./stim/wavs/andalusian_mismatch_interrogative-partial-wh_Por-que-venia-del-lago.wav,./stim/wavs/argentine_mismatch_interrogative-partial-wh_Por-que-venia-del-lago.wav,./stim/wavs/castilian_mismatch_interrogative-partial-wh_Por-que-venia-del-lago.wav,./stim/wavs/chilean_mismatch_interrogative-partial-wh_Por-que-venia-del-lago.wav,./stim/wavs/cuban_mismatch_interrogative-partial-wh_Por-que-venia-del-lago.wav,./stim/wavs/mexican_mismatch_interrogative-partial-wh_Por-que-venia-del-lago.wav,./stim/wavs/peruvian_mismatch_interrogative-partial-wh_Por-que-venia-del-lago.wav,./stim/wavs/puertorican_mismatch_interrogative-partial-wh_Por-que-venia-del-lago.wav,,,,,,,,,,,,,,,,,,,,,,,,,,,,,,,,,,,,,,,,,,,,,,,,,,,,,,,,
,,,,,,,5e92a1a4fc57e20f92eef47f,60568611ec04488a9e9da93b,6057830754f90515f6c1b42a,I am not familiar with Spanish,Northeast,NA,no,2021-03-21_10h35.15.558,empathy_intonation_perc,2020.2.10,Win32,60,,,,,,,,,,0,andalusian,0,1,1.87172,0,56,56,44,1,45,./stim/wavs/andalusian_mismatch_declarative-narrow-focus_La-nina-lava-el-plato.wav,./stim/wavs/argentine_mismatch_declarative-narrow-focus_La-nina-lava-el-plato.wav,./stim/wavs/castilian_mismatch_declarative-narrow-focus_La-nina-lava-el-plato.wav,./stim/wavs/chilean_mismatch_declarative-narrow-focus_La-nina-lava-el-plato.wav,./stim/wavs/cuban_mismatch_declarative-narrow-focus_La-nina-lava-el-plato.wav,./stim/wavs/mexican_mismatch_declarative-narrow-focus_La-nina-lava-el-plato.wav,./stim/wavs/peruvian_mismatch_declarative-narrow-focus_La-nina-lava-el-plato.wav,./stim/wavs/puertorican_mismatch_declarative-narrow-focus_La-nina-lava-el-plato.wav,,,,,,,,,,,,,,,,,,,,,,,,,,,,,,,,,,,,,,,,,,,,,,,,,,,,,,,,
,,,,,,,5e92a1a4fc57e20f92eef47f,60568611ec04488a9e9da93b,6057830754f90515f6c1b42a,I am not familiar with Spanish,Northeast,NA,no,2021-03-21_10h35.15.558,empathy_intonation_perc,2020.2.10,Win32,60,,,,,,,,,,0,castilian,0,1,1.841115,0,57,57,4,1,5,./stim/wavs/andalusian_match_declarative-broad-focus_Manuela-vende-el-carro.wav,./stim/wavs/argentine_match_declarative-broad-focus_Manuela-vende-el-carro.wav,./stim/wavs/castilian_match_declarative-broad-focus_Manuela-vende-el-carro.wav,./stim/wavs/chilean_match_declarative-broad-focus_Manuela-vende-el-carro.wav,./stim/wavs/cuban_match_declarative-broad-focus_Manuela-vende-el-carro.wav,./stim/wavs/mexican_match_declarative-broad-focus_Manuela-vende-el-carro.wav,./stim/wavs/peruvian_match_declarative-broad-focus_Manuela-vende-el-carro.wav,./stim/wavs/puertorican_match_declarative-broad-focus_Manuela-vende-el-carro.wav,,,,,,,,,,,,,,,,,,,,,,,,,,,,,,,,,,,,,,,,,,,,,,,,,,,,,,,,
,,,,,,,5e92a1a4fc57e20f92eef47f,60568611ec04488a9e9da93b,6057830754f90515f6c1b42a,I am not familiar with Spanish,Northeast,NA,no,2021-03-21_10h35.15.558,empathy_intonation_perc,2020.2.10,Win32,60,,,,,,,,,,1,andalusian,1,1,1.691685,0,58,58,48,1,49,./stim/wavs/andalusian_mismatch_interrogative-partial-wh_Cuando-comia-la-fruta.wav,./stim/wavs/argentine_mismatch_interrogative-partial-wh_Cuando-comia-la-fruta.wav,./stim/wavs/castilian_mismatch_interrogative-partial-wh_Cuando-comia-la-fruta.wav,./stim/wavs/chilean_mismatch_interrogative-partial-wh_Cuando-comia-la-fruta.wav,./stim/wavs/cuban_mismatch_interrogative-partial-wh_Cuando-comia-la-fruta.wav,./stim/wavs/mexican_mismatch_interrogative-partial-wh_Cuando-comia-la-fruta.wav,./stim/wavs/peruvian_mismatch_interrogative-partial-wh_Cuando-comia-la-fruta.wav,./stim/wavs/puertorican_mismatch_interrogative-partial-wh_Cuando-comia-la-fruta.wav,,,,,,,,,,,,,,,,,,,,,,,,,,,,,,,,,,,,,,,,,,,,,,,,,,,,,,,,
,,,,,,,5e92a1a4fc57e20f92eef47f,60568611ec04488a9e9da93b,6057830754f90515f6c1b42a,I am not familiar with Spanish,Northeast,NA,no,2021-03-21_10h35.15.558,empathy_intonation_perc,2020.2.10,Win32,60,,,,,,,,,,0,peruvian,0,1,2.09308,0,59,59,47,1,48,./stim/wavs/andalusian_mismatch_declarative-narrow-focus_Mi-tia-odia-la-lluvia.wav,./stim/wavs/argentine_mismatch_declarative-narrow-focus_Mi-tia-odia-la-lluvia.wav,./stim/wavs/castilian_mismatch_declarative-narrow-focus_Mi-tia-odia-la-lluvia.wav,./stim/wavs/chilean_mismatch_declarative-narrow-focus_Mi-tia-odia-la-lluvia.wav,./stim/wavs/cuban_mismatch_declarative-narrow-focus_Mi-tia-odia-la-lluvia.wav,./stim/wavs/mexican_mismatch_declarative-narrow-focus_Mi-tia-odia-la-lluvia.wav,./stim/wavs/peruvian_mismatch_declarative-narrow-focus_Mi-tia-odia-la-lluvia.wav,./stim/wavs/puertorican_mismatch_declarative-narrow-focus_Mi-tia-odia-la-lluvia.wav,,,,,,,,,,,,,,,,,,,,,,,,,,,,,,,,,,,,,,,,,,,,,,,,,,,,,,,,
,,,,,,,5e92a1a4fc57e20f92eef47f,60568611ec04488a9e9da93b,6057830754f90515f6c1b42a,I am not familiar with Spanish,Northeast,NA,no,2021-03-21_10h35.15.558,empathy_intonation_perc,2020.2.10,Win32,60,,,,,,,,,,0,cuban,0,1,1.491715,0,60,60,3,1,4,./stim/wavs/andalusian_match_declarative-broad-focus_Emilio-ama-la-marcha.wav,./stim/wavs/argentine_match_declarative-broad-focus_Emilio-ama-la-marcha.wav,./stim/wavs/castilian_match_declarative-broad-focus_Emilio-ama-la-marcha.wav,./stim/wavs/chilean_match_declarative-broad-focus_Emilio-ama-la-marcha.wav,./stim/wavs/cuban_match_declarative-broad-focus_Emilio-ama-la-marcha.wav,./stim/wavs/mexican_match_declarative-broad-focus_Emilio-ama-la-marcha.wav,./stim/wavs/peruvian_match_declarative-broad-focus_Emilio-ama-la-marcha.wav,./stim/wavs/puertorican_match_declarative-broad-focus_Emilio-ama-la-marcha.wav,,,,,,,,,,,,,,,,,,,,,,,,,,,,,,,,,,,,,,,,,,,,,,,,,,,,,,,,
,,,,,,,5e92a1a4fc57e20f92eef47f,60568611ec04488a9e9da93b,6057830754f90515f6c1b42a,I am not familiar with Spanish,Northeast,NA,no,2021-03-21_10h35.15.558,empathy_intonation_perc,2020.2.10,Win32,60,,,,,,,,,,1,chilean,1,1,1.80121,0,61,61,52,1,53,./stim/wavs/andalusian_mismatch_interrogative-partial-wh_Por-que-odiaba-la-lluvia.wav,./stim/wavs/argentine_mismatch_interrogative-partial-wh_Por-que-odiaba-la-lluvia.wav,./stim/wavs/castilian_mismatch_interrogative-partial-wh_Por-que-odiaba-la-lluvia.wav,./stim/wavs/chilean_mismatch_interrogative-partial-wh_Por-que-odiaba-la-lluvia.wav,./stim/wavs/cuban_mismatch_interrogative-partial-wh_Por-que-odiaba-la-lluvia.wav,./stim/wavs/mexican_mismatch_interrogative-partial-wh_Por-que-odiaba-la-lluvia.wav,./stim/wavs/peruvian_mismatch_interrogative-partial-wh_Por-que-odiaba-la-lluvia.wav,./stim/wavs/puertorican_mismatch_interrogative-partial-wh_Por-que-odiaba-la-lluvia.wav,,,,,,,,,,,,,,,,,,,,,,,,,,,,,,,,,,,,,,,,,,,,,,,,,,,,,,,,
,,,,,,,5e92a1a4fc57e20f92eef47f,60568611ec04488a9e9da93b,6057830754f90515f6c1b42a,I am not familiar with Spanish,Northeast,NA,no,2021-03-21_10h35.15.558,empathy_intonation_perc,2020.2.10,Win32,60,,,,,,,,,,1,peruvian,1,1,1.940925,0,62,62,27,1,28,./stim/wavs/andalusian_match_interrogative-total-yn_Emilio-ama-la-marcha.wav,./stim/wavs/argentine_match_interrogative-total-yn_Emilio-ama-la-marcha.wav,./stim/wavs/castilian_match_interrogative-total-yn_Emilio-ama-la-marcha.wav,./stim/wavs/chilean_match_interrogative-total-yn_Emilio-ama-la-marcha.wav,./stim/wavs/cuban_match_interrogative-total-yn_Emilio-ama-la-marcha.wav,./stim/wavs/mexican_match_interrogative-total-yn_Emilio-ama-la-marcha.wav,./stim/wavs/peruvian_match_interrogative-total-yn_Emilio-ama-la-marcha.wav,./stim/wavs/puertorican_match_interrogative-total-yn_Emilio-ama-la-marcha.wav,,,,,,,,,,,,,,,,,,,,,,,,,,,,,,,,,,,,,,,,,,,,,,,,,,,,,,,,
,,,,,,,5e92a1a4fc57e20f92eef47f,60568611ec04488a9e9da93b,6057830754f90515f6c1b42a,I am not familiar with Spanish,Northeast,NA,no,2021-03-21_10h35.15.558,empathy_intonation_perc,2020.2.10,Win32,60,,,,,,,,,,0,andalusian,0,1,1.50775,0,63,63,37,1,38,./stim/wavs/andalusian_mismatch_declarative-broad-focus_Mi-madre-come-la-fruta.wav,./stim/wavs/argentine_mismatch_declarative-broad-focus_Mi-madre-come-la-fruta.wav,./stim/wavs/castilian_mismatch_declarative-broad-focus_Mi-madre-come-la-fruta.wav,./stim/wavs/chilean_mismatch_declarative-broad-focus_Mi-madre-come-la-fruta.wav,./stim/wavs/cuban_mismatch_declarative-broad-focus_Mi-madre-come-la-fruta.wav,./stim/wavs/mexican_mismatch_declarative-broad-focus_Mi-madre-come-la-fruta.wav,./stim/wavs/peruvian_mismatch_declarative-broad-focus_Mi-madre-come-la-fruta.wav,./stim/wavs/puertorican_mismatch_declarative-broad-focus_Mi-madre-come-la-fruta.wav,,,,,,,,,,,,,,,,,,,,,,,,,,,,,,,,,,,,,,,,,,,,,,,,,,,,,,,,
,,,,,,,5e92a1a4fc57e20f92eef47f,60568611ec04488a9e9da93b,6057830754f90515f6c1b42a,I am not familiar with Spanish,Northeast,NA,no,2021-03-21_10h35.15.558,empathy_intonation_perc,2020.2.10,Win32,60,,,,,,,,,,,,,,,,,,,,,,,,,,,,,h,1,7.94318,0,0,0,0,1,,,,,,,,,,,,,,,,,,,,,,,,,,,,,,,,,,,,,,,,,,,,,,,,
,,,,,"Great! Now we will move on. The next task consists of about 60 trials, in each of which you will see a string of letters. 
  
  Your task is to decide whether this is a real Spanish word or not.",(press the spacebar to continue),5e92a1a4fc57e20f92eef47f,60568611ec04488a9e9da93b,6057830754f90515f6c1b42a,I am not familiar with Spanish,Northeast,NA,no,2021-03-21_10h35.15.558,empathy_intonation_perc,2020.2.10,Win32,60,,,,,,,,,,,,,,,,,,,,,,,,,,,,,,,,,,,,,0,0,0,0,1,,,,,,,,,,,,,,,,,,,,,,,,,,,,,,,,,,,,,,,,,,,
,,,,,"If you think it is an existing Spanish word, you type '1' (for 'REAL'), and if you think it is not an existing Spanish word, you type '0' (for 'FAKE').",(press the spacebar to continue),5e92a1a4fc57e20f92eef47f,60568611ec04488a9e9da93b,6057830754f90515f6c1b42a,I am not familiar with Spanish,Northeast,NA,no,2021-03-21_10h35.15.558,empathy_intonation_perc,2020.2.10,Win32,60,,,,,,,,,,,,,,,,,,,,,,,,,,,,,,,,,,,,,0,1,1,1,1,,,,,,,,,,,,,,,,,,,,,,,,,,,,,,,,,,,,,,,,,,,
,,,,,"If you are sure that the word exists, even though you dont know its exact meaning, you may still respond '1' (REAL). 
  
  But if you are not sure if it is an existing word, you should respond '0' (FAKE).
  
  Let's do a practice round...",(press the spacebar to continue),5e92a1a4fc57e20f92eef47f,60568611ec04488a9e9da93b,6057830754f90515f6c1b42a,I am not familiar with Spanish,Northeast,NA,no,2021-03-21_10h35.15.558,empathy_intonation_perc,2020.2.10,Win32,60,,,,,,,,,,,,,,,,,,,,,,,,,,,,,,,,,,,,,0,2,2,2,1,,,,,,,,,,,,,,,,,,,,,,,,,,,,,,,,,,,,,,,,,,,
,,,,,,,5e92a1a4fc57e20f92eef47f,60568611ec04488a9e9da93b,6057830754f90515f6c1b42a,I am not familiar with Spanish,Northeast,NA,no,2021-03-21_10h35.15.558,empathy_intonation_perc,2020.2.10,Win32,60,,,,,,,,,,0,,,,,,,,,,,,,,,,,,,,,,,,,,,,,,,,1,0,2.239295,0,0,0,0,1,0,depiste,REAL,FAKE,,,,,,,,,,,,,,,,,,,,,,,,,,,,,,,
,,,,,,,5e92a1a4fc57e20f92eef47f,60568611ec04488a9e9da93b,6057830754f90515f6c1b42a,I am not familiar with Spanish,Northeast,NA,no,2021-03-21_10h35.15.558,empathy_intonation_perc,2020.2.10,Win32,60,,,,,,,,,,1,,,,,,,,,,,,,,,,,,,,,,,,,,,,,,,,1,1,1.02501,0,1,1,1,1,0,s,REAL,FAKE,,,,,,,,,,,,,,,,,,,,,,,,,,,,,,,
,,,,,,,5e92a1a4fc57e20f92eef47f,60568611ec04488a9e9da93b,6057830754f90515f6c1b42a,I am not familiar with Spanish,Northeast,NA,no,2021-03-21_10h35.15.558,empathy_intonation_perc,2020.2.10,Win32,60,,,,,,,,,,0,,,,,,,,,,,,,,,,,,,,,,,,,,,,,,,,0,1,1.40595,0,2,2,2,1,0,con,REAL,FAKE,,,,,,,,,,,,,,,,,,,,,,,,,,,,,,,
,,,,,,,5e92a1a4fc57e20f92eef47f,60568611ec04488a9e9da93b,6057830754f90515f6c1b42a,I am not familiar with Spanish,Northeast,NA,no,2021-03-21_10h35.15.558,empathy_intonation_perc,2020.2.10,Win32,60,,,,,,,,,,0,,,,,,,,,,,,,,,,,,,,,,,,,,,,,,,,0,1,0.80372,0,3,3,3,1,0,calpar,REAL,FAKE,,,,,,,,,,,,,,,,,,,,,,,,,,,,,,,
,,,,,,,5e92a1a4fc57e20f92eef47f,60568611ec04488a9e9da93b,6057830754f90515f6c1b42a,I am not familiar with Spanish,Northeast,NA,no,2021-03-21_10h35.15.558,empathy_intonation_perc,2020.2.10,Win32,60,,,,,,,,,,0,,,,,,,,,,,,,,,,,,,,,,,,,,,,,,,,0,1,0.603175,0,4,4,4,1,0,joten,REAL,FAKE,,,,,,,,,,,,,,,,,,,,,,,,,,,,,,,
,,,,,,,5e92a1a4fc57e20f92eef47f,60568611ec04488a9e9da93b,6057830754f90515f6c1b42a,I am not familiar with Spanish,Northeast,NA,no,2021-03-21_10h35.15.558,empathy_intonation_perc,2020.2.10,Win32,60,,,,,,,,,,1,,,,,,,,,,,,,,,,,,,,,,,,,,,,,,,,0,0,1.15737,0,5,5,5,1,0,sacapuntas,REAL,FAKE,,,,,,,,,,,,,,,,,,,,,,,,,,,,,,,
,,,,,,,5e92a1a4fc57e20f92eef47f,60568611ec04488a9e9da93b,6057830754f90515f6c1b42a,I am not familiar with Spanish,Northeast,NA,no,2021-03-21_10h35.15.558,empathy_intonation_perc,2020.2.10,Win32,60,,,,,,,,,,0,,,,,,,,,,,,,,,,,,,,,,,,,,,,,,,,1,0,1.06835,0,6,6,6,1,0,priba,REAL,FAKE,,,,,,,,,,,,,,,,,,,,,,,,,,,,,,,
,,,,,,,5e92a1a4fc57e20f92eef47f,60568611ec04488a9e9da93b,6057830754f90515f6c1b42a,I am not familiar with Spanish,Northeast,NA,no,2021-03-21_10h35.15.558,empathy_intonation_perc,2020.2.10,Win32,60,,,,,,,,,,0,,,,,,,,,,,,,,,,,,,,,,,,,,,,,,,,1,0,1.00868,0,7,7,7,1,0,pelasula,REAL,FAKE,,,,,,,,,,,,,,,,,,,,,,,,,,,,,,,
,,,,,,,5e92a1a4fc57e20f92eef47f,60568611ec04488a9e9da93b,6057830754f90515f6c1b42a,I am not familiar with Spanish,Northeast,NA,no,2021-03-21_10h35.15.558,empathy_intonation_perc,2020.2.10,Win32,60,,,,,,,,,,1,,,,,,,,,,,,,,,,,,,,,,,,,,,,,,,,1,1,0.80997,0,8,8,8,1,0,bien,REAL,FAKE,,,,,,,,,,,,,,,,,,,,,,,,,,,,,,,
,,,,,,,5e92a1a4fc57e20f92eef47f,60568611ec04488a9e9da93b,6057830754f90515f6c1b42a,I am not familiar with Spanish,Northeast,NA,no,2021-03-21_10h35.15.558,empathy_intonation_perc,2020.2.10,Win32,60,,,,,,,,,,1,,,,,,,,,,,,,,,,,,,,,,,,,,,,,,,,1,1,0.736255,0,9,9,9,1,0,casa,REAL,FAKE,,,,,,,,,,,,,,,,,,,,,,,,,,,,,,,
,,,,,,,5e92a1a4fc57e20f92eef47f,60568611ec04488a9e9da93b,6057830754f90515f6c1b42a,I am not familiar with Spanish,Northeast,NA,no,2021-03-21_10h35.15.558,empathy_intonation_perc,2020.2.10,Win32,60,,,,,,,,,,0,,,,,,,,,,,,,,,,,,,,,,,,,,,,,,,,0,1,0.669515,0,10,10,10,1,0,lejo,REAL,FAKE,,,,,,,,,,,,,,,,,,,,,,,,,,,,,,,
,,,,,,,5e92a1a4fc57e20f92eef47f,60568611ec04488a9e9da93b,6057830754f90515f6c1b42a,I am not familiar with Spanish,Northeast,NA,no,2021-03-21_10h35.15.558,empathy_intonation_perc,2020.2.10,Win32,60,,,,,,,,,,0,,,,,,,,,,,,,,,,,,,,,,,,,,,,,,,,0,1,0.55105,0,11,11,11,1,0,pretantas,REAL,FAKE,,,,,,,,,,,,,,,,,,,,,,,,,,,,,,,
,,,,,,,5e92a1a4fc57e20f92eef47f,60568611ec04488a9e9da93b,6057830754f90515f6c1b42a,I am not familiar with Spanish,Northeast,NA,no,2021-03-21_10h35.15.558,empathy_intonation_perc,2020.2.10,Win32,60,,,,,,,,,,1,,,,,,,,,,,,,,,,,,,,,,,,,,,,,,,,,,,,,,,,25,bisagra,,,0,0,0.953865,0,0,0,24,1,REAL,FAKE,,,,,,,,,,,,,,,,,,,,,
,,,,,,,5e92a1a4fc57e20f92eef47f,60568611ec04488a9e9da93b,6057830754f90515f6c1b42a,I am not familiar with Spanish,Northeast,NA,no,2021-03-21_10h35.15.558,empathy_intonation_perc,2020.2.10,Win32,60,,,,,,,,,,1,,,,,,,,,,,,,,,,,,,,,,,,,,,,,,,,,,,,,,,,46,martillo,,,1,1,1.30447,0,1,1,45,1,REAL,FAKE,,,,,,,,,,,,,,,,,,,,,
,,,,,,,5e92a1a4fc57e20f92eef47f,60568611ec04488a9e9da93b,6057830754f90515f6c1b42a,I am not familiar with Spanish,Northeast,NA,no,2021-03-21_10h35.15.558,empathy_intonation_perc,2020.2.10,Win32,60,,,,,,,,,,0,,,,,,,,,,,,,,,,,,,,,,,,,,,,,,,,,,,,,,,,21,capillo,,,1,0,0.852665,0,2,2,20,1,REAL,FAKE,,,,,,,,,,,,,,,,,,,,,
,,,,,,,5e92a1a4fc57e20f92eef47f,60568611ec04488a9e9da93b,6057830754f90515f6c1b42a,I am not familiar with Spanish,Northeast,NA,no,2021-03-21_10h35.15.558,empathy_intonation_perc,2020.2.10,Win32,60,,,,,,,,,,1,,,,,,,,,,,,,,,,,,,,,,,,,,,,,,,,,,,,,,,,78,frondoso,,,0,0,0.80633,0,3,3,77,1,REAL,FAKE,,,,,,,,,,,,,,,,,,,,,
,,,,,,,5e92a1a4fc57e20f92eef47f,60568611ec04488a9e9da93b,6057830754f90515f6c1b42a,I am not familiar with Spanish,Northeast,NA,no,2021-03-21_10h35.15.558,empathy_intonation_perc,2020.2.10,Win32,60,,,,,,,,,,1,,,,,,,,,,,,,,,,,,,,,,,,,,,,,,,,,,,,,,,,9,hacha,,,1,1,1.50311,0,4,4,8,1,REAL,FAKE,,,,,,,,,,,,,,,,,,,,,
,,,,,,,5e92a1a4fc57e20f92eef47f,60568611ec04488a9e9da93b,6057830754f90515f6c1b42a,I am not familiar with Spanish,Northeast,NA,no,2021-03-21_10h35.15.558,empathy_intonation_perc,2020.2.10,Win32,60,,,,,,,,,,1,,,,,,,,,,,,,,,,,,,,,,,,,,,,,,,,,,,,,,,,89,prisa,,,0,0,1.351745,0,5,5,88,1,REAL,FAKE,,,,,,,,,,,,,,,,,,,,,
,,,,,,,5e92a1a4fc57e20f92eef47f,60568611ec04488a9e9da93b,6057830754f90515f6c1b42a,I am not familiar with Spanish,Northeast,NA,no,2021-03-21_10h35.15.558,empathy_intonation_perc,2020.2.10,Win32,60,,,,,,,,,,1,,,,,,,,,,,,,,,,,,,,,,,,,,,,,,,,,,,,,,,,75,yacer,,,0,0,0.600805,0,6,6,74,1,REAL,FAKE,,,,,,,,,,,,,,,,,,,,,
,,,,,,,5e92a1a4fc57e20f92eef47f,60568611ec04488a9e9da93b,6057830754f90515f6c1b42a,I am not familiar with Spanish,Northeast,NA,no,2021-03-21_10h35.15.558,empathy_intonation_perc,2020.2.10,Win32,60,,,,,,,,,,1,,,,,,,,,,,,,,,,,,,,,,,,,,,,,,,,,,,,,,,,51,candado,,,1,1,1.800765,0,7,7,50,1,REAL,FAKE,,,,,,,,,,,,,,,,,,,,,
,,,,,,,5e92a1a4fc57e20f92eef47f,60568611ec04488a9e9da93b,6057830754f90515f6c1b42a,I am not familiar with Spanish,Northeast,NA,no,2021-03-21_10h35.15.558,empathy_intonation_perc,2020.2.10,Win32,60,,,,,,,,,,1,,,,,,,,,,,,,,,,,,,,,,,,,,,,,,,,,,,,,,,,28,merodear,,,0,0,1.154565,0,8,8,27,1,REAL,FAKE,,,,,,,,,,,,,,,,,,,,,
,,,,,,,5e92a1a4fc57e20f92eef47f,60568611ec04488a9e9da93b,6057830754f90515f6c1b42a,I am not familiar with Spanish,Northeast,NA,no,2021-03-21_10h35.15.558,empathy_intonation_perc,2020.2.10,Win32,60,,,,,,,,,,1,,,,,,,,,,,,,,,,,,,,,,,,,,,,,,,,,,,,,,,,44,cuchara,,,1,1,1.10531,0,9,9,43,1,REAL,FAKE,,,,,,,,,,,,,,,,,,,,,
,,,,,,,5e92a1a4fc57e20f92eef47f,60568611ec04488a9e9da93b,6057830754f90515f6c1b42a,I am not familiar with Spanish,Northeast,NA,no,2021-03-21_10h35.15.558,empathy_intonation_perc,2020.2.10,Win32,60,,,,,,,,,,1,,,,,,,,,,,,,,,,,,,,,,,,,,,,,,,,,,,,,,,,20,vido,,,1,1,0.702195,0,10,10,19,1,REAL,FAKE,,,,,,,,,,,,,,,,,,,,,
,,,,,,,5e92a1a4fc57e20f92eef47f,60568611ec04488a9e9da93b,6057830754f90515f6c1b42a,I am not familiar with Spanish,Northeast,NA,no,2021-03-21_10h35.15.558,empathy_intonation_perc,2020.2.10,Win32,60,,,,,,,,,,0,,,,,,,,,,,,,,,,,,,,,,,,,,,,,,,,,,,,,,,,8,cadea,,,1,0,1.34972,0,11,11,7,1,REAL,FAKE,,,,,,,,,,,,,,,,,,,,,
,,,,,,,5e92a1a4fc57e20f92eef47f,60568611ec04488a9e9da93b,6057830754f90515f6c1b42a,I am not familiar with Spanish,Northeast,NA,no,2021-03-21_10h35.15.558,empathy_intonation_perc,2020.2.10,Win32,60,,,,,,,,,,1,,,,,,,,,,,,,,,,,,,,,,,,,,,,,,,,,,,,,,,,55,nevar,,,0,0,0.70477,0,12,12,54,1,REAL,FAKE,,,,,,,,,,,,,,,,,,,,,
,,,,,,,5e92a1a4fc57e20f92eef47f,60568611ec04488a9e9da93b,6057830754f90515f6c1b42a,I am not familiar with Spanish,Northeast,NA,no,2021-03-21_10h35.15.558,empathy_intonation_perc,2020.2.10,Win32,60,,,,,,,,,,1,,,,,,,,,,,,,,,,,,,,,,,,,,,,,,,,,,,,,,,,40,alfombra,,,0,0,0.702285,0,13,13,39,1,REAL,FAKE,,,,,,,,,,,,,,,,,,,,,
,,,,,,,5e92a1a4fc57e20f92eef47f,60568611ec04488a9e9da93b,6057830754f90515f6c1b42a,I am not familiar with Spanish,Northeast,NA,no,2021-03-21_10h35.15.558,empathy_intonation_perc,2020.2.10,Win32,60,,,,,,,,,,1,,,,,,,,,,,,,,,,,,,,,,,,,,,,,,,,,,,,,,,,2,pellizcar,,,0,0,0.95317,0,14,14,1,1,REAL,FAKE,,,,,,,,,,,,,,,,,,,,,
,,,,,,,5e92a1a4fc57e20f92eef47f,60568611ec04488a9e9da93b,6057830754f90515f6c1b42a,I am not familiar with Spanish,Northeast,NA,no,2021-03-21_10h35.15.558,empathy_intonation_perc,2020.2.10,Win32,60,,,,,,,,,,1,,,,,,,,,,,,,,,,,,,,,,,,,,,,,,,,,,,,,,,,65,bizcocho,,,0,0,0.65163,0,15,15,64,1,REAL,FAKE,,,,,,,,,,,,,,,,,,,,,
,,,,,,,5e92a1a4fc57e20f92eef47f,60568611ec04488a9e9da93b,6057830754f90515f6c1b42a,I am not familiar with Spanish,Northeast,NA,no,2021-03-21_10h35.15.558,empathy_intonation_perc,2020.2.10,Win32,60,,,,,,,,,,1,,,,,,,,,,,,,,,,,,,,,,,,,,,,,,,,,,,,,,,,11,cenefa,,,0,0,0.809735,0,16,16,10,1,REAL,FAKE,,,,,,,,,,,,,,,,,,,,,
,,,,,,,5e92a1a4fc57e20f92eef47f,60568611ec04488a9e9da93b,6057830754f90515f6c1b42a,I am not familiar with Spanish,Northeast,NA,no,2021-03-21_10h35.15.558,empathy_intonation_perc,2020.2.10,Win32,60,,,,,,,,,,0,,,,,,,,,,,,,,,,,,,,,,,,,,,,,,,,,,,,,,,,84,escuto,,,0,1,0.71559,0,17,17,83,1,REAL,FAKE,,,,,,,,,,,,,,,,,,,,,
,,,,,,,5e92a1a4fc57e20f92eef47f,60568611ec04488a9e9da93b,6057830754f90515f6c1b42a,I am not familiar with Spanish,Northeast,NA,no,2021-03-21_10h35.15.558,empathy_intonation_perc,2020.2.10,Win32,60,,,,,,,,,,1,,,,,,,,,,,,,,,,,,,,,,,,,,,,,,,,,,,,,,,,7,psimo,,,1,1,1.186755,0,18,18,6,1,REAL,FAKE,,,,,,,,,,,,,,,,,,,,,
,,,,,,,5e92a1a4fc57e20f92eef47f,60568611ec04488a9e9da93b,6057830754f90515f6c1b42a,I am not familiar with Spanish,Northeast,NA,no,2021-03-21_10h35.15.558,empathy_intonation_perc,2020.2.10,Win32,60,,,,,,,,,,0,,,,,,,,,,,,,,,,,,,,,,,,,,,,,,,,,,,,,,,,1,terzo,,,0,1,0.751155,0,19,19,0,1,REAL,FAKE,,,,,,,,,,,,,,,,,,,,,
,,,,,,,5e92a1a4fc57e20f92eef47f,60568611ec04488a9e9da93b,6057830754f90515f6c1b42a,I am not familiar with Spanish,Northeast,NA,no,2021-03-21_10h35.15.558,empathy_intonation_perc,2020.2.10,Win32,60,,,,,,,,,,1,,,,,,,,,,,,,,,,,,,,,,,,,,,,,,,,,,,,,,,,34,aviso,,,0,0,1.040465,0,20,20,33,1,REAL,FAKE,,,,,,,,,,,,,,,,,,,,,
,,,,,,,5e92a1a4fc57e20f92eef47f,60568611ec04488a9e9da93b,6057830754f90515f6c1b42a,I am not familiar with Spanish,Northeast,NA,no,2021-03-21_10h35.15.558,empathy_intonation_perc,2020.2.10,Win32,60,,,,,,,,,,1,,,,,,,,,,,,,,,,,,,,,,,,,,,,,,,,,,,,,,,,12,asesinato,,,0,0,0.704245,0,21,21,11,1,REAL,FAKE,,,,,,,,,,,,,,,,,,,,,
,,,,,,,5e92a1a4fc57e20f92eef47f,60568611ec04488a9e9da93b,6057830754f90515f6c1b42a,I am not familiar with Spanish,Northeast,NA,no,2021-03-21_10h35.15.558,empathy_intonation_perc,2020.2.10,Win32,60,,,,,,,,,,0,,,,,,,,,,,,,,,,,,,,,,,,,,,,,,,,,,,,,,,,72,pemicin,,,0,1,1.288655,0,22,22,71,1,REAL,FAKE,,,,,,,,,,,,,,,,,,,,,
,,,,,,,5e92a1a4fc57e20f92eef47f,60568611ec04488a9e9da93b,6057830754f90515f6c1b42a,I am not familiar with Spanish,Northeast,NA,no,2021-03-21_10h35.15.558,empathy_intonation_perc,2020.2.10,Win32,60,,,,,,,,,,0,,,,,,,,,,,,,,,,,,,,,,,,,,,,,,,,,,,,,,,,33,pauca,,,0,1,1.65579,0,23,23,32,1,REAL,FAKE,,,,,,,,,,,,,,,,,,,,,
,,,,,,,5e92a1a4fc57e20f92eef47f,60568611ec04488a9e9da93b,6057830754f90515f6c1b42a,I am not familiar with Spanish,Northeast,NA,no,2021-03-21_10h35.15.558,empathy_intonation_perc,2020.2.10,Win32,60,,,,,,,,,,0,,,,,,,,,,,,,,,,,,,,,,,,,,,,,,,,,,,,,,,,10,antar,,,0,1,0.652505,0,24,24,9,1,REAL,FAKE,,,,,,,,,,,,,,,,,,,,,
,,,,,,,5e92a1a4fc57e20f92eef47f,60568611ec04488a9e9da93b,6057830754f90515f6c1b42a,I am not familiar with Spanish,Northeast,NA,no,2021-03-21_10h35.15.558,empathy_intonation_perc,2020.2.10,Win32,60,,,,,,,,,,1,,,,,,,,,,,,,,,,,,,,,,,,,,,,,,,,,,,,,,,,76,atar,,,0,0,0.801665,0,25,25,75,1,REAL,FAKE,,,,,,,,,,,,,,,,,,,,,
,,,,,,,5e92a1a4fc57e20f92eef47f,60568611ec04488a9e9da93b,6057830754f90515f6c1b42a,I am not familiar with Spanish,Northeast,NA,no,2021-03-21_10h35.15.558,empathy_intonation_perc,2020.2.10,Win32,60,,,,,,,,,,1,,,,,,,,,,,,,,,,,,,,,,,,,,,,,,,,,,,,,,,,52,camisa,,,0,0,0.668125,0,26,26,51,1,REAL,FAKE,,,,,,,,,,,,,,,,,,,,,
,,,,,,,5e92a1a4fc57e20f92eef47f,60568611ec04488a9e9da93b,6057830754f90515f6c1b42a,I am not familiar with Spanish,Northeast,NA,no,2021-03-21_10h35.15.558,empathy_intonation_perc,2020.2.10,Win32,60,,,,,,,,,,0,,,,,,,,,,,,,,,,,,,,,,,,,,,,,,,,,,,,,,,,4,batilln,,,1,0,0.889765,0,27,27,3,1,REAL,FAKE,,,,,,,,,,,,,,,,,,,,,
,,,,,,,5e92a1a4fc57e20f92eef47f,60568611ec04488a9e9da93b,6057830754f90515f6c1b42a,I am not familiar with Spanish,Northeast,NA,no,2021-03-21_10h35.15.558,empathy_intonation_perc,2020.2.10,Win32,60,,,,,,,,,,0,,,,,,,,,,,,,,,,,,,,,,,,,,,,,,,,,,,,,,,,17,floroso,,,0,1,0.91961,0,28,28,16,1,REAL,FAKE,,,,,,,,,,,,,,,,,,,,,
,,,,,,,5e92a1a4fc57e20f92eef47f,60568611ec04488a9e9da93b,6057830754f90515f6c1b42a,I am not familiar with Spanish,Northeast,NA,no,2021-03-21_10h35.15.558,empathy_intonation_perc,2020.2.10,Win32,60,,,,,,,,,,0,,,,,,,,,,,,,,,,,,,,,,,,,,,,,,,,,,,,,,,,70,temblo,,,1,0,1.23884,0,29,29,69,1,REAL,FAKE,,,,,,,,,,,,,,,,,,,,,
,,,,,,,5e92a1a4fc57e20f92eef47f,60568611ec04488a9e9da93b,6057830754f90515f6c1b42a,I am not familiar with Spanish,Northeast,NA,no,2021-03-21_10h35.15.558,empathy_intonation_perc,2020.2.10,Win32,60,,,,,,,,,,1,,,,,,,,,,,,,,,,,,,,,,,,,,,,,,,,,,,,,,,,69,engatusar,,,0,0,0.58653,0,30,30,68,1,REAL,FAKE,,,,,,,,,,,,,,,,,,,,,
,,,,,,,5e92a1a4fc57e20f92eef47f,60568611ec04488a9e9da93b,6057830754f90515f6c1b42a,I am not familiar with Spanish,Northeast,NA,no,2021-03-21_10h35.15.558,empathy_intonation_perc,2020.2.10,Win32,60,,,,,,,,,,1,,,,,,,,,,,,,,,,,,,,,,,,,,,,,,,,,,,,,,,,15,regar,,,0,0,0.765285,0,31,31,14,1,REAL,FAKE,,,,,,,,,,,,,,,,,,,,,
,,,,,,,5e92a1a4fc57e20f92eef47f,60568611ec04488a9e9da93b,6057830754f90515f6c1b42a,I am not familiar with Spanish,Northeast,NA,no,2021-03-21_10h35.15.558,empathy_intonation_perc,2020.2.10,Win32,60,,,,,,,,,,1,,,,,,,,,,,,,,,,,,,,,,,,,,,,,,,,,,,,,,,,48,ladrn,,,0,0,1.06901,0,32,32,47,1,REAL,FAKE,,,,,,,,,,,,,,,,,,,,,
,,,,,,,5e92a1a4fc57e20f92eef47f,60568611ec04488a9e9da93b,6057830754f90515f6c1b42a,I am not familiar with Spanish,Northeast,NA,no,2021-03-21_10h35.15.558,empathy_intonation_perc,2020.2.10,Win32,60,,,,,,,,,,1,,,,,,,,,,,,,,,,,,,,,,,,,,,,,,,,,,,,,,,,56,musgo,,,0,0,0.80295,0,33,33,55,1,REAL,FAKE,,,,,,,,,,,,,,,,,,,,,
,,,,,,,5e92a1a4fc57e20f92eef47f,60568611ec04488a9e9da93b,6057830754f90515f6c1b42a,I am not familiar with Spanish,Northeast,NA,no,2021-03-21_10h35.15.558,empathy_intonation_perc,2020.2.10,Win32,60,,,,,,,,,,1,,,,,,,,,,,,,,,,,,,,,,,,,,,,,,,,,,,,,,,,26,secuestro,,,0,0,1.74152,0,34,34,25,1,REAL,FAKE,,,,,,,,,,,,,,,,,,,,,
,,,,,,,5e92a1a4fc57e20f92eef47f,60568611ec04488a9e9da93b,6057830754f90515f6c1b42a,I am not familiar with Spanish,Northeast,NA,no,2021-03-21_10h35.15.558,empathy_intonation_perc,2020.2.10,Win32,60,,,,,,,,,,0,,,,,,,,,,,,,,,,,,,,,,,,,,,,,,,,,,,,,,,,18,arsa,,,0,1,0.735225,0,35,35,17,1,REAL,FAKE,,,,,,,,,,,,,,,,,,,,,
,,,,,,,5e92a1a4fc57e20f92eef47f,60568611ec04488a9e9da93b,6057830754f90515f6c1b42a,I am not familiar with Spanish,Northeast,NA,no,2021-03-21_10h35.15.558,empathy_intonation_perc,2020.2.10,Win32,60,,,,,,,,,,1,,,,,,,,,,,,,,,,,,,,,,,,,,,,,,,,,,,,,,,,49,ganar,,,0,0,0.65342,0,36,36,48,1,REAL,FAKE,,,,,,,,,,,,,,,,,,,,,
,,,,,,,5e92a1a4fc57e20f92eef47f,60568611ec04488a9e9da93b,6057830754f90515f6c1b42a,I am not familiar with Spanish,Northeast,NA,no,2021-03-21_10h35.15.558,empathy_intonation_perc,2020.2.10,Win32,60,,,,,,,,,,1,,,,,,,,,,,,,,,,,,,,,,,,,,,,,,,,,,,,,,,,61,seda,,,0,0,0.75383,0,37,37,60,1,REAL,FAKE,,,,,,,,,,,,,,,,,,,,,
,,,,,,,5e92a1a4fc57e20f92eef47f,60568611ec04488a9e9da93b,6057830754f90515f6c1b42a,I am not familiar with Spanish,Northeast,NA,no,2021-03-21_10h35.15.558,empathy_intonation_perc,2020.2.10,Win32,60,,,,,,,,,,1,,,,,,,,,,,,,,,,,,,,,,,,,,,,,,,,,,,,,,,,39,torpe,,,1,1,0.651895,0,38,38,38,1,REAL,FAKE,,,,,,,,,,,,,,,,,,,,,
,,,,,,,5e92a1a4fc57e20f92eef47f,60568611ec04488a9e9da93b,6057830754f90515f6c1b42a,I am not familiar with Spanish,Northeast,NA,no,2021-03-21_10h35.15.558,empathy_intonation_perc,2020.2.10,Win32,60,,,,,,,,,,1,,,,,,,,,,,,,,,,,,,,,,,,,,,,,,,,,,,,,,,,36,loro,,,0,0,0.956025,0,39,39,35,1,REAL,FAKE,,,,,,,,,,,,,,,,,,,,,
,,,,,,,5e92a1a4fc57e20f92eef47f,60568611ec04488a9e9da93b,6057830754f90515f6c1b42a,I am not familiar with Spanish,Northeast,NA,no,2021-03-21_10h35.15.558,empathy_intonation_perc,2020.2.10,Win32,60,,,,,,,,,,0,,,,,,,,,,,,,,,,,,,,,,,,,,,,,,,,,,,,,,,,63,esposante,,,0,1,0.95193,0,40,40,62,1,REAL,FAKE,,,,,,,,,,,,,,,,,,,,,
,,,,,,,5e92a1a4fc57e20f92eef47f,60568611ec04488a9e9da93b,6057830754f90515f6c1b42a,I am not familiar with Spanish,Northeast,NA,no,2021-03-21_10h35.15.558,empathy_intonation_perc,2020.2.10,Win32,60,,,,,,,,,,1,,,,,,,,,,,,,,,,,,,,,,,,,,,,,,,,,,,,,,,,67,cabello,,,1,1,1.45522,0,41,41,66,1,REAL,FAKE,,,,,,,,,,,,,,,,,,,,,
,,,,,,,5e92a1a4fc57e20f92eef47f,60568611ec04488a9e9da93b,6057830754f90515f6c1b42a,I am not familiar with Spanish,Northeast,NA,no,2021-03-21_10h35.15.558,empathy_intonation_perc,2020.2.10,Win32,60,,,,,,,,,,1,,,,,,,,,,,,,,,,,,,,,,,,,,,,,,,,,,,,,,,,14,yunque,,,0,0,0.511465,0,42,42,13,1,REAL,FAKE,,,,,,,,,,,,,,,,,,,,,
,,,,,,,5e92a1a4fc57e20f92eef47f,60568611ec04488a9e9da93b,6057830754f90515f6c1b42a,I am not familiar with Spanish,Northeast,NA,no,2021-03-21_10h35.15.558,empathy_intonation_perc,2020.2.10,Win32,60,,,,,,,,,,1,,,,,,,,,,,,,,,,,,,,,,,,,,,,,,,,,,,,,,,,85,lad,,,0,0,0.95443,0,43,43,84,1,REAL,FAKE,,,,,,,,,,,,,,,,,,,,,
,,,,,,,5e92a1a4fc57e20f92eef47f,60568611ec04488a9e9da93b,6057830754f90515f6c1b42a,I am not familiar with Spanish,Northeast,NA,no,2021-03-21_10h35.15.558,empathy_intonation_perc,2020.2.10,Win32,60,,,,,,,,,,1,,,,,,,,,,,,,,,,,,,,,,,,,,,,,,,,,,,,,,,,54,fomentar,,,0,0,0.91014,0,44,44,53,1,REAL,FAKE,,,,,,,,,,,,,,,,,,,,,
,,,,,,,5e92a1a4fc57e20f92eef47f,60568611ec04488a9e9da93b,6057830754f90515f6c1b42a,I am not familiar with Spanish,Northeast,NA,no,2021-03-21_10h35.15.558,empathy_intonation_perc,2020.2.10,Win32,60,,,,,,,,,,0,,,,,,,,,,,,,,,,,,,,,,,,,,,,,,,,,,,,,,,,82,empirador,,,1,0,1.177615,0,45,45,81,1,REAL,FAKE,,,,,,,,,,,,,,,,,,,,,
,,,,,,,5e92a1a4fc57e20f92eef47f,60568611ec04488a9e9da93b,6057830754f90515f6c1b42a,I am not familiar with Spanish,Northeast,NA,no,2021-03-21_10h35.15.558,empathy_intonation_perc,2020.2.10,Win32,60,,,,,,,,,,1,,,,,,,,,,,,,,,,,,,,,,,,,,,,,,,,,,,,,,,,37,granuja,,,0,0,1.005875,0,46,46,36,1,REAL,FAKE,,,,,,,,,,,,,,,,,,,,,
,,,,,,,5e92a1a4fc57e20f92eef47f,60568611ec04488a9e9da93b,6057830754f90515f6c1b42a,I am not familiar with Spanish,Northeast,NA,no,2021-03-21_10h35.15.558,empathy_intonation_perc,2020.2.10,Win32,60,,,,,,,,,,0,,,,,,,,,,,,,,,,,,,,,,,,,,,,,,,,,,,,,,,,79,tropaje,,,0,1,0.802075,0,47,47,78,1,REAL,FAKE,,,,,,,,,,,,,,,,,,,,,
,,,,,,,5e92a1a4fc57e20f92eef47f,60568611ec04488a9e9da93b,6057830754f90515f6c1b42a,I am not familiar with Spanish,Northeast,NA,no,2021-03-21_10h35.15.558,empathy_intonation_perc,2020.2.10,Win32,60,,,,,,,,,,1,,,,,,,,,,,,,,,,,,,,,,,,,,,,,,,,,,,,,,,,38,estornudar,,,0,0,1.13637,0,48,48,37,1,REAL,FAKE,,,,,,,,,,,,,,,,,,,,,
,,,,,,,5e92a1a4fc57e20f92eef47f,60568611ec04488a9e9da93b,6057830754f90515f6c1b42a,I am not familiar with Spanish,Northeast,NA,no,2021-03-21_10h35.15.558,empathy_intonation_perc,2020.2.10,Win32,60,,,,,,,,,,1,,,,,,,,,,,,,,,,,,,,,,,,,,,,,,,,,,,,,,,,77,tiburn,,,0,0,0.93536,0,49,49,76,1,REAL,FAKE,,,,,,,,,,,,,,,,,,,,,
,,,,,,,5e92a1a4fc57e20f92eef47f,60568611ec04488a9e9da93b,6057830754f90515f6c1b42a,I am not familiar with Spanish,Northeast,NA,no,2021-03-21_10h35.15.558,empathy_intonation_perc,2020.2.10,Win32,60,,,,,,,,,,0,,,,,,,,,,,,,,,,,,,,,,,,,,,,,,,,,,,,,,,,19,brecedad,,,0,1,0.604065,0,50,50,18,1,REAL,FAKE,,,,,,,,,,,,,,,,,,,,,
,,,,,,,5e92a1a4fc57e20f92eef47f,60568611ec04488a9e9da93b,6057830754f90515f6c1b42a,I am not familiar with Spanish,Northeast,NA,no,2021-03-21_10h35.15.558,empathy_intonation_perc,2020.2.10,Win32,60,,,,,,,,,,0,,,,,,,,,,,,,,,,,,,,,,,,,,,,,,,,,,,,,,,,16,abracer,,,0,1,0.88105,0,51,51,15,1,REAL,FAKE,,,,,,,,,,,,,,,,,,,,,
,,,,,,,5e92a1a4fc57e20f92eef47f,60568611ec04488a9e9da93b,6057830754f90515f6c1b42a,I am not familiar with Spanish,Northeast,NA,no,2021-03-21_10h35.15.558,empathy_intonation_perc,2020.2.10,Win32,60,,,,,,,,,,1,,,,,,,,,,,,,,,,,,,,,,,,,,,,,,,,,,,,,,,,6,tergiversar,,,0,0,0.601225,0,52,52,5,1,REAL,FAKE,,,,,,,,,,,,,,,,,,,,,
,,,,,,,5e92a1a4fc57e20f92eef47f,60568611ec04488a9e9da93b,6057830754f90515f6c1b42a,I am not familiar with Spanish,Northeast,NA,no,2021-03-21_10h35.15.558,empathy_intonation_perc,2020.2.10,Win32,60,,,,,,,,,,0,,,,,,,,,,,,,,,,,,,,,,,,,,,,,,,,,,,,,,,,27,acutacin,,,0,1,0.601335,0,53,53,26,1,REAL,FAKE,,,,,,,,,,,,,,,,,,,,,
,,,,,,,5e92a1a4fc57e20f92eef47f,60568611ec04488a9e9da93b,6057830754f90515f6c1b42a,I am not familiar with Spanish,Northeast,NA,no,2021-03-21_10h35.15.558,empathy_intonation_perc,2020.2.10,Win32,60,,,,,,,,,,1,,,,,,,,,,,,,,,,,,,,,,,,,,,,,,,,,,,,,,,,71,polvoriento,,,0,0,0.663055,0,54,54,70,1,REAL,FAKE,,,,,,,,,,,,,,,,,,,,,
,,,,,,,5e92a1a4fc57e20f92eef47f,60568611ec04488a9e9da93b,6057830754f90515f6c1b42a,I am not familiar with Spanish,Northeast,NA,no,2021-03-21_10h35.15.558,empathy_intonation_perc,2020.2.10,Win32,60,,,,,,,,,,0,,,,,,,,,,,,,,,,,,,,,,,,,,,,,,,,,,,,,,,,35,rompido,,,1,0,1.25339,0,55,55,34,1,REAL,FAKE,,,,,,,,,,,,,,,,,,,,,
,,,,,,,5e92a1a4fc57e20f92eef47f,60568611ec04488a9e9da93b,6057830754f90515f6c1b42a,I am not familiar with Spanish,Northeast,NA,no,2021-03-21_10h35.15.558,empathy_intonation_perc,2020.2.10,Win32,60,,,,,,,,,,1,,,,,,,,,,,,,,,,,,,,,,,,,,,,,,,,,,,,,,,,81,pozo,,,1,1,1.554415,0,56,56,80,1,REAL,FAKE,,,,,,,,,,,,,,,,,,,,,
,,,,,,,5e92a1a4fc57e20f92eef47f,60568611ec04488a9e9da93b,6057830754f90515f6c1b42a,I am not familiar with Spanish,Northeast,NA,no,2021-03-21_10h35.15.558,empathy_intonation_perc,2020.2.10,Win32,60,,,,,,,,,,1,,,,,,,,,,,,,,,,,,,,,,,,,,,,,,,,,,,,,,,,5,zapato,,,0,0,0.75662,0,57,57,4,1,REAL,FAKE,,,,,,,,,,,,,,,,,,,,,
,,,,,,,5e92a1a4fc57e20f92eef47f,60568611ec04488a9e9da93b,6057830754f90515f6c1b42a,I am not familiar with Spanish,Northeast,NA,no,2021-03-21_10h35.15.558,empathy_intonation_perc,2020.2.10,Win32,60,,,,,,,,,,1,,,,,,,,,,,,,,,,,,,,,,,,,,,,,,,,,,,,,,,,45,jilguero,,,0,0,0.60135,0,58,58,44,1,REAL,FAKE,,,,,,,,,,,,,,,,,,,,,
,,,,,,,5e92a1a4fc57e20f92eef47f,60568611ec04488a9e9da93b,6057830754f90515f6c1b42a,I am not familiar with Spanish,Northeast,NA,no,2021-03-21_10h35.15.558,empathy_intonation_perc,2020.2.10,Win32,60,,,,,,,,,,0,,,,,,,,,,,,,,,,,,,,,,,,,,,,,,,,,,,,,,,,42,cadallo,,,0,1,0.952085,0,59,59,41,1,REAL,FAKE,,,,,,,,,,,,,,,,,,,,,
,,,,,,,5e92a1a4fc57e20f92eef47f,60568611ec04488a9e9da93b,6057830754f90515f6c1b42a,I am not familiar with Spanish,Northeast,NA,no,2021-03-21_10h35.15.558,empathy_intonation_perc,2020.2.10,Win32,60,,,,,,,,,,0,,,,,,,,,,,,,,,,,,,,,,,,,,,,,,,,,,,,,,,,29,decar,,,0,1,0.757375,0,60,60,28,1,REAL,FAKE,,,,,,,,,,,,,,,,,,,,,
,,,,,,,5e92a1a4fc57e20f92eef47f,60568611ec04488a9e9da93b,6057830754f90515f6c1b42a,I am not familiar with Spanish,Northeast,NA,no,2021-03-21_10h35.15.558,empathy_intonation_perc,2020.2.10,Win32,60,,,,,,,,,,0,,,,,,,,,,,,,,,,,,,,,,,,,,,,,,,,,,,,,,,,87,grodo,,,0,1,0.59942,0,61,61,86,1,REAL,FAKE,,,,,,,,,,,,,,,,,,,,,
,,,,,,,5e92a1a4fc57e20f92eef47f,60568611ec04488a9e9da93b,6057830754f90515f6c1b42a,I am not familiar with Spanish,Northeast,NA,no,2021-03-21_10h35.15.558,empathy_intonation_perc,2020.2.10,Win32,60,,,,,,,,,,1,,,,,,,,,,,,,,,,,,,,,,,,,,,,,,,,,,,,,,,,73,hervidor,,,0,0,0.65623,0,62,62,72,1,REAL,FAKE,,,,,,,,,,,,,,,,,,,,,
,,,,,,,5e92a1a4fc57e20f92eef47f,60568611ec04488a9e9da93b,6057830754f90515f6c1b42a,I am not familiar with Spanish,Northeast,NA,no,2021-03-21_10h35.15.558,empathy_intonation_perc,2020.2.10,Win32,60,,,,,,,,,,0,,,,,,,,,,,,,,,,,,,,,,,,,,,,,,,,,,,,,,,,30,alardio,,,0,1,0.80165,0,63,63,29,1,REAL,FAKE,,,,,,,,,,,,,,,,,,,,,
,,,,,,,5e92a1a4fc57e20f92eef47f,60568611ec04488a9e9da93b,6057830754f90515f6c1b42a,I am not familiar with Spanish,Northeast,NA,no,2021-03-21_10h35.15.558,empathy_intonation_perc,2020.2.10,Win32,60,,,,,,,,,,1,,,,,,,,,,,,,,,,,,,,,,,,,,,,,,,,,,,,,,,,43,canela,,,0,0,0.73559,0,64,64,42,1,REAL,FAKE,,,,,,,,,,,,,,,,,,,,,
,,,,,,,5e92a1a4fc57e20f92eef47f,60568611ec04488a9e9da93b,6057830754f90515f6c1b42a,I am not familiar with Spanish,Northeast,NA,no,2021-03-21_10h35.15.558,empathy_intonation_perc,2020.2.10,Win32,60,,,,,,,,,,1,,,,,,,,,,,,,,,,,,,,,,,,,,,,,,,,,,,,,,,,41,rebuscar,,,0,0,0.641985,0,65,65,40,1,REAL,FAKE,,,,,,,,,,,,,,,,,,,,,
,,,,,,,5e92a1a4fc57e20f92eef47f,60568611ec04488a9e9da93b,6057830754f90515f6c1b42a,I am not familiar with Spanish,Northeast,NA,no,2021-03-21_10h35.15.558,empathy_intonation_perc,2020.2.10,Win32,60,,,,,,,,,,1,,,,,,,,,,,,,,,,,,,,,,,,,,,,,,,,,,,,,,,,13,helar,,,0,0,0.65289,0,66,66,12,1,REAL,FAKE,,,,,,,,,,,,,,,,,,,,,
,,,,,,,5e92a1a4fc57e20f92eef47f,60568611ec04488a9e9da93b,6057830754f90515f6c1b42a,I am not familiar with Spanish,Northeast,NA,no,2021-03-21_10h35.15.558,empathy_intonation_perc,2020.2.10,Win32,60,,,,,,,,,,0,,,,,,,,,,,,,,,,,,,,,,,,,,,,,,,,,,,,,,,,47,cartinar,,,0,1,0.803935,0,67,67,46,1,REAL,FAKE,,,,,,,,,,,,,,,,,,,,,
,,,,,,,5e92a1a4fc57e20f92eef47f,60568611ec04488a9e9da93b,6057830754f90515f6c1b42a,I am not familiar with Spanish,Northeast,NA,no,2021-03-21_10h35.15.558,empathy_intonation_perc,2020.2.10,Win32,60,,,,,,,,,,1,,,,,,,,,,,,,,,,,,,,,,,,,,,,,,,,,,,,,,,,62,flaco,,,0,0,0.903135,0,68,68,61,1,REAL,FAKE,,,,,,,,,,,,,,,,,,,,,
,,,,,,,5e92a1a4fc57e20f92eef47f,60568611ec04488a9e9da93b,6057830754f90515f6c1b42a,I am not familiar with Spanish,Northeast,NA,no,2021-03-21_10h35.15.558,empathy_intonation_perc,2020.2.10,Win32,60,,,,,,,,,,1,,,,,,,,,,,,,,,,,,,,,,,,,,,,,,,,,,,,,,,,88,acantilado,,,0,0,0.70178,0,69,69,87,1,REAL,FAKE,,,,,,,,,,,,,,,,,,,,,
,,,,,,,5e92a1a4fc57e20f92eef47f,60568611ec04488a9e9da93b,6057830754f90515f6c1b42a,I am not familiar with Spanish,Northeast,NA,no,2021-03-21_10h35.15.558,empathy_intonation_perc,2020.2.10,Win32,60,,,,,,,,,,0,,,,,,,,,,,,,,,,,,,,,,,,,,,,,,,,,,,,,,,,58,plaudir,,,0,1,0.654335,0,70,70,57,1,REAL,FAKE,,,,,,,,,,,,,,,,,,,,,
,,,,,,,5e92a1a4fc57e20f92eef47f,60568611ec04488a9e9da93b,6057830754f90515f6c1b42a,I am not familiar with Spanish,Northeast,NA,no,2021-03-21_10h35.15.558,empathy_intonation_perc,2020.2.10,Win32,60,,,,,,,,,,1,,,,,,,,,,,,,,,,,,,,,,,,,,,,,,,,,,,,,,,,80,hormiga,,,0,0,1.85589,0,71,71,79,1,REAL,FAKE,,,,,,,,,,,,,,,,,,,,,
,,,,,,,5e92a1a4fc57e20f92eef47f,60568611ec04488a9e9da93b,6057830754f90515f6c1b42a,I am not familiar with Spanish,Northeast,NA,no,2021-03-21_10h35.15.558,empathy_intonation_perc,2020.2.10,Win32,60,,,,,,,,,,0,,,,,,,,,,,,,,,,,,,,,,,,,,,,,,,,,,,,,,,,23,lampera,,,1,0,1.305585,0,72,72,22,1,REAL,FAKE,,,,,,,,,,,,,,,,,,,,,
,,,,,,,5e92a1a4fc57e20f92eef47f,60568611ec04488a9e9da93b,6057830754f90515f6c1b42a,I am not familiar with Spanish,Northeast,NA,no,2021-03-21_10h35.15.558,empathy_intonation_perc,2020.2.10,Win32,60,,,,,,,,,,1,,,,,,,,,,,,,,,,,,,,,,,,,,,,,,,,,,,,,,,,59,besar,,,1,1,0.804785,0,73,73,58,1,REAL,FAKE,,,,,,,,,,,,,,,,,,,,,
,,,,,,,5e92a1a4fc57e20f92eef47f,60568611ec04488a9e9da93b,6057830754f90515f6c1b42a,I am not familiar with Spanish,Northeast,NA,no,2021-03-21_10h35.15.558,empathy_intonation_perc,2020.2.10,Win32,60,,,,,,,,,,0,,,,,,,,,,,,,,,,,,,,,,,,,,,,,,,,,,,,,,,,66,hacido,,,0,1,0.63252,0,74,74,65,1,REAL,FAKE,,,,,,,,,,,,,,,,,,,,,
,,,,,,,5e92a1a4fc57e20f92eef47f,60568611ec04488a9e9da93b,6057830754f90515f6c1b42a,I am not familiar with Spanish,Northeast,NA,no,2021-03-21_10h35.15.558,empathy_intonation_perc,2020.2.10,Win32,60,,,,,,,,,,1,,,,,,,,,,,,,,,,,,,,,,,,,,,,,,,,,,,,,,,,60,matar,,,0,0,0.61485,0,75,75,59,1,REAL,FAKE,,,,,,,,,,,,,,,,,,,,,
,,,,,,,5e92a1a4fc57e20f92eef47f,60568611ec04488a9e9da93b,6057830754f90515f6c1b42a,I am not familiar with Spanish,Northeast,NA,no,2021-03-21_10h35.15.558,empathy_intonation_perc,2020.2.10,Win32,60,,,,,,,,,,1,,,,,,,,,,,,,,,,,,,,,,,,,,,,,,,,,,,,,,,,68,alegre,,,0,0,0.58101,0,76,76,67,1,REAL,FAKE,,,,,,,,,,,,,,,,,,,,,
,,,,,,,5e92a1a4fc57e20f92eef47f,60568611ec04488a9e9da93b,6057830754f90515f6c1b42a,I am not familiar with Spanish,Northeast,NA,no,2021-03-21_10h35.15.558,empathy_intonation_perc,2020.2.10,Win32,60,,,,,,,,,,1,,,,,,,,,,,,,,,,,,,,,,,,,,,,,,,,,,,,,,,,90,clavel,,,0,0,0.55372,0,77,77,89,1,REAL,FAKE,,,,,,,,,,,,,,,,,,,,,
,,,,,,,5e92a1a4fc57e20f92eef47f,60568611ec04488a9e9da93b,6057830754f90515f6c1b42a,I am not familiar with Spanish,Northeast,NA,no,2021-03-21_10h35.15.558,empathy_intonation_perc,2020.2.10,Win32,60,,,,,,,,,,0,,,,,,,,,,,,,,,,,,,,,,,,,,,,,,,,,,,,,,,,74,cintro,,,0,1,0.58526,0,78,78,73,1,REAL,FAKE,,,,,,,,,,,,,,,,,,,,,
,,,,,,,5e92a1a4fc57e20f92eef47f,60568611ec04488a9e9da93b,6057830754f90515f6c1b42a,I am not familiar with Spanish,Northeast,NA,no,2021-03-21_10h35.15.558,empathy_intonation_perc,2020.2.10,Win32,60,,,,,,,,,,1,,,,,,,,,,,,,,,,,,,,,,,,,,,,,,,,,,,,,,,,83,guante,,,0,0,0.63209,0,79,79,82,1,REAL,FAKE,,,,,,,,,,,,,,,,,,,,,
,,,,,,,5e92a1a4fc57e20f92eef47f,60568611ec04488a9e9da93b,6057830754f90515f6c1b42a,I am not familiar with Spanish,Northeast,NA,no,2021-03-21_10h35.15.558,empathy_intonation_perc,2020.2.10,Win32,60,,,,,,,,,,0,,,,,,,,,,,,,,,,,,,,,,,,,,,,,,,,,,,,,,,,32,fatacidad,,,0,1,0.63311,0,80,80,31,1,REAL,FAKE,,,,,,,,,,,,,,,,,,,,,
,,,,,,,5e92a1a4fc57e20f92eef47f,60568611ec04488a9e9da93b,6057830754f90515f6c1b42a,I am not familiar with Spanish,Northeast,NA,no,2021-03-21_10h35.15.558,empathy_intonation_perc,2020.2.10,Win32,60,,,,,,,,,,0,,,,,,,,,,,,,,,,,,,,,,,,,,,,,,,,,,,,,,,,50,flamida,,,0,1,0.533445,0,81,81,49,1,REAL,FAKE,,,,,,,,,,,,,,,,,,,,,
,,,,,,,5e92a1a4fc57e20f92eef47f,60568611ec04488a9e9da93b,6057830754f90515f6c1b42a,I am not familiar with Spanish,Northeast,NA,no,2021-03-21_10h35.15.558,empathy_intonation_perc,2020.2.10,Win32,60,,,,,,,,,,1,,,,,,,,,,,,,,,,,,,,,,,,,,,,,,,,,,,,,,,,22,lacayo,,,0,0,0.48421,0,82,82,21,1,REAL,FAKE,,,,,,,,,,,,,,,,,,,,,
,,,,,,,5e92a1a4fc57e20f92eef47f,60568611ec04488a9e9da93b,6057830754f90515f6c1b42a,I am not familiar with Spanish,Northeast,NA,no,2021-03-21_10h35.15.558,empathy_intonation_perc,2020.2.10,Win32,60,,,,,,,,,,1,,,,,,,,,,,,,,,,,,,,,,,,,,,,,,,,,,,,,,,,24,ltigo,,,0,0,0.92198,0,83,83,23,1,REAL,FAKE,,,,,,,,,,,,,,,,,,,,,
,,,,,,,5e92a1a4fc57e20f92eef47f,60568611ec04488a9e9da93b,6057830754f90515f6c1b42a,I am not familiar with Spanish,Northeast,NA,no,2021-03-21_10h35.15.558,empathy_intonation_perc,2020.2.10,Win32,60,,,,,,,,,,1,,,,,,,,,,,,,,,,,,,,,,,,,,,,,,,,,,,,,,,,64,orgulloso,,,0,0,0.58202,0,84,84,63,1,REAL,FAKE,,,,,,,,,,,,,,,,,,,,,
,,,,,,,5e92a1a4fc57e20f92eef47f,60568611ec04488a9e9da93b,6057830754f90515f6c1b42a,I am not familiar with Spanish,Northeast,NA,no,2021-03-21_10h35.15.558,empathy_intonation_perc,2020.2.10,Win32,60,,,,,,,,,,1,,,,,,,,,,,,,,,,,,,,,,,,,,,,,,,,,,,,,,,,31,pandilla,,,1,1,1.65649,0,85,85,30,1,REAL,FAKE,,,,,,,,,,,,,,,,,,,,,
,,,,,,,5e92a1a4fc57e20f92eef47f,60568611ec04488a9e9da93b,6057830754f90515f6c1b42a,I am not familiar with Spanish,Northeast,NA,no,2021-03-21_10h35.15.558,empathy_intonation_perc,2020.2.10,Win32,60,,,,,,,,,,1,,,,,,,,,,,,,,,,,,,,,,,,,,,,,,,,,,,,,,,,57,tacao,,,0,0,0.80213,0,86,86,56,1,REAL,FAKE,,,,,,,,,,,,,,,,,,,,,
,,,,,,,5e92a1a4fc57e20f92eef47f,60568611ec04488a9e9da93b,6057830754f90515f6c1b42a,I am not familiar with Spanish,Northeast,NA,no,2021-03-21_10h35.15.558,empathy_intonation_perc,2020.2.10,Win32,60,,,,,,,,,,1,,,,,,,,,,,,,,,,,,,,,,,,,,,,,,,,,,,,,,,,3,pulmones,,,0,0,0.784155,0,87,87,2,1,REAL,FAKE,,,,,,,,,,,,,,,,,,,,,
,,,,,,,5e92a1a4fc57e20f92eef47f,60568611ec04488a9e9da93b,6057830754f90515f6c1b42a,I am not familiar with Spanish,Northeast,NA,no,2021-03-21_10h35.15.558,empathy_intonation_perc,2020.2.10,Win32,60,,,,,,,,,,1,,,,,,,,,,,,,,,,,,,,,,,,,,,,,,,,,,,,,,,,86,barato,,,0,0,0.78852,0,88,88,85,1,REAL,FAKE,,,,,,,,,,,,,,,,,,,,,
,,,,,,,5e92a1a4fc57e20f92eef47f,60568611ec04488a9e9da93b,6057830754f90515f6c1b42a,I am not familiar with Spanish,Northeast,NA,no,2021-03-21_10h35.15.558,empathy_intonation_perc,2020.2.10,Win32,60,,,,,,,,,,0,,,,,,,,,,,,,,,,,,,,,,,,,,,,,,,,,,,,,,,,53,vegada,,,0,1,1.31611,0,89,89,52,1,REAL,FAKE,,,,,,,,,,,,,,,,,,,,,
,,,,,,,5e92a1a4fc57e20f92eef47f,60568611ec04488a9e9da93b,6057830754f90515f6c1b42a,I am not familiar with Spanish,Northeast,NA,no,2021-03-21_10h35.15.558,empathy_intonation_perc,2020.2.10,Win32,60,,,,,,,,,,,,,,,,,,,,,,,,,,,,,,,,,,,,,,,,,,,,,,,,,,,,,,,,,,,,,,,,4,1,4.428025,1,0,0,0,0,0,1,,,,,,,,,,,
