instructions_2afc_loop.thisRepN,instructions_2afc_loop.thisTrialN,instructions_2afc_loop.thisN,instructions_2afc_loop.thisIndex,instructions_2afc_loop.ran,instructions_text,continue_text,participant,study_id,session,I am most familiar with Spanish from...*,What part of the US are you from?*,At what age did you begin learning Spanish?*,Are you proficient in any languages other than English/Spanish?*,date,expName,psychopyVersion,OS,frameRate,key_resp_2afc_practice.keys,key_resp_2afc_practice.corr,key_resp_2afc_practice.rt,trials_2afc_practice_loop.thisRepN,trials_2afc_practice_loop.thisTrialN,trials_2afc_practice_loop.thisN,trials_2afc_practice_loop.thisIndex,trials_2afc_practice_loop.ran,path,correct_response,the_col,key_resp_2afc_trial.keys,key_resp_2afc_trial.corr,key_resp_2afc_trial.rt,trials_2afc_loop.thisRepN,trials_2afc_loop.thisTrialN,trials_2afc_loop.thisN,trials_2afc_loop.thisIndex,trials_2afc_loop.ran,item_num,andalusian,argentine,castilian,chilean,cuban,mexican,peruvian,puertorican,key_resp_ac1.keys,key_resp_ac1.corr,key_resp_ac1.rt,ac1_loop.thisRepN,ac1_loop.thisTrialN,ac1_loop.thisN,ac1_loop.thisIndex,ac1_loop.ran,instructions_lextale_loop.thisRepN,instructions_lextale_loop.thisTrialN,instructions_lextale_loop.thisN,instructions_lextale_loop.thisIndex,instructions_lextale_loop.ran,key_resp_lextale_practice.keys,key_resp_lextale_practice.corr,key_resp_lextale_practice.rt,trials_lextale_practice_loop.thisRepN,trials_lextale_practice_loop.thisTrialN,trials_lextale_practice_loop.thisN,trials_lextale_practice_loop.thisIndex,trials_lextale_practice_loop.ran,stim,word,prac_button_real,prac_button_false,key_resp_lextale_trial.keys,key_resp_lextale_trial.corr,key_resp_lextale_trial.rt,trials_lextale_loop.thisRepN,trials_lextale_loop.thisTrialN,trials_lextale_loop.thisN,trials_lextale_loop.thisIndex,trials_lextale_loop.ran,button_real,button_false,key_resp_ac2.keys,key_resp_ac2.corr,key_resp_ac2.rt,check_pass,check_fails,ac2_loop.thisRepN,ac2_loop.thisTrialN,ac2_loop.thisN,ac2_loop.thisIndex,ac2_loop.ran,slider_eq_trial.response,trials_eq_loop.thisRepN,trials_eq_loop.thisTrialN,trials_eq_loop.thisN,trials_eq_loop.thisIndex,trials_eq_loop.ran,item,is_test_item,is_distractor,is_agree_score,is_disagree_score
0,0,0,0,1,"In the following task you are going to hear a series of utterances. 

  You will decide if the utterances sound like questions or not using your keyboard.",(press the spacebar to continue),5e9a84af150a8012575e4784,605b45a4d25f287719a41696,605bf23879bb483c4bd7cb8e,Mexico,Midwest,13 or older,no,2021-03-24_21h17.14.226,empathy_intonation_perc,2020.2.10,Win32,60,,,,,,,,,,,,,,,,,,,,,,,,,,,,,,,,,,,,,,,,,,,,,,,,,,,,,,,,,,,,,,,,,,,,,,,,,,,,,,,,,,,,
0,1,1,1,1,"If you believe the utterance is a question, type '1' (for 'yes') and if you do not 
  believe it is a question type '0' (for 'no').

  Let's practice a bit...",(press the spacebar to continue),5e9a84af150a8012575e4784,605b45a4d25f287719a41696,605bf23879bb483c4bd7cb8e,Mexico,Midwest,13 or older,no,2021-03-24_21h17.14.226,empathy_intonation_perc,2020.2.10,Win32,60,,,,,,,,,,,,,,,,,,,,,,,,,,,,,,,,,,,,,,,,,,,,,,,,,,,,,,,,,,,,,,,,,,,,,,,,,,,,,,,,,,,,
,,,,,,,5e9a84af150a8012575e4784,605b45a4d25f287719a41696,605bf23879bb483c4bd7cb8e,Mexico,Midwest,13 or older,no,2021-03-24_21h17.14.226,empathy_intonation_perc,2020.2.10,Win32,60,1,1,3.587455,0,0,0,0,1,./stim/wavs/castilian_question_filler_Mi-esposo-conoce-al-chico.wav,1,,,,,,,,,,,,,,,,,,,,,,,,,,,,,,,,,,,,,,,,,,,,,,,,,,,,,,,,,,,,,,,,,,,,,,,,,,
,,,,,,,5e9a84af150a8012575e4784,605b45a4d25f287719a41696,605bf23879bb483c4bd7cb8e,Mexico,Midwest,13 or older,no,2021-03-24_21h17.14.226,empathy_intonation_perc,2020.2.10,Win32,60,1,1,1.604115,0,1,1,1,1,./stim/wavs/argentine_question_filler_Mi-vecino-habla-mucho.wav,1,,,,,,,,,,,,,,,,,,,,,,,,,,,,,,,,,,,,,,,,,,,,,,,,,,,,,,,,,,,,,,,,,,,,,,,,,,
,,,,,,,5e9a84af150a8012575e4784,605b45a4d25f287719a41696,605bf23879bb483c4bd7cb8e,Mexico,Midwest,13 or older,no,2021-03-24_21h17.14.226,empathy_intonation_perc,2020.2.10,Win32,60,0,0,4.88883,0,2,2,2,1,./stim/wavs/chilean_question_filler_Mi-padre-cantaba-bien.wav,1,,,,,,,,,,,,,,,,,,,,,,,,,,,,,,,,,,,,,,,,,,,,,,,,,,,,,,,,,,,,,,,,,,,,,,,,,,
,,,,,,,5e9a84af150a8012575e4784,605b45a4d25f287719a41696,605bf23879bb483c4bd7cb8e,Mexico,Midwest,13 or older,no,2021-03-24_21h17.14.226,empathy_intonation_perc,2020.2.10,Win32,60,0,1,2.95842,0,3,3,5,1,./stim/wavs/andalusian_statement_filler_Alberto-nunca-se-afeita.wav,0,,,,,,,,,,,,,,,,,,,,,,,,,,,,,,,,,,,,,,,,,,,,,,,,,,,,,,,,,,,,,,,,,,,,,,,,,,
,,,,,,,5e9a84af150a8012575e4784,605b45a4d25f287719a41696,605bf23879bb483c4bd7cb8e,Mexico,Midwest,13 or older,no,2021-03-24_21h17.14.226,empathy_intonation_perc,2020.2.10,Win32,60,0,1,2.71013,0,4,4,6,1,./stim/wavs/peruvian_statement_filler_El-nino-habla-con-su-madre.wav,0,,,,,,,,,,,,,,,,,,,,,,,,,,,,,,,,,,,,,,,,,,,,,,,,,,,,,,,,,,,,,,,,,,,,,,,,,,
,,,,,,,5e9a84af150a8012575e4784,605b45a4d25f287719a41696,605bf23879bb483c4bd7cb8e,Mexico,Midwest,13 or older,no,2021-03-24_21h17.14.226,empathy_intonation_perc,2020.2.10,Win32,60,1,1,1.684985,0,5,5,3,1,./stim/wavs/mexican_question_filler_Felipe-no-tiene-contrasena.wav,1,,,,,,,,,,,,,,,,,,,,,,,,,,,,,,,,,,,,,,,,,,,,,,,,,,,,,,,,,,,,,,,,,,,,,,,,,,
,,,,,,,5e9a84af150a8012575e4784,605b45a4d25f287719a41696,605bf23879bb483c4bd7cb8e,Mexico,Midwest,13 or older,no,2021-03-24_21h17.14.226,empathy_intonation_perc,2020.2.10,Win32,60,0,1,1.770865,0,6,6,7,1,./stim/wavs/puertorican_statement_filler_La-nina-pinta-con-su-amiga.wav,0,,,,,,,,,,,,,,,,,,,,,,,,,,,,,,,,,,,,,,,,,,,,,,,,,,,,,,,,,,,,,,,,,,,,,,,,,,
,,,,,,,5e9a84af150a8012575e4784,605b45a4d25f287719a41696,605bf23879bb483c4bd7cb8e,Mexico,Midwest,13 or older,no,2021-03-24_21h17.14.226,empathy_intonation_perc,2020.2.10,Win32,60,0,1,1.97322,0,7,7,4,1,./stim/wavs/cuban_statement_filler_Cocinabas-por-la-noche.wav,0,,,,,,,,,,,,,,,,,,,,,,,,,,,,,,,,,,,,,,,,,,,,,,,,,,,,,,,,,,,,,,,,,,,,,,,,,,
,,,,,,,5e9a84af150a8012575e4784,605b45a4d25f287719a41696,605bf23879bb483c4bd7cb8e,Mexico,Midwest,13 or older,no,2021-03-24_21h17.14.226,empathy_intonation_perc,2020.2.10,Win32,60,,,,,,,,,,1,cuban,0,0,1.51842,0,0,0,55,1,56,./stim/wavs/andalusian_mismatch_interrogative-partial-wh_Por-que-vivia-en-Paris.wav,./stim/wavs/argentine_mismatch_interrogative-partial-wh_Por-que-vivia-en-Paris.wav,./stim/wavs/castilian_mismatch_interrogative-partial-wh_Por-que-vivia-en-Paris.wav,./stim/wavs/chilean_mismatch_interrogative-partial-wh_Por-que-vivia-en-Paris.wav,./stim/wavs/cuban_mismatch_interrogative-partial-wh_Por-que-vivia-en-Paris.wav,./stim/wavs/mexican_mismatch_interrogative-partial-wh_Por-que-vivia-en-Paris.wav,./stim/wavs/peruvian_mismatch_interrogative-partial-wh_Por-que-vivia-en-Paris.wav,./stim/wavs/puertorican_mismatch_interrogative-partial-wh_Por-que-vivia-en-Paris.wav,,,,,,,,,,,,,,,,,,,,,,,,,,,,,,,,,,,,,,,,,,,,,,,,,,,,,,,,
,,,,,,,5e9a84af150a8012575e4784,605b45a4d25f287719a41696,605bf23879bb483c4bd7cb8e,Mexico,Midwest,13 or older,no,2021-03-24_21h17.14.226,empathy_intonation_perc,2020.2.10,Win32,60,,,,,,,,,,1,andalusian,1,1,1.46859,0,1,1,59,1,60,./stim/wavs/andalusian_mismatch_interrogative-total-yn_La-maestra-vive-en-Paris.wav,./stim/wavs/argentine_mismatch_interrogative-total-yn_La-maestra-vive-en-Paris.wav,./stim/wavs/castilian_mismatch_interrogative-total-yn_La-maestra-vive-en-Paris.wav,./stim/wavs/chilean_mismatch_interrogative-total-yn_La-maestra-vive-en-Paris.wav,./stim/wavs/cuban_mismatch_interrogative-total-yn_La-maestra-vive-en-Paris.wav,./stim/wavs/mexican_mismatch_interrogative-total-yn_La-maestra-vive-en-Paris.wav,./stim/wavs/peruvian_mismatch_interrogative-total-yn_La-maestra-vive-en-Paris.wav,./stim/wavs/puertorican_mismatch_interrogative-total-yn_La-maestra-vive-en-Paris.wav,,,,,,,,,,,,,,,,,,,,,,,,,,,,,,,,,,,,,,,,,,,,,,,,,,,,,,,,
,,,,,,,5e9a84af150a8012575e4784,605b45a4d25f287719a41696,605bf23879bb483c4bd7cb8e,Mexico,Midwest,13 or older,no,2021-03-24_21h17.14.226,empathy_intonation_perc,2020.2.10,Win32,60,,,,,,,,,,0,puertorican,0,1,2.14479,0,2,2,46,1,47,./stim/wavs/andalusian_mismatch_declarative-narrow-focus_Mi-novio-viene-del-lago.wav,./stim/wavs/argentine_mismatch_declarative-narrow-focus_Mi-novio-viene-del-lago.wav,./stim/wavs/castilian_mismatch_declarative-narrow-focus_Mi-novio-viene-del-lago.wav,./stim/wavs/chilean_mismatch_declarative-narrow-focus_Mi-novio-viene-del-lago.wav,./stim/wavs/cuban_mismatch_declarative-narrow-focus_Mi-novio-viene-del-lago.wav,./stim/wavs/mexican_mismatch_declarative-narrow-focus_Mi-novio-viene-del-lago.wav,./stim/wavs/peruvian_mismatch_declarative-narrow-focus_Mi-novio-viene-del-lago.wav,./stim/wavs/puertorican_mismatch_declarative-narrow-focus_Mi-novio-viene-del-lago.wav,,,,,,,,,,,,,,,,,,,,,,,,,,,,,,,,,,,,,,,,,,,,,,,,,,,,,,,,
,,,,,,,5e9a84af150a8012575e4784,605b45a4d25f287719a41696,605bf23879bb483c4bd7cb8e,Mexico,Midwest,13 or older,no,2021-03-24_21h17.14.226,empathy_intonation_perc,2020.2.10,Win32,60,,,,,,,,,,0,peruvian,0,1,1.98911,0,3,3,34,1,35,./stim/wavs/andalusian_mismatch_declarative-broad-focus_El-nino-oye-el-rio.wav,./stim/wavs/argentine_mismatch_declarative-broad-focus_El-nino-oye-el-rio.wav,./stim/wavs/castilian_mismatch_declarative-broad-focus_El-nino-oye-el-rio.wav,./stim/wavs/chilean_mismatch_declarative-broad-focus_El-nino-oye-el-rio.wav,./stim/wavs/cuban_mismatch_declarative-broad-focus_El-nino-oye-el-rio.wav,./stim/wavs/mexican_mismatch_declarative-broad-focus_El-nino-oye-el-rio.wav,./stim/wavs/peruvian_mismatch_declarative-broad-focus_El-nino-oye-el-rio.wav,./stim/wavs/puertorican_mismatch_declarative-broad-focus_El-nino-oye-el-rio.wav,,,,,,,,,,,,,,,,,,,,,,,,,,,,,,,,,,,,,,,,,,,,,,,,,,,,,,,,
,,,,,,,5e9a84af150a8012575e4784,605b45a4d25f287719a41696,605bf23879bb483c4bd7cb8e,Mexico,Midwest,13 or older,no,2021-03-24_21h17.14.226,empathy_intonation_perc,2020.2.10,Win32,60,,,,,,,,,,0,argentine,0,1,2.06618,0,4,4,36,1,37,./stim/wavs/andalusian_mismatch_declarative-broad-focus_La-nina-lava-el-plato.wav,./stim/wavs/argentine_mismatch_declarative-broad-focus_La-nina-lava-el-plato.wav,./stim/wavs/castilian_mismatch_declarative-broad-focus_La-nina-lava-el-plato.wav,./stim/wavs/chilean_mismatch_declarative-broad-focus_La-nina-lava-el-plato.wav,./stim/wavs/cuban_mismatch_declarative-broad-focus_La-nina-lava-el-plato.wav,./stim/wavs/mexican_mismatch_declarative-broad-focus_La-nina-lava-el-plato.wav,./stim/wavs/peruvian_mismatch_declarative-broad-focus_La-nina-lava-el-plato.wav,./stim/wavs/puertorican_mismatch_declarative-broad-focus_La-nina-lava-el-plato.wav,,,,,,,,,,,,,,,,,,,,,,,,,,,,,,,,,,,,,,,,,,,,,,,,,,,,,,,,
,,,,,,,5e9a84af150a8012575e4784,605b45a4d25f287719a41696,605bf23879bb483c4bd7cb8e,Mexico,Midwest,13 or older,no,2021-03-24_21h17.14.226,empathy_intonation_perc,2020.2.10,Win32,60,,,,,,,,,,0,castilian,0,1,2.01824,0,5,5,37,1,38,./stim/wavs/andalusian_mismatch_declarative-broad-focus_Mi-madre-come-la-fruta.wav,./stim/wavs/argentine_mismatch_declarative-broad-focus_Mi-madre-come-la-fruta.wav,./stim/wavs/castilian_mismatch_declarative-broad-focus_Mi-madre-come-la-fruta.wav,./stim/wavs/chilean_mismatch_declarative-broad-focus_Mi-madre-come-la-fruta.wav,./stim/wavs/cuban_mismatch_declarative-broad-focus_Mi-madre-come-la-fruta.wav,./stim/wavs/mexican_mismatch_declarative-broad-focus_Mi-madre-come-la-fruta.wav,./stim/wavs/peruvian_mismatch_declarative-broad-focus_Mi-madre-come-la-fruta.wav,./stim/wavs/puertorican_mismatch_declarative-broad-focus_Mi-madre-come-la-fruta.wav,,,,,,,,,,,,,,,,,,,,,,,,,,,,,,,,,,,,,,,,,,,,,,,,,,,,,,,,
,,,,,,,5e9a84af150a8012575e4784,605b45a4d25f287719a41696,605bf23879bb483c4bd7cb8e,Mexico,Midwest,13 or older,no,2021-03-24_21h17.14.226,empathy_intonation_perc,2020.2.10,Win32,60,,,,,,,,,,0,andalusian,0,1,1.503265,0,6,6,41,1,42,./stim/wavs/andalusian_mismatch_declarative-narrow-focus_El-hombre-mira-la-luna.wav,./stim/wavs/argentine_mismatch_declarative-narrow-focus_El-hombre-mira-la-luna.wav,./stim/wavs/castilian_mismatch_declarative-narrow-focus_El-hombre-mira-la-luna.wav,./stim/wavs/chilean_mismatch_declarative-narrow-focus_El-hombre-mira-la-luna.wav,./stim/wavs/cuban_mismatch_declarative-narrow-focus_El-hombre-mira-la-luna.wav,./stim/wavs/mexican_mismatch_declarative-narrow-focus_El-hombre-mira-la-luna.wav,./stim/wavs/peruvian_mismatch_declarative-narrow-focus_El-hombre-mira-la-luna.wav,./stim/wavs/puertorican_mismatch_declarative-narrow-focus_El-hombre-mira-la-luna.wav,,,,,,,,,,,,,,,,,,,,,,,,,,,,,,,,,,,,,,,,,,,,,,,,,,,,,,,,
,,,,,,,5e9a84af150a8012575e4784,605b45a4d25f287719a41696,605bf23879bb483c4bd7cb8e,Mexico,Midwest,13 or older,no,2021-03-24_21h17.14.226,empathy_intonation_perc,2020.2.10,Win32,60,,,,,,,,,,0,mexican,0,1,1.327325,0,7,7,9,1,10,./stim/wavs/andalusian_match_declarative-narrow-focus_Daniel-iba-a-Bolivia.wav,./stim/wavs/argentine_match_declarative-narrow-focus_Daniel-iba-a-Bolivia.wav,./stim/wavs/castilian_match_declarative-narrow-focus_Daniel-iba-a-Bolivia.wav,./stim/wavs/chilean_match_declarative-narrow-focus_Daniel-iba-a-Bolivia.wav,./stim/wavs/cuban_match_declarative-narrow-focus_Daniel-iba-a-Bolivia.wav,./stim/wavs/mexican_match_declarative-narrow-focus_Daniel-iba-a-Bolivia.wav,./stim/wavs/peruvian_match_declarative-narrow-focus_Daniel-iba-a-Bolivia.wav,./stim/wavs/puertorican_match_declarative-narrow-focus_Daniel-iba-a-Bolivia.wav,,,,,,,,,,,,,,,,,,,,,,,,,,,,,,,,,,,,,,,,,,,,,,,,,,,,,,,,
,,,,,,,5e9a84af150a8012575e4784,605b45a4d25f287719a41696,605bf23879bb483c4bd7cb8e,Mexico,Midwest,13 or older,no,2021-03-24_21h17.14.226,empathy_intonation_perc,2020.2.10,Win32,60,,,,,,,,,,0,mexican,0,1,1.65085,0,8,8,10,1,11,./stim/wavs/andalusian_match_declarative-narrow-focus_David-leia-el-libro.wav,./stim/wavs/argentine_match_declarative-narrow-focus_David-leia-el-libro.wav,./stim/wavs/castilian_match_declarative-narrow-focus_David-leia-el-libro.wav,./stim/wavs/chilean_match_declarative-narrow-focus_David-leia-el-libro.wav,./stim/wavs/cuban_match_declarative-narrow-focus_David-leia-el-libro.wav,./stim/wavs/mexican_match_declarative-narrow-focus_David-leia-el-libro.wav,./stim/wavs/peruvian_match_declarative-narrow-focus_David-leia-el-libro.wav,./stim/wavs/puertorican_match_declarative-narrow-focus_David-leia-el-libro.wav,,,,,,,,,,,,,,,,,,,,,,,,,,,,,,,,,,,,,,,,,,,,,,,,,,,,,,,,
,,,,,,,5e9a84af150a8012575e4784,605b45a4d25f287719a41696,605bf23879bb483c4bd7cb8e,Mexico,Midwest,13 or older,no,2021-03-24_21h17.14.226,empathy_intonation_perc,2020.2.10,Win32,60,,,,,,,,,,0,argentine,0,1,1.890195,0,9,9,32,1,33,./stim/wavs/andalusian_mismatch_declarative-broad-focus_El-bebe-comia-muy-bien.wav,./stim/wavs/argentine_mismatch_declarative-broad-focus_El-bebe-comia-muy-bien.wav,./stim/wavs/castilian_mismatch_declarative-broad-focus_El-bebe-comia-muy-bien.wav,./stim/wavs/chilean_mismatch_declarative-broad-focus_El-bebe-comia-muy-bien.wav,./stim/wavs/cuban_mismatch_declarative-broad-focus_El-bebe-comia-muy-bien.wav,./stim/wavs/mexican_mismatch_declarative-broad-focus_El-bebe-comia-muy-bien.wav,./stim/wavs/peruvian_mismatch_declarative-broad-focus_El-bebe-comia-muy-bien.wav,./stim/wavs/puertorican_mismatch_declarative-broad-focus_El-bebe-comia-muy-bien.wav,,,,,,,,,,,,,,,,,,,,,,,,,,,,,,,,,,,,,,,,,,,,,,,,,,,,,,,,
,,,,,,,5e9a84af150a8012575e4784,605b45a4d25f287719a41696,605bf23879bb483c4bd7cb8e,Mexico,Midwest,13 or older,no,2021-03-24_21h17.14.226,empathy_intonation_perc,2020.2.10,Win32,60,,,,,,,,,,0,castilian,0,1,1.93437,0,10,10,38,1,39,./stim/wavs/andalusian_mismatch_declarative-broad-focus_Mi-novio-viene-del-lago.wav,./stim/wavs/argentine_mismatch_declarative-broad-focus_Mi-novio-viene-del-lago.wav,./stim/wavs/castilian_mismatch_declarative-broad-focus_Mi-novio-viene-del-lago.wav,./stim/wavs/chilean_mismatch_declarative-broad-focus_Mi-novio-viene-del-lago.wav,./stim/wavs/cuban_mismatch_declarative-broad-focus_Mi-novio-viene-del-lago.wav,./stim/wavs/mexican_mismatch_declarative-broad-focus_Mi-novio-viene-del-lago.wav,./stim/wavs/peruvian_mismatch_declarative-broad-focus_Mi-novio-viene-del-lago.wav,./stim/wavs/puertorican_mismatch_declarative-broad-focus_Mi-novio-viene-del-lago.wav,,,,,,,,,,,,,,,,,,,,,,,,,,,,,,,,,,,,,,,,,,,,,,,,,,,,,,,,
,,,,,,,5e9a84af150a8012575e4784,605b45a4d25f287719a41696,605bf23879bb483c4bd7cb8e,Mexico,Midwest,13 or older,no,2021-03-24_21h17.14.226,empathy_intonation_perc,2020.2.10,Win32,60,,,,,,,,,,1,cuban,1,1,1.314465,0,11,11,22,1,23,./stim/wavs/andalusian_match_interrogative-partial-wh_Por-que-hablaba-del-agua.wav,./stim/wavs/argentine_match_interrogative-partial-wh_Por-que-hablaba-del-agua.wav,./stim/wavs/castilian_match_interrogative-partial-wh_Por-que-hablaba-del-agua.wav,./stim/wavs/chilean_match_interrogative-partial-wh_Por-que-hablaba-del-agua.wav,./stim/wavs/cuban_match_interrogative-partial-wh_Por-que-hablaba-del-agua.wav,./stim/wavs/mexican_match_interrogative-partial-wh_Por-que-hablaba-del-agua.wav,./stim/wavs/peruvian_match_interrogative-partial-wh_Por-que-hablaba-del-agua.wav,./stim/wavs/puertorican_match_interrogative-partial-wh_Por-que-hablaba-del-agua.wav,,,,,,,,,,,,,,,,,,,,,,,,,,,,,,,,,,,,,,,,,,,,,,,,,,,,,,,,
,,,,,,,5e9a84af150a8012575e4784,605b45a4d25f287719a41696,605bf23879bb483c4bd7cb8e,Mexico,Midwest,13 or older,no,2021-03-24_21h17.14.226,empathy_intonation_perc,2020.2.10,Win32,60,,,,,,,,,,1,andalusian,0,0,1.52245,0,12,12,62,1,63,./stim/wavs/andalusian_mismatch_interrogative-total-yn_Mi-novio-viene-del-lago.wav,./stim/wavs/argentine_mismatch_interrogative-total-yn_Mi-novio-viene-del-lago.wav,./stim/wavs/castilian_mismatch_interrogative-total-yn_Mi-novio-viene-del-lago.wav,./stim/wavs/chilean_mismatch_interrogative-total-yn_Mi-novio-viene-del-lago.wav,./stim/wavs/cuban_mismatch_interrogative-total-yn_Mi-novio-viene-del-lago.wav,./stim/wavs/mexican_mismatch_interrogative-total-yn_Mi-novio-viene-del-lago.wav,./stim/wavs/peruvian_mismatch_interrogative-total-yn_Mi-novio-viene-del-lago.wav,./stim/wavs/puertorican_mismatch_interrogative-total-yn_Mi-novio-viene-del-lago.wav,,,,,,,,,,,,,,,,,,,,,,,,,,,,,,,,,,,,,,,,,,,,,,,,,,,,,,,,
,,,,,,,5e9a84af150a8012575e4784,605b45a4d25f287719a41696,605bf23879bb483c4bd7cb8e,Mexico,Midwest,13 or older,no,2021-03-24_21h17.14.226,empathy_intonation_perc,2020.2.10,Win32,60,,,,,,,,,,1,puertorican,1,1,1.377075,0,13,13,21,1,22,./stim/wavs/andalusian_match_interrogative-partial-wh_Por-que-ama-la-navidad.wav,./stim/wavs/argentine_match_interrogative-partial-wh_Por-que-ama-la-navidad.wav,./stim/wavs/castilian_match_interrogative-partial-wh_Por-que-ama-la-navidad.wav,./stim/wavs/chilean_match_interrogative-partial-wh_Por-que-ama-la-navidad.wav,./stim/wavs/cuban_match_interrogative-partial-wh_Por-que-ama-la-navidad.wav,./stim/wavs/mexican_match_interrogative-partial-wh_Por-que-ama-la-navidad.wav,./stim/wavs/peruvian_match_interrogative-partial-wh_Por-que-ama-la-navidad.wav,./stim/wavs/puertorican_match_interrogative-partial-wh_Por-que-ama-la-navidad.wav,,,,,,,,,,,,,,,,,,,,,,,,,,,,,,,,,,,,,,,,,,,,,,,,,,,,,,,,
,,,,,,,5e9a84af150a8012575e4784,605b45a4d25f287719a41696,605bf23879bb483c4bd7cb8e,Mexico,Midwest,13 or older,no,2021-03-24_21h17.14.226,empathy_intonation_perc,2020.2.10,Win32,60,,,,,,,,,,0,chilean,0,1,1.767745,0,14,14,4,1,5,./stim/wavs/andalusian_match_declarative-broad-focus_Manuela-vende-el-carro.wav,./stim/wavs/argentine_match_declarative-broad-focus_Manuela-vende-el-carro.wav,./stim/wavs/castilian_match_declarative-broad-focus_Manuela-vende-el-carro.wav,./stim/wavs/chilean_match_declarative-broad-focus_Manuela-vende-el-carro.wav,./stim/wavs/cuban_match_declarative-broad-focus_Manuela-vende-el-carro.wav,./stim/wavs/mexican_match_declarative-broad-focus_Manuela-vende-el-carro.wav,./stim/wavs/peruvian_match_declarative-broad-focus_Manuela-vende-el-carro.wav,./stim/wavs/puertorican_match_declarative-broad-focus_Manuela-vende-el-carro.wav,,,,,,,,,,,,,,,,,,,,,,,,,,,,,,,,,,,,,,,,,,,,,,,,,,,,,,,,
,,,,,,,5e9a84af150a8012575e4784,605b45a4d25f287719a41696,605bf23879bb483c4bd7cb8e,Mexico,Midwest,13 or older,no,2021-03-24_21h17.14.226,empathy_intonation_perc,2020.2.10,Win32,60,,,,,,,,,,0,mexican,0,1,1.756685,0,15,15,6,1,7,./stim/wavs/andalusian_match_declarative-broad-focus_Mariano-habla-del-tiempo.wav,./stim/wavs/argentine_match_declarative-broad-focus_Mariano-habla-del-tiempo.wav,./stim/wavs/castilian_match_declarative-broad-focus_Mariano-habla-del-tiempo.wav,./stim/wavs/chilean_match_declarative-broad-focus_Mariano-habla-del-tiempo.wav,./stim/wavs/cuban_match_declarative-broad-focus_Mariano-habla-del-tiempo.wav,./stim/wavs/mexican_match_declarative-broad-focus_Mariano-habla-del-tiempo.wav,./stim/wavs/peruvian_match_declarative-broad-focus_Mariano-habla-del-tiempo.wav,./stim/wavs/puertorican_match_declarative-broad-focus_Mariano-habla-del-tiempo.wav,,,,,,,,,,,,,,,,,,,,,,,,,,,,,,,,,,,,,,,,,,,,,,,,,,,,,,,,
,,,,,,,5e9a84af150a8012575e4784,605b45a4d25f287719a41696,605bf23879bb483c4bd7cb8e,Mexico,Midwest,13 or older,no,2021-03-24_21h17.14.226,empathy_intonation_perc,2020.2.10,Win32,60,,,,,,,,,,1,peruvian,1,1,1.69293,0,16,16,17,1,18,./stim/wavs/andalusian_match_interrogative-partial-wh_Cuando-leia-el-libro.wav,./stim/wavs/argentine_match_interrogative-partial-wh_Cuando-leia-el-libro.wav,./stim/wavs/castilian_match_interrogative-partial-wh_Cuando-leia-el-libro.wav,./stim/wavs/chilean_match_interrogative-partial-wh_Cuando-leia-el-libro.wav,./stim/wavs/cuban_match_interrogative-partial-wh_Cuando-leia-el-libro.wav,./stim/wavs/mexican_match_interrogative-partial-wh_Cuando-leia-el-libro.wav,./stim/wavs/peruvian_match_interrogative-partial-wh_Cuando-leia-el-libro.wav,./stim/wavs/puertorican_match_interrogative-partial-wh_Cuando-leia-el-libro.wav,,,,,,,,,,,,,,,,,,,,,,,,,,,,,,,,,,,,,,,,,,,,,,,,,,,,,,,,
,,,,,,,5e9a84af150a8012575e4784,605b45a4d25f287719a41696,605bf23879bb483c4bd7cb8e,Mexico,Midwest,13 or older,no,2021-03-24_21h17.14.226,empathy_intonation_perc,2020.2.10,Win32,60,,,,,,,,,,0,andalusian,0,1,1.5127,0,17,17,40,1,41,./stim/wavs/andalusian_mismatch_declarative-narrow-focus_El-bebe-comia-muy-bien.wav,./stim/wavs/argentine_mismatch_declarative-narrow-focus_El-bebe-comia-muy-bien.wav,./stim/wavs/castilian_mismatch_declarative-narrow-focus_El-bebe-comia-muy-bien.wav,./stim/wavs/chilean_mismatch_declarative-narrow-focus_El-bebe-comia-muy-bien.wav,./stim/wavs/cuban_mismatch_declarative-narrow-focus_El-bebe-comia-muy-bien.wav,./stim/wavs/mexican_mismatch_declarative-narrow-focus_El-bebe-comia-muy-bien.wav,./stim/wavs/peruvian_mismatch_declarative-narrow-focus_El-bebe-comia-muy-bien.wav,./stim/wavs/puertorican_mismatch_declarative-narrow-focus_El-bebe-comia-muy-bien.wav,,,,,,,,,,,,,,,,,,,,,,,,,,,,,,,,,,,,,,,,,,,,,,,,,,,,,,,,
,,,,,,,5e9a84af150a8012575e4784,605b45a4d25f287719a41696,605bf23879bb483c4bd7cb8e,Mexico,Midwest,13 or older,no,2021-03-24_21h17.14.226,empathy_intonation_perc,2020.2.10,Win32,60,,,,,,,,,,1,cuban,0,0,1.70015,0,18,18,63,1,64,./stim/wavs/andalusian_mismatch_interrogative-total-yn_Mi-tia-odia-la-lluvia.wav,./stim/wavs/argentine_mismatch_interrogative-total-yn_Mi-tia-odia-la-lluvia.wav,./stim/wavs/castilian_mismatch_interrogative-total-yn_Mi-tia-odia-la-lluvia.wav,./stim/wavs/chilean_mismatch_interrogative-total-yn_Mi-tia-odia-la-lluvia.wav,./stim/wavs/cuban_mismatch_interrogative-total-yn_Mi-tia-odia-la-lluvia.wav,./stim/wavs/mexican_mismatch_interrogative-total-yn_Mi-tia-odia-la-lluvia.wav,./stim/wavs/peruvian_mismatch_interrogative-total-yn_Mi-tia-odia-la-lluvia.wav,./stim/wavs/puertorican_mismatch_interrogative-total-yn_Mi-tia-odia-la-lluvia.wav,,,,,,,,,,,,,,,,,,,,,,,,,,,,,,,,,,,,,,,,,,,,,,,,,,,,,,,,
,,,,,,,5e9a84af150a8012575e4784,605b45a4d25f287719a41696,605bf23879bb483c4bd7cb8e,Mexico,Midwest,13 or older,no,2021-03-24_21h17.14.226,empathy_intonation_perc,2020.2.10,Win32,60,,,,,,,,,,1,peruvian,1,1,1.774825,0,19,19,56,1,57,./stim/wavs/andalusian_mismatch_interrogative-total-yn_El-bebe-comia-muy-bien.wav,./stim/wavs/argentine_mismatch_interrogative-total-yn_El-bebe-comia-muy-bien.wav,./stim/wavs/castilian_mismatch_interrogative-total-yn_El-bebe-comia-muy-bien.wav,./stim/wavs/chilean_mismatch_interrogative-total-yn_El-bebe-comia-muy-bien.wav,./stim/wavs/cuban_mismatch_interrogative-total-yn_El-bebe-comia-muy-bien.wav,./stim/wavs/mexican_mismatch_interrogative-total-yn_El-bebe-comia-muy-bien.wav,./stim/wavs/peruvian_mismatch_interrogative-total-yn_El-bebe-comia-muy-bien.wav,./stim/wavs/puertorican_mismatch_interrogative-total-yn_El-bebe-comia-muy-bien.wav,,,,,,,,,,,,,,,,,,,,,,,,,,,,,,,,,,,,,,,,,,,,,,,,,,,,,,,,
,,,,,,,5e9a84af150a8012575e4784,605b45a4d25f287719a41696,605bf23879bb483c4bd7cb8e,Mexico,Midwest,13 or older,no,2021-03-24_21h17.14.226,empathy_intonation_perc,2020.2.10,Win32,60,,,,,,,,,,1,cuban,0,0,1.57451,0,20,20,54,1,55,./stim/wavs/andalusian_mismatch_interrogative-partial-wh_Por-que-venia-del-lago.wav,./stim/wavs/argentine_mismatch_interrogative-partial-wh_Por-que-venia-del-lago.wav,./stim/wavs/castilian_mismatch_interrogative-partial-wh_Por-que-venia-del-lago.wav,./stim/wavs/chilean_mismatch_interrogative-partial-wh_Por-que-venia-del-lago.wav,./stim/wavs/cuban_mismatch_interrogative-partial-wh_Por-que-venia-del-lago.wav,./stim/wavs/mexican_mismatch_interrogative-partial-wh_Por-que-venia-del-lago.wav,./stim/wavs/peruvian_mismatch_interrogative-partial-wh_Por-que-venia-del-lago.wav,./stim/wavs/puertorican_mismatch_interrogative-partial-wh_Por-que-venia-del-lago.wav,,,,,,,,,,,,,,,,,,,,,,,,,,,,,,,,,,,,,,,,,,,,,,,,,,,,,,,,
,,,,,,,5e9a84af150a8012575e4784,605b45a4d25f287719a41696,605bf23879bb483c4bd7cb8e,Mexico,Midwest,13 or older,no,2021-03-24_21h17.14.226,empathy_intonation_perc,2020.2.10,Win32,60,,,,,,,,,,1,castilian,0,0,2.734095,0,21,21,24,1,25,./stim/wavs/andalusian_match_interrogative-total-yn_Ana-lleva-el-abrigo.wav,./stim/wavs/argentine_match_interrogative-total-yn_Ana-lleva-el-abrigo.wav,./stim/wavs/castilian_match_interrogative-total-yn_Ana-lleva-el-abrigo.wav,./stim/wavs/chilean_match_interrogative-total-yn_Ana-lleva-el-abrigo.wav,./stim/wavs/cuban_match_interrogative-total-yn_Ana-lleva-el-abrigo.wav,./stim/wavs/mexican_match_interrogative-total-yn_Ana-lleva-el-abrigo.wav,./stim/wavs/peruvian_match_interrogative-total-yn_Ana-lleva-el-abrigo.wav,./stim/wavs/puertorican_match_interrogative-total-yn_Ana-lleva-el-abrigo.wav,,,,,,,,,,,,,,,,,,,,,,,,,,,,,,,,,,,,,,,,,,,,,,,,,,,,,,,,
,,,,,,,5e9a84af150a8012575e4784,605b45a4d25f287719a41696,605bf23879bb483c4bd7cb8e,Mexico,Midwest,13 or older,no,2021-03-24_21h17.14.226,empathy_intonation_perc,2020.2.10,Win32,60,,,,,,,,,,1,castilian,1,1,1.50248,0,22,22,52,1,53,./stim/wavs/andalusian_mismatch_interrogative-partial-wh_Por-que-odiaba-la-lluvia.wav,./stim/wavs/argentine_mismatch_interrogative-partial-wh_Por-que-odiaba-la-lluvia.wav,./stim/wavs/castilian_mismatch_interrogative-partial-wh_Por-que-odiaba-la-lluvia.wav,./stim/wavs/chilean_mismatch_interrogative-partial-wh_Por-que-odiaba-la-lluvia.wav,./stim/wavs/cuban_mismatch_interrogative-partial-wh_Por-que-odiaba-la-lluvia.wav,./stim/wavs/mexican_mismatch_interrogative-partial-wh_Por-que-odiaba-la-lluvia.wav,./stim/wavs/peruvian_mismatch_interrogative-partial-wh_Por-que-odiaba-la-lluvia.wav,./stim/wavs/puertorican_mismatch_interrogative-partial-wh_Por-que-odiaba-la-lluvia.wav,,,,,,,,,,,,,,,,,,,,,,,,,,,,,,,,,,,,,,,,,,,,,,,,,,,,,,,,
,,,,,,,5e9a84af150a8012575e4784,605b45a4d25f287719a41696,605bf23879bb483c4bd7cb8e,Mexico,Midwest,13 or older,no,2021-03-24_21h17.14.226,empathy_intonation_perc,2020.2.10,Win32,60,,,,,,,,,,0,chilean,0,1,1.510795,0,23,23,44,1,45,./stim/wavs/andalusian_mismatch_declarative-narrow-focus_La-nina-lava-el-plato.wav,./stim/wavs/argentine_mismatch_declarative-narrow-focus_La-nina-lava-el-plato.wav,./stim/wavs/castilian_mismatch_declarative-narrow-focus_La-nina-lava-el-plato.wav,./stim/wavs/chilean_mismatch_declarative-narrow-focus_La-nina-lava-el-plato.wav,./stim/wavs/cuban_mismatch_declarative-narrow-focus_La-nina-lava-el-plato.wav,./stim/wavs/mexican_mismatch_declarative-narrow-focus_La-nina-lava-el-plato.wav,./stim/wavs/peruvian_mismatch_declarative-narrow-focus_La-nina-lava-el-plato.wav,./stim/wavs/puertorican_mismatch_declarative-narrow-focus_La-nina-lava-el-plato.wav,,,,,,,,,,,,,,,,,,,,,,,,,,,,,,,,,,,,,,,,,,,,,,,,,,,,,,,,
,,,,,,,5e9a84af150a8012575e4784,605b45a4d25f287719a41696,605bf23879bb483c4bd7cb8e,Mexico,Midwest,13 or older,no,2021-03-24_21h17.14.226,empathy_intonation_perc,2020.2.10,Win32,60,,,,,,,,,,1,chilean,1,1,1.11778,0,24,24,16,1,17,./stim/wavs/andalusian_match_interrogative-partial-wh_Cuando-bebia-el-vino.wav,./stim/wavs/argentine_match_interrogative-partial-wh_Cuando-bebia-el-vino.wav,./stim/wavs/castilian_match_interrogative-partial-wh_Cuando-bebia-el-vino.wav,./stim/wavs/chilean_match_interrogative-partial-wh_Cuando-bebia-el-vino.wav,./stim/wavs/cuban_match_interrogative-partial-wh_Cuando-bebia-el-vino.wav,./stim/wavs/mexican_match_interrogative-partial-wh_Cuando-bebia-el-vino.wav,./stim/wavs/peruvian_match_interrogative-partial-wh_Cuando-bebia-el-vino.wav,./stim/wavs/puertorican_match_interrogative-partial-wh_Cuando-bebia-el-vino.wav,,,,,,,,,,,,,,,,,,,,,,,,,,,,,,,,,,,,,,,,,,,,,,,,,,,,,,,,
,,,,,,,5e9a84af150a8012575e4784,605b45a4d25f287719a41696,605bf23879bb483c4bd7cb8e,Mexico,Midwest,13 or older,no,2021-03-24_21h17.14.226,empathy_intonation_perc,2020.2.10,Win32,60,,,,,,,,,,0,chilean,0,1,1.655795,0,25,25,11,1,12,./stim/wavs/andalusian_match_declarative-narrow-focus_Emilio-ama-la-marcha.wav,./stim/wavs/argentine_match_declarative-narrow-focus_Emilio-ama-la-marcha.wav,./stim/wavs/castilian_match_declarative-narrow-focus_Emilio-ama-la-marcha.wav,./stim/wavs/chilean_match_declarative-narrow-focus_Emilio-ama-la-marcha.wav,./stim/wavs/cuban_match_declarative-narrow-focus_Emilio-ama-la-marcha.wav,./stim/wavs/mexican_match_declarative-narrow-focus_Emilio-ama-la-marcha.wav,./stim/wavs/peruvian_match_declarative-narrow-focus_Emilio-ama-la-marcha.wav,./stim/wavs/puertorican_match_declarative-narrow-focus_Emilio-ama-la-marcha.wav,,,,,,,,,,,,,,,,,,,,,,,,,,,,,,,,,,,,,,,,,,,,,,,,,,,,,,,,
,,,,,,,5e9a84af150a8012575e4784,605b45a4d25f287719a41696,605bf23879bb483c4bd7cb8e,Mexico,Midwest,13 or older,no,2021-03-24_21h17.14.226,empathy_intonation_perc,2020.2.10,Win32,60,,,,,,,,,,1,argentine,1,1,1.24477,0,26,26,50,1,51,./stim/wavs/andalusian_mismatch_interrogative-partial-wh_Cuando-miraba-la-luna.wav,./stim/wavs/argentine_mismatch_interrogative-partial-wh_Cuando-miraba-la-luna.wav,./stim/wavs/castilian_mismatch_interrogative-partial-wh_Cuando-miraba-la-luna.wav,./stim/wavs/chilean_mismatch_interrogative-partial-wh_Cuando-miraba-la-luna.wav,./stim/wavs/cuban_mismatch_interrogative-partial-wh_Cuando-miraba-la-luna.wav,./stim/wavs/mexican_mismatch_interrogative-partial-wh_Cuando-miraba-la-luna.wav,./stim/wavs/peruvian_mismatch_interrogative-partial-wh_Cuando-miraba-la-luna.wav,./stim/wavs/puertorican_mismatch_interrogative-partial-wh_Cuando-miraba-la-luna.wav,,,,,,,,,,,,,,,,,,,,,,,,,,,,,,,,,,,,,,,,,,,,,,,,,,,,,,,,
,,,,,,,5e9a84af150a8012575e4784,605b45a4d25f287719a41696,605bf23879bb483c4bd7cb8e,Mexico,Midwest,13 or older,no,2021-03-24_21h17.14.226,empathy_intonation_perc,2020.2.10,Win32,60,,,,,,,,,,0,chilean,1,0,1.384915,0,27,27,35,1,36,./stim/wavs/andalusian_mismatch_declarative-broad-focus_La-maestra-vive-en-Paris.wav,./stim/wavs/argentine_mismatch_declarative-broad-focus_La-maestra-vive-en-Paris.wav,./stim/wavs/castilian_mismatch_declarative-broad-focus_La-maestra-vive-en-Paris.wav,./stim/wavs/chilean_mismatch_declarative-broad-focus_La-maestra-vive-en-Paris.wav,./stim/wavs/cuban_mismatch_declarative-broad-focus_La-maestra-vive-en-Paris.wav,./stim/wavs/mexican_mismatch_declarative-broad-focus_La-maestra-vive-en-Paris.wav,./stim/wavs/peruvian_mismatch_declarative-broad-focus_La-maestra-vive-en-Paris.wav,./stim/wavs/puertorican_mismatch_declarative-broad-focus_La-maestra-vive-en-Paris.wav,,,,,,,,,,,,,,,,,,,,,,,,,,,,,,,,,,,,,,,,,,,,,,,,,,,,,,,,
,,,,,,,5e9a84af150a8012575e4784,605b45a4d25f287719a41696,605bf23879bb483c4bd7cb8e,Mexico,Midwest,13 or older,no,2021-03-24_21h17.14.226,empathy_intonation_perc,2020.2.10,Win32,60,,,,,,,,,,1,argentine,1,1,1.45659,0,28,28,53,1,54,./stim/wavs/andalusian_mismatch_interrogative-partial-wh_Por-que-oia-el-rio.wav,./stim/wavs/argentine_mismatch_interrogative-partial-wh_Por-que-oia-el-rio.wav,./stim/wavs/castilian_mismatch_interrogative-partial-wh_Por-que-oia-el-rio.wav,./stim/wavs/chilean_mismatch_interrogative-partial-wh_Por-que-oia-el-rio.wav,./stim/wavs/cuban_mismatch_interrogative-partial-wh_Por-que-oia-el-rio.wav,./stim/wavs/mexican_mismatch_interrogative-partial-wh_Por-que-oia-el-rio.wav,./stim/wavs/peruvian_mismatch_interrogative-partial-wh_Por-que-oia-el-rio.wav,./stim/wavs/puertorican_mismatch_interrogative-partial-wh_Por-que-oia-el-rio.wav,,,,,,,,,,,,,,,,,,,,,,,,,,,,,,,,,,,,,,,,,,,,,,,,,,,,,,,,
,,,,,,,5e9a84af150a8012575e4784,605b45a4d25f287719a41696,605bf23879bb483c4bd7cb8e,Mexico,Midwest,13 or older,no,2021-03-24_21h17.14.226,empathy_intonation_perc,2020.2.10,Win32,60,,,,,,,,,,1,cuban,0,0,1.44178,0,29,29,28,1,29,./stim/wavs/andalusian_match_interrogative-total-yn_Manuela-vende-el-carro.wav,./stim/wavs/argentine_match_interrogative-total-yn_Manuela-vende-el-carro.wav,./stim/wavs/castilian_match_interrogative-total-yn_Manuela-vende-el-carro.wav,./stim/wavs/chilean_match_interrogative-total-yn_Manuela-vende-el-carro.wav,./stim/wavs/cuban_match_interrogative-total-yn_Manuela-vende-el-carro.wav,./stim/wavs/mexican_match_interrogative-total-yn_Manuela-vende-el-carro.wav,./stim/wavs/peruvian_match_interrogative-total-yn_Manuela-vende-el-carro.wav,./stim/wavs/puertorican_match_interrogative-total-yn_Manuela-vende-el-carro.wav,,,,,,,,,,,,,,,,,,,,,,,,,,,,,,,,,,,,,,,,,,,,,,,,,,,,,,,,
,,,,,,,5e9a84af150a8012575e4784,605b45a4d25f287719a41696,605bf23879bb483c4bd7cb8e,Mexico,Midwest,13 or older,no,2021-03-24_21h17.14.226,empathy_intonation_perc,2020.2.10,Win32,60,,,,,,,,,,1,chilean,1,1,0.78358,0,30,30,49,1,50,./stim/wavs/andalusian_mismatch_interrogative-partial-wh_Cuando-lavaba-el-plato.wav,./stim/wavs/argentine_mismatch_interrogative-partial-wh_Cuando-lavaba-el-plato.wav,./stim/wavs/castilian_mismatch_interrogative-partial-wh_Cuando-lavaba-el-plato.wav,./stim/wavs/chilean_mismatch_interrogative-partial-wh_Cuando-lavaba-el-plato.wav,./stim/wavs/cuban_mismatch_interrogative-partial-wh_Cuando-lavaba-el-plato.wav,./stim/wavs/mexican_mismatch_interrogative-partial-wh_Cuando-lavaba-el-plato.wav,./stim/wavs/peruvian_mismatch_interrogative-partial-wh_Cuando-lavaba-el-plato.wav,./stim/wavs/puertorican_mismatch_interrogative-partial-wh_Cuando-lavaba-el-plato.wav,,,,,,,,,,,,,,,,,,,,,,,,,,,,,,,,,,,,,,,,,,,,,,,,,,,,,,,,
,,,,,,,5e9a84af150a8012575e4784,605b45a4d25f287719a41696,605bf23879bb483c4bd7cb8e,Mexico,Midwest,13 or older,no,2021-03-24_21h17.14.226,empathy_intonation_perc,2020.2.10,Win32,60,,,,,,,,,,0,puertorican,0,1,1.367325,0,31,31,15,1,16,./stim/wavs/andalusian_match_declarative-narrow-focus_Marta-abre-el-regalo.wav,./stim/wavs/argentine_match_declarative-narrow-focus_Marta-abre-el-regalo.wav,./stim/wavs/castilian_match_declarative-narrow-focus_Marta-abre-el-regalo.wav,./stim/wavs/chilean_match_declarative-narrow-focus_Marta-abre-el-regalo.wav,./stim/wavs/cuban_match_declarative-narrow-focus_Marta-abre-el-regalo.wav,./stim/wavs/mexican_match_declarative-narrow-focus_Marta-abre-el-regalo.wav,./stim/wavs/peruvian_match_declarative-narrow-focus_Marta-abre-el-regalo.wav,./stim/wavs/puertorican_match_declarative-narrow-focus_Marta-abre-el-regalo.wav,,,,,,,,,,,,,,,,,,,,,,,,,,,,,,,,,,,,,,,,,,,,,,,,,,,,,,,,
,,,,,,,5e9a84af150a8012575e4784,605b45a4d25f287719a41696,605bf23879bb483c4bd7cb8e,Mexico,Midwest,13 or older,no,2021-03-24_21h17.14.226,empathy_intonation_perc,2020.2.10,Win32,60,,,,,,,,,,1,peruvian,1,1,0.96146,0,32,32,23,1,24,./stim/wavs/andalusian_match_interrogative-partial-wh_Por-que-iba-a-Bolivia.wav,./stim/wavs/argentine_match_interrogative-partial-wh_Por-que-iba-a-Bolivia.wav,./stim/wavs/castilian_match_interrogative-partial-wh_Por-que-iba-a-Bolivia.wav,./stim/wavs/chilean_match_interrogative-partial-wh_Por-que-iba-a-Bolivia.wav,./stim/wavs/cuban_match_interrogative-partial-wh_Por-que-iba-a-Bolivia.wav,./stim/wavs/mexican_match_interrogative-partial-wh_Por-que-iba-a-Bolivia.wav,./stim/wavs/peruvian_match_interrogative-partial-wh_Por-que-iba-a-Bolivia.wav,./stim/wavs/puertorican_match_interrogative-partial-wh_Por-que-iba-a-Bolivia.wav,,,,,,,,,,,,,,,,,,,,,,,,,,,,,,,,,,,,,,,,,,,,,,,,,,,,,,,,
,,,,,,,5e9a84af150a8012575e4784,605b45a4d25f287719a41696,605bf23879bb483c4bd7cb8e,Mexico,Midwest,13 or older,no,2021-03-24_21h17.14.226,empathy_intonation_perc,2020.2.10,Win32,60,,,,,,,,,,1,argentine,0,0,1.78308,0,33,33,57,1,58,./stim/wavs/andalusian_mismatch_interrogative-total-yn_El-hombre-mira-la-luna.wav,./stim/wavs/argentine_mismatch_interrogative-total-yn_El-hombre-mira-la-luna.wav,./stim/wavs/castilian_mismatch_interrogative-total-yn_El-hombre-mira-la-luna.wav,./stim/wavs/chilean_mismatch_interrogative-total-yn_El-hombre-mira-la-luna.wav,./stim/wavs/cuban_mismatch_interrogative-total-yn_El-hombre-mira-la-luna.wav,./stim/wavs/mexican_mismatch_interrogative-total-yn_El-hombre-mira-la-luna.wav,./stim/wavs/peruvian_mismatch_interrogative-total-yn_El-hombre-mira-la-luna.wav,./stim/wavs/puertorican_mismatch_interrogative-total-yn_El-hombre-mira-la-luna.wav,,,,,,,,,,,,,,,,,,,,,,,,,,,,,,,,,,,,,,,,,,,,,,,,,,,,,,,,
,,,,,,,5e9a84af150a8012575e4784,605b45a4d25f287719a41696,605bf23879bb483c4bd7cb8e,Mexico,Midwest,13 or older,no,2021-03-24_21h17.14.226,empathy_intonation_perc,2020.2.10,Win32,60,,,,,,,,,,0,argentine,0,1,1.442455,0,34,34,42,1,43,./stim/wavs/andalusian_mismatch_declarative-narrow-focus_El-nino-oye-el-rio.wav,./stim/wavs/argentine_mismatch_declarative-narrow-focus_El-nino-oye-el-rio.wav,./stim/wavs/castilian_mismatch_declarative-narrow-focus_El-nino-oye-el-rio.wav,./stim/wavs/chilean_mismatch_declarative-narrow-focus_El-nino-oye-el-rio.wav,./stim/wavs/cuban_mismatch_declarative-narrow-focus_El-nino-oye-el-rio.wav,./stim/wavs/mexican_mismatch_declarative-narrow-focus_El-nino-oye-el-rio.wav,./stim/wavs/peruvian_mismatch_declarative-narrow-focus_El-nino-oye-el-rio.wav,./stim/wavs/puertorican_mismatch_declarative-narrow-focus_El-nino-oye-el-rio.wav,,,,,,,,,,,,,,,,,,,,,,,,,,,,,,,,,,,,,,,,,,,,,,,,,,,,,,,,
,,,,,,,5e9a84af150a8012575e4784,605b45a4d25f287719a41696,605bf23879bb483c4bd7cb8e,Mexico,Midwest,13 or older,no,2021-03-24_21h17.14.226,empathy_intonation_perc,2020.2.10,Win32,60,,,,,,,,,,1,argentine,1,1,0.90019,0,35,35,48,1,49,./stim/wavs/andalusian_mismatch_interrogative-partial-wh_Cuando-comia-la-fruta.wav,./stim/wavs/argentine_mismatch_interrogative-partial-wh_Cuando-comia-la-fruta.wav,./stim/wavs/castilian_mismatch_interrogative-partial-wh_Cuando-comia-la-fruta.wav,./stim/wavs/chilean_mismatch_interrogative-partial-wh_Cuando-comia-la-fruta.wav,./stim/wavs/cuban_mismatch_interrogative-partial-wh_Cuando-comia-la-fruta.wav,./stim/wavs/mexican_mismatch_interrogative-partial-wh_Cuando-comia-la-fruta.wav,./stim/wavs/peruvian_mismatch_interrogative-partial-wh_Cuando-comia-la-fruta.wav,./stim/wavs/puertorican_mismatch_interrogative-partial-wh_Cuando-comia-la-fruta.wav,,,,,,,,,,,,,,,,,,,,,,,,,,,,,,,,,,,,,,,,,,,,,,,,,,,,,,,,
,,,,,,,5e9a84af150a8012575e4784,605b45a4d25f287719a41696,605bf23879bb483c4bd7cb8e,Mexico,Midwest,13 or older,no,2021-03-24_21h17.14.226,empathy_intonation_perc,2020.2.10,Win32,60,,,,,,,,,,1,peruvian,0,0,1.71962,0,36,36,30,1,31,./stim/wavs/andalusian_match_interrogative-total-yn_Mariano-habla-del-tiempo.wav,./stim/wavs/argentine_match_interrogative-total-yn_Mariano-habla-del-tiempo.wav,./stim/wavs/castilian_match_interrogative-total-yn_Mariano-habla-del-tiempo.wav,./stim/wavs/chilean_match_interrogative-total-yn_Mariano-habla-del-tiempo.wav,./stim/wavs/cuban_match_interrogative-total-yn_Mariano-habla-del-tiempo.wav,./stim/wavs/mexican_match_interrogative-total-yn_Mariano-habla-del-tiempo.wav,./stim/wavs/peruvian_match_interrogative-total-yn_Mariano-habla-del-tiempo.wav,./stim/wavs/puertorican_match_interrogative-total-yn_Mariano-habla-del-tiempo.wav,,,,,,,,,,,,,,,,,,,,,,,,,,,,,,,,,,,,,,,,,,,,,,,,,,,,,,,,
,,,,,,,5e9a84af150a8012575e4784,605b45a4d25f287719a41696,605bf23879bb483c4bd7cb8e,Mexico,Midwest,13 or older,no,2021-03-24_21h17.14.226,empathy_intonation_perc,2020.2.10,Win32,60,,,,,,,,,,0,castilian,0,1,1.436545,0,37,37,13,1,14,./stim/wavs/andalusian_match_declarative-narrow-focus_Maria-bebe-el-vino.wav,./stim/wavs/argentine_match_declarative-narrow-focus_Maria-bebe-el-vino.wav,./stim/wavs/castilian_match_declarative-narrow-focus_Maria-bebe-el-vino.wav,./stim/wavs/chilean_match_declarative-narrow-focus_Maria-bebe-el-vino.wav,./stim/wavs/cuban_match_declarative-narrow-focus_Maria-bebe-el-vino.wav,./stim/wavs/mexican_match_declarative-narrow-focus_Maria-bebe-el-vino.wav,./stim/wavs/peruvian_match_declarative-narrow-focus_Maria-bebe-el-vino.wav,./stim/wavs/puertorican_match_declarative-narrow-focus_Maria-bebe-el-vino.wav,,,,,,,,,,,,,,,,,,,,,,,,,,,,,,,,,,,,,,,,,,,,,,,,,,,,,,,,
,,,,,,,5e9a84af150a8012575e4784,605b45a4d25f287719a41696,605bf23879bb483c4bd7cb8e,Mexico,Midwest,13 or older,no,2021-03-24_21h17.14.226,empathy_intonation_perc,2020.2.10,Win32,60,,,,,,,,,,1,chilean,1,1,1.50568,0,38,38,26,1,27,./stim/wavs/andalusian_match_interrogative-total-yn_David-leia-el-libro.wav,./stim/wavs/argentine_match_interrogative-total-yn_David-leia-el-libro.wav,./stim/wavs/castilian_match_interrogative-total-yn_David-leia-el-libro.wav,./stim/wavs/chilean_match_interrogative-total-yn_David-leia-el-libro.wav,./stim/wavs/cuban_match_interrogative-total-yn_David-leia-el-libro.wav,./stim/wavs/mexican_match_interrogative-total-yn_David-leia-el-libro.wav,./stim/wavs/peruvian_match_interrogative-total-yn_David-leia-el-libro.wav,./stim/wavs/puertorican_match_interrogative-total-yn_David-leia-el-libro.wav,,,,,,,,,,,,,,,,,,,,,,,,,,,,,,,,,,,,,,,,,,,,,,,,,,,,,,,,
,,,,,,,5e9a84af150a8012575e4784,605b45a4d25f287719a41696,605bf23879bb483c4bd7cb8e,Mexico,Midwest,13 or older,no,2021-03-24_21h17.14.226,empathy_intonation_perc,2020.2.10,Win32,60,,,,,,,,,,1,puertorican,0,0,1.599345,0,39,39,31,1,32,./stim/wavs/andalusian_match_interrogative-total-yn_Marta-abre-el-regalo.wav,./stim/wavs/argentine_match_interrogative-total-yn_Marta-abre-el-regalo.wav,./stim/wavs/castilian_match_interrogative-total-yn_Marta-abre-el-regalo.wav,./stim/wavs/chilean_match_interrogative-total-yn_Marta-abre-el-regalo.wav,./stim/wavs/cuban_match_interrogative-total-yn_Marta-abre-el-regalo.wav,./stim/wavs/mexican_match_interrogative-total-yn_Marta-abre-el-regalo.wav,./stim/wavs/peruvian_match_interrogative-total-yn_Marta-abre-el-regalo.wav,./stim/wavs/puertorican_match_interrogative-total-yn_Marta-abre-el-regalo.wav,,,,,,,,,,,,,,,,,,,,,,,,,,,,,,,,,,,,,,,,,,,,,,,,,,,,,,,,
,,,,,,,5e9a84af150a8012575e4784,605b45a4d25f287719a41696,605bf23879bb483c4bd7cb8e,Mexico,Midwest,13 or older,no,2021-03-24_21h17.14.226,empathy_intonation_perc,2020.2.10,Win32,60,,,,,,,,,,1,argentine,1,1,2.341585,0,40,40,60,1,61,./stim/wavs/andalusian_mismatch_interrogative-total-yn_La-nina-lava-el-plato.wav,./stim/wavs/argentine_mismatch_interrogative-total-yn_La-nina-lava-el-plato.wav,./stim/wavs/castilian_mismatch_interrogative-total-yn_La-nina-lava-el-plato.wav,./stim/wavs/chilean_mismatch_interrogative-total-yn_La-nina-lava-el-plato.wav,./stim/wavs/cuban_mismatch_interrogative-total-yn_La-nina-lava-el-plato.wav,./stim/wavs/mexican_mismatch_interrogative-total-yn_La-nina-lava-el-plato.wav,./stim/wavs/peruvian_mismatch_interrogative-total-yn_La-nina-lava-el-plato.wav,./stim/wavs/puertorican_mismatch_interrogative-total-yn_La-nina-lava-el-plato.wav,,,,,,,,,,,,,,,,,,,,,,,,,,,,,,,,,,,,,,,,,,,,,,,,,,,,,,,,
,,,,,,,5e9a84af150a8012575e4784,605b45a4d25f287719a41696,605bf23879bb483c4bd7cb8e,Mexico,Midwest,13 or older,no,2021-03-24_21h17.14.226,empathy_intonation_perc,2020.2.10,Win32,60,,,,,,,,,,0,puertorican,0,1,1.325795,0,41,41,8,1,9,./stim/wavs/andalusian_match_declarative-narrow-focus_Ana-lleva-el-abrigo.wav,./stim/wavs/argentine_match_declarative-narrow-focus_Ana-lleva-el-abrigo.wav,./stim/wavs/castilian_match_declarative-narrow-focus_Ana-lleva-el-abrigo.wav,./stim/wavs/chilean_match_declarative-narrow-focus_Ana-lleva-el-abrigo.wav,./stim/wavs/cuban_match_declarative-narrow-focus_Ana-lleva-el-abrigo.wav,./stim/wavs/mexican_match_declarative-narrow-focus_Ana-lleva-el-abrigo.wav,./stim/wavs/peruvian_match_declarative-narrow-focus_Ana-lleva-el-abrigo.wav,./stim/wavs/puertorican_match_declarative-narrow-focus_Ana-lleva-el-abrigo.wav,,,,,,,,,,,,,,,,,,,,,,,,,,,,,,,,,,,,,,,,,,,,,,,,,,,,,,,,
,,,,,,,5e9a84af150a8012575e4784,605b45a4d25f287719a41696,605bf23879bb483c4bd7cb8e,Mexico,Midwest,13 or older,no,2021-03-24_21h17.14.226,empathy_intonation_perc,2020.2.10,Win32,60,,,,,,,,,,0,andalusian,0,1,2.257215,0,42,42,2,1,3,./stim/wavs/andalusian_match_declarative-broad-focus_David-leia-el-libro.wav,./stim/wavs/argentine_match_declarative-broad-focus_David-leia-el-libro.wav,./stim/wavs/castilian_match_declarative-broad-focus_David-leia-el-libro.wav,./stim/wavs/chilean_match_declarative-broad-focus_David-leia-el-libro.wav,./stim/wavs/cuban_match_declarative-broad-focus_David-leia-el-libro.wav,./stim/wavs/mexican_match_declarative-broad-focus_David-leia-el-libro.wav,./stim/wavs/peruvian_match_declarative-broad-focus_David-leia-el-libro.wav,./stim/wavs/puertorican_match_declarative-broad-focus_David-leia-el-libro.wav,,,,,,,,,,,,,,,,,,,,,,,,,,,,,,,,,,,,,,,,,,,,,,,,,,,,,,,,
,,,,,,,5e9a84af150a8012575e4784,605b45a4d25f287719a41696,605bf23879bb483c4bd7cb8e,Mexico,Midwest,13 or older,no,2021-03-24_21h17.14.226,empathy_intonation_perc,2020.2.10,Win32,60,,,,,,,,,,0,mexican,0,1,1.692595,0,43,43,3,1,4,./stim/wavs/andalusian_match_declarative-broad-focus_Emilio-ama-la-marcha.wav,./stim/wavs/argentine_match_declarative-broad-focus_Emilio-ama-la-marcha.wav,./stim/wavs/castilian_match_declarative-broad-focus_Emilio-ama-la-marcha.wav,./stim/wavs/chilean_match_declarative-broad-focus_Emilio-ama-la-marcha.wav,./stim/wavs/cuban_match_declarative-broad-focus_Emilio-ama-la-marcha.wav,./stim/wavs/mexican_match_declarative-broad-focus_Emilio-ama-la-marcha.wav,./stim/wavs/peruvian_match_declarative-broad-focus_Emilio-ama-la-marcha.wav,./stim/wavs/puertorican_match_declarative-broad-focus_Emilio-ama-la-marcha.wav,,,,,,,,,,,,,,,,,,,,,,,,,,,,,,,,,,,,,,,,,,,,,,,,,,,,,,,,
,,,,,,,5e9a84af150a8012575e4784,605b45a4d25f287719a41696,605bf23879bb483c4bd7cb8e,Mexico,Midwest,13 or older,no,2021-03-24_21h17.14.226,empathy_intonation_perc,2020.2.10,Win32,60,,,,,,,,,,1,cuban,0,0,1.33508,0,44,44,58,1,59,./stim/wavs/andalusian_mismatch_interrogative-total-yn_El-nino-oye-el-rio.wav,./stim/wavs/argentine_mismatch_interrogative-total-yn_El-nino-oye-el-rio.wav,./stim/wavs/castilian_mismatch_interrogative-total-yn_El-nino-oye-el-rio.wav,./stim/wavs/chilean_mismatch_interrogative-total-yn_El-nino-oye-el-rio.wav,./stim/wavs/cuban_mismatch_interrogative-total-yn_El-nino-oye-el-rio.wav,./stim/wavs/mexican_mismatch_interrogative-total-yn_El-nino-oye-el-rio.wav,./stim/wavs/peruvian_mismatch_interrogative-total-yn_El-nino-oye-el-rio.wav,./stim/wavs/puertorican_mismatch_interrogative-total-yn_El-nino-oye-el-rio.wav,,,,,,,,,,,,,,,,,,,,,,,,,,,,,,,,,,,,,,,,,,,,,,,,,,,,,,,,
,,,,,,,5e9a84af150a8012575e4784,605b45a4d25f287719a41696,605bf23879bb483c4bd7cb8e,Mexico,Midwest,13 or older,no,2021-03-24_21h17.14.226,empathy_intonation_perc,2020.2.10,Win32,60,,,,,,,,,,1,andalusian,1,1,1.87419,0,45,45,25,1,26,./stim/wavs/andalusian_match_interrogative-total-yn_Daniel-iba-a-Bolivia.wav,./stim/wavs/argentine_match_interrogative-total-yn_Daniel-iba-a-Bolivia.wav,./stim/wavs/castilian_match_interrogative-total-yn_Daniel-iba-a-Bolivia.wav,./stim/wavs/chilean_match_interrogative-total-yn_Daniel-iba-a-Bolivia.wav,./stim/wavs/cuban_match_interrogative-total-yn_Daniel-iba-a-Bolivia.wav,./stim/wavs/mexican_match_interrogative-total-yn_Daniel-iba-a-Bolivia.wav,./stim/wavs/peruvian_match_interrogative-total-yn_Daniel-iba-a-Bolivia.wav,./stim/wavs/puertorican_match_interrogative-total-yn_Daniel-iba-a-Bolivia.wav,,,,,,,,,,,,,,,,,,,,,,,,,,,,,,,,,,,,,,,,,,,,,,,,,,,,,,,,
,,,,,,,5e9a84af150a8012575e4784,605b45a4d25f287719a41696,605bf23879bb483c4bd7cb8e,Mexico,Midwest,13 or older,no,2021-03-24_21h17.14.226,empathy_intonation_perc,2020.2.10,Win32,60,,,,,,,,,,1,argentine,1,1,1.301895,0,46,46,19,1,20,./stim/wavs/andalusian_match_interrogative-partial-wh_Cuando-vendia-el-carro.wav,./stim/wavs/argentine_match_interrogative-partial-wh_Cuando-vendia-el-carro.wav,./stim/wavs/castilian_match_interrogative-partial-wh_Cuando-vendia-el-carro.wav,./stim/wavs/chilean_match_interrogative-partial-wh_Cuando-vendia-el-carro.wav,./stim/wavs/cuban_match_interrogative-partial-wh_Cuando-vendia-el-carro.wav,./stim/wavs/mexican_match_interrogative-partial-wh_Cuando-vendia-el-carro.wav,./stim/wavs/peruvian_match_interrogative-partial-wh_Cuando-vendia-el-carro.wav,./stim/wavs/puertorican_match_interrogative-partial-wh_Cuando-vendia-el-carro.wav,,,,,,,,,,,,,,,,,,,,,,,,,,,,,,,,,,,,,,,,,,,,,,,,,,,,,,,,
,,,,,,,5e9a84af150a8012575e4784,605b45a4d25f287719a41696,605bf23879bb483c4bd7cb8e,Mexico,Midwest,13 or older,no,2021-03-24_21h17.14.226,empathy_intonation_perc,2020.2.10,Win32,60,,,,,,,,,,0,puertorican,0,1,1.69966,0,47,47,0,1,1,./stim/wavs/andalusian_match_declarative-broad-focus_Ana-lleva-el-abrigo.wav,./stim/wavs/argentine_match_declarative-broad-focus_Ana-lleva-el-abrigo.wav,./stim/wavs/castilian_match_declarative-broad-focus_Ana-lleva-el-abrigo.wav,./stim/wavs/chilean_match_declarative-broad-focus_Ana-lleva-el-abrigo.wav,./stim/wavs/cuban_match_declarative-broad-focus_Ana-lleva-el-abrigo.wav,./stim/wavs/mexican_match_declarative-broad-focus_Ana-lleva-el-abrigo.wav,./stim/wavs/peruvian_match_declarative-broad-focus_Ana-lleva-el-abrigo.wav,./stim/wavs/puertorican_match_declarative-broad-focus_Ana-lleva-el-abrigo.wav,,,,,,,,,,,,,,,,,,,,,,,,,,,,,,,,,,,,,,,,,,,,,,,,,,,,,,,,
,,,,,,,5e9a84af150a8012575e4784,605b45a4d25f287719a41696,605bf23879bb483c4bd7cb8e,Mexico,Midwest,13 or older,no,2021-03-24_21h17.14.226,empathy_intonation_perc,2020.2.10,Win32,60,,,,,,,,,,0,mexican,0,1,2.219435,0,48,48,43,1,44,./stim/wavs/andalusian_mismatch_declarative-narrow-focus_La-maestra-vive-en-Paris.wav,./stim/wavs/argentine_mismatch_declarative-narrow-focus_La-maestra-vive-en-Paris.wav,./stim/wavs/castilian_mismatch_declarative-narrow-focus_La-maestra-vive-en-Paris.wav,./stim/wavs/chilean_mismatch_declarative-narrow-focus_La-maestra-vive-en-Paris.wav,./stim/wavs/cuban_mismatch_declarative-narrow-focus_La-maestra-vive-en-Paris.wav,./stim/wavs/mexican_mismatch_declarative-narrow-focus_La-maestra-vive-en-Paris.wav,./stim/wavs/peruvian_mismatch_declarative-narrow-focus_La-maestra-vive-en-Paris.wav,./stim/wavs/puertorican_mismatch_declarative-narrow-focus_La-maestra-vive-en-Paris.wav,,,,,,,,,,,,,,,,,,,,,,,,,,,,,,,,,,,,,,,,,,,,,,,,,,,,,,,,
,,,,,,,5e9a84af150a8012575e4784,605b45a4d25f287719a41696,605bf23879bb483c4bd7cb8e,Mexico,Midwest,13 or older,no,2021-03-24_21h17.14.226,empathy_intonation_perc,2020.2.10,Win32,60,,,,,,,,,,1,cuban,1,1,1.384775,0,49,49,20,1,21,./stim/wavs/andalusian_match_interrogative-partial-wh_Por-que-abre-el-regalo.wav,./stim/wavs/argentine_match_interrogative-partial-wh_Por-que-abre-el-regalo.wav,./stim/wavs/castilian_match_interrogative-partial-wh_Por-que-abre-el-regalo.wav,./stim/wavs/chilean_match_interrogative-partial-wh_Por-que-abre-el-regalo.wav,./stim/wavs/cuban_match_interrogative-partial-wh_Por-que-abre-el-regalo.wav,./stim/wavs/mexican_match_interrogative-partial-wh_Por-que-abre-el-regalo.wav,./stim/wavs/peruvian_match_interrogative-partial-wh_Por-que-abre-el-regalo.wav,./stim/wavs/puertorican_match_interrogative-partial-wh_Por-que-abre-el-regalo.wav,,,,,,,,,,,,,,,,,,,,,,,,,,,,,,,,,,,,,,,,,,,,,,,,,,,,,,,,
,,,,,,,5e9a84af150a8012575e4784,605b45a4d25f287719a41696,605bf23879bb483c4bd7cb8e,Mexico,Midwest,13 or older,no,2021-03-24_21h17.14.226,empathy_intonation_perc,2020.2.10,Win32,60,,,,,,,,,,1,mexican,1,1,1.55567,0,50,50,61,1,62,./stim/wavs/andalusian_mismatch_interrogative-total-yn_Mi-madre-come-la-fruta.wav,./stim/wavs/argentine_mismatch_interrogative-total-yn_Mi-madre-come-la-fruta.wav,./stim/wavs/castilian_mismatch_interrogative-total-yn_Mi-madre-come-la-fruta.wav,./stim/wavs/chilean_mismatch_interrogative-total-yn_Mi-madre-come-la-fruta.wav,./stim/wavs/cuban_mismatch_interrogative-total-yn_Mi-madre-come-la-fruta.wav,./stim/wavs/mexican_mismatch_interrogative-total-yn_Mi-madre-come-la-fruta.wav,./stim/wavs/peruvian_mismatch_interrogative-total-yn_Mi-madre-come-la-fruta.wav,./stim/wavs/puertorican_mismatch_interrogative-total-yn_Mi-madre-come-la-fruta.wav,,,,,,,,,,,,,,,,,,,,,,,,,,,,,,,,,,,,,,,,,,,,,,,,,,,,,,,,
,,,,,,,5e9a84af150a8012575e4784,605b45a4d25f287719a41696,605bf23879bb483c4bd7cb8e,Mexico,Midwest,13 or older,no,2021-03-24_21h17.14.226,empathy_intonation_perc,2020.2.10,Win32,60,,,,,,,,,,0,mexican,0,1,1.307835,0,51,51,7,1,8,./stim/wavs/andalusian_match_declarative-broad-focus_Marta-abre-el-regalo.wav,./stim/wavs/argentine_match_declarative-broad-focus_Marta-abre-el-regalo.wav,./stim/wavs/castilian_match_declarative-broad-focus_Marta-abre-el-regalo.wav,./stim/wavs/chilean_match_declarative-broad-focus_Marta-abre-el-regalo.wav,./stim/wavs/cuban_match_declarative-broad-focus_Marta-abre-el-regalo.wav,./stim/wavs/mexican_match_declarative-broad-focus_Marta-abre-el-regalo.wav,./stim/wavs/peruvian_match_declarative-broad-focus_Marta-abre-el-regalo.wav,./stim/wavs/puertorican_match_declarative-broad-focus_Marta-abre-el-regalo.wav,,,,,,,,,,,,,,,,,,,,,,,,,,,,,,,,,,,,,,,,,,,,,,,,,,,,,,,,
,,,,,,,5e9a84af150a8012575e4784,605b45a4d25f287719a41696,605bf23879bb483c4bd7cb8e,Mexico,Midwest,13 or older,no,2021-03-24_21h17.14.226,empathy_intonation_perc,2020.2.10,Win32,60,,,,,,,,,,0,andalusian,0,1,1.434775,0,52,52,47,1,48,./stim/wavs/andalusian_mismatch_declarative-narrow-focus_Mi-tia-odia-la-lluvia.wav,./stim/wavs/argentine_mismatch_declarative-narrow-focus_Mi-tia-odia-la-lluvia.wav,./stim/wavs/castilian_mismatch_declarative-narrow-focus_Mi-tia-odia-la-lluvia.wav,./stim/wavs/chilean_mismatch_declarative-narrow-focus_Mi-tia-odia-la-lluvia.wav,./stim/wavs/cuban_mismatch_declarative-narrow-focus_Mi-tia-odia-la-lluvia.wav,./stim/wavs/mexican_mismatch_declarative-narrow-focus_Mi-tia-odia-la-lluvia.wav,./stim/wavs/peruvian_mismatch_declarative-narrow-focus_Mi-tia-odia-la-lluvia.wav,./stim/wavs/puertorican_mismatch_declarative-narrow-focus_Mi-tia-odia-la-lluvia.wav,,,,,,,,,,,,,,,,,,,,,,,,,,,,,,,,,,,,,,,,,,,,,,,,,,,,,,,,
,,,,,,,5e9a84af150a8012575e4784,605b45a4d25f287719a41696,605bf23879bb483c4bd7cb8e,Mexico,Midwest,13 or older,no,2021-03-24_21h17.14.226,empathy_intonation_perc,2020.2.10,Win32,60,,,,,,,,,,1,chilean,1,1,1.77629,0,53,53,27,1,28,./stim/wavs/andalusian_match_interrogative-total-yn_Emilio-ama-la-marcha.wav,./stim/wavs/argentine_match_interrogative-total-yn_Emilio-ama-la-marcha.wav,./stim/wavs/castilian_match_interrogative-total-yn_Emilio-ama-la-marcha.wav,./stim/wavs/chilean_match_interrogative-total-yn_Emilio-ama-la-marcha.wav,./stim/wavs/cuban_match_interrogative-total-yn_Emilio-ama-la-marcha.wav,./stim/wavs/mexican_match_interrogative-total-yn_Emilio-ama-la-marcha.wav,./stim/wavs/peruvian_match_interrogative-total-yn_Emilio-ama-la-marcha.wav,./stim/wavs/puertorican_match_interrogative-total-yn_Emilio-ama-la-marcha.wav,,,,,,,,,,,,,,,,,,,,,,,,,,,,,,,,,,,,,,,,,,,,,,,,,,,,,,,,
,,,,,,,5e9a84af150a8012575e4784,605b45a4d25f287719a41696,605bf23879bb483c4bd7cb8e,Mexico,Midwest,13 or older,no,2021-03-24_21h17.14.226,empathy_intonation_perc,2020.2.10,Win32,60,,,,,,,,,,1,chilean,1,1,1.538965,0,54,54,51,1,52,./stim/wavs/andalusian_mismatch_interrogative-partial-wh_Por-que-desayuna-muy-bien.wav,./stim/wavs/argentine_mismatch_interrogative-partial-wh_Por-que-desayuna-muy-bien.wav,./stim/wavs/castilian_mismatch_interrogative-partial-wh_Por-que-desayuna-muy-bien.wav,./stim/wavs/chilean_mismatch_interrogative-partial-wh_Por-que-desayuna-muy-bien.wav,./stim/wavs/cuban_mismatch_interrogative-partial-wh_Por-que-desayuna-muy-bien.wav,./stim/wavs/mexican_mismatch_interrogative-partial-wh_Por-que-desayuna-muy-bien.wav,./stim/wavs/peruvian_mismatch_interrogative-partial-wh_Por-que-desayuna-muy-bien.wav,./stim/wavs/puertorican_mismatch_interrogative-partial-wh_Por-que-desayuna-muy-bien.wav,,,,,,,,,,,,,,,,,,,,,,,,,,,,,,,,,,,,,,,,,,,,,,,,,,,,,,,,
,,,,,,,5e9a84af150a8012575e4784,605b45a4d25f287719a41696,605bf23879bb483c4bd7cb8e,Mexico,Midwest,13 or older,no,2021-03-24_21h17.14.226,empathy_intonation_perc,2020.2.10,Win32,60,,,,,,,,,,1,puertorican,0,0,1.30573,0,55,55,29,1,30,./stim/wavs/andalusian_match_interrogative-total-yn_Maria-bebe-el-vino.wav,./stim/wavs/argentine_match_interrogative-total-yn_Maria-bebe-el-vino.wav,./stim/wavs/castilian_match_interrogative-total-yn_Maria-bebe-el-vino.wav,./stim/wavs/chilean_match_interrogative-total-yn_Maria-bebe-el-vino.wav,./stim/wavs/cuban_match_interrogative-total-yn_Maria-bebe-el-vino.wav,./stim/wavs/mexican_match_interrogative-total-yn_Maria-bebe-el-vino.wav,./stim/wavs/peruvian_match_interrogative-total-yn_Maria-bebe-el-vino.wav,./stim/wavs/puertorican_match_interrogative-total-yn_Maria-bebe-el-vino.wav,,,,,,,,,,,,,,,,,,,,,,,,,,,,,,,,,,,,,,,,,,,,,,,,,,,,,,,,
,,,,,,,5e9a84af150a8012575e4784,605b45a4d25f287719a41696,605bf23879bb483c4bd7cb8e,Mexico,Midwest,13 or older,no,2021-03-24_21h17.14.226,empathy_intonation_perc,2020.2.10,Win32,60,,,,,,,,,,0,cuban,0,1,1.80095,0,56,56,12,1,13,./stim/wavs/andalusian_match_declarative-narrow-focus_Manuela-vende-el-carro.wav,./stim/wavs/argentine_match_declarative-narrow-focus_Manuela-vende-el-carro.wav,./stim/wavs/castilian_match_declarative-narrow-focus_Manuela-vende-el-carro.wav,./stim/wavs/chilean_match_declarative-narrow-focus_Manuela-vende-el-carro.wav,./stim/wavs/cuban_match_declarative-narrow-focus_Manuela-vende-el-carro.wav,./stim/wavs/mexican_match_declarative-narrow-focus_Manuela-vende-el-carro.wav,./stim/wavs/peruvian_match_declarative-narrow-focus_Manuela-vende-el-carro.wav,./stim/wavs/puertorican_match_declarative-narrow-focus_Manuela-vende-el-carro.wav,,,,,,,,,,,,,,,,,,,,,,,,,,,,,,,,,,,,,,,,,,,,,,,,,,,,,,,,
,,,,,,,5e9a84af150a8012575e4784,605b45a4d25f287719a41696,605bf23879bb483c4bd7cb8e,Mexico,Midwest,13 or older,no,2021-03-24_21h17.14.226,empathy_intonation_perc,2020.2.10,Win32,60,,,,,,,,,,0,chilean,0,1,1.49224,0,57,57,45,1,46,./stim/wavs/andalusian_mismatch_declarative-narrow-focus_Mi-madre-come-la-fruta.wav,./stim/wavs/argentine_mismatch_declarative-narrow-focus_Mi-madre-come-la-fruta.wav,./stim/wavs/castilian_mismatch_declarative-narrow-focus_Mi-madre-come-la-fruta.wav,./stim/wavs/chilean_mismatch_declarative-narrow-focus_Mi-madre-come-la-fruta.wav,./stim/wavs/cuban_mismatch_declarative-narrow-focus_Mi-madre-come-la-fruta.wav,./stim/wavs/mexican_mismatch_declarative-narrow-focus_Mi-madre-come-la-fruta.wav,./stim/wavs/peruvian_mismatch_declarative-narrow-focus_Mi-madre-come-la-fruta.wav,./stim/wavs/puertorican_mismatch_declarative-narrow-focus_Mi-madre-come-la-fruta.wav,,,,,,,,,,,,,,,,,,,,,,,,,,,,,,,,,,,,,,,,,,,,,,,,,,,,,,,,
,,,,,,,5e9a84af150a8012575e4784,605b45a4d25f287719a41696,605bf23879bb483c4bd7cb8e,Mexico,Midwest,13 or older,no,2021-03-24_21h17.14.226,empathy_intonation_perc,2020.2.10,Win32,60,,,,,,,,,,1,andalusian,1,1,1.26027,0,58,58,18,1,19,./stim/wavs/andalusian_match_interrogative-partial-wh_Cuando-lleva-el-abrigo.wav,./stim/wavs/argentine_match_interrogative-partial-wh_Cuando-lleva-el-abrigo.wav,./stim/wavs/castilian_match_interrogative-partial-wh_Cuando-lleva-el-abrigo.wav,./stim/wavs/chilean_match_interrogative-partial-wh_Cuando-lleva-el-abrigo.wav,./stim/wavs/cuban_match_interrogative-partial-wh_Cuando-lleva-el-abrigo.wav,./stim/wavs/mexican_match_interrogative-partial-wh_Cuando-lleva-el-abrigo.wav,./stim/wavs/peruvian_match_interrogative-partial-wh_Cuando-lleva-el-abrigo.wav,./stim/wavs/puertorican_match_interrogative-partial-wh_Cuando-lleva-el-abrigo.wav,,,,,,,,,,,,,,,,,,,,,,,,,,,,,,,,,,,,,,,,,,,,,,,,,,,,,,,,
,,,,,,,5e9a84af150a8012575e4784,605b45a4d25f287719a41696,605bf23879bb483c4bd7cb8e,Mexico,Midwest,13 or older,no,2021-03-24_21h17.14.226,empathy_intonation_perc,2020.2.10,Win32,60,,,,,,,,,,0,castilian,0,1,1.801725,0,59,59,33,1,34,./stim/wavs/andalusian_mismatch_declarative-broad-focus_El-hombre-mira-la-luna.wav,./stim/wavs/argentine_mismatch_declarative-broad-focus_El-hombre-mira-la-luna.wav,./stim/wavs/castilian_mismatch_declarative-broad-focus_El-hombre-mira-la-luna.wav,./stim/wavs/chilean_mismatch_declarative-broad-focus_El-hombre-mira-la-luna.wav,./stim/wavs/cuban_mismatch_declarative-broad-focus_El-hombre-mira-la-luna.wav,./stim/wavs/mexican_mismatch_declarative-broad-focus_El-hombre-mira-la-luna.wav,./stim/wavs/peruvian_mismatch_declarative-broad-focus_El-hombre-mira-la-luna.wav,./stim/wavs/puertorican_mismatch_declarative-broad-focus_El-hombre-mira-la-luna.wav,,,,,,,,,,,,,,,,,,,,,,,,,,,,,,,,,,,,,,,,,,,,,,,,,,,,,,,,
,,,,,,,5e9a84af150a8012575e4784,605b45a4d25f287719a41696,605bf23879bb483c4bd7cb8e,Mexico,Midwest,13 or older,no,2021-03-24_21h17.14.226,empathy_intonation_perc,2020.2.10,Win32,60,,,,,,,,,,0,cuban,0,1,1.60595,0,60,60,14,1,15,./stim/wavs/andalusian_match_declarative-narrow-focus_Mariano-habla-del-tiempo.wav,./stim/wavs/argentine_match_declarative-narrow-focus_Mariano-habla-del-tiempo.wav,./stim/wavs/castilian_match_declarative-narrow-focus_Mariano-habla-del-tiempo.wav,./stim/wavs/chilean_match_declarative-narrow-focus_Mariano-habla-del-tiempo.wav,./stim/wavs/cuban_match_declarative-narrow-focus_Mariano-habla-del-tiempo.wav,./stim/wavs/mexican_match_declarative-narrow-focus_Mariano-habla-del-tiempo.wav,./stim/wavs/peruvian_match_declarative-narrow-focus_Mariano-habla-del-tiempo.wav,./stim/wavs/puertorican_match_declarative-narrow-focus_Mariano-habla-del-tiempo.wav,,,,,,,,,,,,,,,,,,,,,,,,,,,,,,,,,,,,,,,,,,,,,,,,,,,,,,,,
,,,,,,,5e9a84af150a8012575e4784,605b45a4d25f287719a41696,605bf23879bb483c4bd7cb8e,Mexico,Midwest,13 or older,no,2021-03-24_21h17.14.226,empathy_intonation_perc,2020.2.10,Win32,60,,,,,,,,,,0,argentine,0,1,1.525325,0,61,61,39,1,40,./stim/wavs/andalusian_mismatch_declarative-broad-focus_Mi-tia-odia-la-lluvia.wav,./stim/wavs/argentine_mismatch_declarative-broad-focus_Mi-tia-odia-la-lluvia.wav,./stim/wavs/castilian_mismatch_declarative-broad-focus_Mi-tia-odia-la-lluvia.wav,./stim/wavs/chilean_mismatch_declarative-broad-focus_Mi-tia-odia-la-lluvia.wav,./stim/wavs/cuban_mismatch_declarative-broad-focus_Mi-tia-odia-la-lluvia.wav,./stim/wavs/mexican_mismatch_declarative-broad-focus_Mi-tia-odia-la-lluvia.wav,./stim/wavs/peruvian_mismatch_declarative-broad-focus_Mi-tia-odia-la-lluvia.wav,./stim/wavs/puertorican_mismatch_declarative-broad-focus_Mi-tia-odia-la-lluvia.wav,,,,,,,,,,,,,,,,,,,,,,,,,,,,,,,,,,,,,,,,,,,,,,,,,,,,,,,,
,,,,,,,5e9a84af150a8012575e4784,605b45a4d25f287719a41696,605bf23879bb483c4bd7cb8e,Mexico,Midwest,13 or older,no,2021-03-24_21h17.14.226,empathy_intonation_perc,2020.2.10,Win32,60,,,,,,,,,,0,chilean,0,1,1.595565,0,62,62,1,1,2,./stim/wavs/andalusian_match_declarative-broad-focus_Daniel-iba-a-Bolivia.wav,./stim/wavs/argentine_match_declarative-broad-focus_Daniel-iba-a-Bolivia.wav,./stim/wavs/castilian_match_declarative-broad-focus_Daniel-iba-a-Bolivia.wav,./stim/wavs/chilean_match_declarative-broad-focus_Daniel-iba-a-Bolivia.wav,./stim/wavs/cuban_match_declarative-broad-focus_Daniel-iba-a-Bolivia.wav,./stim/wavs/mexican_match_declarative-broad-focus_Daniel-iba-a-Bolivia.wav,./stim/wavs/peruvian_match_declarative-broad-focus_Daniel-iba-a-Bolivia.wav,./stim/wavs/puertorican_match_declarative-broad-focus_Daniel-iba-a-Bolivia.wav,,,,,,,,,,,,,,,,,,,,,,,,,,,,,,,,,,,,,,,,,,,,,,,,,,,,,,,,
,,,,,,,5e9a84af150a8012575e4784,605b45a4d25f287719a41696,605bf23879bb483c4bd7cb8e,Mexico,Midwest,13 or older,no,2021-03-24_21h17.14.226,empathy_intonation_perc,2020.2.10,Win32,60,,,,,,,,,,0,cuban,0,1,1.539085,0,63,63,5,1,6,./stim/wavs/andalusian_match_declarative-broad-focus_Maria-bebe-el-vino.wav,./stim/wavs/argentine_match_declarative-broad-focus_Maria-bebe-el-vino.wav,./stim/wavs/castilian_match_declarative-broad-focus_Maria-bebe-el-vino.wav,./stim/wavs/chilean_match_declarative-broad-focus_Maria-bebe-el-vino.wav,./stim/wavs/cuban_match_declarative-broad-focus_Maria-bebe-el-vino.wav,./stim/wavs/mexican_match_declarative-broad-focus_Maria-bebe-el-vino.wav,./stim/wavs/peruvian_match_declarative-broad-focus_Maria-bebe-el-vino.wav,./stim/wavs/puertorican_match_declarative-broad-focus_Maria-bebe-el-vino.wav,,,,,,,,,,,,,,,,,,,,,,,,,,,,,,,,,,,,,,,,,,,,,,,,,,,,,,,,
,,,,,,,5e9a84af150a8012575e4784,605b45a4d25f287719a41696,605bf23879bb483c4bd7cb8e,Mexico,Midwest,13 or older,no,2021-03-24_21h17.14.226,empathy_intonation_perc,2020.2.10,Win32,60,,,,,,,,,,,,,,,,,,,,,,,,,,,,,h,1,4.65069,0,0,0,0,1,,,,,,,,,,,,,,,,,,,,,,,,,,,,,,,,,,,,,,,,,,,,,,,,
,,,,,"Great! Now we will move on. The next task consists of about 60 trials, in each of which you will see a string of letters. 
  
  Your task is to decide whether this is a real Spanish word or not.",(press the spacebar to continue),5e9a84af150a8012575e4784,605b45a4d25f287719a41696,605bf23879bb483c4bd7cb8e,Mexico,Midwest,13 or older,no,2021-03-24_21h17.14.226,empathy_intonation_perc,2020.2.10,Win32,60,,,,,,,,,,,,,,,,,,,,,,,,,,,,,,,,,,,,,0,0,0,0,1,,,,,,,,,,,,,,,,,,,,,,,,,,,,,,,,,,,,,,,,,,,
,,,,,"If you think it is an existing Spanish word, you type '1' (for 'REAL'), and if you think it is not an existing Spanish word, you type '0' (for 'FAKE').",(press the spacebar to continue),5e9a84af150a8012575e4784,605b45a4d25f287719a41696,605bf23879bb483c4bd7cb8e,Mexico,Midwest,13 or older,no,2021-03-24_21h17.14.226,empathy_intonation_perc,2020.2.10,Win32,60,,,,,,,,,,,,,,,,,,,,,,,,,,,,,,,,,,,,,0,1,1,1,1,,,,,,,,,,,,,,,,,,,,,,,,,,,,,,,,,,,,,,,,,,,
,,,,,"If you are sure that the word exists, even though you dont know its exact meaning, you may still respond '1' (REAL). 
  
  But if you are not sure if it is an existing word, you should respond '0' (FAKE).
  
  Let's do a practice round...",(press the spacebar to continue),5e9a84af150a8012575e4784,605b45a4d25f287719a41696,605bf23879bb483c4bd7cb8e,Mexico,Midwest,13 or older,no,2021-03-24_21h17.14.226,empathy_intonation_perc,2020.2.10,Win32,60,,,,,,,,,,,,,,,,,,,,,,,,,,,,,,,,,,,,,0,2,2,2,1,,,,,,,,,,,,,,,,,,,,,,,,,,,,,,,,,,,,,,,,,,,
,,,,,,,5e9a84af150a8012575e4784,605b45a4d25f287719a41696,605bf23879bb483c4bd7cb8e,Mexico,Midwest,13 or older,no,2021-03-24_21h17.14.226,empathy_intonation_perc,2020.2.10,Win32,60,,,,,,,,,,0,,,,,,,,,,,,,,,,,,,,,,,,,,,,,,,,0,1,3.08033,0,0,0,0,1,0,depiste,REAL,FAKE,,,,,,,,,,,,,,,,,,,,,,,,,,,,,,,
,,,,,,,5e9a84af150a8012575e4784,605b45a4d25f287719a41696,605bf23879bb483c4bd7cb8e,Mexico,Midwest,13 or older,no,2021-03-24_21h17.14.226,empathy_intonation_perc,2020.2.10,Win32,60,,,,,,,,,,1,,,,,,,,,,,,,,,,,,,,,,,,,,,,,,,,1,1,0.856385,0,1,1,1,1,0,s,REAL,FAKE,,,,,,,,,,,,,,,,,,,,,,,,,,,,,,,
,,,,,,,5e9a84af150a8012575e4784,605b45a4d25f287719a41696,605bf23879bb483c4bd7cb8e,Mexico,Midwest,13 or older,no,2021-03-24_21h17.14.226,empathy_intonation_perc,2020.2.10,Win32,60,,,,,,,,,,0,,,,,,,,,,,,,,,,,,,,,,,,,,,,,,,,0,1,2.204095,0,2,2,2,1,0,con,REAL,FAKE,,,,,,,,,,,,,,,,,,,,,,,,,,,,,,,
,,,,,,,5e9a84af150a8012575e4784,605b45a4d25f287719a41696,605bf23879bb483c4bd7cb8e,Mexico,Midwest,13 or older,no,2021-03-24_21h17.14.226,empathy_intonation_perc,2020.2.10,Win32,60,,,,,,,,,,0,,,,,,,,,,,,,,,,,,,,,,,,,,,,,,,,0,1,2.10569,0,3,3,3,1,0,calpar,REAL,FAKE,,,,,,,,,,,,,,,,,,,,,,,,,,,,,,,
,,,,,,,5e9a84af150a8012575e4784,605b45a4d25f287719a41696,605bf23879bb483c4bd7cb8e,Mexico,Midwest,13 or older,no,2021-03-24_21h17.14.226,empathy_intonation_perc,2020.2.10,Win32,60,,,,,,,,,,0,,,,,,,,,,,,,,,,,,,,,,,,,,,,,,,,0,1,1.7164,0,4,4,4,1,0,joten,REAL,FAKE,,,,,,,,,,,,,,,,,,,,,,,,,,,,,,,
,,,,,,,5e9a84af150a8012575e4784,605b45a4d25f287719a41696,605bf23879bb483c4bd7cb8e,Mexico,Midwest,13 or older,no,2021-03-24_21h17.14.226,empathy_intonation_perc,2020.2.10,Win32,60,,,,,,,,,,1,,,,,,,,,,,,,,,,,,,,,,,,,,,,,,,,1,1,1.232505,0,5,5,5,1,0,sacapuntas,REAL,FAKE,,,,,,,,,,,,,,,,,,,,,,,,,,,,,,,
,,,,,,,5e9a84af150a8012575e4784,605b45a4d25f287719a41696,605bf23879bb483c4bd7cb8e,Mexico,Midwest,13 or older,no,2021-03-24_21h17.14.226,empathy_intonation_perc,2020.2.10,Win32,60,,,,,,,,,,0,,,,,,,,,,,,,,,,,,,,,,,,,,,,,,,,1,0,1.22251,0,6,6,6,1,0,priba,REAL,FAKE,,,,,,,,,,,,,,,,,,,,,,,,,,,,,,,
,,,,,,,5e9a84af150a8012575e4784,605b45a4d25f287719a41696,605bf23879bb483c4bd7cb8e,Mexico,Midwest,13 or older,no,2021-03-24_21h17.14.226,empathy_intonation_perc,2020.2.10,Win32,60,,,,,,,,,,0,,,,,,,,,,,,,,,,,,,,,,,,,,,,,,,,1,0,1.94937,0,7,7,7,1,0,pelasula,REAL,FAKE,,,,,,,,,,,,,,,,,,,,,,,,,,,,,,,
,,,,,,,5e9a84af150a8012575e4784,605b45a4d25f287719a41696,605bf23879bb483c4bd7cb8e,Mexico,Midwest,13 or older,no,2021-03-24_21h17.14.226,empathy_intonation_perc,2020.2.10,Win32,60,,,,,,,,,,1,,,,,,,,,,,,,,,,,,,,,,,,,,,,,,,,1,1,0.89156,0,8,8,8,1,0,bien,REAL,FAKE,,,,,,,,,,,,,,,,,,,,,,,,,,,,,,,
,,,,,,,5e9a84af150a8012575e4784,605b45a4d25f287719a41696,605bf23879bb483c4bd7cb8e,Mexico,Midwest,13 or older,no,2021-03-24_21h17.14.226,empathy_intonation_perc,2020.2.10,Win32,60,,,,,,,,,,1,,,,,,,,,,,,,,,,,,,,,,,,,,,,,,,,1,1,0.650125,0,9,9,9,1,0,casa,REAL,FAKE,,,,,,,,,,,,,,,,,,,,,,,,,,,,,,,
,,,,,,,5e9a84af150a8012575e4784,605b45a4d25f287719a41696,605bf23879bb483c4bd7cb8e,Mexico,Midwest,13 or older,no,2021-03-24_21h17.14.226,empathy_intonation_perc,2020.2.10,Win32,60,,,,,,,,,,0,,,,,,,,,,,,,,,,,,,,,,,,,,,,,,,,0,1,0.91527,0,10,10,10,1,0,lejo,REAL,FAKE,,,,,,,,,,,,,,,,,,,,,,,,,,,,,,,
,,,,,,,5e9a84af150a8012575e4784,605b45a4d25f287719a41696,605bf23879bb483c4bd7cb8e,Mexico,Midwest,13 or older,no,2021-03-24_21h17.14.226,empathy_intonation_perc,2020.2.10,Win32,60,,,,,,,,,,0,,,,,,,,,,,,,,,,,,,,,,,,,,,,,,,,0,1,2.93131,0,11,11,11,1,0,pretantas,REAL,FAKE,,,,,,,,,,,,,,,,,,,,,,,,,,,,,,,
,,,,,,,5e9a84af150a8012575e4784,605b45a4d25f287719a41696,605bf23879bb483c4bd7cb8e,Mexico,Midwest,13 or older,no,2021-03-24_21h17.14.226,empathy_intonation_perc,2020.2.10,Win32,60,,,,,,,,,,1,,,,,,,,,,,,,,,,,,,,,,,,,,,,,,,,,,,,,,,,24,ltigo,,,0,0,1.0249,0,0,0,23,1,REAL,FAKE,,,,,,,,,,,,,,,,,,,,,
,,,,,,,5e9a84af150a8012575e4784,605b45a4d25f287719a41696,605bf23879bb483c4bd7cb8e,Mexico,Midwest,13 or older,no,2021-03-24_21h17.14.226,empathy_intonation_perc,2020.2.10,Win32,60,,,,,,,,,,1,,,,,,,,,,,,,,,,,,,,,,,,,,,,,,,,,,,,,,,,5,zapato,,,1,1,0.583725,0,1,1,4,1,REAL,FAKE,,,,,,,,,,,,,,,,,,,,,
,,,,,,,5e9a84af150a8012575e4784,605b45a4d25f287719a41696,605bf23879bb483c4bd7cb8e,Mexico,Midwest,13 or older,no,2021-03-24_21h17.14.226,empathy_intonation_perc,2020.2.10,Win32,60,,,,,,,,,,0,,,,,,,,,,,,,,,,,,,,,,,,,,,,,,,,,,,,,,,,33,pauca,,,0,1,0.67501,0,2,2,32,1,REAL,FAKE,,,,,,,,,,,,,,,,,,,,,
,,,,,,,5e9a84af150a8012575e4784,605b45a4d25f287719a41696,605bf23879bb483c4bd7cb8e,Mexico,Midwest,13 or older,no,2021-03-24_21h17.14.226,empathy_intonation_perc,2020.2.10,Win32,60,,,,,,,,,,1,,,,,,,,,,,,,,,,,,,,,,,,,,,,,,,,,,,,,,,,62,flaco,,,1,1,0.59046,0,3,3,61,1,REAL,FAKE,,,,,,,,,,,,,,,,,,,,,
,,,,,,,5e9a84af150a8012575e4784,605b45a4d25f287719a41696,605bf23879bb483c4bd7cb8e,Mexico,Midwest,13 or older,no,2021-03-24_21h17.14.226,empathy_intonation_perc,2020.2.10,Win32,60,,,,,,,,,,0,,,,,,,,,,,,,,,,,,,,,,,,,,,,,,,,,,,,,,,,74,cintro,,,0,1,1.09299,0,4,4,73,1,REAL,FAKE,,,,,,,,,,,,,,,,,,,,,
,,,,,,,5e9a84af150a8012575e4784,605b45a4d25f287719a41696,605bf23879bb483c4bd7cb8e,Mexico,Midwest,13 or older,no,2021-03-24_21h17.14.226,empathy_intonation_perc,2020.2.10,Win32,60,,,,,,,,,,0,,,,,,,,,,,,,,,,,,,,,,,,,,,,,,,,,,,,,,,,18,arsa,,,0,1,2.26699,0,5,5,17,1,REAL,FAKE,,,,,,,,,,,,,,,,,,,,,
,,,,,,,5e9a84af150a8012575e4784,605b45a4d25f287719a41696,605bf23879bb483c4bd7cb8e,Mexico,Midwest,13 or older,no,2021-03-24_21h17.14.226,empathy_intonation_perc,2020.2.10,Win32,60,,,,,,,,,,0,,,,,,,,,,,,,,,,,,,,,,,,,,,,,,,,,,,,,,,,30,alardio,,,0,1,0.98364,0,6,6,29,1,REAL,FAKE,,,,,,,,,,,,,,,,,,,,,
,,,,,,,5e9a84af150a8012575e4784,605b45a4d25f287719a41696,605bf23879bb483c4bd7cb8e,Mexico,Midwest,13 or older,no,2021-03-24_21h17.14.226,empathy_intonation_perc,2020.2.10,Win32,60,,,,,,,,,,1,,,,,,,,,,,,,,,,,,,,,,,,,,,,,,,,,,,,,,,,73,hervidor,,,0,0,1.64571,0,7,7,72,1,REAL,FAKE,,,,,,,,,,,,,,,,,,,,,
,,,,,,,5e9a84af150a8012575e4784,605b45a4d25f287719a41696,605bf23879bb483c4bd7cb8e,Mexico,Midwest,13 or older,no,2021-03-24_21h17.14.226,empathy_intonation_perc,2020.2.10,Win32,60,,,,,,,,,,1,,,,,,,,,,,,,,,,,,,,,,,,,,,,,,,,,,,,,,,,52,camisa,,,1,1,0.523,0,8,8,51,1,REAL,FAKE,,,,,,,,,,,,,,,,,,,,,
,,,,,,,5e9a84af150a8012575e4784,605b45a4d25f287719a41696,605bf23879bb483c4bd7cb8e,Mexico,Midwest,13 or older,no,2021-03-24_21h17.14.226,empathy_intonation_perc,2020.2.10,Win32,60,,,,,,,,,,1,,,,,,,,,,,,,,,,,,,,,,,,,,,,,,,,,,,,,,,,12,asesinato,,,0,0,0.87424,0,9,9,11,1,REAL,FAKE,,,,,,,,,,,,,,,,,,,,,
,,,,,,,5e9a84af150a8012575e4784,605b45a4d25f287719a41696,605bf23879bb483c4bd7cb8e,Mexico,Midwest,13 or older,no,2021-03-24_21h17.14.226,empathy_intonation_perc,2020.2.10,Win32,60,,,,,,,,,,1,,,,,,,,,,,,,,,,,,,,,,,,,,,,,,,,,,,,,,,,7,psimo,,,1,1,0.876735,0,10,10,6,1,REAL,FAKE,,,,,,,,,,,,,,,,,,,,,
,,,,,,,5e9a84af150a8012575e4784,605b45a4d25f287719a41696,605bf23879bb483c4bd7cb8e,Mexico,Midwest,13 or older,no,2021-03-24_21h17.14.226,empathy_intonation_perc,2020.2.10,Win32,60,,,,,,,,,,1,,,,,,,,,,,,,,,,,,,,,,,,,,,,,,,,,,,,,,,,25,bisagra,,,0,0,1.76677,0,11,11,24,1,REAL,FAKE,,,,,,,,,,,,,,,,,,,,,
,,,,,,,5e9a84af150a8012575e4784,605b45a4d25f287719a41696,605bf23879bb483c4bd7cb8e,Mexico,Midwest,13 or older,no,2021-03-24_21h17.14.226,empathy_intonation_perc,2020.2.10,Win32,60,,,,,,,,,,1,,,,,,,,,,,,,,,,,,,,,,,,,,,,,,,,,,,,,,,,65,bizcocho,,,1,1,1.23689,0,12,12,64,1,REAL,FAKE,,,,,,,,,,,,,,,,,,,,,
,,,,,,,5e9a84af150a8012575e4784,605b45a4d25f287719a41696,605bf23879bb483c4bd7cb8e,Mexico,Midwest,13 or older,no,2021-03-24_21h17.14.226,empathy_intonation_perc,2020.2.10,Win32,60,,,,,,,,,,0,,,,,,,,,,,,,,,,,,,,,,,,,,,,,,,,,,,,,,,,29,decar,,,0,1,2.633035,0,13,13,28,1,REAL,FAKE,,,,,,,,,,,,,,,,,,,,,
,,,,,,,5e9a84af150a8012575e4784,605b45a4d25f287719a41696,605bf23879bb483c4bd7cb8e,Mexico,Midwest,13 or older,no,2021-03-24_21h17.14.226,empathy_intonation_perc,2020.2.10,Win32,60,,,,,,,,,,1,,,,,,,,,,,,,,,,,,,,,,,,,,,,,,,,,,,,,,,,3,pulmones,,,0,0,0.70512,0,14,14,2,1,REAL,FAKE,,,,,,,,,,,,,,,,,,,,,
,,,,,,,5e9a84af150a8012575e4784,605b45a4d25f287719a41696,605bf23879bb483c4bd7cb8e,Mexico,Midwest,13 or older,no,2021-03-24_21h17.14.226,empathy_intonation_perc,2020.2.10,Win32,60,,,,,,,,,,0,,,,,,,,,,,,,,,,,,,,,,,,,,,,,,,,,,,,,,,,10,antar,,,0,1,1.544625,0,15,15,9,1,REAL,FAKE,,,,,,,,,,,,,,,,,,,,,
,,,,,,,5e9a84af150a8012575e4784,605b45a4d25f287719a41696,605bf23879bb483c4bd7cb8e,Mexico,Midwest,13 or older,no,2021-03-24_21h17.14.226,empathy_intonation_perc,2020.2.10,Win32,60,,,,,,,,,,1,,,,,,,,,,,,,,,,,,,,,,,,,,,,,,,,,,,,,,,,45,jilguero,,,0,0,1.09301,0,16,16,44,1,REAL,FAKE,,,,,,,,,,,,,,,,,,,,,
,,,,,,,5e9a84af150a8012575e4784,605b45a4d25f287719a41696,605bf23879bb483c4bd7cb8e,Mexico,Midwest,13 or older,no,2021-03-24_21h17.14.226,empathy_intonation_perc,2020.2.10,Win32,60,,,,,,,,,,0,,,,,,,,,,,,,,,,,,,,,,,,,,,,,,,,,,,,,,,,21,capillo,,,1,0,0.943,0,17,17,20,1,REAL,FAKE,,,,,,,,,,,,,,,,,,,,,
,,,,,,,5e9a84af150a8012575e4784,605b45a4d25f287719a41696,605bf23879bb483c4bd7cb8e,Mexico,Midwest,13 or older,no,2021-03-24_21h17.14.226,empathy_intonation_perc,2020.2.10,Win32,60,,,,,,,,,,1,,,,,,,,,,,,,,,,,,,,,,,,,,,,,,,,,,,,,,,,6,tergiversar,,,0,0,0.851575,0,18,18,5,1,REAL,FAKE,,,,,,,,,,,,,,,,,,,,,
,,,,,,,5e9a84af150a8012575e4784,605b45a4d25f287719a41696,605bf23879bb483c4bd7cb8e,Mexico,Midwest,13 or older,no,2021-03-24_21h17.14.226,empathy_intonation_perc,2020.2.10,Win32,60,,,,,,,,,,1,,,,,,,,,,,,,,,,,,,,,,,,,,,,,,,,,,,,,,,,22,lacayo,,,0,0,0.689725,0,19,19,21,1,REAL,FAKE,,,,,,,,,,,,,,,,,,,,,
,,,,,,,5e9a84af150a8012575e4784,605b45a4d25f287719a41696,605bf23879bb483c4bd7cb8e,Mexico,Midwest,13 or older,no,2021-03-24_21h17.14.226,empathy_intonation_perc,2020.2.10,Win32,60,,,,,,,,,,0,,,,,,,,,,,,,,,,,,,,,,,,,,,,,,,,,,,,,,,,84,escuto,,,1,0,2.11661,0,20,20,83,1,REAL,FAKE,,,,,,,,,,,,,,,,,,,,,
,,,,,,,5e9a84af150a8012575e4784,605b45a4d25f287719a41696,605bf23879bb483c4bd7cb8e,Mexico,Midwest,13 or older,no,2021-03-24_21h17.14.226,empathy_intonation_perc,2020.2.10,Win32,60,,,,,,,,,,1,,,,,,,,,,,,,,,,,,,,,,,,,,,,,,,,,,,,,,,,34,aviso,,,1,1,0.962715,0,21,21,33,1,REAL,FAKE,,,,,,,,,,,,,,,,,,,,,
,,,,,,,5e9a84af150a8012575e4784,605b45a4d25f287719a41696,605bf23879bb483c4bd7cb8e,Mexico,Midwest,13 or older,no,2021-03-24_21h17.14.226,empathy_intonation_perc,2020.2.10,Win32,60,,,,,,,,,,1,,,,,,,,,,,,,,,,,,,,,,,,,,,,,,,,,,,,,,,,9,hacha,,,1,1,0.78655,0,22,22,8,1,REAL,FAKE,,,,,,,,,,,,,,,,,,,,,
,,,,,,,5e9a84af150a8012575e4784,605b45a4d25f287719a41696,605bf23879bb483c4bd7cb8e,Mexico,Midwest,13 or older,no,2021-03-24_21h17.14.226,empathy_intonation_perc,2020.2.10,Win32,60,,,,,,,,,,1,,,,,,,,,,,,,,,,,,,,,,,,,,,,,,,,,,,,,,,,15,regar,,,0,0,2.299745,0,23,23,14,1,REAL,FAKE,,,,,,,,,,,,,,,,,,,,,
,,,,,,,5e9a84af150a8012575e4784,605b45a4d25f287719a41696,605bf23879bb483c4bd7cb8e,Mexico,Midwest,13 or older,no,2021-03-24_21h17.14.226,empathy_intonation_perc,2020.2.10,Win32,60,,,,,,,,,,1,,,,,,,,,,,,,,,,,,,,,,,,,,,,,,,,,,,,,,,,90,clavel,,,0,0,0.70026,0,24,24,89,1,REAL,FAKE,,,,,,,,,,,,,,,,,,,,,
,,,,,,,5e9a84af150a8012575e4784,605b45a4d25f287719a41696,605bf23879bb483c4bd7cb8e,Mexico,Midwest,13 or older,no,2021-03-24_21h17.14.226,empathy_intonation_perc,2020.2.10,Win32,60,,,,,,,,,,0,,,,,,,,,,,,,,,,,,,,,,,,,,,,,,,,,,,,,,,,8,cadea,,,0,1,1.134205,0,25,25,7,1,REAL,FAKE,,,,,,,,,,,,,,,,,,,,,
,,,,,,,5e9a84af150a8012575e4784,605b45a4d25f287719a41696,605bf23879bb483c4bd7cb8e,Mexico,Midwest,13 or older,no,2021-03-24_21h17.14.226,empathy_intonation_perc,2020.2.10,Win32,60,,,,,,,,,,1,,,,,,,,,,,,,,,,,,,,,,,,,,,,,,,,,,,,,,,,14,yunque,,,0,0,0.828595,0,26,26,13,1,REAL,FAKE,,,,,,,,,,,,,,,,,,,,,
,,,,,,,5e9a84af150a8012575e4784,605b45a4d25f287719a41696,605bf23879bb483c4bd7cb8e,Mexico,Midwest,13 or older,no,2021-03-24_21h17.14.226,empathy_intonation_perc,2020.2.10,Win32,60,,,,,,,,,,0,,,,,,,,,,,,,,,,,,,,,,,,,,,,,,,,,,,,,,,,63,esposante,,,0,1,3.153215,0,27,27,62,1,REAL,FAKE,,,,,,,,,,,,,,,,,,,,,
,,,,,,,5e9a84af150a8012575e4784,605b45a4d25f287719a41696,605bf23879bb483c4bd7cb8e,Mexico,Midwest,13 or older,no,2021-03-24_21h17.14.226,empathy_intonation_perc,2020.2.10,Win32,60,,,,,,,,,,1,,,,,,,,,,,,,,,,,,,,,,,,,,,,,,,,,,,,,,,,61,seda,,,0,0,1.45059,0,28,28,60,1,REAL,FAKE,,,,,,,,,,,,,,,,,,,,,
,,,,,,,5e9a84af150a8012575e4784,605b45a4d25f287719a41696,605bf23879bb483c4bd7cb8e,Mexico,Midwest,13 or older,no,2021-03-24_21h17.14.226,empathy_intonation_perc,2020.2.10,Win32,60,,,,,,,,,,0,,,,,,,,,,,,,,,,,,,,,,,,,,,,,,,,,,,,,,,,23,lampera,,,1,0,0.654405,0,29,29,22,1,REAL,FAKE,,,,,,,,,,,,,,,,,,,,,
,,,,,,,5e9a84af150a8012575e4784,605b45a4d25f287719a41696,605bf23879bb483c4bd7cb8e,Mexico,Midwest,13 or older,no,2021-03-24_21h17.14.226,empathy_intonation_perc,2020.2.10,Win32,60,,,,,,,,,,1,,,,,,,,,,,,,,,,,,,,,,,,,,,,,,,,,,,,,,,,64,orgulloso,,,0,0,1.891855,0,30,30,63,1,REAL,FAKE,,,,,,,,,,,,,,,,,,,,,
,,,,,,,5e9a84af150a8012575e4784,605b45a4d25f287719a41696,605bf23879bb483c4bd7cb8e,Mexico,Midwest,13 or older,no,2021-03-24_21h17.14.226,empathy_intonation_perc,2020.2.10,Win32,60,,,,,,,,,,1,,,,,,,,,,,,,,,,,,,,,,,,,,,,,,,,,,,,,,,,2,pellizcar,,,0,0,1.32279,0,31,31,1,1,REAL,FAKE,,,,,,,,,,,,,,,,,,,,,
,,,,,,,5e9a84af150a8012575e4784,605b45a4d25f287719a41696,605bf23879bb483c4bd7cb8e,Mexico,Midwest,13 or older,no,2021-03-24_21h17.14.226,empathy_intonation_perc,2020.2.10,Win32,60,,,,,,,,,,1,,,,,,,,,,,,,,,,,,,,,,,,,,,,,,,,,,,,,,,,37,granuja,,,1,1,1.01064,0,32,32,36,1,REAL,FAKE,,,,,,,,,,,,,,,,,,,,,
,,,,,,,5e9a84af150a8012575e4784,605b45a4d25f287719a41696,605bf23879bb483c4bd7cb8e,Mexico,Midwest,13 or older,no,2021-03-24_21h17.14.226,empathy_intonation_perc,2020.2.10,Win32,60,,,,,,,,,,1,,,,,,,,,,,,,,,,,,,,,,,,,,,,,,,,,,,,,,,,49,ganar,,,1,1,0.816725,0,33,33,48,1,REAL,FAKE,,,,,,,,,,,,,,,,,,,,,
,,,,,,,5e9a84af150a8012575e4784,605b45a4d25f287719a41696,605bf23879bb483c4bd7cb8e,Mexico,Midwest,13 or older,no,2021-03-24_21h17.14.226,empathy_intonation_perc,2020.2.10,Win32,60,,,,,,,,,,1,,,,,,,,,,,,,,,,,,,,,,,,,,,,,,,,,,,,,,,,46,martillo,,,0,0,1.33373,0,34,34,45,1,REAL,FAKE,,,,,,,,,,,,,,,,,,,,,
,,,,,,,5e9a84af150a8012575e4784,605b45a4d25f287719a41696,605bf23879bb483c4bd7cb8e,Mexico,Midwest,13 or older,no,2021-03-24_21h17.14.226,empathy_intonation_perc,2020.2.10,Win32,60,,,,,,,,,,1,,,,,,,,,,,,,,,,,,,,,,,,,,,,,,,,,,,,,,,,20,vido,,,1,1,1.0916,0,35,35,19,1,REAL,FAKE,,,,,,,,,,,,,,,,,,,,,
,,,,,,,5e9a84af150a8012575e4784,605b45a4d25f287719a41696,605bf23879bb483c4bd7cb8e,Mexico,Midwest,13 or older,no,2021-03-24_21h17.14.226,empathy_intonation_perc,2020.2.10,Win32,60,,,,,,,,,,0,,,,,,,,,,,,,,,,,,,,,,,,,,,,,,,,,,,,,,,,82,empirador,,,0,1,1.8994,0,36,36,81,1,REAL,FAKE,,,,,,,,,,,,,,,,,,,,,
,,,,,,,5e9a84af150a8012575e4784,605b45a4d25f287719a41696,605bf23879bb483c4bd7cb8e,Mexico,Midwest,13 or older,no,2021-03-24_21h17.14.226,empathy_intonation_perc,2020.2.10,Win32,60,,,,,,,,,,1,,,,,,,,,,,,,,,,,,,,,,,,,,,,,,,,,,,,,,,,71,polvoriento,,,0,0,0.63442,0,37,37,70,1,REAL,FAKE,,,,,,,,,,,,,,,,,,,,,
,,,,,,,5e9a84af150a8012575e4784,605b45a4d25f287719a41696,605bf23879bb483c4bd7cb8e,Mexico,Midwest,13 or older,no,2021-03-24_21h17.14.226,empathy_intonation_perc,2020.2.10,Win32,60,,,,,,,,,,1,,,,,,,,,,,,,,,,,,,,,,,,,,,,,,,,,,,,,,,,85,lad,,,0,0,0.733925,0,38,38,84,1,REAL,FAKE,,,,,,,,,,,,,,,,,,,,,
,,,,,,,5e9a84af150a8012575e4784,605b45a4d25f287719a41696,605bf23879bb483c4bd7cb8e,Mexico,Midwest,13 or older,no,2021-03-24_21h17.14.226,empathy_intonation_perc,2020.2.10,Win32,60,,,,,,,,,,0,,,,,,,,,,,,,,,,,,,,,,,,,,,,,,,,,,,,,,,,47,cartinar,,,0,1,1.392835,0,39,39,46,1,REAL,FAKE,,,,,,,,,,,,,,,,,,,,,
,,,,,,,5e9a84af150a8012575e4784,605b45a4d25f287719a41696,605bf23879bb483c4bd7cb8e,Mexico,Midwest,13 or older,no,2021-03-24_21h17.14.226,empathy_intonation_perc,2020.2.10,Win32,60,,,,,,,,,,1,,,,,,,,,,,,,,,,,,,,,,,,,,,,,,,,,,,,,,,,89,prisa,,,0,0,1.67838,0,40,40,88,1,REAL,FAKE,,,,,,,,,,,,,,,,,,,,,
,,,,,,,5e9a84af150a8012575e4784,605b45a4d25f287719a41696,605bf23879bb483c4bd7cb8e,Mexico,Midwest,13 or older,no,2021-03-24_21h17.14.226,empathy_intonation_perc,2020.2.10,Win32,60,,,,,,,,,,1,,,,,,,,,,,,,,,,,,,,,,,,,,,,,,,,,,,,,,,,44,cuchara,,,1,1,1.1682,0,41,41,43,1,REAL,FAKE,,,,,,,,,,,,,,,,,,,,,
,,,,,,,5e9a84af150a8012575e4784,605b45a4d25f287719a41696,605bf23879bb483c4bd7cb8e,Mexico,Midwest,13 or older,no,2021-03-24_21h17.14.226,empathy_intonation_perc,2020.2.10,Win32,60,,,,,,,,,,0,,,,,,,,,,,,,,,,,,,,,,,,,,,,,,,,,,,,,,,,79,tropaje,,,0,1,1.051765,0,42,42,78,1,REAL,FAKE,,,,,,,,,,,,,,,,,,,,,
,,,,,,,5e9a84af150a8012575e4784,605b45a4d25f287719a41696,605bf23879bb483c4bd7cb8e,Mexico,Midwest,13 or older,no,2021-03-24_21h17.14.226,empathy_intonation_perc,2020.2.10,Win32,60,,,,,,,,,,1,,,,,,,,,,,,,,,,,,,,,,,,,,,,,,,,,,,,,,,,81,pozo,,,0,0,0.82082,0,43,43,80,1,REAL,FAKE,,,,,,,,,,,,,,,,,,,,,
,,,,,,,5e9a84af150a8012575e4784,605b45a4d25f287719a41696,605bf23879bb483c4bd7cb8e,Mexico,Midwest,13 or older,no,2021-03-24_21h17.14.226,empathy_intonation_perc,2020.2.10,Win32,60,,,,,,,,,,1,,,,,,,,,,,,,,,,,,,,,,,,,,,,,,,,,,,,,,,,88,acantilado,,,0,0,1.783325,0,44,44,87,1,REAL,FAKE,,,,,,,,,,,,,,,,,,,,,
,,,,,,,5e9a84af150a8012575e4784,605b45a4d25f287719a41696,605bf23879bb483c4bd7cb8e,Mexico,Midwest,13 or older,no,2021-03-24_21h17.14.226,empathy_intonation_perc,2020.2.10,Win32,60,,,,,,,,,,1,,,,,,,,,,,,,,,,,,,,,,,,,,,,,,,,,,,,,,,,80,hormiga,,,0,0,0.552865,0,45,45,79,1,REAL,FAKE,,,,,,,,,,,,,,,,,,,,,
,,,,,,,5e9a84af150a8012575e4784,605b45a4d25f287719a41696,605bf23879bb483c4bd7cb8e,Mexico,Midwest,13 or older,no,2021-03-24_21h17.14.226,empathy_intonation_perc,2020.2.10,Win32,60,,,,,,,,,,0,,,,,,,,,,,,,,,,,,,,,,,,,,,,,,,,,,,,,,,,66,hacido,,,1,0,0.65825,0,46,46,65,1,REAL,FAKE,,,,,,,,,,,,,,,,,,,,,
,,,,,,,5e9a84af150a8012575e4784,605b45a4d25f287719a41696,605bf23879bb483c4bd7cb8e,Mexico,Midwest,13 or older,no,2021-03-24_21h17.14.226,empathy_intonation_perc,2020.2.10,Win32,60,,,,,,,,,,0,,,,,,,,,,,,,,,,,,,,,,,,,,,,,,,,,,,,,,,,53,vegada,,,0,1,1.31749,0,47,47,52,1,REAL,FAKE,,,,,,,,,,,,,,,,,,,,,
,,,,,,,5e9a84af150a8012575e4784,605b45a4d25f287719a41696,605bf23879bb483c4bd7cb8e,Mexico,Midwest,13 or older,no,2021-03-24_21h17.14.226,empathy_intonation_perc,2020.2.10,Win32,60,,,,,,,,,,1,,,,,,,,,,,,,,,,,,,,,,,,,,,,,,,,,,,,,,,,57,tacao,,,0,0,2.270005,0,48,48,56,1,REAL,FAKE,,,,,,,,,,,,,,,,,,,,,
,,,,,,,5e9a84af150a8012575e4784,605b45a4d25f287719a41696,605bf23879bb483c4bd7cb8e,Mexico,Midwest,13 or older,no,2021-03-24_21h17.14.226,empathy_intonation_perc,2020.2.10,Win32,60,,,,,,,,,,0,,,,,,,,,,,,,,,,,,,,,,,,,,,,,,,,,,,,,,,,58,plaudir,,,0,1,0.723465,0,49,49,57,1,REAL,FAKE,,,,,,,,,,,,,,,,,,,,,
,,,,,,,5e9a84af150a8012575e4784,605b45a4d25f287719a41696,605bf23879bb483c4bd7cb8e,Mexico,Midwest,13 or older,no,2021-03-24_21h17.14.226,empathy_intonation_perc,2020.2.10,Win32,60,,,,,,,,,,1,,,,,,,,,,,,,,,,,,,,,,,,,,,,,,,,,,,,,,,,11,cenefa,,,0,0,0.66659,0,50,50,10,1,REAL,FAKE,,,,,,,,,,,,,,,,,,,,,
,,,,,,,5e9a84af150a8012575e4784,605b45a4d25f287719a41696,605bf23879bb483c4bd7cb8e,Mexico,Midwest,13 or older,no,2021-03-24_21h17.14.226,empathy_intonation_perc,2020.2.10,Win32,60,,,,,,,,,,1,,,,,,,,,,,,,,,,,,,,,,,,,,,,,,,,,,,,,,,,31,pandilla,,,0,0,0.722495,0,51,51,30,1,REAL,FAKE,,,,,,,,,,,,,,,,,,,,,
,,,,,,,5e9a84af150a8012575e4784,605b45a4d25f287719a41696,605bf23879bb483c4bd7cb8e,Mexico,Midwest,13 or older,no,2021-03-24_21h17.14.226,empathy_intonation_perc,2020.2.10,Win32,60,,,,,,,,,,1,,,,,,,,,,,,,,,,,,,,,,,,,,,,,,,,,,,,,,,,39,torpe,,,0,0,0.650015,0,52,52,38,1,REAL,FAKE,,,,,,,,,,,,,,,,,,,,,
,,,,,,,5e9a84af150a8012575e4784,605b45a4d25f287719a41696,605bf23879bb483c4bd7cb8e,Mexico,Midwest,13 or older,no,2021-03-24_21h17.14.226,empathy_intonation_perc,2020.2.10,Win32,60,,,,,,,,,,1,,,,,,,,,,,,,,,,,,,,,,,,,,,,,,,,,,,,,,,,60,matar,,,1,1,0.74174,0,53,53,59,1,REAL,FAKE,,,,,,,,,,,,,,,,,,,,,
,,,,,,,5e9a84af150a8012575e4784,605b45a4d25f287719a41696,605bf23879bb483c4bd7cb8e,Mexico,Midwest,13 or older,no,2021-03-24_21h17.14.226,empathy_intonation_perc,2020.2.10,Win32,60,,,,,,,,,,0,,,,,,,,,,,,,,,,,,,,,,,,,,,,,,,,,,,,,,,,19,brecedad,,,0,1,1.238855,0,54,54,18,1,REAL,FAKE,,,,,,,,,,,,,,,,,,,,,
,,,,,,,5e9a84af150a8012575e4784,605b45a4d25f287719a41696,605bf23879bb483c4bd7cb8e,Mexico,Midwest,13 or older,no,2021-03-24_21h17.14.226,empathy_intonation_perc,2020.2.10,Win32,60,,,,,,,,,,1,,,,,,,,,,,,,,,,,,,,,,,,,,,,,,,,,,,,,,,,77,tiburn,,,1,1,0.96634,0,55,55,76,1,REAL,FAKE,,,,,,,,,,,,,,,,,,,,,
,,,,,,,5e9a84af150a8012575e4784,605b45a4d25f287719a41696,605bf23879bb483c4bd7cb8e,Mexico,Midwest,13 or older,no,2021-03-24_21h17.14.226,empathy_intonation_perc,2020.2.10,Win32,60,,,,,,,,,,1,,,,,,,,,,,,,,,,,,,,,,,,,,,,,,,,,,,,,,,,13,helar,,,0,0,2.1459,0,56,56,12,1,REAL,FAKE,,,,,,,,,,,,,,,,,,,,,
,,,,,,,5e9a84af150a8012575e4784,605b45a4d25f287719a41696,605bf23879bb483c4bd7cb8e,Mexico,Midwest,13 or older,no,2021-03-24_21h17.14.226,empathy_intonation_perc,2020.2.10,Win32,60,,,,,,,,,,0,,,,,,,,,,,,,,,,,,,,,,,,,,,,,,,,,,,,,,,,72,pemicin,,,0,1,1.311515,0,57,57,71,1,REAL,FAKE,,,,,,,,,,,,,,,,,,,,,
,,,,,,,5e9a84af150a8012575e4784,605b45a4d25f287719a41696,605bf23879bb483c4bd7cb8e,Mexico,Midwest,13 or older,no,2021-03-24_21h17.14.226,empathy_intonation_perc,2020.2.10,Win32,60,,,,,,,,,,0,,,,,,,,,,,,,,,,,,,,,,,,,,,,,,,,,,,,,,,,32,fatacidad,,,0,1,1.42759,0,58,58,31,1,REAL,FAKE,,,,,,,,,,,,,,,,,,,,,
,,,,,,,5e9a84af150a8012575e4784,605b45a4d25f287719a41696,605bf23879bb483c4bd7cb8e,Mexico,Midwest,13 or older,no,2021-03-24_21h17.14.226,empathy_intonation_perc,2020.2.10,Win32,60,,,,,,,,,,0,,,,,,,,,,,,,,,,,,,,,,,,,,,,,,,,,,,,,,,,4,batilln,,,1,0,1.541415,0,59,59,3,1,REAL,FAKE,,,,,,,,,,,,,,,,,,,,,
,,,,,,,5e9a84af150a8012575e4784,605b45a4d25f287719a41696,605bf23879bb483c4bd7cb8e,Mexico,Midwest,13 or older,no,2021-03-24_21h17.14.226,empathy_intonation_perc,2020.2.10,Win32,60,,,,,,,,,,1,,,,,,,,,,,,,,,,,,,,,,,,,,,,,,,,,,,,,,,,41,rebuscar,,,0,0,2.67427,0,60,60,40,1,REAL,FAKE,,,,,,,,,,,,,,,,,,,,,
,,,,,,,5e9a84af150a8012575e4784,605b45a4d25f287719a41696,605bf23879bb483c4bd7cb8e,Mexico,Midwest,13 or older,no,2021-03-24_21h17.14.226,empathy_intonation_perc,2020.2.10,Win32,60,,,,,,,,,,1,,,,,,,,,,,,,,,,,,,,,,,,,,,,,,,,,,,,,,,,86,barato,,,1,1,1.35768,0,61,61,85,1,REAL,FAKE,,,,,,,,,,,,,,,,,,,,,
,,,,,,,5e9a84af150a8012575e4784,605b45a4d25f287719a41696,605bf23879bb483c4bd7cb8e,Mexico,Midwest,13 or older,no,2021-03-24_21h17.14.226,empathy_intonation_perc,2020.2.10,Win32,60,,,,,,,,,,0,,,,,,,,,,,,,,,,,,,,,,,,,,,,,,,,,,,,,,,,16,abracer,,,0,1,2.17036,0,62,62,15,1,REAL,FAKE,,,,,,,,,,,,,,,,,,,,,
,,,,,,,5e9a84af150a8012575e4784,605b45a4d25f287719a41696,605bf23879bb483c4bd7cb8e,Mexico,Midwest,13 or older,no,2021-03-24_21h17.14.226,empathy_intonation_perc,2020.2.10,Win32,60,,,,,,,,,,1,,,,,,,,,,,,,,,,,,,,,,,,,,,,,,,,,,,,,,,,76,atar,,,0,0,0.64183,0,63,63,75,1,REAL,FAKE,,,,,,,,,,,,,,,,,,,,,
,,,,,,,5e9a84af150a8012575e4784,605b45a4d25f287719a41696,605bf23879bb483c4bd7cb8e,Mexico,Midwest,13 or older,no,2021-03-24_21h17.14.226,empathy_intonation_perc,2020.2.10,Win32,60,,,,,,,,,,1,,,,,,,,,,,,,,,,,,,,,,,,,,,,,,,,,,,,,,,,54,fomentar,,,0,0,0.90003,0,64,64,53,1,REAL,FAKE,,,,,,,,,,,,,,,,,,,,,
,,,,,,,5e9a84af150a8012575e4784,605b45a4d25f287719a41696,605bf23879bb483c4bd7cb8e,Mexico,Midwest,13 or older,no,2021-03-24_21h17.14.226,empathy_intonation_perc,2020.2.10,Win32,60,,,,,,,,,,1,,,,,,,,,,,,,,,,,,,,,,,,,,,,,,,,,,,,,,,,68,alegre,,,1,1,1.32392,0,65,65,67,1,REAL,FAKE,,,,,,,,,,,,,,,,,,,,,
,,,,,,,5e9a84af150a8012575e4784,605b45a4d25f287719a41696,605bf23879bb483c4bd7cb8e,Mexico,Midwest,13 or older,no,2021-03-24_21h17.14.226,empathy_intonation_perc,2020.2.10,Win32,60,,,,,,,,,,1,,,,,,,,,,,,,,,,,,,,,,,,,,,,,,,,,,,,,,,,40,alfombra,,,1,1,1.29087,0,66,66,39,1,REAL,FAKE,,,,,,,,,,,,,,,,,,,,,
,,,,,,,5e9a84af150a8012575e4784,605b45a4d25f287719a41696,605bf23879bb483c4bd7cb8e,Mexico,Midwest,13 or older,no,2021-03-24_21h17.14.226,empathy_intonation_perc,2020.2.10,Win32,60,,,,,,,,,,1,,,,,,,,,,,,,,,,,,,,,,,,,,,,,,,,,,,,,,,,26,secuestro,,,1,1,1.142775,0,67,67,25,1,REAL,FAKE,,,,,,,,,,,,,,,,,,,,,
,,,,,,,5e9a84af150a8012575e4784,605b45a4d25f287719a41696,605bf23879bb483c4bd7cb8e,Mexico,Midwest,13 or older,no,2021-03-24_21h17.14.226,empathy_intonation_perc,2020.2.10,Win32,60,,,,,,,,,,0,,,,,,,,,,,,,,,,,,,,,,,,,,,,,,,,,,,,,,,,42,cadallo,,,0,1,1.006305,0,68,68,41,1,REAL,FAKE,,,,,,,,,,,,,,,,,,,,,
,,,,,,,5e9a84af150a8012575e4784,605b45a4d25f287719a41696,605bf23879bb483c4bd7cb8e,Mexico,Midwest,13 or older,no,2021-03-24_21h17.14.226,empathy_intonation_perc,2020.2.10,Win32,60,,,,,,,,,,1,,,,,,,,,,,,,,,,,,,,,,,,,,,,,,,,,,,,,,,,28,merodear,,,0,0,0.62037,0,69,69,27,1,REAL,FAKE,,,,,,,,,,,,,,,,,,,,,
,,,,,,,5e9a84af150a8012575e4784,605b45a4d25f287719a41696,605bf23879bb483c4bd7cb8e,Mexico,Midwest,13 or older,no,2021-03-24_21h17.14.226,empathy_intonation_perc,2020.2.10,Win32,60,,,,,,,,,,0,,,,,,,,,,,,,,,,,,,,,,,,,,,,,,,,,,,,,,,,1,terzo,,,0,1,1.433455,0,70,70,0,1,REAL,FAKE,,,,,,,,,,,,,,,,,,,,,
,,,,,,,5e9a84af150a8012575e4784,605b45a4d25f287719a41696,605bf23879bb483c4bd7cb8e,Mexico,Midwest,13 or older,no,2021-03-24_21h17.14.226,empathy_intonation_perc,2020.2.10,Win32,60,,,,,,,,,,1,,,,,,,,,,,,,,,,,,,,,,,,,,,,,,,,,,,,,,,,75,yacer,,,0,0,1.333385,0,71,71,74,1,REAL,FAKE,,,,,,,,,,,,,,,,,,,,,
,,,,,,,5e9a84af150a8012575e4784,605b45a4d25f287719a41696,605bf23879bb483c4bd7cb8e,Mexico,Midwest,13 or older,no,2021-03-24_21h17.14.226,empathy_intonation_perc,2020.2.10,Win32,60,,,,,,,,,,0,,,,,,,,,,,,,,,,,,,,,,,,,,,,,,,,,,,,,,,,17,floroso,,,0,1,0.778315,0,72,72,16,1,REAL,FAKE,,,,,,,,,,,,,,,,,,,,,
,,,,,,,5e9a84af150a8012575e4784,605b45a4d25f287719a41696,605bf23879bb483c4bd7cb8e,Mexico,Midwest,13 or older,no,2021-03-24_21h17.14.226,empathy_intonation_perc,2020.2.10,Win32,60,,,,,,,,,,1,,,,,,,,,,,,,,,,,,,,,,,,,,,,,,,,,,,,,,,,43,canela,,,0,0,0.84961,0,73,73,42,1,REAL,FAKE,,,,,,,,,,,,,,,,,,,,,
,,,,,,,5e9a84af150a8012575e4784,605b45a4d25f287719a41696,605bf23879bb483c4bd7cb8e,Mexico,Midwest,13 or older,no,2021-03-24_21h17.14.226,empathy_intonation_perc,2020.2.10,Win32,60,,,,,,,,,,1,,,,,,,,,,,,,,,,,,,,,,,,,,,,,,,,,,,,,,,,78,frondoso,,,0,0,0.676655,0,74,74,77,1,REAL,FAKE,,,,,,,,,,,,,,,,,,,,,
,,,,,,,5e9a84af150a8012575e4784,605b45a4d25f287719a41696,605bf23879bb483c4bd7cb8e,Mexico,Midwest,13 or older,no,2021-03-24_21h17.14.226,empathy_intonation_perc,2020.2.10,Win32,60,,,,,,,,,,1,,,,,,,,,,,,,,,,,,,,,,,,,,,,,,,,,,,,,,,,36,loro,,,0,0,0.60061,0,75,75,35,1,REAL,FAKE,,,,,,,,,,,,,,,,,,,,,
,,,,,,,5e9a84af150a8012575e4784,605b45a4d25f287719a41696,605bf23879bb483c4bd7cb8e,Mexico,Midwest,13 or older,no,2021-03-24_21h17.14.226,empathy_intonation_perc,2020.2.10,Win32,60,,,,,,,,,,1,,,,,,,,,,,,,,,,,,,,,,,,,,,,,,,,,,,,,,,,48,ladrn,,,1,1,1.19454,0,76,76,47,1,REAL,FAKE,,,,,,,,,,,,,,,,,,,,,
,,,,,,,5e9a84af150a8012575e4784,605b45a4d25f287719a41696,605bf23879bb483c4bd7cb8e,Mexico,Midwest,13 or older,no,2021-03-24_21h17.14.226,empathy_intonation_perc,2020.2.10,Win32,60,,,,,,,,,,1,,,,,,,,,,,,,,,,,,,,,,,,,,,,,,,,,,,,,,,,55,nevar,,,0,0,0.60629,0,77,77,54,1,REAL,FAKE,,,,,,,,,,,,,,,,,,,,,
,,,,,,,5e9a84af150a8012575e4784,605b45a4d25f287719a41696,605bf23879bb483c4bd7cb8e,Mexico,Midwest,13 or older,no,2021-03-24_21h17.14.226,empathy_intonation_perc,2020.2.10,Win32,60,,,,,,,,,,1,,,,,,,,,,,,,,,,,,,,,,,,,,,,,,,,,,,,,,,,56,musgo,,,0,0,0.70679,0,78,78,55,1,REAL,FAKE,,,,,,,,,,,,,,,,,,,,,
,,,,,,,5e9a84af150a8012575e4784,605b45a4d25f287719a41696,605bf23879bb483c4bd7cb8e,Mexico,Midwest,13 or older,no,2021-03-24_21h17.14.226,empathy_intonation_perc,2020.2.10,Win32,60,,,,,,,,,,0,,,,,,,,,,,,,,,,,,,,,,,,,,,,,,,,,,,,,,,,27,acutacin,,,0,1,2.216645,0,79,79,26,1,REAL,FAKE,,,,,,,,,,,,,,,,,,,,,
,,,,,,,5e9a84af150a8012575e4784,605b45a4d25f287719a41696,605bf23879bb483c4bd7cb8e,Mexico,Midwest,13 or older,no,2021-03-24_21h17.14.226,empathy_intonation_perc,2020.2.10,Win32,60,,,,,,,,,,0,,,,,,,,,,,,,,,,,,,,,,,,,,,,,,,,,,,,,,,,50,flamida,,,0,1,0.82351,0,80,80,49,1,REAL,FAKE,,,,,,,,,,,,,,,,,,,,,
,,,,,,,5e9a84af150a8012575e4784,605b45a4d25f287719a41696,605bf23879bb483c4bd7cb8e,Mexico,Midwest,13 or older,no,2021-03-24_21h17.14.226,empathy_intonation_perc,2020.2.10,Win32,60,,,,,,,,,,0,,,,,,,,,,,,,,,,,,,,,,,,,,,,,,,,,,,,,,,,70,temblo,,,1,0,0.816855,0,81,81,69,1,REAL,FAKE,,,,,,,,,,,,,,,,,,,,,
,,,,,,,5e9a84af150a8012575e4784,605b45a4d25f287719a41696,605bf23879bb483c4bd7cb8e,Mexico,Midwest,13 or older,no,2021-03-24_21h17.14.226,empathy_intonation_perc,2020.2.10,Win32,60,,,,,,,,,,0,,,,,,,,,,,,,,,,,,,,,,,,,,,,,,,,,,,,,,,,87,grodo,,,0,1,0.593145,0,82,82,86,1,REAL,FAKE,,,,,,,,,,,,,,,,,,,,,
,,,,,,,5e9a84af150a8012575e4784,605b45a4d25f287719a41696,605bf23879bb483c4bd7cb8e,Mexico,Midwest,13 or older,no,2021-03-24_21h17.14.226,empathy_intonation_perc,2020.2.10,Win32,60,,,,,,,,,,1,,,,,,,,,,,,,,,,,,,,,,,,,,,,,,,,,,,,,,,,51,candado,,,0,0,0.78339,0,83,83,50,1,REAL,FAKE,,,,,,,,,,,,,,,,,,,,,
,,,,,,,5e9a84af150a8012575e4784,605b45a4d25f287719a41696,605bf23879bb483c4bd7cb8e,Mexico,Midwest,13 or older,no,2021-03-24_21h17.14.226,empathy_intonation_perc,2020.2.10,Win32,60,,,,,,,,,,1,,,,,,,,,,,,,,,,,,,,,,,,,,,,,,,,,,,,,,,,67,cabello,,,1,1,0.557515,0,84,84,66,1,REAL,FAKE,,,,,,,,,,,,,,,,,,,,,
,,,,,,,5e9a84af150a8012575e4784,605b45a4d25f287719a41696,605bf23879bb483c4bd7cb8e,Mexico,Midwest,13 or older,no,2021-03-24_21h17.14.226,empathy_intonation_perc,2020.2.10,Win32,60,,,,,,,,,,1,,,,,,,,,,,,,,,,,,,,,,,,,,,,,,,,,,,,,,,,69,engatusar,,,0,0,1.083635,0,85,85,68,1,REAL,FAKE,,,,,,,,,,,,,,,,,,,,,
,,,,,,,5e9a84af150a8012575e4784,605b45a4d25f287719a41696,605bf23879bb483c4bd7cb8e,Mexico,Midwest,13 or older,no,2021-03-24_21h17.14.226,empathy_intonation_perc,2020.2.10,Win32,60,,,,,,,,,,1,,,,,,,,,,,,,,,,,,,,,,,,,,,,,,,,,,,,,,,,59,besar,,,1,1,1.591615,0,86,86,58,1,REAL,FAKE,,,,,,,,,,,,,,,,,,,,,
,,,,,,,5e9a84af150a8012575e4784,605b45a4d25f287719a41696,605bf23879bb483c4bd7cb8e,Mexico,Midwest,13 or older,no,2021-03-24_21h17.14.226,empathy_intonation_perc,2020.2.10,Win32,60,,,,,,,,,,1,,,,,,,,,,,,,,,,,,,,,,,,,,,,,,,,,,,,,,,,38,estornudar,,,0,0,0.833185,0,87,87,37,1,REAL,FAKE,,,,,,,,,,,,,,,,,,,,,
,,,,,,,5e9a84af150a8012575e4784,605b45a4d25f287719a41696,605bf23879bb483c4bd7cb8e,Mexico,Midwest,13 or older,no,2021-03-24_21h17.14.226,empathy_intonation_perc,2020.2.10,Win32,60,,,,,,,,,,1,,,,,,,,,,,,,,,,,,,,,,,,,,,,,,,,,,,,,,,,83,guante,,,0,0,0.559035,0,88,88,82,1,REAL,FAKE,,,,,,,,,,,,,,,,,,,,,
,,,,,,,5e9a84af150a8012575e4784,605b45a4d25f287719a41696,605bf23879bb483c4bd7cb8e,Mexico,Midwest,13 or older,no,2021-03-24_21h17.14.226,empathy_intonation_perc,2020.2.10,Win32,60,,,,,,,,,,0,,,,,,,,,,,,,,,,,,,,,,,,,,,,,,,,,,,,,,,,35,rompido,,,0,1,1.09287,0,89,89,34,1,REAL,FAKE,,,,,,,,,,,,,,,,,,,,,
,,,,,,,5e9a84af150a8012575e4784,605b45a4d25f287719a41696,605bf23879bb483c4bd7cb8e,Mexico,Midwest,13 or older,no,2021-03-24_21h17.14.226,empathy_intonation_perc,2020.2.10,Win32,60,,,,,,,,,,,,,,,,,,,,,,,,,,,,,,,,,,,,,,,,,,,,,,,,,,,,,,,,,,,,,,,,4,1,2.10597,1,0,0,0,0,0,1,,,,,,,,,,,
,,,,,,,5e9a84af150a8012575e4784,605b45a4d25f287719a41696,605bf23879bb483c4bd7cb8e,Mexico,Midwest,13 or older,no,2021-03-24_21h17.14.226,empathy_intonation_perc,2020.2.10,Win32,60,,,,,,,,,,,,,,,,,,,,1,,,,,,,,,,,,,,,,,,,,,,,,,,,,,,,,,,,,,,,,,,,,,,,,,,,,,,2,0,0,0,0,1,I can easily tell if someone else wants to enter a conversation.,1,0,1,0
,,,,,,,5e9a84af150a8012575e4784,605b45a4d25f287719a41696,605bf23879bb483c4bd7cb8e,Mexico,Midwest,13 or older,no,2021-03-24_21h17.14.226,empathy_intonation_perc,2020.2.10,Win32,60,,,,,,,,,,,,,,,,,,,,2,,,,,,,,,,,,,,,,,,,,,,,,,,,,,,,,,,,,,,,,,,,,,,,,,,,,,,4,0,1,1,1,1,I prefer animals to humans.,0,1,0,0
,,,,,,,5e9a84af150a8012575e4784,605b45a4d25f287719a41696,605bf23879bb483c4bd7cb8e,Mexico,Midwest,13 or older,no,2021-03-24_21h17.14.226,empathy_intonation_perc,2020.2.10,Win32,60,,,,,,,,,,,,,,,,,,,,3,,,,,,,,,,,,,,,,,,,,,,,,,,,,,,,,,,,,,,,,,,,,,,,,,,,,,,5,0,2,2,2,1,I try to keep up with the current trends and fashions.,0,1,0,0
,,,,,,,5e9a84af150a8012575e4784,605b45a4d25f287719a41696,605bf23879bb483c4bd7cb8e,Mexico,Midwest,13 or older,no,2021-03-24_21h17.14.226,empathy_intonation_perc,2020.2.10,Win32,60,,,,,,,,,,,,,,,,,,,,4,,,,,,,,,,,,,,,,,,,,,,,,,,,,,,,,,,,,,,,,,,,,,,,,,,,,,,2,0,3,3,3,1,"I find it difficult to explain to others things that I understand easily, 
  when they dont understand it first time.",1,0,0,1
,,,,,,,5e9a84af150a8012575e4784,605b45a4d25f287719a41696,605bf23879bb483c4bd7cb8e,Mexico,Midwest,13 or older,no,2021-03-24_21h17.14.226,empathy_intonation_perc,2020.2.10,Win32,60,,,,,,,,,,,,,,,,,,,,5,,,,,,,,,,,,,,,,,,,,,,,,,,,,,,,,,,,,,,,,,,,,,,,,,,,,,,2,0,4,4,4,1,I dream most nights.,0,1,0,0
,,,,,,,5e9a84af150a8012575e4784,605b45a4d25f287719a41696,605bf23879bb483c4bd7cb8e,Mexico,Midwest,13 or older,no,2021-03-24_21h17.14.226,empathy_intonation_perc,2020.2.10,Win32,60,,,,,,,,,,,,,,,,,,,,6,,,,,,,,,,,,,,,,,,,,,,,,,,,,,,,,,,,,,,,,,,,,,,,,,,,,,,2,0,5,5,5,1,I really enjoy caring for other people.,1,0,1,0
,,,,,,,5e9a84af150a8012575e4784,605b45a4d25f287719a41696,605bf23879bb483c4bd7cb8e,Mexico,Midwest,13 or older,no,2021-03-24_21h17.14.226,empathy_intonation_perc,2020.2.10,Win32,60,,,,,,,,,,,,,,,,,,,,7,,,,,,,,,,,,,,,,,,,,,,,,,,,,,,,,,,,,,,,,,,,,,,,,,,,,,,1,0,6,6,6,1,I try to solve my own problems rather than discussing them with others.,0,1,0,0
,,,,,,,5e9a84af150a8012575e4784,605b45a4d25f287719a41696,605bf23879bb483c4bd7cb8e,Mexico,Midwest,13 or older,no,2021-03-24_21h17.14.226,empathy_intonation_perc,2020.2.10,Win32,60,,,,,,,,,,,,,,,,,,,,8,,,,,,,,,,,,,,,,,,,,,,,,,,,,,,,,,,,,,,,,,,,,,,,,,,,,,,2,0,7,7,7,1,I find it hard to know what to do in a social situation.,1,0,0,1
,,,,,,,5e9a84af150a8012575e4784,605b45a4d25f287719a41696,605bf23879bb483c4bd7cb8e,Mexico,Midwest,13 or older,no,2021-03-24_21h17.14.226,empathy_intonation_perc,2020.2.10,Win32,60,,,,,,,,,,,,,,,,,,,,9,,,,,,,,,,,,,,,,,,,,,,,,,,,,,,,,,,,,,,,,,,,,,,,,,,,,,,2,0,8,8,8,1,I am at my best first thing in the morning.,0,1,0,0
