instructions_2afc_loop.thisRepN,instructions_2afc_loop.thisTrialN,instructions_2afc_loop.thisN,instructions_2afc_loop.thisIndex,instructions_2afc_loop.ran,instructions_text,continue_text,participant,study_id,session,I am most familiar with Spanish from...*,What part of the US are you from?*,At what age did you begin learning Spanish?*,Are you proficient in any languages other than English/Spanish?*,date,expName,psychopyVersion,OS,frameRate,key_resp_2afc_practice.keys,key_resp_2afc_practice.corr,key_resp_2afc_practice.rt,trials_2afc_practice_loop.thisRepN,trials_2afc_practice_loop.thisTrialN,trials_2afc_practice_loop.thisN,trials_2afc_practice_loop.thisIndex,trials_2afc_practice_loop.ran,path,correct_response,the_col,key_resp_2afc_trial.keys,key_resp_2afc_trial.corr,key_resp_2afc_trial.rt,trials_2afc_loop.thisRepN,trials_2afc_loop.thisTrialN,trials_2afc_loop.thisN,trials_2afc_loop.thisIndex,trials_2afc_loop.ran,item_num,andalusian,argentine,castilian,chilean,cuban,mexican,peruvian,puertorican,key_resp_ac1.keys,key_resp_ac1.corr,key_resp_ac1.rt,ac1_loop.thisRepN,ac1_loop.thisTrialN,ac1_loop.thisN,ac1_loop.thisIndex,ac1_loop.ran,instructions_lextale_loop.thisRepN,instructions_lextale_loop.thisTrialN,instructions_lextale_loop.thisN,instructions_lextale_loop.thisIndex,instructions_lextale_loop.ran,key_resp_lextale_practice.keys,key_resp_lextale_practice.corr,key_resp_lextale_practice.rt,trials_lextale_practice_loop.thisRepN,trials_lextale_practice_loop.thisTrialN,trials_lextale_practice_loop.thisN,trials_lextale_practice_loop.thisIndex,trials_lextale_practice_loop.ran,stim,word,prac_button_real,prac_button_false,key_resp_lextale_trial.keys,key_resp_lextale_trial.corr,key_resp_lextale_trial.rt,trials_lextale_loop.thisRepN,trials_lextale_loop.thisTrialN,trials_lextale_loop.thisN,trials_lextale_loop.thisIndex,trials_lextale_loop.ran,button_real,button_false,key_resp_ac2.keys,key_resp_ac2.corr,key_resp_ac2.rt,check_pass,check_fails,ac2_loop.thisRepN,ac2_loop.thisTrialN,ac2_loop.thisN,ac2_loop.thisIndex,ac2_loop.ran,slider_eq_trial.response,trials_eq_loop.thisRepN,trials_eq_loop.thisTrialN,trials_eq_loop.thisN,trials_eq_loop.thisIndex,trials_eq_loop.ran,item,is_test_item,is_distractor,is_agree_score,is_disagree_score
0,0,0,0,1,"In the following task you are going to hear a series of utterances. 

  You will decide if the utterances sound like questions or not using your keyboard.",(press the spacebar to continue),5e9fcb1aa7eac5182448d5ab,605b45a4d25f287719a41696,605ce6762df5a601c7cbfbed,Colombia,Northeast,13 or older,no,2021-03-25_15h40.57.831,empathy_intonation_perc,2020.2.10,Win32,60,,,,,,,,,,,,,,,,,,,,,,,,,,,,,,,,,,,,,,,,,,,,,,,,,,,,,,,,,,,,,,,,,,,,,,,,,,,,,,,,,,,,
0,1,1,1,1,"If you believe the utterance is a question, type '1' (for 'yes') and if you do not 
  believe it is a question type '0' (for 'no').

  Let's practice a bit...",(press the spacebar to continue),5e9fcb1aa7eac5182448d5ab,605b45a4d25f287719a41696,605ce6762df5a601c7cbfbed,Colombia,Northeast,13 or older,no,2021-03-25_15h40.57.831,empathy_intonation_perc,2020.2.10,Win32,60,,,,,,,,,,,,,,,,,,,,,,,,,,,,,,,,,,,,,,,,,,,,,,,,,,,,,,,,,,,,,,,,,,,,,,,,,,,,,,,,,,,,
,,,,,,,5e9fcb1aa7eac5182448d5ab,605b45a4d25f287719a41696,605ce6762df5a601c7cbfbed,Colombia,Northeast,13 or older,no,2021-03-25_15h40.57.831,empathy_intonation_perc,2020.2.10,Win32,60,0,1,1.97222,0,0,0,4,1,./stim/wavs/cuban_statement_filler_Cocinabas-por-la-noche.wav,0,,,,,,,,,,,,,,,,,,,,,,,,,,,,,,,,,,,,,,,,,,,,,,,,,,,,,,,,,,,,,,,,,,,,,,,,,,
,,,,,,,5e9fcb1aa7eac5182448d5ab,605b45a4d25f287719a41696,605ce6762df5a601c7cbfbed,Colombia,Northeast,13 or older,no,2021-03-25_15h40.57.831,empathy_intonation_perc,2020.2.10,Win32,60,1,1,1.38466,0,1,1,1,1,./stim/wavs/argentine_question_filler_Mi-vecino-habla-mucho.wav,1,,,,,,,,,,,,,,,,,,,,,,,,,,,,,,,,,,,,,,,,,,,,,,,,,,,,,,,,,,,,,,,,,,,,,,,,,,
,,,,,,,5e9fcb1aa7eac5182448d5ab,605b45a4d25f287719a41696,605ce6762df5a601c7cbfbed,Colombia,Northeast,13 or older,no,2021-03-25_15h40.57.831,empathy_intonation_perc,2020.2.10,Win32,60,1,1,1.518425,0,2,2,3,1,./stim/wavs/mexican_question_filler_Felipe-no-tiene-contrasena.wav,1,,,,,,,,,,,,,,,,,,,,,,,,,,,,,,,,,,,,,,,,,,,,,,,,,,,,,,,,,,,,,,,,,,,,,,,,,,
,,,,,,,5e9fcb1aa7eac5182448d5ab,605b45a4d25f287719a41696,605ce6762df5a601c7cbfbed,Colombia,Northeast,13 or older,no,2021-03-25_15h40.57.831,empathy_intonation_perc,2020.2.10,Win32,60,0,0,2.272055,0,3,3,2,1,./stim/wavs/chilean_question_filler_Mi-padre-cantaba-bien.wav,1,,,,,,,,,,,,,,,,,,,,,,,,,,,,,,,,,,,,,,,,,,,,,,,,,,,,,,,,,,,,,,,,,,,,,,,,,,
,,,,,,,5e9fcb1aa7eac5182448d5ab,605b45a4d25f287719a41696,605ce6762df5a601c7cbfbed,Colombia,Northeast,13 or older,no,2021-03-25_15h40.57.831,empathy_intonation_perc,2020.2.10,Win32,60,0,1,2.032655,0,4,4,5,1,./stim/wavs/andalusian_statement_filler_Alberto-nunca-se-afeita.wav,0,,,,,,,,,,,,,,,,,,,,,,,,,,,,,,,,,,,,,,,,,,,,,,,,,,,,,,,,,,,,,,,,,,,,,,,,,,
,,,,,,,5e9fcb1aa7eac5182448d5ab,605b45a4d25f287719a41696,605ce6762df5a601c7cbfbed,Colombia,Northeast,13 or older,no,2021-03-25_15h40.57.831,empathy_intonation_perc,2020.2.10,Win32,60,0,1,2.2516,0,5,5,6,1,./stim/wavs/peruvian_statement_filler_El-nino-habla-con-su-madre.wav,0,,,,,,,,,,,,,,,,,,,,,,,,,,,,,,,,,,,,,,,,,,,,,,,,,,,,,,,,,,,,,,,,,,,,,,,,,,
,,,,,,,5e9fcb1aa7eac5182448d5ab,605b45a4d25f287719a41696,605ce6762df5a601c7cbfbed,Colombia,Northeast,13 or older,no,2021-03-25_15h40.57.831,empathy_intonation_perc,2020.2.10,Win32,60,1,1,2.904425,0,6,6,0,1,./stim/wavs/castilian_question_filler_Mi-esposo-conoce-al-chico.wav,1,,,,,,,,,,,,,,,,,,,,,,,,,,,,,,,,,,,,,,,,,,,,,,,,,,,,,,,,,,,,,,,,,,,,,,,,,,
,,,,,,,5e9fcb1aa7eac5182448d5ab,605b45a4d25f287719a41696,605ce6762df5a601c7cbfbed,Colombia,Northeast,13 or older,no,2021-03-25_15h40.57.831,empathy_intonation_perc,2020.2.10,Win32,60,0,1,1.70728,0,7,7,7,1,./stim/wavs/puertorican_statement_filler_La-nina-pinta-con-su-amiga.wav,0,,,,,,,,,,,,,,,,,,,,,,,,,,,,,,,,,,,,,,,,,,,,,,,,,,,,,,,,,,,,,,,,,,,,,,,,,,
,,,,,,,5e9fcb1aa7eac5182448d5ab,605b45a4d25f287719a41696,605ce6762df5a601c7cbfbed,Colombia,Northeast,13 or older,no,2021-03-25_15h40.57.831,empathy_intonation_perc,2020.2.10,Win32,60,,,,,,,,,,0,cuban,0,1,1.653705,0,0,0,11,1,12,./stim/wavs/andalusian_match_declarative-narrow-focus_Emilio-ama-la-marcha.wav,./stim/wavs/argentine_match_declarative-narrow-focus_Emilio-ama-la-marcha.wav,./stim/wavs/castilian_match_declarative-narrow-focus_Emilio-ama-la-marcha.wav,./stim/wavs/chilean_match_declarative-narrow-focus_Emilio-ama-la-marcha.wav,./stim/wavs/cuban_match_declarative-narrow-focus_Emilio-ama-la-marcha.wav,./stim/wavs/mexican_match_declarative-narrow-focus_Emilio-ama-la-marcha.wav,./stim/wavs/peruvian_match_declarative-narrow-focus_Emilio-ama-la-marcha.wav,./stim/wavs/puertorican_match_declarative-narrow-focus_Emilio-ama-la-marcha.wav,,,,,,,,,,,,,,,,,,,,,,,,,,,,,,,,,,,,,,,,,,,,,,,,,,,,,,,,
,,,,,,,5e9fcb1aa7eac5182448d5ab,605b45a4d25f287719a41696,605ce6762df5a601c7cbfbed,Colombia,Northeast,13 or older,no,2021-03-25_15h40.57.831,empathy_intonation_perc,2020.2.10,Win32,60,,,,,,,,,,1,chilean,1,1,1.554345,0,1,1,28,1,29,./stim/wavs/andalusian_match_interrogative-total-yn_Manuela-vende-el-carro.wav,./stim/wavs/argentine_match_interrogative-total-yn_Manuela-vende-el-carro.wav,./stim/wavs/castilian_match_interrogative-total-yn_Manuela-vende-el-carro.wav,./stim/wavs/chilean_match_interrogative-total-yn_Manuela-vende-el-carro.wav,./stim/wavs/cuban_match_interrogative-total-yn_Manuela-vende-el-carro.wav,./stim/wavs/mexican_match_interrogative-total-yn_Manuela-vende-el-carro.wav,./stim/wavs/peruvian_match_interrogative-total-yn_Manuela-vende-el-carro.wav,./stim/wavs/puertorican_match_interrogative-total-yn_Manuela-vende-el-carro.wav,,,,,,,,,,,,,,,,,,,,,,,,,,,,,,,,,,,,,,,,,,,,,,,,,,,,,,,,
,,,,,,,5e9fcb1aa7eac5182448d5ab,605b45a4d25f287719a41696,605ce6762df5a601c7cbfbed,Colombia,Northeast,13 or older,no,2021-03-25_15h40.57.831,empathy_intonation_perc,2020.2.10,Win32,60,,,,,,,,,,0,castilian,0,1,1.93424,0,2,2,43,1,44,./stim/wavs/andalusian_mismatch_declarative-narrow-focus_La-maestra-vive-en-Paris.wav,./stim/wavs/argentine_mismatch_declarative-narrow-focus_La-maestra-vive-en-Paris.wav,./stim/wavs/castilian_mismatch_declarative-narrow-focus_La-maestra-vive-en-Paris.wav,./stim/wavs/chilean_mismatch_declarative-narrow-focus_La-maestra-vive-en-Paris.wav,./stim/wavs/cuban_mismatch_declarative-narrow-focus_La-maestra-vive-en-Paris.wav,./stim/wavs/mexican_mismatch_declarative-narrow-focus_La-maestra-vive-en-Paris.wav,./stim/wavs/peruvian_mismatch_declarative-narrow-focus_La-maestra-vive-en-Paris.wav,./stim/wavs/puertorican_mismatch_declarative-narrow-focus_La-maestra-vive-en-Paris.wav,,,,,,,,,,,,,,,,,,,,,,,,,,,,,,,,,,,,,,,,,,,,,,,,,,,,,,,,
,,,,,,,5e9fcb1aa7eac5182448d5ab,605b45a4d25f287719a41696,605ce6762df5a601c7cbfbed,Colombia,Northeast,13 or older,no,2021-03-25_15h40.57.831,empathy_intonation_perc,2020.2.10,Win32,60,,,,,,,,,,1,argentine,1,1,1.541165,0,3,3,26,1,27,./stim/wavs/andalusian_match_interrogative-total-yn_David-leia-el-libro.wav,./stim/wavs/argentine_match_interrogative-total-yn_David-leia-el-libro.wav,./stim/wavs/castilian_match_interrogative-total-yn_David-leia-el-libro.wav,./stim/wavs/chilean_match_interrogative-total-yn_David-leia-el-libro.wav,./stim/wavs/cuban_match_interrogative-total-yn_David-leia-el-libro.wav,./stim/wavs/mexican_match_interrogative-total-yn_David-leia-el-libro.wav,./stim/wavs/peruvian_match_interrogative-total-yn_David-leia-el-libro.wav,./stim/wavs/puertorican_match_interrogative-total-yn_David-leia-el-libro.wav,,,,,,,,,,,,,,,,,,,,,,,,,,,,,,,,,,,,,,,,,,,,,,,,,,,,,,,,
,,,,,,,5e9fcb1aa7eac5182448d5ab,605b45a4d25f287719a41696,605ce6762df5a601c7cbfbed,Colombia,Northeast,13 or older,no,2021-03-25_15h40.57.831,empathy_intonation_perc,2020.2.10,Win32,60,,,,,,,,,,0,peruvian,0,1,1.50656,0,4,4,13,1,14,./stim/wavs/andalusian_match_declarative-narrow-focus_Maria-bebe-el-vino.wav,./stim/wavs/argentine_match_declarative-narrow-focus_Maria-bebe-el-vino.wav,./stim/wavs/castilian_match_declarative-narrow-focus_Maria-bebe-el-vino.wav,./stim/wavs/chilean_match_declarative-narrow-focus_Maria-bebe-el-vino.wav,./stim/wavs/cuban_match_declarative-narrow-focus_Maria-bebe-el-vino.wav,./stim/wavs/mexican_match_declarative-narrow-focus_Maria-bebe-el-vino.wav,./stim/wavs/peruvian_match_declarative-narrow-focus_Maria-bebe-el-vino.wav,./stim/wavs/puertorican_match_declarative-narrow-focus_Maria-bebe-el-vino.wav,,,,,,,,,,,,,,,,,,,,,,,,,,,,,,,,,,,,,,,,,,,,,,,,,,,,,,,,
,,,,,,,5e9fcb1aa7eac5182448d5ab,605b45a4d25f287719a41696,605ce6762df5a601c7cbfbed,Colombia,Northeast,13 or older,no,2021-03-25_15h40.57.831,empathy_intonation_perc,2020.2.10,Win32,60,,,,,,,,,,0,mexican,0,1,1.477085,0,5,5,47,1,48,./stim/wavs/andalusian_mismatch_declarative-narrow-focus_Mi-tia-odia-la-lluvia.wav,./stim/wavs/argentine_mismatch_declarative-narrow-focus_Mi-tia-odia-la-lluvia.wav,./stim/wavs/castilian_mismatch_declarative-narrow-focus_Mi-tia-odia-la-lluvia.wav,./stim/wavs/chilean_mismatch_declarative-narrow-focus_Mi-tia-odia-la-lluvia.wav,./stim/wavs/cuban_mismatch_declarative-narrow-focus_Mi-tia-odia-la-lluvia.wav,./stim/wavs/mexican_mismatch_declarative-narrow-focus_Mi-tia-odia-la-lluvia.wav,./stim/wavs/peruvian_mismatch_declarative-narrow-focus_Mi-tia-odia-la-lluvia.wav,./stim/wavs/puertorican_mismatch_declarative-narrow-focus_Mi-tia-odia-la-lluvia.wav,,,,,,,,,,,,,,,,,,,,,,,,,,,,,,,,,,,,,,,,,,,,,,,,,,,,,,,,
,,,,,,,5e9fcb1aa7eac5182448d5ab,605b45a4d25f287719a41696,605ce6762df5a601c7cbfbed,Colombia,Northeast,13 or older,no,2021-03-25_15h40.57.831,empathy_intonation_perc,2020.2.10,Win32,60,,,,,,,,,,1,castilian,1,1,1.914805,0,6,6,30,1,31,./stim/wavs/andalusian_match_interrogative-total-yn_Mariano-habla-del-tiempo.wav,./stim/wavs/argentine_match_interrogative-total-yn_Mariano-habla-del-tiempo.wav,./stim/wavs/castilian_match_interrogative-total-yn_Mariano-habla-del-tiempo.wav,./stim/wavs/chilean_match_interrogative-total-yn_Mariano-habla-del-tiempo.wav,./stim/wavs/cuban_match_interrogative-total-yn_Mariano-habla-del-tiempo.wav,./stim/wavs/mexican_match_interrogative-total-yn_Mariano-habla-del-tiempo.wav,./stim/wavs/peruvian_match_interrogative-total-yn_Mariano-habla-del-tiempo.wav,./stim/wavs/puertorican_match_interrogative-total-yn_Mariano-habla-del-tiempo.wav,,,,,,,,,,,,,,,,,,,,,,,,,,,,,,,,,,,,,,,,,,,,,,,,,,,,,,,,
,,,,,,,5e9fcb1aa7eac5182448d5ab,605b45a4d25f287719a41696,605ce6762df5a601c7cbfbed,Colombia,Northeast,13 or older,no,2021-03-25_15h40.57.831,empathy_intonation_perc,2020.2.10,Win32,60,,,,,,,,,,1,puertorican,0,0,1.3353,0,7,7,24,1,25,./stim/wavs/andalusian_match_interrogative-total-yn_Ana-lleva-el-abrigo.wav,./stim/wavs/argentine_match_interrogative-total-yn_Ana-lleva-el-abrigo.wav,./stim/wavs/castilian_match_interrogative-total-yn_Ana-lleva-el-abrigo.wav,./stim/wavs/chilean_match_interrogative-total-yn_Ana-lleva-el-abrigo.wav,./stim/wavs/cuban_match_interrogative-total-yn_Ana-lleva-el-abrigo.wav,./stim/wavs/mexican_match_interrogative-total-yn_Ana-lleva-el-abrigo.wav,./stim/wavs/peruvian_match_interrogative-total-yn_Ana-lleva-el-abrigo.wav,./stim/wavs/puertorican_match_interrogative-total-yn_Ana-lleva-el-abrigo.wav,,,,,,,,,,,,,,,,,,,,,,,,,,,,,,,,,,,,,,,,,,,,,,,,,,,,,,,,
,,,,,,,5e9fcb1aa7eac5182448d5ab,605b45a4d25f287719a41696,605ce6762df5a601c7cbfbed,Colombia,Northeast,13 or older,no,2021-03-25_15h40.57.831,empathy_intonation_perc,2020.2.10,Win32,60,,,,,,,,,,0,argentine,0,1,1.573995,0,8,8,14,1,15,./stim/wavs/andalusian_match_declarative-narrow-focus_Mariano-habla-del-tiempo.wav,./stim/wavs/argentine_match_declarative-narrow-focus_Mariano-habla-del-tiempo.wav,./stim/wavs/castilian_match_declarative-narrow-focus_Mariano-habla-del-tiempo.wav,./stim/wavs/chilean_match_declarative-narrow-focus_Mariano-habla-del-tiempo.wav,./stim/wavs/cuban_match_declarative-narrow-focus_Mariano-habla-del-tiempo.wav,./stim/wavs/mexican_match_declarative-narrow-focus_Mariano-habla-del-tiempo.wav,./stim/wavs/peruvian_match_declarative-narrow-focus_Mariano-habla-del-tiempo.wav,./stim/wavs/puertorican_match_declarative-narrow-focus_Mariano-habla-del-tiempo.wav,,,,,,,,,,,,,,,,,,,,,,,,,,,,,,,,,,,,,,,,,,,,,,,,,,,,,,,,
,,,,,,,5e9fcb1aa7eac5182448d5ab,605b45a4d25f287719a41696,605ce6762df5a601c7cbfbed,Colombia,Northeast,13 or older,no,2021-03-25_15h40.57.831,empathy_intonation_perc,2020.2.10,Win32,60,,,,,,,,,,1,cuban,0,0,1.26827,0,9,9,55,1,56,./stim/wavs/andalusian_mismatch_interrogative-partial-wh_Por-que-vivia-en-Paris.wav,./stim/wavs/argentine_mismatch_interrogative-partial-wh_Por-que-vivia-en-Paris.wav,./stim/wavs/castilian_mismatch_interrogative-partial-wh_Por-que-vivia-en-Paris.wav,./stim/wavs/chilean_mismatch_interrogative-partial-wh_Por-que-vivia-en-Paris.wav,./stim/wavs/cuban_mismatch_interrogative-partial-wh_Por-que-vivia-en-Paris.wav,./stim/wavs/mexican_mismatch_interrogative-partial-wh_Por-que-vivia-en-Paris.wav,./stim/wavs/peruvian_mismatch_interrogative-partial-wh_Por-que-vivia-en-Paris.wav,./stim/wavs/puertorican_mismatch_interrogative-partial-wh_Por-que-vivia-en-Paris.wav,,,,,,,,,,,,,,,,,,,,,,,,,,,,,,,,,,,,,,,,,,,,,,,,,,,,,,,,
,,,,,,,5e9fcb1aa7eac5182448d5ab,605b45a4d25f287719a41696,605ce6762df5a601c7cbfbed,Colombia,Northeast,13 or older,no,2021-03-25_15h40.57.831,empathy_intonation_perc,2020.2.10,Win32,60,,,,,,,,,,0,cuban,0,1,1.85172,0,10,10,34,1,35,./stim/wavs/andalusian_mismatch_declarative-broad-focus_El-nino-oye-el-rio.wav,./stim/wavs/argentine_mismatch_declarative-broad-focus_El-nino-oye-el-rio.wav,./stim/wavs/castilian_mismatch_declarative-broad-focus_El-nino-oye-el-rio.wav,./stim/wavs/chilean_mismatch_declarative-broad-focus_El-nino-oye-el-rio.wav,./stim/wavs/cuban_mismatch_declarative-broad-focus_El-nino-oye-el-rio.wav,./stim/wavs/mexican_mismatch_declarative-broad-focus_El-nino-oye-el-rio.wav,./stim/wavs/peruvian_mismatch_declarative-broad-focus_El-nino-oye-el-rio.wav,./stim/wavs/puertorican_mismatch_declarative-broad-focus_El-nino-oye-el-rio.wav,,,,,,,,,,,,,,,,,,,,,,,,,,,,,,,,,,,,,,,,,,,,,,,,,,,,,,,,
,,,,,,,5e9fcb1aa7eac5182448d5ab,605b45a4d25f287719a41696,605ce6762df5a601c7cbfbed,Colombia,Northeast,13 or older,no,2021-03-25_15h40.57.831,empathy_intonation_perc,2020.2.10,Win32,60,,,,,,,,,,0,chilean,0,1,1.28754,0,11,11,36,1,37,./stim/wavs/andalusian_mismatch_declarative-broad-focus_La-nina-lava-el-plato.wav,./stim/wavs/argentine_mismatch_declarative-broad-focus_La-nina-lava-el-plato.wav,./stim/wavs/castilian_mismatch_declarative-broad-focus_La-nina-lava-el-plato.wav,./stim/wavs/chilean_mismatch_declarative-broad-focus_La-nina-lava-el-plato.wav,./stim/wavs/cuban_mismatch_declarative-broad-focus_La-nina-lava-el-plato.wav,./stim/wavs/mexican_mismatch_declarative-broad-focus_La-nina-lava-el-plato.wav,./stim/wavs/peruvian_mismatch_declarative-broad-focus_La-nina-lava-el-plato.wav,./stim/wavs/puertorican_mismatch_declarative-broad-focus_La-nina-lava-el-plato.wav,,,,,,,,,,,,,,,,,,,,,,,,,,,,,,,,,,,,,,,,,,,,,,,,,,,,,,,,
,,,,,,,5e9fcb1aa7eac5182448d5ab,605b45a4d25f287719a41696,605ce6762df5a601c7cbfbed,Colombia,Northeast,13 or older,no,2021-03-25_15h40.57.831,empathy_intonation_perc,2020.2.10,Win32,60,,,,,,,,,,0,cuban,0,1,1.4849,0,12,12,45,1,46,./stim/wavs/andalusian_mismatch_declarative-narrow-focus_Mi-madre-come-la-fruta.wav,./stim/wavs/argentine_mismatch_declarative-narrow-focus_Mi-madre-come-la-fruta.wav,./stim/wavs/castilian_mismatch_declarative-narrow-focus_Mi-madre-come-la-fruta.wav,./stim/wavs/chilean_mismatch_declarative-narrow-focus_Mi-madre-come-la-fruta.wav,./stim/wavs/cuban_mismatch_declarative-narrow-focus_Mi-madre-come-la-fruta.wav,./stim/wavs/mexican_mismatch_declarative-narrow-focus_Mi-madre-come-la-fruta.wav,./stim/wavs/peruvian_mismatch_declarative-narrow-focus_Mi-madre-come-la-fruta.wav,./stim/wavs/puertorican_mismatch_declarative-narrow-focus_Mi-madre-come-la-fruta.wav,,,,,,,,,,,,,,,,,,,,,,,,,,,,,,,,,,,,,,,,,,,,,,,,,,,,,,,,
,,,,,,,5e9fcb1aa7eac5182448d5ab,605b45a4d25f287719a41696,605ce6762df5a601c7cbfbed,Colombia,Northeast,13 or older,no,2021-03-25_15h40.57.831,empathy_intonation_perc,2020.2.10,Win32,60,,,,,,,,,,1,peruvian,1,1,1.925155,0,13,13,62,1,63,./stim/wavs/andalusian_mismatch_interrogative-total-yn_Mi-novio-viene-del-lago.wav,./stim/wavs/argentine_mismatch_interrogative-total-yn_Mi-novio-viene-del-lago.wav,./stim/wavs/castilian_mismatch_interrogative-total-yn_Mi-novio-viene-del-lago.wav,./stim/wavs/chilean_mismatch_interrogative-total-yn_Mi-novio-viene-del-lago.wav,./stim/wavs/cuban_mismatch_interrogative-total-yn_Mi-novio-viene-del-lago.wav,./stim/wavs/mexican_mismatch_interrogative-total-yn_Mi-novio-viene-del-lago.wav,./stim/wavs/peruvian_mismatch_interrogative-total-yn_Mi-novio-viene-del-lago.wav,./stim/wavs/puertorican_mismatch_interrogative-total-yn_Mi-novio-viene-del-lago.wav,,,,,,,,,,,,,,,,,,,,,,,,,,,,,,,,,,,,,,,,,,,,,,,,,,,,,,,,
,,,,,,,5e9fcb1aa7eac5182448d5ab,605b45a4d25f287719a41696,605ce6762df5a601c7cbfbed,Colombia,Northeast,13 or older,no,2021-03-25_15h40.57.831,empathy_intonation_perc,2020.2.10,Win32,60,,,,,,,,,,0,andalusian,0,1,1.70719,0,14,14,1,1,2,./stim/wavs/andalusian_match_declarative-broad-focus_Daniel-iba-a-Bolivia.wav,./stim/wavs/argentine_match_declarative-broad-focus_Daniel-iba-a-Bolivia.wav,./stim/wavs/castilian_match_declarative-broad-focus_Daniel-iba-a-Bolivia.wav,./stim/wavs/chilean_match_declarative-broad-focus_Daniel-iba-a-Bolivia.wav,./stim/wavs/cuban_match_declarative-broad-focus_Daniel-iba-a-Bolivia.wav,./stim/wavs/mexican_match_declarative-broad-focus_Daniel-iba-a-Bolivia.wav,./stim/wavs/peruvian_match_declarative-broad-focus_Daniel-iba-a-Bolivia.wav,./stim/wavs/puertorican_match_declarative-broad-focus_Daniel-iba-a-Bolivia.wav,,,,,,,,,,,,,,,,,,,,,,,,,,,,,,,,,,,,,,,,,,,,,,,,,,,,,,,,
,,,,,,,5e9fcb1aa7eac5182448d5ab,605b45a4d25f287719a41696,605ce6762df5a601c7cbfbed,Colombia,Northeast,13 or older,no,2021-03-25_15h40.57.831,empathy_intonation_perc,2020.2.10,Win32,60,,,,,,,,,,0,peruvian,0,1,1.435485,0,15,15,0,1,1,./stim/wavs/andalusian_match_declarative-broad-focus_Ana-lleva-el-abrigo.wav,./stim/wavs/argentine_match_declarative-broad-focus_Ana-lleva-el-abrigo.wav,./stim/wavs/castilian_match_declarative-broad-focus_Ana-lleva-el-abrigo.wav,./stim/wavs/chilean_match_declarative-broad-focus_Ana-lleva-el-abrigo.wav,./stim/wavs/cuban_match_declarative-broad-focus_Ana-lleva-el-abrigo.wav,./stim/wavs/mexican_match_declarative-broad-focus_Ana-lleva-el-abrigo.wav,./stim/wavs/peruvian_match_declarative-broad-focus_Ana-lleva-el-abrigo.wav,./stim/wavs/puertorican_match_declarative-broad-focus_Ana-lleva-el-abrigo.wav,,,,,,,,,,,,,,,,,,,,,,,,,,,,,,,,,,,,,,,,,,,,,,,,,,,,,,,,
,,,,,,,5e9fcb1aa7eac5182448d5ab,605b45a4d25f287719a41696,605ce6762df5a601c7cbfbed,Colombia,Northeast,13 or older,no,2021-03-25_15h40.57.831,empathy_intonation_perc,2020.2.10,Win32,60,,,,,,,,,,1,peruvian,1,1,1.88961,0,16,16,58,1,59,./stim/wavs/andalusian_mismatch_interrogative-total-yn_El-nino-oye-el-rio.wav,./stim/wavs/argentine_mismatch_interrogative-total-yn_El-nino-oye-el-rio.wav,./stim/wavs/castilian_mismatch_interrogative-total-yn_El-nino-oye-el-rio.wav,./stim/wavs/chilean_mismatch_interrogative-total-yn_El-nino-oye-el-rio.wav,./stim/wavs/cuban_mismatch_interrogative-total-yn_El-nino-oye-el-rio.wav,./stim/wavs/mexican_mismatch_interrogative-total-yn_El-nino-oye-el-rio.wav,./stim/wavs/peruvian_mismatch_interrogative-total-yn_El-nino-oye-el-rio.wav,./stim/wavs/puertorican_mismatch_interrogative-total-yn_El-nino-oye-el-rio.wav,,,,,,,,,,,,,,,,,,,,,,,,,,,,,,,,,,,,,,,,,,,,,,,,,,,,,,,,
,,,,,,,5e9fcb1aa7eac5182448d5ab,605b45a4d25f287719a41696,605ce6762df5a601c7cbfbed,Colombia,Northeast,13 or older,no,2021-03-25_15h40.57.831,empathy_intonation_perc,2020.2.10,Win32,60,,,,,,,,,,0,argentine,0,1,1.46992,0,17,17,41,1,42,./stim/wavs/andalusian_mismatch_declarative-narrow-focus_El-hombre-mira-la-luna.wav,./stim/wavs/argentine_mismatch_declarative-narrow-focus_El-hombre-mira-la-luna.wav,./stim/wavs/castilian_mismatch_declarative-narrow-focus_El-hombre-mira-la-luna.wav,./stim/wavs/chilean_mismatch_declarative-narrow-focus_El-hombre-mira-la-luna.wav,./stim/wavs/cuban_mismatch_declarative-narrow-focus_El-hombre-mira-la-luna.wav,./stim/wavs/mexican_mismatch_declarative-narrow-focus_El-hombre-mira-la-luna.wav,./stim/wavs/peruvian_mismatch_declarative-narrow-focus_El-hombre-mira-la-luna.wav,./stim/wavs/puertorican_mismatch_declarative-narrow-focus_El-hombre-mira-la-luna.wav,,,,,,,,,,,,,,,,,,,,,,,,,,,,,,,,,,,,,,,,,,,,,,,,,,,,,,,,
,,,,,,,5e9fcb1aa7eac5182448d5ab,605b45a4d25f287719a41696,605ce6762df5a601c7cbfbed,Colombia,Northeast,13 or older,no,2021-03-25_15h40.57.831,empathy_intonation_perc,2020.2.10,Win32,60,,,,,,,,,,0,mexican,0,1,1.36953,0,18,18,8,1,9,./stim/wavs/andalusian_match_declarative-narrow-focus_Ana-lleva-el-abrigo.wav,./stim/wavs/argentine_match_declarative-narrow-focus_Ana-lleva-el-abrigo.wav,./stim/wavs/castilian_match_declarative-narrow-focus_Ana-lleva-el-abrigo.wav,./stim/wavs/chilean_match_declarative-narrow-focus_Ana-lleva-el-abrigo.wav,./stim/wavs/cuban_match_declarative-narrow-focus_Ana-lleva-el-abrigo.wav,./stim/wavs/mexican_match_declarative-narrow-focus_Ana-lleva-el-abrigo.wav,./stim/wavs/peruvian_match_declarative-narrow-focus_Ana-lleva-el-abrigo.wav,./stim/wavs/puertorican_match_declarative-narrow-focus_Ana-lleva-el-abrigo.wav,,,,,,,,,,,,,,,,,,,,,,,,,,,,,,,,,,,,,,,,,,,,,,,,,,,,,,,,
,,,,,,,5e9fcb1aa7eac5182448d5ab,605b45a4d25f287719a41696,605ce6762df5a601c7cbfbed,Colombia,Northeast,13 or older,no,2021-03-25_15h40.57.831,empathy_intonation_perc,2020.2.10,Win32,60,,,,,,,,,,1,argentine,0,0,1.40033,0,19,19,17,1,18,./stim/wavs/andalusian_match_interrogative-partial-wh_Cuando-leia-el-libro.wav,./stim/wavs/argentine_match_interrogative-partial-wh_Cuando-leia-el-libro.wav,./stim/wavs/castilian_match_interrogative-partial-wh_Cuando-leia-el-libro.wav,./stim/wavs/chilean_match_interrogative-partial-wh_Cuando-leia-el-libro.wav,./stim/wavs/cuban_match_interrogative-partial-wh_Cuando-leia-el-libro.wav,./stim/wavs/mexican_match_interrogative-partial-wh_Cuando-leia-el-libro.wav,./stim/wavs/peruvian_match_interrogative-partial-wh_Cuando-leia-el-libro.wav,./stim/wavs/puertorican_match_interrogative-partial-wh_Cuando-leia-el-libro.wav,,,,,,,,,,,,,,,,,,,,,,,,,,,,,,,,,,,,,,,,,,,,,,,,,,,,,,,,
,,,,,,,5e9fcb1aa7eac5182448d5ab,605b45a4d25f287719a41696,605ce6762df5a601c7cbfbed,Colombia,Northeast,13 or older,no,2021-03-25_15h40.57.831,empathy_intonation_perc,2020.2.10,Win32,60,,,,,,,,,,1,andalusian,0,0,2.020295,0,20,20,50,1,51,./stim/wavs/andalusian_mismatch_interrogative-partial-wh_Cuando-miraba-la-luna.wav,./stim/wavs/argentine_mismatch_interrogative-partial-wh_Cuando-miraba-la-luna.wav,./stim/wavs/castilian_mismatch_interrogative-partial-wh_Cuando-miraba-la-luna.wav,./stim/wavs/chilean_mismatch_interrogative-partial-wh_Cuando-miraba-la-luna.wav,./stim/wavs/cuban_mismatch_interrogative-partial-wh_Cuando-miraba-la-luna.wav,./stim/wavs/mexican_mismatch_interrogative-partial-wh_Cuando-miraba-la-luna.wav,./stim/wavs/peruvian_mismatch_interrogative-partial-wh_Cuando-miraba-la-luna.wav,./stim/wavs/puertorican_mismatch_interrogative-partial-wh_Cuando-miraba-la-luna.wav,,,,,,,,,,,,,,,,,,,,,,,,,,,,,,,,,,,,,,,,,,,,,,,,,,,,,,,,
,,,,,,,5e9fcb1aa7eac5182448d5ab,605b45a4d25f287719a41696,605ce6762df5a601c7cbfbed,Colombia,Northeast,13 or older,no,2021-03-25_15h40.57.831,empathy_intonation_perc,2020.2.10,Win32,60,,,,,,,,,,0,chilean,0,1,2.34181,0,21,21,38,1,39,./stim/wavs/andalusian_mismatch_declarative-broad-focus_Mi-novio-viene-del-lago.wav,./stim/wavs/argentine_mismatch_declarative-broad-focus_Mi-novio-viene-del-lago.wav,./stim/wavs/castilian_mismatch_declarative-broad-focus_Mi-novio-viene-del-lago.wav,./stim/wavs/chilean_mismatch_declarative-broad-focus_Mi-novio-viene-del-lago.wav,./stim/wavs/cuban_mismatch_declarative-broad-focus_Mi-novio-viene-del-lago.wav,./stim/wavs/mexican_mismatch_declarative-broad-focus_Mi-novio-viene-del-lago.wav,./stim/wavs/peruvian_mismatch_declarative-broad-focus_Mi-novio-viene-del-lago.wav,./stim/wavs/puertorican_mismatch_declarative-broad-focus_Mi-novio-viene-del-lago.wav,,,,,,,,,,,,,,,,,,,,,,,,,,,,,,,,,,,,,,,,,,,,,,,,,,,,,,,,
,,,,,,,5e9fcb1aa7eac5182448d5ab,605b45a4d25f287719a41696,605ce6762df5a601c7cbfbed,Colombia,Northeast,13 or older,no,2021-03-25_15h40.57.831,empathy_intonation_perc,2020.2.10,Win32,60,,,,,,,,,,0,argentine,0,1,1.752105,0,22,22,40,1,41,./stim/wavs/andalusian_mismatch_declarative-narrow-focus_El-bebe-comia-muy-bien.wav,./stim/wavs/argentine_mismatch_declarative-narrow-focus_El-bebe-comia-muy-bien.wav,./stim/wavs/castilian_mismatch_declarative-narrow-focus_El-bebe-comia-muy-bien.wav,./stim/wavs/chilean_mismatch_declarative-narrow-focus_El-bebe-comia-muy-bien.wav,./stim/wavs/cuban_mismatch_declarative-narrow-focus_El-bebe-comia-muy-bien.wav,./stim/wavs/mexican_mismatch_declarative-narrow-focus_El-bebe-comia-muy-bien.wav,./stim/wavs/peruvian_mismatch_declarative-narrow-focus_El-bebe-comia-muy-bien.wav,./stim/wavs/puertorican_mismatch_declarative-narrow-focus_El-bebe-comia-muy-bien.wav,,,,,,,,,,,,,,,,,,,,,,,,,,,,,,,,,,,,,,,,,,,,,,,,,,,,,,,,
,,,,,,,5e9fcb1aa7eac5182448d5ab,605b45a4d25f287719a41696,605ce6762df5a601c7cbfbed,Colombia,Northeast,13 or older,no,2021-03-25_15h40.57.831,empathy_intonation_perc,2020.2.10,Win32,60,,,,,,,,,,1,peruvian,1,1,1.66551,0,23,23,60,1,61,./stim/wavs/andalusian_mismatch_interrogative-total-yn_La-nina-lava-el-plato.wav,./stim/wavs/argentine_mismatch_interrogative-total-yn_La-nina-lava-el-plato.wav,./stim/wavs/castilian_mismatch_interrogative-total-yn_La-nina-lava-el-plato.wav,./stim/wavs/chilean_mismatch_interrogative-total-yn_La-nina-lava-el-plato.wav,./stim/wavs/cuban_mismatch_interrogative-total-yn_La-nina-lava-el-plato.wav,./stim/wavs/mexican_mismatch_interrogative-total-yn_La-nina-lava-el-plato.wav,./stim/wavs/peruvian_mismatch_interrogative-total-yn_La-nina-lava-el-plato.wav,./stim/wavs/puertorican_mismatch_interrogative-total-yn_La-nina-lava-el-plato.wav,,,,,,,,,,,,,,,,,,,,,,,,,,,,,,,,,,,,,,,,,,,,,,,,,,,,,,,,
,,,,,,,5e9fcb1aa7eac5182448d5ab,605b45a4d25f287719a41696,605ce6762df5a601c7cbfbed,Colombia,Northeast,13 or older,no,2021-03-25_15h40.57.831,empathy_intonation_perc,2020.2.10,Win32,60,,,,,,,,,,0,cuban,0,1,1.545045,0,24,24,35,1,36,./stim/wavs/andalusian_mismatch_declarative-broad-focus_La-maestra-vive-en-Paris.wav,./stim/wavs/argentine_mismatch_declarative-broad-focus_La-maestra-vive-en-Paris.wav,./stim/wavs/castilian_mismatch_declarative-broad-focus_La-maestra-vive-en-Paris.wav,./stim/wavs/chilean_mismatch_declarative-broad-focus_La-maestra-vive-en-Paris.wav,./stim/wavs/cuban_mismatch_declarative-broad-focus_La-maestra-vive-en-Paris.wav,./stim/wavs/mexican_mismatch_declarative-broad-focus_La-maestra-vive-en-Paris.wav,./stim/wavs/peruvian_mismatch_declarative-broad-focus_La-maestra-vive-en-Paris.wav,./stim/wavs/puertorican_mismatch_declarative-broad-focus_La-maestra-vive-en-Paris.wav,,,,,,,,,,,,,,,,,,,,,,,,,,,,,,,,,,,,,,,,,,,,,,,,,,,,,,,,
,,,,,,,5e9fcb1aa7eac5182448d5ab,605b45a4d25f287719a41696,605ce6762df5a601c7cbfbed,Colombia,Northeast,13 or older,no,2021-03-25_15h40.57.831,empathy_intonation_perc,2020.2.10,Win32,60,,,,,,,,,,0,castilian,0,1,1.60531,0,25,25,12,1,13,./stim/wavs/andalusian_match_declarative-narrow-focus_Manuela-vende-el-carro.wav,./stim/wavs/argentine_match_declarative-narrow-focus_Manuela-vende-el-carro.wav,./stim/wavs/castilian_match_declarative-narrow-focus_Manuela-vende-el-carro.wav,./stim/wavs/chilean_match_declarative-narrow-focus_Manuela-vende-el-carro.wav,./stim/wavs/cuban_match_declarative-narrow-focus_Manuela-vende-el-carro.wav,./stim/wavs/mexican_match_declarative-narrow-focus_Manuela-vende-el-carro.wav,./stim/wavs/peruvian_match_declarative-narrow-focus_Manuela-vende-el-carro.wav,./stim/wavs/puertorican_match_declarative-narrow-focus_Manuela-vende-el-carro.wav,,,,,,,,,,,,,,,,,,,,,,,,,,,,,,,,,,,,,,,,,,,,,,,,,,,,,,,,
,,,,,,,5e9fcb1aa7eac5182448d5ab,605b45a4d25f287719a41696,605ce6762df5a601c7cbfbed,Colombia,Northeast,13 or older,no,2021-03-25_15h40.57.831,empathy_intonation_perc,2020.2.10,Win32,60,,,,,,,,,,1,chilean,1,1,1.329745,0,26,26,23,1,24,./stim/wavs/andalusian_match_interrogative-partial-wh_Por-que-iba-a-Bolivia.wav,./stim/wavs/argentine_match_interrogative-partial-wh_Por-que-iba-a-Bolivia.wav,./stim/wavs/castilian_match_interrogative-partial-wh_Por-que-iba-a-Bolivia.wav,./stim/wavs/chilean_match_interrogative-partial-wh_Por-que-iba-a-Bolivia.wav,./stim/wavs/cuban_match_interrogative-partial-wh_Por-que-iba-a-Bolivia.wav,./stim/wavs/mexican_match_interrogative-partial-wh_Por-que-iba-a-Bolivia.wav,./stim/wavs/peruvian_match_interrogative-partial-wh_Por-que-iba-a-Bolivia.wav,./stim/wavs/puertorican_match_interrogative-partial-wh_Por-que-iba-a-Bolivia.wav,,,,,,,,,,,,,,,,,,,,,,,,,,,,,,,,,,,,,,,,,,,,,,,,,,,,,,,,
,,,,,,,5e9fcb1aa7eac5182448d5ab,605b45a4d25f287719a41696,605ce6762df5a601c7cbfbed,Colombia,Northeast,13 or older,no,2021-03-25_15h40.57.831,empathy_intonation_perc,2020.2.10,Win32,60,,,,,,,,,,0,peruvian,0,1,1.734135,0,27,27,39,1,40,./stim/wavs/andalusian_mismatch_declarative-broad-focus_Mi-tia-odia-la-lluvia.wav,./stim/wavs/argentine_mismatch_declarative-broad-focus_Mi-tia-odia-la-lluvia.wav,./stim/wavs/castilian_mismatch_declarative-broad-focus_Mi-tia-odia-la-lluvia.wav,./stim/wavs/chilean_mismatch_declarative-broad-focus_Mi-tia-odia-la-lluvia.wav,./stim/wavs/cuban_mismatch_declarative-broad-focus_Mi-tia-odia-la-lluvia.wav,./stim/wavs/mexican_mismatch_declarative-broad-focus_Mi-tia-odia-la-lluvia.wav,./stim/wavs/peruvian_mismatch_declarative-broad-focus_Mi-tia-odia-la-lluvia.wav,./stim/wavs/puertorican_mismatch_declarative-broad-focus_Mi-tia-odia-la-lluvia.wav,,,,,,,,,,,,,,,,,,,,,,,,,,,,,,,,,,,,,,,,,,,,,,,,,,,,,,,,
,,,,,,,5e9fcb1aa7eac5182448d5ab,605b45a4d25f287719a41696,605ce6762df5a601c7cbfbed,Colombia,Northeast,13 or older,no,2021-03-25_15h40.57.831,empathy_intonation_perc,2020.2.10,Win32,60,,,,,,,,,,1,mexican,1,1,1.305425,0,28,28,57,1,58,./stim/wavs/andalusian_mismatch_interrogative-total-yn_El-hombre-mira-la-luna.wav,./stim/wavs/argentine_mismatch_interrogative-total-yn_El-hombre-mira-la-luna.wav,./stim/wavs/castilian_mismatch_interrogative-total-yn_El-hombre-mira-la-luna.wav,./stim/wavs/chilean_mismatch_interrogative-total-yn_El-hombre-mira-la-luna.wav,./stim/wavs/cuban_mismatch_interrogative-total-yn_El-hombre-mira-la-luna.wav,./stim/wavs/mexican_mismatch_interrogative-total-yn_El-hombre-mira-la-luna.wav,./stim/wavs/peruvian_mismatch_interrogative-total-yn_El-hombre-mira-la-luna.wav,./stim/wavs/puertorican_mismatch_interrogative-total-yn_El-hombre-mira-la-luna.wav,,,,,,,,,,,,,,,,,,,,,,,,,,,,,,,,,,,,,,,,,,,,,,,,,,,,,,,,
,,,,,,,5e9fcb1aa7eac5182448d5ab,605b45a4d25f287719a41696,605ce6762df5a601c7cbfbed,Colombia,Northeast,13 or older,no,2021-03-25_15h40.57.831,empathy_intonation_perc,2020.2.10,Win32,60,,,,,,,,,,0,peruvian,0,1,1.68036,0,29,29,2,1,3,./stim/wavs/andalusian_match_declarative-broad-focus_David-leia-el-libro.wav,./stim/wavs/argentine_match_declarative-broad-focus_David-leia-el-libro.wav,./stim/wavs/castilian_match_declarative-broad-focus_David-leia-el-libro.wav,./stim/wavs/chilean_match_declarative-broad-focus_David-leia-el-libro.wav,./stim/wavs/cuban_match_declarative-broad-focus_David-leia-el-libro.wav,./stim/wavs/mexican_match_declarative-broad-focus_David-leia-el-libro.wav,./stim/wavs/peruvian_match_declarative-broad-focus_David-leia-el-libro.wav,./stim/wavs/puertorican_match_declarative-broad-focus_David-leia-el-libro.wav,,,,,,,,,,,,,,,,,,,,,,,,,,,,,,,,,,,,,,,,,,,,,,,,,,,,,,,,
,,,,,,,5e9fcb1aa7eac5182448d5ab,605b45a4d25f287719a41696,605ce6762df5a601c7cbfbed,Colombia,Northeast,13 or older,no,2021-03-25_15h40.57.831,empathy_intonation_perc,2020.2.10,Win32,60,,,,,,,,,,0,puertorican,0,1,1.383935,0,30,30,33,1,34,./stim/wavs/andalusian_mismatch_declarative-broad-focus_El-hombre-mira-la-luna.wav,./stim/wavs/argentine_mismatch_declarative-broad-focus_El-hombre-mira-la-luna.wav,./stim/wavs/castilian_mismatch_declarative-broad-focus_El-hombre-mira-la-luna.wav,./stim/wavs/chilean_mismatch_declarative-broad-focus_El-hombre-mira-la-luna.wav,./stim/wavs/cuban_mismatch_declarative-broad-focus_El-hombre-mira-la-luna.wav,./stim/wavs/mexican_mismatch_declarative-broad-focus_El-hombre-mira-la-luna.wav,./stim/wavs/peruvian_mismatch_declarative-broad-focus_El-hombre-mira-la-luna.wav,./stim/wavs/puertorican_mismatch_declarative-broad-focus_El-hombre-mira-la-luna.wav,,,,,,,,,,,,,,,,,,,,,,,,,,,,,,,,,,,,,,,,,,,,,,,,,,,,,,,,
,,,,,,,5e9fcb1aa7eac5182448d5ab,605b45a4d25f287719a41696,605ce6762df5a601c7cbfbed,Colombia,Northeast,13 or older,no,2021-03-25_15h40.57.831,empathy_intonation_perc,2020.2.10,Win32,60,,,,,,,,,,1,andalusian,0,0,1.5865,0,31,31,53,1,54,./stim/wavs/andalusian_mismatch_interrogative-partial-wh_Por-que-oia-el-rio.wav,./stim/wavs/argentine_mismatch_interrogative-partial-wh_Por-que-oia-el-rio.wav,./stim/wavs/castilian_mismatch_interrogative-partial-wh_Por-que-oia-el-rio.wav,./stim/wavs/chilean_mismatch_interrogative-partial-wh_Por-que-oia-el-rio.wav,./stim/wavs/cuban_mismatch_interrogative-partial-wh_Por-que-oia-el-rio.wav,./stim/wavs/mexican_mismatch_interrogative-partial-wh_Por-que-oia-el-rio.wav,./stim/wavs/peruvian_mismatch_interrogative-partial-wh_Por-que-oia-el-rio.wav,./stim/wavs/puertorican_mismatch_interrogative-partial-wh_Por-que-oia-el-rio.wav,,,,,,,,,,,,,,,,,,,,,,,,,,,,,,,,,,,,,,,,,,,,,,,,,,,,,,,,
,,,,,,,5e9fcb1aa7eac5182448d5ab,605b45a4d25f287719a41696,605ce6762df5a601c7cbfbed,Colombia,Northeast,13 or older,no,2021-03-25_15h40.57.831,empathy_intonation_perc,2020.2.10,Win32,60,,,,,,,,,,0,peruvian,0,1,1.67722,0,32,32,46,1,47,./stim/wavs/andalusian_mismatch_declarative-narrow-focus_Mi-novio-viene-del-lago.wav,./stim/wavs/argentine_mismatch_declarative-narrow-focus_Mi-novio-viene-del-lago.wav,./stim/wavs/castilian_mismatch_declarative-narrow-focus_Mi-novio-viene-del-lago.wav,./stim/wavs/chilean_mismatch_declarative-narrow-focus_Mi-novio-viene-del-lago.wav,./stim/wavs/cuban_mismatch_declarative-narrow-focus_Mi-novio-viene-del-lago.wav,./stim/wavs/mexican_mismatch_declarative-narrow-focus_Mi-novio-viene-del-lago.wav,./stim/wavs/peruvian_mismatch_declarative-narrow-focus_Mi-novio-viene-del-lago.wav,./stim/wavs/puertorican_mismatch_declarative-narrow-focus_Mi-novio-viene-del-lago.wav,,,,,,,,,,,,,,,,,,,,,,,,,,,,,,,,,,,,,,,,,,,,,,,,,,,,,,,,
,,,,,,,5e9fcb1aa7eac5182448d5ab,605b45a4d25f287719a41696,605ce6762df5a601c7cbfbed,Colombia,Northeast,13 or older,no,2021-03-25_15h40.57.831,empathy_intonation_perc,2020.2.10,Win32,60,,,,,,,,,,0,andalusian,0,1,1.554645,0,33,33,7,1,8,./stim/wavs/andalusian_match_declarative-broad-focus_Marta-abre-el-regalo.wav,./stim/wavs/argentine_match_declarative-broad-focus_Marta-abre-el-regalo.wav,./stim/wavs/castilian_match_declarative-broad-focus_Marta-abre-el-regalo.wav,./stim/wavs/chilean_match_declarative-broad-focus_Marta-abre-el-regalo.wav,./stim/wavs/cuban_match_declarative-broad-focus_Marta-abre-el-regalo.wav,./stim/wavs/mexican_match_declarative-broad-focus_Marta-abre-el-regalo.wav,./stim/wavs/peruvian_match_declarative-broad-focus_Marta-abre-el-regalo.wav,./stim/wavs/puertorican_match_declarative-broad-focus_Marta-abre-el-regalo.wav,,,,,,,,,,,,,,,,,,,,,,,,,,,,,,,,,,,,,,,,,,,,,,,,,,,,,,,,
,,,,,,,5e9fcb1aa7eac5182448d5ab,605b45a4d25f287719a41696,605ce6762df5a601c7cbfbed,Colombia,Northeast,13 or older,no,2021-03-25_15h40.57.831,empathy_intonation_perc,2020.2.10,Win32,60,,,,,,,,,,1,cuban,0,0,1.434905,0,34,34,29,1,30,./stim/wavs/andalusian_match_interrogative-total-yn_Maria-bebe-el-vino.wav,./stim/wavs/argentine_match_interrogative-total-yn_Maria-bebe-el-vino.wav,./stim/wavs/castilian_match_interrogative-total-yn_Maria-bebe-el-vino.wav,./stim/wavs/chilean_match_interrogative-total-yn_Maria-bebe-el-vino.wav,./stim/wavs/cuban_match_interrogative-total-yn_Maria-bebe-el-vino.wav,./stim/wavs/mexican_match_interrogative-total-yn_Maria-bebe-el-vino.wav,./stim/wavs/peruvian_match_interrogative-total-yn_Maria-bebe-el-vino.wav,./stim/wavs/puertorican_match_interrogative-total-yn_Maria-bebe-el-vino.wav,,,,,,,,,,,,,,,,,,,,,,,,,,,,,,,,,,,,,,,,,,,,,,,,,,,,,,,,
,,,,,,,5e9fcb1aa7eac5182448d5ab,605b45a4d25f287719a41696,605ce6762df5a601c7cbfbed,Colombia,Northeast,13 or older,no,2021-03-25_15h40.57.831,empathy_intonation_perc,2020.2.10,Win32,60,,,,,,,,,,1,andalusian,1,1,1.30159,0,35,35,18,1,19,./stim/wavs/andalusian_match_interrogative-partial-wh_Cuando-lleva-el-abrigo.wav,./stim/wavs/argentine_match_interrogative-partial-wh_Cuando-lleva-el-abrigo.wav,./stim/wavs/castilian_match_interrogative-partial-wh_Cuando-lleva-el-abrigo.wav,./stim/wavs/chilean_match_interrogative-partial-wh_Cuando-lleva-el-abrigo.wav,./stim/wavs/cuban_match_interrogative-partial-wh_Cuando-lleva-el-abrigo.wav,./stim/wavs/mexican_match_interrogative-partial-wh_Cuando-lleva-el-abrigo.wav,./stim/wavs/peruvian_match_interrogative-partial-wh_Cuando-lleva-el-abrigo.wav,./stim/wavs/puertorican_match_interrogative-partial-wh_Cuando-lleva-el-abrigo.wav,,,,,,,,,,,,,,,,,,,,,,,,,,,,,,,,,,,,,,,,,,,,,,,,,,,,,,,,
,,,,,,,5e9fcb1aa7eac5182448d5ab,605b45a4d25f287719a41696,605ce6762df5a601c7cbfbed,Colombia,Northeast,13 or older,no,2021-03-25_15h40.57.831,empathy_intonation_perc,2020.2.10,Win32,60,,,,,,,,,,1,peruvian,1,1,2.013905,0,36,36,54,1,55,./stim/wavs/andalusian_mismatch_interrogative-partial-wh_Por-que-venia-del-lago.wav,./stim/wavs/argentine_mismatch_interrogative-partial-wh_Por-que-venia-del-lago.wav,./stim/wavs/castilian_mismatch_interrogative-partial-wh_Por-que-venia-del-lago.wav,./stim/wavs/chilean_mismatch_interrogative-partial-wh_Por-que-venia-del-lago.wav,./stim/wavs/cuban_mismatch_interrogative-partial-wh_Por-que-venia-del-lago.wav,./stim/wavs/mexican_mismatch_interrogative-partial-wh_Por-que-venia-del-lago.wav,./stim/wavs/peruvian_mismatch_interrogative-partial-wh_Por-que-venia-del-lago.wav,./stim/wavs/puertorican_mismatch_interrogative-partial-wh_Por-que-venia-del-lago.wav,,,,,,,,,,,,,,,,,,,,,,,,,,,,,,,,,,,,,,,,,,,,,,,,,,,,,,,,
,,,,,,,5e9fcb1aa7eac5182448d5ab,605b45a4d25f287719a41696,605ce6762df5a601c7cbfbed,Colombia,Northeast,13 or older,no,2021-03-25_15h40.57.831,empathy_intonation_perc,2020.2.10,Win32,60,,,,,,,,,,0,peruvian,0,1,1.245435,0,37,37,6,1,7,./stim/wavs/andalusian_match_declarative-broad-focus_Mariano-habla-del-tiempo.wav,./stim/wavs/argentine_match_declarative-broad-focus_Mariano-habla-del-tiempo.wav,./stim/wavs/castilian_match_declarative-broad-focus_Mariano-habla-del-tiempo.wav,./stim/wavs/chilean_match_declarative-broad-focus_Mariano-habla-del-tiempo.wav,./stim/wavs/cuban_match_declarative-broad-focus_Mariano-habla-del-tiempo.wav,./stim/wavs/mexican_match_declarative-broad-focus_Mariano-habla-del-tiempo.wav,./stim/wavs/peruvian_match_declarative-broad-focus_Mariano-habla-del-tiempo.wav,./stim/wavs/puertorican_match_declarative-broad-focus_Mariano-habla-del-tiempo.wav,,,,,,,,,,,,,,,,,,,,,,,,,,,,,,,,,,,,,,,,,,,,,,,,,,,,,,,,
,,,,,,,5e9fcb1aa7eac5182448d5ab,605b45a4d25f287719a41696,605ce6762df5a601c7cbfbed,Colombia,Northeast,13 or older,no,2021-03-25_15h40.57.831,empathy_intonation_perc,2020.2.10,Win32,60,,,,,,,,,,0,castilian,0,1,1.676265,0,38,38,5,1,6,./stim/wavs/andalusian_match_declarative-broad-focus_Maria-bebe-el-vino.wav,./stim/wavs/argentine_match_declarative-broad-focus_Maria-bebe-el-vino.wav,./stim/wavs/castilian_match_declarative-broad-focus_Maria-bebe-el-vino.wav,./stim/wavs/chilean_match_declarative-broad-focus_Maria-bebe-el-vino.wav,./stim/wavs/cuban_match_declarative-broad-focus_Maria-bebe-el-vino.wav,./stim/wavs/mexican_match_declarative-broad-focus_Maria-bebe-el-vino.wav,./stim/wavs/peruvian_match_declarative-broad-focus_Maria-bebe-el-vino.wav,./stim/wavs/puertorican_match_declarative-broad-focus_Maria-bebe-el-vino.wav,,,,,,,,,,,,,,,,,,,,,,,,,,,,,,,,,,,,,,,,,,,,,,,,,,,,,,,,
,,,,,,,5e9fcb1aa7eac5182448d5ab,605b45a4d25f287719a41696,605ce6762df5a601c7cbfbed,Colombia,Northeast,13 or older,no,2021-03-25_15h40.57.831,empathy_intonation_perc,2020.2.10,Win32,60,,,,,,,,,,1,castilian,1,1,1.620755,0,39,39,61,1,62,./stim/wavs/andalusian_mismatch_interrogative-total-yn_Mi-madre-come-la-fruta.wav,./stim/wavs/argentine_mismatch_interrogative-total-yn_Mi-madre-come-la-fruta.wav,./stim/wavs/castilian_mismatch_interrogative-total-yn_Mi-madre-come-la-fruta.wav,./stim/wavs/chilean_mismatch_interrogative-total-yn_Mi-madre-come-la-fruta.wav,./stim/wavs/cuban_mismatch_interrogative-total-yn_Mi-madre-come-la-fruta.wav,./stim/wavs/mexican_mismatch_interrogative-total-yn_Mi-madre-come-la-fruta.wav,./stim/wavs/peruvian_mismatch_interrogative-total-yn_Mi-madre-come-la-fruta.wav,./stim/wavs/puertorican_mismatch_interrogative-total-yn_Mi-madre-come-la-fruta.wav,,,,,,,,,,,,,,,,,,,,,,,,,,,,,,,,,,,,,,,,,,,,,,,,,,,,,,,,
,,,,,,,5e9fcb1aa7eac5182448d5ab,605b45a4d25f287719a41696,605ce6762df5a601c7cbfbed,Colombia,Northeast,13 or older,no,2021-03-25_15h40.57.831,empathy_intonation_perc,2020.2.10,Win32,60,,,,,,,,,,0,puertorican,0,1,1.331595,0,40,40,10,1,11,./stim/wavs/andalusian_match_declarative-narrow-focus_David-leia-el-libro.wav,./stim/wavs/argentine_match_declarative-narrow-focus_David-leia-el-libro.wav,./stim/wavs/castilian_match_declarative-narrow-focus_David-leia-el-libro.wav,./stim/wavs/chilean_match_declarative-narrow-focus_David-leia-el-libro.wav,./stim/wavs/cuban_match_declarative-narrow-focus_David-leia-el-libro.wav,./stim/wavs/mexican_match_declarative-narrow-focus_David-leia-el-libro.wav,./stim/wavs/peruvian_match_declarative-narrow-focus_David-leia-el-libro.wav,./stim/wavs/puertorican_match_declarative-narrow-focus_David-leia-el-libro.wav,,,,,,,,,,,,,,,,,,,,,,,,,,,,,,,,,,,,,,,,,,,,,,,,,,,,,,,,
,,,,,,,5e9fcb1aa7eac5182448d5ab,605b45a4d25f287719a41696,605ce6762df5a601c7cbfbed,Colombia,Northeast,13 or older,no,2021-03-25_15h40.57.831,empathy_intonation_perc,2020.2.10,Win32,60,,,,,,,,,,1,andalusian,1,1,1.63642,0,41,41,27,1,28,./stim/wavs/andalusian_match_interrogative-total-yn_Emilio-ama-la-marcha.wav,./stim/wavs/argentine_match_interrogative-total-yn_Emilio-ama-la-marcha.wav,./stim/wavs/castilian_match_interrogative-total-yn_Emilio-ama-la-marcha.wav,./stim/wavs/chilean_match_interrogative-total-yn_Emilio-ama-la-marcha.wav,./stim/wavs/cuban_match_interrogative-total-yn_Emilio-ama-la-marcha.wav,./stim/wavs/mexican_match_interrogative-total-yn_Emilio-ama-la-marcha.wav,./stim/wavs/peruvian_match_interrogative-total-yn_Emilio-ama-la-marcha.wav,./stim/wavs/puertorican_match_interrogative-total-yn_Emilio-ama-la-marcha.wav,,,,,,,,,,,,,,,,,,,,,,,,,,,,,,,,,,,,,,,,,,,,,,,,,,,,,,,,
,,,,,,,5e9fcb1aa7eac5182448d5ab,605b45a4d25f287719a41696,605ce6762df5a601c7cbfbed,Colombia,Northeast,13 or older,no,2021-03-25_15h40.57.831,empathy_intonation_perc,2020.2.10,Win32,60,,,,,,,,,,0,mexican,0,1,1.711865,0,42,42,32,1,33,./stim/wavs/andalusian_mismatch_declarative-broad-focus_El-bebe-comia-muy-bien.wav,./stim/wavs/argentine_mismatch_declarative-broad-focus_El-bebe-comia-muy-bien.wav,./stim/wavs/castilian_mismatch_declarative-broad-focus_El-bebe-comia-muy-bien.wav,./stim/wavs/chilean_mismatch_declarative-broad-focus_El-bebe-comia-muy-bien.wav,./stim/wavs/cuban_mismatch_declarative-broad-focus_El-bebe-comia-muy-bien.wav,./stim/wavs/mexican_mismatch_declarative-broad-focus_El-bebe-comia-muy-bien.wav,./stim/wavs/peruvian_mismatch_declarative-broad-focus_El-bebe-comia-muy-bien.wav,./stim/wavs/puertorican_mismatch_declarative-broad-focus_El-bebe-comia-muy-bien.wav,,,,,,,,,,,,,,,,,,,,,,,,,,,,,,,,,,,,,,,,,,,,,,,,,,,,,,,,
,,,,,,,5e9fcb1aa7eac5182448d5ab,605b45a4d25f287719a41696,605ce6762df5a601c7cbfbed,Colombia,Northeast,13 or older,no,2021-03-25_15h40.57.831,empathy_intonation_perc,2020.2.10,Win32,60,,,,,,,,,,1,andalusian,1,1,1.417595,0,43,43,56,1,57,./stim/wavs/andalusian_mismatch_interrogative-total-yn_El-bebe-comia-muy-bien.wav,./stim/wavs/argentine_mismatch_interrogative-total-yn_El-bebe-comia-muy-bien.wav,./stim/wavs/castilian_mismatch_interrogative-total-yn_El-bebe-comia-muy-bien.wav,./stim/wavs/chilean_mismatch_interrogative-total-yn_El-bebe-comia-muy-bien.wav,./stim/wavs/cuban_mismatch_interrogative-total-yn_El-bebe-comia-muy-bien.wav,./stim/wavs/mexican_mismatch_interrogative-total-yn_El-bebe-comia-muy-bien.wav,./stim/wavs/peruvian_mismatch_interrogative-total-yn_El-bebe-comia-muy-bien.wav,./stim/wavs/puertorican_mismatch_interrogative-total-yn_El-bebe-comia-muy-bien.wav,,,,,,,,,,,,,,,,,,,,,,,,,,,,,,,,,,,,,,,,,,,,,,,,,,,,,,,,
,,,,,,,5e9fcb1aa7eac5182448d5ab,605b45a4d25f287719a41696,605ce6762df5a601c7cbfbed,Colombia,Northeast,13 or older,no,2021-03-25_15h40.57.831,empathy_intonation_perc,2020.2.10,Win32,60,,,,,,,,,,1,chilean,0,0,1.6325,0,44,44,31,1,32,./stim/wavs/andalusian_match_interrogative-total-yn_Marta-abre-el-regalo.wav,./stim/wavs/argentine_match_interrogative-total-yn_Marta-abre-el-regalo.wav,./stim/wavs/castilian_match_interrogative-total-yn_Marta-abre-el-regalo.wav,./stim/wavs/chilean_match_interrogative-total-yn_Marta-abre-el-regalo.wav,./stim/wavs/cuban_match_interrogative-total-yn_Marta-abre-el-regalo.wav,./stim/wavs/mexican_match_interrogative-total-yn_Marta-abre-el-regalo.wav,./stim/wavs/peruvian_match_interrogative-total-yn_Marta-abre-el-regalo.wav,./stim/wavs/puertorican_match_interrogative-total-yn_Marta-abre-el-regalo.wav,,,,,,,,,,,,,,,,,,,,,,,,,,,,,,,,,,,,,,,,,,,,,,,,,,,,,,,,
,,,,,,,5e9fcb1aa7eac5182448d5ab,605b45a4d25f287719a41696,605ce6762df5a601c7cbfbed,Colombia,Northeast,13 or older,no,2021-03-25_15h40.57.831,empathy_intonation_perc,2020.2.10,Win32,60,,,,,,,,,,1,puertorican,1,1,2.368595,0,45,45,49,1,50,./stim/wavs/andalusian_mismatch_interrogative-partial-wh_Cuando-lavaba-el-plato.wav,./stim/wavs/argentine_mismatch_interrogative-partial-wh_Cuando-lavaba-el-plato.wav,./stim/wavs/castilian_mismatch_interrogative-partial-wh_Cuando-lavaba-el-plato.wav,./stim/wavs/chilean_mismatch_interrogative-partial-wh_Cuando-lavaba-el-plato.wav,./stim/wavs/cuban_mismatch_interrogative-partial-wh_Cuando-lavaba-el-plato.wav,./stim/wavs/mexican_mismatch_interrogative-partial-wh_Cuando-lavaba-el-plato.wav,./stim/wavs/peruvian_mismatch_interrogative-partial-wh_Cuando-lavaba-el-plato.wav,./stim/wavs/puertorican_mismatch_interrogative-partial-wh_Cuando-lavaba-el-plato.wav,,,,,,,,,,,,,,,,,,,,,,,,,,,,,,,,,,,,,,,,,,,,,,,,,,,,,,,,
,,,,,,,5e9fcb1aa7eac5182448d5ab,605b45a4d25f287719a41696,605ce6762df5a601c7cbfbed,Colombia,Northeast,13 or older,no,2021-03-25_15h40.57.831,empathy_intonation_perc,2020.2.10,Win32,60,,,,,,,,,,0,argentine,0,1,3.58238,0,46,46,4,1,5,./stim/wavs/andalusian_match_declarative-broad-focus_Manuela-vende-el-carro.wav,./stim/wavs/argentine_match_declarative-broad-focus_Manuela-vende-el-carro.wav,./stim/wavs/castilian_match_declarative-broad-focus_Manuela-vende-el-carro.wav,./stim/wavs/chilean_match_declarative-broad-focus_Manuela-vende-el-carro.wav,./stim/wavs/cuban_match_declarative-broad-focus_Manuela-vende-el-carro.wav,./stim/wavs/mexican_match_declarative-broad-focus_Manuela-vende-el-carro.wav,./stim/wavs/peruvian_match_declarative-broad-focus_Manuela-vende-el-carro.wav,./stim/wavs/puertorican_match_declarative-broad-focus_Manuela-vende-el-carro.wav,,,,,,,,,,,,,,,,,,,,,,,,,,,,,,,,,,,,,,,,,,,,,,,,,,,,,,,,
,,,,,,,5e9fcb1aa7eac5182448d5ab,605b45a4d25f287719a41696,605ce6762df5a601c7cbfbed,Colombia,Northeast,13 or older,no,2021-03-25_15h40.57.831,empathy_intonation_perc,2020.2.10,Win32,60,,,,,,,,,,1,cuban,1,1,1.40434,0,47,47,21,1,22,./stim/wavs/andalusian_match_interrogative-partial-wh_Por-que-ama-la-navidad.wav,./stim/wavs/argentine_match_interrogative-partial-wh_Por-que-ama-la-navidad.wav,./stim/wavs/castilian_match_interrogative-partial-wh_Por-que-ama-la-navidad.wav,./stim/wavs/chilean_match_interrogative-partial-wh_Por-que-ama-la-navidad.wav,./stim/wavs/cuban_match_interrogative-partial-wh_Por-que-ama-la-navidad.wav,./stim/wavs/mexican_match_interrogative-partial-wh_Por-que-ama-la-navidad.wav,./stim/wavs/peruvian_match_interrogative-partial-wh_Por-que-ama-la-navidad.wav,./stim/wavs/puertorican_match_interrogative-partial-wh_Por-que-ama-la-navidad.wav,,,,,,,,,,,,,,,,,,,,,,,,,,,,,,,,,,,,,,,,,,,,,,,,,,,,,,,,
,,,,,,,5e9fcb1aa7eac5182448d5ab,605b45a4d25f287719a41696,605ce6762df5a601c7cbfbed,Colombia,Northeast,13 or older,no,2021-03-25_15h40.57.831,empathy_intonation_perc,2020.2.10,Win32,60,,,,,,,,,,1,mexican,1,1,1.603725,0,48,48,59,1,60,./stim/wavs/andalusian_mismatch_interrogative-total-yn_La-maestra-vive-en-Paris.wav,./stim/wavs/argentine_mismatch_interrogative-total-yn_La-maestra-vive-en-Paris.wav,./stim/wavs/castilian_mismatch_interrogative-total-yn_La-maestra-vive-en-Paris.wav,./stim/wavs/chilean_mismatch_interrogative-total-yn_La-maestra-vive-en-Paris.wav,./stim/wavs/cuban_mismatch_interrogative-total-yn_La-maestra-vive-en-Paris.wav,./stim/wavs/mexican_mismatch_interrogative-total-yn_La-maestra-vive-en-Paris.wav,./stim/wavs/peruvian_mismatch_interrogative-total-yn_La-maestra-vive-en-Paris.wav,./stim/wavs/puertorican_mismatch_interrogative-total-yn_La-maestra-vive-en-Paris.wav,,,,,,,,,,,,,,,,,,,,,,,,,,,,,,,,,,,,,,,,,,,,,,,,,,,,,,,,
,,,,,,,5e9fcb1aa7eac5182448d5ab,605b45a4d25f287719a41696,605ce6762df5a601c7cbfbed,Colombia,Northeast,13 or older,no,2021-03-25_15h40.57.831,empathy_intonation_perc,2020.2.10,Win32,60,,,,,,,,,,0,andalusian,0,1,2.3539,0,49,49,37,1,38,./stim/wavs/andalusian_mismatch_declarative-broad-focus_Mi-madre-come-la-fruta.wav,./stim/wavs/argentine_mismatch_declarative-broad-focus_Mi-madre-come-la-fruta.wav,./stim/wavs/castilian_mismatch_declarative-broad-focus_Mi-madre-come-la-fruta.wav,./stim/wavs/chilean_mismatch_declarative-broad-focus_Mi-madre-come-la-fruta.wav,./stim/wavs/cuban_mismatch_declarative-broad-focus_Mi-madre-come-la-fruta.wav,./stim/wavs/mexican_mismatch_declarative-broad-focus_Mi-madre-come-la-fruta.wav,./stim/wavs/peruvian_mismatch_declarative-broad-focus_Mi-madre-come-la-fruta.wav,./stim/wavs/puertorican_mismatch_declarative-broad-focus_Mi-madre-come-la-fruta.wav,,,,,,,,,,,,,,,,,,,,,,,,,,,,,,,,,,,,,,,,,,,,,,,,,,,,,,,,
,,,,,,,5e9fcb1aa7eac5182448d5ab,605b45a4d25f287719a41696,605ce6762df5a601c7cbfbed,Colombia,Northeast,13 or older,no,2021-03-25_15h40.57.831,empathy_intonation_perc,2020.2.10,Win32,60,,,,,,,,,,1,mexican,1,1,1.972625,0,50,50,22,1,23,./stim/wavs/andalusian_match_interrogative-partial-wh_Por-que-hablaba-del-agua.wav,./stim/wavs/argentine_match_interrogative-partial-wh_Por-que-hablaba-del-agua.wav,./stim/wavs/castilian_match_interrogative-partial-wh_Por-que-hablaba-del-agua.wav,./stim/wavs/chilean_match_interrogative-partial-wh_Por-que-hablaba-del-agua.wav,./stim/wavs/cuban_match_interrogative-partial-wh_Por-que-hablaba-del-agua.wav,./stim/wavs/mexican_match_interrogative-partial-wh_Por-que-hablaba-del-agua.wav,./stim/wavs/peruvian_match_interrogative-partial-wh_Por-que-hablaba-del-agua.wav,./stim/wavs/puertorican_match_interrogative-partial-wh_Por-que-hablaba-del-agua.wav,,,,,,,,,,,,,,,,,,,,,,,,,,,,,,,,,,,,,,,,,,,,,,,,,,,,,,,,
,,,,,,,5e9fcb1aa7eac5182448d5ab,605b45a4d25f287719a41696,605ce6762df5a601c7cbfbed,Colombia,Northeast,13 or older,no,2021-03-25_15h40.57.831,empathy_intonation_perc,2020.2.10,Win32,60,,,,,,,,,,1,castilian,1,1,1.626535,0,51,51,19,1,20,./stim/wavs/andalusian_match_interrogative-partial-wh_Cuando-vendia-el-carro.wav,./stim/wavs/argentine_match_interrogative-partial-wh_Cuando-vendia-el-carro.wav,./stim/wavs/castilian_match_interrogative-partial-wh_Cuando-vendia-el-carro.wav,./stim/wavs/chilean_match_interrogative-partial-wh_Cuando-vendia-el-carro.wav,./stim/wavs/cuban_match_interrogative-partial-wh_Cuando-vendia-el-carro.wav,./stim/wavs/mexican_match_interrogative-partial-wh_Cuando-vendia-el-carro.wav,./stim/wavs/peruvian_match_interrogative-partial-wh_Cuando-vendia-el-carro.wav,./stim/wavs/puertorican_match_interrogative-partial-wh_Cuando-vendia-el-carro.wav,,,,,,,,,,,,,,,,,,,,,,,,,,,,,,,,,,,,,,,,,,,,,,,,,,,,,,,,
,,,,,,,5e9fcb1aa7eac5182448d5ab,605b45a4d25f287719a41696,605ce6762df5a601c7cbfbed,Colombia,Northeast,13 or older,no,2021-03-25_15h40.57.831,empathy_intonation_perc,2020.2.10,Win32,60,,,,,,,,,,0,mexican,0,1,1.48547,0,52,52,44,1,45,./stim/wavs/andalusian_mismatch_declarative-narrow-focus_La-nina-lava-el-plato.wav,./stim/wavs/argentine_mismatch_declarative-narrow-focus_La-nina-lava-el-plato.wav,./stim/wavs/castilian_mismatch_declarative-narrow-focus_La-nina-lava-el-plato.wav,./stim/wavs/chilean_mismatch_declarative-narrow-focus_La-nina-lava-el-plato.wav,./stim/wavs/cuban_mismatch_declarative-narrow-focus_La-nina-lava-el-plato.wav,./stim/wavs/mexican_mismatch_declarative-narrow-focus_La-nina-lava-el-plato.wav,./stim/wavs/peruvian_mismatch_declarative-narrow-focus_La-nina-lava-el-plato.wav,./stim/wavs/puertorican_mismatch_declarative-narrow-focus_La-nina-lava-el-plato.wav,,,,,,,,,,,,,,,,,,,,,,,,,,,,,,,,,,,,,,,,,,,,,,,,,,,,,,,,
,,,,,,,5e9fcb1aa7eac5182448d5ab,605b45a4d25f287719a41696,605ce6762df5a601c7cbfbed,Colombia,Northeast,13 or older,no,2021-03-25_15h40.57.831,empathy_intonation_perc,2020.2.10,Win32,60,,,,,,,,,,1,chilean,1,1,2.062445,0,53,53,63,1,64,./stim/wavs/andalusian_mismatch_interrogative-total-yn_Mi-tia-odia-la-lluvia.wav,./stim/wavs/argentine_mismatch_interrogative-total-yn_Mi-tia-odia-la-lluvia.wav,./stim/wavs/castilian_mismatch_interrogative-total-yn_Mi-tia-odia-la-lluvia.wav,./stim/wavs/chilean_mismatch_interrogative-total-yn_Mi-tia-odia-la-lluvia.wav,./stim/wavs/cuban_mismatch_interrogative-total-yn_Mi-tia-odia-la-lluvia.wav,./stim/wavs/mexican_mismatch_interrogative-total-yn_Mi-tia-odia-la-lluvia.wav,./stim/wavs/peruvian_mismatch_interrogative-total-yn_Mi-tia-odia-la-lluvia.wav,./stim/wavs/puertorican_mismatch_interrogative-total-yn_Mi-tia-odia-la-lluvia.wav,,,,,,,,,,,,,,,,,,,,,,,,,,,,,,,,,,,,,,,,,,,,,,,,,,,,,,,,
,,,,,,,5e9fcb1aa7eac5182448d5ab,605b45a4d25f287719a41696,605ce6762df5a601c7cbfbed,Colombia,Northeast,13 or older,no,2021-03-25_15h40.57.831,empathy_intonation_perc,2020.2.10,Win32,60,,,,,,,,,,1,cuban,0,0,1.585985,0,54,54,20,1,21,./stim/wavs/andalusian_match_interrogative-partial-wh_Por-que-abre-el-regalo.wav,./stim/wavs/argentine_match_interrogative-partial-wh_Por-que-abre-el-regalo.wav,./stim/wavs/castilian_match_interrogative-partial-wh_Por-que-abre-el-regalo.wav,./stim/wavs/chilean_match_interrogative-partial-wh_Por-que-abre-el-regalo.wav,./stim/wavs/cuban_match_interrogative-partial-wh_Por-que-abre-el-regalo.wav,./stim/wavs/mexican_match_interrogative-partial-wh_Por-que-abre-el-regalo.wav,./stim/wavs/peruvian_match_interrogative-partial-wh_Por-que-abre-el-regalo.wav,./stim/wavs/puertorican_match_interrogative-partial-wh_Por-que-abre-el-regalo.wav,,,,,,,,,,,,,,,,,,,,,,,,,,,,,,,,,,,,,,,,,,,,,,,,,,,,,,,,
,,,,,,,5e9fcb1aa7eac5182448d5ab,605b45a4d25f287719a41696,605ce6762df5a601c7cbfbed,Colombia,Northeast,13 or older,no,2021-03-25_15h40.57.831,empathy_intonation_perc,2020.2.10,Win32,60,,,,,,,,,,1,castilian,1,1,1.706335,0,55,55,48,1,49,./stim/wavs/andalusian_mismatch_interrogative-partial-wh_Cuando-comia-la-fruta.wav,./stim/wavs/argentine_mismatch_interrogative-partial-wh_Cuando-comia-la-fruta.wav,./stim/wavs/castilian_mismatch_interrogative-partial-wh_Cuando-comia-la-fruta.wav,./stim/wavs/chilean_mismatch_interrogative-partial-wh_Cuando-comia-la-fruta.wav,./stim/wavs/cuban_mismatch_interrogative-partial-wh_Cuando-comia-la-fruta.wav,./stim/wavs/mexican_mismatch_interrogative-partial-wh_Cuando-comia-la-fruta.wav,./stim/wavs/peruvian_mismatch_interrogative-partial-wh_Cuando-comia-la-fruta.wav,./stim/wavs/puertorican_mismatch_interrogative-partial-wh_Cuando-comia-la-fruta.wav,,,,,,,,,,,,,,,,,,,,,,,,,,,,,,,,,,,,,,,,,,,,,,,,,,,,,,,,
,,,,,,,5e9fcb1aa7eac5182448d5ab,605b45a4d25f287719a41696,605ce6762df5a601c7cbfbed,Colombia,Northeast,13 or older,no,2021-03-25_15h40.57.831,empathy_intonation_perc,2020.2.10,Win32,60,,,,,,,,,,0,chilean,0,1,2.40667,0,56,56,42,1,43,./stim/wavs/andalusian_mismatch_declarative-narrow-focus_El-nino-oye-el-rio.wav,./stim/wavs/argentine_mismatch_declarative-narrow-focus_El-nino-oye-el-rio.wav,./stim/wavs/castilian_mismatch_declarative-narrow-focus_El-nino-oye-el-rio.wav,./stim/wavs/chilean_mismatch_declarative-narrow-focus_El-nino-oye-el-rio.wav,./stim/wavs/cuban_mismatch_declarative-narrow-focus_El-nino-oye-el-rio.wav,./stim/wavs/mexican_mismatch_declarative-narrow-focus_El-nino-oye-el-rio.wav,./stim/wavs/peruvian_mismatch_declarative-narrow-focus_El-nino-oye-el-rio.wav,./stim/wavs/puertorican_mismatch_declarative-narrow-focus_El-nino-oye-el-rio.wav,,,,,,,,,,,,,,,,,,,,,,,,,,,,,,,,,,,,,,,,,,,,,,,,,,,,,,,,
,,,,,,,5e9fcb1aa7eac5182448d5ab,605b45a4d25f287719a41696,605ce6762df5a601c7cbfbed,Colombia,Northeast,13 or older,no,2021-03-25_15h40.57.831,empathy_intonation_perc,2020.2.10,Win32,60,,,,,,,,,,0,puertorican,0,1,1.52186,0,57,57,9,1,10,./stim/wavs/andalusian_match_declarative-narrow-focus_Daniel-iba-a-Bolivia.wav,./stim/wavs/argentine_match_declarative-narrow-focus_Daniel-iba-a-Bolivia.wav,./stim/wavs/castilian_match_declarative-narrow-focus_Daniel-iba-a-Bolivia.wav,./stim/wavs/chilean_match_declarative-narrow-focus_Daniel-iba-a-Bolivia.wav,./stim/wavs/cuban_match_declarative-narrow-focus_Daniel-iba-a-Bolivia.wav,./stim/wavs/mexican_match_declarative-narrow-focus_Daniel-iba-a-Bolivia.wav,./stim/wavs/peruvian_match_declarative-narrow-focus_Daniel-iba-a-Bolivia.wav,./stim/wavs/puertorican_match_declarative-narrow-focus_Daniel-iba-a-Bolivia.wav,,,,,,,,,,,,,,,,,,,,,,,,,,,,,,,,,,,,,,,,,,,,,,,,,,,,,,,,
,,,,,,,5e9fcb1aa7eac5182448d5ab,605b45a4d25f287719a41696,605ce6762df5a601c7cbfbed,Colombia,Northeast,13 or older,no,2021-03-25_15h40.57.831,empathy_intonation_perc,2020.2.10,Win32,60,,,,,,,,,,1,castilian,1,1,1.992915,0,58,58,52,1,53,./stim/wavs/andalusian_mismatch_interrogative-partial-wh_Por-que-odiaba-la-lluvia.wav,./stim/wavs/argentine_mismatch_interrogative-partial-wh_Por-que-odiaba-la-lluvia.wav,./stim/wavs/castilian_mismatch_interrogative-partial-wh_Por-que-odiaba-la-lluvia.wav,./stim/wavs/chilean_mismatch_interrogative-partial-wh_Por-que-odiaba-la-lluvia.wav,./stim/wavs/cuban_mismatch_interrogative-partial-wh_Por-que-odiaba-la-lluvia.wav,./stim/wavs/mexican_mismatch_interrogative-partial-wh_Por-que-odiaba-la-lluvia.wav,./stim/wavs/peruvian_mismatch_interrogative-partial-wh_Por-que-odiaba-la-lluvia.wav,./stim/wavs/puertorican_mismatch_interrogative-partial-wh_Por-que-odiaba-la-lluvia.wav,,,,,,,,,,,,,,,,,,,,,,,,,,,,,,,,,,,,,,,,,,,,,,,,,,,,,,,,
,,,,,,,5e9fcb1aa7eac5182448d5ab,605b45a4d25f287719a41696,605ce6762df5a601c7cbfbed,Colombia,Northeast,13 or older,no,2021-03-25_15h40.57.831,empathy_intonation_perc,2020.2.10,Win32,60,,,,,,,,,,0,mexican,0,1,1.72102,0,59,59,3,1,4,./stim/wavs/andalusian_match_declarative-broad-focus_Emilio-ama-la-marcha.wav,./stim/wavs/argentine_match_declarative-broad-focus_Emilio-ama-la-marcha.wav,./stim/wavs/castilian_match_declarative-broad-focus_Emilio-ama-la-marcha.wav,./stim/wavs/chilean_match_declarative-broad-focus_Emilio-ama-la-marcha.wav,./stim/wavs/cuban_match_declarative-broad-focus_Emilio-ama-la-marcha.wav,./stim/wavs/mexican_match_declarative-broad-focus_Emilio-ama-la-marcha.wav,./stim/wavs/peruvian_match_declarative-broad-focus_Emilio-ama-la-marcha.wav,./stim/wavs/puertorican_match_declarative-broad-focus_Emilio-ama-la-marcha.wav,,,,,,,,,,,,,,,,,,,,,,,,,,,,,,,,,,,,,,,,,,,,,,,,,,,,,,,,
,,,,,,,5e9fcb1aa7eac5182448d5ab,605b45a4d25f287719a41696,605ce6762df5a601c7cbfbed,Colombia,Northeast,13 or older,no,2021-03-25_15h40.57.831,empathy_intonation_perc,2020.2.10,Win32,60,,,,,,,,,,1,argentine,0,0,3.488405,0,60,60,16,1,17,./stim/wavs/andalusian_match_interrogative-partial-wh_Cuando-bebia-el-vino.wav,./stim/wavs/argentine_match_interrogative-partial-wh_Cuando-bebia-el-vino.wav,./stim/wavs/castilian_match_interrogative-partial-wh_Cuando-bebia-el-vino.wav,./stim/wavs/chilean_match_interrogative-partial-wh_Cuando-bebia-el-vino.wav,./stim/wavs/cuban_match_interrogative-partial-wh_Cuando-bebia-el-vino.wav,./stim/wavs/mexican_match_interrogative-partial-wh_Cuando-bebia-el-vino.wav,./stim/wavs/peruvian_match_interrogative-partial-wh_Cuando-bebia-el-vino.wav,./stim/wavs/puertorican_match_interrogative-partial-wh_Cuando-bebia-el-vino.wav,,,,,,,,,,,,,,,,,,,,,,,,,,,,,,,,,,,,,,,,,,,,,,,,,,,,,,,,
,,,,,,,5e9fcb1aa7eac5182448d5ab,605b45a4d25f287719a41696,605ce6762df5a601c7cbfbed,Colombia,Northeast,13 or older,no,2021-03-25_15h40.57.831,empathy_intonation_perc,2020.2.10,Win32,60,,,,,,,,,,1,puertorican,0,0,1.83066,0,61,61,25,1,26,./stim/wavs/andalusian_match_interrogative-total-yn_Daniel-iba-a-Bolivia.wav,./stim/wavs/argentine_match_interrogative-total-yn_Daniel-iba-a-Bolivia.wav,./stim/wavs/castilian_match_interrogative-total-yn_Daniel-iba-a-Bolivia.wav,./stim/wavs/chilean_match_interrogative-total-yn_Daniel-iba-a-Bolivia.wav,./stim/wavs/cuban_match_interrogative-total-yn_Daniel-iba-a-Bolivia.wav,./stim/wavs/mexican_match_interrogative-total-yn_Daniel-iba-a-Bolivia.wav,./stim/wavs/peruvian_match_interrogative-total-yn_Daniel-iba-a-Bolivia.wav,./stim/wavs/puertorican_match_interrogative-total-yn_Daniel-iba-a-Bolivia.wav,,,,,,,,,,,,,,,,,,,,,,,,,,,,,,,,,,,,,,,,,,,,,,,,,,,,,,,,
,,,,,,,5e9fcb1aa7eac5182448d5ab,605b45a4d25f287719a41696,605ce6762df5a601c7cbfbed,Colombia,Northeast,13 or older,no,2021-03-25_15h40.57.831,empathy_intonation_perc,2020.2.10,Win32,60,,,,,,,,,,1,mexican,1,1,3.15924,0,62,62,51,1,52,./stim/wavs/andalusian_mismatch_interrogative-partial-wh_Por-que-desayuna-muy-bien.wav,./stim/wavs/argentine_mismatch_interrogative-partial-wh_Por-que-desayuna-muy-bien.wav,./stim/wavs/castilian_mismatch_interrogative-partial-wh_Por-que-desayuna-muy-bien.wav,./stim/wavs/chilean_mismatch_interrogative-partial-wh_Por-que-desayuna-muy-bien.wav,./stim/wavs/cuban_mismatch_interrogative-partial-wh_Por-que-desayuna-muy-bien.wav,./stim/wavs/mexican_mismatch_interrogative-partial-wh_Por-que-desayuna-muy-bien.wav,./stim/wavs/peruvian_mismatch_interrogative-partial-wh_Por-que-desayuna-muy-bien.wav,./stim/wavs/puertorican_mismatch_interrogative-partial-wh_Por-que-desayuna-muy-bien.wav,,,,,,,,,,,,,,,,,,,,,,,,,,,,,,,,,,,,,,,,,,,,,,,,,,,,,,,,
,,,,,,,5e9fcb1aa7eac5182448d5ab,605b45a4d25f287719a41696,605ce6762df5a601c7cbfbed,Colombia,Northeast,13 or older,no,2021-03-25_15h40.57.831,empathy_intonation_perc,2020.2.10,Win32,60,,,,,,,,,,0,peruvian,0,1,1.631155,0,63,63,15,1,16,./stim/wavs/andalusian_match_declarative-narrow-focus_Marta-abre-el-regalo.wav,./stim/wavs/argentine_match_declarative-narrow-focus_Marta-abre-el-regalo.wav,./stim/wavs/castilian_match_declarative-narrow-focus_Marta-abre-el-regalo.wav,./stim/wavs/chilean_match_declarative-narrow-focus_Marta-abre-el-regalo.wav,./stim/wavs/cuban_match_declarative-narrow-focus_Marta-abre-el-regalo.wav,./stim/wavs/mexican_match_declarative-narrow-focus_Marta-abre-el-regalo.wav,./stim/wavs/peruvian_match_declarative-narrow-focus_Marta-abre-el-regalo.wav,./stim/wavs/puertorican_match_declarative-narrow-focus_Marta-abre-el-regalo.wav,,,,,,,,,,,,,,,,,,,,,,,,,,,,,,,,,,,,,,,,,,,,,,,,,,,,,,,,
,,,,,,,5e9fcb1aa7eac5182448d5ab,605b45a4d25f287719a41696,605ce6762df5a601c7cbfbed,Colombia,Northeast,13 or older,no,2021-03-25_15h40.57.831,empathy_intonation_perc,2020.2.10,Win32,60,,,,,,,,,,,,,,,,,,,,,,,,,,,,,h,1,499.264845,0,0,0,0,1,,,,,,,,,,,,,,,,,,,,,,,,,,,,,,,,,,,,,,,,,,,,,,,,
,,,,,"Great! Now we will move on. The next task consists of about 60 trials, in each of which you will see a string of letters. 
  
  Your task is to decide whether this is a real Spanish word or not.",(press the spacebar to continue),5e9fcb1aa7eac5182448d5ab,605b45a4d25f287719a41696,605ce6762df5a601c7cbfbed,Colombia,Northeast,13 or older,no,2021-03-25_15h40.57.831,empathy_intonation_perc,2020.2.10,Win32,60,,,,,,,,,,,,,,,,,,,,,,,,,,,,,,,,,,,,,0,0,0,0,1,,,,,,,,,,,,,,,,,,,,,,,,,,,,,,,,,,,,,,,,,,,
,,,,,"If you think it is an existing Spanish word, you type '1' (for 'REAL'), and if you think it is not an existing Spanish word, you type '0' (for 'FAKE').",(press the spacebar to continue),5e9fcb1aa7eac5182448d5ab,605b45a4d25f287719a41696,605ce6762df5a601c7cbfbed,Colombia,Northeast,13 or older,no,2021-03-25_15h40.57.831,empathy_intonation_perc,2020.2.10,Win32,60,,,,,,,,,,,,,,,,,,,,,,,,,,,,,,,,,,,,,0,1,1,1,1,,,,,,,,,,,,,,,,,,,,,,,,,,,,,,,,,,,,,,,,,,,
,,,,,"If you are sure that the word exists, even though you dont know its exact meaning, you may still respond '1' (REAL). 
  
  But if you are not sure if it is an existing word, you should respond '0' (FAKE).
  
  Let's do a practice round...",(press the spacebar to continue),5e9fcb1aa7eac5182448d5ab,605b45a4d25f287719a41696,605ce6762df5a601c7cbfbed,Colombia,Northeast,13 or older,no,2021-03-25_15h40.57.831,empathy_intonation_perc,2020.2.10,Win32,60,,,,,,,,,,,,,,,,,,,,,,,,,,,,,,,,,,,,,0,2,2,2,1,,,,,,,,,,,,,,,,,,,,,,,,,,,,,,,,,,,,,,,,,,,
,,,,,,,5e9fcb1aa7eac5182448d5ab,605b45a4d25f287719a41696,605ce6762df5a601c7cbfbed,Colombia,Northeast,13 or older,no,2021-03-25_15h40.57.831,empathy_intonation_perc,2020.2.10,Win32,60,,,,,,,,,,0,,,,,,,,,,,,,,,,,,,,,,,,,,,,,,,,0,1,3.954435,0,0,0,0,1,0,depiste,REAL,FAKE,,,,,,,,,,,,,,,,,,,,,,,,,,,,,,,
,,,,,,,5e9fcb1aa7eac5182448d5ab,605b45a4d25f287719a41696,605ce6762df5a601c7cbfbed,Colombia,Northeast,13 or older,no,2021-03-25_15h40.57.831,empathy_intonation_perc,2020.2.10,Win32,60,,,,,,,,,,1,,,,,,,,,,,,,,,,,,,,,,,,,,,,,,,,1,1,1.569215,0,1,1,1,1,0,s,REAL,FAKE,,,,,,,,,,,,,,,,,,,,,,,,,,,,,,,
,,,,,,,5e9fcb1aa7eac5182448d5ab,605b45a4d25f287719a41696,605ce6762df5a601c7cbfbed,Colombia,Northeast,13 or older,no,2021-03-25_15h40.57.831,empathy_intonation_perc,2020.2.10,Win32,60,,,,,,,,,,0,,,,,,,,,,,,,,,,,,,,,,,,,,,,,,,,1,0,0.9141,0,2,2,2,1,0,con,REAL,FAKE,,,,,,,,,,,,,,,,,,,,,,,,,,,,,,,
,,,,,,,5e9fcb1aa7eac5182448d5ab,605b45a4d25f287719a41696,605ce6762df5a601c7cbfbed,Colombia,Northeast,13 or older,no,2021-03-25_15h40.57.831,empathy_intonation_perc,2020.2.10,Win32,60,,,,,,,,,,0,,,,,,,,,,,,,,,,,,,,,,,,,,,,,,,,1,0,0.967035,0,3,3,3,1,0,calpar,REAL,FAKE,,,,,,,,,,,,,,,,,,,,,,,,,,,,,,,
,,,,,,,5e9fcb1aa7eac5182448d5ab,605b45a4d25f287719a41696,605ce6762df5a601c7cbfbed,Colombia,Northeast,13 or older,no,2021-03-25_15h40.57.831,empathy_intonation_perc,2020.2.10,Win32,60,,,,,,,,,,0,,,,,,,,,,,,,,,,,,,,,,,,,,,,,,,,1,0,0.885695,0,4,4,4,1,0,joten,REAL,FAKE,,,,,,,,,,,,,,,,,,,,,,,,,,,,,,,
,,,,,,,5e9fcb1aa7eac5182448d5ab,605b45a4d25f287719a41696,605ce6762df5a601c7cbfbed,Colombia,Northeast,13 or older,no,2021-03-25_15h40.57.831,empathy_intonation_perc,2020.2.10,Win32,60,,,,,,,,,,1,,,,,,,,,,,,,,,,,,,,,,,,,,,,,,,,1,1,0.883955,0,5,5,5,1,0,sacapuntas,REAL,FAKE,,,,,,,,,,,,,,,,,,,,,,,,,,,,,,,
,,,,,,,5e9fcb1aa7eac5182448d5ab,605b45a4d25f287719a41696,605ce6762df5a601c7cbfbed,Colombia,Northeast,13 or older,no,2021-03-25_15h40.57.831,empathy_intonation_perc,2020.2.10,Win32,60,,,,,,,,,,0,,,,,,,,,,,,,,,,,,,,,,,,,,,,,,,,1,0,0.703245,0,6,6,6,1,0,priba,REAL,FAKE,,,,,,,,,,,,,,,,,,,,,,,,,,,,,,,
,,,,,,,5e9fcb1aa7eac5182448d5ab,605b45a4d25f287719a41696,605ce6762df5a601c7cbfbed,Colombia,Northeast,13 or older,no,2021-03-25_15h40.57.831,empathy_intonation_perc,2020.2.10,Win32,60,,,,,,,,,,0,,,,,,,,,,,,,,,,,,,,,,,,,,,,,,,,1,0,0.87666,0,7,7,7,1,0,pelasula,REAL,FAKE,,,,,,,,,,,,,,,,,,,,,,,,,,,,,,,
,,,,,,,5e9fcb1aa7eac5182448d5ab,605b45a4d25f287719a41696,605ce6762df5a601c7cbfbed,Colombia,Northeast,13 or older,no,2021-03-25_15h40.57.831,empathy_intonation_perc,2020.2.10,Win32,60,,,,,,,,,,1,,,,,,,,,,,,,,,,,,,,,,,,,,,,,,,,1,1,0.703235,0,8,8,8,1,0,bien,REAL,FAKE,,,,,,,,,,,,,,,,,,,,,,,,,,,,,,,
,,,,,,,5e9fcb1aa7eac5182448d5ab,605b45a4d25f287719a41696,605ce6762df5a601c7cbfbed,Colombia,Northeast,13 or older,no,2021-03-25_15h40.57.831,empathy_intonation_perc,2020.2.10,Win32,60,,,,,,,,,,1,,,,,,,,,,,,,,,,,,,,,,,,,,,,,,,,1,1,0.66947,0,9,9,9,1,0,casa,REAL,FAKE,,,,,,,,,,,,,,,,,,,,,,,,,,,,,,,
,,,,,,,5e9fcb1aa7eac5182448d5ab,605b45a4d25f287719a41696,605ce6762df5a601c7cbfbed,Colombia,Northeast,13 or older,no,2021-03-25_15h40.57.831,empathy_intonation_perc,2020.2.10,Win32,60,,,,,,,,,,0,,,,,,,,,,,,,,,,,,,,,,,,,,,,,,,,1,0,0.75098,0,10,10,10,1,0,lejo,REAL,FAKE,,,,,,,,,,,,,,,,,,,,,,,,,,,,,,,
,,,,,,,5e9fcb1aa7eac5182448d5ab,605b45a4d25f287719a41696,605ce6762df5a601c7cbfbed,Colombia,Northeast,13 or older,no,2021-03-25_15h40.57.831,empathy_intonation_perc,2020.2.10,Win32,60,,,,,,,,,,0,,,,,,,,,,,,,,,,,,,,,,,,,,,,,,,,1,0,0.70047,0,11,11,11,1,0,pretantas,REAL,FAKE,,,,,,,,,,,,,,,,,,,,,,,,,,,,,,,
,,,,,,,5e9fcb1aa7eac5182448d5ab,605b45a4d25f287719a41696,605ce6762df5a601c7cbfbed,Colombia,Northeast,13 or older,no,2021-03-25_15h40.57.831,empathy_intonation_perc,2020.2.10,Win32,60,,,,,,,,,,1,,,,,,,,,,,,,,,,,,,,,,,,,,,,,,,,,,,,,,,,48,ladrn,,,1,1,0.757495,0,0,0,47,1,REAL,FAKE,,,,,,,,,,,,,,,,,,,,,
,,,,,,,5e9fcb1aa7eac5182448d5ab,605b45a4d25f287719a41696,605ce6762df5a601c7cbfbed,Colombia,Northeast,13 or older,no,2021-03-25_15h40.57.831,empathy_intonation_perc,2020.2.10,Win32,60,,,,,,,,,,1,,,,,,,,,,,,,,,,,,,,,,,,,,,,,,,,,,,,,,,,25,bisagra,,,1,1,0.747765,0,1,1,24,1,REAL,FAKE,,,,,,,,,,,,,,,,,,,,,
,,,,,,,5e9fcb1aa7eac5182448d5ab,605b45a4d25f287719a41696,605ce6762df5a601c7cbfbed,Colombia,Northeast,13 or older,no,2021-03-25_15h40.57.831,empathy_intonation_perc,2020.2.10,Win32,60,,,,,,,,,,1,,,,,,,,,,,,,,,,,,,,,,,,,,,,,,,,,,,,,,,,7,psimo,,,0,0,0.33236,0,2,2,6,1,REAL,FAKE,,,,,,,,,,,,,,,,,,,,,
,,,,,,,5e9fcb1aa7eac5182448d5ab,605b45a4d25f287719a41696,605ce6762df5a601c7cbfbed,Colombia,Northeast,13 or older,no,2021-03-25_15h40.57.831,empathy_intonation_perc,2020.2.10,Win32,60,,,,,,,,,,0,,,,,,,,,,,,,,,,,,,,,,,,,,,,,,,,,,,,,,,,32,fatacidad,,,0,1,0.334015,0,3,3,31,1,REAL,FAKE,,,,,,,,,,,,,,,,,,,,,
,,,,,,,5e9fcb1aa7eac5182448d5ab,605b45a4d25f287719a41696,605ce6762df5a601c7cbfbed,Colombia,Northeast,13 or older,no,2021-03-25_15h40.57.831,empathy_intonation_perc,2020.2.10,Win32,60,,,,,,,,,,1,,,,,,,,,,,,,,,,,,,,,,,,,,,,,,,,,,,,,,,,49,ganar,,,1,1,0.10056,0,4,4,48,1,REAL,FAKE,,,,,,,,,,,,,,,,,,,,,
,,,,,,,5e9fcb1aa7eac5182448d5ab,605b45a4d25f287719a41696,605ce6762df5a601c7cbfbed,Colombia,Northeast,13 or older,no,2021-03-25_15h40.57.831,empathy_intonation_perc,2020.2.10,Win32,60,,,,,,,,,,1,,,,,,,,,,,,,,,,,,,,,,,,,,,,,,,,,,,,,,,,88,acantilado,,,0,0,0.093795,0,5,5,87,1,REAL,FAKE,,,,,,,,,,,,,,,,,,,,,
,,,,,,,5e9fcb1aa7eac5182448d5ab,605b45a4d25f287719a41696,605ce6762df5a601c7cbfbed,Colombia,Northeast,13 or older,no,2021-03-25_15h40.57.831,empathy_intonation_perc,2020.2.10,Win32,60,,,,,,,,,,0,,,,,,,,,,,,,,,,,,,,,,,,,,,,,,,,,,,,,,,,84,escuto,,,1,0,0.46142,0,6,6,83,1,REAL,FAKE,,,,,,,,,,,,,,,,,,,,,
,,,,,,,5e9fcb1aa7eac5182448d5ab,605b45a4d25f287719a41696,605ce6762df5a601c7cbfbed,Colombia,Northeast,13 or older,no,2021-03-25_15h40.57.831,empathy_intonation_perc,2020.2.10,Win32,60,,,,,,,,,,0,,,,,,,,,,,,,,,,,,,,,,,,,,,,,,,,,,,,,,,,74,cintro,,,1,0,0.01421,0,7,7,73,1,REAL,FAKE,,,,,,,,,,,,,,,,,,,,,
,,,,,,,5e9fcb1aa7eac5182448d5ab,605b45a4d25f287719a41696,605ce6762df5a601c7cbfbed,Colombia,Northeast,13 or older,no,2021-03-25_15h40.57.831,empathy_intonation_perc,2020.2.10,Win32,60,,,,,,,,,,1,,,,,,,,,,,,,,,,,,,,,,,,,,,,,,,,,,,,,,,,76,atar,,,0,0,0.014,0,8,8,75,1,REAL,FAKE,,,,,,,,,,,,,,,,,,,,,
,,,,,,,5e9fcb1aa7eac5182448d5ab,605b45a4d25f287719a41696,605ce6762df5a601c7cbfbed,Colombia,Northeast,13 or older,no,2021-03-25_15h40.57.831,empathy_intonation_perc,2020.2.10,Win32,60,,,,,,,,,,0,,,,,,,,,,,,,,,,,,,,,,,,,,,,,,,,,,,,,,,,66,hacido,,,1,0,0.315795,0,9,9,65,1,REAL,FAKE,,,,,,,,,,,,,,,,,,,,,
,,,,,,,5e9fcb1aa7eac5182448d5ab,605b45a4d25f287719a41696,605ce6762df5a601c7cbfbed,Colombia,Northeast,13 or older,no,2021-03-25_15h40.57.831,empathy_intonation_perc,2020.2.10,Win32,60,,,,,,,,,,0,,,,,,,,,,,,,,,,,,,,,,,,,,,,,,,,,,,,,,,,72,pemicin,,,0,1,0.26169,0,10,10,71,1,REAL,FAKE,,,,,,,,,,,,,,,,,,,,,
,,,,,,,5e9fcb1aa7eac5182448d5ab,605b45a4d25f287719a41696,605ce6762df5a601c7cbfbed,Colombia,Northeast,13 or older,no,2021-03-25_15h40.57.831,empathy_intonation_perc,2020.2.10,Win32,60,,,,,,,,,,1,,,,,,,,,,,,,,,,,,,,,,,,,,,,,,,,,,,,,,,,41,rebuscar,,,1,1,0.03408,0,11,11,40,1,REAL,FAKE,,,,,,,,,,,,,,,,,,,,,
,,,,,,,5e9fcb1aa7eac5182448d5ab,605b45a4d25f287719a41696,605ce6762df5a601c7cbfbed,Colombia,Northeast,13 or older,no,2021-03-25_15h40.57.831,empathy_intonation_perc,2020.2.10,Win32,60,,,,,,,,,,1,,,,,,,,,,,,,,,,,,,,,,,,,,,,,,,,,,,,,,,,68,alegre,,,1,1,0.32651,0,12,12,67,1,REAL,FAKE,,,,,,,,,,,,,,,,,,,,,
,,,,,,,5e9fcb1aa7eac5182448d5ab,605b45a4d25f287719a41696,605ce6762df5a601c7cbfbed,Colombia,Northeast,13 or older,no,2021-03-25_15h40.57.831,empathy_intonation_perc,2020.2.10,Win32,60,,,,,,,,,,1,,,,,,,,,,,,,,,,,,,,,,,,,,,,,,,,,,,,,,,,14,yunque,,,0,0,0.31909,0,13,13,13,1,REAL,FAKE,,,,,,,,,,,,,,,,,,,,,
,,,,,,,5e9fcb1aa7eac5182448d5ab,605b45a4d25f287719a41696,605ce6762df5a601c7cbfbed,Colombia,Northeast,13 or older,no,2021-03-25_15h40.57.831,empathy_intonation_perc,2020.2.10,Win32,60,,,,,,,,,,1,,,,,,,,,,,,,,,,,,,,,,,,,,,,,,,,,,,,,,,,43,canela,,,1,1,0.02963,0,14,14,42,1,REAL,FAKE,,,,,,,,,,,,,,,,,,,,,
,,,,,,,5e9fcb1aa7eac5182448d5ab,605b45a4d25f287719a41696,605ce6762df5a601c7cbfbed,Colombia,Northeast,13 or older,no,2021-03-25_15h40.57.831,empathy_intonation_perc,2020.2.10,Win32,60,,,,,,,,,,1,,,,,,,,,,,,,,,,,,,,,,,,,,,,,,,,,,,,,,,,75,yacer,,,0,0,0.629735,0,15,15,74,1,REAL,FAKE,,,,,,,,,,,,,,,,,,,,,
,,,,,,,5e9fcb1aa7eac5182448d5ab,605b45a4d25f287719a41696,605ce6762df5a601c7cbfbed,Colombia,Northeast,13 or older,no,2021-03-25_15h40.57.831,empathy_intonation_perc,2020.2.10,Win32,60,,,,,,,,,,1,,,,,,,,,,,,,,,,,,,,,,,,,,,,,,,,,,,,,,,,34,aviso,,,1,1,0.59303,0,16,16,33,1,REAL,FAKE,,,,,,,,,,,,,,,,,,,,,
,,,,,,,5e9fcb1aa7eac5182448d5ab,605b45a4d25f287719a41696,605ce6762df5a601c7cbfbed,Colombia,Northeast,13 or older,no,2021-03-25_15h40.57.831,empathy_intonation_perc,2020.2.10,Win32,60,,,,,,,,,,1,,,,,,,,,,,,,,,,,,,,,,,,,,,,,,,,,,,,,,,,39,torpe,,,1,1,0.746455,0,17,17,38,1,REAL,FAKE,,,,,,,,,,,,,,,,,,,,,
,,,,,,,5e9fcb1aa7eac5182448d5ab,605b45a4d25f287719a41696,605ce6762df5a601c7cbfbed,Colombia,Northeast,13 or older,no,2021-03-25_15h40.57.831,empathy_intonation_perc,2020.2.10,Win32,60,,,,,,,,,,1,,,,,,,,,,,,,,,,,,,,,,,,,,,,,,,,,,,,,,,,40,alfombra,,,0,0,0.56294,0,18,18,39,1,REAL,FAKE,,,,,,,,,,,,,,,,,,,,,
,,,,,,,5e9fcb1aa7eac5182448d5ab,605b45a4d25f287719a41696,605ce6762df5a601c7cbfbed,Colombia,Northeast,13 or older,no,2021-03-25_15h40.57.831,empathy_intonation_perc,2020.2.10,Win32,60,,,,,,,,,,1,,,,,,,,,,,,,,,,,,,,,,,,,,,,,,,,,,,,,,,,44,cuchara,,,1,1,0.69642,0,19,19,43,1,REAL,FAKE,,,,,,,,,,,,,,,,,,,,,
,,,,,,,5e9fcb1aa7eac5182448d5ab,605b45a4d25f287719a41696,605ce6762df5a601c7cbfbed,Colombia,Northeast,13 or older,no,2021-03-25_15h40.57.831,empathy_intonation_perc,2020.2.10,Win32,60,,,,,,,,,,0,,,,,,,,,,,,,,,,,,,,,,,,,,,,,,,,,,,,,,,,58,plaudir,,,0,1,0.62931,0,20,20,57,1,REAL,FAKE,,,,,,,,,,,,,,,,,,,,,
,,,,,,,5e9fcb1aa7eac5182448d5ab,605b45a4d25f287719a41696,605ce6762df5a601c7cbfbed,Colombia,Northeast,13 or older,no,2021-03-25_15h40.57.831,empathy_intonation_perc,2020.2.10,Win32,60,,,,,,,,,,1,,,,,,,,,,,,,,,,,,,,,,,,,,,,,,,,,,,,,,,,80,hormiga,,,0,0,0.86335,0,21,21,79,1,REAL,FAKE,,,,,,,,,,,,,,,,,,,,,
,,,,,,,5e9fcb1aa7eac5182448d5ab,605b45a4d25f287719a41696,605ce6762df5a601c7cbfbed,Colombia,Northeast,13 or older,no,2021-03-25_15h40.57.831,empathy_intonation_perc,2020.2.10,Win32,60,,,,,,,,,,1,,,,,,,,,,,,,,,,,,,,,,,,,,,,,,,,,,,,,,,,38,estornudar,,,0,0,0.69739,0,22,22,37,1,REAL,FAKE,,,,,,,,,,,,,,,,,,,,,
,,,,,,,5e9fcb1aa7eac5182448d5ab,605b45a4d25f287719a41696,605ce6762df5a601c7cbfbed,Colombia,Northeast,13 or older,no,2021-03-25_15h40.57.831,empathy_intonation_perc,2020.2.10,Win32,60,,,,,,,,,,1,,,,,,,,,,,,,,,,,,,,,,,,,,,,,,,,,,,,,,,,83,guante,,,1,1,0.60146,0,23,23,82,1,REAL,FAKE,,,,,,,,,,,,,,,,,,,,,
,,,,,,,5e9fcb1aa7eac5182448d5ab,605b45a4d25f287719a41696,605ce6762df5a601c7cbfbed,Colombia,Northeast,13 or older,no,2021-03-25_15h40.57.831,empathy_intonation_perc,2020.2.10,Win32,60,,,,,,,,,,1,,,,,,,,,,,,,,,,,,,,,,,,,,,,,,,,,,,,,,,,24,ltigo,,,1,1,0.78041,0,24,24,23,1,REAL,FAKE,,,,,,,,,,,,,,,,,,,,,
,,,,,,,5e9fcb1aa7eac5182448d5ab,605b45a4d25f287719a41696,605ce6762df5a601c7cbfbed,Colombia,Northeast,13 or older,no,2021-03-25_15h40.57.831,empathy_intonation_perc,2020.2.10,Win32,60,,,,,,,,,,1,,,,,,,,,,,,,,,,,,,,,,,,,,,,,,,,,,,,,,,,62,flaco,,,0,0,0.084365,0,25,25,61,1,REAL,FAKE,,,,,,,,,,,,,,,,,,,,,
,,,,,,,5e9fcb1aa7eac5182448d5ab,605b45a4d25f287719a41696,605ce6762df5a601c7cbfbed,Colombia,Northeast,13 or older,no,2021-03-25_15h40.57.831,empathy_intonation_perc,2020.2.10,Win32,60,,,,,,,,,,0,,,,,,,,,,,,,,,,,,,,,,,,,,,,,,,,,,,,,,,,17,floroso,,,1,0,0.15107,0,26,26,16,1,REAL,FAKE,,,,,,,,,,,,,,,,,,,,,
,,,,,,,5e9fcb1aa7eac5182448d5ab,605b45a4d25f287719a41696,605ce6762df5a601c7cbfbed,Colombia,Northeast,13 or older,no,2021-03-25_15h40.57.831,empathy_intonation_perc,2020.2.10,Win32,60,,,,,,,,,,0,,,,,,,,,,,,,,,,,,,,,,,,,,,,,,,,,,,,,,,,53,vegada,,,1,0,0.070965,0,27,27,52,1,REAL,FAKE,,,,,,,,,,,,,,,,,,,,,
,,,,,,,5e9fcb1aa7eac5182448d5ab,605b45a4d25f287719a41696,605ce6762df5a601c7cbfbed,Colombia,Northeast,13 or older,no,2021-03-25_15h40.57.831,empathy_intonation_perc,2020.2.10,Win32,60,,,,,,,,,,1,,,,,,,,,,,,,,,,,,,,,,,,,,,,,,,,,,,,,,,,55,nevar,,,0,0,0.154565,0,28,28,54,1,REAL,FAKE,,,,,,,,,,,,,,,,,,,,,
,,,,,,,5e9fcb1aa7eac5182448d5ab,605b45a4d25f287719a41696,605ce6762df5a601c7cbfbed,Colombia,Northeast,13 or older,no,2021-03-25_15h40.57.831,empathy_intonation_perc,2020.2.10,Win32,60,,,,,,,,,,1,,,,,,,,,,,,,,,,,,,,,,,,,,,,,,,,,,,,,,,,9,hacha,,,1,1,0.00248,0,29,29,8,1,REAL,FAKE,,,,,,,,,,,,,,,,,,,,,
,,,,,,,5e9fcb1aa7eac5182448d5ab,605b45a4d25f287719a41696,605ce6762df5a601c7cbfbed,Colombia,Northeast,13 or older,no,2021-03-25_15h40.57.831,empathy_intonation_perc,2020.2.10,Win32,60,,,,,,,,,,1,,,,,,,,,,,,,,,,,,,,,,,,,,,,,,,,,,,,,,,,64,orgulloso,,,1,1,0.098655,0,30,30,63,1,REAL,FAKE,,,,,,,,,,,,,,,,,,,,,
,,,,,,,5e9fcb1aa7eac5182448d5ab,605b45a4d25f287719a41696,605ce6762df5a601c7cbfbed,Colombia,Northeast,13 or older,no,2021-03-25_15h40.57.831,empathy_intonation_perc,2020.2.10,Win32,60,,,,,,,,,,0,,,,,,,,,,,,,,,,,,,,,,,,,,,,,,,,,,,,,,,,19,brecedad,,,1,0,0.119225,0,31,31,18,1,REAL,FAKE,,,,,,,,,,,,,,,,,,,,,
,,,,,,,5e9fcb1aa7eac5182448d5ab,605b45a4d25f287719a41696,605ce6762df5a601c7cbfbed,Colombia,Northeast,13 or older,no,2021-03-25_15h40.57.831,empathy_intonation_perc,2020.2.10,Win32,60,,,,,,,,,,1,,,,,,,,,,,,,,,,,,,,,,,,,,,,,,,,,,,,,,,,31,pandilla,,,0,0,0.066765,0,32,32,30,1,REAL,FAKE,,,,,,,,,,,,,,,,,,,,,
,,,,,,,5e9fcb1aa7eac5182448d5ab,605b45a4d25f287719a41696,605ce6762df5a601c7cbfbed,Colombia,Northeast,13 or older,no,2021-03-25_15h40.57.831,empathy_intonation_perc,2020.2.10,Win32,60,,,,,,,,,,0,,,,,,,,,,,,,,,,,,,,,,,,,,,,,,,,,,,,,,,,4,batilln,,,1,0,0.005495,0,33,33,3,1,REAL,FAKE,,,,,,,,,,,,,,,,,,,,,
,,,,,,,5e9fcb1aa7eac5182448d5ab,605b45a4d25f287719a41696,605ce6762df5a601c7cbfbed,Colombia,Northeast,13 or older,no,2021-03-25_15h40.57.831,empathy_intonation_perc,2020.2.10,Win32,60,,,,,,,,,,0,,,,,,,,,,,,,,,,,,,,,,,,,,,,,,,,,,,,,,,,30,alardio,,,0,1,0.10158,0,34,34,29,1,REAL,FAKE,,,,,,,,,,,,,,,,,,,,,
,,,,,,,5e9fcb1aa7eac5182448d5ab,605b45a4d25f287719a41696,605ce6762df5a601c7cbfbed,Colombia,Northeast,13 or older,no,2021-03-25_15h40.57.831,empathy_intonation_perc,2020.2.10,Win32,60,,,,,,,,,,1,,,,,,,,,,,,,,,,,,,,,,,,,,,,,,,,,,,,,,,,81,pozo,,,0,0,0.03644,0,35,35,80,1,REAL,FAKE,,,,,,,,,,,,,,,,,,,,,
,,,,,,,5e9fcb1aa7eac5182448d5ab,605b45a4d25f287719a41696,605ce6762df5a601c7cbfbed,Colombia,Northeast,13 or older,no,2021-03-25_15h40.57.831,empathy_intonation_perc,2020.2.10,Win32,60,,,,,,,,,,1,,,,,,,,,,,,,,,,,,,,,,,,,,,,,,,,,,,,,,,,11,cenefa,,,0,0,0.00337,0,36,36,10,1,REAL,FAKE,,,,,,,,,,,,,,,,,,,,,
,,,,,,,5e9fcb1aa7eac5182448d5ab,605b45a4d25f287719a41696,605ce6762df5a601c7cbfbed,Colombia,Northeast,13 or older,no,2021-03-25_15h40.57.831,empathy_intonation_perc,2020.2.10,Win32,60,,,,,,,,,,1,,,,,,,,,,,,,,,,,,,,,,,,,,,,,,,,,,,,,,,,89,prisa,,,0,0,0.09614,0,37,37,88,1,REAL,FAKE,,,,,,,,,,,,,,,,,,,,,
,,,,,,,5e9fcb1aa7eac5182448d5ab,605b45a4d25f287719a41696,605ce6762df5a601c7cbfbed,Colombia,Northeast,13 or older,no,2021-03-25_15h40.57.831,empathy_intonation_perc,2020.2.10,Win32,60,,,,,,,,,,0,,,,,,,,,,,,,,,,,,,,,,,,,,,,,,,,,,,,,,,,70,temblo,,,0,1,0.06681,0,38,38,69,1,REAL,FAKE,,,,,,,,,,,,,,,,,,,,,
,,,,,,,5e9fcb1aa7eac5182448d5ab,605b45a4d25f287719a41696,605ce6762df5a601c7cbfbed,Colombia,Northeast,13 or older,no,2021-03-25_15h40.57.831,empathy_intonation_perc,2020.2.10,Win32,60,,,,,,,,,,1,,,,,,,,,,,,,,,,,,,,,,,,,,,,,,,,,,,,,,,,13,helar,,,1,1,0.0194,0,39,39,12,1,REAL,FAKE,,,,,,,,,,,,,,,,,,,,,
,,,,,,,5e9fcb1aa7eac5182448d5ab,605b45a4d25f287719a41696,605ce6762df5a601c7cbfbed,Colombia,Northeast,13 or older,no,2021-03-25_15h40.57.831,empathy_intonation_perc,2020.2.10,Win32,60,,,,,,,,,,0,,,,,,,,,,,,,,,,,,,,,,,,,,,,,,,,,,,,,,,,50,flamida,,,0,1,0.16984,0,40,40,49,1,REAL,FAKE,,,,,,,,,,,,,,,,,,,,,
,,,,,,,5e9fcb1aa7eac5182448d5ab,605b45a4d25f287719a41696,605ce6762df5a601c7cbfbed,Colombia,Northeast,13 or older,no,2021-03-25_15h40.57.831,empathy_intonation_perc,2020.2.10,Win32,60,,,,,,,,,,1,,,,,,,,,,,,,,,,,,,,,,,,,,,,,,,,,,,,,,,,69,engatusar,,,0,0,0.352935,0,41,41,68,1,REAL,FAKE,,,,,,,,,,,,,,,,,,,,,
,,,,,,,5e9fcb1aa7eac5182448d5ab,605b45a4d25f287719a41696,605ce6762df5a601c7cbfbed,Colombia,Northeast,13 or older,no,2021-03-25_15h40.57.831,empathy_intonation_perc,2020.2.10,Win32,60,,,,,,,,,,0,,,,,,,,,,,,,,,,,,,,,,,,,,,,,,,,,,,,,,,,35,rompido,,,0,1,0.038505,0,42,42,34,1,REAL,FAKE,,,,,,,,,,,,,,,,,,,,,
,,,,,,,5e9fcb1aa7eac5182448d5ab,605b45a4d25f287719a41696,605ce6762df5a601c7cbfbed,Colombia,Northeast,13 or older,no,2021-03-25_15h40.57.831,empathy_intonation_perc,2020.2.10,Win32,60,,,,,,,,,,1,,,,,,,,,,,,,,,,,,,,,,,,,,,,,,,,,,,,,,,,46,martillo,,,1,1,0.10591,0,43,43,45,1,REAL,FAKE,,,,,,,,,,,,,,,,,,,,,
,,,,,,,5e9fcb1aa7eac5182448d5ab,605b45a4d25f287719a41696,605ce6762df5a601c7cbfbed,Colombia,Northeast,13 or older,no,2021-03-25_15h40.57.831,empathy_intonation_perc,2020.2.10,Win32,60,,,,,,,,,,1,,,,,,,,,,,,,,,,,,,,,,,,,,,,,,,,,,,,,,,,54,fomentar,,,1,1,0.05528,0,44,44,53,1,REAL,FAKE,,,,,,,,,,,,,,,,,,,,,
,,,,,,,5e9fcb1aa7eac5182448d5ab,605b45a4d25f287719a41696,605ce6762df5a601c7cbfbed,Colombia,Northeast,13 or older,no,2021-03-25_15h40.57.831,empathy_intonation_perc,2020.2.10,Win32,60,,,,,,,,,,0,,,,,,,,,,,,,,,,,,,,,,,,,,,,,,,,,,,,,,,,18,arsa,,,0,1,0.07283,0,45,45,17,1,REAL,FAKE,,,,,,,,,,,,,,,,,,,,,
,,,,,,,5e9fcb1aa7eac5182448d5ab,605b45a4d25f287719a41696,605ce6762df5a601c7cbfbed,Colombia,Northeast,13 or older,no,2021-03-25_15h40.57.831,empathy_intonation_perc,2020.2.10,Win32,60,,,,,,,,,,0,,,,,,,,,,,,,,,,,,,,,,,,,,,,,,,,,,,,,,,,79,tropaje,,,1,0,0.140655,0,46,46,78,1,REAL,FAKE,,,,,,,,,,,,,,,,,,,,,
,,,,,,,5e9fcb1aa7eac5182448d5ab,605b45a4d25f287719a41696,605ce6762df5a601c7cbfbed,Colombia,Northeast,13 or older,no,2021-03-25_15h40.57.831,empathy_intonation_perc,2020.2.10,Win32,60,,,,,,,,,,1,,,,,,,,,,,,,,,,,,,,,,,,,,,,,,,,,,,,,,,,22,lacayo,,,0,0,0.05782,0,47,47,21,1,REAL,FAKE,,,,,,,,,,,,,,,,,,,,,
,,,,,,,5e9fcb1aa7eac5182448d5ab,605b45a4d25f287719a41696,605ce6762df5a601c7cbfbed,Colombia,Northeast,13 or older,no,2021-03-25_15h40.57.831,empathy_intonation_perc,2020.2.10,Win32,60,,,,,,,,,,0,,,,,,,,,,,,,,,,,,,,,,,,,,,,,,,,,,,,,,,,10,antar,,,1,0,0.06993,0,48,48,9,1,REAL,FAKE,,,,,,,,,,,,,,,,,,,,,
,,,,,,,5e9fcb1aa7eac5182448d5ab,605b45a4d25f287719a41696,605ce6762df5a601c7cbfbed,Colombia,Northeast,13 or older,no,2021-03-25_15h40.57.831,empathy_intonation_perc,2020.2.10,Win32,60,,,,,,,,,,0,,,,,,,,,,,,,,,,,,,,,,,,,,,,,,,,,,,,,,,,21,capillo,,,0,1,0.10184,0,49,49,20,1,REAL,FAKE,,,,,,,,,,,,,,,,,,,,,
,,,,,,,5e9fcb1aa7eac5182448d5ab,605b45a4d25f287719a41696,605ce6762df5a601c7cbfbed,Colombia,Northeast,13 or older,no,2021-03-25_15h40.57.831,empathy_intonation_perc,2020.2.10,Win32,60,,,,,,,,,,1,,,,,,,,,,,,,,,,,,,,,,,,,,,,,,,,,,,,,,,,60,matar,,,1,1,0.005155,0,50,50,59,1,REAL,FAKE,,,,,,,,,,,,,,,,,,,,,
,,,,,,,5e9fcb1aa7eac5182448d5ab,605b45a4d25f287719a41696,605ce6762df5a601c7cbfbed,Colombia,Northeast,13 or older,no,2021-03-25_15h40.57.831,empathy_intonation_perc,2020.2.10,Win32,60,,,,,,,,,,0,,,,,,,,,,,,,,,,,,,,,,,,,,,,,,,,,,,,,,,,1,terzo,,,0,1,0.05313,0,51,51,0,1,REAL,FAKE,,,,,,,,,,,,,,,,,,,,,
,,,,,,,5e9fcb1aa7eac5182448d5ab,605b45a4d25f287719a41696,605ce6762df5a601c7cbfbed,Colombia,Northeast,13 or older,no,2021-03-25_15h40.57.831,empathy_intonation_perc,2020.2.10,Win32,60,,,,,,,,,,1,,,,,,,,,,,,,,,,,,,,,,,,,,,,,,,,,,,,,,,,65,bizcocho,,,1,1,0.05539,0,52,52,64,1,REAL,FAKE,,,,,,,,,,,,,,,,,,,,,
,,,,,,,5e9fcb1aa7eac5182448d5ab,605b45a4d25f287719a41696,605ce6762df5a601c7cbfbed,Colombia,Northeast,13 or older,no,2021-03-25_15h40.57.831,empathy_intonation_perc,2020.2.10,Win32,60,,,,,,,,,,0,,,,,,,,,,,,,,,,,,,,,,,,,,,,,,,,,,,,,,,,82,empirador,,,0,1,0.085965,0,53,53,81,1,REAL,FAKE,,,,,,,,,,,,,,,,,,,,,
,,,,,,,5e9fcb1aa7eac5182448d5ab,605b45a4d25f287719a41696,605ce6762df5a601c7cbfbed,Colombia,Northeast,13 or older,no,2021-03-25_15h40.57.831,empathy_intonation_perc,2020.2.10,Win32,60,,,,,,,,,,1,,,,,,,,,,,,,,,,,,,,,,,,,,,,,,,,,,,,,,,,85,lad,,,1,1,0.06395,0,54,54,84,1,REAL,FAKE,,,,,,,,,,,,,,,,,,,,,
,,,,,,,5e9fcb1aa7eac5182448d5ab,605b45a4d25f287719a41696,605ce6762df5a601c7cbfbed,Colombia,Northeast,13 or older,no,2021-03-25_15h40.57.831,empathy_intonation_perc,2020.2.10,Win32,60,,,,,,,,,,1,,,,,,,,,,,,,,,,,,,,,,,,,,,,,,,,,,,,,,,,28,merodear,,,0,0,0.004185,0,55,55,27,1,REAL,FAKE,,,,,,,,,,,,,,,,,,,,,
,,,,,,,5e9fcb1aa7eac5182448d5ab,605b45a4d25f287719a41696,605ce6762df5a601c7cbfbed,Colombia,Northeast,13 or older,no,2021-03-25_15h40.57.831,empathy_intonation_perc,2020.2.10,Win32,60,,,,,,,,,,1,,,,,,,,,,,,,,,,,,,,,,,,,,,,,,,,,,,,,,,,36,loro,,,1,1,0.134205,0,56,56,35,1,REAL,FAKE,,,,,,,,,,,,,,,,,,,,,
,,,,,,,5e9fcb1aa7eac5182448d5ab,605b45a4d25f287719a41696,605ce6762df5a601c7cbfbed,Colombia,Northeast,13 or older,no,2021-03-25_15h40.57.831,empathy_intonation_perc,2020.2.10,Win32,60,,,,,,,,,,1,,,,,,,,,,,,,,,,,,,,,,,,,,,,,,,,,,,,,,,,15,regar,,,0,0,0.11964,0,57,57,14,1,REAL,FAKE,,,,,,,,,,,,,,,,,,,,,
,,,,,,,5e9fcb1aa7eac5182448d5ab,605b45a4d25f287719a41696,605ce6762df5a601c7cbfbed,Colombia,Northeast,13 or older,no,2021-03-25_15h40.57.831,empathy_intonation_perc,2020.2.10,Win32,60,,,,,,,,,,0,,,,,,,,,,,,,,,,,,,,,,,,,,,,,,,,,,,,,,,,33,pauca,,,1,0,0.05178,0,58,58,32,1,REAL,FAKE,,,,,,,,,,,,,,,,,,,,,
,,,,,,,5e9fcb1aa7eac5182448d5ab,605b45a4d25f287719a41696,605ce6762df5a601c7cbfbed,Colombia,Northeast,13 or older,no,2021-03-25_15h40.57.831,empathy_intonation_perc,2020.2.10,Win32,60,,,,,,,,,,1,,,,,,,,,,,,,,,,,,,,,,,,,,,,,,,,,,,,,,,,57,tacao,,,0,0,0.042045,0,59,59,56,1,REAL,FAKE,,,,,,,,,,,,,,,,,,,,,
,,,,,,,5e9fcb1aa7eac5182448d5ab,605b45a4d25f287719a41696,605ce6762df5a601c7cbfbed,Colombia,Northeast,13 or older,no,2021-03-25_15h40.57.831,empathy_intonation_perc,2020.2.10,Win32,60,,,,,,,,,,1,,,,,,,,,,,,,,,,,,,,,,,,,,,,,,,,,,,,,,,,71,polvoriento,,,1,1,0.06833,0,60,60,70,1,REAL,FAKE,,,,,,,,,,,,,,,,,,,,,
,,,,,,,5e9fcb1aa7eac5182448d5ab,605b45a4d25f287719a41696,605ce6762df5a601c7cbfbed,Colombia,Northeast,13 or older,no,2021-03-25_15h40.57.831,empathy_intonation_perc,2020.2.10,Win32,60,,,,,,,,,,1,,,,,,,,,,,,,,,,,,,,,,,,,,,,,,,,,,,,,,,,45,jilguero,,,0,0,0.0031,0,61,61,44,1,REAL,FAKE,,,,,,,,,,,,,,,,,,,,,
,,,,,,,5e9fcb1aa7eac5182448d5ab,605b45a4d25f287719a41696,605ce6762df5a601c7cbfbed,Colombia,Northeast,13 or older,no,2021-03-25_15h40.57.831,empathy_intonation_perc,2020.2.10,Win32,60,,,,,,,,,,0,,,,,,,,,,,,,,,,,,,,,,,,,,,,,,,,,,,,,,,,42,cadallo,,,0,1,0.10197,0,62,62,41,1,REAL,FAKE,,,,,,,,,,,,,,,,,,,,,
,,,,,,,5e9fcb1aa7eac5182448d5ab,605b45a4d25f287719a41696,605ce6762df5a601c7cbfbed,Colombia,Northeast,13 or older,no,2021-03-25_15h40.57.831,empathy_intonation_perc,2020.2.10,Win32,60,,,,,,,,,,1,,,,,,,,,,,,,,,,,,,,,,,,,,,,,,,,,,,,,,,,51,candado,,,0,0,0.017535,0,63,63,50,1,REAL,FAKE,,,,,,,,,,,,,,,,,,,,,
,,,,,,,5e9fcb1aa7eac5182448d5ab,605b45a4d25f287719a41696,605ce6762df5a601c7cbfbed,Colombia,Northeast,13 or older,no,2021-03-25_15h40.57.831,empathy_intonation_perc,2020.2.10,Win32,60,,,,,,,,,,0,,,,,,,,,,,,,,,,,,,,,,,,,,,,,,,,,,,,,,,,23,lampera,,,0,1,0.019865,0,64,64,22,1,REAL,FAKE,,,,,,,,,,,,,,,,,,,,,
,,,,,,,5e9fcb1aa7eac5182448d5ab,605b45a4d25f287719a41696,605ce6762df5a601c7cbfbed,Colombia,Northeast,13 or older,no,2021-03-25_15h40.57.831,empathy_intonation_perc,2020.2.10,Win32,60,,,,,,,,,,1,,,,,,,,,,,,,,,,,,,,,,,,,,,,,,,,,,,,,,,,73,hervidor,,,1,1,0.00345,0,65,65,72,1,REAL,FAKE,,,,,,,,,,,,,,,,,,,,,
,,,,,,,5e9fcb1aa7eac5182448d5ab,605b45a4d25f287719a41696,605ce6762df5a601c7cbfbed,Colombia,Northeast,13 or older,no,2021-03-25_15h40.57.831,empathy_intonation_perc,2020.2.10,Win32,60,,,,,,,,,,1,,,,,,,,,,,,,,,,,,,,,,,,,,,,,,,,,,,,,,,,2,pellizcar,,,0,0,0.01525,0,66,66,1,1,REAL,FAKE,,,,,,,,,,,,,,,,,,,,,
,,,,,,,5e9fcb1aa7eac5182448d5ab,605b45a4d25f287719a41696,605ce6762df5a601c7cbfbed,Colombia,Northeast,13 or older,no,2021-03-25_15h40.57.831,empathy_intonation_perc,2020.2.10,Win32,60,,,,,,,,,,1,,,,,,,,,,,,,,,,,,,,,,,,,,,,,,,,,,,,,,,,56,musgo,,,0,0,0.01793,0,67,67,55,1,REAL,FAKE,,,,,,,,,,,,,,,,,,,,,
,,,,,,,5e9fcb1aa7eac5182448d5ab,605b45a4d25f287719a41696,605ce6762df5a601c7cbfbed,Colombia,Northeast,13 or older,no,2021-03-25_15h40.57.831,empathy_intonation_perc,2020.2.10,Win32,60,,,,,,,,,,0,,,,,,,,,,,,,,,,,,,,,,,,,,,,,,,,,,,,,,,,47,cartinar,,,1,0,0.004365,0,68,68,46,1,REAL,FAKE,,,,,,,,,,,,,,,,,,,,,
,,,,,,,5e9fcb1aa7eac5182448d5ab,605b45a4d25f287719a41696,605ce6762df5a601c7cbfbed,Colombia,Northeast,13 or older,no,2021-03-25_15h40.57.831,empathy_intonation_perc,2020.2.10,Win32,60,,,,,,,,,,1,,,,,,,,,,,,,,,,,,,,,,,,,,,,,,,,,,,,,,,,78,frondoso,,,1,1,0.08697,0,69,69,77,1,REAL,FAKE,,,,,,,,,,,,,,,,,,,,,
,,,,,,,5e9fcb1aa7eac5182448d5ab,605b45a4d25f287719a41696,605ce6762df5a601c7cbfbed,Colombia,Northeast,13 or older,no,2021-03-25_15h40.57.831,empathy_intonation_perc,2020.2.10,Win32,60,,,,,,,,,,0,,,,,,,,,,,,,,,,,,,,,,,,,,,,,,,,,,,,,,,,87,grodo,,,1,0,0.08481,0,70,70,86,1,REAL,FAKE,,,,,,,,,,,,,,,,,,,,,
,,,,,,,5e9fcb1aa7eac5182448d5ab,605b45a4d25f287719a41696,605ce6762df5a601c7cbfbed,Colombia,Northeast,13 or older,no,2021-03-25_15h40.57.831,empathy_intonation_perc,2020.2.10,Win32,60,,,,,,,,,,1,,,,,,,,,,,,,,,,,,,,,,,,,,,,,,,,,,,,,,,,20,vido,,,1,1,0.062315,0,71,71,19,1,REAL,FAKE,,,,,,,,,,,,,,,,,,,,,
,,,,,,,5e9fcb1aa7eac5182448d5ab,605b45a4d25f287719a41696,605ce6762df5a601c7cbfbed,Colombia,Northeast,13 or older,no,2021-03-25_15h40.57.831,empathy_intonation_perc,2020.2.10,Win32,60,,,,,,,,,,1,,,,,,,,,,,,,,,,,,,,,,,,,,,,,,,,,,,,,,,,86,barato,,,0,0,0.00272,0,72,72,85,1,REAL,FAKE,,,,,,,,,,,,,,,,,,,,,
,,,,,,,5e9fcb1aa7eac5182448d5ab,605b45a4d25f287719a41696,605ce6762df5a601c7cbfbed,Colombia,Northeast,13 or older,no,2021-03-25_15h40.57.831,empathy_intonation_perc,2020.2.10,Win32,60,,,,,,,,,,1,,,,,,,,,,,,,,,,,,,,,,,,,,,,,,,,,,,,,,,,26,secuestro,,,1,1,0.152155,0,73,73,25,1,REAL,FAKE,,,,,,,,,,,,,,,,,,,,,
,,,,,,,5e9fcb1aa7eac5182448d5ab,605b45a4d25f287719a41696,605ce6762df5a601c7cbfbed,Colombia,Northeast,13 or older,no,2021-03-25_15h40.57.831,empathy_intonation_perc,2020.2.10,Win32,60,,,,,,,,,,1,,,,,,,,,,,,,,,,,,,,,,,,,,,,,,,,,,,,,,,,52,camisa,,,0,0,0.218335,0,74,74,51,1,REAL,FAKE,,,,,,,,,,,,,,,,,,,,,
,,,,,,,5e9fcb1aa7eac5182448d5ab,605b45a4d25f287719a41696,605ce6762df5a601c7cbfbed,Colombia,Northeast,13 or older,no,2021-03-25_15h40.57.831,empathy_intonation_perc,2020.2.10,Win32,60,,,,,,,,,,0,,,,,,,,,,,,,,,,,,,,,,,,,,,,,,,,,,,,,,,,8,cadea,,,0,1,0.603655,0,75,75,7,1,REAL,FAKE,,,,,,,,,,,,,,,,,,,,,
,,,,,,,5e9fcb1aa7eac5182448d5ab,605b45a4d25f287719a41696,605ce6762df5a601c7cbfbed,Colombia,Northeast,13 or older,no,2021-03-25_15h40.57.831,empathy_intonation_perc,2020.2.10,Win32,60,,,,,,,,,,1,,,,,,,,,,,,,,,,,,,,,,,,,,,,,,,,,,,,,,,,37,granuja,,,1,1,0.47515,0,76,76,36,1,REAL,FAKE,,,,,,,,,,,,,,,,,,,,,
,,,,,,,5e9fcb1aa7eac5182448d5ab,605b45a4d25f287719a41696,605ce6762df5a601c7cbfbed,Colombia,Northeast,13 or older,no,2021-03-25_15h40.57.831,empathy_intonation_perc,2020.2.10,Win32,60,,,,,,,,,,1,,,,,,,,,,,,,,,,,,,,,,,,,,,,,,,,,,,,,,,,77,tiburn,,,0,0,0.35627,0,77,77,76,1,REAL,FAKE,,,,,,,,,,,,,,,,,,,,,
,,,,,,,5e9fcb1aa7eac5182448d5ab,605b45a4d25f287719a41696,605ce6762df5a601c7cbfbed,Colombia,Northeast,13 or older,no,2021-03-25_15h40.57.831,empathy_intonation_perc,2020.2.10,Win32,60,,,,,,,,,,1,,,,,,,,,,,,,,,,,,,,,,,,,,,,,,,,,,,,,,,,61,seda,,,0,0,0.829045,0,78,78,60,1,REAL,FAKE,,,,,,,,,,,,,,,,,,,,,
,,,,,,,5e9fcb1aa7eac5182448d5ab,605b45a4d25f287719a41696,605ce6762df5a601c7cbfbed,Colombia,Northeast,13 or older,no,2021-03-25_15h40.57.831,empathy_intonation_perc,2020.2.10,Win32,60,,,,,,,,,,0,,,,,,,,,,,,,,,,,,,,,,,,,,,,,,,,,,,,,,,,63,esposante,,,0,1,0.985645,0,79,79,62,1,REAL,FAKE,,,,,,,,,,,,,,,,,,,,,
,,,,,,,5e9fcb1aa7eac5182448d5ab,605b45a4d25f287719a41696,605ce6762df5a601c7cbfbed,Colombia,Northeast,13 or older,no,2021-03-25_15h40.57.831,empathy_intonation_perc,2020.2.10,Win32,60,,,,,,,,,,1,,,,,,,,,,,,,,,,,,,,,,,,,,,,,,,,,,,,,,,,59,besar,,,1,1,0.83542,0,80,80,58,1,REAL,FAKE,,,,,,,,,,,,,,,,,,,,,
,,,,,,,5e9fcb1aa7eac5182448d5ab,605b45a4d25f287719a41696,605ce6762df5a601c7cbfbed,Colombia,Northeast,13 or older,no,2021-03-25_15h40.57.831,empathy_intonation_perc,2020.2.10,Win32,60,,,,,,,,,,0,,,,,,,,,,,,,,,,,,,,,,,,,,,,,,,,,,,,,,,,16,abracer,,,0,1,0.6192,0,81,81,15,1,REAL,FAKE,,,,,,,,,,,,,,,,,,,,,
,,,,,,,5e9fcb1aa7eac5182448d5ab,605b45a4d25f287719a41696,605ce6762df5a601c7cbfbed,Colombia,Northeast,13 or older,no,2021-03-25_15h40.57.831,empathy_intonation_perc,2020.2.10,Win32,60,,,,,,,,,,1,,,,,,,,,,,,,,,,,,,,,,,,,,,,,,,,,,,,,,,,90,clavel,,,1,1,0.78797,0,82,82,89,1,REAL,FAKE,,,,,,,,,,,,,,,,,,,,,
,,,,,,,5e9fcb1aa7eac5182448d5ab,605b45a4d25f287719a41696,605ce6762df5a601c7cbfbed,Colombia,Northeast,13 or older,no,2021-03-25_15h40.57.831,empathy_intonation_perc,2020.2.10,Win32,60,,,,,,,,,,1,,,,,,,,,,,,,,,,,,,,,,,,,,,,,,,,,,,,,,,,6,tergiversar,,,0,0,0.63603,0,83,83,5,1,REAL,FAKE,,,,,,,,,,,,,,,,,,,,,
,,,,,,,5e9fcb1aa7eac5182448d5ab,605b45a4d25f287719a41696,605ce6762df5a601c7cbfbed,Colombia,Northeast,13 or older,no,2021-03-25_15h40.57.831,empathy_intonation_perc,2020.2.10,Win32,60,,,,,,,,,,0,,,,,,,,,,,,,,,,,,,,,,,,,,,,,,,,,,,,,,,,29,decar,,,0,1,0.70439,0,84,84,28,1,REAL,FAKE,,,,,,,,,,,,,,,,,,,,,
,,,,,,,5e9fcb1aa7eac5182448d5ab,605b45a4d25f287719a41696,605ce6762df5a601c7cbfbed,Colombia,Northeast,13 or older,no,2021-03-25_15h40.57.831,empathy_intonation_perc,2020.2.10,Win32,60,,,,,,,,,,1,,,,,,,,,,,,,,,,,,,,,,,,,,,,,,,,,,,,,,,,3,pulmones,,,0,0,0.66925,0,85,85,2,1,REAL,FAKE,,,,,,,,,,,,,,,,,,,,,
,,,,,,,5e9fcb1aa7eac5182448d5ab,605b45a4d25f287719a41696,605ce6762df5a601c7cbfbed,Colombia,Northeast,13 or older,no,2021-03-25_15h40.57.831,empathy_intonation_perc,2020.2.10,Win32,60,,,,,,,,,,1,,,,,,,,,,,,,,,,,,,,,,,,,,,,,,,,,,,,,,,,67,cabello,,,1,1,0.537465,0,86,86,66,1,REAL,FAKE,,,,,,,,,,,,,,,,,,,,,
,,,,,,,5e9fcb1aa7eac5182448d5ab,605b45a4d25f287719a41696,605ce6762df5a601c7cbfbed,Colombia,Northeast,13 or older,no,2021-03-25_15h40.57.831,empathy_intonation_perc,2020.2.10,Win32,60,,,,,,,,,,0,,,,,,,,,,,,,,,,,,,,,,,,,,,,,,,,,,,,,,,,27,acutacin,,,0,1,0.53784,0,87,87,26,1,REAL,FAKE,,,,,,,,,,,,,,,,,,,,,
,,,,,,,5e9fcb1aa7eac5182448d5ab,605b45a4d25f287719a41696,605ce6762df5a601c7cbfbed,Colombia,Northeast,13 or older,no,2021-03-25_15h40.57.831,empathy_intonation_perc,2020.2.10,Win32,60,,,,,,,,,,1,,,,,,,,,,,,,,,,,,,,,,,,,,,,,,,,,,,,,,,,5,zapato,,,0,0,0.52056,0,88,88,4,1,REAL,FAKE,,,,,,,,,,,,,,,,,,,,,
,,,,,,,5e9fcb1aa7eac5182448d5ab,605b45a4d25f287719a41696,605ce6762df5a601c7cbfbed,Colombia,Northeast,13 or older,no,2021-03-25_15h40.57.831,empathy_intonation_perc,2020.2.10,Win32,60,,,,,,,,,,1,,,,,,,,,,,,,,,,,,,,,,,,,,,,,,,,,,,,,,,,12,asesinato,,,0,0,0.336,0,89,89,11,1,REAL,FAKE,,,,,,,,,,,,,,,,,,,,,
,,,,,,,5e9fcb1aa7eac5182448d5ab,605b45a4d25f287719a41696,605ce6762df5a601c7cbfbed,Colombia,Northeast,13 or older,no,2021-03-25_15h40.57.831,empathy_intonation_perc,2020.2.10,Win32,60,,,,,,,,,,,,,,,,,,,,,,,,,,,,,,,,,,,,,,,,,,,,,,,,,,,,,,,,,,,,,,,,4,1,613.40052,1,0,0,0,0,0,1,,,,,,,,,,,
,,,,,,,5e9fcb1aa7eac5182448d5ab,605b45a4d25f287719a41696,605ce6762df5a601c7cbfbed,Colombia,Northeast,13 or older,no,2021-03-25_15h40.57.831,empathy_intonation_perc,2020.2.10,Win32,60,,,,,,,,,,,,,,,,,,,,1,,,,,,,,,,,,,,,,,,,,,,,,,,,,,,,,,,,,,,,,,,,,,,,,,,,,,,1,0,0,0,0,1,I can easily tell if someone else wants to enter a conversation.,1,0,1,0
,,,,,,,5e9fcb1aa7eac5182448d5ab,605b45a4d25f287719a41696,605ce6762df5a601c7cbfbed,Colombia,Northeast,13 or older,no,2021-03-25_15h40.57.831,empathy_intonation_perc,2020.2.10,Win32,60,,,,,,,,,,,,,,,,,,,,2,,,,,,,,,,,,,,,,,,,,,,,,,,,,,,,,,,,,,,,,,,,,,,,,,,,,,,2,0,1,1,1,1,I prefer animals to humans.,0,1,0,0
,,,,,,,5e9fcb1aa7eac5182448d5ab,605b45a4d25f287719a41696,605ce6762df5a601c7cbfbed,Colombia,Northeast,13 or older,no,2021-03-25_15h40.57.831,empathy_intonation_perc,2020.2.10,Win32,60,,,,,,,,,,,,,,,,,,,,3,,,,,,,,,,,,,,,,,,,,,,,,,,,,,,,,,,,,,,,,,,,,,,,,,,,,,,2,0,2,2,2,1,I try to keep up with the current trends and fashions.,0,1,0,0
,,,,,,,5e9fcb1aa7eac5182448d5ab,605b45a4d25f287719a41696,605ce6762df5a601c7cbfbed,Colombia,Northeast,13 or older,no,2021-03-25_15h40.57.831,empathy_intonation_perc,2020.2.10,Win32,60,,,,,,,,,,,,,,,,,,,,4,,,,,,,,,,,,,,,,,,,,,,,,,,,,,,,,,,,,,,,,,,,,,,,,,,,,,,1,0,3,3,3,1,"I find it difficult to explain to others things that I understand easily, 
  when they dont understand it first time.",1,0,0,1
,,,,,,,5e9fcb1aa7eac5182448d5ab,605b45a4d25f287719a41696,605ce6762df5a601c7cbfbed,Colombia,Northeast,13 or older,no,2021-03-25_15h40.57.831,empathy_intonation_perc,2020.2.10,Win32,60,,,,,,,,,,,,,,,,,,,,5,,,,,,,,,,,,,,,,,,,,,,,,,,,,,,,,,,,,,,,,,,,,,,,,,,,,,,1,0,4,4,4,1,I dream most nights.,0,1,0,0
,,,,,,,5e9fcb1aa7eac5182448d5ab,605b45a4d25f287719a41696,605ce6762df5a601c7cbfbed,Colombia,Northeast,13 or older,no,2021-03-25_15h40.57.831,empathy_intonation_perc,2020.2.10,Win32,60,,,,,,,,,,,,,,,,,,,,6,,,,,,,,,,,,,,,,,,,,,,,,,,,,,,,,,,,,,,,,,,,,,,,,,,,,,,1,0,5,5,5,1,I really enjoy caring for other people.,1,0,1,0
,,,,,,,5e9fcb1aa7eac5182448d5ab,605b45a4d25f287719a41696,605ce6762df5a601c7cbfbed,Colombia,Northeast,13 or older,no,2021-03-25_15h40.57.831,empathy_intonation_perc,2020.2.10,Win32,60,,,,,,,,,,,,,,,,,,,,7,,,,,,,,,,,,,,,,,,,,,,,,,,,,,,,,,,,,,,,,,,,,,,,,,,,,,,2,0,6,6,6,1,I try to solve my own problems rather than discussing them with others.,0,1,0,0
