instructions_2afc_loop.thisRepN,instructions_2afc_loop.thisTrialN,instructions_2afc_loop.thisN,instructions_2afc_loop.thisIndex,instructions_2afc_loop.ran,instructions_text,continue_text,participant,study_id,session,I am most familiar with Spanish from...*,What part of the US are you from?*,At what age did you begin learning Spanish?*,Are you proficient in any languages other than English/Spanish?*,date,expName,psychopyVersion,OS,frameRate,key_resp_2afc_practice.keys,key_resp_2afc_practice.corr,key_resp_2afc_practice.rt,trials_2afc_practice_loop.thisRepN,trials_2afc_practice_loop.thisTrialN,trials_2afc_practice_loop.thisN,trials_2afc_practice_loop.thisIndex,trials_2afc_practice_loop.ran,path,correct_response,the_col,key_resp_2afc_trial.keys,key_resp_2afc_trial.corr,key_resp_2afc_trial.rt,trials_2afc_loop.thisRepN,trials_2afc_loop.thisTrialN,trials_2afc_loop.thisN,trials_2afc_loop.thisIndex,trials_2afc_loop.ran,item_num,andalusian,argentine,castilian,chilean,cuban,mexican,peruvian,puertorican,key_resp_ac1.keys,key_resp_ac1.corr,key_resp_ac1.rt,ac1_loop.thisRepN,ac1_loop.thisTrialN,ac1_loop.thisN,ac1_loop.thisIndex,ac1_loop.ran,instructions_lextale_loop.thisRepN,instructions_lextale_loop.thisTrialN,instructions_lextale_loop.thisN,instructions_lextale_loop.thisIndex,instructions_lextale_loop.ran,key_resp_lextale_practice.keys,key_resp_lextale_practice.corr,key_resp_lextale_practice.rt,trials_lextale_practice_loop.thisRepN,trials_lextale_practice_loop.thisTrialN,trials_lextale_practice_loop.thisN,trials_lextale_practice_loop.thisIndex,trials_lextale_practice_loop.ran,stim,word,prac_button_real,prac_button_false,key_resp_lextale_trial.keys,key_resp_lextale_trial.corr,key_resp_lextale_trial.rt,trials_lextale_loop.thisRepN,trials_lextale_loop.thisTrialN,trials_lextale_loop.thisN,trials_lextale_loop.thisIndex,trials_lextale_loop.ran,button_real,button_false,key_resp_ac2.keys,key_resp_ac2.corr,key_resp_ac2.rt,check_pass,check_fails,ac2_loop.thisRepN,ac2_loop.thisTrialN,ac2_loop.thisN,ac2_loop.thisIndex,ac2_loop.ran,slider_eq_trial.response,trials_eq_loop.thisRepN,trials_eq_loop.thisTrialN,trials_eq_loop.thisN,trials_eq_loop.thisIndex,trials_eq_loop.ran,item,is_test_item,is_distractor,is_agree_score,is_disagree_score
0,0,0,0,1,"In the following task you are going to hear a series of utterances. 

  You will decide if the utterances sound like questions or not using your keyboard.",(press the spacebar to continue),5eb0bbbc0be27c183500b45d,6057c54e64b0b4e5c128b4f9,605a76b0af5b3c0a8689d29f,Spain,Northeast,13 or older,no,2021-03-23_19h16.29.856,empathy_intonation_perc,2020.2.10,Win32,60,,,,,,,,,,,,,,,,,,,,,,,,,,,,,,,,,,,,,,,,,,,,,,,,,,,,,,,,,,,,,,,,,,,,,,,,,,,,,,,,,,,,
0,1,1,1,1,"If you believe the utterance is a question, type '1' (for 'yes') and if you do not 
  believe it is a question type '0' (for 'no').

  Let's practice a bit...",(press the spacebar to continue),5eb0bbbc0be27c183500b45d,6057c54e64b0b4e5c128b4f9,605a76b0af5b3c0a8689d29f,Spain,Northeast,13 or older,no,2021-03-23_19h16.29.856,empathy_intonation_perc,2020.2.10,Win32,60,,,,,,,,,,,,,,,,,,,,,,,,,,,,,,,,,,,,,,,,,,,,,,,,,,,,,,,,,,,,,,,,,,,,,,,,,,,,,,,,,,,,
,,,,,,,5eb0bbbc0be27c183500b45d,6057c54e64b0b4e5c128b4f9,605a76b0af5b3c0a8689d29f,Spain,Northeast,13 or older,no,2021-03-23_19h16.29.856,empathy_intonation_perc,2020.2.10,Win32,60,1,0,4.63043,0,0,0,5,1,./stim/wavs/andalusian_statement_filler_Alberto-nunca-se-afeita.wav,0,,,,,,,,,,,,,,,,,,,,,,,,,,,,,,,,,,,,,,,,,,,,,,,,,,,,,,,,,,,,,,,,,,,,,,,,,,
,,,,,,,5eb0bbbc0be27c183500b45d,6057c54e64b0b4e5c128b4f9,605a76b0af5b3c0a8689d29f,Spain,Northeast,13 or older,no,2021-03-23_19h16.29.856,empathy_intonation_perc,2020.2.10,Win32,60,0,1,2.185285,0,1,1,6,1,./stim/wavs/peruvian_statement_filler_El-nino-habla-con-su-madre.wav,0,,,,,,,,,,,,,,,,,,,,,,,,,,,,,,,,,,,,,,,,,,,,,,,,,,,,,,,,,,,,,,,,,,,,,,,,,,
,,,,,,,5eb0bbbc0be27c183500b45d,6057c54e64b0b4e5c128b4f9,605a76b0af5b3c0a8689d29f,Spain,Northeast,13 or older,no,2021-03-23_19h16.29.856,empathy_intonation_perc,2020.2.10,Win32,60,1,1,2.685555,0,2,2,0,1,./stim/wavs/castilian_question_filler_Mi-esposo-conoce-al-chico.wav,1,,,,,,,,,,,,,,,,,,,,,,,,,,,,,,,,,,,,,,,,,,,,,,,,,,,,,,,,,,,,,,,,,,,,,,,,,,
,,,,,,,5eb0bbbc0be27c183500b45d,6057c54e64b0b4e5c128b4f9,605a76b0af5b3c0a8689d29f,Spain,Northeast,13 or older,no,2021-03-23_19h16.29.856,empathy_intonation_perc,2020.2.10,Win32,60,0,0,2.44422,0,3,3,2,1,./stim/wavs/chilean_question_filler_Mi-padre-cantaba-bien.wav,1,,,,,,,,,,,,,,,,,,,,,,,,,,,,,,,,,,,,,,,,,,,,,,,,,,,,,,,,,,,,,,,,,,,,,,,,,,
,,,,,,,5eb0bbbc0be27c183500b45d,6057c54e64b0b4e5c128b4f9,605a76b0af5b3c0a8689d29f,Spain,Northeast,13 or older,no,2021-03-23_19h16.29.856,empathy_intonation_perc,2020.2.10,Win32,60,0,1,2.539155,0,4,4,4,1,./stim/wavs/cuban_statement_filler_Cocinabas-por-la-noche.wav,0,,,,,,,,,,,,,,,,,,,,,,,,,,,,,,,,,,,,,,,,,,,,,,,,,,,,,,,,,,,,,,,,,,,,,,,,,,
,,,,,,,5eb0bbbc0be27c183500b45d,6057c54e64b0b4e5c128b4f9,605a76b0af5b3c0a8689d29f,Spain,Northeast,13 or older,no,2021-03-23_19h16.29.856,empathy_intonation_perc,2020.2.10,Win32,60,1,1,2.534335,0,5,5,3,1,./stim/wavs/mexican_question_filler_Felipe-no-tiene-contrasena.wav,1,,,,,,,,,,,,,,,,,,,,,,,,,,,,,,,,,,,,,,,,,,,,,,,,,,,,,,,,,,,,,,,,,,,,,,,,,,
,,,,,,,5eb0bbbc0be27c183500b45d,6057c54e64b0b4e5c128b4f9,605a76b0af5b3c0a8689d29f,Spain,Northeast,13 or older,no,2021-03-23_19h16.29.856,empathy_intonation_perc,2020.2.10,Win32,60,0,0,1.575435,0,6,6,1,1,./stim/wavs/argentine_question_filler_Mi-vecino-habla-mucho.wav,1,,,,,,,,,,,,,,,,,,,,,,,,,,,,,,,,,,,,,,,,,,,,,,,,,,,,,,,,,,,,,,,,,,,,,,,,,,
,,,,,,,5eb0bbbc0be27c183500b45d,6057c54e64b0b4e5c128b4f9,605a76b0af5b3c0a8689d29f,Spain,Northeast,13 or older,no,2021-03-23_19h16.29.856,empathy_intonation_perc,2020.2.10,Win32,60,0,1,2.05891,0,7,7,7,1,./stim/wavs/puertorican_statement_filler_La-nina-pinta-con-su-amiga.wav,0,,,,,,,,,,,,,,,,,,,,,,,,,,,,,,,,,,,,,,,,,,,,,,,,,,,,,,,,,,,,,,,,,,,,,,,,,,
,,,,,,,5eb0bbbc0be27c183500b45d,6057c54e64b0b4e5c128b4f9,605a76b0af5b3c0a8689d29f,Spain,Northeast,13 or older,no,2021-03-23_19h16.29.856,empathy_intonation_perc,2020.2.10,Win32,60,,,,,,,,,,0,chilean,1,0,6.951775,0,0,0,35,1,36,./stim/wavs/andalusian_mismatch_declarative-broad-focus_La-maestra-vive-en-Paris.wav,./stim/wavs/argentine_mismatch_declarative-broad-focus_La-maestra-vive-en-Paris.wav,./stim/wavs/castilian_mismatch_declarative-broad-focus_La-maestra-vive-en-Paris.wav,./stim/wavs/chilean_mismatch_declarative-broad-focus_La-maestra-vive-en-Paris.wav,./stim/wavs/cuban_mismatch_declarative-broad-focus_La-maestra-vive-en-Paris.wav,./stim/wavs/mexican_mismatch_declarative-broad-focus_La-maestra-vive-en-Paris.wav,./stim/wavs/peruvian_mismatch_declarative-broad-focus_La-maestra-vive-en-Paris.wav,./stim/wavs/puertorican_mismatch_declarative-broad-focus_La-maestra-vive-en-Paris.wav,,,,,,,,,,,,,,,,,,,,,,,,,,,,,,,,,,,,,,,,,,,,,,,,,,,,,,,,
,,,,,,,5eb0bbbc0be27c183500b45d,6057c54e64b0b4e5c128b4f9,605a76b0af5b3c0a8689d29f,Spain,Northeast,13 or older,no,2021-03-23_19h16.29.856,empathy_intonation_perc,2020.2.10,Win32,60,,,,,,,,,,0,puertorican,0,1,6.0946,0,1,1,34,1,35,./stim/wavs/andalusian_mismatch_declarative-broad-focus_El-nino-oye-el-rio.wav,./stim/wavs/argentine_mismatch_declarative-broad-focus_El-nino-oye-el-rio.wav,./stim/wavs/castilian_mismatch_declarative-broad-focus_El-nino-oye-el-rio.wav,./stim/wavs/chilean_mismatch_declarative-broad-focus_El-nino-oye-el-rio.wav,./stim/wavs/cuban_mismatch_declarative-broad-focus_El-nino-oye-el-rio.wav,./stim/wavs/mexican_mismatch_declarative-broad-focus_El-nino-oye-el-rio.wav,./stim/wavs/peruvian_mismatch_declarative-broad-focus_El-nino-oye-el-rio.wav,./stim/wavs/puertorican_mismatch_declarative-broad-focus_El-nino-oye-el-rio.wav,,,,,,,,,,,,,,,,,,,,,,,,,,,,,,,,,,,,,,,,,,,,,,,,,,,,,,,,
,,,,,,,5eb0bbbc0be27c183500b45d,6057c54e64b0b4e5c128b4f9,605a76b0af5b3c0a8689d29f,Spain,Northeast,13 or older,no,2021-03-23_19h16.29.856,empathy_intonation_perc,2020.2.10,Win32,60,,,,,,,,,,1,chilean,0,0,2.505795,0,2,2,19,1,20,./stim/wavs/andalusian_match_interrogative-partial-wh_Cuando-vendia-el-carro.wav,./stim/wavs/argentine_match_interrogative-partial-wh_Cuando-vendia-el-carro.wav,./stim/wavs/castilian_match_interrogative-partial-wh_Cuando-vendia-el-carro.wav,./stim/wavs/chilean_match_interrogative-partial-wh_Cuando-vendia-el-carro.wav,./stim/wavs/cuban_match_interrogative-partial-wh_Cuando-vendia-el-carro.wav,./stim/wavs/mexican_match_interrogative-partial-wh_Cuando-vendia-el-carro.wav,./stim/wavs/peruvian_match_interrogative-partial-wh_Cuando-vendia-el-carro.wav,./stim/wavs/puertorican_match_interrogative-partial-wh_Cuando-vendia-el-carro.wav,,,,,,,,,,,,,,,,,,,,,,,,,,,,,,,,,,,,,,,,,,,,,,,,,,,,,,,,
,,,,,,,5eb0bbbc0be27c183500b45d,6057c54e64b0b4e5c128b4f9,605a76b0af5b3c0a8689d29f,Spain,Northeast,13 or older,no,2021-03-23_19h16.29.856,empathy_intonation_perc,2020.2.10,Win32,60,,,,,,,,,,1,puertorican,0,0,2.228865,0,3,3,61,1,62,./stim/wavs/andalusian_mismatch_interrogative-total-yn_Mi-madre-come-la-fruta.wav,./stim/wavs/argentine_mismatch_interrogative-total-yn_Mi-madre-come-la-fruta.wav,./stim/wavs/castilian_mismatch_interrogative-total-yn_Mi-madre-come-la-fruta.wav,./stim/wavs/chilean_mismatch_interrogative-total-yn_Mi-madre-come-la-fruta.wav,./stim/wavs/cuban_mismatch_interrogative-total-yn_Mi-madre-come-la-fruta.wav,./stim/wavs/mexican_mismatch_interrogative-total-yn_Mi-madre-come-la-fruta.wav,./stim/wavs/peruvian_mismatch_interrogative-total-yn_Mi-madre-come-la-fruta.wav,./stim/wavs/puertorican_mismatch_interrogative-total-yn_Mi-madre-come-la-fruta.wav,,,,,,,,,,,,,,,,,,,,,,,,,,,,,,,,,,,,,,,,,,,,,,,,,,,,,,,,
,,,,,,,5eb0bbbc0be27c183500b45d,6057c54e64b0b4e5c128b4f9,605a76b0af5b3c0a8689d29f,Spain,Northeast,13 or older,no,2021-03-23_19h16.29.856,empathy_intonation_perc,2020.2.10,Win32,60,,,,,,,,,,1,chilean,0,0,2.40732,0,4,4,60,1,61,./stim/wavs/andalusian_mismatch_interrogative-total-yn_La-nina-lava-el-plato.wav,./stim/wavs/argentine_mismatch_interrogative-total-yn_La-nina-lava-el-plato.wav,./stim/wavs/castilian_mismatch_interrogative-total-yn_La-nina-lava-el-plato.wav,./stim/wavs/chilean_mismatch_interrogative-total-yn_La-nina-lava-el-plato.wav,./stim/wavs/cuban_mismatch_interrogative-total-yn_La-nina-lava-el-plato.wav,./stim/wavs/mexican_mismatch_interrogative-total-yn_La-nina-lava-el-plato.wav,./stim/wavs/peruvian_mismatch_interrogative-total-yn_La-nina-lava-el-plato.wav,./stim/wavs/puertorican_mismatch_interrogative-total-yn_La-nina-lava-el-plato.wav,,,,,,,,,,,,,,,,,,,,,,,,,,,,,,,,,,,,,,,,,,,,,,,,,,,,,,,,
,,,,,,,5eb0bbbc0be27c183500b45d,6057c54e64b0b4e5c128b4f9,605a76b0af5b3c0a8689d29f,Spain,Northeast,13 or older,no,2021-03-23_19h16.29.856,empathy_intonation_perc,2020.2.10,Win32,60,,,,,,,,,,0,castilian,0,1,1.71839,0,5,5,7,1,8,./stim/wavs/andalusian_match_declarative-broad-focus_Marta-abre-el-regalo.wav,./stim/wavs/argentine_match_declarative-broad-focus_Marta-abre-el-regalo.wav,./stim/wavs/castilian_match_declarative-broad-focus_Marta-abre-el-regalo.wav,./stim/wavs/chilean_match_declarative-broad-focus_Marta-abre-el-regalo.wav,./stim/wavs/cuban_match_declarative-broad-focus_Marta-abre-el-regalo.wav,./stim/wavs/mexican_match_declarative-broad-focus_Marta-abre-el-regalo.wav,./stim/wavs/peruvian_match_declarative-broad-focus_Marta-abre-el-regalo.wav,./stim/wavs/puertorican_match_declarative-broad-focus_Marta-abre-el-regalo.wav,,,,,,,,,,,,,,,,,,,,,,,,,,,,,,,,,,,,,,,,,,,,,,,,,,,,,,,,
,,,,,,,5eb0bbbc0be27c183500b45d,6057c54e64b0b4e5c128b4f9,605a76b0af5b3c0a8689d29f,Spain,Northeast,13 or older,no,2021-03-23_19h16.29.856,empathy_intonation_perc,2020.2.10,Win32,60,,,,,,,,,,1,castilian,0,0,2.30166,0,6,6,29,1,30,./stim/wavs/andalusian_match_interrogative-total-yn_Maria-bebe-el-vino.wav,./stim/wavs/argentine_match_interrogative-total-yn_Maria-bebe-el-vino.wav,./stim/wavs/castilian_match_interrogative-total-yn_Maria-bebe-el-vino.wav,./stim/wavs/chilean_match_interrogative-total-yn_Maria-bebe-el-vino.wav,./stim/wavs/cuban_match_interrogative-total-yn_Maria-bebe-el-vino.wav,./stim/wavs/mexican_match_interrogative-total-yn_Maria-bebe-el-vino.wav,./stim/wavs/peruvian_match_interrogative-total-yn_Maria-bebe-el-vino.wav,./stim/wavs/puertorican_match_interrogative-total-yn_Maria-bebe-el-vino.wav,,,,,,,,,,,,,,,,,,,,,,,,,,,,,,,,,,,,,,,,,,,,,,,,,,,,,,,,
,,,,,,,5eb0bbbc0be27c183500b45d,6057c54e64b0b4e5c128b4f9,605a76b0af5b3c0a8689d29f,Spain,Northeast,13 or older,no,2021-03-23_19h16.29.856,empathy_intonation_perc,2020.2.10,Win32,60,,,,,,,,,,1,castilian,0,0,2.03736,0,7,7,52,1,53,./stim/wavs/andalusian_mismatch_interrogative-partial-wh_Por-que-odiaba-la-lluvia.wav,./stim/wavs/argentine_mismatch_interrogative-partial-wh_Por-que-odiaba-la-lluvia.wav,./stim/wavs/castilian_mismatch_interrogative-partial-wh_Por-que-odiaba-la-lluvia.wav,./stim/wavs/chilean_mismatch_interrogative-partial-wh_Por-que-odiaba-la-lluvia.wav,./stim/wavs/cuban_mismatch_interrogative-partial-wh_Por-que-odiaba-la-lluvia.wav,./stim/wavs/mexican_mismatch_interrogative-partial-wh_Por-que-odiaba-la-lluvia.wav,./stim/wavs/peruvian_mismatch_interrogative-partial-wh_Por-que-odiaba-la-lluvia.wav,./stim/wavs/puertorican_mismatch_interrogative-partial-wh_Por-que-odiaba-la-lluvia.wav,,,,,,,,,,,,,,,,,,,,,,,,,,,,,,,,,,,,,,,,,,,,,,,,,,,,,,,,
,,,,,,,5eb0bbbc0be27c183500b45d,6057c54e64b0b4e5c128b4f9,605a76b0af5b3c0a8689d29f,Spain,Northeast,13 or older,no,2021-03-23_19h16.29.856,empathy_intonation_perc,2020.2.10,Win32,60,,,,,,,,,,0,cuban,0,1,1.547935,0,8,8,42,1,43,./stim/wavs/andalusian_mismatch_declarative-narrow-focus_El-nino-oye-el-rio.wav,./stim/wavs/argentine_mismatch_declarative-narrow-focus_El-nino-oye-el-rio.wav,./stim/wavs/castilian_mismatch_declarative-narrow-focus_El-nino-oye-el-rio.wav,./stim/wavs/chilean_mismatch_declarative-narrow-focus_El-nino-oye-el-rio.wav,./stim/wavs/cuban_mismatch_declarative-narrow-focus_El-nino-oye-el-rio.wav,./stim/wavs/mexican_mismatch_declarative-narrow-focus_El-nino-oye-el-rio.wav,./stim/wavs/peruvian_mismatch_declarative-narrow-focus_El-nino-oye-el-rio.wav,./stim/wavs/puertorican_mismatch_declarative-narrow-focus_El-nino-oye-el-rio.wav,,,,,,,,,,,,,,,,,,,,,,,,,,,,,,,,,,,,,,,,,,,,,,,,,,,,,,,,
,,,,,,,5eb0bbbc0be27c183500b45d,6057c54e64b0b4e5c128b4f9,605a76b0af5b3c0a8689d29f,Spain,Northeast,13 or older,no,2021-03-23_19h16.29.856,empathy_intonation_perc,2020.2.10,Win32,60,,,,,,,,,,0,puertorican,0,1,1.69179,0,9,9,6,1,7,./stim/wavs/andalusian_match_declarative-broad-focus_Mariano-habla-del-tiempo.wav,./stim/wavs/argentine_match_declarative-broad-focus_Mariano-habla-del-tiempo.wav,./stim/wavs/castilian_match_declarative-broad-focus_Mariano-habla-del-tiempo.wav,./stim/wavs/chilean_match_declarative-broad-focus_Mariano-habla-del-tiempo.wav,./stim/wavs/cuban_match_declarative-broad-focus_Mariano-habla-del-tiempo.wav,./stim/wavs/mexican_match_declarative-broad-focus_Mariano-habla-del-tiempo.wav,./stim/wavs/peruvian_match_declarative-broad-focus_Mariano-habla-del-tiempo.wav,./stim/wavs/puertorican_match_declarative-broad-focus_Mariano-habla-del-tiempo.wav,,,,,,,,,,,,,,,,,,,,,,,,,,,,,,,,,,,,,,,,,,,,,,,,,,,,,,,,
,,,,,,,5eb0bbbc0be27c183500b45d,6057c54e64b0b4e5c128b4f9,605a76b0af5b3c0a8689d29f,Spain,Northeast,13 or older,no,2021-03-23_19h16.29.856,empathy_intonation_perc,2020.2.10,Win32,60,,,,,,,,,,1,mexican,0,0,2.22117,0,10,10,55,1,56,./stim/wavs/andalusian_mismatch_interrogative-partial-wh_Por-que-vivia-en-Paris.wav,./stim/wavs/argentine_mismatch_interrogative-partial-wh_Por-que-vivia-en-Paris.wav,./stim/wavs/castilian_mismatch_interrogative-partial-wh_Por-que-vivia-en-Paris.wav,./stim/wavs/chilean_mismatch_interrogative-partial-wh_Por-que-vivia-en-Paris.wav,./stim/wavs/cuban_mismatch_interrogative-partial-wh_Por-que-vivia-en-Paris.wav,./stim/wavs/mexican_mismatch_interrogative-partial-wh_Por-que-vivia-en-Paris.wav,./stim/wavs/peruvian_mismatch_interrogative-partial-wh_Por-que-vivia-en-Paris.wav,./stim/wavs/puertorican_mismatch_interrogative-partial-wh_Por-que-vivia-en-Paris.wav,,,,,,,,,,,,,,,,,,,,,,,,,,,,,,,,,,,,,,,,,,,,,,,,,,,,,,,,
,,,,,,,5eb0bbbc0be27c183500b45d,6057c54e64b0b4e5c128b4f9,605a76b0af5b3c0a8689d29f,Spain,Northeast,13 or older,no,2021-03-23_19h16.29.856,empathy_intonation_perc,2020.2.10,Win32,60,,,,,,,,,,0,peruvian,0,1,3.242995,0,11,11,41,1,42,./stim/wavs/andalusian_mismatch_declarative-narrow-focus_El-hombre-mira-la-luna.wav,./stim/wavs/argentine_mismatch_declarative-narrow-focus_El-hombre-mira-la-luna.wav,./stim/wavs/castilian_mismatch_declarative-narrow-focus_El-hombre-mira-la-luna.wav,./stim/wavs/chilean_mismatch_declarative-narrow-focus_El-hombre-mira-la-luna.wav,./stim/wavs/cuban_mismatch_declarative-narrow-focus_El-hombre-mira-la-luna.wav,./stim/wavs/mexican_mismatch_declarative-narrow-focus_El-hombre-mira-la-luna.wav,./stim/wavs/peruvian_mismatch_declarative-narrow-focus_El-hombre-mira-la-luna.wav,./stim/wavs/puertorican_mismatch_declarative-narrow-focus_El-hombre-mira-la-luna.wav,,,,,,,,,,,,,,,,,,,,,,,,,,,,,,,,,,,,,,,,,,,,,,,,,,,,,,,,
,,,,,,,5eb0bbbc0be27c183500b45d,6057c54e64b0b4e5c128b4f9,605a76b0af5b3c0a8689d29f,Spain,Northeast,13 or older,no,2021-03-23_19h16.29.856,empathy_intonation_perc,2020.2.10,Win32,60,,,,,,,,,,1,chilean,1,1,2.925185,0,12,12,62,1,63,./stim/wavs/andalusian_mismatch_interrogative-total-yn_Mi-novio-viene-del-lago.wav,./stim/wavs/argentine_mismatch_interrogative-total-yn_Mi-novio-viene-del-lago.wav,./stim/wavs/castilian_mismatch_interrogative-total-yn_Mi-novio-viene-del-lago.wav,./stim/wavs/chilean_mismatch_interrogative-total-yn_Mi-novio-viene-del-lago.wav,./stim/wavs/cuban_mismatch_interrogative-total-yn_Mi-novio-viene-del-lago.wav,./stim/wavs/mexican_mismatch_interrogative-total-yn_Mi-novio-viene-del-lago.wav,./stim/wavs/peruvian_mismatch_interrogative-total-yn_Mi-novio-viene-del-lago.wav,./stim/wavs/puertorican_mismatch_interrogative-total-yn_Mi-novio-viene-del-lago.wav,,,,,,,,,,,,,,,,,,,,,,,,,,,,,,,,,,,,,,,,,,,,,,,,,,,,,,,,
,,,,,,,5eb0bbbc0be27c183500b45d,6057c54e64b0b4e5c128b4f9,605a76b0af5b3c0a8689d29f,Spain,Northeast,13 or older,no,2021-03-23_19h16.29.856,empathy_intonation_perc,2020.2.10,Win32,60,,,,,,,,,,1,chilean,0,0,2.077415,0,13,13,25,1,26,./stim/wavs/andalusian_match_interrogative-total-yn_Daniel-iba-a-Bolivia.wav,./stim/wavs/argentine_match_interrogative-total-yn_Daniel-iba-a-Bolivia.wav,./stim/wavs/castilian_match_interrogative-total-yn_Daniel-iba-a-Bolivia.wav,./stim/wavs/chilean_match_interrogative-total-yn_Daniel-iba-a-Bolivia.wav,./stim/wavs/cuban_match_interrogative-total-yn_Daniel-iba-a-Bolivia.wav,./stim/wavs/mexican_match_interrogative-total-yn_Daniel-iba-a-Bolivia.wav,./stim/wavs/peruvian_match_interrogative-total-yn_Daniel-iba-a-Bolivia.wav,./stim/wavs/puertorican_match_interrogative-total-yn_Daniel-iba-a-Bolivia.wav,,,,,,,,,,,,,,,,,,,,,,,,,,,,,,,,,,,,,,,,,,,,,,,,,,,,,,,,
,,,,,,,5eb0bbbc0be27c183500b45d,6057c54e64b0b4e5c128b4f9,605a76b0af5b3c0a8689d29f,Spain,Northeast,13 or older,no,2021-03-23_19h16.29.856,empathy_intonation_perc,2020.2.10,Win32,60,,,,,,,,,,0,argentine,0,1,1.40122,0,14,14,8,1,9,./stim/wavs/andalusian_match_declarative-narrow-focus_Ana-lleva-el-abrigo.wav,./stim/wavs/argentine_match_declarative-narrow-focus_Ana-lleva-el-abrigo.wav,./stim/wavs/castilian_match_declarative-narrow-focus_Ana-lleva-el-abrigo.wav,./stim/wavs/chilean_match_declarative-narrow-focus_Ana-lleva-el-abrigo.wav,./stim/wavs/cuban_match_declarative-narrow-focus_Ana-lleva-el-abrigo.wav,./stim/wavs/mexican_match_declarative-narrow-focus_Ana-lleva-el-abrigo.wav,./stim/wavs/peruvian_match_declarative-narrow-focus_Ana-lleva-el-abrigo.wav,./stim/wavs/puertorican_match_declarative-narrow-focus_Ana-lleva-el-abrigo.wav,,,,,,,,,,,,,,,,,,,,,,,,,,,,,,,,,,,,,,,,,,,,,,,,,,,,,,,,
,,,,,,,5eb0bbbc0be27c183500b45d,6057c54e64b0b4e5c128b4f9,605a76b0af5b3c0a8689d29f,Spain,Northeast,13 or older,no,2021-03-23_19h16.29.856,empathy_intonation_perc,2020.2.10,Win32,60,,,,,,,,,,0,peruvian,0,1,3.71385,0,15,15,5,1,6,./stim/wavs/andalusian_match_declarative-broad-focus_Maria-bebe-el-vino.wav,./stim/wavs/argentine_match_declarative-broad-focus_Maria-bebe-el-vino.wav,./stim/wavs/castilian_match_declarative-broad-focus_Maria-bebe-el-vino.wav,./stim/wavs/chilean_match_declarative-broad-focus_Maria-bebe-el-vino.wav,./stim/wavs/cuban_match_declarative-broad-focus_Maria-bebe-el-vino.wav,./stim/wavs/mexican_match_declarative-broad-focus_Maria-bebe-el-vino.wav,./stim/wavs/peruvian_match_declarative-broad-focus_Maria-bebe-el-vino.wav,./stim/wavs/puertorican_match_declarative-broad-focus_Maria-bebe-el-vino.wav,,,,,,,,,,,,,,,,,,,,,,,,,,,,,,,,,,,,,,,,,,,,,,,,,,,,,,,,
,,,,,,,5eb0bbbc0be27c183500b45d,6057c54e64b0b4e5c128b4f9,605a76b0af5b3c0a8689d29f,Spain,Northeast,13 or older,no,2021-03-23_19h16.29.856,empathy_intonation_perc,2020.2.10,Win32,60,,,,,,,,,,1,chilean,0,0,2.936005,0,16,16,26,1,27,./stim/wavs/andalusian_match_interrogative-total-yn_David-leia-el-libro.wav,./stim/wavs/argentine_match_interrogative-total-yn_David-leia-el-libro.wav,./stim/wavs/castilian_match_interrogative-total-yn_David-leia-el-libro.wav,./stim/wavs/chilean_match_interrogative-total-yn_David-leia-el-libro.wav,./stim/wavs/cuban_match_interrogative-total-yn_David-leia-el-libro.wav,./stim/wavs/mexican_match_interrogative-total-yn_David-leia-el-libro.wav,./stim/wavs/peruvian_match_interrogative-total-yn_David-leia-el-libro.wav,./stim/wavs/puertorican_match_interrogative-total-yn_David-leia-el-libro.wav,,,,,,,,,,,,,,,,,,,,,,,,,,,,,,,,,,,,,,,,,,,,,,,,,,,,,,,,
,,,,,,,5eb0bbbc0be27c183500b45d,6057c54e64b0b4e5c128b4f9,605a76b0af5b3c0a8689d29f,Spain,Northeast,13 or older,no,2021-03-23_19h16.29.856,empathy_intonation_perc,2020.2.10,Win32,60,,,,,,,,,,0,argentine,0,1,1.72115,0,17,17,44,1,45,./stim/wavs/andalusian_mismatch_declarative-narrow-focus_La-nina-lava-el-plato.wav,./stim/wavs/argentine_mismatch_declarative-narrow-focus_La-nina-lava-el-plato.wav,./stim/wavs/castilian_mismatch_declarative-narrow-focus_La-nina-lava-el-plato.wav,./stim/wavs/chilean_mismatch_declarative-narrow-focus_La-nina-lava-el-plato.wav,./stim/wavs/cuban_mismatch_declarative-narrow-focus_La-nina-lava-el-plato.wav,./stim/wavs/mexican_mismatch_declarative-narrow-focus_La-nina-lava-el-plato.wav,./stim/wavs/peruvian_mismatch_declarative-narrow-focus_La-nina-lava-el-plato.wav,./stim/wavs/puertorican_mismatch_declarative-narrow-focus_La-nina-lava-el-plato.wav,,,,,,,,,,,,,,,,,,,,,,,,,,,,,,,,,,,,,,,,,,,,,,,,,,,,,,,,
,,,,,,,5eb0bbbc0be27c183500b45d,6057c54e64b0b4e5c128b4f9,605a76b0af5b3c0a8689d29f,Spain,Northeast,13 or older,no,2021-03-23_19h16.29.856,empathy_intonation_perc,2020.2.10,Win32,60,,,,,,,,,,1,cuban,0,0,1.339305,0,18,18,54,1,55,./stim/wavs/andalusian_mismatch_interrogative-partial-wh_Por-que-venia-del-lago.wav,./stim/wavs/argentine_mismatch_interrogative-partial-wh_Por-que-venia-del-lago.wav,./stim/wavs/castilian_mismatch_interrogative-partial-wh_Por-que-venia-del-lago.wav,./stim/wavs/chilean_mismatch_interrogative-partial-wh_Por-que-venia-del-lago.wav,./stim/wavs/cuban_mismatch_interrogative-partial-wh_Por-que-venia-del-lago.wav,./stim/wavs/mexican_mismatch_interrogative-partial-wh_Por-que-venia-del-lago.wav,./stim/wavs/peruvian_mismatch_interrogative-partial-wh_Por-que-venia-del-lago.wav,./stim/wavs/puertorican_mismatch_interrogative-partial-wh_Por-que-venia-del-lago.wav,,,,,,,,,,,,,,,,,,,,,,,,,,,,,,,,,,,,,,,,,,,,,,,,,,,,,,,,
,,,,,,,5eb0bbbc0be27c183500b45d,6057c54e64b0b4e5c128b4f9,605a76b0af5b3c0a8689d29f,Spain,Northeast,13 or older,no,2021-03-23_19h16.29.856,empathy_intonation_perc,2020.2.10,Win32,60,,,,,,,,,,1,puertorican,0,0,1.605155,0,19,19,17,1,18,./stim/wavs/andalusian_match_interrogative-partial-wh_Cuando-leia-el-libro.wav,./stim/wavs/argentine_match_interrogative-partial-wh_Cuando-leia-el-libro.wav,./stim/wavs/castilian_match_interrogative-partial-wh_Cuando-leia-el-libro.wav,./stim/wavs/chilean_match_interrogative-partial-wh_Cuando-leia-el-libro.wav,./stim/wavs/cuban_match_interrogative-partial-wh_Cuando-leia-el-libro.wav,./stim/wavs/mexican_match_interrogative-partial-wh_Cuando-leia-el-libro.wav,./stim/wavs/peruvian_match_interrogative-partial-wh_Cuando-leia-el-libro.wav,./stim/wavs/puertorican_match_interrogative-partial-wh_Cuando-leia-el-libro.wav,,,,,,,,,,,,,,,,,,,,,,,,,,,,,,,,,,,,,,,,,,,,,,,,,,,,,,,,
,,,,,,,5eb0bbbc0be27c183500b45d,6057c54e64b0b4e5c128b4f9,605a76b0af5b3c0a8689d29f,Spain,Northeast,13 or older,no,2021-03-23_19h16.29.856,empathy_intonation_perc,2020.2.10,Win32,60,,,,,,,,,,1,andalusian,0,0,1.791445,0,20,20,27,1,28,./stim/wavs/andalusian_match_interrogative-total-yn_Emilio-ama-la-marcha.wav,./stim/wavs/argentine_match_interrogative-total-yn_Emilio-ama-la-marcha.wav,./stim/wavs/castilian_match_interrogative-total-yn_Emilio-ama-la-marcha.wav,./stim/wavs/chilean_match_interrogative-total-yn_Emilio-ama-la-marcha.wav,./stim/wavs/cuban_match_interrogative-total-yn_Emilio-ama-la-marcha.wav,./stim/wavs/mexican_match_interrogative-total-yn_Emilio-ama-la-marcha.wav,./stim/wavs/peruvian_match_interrogative-total-yn_Emilio-ama-la-marcha.wav,./stim/wavs/puertorican_match_interrogative-total-yn_Emilio-ama-la-marcha.wav,,,,,,,,,,,,,,,,,,,,,,,,,,,,,,,,,,,,,,,,,,,,,,,,,,,,,,,,
,,,,,,,5eb0bbbc0be27c183500b45d,6057c54e64b0b4e5c128b4f9,605a76b0af5b3c0a8689d29f,Spain,Northeast,13 or older,no,2021-03-23_19h16.29.856,empathy_intonation_perc,2020.2.10,Win32,60,,,,,,,,,,0,mexican,0,1,2.02131,0,21,21,12,1,13,./stim/wavs/andalusian_match_declarative-narrow-focus_Manuela-vende-el-carro.wav,./stim/wavs/argentine_match_declarative-narrow-focus_Manuela-vende-el-carro.wav,./stim/wavs/castilian_match_declarative-narrow-focus_Manuela-vende-el-carro.wav,./stim/wavs/chilean_match_declarative-narrow-focus_Manuela-vende-el-carro.wav,./stim/wavs/cuban_match_declarative-narrow-focus_Manuela-vende-el-carro.wav,./stim/wavs/mexican_match_declarative-narrow-focus_Manuela-vende-el-carro.wav,./stim/wavs/peruvian_match_declarative-narrow-focus_Manuela-vende-el-carro.wav,./stim/wavs/puertorican_match_declarative-narrow-focus_Manuela-vende-el-carro.wav,,,,,,,,,,,,,,,,,,,,,,,,,,,,,,,,,,,,,,,,,,,,,,,,,,,,,,,,
,,,,,,,5eb0bbbc0be27c183500b45d,6057c54e64b0b4e5c128b4f9,605a76b0af5b3c0a8689d29f,Spain,Northeast,13 or older,no,2021-03-23_19h16.29.856,empathy_intonation_perc,2020.2.10,Win32,60,,,,,,,,,,1,puertorican,0,0,3.13547,0,22,22,53,1,54,./stim/wavs/andalusian_mismatch_interrogative-partial-wh_Por-que-oia-el-rio.wav,./stim/wavs/argentine_mismatch_interrogative-partial-wh_Por-que-oia-el-rio.wav,./stim/wavs/castilian_mismatch_interrogative-partial-wh_Por-que-oia-el-rio.wav,./stim/wavs/chilean_mismatch_interrogative-partial-wh_Por-que-oia-el-rio.wav,./stim/wavs/cuban_mismatch_interrogative-partial-wh_Por-que-oia-el-rio.wav,./stim/wavs/mexican_mismatch_interrogative-partial-wh_Por-que-oia-el-rio.wav,./stim/wavs/peruvian_mismatch_interrogative-partial-wh_Por-que-oia-el-rio.wav,./stim/wavs/puertorican_mismatch_interrogative-partial-wh_Por-que-oia-el-rio.wav,,,,,,,,,,,,,,,,,,,,,,,,,,,,,,,,,,,,,,,,,,,,,,,,,,,,,,,,
,,,,,,,5eb0bbbc0be27c183500b45d,6057c54e64b0b4e5c128b4f9,605a76b0af5b3c0a8689d29f,Spain,Northeast,13 or older,no,2021-03-23_19h16.29.856,empathy_intonation_perc,2020.2.10,Win32,60,,,,,,,,,,0,puertorican,1,0,1.67512,0,23,23,9,1,10,./stim/wavs/andalusian_match_declarative-narrow-focus_Daniel-iba-a-Bolivia.wav,./stim/wavs/argentine_match_declarative-narrow-focus_Daniel-iba-a-Bolivia.wav,./stim/wavs/castilian_match_declarative-narrow-focus_Daniel-iba-a-Bolivia.wav,./stim/wavs/chilean_match_declarative-narrow-focus_Daniel-iba-a-Bolivia.wav,./stim/wavs/cuban_match_declarative-narrow-focus_Daniel-iba-a-Bolivia.wav,./stim/wavs/mexican_match_declarative-narrow-focus_Daniel-iba-a-Bolivia.wav,./stim/wavs/peruvian_match_declarative-narrow-focus_Daniel-iba-a-Bolivia.wav,./stim/wavs/puertorican_match_declarative-narrow-focus_Daniel-iba-a-Bolivia.wav,,,,,,,,,,,,,,,,,,,,,,,,,,,,,,,,,,,,,,,,,,,,,,,,,,,,,,,,
,,,,,,,5eb0bbbc0be27c183500b45d,6057c54e64b0b4e5c128b4f9,605a76b0af5b3c0a8689d29f,Spain,Northeast,13 or older,no,2021-03-23_19h16.29.856,empathy_intonation_perc,2020.2.10,Win32,60,,,,,,,,,,0,chilean,0,1,1.616695,0,24,24,13,1,14,./stim/wavs/andalusian_match_declarative-narrow-focus_Maria-bebe-el-vino.wav,./stim/wavs/argentine_match_declarative-narrow-focus_Maria-bebe-el-vino.wav,./stim/wavs/castilian_match_declarative-narrow-focus_Maria-bebe-el-vino.wav,./stim/wavs/chilean_match_declarative-narrow-focus_Maria-bebe-el-vino.wav,./stim/wavs/cuban_match_declarative-narrow-focus_Maria-bebe-el-vino.wav,./stim/wavs/mexican_match_declarative-narrow-focus_Maria-bebe-el-vino.wav,./stim/wavs/peruvian_match_declarative-narrow-focus_Maria-bebe-el-vino.wav,./stim/wavs/puertorican_match_declarative-narrow-focus_Maria-bebe-el-vino.wav,,,,,,,,,,,,,,,,,,,,,,,,,,,,,,,,,,,,,,,,,,,,,,,,,,,,,,,,
,,,,,,,5eb0bbbc0be27c183500b45d,6057c54e64b0b4e5c128b4f9,605a76b0af5b3c0a8689d29f,Spain,Northeast,13 or older,no,2021-03-23_19h16.29.856,empathy_intonation_perc,2020.2.10,Win32,60,,,,,,,,,,0,cuban,1,0,2.08561,0,25,25,10,1,11,./stim/wavs/andalusian_match_declarative-narrow-focus_David-leia-el-libro.wav,./stim/wavs/argentine_match_declarative-narrow-focus_David-leia-el-libro.wav,./stim/wavs/castilian_match_declarative-narrow-focus_David-leia-el-libro.wav,./stim/wavs/chilean_match_declarative-narrow-focus_David-leia-el-libro.wav,./stim/wavs/cuban_match_declarative-narrow-focus_David-leia-el-libro.wav,./stim/wavs/mexican_match_declarative-narrow-focus_David-leia-el-libro.wav,./stim/wavs/peruvian_match_declarative-narrow-focus_David-leia-el-libro.wav,./stim/wavs/puertorican_match_declarative-narrow-focus_David-leia-el-libro.wav,,,,,,,,,,,,,,,,,,,,,,,,,,,,,,,,,,,,,,,,,,,,,,,,,,,,,,,,
,,,,,,,5eb0bbbc0be27c183500b45d,6057c54e64b0b4e5c128b4f9,605a76b0af5b3c0a8689d29f,Spain,Northeast,13 or older,no,2021-03-23_19h16.29.856,empathy_intonation_perc,2020.2.10,Win32,60,,,,,,,,,,0,argentine,0,1,1.704795,0,26,26,4,1,5,./stim/wavs/andalusian_match_declarative-broad-focus_Manuela-vende-el-carro.wav,./stim/wavs/argentine_match_declarative-broad-focus_Manuela-vende-el-carro.wav,./stim/wavs/castilian_match_declarative-broad-focus_Manuela-vende-el-carro.wav,./stim/wavs/chilean_match_declarative-broad-focus_Manuela-vende-el-carro.wav,./stim/wavs/cuban_match_declarative-broad-focus_Manuela-vende-el-carro.wav,./stim/wavs/mexican_match_declarative-broad-focus_Manuela-vende-el-carro.wav,./stim/wavs/peruvian_match_declarative-broad-focus_Manuela-vende-el-carro.wav,./stim/wavs/puertorican_match_declarative-broad-focus_Manuela-vende-el-carro.wav,,,,,,,,,,,,,,,,,,,,,,,,,,,,,,,,,,,,,,,,,,,,,,,,,,,,,,,,
,,,,,,,5eb0bbbc0be27c183500b45d,6057c54e64b0b4e5c128b4f9,605a76b0af5b3c0a8689d29f,Spain,Northeast,13 or older,no,2021-03-23_19h16.29.856,empathy_intonation_perc,2020.2.10,Win32,60,,,,,,,,,,1,castilian,0,0,1.98932,0,27,27,30,1,31,./stim/wavs/andalusian_match_interrogative-total-yn_Mariano-habla-del-tiempo.wav,./stim/wavs/argentine_match_interrogative-total-yn_Mariano-habla-del-tiempo.wav,./stim/wavs/castilian_match_interrogative-total-yn_Mariano-habla-del-tiempo.wav,./stim/wavs/chilean_match_interrogative-total-yn_Mariano-habla-del-tiempo.wav,./stim/wavs/cuban_match_interrogative-total-yn_Mariano-habla-del-tiempo.wav,./stim/wavs/mexican_match_interrogative-total-yn_Mariano-habla-del-tiempo.wav,./stim/wavs/peruvian_match_interrogative-total-yn_Mariano-habla-del-tiempo.wav,./stim/wavs/puertorican_match_interrogative-total-yn_Mariano-habla-del-tiempo.wav,,,,,,,,,,,,,,,,,,,,,,,,,,,,,,,,,,,,,,,,,,,,,,,,,,,,,,,,
,,,,,,,5eb0bbbc0be27c183500b45d,6057c54e64b0b4e5c128b4f9,605a76b0af5b3c0a8689d29f,Spain,Northeast,13 or older,no,2021-03-23_19h16.29.856,empathy_intonation_perc,2020.2.10,Win32,60,,,,,,,,,,0,cuban,0,1,2.391565,0,28,28,2,1,3,./stim/wavs/andalusian_match_declarative-broad-focus_David-leia-el-libro.wav,./stim/wavs/argentine_match_declarative-broad-focus_David-leia-el-libro.wav,./stim/wavs/castilian_match_declarative-broad-focus_David-leia-el-libro.wav,./stim/wavs/chilean_match_declarative-broad-focus_David-leia-el-libro.wav,./stim/wavs/cuban_match_declarative-broad-focus_David-leia-el-libro.wav,./stim/wavs/mexican_match_declarative-broad-focus_David-leia-el-libro.wav,./stim/wavs/peruvian_match_declarative-broad-focus_David-leia-el-libro.wav,./stim/wavs/puertorican_match_declarative-broad-focus_David-leia-el-libro.wav,,,,,,,,,,,,,,,,,,,,,,,,,,,,,,,,,,,,,,,,,,,,,,,,,,,,,,,,
,,,,,,,5eb0bbbc0be27c183500b45d,6057c54e64b0b4e5c128b4f9,605a76b0af5b3c0a8689d29f,Spain,Northeast,13 or older,no,2021-03-23_19h16.29.856,empathy_intonation_perc,2020.2.10,Win32,60,,,,,,,,,,1,mexican,0,0,2.084485,0,29,29,49,1,50,./stim/wavs/andalusian_mismatch_interrogative-partial-wh_Cuando-lavaba-el-plato.wav,./stim/wavs/argentine_mismatch_interrogative-partial-wh_Cuando-lavaba-el-plato.wav,./stim/wavs/castilian_mismatch_interrogative-partial-wh_Cuando-lavaba-el-plato.wav,./stim/wavs/chilean_mismatch_interrogative-partial-wh_Cuando-lavaba-el-plato.wav,./stim/wavs/cuban_mismatch_interrogative-partial-wh_Cuando-lavaba-el-plato.wav,./stim/wavs/mexican_mismatch_interrogative-partial-wh_Cuando-lavaba-el-plato.wav,./stim/wavs/peruvian_mismatch_interrogative-partial-wh_Cuando-lavaba-el-plato.wav,./stim/wavs/puertorican_mismatch_interrogative-partial-wh_Cuando-lavaba-el-plato.wav,,,,,,,,,,,,,,,,,,,,,,,,,,,,,,,,,,,,,,,,,,,,,,,,,,,,,,,,
,,,,,,,5eb0bbbc0be27c183500b45d,6057c54e64b0b4e5c128b4f9,605a76b0af5b3c0a8689d29f,Spain,Northeast,13 or older,no,2021-03-23_19h16.29.856,empathy_intonation_perc,2020.2.10,Win32,60,,,,,,,,,,0,mexican,0,1,2.33725,0,30,30,38,1,39,./stim/wavs/andalusian_mismatch_declarative-broad-focus_Mi-novio-viene-del-lago.wav,./stim/wavs/argentine_mismatch_declarative-broad-focus_Mi-novio-viene-del-lago.wav,./stim/wavs/castilian_mismatch_declarative-broad-focus_Mi-novio-viene-del-lago.wav,./stim/wavs/chilean_mismatch_declarative-broad-focus_Mi-novio-viene-del-lago.wav,./stim/wavs/cuban_mismatch_declarative-broad-focus_Mi-novio-viene-del-lago.wav,./stim/wavs/mexican_mismatch_declarative-broad-focus_Mi-novio-viene-del-lago.wav,./stim/wavs/peruvian_mismatch_declarative-broad-focus_Mi-novio-viene-del-lago.wav,./stim/wavs/puertorican_mismatch_declarative-broad-focus_Mi-novio-viene-del-lago.wav,,,,,,,,,,,,,,,,,,,,,,,,,,,,,,,,,,,,,,,,,,,,,,,,,,,,,,,,
,,,,,,,5eb0bbbc0be27c183500b45d,6057c54e64b0b4e5c128b4f9,605a76b0af5b3c0a8689d29f,Spain,Northeast,13 or older,no,2021-03-23_19h16.29.856,empathy_intonation_perc,2020.2.10,Win32,60,,,,,,,,,,0,argentine,0,1,2.471775,0,31,31,15,1,16,./stim/wavs/andalusian_match_declarative-narrow-focus_Marta-abre-el-regalo.wav,./stim/wavs/argentine_match_declarative-narrow-focus_Marta-abre-el-regalo.wav,./stim/wavs/castilian_match_declarative-narrow-focus_Marta-abre-el-regalo.wav,./stim/wavs/chilean_match_declarative-narrow-focus_Marta-abre-el-regalo.wav,./stim/wavs/cuban_match_declarative-narrow-focus_Marta-abre-el-regalo.wav,./stim/wavs/mexican_match_declarative-narrow-focus_Marta-abre-el-regalo.wav,./stim/wavs/peruvian_match_declarative-narrow-focus_Marta-abre-el-regalo.wav,./stim/wavs/puertorican_match_declarative-narrow-focus_Marta-abre-el-regalo.wav,,,,,,,,,,,,,,,,,,,,,,,,,,,,,,,,,,,,,,,,,,,,,,,,,,,,,,,,
,,,,,,,5eb0bbbc0be27c183500b45d,6057c54e64b0b4e5c128b4f9,605a76b0af5b3c0a8689d29f,Spain,Northeast,13 or older,no,2021-03-23_19h16.29.856,empathy_intonation_perc,2020.2.10,Win32,60,,,,,,,,,,1,chilean,0,0,2.05307,0,32,32,57,1,58,./stim/wavs/andalusian_mismatch_interrogative-total-yn_El-hombre-mira-la-luna.wav,./stim/wavs/argentine_mismatch_interrogative-total-yn_El-hombre-mira-la-luna.wav,./stim/wavs/castilian_mismatch_interrogative-total-yn_El-hombre-mira-la-luna.wav,./stim/wavs/chilean_mismatch_interrogative-total-yn_El-hombre-mira-la-luna.wav,./stim/wavs/cuban_mismatch_interrogative-total-yn_El-hombre-mira-la-luna.wav,./stim/wavs/mexican_mismatch_interrogative-total-yn_El-hombre-mira-la-luna.wav,./stim/wavs/peruvian_mismatch_interrogative-total-yn_El-hombre-mira-la-luna.wav,./stim/wavs/puertorican_mismatch_interrogative-total-yn_El-hombre-mira-la-luna.wav,,,,,,,,,,,,,,,,,,,,,,,,,,,,,,,,,,,,,,,,,,,,,,,,,,,,,,,,
,,,,,,,5eb0bbbc0be27c183500b45d,6057c54e64b0b4e5c128b4f9,605a76b0af5b3c0a8689d29f,Spain,Northeast,13 or older,no,2021-03-23_19h16.29.856,empathy_intonation_perc,2020.2.10,Win32,60,,,,,,,,,,1,peruvian,0,0,2.7697,0,33,33,28,1,29,./stim/wavs/andalusian_match_interrogative-total-yn_Manuela-vende-el-carro.wav,./stim/wavs/argentine_match_interrogative-total-yn_Manuela-vende-el-carro.wav,./stim/wavs/castilian_match_interrogative-total-yn_Manuela-vende-el-carro.wav,./stim/wavs/chilean_match_interrogative-total-yn_Manuela-vende-el-carro.wav,./stim/wavs/cuban_match_interrogative-total-yn_Manuela-vende-el-carro.wav,./stim/wavs/mexican_match_interrogative-total-yn_Manuela-vende-el-carro.wav,./stim/wavs/peruvian_match_interrogative-total-yn_Manuela-vende-el-carro.wav,./stim/wavs/puertorican_match_interrogative-total-yn_Manuela-vende-el-carro.wav,,,,,,,,,,,,,,,,,,,,,,,,,,,,,,,,,,,,,,,,,,,,,,,,,,,,,,,,
,,,,,,,5eb0bbbc0be27c183500b45d,6057c54e64b0b4e5c128b4f9,605a76b0af5b3c0a8689d29f,Spain,Northeast,13 or older,no,2021-03-23_19h16.29.856,empathy_intonation_perc,2020.2.10,Win32,60,,,,,,,,,,0,castilian,0,1,2.242245,0,34,34,47,1,48,./stim/wavs/andalusian_mismatch_declarative-narrow-focus_Mi-tia-odia-la-lluvia.wav,./stim/wavs/argentine_mismatch_declarative-narrow-focus_Mi-tia-odia-la-lluvia.wav,./stim/wavs/castilian_mismatch_declarative-narrow-focus_Mi-tia-odia-la-lluvia.wav,./stim/wavs/chilean_mismatch_declarative-narrow-focus_Mi-tia-odia-la-lluvia.wav,./stim/wavs/cuban_mismatch_declarative-narrow-focus_Mi-tia-odia-la-lluvia.wav,./stim/wavs/mexican_mismatch_declarative-narrow-focus_Mi-tia-odia-la-lluvia.wav,./stim/wavs/peruvian_mismatch_declarative-narrow-focus_Mi-tia-odia-la-lluvia.wav,./stim/wavs/puertorican_mismatch_declarative-narrow-focus_Mi-tia-odia-la-lluvia.wav,,,,,,,,,,,,,,,,,,,,,,,,,,,,,,,,,,,,,,,,,,,,,,,,,,,,,,,,
,,,,,,,5eb0bbbc0be27c183500b45d,6057c54e64b0b4e5c128b4f9,605a76b0af5b3c0a8689d29f,Spain,Northeast,13 or older,no,2021-03-23_19h16.29.856,empathy_intonation_perc,2020.2.10,Win32,60,,,,,,,,,,0,andalusian,0,1,1.88931,0,35,35,14,1,15,./stim/wavs/andalusian_match_declarative-narrow-focus_Mariano-habla-del-tiempo.wav,./stim/wavs/argentine_match_declarative-narrow-focus_Mariano-habla-del-tiempo.wav,./stim/wavs/castilian_match_declarative-narrow-focus_Mariano-habla-del-tiempo.wav,./stim/wavs/chilean_match_declarative-narrow-focus_Mariano-habla-del-tiempo.wav,./stim/wavs/cuban_match_declarative-narrow-focus_Mariano-habla-del-tiempo.wav,./stim/wavs/mexican_match_declarative-narrow-focus_Mariano-habla-del-tiempo.wav,./stim/wavs/peruvian_match_declarative-narrow-focus_Mariano-habla-del-tiempo.wav,./stim/wavs/puertorican_match_declarative-narrow-focus_Mariano-habla-del-tiempo.wav,,,,,,,,,,,,,,,,,,,,,,,,,,,,,,,,,,,,,,,,,,,,,,,,,,,,,,,,
,,,,,,,5eb0bbbc0be27c183500b45d,6057c54e64b0b4e5c128b4f9,605a76b0af5b3c0a8689d29f,Spain,Northeast,13 or older,no,2021-03-23_19h16.29.856,empathy_intonation_perc,2020.2.10,Win32,60,,,,,,,,,,1,chilean,0,0,2.856685,0,36,36,58,1,59,./stim/wavs/andalusian_mismatch_interrogative-total-yn_El-nino-oye-el-rio.wav,./stim/wavs/argentine_mismatch_interrogative-total-yn_El-nino-oye-el-rio.wav,./stim/wavs/castilian_mismatch_interrogative-total-yn_El-nino-oye-el-rio.wav,./stim/wavs/chilean_mismatch_interrogative-total-yn_El-nino-oye-el-rio.wav,./stim/wavs/cuban_mismatch_interrogative-total-yn_El-nino-oye-el-rio.wav,./stim/wavs/mexican_mismatch_interrogative-total-yn_El-nino-oye-el-rio.wav,./stim/wavs/peruvian_mismatch_interrogative-total-yn_El-nino-oye-el-rio.wav,./stim/wavs/puertorican_mismatch_interrogative-total-yn_El-nino-oye-el-rio.wav,,,,,,,,,,,,,,,,,,,,,,,,,,,,,,,,,,,,,,,,,,,,,,,,,,,,,,,,
,,,,,,,5eb0bbbc0be27c183500b45d,6057c54e64b0b4e5c128b4f9,605a76b0af5b3c0a8689d29f,Spain,Northeast,13 or older,no,2021-03-23_19h16.29.856,empathy_intonation_perc,2020.2.10,Win32,60,,,,,,,,,,0,castilian,0,1,3.35632,0,37,37,3,1,4,./stim/wavs/andalusian_match_declarative-broad-focus_Emilio-ama-la-marcha.wav,./stim/wavs/argentine_match_declarative-broad-focus_Emilio-ama-la-marcha.wav,./stim/wavs/castilian_match_declarative-broad-focus_Emilio-ama-la-marcha.wav,./stim/wavs/chilean_match_declarative-broad-focus_Emilio-ama-la-marcha.wav,./stim/wavs/cuban_match_declarative-broad-focus_Emilio-ama-la-marcha.wav,./stim/wavs/mexican_match_declarative-broad-focus_Emilio-ama-la-marcha.wav,./stim/wavs/peruvian_match_declarative-broad-focus_Emilio-ama-la-marcha.wav,./stim/wavs/puertorican_match_declarative-broad-focus_Emilio-ama-la-marcha.wav,,,,,,,,,,,,,,,,,,,,,,,,,,,,,,,,,,,,,,,,,,,,,,,,,,,,,,,,
,,,,,,,5eb0bbbc0be27c183500b45d,6057c54e64b0b4e5c128b4f9,605a76b0af5b3c0a8689d29f,Spain,Northeast,13 or older,no,2021-03-23_19h16.29.856,empathy_intonation_perc,2020.2.10,Win32,60,,,,,,,,,,0,mexican,0,1,1.590445,0,38,38,32,1,33,./stim/wavs/andalusian_mismatch_declarative-broad-focus_El-bebe-comia-muy-bien.wav,./stim/wavs/argentine_mismatch_declarative-broad-focus_El-bebe-comia-muy-bien.wav,./stim/wavs/castilian_mismatch_declarative-broad-focus_El-bebe-comia-muy-bien.wav,./stim/wavs/chilean_mismatch_declarative-broad-focus_El-bebe-comia-muy-bien.wav,./stim/wavs/cuban_mismatch_declarative-broad-focus_El-bebe-comia-muy-bien.wav,./stim/wavs/mexican_mismatch_declarative-broad-focus_El-bebe-comia-muy-bien.wav,./stim/wavs/peruvian_mismatch_declarative-broad-focus_El-bebe-comia-muy-bien.wav,./stim/wavs/puertorican_mismatch_declarative-broad-focus_El-bebe-comia-muy-bien.wav,,,,,,,,,,,,,,,,,,,,,,,,,,,,,,,,,,,,,,,,,,,,,,,,,,,,,,,,
,,,,,,,5eb0bbbc0be27c183500b45d,6057c54e64b0b4e5c128b4f9,605a76b0af5b3c0a8689d29f,Spain,Northeast,13 or older,no,2021-03-23_19h16.29.856,empathy_intonation_perc,2020.2.10,Win32,60,,,,,,,,,,1,castilian,0,0,1.97633,0,39,39,18,1,19,./stim/wavs/andalusian_match_interrogative-partial-wh_Cuando-lleva-el-abrigo.wav,./stim/wavs/argentine_match_interrogative-partial-wh_Cuando-lleva-el-abrigo.wav,./stim/wavs/castilian_match_interrogative-partial-wh_Cuando-lleva-el-abrigo.wav,./stim/wavs/chilean_match_interrogative-partial-wh_Cuando-lleva-el-abrigo.wav,./stim/wavs/cuban_match_interrogative-partial-wh_Cuando-lleva-el-abrigo.wav,./stim/wavs/mexican_match_interrogative-partial-wh_Cuando-lleva-el-abrigo.wav,./stim/wavs/peruvian_match_interrogative-partial-wh_Cuando-lleva-el-abrigo.wav,./stim/wavs/puertorican_match_interrogative-partial-wh_Cuando-lleva-el-abrigo.wav,,,,,,,,,,,,,,,,,,,,,,,,,,,,,,,,,,,,,,,,,,,,,,,,,,,,,,,,
,,,,,,,5eb0bbbc0be27c183500b45d,6057c54e64b0b4e5c128b4f9,605a76b0af5b3c0a8689d29f,Spain,Northeast,13 or older,no,2021-03-23_19h16.29.856,empathy_intonation_perc,2020.2.10,Win32,60,,,,,,,,,,1,cuban,0,0,2.084415,0,40,40,51,1,52,./stim/wavs/andalusian_mismatch_interrogative-partial-wh_Por-que-desayuna-muy-bien.wav,./stim/wavs/argentine_mismatch_interrogative-partial-wh_Por-que-desayuna-muy-bien.wav,./stim/wavs/castilian_mismatch_interrogative-partial-wh_Por-que-desayuna-muy-bien.wav,./stim/wavs/chilean_mismatch_interrogative-partial-wh_Por-que-desayuna-muy-bien.wav,./stim/wavs/cuban_mismatch_interrogative-partial-wh_Por-que-desayuna-muy-bien.wav,./stim/wavs/mexican_mismatch_interrogative-partial-wh_Por-que-desayuna-muy-bien.wav,./stim/wavs/peruvian_mismatch_interrogative-partial-wh_Por-que-desayuna-muy-bien.wav,./stim/wavs/puertorican_mismatch_interrogative-partial-wh_Por-que-desayuna-muy-bien.wav,,,,,,,,,,,,,,,,,,,,,,,,,,,,,,,,,,,,,,,,,,,,,,,,,,,,,,,,
,,,,,,,5eb0bbbc0be27c183500b45d,6057c54e64b0b4e5c128b4f9,605a76b0af5b3c0a8689d29f,Spain,Northeast,13 or older,no,2021-03-23_19h16.29.856,empathy_intonation_perc,2020.2.10,Win32,60,,,,,,,,,,1,andalusian,1,1,2.251615,0,41,41,63,1,64,./stim/wavs/andalusian_mismatch_interrogative-total-yn_Mi-tia-odia-la-lluvia.wav,./stim/wavs/argentine_mismatch_interrogative-total-yn_Mi-tia-odia-la-lluvia.wav,./stim/wavs/castilian_mismatch_interrogative-total-yn_Mi-tia-odia-la-lluvia.wav,./stim/wavs/chilean_mismatch_interrogative-total-yn_Mi-tia-odia-la-lluvia.wav,./stim/wavs/cuban_mismatch_interrogative-total-yn_Mi-tia-odia-la-lluvia.wav,./stim/wavs/mexican_mismatch_interrogative-total-yn_Mi-tia-odia-la-lluvia.wav,./stim/wavs/peruvian_mismatch_interrogative-total-yn_Mi-tia-odia-la-lluvia.wav,./stim/wavs/puertorican_mismatch_interrogative-total-yn_Mi-tia-odia-la-lluvia.wav,,,,,,,,,,,,,,,,,,,,,,,,,,,,,,,,,,,,,,,,,,,,,,,,,,,,,,,,
,,,,,,,5eb0bbbc0be27c183500b45d,6057c54e64b0b4e5c128b4f9,605a76b0af5b3c0a8689d29f,Spain,Northeast,13 or older,no,2021-03-23_19h16.29.856,empathy_intonation_perc,2020.2.10,Win32,60,,,,,,,,,,0,castilian,0,1,1.783265,0,42,42,11,1,12,./stim/wavs/andalusian_match_declarative-narrow-focus_Emilio-ama-la-marcha.wav,./stim/wavs/argentine_match_declarative-narrow-focus_Emilio-ama-la-marcha.wav,./stim/wavs/castilian_match_declarative-narrow-focus_Emilio-ama-la-marcha.wav,./stim/wavs/chilean_match_declarative-narrow-focus_Emilio-ama-la-marcha.wav,./stim/wavs/cuban_match_declarative-narrow-focus_Emilio-ama-la-marcha.wav,./stim/wavs/mexican_match_declarative-narrow-focus_Emilio-ama-la-marcha.wav,./stim/wavs/peruvian_match_declarative-narrow-focus_Emilio-ama-la-marcha.wav,./stim/wavs/puertorican_match_declarative-narrow-focus_Emilio-ama-la-marcha.wav,,,,,,,,,,,,,,,,,,,,,,,,,,,,,,,,,,,,,,,,,,,,,,,,,,,,,,,,
,,,,,,,5eb0bbbc0be27c183500b45d,6057c54e64b0b4e5c128b4f9,605a76b0af5b3c0a8689d29f,Spain,Northeast,13 or older,no,2021-03-23_19h16.29.856,empathy_intonation_perc,2020.2.10,Win32,60,,,,,,,,,,0,mexican,0,1,3.003195,0,43,43,40,1,41,./stim/wavs/andalusian_mismatch_declarative-narrow-focus_El-bebe-comia-muy-bien.wav,./stim/wavs/argentine_mismatch_declarative-narrow-focus_El-bebe-comia-muy-bien.wav,./stim/wavs/castilian_mismatch_declarative-narrow-focus_El-bebe-comia-muy-bien.wav,./stim/wavs/chilean_mismatch_declarative-narrow-focus_El-bebe-comia-muy-bien.wav,./stim/wavs/cuban_mismatch_declarative-narrow-focus_El-bebe-comia-muy-bien.wav,./stim/wavs/mexican_mismatch_declarative-narrow-focus_El-bebe-comia-muy-bien.wav,./stim/wavs/peruvian_mismatch_declarative-narrow-focus_El-bebe-comia-muy-bien.wav,./stim/wavs/puertorican_mismatch_declarative-narrow-focus_El-bebe-comia-muy-bien.wav,,,,,,,,,,,,,,,,,,,,,,,,,,,,,,,,,,,,,,,,,,,,,,,,,,,,,,,,
,,,,,,,5eb0bbbc0be27c183500b45d,6057c54e64b0b4e5c128b4f9,605a76b0af5b3c0a8689d29f,Spain,Northeast,13 or older,no,2021-03-23_19h16.29.856,empathy_intonation_perc,2020.2.10,Win32,60,,,,,,,,,,1,andalusian,1,1,1.70612,0,44,44,48,1,49,./stim/wavs/andalusian_mismatch_interrogative-partial-wh_Cuando-comia-la-fruta.wav,./stim/wavs/argentine_mismatch_interrogative-partial-wh_Cuando-comia-la-fruta.wav,./stim/wavs/castilian_mismatch_interrogative-partial-wh_Cuando-comia-la-fruta.wav,./stim/wavs/chilean_mismatch_interrogative-partial-wh_Cuando-comia-la-fruta.wav,./stim/wavs/cuban_mismatch_interrogative-partial-wh_Cuando-comia-la-fruta.wav,./stim/wavs/mexican_mismatch_interrogative-partial-wh_Cuando-comia-la-fruta.wav,./stim/wavs/peruvian_mismatch_interrogative-partial-wh_Cuando-comia-la-fruta.wav,./stim/wavs/puertorican_mismatch_interrogative-partial-wh_Cuando-comia-la-fruta.wav,,,,,,,,,,,,,,,,,,,,,,,,,,,,,,,,,,,,,,,,,,,,,,,,,,,,,,,,
,,,,,,,5eb0bbbc0be27c183500b45d,6057c54e64b0b4e5c128b4f9,605a76b0af5b3c0a8689d29f,Spain,Northeast,13 or older,no,2021-03-23_19h16.29.856,empathy_intonation_perc,2020.2.10,Win32,60,,,,,,,,,,1,castilian,1,1,2.10264,0,45,45,56,1,57,./stim/wavs/andalusian_mismatch_interrogative-total-yn_El-bebe-comia-muy-bien.wav,./stim/wavs/argentine_mismatch_interrogative-total-yn_El-bebe-comia-muy-bien.wav,./stim/wavs/castilian_mismatch_interrogative-total-yn_El-bebe-comia-muy-bien.wav,./stim/wavs/chilean_mismatch_interrogative-total-yn_El-bebe-comia-muy-bien.wav,./stim/wavs/cuban_mismatch_interrogative-total-yn_El-bebe-comia-muy-bien.wav,./stim/wavs/mexican_mismatch_interrogative-total-yn_El-bebe-comia-muy-bien.wav,./stim/wavs/peruvian_mismatch_interrogative-total-yn_El-bebe-comia-muy-bien.wav,./stim/wavs/puertorican_mismatch_interrogative-total-yn_El-bebe-comia-muy-bien.wav,,,,,,,,,,,,,,,,,,,,,,,,,,,,,,,,,,,,,,,,,,,,,,,,,,,,,,,,
,,,,,,,5eb0bbbc0be27c183500b45d,6057c54e64b0b4e5c128b4f9,605a76b0af5b3c0a8689d29f,Spain,Northeast,13 or older,no,2021-03-23_19h16.29.856,empathy_intonation_perc,2020.2.10,Win32,60,,,,,,,,,,1,castilian,1,1,10.68735,0,46,46,16,1,17,./stim/wavs/andalusian_match_interrogative-partial-wh_Cuando-bebia-el-vino.wav,./stim/wavs/argentine_match_interrogative-partial-wh_Cuando-bebia-el-vino.wav,./stim/wavs/castilian_match_interrogative-partial-wh_Cuando-bebia-el-vino.wav,./stim/wavs/chilean_match_interrogative-partial-wh_Cuando-bebia-el-vino.wav,./stim/wavs/cuban_match_interrogative-partial-wh_Cuando-bebia-el-vino.wav,./stim/wavs/mexican_match_interrogative-partial-wh_Cuando-bebia-el-vino.wav,./stim/wavs/peruvian_match_interrogative-partial-wh_Cuando-bebia-el-vino.wav,./stim/wavs/puertorican_match_interrogative-partial-wh_Cuando-bebia-el-vino.wav,,,,,,,,,,,,,,,,,,,,,,,,,,,,,,,,,,,,,,,,,,,,,,,,,,,,,,,,
,,,,,,,5eb0bbbc0be27c183500b45d,6057c54e64b0b4e5c128b4f9,605a76b0af5b3c0a8689d29f,Spain,Northeast,13 or older,no,2021-03-23_19h16.29.856,empathy_intonation_perc,2020.2.10,Win32,60,,,,,,,,,,0,peruvian,0,1,1.83725,0,47,47,45,1,46,./stim/wavs/andalusian_mismatch_declarative-narrow-focus_Mi-madre-come-la-fruta.wav,./stim/wavs/argentine_mismatch_declarative-narrow-focus_Mi-madre-come-la-fruta.wav,./stim/wavs/castilian_mismatch_declarative-narrow-focus_Mi-madre-come-la-fruta.wav,./stim/wavs/chilean_mismatch_declarative-narrow-focus_Mi-madre-come-la-fruta.wav,./stim/wavs/cuban_mismatch_declarative-narrow-focus_Mi-madre-come-la-fruta.wav,./stim/wavs/mexican_mismatch_declarative-narrow-focus_Mi-madre-come-la-fruta.wav,./stim/wavs/peruvian_mismatch_declarative-narrow-focus_Mi-madre-come-la-fruta.wav,./stim/wavs/puertorican_mismatch_declarative-narrow-focus_Mi-madre-come-la-fruta.wav,,,,,,,,,,,,,,,,,,,,,,,,,,,,,,,,,,,,,,,,,,,,,,,,,,,,,,,,
,,,,,,,5eb0bbbc0be27c183500b45d,6057c54e64b0b4e5c128b4f9,605a76b0af5b3c0a8689d29f,Spain,Northeast,13 or older,no,2021-03-23_19h16.29.856,empathy_intonation_perc,2020.2.10,Win32,60,,,,,,,,,,0,mexican,0,1,3.00951,0,48,48,0,1,1,./stim/wavs/andalusian_match_declarative-broad-focus_Ana-lleva-el-abrigo.wav,./stim/wavs/argentine_match_declarative-broad-focus_Ana-lleva-el-abrigo.wav,./stim/wavs/castilian_match_declarative-broad-focus_Ana-lleva-el-abrigo.wav,./stim/wavs/chilean_match_declarative-broad-focus_Ana-lleva-el-abrigo.wav,./stim/wavs/cuban_match_declarative-broad-focus_Ana-lleva-el-abrigo.wav,./stim/wavs/mexican_match_declarative-broad-focus_Ana-lleva-el-abrigo.wav,./stim/wavs/peruvian_match_declarative-broad-focus_Ana-lleva-el-abrigo.wav,./stim/wavs/puertorican_match_declarative-broad-focus_Ana-lleva-el-abrigo.wav,,,,,,,,,,,,,,,,,,,,,,,,,,,,,,,,,,,,,,,,,,,,,,,,,,,,,,,,
,,,,,,,5eb0bbbc0be27c183500b45d,6057c54e64b0b4e5c128b4f9,605a76b0af5b3c0a8689d29f,Spain,Northeast,13 or older,no,2021-03-23_19h16.29.856,empathy_intonation_perc,2020.2.10,Win32,60,,,,,,,,,,1,mexican,1,1,1.38609,0,49,49,20,1,21,./stim/wavs/andalusian_match_interrogative-partial-wh_Por-que-abre-el-regalo.wav,./stim/wavs/argentine_match_interrogative-partial-wh_Por-que-abre-el-regalo.wav,./stim/wavs/castilian_match_interrogative-partial-wh_Por-que-abre-el-regalo.wav,./stim/wavs/chilean_match_interrogative-partial-wh_Por-que-abre-el-regalo.wav,./stim/wavs/cuban_match_interrogative-partial-wh_Por-que-abre-el-regalo.wav,./stim/wavs/mexican_match_interrogative-partial-wh_Por-que-abre-el-regalo.wav,./stim/wavs/peruvian_match_interrogative-partial-wh_Por-que-abre-el-regalo.wav,./stim/wavs/puertorican_match_interrogative-partial-wh_Por-que-abre-el-regalo.wav,,,,,,,,,,,,,,,,,,,,,,,,,,,,,,,,,,,,,,,,,,,,,,,,,,,,,,,,
,,,,,,,5eb0bbbc0be27c183500b45d,6057c54e64b0b4e5c128b4f9,605a76b0af5b3c0a8689d29f,Spain,Northeast,13 or older,no,2021-03-23_19h16.29.856,empathy_intonation_perc,2020.2.10,Win32,60,,,,,,,,,,1,chilean,0,0,5.54739,0,50,50,59,1,60,./stim/wavs/andalusian_mismatch_interrogative-total-yn_La-maestra-vive-en-Paris.wav,./stim/wavs/argentine_mismatch_interrogative-total-yn_La-maestra-vive-en-Paris.wav,./stim/wavs/castilian_mismatch_interrogative-total-yn_La-maestra-vive-en-Paris.wav,./stim/wavs/chilean_mismatch_interrogative-total-yn_La-maestra-vive-en-Paris.wav,./stim/wavs/cuban_mismatch_interrogative-total-yn_La-maestra-vive-en-Paris.wav,./stim/wavs/mexican_mismatch_interrogative-total-yn_La-maestra-vive-en-Paris.wav,./stim/wavs/peruvian_mismatch_interrogative-total-yn_La-maestra-vive-en-Paris.wav,./stim/wavs/puertorican_mismatch_interrogative-total-yn_La-maestra-vive-en-Paris.wav,,,,,,,,,,,,,,,,,,,,,,,,,,,,,,,,,,,,,,,,,,,,,,,,,,,,,,,,
,,,,,,,5eb0bbbc0be27c183500b45d,6057c54e64b0b4e5c128b4f9,605a76b0af5b3c0a8689d29f,Spain,Northeast,13 or older,no,2021-03-23_19h16.29.856,empathy_intonation_perc,2020.2.10,Win32,60,,,,,,,,,,0,mexican,0,1,2.49433,0,51,51,1,1,2,./stim/wavs/andalusian_match_declarative-broad-focus_Daniel-iba-a-Bolivia.wav,./stim/wavs/argentine_match_declarative-broad-focus_Daniel-iba-a-Bolivia.wav,./stim/wavs/castilian_match_declarative-broad-focus_Daniel-iba-a-Bolivia.wav,./stim/wavs/chilean_match_declarative-broad-focus_Daniel-iba-a-Bolivia.wav,./stim/wavs/cuban_match_declarative-broad-focus_Daniel-iba-a-Bolivia.wav,./stim/wavs/mexican_match_declarative-broad-focus_Daniel-iba-a-Bolivia.wav,./stim/wavs/peruvian_match_declarative-broad-focus_Daniel-iba-a-Bolivia.wav,./stim/wavs/puertorican_match_declarative-broad-focus_Daniel-iba-a-Bolivia.wav,,,,,,,,,,,,,,,,,,,,,,,,,,,,,,,,,,,,,,,,,,,,,,,,,,,,,,,,
,,,,,,,5eb0bbbc0be27c183500b45d,6057c54e64b0b4e5c128b4f9,605a76b0af5b3c0a8689d29f,Spain,Northeast,13 or older,no,2021-03-23_19h16.29.856,empathy_intonation_perc,2020.2.10,Win32,60,,,,,,,,,,0,puertorican,0,1,1.68753,0,52,52,33,1,34,./stim/wavs/andalusian_mismatch_declarative-broad-focus_El-hombre-mira-la-luna.wav,./stim/wavs/argentine_mismatch_declarative-broad-focus_El-hombre-mira-la-luna.wav,./stim/wavs/castilian_mismatch_declarative-broad-focus_El-hombre-mira-la-luna.wav,./stim/wavs/chilean_mismatch_declarative-broad-focus_El-hombre-mira-la-luna.wav,./stim/wavs/cuban_mismatch_declarative-broad-focus_El-hombre-mira-la-luna.wav,./stim/wavs/mexican_mismatch_declarative-broad-focus_El-hombre-mira-la-luna.wav,./stim/wavs/peruvian_mismatch_declarative-broad-focus_El-hombre-mira-la-luna.wav,./stim/wavs/puertorican_mismatch_declarative-broad-focus_El-hombre-mira-la-luna.wav,,,,,,,,,,,,,,,,,,,,,,,,,,,,,,,,,,,,,,,,,,,,,,,,,,,,,,,,
,,,,,,,5eb0bbbc0be27c183500b45d,6057c54e64b0b4e5c128b4f9,605a76b0af5b3c0a8689d29f,Spain,Northeast,13 or older,no,2021-03-23_19h16.29.856,empathy_intonation_perc,2020.2.10,Win32,60,,,,,,,,,,1,andalusian,0,0,1.706245,0,53,53,31,1,32,./stim/wavs/andalusian_match_interrogative-total-yn_Marta-abre-el-regalo.wav,./stim/wavs/argentine_match_interrogative-total-yn_Marta-abre-el-regalo.wav,./stim/wavs/castilian_match_interrogative-total-yn_Marta-abre-el-regalo.wav,./stim/wavs/chilean_match_interrogative-total-yn_Marta-abre-el-regalo.wav,./stim/wavs/cuban_match_interrogative-total-yn_Marta-abre-el-regalo.wav,./stim/wavs/mexican_match_interrogative-total-yn_Marta-abre-el-regalo.wav,./stim/wavs/peruvian_match_interrogative-total-yn_Marta-abre-el-regalo.wav,./stim/wavs/puertorican_match_interrogative-total-yn_Marta-abre-el-regalo.wav,,,,,,,,,,,,,,,,,,,,,,,,,,,,,,,,,,,,,,,,,,,,,,,,,,,,,,,,
,,,,,,,5eb0bbbc0be27c183500b45d,6057c54e64b0b4e5c128b4f9,605a76b0af5b3c0a8689d29f,Spain,Northeast,13 or older,no,2021-03-23_19h16.29.856,empathy_intonation_perc,2020.2.10,Win32,60,,,,,,,,,,1,chilean,0,0,1.63821,0,54,54,50,1,51,./stim/wavs/andalusian_mismatch_interrogative-partial-wh_Cuando-miraba-la-luna.wav,./stim/wavs/argentine_mismatch_interrogative-partial-wh_Cuando-miraba-la-luna.wav,./stim/wavs/castilian_mismatch_interrogative-partial-wh_Cuando-miraba-la-luna.wav,./stim/wavs/chilean_mismatch_interrogative-partial-wh_Cuando-miraba-la-luna.wav,./stim/wavs/cuban_mismatch_interrogative-partial-wh_Cuando-miraba-la-luna.wav,./stim/wavs/mexican_mismatch_interrogative-partial-wh_Cuando-miraba-la-luna.wav,./stim/wavs/peruvian_mismatch_interrogative-partial-wh_Cuando-miraba-la-luna.wav,./stim/wavs/puertorican_mismatch_interrogative-partial-wh_Cuando-miraba-la-luna.wav,,,,,,,,,,,,,,,,,,,,,,,,,,,,,,,,,,,,,,,,,,,,,,,,,,,,,,,,
,,,,,,,5eb0bbbc0be27c183500b45d,6057c54e64b0b4e5c128b4f9,605a76b0af5b3c0a8689d29f,Spain,Northeast,13 or older,no,2021-03-23_19h16.29.856,empathy_intonation_perc,2020.2.10,Win32,60,,,,,,,,,,0,peruvian,0,1,2.417705,0,55,55,43,1,44,./stim/wavs/andalusian_mismatch_declarative-narrow-focus_La-maestra-vive-en-Paris.wav,./stim/wavs/argentine_mismatch_declarative-narrow-focus_La-maestra-vive-en-Paris.wav,./stim/wavs/castilian_mismatch_declarative-narrow-focus_La-maestra-vive-en-Paris.wav,./stim/wavs/chilean_mismatch_declarative-narrow-focus_La-maestra-vive-en-Paris.wav,./stim/wavs/cuban_mismatch_declarative-narrow-focus_La-maestra-vive-en-Paris.wav,./stim/wavs/mexican_mismatch_declarative-narrow-focus_La-maestra-vive-en-Paris.wav,./stim/wavs/peruvian_mismatch_declarative-narrow-focus_La-maestra-vive-en-Paris.wav,./stim/wavs/puertorican_mismatch_declarative-narrow-focus_La-maestra-vive-en-Paris.wav,,,,,,,,,,,,,,,,,,,,,,,,,,,,,,,,,,,,,,,,,,,,,,,,,,,,,,,,
,,,,,,,5eb0bbbc0be27c183500b45d,6057c54e64b0b4e5c128b4f9,605a76b0af5b3c0a8689d29f,Spain,Northeast,13 or older,no,2021-03-23_19h16.29.856,empathy_intonation_perc,2020.2.10,Win32,60,,,,,,,,,,0,cuban,0,1,2.018185,0,56,56,39,1,40,./stim/wavs/andalusian_mismatch_declarative-broad-focus_Mi-tia-odia-la-lluvia.wav,./stim/wavs/argentine_mismatch_declarative-broad-focus_Mi-tia-odia-la-lluvia.wav,./stim/wavs/castilian_mismatch_declarative-broad-focus_Mi-tia-odia-la-lluvia.wav,./stim/wavs/chilean_mismatch_declarative-broad-focus_Mi-tia-odia-la-lluvia.wav,./stim/wavs/cuban_mismatch_declarative-broad-focus_Mi-tia-odia-la-lluvia.wav,./stim/wavs/mexican_mismatch_declarative-broad-focus_Mi-tia-odia-la-lluvia.wav,./stim/wavs/peruvian_mismatch_declarative-broad-focus_Mi-tia-odia-la-lluvia.wav,./stim/wavs/puertorican_mismatch_declarative-broad-focus_Mi-tia-odia-la-lluvia.wav,,,,,,,,,,,,,,,,,,,,,,,,,,,,,,,,,,,,,,,,,,,,,,,,,,,,,,,,
,,,,,,,5eb0bbbc0be27c183500b45d,6057c54e64b0b4e5c128b4f9,605a76b0af5b3c0a8689d29f,Spain,Northeast,13 or older,no,2021-03-23_19h16.29.856,empathy_intonation_perc,2020.2.10,Win32,60,,,,,,,,,,0,puertorican,0,1,1.551595,0,57,57,46,1,47,./stim/wavs/andalusian_mismatch_declarative-narrow-focus_Mi-novio-viene-del-lago.wav,./stim/wavs/argentine_mismatch_declarative-narrow-focus_Mi-novio-viene-del-lago.wav,./stim/wavs/castilian_mismatch_declarative-narrow-focus_Mi-novio-viene-del-lago.wav,./stim/wavs/chilean_mismatch_declarative-narrow-focus_Mi-novio-viene-del-lago.wav,./stim/wavs/cuban_mismatch_declarative-narrow-focus_Mi-novio-viene-del-lago.wav,./stim/wavs/mexican_mismatch_declarative-narrow-focus_Mi-novio-viene-del-lago.wav,./stim/wavs/peruvian_mismatch_declarative-narrow-focus_Mi-novio-viene-del-lago.wav,./stim/wavs/puertorican_mismatch_declarative-narrow-focus_Mi-novio-viene-del-lago.wav,,,,,,,,,,,,,,,,,,,,,,,,,,,,,,,,,,,,,,,,,,,,,,,,,,,,,,,,
,,,,,,,5eb0bbbc0be27c183500b45d,6057c54e64b0b4e5c128b4f9,605a76b0af5b3c0a8689d29f,Spain,Northeast,13 or older,no,2021-03-23_19h16.29.856,empathy_intonation_perc,2020.2.10,Win32,60,,,,,,,,,,1,cuban,0,0,1.30255,0,58,58,24,1,25,./stim/wavs/andalusian_match_interrogative-total-yn_Ana-lleva-el-abrigo.wav,./stim/wavs/argentine_match_interrogative-total-yn_Ana-lleva-el-abrigo.wav,./stim/wavs/castilian_match_interrogative-total-yn_Ana-lleva-el-abrigo.wav,./stim/wavs/chilean_match_interrogative-total-yn_Ana-lleva-el-abrigo.wav,./stim/wavs/cuban_match_interrogative-total-yn_Ana-lleva-el-abrigo.wav,./stim/wavs/mexican_match_interrogative-total-yn_Ana-lleva-el-abrigo.wav,./stim/wavs/peruvian_match_interrogative-total-yn_Ana-lleva-el-abrigo.wav,./stim/wavs/puertorican_match_interrogative-total-yn_Ana-lleva-el-abrigo.wav,,,,,,,,,,,,,,,,,,,,,,,,,,,,,,,,,,,,,,,,,,,,,,,,,,,,,,,,
,,,,,,,5eb0bbbc0be27c183500b45d,6057c54e64b0b4e5c128b4f9,605a76b0af5b3c0a8689d29f,Spain,Northeast,13 or older,no,2021-03-23_19h16.29.856,empathy_intonation_perc,2020.2.10,Win32,60,,,,,,,,,,0,peruvian,0,1,2.422605,0,59,59,36,1,37,./stim/wavs/andalusian_mismatch_declarative-broad-focus_La-nina-lava-el-plato.wav,./stim/wavs/argentine_mismatch_declarative-broad-focus_La-nina-lava-el-plato.wav,./stim/wavs/castilian_mismatch_declarative-broad-focus_La-nina-lava-el-plato.wav,./stim/wavs/chilean_mismatch_declarative-broad-focus_La-nina-lava-el-plato.wav,./stim/wavs/cuban_mismatch_declarative-broad-focus_La-nina-lava-el-plato.wav,./stim/wavs/mexican_mismatch_declarative-broad-focus_La-nina-lava-el-plato.wav,./stim/wavs/peruvian_mismatch_declarative-broad-focus_La-nina-lava-el-plato.wav,./stim/wavs/puertorican_mismatch_declarative-broad-focus_La-nina-lava-el-plato.wav,,,,,,,,,,,,,,,,,,,,,,,,,,,,,,,,,,,,,,,,,,,,,,,,,,,,,,,,
,,,,,,,5eb0bbbc0be27c183500b45d,6057c54e64b0b4e5c128b4f9,605a76b0af5b3c0a8689d29f,Spain,Northeast,13 or older,no,2021-03-23_19h16.29.856,empathy_intonation_perc,2020.2.10,Win32,60,,,,,,,,,,0,cuban,0,1,1.795225,0,60,60,37,1,38,./stim/wavs/andalusian_mismatch_declarative-broad-focus_Mi-madre-come-la-fruta.wav,./stim/wavs/argentine_mismatch_declarative-broad-focus_Mi-madre-come-la-fruta.wav,./stim/wavs/castilian_mismatch_declarative-broad-focus_Mi-madre-come-la-fruta.wav,./stim/wavs/chilean_mismatch_declarative-broad-focus_Mi-madre-come-la-fruta.wav,./stim/wavs/cuban_mismatch_declarative-broad-focus_Mi-madre-come-la-fruta.wav,./stim/wavs/mexican_mismatch_declarative-broad-focus_Mi-madre-come-la-fruta.wav,./stim/wavs/peruvian_mismatch_declarative-broad-focus_Mi-madre-come-la-fruta.wav,./stim/wavs/puertorican_mismatch_declarative-broad-focus_Mi-madre-come-la-fruta.wav,,,,,,,,,,,,,,,,,,,,,,,,,,,,,,,,,,,,,,,,,,,,,,,,,,,,,,,,
,,,,,,,5eb0bbbc0be27c183500b45d,6057c54e64b0b4e5c128b4f9,605a76b0af5b3c0a8689d29f,Spain,Northeast,13 or older,no,2021-03-23_19h16.29.856,empathy_intonation_perc,2020.2.10,Win32,60,,,,,,,,,,1,argentine,0,0,2.28787,0,61,61,22,1,23,./stim/wavs/andalusian_match_interrogative-partial-wh_Por-que-hablaba-del-agua.wav,./stim/wavs/argentine_match_interrogative-partial-wh_Por-que-hablaba-del-agua.wav,./stim/wavs/castilian_match_interrogative-partial-wh_Por-que-hablaba-del-agua.wav,./stim/wavs/chilean_match_interrogative-partial-wh_Por-que-hablaba-del-agua.wav,./stim/wavs/cuban_match_interrogative-partial-wh_Por-que-hablaba-del-agua.wav,./stim/wavs/mexican_match_interrogative-partial-wh_Por-que-hablaba-del-agua.wav,./stim/wavs/peruvian_match_interrogative-partial-wh_Por-que-hablaba-del-agua.wav,./stim/wavs/puertorican_match_interrogative-partial-wh_Por-que-hablaba-del-agua.wav,,,,,,,,,,,,,,,,,,,,,,,,,,,,,,,,,,,,,,,,,,,,,,,,,,,,,,,,
,,,,,,,5eb0bbbc0be27c183500b45d,6057c54e64b0b4e5c128b4f9,605a76b0af5b3c0a8689d29f,Spain,Northeast,13 or older,no,2021-03-23_19h16.29.856,empathy_intonation_perc,2020.2.10,Win32,60,,,,,,,,,,1,argentine,1,1,1.45265,0,62,62,21,1,22,./stim/wavs/andalusian_match_interrogative-partial-wh_Por-que-ama-la-navidad.wav,./stim/wavs/argentine_match_interrogative-partial-wh_Por-que-ama-la-navidad.wav,./stim/wavs/castilian_match_interrogative-partial-wh_Por-que-ama-la-navidad.wav,./stim/wavs/chilean_match_interrogative-partial-wh_Por-que-ama-la-navidad.wav,./stim/wavs/cuban_match_interrogative-partial-wh_Por-que-ama-la-navidad.wav,./stim/wavs/mexican_match_interrogative-partial-wh_Por-que-ama-la-navidad.wav,./stim/wavs/peruvian_match_interrogative-partial-wh_Por-que-ama-la-navidad.wav,./stim/wavs/puertorican_match_interrogative-partial-wh_Por-que-ama-la-navidad.wav,,,,,,,,,,,,,,,,,,,,,,,,,,,,,,,,,,,,,,,,,,,,,,,,,,,,,,,,
,,,,,,,5eb0bbbc0be27c183500b45d,6057c54e64b0b4e5c128b4f9,605a76b0af5b3c0a8689d29f,Spain,Northeast,13 or older,no,2021-03-23_19h16.29.856,empathy_intonation_perc,2020.2.10,Win32,60,,,,,,,,,,1,castilian,1,1,1.626275,0,63,63,23,1,24,./stim/wavs/andalusian_match_interrogative-partial-wh_Por-que-iba-a-Bolivia.wav,./stim/wavs/argentine_match_interrogative-partial-wh_Por-que-iba-a-Bolivia.wav,./stim/wavs/castilian_match_interrogative-partial-wh_Por-que-iba-a-Bolivia.wav,./stim/wavs/chilean_match_interrogative-partial-wh_Por-que-iba-a-Bolivia.wav,./stim/wavs/cuban_match_interrogative-partial-wh_Por-que-iba-a-Bolivia.wav,./stim/wavs/mexican_match_interrogative-partial-wh_Por-que-iba-a-Bolivia.wav,./stim/wavs/peruvian_match_interrogative-partial-wh_Por-que-iba-a-Bolivia.wav,./stim/wavs/puertorican_match_interrogative-partial-wh_Por-que-iba-a-Bolivia.wav,,,,,,,,,,,,,,,,,,,,,,,,,,,,,,,,,,,,,,,,,,,,,,,,,,,,,,,,
,,,,,,,5eb0bbbc0be27c183500b45d,6057c54e64b0b4e5c128b4f9,605a76b0af5b3c0a8689d29f,Spain,Northeast,13 or older,no,2021-03-23_19h16.29.856,empathy_intonation_perc,2020.2.10,Win32,60,,,,,,,,,,,,,,,,,,,,,,,,,,,,,h,1,7.79938,0,0,0,0,1,,,,,,,,,,,,,,,,,,,,,,,,,,,,,,,,,,,,,,,,,,,,,,,,
,,,,,"Great! Now we will move on. The next task consists of about 60 trials, in each of which you will see a string of letters. 
  
  Your task is to decide whether this is a real Spanish word or not.",(press the spacebar to continue),5eb0bbbc0be27c183500b45d,6057c54e64b0b4e5c128b4f9,605a76b0af5b3c0a8689d29f,Spain,Northeast,13 or older,no,2021-03-23_19h16.29.856,empathy_intonation_perc,2020.2.10,Win32,60,,,,,,,,,,,,,,,,,,,,,,,,,,,,,,,,,,,,,0,0,0,0,1,,,,,,,,,,,,,,,,,,,,,,,,,,,,,,,,,,,,,,,,,,,
,,,,,"If you think it is an existing Spanish word, you type '1' (for 'REAL'), and if you think it is not an existing Spanish word, you type '0' (for 'FAKE').",(press the spacebar to continue),5eb0bbbc0be27c183500b45d,6057c54e64b0b4e5c128b4f9,605a76b0af5b3c0a8689d29f,Spain,Northeast,13 or older,no,2021-03-23_19h16.29.856,empathy_intonation_perc,2020.2.10,Win32,60,,,,,,,,,,,,,,,,,,,,,,,,,,,,,,,,,,,,,0,1,1,1,1,,,,,,,,,,,,,,,,,,,,,,,,,,,,,,,,,,,,,,,,,,,
,,,,,"If you are sure that the word exists, even though you dont know its exact meaning, you may still respond '1' (REAL). 
  
  But if you are not sure if it is an existing word, you should respond '0' (FAKE).
  
  Let's do a practice round...",(press the spacebar to continue),5eb0bbbc0be27c183500b45d,6057c54e64b0b4e5c128b4f9,605a76b0af5b3c0a8689d29f,Spain,Northeast,13 or older,no,2021-03-23_19h16.29.856,empathy_intonation_perc,2020.2.10,Win32,60,,,,,,,,,,,,,,,,,,,,,,,,,,,,,,,,,,,,,0,2,2,2,1,,,,,,,,,,,,,,,,,,,,,,,,,,,,,,,,,,,,,,,,,,,
,,,,,,,5eb0bbbc0be27c183500b45d,6057c54e64b0b4e5c128b4f9,605a76b0af5b3c0a8689d29f,Spain,Northeast,13 or older,no,2021-03-23_19h16.29.856,empathy_intonation_perc,2020.2.10,Win32,60,,,,,,,,,,0,,,,,,,,,,,,,,,,,,,,,,,,,,,,,,,,0,1,3.084535,0,0,0,0,1,0,depiste,REAL,FAKE,,,,,,,,,,,,,,,,,,,,,,,,,,,,,,,
,,,,,,,5eb0bbbc0be27c183500b45d,6057c54e64b0b4e5c128b4f9,605a76b0af5b3c0a8689d29f,Spain,Northeast,13 or older,no,2021-03-23_19h16.29.856,empathy_intonation_perc,2020.2.10,Win32,60,,,,,,,,,,1,,,,,,,,,,,,,,,,,,,,,,,,,,,,,,,,1,1,0.879085,0,1,1,1,1,0,s,REAL,FAKE,,,,,,,,,,,,,,,,,,,,,,,,,,,,,,,
,,,,,,,5eb0bbbc0be27c183500b45d,6057c54e64b0b4e5c128b4f9,605a76b0af5b3c0a8689d29f,Spain,Northeast,13 or older,no,2021-03-23_19h16.29.856,empathy_intonation_perc,2020.2.10,Win32,60,,,,,,,,,,0,,,,,,,,,,,,,,,,,,,,,,,,,,,,,,,,0,1,1.306855,0,2,2,2,1,0,con,REAL,FAKE,,,,,,,,,,,,,,,,,,,,,,,,,,,,,,,
,,,,,,,5eb0bbbc0be27c183500b45d,6057c54e64b0b4e5c128b4f9,605a76b0af5b3c0a8689d29f,Spain,Northeast,13 or older,no,2021-03-23_19h16.29.856,empathy_intonation_perc,2020.2.10,Win32,60,,,,,,,,,,0,,,,,,,,,,,,,,,,,,,,,,,,,,,,,,,,0,1,1.20393,0,3,3,3,1,0,calpar,REAL,FAKE,,,,,,,,,,,,,,,,,,,,,,,,,,,,,,,
,,,,,,,5eb0bbbc0be27c183500b45d,6057c54e64b0b4e5c128b4f9,605a76b0af5b3c0a8689d29f,Spain,Northeast,13 or older,no,2021-03-23_19h16.29.856,empathy_intonation_perc,2020.2.10,Win32,60,,,,,,,,,,0,,,,,,,,,,,,,,,,,,,,,,,,,,,,,,,,0,1,2.713005,0,4,4,4,1,0,joten,REAL,FAKE,,,,,,,,,,,,,,,,,,,,,,,,,,,,,,,
,,,,,,,5eb0bbbc0be27c183500b45d,6057c54e64b0b4e5c128b4f9,605a76b0af5b3c0a8689d29f,Spain,Northeast,13 or older,no,2021-03-23_19h16.29.856,empathy_intonation_perc,2020.2.10,Win32,60,,,,,,,,,,1,,,,,,,,,,,,,,,,,,,,,,,,,,,,,,,,1,1,1.822805,0,5,5,5,1,0,sacapuntas,REAL,FAKE,,,,,,,,,,,,,,,,,,,,,,,,,,,,,,,
,,,,,,,5eb0bbbc0be27c183500b45d,6057c54e64b0b4e5c128b4f9,605a76b0af5b3c0a8689d29f,Spain,Northeast,13 or older,no,2021-03-23_19h16.29.856,empathy_intonation_perc,2020.2.10,Win32,60,,,,,,,,,,0,,,,,,,,,,,,,,,,,,,,,,,,,,,,,,,,1,0,2.408475,0,6,6,6,1,0,priba,REAL,FAKE,,,,,,,,,,,,,,,,,,,,,,,,,,,,,,,
,,,,,,,5eb0bbbc0be27c183500b45d,6057c54e64b0b4e5c128b4f9,605a76b0af5b3c0a8689d29f,Spain,Northeast,13 or older,no,2021-03-23_19h16.29.856,empathy_intonation_perc,2020.2.10,Win32,60,,,,,,,,,,0,,,,,,,,,,,,,,,,,,,,,,,,,,,,,,,,0,1,1.369205,0,7,7,7,1,0,pelasula,REAL,FAKE,,,,,,,,,,,,,,,,,,,,,,,,,,,,,,,
,,,,,,,5eb0bbbc0be27c183500b45d,6057c54e64b0b4e5c128b4f9,605a76b0af5b3c0a8689d29f,Spain,Northeast,13 or older,no,2021-03-23_19h16.29.856,empathy_intonation_perc,2020.2.10,Win32,60,,,,,,,,,,1,,,,,,,,,,,,,,,,,,,,,,,,,,,,,,,,1,1,0.785695,0,8,8,8,1,0,bien,REAL,FAKE,,,,,,,,,,,,,,,,,,,,,,,,,,,,,,,
,,,,,,,5eb0bbbc0be27c183500b45d,6057c54e64b0b4e5c128b4f9,605a76b0af5b3c0a8689d29f,Spain,Northeast,13 or older,no,2021-03-23_19h16.29.856,empathy_intonation_perc,2020.2.10,Win32,60,,,,,,,,,,1,,,,,,,,,,,,,,,,,,,,,,,,,,,,,,,,1,1,0.72031,0,9,9,9,1,0,casa,REAL,FAKE,,,,,,,,,,,,,,,,,,,,,,,,,,,,,,,
,,,,,,,5eb0bbbc0be27c183500b45d,6057c54e64b0b4e5c128b4f9,605a76b0af5b3c0a8689d29f,Spain,Northeast,13 or older,no,2021-03-23_19h16.29.856,empathy_intonation_perc,2020.2.10,Win32,60,,,,,,,,,,0,,,,,,,,,,,,,,,,,,,,,,,,,,,,,,,,0,1,1.527155,0,10,10,10,1,0,lejo,REAL,FAKE,,,,,,,,,,,,,,,,,,,,,,,,,,,,,,,
,,,,,,,5eb0bbbc0be27c183500b45d,6057c54e64b0b4e5c128b4f9,605a76b0af5b3c0a8689d29f,Spain,Northeast,13 or older,no,2021-03-23_19h16.29.856,empathy_intonation_perc,2020.2.10,Win32,60,,,,,,,,,,0,,,,,,,,,,,,,,,,,,,,,,,,,,,,,,,,1,0,1.64451,0,11,11,11,1,0,pretantas,REAL,FAKE,,,,,,,,,,,,,,,,,,,,,,,,,,,,,,,
,,,,,,,5eb0bbbc0be27c183500b45d,6057c54e64b0b4e5c128b4f9,605a76b0af5b3c0a8689d29f,Spain,Northeast,13 or older,no,2021-03-23_19h16.29.856,empathy_intonation_perc,2020.2.10,Win32,60,,,,,,,,,,0,,,,,,,,,,,,,,,,,,,,,,,,,,,,,,,,,,,,,,,,72,pemicin,,,0,1,3.284535,0,0,0,71,1,REAL,FAKE,,,,,,,,,,,,,,,,,,,,,
,,,,,,,5eb0bbbc0be27c183500b45d,6057c54e64b0b4e5c128b4f9,605a76b0af5b3c0a8689d29f,Spain,Northeast,13 or older,no,2021-03-23_19h16.29.856,empathy_intonation_perc,2020.2.10,Win32,60,,,,,,,,,,1,,,,,,,,,,,,,,,,,,,,,,,,,,,,,,,,,,,,,,,,65,bizcocho,,,0,0,3.01456,0,1,1,64,1,REAL,FAKE,,,,,,,,,,,,,,,,,,,,,
,,,,,,,5eb0bbbc0be27c183500b45d,6057c54e64b0b4e5c128b4f9,605a76b0af5b3c0a8689d29f,Spain,Northeast,13 or older,no,2021-03-23_19h16.29.856,empathy_intonation_perc,2020.2.10,Win32,60,,,,,,,,,,1,,,,,,,,,,,,,,,,,,,,,,,,,,,,,,,,,,,,,,,,24,ltigo,,,1,1,1.91829,0,2,2,23,1,REAL,FAKE,,,,,,,,,,,,,,,,,,,,,
,,,,,,,5eb0bbbc0be27c183500b45d,6057c54e64b0b4e5c128b4f9,605a76b0af5b3c0a8689d29f,Spain,Northeast,13 or older,no,2021-03-23_19h16.29.856,empathy_intonation_perc,2020.2.10,Win32,60,,,,,,,,,,1,,,,,,,,,,,,,,,,,,,,,,,,,,,,,,,,,,,,,,,,38,estornudar,,,0,0,1.767795,0,3,3,37,1,REAL,FAKE,,,,,,,,,,,,,,,,,,,,,
,,,,,,,5eb0bbbc0be27c183500b45d,6057c54e64b0b4e5c128b4f9,605a76b0af5b3c0a8689d29f,Spain,Northeast,13 or older,no,2021-03-23_19h16.29.856,empathy_intonation_perc,2020.2.10,Win32,60,,,,,,,,,,1,,,,,,,,,,,,,,,,,,,,,,,,,,,,,,,,,,,,,,,,15,regar,,,1,1,1.035635,0,4,4,14,1,REAL,FAKE,,,,,,,,,,,,,,,,,,,,,
,,,,,,,5eb0bbbc0be27c183500b45d,6057c54e64b0b4e5c128b4f9,605a76b0af5b3c0a8689d29f,Spain,Northeast,13 or older,no,2021-03-23_19h16.29.856,empathy_intonation_perc,2020.2.10,Win32,60,,,,,,,,,,1,,,,,,,,,,,,,,,,,,,,,,,,,,,,,,,,,,,,,,,,77,tiburn,,,1,1,1.90303,0,5,5,76,1,REAL,FAKE,,,,,,,,,,,,,,,,,,,,,
,,,,,,,5eb0bbbc0be27c183500b45d,6057c54e64b0b4e5c128b4f9,605a76b0af5b3c0a8689d29f,Spain,Northeast,13 or older,no,2021-03-23_19h16.29.856,empathy_intonation_perc,2020.2.10,Win32,60,,,,,,,,,,1,,,,,,,,,,,,,,,,,,,,,,,,,,,,,,,,,,,,,,,,75,yacer,,,0,0,7.43708,0,6,6,74,1,REAL,FAKE,,,,,,,,,,,,,,,,,,,,,
,,,,,,,5eb0bbbc0be27c183500b45d,6057c54e64b0b4e5c128b4f9,605a76b0af5b3c0a8689d29f,Spain,Northeast,13 or older,no,2021-03-23_19h16.29.856,empathy_intonation_perc,2020.2.10,Win32,60,,,,,,,,,,1,,,,,,,,,,,,,,,,,,,,,,,,,,,,,,,,,,,,,,,,61,seda,,,1,1,1.56825,0,7,7,60,1,REAL,FAKE,,,,,,,,,,,,,,,,,,,,,
,,,,,,,5eb0bbbc0be27c183500b45d,6057c54e64b0b4e5c128b4f9,605a76b0af5b3c0a8689d29f,Spain,Northeast,13 or older,no,2021-03-23_19h16.29.856,empathy_intonation_perc,2020.2.10,Win32,60,,,,,,,,,,0,,,,,,,,,,,,,,,,,,,,,,,,,,,,,,,,,,,,,,,,21,capillo,,,1,0,4.56971,0,8,8,20,1,REAL,FAKE,,,,,,,,,,,,,,,,,,,,,
,,,,,,,5eb0bbbc0be27c183500b45d,6057c54e64b0b4e5c128b4f9,605a76b0af5b3c0a8689d29f,Spain,Northeast,13 or older,no,2021-03-23_19h16.29.856,empathy_intonation_perc,2020.2.10,Win32,60,,,,,,,,,,0,,,,,,,,,,,,,,,,,,,,,,,,,,,,,,,,,,,,,,,,17,floroso,,,1,0,2.73651,0,9,9,16,1,REAL,FAKE,,,,,,,,,,,,,,,,,,,,,
,,,,,,,5eb0bbbc0be27c183500b45d,6057c54e64b0b4e5c128b4f9,605a76b0af5b3c0a8689d29f,Spain,Northeast,13 or older,no,2021-03-23_19h16.29.856,empathy_intonation_perc,2020.2.10,Win32,60,,,,,,,,,,1,,,,,,,,,,,,,,,,,,,,,,,,,,,,,,,,,,,,,,,,71,polvoriento,,,0,0,1.75709,0,10,10,70,1,REAL,FAKE,,,,,,,,,,,,,,,,,,,,,
,,,,,,,5eb0bbbc0be27c183500b45d,6057c54e64b0b4e5c128b4f9,605a76b0af5b3c0a8689d29f,Spain,Northeast,13 or older,no,2021-03-23_19h16.29.856,empathy_intonation_perc,2020.2.10,Win32,60,,,,,,,,,,0,,,,,,,,,,,,,,,,,,,,,,,,,,,,,,,,,,,,,,,,19,brecedad,,,0,1,1.10851,0,11,11,18,1,REAL,FAKE,,,,,,,,,,,,,,,,,,,,,
,,,,,,,5eb0bbbc0be27c183500b45d,6057c54e64b0b4e5c128b4f9,605a76b0af5b3c0a8689d29f,Spain,Northeast,13 or older,no,2021-03-23_19h16.29.856,empathy_intonation_perc,2020.2.10,Win32,60,,,,,,,,,,0,,,,,,,,,,,,,,,,,,,,,,,,,,,,,,,,,,,,,,,,47,cartinar,,,1,0,1.228905,0,12,12,46,1,REAL,FAKE,,,,,,,,,,,,,,,,,,,,,
,,,,,,,5eb0bbbc0be27c183500b45d,6057c54e64b0b4e5c128b4f9,605a76b0af5b3c0a8689d29f,Spain,Northeast,13 or older,no,2021-03-23_19h16.29.856,empathy_intonation_perc,2020.2.10,Win32,60,,,,,,,,,,0,,,,,,,,,,,,,,,,,,,,,,,,,,,,,,,,,,,,,,,,42,cadallo,,,1,0,1.08876,0,13,13,41,1,REAL,FAKE,,,,,,,,,,,,,,,,,,,,,
,,,,,,,5eb0bbbc0be27c183500b45d,6057c54e64b0b4e5c128b4f9,605a76b0af5b3c0a8689d29f,Spain,Northeast,13 or older,no,2021-03-23_19h16.29.856,empathy_intonation_perc,2020.2.10,Win32,60,,,,,,,,,,0,,,,,,,,,,,,,,,,,,,,,,,,,,,,,,,,,,,,,,,,18,arsa,,,1,0,1.438815,0,14,14,17,1,REAL,FAKE,,,,,,,,,,,,,,,,,,,,,
,,,,,,,5eb0bbbc0be27c183500b45d,6057c54e64b0b4e5c128b4f9,605a76b0af5b3c0a8689d29f,Spain,Northeast,13 or older,no,2021-03-23_19h16.29.856,empathy_intonation_perc,2020.2.10,Win32,60,,,,,,,,,,1,,,,,,,,,,,,,,,,,,,,,,,,,,,,,,,,,,,,,,,,88,acantilado,,,0,0,4.99462,0,15,15,87,1,REAL,FAKE,,,,,,,,,,,,,,,,,,,,,
,,,,,,,5eb0bbbc0be27c183500b45d,6057c54e64b0b4e5c128b4f9,605a76b0af5b3c0a8689d29f,Spain,Northeast,13 or older,no,2021-03-23_19h16.29.856,empathy_intonation_perc,2020.2.10,Win32,60,,,,,,,,,,1,,,,,,,,,,,,,,,,,,,,,,,,,,,,,,,,,,,,,,,,37,granuja,,,0,0,5.28823,0,16,16,36,1,REAL,FAKE,,,,,,,,,,,,,,,,,,,,,
,,,,,,,5eb0bbbc0be27c183500b45d,6057c54e64b0b4e5c128b4f9,605a76b0af5b3c0a8689d29f,Spain,Northeast,13 or older,no,2021-03-23_19h16.29.856,empathy_intonation_perc,2020.2.10,Win32,60,,,,,,,,,,0,,,,,,,,,,,,,,,,,,,,,,,,,,,,,,,,,,,,,,,,33,pauca,,,0,1,3.097985,0,17,17,32,1,REAL,FAKE,,,,,,,,,,,,,,,,,,,,,
,,,,,,,5eb0bbbc0be27c183500b45d,6057c54e64b0b4e5c128b4f9,605a76b0af5b3c0a8689d29f,Spain,Northeast,13 or older,no,2021-03-23_19h16.29.856,empathy_intonation_perc,2020.2.10,Win32,60,,,,,,,,,,1,,,,,,,,,,,,,,,,,,,,,,,,,,,,,,,,,,,,,,,,86,barato,,,1,1,1.874915,0,18,18,85,1,REAL,FAKE,,,,,,,,,,,,,,,,,,,,,
,,,,,,,5eb0bbbc0be27c183500b45d,6057c54e64b0b4e5c128b4f9,605a76b0af5b3c0a8689d29f,Spain,Northeast,13 or older,no,2021-03-23_19h16.29.856,empathy_intonation_perc,2020.2.10,Win32,60,,,,,,,,,,0,,,,,,,,,,,,,,,,,,,,,,,,,,,,,,,,,,,,,,,,70,temblo,,,0,1,1.85046,0,19,19,69,1,REAL,FAKE,,,,,,,,,,,,,,,,,,,,,
,,,,,,,5eb0bbbc0be27c183500b45d,6057c54e64b0b4e5c128b4f9,605a76b0af5b3c0a8689d29f,Spain,Northeast,13 or older,no,2021-03-23_19h16.29.856,empathy_intonation_perc,2020.2.10,Win32,60,,,,,,,,,,0,,,,,,,,,,,,,,,,,,,,,,,,,,,,,,,,,,,,,,,,8,cadea,,,1,0,2.13927,0,20,20,7,1,REAL,FAKE,,,,,,,,,,,,,,,,,,,,,
,,,,,,,5eb0bbbc0be27c183500b45d,6057c54e64b0b4e5c128b4f9,605a76b0af5b3c0a8689d29f,Spain,Northeast,13 or older,no,2021-03-23_19h16.29.856,empathy_intonation_perc,2020.2.10,Win32,60,,,,,,,,,,0,,,,,,,,,,,,,,,,,,,,,,,,,,,,,,,,,,,,,,,,32,fatacidad,,,1,0,2.352155,0,21,21,31,1,REAL,FAKE,,,,,,,,,,,,,,,,,,,,,
,,,,,,,5eb0bbbc0be27c183500b45d,6057c54e64b0b4e5c128b4f9,605a76b0af5b3c0a8689d29f,Spain,Northeast,13 or older,no,2021-03-23_19h16.29.856,empathy_intonation_perc,2020.2.10,Win32,60,,,,,,,,,,0,,,,,,,,,,,,,,,,,,,,,,,,,,,,,,,,,,,,,,,,84,escuto,,,1,0,1.75218,0,22,22,83,1,REAL,FAKE,,,,,,,,,,,,,,,,,,,,,
,,,,,,,5eb0bbbc0be27c183500b45d,6057c54e64b0b4e5c128b4f9,605a76b0af5b3c0a8689d29f,Spain,Northeast,13 or older,no,2021-03-23_19h16.29.856,empathy_intonation_perc,2020.2.10,Win32,60,,,,,,,,,,1,,,,,,,,,,,,,,,,,,,,,,,,,,,,,,,,,,,,,,,,78,frondoso,,,0,0,1.10281,0,23,23,77,1,REAL,FAKE,,,,,,,,,,,,,,,,,,,,,
,,,,,,,5eb0bbbc0be27c183500b45d,6057c54e64b0b4e5c128b4f9,605a76b0af5b3c0a8689d29f,Spain,Northeast,13 or older,no,2021-03-23_19h16.29.856,empathy_intonation_perc,2020.2.10,Win32,60,,,,,,,,,,1,,,,,,,,,,,,,,,,,,,,,,,,,,,,,,,,,,,,,,,,25,bisagra,,,0,0,1.87936,0,24,24,24,1,REAL,FAKE,,,,,,,,,,,,,,,,,,,,,
,,,,,,,5eb0bbbc0be27c183500b45d,6057c54e64b0b4e5c128b4f9,605a76b0af5b3c0a8689d29f,Spain,Northeast,13 or older,no,2021-03-23_19h16.29.856,empathy_intonation_perc,2020.2.10,Win32,60,,,,,,,,,,1,,,,,,,,,,,,,,,,,,,,,,,,,,,,,,,,,,,,,,,,57,tacao,,,1,1,2.07818,0,25,25,56,1,REAL,FAKE,,,,,,,,,,,,,,,,,,,,,
,,,,,,,5eb0bbbc0be27c183500b45d,6057c54e64b0b4e5c128b4f9,605a76b0af5b3c0a8689d29f,Spain,Northeast,13 or older,no,2021-03-23_19h16.29.856,empathy_intonation_perc,2020.2.10,Win32,60,,,,,,,,,,1,,,,,,,,,,,,,,,,,,,,,,,,,,,,,,,,,,,,,,,,51,candado,,,0,0,2.51674,0,26,26,50,1,REAL,FAKE,,,,,,,,,,,,,,,,,,,,,
,,,,,,,5eb0bbbc0be27c183500b45d,6057c54e64b0b4e5c128b4f9,605a76b0af5b3c0a8689d29f,Spain,Northeast,13 or older,no,2021-03-23_19h16.29.856,empathy_intonation_perc,2020.2.10,Win32,60,,,,,,,,,,1,,,,,,,,,,,,,,,,,,,,,,,,,,,,,,,,,,,,,,,,39,torpe,,,0,0,1.342225,0,27,27,38,1,REAL,FAKE,,,,,,,,,,,,,,,,,,,,,
,,,,,,,5eb0bbbc0be27c183500b45d,6057c54e64b0b4e5c128b4f9,605a76b0af5b3c0a8689d29f,Spain,Northeast,13 or older,no,2021-03-23_19h16.29.856,empathy_intonation_perc,2020.2.10,Win32,60,,,,,,,,,,1,,,,,,,,,,,,,,,,,,,,,,,,,,,,,,,,,,,,,,,,48,ladrn,,,0,0,3.41699,0,28,28,47,1,REAL,FAKE,,,,,,,,,,,,,,,,,,,,,
,,,,,,,5eb0bbbc0be27c183500b45d,6057c54e64b0b4e5c128b4f9,605a76b0af5b3c0a8689d29f,Spain,Northeast,13 or older,no,2021-03-23_19h16.29.856,empathy_intonation_perc,2020.2.10,Win32,60,,,,,,,,,,1,,,,,,,,,,,,,,,,,,,,,,,,,,,,,,,,,,,,,,,,60,matar,,,1,1,7.31134,0,29,29,59,1,REAL,FAKE,,,,,,,,,,,,,,,,,,,,,
,,,,,,,5eb0bbbc0be27c183500b45d,6057c54e64b0b4e5c128b4f9,605a76b0af5b3c0a8689d29f,Spain,Northeast,13 or older,no,2021-03-23_19h16.29.856,empathy_intonation_perc,2020.2.10,Win32,60,,,,,,,,,,1,,,,,,,,,,,,,,,,,,,,,,,,,,,,,,,,,,,,,,,,6,tergiversar,,,0,0,1.15341,0,30,30,5,1,REAL,FAKE,,,,,,,,,,,,,,,,,,,,,
,,,,,,,5eb0bbbc0be27c183500b45d,6057c54e64b0b4e5c128b4f9,605a76b0af5b3c0a8689d29f,Spain,Northeast,13 or older,no,2021-03-23_19h16.29.856,empathy_intonation_perc,2020.2.10,Win32,60,,,,,,,,,,1,,,,,,,,,,,,,,,,,,,,,,,,,,,,,,,,,,,,,,,,9,hacha,,,1,1,1.151615,0,31,31,8,1,REAL,FAKE,,,,,,,,,,,,,,,,,,,,,
,,,,,,,5eb0bbbc0be27c183500b45d,6057c54e64b0b4e5c128b4f9,605a76b0af5b3c0a8689d29f,Spain,Northeast,13 or older,no,2021-03-23_19h16.29.856,empathy_intonation_perc,2020.2.10,Win32,60,,,,,,,,,,1,,,,,,,,,,,,,,,,,,,,,,,,,,,,,,,,,,,,,,,,46,martillo,,,1,1,1.088175,0,32,32,45,1,REAL,FAKE,,,,,,,,,,,,,,,,,,,,,
,,,,,,,5eb0bbbc0be27c183500b45d,6057c54e64b0b4e5c128b4f9,605a76b0af5b3c0a8689d29f,Spain,Northeast,13 or older,no,2021-03-23_19h16.29.856,empathy_intonation_perc,2020.2.10,Win32,60,,,,,,,,,,1,,,,,,,,,,,,,,,,,,,,,,,,,,,,,,,,,,,,,,,,59,besar,,,1,1,1.47353,0,33,33,58,1,REAL,FAKE,,,,,,,,,,,,,,,,,,,,,
,,,,,,,5eb0bbbc0be27c183500b45d,6057c54e64b0b4e5c128b4f9,605a76b0af5b3c0a8689d29f,Spain,Northeast,13 or older,no,2021-03-23_19h16.29.856,empathy_intonation_perc,2020.2.10,Win32,60,,,,,,,,,,1,,,,,,,,,,,,,,,,,,,,,,,,,,,,,,,,,,,,,,,,12,asesinato,,,0,0,3.271275,0,34,34,11,1,REAL,FAKE,,,,,,,,,,,,,,,,,,,,,
,,,,,,,5eb0bbbc0be27c183500b45d,6057c54e64b0b4e5c128b4f9,605a76b0af5b3c0a8689d29f,Spain,Northeast,13 or older,no,2021-03-23_19h16.29.856,empathy_intonation_perc,2020.2.10,Win32,60,,,,,,,,,,1,,,,,,,,,,,,,,,,,,,,,,,,,,,,,,,,,,,,,,,,26,secuestro,,,1,1,2.968605,0,35,35,25,1,REAL,FAKE,,,,,,,,,,,,,,,,,,,,,
,,,,,,,5eb0bbbc0be27c183500b45d,6057c54e64b0b4e5c128b4f9,605a76b0af5b3c0a8689d29f,Spain,Northeast,13 or older,no,2021-03-23_19h16.29.856,empathy_intonation_perc,2020.2.10,Win32,60,,,,,,,,,,0,,,,,,,,,,,,,,,,,,,,,,,,,,,,,,,,,,,,,,,,30,alardio,,,0,1,3.05331,0,36,36,29,1,REAL,FAKE,,,,,,,,,,,,,,,,,,,,,
,,,,,,,5eb0bbbc0be27c183500b45d,6057c54e64b0b4e5c128b4f9,605a76b0af5b3c0a8689d29f,Spain,Northeast,13 or older,no,2021-03-23_19h16.29.856,empathy_intonation_perc,2020.2.10,Win32,60,,,,,,,,,,1,,,,,,,,,,,,,,,,,,,,,,,,,,,,,,,,,,,,,,,,2,pellizcar,,,0,0,1.52234,0,37,37,1,1,REAL,FAKE,,,,,,,,,,,,,,,,,,,,,
,,,,,,,5eb0bbbc0be27c183500b45d,6057c54e64b0b4e5c128b4f9,605a76b0af5b3c0a8689d29f,Spain,Northeast,13 or older,no,2021-03-23_19h16.29.856,empathy_intonation_perc,2020.2.10,Win32,60,,,,,,,,,,1,,,,,,,,,,,,,,,,,,,,,,,,,,,,,,,,,,,,,,,,76,atar,,,1,1,0.8873,0,38,38,75,1,REAL,FAKE,,,,,,,,,,,,,,,,,,,,,
,,,,,,,5eb0bbbc0be27c183500b45d,6057c54e64b0b4e5c128b4f9,605a76b0af5b3c0a8689d29f,Spain,Northeast,13 or older,no,2021-03-23_19h16.29.856,empathy_intonation_perc,2020.2.10,Win32,60,,,,,,,,,,1,,,,,,,,,,,,,,,,,,,,,,,,,,,,,,,,,,,,,,,,28,merodear,,,0,0,1.29785,0,39,39,27,1,REAL,FAKE,,,,,,,,,,,,,,,,,,,,,
,,,,,,,5eb0bbbc0be27c183500b45d,6057c54e64b0b4e5c128b4f9,605a76b0af5b3c0a8689d29f,Spain,Northeast,13 or older,no,2021-03-23_19h16.29.856,empathy_intonation_perc,2020.2.10,Win32,60,,,,,,,,,,0,,,,,,,,,,,,,,,,,,,,,,,,,,,,,,,,,,,,,,,,82,empirador,,,1,0,1.00474,0,40,40,81,1,REAL,FAKE,,,,,,,,,,,,,,,,,,,,,
,,,,,,,5eb0bbbc0be27c183500b45d,6057c54e64b0b4e5c128b4f9,605a76b0af5b3c0a8689d29f,Spain,Northeast,13 or older,no,2021-03-23_19h16.29.856,empathy_intonation_perc,2020.2.10,Win32,60,,,,,,,,,,1,,,,,,,,,,,,,,,,,,,,,,,,,,,,,,,,,,,,,,,,22,lacayo,,,0,0,0.767705,0,41,41,21,1,REAL,FAKE,,,,,,,,,,,,,,,,,,,,,
,,,,,,,5eb0bbbc0be27c183500b45d,6057c54e64b0b4e5c128b4f9,605a76b0af5b3c0a8689d29f,Spain,Northeast,13 or older,no,2021-03-23_19h16.29.856,empathy_intonation_perc,2020.2.10,Win32,60,,,,,,,,,,1,,,,,,,,,,,,,,,,,,,,,,,,,,,,,,,,,,,,,,,,5,zapato,,,1,1,1.468925,0,42,42,4,1,REAL,FAKE,,,,,,,,,,,,,,,,,,,,,
,,,,,,,5eb0bbbc0be27c183500b45d,6057c54e64b0b4e5c128b4f9,605a76b0af5b3c0a8689d29f,Spain,Northeast,13 or older,no,2021-03-23_19h16.29.856,empathy_intonation_perc,2020.2.10,Win32,60,,,,,,,,,,1,,,,,,,,,,,,,,,,,,,,,,,,,,,,,,,,,,,,,,,,13,helar,,,0,0,0.91803,0,43,43,12,1,REAL,FAKE,,,,,,,,,,,,,,,,,,,,,
,,,,,,,5eb0bbbc0be27c183500b45d,6057c54e64b0b4e5c128b4f9,605a76b0af5b3c0a8689d29f,Spain,Northeast,13 or older,no,2021-03-23_19h16.29.856,empathy_intonation_perc,2020.2.10,Win32,60,,,,,,,,,,1,,,,,,,,,,,,,,,,,,,,,,,,,,,,,,,,,,,,,,,,20,vido,,,1,1,1.975095,0,44,44,19,1,REAL,FAKE,,,,,,,,,,,,,,,,,,,,,
,,,,,,,5eb0bbbc0be27c183500b45d,6057c54e64b0b4e5c128b4f9,605a76b0af5b3c0a8689d29f,Spain,Northeast,13 or older,no,2021-03-23_19h16.29.856,empathy_intonation_perc,2020.2.10,Win32,60,,,,,,,,,,0,,,,,,,,,,,,,,,,,,,,,,,,,,,,,,,,,,,,,,,,27,acutacin,,,0,1,2.06786,0,45,45,26,1,REAL,FAKE,,,,,,,,,,,,,,,,,,,,,
,,,,,,,5eb0bbbc0be27c183500b45d,6057c54e64b0b4e5c128b4f9,605a76b0af5b3c0a8689d29f,Spain,Northeast,13 or older,no,2021-03-23_19h16.29.856,empathy_intonation_perc,2020.2.10,Win32,60,,,,,,,,,,1,,,,,,,,,,,,,,,,,,,,,,,,,,,,,,,,,,,,,,,,36,loro,,,0,0,1.2685,0,46,46,35,1,REAL,FAKE,,,,,,,,,,,,,,,,,,,,,
,,,,,,,5eb0bbbc0be27c183500b45d,6057c54e64b0b4e5c128b4f9,605a76b0af5b3c0a8689d29f,Spain,Northeast,13 or older,no,2021-03-23_19h16.29.856,empathy_intonation_perc,2020.2.10,Win32,60,,,,,,,,,,1,,,,,,,,,,,,,,,,,,,,,,,,,,,,,,,,,,,,,,,,67,cabello,,,1,1,0.936105,0,47,47,66,1,REAL,FAKE,,,,,,,,,,,,,,,,,,,,,
,,,,,,,5eb0bbbc0be27c183500b45d,6057c54e64b0b4e5c128b4f9,605a76b0af5b3c0a8689d29f,Spain,Northeast,13 or older,no,2021-03-23_19h16.29.856,empathy_intonation_perc,2020.2.10,Win32,60,,,,,,,,,,1,,,,,,,,,,,,,,,,,,,,,,,,,,,,,,,,,,,,,,,,45,jilguero,,,0,0,0.8232,0,48,48,44,1,REAL,FAKE,,,,,,,,,,,,,,,,,,,,,
,,,,,,,5eb0bbbc0be27c183500b45d,6057c54e64b0b4e5c128b4f9,605a76b0af5b3c0a8689d29f,Spain,Northeast,13 or older,no,2021-03-23_19h16.29.856,empathy_intonation_perc,2020.2.10,Win32,60,,,,,,,,,,0,,,,,,,,,,,,,,,,,,,,,,,,,,,,,,,,,,,,,,,,29,decar,,,1,0,1.26005,0,49,49,28,1,REAL,FAKE,,,,,,,,,,,,,,,,,,,,,
,,,,,,,5eb0bbbc0be27c183500b45d,6057c54e64b0b4e5c128b4f9,605a76b0af5b3c0a8689d29f,Spain,Northeast,13 or older,no,2021-03-23_19h16.29.856,empathy_intonation_perc,2020.2.10,Win32,60,,,,,,,,,,1,,,,,,,,,,,,,,,,,,,,,,,,,,,,,,,,,,,,,,,,89,prisa,,,1,1,1.317645,0,50,50,88,1,REAL,FAKE,,,,,,,,,,,,,,,,,,,,,
,,,,,,,5eb0bbbc0be27c183500b45d,6057c54e64b0b4e5c128b4f9,605a76b0af5b3c0a8689d29f,Spain,Northeast,13 or older,no,2021-03-23_19h16.29.856,empathy_intonation_perc,2020.2.10,Win32,60,,,,,,,,,,1,,,,,,,,,,,,,,,,,,,,,,,,,,,,,,,,,,,,,,,,90,clavel,,,0,0,1.58427,0,51,51,89,1,REAL,FAKE,,,,,,,,,,,,,,,,,,,,,
,,,,,,,5eb0bbbc0be27c183500b45d,6057c54e64b0b4e5c128b4f9,605a76b0af5b3c0a8689d29f,Spain,Northeast,13 or older,no,2021-03-23_19h16.29.856,empathy_intonation_perc,2020.2.10,Win32,60,,,,,,,,,,0,,,,,,,,,,,,,,,,,,,,,,,,,,,,,,,,,,,,,,,,53,vegada,,,1,0,2.018655,0,52,52,52,1,REAL,FAKE,,,,,,,,,,,,,,,,,,,,,
,,,,,,,5eb0bbbc0be27c183500b45d,6057c54e64b0b4e5c128b4f9,605a76b0af5b3c0a8689d29f,Spain,Northeast,13 or older,no,2021-03-23_19h16.29.856,empathy_intonation_perc,2020.2.10,Win32,60,,,,,,,,,,1,,,,,,,,,,,,,,,,,,,,,,,,,,,,,,,,,,,,,,,,68,alegre,,,1,1,0.88121,0,53,53,67,1,REAL,FAKE,,,,,,,,,,,,,,,,,,,,,
,,,,,,,5eb0bbbc0be27c183500b45d,6057c54e64b0b4e5c128b4f9,605a76b0af5b3c0a8689d29f,Spain,Northeast,13 or older,no,2021-03-23_19h16.29.856,empathy_intonation_perc,2020.2.10,Win32,60,,,,,,,,,,1,,,,,,,,,,,,,,,,,,,,,,,,,,,,,,,,,,,,,,,,34,aviso,,,1,1,0.851255,0,54,54,33,1,REAL,FAKE,,,,,,,,,,,,,,,,,,,,,
,,,,,,,5eb0bbbc0be27c183500b45d,6057c54e64b0b4e5c128b4f9,605a76b0af5b3c0a8689d29f,Spain,Northeast,13 or older,no,2021-03-23_19h16.29.856,empathy_intonation_perc,2020.2.10,Win32,60,,,,,,,,,,0,,,,,,,,,,,,,,,,,,,,,,,,,,,,,,,,,,,,,,,,74,cintro,,,1,0,1.302955,0,55,55,73,1,REAL,FAKE,,,,,,,,,,,,,,,,,,,,,
,,,,,,,5eb0bbbc0be27c183500b45d,6057c54e64b0b4e5c128b4f9,605a76b0af5b3c0a8689d29f,Spain,Northeast,13 or older,no,2021-03-23_19h16.29.856,empathy_intonation_perc,2020.2.10,Win32,60,,,,,,,,,,1,,,,,,,,,,,,,,,,,,,,,,,,,,,,,,,,,,,,,,,,83,guante,,,1,1,0.917715,0,56,56,82,1,REAL,FAKE,,,,,,,,,,,,,,,,,,,,,
,,,,,,,5eb0bbbc0be27c183500b45d,6057c54e64b0b4e5c128b4f9,605a76b0af5b3c0a8689d29f,Spain,Northeast,13 or older,no,2021-03-23_19h16.29.856,empathy_intonation_perc,2020.2.10,Win32,60,,,,,,,,,,1,,,,,,,,,,,,,,,,,,,,,,,,,,,,,,,,,,,,,,,,52,camisa,,,1,1,0.885305,0,57,57,51,1,REAL,FAKE,,,,,,,,,,,,,,,,,,,,,
,,,,,,,5eb0bbbc0be27c183500b45d,6057c54e64b0b4e5c128b4f9,605a76b0af5b3c0a8689d29f,Spain,Northeast,13 or older,no,2021-03-23_19h16.29.856,empathy_intonation_perc,2020.2.10,Win32,60,,,,,,,,,,1,,,,,,,,,,,,,,,,,,,,,,,,,,,,,,,,,,,,,,,,73,hervidor,,,0,0,0.705295,0,58,58,72,1,REAL,FAKE,,,,,,,,,,,,,,,,,,,,,
,,,,,,,5eb0bbbc0be27c183500b45d,6057c54e64b0b4e5c128b4f9,605a76b0af5b3c0a8689d29f,Spain,Northeast,13 or older,no,2021-03-23_19h16.29.856,empathy_intonation_perc,2020.2.10,Win32,60,,,,,,,,,,1,,,,,,,,,,,,,,,,,,,,,,,,,,,,,,,,,,,,,,,,11,cenefa,,,0,0,0.807535,0,59,59,10,1,REAL,FAKE,,,,,,,,,,,,,,,,,,,,,
,,,,,,,5eb0bbbc0be27c183500b45d,6057c54e64b0b4e5c128b4f9,605a76b0af5b3c0a8689d29f,Spain,Northeast,13 or older,no,2021-03-23_19h16.29.856,empathy_intonation_perc,2020.2.10,Win32,60,,,,,,,,,,1,,,,,,,,,,,,,,,,,,,,,,,,,,,,,,,,,,,,,,,,54,fomentar,,,1,1,2.50694,0,60,60,53,1,REAL,FAKE,,,,,,,,,,,,,,,,,,,,,
,,,,,,,5eb0bbbc0be27c183500b45d,6057c54e64b0b4e5c128b4f9,605a76b0af5b3c0a8689d29f,Spain,Northeast,13 or older,no,2021-03-23_19h16.29.856,empathy_intonation_perc,2020.2.10,Win32,60,,,,,,,,,,0,,,,,,,,,,,,,,,,,,,,,,,,,,,,,,,,,,,,,,,,66,hacido,,,1,0,0.84425,0,61,61,65,1,REAL,FAKE,,,,,,,,,,,,,,,,,,,,,
,,,,,,,5eb0bbbc0be27c183500b45d,6057c54e64b0b4e5c128b4f9,605a76b0af5b3c0a8689d29f,Spain,Northeast,13 or older,no,2021-03-23_19h16.29.856,empathy_intonation_perc,2020.2.10,Win32,60,,,,,,,,,,0,,,,,,,,,,,,,,,,,,,,,,,,,,,,,,,,,,,,,,,,58,plaudir,,,0,1,3.436885,0,62,62,57,1,REAL,FAKE,,,,,,,,,,,,,,,,,,,,,
,,,,,,,5eb0bbbc0be27c183500b45d,6057c54e64b0b4e5c128b4f9,605a76b0af5b3c0a8689d29f,Spain,Northeast,13 or older,no,2021-03-23_19h16.29.856,empathy_intonation_perc,2020.2.10,Win32,60,,,,,,,,,,1,,,,,,,,,,,,,,,,,,,,,,,,,,,,,,,,,,,,,,,,64,orgulloso,,,0,0,1.02123,0,63,63,63,1,REAL,FAKE,,,,,,,,,,,,,,,,,,,,,
,,,,,,,5eb0bbbc0be27c183500b45d,6057c54e64b0b4e5c128b4f9,605a76b0af5b3c0a8689d29f,Spain,Northeast,13 or older,no,2021-03-23_19h16.29.856,empathy_intonation_perc,2020.2.10,Win32,60,,,,,,,,,,0,,,,,,,,,,,,,,,,,,,,,,,,,,,,,,,,,,,,,,,,63,esposante,,,0,1,3.951575,0,64,64,62,1,REAL,FAKE,,,,,,,,,,,,,,,,,,,,,
,,,,,,,5eb0bbbc0be27c183500b45d,6057c54e64b0b4e5c128b4f9,605a76b0af5b3c0a8689d29f,Spain,Northeast,13 or older,no,2021-03-23_19h16.29.856,empathy_intonation_perc,2020.2.10,Win32,60,,,,,,,,,,1,,,,,,,,,,,,,,,,,,,,,,,,,,,,,,,,,,,,,,,,43,canela,,,0,0,1.363115,0,65,65,42,1,REAL,FAKE,,,,,,,,,,,,,,,,,,,,,
,,,,,,,5eb0bbbc0be27c183500b45d,6057c54e64b0b4e5c128b4f9,605a76b0af5b3c0a8689d29f,Spain,Northeast,13 or older,no,2021-03-23_19h16.29.856,empathy_intonation_perc,2020.2.10,Win32,60,,,,,,,,,,1,,,,,,,,,,,,,,,,,,,,,,,,,,,,,,,,,,,,,,,,41,rebuscar,,,0,0,0.67836,0,66,66,40,1,REAL,FAKE,,,,,,,,,,,,,,,,,,,,,
,,,,,,,5eb0bbbc0be27c183500b45d,6057c54e64b0b4e5c128b4f9,605a76b0af5b3c0a8689d29f,Spain,Northeast,13 or older,no,2021-03-23_19h16.29.856,empathy_intonation_perc,2020.2.10,Win32,60,,,,,,,,,,0,,,,,,,,,,,,,,,,,,,,,,,,,,,,,,,,,,,,,,,,10,antar,,,1,0,2.43075,0,67,67,9,1,REAL,FAKE,,,,,,,,,,,,,,,,,,,,,
,,,,,,,5eb0bbbc0be27c183500b45d,6057c54e64b0b4e5c128b4f9,605a76b0af5b3c0a8689d29f,Spain,Northeast,13 or older,no,2021-03-23_19h16.29.856,empathy_intonation_perc,2020.2.10,Win32,60,,,,,,,,,,1,,,,,,,,,,,,,,,,,,,,,,,,,,,,,,,,,,,,,,,,80,hormiga,,,0,0,1.71564,0,68,68,79,1,REAL,FAKE,,,,,,,,,,,,,,,,,,,,,
,,,,,,,5eb0bbbc0be27c183500b45d,6057c54e64b0b4e5c128b4f9,605a76b0af5b3c0a8689d29f,Spain,Northeast,13 or older,no,2021-03-23_19h16.29.856,empathy_intonation_perc,2020.2.10,Win32,60,,,,,,,,,,0,,,,,,,,,,,,,,,,,,,,,,,,,,,,,,,,,,,,,,,,35,rompido,,,1,0,2.18222,0,69,69,34,1,REAL,FAKE,,,,,,,,,,,,,,,,,,,,,
,,,,,,,5eb0bbbc0be27c183500b45d,6057c54e64b0b4e5c128b4f9,605a76b0af5b3c0a8689d29f,Spain,Northeast,13 or older,no,2021-03-23_19h16.29.856,empathy_intonation_perc,2020.2.10,Win32,60,,,,,,,,,,1,,,,,,,,,,,,,,,,,,,,,,,,,,,,,,,,,,,,,,,,55,nevar,,,0,0,6.0155,0,70,70,54,1,REAL,FAKE,,,,,,,,,,,,,,,,,,,,,
,,,,,,,5eb0bbbc0be27c183500b45d,6057c54e64b0b4e5c128b4f9,605a76b0af5b3c0a8689d29f,Spain,Northeast,13 or older,no,2021-03-23_19h16.29.856,empathy_intonation_perc,2020.2.10,Win32,60,,,,,,,,,,0,,,,,,,,,,,,,,,,,,,,,,,,,,,,,,,,,,,,,,,,1,terzo,,,0,1,3.522395,0,71,71,0,1,REAL,FAKE,,,,,,,,,,,,,,,,,,,,,
,,,,,,,5eb0bbbc0be27c183500b45d,6057c54e64b0b4e5c128b4f9,605a76b0af5b3c0a8689d29f,Spain,Northeast,13 or older,no,2021-03-23_19h16.29.856,empathy_intonation_perc,2020.2.10,Win32,60,,,,,,,,,,1,,,,,,,,,,,,,,,,,,,,,,,,,,,,,,,,,,,,,,,,31,pandilla,,,1,1,1.850235,0,72,72,30,1,REAL,FAKE,,,,,,,,,,,,,,,,,,,,,
,,,,,,,5eb0bbbc0be27c183500b45d,6057c54e64b0b4e5c128b4f9,605a76b0af5b3c0a8689d29f,Spain,Northeast,13 or older,no,2021-03-23_19h16.29.856,empathy_intonation_perc,2020.2.10,Win32,60,,,,,,,,,,0,,,,,,,,,,,,,,,,,,,,,,,,,,,,,,,,,,,,,,,,79,tropaje,,,1,0,3.282285,0,73,73,78,1,REAL,FAKE,,,,,,,,,,,,,,,,,,,,,
,,,,,,,5eb0bbbc0be27c183500b45d,6057c54e64b0b4e5c128b4f9,605a76b0af5b3c0a8689d29f,Spain,Northeast,13 or older,no,2021-03-23_19h16.29.856,empathy_intonation_perc,2020.2.10,Win32,60,,,,,,,,,,1,,,,,,,,,,,,,,,,,,,,,,,,,,,,,,,,,,,,,,,,7,psimo,,,1,1,4.108475,0,74,74,6,1,REAL,FAKE,,,,,,,,,,,,,,,,,,,,,
,,,,,,,5eb0bbbc0be27c183500b45d,6057c54e64b0b4e5c128b4f9,605a76b0af5b3c0a8689d29f,Spain,Northeast,13 or older,no,2021-03-23_19h16.29.856,empathy_intonation_perc,2020.2.10,Win32,60,,,,,,,,,,1,,,,,,,,,,,,,,,,,,,,,,,,,,,,,,,,,,,,,,,,56,musgo,,,0,0,0.996095,0,75,75,55,1,REAL,FAKE,,,,,,,,,,,,,,,,,,,,,
,,,,,,,5eb0bbbc0be27c183500b45d,6057c54e64b0b4e5c128b4f9,605a76b0af5b3c0a8689d29f,Spain,Northeast,13 or older,no,2021-03-23_19h16.29.856,empathy_intonation_perc,2020.2.10,Win32,60,,,,,,,,,,1,,,,,,,,,,,,,,,,,,,,,,,,,,,,,,,,,,,,,,,,14,yunque,,,0,0,2.52618,0,76,76,13,1,REAL,FAKE,,,,,,,,,,,,,,,,,,,,,
,,,,,,,5eb0bbbc0be27c183500b45d,6057c54e64b0b4e5c128b4f9,605a76b0af5b3c0a8689d29f,Spain,Northeast,13 or older,no,2021-03-23_19h16.29.856,empathy_intonation_perc,2020.2.10,Win32,60,,,,,,,,,,1,,,,,,,,,,,,,,,,,,,,,,,,,,,,,,,,,,,,,,,,3,pulmones,,,0,0,7.000845,0,77,77,2,1,REAL,FAKE,,,,,,,,,,,,,,,,,,,,,
,,,,,,,5eb0bbbc0be27c183500b45d,6057c54e64b0b4e5c128b4f9,605a76b0af5b3c0a8689d29f,Spain,Northeast,13 or older,no,2021-03-23_19h16.29.856,empathy_intonation_perc,2020.2.10,Win32,60,,,,,,,,,,0,,,,,,,,,,,,,,,,,,,,,,,,,,,,,,,,,,,,,,,,23,lampera,,,0,1,3.347465,0,78,78,22,1,REAL,FAKE,,,,,,,,,,,,,,,,,,,,,
,,,,,,,5eb0bbbc0be27c183500b45d,6057c54e64b0b4e5c128b4f9,605a76b0af5b3c0a8689d29f,Spain,Northeast,13 or older,no,2021-03-23_19h16.29.856,empathy_intonation_perc,2020.2.10,Win32,60,,,,,,,,,,1,,,,,,,,,,,,,,,,,,,,,,,,,,,,,,,,,,,,,,,,85,lad,,,0,0,1.88466,0,79,79,84,1,REAL,FAKE,,,,,,,,,,,,,,,,,,,,,
,,,,,,,5eb0bbbc0be27c183500b45d,6057c54e64b0b4e5c128b4f9,605a76b0af5b3c0a8689d29f,Spain,Northeast,13 or older,no,2021-03-23_19h16.29.856,empathy_intonation_perc,2020.2.10,Win32,60,,,,,,,,,,1,,,,,,,,,,,,,,,,,,,,,,,,,,,,,,,,,,,,,,,,81,pozo,,,0,0,2.03394,0,80,80,80,1,REAL,FAKE,,,,,,,,,,,,,,,,,,,,,
,,,,,,,5eb0bbbc0be27c183500b45d,6057c54e64b0b4e5c128b4f9,605a76b0af5b3c0a8689d29f,Spain,Northeast,13 or older,no,2021-03-23_19h16.29.856,empathy_intonation_perc,2020.2.10,Win32,60,,,,,,,,,,1,,,,,,,,,,,,,,,,,,,,,,,,,,,,,,,,,,,,,,,,49,ganar,,,0,0,1.546085,0,81,81,48,1,REAL,FAKE,,,,,,,,,,,,,,,,,,,,,
,,,,,,,5eb0bbbc0be27c183500b45d,6057c54e64b0b4e5c128b4f9,605a76b0af5b3c0a8689d29f,Spain,Northeast,13 or older,no,2021-03-23_19h16.29.856,empathy_intonation_perc,2020.2.10,Win32,60,,,,,,,,,,1,,,,,,,,,,,,,,,,,,,,,,,,,,,,,,,,,,,,,,,,69,engatusar,,,0,0,0.84754,0,82,82,68,1,REAL,FAKE,,,,,,,,,,,,,,,,,,,,,
,,,,,,,5eb0bbbc0be27c183500b45d,6057c54e64b0b4e5c128b4f9,605a76b0af5b3c0a8689d29f,Spain,Northeast,13 or older,no,2021-03-23_19h16.29.856,empathy_intonation_perc,2020.2.10,Win32,60,,,,,,,,,,1,,,,,,,,,,,,,,,,,,,,,,,,,,,,,,,,,,,,,,,,40,alfombra,,,1,1,2.739045,0,83,83,39,1,REAL,FAKE,,,,,,,,,,,,,,,,,,,,,
,,,,,,,5eb0bbbc0be27c183500b45d,6057c54e64b0b4e5c128b4f9,605a76b0af5b3c0a8689d29f,Spain,Northeast,13 or older,no,2021-03-23_19h16.29.856,empathy_intonation_perc,2020.2.10,Win32,60,,,,,,,,,,1,,,,,,,,,,,,,,,,,,,,,,,,,,,,,,,,,,,,,,,,44,cuchara,,,1,1,1.813715,0,84,84,43,1,REAL,FAKE,,,,,,,,,,,,,,,,,,,,,
,,,,,,,5eb0bbbc0be27c183500b45d,6057c54e64b0b4e5c128b4f9,605a76b0af5b3c0a8689d29f,Spain,Northeast,13 or older,no,2021-03-23_19h16.29.856,empathy_intonation_perc,2020.2.10,Win32,60,,,,,,,,,,1,,,,,,,,,,,,,,,,,,,,,,,,,,,,,,,,,,,,,,,,62,flaco,,,1,1,5.77863,0,85,85,61,1,REAL,FAKE,,,,,,,,,,,,,,,,,,,,,
,,,,,,,5eb0bbbc0be27c183500b45d,6057c54e64b0b4e5c128b4f9,605a76b0af5b3c0a8689d29f,Spain,Northeast,13 or older,no,2021-03-23_19h16.29.856,empathy_intonation_perc,2020.2.10,Win32,60,,,,,,,,,,0,,,,,,,,,,,,,,,,,,,,,,,,,,,,,,,,,,,,,,,,50,flamida,,,0,1,1.60097,0,86,86,49,1,REAL,FAKE,,,,,,,,,,,,,,,,,,,,,
,,,,,,,5eb0bbbc0be27c183500b45d,6057c54e64b0b4e5c128b4f9,605a76b0af5b3c0a8689d29f,Spain,Northeast,13 or older,no,2021-03-23_19h16.29.856,empathy_intonation_perc,2020.2.10,Win32,60,,,,,,,,,,0,,,,,,,,,,,,,,,,,,,,,,,,,,,,,,,,,,,,,,,,4,batilln,,,0,1,3.08268,0,87,87,3,1,REAL,FAKE,,,,,,,,,,,,,,,,,,,,,
,,,,,,,5eb0bbbc0be27c183500b45d,6057c54e64b0b4e5c128b4f9,605a76b0af5b3c0a8689d29f,Spain,Northeast,13 or older,no,2021-03-23_19h16.29.856,empathy_intonation_perc,2020.2.10,Win32,60,,,,,,,,,,0,,,,,,,,,,,,,,,,,,,,,,,,,,,,,,,,,,,,,,,,16,abracer,,,1,0,0.93896,0,88,88,15,1,REAL,FAKE,,,,,,,,,,,,,,,,,,,,,
,,,,,,,5eb0bbbc0be27c183500b45d,6057c54e64b0b4e5c128b4f9,605a76b0af5b3c0a8689d29f,Spain,Northeast,13 or older,no,2021-03-23_19h16.29.856,empathy_intonation_perc,2020.2.10,Win32,60,,,,,,,,,,0,,,,,,,,,,,,,,,,,,,,,,,,,,,,,,,,,,,,,,,,87,grodo,,,0,1,1.24803,0,89,89,86,1,REAL,FAKE,,,,,,,,,,,,,,,,,,,,,
,,,,,,,5eb0bbbc0be27c183500b45d,6057c54e64b0b4e5c128b4f9,605a76b0af5b3c0a8689d29f,Spain,Northeast,13 or older,no,2021-03-23_19h16.29.856,empathy_intonation_perc,2020.2.10,Win32,60,,,,,,,,,,,,,,,,,,,,,,,,,,,,,,,,,,,,,,,,,,,,,,,,,,,,,,,,,,,,,,,,4,1,2.019575,1,0,0,0,0,0,1,,,,,,,,,,,
,,,,,,,5eb0bbbc0be27c183500b45d,6057c54e64b0b4e5c128b4f9,605a76b0af5b3c0a8689d29f,Spain,Northeast,13 or older,no,2021-03-23_19h16.29.856,empathy_intonation_perc,2020.2.10,Win32,60,,,,,,,,,,,,,,,,,,,,1,,,,,,,,,,,,,,,,,,,,,,,,,,,,,,,,,,,,,,,,,,,,,,,,,,,,,,1,0,0,0,0,1,I can easily tell if someone else wants to enter a conversation.,1,0,1,0
,,,,,,,5eb0bbbc0be27c183500b45d,6057c54e64b0b4e5c128b4f9,605a76b0af5b3c0a8689d29f,Spain,Northeast,13 or older,no,2021-03-23_19h16.29.856,empathy_intonation_perc,2020.2.10,Win32,60,,,,,,,,,,,,,,,,,,,,2,,,,,,,,,,,,,,,,,,,,,,,,,,,,,,,,,,,,,,,,,,,,,,,,,,,,,,2,0,1,1,1,1,I prefer animals to humans.,0,1,0,0
,,,,,,,5eb0bbbc0be27c183500b45d,6057c54e64b0b4e5c128b4f9,605a76b0af5b3c0a8689d29f,Spain,Northeast,13 or older,no,2021-03-23_19h16.29.856,empathy_intonation_perc,2020.2.10,Win32,60,,,,,,,,,,,,,,,,,,,,3,,,,,,,,,,,,,,,,,,,,,,,,,,,,,,,,,,,,,,,,,,,,,,,,,,,,,,2,0,2,2,2,1,I try to keep up with the current trends and fashions.,0,1,0,0
,,,,,,,5eb0bbbc0be27c183500b45d,6057c54e64b0b4e5c128b4f9,605a76b0af5b3c0a8689d29f,Spain,Northeast,13 or older,no,2021-03-23_19h16.29.856,empathy_intonation_perc,2020.2.10,Win32,60,,,,,,,,,,,,,,,,,,,,4,,,,,,,,,,,,,,,,,,,,,,,,,,,,,,,,,,,,,,,,,,,,,,,,,,,,,,4,0,3,3,3,1,"I find it difficult to explain to others things that I understand easily, 
  when they dont understand it first time.",1,0,0,1
,,,,,,,5eb0bbbc0be27c183500b45d,6057c54e64b0b4e5c128b4f9,605a76b0af5b3c0a8689d29f,Spain,Northeast,13 or older,no,2021-03-23_19h16.29.856,empathy_intonation_perc,2020.2.10,Win32,60,,,,,,,,,,,,,,,,,,,,5,,,,,,,,,,,,,,,,,,,,,,,,,,,,,,,,,,,,,,,,,,,,,,,,,,,,,,3,0,4,4,4,1,I dream most nights.,0,1,0,0
,,,,,,,5eb0bbbc0be27c183500b45d,6057c54e64b0b4e5c128b4f9,605a76b0af5b3c0a8689d29f,Spain,Northeast,13 or older,no,2021-03-23_19h16.29.856,empathy_intonation_perc,2020.2.10,Win32,60,,,,,,,,,,,,,,,,,,,,6,,,,,,,,,,,,,,,,,,,,,,,,,,,,,,,,,,,,,,,,,,,,,,,,,,,,,,3,0,5,5,5,1,I really enjoy caring for other people.,1,0,1,0
,,,,,,,5eb0bbbc0be27c183500b45d,6057c54e64b0b4e5c128b4f9,605a76b0af5b3c0a8689d29f,Spain,Northeast,13 or older,no,2021-03-23_19h16.29.856,empathy_intonation_perc,2020.2.10,Win32,60,,,,,,,,,,,,,,,,,,,,7,,,,,,,,,,,,,,,,,,,,,,,,,,,,,,,,,,,,,,,,,,,,,,,,,,,,,,1,0,6,6,6,1,I try to solve my own problems rather than discussing them with others.,0,1,0,0
,,,,,,,5eb0bbbc0be27c183500b45d,6057c54e64b0b4e5c128b4f9,605a76b0af5b3c0a8689d29f,Spain,Northeast,13 or older,no,2021-03-23_19h16.29.856,empathy_intonation_perc,2020.2.10,Win32,60,,,,,,,,,,,,,,,,,,,,8,,,,,,,,,,,,,,,,,,,,,,,,,,,,,,,,,,,,,,,,,,,,,,,,,,,,,,4,0,7,7,7,1,I find it hard to know what to do in a social situation.,1,0,0,1
