instructions_2afc_loop.thisRepN,instructions_2afc_loop.thisTrialN,instructions_2afc_loop.thisN,instructions_2afc_loop.thisIndex,instructions_2afc_loop.ran,instructions_text,continue_text,participant,study_id,session,I am most familiar with Spanish from...*,What part of the US are you from?*,At what age did you begin learning Spanish?*,Are you proficient in any languages other than English/Spanish?*,date,expName,psychopyVersion,OS,frameRate,key_resp_2afc_practice.keys,key_resp_2afc_practice.corr,key_resp_2afc_practice.rt,trials_2afc_practice_loop.thisRepN,trials_2afc_practice_loop.thisTrialN,trials_2afc_practice_loop.thisN,trials_2afc_practice_loop.thisIndex,trials_2afc_practice_loop.ran,path,correct_response,the_col,key_resp_2afc_trial.keys,key_resp_2afc_trial.corr,key_resp_2afc_trial.rt,trials_2afc_loop.thisRepN,trials_2afc_loop.thisTrialN,trials_2afc_loop.thisN,trials_2afc_loop.thisIndex,trials_2afc_loop.ran,item_num,andalusian,argentine,castilian,chilean,cuban,mexican,peruvian,puertorican,key_resp_ac1.keys,key_resp_ac1.corr,key_resp_ac1.rt,ac1_loop.thisRepN,ac1_loop.thisTrialN,ac1_loop.thisN,ac1_loop.thisIndex,ac1_loop.ran,instructions_lextale_loop.thisRepN,instructions_lextale_loop.thisTrialN,instructions_lextale_loop.thisN,instructions_lextale_loop.thisIndex,instructions_lextale_loop.ran,key_resp_lextale_practice.keys,key_resp_lextale_practice.corr,key_resp_lextale_practice.rt,trials_lextale_practice_loop.thisRepN,trials_lextale_practice_loop.thisTrialN,trials_lextale_practice_loop.thisN,trials_lextale_practice_loop.thisIndex,trials_lextale_practice_loop.ran,stim,word,prac_button_real,prac_button_false,key_resp_lextale_trial.keys,key_resp_lextale_trial.corr,key_resp_lextale_trial.rt,trials_lextale_loop.thisRepN,trials_lextale_loop.thisTrialN,trials_lextale_loop.thisN,trials_lextale_loop.thisIndex,trials_lextale_loop.ran,button_real,button_false,key_resp_ac2.keys,key_resp_ac2.corr,key_resp_ac2.rt,check_pass,check_fails,ac2_loop.thisRepN,ac2_loop.thisTrialN,ac2_loop.thisN,ac2_loop.thisIndex,ac2_loop.ran,slider_eq_trial.response,trials_eq_loop.thisRepN,trials_eq_loop.thisTrialN,trials_eq_loop.thisN,trials_eq_loop.thisIndex,trials_eq_loop.ran,item,is_test_item,is_distractor,is_agree_score,is_disagree_score
0,0,0,0,1,"In the following task you are going to hear a series of utterances. 

  You will decide if the utterances sound like questions or not using your keyboard.",(press the spacebar to continue),5eb3623f751686152660a84b,605b45a4d25f287719a41696,605bf7ff802873fefbbf24fd,Spain,East coast,13 or older,no,2021-03-24_22h41.20.105,empathy_intonation_perc,2020.2.10,Win32,60,,,,,,,,,,,,,,,,,,,,,,,,,,,,,,,,,,,,,,,,,,,,,,,,,,,,,,,,,,,,,,,,,,,,,,,,,,,,,,,,,,,,
0,1,1,1,1,"If you believe the utterance is a question, type '1' (for 'yes') and if you do not 
  believe it is a question type '0' (for 'no').

  Let's practice a bit...",(press the spacebar to continue),5eb3623f751686152660a84b,605b45a4d25f287719a41696,605bf7ff802873fefbbf24fd,Spain,East coast,13 or older,no,2021-03-24_22h41.20.105,empathy_intonation_perc,2020.2.10,Win32,60,,,,,,,,,,,,,,,,,,,,,,,,,,,,,,,,,,,,,,,,,,,,,,,,,,,,,,,,,,,,,,,,,,,,,,,,,,,,,,,,,,,,
,,,,,,,5eb3623f751686152660a84b,605b45a4d25f287719a41696,605bf7ff802873fefbbf24fd,Spain,East coast,13 or older,no,2021-03-24_22h41.20.105,empathy_intonation_perc,2020.2.10,Win32,60,1,1,4.46557,0,0,0,3,1,./stim/wavs/mexican_question_filler_Felipe-no-tiene-contrasena.wav,1,,,,,,,,,,,,,,,,,,,,,,,,,,,,,,,,,,,,,,,,,,,,,,,,,,,,,,,,,,,,,,,,,,,,,,,,,,
,,,,,,,5eb3623f751686152660a84b,605b45a4d25f287719a41696,605bf7ff802873fefbbf24fd,Spain,East coast,13 or older,no,2021-03-24_22h41.20.105,empathy_intonation_perc,2020.2.10,Win32,60,1,1,2.4559,0,1,1,2,1,./stim/wavs/chilean_question_filler_Mi-padre-cantaba-bien.wav,1,,,,,,,,,,,,,,,,,,,,,,,,,,,,,,,,,,,,,,,,,,,,,,,,,,,,,,,,,,,,,,,,,,,,,,,,,,
,,,,,,,5eb3623f751686152660a84b,605b45a4d25f287719a41696,605bf7ff802873fefbbf24fd,Spain,East coast,13 or older,no,2021-03-24_22h41.20.105,empathy_intonation_perc,2020.2.10,Win32,60,0,1,2.582535,0,2,2,4,1,./stim/wavs/cuban_statement_filler_Cocinabas-por-la-noche.wav,0,,,,,,,,,,,,,,,,,,,,,,,,,,,,,,,,,,,,,,,,,,,,,,,,,,,,,,,,,,,,,,,,,,,,,,,,,,
,,,,,,,5eb3623f751686152660a84b,605b45a4d25f287719a41696,605bf7ff802873fefbbf24fd,Spain,East coast,13 or older,no,2021-03-24_22h41.20.105,empathy_intonation_perc,2020.2.10,Win32,60,1,1,2.287235,0,3,3,0,1,./stim/wavs/castilian_question_filler_Mi-esposo-conoce-al-chico.wav,1,,,,,,,,,,,,,,,,,,,,,,,,,,,,,,,,,,,,,,,,,,,,,,,,,,,,,,,,,,,,,,,,,,,,,,,,,,
,,,,,,,5eb3623f751686152660a84b,605b45a4d25f287719a41696,605bf7ff802873fefbbf24fd,Spain,East coast,13 or older,no,2021-03-24_22h41.20.105,empathy_intonation_perc,2020.2.10,Win32,60,0,1,2.29969,0,4,4,7,1,./stim/wavs/puertorican_statement_filler_La-nina-pinta-con-su-amiga.wav,0,,,,,,,,,,,,,,,,,,,,,,,,,,,,,,,,,,,,,,,,,,,,,,,,,,,,,,,,,,,,,,,,,,,,,,,,,,
,,,,,,,5eb3623f751686152660a84b,605b45a4d25f287719a41696,605bf7ff802873fefbbf24fd,Spain,East coast,13 or older,no,2021-03-24_22h41.20.105,empathy_intonation_perc,2020.2.10,Win32,60,0,1,2.133265,0,5,5,6,1,./stim/wavs/peruvian_statement_filler_El-nino-habla-con-su-madre.wav,0,,,,,,,,,,,,,,,,,,,,,,,,,,,,,,,,,,,,,,,,,,,,,,,,,,,,,,,,,,,,,,,,,,,,,,,,,,
,,,,,,,5eb3623f751686152660a84b,605b45a4d25f287719a41696,605bf7ff802873fefbbf24fd,Spain,East coast,13 or older,no,2021-03-24_22h41.20.105,empathy_intonation_perc,2020.2.10,Win32,60,1,1,1.866565,0,6,6,1,1,./stim/wavs/argentine_question_filler_Mi-vecino-habla-mucho.wav,1,,,,,,,,,,,,,,,,,,,,,,,,,,,,,,,,,,,,,,,,,,,,,,,,,,,,,,,,,,,,,,,,,,,,,,,,,,
,,,,,,,5eb3623f751686152660a84b,605b45a4d25f287719a41696,605bf7ff802873fefbbf24fd,Spain,East coast,13 or older,no,2021-03-24_22h41.20.105,empathy_intonation_perc,2020.2.10,Win32,60,0,1,1.764795,0,7,7,5,1,./stim/wavs/andalusian_statement_filler_Alberto-nunca-se-afeita.wav,0,,,,,,,,,,,,,,,,,,,,,,,,,,,,,,,,,,,,,,,,,,,,,,,,,,,,,,,,,,,,,,,,,,,,,,,,,,
,,,,,,,5eb3623f751686152660a84b,605b45a4d25f287719a41696,605bf7ff802873fefbbf24fd,Spain,East coast,13 or older,no,2021-03-24_22h41.20.105,empathy_intonation_perc,2020.2.10,Win32,60,,,,,,,,,,1,peruvian,1,1,2.30063,0,0,0,55,1,56,./stim/wavs/andalusian_mismatch_interrogative-partial-wh_Por-que-vivia-en-Paris.wav,./stim/wavs/argentine_mismatch_interrogative-partial-wh_Por-que-vivia-en-Paris.wav,./stim/wavs/castilian_mismatch_interrogative-partial-wh_Por-que-vivia-en-Paris.wav,./stim/wavs/chilean_mismatch_interrogative-partial-wh_Por-que-vivia-en-Paris.wav,./stim/wavs/cuban_mismatch_interrogative-partial-wh_Por-que-vivia-en-Paris.wav,./stim/wavs/mexican_mismatch_interrogative-partial-wh_Por-que-vivia-en-Paris.wav,./stim/wavs/peruvian_mismatch_interrogative-partial-wh_Por-que-vivia-en-Paris.wav,./stim/wavs/puertorican_mismatch_interrogative-partial-wh_Por-que-vivia-en-Paris.wav,,,,,,,,,,,,,,,,,,,,,,,,,,,,,,,,,,,,,,,,,,,,,,,,,,,,,,,,
,,,,,,,5eb3623f751686152660a84b,605b45a4d25f287719a41696,605bf7ff802873fefbbf24fd,Spain,East coast,13 or older,no,2021-03-24_22h41.20.105,empathy_intonation_perc,2020.2.10,Win32,60,,,,,,,,,,1,chilean,0,0,6.01562,0,1,1,29,1,30,./stim/wavs/andalusian_match_interrogative-total-yn_Maria-bebe-el-vino.wav,./stim/wavs/argentine_match_interrogative-total-yn_Maria-bebe-el-vino.wav,./stim/wavs/castilian_match_interrogative-total-yn_Maria-bebe-el-vino.wav,./stim/wavs/chilean_match_interrogative-total-yn_Maria-bebe-el-vino.wav,./stim/wavs/cuban_match_interrogative-total-yn_Maria-bebe-el-vino.wav,./stim/wavs/mexican_match_interrogative-total-yn_Maria-bebe-el-vino.wav,./stim/wavs/peruvian_match_interrogative-total-yn_Maria-bebe-el-vino.wav,./stim/wavs/puertorican_match_interrogative-total-yn_Maria-bebe-el-vino.wav,,,,,,,,,,,,,,,,,,,,,,,,,,,,,,,,,,,,,,,,,,,,,,,,,,,,,,,,
,,,,,,,5eb3623f751686152660a84b,605b45a4d25f287719a41696,605bf7ff802873fefbbf24fd,Spain,East coast,13 or older,no,2021-03-24_22h41.20.105,empathy_intonation_perc,2020.2.10,Win32,60,,,,,,,,,,0,chilean,0,1,1.494305,0,2,2,13,1,14,./stim/wavs/andalusian_match_declarative-narrow-focus_Maria-bebe-el-vino.wav,./stim/wavs/argentine_match_declarative-narrow-focus_Maria-bebe-el-vino.wav,./stim/wavs/castilian_match_declarative-narrow-focus_Maria-bebe-el-vino.wav,./stim/wavs/chilean_match_declarative-narrow-focus_Maria-bebe-el-vino.wav,./stim/wavs/cuban_match_declarative-narrow-focus_Maria-bebe-el-vino.wav,./stim/wavs/mexican_match_declarative-narrow-focus_Maria-bebe-el-vino.wav,./stim/wavs/peruvian_match_declarative-narrow-focus_Maria-bebe-el-vino.wav,./stim/wavs/puertorican_match_declarative-narrow-focus_Maria-bebe-el-vino.wav,,,,,,,,,,,,,,,,,,,,,,,,,,,,,,,,,,,,,,,,,,,,,,,,,,,,,,,,
,,,,,,,5eb3623f751686152660a84b,605b45a4d25f287719a41696,605bf7ff802873fefbbf24fd,Spain,East coast,13 or older,no,2021-03-24_22h41.20.105,empathy_intonation_perc,2020.2.10,Win32,60,,,,,,,,,,0,puertorican,0,1,2.035625,0,3,3,9,1,10,./stim/wavs/andalusian_match_declarative-narrow-focus_Daniel-iba-a-Bolivia.wav,./stim/wavs/argentine_match_declarative-narrow-focus_Daniel-iba-a-Bolivia.wav,./stim/wavs/castilian_match_declarative-narrow-focus_Daniel-iba-a-Bolivia.wav,./stim/wavs/chilean_match_declarative-narrow-focus_Daniel-iba-a-Bolivia.wav,./stim/wavs/cuban_match_declarative-narrow-focus_Daniel-iba-a-Bolivia.wav,./stim/wavs/mexican_match_declarative-narrow-focus_Daniel-iba-a-Bolivia.wav,./stim/wavs/peruvian_match_declarative-narrow-focus_Daniel-iba-a-Bolivia.wav,./stim/wavs/puertorican_match_declarative-narrow-focus_Daniel-iba-a-Bolivia.wav,,,,,,,,,,,,,,,,,,,,,,,,,,,,,,,,,,,,,,,,,,,,,,,,,,,,,,,,
,,,,,,,5eb3623f751686152660a84b,605b45a4d25f287719a41696,605bf7ff802873fefbbf24fd,Spain,East coast,13 or older,no,2021-03-24_22h41.20.105,empathy_intonation_perc,2020.2.10,Win32,60,,,,,,,,,,1,mexican,1,1,3.566095,0,4,4,61,1,62,./stim/wavs/andalusian_mismatch_interrogative-total-yn_Mi-madre-come-la-fruta.wav,./stim/wavs/argentine_mismatch_interrogative-total-yn_Mi-madre-come-la-fruta.wav,./stim/wavs/castilian_mismatch_interrogative-total-yn_Mi-madre-come-la-fruta.wav,./stim/wavs/chilean_mismatch_interrogative-total-yn_Mi-madre-come-la-fruta.wav,./stim/wavs/cuban_mismatch_interrogative-total-yn_Mi-madre-come-la-fruta.wav,./stim/wavs/mexican_mismatch_interrogative-total-yn_Mi-madre-come-la-fruta.wav,./stim/wavs/peruvian_mismatch_interrogative-total-yn_Mi-madre-come-la-fruta.wav,./stim/wavs/puertorican_mismatch_interrogative-total-yn_Mi-madre-come-la-fruta.wav,,,,,,,,,,,,,,,,,,,,,,,,,,,,,,,,,,,,,,,,,,,,,,,,,,,,,,,,
,,,,,,,5eb3623f751686152660a84b,605b45a4d25f287719a41696,605bf7ff802873fefbbf24fd,Spain,East coast,13 or older,no,2021-03-24_22h41.20.105,empathy_intonation_perc,2020.2.10,Win32,60,,,,,,,,,,1,cuban,0,0,1.944275,0,5,5,28,1,29,./stim/wavs/andalusian_match_interrogative-total-yn_Manuela-vende-el-carro.wav,./stim/wavs/argentine_match_interrogative-total-yn_Manuela-vende-el-carro.wav,./stim/wavs/castilian_match_interrogative-total-yn_Manuela-vende-el-carro.wav,./stim/wavs/chilean_match_interrogative-total-yn_Manuela-vende-el-carro.wav,./stim/wavs/cuban_match_interrogative-total-yn_Manuela-vende-el-carro.wav,./stim/wavs/mexican_match_interrogative-total-yn_Manuela-vende-el-carro.wav,./stim/wavs/peruvian_match_interrogative-total-yn_Manuela-vende-el-carro.wav,./stim/wavs/puertorican_match_interrogative-total-yn_Manuela-vende-el-carro.wav,,,,,,,,,,,,,,,,,,,,,,,,,,,,,,,,,,,,,,,,,,,,,,,,,,,,,,,,
,,,,,,,5eb3623f751686152660a84b,605b45a4d25f287719a41696,605bf7ff802873fefbbf24fd,Spain,East coast,13 or older,no,2021-03-24_22h41.20.105,empathy_intonation_perc,2020.2.10,Win32,60,,,,,,,,,,0,mexican,0,1,1.91817,0,6,6,39,1,40,./stim/wavs/andalusian_mismatch_declarative-broad-focus_Mi-tia-odia-la-lluvia.wav,./stim/wavs/argentine_mismatch_declarative-broad-focus_Mi-tia-odia-la-lluvia.wav,./stim/wavs/castilian_mismatch_declarative-broad-focus_Mi-tia-odia-la-lluvia.wav,./stim/wavs/chilean_mismatch_declarative-broad-focus_Mi-tia-odia-la-lluvia.wav,./stim/wavs/cuban_mismatch_declarative-broad-focus_Mi-tia-odia-la-lluvia.wav,./stim/wavs/mexican_mismatch_declarative-broad-focus_Mi-tia-odia-la-lluvia.wav,./stim/wavs/peruvian_mismatch_declarative-broad-focus_Mi-tia-odia-la-lluvia.wav,./stim/wavs/puertorican_mismatch_declarative-broad-focus_Mi-tia-odia-la-lluvia.wav,,,,,,,,,,,,,,,,,,,,,,,,,,,,,,,,,,,,,,,,,,,,,,,,,,,,,,,,
,,,,,,,5eb3623f751686152660a84b,605b45a4d25f287719a41696,605bf7ff802873fefbbf24fd,Spain,East coast,13 or older,no,2021-03-24_22h41.20.105,empathy_intonation_perc,2020.2.10,Win32,60,,,,,,,,,,0,mexican,0,1,1.788215,0,7,7,5,1,6,./stim/wavs/andalusian_match_declarative-broad-focus_Maria-bebe-el-vino.wav,./stim/wavs/argentine_match_declarative-broad-focus_Maria-bebe-el-vino.wav,./stim/wavs/castilian_match_declarative-broad-focus_Maria-bebe-el-vino.wav,./stim/wavs/chilean_match_declarative-broad-focus_Maria-bebe-el-vino.wav,./stim/wavs/cuban_match_declarative-broad-focus_Maria-bebe-el-vino.wav,./stim/wavs/mexican_match_declarative-broad-focus_Maria-bebe-el-vino.wav,./stim/wavs/peruvian_match_declarative-broad-focus_Maria-bebe-el-vino.wav,./stim/wavs/puertorican_match_declarative-broad-focus_Maria-bebe-el-vino.wav,,,,,,,,,,,,,,,,,,,,,,,,,,,,,,,,,,,,,,,,,,,,,,,,,,,,,,,,
,,,,,,,5eb3623f751686152660a84b,605b45a4d25f287719a41696,605bf7ff802873fefbbf24fd,Spain,East coast,13 or older,no,2021-03-24_22h41.20.105,empathy_intonation_perc,2020.2.10,Win32,60,,,,,,,,,,0,andalusian,0,1,2.651885,0,8,8,14,1,15,./stim/wavs/andalusian_match_declarative-narrow-focus_Mariano-habla-del-tiempo.wav,./stim/wavs/argentine_match_declarative-narrow-focus_Mariano-habla-del-tiempo.wav,./stim/wavs/castilian_match_declarative-narrow-focus_Mariano-habla-del-tiempo.wav,./stim/wavs/chilean_match_declarative-narrow-focus_Mariano-habla-del-tiempo.wav,./stim/wavs/cuban_match_declarative-narrow-focus_Mariano-habla-del-tiempo.wav,./stim/wavs/mexican_match_declarative-narrow-focus_Mariano-habla-del-tiempo.wav,./stim/wavs/peruvian_match_declarative-narrow-focus_Mariano-habla-del-tiempo.wav,./stim/wavs/puertorican_match_declarative-narrow-focus_Mariano-habla-del-tiempo.wav,,,,,,,,,,,,,,,,,,,,,,,,,,,,,,,,,,,,,,,,,,,,,,,,,,,,,,,,
,,,,,,,5eb3623f751686152660a84b,605b45a4d25f287719a41696,605bf7ff802873fefbbf24fd,Spain,East coast,13 or older,no,2021-03-24_22h41.20.105,empathy_intonation_perc,2020.2.10,Win32,60,,,,,,,,,,1,andalusian,1,1,1.96162,0,9,9,21,1,22,./stim/wavs/andalusian_match_interrogative-partial-wh_Por-que-ama-la-navidad.wav,./stim/wavs/argentine_match_interrogative-partial-wh_Por-que-ama-la-navidad.wav,./stim/wavs/castilian_match_interrogative-partial-wh_Por-que-ama-la-navidad.wav,./stim/wavs/chilean_match_interrogative-partial-wh_Por-que-ama-la-navidad.wav,./stim/wavs/cuban_match_interrogative-partial-wh_Por-que-ama-la-navidad.wav,./stim/wavs/mexican_match_interrogative-partial-wh_Por-que-ama-la-navidad.wav,./stim/wavs/peruvian_match_interrogative-partial-wh_Por-que-ama-la-navidad.wav,./stim/wavs/puertorican_match_interrogative-partial-wh_Por-que-ama-la-navidad.wav,,,,,,,,,,,,,,,,,,,,,,,,,,,,,,,,,,,,,,,,,,,,,,,,,,,,,,,,
,,,,,,,5eb3623f751686152660a84b,605b45a4d25f287719a41696,605bf7ff802873fefbbf24fd,Spain,East coast,13 or older,no,2021-03-24_22h41.20.105,empathy_intonation_perc,2020.2.10,Win32,60,,,,,,,,,,1,chilean,1,1,1.83358,0,10,10,53,1,54,./stim/wavs/andalusian_mismatch_interrogative-partial-wh_Por-que-oia-el-rio.wav,./stim/wavs/argentine_mismatch_interrogative-partial-wh_Por-que-oia-el-rio.wav,./stim/wavs/castilian_mismatch_interrogative-partial-wh_Por-que-oia-el-rio.wav,./stim/wavs/chilean_mismatch_interrogative-partial-wh_Por-que-oia-el-rio.wav,./stim/wavs/cuban_mismatch_interrogative-partial-wh_Por-que-oia-el-rio.wav,./stim/wavs/mexican_mismatch_interrogative-partial-wh_Por-que-oia-el-rio.wav,./stim/wavs/peruvian_mismatch_interrogative-partial-wh_Por-que-oia-el-rio.wav,./stim/wavs/puertorican_mismatch_interrogative-partial-wh_Por-que-oia-el-rio.wav,,,,,,,,,,,,,,,,,,,,,,,,,,,,,,,,,,,,,,,,,,,,,,,,,,,,,,,,
,,,,,,,5eb3623f751686152660a84b,605b45a4d25f287719a41696,605bf7ff802873fefbbf24fd,Spain,East coast,13 or older,no,2021-03-24_22h41.20.105,empathy_intonation_perc,2020.2.10,Win32,60,,,,,,,,,,1,chilean,1,1,1.66487,0,11,11,49,1,50,./stim/wavs/andalusian_mismatch_interrogative-partial-wh_Cuando-lavaba-el-plato.wav,./stim/wavs/argentine_mismatch_interrogative-partial-wh_Cuando-lavaba-el-plato.wav,./stim/wavs/castilian_mismatch_interrogative-partial-wh_Cuando-lavaba-el-plato.wav,./stim/wavs/chilean_mismatch_interrogative-partial-wh_Cuando-lavaba-el-plato.wav,./stim/wavs/cuban_mismatch_interrogative-partial-wh_Cuando-lavaba-el-plato.wav,./stim/wavs/mexican_mismatch_interrogative-partial-wh_Cuando-lavaba-el-plato.wav,./stim/wavs/peruvian_mismatch_interrogative-partial-wh_Cuando-lavaba-el-plato.wav,./stim/wavs/puertorican_mismatch_interrogative-partial-wh_Cuando-lavaba-el-plato.wav,,,,,,,,,,,,,,,,,,,,,,,,,,,,,,,,,,,,,,,,,,,,,,,,,,,,,,,,
,,,,,,,5eb3623f751686152660a84b,605b45a4d25f287719a41696,605bf7ff802873fefbbf24fd,Spain,East coast,13 or older,no,2021-03-24_22h41.20.105,empathy_intonation_perc,2020.2.10,Win32,60,,,,,,,,,,0,peruvian,0,1,2.019485,0,12,12,43,1,44,./stim/wavs/andalusian_mismatch_declarative-narrow-focus_La-maestra-vive-en-Paris.wav,./stim/wavs/argentine_mismatch_declarative-narrow-focus_La-maestra-vive-en-Paris.wav,./stim/wavs/castilian_mismatch_declarative-narrow-focus_La-maestra-vive-en-Paris.wav,./stim/wavs/chilean_mismatch_declarative-narrow-focus_La-maestra-vive-en-Paris.wav,./stim/wavs/cuban_mismatch_declarative-narrow-focus_La-maestra-vive-en-Paris.wav,./stim/wavs/mexican_mismatch_declarative-narrow-focus_La-maestra-vive-en-Paris.wav,./stim/wavs/peruvian_mismatch_declarative-narrow-focus_La-maestra-vive-en-Paris.wav,./stim/wavs/puertorican_mismatch_declarative-narrow-focus_La-maestra-vive-en-Paris.wav,,,,,,,,,,,,,,,,,,,,,,,,,,,,,,,,,,,,,,,,,,,,,,,,,,,,,,,,
,,,,,,,5eb3623f751686152660a84b,605b45a4d25f287719a41696,605bf7ff802873fefbbf24fd,Spain,East coast,13 or older,no,2021-03-24_22h41.20.105,empathy_intonation_perc,2020.2.10,Win32,60,,,,,,,,,,1,puertorican,1,1,1.879285,0,13,13,30,1,31,./stim/wavs/andalusian_match_interrogative-total-yn_Mariano-habla-del-tiempo.wav,./stim/wavs/argentine_match_interrogative-total-yn_Mariano-habla-del-tiempo.wav,./stim/wavs/castilian_match_interrogative-total-yn_Mariano-habla-del-tiempo.wav,./stim/wavs/chilean_match_interrogative-total-yn_Mariano-habla-del-tiempo.wav,./stim/wavs/cuban_match_interrogative-total-yn_Mariano-habla-del-tiempo.wav,./stim/wavs/mexican_match_interrogative-total-yn_Mariano-habla-del-tiempo.wav,./stim/wavs/peruvian_match_interrogative-total-yn_Mariano-habla-del-tiempo.wav,./stim/wavs/puertorican_match_interrogative-total-yn_Mariano-habla-del-tiempo.wav,,,,,,,,,,,,,,,,,,,,,,,,,,,,,,,,,,,,,,,,,,,,,,,,,,,,,,,,
,,,,,,,5eb3623f751686152660a84b,605b45a4d25f287719a41696,605bf7ff802873fefbbf24fd,Spain,East coast,13 or older,no,2021-03-24_22h41.20.105,empathy_intonation_perc,2020.2.10,Win32,60,,,,,,,,,,1,castilian,1,1,1.05162,0,14,14,16,1,17,./stim/wavs/andalusian_match_interrogative-partial-wh_Cuando-bebia-el-vino.wav,./stim/wavs/argentine_match_interrogative-partial-wh_Cuando-bebia-el-vino.wav,./stim/wavs/castilian_match_interrogative-partial-wh_Cuando-bebia-el-vino.wav,./stim/wavs/chilean_match_interrogative-partial-wh_Cuando-bebia-el-vino.wav,./stim/wavs/cuban_match_interrogative-partial-wh_Cuando-bebia-el-vino.wav,./stim/wavs/mexican_match_interrogative-partial-wh_Cuando-bebia-el-vino.wav,./stim/wavs/peruvian_match_interrogative-partial-wh_Cuando-bebia-el-vino.wav,./stim/wavs/puertorican_match_interrogative-partial-wh_Cuando-bebia-el-vino.wav,,,,,,,,,,,,,,,,,,,,,,,,,,,,,,,,,,,,,,,,,,,,,,,,,,,,,,,,
,,,,,,,5eb3623f751686152660a84b,605b45a4d25f287719a41696,605bf7ff802873fefbbf24fd,Spain,East coast,13 or older,no,2021-03-24_22h41.20.105,empathy_intonation_perc,2020.2.10,Win32,60,,,,,,,,,,1,mexican,1,1,3.472425,0,15,15,58,1,59,./stim/wavs/andalusian_mismatch_interrogative-total-yn_El-nino-oye-el-rio.wav,./stim/wavs/argentine_mismatch_interrogative-total-yn_El-nino-oye-el-rio.wav,./stim/wavs/castilian_mismatch_interrogative-total-yn_El-nino-oye-el-rio.wav,./stim/wavs/chilean_mismatch_interrogative-total-yn_El-nino-oye-el-rio.wav,./stim/wavs/cuban_mismatch_interrogative-total-yn_El-nino-oye-el-rio.wav,./stim/wavs/mexican_mismatch_interrogative-total-yn_El-nino-oye-el-rio.wav,./stim/wavs/peruvian_mismatch_interrogative-total-yn_El-nino-oye-el-rio.wav,./stim/wavs/puertorican_mismatch_interrogative-total-yn_El-nino-oye-el-rio.wav,,,,,,,,,,,,,,,,,,,,,,,,,,,,,,,,,,,,,,,,,,,,,,,,,,,,,,,,
,,,,,,,5eb3623f751686152660a84b,605b45a4d25f287719a41696,605bf7ff802873fefbbf24fd,Spain,East coast,13 or older,no,2021-03-24_22h41.20.105,empathy_intonation_perc,2020.2.10,Win32,60,,,,,,,,,,0,andalusian,0,1,1.97006,0,16,16,4,1,5,./stim/wavs/andalusian_match_declarative-broad-focus_Manuela-vende-el-carro.wav,./stim/wavs/argentine_match_declarative-broad-focus_Manuela-vende-el-carro.wav,./stim/wavs/castilian_match_declarative-broad-focus_Manuela-vende-el-carro.wav,./stim/wavs/chilean_match_declarative-broad-focus_Manuela-vende-el-carro.wav,./stim/wavs/cuban_match_declarative-broad-focus_Manuela-vende-el-carro.wav,./stim/wavs/mexican_match_declarative-broad-focus_Manuela-vende-el-carro.wav,./stim/wavs/peruvian_match_declarative-broad-focus_Manuela-vende-el-carro.wav,./stim/wavs/puertorican_match_declarative-broad-focus_Manuela-vende-el-carro.wav,,,,,,,,,,,,,,,,,,,,,,,,,,,,,,,,,,,,,,,,,,,,,,,,,,,,,,,,
,,,,,,,5eb3623f751686152660a84b,605b45a4d25f287719a41696,605bf7ff802873fefbbf24fd,Spain,East coast,13 or older,no,2021-03-24_22h41.20.105,empathy_intonation_perc,2020.2.10,Win32,60,,,,,,,,,,1,peruvian,1,1,0.805155,0,17,17,52,1,53,./stim/wavs/andalusian_mismatch_interrogative-partial-wh_Por-que-odiaba-la-lluvia.wav,./stim/wavs/argentine_mismatch_interrogative-partial-wh_Por-que-odiaba-la-lluvia.wav,./stim/wavs/castilian_mismatch_interrogative-partial-wh_Por-que-odiaba-la-lluvia.wav,./stim/wavs/chilean_mismatch_interrogative-partial-wh_Por-que-odiaba-la-lluvia.wav,./stim/wavs/cuban_mismatch_interrogative-partial-wh_Por-que-odiaba-la-lluvia.wav,./stim/wavs/mexican_mismatch_interrogative-partial-wh_Por-que-odiaba-la-lluvia.wav,./stim/wavs/peruvian_mismatch_interrogative-partial-wh_Por-que-odiaba-la-lluvia.wav,./stim/wavs/puertorican_mismatch_interrogative-partial-wh_Por-que-odiaba-la-lluvia.wav,,,,,,,,,,,,,,,,,,,,,,,,,,,,,,,,,,,,,,,,,,,,,,,,,,,,,,,,
,,,,,,,5eb3623f751686152660a84b,605b45a4d25f287719a41696,605bf7ff802873fefbbf24fd,Spain,East coast,13 or older,no,2021-03-24_22h41.20.105,empathy_intonation_perc,2020.2.10,Win32,60,,,,,,,,,,0,argentine,0,1,1.935635,0,18,18,2,1,3,./stim/wavs/andalusian_match_declarative-broad-focus_David-leia-el-libro.wav,./stim/wavs/argentine_match_declarative-broad-focus_David-leia-el-libro.wav,./stim/wavs/castilian_match_declarative-broad-focus_David-leia-el-libro.wav,./stim/wavs/chilean_match_declarative-broad-focus_David-leia-el-libro.wav,./stim/wavs/cuban_match_declarative-broad-focus_David-leia-el-libro.wav,./stim/wavs/mexican_match_declarative-broad-focus_David-leia-el-libro.wav,./stim/wavs/peruvian_match_declarative-broad-focus_David-leia-el-libro.wav,./stim/wavs/puertorican_match_declarative-broad-focus_David-leia-el-libro.wav,,,,,,,,,,,,,,,,,,,,,,,,,,,,,,,,,,,,,,,,,,,,,,,,,,,,,,,,
,,,,,,,5eb3623f751686152660a84b,605b45a4d25f287719a41696,605bf7ff802873fefbbf24fd,Spain,East coast,13 or older,no,2021-03-24_22h41.20.105,empathy_intonation_perc,2020.2.10,Win32,60,,,,,,,,,,1,castilian,0,0,2.250785,0,19,19,56,1,57,./stim/wavs/andalusian_mismatch_interrogative-total-yn_El-bebe-comia-muy-bien.wav,./stim/wavs/argentine_mismatch_interrogative-total-yn_El-bebe-comia-muy-bien.wav,./stim/wavs/castilian_mismatch_interrogative-total-yn_El-bebe-comia-muy-bien.wav,./stim/wavs/chilean_mismatch_interrogative-total-yn_El-bebe-comia-muy-bien.wav,./stim/wavs/cuban_mismatch_interrogative-total-yn_El-bebe-comia-muy-bien.wav,./stim/wavs/mexican_mismatch_interrogative-total-yn_El-bebe-comia-muy-bien.wav,./stim/wavs/peruvian_mismatch_interrogative-total-yn_El-bebe-comia-muy-bien.wav,./stim/wavs/puertorican_mismatch_interrogative-total-yn_El-bebe-comia-muy-bien.wav,,,,,,,,,,,,,,,,,,,,,,,,,,,,,,,,,,,,,,,,,,,,,,,,,,,,,,,,
,,,,,,,5eb3623f751686152660a84b,605b45a4d25f287719a41696,605bf7ff802873fefbbf24fd,Spain,East coast,13 or older,no,2021-03-24_22h41.20.105,empathy_intonation_perc,2020.2.10,Win32,60,,,,,,,,,,0,puertorican,0,1,3.0467,0,20,20,11,1,12,./stim/wavs/andalusian_match_declarative-narrow-focus_Emilio-ama-la-marcha.wav,./stim/wavs/argentine_match_declarative-narrow-focus_Emilio-ama-la-marcha.wav,./stim/wavs/castilian_match_declarative-narrow-focus_Emilio-ama-la-marcha.wav,./stim/wavs/chilean_match_declarative-narrow-focus_Emilio-ama-la-marcha.wav,./stim/wavs/cuban_match_declarative-narrow-focus_Emilio-ama-la-marcha.wav,./stim/wavs/mexican_match_declarative-narrow-focus_Emilio-ama-la-marcha.wav,./stim/wavs/peruvian_match_declarative-narrow-focus_Emilio-ama-la-marcha.wav,./stim/wavs/puertorican_match_declarative-narrow-focus_Emilio-ama-la-marcha.wav,,,,,,,,,,,,,,,,,,,,,,,,,,,,,,,,,,,,,,,,,,,,,,,,,,,,,,,,
,,,,,,,5eb3623f751686152660a84b,605b45a4d25f287719a41696,605bf7ff802873fefbbf24fd,Spain,East coast,13 or older,no,2021-03-24_22h41.20.105,empathy_intonation_perc,2020.2.10,Win32,60,,,,,,,,,,1,puertorican,0,0,1.93097,0,21,21,54,1,55,./stim/wavs/andalusian_mismatch_interrogative-partial-wh_Por-que-venia-del-lago.wav,./stim/wavs/argentine_mismatch_interrogative-partial-wh_Por-que-venia-del-lago.wav,./stim/wavs/castilian_mismatch_interrogative-partial-wh_Por-que-venia-del-lago.wav,./stim/wavs/chilean_mismatch_interrogative-partial-wh_Por-que-venia-del-lago.wav,./stim/wavs/cuban_mismatch_interrogative-partial-wh_Por-que-venia-del-lago.wav,./stim/wavs/mexican_mismatch_interrogative-partial-wh_Por-que-venia-del-lago.wav,./stim/wavs/peruvian_mismatch_interrogative-partial-wh_Por-que-venia-del-lago.wav,./stim/wavs/puertorican_mismatch_interrogative-partial-wh_Por-que-venia-del-lago.wav,,,,,,,,,,,,,,,,,,,,,,,,,,,,,,,,,,,,,,,,,,,,,,,,,,,,,,,,
,,,,,,,5eb3623f751686152660a84b,605b45a4d25f287719a41696,605bf7ff802873fefbbf24fd,Spain,East coast,13 or older,no,2021-03-24_22h41.20.105,empathy_intonation_perc,2020.2.10,Win32,60,,,,,,,,,,0,andalusian,0,1,2.16038,0,22,22,15,1,16,./stim/wavs/andalusian_match_declarative-narrow-focus_Marta-abre-el-regalo.wav,./stim/wavs/argentine_match_declarative-narrow-focus_Marta-abre-el-regalo.wav,./stim/wavs/castilian_match_declarative-narrow-focus_Marta-abre-el-regalo.wav,./stim/wavs/chilean_match_declarative-narrow-focus_Marta-abre-el-regalo.wav,./stim/wavs/cuban_match_declarative-narrow-focus_Marta-abre-el-regalo.wav,./stim/wavs/mexican_match_declarative-narrow-focus_Marta-abre-el-regalo.wav,./stim/wavs/peruvian_match_declarative-narrow-focus_Marta-abre-el-regalo.wav,./stim/wavs/puertorican_match_declarative-narrow-focus_Marta-abre-el-regalo.wav,,,,,,,,,,,,,,,,,,,,,,,,,,,,,,,,,,,,,,,,,,,,,,,,,,,,,,,,
,,,,,,,5eb3623f751686152660a84b,605b45a4d25f287719a41696,605bf7ff802873fefbbf24fd,Spain,East coast,13 or older,no,2021-03-24_22h41.20.105,empathy_intonation_perc,2020.2.10,Win32,60,,,,,,,,,,1,castilian,1,1,1.92083,0,23,23,22,1,23,./stim/wavs/andalusian_match_interrogative-partial-wh_Por-que-hablaba-del-agua.wav,./stim/wavs/argentine_match_interrogative-partial-wh_Por-que-hablaba-del-agua.wav,./stim/wavs/castilian_match_interrogative-partial-wh_Por-que-hablaba-del-agua.wav,./stim/wavs/chilean_match_interrogative-partial-wh_Por-que-hablaba-del-agua.wav,./stim/wavs/cuban_match_interrogative-partial-wh_Por-que-hablaba-del-agua.wav,./stim/wavs/mexican_match_interrogative-partial-wh_Por-que-hablaba-del-agua.wav,./stim/wavs/peruvian_match_interrogative-partial-wh_Por-que-hablaba-del-agua.wav,./stim/wavs/puertorican_match_interrogative-partial-wh_Por-que-hablaba-del-agua.wav,,,,,,,,,,,,,,,,,,,,,,,,,,,,,,,,,,,,,,,,,,,,,,,,,,,,,,,,
,,,,,,,5eb3623f751686152660a84b,605b45a4d25f287719a41696,605bf7ff802873fefbbf24fd,Spain,East coast,13 or older,no,2021-03-24_22h41.20.105,empathy_intonation_perc,2020.2.10,Win32,60,,,,,,,,,,1,peruvian,0,0,2.02715,0,24,24,26,1,27,./stim/wavs/andalusian_match_interrogative-total-yn_David-leia-el-libro.wav,./stim/wavs/argentine_match_interrogative-total-yn_David-leia-el-libro.wav,./stim/wavs/castilian_match_interrogative-total-yn_David-leia-el-libro.wav,./stim/wavs/chilean_match_interrogative-total-yn_David-leia-el-libro.wav,./stim/wavs/cuban_match_interrogative-total-yn_David-leia-el-libro.wav,./stim/wavs/mexican_match_interrogative-total-yn_David-leia-el-libro.wav,./stim/wavs/peruvian_match_interrogative-total-yn_David-leia-el-libro.wav,./stim/wavs/puertorican_match_interrogative-total-yn_David-leia-el-libro.wav,,,,,,,,,,,,,,,,,,,,,,,,,,,,,,,,,,,,,,,,,,,,,,,,,,,,,,,,
,,,,,,,5eb3623f751686152660a84b,605b45a4d25f287719a41696,605bf7ff802873fefbbf24fd,Spain,East coast,13 or older,no,2021-03-24_22h41.20.105,empathy_intonation_perc,2020.2.10,Win32,60,,,,,,,,,,0,castilian,0,1,4.2301,0,25,25,41,1,42,./stim/wavs/andalusian_mismatch_declarative-narrow-focus_El-hombre-mira-la-luna.wav,./stim/wavs/argentine_mismatch_declarative-narrow-focus_El-hombre-mira-la-luna.wav,./stim/wavs/castilian_mismatch_declarative-narrow-focus_El-hombre-mira-la-luna.wav,./stim/wavs/chilean_mismatch_declarative-narrow-focus_El-hombre-mira-la-luna.wav,./stim/wavs/cuban_mismatch_declarative-narrow-focus_El-hombre-mira-la-luna.wav,./stim/wavs/mexican_mismatch_declarative-narrow-focus_El-hombre-mira-la-luna.wav,./stim/wavs/peruvian_mismatch_declarative-narrow-focus_El-hombre-mira-la-luna.wav,./stim/wavs/puertorican_mismatch_declarative-narrow-focus_El-hombre-mira-la-luna.wav,,,,,,,,,,,,,,,,,,,,,,,,,,,,,,,,,,,,,,,,,,,,,,,,,,,,,,,,
,,,,,,,5eb3623f751686152660a84b,605b45a4d25f287719a41696,605bf7ff802873fefbbf24fd,Spain,East coast,13 or older,no,2021-03-24_22h41.20.105,empathy_intonation_perc,2020.2.10,Win32,60,,,,,,,,,,1,chilean,1,1,1.593815,0,26,26,51,1,52,./stim/wavs/andalusian_mismatch_interrogative-partial-wh_Por-que-desayuna-muy-bien.wav,./stim/wavs/argentine_mismatch_interrogative-partial-wh_Por-que-desayuna-muy-bien.wav,./stim/wavs/castilian_mismatch_interrogative-partial-wh_Por-que-desayuna-muy-bien.wav,./stim/wavs/chilean_mismatch_interrogative-partial-wh_Por-que-desayuna-muy-bien.wav,./stim/wavs/cuban_mismatch_interrogative-partial-wh_Por-que-desayuna-muy-bien.wav,./stim/wavs/mexican_mismatch_interrogative-partial-wh_Por-que-desayuna-muy-bien.wav,./stim/wavs/peruvian_mismatch_interrogative-partial-wh_Por-que-desayuna-muy-bien.wav,./stim/wavs/puertorican_mismatch_interrogative-partial-wh_Por-que-desayuna-muy-bien.wav,,,,,,,,,,,,,,,,,,,,,,,,,,,,,,,,,,,,,,,,,,,,,,,,,,,,,,,,
,,,,,,,5eb3623f751686152660a84b,605b45a4d25f287719a41696,605bf7ff802873fefbbf24fd,Spain,East coast,13 or older,no,2021-03-24_22h41.20.105,empathy_intonation_perc,2020.2.10,Win32,60,,,,,,,,,,1,cuban,0,0,1.957715,0,27,27,63,1,64,./stim/wavs/andalusian_mismatch_interrogative-total-yn_Mi-tia-odia-la-lluvia.wav,./stim/wavs/argentine_mismatch_interrogative-total-yn_Mi-tia-odia-la-lluvia.wav,./stim/wavs/castilian_mismatch_interrogative-total-yn_Mi-tia-odia-la-lluvia.wav,./stim/wavs/chilean_mismatch_interrogative-total-yn_Mi-tia-odia-la-lluvia.wav,./stim/wavs/cuban_mismatch_interrogative-total-yn_Mi-tia-odia-la-lluvia.wav,./stim/wavs/mexican_mismatch_interrogative-total-yn_Mi-tia-odia-la-lluvia.wav,./stim/wavs/peruvian_mismatch_interrogative-total-yn_Mi-tia-odia-la-lluvia.wav,./stim/wavs/puertorican_mismatch_interrogative-total-yn_Mi-tia-odia-la-lluvia.wav,,,,,,,,,,,,,,,,,,,,,,,,,,,,,,,,,,,,,,,,,,,,,,,,,,,,,,,,
,,,,,,,5eb3623f751686152660a84b,605b45a4d25f287719a41696,605bf7ff802873fefbbf24fd,Spain,East coast,13 or older,no,2021-03-24_22h41.20.105,empathy_intonation_perc,2020.2.10,Win32,60,,,,,,,,,,0,castilian,0,1,2.26891,0,28,28,10,1,11,./stim/wavs/andalusian_match_declarative-narrow-focus_David-leia-el-libro.wav,./stim/wavs/argentine_match_declarative-narrow-focus_David-leia-el-libro.wav,./stim/wavs/castilian_match_declarative-narrow-focus_David-leia-el-libro.wav,./stim/wavs/chilean_match_declarative-narrow-focus_David-leia-el-libro.wav,./stim/wavs/cuban_match_declarative-narrow-focus_David-leia-el-libro.wav,./stim/wavs/mexican_match_declarative-narrow-focus_David-leia-el-libro.wav,./stim/wavs/peruvian_match_declarative-narrow-focus_David-leia-el-libro.wav,./stim/wavs/puertorican_match_declarative-narrow-focus_David-leia-el-libro.wav,,,,,,,,,,,,,,,,,,,,,,,,,,,,,,,,,,,,,,,,,,,,,,,,,,,,,,,,
,,,,,,,5eb3623f751686152660a84b,605b45a4d25f287719a41696,605bf7ff802873fefbbf24fd,Spain,East coast,13 or older,no,2021-03-24_22h41.20.105,empathy_intonation_perc,2020.2.10,Win32,60,,,,,,,,,,0,andalusian,1,0,2.188105,0,29,29,0,1,1,./stim/wavs/andalusian_match_declarative-broad-focus_Ana-lleva-el-abrigo.wav,./stim/wavs/argentine_match_declarative-broad-focus_Ana-lleva-el-abrigo.wav,./stim/wavs/castilian_match_declarative-broad-focus_Ana-lleva-el-abrigo.wav,./stim/wavs/chilean_match_declarative-broad-focus_Ana-lleva-el-abrigo.wav,./stim/wavs/cuban_match_declarative-broad-focus_Ana-lleva-el-abrigo.wav,./stim/wavs/mexican_match_declarative-broad-focus_Ana-lleva-el-abrigo.wav,./stim/wavs/peruvian_match_declarative-broad-focus_Ana-lleva-el-abrigo.wav,./stim/wavs/puertorican_match_declarative-broad-focus_Ana-lleva-el-abrigo.wav,,,,,,,,,,,,,,,,,,,,,,,,,,,,,,,,,,,,,,,,,,,,,,,,,,,,,,,,
,,,,,,,5eb3623f751686152660a84b,605b45a4d25f287719a41696,605bf7ff802873fefbbf24fd,Spain,East coast,13 or older,no,2021-03-24_22h41.20.105,empathy_intonation_perc,2020.2.10,Win32,60,,,,,,,,,,0,puertorican,0,1,1.93319,0,30,30,34,1,35,./stim/wavs/andalusian_mismatch_declarative-broad-focus_El-nino-oye-el-rio.wav,./stim/wavs/argentine_mismatch_declarative-broad-focus_El-nino-oye-el-rio.wav,./stim/wavs/castilian_mismatch_declarative-broad-focus_El-nino-oye-el-rio.wav,./stim/wavs/chilean_mismatch_declarative-broad-focus_El-nino-oye-el-rio.wav,./stim/wavs/cuban_mismatch_declarative-broad-focus_El-nino-oye-el-rio.wav,./stim/wavs/mexican_mismatch_declarative-broad-focus_El-nino-oye-el-rio.wav,./stim/wavs/peruvian_mismatch_declarative-broad-focus_El-nino-oye-el-rio.wav,./stim/wavs/puertorican_mismatch_declarative-broad-focus_El-nino-oye-el-rio.wav,,,,,,,,,,,,,,,,,,,,,,,,,,,,,,,,,,,,,,,,,,,,,,,,,,,,,,,,
,,,,,,,5eb3623f751686152660a84b,605b45a4d25f287719a41696,605bf7ff802873fefbbf24fd,Spain,East coast,13 or older,no,2021-03-24_22h41.20.105,empathy_intonation_perc,2020.2.10,Win32,60,,,,,,,,,,0,peruvian,0,1,1.958465,0,31,31,36,1,37,./stim/wavs/andalusian_mismatch_declarative-broad-focus_La-nina-lava-el-plato.wav,./stim/wavs/argentine_mismatch_declarative-broad-focus_La-nina-lava-el-plato.wav,./stim/wavs/castilian_mismatch_declarative-broad-focus_La-nina-lava-el-plato.wav,./stim/wavs/chilean_mismatch_declarative-broad-focus_La-nina-lava-el-plato.wav,./stim/wavs/cuban_mismatch_declarative-broad-focus_La-nina-lava-el-plato.wav,./stim/wavs/mexican_mismatch_declarative-broad-focus_La-nina-lava-el-plato.wav,./stim/wavs/peruvian_mismatch_declarative-broad-focus_La-nina-lava-el-plato.wav,./stim/wavs/puertorican_mismatch_declarative-broad-focus_La-nina-lava-el-plato.wav,,,,,,,,,,,,,,,,,,,,,,,,,,,,,,,,,,,,,,,,,,,,,,,,,,,,,,,,
,,,,,,,5eb3623f751686152660a84b,605b45a4d25f287719a41696,605bf7ff802873fefbbf24fd,Spain,East coast,13 or older,no,2021-03-24_22h41.20.105,empathy_intonation_perc,2020.2.10,Win32,60,,,,,,,,,,0,argentine,0,1,2.12336,0,32,32,8,1,9,./stim/wavs/andalusian_match_declarative-narrow-focus_Ana-lleva-el-abrigo.wav,./stim/wavs/argentine_match_declarative-narrow-focus_Ana-lleva-el-abrigo.wav,./stim/wavs/castilian_match_declarative-narrow-focus_Ana-lleva-el-abrigo.wav,./stim/wavs/chilean_match_declarative-narrow-focus_Ana-lleva-el-abrigo.wav,./stim/wavs/cuban_match_declarative-narrow-focus_Ana-lleva-el-abrigo.wav,./stim/wavs/mexican_match_declarative-narrow-focus_Ana-lleva-el-abrigo.wav,./stim/wavs/peruvian_match_declarative-narrow-focus_Ana-lleva-el-abrigo.wav,./stim/wavs/puertorican_match_declarative-narrow-focus_Ana-lleva-el-abrigo.wav,,,,,,,,,,,,,,,,,,,,,,,,,,,,,,,,,,,,,,,,,,,,,,,,,,,,,,,,
,,,,,,,5eb3623f751686152660a84b,605b45a4d25f287719a41696,605bf7ff802873fefbbf24fd,Spain,East coast,13 or older,no,2021-03-24_22h41.20.105,empathy_intonation_perc,2020.2.10,Win32,60,,,,,,,,,,0,peruvian,0,1,1.84872,0,33,33,33,1,34,./stim/wavs/andalusian_mismatch_declarative-broad-focus_El-hombre-mira-la-luna.wav,./stim/wavs/argentine_mismatch_declarative-broad-focus_El-hombre-mira-la-luna.wav,./stim/wavs/castilian_mismatch_declarative-broad-focus_El-hombre-mira-la-luna.wav,./stim/wavs/chilean_mismatch_declarative-broad-focus_El-hombre-mira-la-luna.wav,./stim/wavs/cuban_mismatch_declarative-broad-focus_El-hombre-mira-la-luna.wav,./stim/wavs/mexican_mismatch_declarative-broad-focus_El-hombre-mira-la-luna.wav,./stim/wavs/peruvian_mismatch_declarative-broad-focus_El-hombre-mira-la-luna.wav,./stim/wavs/puertorican_mismatch_declarative-broad-focus_El-hombre-mira-la-luna.wav,,,,,,,,,,,,,,,,,,,,,,,,,,,,,,,,,,,,,,,,,,,,,,,,,,,,,,,,
,,,,,,,5eb3623f751686152660a84b,605b45a4d25f287719a41696,605bf7ff802873fefbbf24fd,Spain,East coast,13 or older,no,2021-03-24_22h41.20.105,empathy_intonation_perc,2020.2.10,Win32,60,,,,,,,,,,1,puertorican,1,1,1.63466,0,34,34,57,1,58,./stim/wavs/andalusian_mismatch_interrogative-total-yn_El-hombre-mira-la-luna.wav,./stim/wavs/argentine_mismatch_interrogative-total-yn_El-hombre-mira-la-luna.wav,./stim/wavs/castilian_mismatch_interrogative-total-yn_El-hombre-mira-la-luna.wav,./stim/wavs/chilean_mismatch_interrogative-total-yn_El-hombre-mira-la-luna.wav,./stim/wavs/cuban_mismatch_interrogative-total-yn_El-hombre-mira-la-luna.wav,./stim/wavs/mexican_mismatch_interrogative-total-yn_El-hombre-mira-la-luna.wav,./stim/wavs/peruvian_mismatch_interrogative-total-yn_El-hombre-mira-la-luna.wav,./stim/wavs/puertorican_mismatch_interrogative-total-yn_El-hombre-mira-la-luna.wav,,,,,,,,,,,,,,,,,,,,,,,,,,,,,,,,,,,,,,,,,,,,,,,,,,,,,,,,
,,,,,,,5eb3623f751686152660a84b,605b45a4d25f287719a41696,605bf7ff802873fefbbf24fd,Spain,East coast,13 or older,no,2021-03-24_22h41.20.105,empathy_intonation_perc,2020.2.10,Win32,60,,,,,,,,,,1,argentine,0,0,1.680875,0,35,35,62,1,63,./stim/wavs/andalusian_mismatch_interrogative-total-yn_Mi-novio-viene-del-lago.wav,./stim/wavs/argentine_mismatch_interrogative-total-yn_Mi-novio-viene-del-lago.wav,./stim/wavs/castilian_mismatch_interrogative-total-yn_Mi-novio-viene-del-lago.wav,./stim/wavs/chilean_mismatch_interrogative-total-yn_Mi-novio-viene-del-lago.wav,./stim/wavs/cuban_mismatch_interrogative-total-yn_Mi-novio-viene-del-lago.wav,./stim/wavs/mexican_mismatch_interrogative-total-yn_Mi-novio-viene-del-lago.wav,./stim/wavs/peruvian_mismatch_interrogative-total-yn_Mi-novio-viene-del-lago.wav,./stim/wavs/puertorican_mismatch_interrogative-total-yn_Mi-novio-viene-del-lago.wav,,,,,,,,,,,,,,,,,,,,,,,,,,,,,,,,,,,,,,,,,,,,,,,,,,,,,,,,
,,,,,,,5eb3623f751686152660a84b,605b45a4d25f287719a41696,605bf7ff802873fefbbf24fd,Spain,East coast,13 or older,no,2021-03-24_22h41.20.105,empathy_intonation_perc,2020.2.10,Win32,60,,,,,,,,,,1,mexican,1,1,1.13838,0,36,36,18,1,19,./stim/wavs/andalusian_match_interrogative-partial-wh_Cuando-lleva-el-abrigo.wav,./stim/wavs/argentine_match_interrogative-partial-wh_Cuando-lleva-el-abrigo.wav,./stim/wavs/castilian_match_interrogative-partial-wh_Cuando-lleva-el-abrigo.wav,./stim/wavs/chilean_match_interrogative-partial-wh_Cuando-lleva-el-abrigo.wav,./stim/wavs/cuban_match_interrogative-partial-wh_Cuando-lleva-el-abrigo.wav,./stim/wavs/mexican_match_interrogative-partial-wh_Cuando-lleva-el-abrigo.wav,./stim/wavs/peruvian_match_interrogative-partial-wh_Cuando-lleva-el-abrigo.wav,./stim/wavs/puertorican_match_interrogative-partial-wh_Cuando-lleva-el-abrigo.wav,,,,,,,,,,,,,,,,,,,,,,,,,,,,,,,,,,,,,,,,,,,,,,,,,,,,,,,,
,,,,,,,5eb3623f751686152660a84b,605b45a4d25f287719a41696,605bf7ff802873fefbbf24fd,Spain,East coast,13 or older,no,2021-03-24_22h41.20.105,empathy_intonation_perc,2020.2.10,Win32,60,,,,,,,,,,1,argentine,1,1,0.72551,0,37,37,17,1,18,./stim/wavs/andalusian_match_interrogative-partial-wh_Cuando-leia-el-libro.wav,./stim/wavs/argentine_match_interrogative-partial-wh_Cuando-leia-el-libro.wav,./stim/wavs/castilian_match_interrogative-partial-wh_Cuando-leia-el-libro.wav,./stim/wavs/chilean_match_interrogative-partial-wh_Cuando-leia-el-libro.wav,./stim/wavs/cuban_match_interrogative-partial-wh_Cuando-leia-el-libro.wav,./stim/wavs/mexican_match_interrogative-partial-wh_Cuando-leia-el-libro.wav,./stim/wavs/peruvian_match_interrogative-partial-wh_Cuando-leia-el-libro.wav,./stim/wavs/puertorican_match_interrogative-partial-wh_Cuando-leia-el-libro.wav,,,,,,,,,,,,,,,,,,,,,,,,,,,,,,,,,,,,,,,,,,,,,,,,,,,,,,,,
,,,,,,,5eb3623f751686152660a84b,605b45a4d25f287719a41696,605bf7ff802873fefbbf24fd,Spain,East coast,13 or older,no,2021-03-24_22h41.20.105,empathy_intonation_perc,2020.2.10,Win32,60,,,,,,,,,,1,andalusian,1,1,1.74056,0,38,38,25,1,26,./stim/wavs/andalusian_match_interrogative-total-yn_Daniel-iba-a-Bolivia.wav,./stim/wavs/argentine_match_interrogative-total-yn_Daniel-iba-a-Bolivia.wav,./stim/wavs/castilian_match_interrogative-total-yn_Daniel-iba-a-Bolivia.wav,./stim/wavs/chilean_match_interrogative-total-yn_Daniel-iba-a-Bolivia.wav,./stim/wavs/cuban_match_interrogative-total-yn_Daniel-iba-a-Bolivia.wav,./stim/wavs/mexican_match_interrogative-total-yn_Daniel-iba-a-Bolivia.wav,./stim/wavs/peruvian_match_interrogative-total-yn_Daniel-iba-a-Bolivia.wav,./stim/wavs/puertorican_match_interrogative-total-yn_Daniel-iba-a-Bolivia.wav,,,,,,,,,,,,,,,,,,,,,,,,,,,,,,,,,,,,,,,,,,,,,,,,,,,,,,,,
,,,,,,,5eb3623f751686152660a84b,605b45a4d25f287719a41696,605bf7ff802873fefbbf24fd,Spain,East coast,13 or older,no,2021-03-24_22h41.20.105,empathy_intonation_perc,2020.2.10,Win32,60,,,,,,,,,,1,peruvian,1,1,2.30775,0,39,39,27,1,28,./stim/wavs/andalusian_match_interrogative-total-yn_Emilio-ama-la-marcha.wav,./stim/wavs/argentine_match_interrogative-total-yn_Emilio-ama-la-marcha.wav,./stim/wavs/castilian_match_interrogative-total-yn_Emilio-ama-la-marcha.wav,./stim/wavs/chilean_match_interrogative-total-yn_Emilio-ama-la-marcha.wav,./stim/wavs/cuban_match_interrogative-total-yn_Emilio-ama-la-marcha.wav,./stim/wavs/mexican_match_interrogative-total-yn_Emilio-ama-la-marcha.wav,./stim/wavs/peruvian_match_interrogative-total-yn_Emilio-ama-la-marcha.wav,./stim/wavs/puertorican_match_interrogative-total-yn_Emilio-ama-la-marcha.wav,,,,,,,,,,,,,,,,,,,,,,,,,,,,,,,,,,,,,,,,,,,,,,,,,,,,,,,,
,,,,,,,5eb3623f751686152660a84b,605b45a4d25f287719a41696,605bf7ff802873fefbbf24fd,Spain,East coast,13 or older,no,2021-03-24_22h41.20.105,empathy_intonation_perc,2020.2.10,Win32,60,,,,,,,,,,1,andalusian,1,1,1.29365,0,40,40,19,1,20,./stim/wavs/andalusian_match_interrogative-partial-wh_Cuando-vendia-el-carro.wav,./stim/wavs/argentine_match_interrogative-partial-wh_Cuando-vendia-el-carro.wav,./stim/wavs/castilian_match_interrogative-partial-wh_Cuando-vendia-el-carro.wav,./stim/wavs/chilean_match_interrogative-partial-wh_Cuando-vendia-el-carro.wav,./stim/wavs/cuban_match_interrogative-partial-wh_Cuando-vendia-el-carro.wav,./stim/wavs/mexican_match_interrogative-partial-wh_Cuando-vendia-el-carro.wav,./stim/wavs/peruvian_match_interrogative-partial-wh_Cuando-vendia-el-carro.wav,./stim/wavs/puertorican_match_interrogative-partial-wh_Cuando-vendia-el-carro.wav,,,,,,,,,,,,,,,,,,,,,,,,,,,,,,,,,,,,,,,,,,,,,,,,,,,,,,,,
,,,,,,,5eb3623f751686152660a84b,605b45a4d25f287719a41696,605bf7ff802873fefbbf24fd,Spain,East coast,13 or older,no,2021-03-24_22h41.20.105,empathy_intonation_perc,2020.2.10,Win32,60,,,,,,,,,,0,castilian,0,1,1.99462,0,41,41,6,1,7,./stim/wavs/andalusian_match_declarative-broad-focus_Mariano-habla-del-tiempo.wav,./stim/wavs/argentine_match_declarative-broad-focus_Mariano-habla-del-tiempo.wav,./stim/wavs/castilian_match_declarative-broad-focus_Mariano-habla-del-tiempo.wav,./stim/wavs/chilean_match_declarative-broad-focus_Mariano-habla-del-tiempo.wav,./stim/wavs/cuban_match_declarative-broad-focus_Mariano-habla-del-tiempo.wav,./stim/wavs/mexican_match_declarative-broad-focus_Mariano-habla-del-tiempo.wav,./stim/wavs/peruvian_match_declarative-broad-focus_Mariano-habla-del-tiempo.wav,./stim/wavs/puertorican_match_declarative-broad-focus_Mariano-habla-del-tiempo.wav,,,,,,,,,,,,,,,,,,,,,,,,,,,,,,,,,,,,,,,,,,,,,,,,,,,,,,,,
,,,,,,,5eb3623f751686152660a84b,605b45a4d25f287719a41696,605bf7ff802873fefbbf24fd,Spain,East coast,13 or older,no,2021-03-24_22h41.20.105,empathy_intonation_perc,2020.2.10,Win32,60,,,,,,,,,,0,puertorican,0,1,1.71471,0,42,42,32,1,33,./stim/wavs/andalusian_mismatch_declarative-broad-focus_El-bebe-comia-muy-bien.wav,./stim/wavs/argentine_mismatch_declarative-broad-focus_El-bebe-comia-muy-bien.wav,./stim/wavs/castilian_mismatch_declarative-broad-focus_El-bebe-comia-muy-bien.wav,./stim/wavs/chilean_mismatch_declarative-broad-focus_El-bebe-comia-muy-bien.wav,./stim/wavs/cuban_mismatch_declarative-broad-focus_El-bebe-comia-muy-bien.wav,./stim/wavs/mexican_mismatch_declarative-broad-focus_El-bebe-comia-muy-bien.wav,./stim/wavs/peruvian_mismatch_declarative-broad-focus_El-bebe-comia-muy-bien.wav,./stim/wavs/puertorican_mismatch_declarative-broad-focus_El-bebe-comia-muy-bien.wav,,,,,,,,,,,,,,,,,,,,,,,,,,,,,,,,,,,,,,,,,,,,,,,,,,,,,,,,
,,,,,,,5eb3623f751686152660a84b,605b45a4d25f287719a41696,605bf7ff802873fefbbf24fd,Spain,East coast,13 or older,no,2021-03-24_22h41.20.105,empathy_intonation_perc,2020.2.10,Win32,60,,,,,,,,,,0,peruvian,0,1,1.82027,0,43,43,45,1,46,./stim/wavs/andalusian_mismatch_declarative-narrow-focus_Mi-madre-come-la-fruta.wav,./stim/wavs/argentine_mismatch_declarative-narrow-focus_Mi-madre-come-la-fruta.wav,./stim/wavs/castilian_mismatch_declarative-narrow-focus_Mi-madre-come-la-fruta.wav,./stim/wavs/chilean_mismatch_declarative-narrow-focus_Mi-madre-come-la-fruta.wav,./stim/wavs/cuban_mismatch_declarative-narrow-focus_Mi-madre-come-la-fruta.wav,./stim/wavs/mexican_mismatch_declarative-narrow-focus_Mi-madre-come-la-fruta.wav,./stim/wavs/peruvian_mismatch_declarative-narrow-focus_Mi-madre-come-la-fruta.wav,./stim/wavs/puertorican_mismatch_declarative-narrow-focus_Mi-madre-come-la-fruta.wav,,,,,,,,,,,,,,,,,,,,,,,,,,,,,,,,,,,,,,,,,,,,,,,,,,,,,,,,
,,,,,,,5eb3623f751686152660a84b,605b45a4d25f287719a41696,605bf7ff802873fefbbf24fd,Spain,East coast,13 or older,no,2021-03-24_22h41.20.105,empathy_intonation_perc,2020.2.10,Win32,60,,,,,,,,,,1,peruvian,0,0,1.65715,0,44,44,60,1,61,./stim/wavs/andalusian_mismatch_interrogative-total-yn_La-nina-lava-el-plato.wav,./stim/wavs/argentine_mismatch_interrogative-total-yn_La-nina-lava-el-plato.wav,./stim/wavs/castilian_mismatch_interrogative-total-yn_La-nina-lava-el-plato.wav,./stim/wavs/chilean_mismatch_interrogative-total-yn_La-nina-lava-el-plato.wav,./stim/wavs/cuban_mismatch_interrogative-total-yn_La-nina-lava-el-plato.wav,./stim/wavs/mexican_mismatch_interrogative-total-yn_La-nina-lava-el-plato.wav,./stim/wavs/peruvian_mismatch_interrogative-total-yn_La-nina-lava-el-plato.wav,./stim/wavs/puertorican_mismatch_interrogative-total-yn_La-nina-lava-el-plato.wav,,,,,,,,,,,,,,,,,,,,,,,,,,,,,,,,,,,,,,,,,,,,,,,,,,,,,,,,
,,,,,,,5eb3623f751686152660a84b,605b45a4d25f287719a41696,605bf7ff802873fefbbf24fd,Spain,East coast,13 or older,no,2021-03-24_22h41.20.105,empathy_intonation_perc,2020.2.10,Win32,60,,,,,,,,,,0,peruvian,0,1,2.352305,0,45,45,46,1,47,./stim/wavs/andalusian_mismatch_declarative-narrow-focus_Mi-novio-viene-del-lago.wav,./stim/wavs/argentine_mismatch_declarative-narrow-focus_Mi-novio-viene-del-lago.wav,./stim/wavs/castilian_mismatch_declarative-narrow-focus_Mi-novio-viene-del-lago.wav,./stim/wavs/chilean_mismatch_declarative-narrow-focus_Mi-novio-viene-del-lago.wav,./stim/wavs/cuban_mismatch_declarative-narrow-focus_Mi-novio-viene-del-lago.wav,./stim/wavs/mexican_mismatch_declarative-narrow-focus_Mi-novio-viene-del-lago.wav,./stim/wavs/peruvian_mismatch_declarative-narrow-focus_Mi-novio-viene-del-lago.wav,./stim/wavs/puertorican_mismatch_declarative-narrow-focus_Mi-novio-viene-del-lago.wav,,,,,,,,,,,,,,,,,,,,,,,,,,,,,,,,,,,,,,,,,,,,,,,,,,,,,,,,
,,,,,,,5eb3623f751686152660a84b,605b45a4d25f287719a41696,605bf7ff802873fefbbf24fd,Spain,East coast,13 or older,no,2021-03-24_22h41.20.105,empathy_intonation_perc,2020.2.10,Win32,60,,,,,,,,,,1,chilean,1,1,1.181405,0,46,46,48,1,49,./stim/wavs/andalusian_mismatch_interrogative-partial-wh_Cuando-comia-la-fruta.wav,./stim/wavs/argentine_mismatch_interrogative-partial-wh_Cuando-comia-la-fruta.wav,./stim/wavs/castilian_mismatch_interrogative-partial-wh_Cuando-comia-la-fruta.wav,./stim/wavs/chilean_mismatch_interrogative-partial-wh_Cuando-comia-la-fruta.wav,./stim/wavs/cuban_mismatch_interrogative-partial-wh_Cuando-comia-la-fruta.wav,./stim/wavs/mexican_mismatch_interrogative-partial-wh_Cuando-comia-la-fruta.wav,./stim/wavs/peruvian_mismatch_interrogative-partial-wh_Cuando-comia-la-fruta.wav,./stim/wavs/puertorican_mismatch_interrogative-partial-wh_Cuando-comia-la-fruta.wav,,,,,,,,,,,,,,,,,,,,,,,,,,,,,,,,,,,,,,,,,,,,,,,,,,,,,,,,
,,,,,,,5eb3623f751686152660a84b,605b45a4d25f287719a41696,605bf7ff802873fefbbf24fd,Spain,East coast,13 or older,no,2021-03-24_22h41.20.105,empathy_intonation_perc,2020.2.10,Win32,60,,,,,,,,,,0,andalusian,0,1,2.267755,0,47,47,35,1,36,./stim/wavs/andalusian_mismatch_declarative-broad-focus_La-maestra-vive-en-Paris.wav,./stim/wavs/argentine_mismatch_declarative-broad-focus_La-maestra-vive-en-Paris.wav,./stim/wavs/castilian_mismatch_declarative-broad-focus_La-maestra-vive-en-Paris.wav,./stim/wavs/chilean_mismatch_declarative-broad-focus_La-maestra-vive-en-Paris.wav,./stim/wavs/cuban_mismatch_declarative-broad-focus_La-maestra-vive-en-Paris.wav,./stim/wavs/mexican_mismatch_declarative-broad-focus_La-maestra-vive-en-Paris.wav,./stim/wavs/peruvian_mismatch_declarative-broad-focus_La-maestra-vive-en-Paris.wav,./stim/wavs/puertorican_mismatch_declarative-broad-focus_La-maestra-vive-en-Paris.wav,,,,,,,,,,,,,,,,,,,,,,,,,,,,,,,,,,,,,,,,,,,,,,,,,,,,,,,,
,,,,,,,5eb3623f751686152660a84b,605b45a4d25f287719a41696,605bf7ff802873fefbbf24fd,Spain,East coast,13 or older,no,2021-03-24_22h41.20.105,empathy_intonation_perc,2020.2.10,Win32,60,,,,,,,,,,0,mexican,0,1,2.11848,0,48,48,1,1,2,./stim/wavs/andalusian_match_declarative-broad-focus_Daniel-iba-a-Bolivia.wav,./stim/wavs/argentine_match_declarative-broad-focus_Daniel-iba-a-Bolivia.wav,./stim/wavs/castilian_match_declarative-broad-focus_Daniel-iba-a-Bolivia.wav,./stim/wavs/chilean_match_declarative-broad-focus_Daniel-iba-a-Bolivia.wav,./stim/wavs/cuban_match_declarative-broad-focus_Daniel-iba-a-Bolivia.wav,./stim/wavs/mexican_match_declarative-broad-focus_Daniel-iba-a-Bolivia.wav,./stim/wavs/peruvian_match_declarative-broad-focus_Daniel-iba-a-Bolivia.wav,./stim/wavs/puertorican_match_declarative-broad-focus_Daniel-iba-a-Bolivia.wav,,,,,,,,,,,,,,,,,,,,,,,,,,,,,,,,,,,,,,,,,,,,,,,,,,,,,,,,
,,,,,,,5eb3623f751686152660a84b,605b45a4d25f287719a41696,605bf7ff802873fefbbf24fd,Spain,East coast,13 or older,no,2021-03-24_22h41.20.105,empathy_intonation_perc,2020.2.10,Win32,60,,,,,,,,,,1,castilian,1,1,1.733455,0,49,49,50,1,51,./stim/wavs/andalusian_mismatch_interrogative-partial-wh_Cuando-miraba-la-luna.wav,./stim/wavs/argentine_mismatch_interrogative-partial-wh_Cuando-miraba-la-luna.wav,./stim/wavs/castilian_mismatch_interrogative-partial-wh_Cuando-miraba-la-luna.wav,./stim/wavs/chilean_mismatch_interrogative-partial-wh_Cuando-miraba-la-luna.wav,./stim/wavs/cuban_mismatch_interrogative-partial-wh_Cuando-miraba-la-luna.wav,./stim/wavs/mexican_mismatch_interrogative-partial-wh_Cuando-miraba-la-luna.wav,./stim/wavs/peruvian_mismatch_interrogative-partial-wh_Cuando-miraba-la-luna.wav,./stim/wavs/puertorican_mismatch_interrogative-partial-wh_Cuando-miraba-la-luna.wav,,,,,,,,,,,,,,,,,,,,,,,,,,,,,,,,,,,,,,,,,,,,,,,,,,,,,,,,
,,,,,,,5eb3623f751686152660a84b,605b45a4d25f287719a41696,605bf7ff802873fefbbf24fd,Spain,East coast,13 or older,no,2021-03-24_22h41.20.105,empathy_intonation_perc,2020.2.10,Win32,60,,,,,,,,,,0,andalusian,0,1,2.002735,0,50,50,38,1,39,./stim/wavs/andalusian_mismatch_declarative-broad-focus_Mi-novio-viene-del-lago.wav,./stim/wavs/argentine_mismatch_declarative-broad-focus_Mi-novio-viene-del-lago.wav,./stim/wavs/castilian_mismatch_declarative-broad-focus_Mi-novio-viene-del-lago.wav,./stim/wavs/chilean_mismatch_declarative-broad-focus_Mi-novio-viene-del-lago.wav,./stim/wavs/cuban_mismatch_declarative-broad-focus_Mi-novio-viene-del-lago.wav,./stim/wavs/mexican_mismatch_declarative-broad-focus_Mi-novio-viene-del-lago.wav,./stim/wavs/peruvian_mismatch_declarative-broad-focus_Mi-novio-viene-del-lago.wav,./stim/wavs/puertorican_mismatch_declarative-broad-focus_Mi-novio-viene-del-lago.wav,,,,,,,,,,,,,,,,,,,,,,,,,,,,,,,,,,,,,,,,,,,,,,,,,,,,,,,,
,,,,,,,5eb3623f751686152660a84b,605b45a4d25f287719a41696,605bf7ff802873fefbbf24fd,Spain,East coast,13 or older,no,2021-03-24_22h41.20.105,empathy_intonation_perc,2020.2.10,Win32,60,,,,,,,,,,0,chilean,0,1,1.99414,0,51,51,3,1,4,./stim/wavs/andalusian_match_declarative-broad-focus_Emilio-ama-la-marcha.wav,./stim/wavs/argentine_match_declarative-broad-focus_Emilio-ama-la-marcha.wav,./stim/wavs/castilian_match_declarative-broad-focus_Emilio-ama-la-marcha.wav,./stim/wavs/chilean_match_declarative-broad-focus_Emilio-ama-la-marcha.wav,./stim/wavs/cuban_match_declarative-broad-focus_Emilio-ama-la-marcha.wav,./stim/wavs/mexican_match_declarative-broad-focus_Emilio-ama-la-marcha.wav,./stim/wavs/peruvian_match_declarative-broad-focus_Emilio-ama-la-marcha.wav,./stim/wavs/puertorican_match_declarative-broad-focus_Emilio-ama-la-marcha.wav,,,,,,,,,,,,,,,,,,,,,,,,,,,,,,,,,,,,,,,,,,,,,,,,,,,,,,,,
,,,,,,,5eb3623f751686152660a84b,605b45a4d25f287719a41696,605bf7ff802873fefbbf24fd,Spain,East coast,13 or older,no,2021-03-24_22h41.20.105,empathy_intonation_perc,2020.2.10,Win32,60,,,,,,,,,,0,andalusian,0,1,1.78558,0,52,52,37,1,38,./stim/wavs/andalusian_mismatch_declarative-broad-focus_Mi-madre-come-la-fruta.wav,./stim/wavs/argentine_mismatch_declarative-broad-focus_Mi-madre-come-la-fruta.wav,./stim/wavs/castilian_mismatch_declarative-broad-focus_Mi-madre-come-la-fruta.wav,./stim/wavs/chilean_mismatch_declarative-broad-focus_Mi-madre-come-la-fruta.wav,./stim/wavs/cuban_mismatch_declarative-broad-focus_Mi-madre-come-la-fruta.wav,./stim/wavs/mexican_mismatch_declarative-broad-focus_Mi-madre-come-la-fruta.wav,./stim/wavs/peruvian_mismatch_declarative-broad-focus_Mi-madre-come-la-fruta.wav,./stim/wavs/puertorican_mismatch_declarative-broad-focus_Mi-madre-come-la-fruta.wav,,,,,,,,,,,,,,,,,,,,,,,,,,,,,,,,,,,,,,,,,,,,,,,,,,,,,,,,
,,,,,,,5eb3623f751686152660a84b,605b45a4d25f287719a41696,605bf7ff802873fefbbf24fd,Spain,East coast,13 or older,no,2021-03-24_22h41.20.105,empathy_intonation_perc,2020.2.10,Win32,60,,,,,,,,,,0,argentine,0,1,1.79254,0,53,53,40,1,41,./stim/wavs/andalusian_mismatch_declarative-narrow-focus_El-bebe-comia-muy-bien.wav,./stim/wavs/argentine_mismatch_declarative-narrow-focus_El-bebe-comia-muy-bien.wav,./stim/wavs/castilian_mismatch_declarative-narrow-focus_El-bebe-comia-muy-bien.wav,./stim/wavs/chilean_mismatch_declarative-narrow-focus_El-bebe-comia-muy-bien.wav,./stim/wavs/cuban_mismatch_declarative-narrow-focus_El-bebe-comia-muy-bien.wav,./stim/wavs/mexican_mismatch_declarative-narrow-focus_El-bebe-comia-muy-bien.wav,./stim/wavs/peruvian_mismatch_declarative-narrow-focus_El-bebe-comia-muy-bien.wav,./stim/wavs/puertorican_mismatch_declarative-narrow-focus_El-bebe-comia-muy-bien.wav,,,,,,,,,,,,,,,,,,,,,,,,,,,,,,,,,,,,,,,,,,,,,,,,,,,,,,,,
,,,,,,,5eb3623f751686152660a84b,605b45a4d25f287719a41696,605bf7ff802873fefbbf24fd,Spain,East coast,13 or older,no,2021-03-24_22h41.20.105,empathy_intonation_perc,2020.2.10,Win32,60,,,,,,,,,,0,mexican,0,1,2.06728,0,54,54,12,1,13,./stim/wavs/andalusian_match_declarative-narrow-focus_Manuela-vende-el-carro.wav,./stim/wavs/argentine_match_declarative-narrow-focus_Manuela-vende-el-carro.wav,./stim/wavs/castilian_match_declarative-narrow-focus_Manuela-vende-el-carro.wav,./stim/wavs/chilean_match_declarative-narrow-focus_Manuela-vende-el-carro.wav,./stim/wavs/cuban_match_declarative-narrow-focus_Manuela-vende-el-carro.wav,./stim/wavs/mexican_match_declarative-narrow-focus_Manuela-vende-el-carro.wav,./stim/wavs/peruvian_match_declarative-narrow-focus_Manuela-vende-el-carro.wav,./stim/wavs/puertorican_match_declarative-narrow-focus_Manuela-vende-el-carro.wav,,,,,,,,,,,,,,,,,,,,,,,,,,,,,,,,,,,,,,,,,,,,,,,,,,,,,,,,
,,,,,,,5eb3623f751686152660a84b,605b45a4d25f287719a41696,605bf7ff802873fefbbf24fd,Spain,East coast,13 or older,no,2021-03-24_22h41.20.105,empathy_intonation_perc,2020.2.10,Win32,60,,,,,,,,,,1,peruvian,1,1,2.18154,0,55,55,59,1,60,./stim/wavs/andalusian_mismatch_interrogative-total-yn_La-maestra-vive-en-Paris.wav,./stim/wavs/argentine_mismatch_interrogative-total-yn_La-maestra-vive-en-Paris.wav,./stim/wavs/castilian_mismatch_interrogative-total-yn_La-maestra-vive-en-Paris.wav,./stim/wavs/chilean_mismatch_interrogative-total-yn_La-maestra-vive-en-Paris.wav,./stim/wavs/cuban_mismatch_interrogative-total-yn_La-maestra-vive-en-Paris.wav,./stim/wavs/mexican_mismatch_interrogative-total-yn_La-maestra-vive-en-Paris.wav,./stim/wavs/peruvian_mismatch_interrogative-total-yn_La-maestra-vive-en-Paris.wav,./stim/wavs/puertorican_mismatch_interrogative-total-yn_La-maestra-vive-en-Paris.wav,,,,,,,,,,,,,,,,,,,,,,,,,,,,,,,,,,,,,,,,,,,,,,,,,,,,,,,,
,,,,,,,5eb3623f751686152660a84b,605b45a4d25f287719a41696,605bf7ff802873fefbbf24fd,Spain,East coast,13 or older,no,2021-03-24_22h41.20.105,empathy_intonation_perc,2020.2.10,Win32,60,,,,,,,,,,0,chilean,0,1,2.363675,0,56,56,7,1,8,./stim/wavs/andalusian_match_declarative-broad-focus_Marta-abre-el-regalo.wav,./stim/wavs/argentine_match_declarative-broad-focus_Marta-abre-el-regalo.wav,./stim/wavs/castilian_match_declarative-broad-focus_Marta-abre-el-regalo.wav,./stim/wavs/chilean_match_declarative-broad-focus_Marta-abre-el-regalo.wav,./stim/wavs/cuban_match_declarative-broad-focus_Marta-abre-el-regalo.wav,./stim/wavs/mexican_match_declarative-broad-focus_Marta-abre-el-regalo.wav,./stim/wavs/peruvian_match_declarative-broad-focus_Marta-abre-el-regalo.wav,./stim/wavs/puertorican_match_declarative-broad-focus_Marta-abre-el-regalo.wav,,,,,,,,,,,,,,,,,,,,,,,,,,,,,,,,,,,,,,,,,,,,,,,,,,,,,,,,
,,,,,,,5eb3623f751686152660a84b,605b45a4d25f287719a41696,605bf7ff802873fefbbf24fd,Spain,East coast,13 or older,no,2021-03-24_22h41.20.105,empathy_intonation_perc,2020.2.10,Win32,60,,,,,,,,,,1,puertorican,1,1,1.81815,0,57,57,23,1,24,./stim/wavs/andalusian_match_interrogative-partial-wh_Por-que-iba-a-Bolivia.wav,./stim/wavs/argentine_match_interrogative-partial-wh_Por-que-iba-a-Bolivia.wav,./stim/wavs/castilian_match_interrogative-partial-wh_Por-que-iba-a-Bolivia.wav,./stim/wavs/chilean_match_interrogative-partial-wh_Por-que-iba-a-Bolivia.wav,./stim/wavs/cuban_match_interrogative-partial-wh_Por-que-iba-a-Bolivia.wav,./stim/wavs/mexican_match_interrogative-partial-wh_Por-que-iba-a-Bolivia.wav,./stim/wavs/peruvian_match_interrogative-partial-wh_Por-que-iba-a-Bolivia.wav,./stim/wavs/puertorican_match_interrogative-partial-wh_Por-que-iba-a-Bolivia.wav,,,,,,,,,,,,,,,,,,,,,,,,,,,,,,,,,,,,,,,,,,,,,,,,,,,,,,,,
,,,,,,,5eb3623f751686152660a84b,605b45a4d25f287719a41696,605bf7ff802873fefbbf24fd,Spain,East coast,13 or older,no,2021-03-24_22h41.20.105,empathy_intonation_perc,2020.2.10,Win32,60,,,,,,,,,,0,cuban,0,1,1.92597,0,58,58,44,1,45,./stim/wavs/andalusian_mismatch_declarative-narrow-focus_La-nina-lava-el-plato.wav,./stim/wavs/argentine_mismatch_declarative-narrow-focus_La-nina-lava-el-plato.wav,./stim/wavs/castilian_mismatch_declarative-narrow-focus_La-nina-lava-el-plato.wav,./stim/wavs/chilean_mismatch_declarative-narrow-focus_La-nina-lava-el-plato.wav,./stim/wavs/cuban_mismatch_declarative-narrow-focus_La-nina-lava-el-plato.wav,./stim/wavs/mexican_mismatch_declarative-narrow-focus_La-nina-lava-el-plato.wav,./stim/wavs/peruvian_mismatch_declarative-narrow-focus_La-nina-lava-el-plato.wav,./stim/wavs/puertorican_mismatch_declarative-narrow-focus_La-nina-lava-el-plato.wav,,,,,,,,,,,,,,,,,,,,,,,,,,,,,,,,,,,,,,,,,,,,,,,,,,,,,,,,
,,,,,,,5eb3623f751686152660a84b,605b45a4d25f287719a41696,605bf7ff802873fefbbf24fd,Spain,East coast,13 or older,no,2021-03-24_22h41.20.105,empathy_intonation_perc,2020.2.10,Win32,60,,,,,,,,,,1,peruvian,1,1,2.052895,0,59,59,24,1,25,./stim/wavs/andalusian_match_interrogative-total-yn_Ana-lleva-el-abrigo.wav,./stim/wavs/argentine_match_interrogative-total-yn_Ana-lleva-el-abrigo.wav,./stim/wavs/castilian_match_interrogative-total-yn_Ana-lleva-el-abrigo.wav,./stim/wavs/chilean_match_interrogative-total-yn_Ana-lleva-el-abrigo.wav,./stim/wavs/cuban_match_interrogative-total-yn_Ana-lleva-el-abrigo.wav,./stim/wavs/mexican_match_interrogative-total-yn_Ana-lleva-el-abrigo.wav,./stim/wavs/peruvian_match_interrogative-total-yn_Ana-lleva-el-abrigo.wav,./stim/wavs/puertorican_match_interrogative-total-yn_Ana-lleva-el-abrigo.wav,,,,,,,,,,,,,,,,,,,,,,,,,,,,,,,,,,,,,,,,,,,,,,,,,,,,,,,,
,,,,,,,5eb3623f751686152660a84b,605b45a4d25f287719a41696,605bf7ff802873fefbbf24fd,Spain,East coast,13 or older,no,2021-03-24_22h41.20.105,empathy_intonation_perc,2020.2.10,Win32,60,,,,,,,,,,1,andalusian,0,0,2.35009,0,60,60,20,1,21,./stim/wavs/andalusian_match_interrogative-partial-wh_Por-que-abre-el-regalo.wav,./stim/wavs/argentine_match_interrogative-partial-wh_Por-que-abre-el-regalo.wav,./stim/wavs/castilian_match_interrogative-partial-wh_Por-que-abre-el-regalo.wav,./stim/wavs/chilean_match_interrogative-partial-wh_Por-que-abre-el-regalo.wav,./stim/wavs/cuban_match_interrogative-partial-wh_Por-que-abre-el-regalo.wav,./stim/wavs/mexican_match_interrogative-partial-wh_Por-que-abre-el-regalo.wav,./stim/wavs/peruvian_match_interrogative-partial-wh_Por-que-abre-el-regalo.wav,./stim/wavs/puertorican_match_interrogative-partial-wh_Por-que-abre-el-regalo.wav,,,,,,,,,,,,,,,,,,,,,,,,,,,,,,,,,,,,,,,,,,,,,,,,,,,,,,,,
,,,,,,,5eb3623f751686152660a84b,605b45a4d25f287719a41696,605bf7ff802873fefbbf24fd,Spain,East coast,13 or older,no,2021-03-24_22h41.20.105,empathy_intonation_perc,2020.2.10,Win32,60,,,,,,,,,,0,cuban,0,1,2.638055,0,61,61,47,1,48,./stim/wavs/andalusian_mismatch_declarative-narrow-focus_Mi-tia-odia-la-lluvia.wav,./stim/wavs/argentine_mismatch_declarative-narrow-focus_Mi-tia-odia-la-lluvia.wav,./stim/wavs/castilian_mismatch_declarative-narrow-focus_Mi-tia-odia-la-lluvia.wav,./stim/wavs/chilean_mismatch_declarative-narrow-focus_Mi-tia-odia-la-lluvia.wav,./stim/wavs/cuban_mismatch_declarative-narrow-focus_Mi-tia-odia-la-lluvia.wav,./stim/wavs/mexican_mismatch_declarative-narrow-focus_Mi-tia-odia-la-lluvia.wav,./stim/wavs/peruvian_mismatch_declarative-narrow-focus_Mi-tia-odia-la-lluvia.wav,./stim/wavs/puertorican_mismatch_declarative-narrow-focus_Mi-tia-odia-la-lluvia.wav,,,,,,,,,,,,,,,,,,,,,,,,,,,,,,,,,,,,,,,,,,,,,,,,,,,,,,,,
,,,,,,,5eb3623f751686152660a84b,605b45a4d25f287719a41696,605bf7ff802873fefbbf24fd,Spain,East coast,13 or older,no,2021-03-24_22h41.20.105,empathy_intonation_perc,2020.2.10,Win32,60,,,,,,,,,,0,cuban,0,1,2.11693,0,62,62,42,1,43,./stim/wavs/andalusian_mismatch_declarative-narrow-focus_El-nino-oye-el-rio.wav,./stim/wavs/argentine_mismatch_declarative-narrow-focus_El-nino-oye-el-rio.wav,./stim/wavs/castilian_mismatch_declarative-narrow-focus_El-nino-oye-el-rio.wav,./stim/wavs/chilean_mismatch_declarative-narrow-focus_El-nino-oye-el-rio.wav,./stim/wavs/cuban_mismatch_declarative-narrow-focus_El-nino-oye-el-rio.wav,./stim/wavs/mexican_mismatch_declarative-narrow-focus_El-nino-oye-el-rio.wav,./stim/wavs/peruvian_mismatch_declarative-narrow-focus_El-nino-oye-el-rio.wav,./stim/wavs/puertorican_mismatch_declarative-narrow-focus_El-nino-oye-el-rio.wav,,,,,,,,,,,,,,,,,,,,,,,,,,,,,,,,,,,,,,,,,,,,,,,,,,,,,,,,
,,,,,,,5eb3623f751686152660a84b,605b45a4d25f287719a41696,605bf7ff802873fefbbf24fd,Spain,East coast,13 or older,no,2021-03-24_22h41.20.105,empathy_intonation_perc,2020.2.10,Win32,60,,,,,,,,,,1,chilean,1,1,1.800675,0,63,63,31,1,32,./stim/wavs/andalusian_match_interrogative-total-yn_Marta-abre-el-regalo.wav,./stim/wavs/argentine_match_interrogative-total-yn_Marta-abre-el-regalo.wav,./stim/wavs/castilian_match_interrogative-total-yn_Marta-abre-el-regalo.wav,./stim/wavs/chilean_match_interrogative-total-yn_Marta-abre-el-regalo.wav,./stim/wavs/cuban_match_interrogative-total-yn_Marta-abre-el-regalo.wav,./stim/wavs/mexican_match_interrogative-total-yn_Marta-abre-el-regalo.wav,./stim/wavs/peruvian_match_interrogative-total-yn_Marta-abre-el-regalo.wav,./stim/wavs/puertorican_match_interrogative-total-yn_Marta-abre-el-regalo.wav,,,,,,,,,,,,,,,,,,,,,,,,,,,,,,,,,,,,,,,,,,,,,,,,,,,,,,,,
,,,,,,,5eb3623f751686152660a84b,605b45a4d25f287719a41696,605bf7ff802873fefbbf24fd,Spain,East coast,13 or older,no,2021-03-24_22h41.20.105,empathy_intonation_perc,2020.2.10,Win32,60,,,,,,,,,,,,,,,,,,,,,,,,,,,,,h,1,6.988875,0,0,0,0,1,,,,,,,,,,,,,,,,,,,,,,,,,,,,,,,,,,,,,,,,,,,,,,,,
,,,,,"Great! Now we will move on. The next task consists of about 60 trials, in each of which you will see a string of letters. 
  
  Your task is to decide whether this is a real Spanish word or not.",(press the spacebar to continue),5eb3623f751686152660a84b,605b45a4d25f287719a41696,605bf7ff802873fefbbf24fd,Spain,East coast,13 or older,no,2021-03-24_22h41.20.105,empathy_intonation_perc,2020.2.10,Win32,60,,,,,,,,,,,,,,,,,,,,,,,,,,,,,,,,,,,,,0,0,0,0,1,,,,,,,,,,,,,,,,,,,,,,,,,,,,,,,,,,,,,,,,,,,
,,,,,"If you think it is an existing Spanish word, you type '1' (for 'REAL'), and if you think it is not an existing Spanish word, you type '0' (for 'FAKE').",(press the spacebar to continue),5eb3623f751686152660a84b,605b45a4d25f287719a41696,605bf7ff802873fefbbf24fd,Spain,East coast,13 or older,no,2021-03-24_22h41.20.105,empathy_intonation_perc,2020.2.10,Win32,60,,,,,,,,,,,,,,,,,,,,,,,,,,,,,,,,,,,,,0,1,1,1,1,,,,,,,,,,,,,,,,,,,,,,,,,,,,,,,,,,,,,,,,,,,
,,,,,"If you are sure that the word exists, even though you dont know its exact meaning, you may still respond '1' (REAL). 
  
  But if you are not sure if it is an existing word, you should respond '0' (FAKE).
  
  Let's do a practice round...",(press the spacebar to continue),5eb3623f751686152660a84b,605b45a4d25f287719a41696,605bf7ff802873fefbbf24fd,Spain,East coast,13 or older,no,2021-03-24_22h41.20.105,empathy_intonation_perc,2020.2.10,Win32,60,,,,,,,,,,,,,,,,,,,,,,,,,,,,,,,,,,,,,0,2,2,2,1,,,,,,,,,,,,,,,,,,,,,,,,,,,,,,,,,,,,,,,,,,,
,,,,,,,5eb3623f751686152660a84b,605b45a4d25f287719a41696,605bf7ff802873fefbbf24fd,Spain,East coast,13 or older,no,2021-03-24_22h41.20.105,empathy_intonation_perc,2020.2.10,Win32,60,,,,,,,,,,0,,,,,,,,,,,,,,,,,,,,,,,,,,,,,,,,0,1,2.49913,0,0,0,0,1,0,depiste,REAL,FAKE,,,,,,,,,,,,,,,,,,,,,,,,,,,,,,,
,,,,,,,5eb3623f751686152660a84b,605b45a4d25f287719a41696,605bf7ff802873fefbbf24fd,Spain,East coast,13 or older,no,2021-03-24_22h41.20.105,empathy_intonation_perc,2020.2.10,Win32,60,,,,,,,,,,1,,,,,,,,,,,,,,,,,,,,,,,,,,,,,,,,1,1,0.9063,0,1,1,1,1,0,s,REAL,FAKE,,,,,,,,,,,,,,,,,,,,,,,,,,,,,,,
,,,,,,,5eb3623f751686152660a84b,605b45a4d25f287719a41696,605bf7ff802873fefbbf24fd,Spain,East coast,13 or older,no,2021-03-24_22h41.20.105,empathy_intonation_perc,2020.2.10,Win32,60,,,,,,,,,,0,,,,,,,,,,,,,,,,,,,,,,,,,,,,,,,,1,0,0.848745,0,2,2,2,1,0,con,REAL,FAKE,,,,,,,,,,,,,,,,,,,,,,,,,,,,,,,
,,,,,,,5eb3623f751686152660a84b,605b45a4d25f287719a41696,605bf7ff802873fefbbf24fd,Spain,East coast,13 or older,no,2021-03-24_22h41.20.105,empathy_intonation_perc,2020.2.10,Win32,60,,,,,,,,,,0,,,,,,,,,,,,,,,,,,,,,,,,,,,,,,,,0,1,1.6863,0,3,3,3,1,0,calpar,REAL,FAKE,,,,,,,,,,,,,,,,,,,,,,,,,,,,,,,
,,,,,,,5eb3623f751686152660a84b,605b45a4d25f287719a41696,605bf7ff802873fefbbf24fd,Spain,East coast,13 or older,no,2021-03-24_22h41.20.105,empathy_intonation_perc,2020.2.10,Win32,60,,,,,,,,,,0,,,,,,,,,,,,,,,,,,,,,,,,,,,,,,,,0,1,1.650965,0,4,4,4,1,0,joten,REAL,FAKE,,,,,,,,,,,,,,,,,,,,,,,,,,,,,,,
,,,,,,,5eb3623f751686152660a84b,605b45a4d25f287719a41696,605bf7ff802873fefbbf24fd,Spain,East coast,13 or older,no,2021-03-24_22h41.20.105,empathy_intonation_perc,2020.2.10,Win32,60,,,,,,,,,,1,,,,,,,,,,,,,,,,,,,,,,,,,,,,,,,,1,1,1.88736,0,5,5,5,1,0,sacapuntas,REAL,FAKE,,,,,,,,,,,,,,,,,,,,,,,,,,,,,,,
,,,,,,,5eb3623f751686152660a84b,605b45a4d25f287719a41696,605bf7ff802873fefbbf24fd,Spain,East coast,13 or older,no,2021-03-24_22h41.20.105,empathy_intonation_perc,2020.2.10,Win32,60,,,,,,,,,,0,,,,,,,,,,,,,,,,,,,,,,,,,,,,,,,,1,0,3.624165,0,6,6,6,1,0,priba,REAL,FAKE,,,,,,,,,,,,,,,,,,,,,,,,,,,,,,,
,,,,,,,5eb3623f751686152660a84b,605b45a4d25f287719a41696,605bf7ff802873fefbbf24fd,Spain,East coast,13 or older,no,2021-03-24_22h41.20.105,empathy_intonation_perc,2020.2.10,Win32,60,,,,,,,,,,0,,,,,,,,,,,,,,,,,,,,,,,,,,,,,,,,0,1,2.91511,0,7,7,7,1,0,pelasula,REAL,FAKE,,,,,,,,,,,,,,,,,,,,,,,,,,,,,,,
,,,,,,,5eb3623f751686152660a84b,605b45a4d25f287719a41696,605bf7ff802873fefbbf24fd,Spain,East coast,13 or older,no,2021-03-24_22h41.20.105,empathy_intonation_perc,2020.2.10,Win32,60,,,,,,,,,,1,,,,,,,,,,,,,,,,,,,,,,,,,,,,,,,,1,1,0.711335,0,8,8,8,1,0,bien,REAL,FAKE,,,,,,,,,,,,,,,,,,,,,,,,,,,,,,,
,,,,,,,5eb3623f751686152660a84b,605b45a4d25f287719a41696,605bf7ff802873fefbbf24fd,Spain,East coast,13 or older,no,2021-03-24_22h41.20.105,empathy_intonation_perc,2020.2.10,Win32,60,,,,,,,,,,1,,,,,,,,,,,,,,,,,,,,,,,,,,,,,,,,1,1,0.75889,0,9,9,9,1,0,casa,REAL,FAKE,,,,,,,,,,,,,,,,,,,,,,,,,,,,,,,
,,,,,,,5eb3623f751686152660a84b,605b45a4d25f287719a41696,605bf7ff802873fefbbf24fd,Spain,East coast,13 or older,no,2021-03-24_22h41.20.105,empathy_intonation_perc,2020.2.10,Win32,60,,,,,,,,,,0,,,,,,,,,,,,,,,,,,,,,,,,,,,,,,,,1,0,0.767045,0,10,10,10,1,0,lejo,REAL,FAKE,,,,,,,,,,,,,,,,,,,,,,,,,,,,,,,
,,,,,,,5eb3623f751686152660a84b,605b45a4d25f287719a41696,605bf7ff802873fefbbf24fd,Spain,East coast,13 or older,no,2021-03-24_22h41.20.105,empathy_intonation_perc,2020.2.10,Win32,60,,,,,,,,,,0,,,,,,,,,,,,,,,,,,,,,,,,,,,,,,,,0,1,3.43135,0,11,11,11,1,0,pretantas,REAL,FAKE,,,,,,,,,,,,,,,,,,,,,,,,,,,,,,,
,,,,,,,5eb3623f751686152660a84b,605b45a4d25f287719a41696,605bf7ff802873fefbbf24fd,Spain,East coast,13 or older,no,2021-03-24_22h41.20.105,empathy_intonation_perc,2020.2.10,Win32,60,,,,,,,,,,0,,,,,,,,,,,,,,,,,,,,,,,,,,,,,,,,,,,,,,,,79,tropaje,,,0,1,2.25126,0,0,0,78,1,REAL,FAKE,,,,,,,,,,,,,,,,,,,,,
,,,,,,,5eb3623f751686152660a84b,605b45a4d25f287719a41696,605bf7ff802873fefbbf24fd,Spain,East coast,13 or older,no,2021-03-24_22h41.20.105,empathy_intonation_perc,2020.2.10,Win32,60,,,,,,,,,,1,,,,,,,,,,,,,,,,,,,,,,,,,,,,,,,,,,,,,,,,36,loro,,,0,0,1.899625,0,1,1,35,1,REAL,FAKE,,,,,,,,,,,,,,,,,,,,,
,,,,,,,5eb3623f751686152660a84b,605b45a4d25f287719a41696,605bf7ff802873fefbbf24fd,Spain,East coast,13 or older,no,2021-03-24_22h41.20.105,empathy_intonation_perc,2020.2.10,Win32,60,,,,,,,,,,1,,,,,,,,,,,,,,,,,,,,,,,,,,,,,,,,,,,,,,,,78,frondoso,,,0,0,1.715625,0,2,2,77,1,REAL,FAKE,,,,,,,,,,,,,,,,,,,,,
,,,,,,,5eb3623f751686152660a84b,605b45a4d25f287719a41696,605bf7ff802873fefbbf24fd,Spain,East coast,13 or older,no,2021-03-24_22h41.20.105,empathy_intonation_perc,2020.2.10,Win32,60,,,,,,,,,,0,,,,,,,,,,,,,,,,,,,,,,,,,,,,,,,,,,,,,,,,63,esposante,,,0,1,1.090655,0,3,3,62,1,REAL,FAKE,,,,,,,,,,,,,,,,,,,,,
,,,,,,,5eb3623f751686152660a84b,605b45a4d25f287719a41696,605bf7ff802873fefbbf24fd,Spain,East coast,13 or older,no,2021-03-24_22h41.20.105,empathy_intonation_perc,2020.2.10,Win32,60,,,,,,,,,,1,,,,,,,,,,,,,,,,,,,,,,,,,,,,,,,,,,,,,,,,41,rebuscar,,,1,1,1.06683,0,4,4,40,1,REAL,FAKE,,,,,,,,,,,,,,,,,,,,,
,,,,,,,5eb3623f751686152660a84b,605b45a4d25f287719a41696,605bf7ff802873fefbbf24fd,Spain,East coast,13 or older,no,2021-03-24_22h41.20.105,empathy_intonation_perc,2020.2.10,Win32,60,,,,,,,,,,1,,,,,,,,,,,,,,,,,,,,,,,,,,,,,,,,,,,,,,,,65,bizcocho,,,0,0,1.215375,0,5,5,64,1,REAL,FAKE,,,,,,,,,,,,,,,,,,,,,
,,,,,,,5eb3623f751686152660a84b,605b45a4d25f287719a41696,605bf7ff802873fefbbf24fd,Spain,East coast,13 or older,no,2021-03-24_22h41.20.105,empathy_intonation_perc,2020.2.10,Win32,60,,,,,,,,,,0,,,,,,,,,,,,,,,,,,,,,,,,,,,,,,,,,,,,,,,,4,batilln,,,1,0,1.51579,0,6,6,3,1,REAL,FAKE,,,,,,,,,,,,,,,,,,,,,
,,,,,,,5eb3623f751686152660a84b,605b45a4d25f287719a41696,605bf7ff802873fefbbf24fd,Spain,East coast,13 or older,no,2021-03-24_22h41.20.105,empathy_intonation_perc,2020.2.10,Win32,60,,,,,,,,,,1,,,,,,,,,,,,,,,,,,,,,,,,,,,,,,,,,,,,,,,,85,lad,,,0,0,0.927655,0,7,7,84,1,REAL,FAKE,,,,,,,,,,,,,,,,,,,,,
,,,,,,,5eb3623f751686152660a84b,605b45a4d25f287719a41696,605bf7ff802873fefbbf24fd,Spain,East coast,13 or older,no,2021-03-24_22h41.20.105,empathy_intonation_perc,2020.2.10,Win32,60,,,,,,,,,,1,,,,,,,,,,,,,,,,,,,,,,,,,,,,,,,,,,,,,,,,90,clavel,,,0,0,1.01615,0,8,8,89,1,REAL,FAKE,,,,,,,,,,,,,,,,,,,,,
,,,,,,,5eb3623f751686152660a84b,605b45a4d25f287719a41696,605bf7ff802873fefbbf24fd,Spain,East coast,13 or older,no,2021-03-24_22h41.20.105,empathy_intonation_perc,2020.2.10,Win32,60,,,,,,,,,,1,,,,,,,,,,,,,,,,,,,,,,,,,,,,,,,,,,,,,,,,43,canela,,,1,1,2.174395,0,9,9,42,1,REAL,FAKE,,,,,,,,,,,,,,,,,,,,,
,,,,,,,5eb3623f751686152660a84b,605b45a4d25f287719a41696,605bf7ff802873fefbbf24fd,Spain,East coast,13 or older,no,2021-03-24_22h41.20.105,empathy_intonation_perc,2020.2.10,Win32,60,,,,,,,,,,1,,,,,,,,,,,,,,,,,,,,,,,,,,,,,,,,,,,,,,,,57,tacao,,,0,0,2.01091,0,10,10,56,1,REAL,FAKE,,,,,,,,,,,,,,,,,,,,,
,,,,,,,5eb3623f751686152660a84b,605b45a4d25f287719a41696,605bf7ff802873fefbbf24fd,Spain,East coast,13 or older,no,2021-03-24_22h41.20.105,empathy_intonation_perc,2020.2.10,Win32,60,,,,,,,,,,1,,,,,,,,,,,,,,,,,,,,,,,,,,,,,,,,,,,,,,,,6,tergiversar,,,0,0,2.73076,0,11,11,5,1,REAL,FAKE,,,,,,,,,,,,,,,,,,,,,
,,,,,,,5eb3623f751686152660a84b,605b45a4d25f287719a41696,605bf7ff802873fefbbf24fd,Spain,East coast,13 or older,no,2021-03-24_22h41.20.105,empathy_intonation_perc,2020.2.10,Win32,60,,,,,,,,,,1,,,,,,,,,,,,,,,,,,,,,,,,,,,,,,,,,,,,,,,,71,polvoriento,,,0,0,2.519735,0,12,12,70,1,REAL,FAKE,,,,,,,,,,,,,,,,,,,,,
,,,,,,,5eb3623f751686152660a84b,605b45a4d25f287719a41696,605bf7ff802873fefbbf24fd,Spain,East coast,13 or older,no,2021-03-24_22h41.20.105,empathy_intonation_perc,2020.2.10,Win32,60,,,,,,,,,,1,,,,,,,,,,,,,,,,,,,,,,,,,,,,,,,,,,,,,,,,12,asesinato,,,1,1,2.319915,0,13,13,11,1,REAL,FAKE,,,,,,,,,,,,,,,,,,,,,
,,,,,,,5eb3623f751686152660a84b,605b45a4d25f287719a41696,605bf7ff802873fefbbf24fd,Spain,East coast,13 or older,no,2021-03-24_22h41.20.105,empathy_intonation_perc,2020.2.10,Win32,60,,,,,,,,,,1,,,,,,,,,,,,,,,,,,,,,,,,,,,,,,,,,,,,,,,,75,yacer,,,0,0,1.515845,0,14,14,74,1,REAL,FAKE,,,,,,,,,,,,,,,,,,,,,
,,,,,,,5eb3623f751686152660a84b,605b45a4d25f287719a41696,605bf7ff802873fefbbf24fd,Spain,East coast,13 or older,no,2021-03-24_22h41.20.105,empathy_intonation_perc,2020.2.10,Win32,60,,,,,,,,,,1,,,,,,,,,,,,,,,,,,,,,,,,,,,,,,,,,,,,,,,,31,pandilla,,,1,1,2.180125,0,15,15,30,1,REAL,FAKE,,,,,,,,,,,,,,,,,,,,,
,,,,,,,5eb3623f751686152660a84b,605b45a4d25f287719a41696,605bf7ff802873fefbbf24fd,Spain,East coast,13 or older,no,2021-03-24_22h41.20.105,empathy_intonation_perc,2020.2.10,Win32,60,,,,,,,,,,0,,,,,,,,,,,,,,,,,,,,,,,,,,,,,,,,,,,,,,,,16,abracer,,,0,1,1.19483,0,16,16,15,1,REAL,FAKE,,,,,,,,,,,,,,,,,,,,,
,,,,,,,5eb3623f751686152660a84b,605b45a4d25f287719a41696,605bf7ff802873fefbbf24fd,Spain,East coast,13 or older,no,2021-03-24_22h41.20.105,empathy_intonation_perc,2020.2.10,Win32,60,,,,,,,,,,1,,,,,,,,,,,,,,,,,,,,,,,,,,,,,,,,,,,,,,,,54,fomentar,,,0,0,1.814665,0,17,17,53,1,REAL,FAKE,,,,,,,,,,,,,,,,,,,,,
,,,,,,,5eb3623f751686152660a84b,605b45a4d25f287719a41696,605bf7ff802873fefbbf24fd,Spain,East coast,13 or older,no,2021-03-24_22h41.20.105,empathy_intonation_perc,2020.2.10,Win32,60,,,,,,,,,,0,,,,,,,,,,,,,,,,,,,,,,,,,,,,,,,,,,,,,,,,8,cadea,,,1,0,2.1814,0,18,18,7,1,REAL,FAKE,,,,,,,,,,,,,,,,,,,,,
,,,,,,,5eb3623f751686152660a84b,605b45a4d25f287719a41696,605bf7ff802873fefbbf24fd,Spain,East coast,13 or older,no,2021-03-24_22h41.20.105,empathy_intonation_perc,2020.2.10,Win32,60,,,,,,,,,,1,,,,,,,,,,,,,,,,,,,,,,,,,,,,,,,,,,,,,,,,61,seda,,,1,1,1.03703,0,19,19,60,1,REAL,FAKE,,,,,,,,,,,,,,,,,,,,,
,,,,,,,5eb3623f751686152660a84b,605b45a4d25f287719a41696,605bf7ff802873fefbbf24fd,Spain,East coast,13 or older,no,2021-03-24_22h41.20.105,empathy_intonation_perc,2020.2.10,Win32,60,,,,,,,,,,1,,,,,,,,,,,,,,,,,,,,,,,,,,,,,,,,,,,,,,,,83,guante,,,0,0,1.811045,0,20,20,82,1,REAL,FAKE,,,,,,,,,,,,,,,,,,,,,
,,,,,,,5eb3623f751686152660a84b,605b45a4d25f287719a41696,605bf7ff802873fefbbf24fd,Spain,East coast,13 or older,no,2021-03-24_22h41.20.105,empathy_intonation_perc,2020.2.10,Win32,60,,,,,,,,,,0,,,,,,,,,,,,,,,,,,,,,,,,,,,,,,,,,,,,,,,,1,terzo,,,1,0,2.215145,0,21,21,0,1,REAL,FAKE,,,,,,,,,,,,,,,,,,,,,
,,,,,,,5eb3623f751686152660a84b,605b45a4d25f287719a41696,605bf7ff802873fefbbf24fd,Spain,East coast,13 or older,no,2021-03-24_22h41.20.105,empathy_intonation_perc,2020.2.10,Win32,60,,,,,,,,,,0,,,,,,,,,,,,,,,,,,,,,,,,,,,,,,,,,,,,,,,,30,alardio,,,0,1,2.40976,0,22,22,29,1,REAL,FAKE,,,,,,,,,,,,,,,,,,,,,
,,,,,,,5eb3623f751686152660a84b,605b45a4d25f287719a41696,605bf7ff802873fefbbf24fd,Spain,East coast,13 or older,no,2021-03-24_22h41.20.105,empathy_intonation_perc,2020.2.10,Win32,60,,,,,,,,,,0,,,,,,,,,,,,,,,,,,,,,,,,,,,,,,,,,,,,,,,,47,cartinar,,,0,1,1.934785,0,23,23,46,1,REAL,FAKE,,,,,,,,,,,,,,,,,,,,,
,,,,,,,5eb3623f751686152660a84b,605b45a4d25f287719a41696,605bf7ff802873fefbbf24fd,Spain,East coast,13 or older,no,2021-03-24_22h41.20.105,empathy_intonation_perc,2020.2.10,Win32,60,,,,,,,,,,1,,,,,,,,,,,,,,,,,,,,,,,,,,,,,,,,,,,,,,,,76,atar,,,1,1,1.57778,0,24,24,75,1,REAL,FAKE,,,,,,,,,,,,,,,,,,,,,
,,,,,,,5eb3623f751686152660a84b,605b45a4d25f287719a41696,605bf7ff802873fefbbf24fd,Spain,East coast,13 or older,no,2021-03-24_22h41.20.105,empathy_intonation_perc,2020.2.10,Win32,60,,,,,,,,,,1,,,,,,,,,,,,,,,,,,,,,,,,,,,,,,,,,,,,,,,,48,ladrn,,,1,1,1.8719,0,25,25,47,1,REAL,FAKE,,,,,,,,,,,,,,,,,,,,,
,,,,,,,5eb3623f751686152660a84b,605b45a4d25f287719a41696,605bf7ff802873fefbbf24fd,Spain,East coast,13 or older,no,2021-03-24_22h41.20.105,empathy_intonation_perc,2020.2.10,Win32,60,,,,,,,,,,1,,,,,,,,,,,,,,,,,,,,,,,,,,,,,,,,,,,,,,,,15,regar,,,1,1,1.65647,0,26,26,14,1,REAL,FAKE,,,,,,,,,,,,,,,,,,,,,
,,,,,,,5eb3623f751686152660a84b,605b45a4d25f287719a41696,605bf7ff802873fefbbf24fd,Spain,East coast,13 or older,no,2021-03-24_22h41.20.105,empathy_intonation_perc,2020.2.10,Win32,60,,,,,,,,,,1,,,,,,,,,,,,,,,,,,,,,,,,,,,,,,,,,,,,,,,,73,hervidor,,,1,1,2.52743,0,27,27,72,1,REAL,FAKE,,,,,,,,,,,,,,,,,,,,,
,,,,,,,5eb3623f751686152660a84b,605b45a4d25f287719a41696,605bf7ff802873fefbbf24fd,Spain,East coast,13 or older,no,2021-03-24_22h41.20.105,empathy_intonation_perc,2020.2.10,Win32,60,,,,,,,,,,1,,,,,,,,,,,,,,,,,,,,,,,,,,,,,,,,,,,,,,,,26,secuestro,,,1,1,2.386085,0,28,28,25,1,REAL,FAKE,,,,,,,,,,,,,,,,,,,,,
,,,,,,,5eb3623f751686152660a84b,605b45a4d25f287719a41696,605bf7ff802873fefbbf24fd,Spain,East coast,13 or older,no,2021-03-24_22h41.20.105,empathy_intonation_perc,2020.2.10,Win32,60,,,,,,,,,,0,,,,,,,,,,,,,,,,,,,,,,,,,,,,,,,,,,,,,,,,18,arsa,,,0,1,1.099795,0,29,29,17,1,REAL,FAKE,,,,,,,,,,,,,,,,,,,,,
,,,,,,,5eb3623f751686152660a84b,605b45a4d25f287719a41696,605bf7ff802873fefbbf24fd,Spain,East coast,13 or older,no,2021-03-24_22h41.20.105,empathy_intonation_perc,2020.2.10,Win32,60,,,,,,,,,,1,,,,,,,,,,,,,,,,,,,,,,,,,,,,,,,,,,,,,,,,11,cenefa,,,0,0,1.051415,0,30,30,10,1,REAL,FAKE,,,,,,,,,,,,,,,,,,,,,
,,,,,,,5eb3623f751686152660a84b,605b45a4d25f287719a41696,605bf7ff802873fefbbf24fd,Spain,East coast,13 or older,no,2021-03-24_22h41.20.105,empathy_intonation_perc,2020.2.10,Win32,60,,,,,,,,,,1,,,,,,,,,,,,,,,,,,,,,,,,,,,,,,,,,,,,,,,,13,helar,,,0,0,2.43258,0,31,31,12,1,REAL,FAKE,,,,,,,,,,,,,,,,,,,,,
,,,,,,,5eb3623f751686152660a84b,605b45a4d25f287719a41696,605bf7ff802873fefbbf24fd,Spain,East coast,13 or older,no,2021-03-24_22h41.20.105,empathy_intonation_perc,2020.2.10,Win32,60,,,,,,,,,,1,,,,,,,,,,,,,,,,,,,,,,,,,,,,,,,,,,,,,,,,46,martillo,,,1,1,1.531595,0,32,32,45,1,REAL,FAKE,,,,,,,,,,,,,,,,,,,,,
,,,,,,,5eb3623f751686152660a84b,605b45a4d25f287719a41696,605bf7ff802873fefbbf24fd,Spain,East coast,13 or older,no,2021-03-24_22h41.20.105,empathy_intonation_perc,2020.2.10,Win32,60,,,,,,,,,,0,,,,,,,,,,,,,,,,,,,,,,,,,,,,,,,,,,,,,,,,23,lampera,,,0,1,1.858725,0,33,33,22,1,REAL,FAKE,,,,,,,,,,,,,,,,,,,,,
,,,,,,,5eb3623f751686152660a84b,605b45a4d25f287719a41696,605bf7ff802873fefbbf24fd,Spain,East coast,13 or older,no,2021-03-24_22h41.20.105,empathy_intonation_perc,2020.2.10,Win32,60,,,,,,,,,,0,,,,,,,,,,,,,,,,,,,,,,,,,,,,,,,,,,,,,,,,32,fatacidad,,,0,1,1.64908,0,34,34,31,1,REAL,FAKE,,,,,,,,,,,,,,,,,,,,,
,,,,,,,5eb3623f751686152660a84b,605b45a4d25f287719a41696,605bf7ff802873fefbbf24fd,Spain,East coast,13 or older,no,2021-03-24_22h41.20.105,empathy_intonation_perc,2020.2.10,Win32,60,,,,,,,,,,1,,,,,,,,,,,,,,,,,,,,,,,,,,,,,,,,,,,,,,,,7,psimo,,,1,1,2.941915,0,35,35,6,1,REAL,FAKE,,,,,,,,,,,,,,,,,,,,,
,,,,,,,5eb3623f751686152660a84b,605b45a4d25f287719a41696,605bf7ff802873fefbbf24fd,Spain,East coast,13 or older,no,2021-03-24_22h41.20.105,empathy_intonation_perc,2020.2.10,Win32,60,,,,,,,,,,1,,,,,,,,,,,,,,,,,,,,,,,,,,,,,,,,,,,,,,,,80,hormiga,,,0,0,2.08381,0,36,36,79,1,REAL,FAKE,,,,,,,,,,,,,,,,,,,,,
,,,,,,,5eb3623f751686152660a84b,605b45a4d25f287719a41696,605bf7ff802873fefbbf24fd,Spain,East coast,13 or older,no,2021-03-24_22h41.20.105,empathy_intonation_perc,2020.2.10,Win32,60,,,,,,,,,,1,,,,,,,,,,,,,,,,,,,,,,,,,,,,,,,,,,,,,,,,9,hacha,,,0,0,1.376925,0,37,37,8,1,REAL,FAKE,,,,,,,,,,,,,,,,,,,,,
,,,,,,,5eb3623f751686152660a84b,605b45a4d25f287719a41696,605bf7ff802873fefbbf24fd,Spain,East coast,13 or older,no,2021-03-24_22h41.20.105,empathy_intonation_perc,2020.2.10,Win32,60,,,,,,,,,,0,,,,,,,,,,,,,,,,,,,,,,,,,,,,,,,,,,,,,,,,53,vegada,,,0,1,1.708805,0,38,38,52,1,REAL,FAKE,,,,,,,,,,,,,,,,,,,,,
,,,,,,,5eb3623f751686152660a84b,605b45a4d25f287719a41696,605bf7ff802873fefbbf24fd,Spain,East coast,13 or older,no,2021-03-24_22h41.20.105,empathy_intonation_perc,2020.2.10,Win32,60,,,,,,,,,,0,,,,,,,,,,,,,,,,,,,,,,,,,,,,,,,,,,,,,,,,17,floroso,,,0,1,2.060615,0,39,39,16,1,REAL,FAKE,,,,,,,,,,,,,,,,,,,,,
,,,,,,,5eb3623f751686152660a84b,605b45a4d25f287719a41696,605bf7ff802873fefbbf24fd,Spain,East coast,13 or older,no,2021-03-24_22h41.20.105,empathy_intonation_perc,2020.2.10,Win32,60,,,,,,,,,,1,,,,,,,,,,,,,,,,,,,,,,,,,,,,,,,,,,,,,,,,68,alegre,,,1,1,1.14928,0,40,40,67,1,REAL,FAKE,,,,,,,,,,,,,,,,,,,,,
,,,,,,,5eb3623f751686152660a84b,605b45a4d25f287719a41696,605bf7ff802873fefbbf24fd,Spain,East coast,13 or older,no,2021-03-24_22h41.20.105,empathy_intonation_perc,2020.2.10,Win32,60,,,,,,,,,,0,,,,,,,,,,,,,,,,,,,,,,,,,,,,,,,,,,,,,,,,33,pauca,,,0,1,3.716175,0,41,41,32,1,REAL,FAKE,,,,,,,,,,,,,,,,,,,,,
,,,,,,,5eb3623f751686152660a84b,605b45a4d25f287719a41696,605bf7ff802873fefbbf24fd,Spain,East coast,13 or older,no,2021-03-24_22h41.20.105,empathy_intonation_perc,2020.2.10,Win32,60,,,,,,,,,,1,,,,,,,,,,,,,,,,,,,,,,,,,,,,,,,,,,,,,,,,28,merodear,,,0,0,4.175335,0,42,42,27,1,REAL,FAKE,,,,,,,,,,,,,,,,,,,,,
,,,,,,,5eb3623f751686152660a84b,605b45a4d25f287719a41696,605bf7ff802873fefbbf24fd,Spain,East coast,13 or older,no,2021-03-24_22h41.20.105,empathy_intonation_perc,2020.2.10,Win32,60,,,,,,,,,,1,,,,,,,,,,,,,,,,,,,,,,,,,,,,,,,,,,,,,,,,56,musgo,,,0,0,1.4221,0,43,43,55,1,REAL,FAKE,,,,,,,,,,,,,,,,,,,,,
,,,,,,,5eb3623f751686152660a84b,605b45a4d25f287719a41696,605bf7ff802873fefbbf24fd,Spain,East coast,13 or older,no,2021-03-24_22h41.20.105,empathy_intonation_perc,2020.2.10,Win32,60,,,,,,,,,,0,,,,,,,,,,,,,,,,,,,,,,,,,,,,,,,,,,,,,,,,84,escuto,,,0,1,1.992435,0,44,44,83,1,REAL,FAKE,,,,,,,,,,,,,,,,,,,,,
,,,,,,,5eb3623f751686152660a84b,605b45a4d25f287719a41696,605bf7ff802873fefbbf24fd,Spain,East coast,13 or older,no,2021-03-24_22h41.20.105,empathy_intonation_perc,2020.2.10,Win32,60,,,,,,,,,,1,,,,,,,,,,,,,,,,,,,,,,,,,,,,,,,,,,,,,,,,88,acantilado,,,0,0,5.456905,0,45,45,87,1,REAL,FAKE,,,,,,,,,,,,,,,,,,,,,
,,,,,,,5eb3623f751686152660a84b,605b45a4d25f287719a41696,605bf7ff802873fefbbf24fd,Spain,East coast,13 or older,no,2021-03-24_22h41.20.105,empathy_intonation_perc,2020.2.10,Win32,60,,,,,,,,,,1,,,,,,,,,,,,,,,,,,,,,,,,,,,,,,,,,,,,,,,,24,ltigo,,,1,1,2.64302,0,46,46,23,1,REAL,FAKE,,,,,,,,,,,,,,,,,,,,,
,,,,,,,5eb3623f751686152660a84b,605b45a4d25f287719a41696,605bf7ff802873fefbbf24fd,Spain,East coast,13 or older,no,2021-03-24_22h41.20.105,empathy_intonation_perc,2020.2.10,Win32,60,,,,,,,,,,0,,,,,,,,,,,,,,,,,,,,,,,,,,,,,,,,,,,,,,,,29,decar,,,0,1,1.791375,0,47,47,28,1,REAL,FAKE,,,,,,,,,,,,,,,,,,,,,
,,,,,,,5eb3623f751686152660a84b,605b45a4d25f287719a41696,605bf7ff802873fefbbf24fd,Spain,East coast,13 or older,no,2021-03-24_22h41.20.105,empathy_intonation_perc,2020.2.10,Win32,60,,,,,,,,,,1,,,,,,,,,,,,,,,,,,,,,,,,,,,,,,,,,,,,,,,,2,pellizcar,,,0,0,4.25793,0,48,48,1,1,REAL,FAKE,,,,,,,,,,,,,,,,,,,,,
,,,,,,,5eb3623f751686152660a84b,605b45a4d25f287719a41696,605bf7ff802873fefbbf24fd,Spain,East coast,13 or older,no,2021-03-24_22h41.20.105,empathy_intonation_perc,2020.2.10,Win32,60,,,,,,,,,,1,,,,,,,,,,,,,,,,,,,,,,,,,,,,,,,,,,,,,,,,44,cuchara,,,1,1,2.149925,0,49,49,43,1,REAL,FAKE,,,,,,,,,,,,,,,,,,,,,
,,,,,,,5eb3623f751686152660a84b,605b45a4d25f287719a41696,605bf7ff802873fefbbf24fd,Spain,East coast,13 or older,no,2021-03-24_22h41.20.105,empathy_intonation_perc,2020.2.10,Win32,60,,,,,,,,,,1,,,,,,,,,,,,,,,,,,,,,,,,,,,,,,,,,,,,,,,,89,prisa,,,1,1,1.701915,0,50,50,88,1,REAL,FAKE,,,,,,,,,,,,,,,,,,,,,
,,,,,,,5eb3623f751686152660a84b,605b45a4d25f287719a41696,605bf7ff802873fefbbf24fd,Spain,East coast,13 or older,no,2021-03-24_22h41.20.105,empathy_intonation_perc,2020.2.10,Win32,60,,,,,,,,,,1,,,,,,,,,,,,,,,,,,,,,,,,,,,,,,,,,,,,,,,,86,barato,,,1,1,1.632545,0,51,51,85,1,REAL,FAKE,,,,,,,,,,,,,,,,,,,,,
,,,,,,,5eb3623f751686152660a84b,605b45a4d25f287719a41696,605bf7ff802873fefbbf24fd,Spain,East coast,13 or older,no,2021-03-24_22h41.20.105,empathy_intonation_perc,2020.2.10,Win32,60,,,,,,,,,,1,,,,,,,,,,,,,,,,,,,,,,,,,,,,,,,,,,,,,,,,52,camisa,,,1,1,1.621065,0,52,52,51,1,REAL,FAKE,,,,,,,,,,,,,,,,,,,,,
,,,,,,,5eb3623f751686152660a84b,605b45a4d25f287719a41696,605bf7ff802873fefbbf24fd,Spain,East coast,13 or older,no,2021-03-24_22h41.20.105,empathy_intonation_perc,2020.2.10,Win32,60,,,,,,,,,,1,,,,,,,,,,,,,,,,,,,,,,,,,,,,,,,,,,,,,,,,45,jilguero,,,0,0,3.180405,0,53,53,44,1,REAL,FAKE,,,,,,,,,,,,,,,,,,,,,
,,,,,,,5eb3623f751686152660a84b,605b45a4d25f287719a41696,605bf7ff802873fefbbf24fd,Spain,East coast,13 or older,no,2021-03-24_22h41.20.105,empathy_intonation_perc,2020.2.10,Win32,60,,,,,,,,,,1,,,,,,,,,,,,,,,,,,,,,,,,,,,,,,,,,,,,,,,,5,zapato,,,1,1,0.78162,0,54,54,4,1,REAL,FAKE,,,,,,,,,,,,,,,,,,,,,
,,,,,,,5eb3623f751686152660a84b,605b45a4d25f287719a41696,605bf7ff802873fefbbf24fd,Spain,East coast,13 or older,no,2021-03-24_22h41.20.105,empathy_intonation_perc,2020.2.10,Win32,60,,,,,,,,,,1,,,,,,,,,,,,,,,,,,,,,,,,,,,,,,,,,,,,,,,,20,vido,,,0,0,1.66038,0,55,55,19,1,REAL,FAKE,,,,,,,,,,,,,,,,,,,,,
,,,,,,,5eb3623f751686152660a84b,605b45a4d25f287719a41696,605bf7ff802873fefbbf24fd,Spain,East coast,13 or older,no,2021-03-24_22h41.20.105,empathy_intonation_perc,2020.2.10,Win32,60,,,,,,,,,,1,,,,,,,,,,,,,,,,,,,,,,,,,,,,,,,,,,,,,,,,51,candado,,,1,1,1.59895,0,56,56,50,1,REAL,FAKE,,,,,,,,,,,,,,,,,,,,,
,,,,,,,5eb3623f751686152660a84b,605b45a4d25f287719a41696,605bf7ff802873fefbbf24fd,Spain,East coast,13 or older,no,2021-03-24_22h41.20.105,empathy_intonation_perc,2020.2.10,Win32,60,,,,,,,,,,0,,,,,,,,,,,,,,,,,,,,,,,,,,,,,,,,,,,,,,,,82,empirador,,,0,1,2.0656,0,57,57,81,1,REAL,FAKE,,,,,,,,,,,,,,,,,,,,,
,,,,,,,5eb3623f751686152660a84b,605b45a4d25f287719a41696,605bf7ff802873fefbbf24fd,Spain,East coast,13 or older,no,2021-03-24_22h41.20.105,empathy_intonation_perc,2020.2.10,Win32,60,,,,,,,,,,1,,,,,,,,,,,,,,,,,,,,,,,,,,,,,,,,,,,,,,,,38,estornudar,,,1,1,2.52338,0,58,58,37,1,REAL,FAKE,,,,,,,,,,,,,,,,,,,,,
,,,,,,,5eb3623f751686152660a84b,605b45a4d25f287719a41696,605bf7ff802873fefbbf24fd,Spain,East coast,13 or older,no,2021-03-24_22h41.20.105,empathy_intonation_perc,2020.2.10,Win32,60,,,,,,,,,,1,,,,,,,,,,,,,,,,,,,,,,,,,,,,,,,,,,,,,,,,67,cabello,,,1,1,2.367635,0,59,59,66,1,REAL,FAKE,,,,,,,,,,,,,,,,,,,,,
,,,,,,,5eb3623f751686152660a84b,605b45a4d25f287719a41696,605bf7ff802873fefbbf24fd,Spain,East coast,13 or older,no,2021-03-24_22h41.20.105,empathy_intonation_perc,2020.2.10,Win32,60,,,,,,,,,,0,,,,,,,,,,,,,,,,,,,,,,,,,,,,,,,,,,,,,,,,10,antar,,,0,1,1.69313,0,60,60,9,1,REAL,FAKE,,,,,,,,,,,,,,,,,,,,,
,,,,,,,5eb3623f751686152660a84b,605b45a4d25f287719a41696,605bf7ff802873fefbbf24fd,Spain,East coast,13 or older,no,2021-03-24_22h41.20.105,empathy_intonation_perc,2020.2.10,Win32,60,,,,,,,,,,1,,,,,,,,,,,,,,,,,,,,,,,,,,,,,,,,,,,,,,,,55,nevar,,,1,1,1.472285,0,61,61,54,1,REAL,FAKE,,,,,,,,,,,,,,,,,,,,,
,,,,,,,5eb3623f751686152660a84b,605b45a4d25f287719a41696,605bf7ff802873fefbbf24fd,Spain,East coast,13 or older,no,2021-03-24_22h41.20.105,empathy_intonation_perc,2020.2.10,Win32,60,,,,,,,,,,1,,,,,,,,,,,,,,,,,,,,,,,,,,,,,,,,,,,,,,,,49,ganar,,,1,1,1.13816,0,62,62,48,1,REAL,FAKE,,,,,,,,,,,,,,,,,,,,,
,,,,,,,5eb3623f751686152660a84b,605b45a4d25f287719a41696,605bf7ff802873fefbbf24fd,Spain,East coast,13 or older,no,2021-03-24_22h41.20.105,empathy_intonation_perc,2020.2.10,Win32,60,,,,,,,,,,1,,,,,,,,,,,,,,,,,,,,,,,,,,,,,,,,,,,,,,,,22,lacayo,,,0,0,1.886485,0,63,63,21,1,REAL,FAKE,,,,,,,,,,,,,,,,,,,,,
,,,,,,,5eb3623f751686152660a84b,605b45a4d25f287719a41696,605bf7ff802873fefbbf24fd,Spain,East coast,13 or older,no,2021-03-24_22h41.20.105,empathy_intonation_perc,2020.2.10,Win32,60,,,,,,,,,,0,,,,,,,,,,,,,,,,,,,,,,,,,,,,,,,,,,,,,,,,87,grodo,,,0,1,4.048535,0,64,64,86,1,REAL,FAKE,,,,,,,,,,,,,,,,,,,,,
,,,,,,,5eb3623f751686152660a84b,605b45a4d25f287719a41696,605bf7ff802873fefbbf24fd,Spain,East coast,13 or older,no,2021-03-24_22h41.20.105,empathy_intonation_perc,2020.2.10,Win32,60,,,,,,,,,,1,,,,,,,,,,,,,,,,,,,,,,,,,,,,,,,,,,,,,,,,64,orgulloso,,,1,1,2.190305,0,65,65,63,1,REAL,FAKE,,,,,,,,,,,,,,,,,,,,,
,,,,,,,5eb3623f751686152660a84b,605b45a4d25f287719a41696,605bf7ff802873fefbbf24fd,Spain,East coast,13 or older,no,2021-03-24_22h41.20.105,empathy_intonation_perc,2020.2.10,Win32,60,,,,,,,,,,0,,,,,,,,,,,,,,,,,,,,,,,,,,,,,,,,,,,,,,,,35,rompido,,,1,0,2.16518,0,66,66,34,1,REAL,FAKE,,,,,,,,,,,,,,,,,,,,,
,,,,,,,5eb3623f751686152660a84b,605b45a4d25f287719a41696,605bf7ff802873fefbbf24fd,Spain,East coast,13 or older,no,2021-03-24_22h41.20.105,empathy_intonation_perc,2020.2.10,Win32,60,,,,,,,,,,1,,,,,,,,,,,,,,,,,,,,,,,,,,,,,,,,,,,,,,,,39,torpe,,,1,1,1.6352,0,67,67,38,1,REAL,FAKE,,,,,,,,,,,,,,,,,,,,,
,,,,,,,5eb3623f751686152660a84b,605b45a4d25f287719a41696,605bf7ff802873fefbbf24fd,Spain,East coast,13 or older,no,2021-03-24_22h41.20.105,empathy_intonation_perc,2020.2.10,Win32,60,,,,,,,,,,1,,,,,,,,,,,,,,,,,,,,,,,,,,,,,,,,,,,,,,,,59,besar,,,1,1,1.04392,0,68,68,58,1,REAL,FAKE,,,,,,,,,,,,,,,,,,,,,
,,,,,,,5eb3623f751686152660a84b,605b45a4d25f287719a41696,605bf7ff802873fefbbf24fd,Spain,East coast,13 or older,no,2021-03-24_22h41.20.105,empathy_intonation_perc,2020.2.10,Win32,60,,,,,,,,,,1,,,,,,,,,,,,,,,,,,,,,,,,,,,,,,,,,,,,,,,,37,granuja,,,0,0,2.609565,0,69,69,36,1,REAL,FAKE,,,,,,,,,,,,,,,,,,,,,
,,,,,,,5eb3623f751686152660a84b,605b45a4d25f287719a41696,605bf7ff802873fefbbf24fd,Spain,East coast,13 or older,no,2021-03-24_22h41.20.105,empathy_intonation_perc,2020.2.10,Win32,60,,,,,,,,,,0,,,,,,,,,,,,,,,,,,,,,,,,,,,,,,,,,,,,,,,,21,capillo,,,0,1,2.198045,0,70,70,20,1,REAL,FAKE,,,,,,,,,,,,,,,,,,,,,
,,,,,,,5eb3623f751686152660a84b,605b45a4d25f287719a41696,605bf7ff802873fefbbf24fd,Spain,East coast,13 or older,no,2021-03-24_22h41.20.105,empathy_intonation_perc,2020.2.10,Win32,60,,,,,,,,,,0,,,,,,,,,,,,,,,,,,,,,,,,,,,,,,,,,,,,,,,,19,brecedad,,,0,1,3.436995,0,71,71,18,1,REAL,FAKE,,,,,,,,,,,,,,,,,,,,,
,,,,,,,5eb3623f751686152660a84b,605b45a4d25f287719a41696,605bf7ff802873fefbbf24fd,Spain,East coast,13 or older,no,2021-03-24_22h41.20.105,empathy_intonation_perc,2020.2.10,Win32,60,,,,,,,,,,1,,,,,,,,,,,,,,,,,,,,,,,,,,,,,,,,,,,,,,,,81,pozo,,,1,1,1.391725,0,72,72,80,1,REAL,FAKE,,,,,,,,,,,,,,,,,,,,,
,,,,,,,5eb3623f751686152660a84b,605b45a4d25f287719a41696,605bf7ff802873fefbbf24fd,Spain,East coast,13 or older,no,2021-03-24_22h41.20.105,empathy_intonation_perc,2020.2.10,Win32,60,,,,,,,,,,0,,,,,,,,,,,,,,,,,,,,,,,,,,,,,,,,,,,,,,,,70,temblo,,,1,0,2.53943,0,73,73,69,1,REAL,FAKE,,,,,,,,,,,,,,,,,,,,,
,,,,,,,5eb3623f751686152660a84b,605b45a4d25f287719a41696,605bf7ff802873fefbbf24fd,Spain,East coast,13 or older,no,2021-03-24_22h41.20.105,empathy_intonation_perc,2020.2.10,Win32,60,,,,,,,,,,1,,,,,,,,,,,,,,,,,,,,,,,,,,,,,,,,,,,,,,,,34,aviso,,,1,1,4.544205,0,74,74,33,1,REAL,FAKE,,,,,,,,,,,,,,,,,,,,,
,,,,,,,5eb3623f751686152660a84b,605b45a4d25f287719a41696,605bf7ff802873fefbbf24fd,Spain,East coast,13 or older,no,2021-03-24_22h41.20.105,empathy_intonation_perc,2020.2.10,Win32,60,,,,,,,,,,1,,,,,,,,,,,,,,,,,,,,,,,,,,,,,,,,,,,,,,,,14,yunque,,,0,0,2.06545,0,75,75,13,1,REAL,FAKE,,,,,,,,,,,,,,,,,,,,,
,,,,,,,5eb3623f751686152660a84b,605b45a4d25f287719a41696,605bf7ff802873fefbbf24fd,Spain,East coast,13 or older,no,2021-03-24_22h41.20.105,empathy_intonation_perc,2020.2.10,Win32,60,,,,,,,,,,0,,,,,,,,,,,,,,,,,,,,,,,,,,,,,,,,,,,,,,,,50,flamida,,,0,1,8.37187,0,76,76,49,1,REAL,FAKE,,,,,,,,,,,,,,,,,,,,,
,,,,,,,5eb3623f751686152660a84b,605b45a4d25f287719a41696,605bf7ff802873fefbbf24fd,Spain,East coast,13 or older,no,2021-03-24_22h41.20.105,empathy_intonation_perc,2020.2.10,Win32,60,,,,,,,,,,0,,,,,,,,,,,,,,,,,,,,,,,,,,,,,,,,,,,,,,,,74,cintro,,,0,1,1.62424,0,77,77,73,1,REAL,FAKE,,,,,,,,,,,,,,,,,,,,,
,,,,,,,5eb3623f751686152660a84b,605b45a4d25f287719a41696,605bf7ff802873fefbbf24fd,Spain,East coast,13 or older,no,2021-03-24_22h41.20.105,empathy_intonation_perc,2020.2.10,Win32,60,,,,,,,,,,1,,,,,,,,,,,,,,,,,,,,,,,,,,,,,,,,,,,,,,,,40,alfombra,,,1,1,2.883075,0,78,78,39,1,REAL,FAKE,,,,,,,,,,,,,,,,,,,,,
,,,,,,,5eb3623f751686152660a84b,605b45a4d25f287719a41696,605bf7ff802873fefbbf24fd,Spain,East coast,13 or older,no,2021-03-24_22h41.20.105,empathy_intonation_perc,2020.2.10,Win32,60,,,,,,,,,,1,,,,,,,,,,,,,,,,,,,,,,,,,,,,,,,,,,,,,,,,60,matar,,,1,1,1.73388,0,79,79,59,1,REAL,FAKE,,,,,,,,,,,,,,,,,,,,,
,,,,,,,5eb3623f751686152660a84b,605b45a4d25f287719a41696,605bf7ff802873fefbbf24fd,Spain,East coast,13 or older,no,2021-03-24_22h41.20.105,empathy_intonation_perc,2020.2.10,Win32,60,,,,,,,,,,1,,,,,,,,,,,,,,,,,,,,,,,,,,,,,,,,,,,,,,,,77,tiburn,,,1,1,3.449645,0,80,80,76,1,REAL,FAKE,,,,,,,,,,,,,,,,,,,,,
,,,,,,,5eb3623f751686152660a84b,605b45a4d25f287719a41696,605bf7ff802873fefbbf24fd,Spain,East coast,13 or older,no,2021-03-24_22h41.20.105,empathy_intonation_perc,2020.2.10,Win32,60,,,,,,,,,,0,,,,,,,,,,,,,,,,,,,,,,,,,,,,,,,,,,,,,,,,72,pemicin,,,0,1,2.2558,0,81,81,71,1,REAL,FAKE,,,,,,,,,,,,,,,,,,,,,
,,,,,,,5eb3623f751686152660a84b,605b45a4d25f287719a41696,605bf7ff802873fefbbf24fd,Spain,East coast,13 or older,no,2021-03-24_22h41.20.105,empathy_intonation_perc,2020.2.10,Win32,60,,,,,,,,,,0,,,,,,,,,,,,,,,,,,,,,,,,,,,,,,,,,,,,,,,,42,cadallo,,,0,1,2.805395,0,82,82,41,1,REAL,FAKE,,,,,,,,,,,,,,,,,,,,,
,,,,,,,5eb3623f751686152660a84b,605b45a4d25f287719a41696,605bf7ff802873fefbbf24fd,Spain,East coast,13 or older,no,2021-03-24_22h41.20.105,empathy_intonation_perc,2020.2.10,Win32,60,,,,,,,,,,0,,,,,,,,,,,,,,,,,,,,,,,,,,,,,,,,,,,,,,,,58,plaudir,,,0,1,1.45924,0,83,83,57,1,REAL,FAKE,,,,,,,,,,,,,,,,,,,,,
,,,,,,,5eb3623f751686152660a84b,605b45a4d25f287719a41696,605bf7ff802873fefbbf24fd,Spain,East coast,13 or older,no,2021-03-24_22h41.20.105,empathy_intonation_perc,2020.2.10,Win32,60,,,,,,,,,,1,,,,,,,,,,,,,,,,,,,,,,,,,,,,,,,,,,,,,,,,3,pulmones,,,1,1,1.690645,0,84,84,2,1,REAL,FAKE,,,,,,,,,,,,,,,,,,,,,
,,,,,,,5eb3623f751686152660a84b,605b45a4d25f287719a41696,605bf7ff802873fefbbf24fd,Spain,East coast,13 or older,no,2021-03-24_22h41.20.105,empathy_intonation_perc,2020.2.10,Win32,60,,,,,,,,,,0,,,,,,,,,,,,,,,,,,,,,,,,,,,,,,,,,,,,,,,,27,acutacin,,,1,0,2.058225,0,85,85,26,1,REAL,FAKE,,,,,,,,,,,,,,,,,,,,,
,,,,,,,5eb3623f751686152660a84b,605b45a4d25f287719a41696,605bf7ff802873fefbbf24fd,Spain,East coast,13 or older,no,2021-03-24_22h41.20.105,empathy_intonation_perc,2020.2.10,Win32,60,,,,,,,,,,1,,,,,,,,,,,,,,,,,,,,,,,,,,,,,,,,,,,,,,,,62,flaco,,,1,1,1.213805,0,86,86,61,1,REAL,FAKE,,,,,,,,,,,,,,,,,,,,,
,,,,,,,5eb3623f751686152660a84b,605b45a4d25f287719a41696,605bf7ff802873fefbbf24fd,Spain,East coast,13 or older,no,2021-03-24_22h41.20.105,empathy_intonation_perc,2020.2.10,Win32,60,,,,,,,,,,1,,,,,,,,,,,,,,,,,,,,,,,,,,,,,,,,,,,,,,,,69,engatusar,,,0,0,1.851185,0,87,87,68,1,REAL,FAKE,,,,,,,,,,,,,,,,,,,,,
,,,,,,,5eb3623f751686152660a84b,605b45a4d25f287719a41696,605bf7ff802873fefbbf24fd,Spain,East coast,13 or older,no,2021-03-24_22h41.20.105,empathy_intonation_perc,2020.2.10,Win32,60,,,,,,,,,,1,,,,,,,,,,,,,,,,,,,,,,,,,,,,,,,,,,,,,,,,25,bisagra,,,0,0,1.561535,0,88,88,24,1,REAL,FAKE,,,,,,,,,,,,,,,,,,,,,
,,,,,,,5eb3623f751686152660a84b,605b45a4d25f287719a41696,605bf7ff802873fefbbf24fd,Spain,East coast,13 or older,no,2021-03-24_22h41.20.105,empathy_intonation_perc,2020.2.10,Win32,60,,,,,,,,,,0,,,,,,,,,,,,,,,,,,,,,,,,,,,,,,,,,,,,,,,,66,hacido,,,1,0,1.317975,0,89,89,65,1,REAL,FAKE,,,,,,,,,,,,,,,,,,,,,
,,,,,,,5eb3623f751686152660a84b,605b45a4d25f287719a41696,605bf7ff802873fefbbf24fd,Spain,East coast,13 or older,no,2021-03-24_22h41.20.105,empathy_intonation_perc,2020.2.10,Win32,60,,,,,,,,,,,,,,,,,,,,,,,,,,,,,,,,,,,,,,,,,,,,,,,,,,,,,,,,,,,,,,,,4,1,3.05988,1,0,0,0,0,0,1,,,,,,,,,,,
,,,,,,,5eb3623f751686152660a84b,605b45a4d25f287719a41696,605bf7ff802873fefbbf24fd,Spain,East coast,13 or older,no,2021-03-24_22h41.20.105,empathy_intonation_perc,2020.2.10,Win32,60,,,,,,,,,,,,,,,,,,,,1,,,,,,,,,,,,,,,,,,,,,,,,,,,,,,,,,,,,,,,,,,,,,,,,,,,,,,1,0,0,0,0,1,I can easily tell if someone else wants to enter a conversation.,1,0,1,0
,,,,,,,5eb3623f751686152660a84b,605b45a4d25f287719a41696,605bf7ff802873fefbbf24fd,Spain,East coast,13 or older,no,2021-03-24_22h41.20.105,empathy_intonation_perc,2020.2.10,Win32,60,,,,,,,,,,,,,,,,,,,,2,,,,,,,,,,,,,,,,,,,,,,,,,,,,,,,,,,,,,,,,,,,,,,,,,,,,,,1,0,1,1,1,1,I prefer animals to humans.,0,1,0,0
,,,,,,,5eb3623f751686152660a84b,605b45a4d25f287719a41696,605bf7ff802873fefbbf24fd,Spain,East coast,13 or older,no,2021-03-24_22h41.20.105,empathy_intonation_perc,2020.2.10,Win32,60,,,,,,,,,,,,,,,,,,,,3,,,,,,,,,,,,,,,,,,,,,,,,,,,,,,,,,,,,,,,,,,,,,,,,,,,,,,5,0,2,2,2,1,I try to keep up with the current trends and fashions.,0,1,0,0
,,,,,,,5eb3623f751686152660a84b,605b45a4d25f287719a41696,605bf7ff802873fefbbf24fd,Spain,East coast,13 or older,no,2021-03-24_22h41.20.105,empathy_intonation_perc,2020.2.10,Win32,60,,,,,,,,,,,,,,,,,,,,4,,,,,,,,,,,,,,,,,,,,,,,,,,,,,,,,,,,,,,,,,,,,,,,,,,,,,,1,0,3,3,3,1,"I find it difficult to explain to others things that I understand easily, 
  when they dont understand it first time.",1,0,0,1
,,,,,,,5eb3623f751686152660a84b,605b45a4d25f287719a41696,605bf7ff802873fefbbf24fd,Spain,East coast,13 or older,no,2021-03-24_22h41.20.105,empathy_intonation_perc,2020.2.10,Win32,60,,,,,,,,,,,,,,,,,,,,5,,,,,,,,,,,,,,,,,,,,,,,,,,,,,,,,,,,,,,,,,,,,,,,,,,,,,,4,0,4,4,4,1,I dream most nights.,0,1,0,0
,,,,,,,5eb3623f751686152660a84b,605b45a4d25f287719a41696,605bf7ff802873fefbbf24fd,Spain,East coast,13 or older,no,2021-03-24_22h41.20.105,empathy_intonation_perc,2020.2.10,Win32,60,,,,,,,,,,,,,,,,,,,,6,,,,,,,,,,,,,,,,,,,,,,,,,,,,,,,,,,,,,,,,,,,,,,,,,,,,,,1,0,5,5,5,1,I really enjoy caring for other people.,1,0,1,0
,,,,,,,5eb3623f751686152660a84b,605b45a4d25f287719a41696,605bf7ff802873fefbbf24fd,Spain,East coast,13 or older,no,2021-03-24_22h41.20.105,empathy_intonation_perc,2020.2.10,Win32,60,,,,,,,,,,,,,,,,,,,,7,,,,,,,,,,,,,,,,,,,,,,,,,,,,,,,,,,,,,,,,,,,,,,,,,,,,,,1,0,6,6,6,1,I try to solve my own problems rather than discussing them with others.,0,1,0,0
,,,,,,,5eb3623f751686152660a84b,605b45a4d25f287719a41696,605bf7ff802873fefbbf24fd,Spain,East coast,13 or older,no,2021-03-24_22h41.20.105,empathy_intonation_perc,2020.2.10,Win32,60,,,,,,,,,,,,,,,,,,,,8,,,,,,,,,,,,,,,,,,,,,,,,,,,,,,,,,,,,,,,,,,,,,,,,,,,,,,4,0,7,7,7,1,I find it hard to know what to do in a social situation.,1,0,0,1
