instructions_2afc_loop.thisRepN,instructions_2afc_loop.thisTrialN,instructions_2afc_loop.thisN,instructions_2afc_loop.thisIndex,instructions_2afc_loop.ran,instructions_text,continue_text,participant,study_id,session,I am most familiar with Spanish from...*,What part of the US are you from?*,At what age did you begin learning Spanish?*,Are you proficient in any languages other than English/Spanish?*,date,expName,psychopyVersion,OS,frameRate,key_resp_2afc_practice.keys,key_resp_2afc_practice.corr,key_resp_2afc_practice.rt,trials_2afc_practice_loop.thisRepN,trials_2afc_practice_loop.thisTrialN,trials_2afc_practice_loop.thisN,trials_2afc_practice_loop.thisIndex,trials_2afc_practice_loop.ran,path,correct_response,the_col,key_resp_2afc_trial.keys,key_resp_2afc_trial.corr,key_resp_2afc_trial.rt,trials_2afc_loop.thisRepN,trials_2afc_loop.thisTrialN,trials_2afc_loop.thisN,trials_2afc_loop.thisIndex,trials_2afc_loop.ran,item_num,andalusian,argentine,castilian,chilean,cuban,mexican,peruvian,puertorican,key_resp_ac1.keys,key_resp_ac1.corr,key_resp_ac1.rt,ac1_loop.thisRepN,ac1_loop.thisTrialN,ac1_loop.thisN,ac1_loop.thisIndex,ac1_loop.ran,instructions_lextale_loop.thisRepN,instructions_lextale_loop.thisTrialN,instructions_lextale_loop.thisN,instructions_lextale_loop.thisIndex,instructions_lextale_loop.ran,key_resp_lextale_practice.keys,key_resp_lextale_practice.corr,key_resp_lextale_practice.rt,trials_lextale_practice_loop.thisRepN,trials_lextale_practice_loop.thisTrialN,trials_lextale_practice_loop.thisN,trials_lextale_practice_loop.thisIndex,trials_lextale_practice_loop.ran,stim,word,prac_button_real,prac_button_false,key_resp_lextale_trial.keys,key_resp_lextale_trial.corr,key_resp_lextale_trial.rt,trials_lextale_loop.thisRepN,trials_lextale_loop.thisTrialN,trials_lextale_loop.thisN,trials_lextale_loop.thisIndex,trials_lextale_loop.ran,button_real,button_false,key_resp_ac2.keys,key_resp_ac2.corr,key_resp_ac2.rt,check_pass,check_fails,ac2_loop.thisRepN,ac2_loop.thisTrialN,ac2_loop.thisN,ac2_loop.thisIndex,ac2_loop.ran,slider_eq_trial.response,trials_eq_loop.thisRepN,trials_eq_loop.thisTrialN,trials_eq_loop.thisN,trials_eq_loop.thisIndex,trials_eq_loop.ran,item,is_test_item,is_distractor,is_agree_score,is_disagree_score
0,0,0,0,1,"In the following task you are going to hear a series of utterances. 

  You will decide if the utterances sound like questions or not using your keyboard.",(press the spacebar to continue),5eb5c26dd25d2549d228fdf1,605b45a4d25f287719a41696,605fcdb0e1717bd70e6bbe9d,United States,East coast,13 or older,no,2021-03-27_20h29.16.843,empathy_intonation_perc,2020.2.10,Win32,60,,,,,,,,,,,,,,,,,,,,,,,,,,,,,,,,,,,,,,,,,,,,,,,,,,,,,,,,,,,,,,,,,,,,,,,,,,,,,,,,,,,,
0,1,1,1,1,"If you believe the utterance is a question, type '1' (for 'yes') and if you do not 
  believe it is a question type '0' (for 'no').

  Let's practice a bit...",(press the spacebar to continue),5eb5c26dd25d2549d228fdf1,605b45a4d25f287719a41696,605fcdb0e1717bd70e6bbe9d,United States,East coast,13 or older,no,2021-03-27_20h29.16.843,empathy_intonation_perc,2020.2.10,Win32,60,,,,,,,,,,,,,,,,,,,,,,,,,,,,,,,,,,,,,,,,,,,,,,,,,,,,,,,,,,,,,,,,,,,,,,,,,,,,,,,,,,,,
,,,,,,,5eb5c26dd25d2549d228fdf1,605b45a4d25f287719a41696,605fcdb0e1717bd70e6bbe9d,United States,East coast,13 or older,no,2021-03-27_20h29.16.843,empathy_intonation_perc,2020.2.10,Win32,60,0,1,1.963570001,0,0,0,4,1,./stim/wavs/cuban_statement_filler_Cocinabas-por-la-noche.wav,0,,,,,,,,,,,,,,,,,,,,,,,,,,,,,,,,,,,,,,,,,,,,,,,,,,,,,,,,,,,,,,,,,,,,,,,,,,
,,,,,,,5eb5c26dd25d2549d228fdf1,605b45a4d25f287719a41696,605fcdb0e1717bd70e6bbe9d,United States,East coast,13 or older,no,2021-03-27_20h29.16.843,empathy_intonation_perc,2020.2.10,Win32,60,0,1,4.24528,0,1,1,5,1,./stim/wavs/andalusian_statement_filler_Alberto-nunca-se-afeita.wav,0,,,,,,,,,,,,,,,,,,,,,,,,,,,,,,,,,,,,,,,,,,,,,,,,,,,,,,,,,,,,,,,,,,,,,,,,,,
,,,,,,,5eb5c26dd25d2549d228fdf1,605b45a4d25f287719a41696,605fcdb0e1717bd70e6bbe9d,United States,East coast,13 or older,no,2021-03-27_20h29.16.843,empathy_intonation_perc,2020.2.10,Win32,60,1,0,6.335955,0,2,2,7,1,./stim/wavs/puertorican_statement_filler_La-nina-pinta-con-su-amiga.wav,0,,,,,,,,,,,,,,,,,,,,,,,,,,,,,,,,,,,,,,,,,,,,,,,,,,,,,,,,,,,,,,,,,,,,,,,,,,
,,,,,,,5eb5c26dd25d2549d228fdf1,605b45a4d25f287719a41696,605fcdb0e1717bd70e6bbe9d,United States,East coast,13 or older,no,2021-03-27_20h29.16.843,empathy_intonation_perc,2020.2.10,Win32,60,1,1,2.07065,0,3,3,3,1,./stim/wavs/mexican_question_filler_Felipe-no-tiene-contrasena.wav,1,,,,,,,,,,,,,,,,,,,,,,,,,,,,,,,,,,,,,,,,,,,,,,,,,,,,,,,,,,,,,,,,,,,,,,,,,,
,,,,,,,5eb5c26dd25d2549d228fdf1,605b45a4d25f287719a41696,605fcdb0e1717bd70e6bbe9d,United States,East coast,13 or older,no,2021-03-27_20h29.16.843,empathy_intonation_perc,2020.2.10,Win32,60,1,1,1.905745,0,4,4,0,1,./stim/wavs/castilian_question_filler_Mi-esposo-conoce-al-chico.wav,1,,,,,,,,,,,,,,,,,,,,,,,,,,,,,,,,,,,,,,,,,,,,,,,,,,,,,,,,,,,,,,,,,,,,,,,,,,
,,,,,,,5eb5c26dd25d2549d228fdf1,605b45a4d25f287719a41696,605fcdb0e1717bd70e6bbe9d,United States,East coast,13 or older,no,2021-03-27_20h29.16.843,empathy_intonation_perc,2020.2.10,Win32,60,0,0,2.088555,0,5,5,2,1,./stim/wavs/chilean_question_filler_Mi-padre-cantaba-bien.wav,1,,,,,,,,,,,,,,,,,,,,,,,,,,,,,,,,,,,,,,,,,,,,,,,,,,,,,,,,,,,,,,,,,,,,,,,,,,
,,,,,,,5eb5c26dd25d2549d228fdf1,605b45a4d25f287719a41696,605fcdb0e1717bd70e6bbe9d,United States,East coast,13 or older,no,2021-03-27_20h29.16.843,empathy_intonation_perc,2020.2.10,Win32,60,1,1,1.491145,0,6,6,1,1,./stim/wavs/argentine_question_filler_Mi-vecino-habla-mucho.wav,1,,,,,,,,,,,,,,,,,,,,,,,,,,,,,,,,,,,,,,,,,,,,,,,,,,,,,,,,,,,,,,,,,,,,,,,,,,
,,,,,,,5eb5c26dd25d2549d228fdf1,605b45a4d25f287719a41696,605fcdb0e1717bd70e6bbe9d,United States,East coast,13 or older,no,2021-03-27_20h29.16.843,empathy_intonation_perc,2020.2.10,Win32,60,0,1,2.21025,0,7,7,6,1,./stim/wavs/peruvian_statement_filler_El-nino-habla-con-su-madre.wav,0,,,,,,,,,,,,,,,,,,,,,,,,,,,,,,,,,,,,,,,,,,,,,,,,,,,,,,,,,,,,,,,,,,,,,,,,,,
,,,,,,,5eb5c26dd25d2549d228fdf1,605b45a4d25f287719a41696,605fcdb0e1717bd70e6bbe9d,United States,East coast,13 or older,no,2021-03-27_20h29.16.843,empathy_intonation_perc,2020.2.10,Win32,60,,,,,,,,,,1,cuban,0,0,1.60618,0,0,0,49,1,50,./stim/wavs/andalusian_mismatch_interrogative-partial-wh_Cuando-lavaba-el-plato.wav,./stim/wavs/argentine_mismatch_interrogative-partial-wh_Cuando-lavaba-el-plato.wav,./stim/wavs/castilian_mismatch_interrogative-partial-wh_Cuando-lavaba-el-plato.wav,./stim/wavs/chilean_mismatch_interrogative-partial-wh_Cuando-lavaba-el-plato.wav,./stim/wavs/cuban_mismatch_interrogative-partial-wh_Cuando-lavaba-el-plato.wav,./stim/wavs/mexican_mismatch_interrogative-partial-wh_Cuando-lavaba-el-plato.wav,./stim/wavs/peruvian_mismatch_interrogative-partial-wh_Cuando-lavaba-el-plato.wav,./stim/wavs/puertorican_mismatch_interrogative-partial-wh_Cuando-lavaba-el-plato.wav,,,,,,,,,,,,,,,,,,,,,,,,,,,,,,,,,,,,,,,,,,,,,,,,,,,,,,,,
,,,,,,,5eb5c26dd25d2549d228fdf1,605b45a4d25f287719a41696,605fcdb0e1717bd70e6bbe9d,United States,East coast,13 or older,no,2021-03-27_20h29.16.843,empathy_intonation_perc,2020.2.10,Win32,60,,,,,,,,,,0,peruvian,0,1,1.86558,0,1,1,40,1,41,./stim/wavs/andalusian_mismatch_declarative-narrow-focus_El-bebe-comia-muy-bien.wav,./stim/wavs/argentine_mismatch_declarative-narrow-focus_El-bebe-comia-muy-bien.wav,./stim/wavs/castilian_mismatch_declarative-narrow-focus_El-bebe-comia-muy-bien.wav,./stim/wavs/chilean_mismatch_declarative-narrow-focus_El-bebe-comia-muy-bien.wav,./stim/wavs/cuban_mismatch_declarative-narrow-focus_El-bebe-comia-muy-bien.wav,./stim/wavs/mexican_mismatch_declarative-narrow-focus_El-bebe-comia-muy-bien.wav,./stim/wavs/peruvian_mismatch_declarative-narrow-focus_El-bebe-comia-muy-bien.wav,./stim/wavs/puertorican_mismatch_declarative-narrow-focus_El-bebe-comia-muy-bien.wav,,,,,,,,,,,,,,,,,,,,,,,,,,,,,,,,,,,,,,,,,,,,,,,,,,,,,,,,
,,,,,,,5eb5c26dd25d2549d228fdf1,605b45a4d25f287719a41696,605fcdb0e1717bd70e6bbe9d,United States,East coast,13 or older,no,2021-03-27_20h29.16.843,empathy_intonation_perc,2020.2.10,Win32,60,,,,,,,,,,0,andalusian,0,1,1.671095001,0,2,2,12,1,13,./stim/wavs/andalusian_match_declarative-narrow-focus_Manuela-vende-el-carro.wav,./stim/wavs/argentine_match_declarative-narrow-focus_Manuela-vende-el-carro.wav,./stim/wavs/castilian_match_declarative-narrow-focus_Manuela-vende-el-carro.wav,./stim/wavs/chilean_match_declarative-narrow-focus_Manuela-vende-el-carro.wav,./stim/wavs/cuban_match_declarative-narrow-focus_Manuela-vende-el-carro.wav,./stim/wavs/mexican_match_declarative-narrow-focus_Manuela-vende-el-carro.wav,./stim/wavs/peruvian_match_declarative-narrow-focus_Manuela-vende-el-carro.wav,./stim/wavs/puertorican_match_declarative-narrow-focus_Manuela-vende-el-carro.wav,,,,,,,,,,,,,,,,,,,,,,,,,,,,,,,,,,,,,,,,,,,,,,,,,,,,,,,,
,,,,,,,5eb5c26dd25d2549d228fdf1,605b45a4d25f287719a41696,605fcdb0e1717bd70e6bbe9d,United States,East coast,13 or older,no,2021-03-27_20h29.16.843,empathy_intonation_perc,2020.2.10,Win32,60,,,,,,,,,,1,andalusian,1,1,1.45138,0,3,3,26,1,27,./stim/wavs/andalusian_match_interrogative-total-yn_David-leia-el-libro.wav,./stim/wavs/argentine_match_interrogative-total-yn_David-leia-el-libro.wav,./stim/wavs/castilian_match_interrogative-total-yn_David-leia-el-libro.wav,./stim/wavs/chilean_match_interrogative-total-yn_David-leia-el-libro.wav,./stim/wavs/cuban_match_interrogative-total-yn_David-leia-el-libro.wav,./stim/wavs/mexican_match_interrogative-total-yn_David-leia-el-libro.wav,./stim/wavs/peruvian_match_interrogative-total-yn_David-leia-el-libro.wav,./stim/wavs/puertorican_match_interrogative-total-yn_David-leia-el-libro.wav,,,,,,,,,,,,,,,,,,,,,,,,,,,,,,,,,,,,,,,,,,,,,,,,,,,,,,,,
,,,,,,,5eb5c26dd25d2549d228fdf1,605b45a4d25f287719a41696,605fcdb0e1717bd70e6bbe9d,United States,East coast,13 or older,no,2021-03-27_20h29.16.843,empathy_intonation_perc,2020.2.10,Win32,60,,,,,,,,,,1,castilian,1,1,1.441765,0,4,4,57,1,58,./stim/wavs/andalusian_mismatch_interrogative-total-yn_El-hombre-mira-la-luna.wav,./stim/wavs/argentine_mismatch_interrogative-total-yn_El-hombre-mira-la-luna.wav,./stim/wavs/castilian_mismatch_interrogative-total-yn_El-hombre-mira-la-luna.wav,./stim/wavs/chilean_mismatch_interrogative-total-yn_El-hombre-mira-la-luna.wav,./stim/wavs/cuban_mismatch_interrogative-total-yn_El-hombre-mira-la-luna.wav,./stim/wavs/mexican_mismatch_interrogative-total-yn_El-hombre-mira-la-luna.wav,./stim/wavs/peruvian_mismatch_interrogative-total-yn_El-hombre-mira-la-luna.wav,./stim/wavs/puertorican_mismatch_interrogative-total-yn_El-hombre-mira-la-luna.wav,,,,,,,,,,,,,,,,,,,,,,,,,,,,,,,,,,,,,,,,,,,,,,,,,,,,,,,,
,,,,,,,5eb5c26dd25d2549d228fdf1,605b45a4d25f287719a41696,605fcdb0e1717bd70e6bbe9d,United States,East coast,13 or older,no,2021-03-27_20h29.16.843,empathy_intonation_perc,2020.2.10,Win32,60,,,,,,,,,,1,cuban,0,0,1.370395,0,5,5,58,1,59,./stim/wavs/andalusian_mismatch_interrogative-total-yn_El-nino-oye-el-rio.wav,./stim/wavs/argentine_mismatch_interrogative-total-yn_El-nino-oye-el-rio.wav,./stim/wavs/castilian_mismatch_interrogative-total-yn_El-nino-oye-el-rio.wav,./stim/wavs/chilean_mismatch_interrogative-total-yn_El-nino-oye-el-rio.wav,./stim/wavs/cuban_mismatch_interrogative-total-yn_El-nino-oye-el-rio.wav,./stim/wavs/mexican_mismatch_interrogative-total-yn_El-nino-oye-el-rio.wav,./stim/wavs/peruvian_mismatch_interrogative-total-yn_El-nino-oye-el-rio.wav,./stim/wavs/puertorican_mismatch_interrogative-total-yn_El-nino-oye-el-rio.wav,,,,,,,,,,,,,,,,,,,,,,,,,,,,,,,,,,,,,,,,,,,,,,,,,,,,,,,,
,,,,,,,5eb5c26dd25d2549d228fdf1,605b45a4d25f287719a41696,605fcdb0e1717bd70e6bbe9d,United States,East coast,13 or older,no,2021-03-27_20h29.16.843,empathy_intonation_perc,2020.2.10,Win32,60,,,,,,,,,,0,argentine,0,1,1.393999999,0,6,6,13,1,14,./stim/wavs/andalusian_match_declarative-narrow-focus_Maria-bebe-el-vino.wav,./stim/wavs/argentine_match_declarative-narrow-focus_Maria-bebe-el-vino.wav,./stim/wavs/castilian_match_declarative-narrow-focus_Maria-bebe-el-vino.wav,./stim/wavs/chilean_match_declarative-narrow-focus_Maria-bebe-el-vino.wav,./stim/wavs/cuban_match_declarative-narrow-focus_Maria-bebe-el-vino.wav,./stim/wavs/mexican_match_declarative-narrow-focus_Maria-bebe-el-vino.wav,./stim/wavs/peruvian_match_declarative-narrow-focus_Maria-bebe-el-vino.wav,./stim/wavs/puertorican_match_declarative-narrow-focus_Maria-bebe-el-vino.wav,,,,,,,,,,,,,,,,,,,,,,,,,,,,,,,,,,,,,,,,,,,,,,,,,,,,,,,,
,,,,,,,5eb5c26dd25d2549d228fdf1,605b45a4d25f287719a41696,605fcdb0e1717bd70e6bbe9d,United States,East coast,13 or older,no,2021-03-27_20h29.16.843,empathy_intonation_perc,2020.2.10,Win32,60,,,,,,,,,,1,cuban,0,0,1.652550001,0,7,7,59,1,60,./stim/wavs/andalusian_mismatch_interrogative-total-yn_La-maestra-vive-en-Paris.wav,./stim/wavs/argentine_mismatch_interrogative-total-yn_La-maestra-vive-en-Paris.wav,./stim/wavs/castilian_mismatch_interrogative-total-yn_La-maestra-vive-en-Paris.wav,./stim/wavs/chilean_mismatch_interrogative-total-yn_La-maestra-vive-en-Paris.wav,./stim/wavs/cuban_mismatch_interrogative-total-yn_La-maestra-vive-en-Paris.wav,./stim/wavs/mexican_mismatch_interrogative-total-yn_La-maestra-vive-en-Paris.wav,./stim/wavs/peruvian_mismatch_interrogative-total-yn_La-maestra-vive-en-Paris.wav,./stim/wavs/puertorican_mismatch_interrogative-total-yn_La-maestra-vive-en-Paris.wav,,,,,,,,,,,,,,,,,,,,,,,,,,,,,,,,,,,,,,,,,,,,,,,,,,,,,,,,
,,,,,,,5eb5c26dd25d2549d228fdf1,605b45a4d25f287719a41696,605fcdb0e1717bd70e6bbe9d,United States,East coast,13 or older,no,2021-03-27_20h29.16.843,empathy_intonation_perc,2020.2.10,Win32,60,,,,,,,,,,0,cuban,0,1,1.55636,0,8,8,47,1,48,./stim/wavs/andalusian_mismatch_declarative-narrow-focus_Mi-tia-odia-la-lluvia.wav,./stim/wavs/argentine_mismatch_declarative-narrow-focus_Mi-tia-odia-la-lluvia.wav,./stim/wavs/castilian_mismatch_declarative-narrow-focus_Mi-tia-odia-la-lluvia.wav,./stim/wavs/chilean_mismatch_declarative-narrow-focus_Mi-tia-odia-la-lluvia.wav,./stim/wavs/cuban_mismatch_declarative-narrow-focus_Mi-tia-odia-la-lluvia.wav,./stim/wavs/mexican_mismatch_declarative-narrow-focus_Mi-tia-odia-la-lluvia.wav,./stim/wavs/peruvian_mismatch_declarative-narrow-focus_Mi-tia-odia-la-lluvia.wav,./stim/wavs/puertorican_mismatch_declarative-narrow-focus_Mi-tia-odia-la-lluvia.wav,,,,,,,,,,,,,,,,,,,,,,,,,,,,,,,,,,,,,,,,,,,,,,,,,,,,,,,,
,,,,,,,5eb5c26dd25d2549d228fdf1,605b45a4d25f287719a41696,605fcdb0e1717bd70e6bbe9d,United States,East coast,13 or older,no,2021-03-27_20h29.16.843,empathy_intonation_perc,2020.2.10,Win32,60,,,,,,,,,,1,cuban,0,0,1.49289,0,9,9,20,1,21,./stim/wavs/andalusian_match_interrogative-partial-wh_Por-que-abre-el-regalo.wav,./stim/wavs/argentine_match_interrogative-partial-wh_Por-que-abre-el-regalo.wav,./stim/wavs/castilian_match_interrogative-partial-wh_Por-que-abre-el-regalo.wav,./stim/wavs/chilean_match_interrogative-partial-wh_Por-que-abre-el-regalo.wav,./stim/wavs/cuban_match_interrogative-partial-wh_Por-que-abre-el-regalo.wav,./stim/wavs/mexican_match_interrogative-partial-wh_Por-que-abre-el-regalo.wav,./stim/wavs/peruvian_match_interrogative-partial-wh_Por-que-abre-el-regalo.wav,./stim/wavs/puertorican_match_interrogative-partial-wh_Por-que-abre-el-regalo.wav,,,,,,,,,,,,,,,,,,,,,,,,,,,,,,,,,,,,,,,,,,,,,,,,,,,,,,,,
,,,,,,,5eb5c26dd25d2549d228fdf1,605b45a4d25f287719a41696,605fcdb0e1717bd70e6bbe9d,United States,East coast,13 or older,no,2021-03-27_20h29.16.843,empathy_intonation_perc,2020.2.10,Win32,60,,,,,,,,,,1,cuban,0,0,1.672235,0,10,10,21,1,22,./stim/wavs/andalusian_match_interrogative-partial-wh_Por-que-ama-la-navidad.wav,./stim/wavs/argentine_match_interrogative-partial-wh_Por-que-ama-la-navidad.wav,./stim/wavs/castilian_match_interrogative-partial-wh_Por-que-ama-la-navidad.wav,./stim/wavs/chilean_match_interrogative-partial-wh_Por-que-ama-la-navidad.wav,./stim/wavs/cuban_match_interrogative-partial-wh_Por-que-ama-la-navidad.wav,./stim/wavs/mexican_match_interrogative-partial-wh_Por-que-ama-la-navidad.wav,./stim/wavs/peruvian_match_interrogative-partial-wh_Por-que-ama-la-navidad.wav,./stim/wavs/puertorican_match_interrogative-partial-wh_Por-que-ama-la-navidad.wav,,,,,,,,,,,,,,,,,,,,,,,,,,,,,,,,,,,,,,,,,,,,,,,,,,,,,,,,
,,,,,,,5eb5c26dd25d2549d228fdf1,605b45a4d25f287719a41696,605fcdb0e1717bd70e6bbe9d,United States,East coast,13 or older,no,2021-03-27_20h29.16.843,empathy_intonation_perc,2020.2.10,Win32,60,,,,,,,,,,0,cuban,0,1,1.713375,0,11,11,38,1,39,./stim/wavs/andalusian_mismatch_declarative-broad-focus_Mi-novio-viene-del-lago.wav,./stim/wavs/argentine_mismatch_declarative-broad-focus_Mi-novio-viene-del-lago.wav,./stim/wavs/castilian_mismatch_declarative-broad-focus_Mi-novio-viene-del-lago.wav,./stim/wavs/chilean_mismatch_declarative-broad-focus_Mi-novio-viene-del-lago.wav,./stim/wavs/cuban_mismatch_declarative-broad-focus_Mi-novio-viene-del-lago.wav,./stim/wavs/mexican_mismatch_declarative-broad-focus_Mi-novio-viene-del-lago.wav,./stim/wavs/peruvian_mismatch_declarative-broad-focus_Mi-novio-viene-del-lago.wav,./stim/wavs/puertorican_mismatch_declarative-broad-focus_Mi-novio-viene-del-lago.wav,,,,,,,,,,,,,,,,,,,,,,,,,,,,,,,,,,,,,,,,,,,,,,,,,,,,,,,,
,,,,,,,5eb5c26dd25d2549d228fdf1,605b45a4d25f287719a41696,605fcdb0e1717bd70e6bbe9d,United States,East coast,13 or older,no,2021-03-27_20h29.16.843,empathy_intonation_perc,2020.2.10,Win32,60,,,,,,,,,,1,argentine,1,1,1.769800001,0,12,12,63,1,64,./stim/wavs/andalusian_mismatch_interrogative-total-yn_Mi-tia-odia-la-lluvia.wav,./stim/wavs/argentine_mismatch_interrogative-total-yn_Mi-tia-odia-la-lluvia.wav,./stim/wavs/castilian_mismatch_interrogative-total-yn_Mi-tia-odia-la-lluvia.wav,./stim/wavs/chilean_mismatch_interrogative-total-yn_Mi-tia-odia-la-lluvia.wav,./stim/wavs/cuban_mismatch_interrogative-total-yn_Mi-tia-odia-la-lluvia.wav,./stim/wavs/mexican_mismatch_interrogative-total-yn_Mi-tia-odia-la-lluvia.wav,./stim/wavs/peruvian_mismatch_interrogative-total-yn_Mi-tia-odia-la-lluvia.wav,./stim/wavs/puertorican_mismatch_interrogative-total-yn_Mi-tia-odia-la-lluvia.wav,,,,,,,,,,,,,,,,,,,,,,,,,,,,,,,,,,,,,,,,,,,,,,,,,,,,,,,,
,,,,,,,5eb5c26dd25d2549d228fdf1,605b45a4d25f287719a41696,605fcdb0e1717bd70e6bbe9d,United States,East coast,13 or older,no,2021-03-27_20h29.16.843,empathy_intonation_perc,2020.2.10,Win32,60,,,,,,,,,,1,argentine,1,1,1.51521,0,13,13,24,1,25,./stim/wavs/andalusian_match_interrogative-total-yn_Ana-lleva-el-abrigo.wav,./stim/wavs/argentine_match_interrogative-total-yn_Ana-lleva-el-abrigo.wav,./stim/wavs/castilian_match_interrogative-total-yn_Ana-lleva-el-abrigo.wav,./stim/wavs/chilean_match_interrogative-total-yn_Ana-lleva-el-abrigo.wav,./stim/wavs/cuban_match_interrogative-total-yn_Ana-lleva-el-abrigo.wav,./stim/wavs/mexican_match_interrogative-total-yn_Ana-lleva-el-abrigo.wav,./stim/wavs/peruvian_match_interrogative-total-yn_Ana-lleva-el-abrigo.wav,./stim/wavs/puertorican_match_interrogative-total-yn_Ana-lleva-el-abrigo.wav,,,,,,,,,,,,,,,,,,,,,,,,,,,,,,,,,,,,,,,,,,,,,,,,,,,,,,,,
,,,,,,,5eb5c26dd25d2549d228fdf1,605b45a4d25f287719a41696,605fcdb0e1717bd70e6bbe9d,United States,East coast,13 or older,no,2021-03-27_20h29.16.843,empathy_intonation_perc,2020.2.10,Win32,60,,,,,,,,,,1,chilean,1,1,1.670094999,0,14,14,62,1,63,./stim/wavs/andalusian_mismatch_interrogative-total-yn_Mi-novio-viene-del-lago.wav,./stim/wavs/argentine_mismatch_interrogative-total-yn_Mi-novio-viene-del-lago.wav,./stim/wavs/castilian_mismatch_interrogative-total-yn_Mi-novio-viene-del-lago.wav,./stim/wavs/chilean_mismatch_interrogative-total-yn_Mi-novio-viene-del-lago.wav,./stim/wavs/cuban_mismatch_interrogative-total-yn_Mi-novio-viene-del-lago.wav,./stim/wavs/mexican_mismatch_interrogative-total-yn_Mi-novio-viene-del-lago.wav,./stim/wavs/peruvian_mismatch_interrogative-total-yn_Mi-novio-viene-del-lago.wav,./stim/wavs/puertorican_mismatch_interrogative-total-yn_Mi-novio-viene-del-lago.wav,,,,,,,,,,,,,,,,,,,,,,,,,,,,,,,,,,,,,,,,,,,,,,,,,,,,,,,,
,,,,,,,5eb5c26dd25d2549d228fdf1,605b45a4d25f287719a41696,605fcdb0e1717bd70e6bbe9d,United States,East coast,13 or older,no,2021-03-27_20h29.16.843,empathy_intonation_perc,2020.2.10,Win32,60,,,,,,,,,,0,castilian,0,1,1.78597,0,15,15,41,1,42,./stim/wavs/andalusian_mismatch_declarative-narrow-focus_El-hombre-mira-la-luna.wav,./stim/wavs/argentine_mismatch_declarative-narrow-focus_El-hombre-mira-la-luna.wav,./stim/wavs/castilian_mismatch_declarative-narrow-focus_El-hombre-mira-la-luna.wav,./stim/wavs/chilean_mismatch_declarative-narrow-focus_El-hombre-mira-la-luna.wav,./stim/wavs/cuban_mismatch_declarative-narrow-focus_El-hombre-mira-la-luna.wav,./stim/wavs/mexican_mismatch_declarative-narrow-focus_El-hombre-mira-la-luna.wav,./stim/wavs/peruvian_mismatch_declarative-narrow-focus_El-hombre-mira-la-luna.wav,./stim/wavs/puertorican_mismatch_declarative-narrow-focus_El-hombre-mira-la-luna.wav,,,,,,,,,,,,,,,,,,,,,,,,,,,,,,,,,,,,,,,,,,,,,,,,,,,,,,,,
,,,,,,,5eb5c26dd25d2549d228fdf1,605b45a4d25f287719a41696,605fcdb0e1717bd70e6bbe9d,United States,East coast,13 or older,no,2021-03-27_20h29.16.843,empathy_intonation_perc,2020.2.10,Win32,60,,,,,,,,,,1,chilean,0,0,1.806155,0,16,16,31,1,32,./stim/wavs/andalusian_match_interrogative-total-yn_Marta-abre-el-regalo.wav,./stim/wavs/argentine_match_interrogative-total-yn_Marta-abre-el-regalo.wav,./stim/wavs/castilian_match_interrogative-total-yn_Marta-abre-el-regalo.wav,./stim/wavs/chilean_match_interrogative-total-yn_Marta-abre-el-regalo.wav,./stim/wavs/cuban_match_interrogative-total-yn_Marta-abre-el-regalo.wav,./stim/wavs/mexican_match_interrogative-total-yn_Marta-abre-el-regalo.wav,./stim/wavs/peruvian_match_interrogative-total-yn_Marta-abre-el-regalo.wav,./stim/wavs/puertorican_match_interrogative-total-yn_Marta-abre-el-regalo.wav,,,,,,,,,,,,,,,,,,,,,,,,,,,,,,,,,,,,,,,,,,,,,,,,,,,,,,,,
,,,,,,,5eb5c26dd25d2549d228fdf1,605b45a4d25f287719a41696,605fcdb0e1717bd70e6bbe9d,United States,East coast,13 or older,no,2021-03-27_20h29.16.843,empathy_intonation_perc,2020.2.10,Win32,60,,,,,,,,,,1,puertorican,0,0,1.704489999,0,17,17,51,1,52,./stim/wavs/andalusian_mismatch_interrogative-partial-wh_Por-que-desayuna-muy-bien.wav,./stim/wavs/argentine_mismatch_interrogative-partial-wh_Por-que-desayuna-muy-bien.wav,./stim/wavs/castilian_mismatch_interrogative-partial-wh_Por-que-desayuna-muy-bien.wav,./stim/wavs/chilean_mismatch_interrogative-partial-wh_Por-que-desayuna-muy-bien.wav,./stim/wavs/cuban_mismatch_interrogative-partial-wh_Por-que-desayuna-muy-bien.wav,./stim/wavs/mexican_mismatch_interrogative-partial-wh_Por-que-desayuna-muy-bien.wav,./stim/wavs/peruvian_mismatch_interrogative-partial-wh_Por-que-desayuna-muy-bien.wav,./stim/wavs/puertorican_mismatch_interrogative-partial-wh_Por-que-desayuna-muy-bien.wav,,,,,,,,,,,,,,,,,,,,,,,,,,,,,,,,,,,,,,,,,,,,,,,,,,,,,,,,
,,,,,,,5eb5c26dd25d2549d228fdf1,605b45a4d25f287719a41696,605fcdb0e1717bd70e6bbe9d,United States,East coast,13 or older,no,2021-03-27_20h29.16.843,empathy_intonation_perc,2020.2.10,Win32,60,,,,,,,,,,1,peruvian,1,1,1.92231,0,18,18,28,1,29,./stim/wavs/andalusian_match_interrogative-total-yn_Manuela-vende-el-carro.wav,./stim/wavs/argentine_match_interrogative-total-yn_Manuela-vende-el-carro.wav,./stim/wavs/castilian_match_interrogative-total-yn_Manuela-vende-el-carro.wav,./stim/wavs/chilean_match_interrogative-total-yn_Manuela-vende-el-carro.wav,./stim/wavs/cuban_match_interrogative-total-yn_Manuela-vende-el-carro.wav,./stim/wavs/mexican_match_interrogative-total-yn_Manuela-vende-el-carro.wav,./stim/wavs/peruvian_match_interrogative-total-yn_Manuela-vende-el-carro.wav,./stim/wavs/puertorican_match_interrogative-total-yn_Manuela-vende-el-carro.wav,,,,,,,,,,,,,,,,,,,,,,,,,,,,,,,,,,,,,,,,,,,,,,,,,,,,,,,,
,,,,,,,5eb5c26dd25d2549d228fdf1,605b45a4d25f287719a41696,605fcdb0e1717bd70e6bbe9d,United States,East coast,13 or older,no,2021-03-27_20h29.16.843,empathy_intonation_perc,2020.2.10,Win32,60,,,,,,,,,,0,puertorican,0,1,1.734985,0,19,19,7,1,8,./stim/wavs/andalusian_match_declarative-broad-focus_Marta-abre-el-regalo.wav,./stim/wavs/argentine_match_declarative-broad-focus_Marta-abre-el-regalo.wav,./stim/wavs/castilian_match_declarative-broad-focus_Marta-abre-el-regalo.wav,./stim/wavs/chilean_match_declarative-broad-focus_Marta-abre-el-regalo.wav,./stim/wavs/cuban_match_declarative-broad-focus_Marta-abre-el-regalo.wav,./stim/wavs/mexican_match_declarative-broad-focus_Marta-abre-el-regalo.wav,./stim/wavs/peruvian_match_declarative-broad-focus_Marta-abre-el-regalo.wav,./stim/wavs/puertorican_match_declarative-broad-focus_Marta-abre-el-regalo.wav,,,,,,,,,,,,,,,,,,,,,,,,,,,,,,,,,,,,,,,,,,,,,,,,,,,,,,,,
,,,,,,,5eb5c26dd25d2549d228fdf1,605b45a4d25f287719a41696,605fcdb0e1717bd70e6bbe9d,United States,East coast,13 or older,no,2021-03-27_20h29.16.843,empathy_intonation_perc,2020.2.10,Win32,60,,,,,,,,,,1,castilian,1,1,1.53654,0,20,20,16,1,17,./stim/wavs/andalusian_match_interrogative-partial-wh_Cuando-bebia-el-vino.wav,./stim/wavs/argentine_match_interrogative-partial-wh_Cuando-bebia-el-vino.wav,./stim/wavs/castilian_match_interrogative-partial-wh_Cuando-bebia-el-vino.wav,./stim/wavs/chilean_match_interrogative-partial-wh_Cuando-bebia-el-vino.wav,./stim/wavs/cuban_match_interrogative-partial-wh_Cuando-bebia-el-vino.wav,./stim/wavs/mexican_match_interrogative-partial-wh_Cuando-bebia-el-vino.wav,./stim/wavs/peruvian_match_interrogative-partial-wh_Cuando-bebia-el-vino.wav,./stim/wavs/puertorican_match_interrogative-partial-wh_Cuando-bebia-el-vino.wav,,,,,,,,,,,,,,,,,,,,,,,,,,,,,,,,,,,,,,,,,,,,,,,,,,,,,,,,
,,,,,,,5eb5c26dd25d2549d228fdf1,605b45a4d25f287719a41696,605fcdb0e1717bd70e6bbe9d,United States,East coast,13 or older,no,2021-03-27_20h29.16.843,empathy_intonation_perc,2020.2.10,Win32,60,,,,,,,,,,0,chilean,0,1,1.554545,0,21,21,3,1,4,./stim/wavs/andalusian_match_declarative-broad-focus_Emilio-ama-la-marcha.wav,./stim/wavs/argentine_match_declarative-broad-focus_Emilio-ama-la-marcha.wav,./stim/wavs/castilian_match_declarative-broad-focus_Emilio-ama-la-marcha.wav,./stim/wavs/chilean_match_declarative-broad-focus_Emilio-ama-la-marcha.wav,./stim/wavs/cuban_match_declarative-broad-focus_Emilio-ama-la-marcha.wav,./stim/wavs/mexican_match_declarative-broad-focus_Emilio-ama-la-marcha.wav,./stim/wavs/peruvian_match_declarative-broad-focus_Emilio-ama-la-marcha.wav,./stim/wavs/puertorican_match_declarative-broad-focus_Emilio-ama-la-marcha.wav,,,,,,,,,,,,,,,,,,,,,,,,,,,,,,,,,,,,,,,,,,,,,,,,,,,,,,,,
,,,,,,,5eb5c26dd25d2549d228fdf1,605b45a4d25f287719a41696,605fcdb0e1717bd70e6bbe9d,United States,East coast,13 or older,no,2021-03-27_20h29.16.843,empathy_intonation_perc,2020.2.10,Win32,60,,,,,,,,,,1,andalusian,0,0,1.7561,0,22,22,18,1,19,./stim/wavs/andalusian_match_interrogative-partial-wh_Cuando-lleva-el-abrigo.wav,./stim/wavs/argentine_match_interrogative-partial-wh_Cuando-lleva-el-abrigo.wav,./stim/wavs/castilian_match_interrogative-partial-wh_Cuando-lleva-el-abrigo.wav,./stim/wavs/chilean_match_interrogative-partial-wh_Cuando-lleva-el-abrigo.wav,./stim/wavs/cuban_match_interrogative-partial-wh_Cuando-lleva-el-abrigo.wav,./stim/wavs/mexican_match_interrogative-partial-wh_Cuando-lleva-el-abrigo.wav,./stim/wavs/peruvian_match_interrogative-partial-wh_Cuando-lleva-el-abrigo.wav,./stim/wavs/puertorican_match_interrogative-partial-wh_Cuando-lleva-el-abrigo.wav,,,,,,,,,,,,,,,,,,,,,,,,,,,,,,,,,,,,,,,,,,,,,,,,,,,,,,,,
,,,,,,,5eb5c26dd25d2549d228fdf1,605b45a4d25f287719a41696,605fcdb0e1717bd70e6bbe9d,United States,East coast,13 or older,no,2021-03-27_20h29.16.843,empathy_intonation_perc,2020.2.10,Win32,60,,,,,,,,,,0,andalusian,0,1,1.719965001,0,23,23,14,1,15,./stim/wavs/andalusian_match_declarative-narrow-focus_Mariano-habla-del-tiempo.wav,./stim/wavs/argentine_match_declarative-narrow-focus_Mariano-habla-del-tiempo.wav,./stim/wavs/castilian_match_declarative-narrow-focus_Mariano-habla-del-tiempo.wav,./stim/wavs/chilean_match_declarative-narrow-focus_Mariano-habla-del-tiempo.wav,./stim/wavs/cuban_match_declarative-narrow-focus_Mariano-habla-del-tiempo.wav,./stim/wavs/mexican_match_declarative-narrow-focus_Mariano-habla-del-tiempo.wav,./stim/wavs/peruvian_match_declarative-narrow-focus_Mariano-habla-del-tiempo.wav,./stim/wavs/puertorican_match_declarative-narrow-focus_Mariano-habla-del-tiempo.wav,,,,,,,,,,,,,,,,,,,,,,,,,,,,,,,,,,,,,,,,,,,,,,,,,,,,,,,,
,,,,,,,5eb5c26dd25d2549d228fdf1,605b45a4d25f287719a41696,605fcdb0e1717bd70e6bbe9d,United States,East coast,13 or older,no,2021-03-27_20h29.16.843,empathy_intonation_perc,2020.2.10,Win32,60,,,,,,,,,,0,cuban,0,1,1.57528,0,24,24,37,1,38,./stim/wavs/andalusian_mismatch_declarative-broad-focus_Mi-madre-come-la-fruta.wav,./stim/wavs/argentine_mismatch_declarative-broad-focus_Mi-madre-come-la-fruta.wav,./stim/wavs/castilian_mismatch_declarative-broad-focus_Mi-madre-come-la-fruta.wav,./stim/wavs/chilean_mismatch_declarative-broad-focus_Mi-madre-come-la-fruta.wav,./stim/wavs/cuban_mismatch_declarative-broad-focus_Mi-madre-come-la-fruta.wav,./stim/wavs/mexican_mismatch_declarative-broad-focus_Mi-madre-come-la-fruta.wav,./stim/wavs/peruvian_mismatch_declarative-broad-focus_Mi-madre-come-la-fruta.wav,./stim/wavs/puertorican_mismatch_declarative-broad-focus_Mi-madre-come-la-fruta.wav,,,,,,,,,,,,,,,,,,,,,,,,,,,,,,,,,,,,,,,,,,,,,,,,,,,,,,,,
,,,,,,,5eb5c26dd25d2549d228fdf1,605b45a4d25f287719a41696,605fcdb0e1717bd70e6bbe9d,United States,East coast,13 or older,no,2021-03-27_20h29.16.843,empathy_intonation_perc,2020.2.10,Win32,60,,,,,,,,,,0,argentine,0,1,1.54199,0,25,25,2,1,3,./stim/wavs/andalusian_match_declarative-broad-focus_David-leia-el-libro.wav,./stim/wavs/argentine_match_declarative-broad-focus_David-leia-el-libro.wav,./stim/wavs/castilian_match_declarative-broad-focus_David-leia-el-libro.wav,./stim/wavs/chilean_match_declarative-broad-focus_David-leia-el-libro.wav,./stim/wavs/cuban_match_declarative-broad-focus_David-leia-el-libro.wav,./stim/wavs/mexican_match_declarative-broad-focus_David-leia-el-libro.wav,./stim/wavs/peruvian_match_declarative-broad-focus_David-leia-el-libro.wav,./stim/wavs/puertorican_match_declarative-broad-focus_David-leia-el-libro.wav,,,,,,,,,,,,,,,,,,,,,,,,,,,,,,,,,,,,,,,,,,,,,,,,,,,,,,,,
,,,,,,,5eb5c26dd25d2549d228fdf1,605b45a4d25f287719a41696,605fcdb0e1717bd70e6bbe9d,United States,East coast,13 or older,no,2021-03-27_20h29.16.843,empathy_intonation_perc,2020.2.10,Win32,60,,,,,,,,,,0,cuban,0,1,1.305105,0,26,26,8,1,9,./stim/wavs/andalusian_match_declarative-narrow-focus_Ana-lleva-el-abrigo.wav,./stim/wavs/argentine_match_declarative-narrow-focus_Ana-lleva-el-abrigo.wav,./stim/wavs/castilian_match_declarative-narrow-focus_Ana-lleva-el-abrigo.wav,./stim/wavs/chilean_match_declarative-narrow-focus_Ana-lleva-el-abrigo.wav,./stim/wavs/cuban_match_declarative-narrow-focus_Ana-lleva-el-abrigo.wav,./stim/wavs/mexican_match_declarative-narrow-focus_Ana-lleva-el-abrigo.wav,./stim/wavs/peruvian_match_declarative-narrow-focus_Ana-lleva-el-abrigo.wav,./stim/wavs/puertorican_match_declarative-narrow-focus_Ana-lleva-el-abrigo.wav,,,,,,,,,,,,,,,,,,,,,,,,,,,,,,,,,,,,,,,,,,,,,,,,,,,,,,,,
,,,,,,,5eb5c26dd25d2549d228fdf1,605b45a4d25f287719a41696,605fcdb0e1717bd70e6bbe9d,United States,East coast,13 or older,no,2021-03-27_20h29.16.843,empathy_intonation_perc,2020.2.10,Win32,60,,,,,,,,,,0,cuban,0,1,1.58818,0,27,27,46,1,47,./stim/wavs/andalusian_mismatch_declarative-narrow-focus_Mi-novio-viene-del-lago.wav,./stim/wavs/argentine_mismatch_declarative-narrow-focus_Mi-novio-viene-del-lago.wav,./stim/wavs/castilian_mismatch_declarative-narrow-focus_Mi-novio-viene-del-lago.wav,./stim/wavs/chilean_mismatch_declarative-narrow-focus_Mi-novio-viene-del-lago.wav,./stim/wavs/cuban_mismatch_declarative-narrow-focus_Mi-novio-viene-del-lago.wav,./stim/wavs/mexican_mismatch_declarative-narrow-focus_Mi-novio-viene-del-lago.wav,./stim/wavs/peruvian_mismatch_declarative-narrow-focus_Mi-novio-viene-del-lago.wav,./stim/wavs/puertorican_mismatch_declarative-narrow-focus_Mi-novio-viene-del-lago.wav,,,,,,,,,,,,,,,,,,,,,,,,,,,,,,,,,,,,,,,,,,,,,,,,,,,,,,,,
,,,,,,,5eb5c26dd25d2549d228fdf1,605b45a4d25f287719a41696,605fcdb0e1717bd70e6bbe9d,United States,East coast,13 or older,no,2021-03-27_20h29.16.843,empathy_intonation_perc,2020.2.10,Win32,60,,,,,,,,,,1,puertorican,0,0,1.653519999,0,28,28,61,1,62,./stim/wavs/andalusian_mismatch_interrogative-total-yn_Mi-madre-come-la-fruta.wav,./stim/wavs/argentine_mismatch_interrogative-total-yn_Mi-madre-come-la-fruta.wav,./stim/wavs/castilian_mismatch_interrogative-total-yn_Mi-madre-come-la-fruta.wav,./stim/wavs/chilean_mismatch_interrogative-total-yn_Mi-madre-come-la-fruta.wav,./stim/wavs/cuban_mismatch_interrogative-total-yn_Mi-madre-come-la-fruta.wav,./stim/wavs/mexican_mismatch_interrogative-total-yn_Mi-madre-come-la-fruta.wav,./stim/wavs/peruvian_mismatch_interrogative-total-yn_Mi-madre-come-la-fruta.wav,./stim/wavs/puertorican_mismatch_interrogative-total-yn_Mi-madre-come-la-fruta.wav,,,,,,,,,,,,,,,,,,,,,,,,,,,,,,,,,,,,,,,,,,,,,,,,,,,,,,,,
,,,,,,,5eb5c26dd25d2549d228fdf1,605b45a4d25f287719a41696,605fcdb0e1717bd70e6bbe9d,United States,East coast,13 or older,no,2021-03-27_20h29.16.843,empathy_intonation_perc,2020.2.10,Win32,60,,,,,,,,,,0,puertorican,0,1,1.521585001,0,29,29,33,1,34,./stim/wavs/andalusian_mismatch_declarative-broad-focus_El-hombre-mira-la-luna.wav,./stim/wavs/argentine_mismatch_declarative-broad-focus_El-hombre-mira-la-luna.wav,./stim/wavs/castilian_mismatch_declarative-broad-focus_El-hombre-mira-la-luna.wav,./stim/wavs/chilean_mismatch_declarative-broad-focus_El-hombre-mira-la-luna.wav,./stim/wavs/cuban_mismatch_declarative-broad-focus_El-hombre-mira-la-luna.wav,./stim/wavs/mexican_mismatch_declarative-broad-focus_El-hombre-mira-la-luna.wav,./stim/wavs/peruvian_mismatch_declarative-broad-focus_El-hombre-mira-la-luna.wav,./stim/wavs/puertorican_mismatch_declarative-broad-focus_El-hombre-mira-la-luna.wav,,,,,,,,,,,,,,,,,,,,,,,,,,,,,,,,,,,,,,,,,,,,,,,,,,,,,,,,
,,,,,,,5eb5c26dd25d2549d228fdf1,605b45a4d25f287719a41696,605fcdb0e1717bd70e6bbe9d,United States,East coast,13 or older,no,2021-03-27_20h29.16.843,empathy_intonation_perc,2020.2.10,Win32,60,,,,,,,,,,1,peruvian,0,0,1.89108,0,30,30,22,1,23,./stim/wavs/andalusian_match_interrogative-partial-wh_Por-que-hablaba-del-agua.wav,./stim/wavs/argentine_match_interrogative-partial-wh_Por-que-hablaba-del-agua.wav,./stim/wavs/castilian_match_interrogative-partial-wh_Por-que-hablaba-del-agua.wav,./stim/wavs/chilean_match_interrogative-partial-wh_Por-que-hablaba-del-agua.wav,./stim/wavs/cuban_match_interrogative-partial-wh_Por-que-hablaba-del-agua.wav,./stim/wavs/mexican_match_interrogative-partial-wh_Por-que-hablaba-del-agua.wav,./stim/wavs/peruvian_match_interrogative-partial-wh_Por-que-hablaba-del-agua.wav,./stim/wavs/puertorican_match_interrogative-partial-wh_Por-que-hablaba-del-agua.wav,,,,,,,,,,,,,,,,,,,,,,,,,,,,,,,,,,,,,,,,,,,,,,,,,,,,,,,,
,,,,,,,5eb5c26dd25d2549d228fdf1,605b45a4d25f287719a41696,605fcdb0e1717bd70e6bbe9d,United States,East coast,13 or older,no,2021-03-27_20h29.16.843,empathy_intonation_perc,2020.2.10,Win32,60,,,,,,,,,,0,puertorican,0,1,1.859655,0,31,31,1,1,2,./stim/wavs/andalusian_match_declarative-broad-focus_Daniel-iba-a-Bolivia.wav,./stim/wavs/argentine_match_declarative-broad-focus_Daniel-iba-a-Bolivia.wav,./stim/wavs/castilian_match_declarative-broad-focus_Daniel-iba-a-Bolivia.wav,./stim/wavs/chilean_match_declarative-broad-focus_Daniel-iba-a-Bolivia.wav,./stim/wavs/cuban_match_declarative-broad-focus_Daniel-iba-a-Bolivia.wav,./stim/wavs/mexican_match_declarative-broad-focus_Daniel-iba-a-Bolivia.wav,./stim/wavs/peruvian_match_declarative-broad-focus_Daniel-iba-a-Bolivia.wav,./stim/wavs/puertorican_match_declarative-broad-focus_Daniel-iba-a-Bolivia.wav,,,,,,,,,,,,,,,,,,,,,,,,,,,,,,,,,,,,,,,,,,,,,,,,,,,,,,,,
,,,,,,,5eb5c26dd25d2549d228fdf1,605b45a4d25f287719a41696,605fcdb0e1717bd70e6bbe9d,United States,East coast,13 or older,no,2021-03-27_20h29.16.843,empathy_intonation_perc,2020.2.10,Win32,60,,,,,,,,,,1,andalusian,0,0,2.12483,0,32,32,56,1,57,./stim/wavs/andalusian_mismatch_interrogative-total-yn_El-bebe-comia-muy-bien.wav,./stim/wavs/argentine_mismatch_interrogative-total-yn_El-bebe-comia-muy-bien.wav,./stim/wavs/castilian_mismatch_interrogative-total-yn_El-bebe-comia-muy-bien.wav,./stim/wavs/chilean_mismatch_interrogative-total-yn_El-bebe-comia-muy-bien.wav,./stim/wavs/cuban_mismatch_interrogative-total-yn_El-bebe-comia-muy-bien.wav,./stim/wavs/mexican_mismatch_interrogative-total-yn_El-bebe-comia-muy-bien.wav,./stim/wavs/peruvian_mismatch_interrogative-total-yn_El-bebe-comia-muy-bien.wav,./stim/wavs/puertorican_mismatch_interrogative-total-yn_El-bebe-comia-muy-bien.wav,,,,,,,,,,,,,,,,,,,,,,,,,,,,,,,,,,,,,,,,,,,,,,,,,,,,,,,,
,,,,,,,5eb5c26dd25d2549d228fdf1,605b45a4d25f287719a41696,605fcdb0e1717bd70e6bbe9d,United States,East coast,13 or older,no,2021-03-27_20h29.16.843,empathy_intonation_perc,2020.2.10,Win32,60,,,,,,,,,,1,castilian,1,1,1.65338,0,33,33,55,1,56,./stim/wavs/andalusian_mismatch_interrogative-partial-wh_Por-que-vivia-en-Paris.wav,./stim/wavs/argentine_mismatch_interrogative-partial-wh_Por-que-vivia-en-Paris.wav,./stim/wavs/castilian_mismatch_interrogative-partial-wh_Por-que-vivia-en-Paris.wav,./stim/wavs/chilean_mismatch_interrogative-partial-wh_Por-que-vivia-en-Paris.wav,./stim/wavs/cuban_mismatch_interrogative-partial-wh_Por-que-vivia-en-Paris.wav,./stim/wavs/mexican_mismatch_interrogative-partial-wh_Por-que-vivia-en-Paris.wav,./stim/wavs/peruvian_mismatch_interrogative-partial-wh_Por-que-vivia-en-Paris.wav,./stim/wavs/puertorican_mismatch_interrogative-partial-wh_Por-que-vivia-en-Paris.wav,,,,,,,,,,,,,,,,,,,,,,,,,,,,,,,,,,,,,,,,,,,,,,,,,,,,,,,,
,,,,,,,5eb5c26dd25d2549d228fdf1,605b45a4d25f287719a41696,605fcdb0e1717bd70e6bbe9d,United States,East coast,13 or older,no,2021-03-27_20h29.16.843,empathy_intonation_perc,2020.2.10,Win32,60,,,,,,,,,,0,andalusian,0,1,1.5157,0,34,34,42,1,43,./stim/wavs/andalusian_mismatch_declarative-narrow-focus_El-nino-oye-el-rio.wav,./stim/wavs/argentine_mismatch_declarative-narrow-focus_El-nino-oye-el-rio.wav,./stim/wavs/castilian_mismatch_declarative-narrow-focus_El-nino-oye-el-rio.wav,./stim/wavs/chilean_mismatch_declarative-narrow-focus_El-nino-oye-el-rio.wav,./stim/wavs/cuban_mismatch_declarative-narrow-focus_El-nino-oye-el-rio.wav,./stim/wavs/mexican_mismatch_declarative-narrow-focus_El-nino-oye-el-rio.wav,./stim/wavs/peruvian_mismatch_declarative-narrow-focus_El-nino-oye-el-rio.wav,./stim/wavs/puertorican_mismatch_declarative-narrow-focus_El-nino-oye-el-rio.wav,,,,,,,,,,,,,,,,,,,,,,,,,,,,,,,,,,,,,,,,,,,,,,,,,,,,,,,,
,,,,,,,5eb5c26dd25d2549d228fdf1,605b45a4d25f287719a41696,605fcdb0e1717bd70e6bbe9d,United States,East coast,13 or older,no,2021-03-27_20h29.16.843,empathy_intonation_perc,2020.2.10,Win32,60,,,,,,,,,,1,chilean,1,1,1.655925,0,35,35,53,1,54,./stim/wavs/andalusian_mismatch_interrogative-partial-wh_Por-que-oia-el-rio.wav,./stim/wavs/argentine_mismatch_interrogative-partial-wh_Por-que-oia-el-rio.wav,./stim/wavs/castilian_mismatch_interrogative-partial-wh_Por-que-oia-el-rio.wav,./stim/wavs/chilean_mismatch_interrogative-partial-wh_Por-que-oia-el-rio.wav,./stim/wavs/cuban_mismatch_interrogative-partial-wh_Por-que-oia-el-rio.wav,./stim/wavs/mexican_mismatch_interrogative-partial-wh_Por-que-oia-el-rio.wav,./stim/wavs/peruvian_mismatch_interrogative-partial-wh_Por-que-oia-el-rio.wav,./stim/wavs/puertorican_mismatch_interrogative-partial-wh_Por-que-oia-el-rio.wav,,,,,,,,,,,,,,,,,,,,,,,,,,,,,,,,,,,,,,,,,,,,,,,,,,,,,,,,
,,,,,,,5eb5c26dd25d2549d228fdf1,605b45a4d25f287719a41696,605fcdb0e1717bd70e6bbe9d,United States,East coast,13 or older,no,2021-03-27_20h29.16.843,empathy_intonation_perc,2020.2.10,Win32,60,,,,,,,,,,1,andalusian,0,0,1.519855,0,36,36,50,1,51,./stim/wavs/andalusian_mismatch_interrogative-partial-wh_Cuando-miraba-la-luna.wav,./stim/wavs/argentine_mismatch_interrogative-partial-wh_Cuando-miraba-la-luna.wav,./stim/wavs/castilian_mismatch_interrogative-partial-wh_Cuando-miraba-la-luna.wav,./stim/wavs/chilean_mismatch_interrogative-partial-wh_Cuando-miraba-la-luna.wav,./stim/wavs/cuban_mismatch_interrogative-partial-wh_Cuando-miraba-la-luna.wav,./stim/wavs/mexican_mismatch_interrogative-partial-wh_Cuando-miraba-la-luna.wav,./stim/wavs/peruvian_mismatch_interrogative-partial-wh_Cuando-miraba-la-luna.wav,./stim/wavs/puertorican_mismatch_interrogative-partial-wh_Cuando-miraba-la-luna.wav,,,,,,,,,,,,,,,,,,,,,,,,,,,,,,,,,,,,,,,,,,,,,,,,,,,,,,,,
,,,,,,,5eb5c26dd25d2549d228fdf1,605b45a4d25f287719a41696,605fcdb0e1717bd70e6bbe9d,United States,East coast,13 or older,no,2021-03-27_20h29.16.843,empathy_intonation_perc,2020.2.10,Win32,60,,,,,,,,,,0,puertorican,0,1,1.454365,0,37,37,44,1,45,./stim/wavs/andalusian_mismatch_declarative-narrow-focus_La-nina-lava-el-plato.wav,./stim/wavs/argentine_mismatch_declarative-narrow-focus_La-nina-lava-el-plato.wav,./stim/wavs/castilian_mismatch_declarative-narrow-focus_La-nina-lava-el-plato.wav,./stim/wavs/chilean_mismatch_declarative-narrow-focus_La-nina-lava-el-plato.wav,./stim/wavs/cuban_mismatch_declarative-narrow-focus_La-nina-lava-el-plato.wav,./stim/wavs/mexican_mismatch_declarative-narrow-focus_La-nina-lava-el-plato.wav,./stim/wavs/peruvian_mismatch_declarative-narrow-focus_La-nina-lava-el-plato.wav,./stim/wavs/puertorican_mismatch_declarative-narrow-focus_La-nina-lava-el-plato.wav,,,,,,,,,,,,,,,,,,,,,,,,,,,,,,,,,,,,,,,,,,,,,,,,,,,,,,,,
,,,,,,,5eb5c26dd25d2549d228fdf1,605b45a4d25f287719a41696,605fcdb0e1717bd70e6bbe9d,United States,East coast,13 or older,no,2021-03-27_20h29.16.843,empathy_intonation_perc,2020.2.10,Win32,60,,,,,,,,,,0,castilian,0,1,1.902935,0,38,38,43,1,44,./stim/wavs/andalusian_mismatch_declarative-narrow-focus_La-maestra-vive-en-Paris.wav,./stim/wavs/argentine_mismatch_declarative-narrow-focus_La-maestra-vive-en-Paris.wav,./stim/wavs/castilian_mismatch_declarative-narrow-focus_La-maestra-vive-en-Paris.wav,./stim/wavs/chilean_mismatch_declarative-narrow-focus_La-maestra-vive-en-Paris.wav,./stim/wavs/cuban_mismatch_declarative-narrow-focus_La-maestra-vive-en-Paris.wav,./stim/wavs/mexican_mismatch_declarative-narrow-focus_La-maestra-vive-en-Paris.wav,./stim/wavs/peruvian_mismatch_declarative-narrow-focus_La-maestra-vive-en-Paris.wav,./stim/wavs/puertorican_mismatch_declarative-narrow-focus_La-maestra-vive-en-Paris.wav,,,,,,,,,,,,,,,,,,,,,,,,,,,,,,,,,,,,,,,,,,,,,,,,,,,,,,,,
,,,,,,,5eb5c26dd25d2549d228fdf1,605b45a4d25f287719a41696,605fcdb0e1717bd70e6bbe9d,United States,East coast,13 or older,no,2021-03-27_20h29.16.843,empathy_intonation_perc,2020.2.10,Win32,60,,,,,,,,,,1,puertorican,0,0,1.522510001,0,39,39,27,1,28,./stim/wavs/andalusian_match_interrogative-total-yn_Emilio-ama-la-marcha.wav,./stim/wavs/argentine_match_interrogative-total-yn_Emilio-ama-la-marcha.wav,./stim/wavs/castilian_match_interrogative-total-yn_Emilio-ama-la-marcha.wav,./stim/wavs/chilean_match_interrogative-total-yn_Emilio-ama-la-marcha.wav,./stim/wavs/cuban_match_interrogative-total-yn_Emilio-ama-la-marcha.wav,./stim/wavs/mexican_match_interrogative-total-yn_Emilio-ama-la-marcha.wav,./stim/wavs/peruvian_match_interrogative-total-yn_Emilio-ama-la-marcha.wav,./stim/wavs/puertorican_match_interrogative-total-yn_Emilio-ama-la-marcha.wav,,,,,,,,,,,,,,,,,,,,,,,,,,,,,,,,,,,,,,,,,,,,,,,,,,,,,,,,
,,,,,,,5eb5c26dd25d2549d228fdf1,605b45a4d25f287719a41696,605fcdb0e1717bd70e6bbe9d,United States,East coast,13 or older,no,2021-03-27_20h29.16.843,empathy_intonation_perc,2020.2.10,Win32,60,,,,,,,,,,0,argentine,0,1,1.770115,0,40,40,32,1,33,./stim/wavs/andalusian_mismatch_declarative-broad-focus_El-bebe-comia-muy-bien.wav,./stim/wavs/argentine_mismatch_declarative-broad-focus_El-bebe-comia-muy-bien.wav,./stim/wavs/castilian_mismatch_declarative-broad-focus_El-bebe-comia-muy-bien.wav,./stim/wavs/chilean_mismatch_declarative-broad-focus_El-bebe-comia-muy-bien.wav,./stim/wavs/cuban_mismatch_declarative-broad-focus_El-bebe-comia-muy-bien.wav,./stim/wavs/mexican_mismatch_declarative-broad-focus_El-bebe-comia-muy-bien.wav,./stim/wavs/peruvian_mismatch_declarative-broad-focus_El-bebe-comia-muy-bien.wav,./stim/wavs/puertorican_mismatch_declarative-broad-focus_El-bebe-comia-muy-bien.wav,,,,,,,,,,,,,,,,,,,,,,,,,,,,,,,,,,,,,,,,,,,,,,,,,,,,,,,,
,,,,,,,5eb5c26dd25d2549d228fdf1,605b45a4d25f287719a41696,605fcdb0e1717bd70e6bbe9d,United States,East coast,13 or older,no,2021-03-27_20h29.16.843,empathy_intonation_perc,2020.2.10,Win32,60,,,,,,,,,,0,mexican,0,1,1.473774999,0,41,41,34,1,35,./stim/wavs/andalusian_mismatch_declarative-broad-focus_El-nino-oye-el-rio.wav,./stim/wavs/argentine_mismatch_declarative-broad-focus_El-nino-oye-el-rio.wav,./stim/wavs/castilian_mismatch_declarative-broad-focus_El-nino-oye-el-rio.wav,./stim/wavs/chilean_mismatch_declarative-broad-focus_El-nino-oye-el-rio.wav,./stim/wavs/cuban_mismatch_declarative-broad-focus_El-nino-oye-el-rio.wav,./stim/wavs/mexican_mismatch_declarative-broad-focus_El-nino-oye-el-rio.wav,./stim/wavs/peruvian_mismatch_declarative-broad-focus_El-nino-oye-el-rio.wav,./stim/wavs/puertorican_mismatch_declarative-broad-focus_El-nino-oye-el-rio.wav,,,,,,,,,,,,,,,,,,,,,,,,,,,,,,,,,,,,,,,,,,,,,,,,,,,,,,,,
,,,,,,,5eb5c26dd25d2549d228fdf1,605b45a4d25f287719a41696,605fcdb0e1717bd70e6bbe9d,United States,East coast,13 or older,no,2021-03-27_20h29.16.843,empathy_intonation_perc,2020.2.10,Win32,60,,,,,,,,,,0,castilian,0,1,1.57245,0,42,42,5,1,6,./stim/wavs/andalusian_match_declarative-broad-focus_Maria-bebe-el-vino.wav,./stim/wavs/argentine_match_declarative-broad-focus_Maria-bebe-el-vino.wav,./stim/wavs/castilian_match_declarative-broad-focus_Maria-bebe-el-vino.wav,./stim/wavs/chilean_match_declarative-broad-focus_Maria-bebe-el-vino.wav,./stim/wavs/cuban_match_declarative-broad-focus_Maria-bebe-el-vino.wav,./stim/wavs/mexican_match_declarative-broad-focus_Maria-bebe-el-vino.wav,./stim/wavs/peruvian_match_declarative-broad-focus_Maria-bebe-el-vino.wav,./stim/wavs/puertorican_match_declarative-broad-focus_Maria-bebe-el-vino.wav,,,,,,,,,,,,,,,,,,,,,,,,,,,,,,,,,,,,,,,,,,,,,,,,,,,,,,,,
,,,,,,,5eb5c26dd25d2549d228fdf1,605b45a4d25f287719a41696,605fcdb0e1717bd70e6bbe9d,United States,East coast,13 or older,no,2021-03-27_20h29.16.843,empathy_intonation_perc,2020.2.10,Win32,60,,,,,,,,,,1,cuban,0,0,1.501765,0,43,43,29,1,30,./stim/wavs/andalusian_match_interrogative-total-yn_Maria-bebe-el-vino.wav,./stim/wavs/argentine_match_interrogative-total-yn_Maria-bebe-el-vino.wav,./stim/wavs/castilian_match_interrogative-total-yn_Maria-bebe-el-vino.wav,./stim/wavs/chilean_match_interrogative-total-yn_Maria-bebe-el-vino.wav,./stim/wavs/cuban_match_interrogative-total-yn_Maria-bebe-el-vino.wav,./stim/wavs/mexican_match_interrogative-total-yn_Maria-bebe-el-vino.wav,./stim/wavs/peruvian_match_interrogative-total-yn_Maria-bebe-el-vino.wav,./stim/wavs/puertorican_match_interrogative-total-yn_Maria-bebe-el-vino.wav,,,,,,,,,,,,,,,,,,,,,,,,,,,,,,,,,,,,,,,,,,,,,,,,,,,,,,,,
,,,,,,,5eb5c26dd25d2549d228fdf1,605b45a4d25f287719a41696,605fcdb0e1717bd70e6bbe9d,United States,East coast,13 or older,no,2021-03-27_20h29.16.843,empathy_intonation_perc,2020.2.10,Win32,60,,,,,,,,,,1,argentine,0,0,1.58423,0,44,44,48,1,49,./stim/wavs/andalusian_mismatch_interrogative-partial-wh_Cuando-comia-la-fruta.wav,./stim/wavs/argentine_mismatch_interrogative-partial-wh_Cuando-comia-la-fruta.wav,./stim/wavs/castilian_mismatch_interrogative-partial-wh_Cuando-comia-la-fruta.wav,./stim/wavs/chilean_mismatch_interrogative-partial-wh_Cuando-comia-la-fruta.wav,./stim/wavs/cuban_mismatch_interrogative-partial-wh_Cuando-comia-la-fruta.wav,./stim/wavs/mexican_mismatch_interrogative-partial-wh_Cuando-comia-la-fruta.wav,./stim/wavs/peruvian_mismatch_interrogative-partial-wh_Cuando-comia-la-fruta.wav,./stim/wavs/puertorican_mismatch_interrogative-partial-wh_Cuando-comia-la-fruta.wav,,,,,,,,,,,,,,,,,,,,,,,,,,,,,,,,,,,,,,,,,,,,,,,,,,,,,,,,
,,,,,,,5eb5c26dd25d2549d228fdf1,605b45a4d25f287719a41696,605fcdb0e1717bd70e6bbe9d,United States,East coast,13 or older,no,2021-03-27_20h29.16.843,empathy_intonation_perc,2020.2.10,Win32,60,,,,,,,,,,1,peruvian,0,0,1.556050001,0,45,45,17,1,18,./stim/wavs/andalusian_match_interrogative-partial-wh_Cuando-leia-el-libro.wav,./stim/wavs/argentine_match_interrogative-partial-wh_Cuando-leia-el-libro.wav,./stim/wavs/castilian_match_interrogative-partial-wh_Cuando-leia-el-libro.wav,./stim/wavs/chilean_match_interrogative-partial-wh_Cuando-leia-el-libro.wav,./stim/wavs/cuban_match_interrogative-partial-wh_Cuando-leia-el-libro.wav,./stim/wavs/mexican_match_interrogative-partial-wh_Cuando-leia-el-libro.wav,./stim/wavs/peruvian_match_interrogative-partial-wh_Cuando-leia-el-libro.wav,./stim/wavs/puertorican_match_interrogative-partial-wh_Cuando-leia-el-libro.wav,,,,,,,,,,,,,,,,,,,,,,,,,,,,,,,,,,,,,,,,,,,,,,,,,,,,,,,,
,,,,,,,5eb5c26dd25d2549d228fdf1,605b45a4d25f287719a41696,605fcdb0e1717bd70e6bbe9d,United States,East coast,13 or older,no,2021-03-27_20h29.16.843,empathy_intonation_perc,2020.2.10,Win32,60,,,,,,,,,,0,argentine,0,1,1.625074999,0,46,46,35,1,36,./stim/wavs/andalusian_mismatch_declarative-broad-focus_La-maestra-vive-en-Paris.wav,./stim/wavs/argentine_mismatch_declarative-broad-focus_La-maestra-vive-en-Paris.wav,./stim/wavs/castilian_mismatch_declarative-broad-focus_La-maestra-vive-en-Paris.wav,./stim/wavs/chilean_mismatch_declarative-broad-focus_La-maestra-vive-en-Paris.wav,./stim/wavs/cuban_mismatch_declarative-broad-focus_La-maestra-vive-en-Paris.wav,./stim/wavs/mexican_mismatch_declarative-broad-focus_La-maestra-vive-en-Paris.wav,./stim/wavs/peruvian_mismatch_declarative-broad-focus_La-maestra-vive-en-Paris.wav,./stim/wavs/puertorican_mismatch_declarative-broad-focus_La-maestra-vive-en-Paris.wav,,,,,,,,,,,,,,,,,,,,,,,,,,,,,,,,,,,,,,,,,,,,,,,,,,,,,,,,
,,,,,,,5eb5c26dd25d2549d228fdf1,605b45a4d25f287719a41696,605fcdb0e1717bd70e6bbe9d,United States,East coast,13 or older,no,2021-03-27_20h29.16.843,empathy_intonation_perc,2020.2.10,Win32,60,,,,,,,,,,0,puertorican,0,1,1.630165,0,47,47,4,1,5,./stim/wavs/andalusian_match_declarative-broad-focus_Manuela-vende-el-carro.wav,./stim/wavs/argentine_match_declarative-broad-focus_Manuela-vende-el-carro.wav,./stim/wavs/castilian_match_declarative-broad-focus_Manuela-vende-el-carro.wav,./stim/wavs/chilean_match_declarative-broad-focus_Manuela-vende-el-carro.wav,./stim/wavs/cuban_match_declarative-broad-focus_Manuela-vende-el-carro.wav,./stim/wavs/mexican_match_declarative-broad-focus_Manuela-vende-el-carro.wav,./stim/wavs/peruvian_match_declarative-broad-focus_Manuela-vende-el-carro.wav,./stim/wavs/puertorican_match_declarative-broad-focus_Manuela-vende-el-carro.wav,,,,,,,,,,,,,,,,,,,,,,,,,,,,,,,,,,,,,,,,,,,,,,,,,,,,,,,,
,,,,,,,5eb5c26dd25d2549d228fdf1,605b45a4d25f287719a41696,605fcdb0e1717bd70e6bbe9d,United States,East coast,13 or older,no,2021-03-27_20h29.16.843,empathy_intonation_perc,2020.2.10,Win32,60,,,,,,,,,,1,mexican,1,1,1.41868,0,48,48,52,1,53,./stim/wavs/andalusian_mismatch_interrogative-partial-wh_Por-que-odiaba-la-lluvia.wav,./stim/wavs/argentine_mismatch_interrogative-partial-wh_Por-que-odiaba-la-lluvia.wav,./stim/wavs/castilian_mismatch_interrogative-partial-wh_Por-que-odiaba-la-lluvia.wav,./stim/wavs/chilean_mismatch_interrogative-partial-wh_Por-que-odiaba-la-lluvia.wav,./stim/wavs/cuban_mismatch_interrogative-partial-wh_Por-que-odiaba-la-lluvia.wav,./stim/wavs/mexican_mismatch_interrogative-partial-wh_Por-que-odiaba-la-lluvia.wav,./stim/wavs/peruvian_mismatch_interrogative-partial-wh_Por-que-odiaba-la-lluvia.wav,./stim/wavs/puertorican_mismatch_interrogative-partial-wh_Por-que-odiaba-la-lluvia.wav,,,,,,,,,,,,,,,,,,,,,,,,,,,,,,,,,,,,,,,,,,,,,,,,,,,,,,,,
,,,,,,,5eb5c26dd25d2549d228fdf1,605b45a4d25f287719a41696,605fcdb0e1717bd70e6bbe9d,United States,East coast,13 or older,no,2021-03-27_20h29.16.843,empathy_intonation_perc,2020.2.10,Win32,60,,,,,,,,,,0,peruvian,0,1,1.592355,0,49,49,15,1,16,./stim/wavs/andalusian_match_declarative-narrow-focus_Marta-abre-el-regalo.wav,./stim/wavs/argentine_match_declarative-narrow-focus_Marta-abre-el-regalo.wav,./stim/wavs/castilian_match_declarative-narrow-focus_Marta-abre-el-regalo.wav,./stim/wavs/chilean_match_declarative-narrow-focus_Marta-abre-el-regalo.wav,./stim/wavs/cuban_match_declarative-narrow-focus_Marta-abre-el-regalo.wav,./stim/wavs/mexican_match_declarative-narrow-focus_Marta-abre-el-regalo.wav,./stim/wavs/peruvian_match_declarative-narrow-focus_Marta-abre-el-regalo.wav,./stim/wavs/puertorican_match_declarative-narrow-focus_Marta-abre-el-regalo.wav,,,,,,,,,,,,,,,,,,,,,,,,,,,,,,,,,,,,,,,,,,,,,,,,,,,,,,,,
,,,,,,,5eb5c26dd25d2549d228fdf1,605b45a4d25f287719a41696,605fcdb0e1717bd70e6bbe9d,United States,East coast,13 or older,no,2021-03-27_20h29.16.843,empathy_intonation_perc,2020.2.10,Win32,60,,,,,,,,,,1,cuban,0,0,1.52151,0,50,50,25,1,26,./stim/wavs/andalusian_match_interrogative-total-yn_Daniel-iba-a-Bolivia.wav,./stim/wavs/argentine_match_interrogative-total-yn_Daniel-iba-a-Bolivia.wav,./stim/wavs/castilian_match_interrogative-total-yn_Daniel-iba-a-Bolivia.wav,./stim/wavs/chilean_match_interrogative-total-yn_Daniel-iba-a-Bolivia.wav,./stim/wavs/cuban_match_interrogative-total-yn_Daniel-iba-a-Bolivia.wav,./stim/wavs/mexican_match_interrogative-total-yn_Daniel-iba-a-Bolivia.wav,./stim/wavs/peruvian_match_interrogative-total-yn_Daniel-iba-a-Bolivia.wav,./stim/wavs/puertorican_match_interrogative-total-yn_Daniel-iba-a-Bolivia.wav,,,,,,,,,,,,,,,,,,,,,,,,,,,,,,,,,,,,,,,,,,,,,,,,,,,,,,,,
,,,,,,,5eb5c26dd25d2549d228fdf1,605b45a4d25f287719a41696,605fcdb0e1717bd70e6bbe9d,United States,East coast,13 or older,no,2021-03-27_20h29.16.843,empathy_intonation_perc,2020.2.10,Win32,60,,,,,,,,,,1,castilian,1,1,1.46887,0,51,51,54,1,55,./stim/wavs/andalusian_mismatch_interrogative-partial-wh_Por-que-venia-del-lago.wav,./stim/wavs/argentine_mismatch_interrogative-partial-wh_Por-que-venia-del-lago.wav,./stim/wavs/castilian_mismatch_interrogative-partial-wh_Por-que-venia-del-lago.wav,./stim/wavs/chilean_mismatch_interrogative-partial-wh_Por-que-venia-del-lago.wav,./stim/wavs/cuban_mismatch_interrogative-partial-wh_Por-que-venia-del-lago.wav,./stim/wavs/mexican_mismatch_interrogative-partial-wh_Por-que-venia-del-lago.wav,./stim/wavs/peruvian_mismatch_interrogative-partial-wh_Por-que-venia-del-lago.wav,./stim/wavs/puertorican_mismatch_interrogative-partial-wh_Por-que-venia-del-lago.wav,,,,,,,,,,,,,,,,,,,,,,,,,,,,,,,,,,,,,,,,,,,,,,,,,,,,,,,,
,,,,,,,5eb5c26dd25d2549d228fdf1,605b45a4d25f287719a41696,605fcdb0e1717bd70e6bbe9d,United States,East coast,13 or older,no,2021-03-27_20h29.16.843,empathy_intonation_perc,2020.2.10,Win32,60,,,,,,,,,,1,castilian,1,1,1.805885,0,52,52,30,1,31,./stim/wavs/andalusian_match_interrogative-total-yn_Mariano-habla-del-tiempo.wav,./stim/wavs/argentine_match_interrogative-total-yn_Mariano-habla-del-tiempo.wav,./stim/wavs/castilian_match_interrogative-total-yn_Mariano-habla-del-tiempo.wav,./stim/wavs/chilean_match_interrogative-total-yn_Mariano-habla-del-tiempo.wav,./stim/wavs/cuban_match_interrogative-total-yn_Mariano-habla-del-tiempo.wav,./stim/wavs/mexican_match_interrogative-total-yn_Mariano-habla-del-tiempo.wav,./stim/wavs/peruvian_match_interrogative-total-yn_Mariano-habla-del-tiempo.wav,./stim/wavs/puertorican_match_interrogative-total-yn_Mariano-habla-del-tiempo.wav,,,,,,,,,,,,,,,,,,,,,,,,,,,,,,,,,,,,,,,,,,,,,,,,,,,,,,,,
,,,,,,,5eb5c26dd25d2549d228fdf1,605b45a4d25f287719a41696,605fcdb0e1717bd70e6bbe9d,United States,East coast,13 or older,no,2021-03-27_20h29.16.843,empathy_intonation_perc,2020.2.10,Win32,60,,,,,,,,,,1,cuban,0,0,1.43585,0,53,53,19,1,20,./stim/wavs/andalusian_match_interrogative-partial-wh_Cuando-vendia-el-carro.wav,./stim/wavs/argentine_match_interrogative-partial-wh_Cuando-vendia-el-carro.wav,./stim/wavs/castilian_match_interrogative-partial-wh_Cuando-vendia-el-carro.wav,./stim/wavs/chilean_match_interrogative-partial-wh_Cuando-vendia-el-carro.wav,./stim/wavs/cuban_match_interrogative-partial-wh_Cuando-vendia-el-carro.wav,./stim/wavs/mexican_match_interrogative-partial-wh_Cuando-vendia-el-carro.wav,./stim/wavs/peruvian_match_interrogative-partial-wh_Cuando-vendia-el-carro.wav,./stim/wavs/puertorican_match_interrogative-partial-wh_Cuando-vendia-el-carro.wav,,,,,,,,,,,,,,,,,,,,,,,,,,,,,,,,,,,,,,,,,,,,,,,,,,,,,,,,
,,,,,,,5eb5c26dd25d2549d228fdf1,605b45a4d25f287719a41696,605fcdb0e1717bd70e6bbe9d,United States,East coast,13 or older,no,2021-03-27_20h29.16.843,empathy_intonation_perc,2020.2.10,Win32,60,,,,,,,,,,1,chilean,1,1,1.180575,0,54,54,23,1,24,./stim/wavs/andalusian_match_interrogative-partial-wh_Por-que-iba-a-Bolivia.wav,./stim/wavs/argentine_match_interrogative-partial-wh_Por-que-iba-a-Bolivia.wav,./stim/wavs/castilian_match_interrogative-partial-wh_Por-que-iba-a-Bolivia.wav,./stim/wavs/chilean_match_interrogative-partial-wh_Por-que-iba-a-Bolivia.wav,./stim/wavs/cuban_match_interrogative-partial-wh_Por-que-iba-a-Bolivia.wav,./stim/wavs/mexican_match_interrogative-partial-wh_Por-que-iba-a-Bolivia.wav,./stim/wavs/peruvian_match_interrogative-partial-wh_Por-que-iba-a-Bolivia.wav,./stim/wavs/puertorican_match_interrogative-partial-wh_Por-que-iba-a-Bolivia.wav,,,,,,,,,,,,,,,,,,,,,,,,,,,,,,,,,,,,,,,,,,,,,,,,,,,,,,,,
,,,,,,,5eb5c26dd25d2549d228fdf1,605b45a4d25f287719a41696,605fcdb0e1717bd70e6bbe9d,United States,East coast,13 or older,no,2021-03-27_20h29.16.843,empathy_intonation_perc,2020.2.10,Win32,60,,,,,,,,,,0,cuban,0,1,1.574975,0,55,55,10,1,11,./stim/wavs/andalusian_match_declarative-narrow-focus_David-leia-el-libro.wav,./stim/wavs/argentine_match_declarative-narrow-focus_David-leia-el-libro.wav,./stim/wavs/castilian_match_declarative-narrow-focus_David-leia-el-libro.wav,./stim/wavs/chilean_match_declarative-narrow-focus_David-leia-el-libro.wav,./stim/wavs/cuban_match_declarative-narrow-focus_David-leia-el-libro.wav,./stim/wavs/mexican_match_declarative-narrow-focus_David-leia-el-libro.wav,./stim/wavs/peruvian_match_declarative-narrow-focus_David-leia-el-libro.wav,./stim/wavs/puertorican_match_declarative-narrow-focus_David-leia-el-libro.wav,,,,,,,,,,,,,,,,,,,,,,,,,,,,,,,,,,,,,,,,,,,,,,,,,,,,,,,,
,,,,,,,5eb5c26dd25d2549d228fdf1,605b45a4d25f287719a41696,605fcdb0e1717bd70e6bbe9d,United States,East coast,13 or older,no,2021-03-27_20h29.16.843,empathy_intonation_perc,2020.2.10,Win32,60,,,,,,,,,,0,cuban,0,1,1.696525,0,56,56,39,1,40,./stim/wavs/andalusian_mismatch_declarative-broad-focus_Mi-tia-odia-la-lluvia.wav,./stim/wavs/argentine_mismatch_declarative-broad-focus_Mi-tia-odia-la-lluvia.wav,./stim/wavs/castilian_mismatch_declarative-broad-focus_Mi-tia-odia-la-lluvia.wav,./stim/wavs/chilean_mismatch_declarative-broad-focus_Mi-tia-odia-la-lluvia.wav,./stim/wavs/cuban_mismatch_declarative-broad-focus_Mi-tia-odia-la-lluvia.wav,./stim/wavs/mexican_mismatch_declarative-broad-focus_Mi-tia-odia-la-lluvia.wav,./stim/wavs/peruvian_mismatch_declarative-broad-focus_Mi-tia-odia-la-lluvia.wav,./stim/wavs/puertorican_mismatch_declarative-broad-focus_Mi-tia-odia-la-lluvia.wav,,,,,,,,,,,,,,,,,,,,,,,,,,,,,,,,,,,,,,,,,,,,,,,,,,,,,,,,
,,,,,,,5eb5c26dd25d2549d228fdf1,605b45a4d25f287719a41696,605fcdb0e1717bd70e6bbe9d,United States,East coast,13 or older,no,2021-03-27_20h29.16.843,empathy_intonation_perc,2020.2.10,Win32,60,,,,,,,,,,0,cuban,0,1,1.48532,0,57,57,9,1,10,./stim/wavs/andalusian_match_declarative-narrow-focus_Daniel-iba-a-Bolivia.wav,./stim/wavs/argentine_match_declarative-narrow-focus_Daniel-iba-a-Bolivia.wav,./stim/wavs/castilian_match_declarative-narrow-focus_Daniel-iba-a-Bolivia.wav,./stim/wavs/chilean_match_declarative-narrow-focus_Daniel-iba-a-Bolivia.wav,./stim/wavs/cuban_match_declarative-narrow-focus_Daniel-iba-a-Bolivia.wav,./stim/wavs/mexican_match_declarative-narrow-focus_Daniel-iba-a-Bolivia.wav,./stim/wavs/peruvian_match_declarative-narrow-focus_Daniel-iba-a-Bolivia.wav,./stim/wavs/puertorican_match_declarative-narrow-focus_Daniel-iba-a-Bolivia.wav,,,,,,,,,,,,,,,,,,,,,,,,,,,,,,,,,,,,,,,,,,,,,,,,,,,,,,,,
,,,,,,,5eb5c26dd25d2549d228fdf1,605b45a4d25f287719a41696,605fcdb0e1717bd70e6bbe9d,United States,East coast,13 or older,no,2021-03-27_20h29.16.843,empathy_intonation_perc,2020.2.10,Win32,60,,,,,,,,,,0,cuban,0,1,1.483945,0,58,58,0,1,1,./stim/wavs/andalusian_match_declarative-broad-focus_Ana-lleva-el-abrigo.wav,./stim/wavs/argentine_match_declarative-broad-focus_Ana-lleva-el-abrigo.wav,./stim/wavs/castilian_match_declarative-broad-focus_Ana-lleva-el-abrigo.wav,./stim/wavs/chilean_match_declarative-broad-focus_Ana-lleva-el-abrigo.wav,./stim/wavs/cuban_match_declarative-broad-focus_Ana-lleva-el-abrigo.wav,./stim/wavs/mexican_match_declarative-broad-focus_Ana-lleva-el-abrigo.wav,./stim/wavs/peruvian_match_declarative-broad-focus_Ana-lleva-el-abrigo.wav,./stim/wavs/puertorican_match_declarative-broad-focus_Ana-lleva-el-abrigo.wav,,,,,,,,,,,,,,,,,,,,,,,,,,,,,,,,,,,,,,,,,,,,,,,,,,,,,,,,
,,,,,,,5eb5c26dd25d2549d228fdf1,605b45a4d25f287719a41696,605fcdb0e1717bd70e6bbe9d,United States,East coast,13 or older,no,2021-03-27_20h29.16.843,empathy_intonation_perc,2020.2.10,Win32,60,,,,,,,,,,0,castilian,0,1,1.83801,0,59,59,6,1,7,./stim/wavs/andalusian_match_declarative-broad-focus_Mariano-habla-del-tiempo.wav,./stim/wavs/argentine_match_declarative-broad-focus_Mariano-habla-del-tiempo.wav,./stim/wavs/castilian_match_declarative-broad-focus_Mariano-habla-del-tiempo.wav,./stim/wavs/chilean_match_declarative-broad-focus_Mariano-habla-del-tiempo.wav,./stim/wavs/cuban_match_declarative-broad-focus_Mariano-habla-del-tiempo.wav,./stim/wavs/mexican_match_declarative-broad-focus_Mariano-habla-del-tiempo.wav,./stim/wavs/peruvian_match_declarative-broad-focus_Mariano-habla-del-tiempo.wav,./stim/wavs/puertorican_match_declarative-broad-focus_Mariano-habla-del-tiempo.wav,,,,,,,,,,,,,,,,,,,,,,,,,,,,,,,,,,,,,,,,,,,,,,,,,,,,,,,,
,,,,,,,5eb5c26dd25d2549d228fdf1,605b45a4d25f287719a41696,605fcdb0e1717bd70e6bbe9d,United States,East coast,13 or older,no,2021-03-27_20h29.16.843,empathy_intonation_perc,2020.2.10,Win32,60,,,,,,,,,,0,argentine,0,1,1.61448,0,60,60,11,1,12,./stim/wavs/andalusian_match_declarative-narrow-focus_Emilio-ama-la-marcha.wav,./stim/wavs/argentine_match_declarative-narrow-focus_Emilio-ama-la-marcha.wav,./stim/wavs/castilian_match_declarative-narrow-focus_Emilio-ama-la-marcha.wav,./stim/wavs/chilean_match_declarative-narrow-focus_Emilio-ama-la-marcha.wav,./stim/wavs/cuban_match_declarative-narrow-focus_Emilio-ama-la-marcha.wav,./stim/wavs/mexican_match_declarative-narrow-focus_Emilio-ama-la-marcha.wav,./stim/wavs/peruvian_match_declarative-narrow-focus_Emilio-ama-la-marcha.wav,./stim/wavs/puertorican_match_declarative-narrow-focus_Emilio-ama-la-marcha.wav,,,,,,,,,,,,,,,,,,,,,,,,,,,,,,,,,,,,,,,,,,,,,,,,,,,,,,,,
,,,,,,,5eb5c26dd25d2549d228fdf1,605b45a4d25f287719a41696,605fcdb0e1717bd70e6bbe9d,United States,East coast,13 or older,no,2021-03-27_20h29.16.843,empathy_intonation_perc,2020.2.10,Win32,60,,,,,,,,,,0,mexican,0,1,1.389425,0,61,61,36,1,37,./stim/wavs/andalusian_mismatch_declarative-broad-focus_La-nina-lava-el-plato.wav,./stim/wavs/argentine_mismatch_declarative-broad-focus_La-nina-lava-el-plato.wav,./stim/wavs/castilian_mismatch_declarative-broad-focus_La-nina-lava-el-plato.wav,./stim/wavs/chilean_mismatch_declarative-broad-focus_La-nina-lava-el-plato.wav,./stim/wavs/cuban_mismatch_declarative-broad-focus_La-nina-lava-el-plato.wav,./stim/wavs/mexican_mismatch_declarative-broad-focus_La-nina-lava-el-plato.wav,./stim/wavs/peruvian_mismatch_declarative-broad-focus_La-nina-lava-el-plato.wav,./stim/wavs/puertorican_mismatch_declarative-broad-focus_La-nina-lava-el-plato.wav,,,,,,,,,,,,,,,,,,,,,,,,,,,,,,,,,,,,,,,,,,,,,,,,,,,,,,,,
,,,,,,,5eb5c26dd25d2549d228fdf1,605b45a4d25f287719a41696,605fcdb0e1717bd70e6bbe9d,United States,East coast,13 or older,no,2021-03-27_20h29.16.843,empathy_intonation_perc,2020.2.10,Win32,60,,,,,,,,,,0,argentine,0,1,1.569445,0,62,62,45,1,46,./stim/wavs/andalusian_mismatch_declarative-narrow-focus_Mi-madre-come-la-fruta.wav,./stim/wavs/argentine_mismatch_declarative-narrow-focus_Mi-madre-come-la-fruta.wav,./stim/wavs/castilian_mismatch_declarative-narrow-focus_Mi-madre-come-la-fruta.wav,./stim/wavs/chilean_mismatch_declarative-narrow-focus_Mi-madre-come-la-fruta.wav,./stim/wavs/cuban_mismatch_declarative-narrow-focus_Mi-madre-come-la-fruta.wav,./stim/wavs/mexican_mismatch_declarative-narrow-focus_Mi-madre-come-la-fruta.wav,./stim/wavs/peruvian_mismatch_declarative-narrow-focus_Mi-madre-come-la-fruta.wav,./stim/wavs/puertorican_mismatch_declarative-narrow-focus_Mi-madre-come-la-fruta.wav,,,,,,,,,,,,,,,,,,,,,,,,,,,,,,,,,,,,,,,,,,,,,,,,,,,,,,,,
,,,,,,,5eb5c26dd25d2549d228fdf1,605b45a4d25f287719a41696,605fcdb0e1717bd70e6bbe9d,United States,East coast,13 or older,no,2021-03-27_20h29.16.843,empathy_intonation_perc,2020.2.10,Win32,60,,,,,,,,,,1,mexican,0,0,1.481234999,0,63,63,60,1,61,./stim/wavs/andalusian_mismatch_interrogative-total-yn_La-nina-lava-el-plato.wav,./stim/wavs/argentine_mismatch_interrogative-total-yn_La-nina-lava-el-plato.wav,./stim/wavs/castilian_mismatch_interrogative-total-yn_La-nina-lava-el-plato.wav,./stim/wavs/chilean_mismatch_interrogative-total-yn_La-nina-lava-el-plato.wav,./stim/wavs/cuban_mismatch_interrogative-total-yn_La-nina-lava-el-plato.wav,./stim/wavs/mexican_mismatch_interrogative-total-yn_La-nina-lava-el-plato.wav,./stim/wavs/peruvian_mismatch_interrogative-total-yn_La-nina-lava-el-plato.wav,./stim/wavs/puertorican_mismatch_interrogative-total-yn_La-nina-lava-el-plato.wav,,,,,,,,,,,,,,,,,,,,,,,,,,,,,,,,,,,,,,,,,,,,,,,,,,,,,,,,
,,,,,,,5eb5c26dd25d2549d228fdf1,605b45a4d25f287719a41696,605fcdb0e1717bd70e6bbe9d,United States,East coast,13 or older,no,2021-03-27_20h29.16.843,empathy_intonation_perc,2020.2.10,Win32,60,,,,,,,,,,,,,,,,,,,,,,,,,,,,,h,1,9.122265001,0,0,0,0,1,,,,,,,,,,,,,,,,,,,,,,,,,,,,,,,,,,,,,,,,,,,,,,,,
,,,,,"Great! Now we will move on. The next task consists of about 60 trials, in each of which you will see a string of letters. 
  
  Your task is to decide whether this is a real Spanish word or not.",(press the spacebar to continue),5eb5c26dd25d2549d228fdf1,605b45a4d25f287719a41696,605fcdb0e1717bd70e6bbe9d,United States,East coast,13 or older,no,2021-03-27_20h29.16.843,empathy_intonation_perc,2020.2.10,Win32,60,,,,,,,,,,,,,,,,,,,,,,,,,,,,,,,,,,,,,0,0,0,0,1,,,,,,,,,,,,,,,,,,,,,,,,,,,,,,,,,,,,,,,,,,,
,,,,,"If you think it is an existing Spanish word, you type '1' (for 'REAL'), and if you think it is not an existing Spanish word, you type '0' (for 'FAKE').",(press the spacebar to continue),5eb5c26dd25d2549d228fdf1,605b45a4d25f287719a41696,605fcdb0e1717bd70e6bbe9d,United States,East coast,13 or older,no,2021-03-27_20h29.16.843,empathy_intonation_perc,2020.2.10,Win32,60,,,,,,,,,,,,,,,,,,,,,,,,,,,,,,,,,,,,,0,1,1,1,1,,,,,,,,,,,,,,,,,,,,,,,,,,,,,,,,,,,,,,,,,,,
,,,,,"If you are sure that the word exists, even though you dont know its exact meaning, you may still respond '1' (REAL). 
  
  But if you are not sure if it is an existing word, you should respond '0' (FAKE).
  
  Let's do a practice round...",(press the spacebar to continue),5eb5c26dd25d2549d228fdf1,605b45a4d25f287719a41696,605fcdb0e1717bd70e6bbe9d,United States,East coast,13 or older,no,2021-03-27_20h29.16.843,empathy_intonation_perc,2020.2.10,Win32,60,,,,,,,,,,,,,,,,,,,,,,,,,,,,,,,,,,,,,0,2,2,2,1,,,,,,,,,,,,,,,,,,,,,,,,,,,,,,,,,,,,,,,,,,,
,,,,,,,5eb5c26dd25d2549d228fdf1,605b45a4d25f287719a41696,605fcdb0e1717bd70e6bbe9d,United States,East coast,13 or older,no,2021-03-27_20h29.16.843,empathy_intonation_perc,2020.2.10,Win32,60,,,,,,,,,,0,,,,,,,,,,,,,,,,,,,,,,,,,,,,,,,,1,0,1.368455,0,0,0,0,1,0,depiste,REAL,FAKE,,,,,,,,,,,,,,,,,,,,,,,,,,,,,,,
,,,,,,,5eb5c26dd25d2549d228fdf1,605b45a4d25f287719a41696,605fcdb0e1717bd70e6bbe9d,United States,East coast,13 or older,no,2021-03-27_20h29.16.843,empathy_intonation_perc,2020.2.10,Win32,60,,,,,,,,,,1,,,,,,,,,,,,,,,,,,,,,,,,,,,,,,,,1,1,0.961685,0,1,1,1,1,0,s,REAL,FAKE,,,,,,,,,,,,,,,,,,,,,,,,,,,,,,,
,,,,,,,5eb5c26dd25d2549d228fdf1,605b45a4d25f287719a41696,605fcdb0e1717bd70e6bbe9d,United States,East coast,13 or older,no,2021-03-27_20h29.16.843,empathy_intonation_perc,2020.2.10,Win32,60,,,,,,,,,,0,,,,,,,,,,,,,,,,,,,,,,,,,,,,,,,,1,0,0.96912,0,2,2,2,1,0,con,REAL,FAKE,,,,,,,,,,,,,,,,,,,,,,,,,,,,,,,
,,,,,,,5eb5c26dd25d2549d228fdf1,605b45a4d25f287719a41696,605fcdb0e1717bd70e6bbe9d,United States,East coast,13 or older,no,2021-03-27_20h29.16.843,empathy_intonation_perc,2020.2.10,Win32,60,,,,,,,,,,0,,,,,,,,,,,,,,,,,,,,,,,,,,,,,,,,1,0,1.21838,0,3,3,3,1,0,calpar,REAL,FAKE,,,,,,,,,,,,,,,,,,,,,,,,,,,,,,,
,,,,,,,5eb5c26dd25d2549d228fdf1,605b45a4d25f287719a41696,605fcdb0e1717bd70e6bbe9d,United States,East coast,13 or older,no,2021-03-27_20h29.16.843,empathy_intonation_perc,2020.2.10,Win32,60,,,,,,,,,,0,,,,,,,,,,,,,,,,,,,,,,,,,,,,,,,,0,1,1.3187,0,4,4,4,1,0,joten,REAL,FAKE,,,,,,,,,,,,,,,,,,,,,,,,,,,,,,,
,,,,,,,5eb5c26dd25d2549d228fdf1,605b45a4d25f287719a41696,605fcdb0e1717bd70e6bbe9d,United States,East coast,13 or older,no,2021-03-27_20h29.16.843,empathy_intonation_perc,2020.2.10,Win32,60,,,,,,,,,,1,,,,,,,,,,,,,,,,,,,,,,,,,,,,,,,,1,1,1.0955,0,5,5,5,1,0,sacapuntas,REAL,FAKE,,,,,,,,,,,,,,,,,,,,,,,,,,,,,,,
,,,,,,,5eb5c26dd25d2549d228fdf1,605b45a4d25f287719a41696,605fcdb0e1717bd70e6bbe9d,United States,East coast,13 or older,no,2021-03-27_20h29.16.843,empathy_intonation_perc,2020.2.10,Win32,60,,,,,,,,,,0,,,,,,,,,,,,,,,,,,,,,,,,,,,,,,,,0,1,1.04079,0,6,6,6,1,0,priba,REAL,FAKE,,,,,,,,,,,,,,,,,,,,,,,,,,,,,,,
,,,,,,,5eb5c26dd25d2549d228fdf1,605b45a4d25f287719a41696,605fcdb0e1717bd70e6bbe9d,United States,East coast,13 or older,no,2021-03-27_20h29.16.843,empathy_intonation_perc,2020.2.10,Win32,60,,,,,,,,,,0,,,,,,,,,,,,,,,,,,,,,,,,,,,,,,,,0,1,1.2354,0,7,7,7,1,0,pelasula,REAL,FAKE,,,,,,,,,,,,,,,,,,,,,,,,,,,,,,,
,,,,,,,5eb5c26dd25d2549d228fdf1,605b45a4d25f287719a41696,605fcdb0e1717bd70e6bbe9d,United States,East coast,13 or older,no,2021-03-27_20h29.16.843,empathy_intonation_perc,2020.2.10,Win32,60,,,,,,,,,,1,,,,,,,,,,,,,,,,,,,,,,,,,,,,,,,,1,1,0.85749,0,8,8,8,1,0,bien,REAL,FAKE,,,,,,,,,,,,,,,,,,,,,,,,,,,,,,,
,,,,,,,5eb5c26dd25d2549d228fdf1,605b45a4d25f287719a41696,605fcdb0e1717bd70e6bbe9d,United States,East coast,13 or older,no,2021-03-27_20h29.16.843,empathy_intonation_perc,2020.2.10,Win32,60,,,,,,,,,,1,,,,,,,,,,,,,,,,,,,,,,,,,,,,,,,,1,1,0.68322,0,9,9,9,1,0,casa,REAL,FAKE,,,,,,,,,,,,,,,,,,,,,,,,,,,,,,,
,,,,,,,5eb5c26dd25d2549d228fdf1,605b45a4d25f287719a41696,605fcdb0e1717bd70e6bbe9d,United States,East coast,13 or older,no,2021-03-27_20h29.16.843,empathy_intonation_perc,2020.2.10,Win32,60,,,,,,,,,,0,,,,,,,,,,,,,,,,,,,,,,,,,,,,,,,,0,1,1.007505001,0,10,10,10,1,0,lejo,REAL,FAKE,,,,,,,,,,,,,,,,,,,,,,,,,,,,,,,
,,,,,,,5eb5c26dd25d2549d228fdf1,605b45a4d25f287719a41696,605fcdb0e1717bd70e6bbe9d,United States,East coast,13 or older,no,2021-03-27_20h29.16.843,empathy_intonation_perc,2020.2.10,Win32,60,,,,,,,,,,0,,,,,,,,,,,,,,,,,,,,,,,,,,,,,,,,1,0,1.925795,0,11,11,11,1,0,pretantas,REAL,FAKE,,,,,,,,,,,,,,,,,,,,,,,,,,,,,,,
,,,,,,,5eb5c26dd25d2549d228fdf1,605b45a4d25f287719a41696,605fcdb0e1717bd70e6bbe9d,United States,East coast,13 or older,no,2021-03-27_20h29.16.843,empathy_intonation_perc,2020.2.10,Win32,60,,,,,,,,,,1,,,,,,,,,,,,,,,,,,,,,,,,,,,,,,,,,,,,,,,,60,matar,,,0,0,1.04794,0,0,0,59,1,REAL,FAKE,,,,,,,,,,,,,,,,,,,,,
,,,,,,,5eb5c26dd25d2549d228fdf1,605b45a4d25f287719a41696,605fcdb0e1717bd70e6bbe9d,United States,East coast,13 or older,no,2021-03-27_20h29.16.843,empathy_intonation_perc,2020.2.10,Win32,60,,,,,,,,,,0,,,,,,,,,,,,,,,,,,,,,,,,,,,,,,,,,,,,,,,,10,antar,,,0,1,1.96566,0,1,1,9,1,REAL,FAKE,,,,,,,,,,,,,,,,,,,,,
,,,,,,,5eb5c26dd25d2549d228fdf1,605b45a4d25f287719a41696,605fcdb0e1717bd70e6bbe9d,United States,East coast,13 or older,no,2021-03-27_20h29.16.843,empathy_intonation_perc,2020.2.10,Win32,60,,,,,,,,,,0,,,,,,,,,,,,,,,,,,,,,,,,,,,,,,,,,,,,,,,,19,brecedad,,,0,1,2.297605,0,2,2,18,1,REAL,FAKE,,,,,,,,,,,,,,,,,,,,,
,,,,,,,5eb5c26dd25d2549d228fdf1,605b45a4d25f287719a41696,605fcdb0e1717bd70e6bbe9d,United States,East coast,13 or older,no,2021-03-27_20h29.16.843,empathy_intonation_perc,2020.2.10,Win32,60,,,,,,,,,,1,,,,,,,,,,,,,,,,,,,,,,,,,,,,,,,,,,,,,,,,69,engatusar,,,1,1,2.119965,0,3,3,68,1,REAL,FAKE,,,,,,,,,,,,,,,,,,,,,
,,,,,,,5eb5c26dd25d2549d228fdf1,605b45a4d25f287719a41696,605fcdb0e1717bd70e6bbe9d,United States,East coast,13 or older,no,2021-03-27_20h29.16.843,empathy_intonation_perc,2020.2.10,Win32,60,,,,,,,,,,1,,,,,,,,,,,,,,,,,,,,,,,,,,,,,,,,,,,,,,,,11,cenefa,,,0,0,1.0581,0,4,4,10,1,REAL,FAKE,,,,,,,,,,,,,,,,,,,,,
,,,,,,,5eb5c26dd25d2549d228fdf1,605b45a4d25f287719a41696,605fcdb0e1717bd70e6bbe9d,United States,East coast,13 or older,no,2021-03-27_20h29.16.843,empathy_intonation_perc,2020.2.10,Win32,60,,,,,,,,,,1,,,,,,,,,,,,,,,,,,,,,,,,,,,,,,,,,,,,,,,,28,merodear,,,0,0,1.109775,0,5,5,27,1,REAL,FAKE,,,,,,,,,,,,,,,,,,,,,
,,,,,,,5eb5c26dd25d2549d228fdf1,605b45a4d25f287719a41696,605fcdb0e1717bd70e6bbe9d,United States,East coast,13 or older,no,2021-03-27_20h29.16.843,empathy_intonation_perc,2020.2.10,Win32,60,,,,,,,,,,1,,,,,,,,,,,,,,,,,,,,,,,,,,,,,,,,,,,,,,,,48,ladrn,,,1,1,0.685965,0,6,6,47,1,REAL,FAKE,,,,,,,,,,,,,,,,,,,,,
,,,,,,,5eb5c26dd25d2549d228fdf1,605b45a4d25f287719a41696,605fcdb0e1717bd70e6bbe9d,United States,East coast,13 or older,no,2021-03-27_20h29.16.843,empathy_intonation_perc,2020.2.10,Win32,60,,,,,,,,,,1,,,,,,,,,,,,,,,,,,,,,,,,,,,,,,,,,,,,,,,,13,helar,,,0,0,1.908575,0,7,7,12,1,REAL,FAKE,,,,,,,,,,,,,,,,,,,,,
,,,,,,,5eb5c26dd25d2549d228fdf1,605b45a4d25f287719a41696,605fcdb0e1717bd70e6bbe9d,United States,East coast,13 or older,no,2021-03-27_20h29.16.843,empathy_intonation_perc,2020.2.10,Win32,60,,,,,,,,,,1,,,,,,,,,,,,,,,,,,,,,,,,,,,,,,,,,,,,,,,,88,acantilado,,,0,0,1.598224999,0,8,8,87,1,REAL,FAKE,,,,,,,,,,,,,,,,,,,,,
,,,,,,,5eb5c26dd25d2549d228fdf1,605b45a4d25f287719a41696,605fcdb0e1717bd70e6bbe9d,United States,East coast,13 or older,no,2021-03-27_20h29.16.843,empathy_intonation_perc,2020.2.10,Win32,60,,,,,,,,,,1,,,,,,,,,,,,,,,,,,,,,,,,,,,,,,,,,,,,,,,,75,yacer,,,0,0,1.59287,0,9,9,74,1,REAL,FAKE,,,,,,,,,,,,,,,,,,,,,
,,,,,,,5eb5c26dd25d2549d228fdf1,605b45a4d25f287719a41696,605fcdb0e1717bd70e6bbe9d,United States,East coast,13 or older,no,2021-03-27_20h29.16.843,empathy_intonation_perc,2020.2.10,Win32,60,,,,,,,,,,1,,,,,,,,,,,,,,,,,,,,,,,,,,,,,,,,,,,,,,,,3,pulmones,,,0,0,1.40423,0,10,10,2,1,REAL,FAKE,,,,,,,,,,,,,,,,,,,,,
,,,,,,,5eb5c26dd25d2549d228fdf1,605b45a4d25f287719a41696,605fcdb0e1717bd70e6bbe9d,United States,East coast,13 or older,no,2021-03-27_20h29.16.843,empathy_intonation_perc,2020.2.10,Win32,60,,,,,,,,,,1,,,,,,,,,,,,,,,,,,,,,,,,,,,,,,,,,,,,,,,,26,secuestro,,,1,1,1.48169,0,11,11,25,1,REAL,FAKE,,,,,,,,,,,,,,,,,,,,,
,,,,,,,5eb5c26dd25d2549d228fdf1,605b45a4d25f287719a41696,605fcdb0e1717bd70e6bbe9d,United States,East coast,13 or older,no,2021-03-27_20h29.16.843,empathy_intonation_perc,2020.2.10,Win32,60,,,,,,,,,,0,,,,,,,,,,,,,,,,,,,,,,,,,,,,,,,,,,,,,,,,29,decar,,,0,1,1.97117,0,12,12,28,1,REAL,FAKE,,,,,,,,,,,,,,,,,,,,,
,,,,,,,5eb5c26dd25d2549d228fdf1,605b45a4d25f287719a41696,605fcdb0e1717bd70e6bbe9d,United States,East coast,13 or older,no,2021-03-27_20h29.16.843,empathy_intonation_perc,2020.2.10,Win32,60,,,,,,,,,,1,,,,,,,,,,,,,,,,,,,,,,,,,,,,,,,,,,,,,,,,12,asesinato,,,0,0,1.85779,0,13,13,11,1,REAL,FAKE,,,,,,,,,,,,,,,,,,,,,
,,,,,,,5eb5c26dd25d2549d228fdf1,605b45a4d25f287719a41696,605fcdb0e1717bd70e6bbe9d,United States,East coast,13 or older,no,2021-03-27_20h29.16.843,empathy_intonation_perc,2020.2.10,Win32,60,,,,,,,,,,0,,,,,,,,,,,,,,,,,,,,,,,,,,,,,,,,,,,,,,,,8,cadea,,,1,0,1.85021,0,14,14,7,1,REAL,FAKE,,,,,,,,,,,,,,,,,,,,,
,,,,,,,5eb5c26dd25d2549d228fdf1,605b45a4d25f287719a41696,605fcdb0e1717bd70e6bbe9d,United States,East coast,13 or older,no,2021-03-27_20h29.16.843,empathy_intonation_perc,2020.2.10,Win32,60,,,,,,,,,,1,,,,,,,,,,,,,,,,,,,,,,,,,,,,,,,,,,,,,,,,55,nevar,,,1,1,1.348375,0,15,15,54,1,REAL,FAKE,,,,,,,,,,,,,,,,,,,,,
,,,,,,,5eb5c26dd25d2549d228fdf1,605b45a4d25f287719a41696,605fcdb0e1717bd70e6bbe9d,United States,East coast,13 or older,no,2021-03-27_20h29.16.843,empathy_intonation_perc,2020.2.10,Win32,60,,,,,,,,,,0,,,,,,,,,,,,,,,,,,,,,,,,,,,,,,,,,,,,,,,,42,cadallo,,,1,0,1.96502,0,16,16,41,1,REAL,FAKE,,,,,,,,,,,,,,,,,,,,,
,,,,,,,5eb5c26dd25d2549d228fdf1,605b45a4d25f287719a41696,605fcdb0e1717bd70e6bbe9d,United States,East coast,13 or older,no,2021-03-27_20h29.16.843,empathy_intonation_perc,2020.2.10,Win32,60,,,,,,,,,,0,,,,,,,,,,,,,,,,,,,,,,,,,,,,,,,,,,,,,,,,33,pauca,,,0,1,1.130445,0,17,17,32,1,REAL,FAKE,,,,,,,,,,,,,,,,,,,,,
,,,,,,,5eb5c26dd25d2549d228fdf1,605b45a4d25f287719a41696,605fcdb0e1717bd70e6bbe9d,United States,East coast,13 or older,no,2021-03-27_20h29.16.843,empathy_intonation_perc,2020.2.10,Win32,60,,,,,,,,,,0,,,,,,,,,,,,,,,,,,,,,,,,,,,,,,,,,,,,,,,,72,pemicin,,,0,1,2.215975,0,18,18,71,1,REAL,FAKE,,,,,,,,,,,,,,,,,,,,,
,,,,,,,5eb5c26dd25d2549d228fdf1,605b45a4d25f287719a41696,605fcdb0e1717bd70e6bbe9d,United States,East coast,13 or older,no,2021-03-27_20h29.16.843,empathy_intonation_perc,2020.2.10,Win32,60,,,,,,,,,,1,,,,,,,,,,,,,,,,,,,,,,,,,,,,,,,,,,,,,,,,2,pellizcar,,,0,0,1.90452,0,19,19,1,1,REAL,FAKE,,,,,,,,,,,,,,,,,,,,,
,,,,,,,5eb5c26dd25d2549d228fdf1,605b45a4d25f287719a41696,605fcdb0e1717bd70e6bbe9d,United States,East coast,13 or older,no,2021-03-27_20h29.16.843,empathy_intonation_perc,2020.2.10,Win32,60,,,,,,,,,,1,,,,,,,,,,,,,,,,,,,,,,,,,,,,,,,,,,,,,,,,65,bizcocho,,,0,0,1.3695,0,20,20,64,1,REAL,FAKE,,,,,,,,,,,,,,,,,,,,,
,,,,,,,5eb5c26dd25d2549d228fdf1,605b45a4d25f287719a41696,605fcdb0e1717bd70e6bbe9d,United States,East coast,13 or older,no,2021-03-27_20h29.16.843,empathy_intonation_perc,2020.2.10,Win32,60,,,,,,,,,,0,,,,,,,,,,,,,,,,,,,,,,,,,,,,,,,,,,,,,,,,79,tropaje,,,0,1,2.21493,0,21,21,78,1,REAL,FAKE,,,,,,,,,,,,,,,,,,,,,
,,,,,,,5eb5c26dd25d2549d228fdf1,605b45a4d25f287719a41696,605fcdb0e1717bd70e6bbe9d,United States,East coast,13 or older,no,2021-03-27_20h29.16.843,empathy_intonation_perc,2020.2.10,Win32,60,,,,,,,,,,0,,,,,,,,,,,,,,,,,,,,,,,,,,,,,,,,,,,,,,,,63,esposante,,,0,1,2.547305,0,22,22,62,1,REAL,FAKE,,,,,,,,,,,,,,,,,,,,,
,,,,,,,5eb5c26dd25d2549d228fdf1,605b45a4d25f287719a41696,605fcdb0e1717bd70e6bbe9d,United States,East coast,13 or older,no,2021-03-27_20h29.16.843,empathy_intonation_perc,2020.2.10,Win32,60,,,,,,,,,,1,,,,,,,,,,,,,,,,,,,,,,,,,,,,,,,,,,,,,,,,90,clavel,,,0,0,1.028814999,0,23,23,89,1,REAL,FAKE,,,,,,,,,,,,,,,,,,,,,
,,,,,,,5eb5c26dd25d2549d228fdf1,605b45a4d25f287719a41696,605fcdb0e1717bd70e6bbe9d,United States,East coast,13 or older,no,2021-03-27_20h29.16.843,empathy_intonation_perc,2020.2.10,Win32,60,,,,,,,,,,0,,,,,,,,,,,,,,,,,,,,,,,,,,,,,,,,,,,,,,,,32,fatacidad,,,0,1,1.76209,0,24,24,31,1,REAL,FAKE,,,,,,,,,,,,,,,,,,,,,
,,,,,,,5eb5c26dd25d2549d228fdf1,605b45a4d25f287719a41696,605fcdb0e1717bd70e6bbe9d,United States,East coast,13 or older,no,2021-03-27_20h29.16.843,empathy_intonation_perc,2020.2.10,Win32,60,,,,,,,,,,0,,,,,,,,,,,,,,,,,,,,,,,,,,,,,,,,,,,,,,,,53,vegada,,,0,1,1.471135001,0,25,25,52,1,REAL,FAKE,,,,,,,,,,,,,,,,,,,,,
,,,,,,,5eb5c26dd25d2549d228fdf1,605b45a4d25f287719a41696,605fcdb0e1717bd70e6bbe9d,United States,East coast,13 or older,no,2021-03-27_20h29.16.843,empathy_intonation_perc,2020.2.10,Win32,60,,,,,,,,,,0,,,,,,,,,,,,,,,,,,,,,,,,,,,,,,,,,,,,,,,,84,escuto,,,1,0,1.34599,0,26,26,83,1,REAL,FAKE,,,,,,,,,,,,,,,,,,,,,
,,,,,,,5eb5c26dd25d2549d228fdf1,605b45a4d25f287719a41696,605fcdb0e1717bd70e6bbe9d,United States,East coast,13 or older,no,2021-03-27_20h29.16.843,empathy_intonation_perc,2020.2.10,Win32,60,,,,,,,,,,1,,,,,,,,,,,,,,,,,,,,,,,,,,,,,,,,,,,,,,,,61,seda,,,1,1,1.204915,0,27,27,60,1,REAL,FAKE,,,,,,,,,,,,,,,,,,,,,
,,,,,,,5eb5c26dd25d2549d228fdf1,605b45a4d25f287719a41696,605fcdb0e1717bd70e6bbe9d,United States,East coast,13 or older,no,2021-03-27_20h29.16.843,empathy_intonation_perc,2020.2.10,Win32,60,,,,,,,,,,0,,,,,,,,,,,,,,,,,,,,,,,,,,,,,,,,,,,,,,,,18,arsa,,,0,1,1.0045,0,28,28,17,1,REAL,FAKE,,,,,,,,,,,,,,,,,,,,,
,,,,,,,5eb5c26dd25d2549d228fdf1,605b45a4d25f287719a41696,605fcdb0e1717bd70e6bbe9d,United States,East coast,13 or older,no,2021-03-27_20h29.16.843,empathy_intonation_perc,2020.2.10,Win32,60,,,,,,,,,,1,,,,,,,,,,,,,,,,,,,,,,,,,,,,,,,,,,,,,,,,81,pozo,,,0,0,1.697955,0,29,29,80,1,REAL,FAKE,,,,,,,,,,,,,,,,,,,,,
,,,,,,,5eb5c26dd25d2549d228fdf1,605b45a4d25f287719a41696,605fcdb0e1717bd70e6bbe9d,United States,East coast,13 or older,no,2021-03-27_20h29.16.843,empathy_intonation_perc,2020.2.10,Win32,60,,,,,,,,,,1,,,,,,,,,,,,,,,,,,,,,,,,,,,,,,,,,,,,,,,,14,yunque,,,0,0,1.182370001,0,30,30,13,1,REAL,FAKE,,,,,,,,,,,,,,,,,,,,,
,,,,,,,5eb5c26dd25d2549d228fdf1,605b45a4d25f287719a41696,605fcdb0e1717bd70e6bbe9d,United States,East coast,13 or older,no,2021-03-27_20h29.16.843,empathy_intonation_perc,2020.2.10,Win32,60,,,,,,,,,,0,,,,,,,,,,,,,,,,,,,,,,,,,,,,,,,,,,,,,,,,23,lampera,,,1,0,2.097604999,0,31,31,22,1,REAL,FAKE,,,,,,,,,,,,,,,,,,,,,
,,,,,,,5eb5c26dd25d2549d228fdf1,605b45a4d25f287719a41696,605fcdb0e1717bd70e6bbe9d,United States,East coast,13 or older,no,2021-03-27_20h29.16.843,empathy_intonation_perc,2020.2.10,Win32,60,,,,,,,,,,0,,,,,,,,,,,,,,,,,,,,,,,,,,,,,,,,,,,,,,,,21,capillo,,,1,0,1.15355,0,32,32,20,1,REAL,FAKE,,,,,,,,,,,,,,,,,,,,,
,,,,,,,5eb5c26dd25d2549d228fdf1,605b45a4d25f287719a41696,605fcdb0e1717bd70e6bbe9d,United States,East coast,13 or older,no,2021-03-27_20h29.16.843,empathy_intonation_perc,2020.2.10,Win32,60,,,,,,,,,,1,,,,,,,,,,,,,,,,,,,,,,,,,,,,,,,,,,,,,,,,20,vido,,,1,1,2.648624999,0,33,33,19,1,REAL,FAKE,,,,,,,,,,,,,,,,,,,,,
,,,,,,,5eb5c26dd25d2549d228fdf1,605b45a4d25f287719a41696,605fcdb0e1717bd70e6bbe9d,United States,East coast,13 or older,no,2021-03-27_20h29.16.843,empathy_intonation_perc,2020.2.10,Win32,60,,,,,,,,,,1,,,,,,,,,,,,,,,,,,,,,,,,,,,,,,,,,,,,,,,,49,ganar,,,0,0,0.98361,0,34,34,48,1,REAL,FAKE,,,,,,,,,,,,,,,,,,,,,
,,,,,,,5eb5c26dd25d2549d228fdf1,605b45a4d25f287719a41696,605fcdb0e1717bd70e6bbe9d,United States,East coast,13 or older,no,2021-03-27_20h29.16.843,empathy_intonation_perc,2020.2.10,Win32,60,,,,,,,,,,1,,,,,,,,,,,,,,,,,,,,,,,,,,,,,,,,,,,,,,,,80,hormiga,,,0,0,1.476245,0,35,35,79,1,REAL,FAKE,,,,,,,,,,,,,,,,,,,,,
,,,,,,,5eb5c26dd25d2549d228fdf1,605b45a4d25f287719a41696,605fcdb0e1717bd70e6bbe9d,United States,East coast,13 or older,no,2021-03-27_20h29.16.843,empathy_intonation_perc,2020.2.10,Win32,60,,,,,,,,,,1,,,,,,,,,,,,,,,,,,,,,,,,,,,,,,,,,,,,,,,,6,tergiversar,,,0,0,1.577065,0,36,36,5,1,REAL,FAKE,,,,,,,,,,,,,,,,,,,,,
,,,,,,,5eb5c26dd25d2549d228fdf1,605b45a4d25f287719a41696,605fcdb0e1717bd70e6bbe9d,United States,East coast,13 or older,no,2021-03-27_20h29.16.843,empathy_intonation_perc,2020.2.10,Win32,60,,,,,,,,,,1,,,,,,,,,,,,,,,,,,,,,,,,,,,,,,,,,,,,,,,,39,torpe,,,1,1,1.188555,0,37,37,38,1,REAL,FAKE,,,,,,,,,,,,,,,,,,,,,
,,,,,,,5eb5c26dd25d2549d228fdf1,605b45a4d25f287719a41696,605fcdb0e1717bd70e6bbe9d,United States,East coast,13 or older,no,2021-03-27_20h29.16.843,empathy_intonation_perc,2020.2.10,Win32,60,,,,,,,,,,1,,,,,,,,,,,,,,,,,,,,,,,,,,,,,,,,,,,,,,,,64,orgulloso,,,0,0,1.39791,0,38,38,63,1,REAL,FAKE,,,,,,,,,,,,,,,,,,,,,
,,,,,,,5eb5c26dd25d2549d228fdf1,605b45a4d25f287719a41696,605fcdb0e1717bd70e6bbe9d,United States,East coast,13 or older,no,2021-03-27_20h29.16.843,empathy_intonation_perc,2020.2.10,Win32,60,,,,,,,,,,1,,,,,,,,,,,,,,,,,,,,,,,,,,,,,,,,,,,,,,,,5,zapato,,,0,0,0.794465,0,39,39,4,1,REAL,FAKE,,,,,,,,,,,,,,,,,,,,,
,,,,,,,5eb5c26dd25d2549d228fdf1,605b45a4d25f287719a41696,605fcdb0e1717bd70e6bbe9d,United States,East coast,13 or older,no,2021-03-27_20h29.16.843,empathy_intonation_perc,2020.2.10,Win32,60,,,,,,,,,,1,,,,,,,,,,,,,,,,,,,,,,,,,,,,,,,,,,,,,,,,73,hervidor,,,0,0,2.364045,0,40,40,72,1,REAL,FAKE,,,,,,,,,,,,,,,,,,,,,
,,,,,,,5eb5c26dd25d2549d228fdf1,605b45a4d25f287719a41696,605fcdb0e1717bd70e6bbe9d,United States,East coast,13 or older,no,2021-03-27_20h29.16.843,empathy_intonation_perc,2020.2.10,Win32,60,,,,,,,,,,0,,,,,,,,,,,,,,,,,,,,,,,,,,,,,,,,,,,,,,,,1,terzo,,,1,0,0.85459,0,41,41,0,1,REAL,FAKE,,,,,,,,,,,,,,,,,,,,,
,,,,,,,5eb5c26dd25d2549d228fdf1,605b45a4d25f287719a41696,605fcdb0e1717bd70e6bbe9d,United States,East coast,13 or older,no,2021-03-27_20h29.16.843,empathy_intonation_perc,2020.2.10,Win32,60,,,,,,,,,,0,,,,,,,,,,,,,,,,,,,,,,,,,,,,,,,,,,,,,,,,16,abracer,,,0,1,1.69506,0,42,42,15,1,REAL,FAKE,,,,,,,,,,,,,,,,,,,,,
,,,,,,,5eb5c26dd25d2549d228fdf1,605b45a4d25f287719a41696,605fcdb0e1717bd70e6bbe9d,United States,East coast,13 or older,no,2021-03-27_20h29.16.843,empathy_intonation_perc,2020.2.10,Win32,60,,,,,,,,,,0,,,,,,,,,,,,,,,,,,,,,,,,,,,,,,,,,,,,,,,,17,floroso,,,0,1,1.780809999,0,43,43,16,1,REAL,FAKE,,,,,,,,,,,,,,,,,,,,,
,,,,,,,5eb5c26dd25d2549d228fdf1,605b45a4d25f287719a41696,605fcdb0e1717bd70e6bbe9d,United States,East coast,13 or older,no,2021-03-27_20h29.16.843,empathy_intonation_perc,2020.2.10,Win32,60,,,,,,,,,,1,,,,,,,,,,,,,,,,,,,,,,,,,,,,,,,,,,,,,,,,67,cabello,,,1,1,0.797505001,0,44,44,66,1,REAL,FAKE,,,,,,,,,,,,,,,,,,,,,
,,,,,,,5eb5c26dd25d2549d228fdf1,605b45a4d25f287719a41696,605fcdb0e1717bd70e6bbe9d,United States,East coast,13 or older,no,2021-03-27_20h29.16.843,empathy_intonation_perc,2020.2.10,Win32,60,,,,,,,,,,1,,,,,,,,,,,,,,,,,,,,,,,,,,,,,,,,,,,,,,,,15,regar,,,0,0,1.349374999,0,45,45,14,1,REAL,FAKE,,,,,,,,,,,,,,,,,,,,,
,,,,,,,5eb5c26dd25d2549d228fdf1,605b45a4d25f287719a41696,605fcdb0e1717bd70e6bbe9d,United States,East coast,13 or older,no,2021-03-27_20h29.16.843,empathy_intonation_perc,2020.2.10,Win32,60,,,,,,,,,,1,,,,,,,,,,,,,,,,,,,,,,,,,,,,,,,,,,,,,,,,62,flaco,,,1,1,1.079135,0,46,46,61,1,REAL,FAKE,,,,,,,,,,,,,,,,,,,,,
,,,,,,,5eb5c26dd25d2549d228fdf1,605b45a4d25f287719a41696,605fcdb0e1717bd70e6bbe9d,United States,East coast,13 or older,no,2021-03-27_20h29.16.843,empathy_intonation_perc,2020.2.10,Win32,60,,,,,,,,,,0,,,,,,,,,,,,,,,,,,,,,,,,,,,,,,,,,,,,,,,,27,acutacin,,,1,0,1.75588,0,47,47,26,1,REAL,FAKE,,,,,,,,,,,,,,,,,,,,,
,,,,,,,5eb5c26dd25d2549d228fdf1,605b45a4d25f287719a41696,605fcdb0e1717bd70e6bbe9d,United States,East coast,13 or older,no,2021-03-27_20h29.16.843,empathy_intonation_perc,2020.2.10,Win32,60,,,,,,,,,,0,,,,,,,,,,,,,,,,,,,,,,,,,,,,,,,,,,,,,,,,4,batilln,,,0,1,2.614295,0,48,48,3,1,REAL,FAKE,,,,,,,,,,,,,,,,,,,,,
,,,,,,,5eb5c26dd25d2549d228fdf1,605b45a4d25f287719a41696,605fcdb0e1717bd70e6bbe9d,United States,East coast,13 or older,no,2021-03-27_20h29.16.843,empathy_intonation_perc,2020.2.10,Win32,60,,,,,,,,,,1,,,,,,,,,,,,,,,,,,,,,,,,,,,,,,,,,,,,,,,,9,hacha,,,0,0,1.1372,0,49,49,8,1,REAL,FAKE,,,,,,,,,,,,,,,,,,,,,
,,,,,,,5eb5c26dd25d2549d228fdf1,605b45a4d25f287719a41696,605fcdb0e1717bd70e6bbe9d,United States,East coast,13 or older,no,2021-03-27_20h29.16.843,empathy_intonation_perc,2020.2.10,Win32,60,,,,,,,,,,0,,,,,,,,,,,,,,,,,,,,,,,,,,,,,,,,,,,,,,,,66,hacido,,,1,0,1.89436,0,50,50,65,1,REAL,FAKE,,,,,,,,,,,,,,,,,,,,,
,,,,,,,5eb5c26dd25d2549d228fdf1,605b45a4d25f287719a41696,605fcdb0e1717bd70e6bbe9d,United States,East coast,13 or older,no,2021-03-27_20h29.16.843,empathy_intonation_perc,2020.2.10,Win32,60,,,,,,,,,,1,,,,,,,,,,,,,,,,,,,,,,,,,,,,,,,,,,,,,,,,83,guante,,,1,1,0.893525,0,51,51,82,1,REAL,FAKE,,,,,,,,,,,,,,,,,,,,,
,,,,,,,5eb5c26dd25d2549d228fdf1,605b45a4d25f287719a41696,605fcdb0e1717bd70e6bbe9d,United States,East coast,13 or older,no,2021-03-27_20h29.16.843,empathy_intonation_perc,2020.2.10,Win32,60,,,,,,,,,,1,,,,,,,,,,,,,,,,,,,,,,,,,,,,,,,,,,,,,,,,89,prisa,,,0,0,1.300475,0,52,52,88,1,REAL,FAKE,,,,,,,,,,,,,,,,,,,,,
,,,,,,,5eb5c26dd25d2549d228fdf1,605b45a4d25f287719a41696,605fcdb0e1717bd70e6bbe9d,United States,East coast,13 or older,no,2021-03-27_20h29.16.843,empathy_intonation_perc,2020.2.10,Win32,60,,,,,,,,,,0,,,,,,,,,,,,,,,,,,,,,,,,,,,,,,,,,,,,,,,,58,plaudir,,,0,1,1.161359999,0,53,53,57,1,REAL,FAKE,,,,,,,,,,,,,,,,,,,,,
,,,,,,,5eb5c26dd25d2549d228fdf1,605b45a4d25f287719a41696,605fcdb0e1717bd70e6bbe9d,United States,East coast,13 or older,no,2021-03-27_20h29.16.843,empathy_intonation_perc,2020.2.10,Win32,60,,,,,,,,,,1,,,,,,,,,,,,,,,,,,,,,,,,,,,,,,,,,,,,,,,,36,loro,,,0,0,0.957675,0,54,54,35,1,REAL,FAKE,,,,,,,,,,,,,,,,,,,,,
,,,,,,,5eb5c26dd25d2549d228fdf1,605b45a4d25f287719a41696,605fcdb0e1717bd70e6bbe9d,United States,East coast,13 or older,no,2021-03-27_20h29.16.843,empathy_intonation_perc,2020.2.10,Win32,60,,,,,,,,,,1,,,,,,,,,,,,,,,,,,,,,,,,,,,,,,,,,,,,,,,,86,barato,,,0,0,1.850935,0,55,55,85,1,REAL,FAKE,,,,,,,,,,,,,,,,,,,,,
,,,,,,,5eb5c26dd25d2549d228fdf1,605b45a4d25f287719a41696,605fcdb0e1717bd70e6bbe9d,United States,East coast,13 or older,no,2021-03-27_20h29.16.843,empathy_intonation_perc,2020.2.10,Win32,60,,,,,,,,,,1,,,,,,,,,,,,,,,,,,,,,,,,,,,,,,,,,,,,,,,,7,psimo,,,1,1,2.79698,0,56,56,6,1,REAL,FAKE,,,,,,,,,,,,,,,,,,,,,
,,,,,,,5eb5c26dd25d2549d228fdf1,605b45a4d25f287719a41696,605fcdb0e1717bd70e6bbe9d,United States,East coast,13 or older,no,2021-03-27_20h29.16.843,empathy_intonation_perc,2020.2.10,Win32,60,,,,,,,,,,1,,,,,,,,,,,,,,,,,,,,,,,,,,,,,,,,,,,,,,,,51,candado,,,0,0,1.96509,0,57,57,50,1,REAL,FAKE,,,,,,,,,,,,,,,,,,,,,
,,,,,,,5eb5c26dd25d2549d228fdf1,605b45a4d25f287719a41696,605fcdb0e1717bd70e6bbe9d,United States,East coast,13 or older,no,2021-03-27_20h29.16.843,empathy_intonation_perc,2020.2.10,Win32,60,,,,,,,,,,1,,,,,,,,,,,,,,,,,,,,,,,,,,,,,,,,,,,,,,,,77,tiburn,,,0,0,1.519075001,0,58,58,76,1,REAL,FAKE,,,,,,,,,,,,,,,,,,,,,
,,,,,,,5eb5c26dd25d2549d228fdf1,605b45a4d25f287719a41696,605fcdb0e1717bd70e6bbe9d,United States,East coast,13 or older,no,2021-03-27_20h29.16.843,empathy_intonation_perc,2020.2.10,Win32,60,,,,,,,,,,1,,,,,,,,,,,,,,,,,,,,,,,,,,,,,,,,,,,,,,,,59,besar,,,0,0,1.571330001,0,59,59,58,1,REAL,FAKE,,,,,,,,,,,,,,,,,,,,,
,,,,,,,5eb5c26dd25d2549d228fdf1,605b45a4d25f287719a41696,605fcdb0e1717bd70e6bbe9d,United States,East coast,13 or older,no,2021-03-27_20h29.16.843,empathy_intonation_perc,2020.2.10,Win32,60,,,,,,,,,,0,,,,,,,,,,,,,,,,,,,,,,,,,,,,,,,,,,,,,,,,74,cintro,,,1,0,1.035495,0,60,60,73,1,REAL,FAKE,,,,,,,,,,,,,,,,,,,,,
,,,,,,,5eb5c26dd25d2549d228fdf1,605b45a4d25f287719a41696,605fcdb0e1717bd70e6bbe9d,United States,East coast,13 or older,no,2021-03-27_20h29.16.843,empathy_intonation_perc,2020.2.10,Win32,60,,,,,,,,,,0,,,,,,,,,,,,,,,,,,,,,,,,,,,,,,,,,,,,,,,,47,cartinar,,,0,1,2.16762,0,61,61,46,1,REAL,FAKE,,,,,,,,,,,,,,,,,,,,,
,,,,,,,5eb5c26dd25d2549d228fdf1,605b45a4d25f287719a41696,605fcdb0e1717bd70e6bbe9d,United States,East coast,13 or older,no,2021-03-27_20h29.16.843,empathy_intonation_perc,2020.2.10,Win32,60,,,,,,,,,,1,,,,,,,,,,,,,,,,,,,,,,,,,,,,,,,,,,,,,,,,54,fomentar,,,0,0,2.540745,0,62,62,53,1,REAL,FAKE,,,,,,,,,,,,,,,,,,,,,
,,,,,,,5eb5c26dd25d2549d228fdf1,605b45a4d25f287719a41696,605fcdb0e1717bd70e6bbe9d,United States,East coast,13 or older,no,2021-03-27_20h29.16.843,empathy_intonation_perc,2020.2.10,Win32,60,,,,,,,,,,1,,,,,,,,,,,,,,,,,,,,,,,,,,,,,,,,,,,,,,,,24,ltigo,,,1,1,1.436945,0,63,63,23,1,REAL,FAKE,,,,,,,,,,,,,,,,,,,,,
,,,,,,,5eb5c26dd25d2549d228fdf1,605b45a4d25f287719a41696,605fcdb0e1717bd70e6bbe9d,United States,East coast,13 or older,no,2021-03-27_20h29.16.843,empathy_intonation_perc,2020.2.10,Win32,60,,,,,,,,,,1,,,,,,,,,,,,,,,,,,,,,,,,,,,,,,,,,,,,,,,,46,martillo,,,0,0,1.020915,0,64,64,45,1,REAL,FAKE,,,,,,,,,,,,,,,,,,,,,
,,,,,,,5eb5c26dd25d2549d228fdf1,605b45a4d25f287719a41696,605fcdb0e1717bd70e6bbe9d,United States,East coast,13 or older,no,2021-03-27_20h29.16.843,empathy_intonation_perc,2020.2.10,Win32,60,,,,,,,,,,1,,,,,,,,,,,,,,,,,,,,,,,,,,,,,,,,,,,,,,,,37,granuja,,,0,0,1.130015,0,65,65,36,1,REAL,FAKE,,,,,,,,,,,,,,,,,,,,,
,,,,,,,5eb5c26dd25d2549d228fdf1,605b45a4d25f287719a41696,605fcdb0e1717bd70e6bbe9d,United States,East coast,13 or older,no,2021-03-27_20h29.16.843,empathy_intonation_perc,2020.2.10,Win32,60,,,,,,,,,,0,,,,,,,,,,,,,,,,,,,,,,,,,,,,,,,,,,,,,,,,50,flamida,,,0,1,1.43592,0,66,66,49,1,REAL,FAKE,,,,,,,,,,,,,,,,,,,,,
,,,,,,,5eb5c26dd25d2549d228fdf1,605b45a4d25f287719a41696,605fcdb0e1717bd70e6bbe9d,United States,East coast,13 or older,no,2021-03-27_20h29.16.843,empathy_intonation_perc,2020.2.10,Win32,60,,,,,,,,,,0,,,,,,,,,,,,,,,,,,,,,,,,,,,,,,,,,,,,,,,,82,empirador,,,1,0,1.57589,0,67,67,81,1,REAL,FAKE,,,,,,,,,,,,,,,,,,,,,
,,,,,,,5eb5c26dd25d2549d228fdf1,605b45a4d25f287719a41696,605fcdb0e1717bd70e6bbe9d,United States,East coast,13 or older,no,2021-03-27_20h29.16.843,empathy_intonation_perc,2020.2.10,Win32,60,,,,,,,,,,1,,,,,,,,,,,,,,,,,,,,,,,,,,,,,,,,,,,,,,,,40,alfombra,,,0,0,1.262565,0,68,68,39,1,REAL,FAKE,,,,,,,,,,,,,,,,,,,,,
,,,,,,,5eb5c26dd25d2549d228fdf1,605b45a4d25f287719a41696,605fcdb0e1717bd70e6bbe9d,United States,East coast,13 or older,no,2021-03-27_20h29.16.843,empathy_intonation_perc,2020.2.10,Win32,60,,,,,,,,,,1,,,,,,,,,,,,,,,,,,,,,,,,,,,,,,,,,,,,,,,,25,bisagra,,,0,0,1.047900001,0,69,69,24,1,REAL,FAKE,,,,,,,,,,,,,,,,,,,,,
,,,,,,,5eb5c26dd25d2549d228fdf1,605b45a4d25f287719a41696,605fcdb0e1717bd70e6bbe9d,United States,East coast,13 or older,no,2021-03-27_20h29.16.843,empathy_intonation_perc,2020.2.10,Win32,60,,,,,,,,,,1,,,,,,,,,,,,,,,,,,,,,,,,,,,,,,,,,,,,,,,,56,musgo,,,0,0,0.82018,0,70,70,55,1,REAL,FAKE,,,,,,,,,,,,,,,,,,,,,
,,,,,,,5eb5c26dd25d2549d228fdf1,605b45a4d25f287719a41696,605fcdb0e1717bd70e6bbe9d,United States,East coast,13 or older,no,2021-03-27_20h29.16.843,empathy_intonation_perc,2020.2.10,Win32,60,,,,,,,,,,1,,,,,,,,,,,,,,,,,,,,,,,,,,,,,,,,,,,,,,,,45,jilguero,,,0,0,1.333475,0,71,71,44,1,REAL,FAKE,,,,,,,,,,,,,,,,,,,,,
,,,,,,,5eb5c26dd25d2549d228fdf1,605b45a4d25f287719a41696,605fcdb0e1717bd70e6bbe9d,United States,East coast,13 or older,no,2021-03-27_20h29.16.843,empathy_intonation_perc,2020.2.10,Win32,60,,,,,,,,,,1,,,,,,,,,,,,,,,,,,,,,,,,,,,,,,,,,,,,,,,,43,canela,,,1,1,1.664865,0,72,72,42,1,REAL,FAKE,,,,,,,,,,,,,,,,,,,,,
,,,,,,,5eb5c26dd25d2549d228fdf1,605b45a4d25f287719a41696,605fcdb0e1717bd70e6bbe9d,United States,East coast,13 or older,no,2021-03-27_20h29.16.843,empathy_intonation_perc,2020.2.10,Win32,60,,,,,,,,,,1,,,,,,,,,,,,,,,,,,,,,,,,,,,,,,,,,,,,,,,,44,cuchara,,,0,0,0.726319999,0,73,73,43,1,REAL,FAKE,,,,,,,,,,,,,,,,,,,,,
,,,,,,,5eb5c26dd25d2549d228fdf1,605b45a4d25f287719a41696,605fcdb0e1717bd70e6bbe9d,United States,East coast,13 or older,no,2021-03-27_20h29.16.843,empathy_intonation_perc,2020.2.10,Win32,60,,,,,,,,,,1,,,,,,,,,,,,,,,,,,,,,,,,,,,,,,,,,,,,,,,,52,camisa,,,0,0,1.025300001,0,74,74,51,1,REAL,FAKE,,,,,,,,,,,,,,,,,,,,,
,,,,,,,5eb5c26dd25d2549d228fdf1,605b45a4d25f287719a41696,605fcdb0e1717bd70e6bbe9d,United States,East coast,13 or older,no,2021-03-27_20h29.16.843,empathy_intonation_perc,2020.2.10,Win32,60,,,,,,,,,,1,,,,,,,,,,,,,,,,,,,,,,,,,,,,,,,,,,,,,,,,71,polvoriento,,,0,0,1.853165,0,75,75,70,1,REAL,FAKE,,,,,,,,,,,,,,,,,,,,,
,,,,,,,5eb5c26dd25d2549d228fdf1,605b45a4d25f287719a41696,605fcdb0e1717bd70e6bbe9d,United States,East coast,13 or older,no,2021-03-27_20h29.16.843,empathy_intonation_perc,2020.2.10,Win32,60,,,,,,,,,,1,,,,,,,,,,,,,,,,,,,,,,,,,,,,,,,,,,,,,,,,78,frondoso,,,0,0,1.45566,0,76,76,77,1,REAL,FAKE,,,,,,,,,,,,,,,,,,,,,
,,,,,,,5eb5c26dd25d2549d228fdf1,605b45a4d25f287719a41696,605fcdb0e1717bd70e6bbe9d,United States,East coast,13 or older,no,2021-03-27_20h29.16.843,empathy_intonation_perc,2020.2.10,Win32,60,,,,,,,,,,1,,,,,,,,,,,,,,,,,,,,,,,,,,,,,,,,,,,,,,,,68,alegre,,,1,1,0.81517,0,77,77,67,1,REAL,FAKE,,,,,,,,,,,,,,,,,,,,,
,,,,,,,5eb5c26dd25d2549d228fdf1,605b45a4d25f287719a41696,605fcdb0e1717bd70e6bbe9d,United States,East coast,13 or older,no,2021-03-27_20h29.16.843,empathy_intonation_perc,2020.2.10,Win32,60,,,,,,,,,,0,,,,,,,,,,,,,,,,,,,,,,,,,,,,,,,,,,,,,,,,87,grodo,,,1,0,0.695370001,0,78,78,86,1,REAL,FAKE,,,,,,,,,,,,,,,,,,,,,
,,,,,,,5eb5c26dd25d2549d228fdf1,605b45a4d25f287719a41696,605fcdb0e1717bd70e6bbe9d,United States,East coast,13 or older,no,2021-03-27_20h29.16.843,empathy_intonation_perc,2020.2.10,Win32,60,,,,,,,,,,1,,,,,,,,,,,,,,,,,,,,,,,,,,,,,,,,,,,,,,,,85,lad,,,1,1,0.699345,0,79,79,84,1,REAL,FAKE,,,,,,,,,,,,,,,,,,,,,
,,,,,,,5eb5c26dd25d2549d228fdf1,605b45a4d25f287719a41696,605fcdb0e1717bd70e6bbe9d,United States,East coast,13 or older,no,2021-03-27_20h29.16.843,empathy_intonation_perc,2020.2.10,Win32,60,,,,,,,,,,0,,,,,,,,,,,,,,,,,,,,,,,,,,,,,,,,,,,,,,,,30,alardio,,,0,1,2.243685001,0,80,80,29,1,REAL,FAKE,,,,,,,,,,,,,,,,,,,,,
,,,,,,,5eb5c26dd25d2549d228fdf1,605b45a4d25f287719a41696,605fcdb0e1717bd70e6bbe9d,United States,East coast,13 or older,no,2021-03-27_20h29.16.843,empathy_intonation_perc,2020.2.10,Win32,60,,,,,,,,,,1,,,,,,,,,,,,,,,,,,,,,,,,,,,,,,,,,,,,,,,,38,estornudar,,,0,0,3.089199999,0,81,81,37,1,REAL,FAKE,,,,,,,,,,,,,,,,,,,,,
,,,,,,,5eb5c26dd25d2549d228fdf1,605b45a4d25f287719a41696,605fcdb0e1717bd70e6bbe9d,United States,East coast,13 or older,no,2021-03-27_20h29.16.843,empathy_intonation_perc,2020.2.10,Win32,60,,,,,,,,,,0,,,,,,,,,,,,,,,,,,,,,,,,,,,,,,,,,,,,,,,,35,rompido,,,1,0,1.177069999,0,82,82,34,1,REAL,FAKE,,,,,,,,,,,,,,,,,,,,,
,,,,,,,5eb5c26dd25d2549d228fdf1,605b45a4d25f287719a41696,605fcdb0e1717bd70e6bbe9d,United States,East coast,13 or older,no,2021-03-27_20h29.16.843,empathy_intonation_perc,2020.2.10,Win32,60,,,,,,,,,,1,,,,,,,,,,,,,,,,,,,,,,,,,,,,,,,,,,,,,,,,31,pandilla,,,0,0,0.815529999,0,83,83,30,1,REAL,FAKE,,,,,,,,,,,,,,,,,,,,,
,,,,,,,5eb5c26dd25d2549d228fdf1,605b45a4d25f287719a41696,605fcdb0e1717bd70e6bbe9d,United States,East coast,13 or older,no,2021-03-27_20h29.16.843,empathy_intonation_perc,2020.2.10,Win32,60,,,,,,,,,,0,,,,,,,,,,,,,,,,,,,,,,,,,,,,,,,,,,,,,,,,70,temblo,,,0,1,1.683715,0,84,84,69,1,REAL,FAKE,,,,,,,,,,,,,,,,,,,,,
,,,,,,,5eb5c26dd25d2549d228fdf1,605b45a4d25f287719a41696,605fcdb0e1717bd70e6bbe9d,United States,East coast,13 or older,no,2021-03-27_20h29.16.843,empathy_intonation_perc,2020.2.10,Win32,60,,,,,,,,,,1,,,,,,,,,,,,,,,,,,,,,,,,,,,,,,,,,,,,,,,,57,tacao,,,0,0,1.21385,0,85,85,56,1,REAL,FAKE,,,,,,,,,,,,,,,,,,,,,
,,,,,,,5eb5c26dd25d2549d228fdf1,605b45a4d25f287719a41696,605fcdb0e1717bd70e6bbe9d,United States,East coast,13 or older,no,2021-03-27_20h29.16.843,empathy_intonation_perc,2020.2.10,Win32,60,,,,,,,,,,1,,,,,,,,,,,,,,,,,,,,,,,,,,,,,,,,,,,,,,,,76,atar,,,0,0,0.914835,0,86,86,75,1,REAL,FAKE,,,,,,,,,,,,,,,,,,,,,
,,,,,,,5eb5c26dd25d2549d228fdf1,605b45a4d25f287719a41696,605fcdb0e1717bd70e6bbe9d,United States,East coast,13 or older,no,2021-03-27_20h29.16.843,empathy_intonation_perc,2020.2.10,Win32,60,,,,,,,,,,1,,,,,,,,,,,,,,,,,,,,,,,,,,,,,,,,,,,,,,,,22,lacayo,,,0,0,1.161555001,0,87,87,21,1,REAL,FAKE,,,,,,,,,,,,,,,,,,,,,
,,,,,,,5eb5c26dd25d2549d228fdf1,605b45a4d25f287719a41696,605fcdb0e1717bd70e6bbe9d,United States,East coast,13 or older,no,2021-03-27_20h29.16.843,empathy_intonation_perc,2020.2.10,Win32,60,,,,,,,,,,1,,,,,,,,,,,,,,,,,,,,,,,,,,,,,,,,,,,,,,,,34,aviso,,,0,0,1.014105,0,88,88,33,1,REAL,FAKE,,,,,,,,,,,,,,,,,,,,,
,,,,,,,5eb5c26dd25d2549d228fdf1,605b45a4d25f287719a41696,605fcdb0e1717bd70e6bbe9d,United States,East coast,13 or older,no,2021-03-27_20h29.16.843,empathy_intonation_perc,2020.2.10,Win32,60,,,,,,,,,,1,,,,,,,,,,,,,,,,,,,,,,,,,,,,,,,,,,,,,,,,41,rebuscar,,,0,0,0.993545,0,89,89,40,1,REAL,FAKE,,,,,,,,,,,,,,,,,,,,,
,,,,,,,5eb5c26dd25d2549d228fdf1,605b45a4d25f287719a41696,605fcdb0e1717bd70e6bbe9d,United States,East coast,13 or older,no,2021-03-27_20h29.16.843,empathy_intonation_perc,2020.2.10,Win32,60,,,,,,,,,,,,,,,,,,,,,,,,,,,,,,,,,,,,,,,,,,,,,,,,,,,,,,,,,,,,,,,,4,1,5.03656,1,0,0,0,0,0,1,,,,,,,,,,,
,,,,,,,5eb5c26dd25d2549d228fdf1,605b45a4d25f287719a41696,605fcdb0e1717bd70e6bbe9d,United States,East coast,13 or older,no,2021-03-27_20h29.16.843,empathy_intonation_perc,2020.2.10,Win32,60,,,,,,,,,,,,,,,,,,,,1,,,,,,,,,,,,,,,,,,,,,,,,,,,,,,,,,,,,,,,,,,,,,,,,,,,,,,1,0,0,0,0,1,I can easily tell if someone else wants to enter a conversation.,1,0,1,0
,,,,,,,5eb5c26dd25d2549d228fdf1,605b45a4d25f287719a41696,605fcdb0e1717bd70e6bbe9d,United States,East coast,13 or older,no,2021-03-27_20h29.16.843,empathy_intonation_perc,2020.2.10,Win32,60,,,,,,,,,,,,,,,,,,,,2,,,,,,,,,,,,,,,,,,,,,,,,,,,,,,,,,,,,,,,,,,,,,,,,,,,,,,3,0,1,1,1,1,I prefer animals to humans.,0,1,0,0
,,,,,,,5eb5c26dd25d2549d228fdf1,605b45a4d25f287719a41696,605fcdb0e1717bd70e6bbe9d,United States,East coast,13 or older,no,2021-03-27_20h29.16.843,empathy_intonation_perc,2020.2.10,Win32,60,,,,,,,,,,,,,,,,,,,,3,,,,,,,,,,,,,,,,,,,,,,,,,,,,,,,,,,,,,,,,,,,,,,,,,,,,,,2,0,2,2,2,1,I try to keep up with the current trends and fashions.,0,1,0,0
