instructions_2afc_loop.thisRepN,instructions_2afc_loop.thisTrialN,instructions_2afc_loop.thisN,instructions_2afc_loop.thisIndex,instructions_2afc_loop.ran,instructions_text,continue_text,participant,study_id,session,I am most familiar with Spanish from...*,What part of the US are you from?*,At what age did you begin learning Spanish?*,Are you proficient in any languages other than English/Spanish?*,date,expName,psychopyVersion,OS,frameRate,key_resp_2afc_practice.keys,key_resp_2afc_practice.corr,key_resp_2afc_practice.rt,trials_2afc_practice_loop.thisRepN,trials_2afc_practice_loop.thisTrialN,trials_2afc_practice_loop.thisN,trials_2afc_practice_loop.thisIndex,trials_2afc_practice_loop.ran,path,correct_response,the_col,key_resp_2afc_trial.keys,key_resp_2afc_trial.corr,key_resp_2afc_trial.rt,trials_2afc_loop.thisRepN,trials_2afc_loop.thisTrialN,trials_2afc_loop.thisN,trials_2afc_loop.thisIndex,trials_2afc_loop.ran,item_num,andalusian,argentine,castilian,chilean,cuban,mexican,peruvian,puertorican,key_resp_ac1.keys,key_resp_ac1.corr,key_resp_ac1.rt,ac1_loop.thisRepN,ac1_loop.thisTrialN,ac1_loop.thisN,ac1_loop.thisIndex,ac1_loop.ran,instructions_lextale_loop.thisRepN,instructions_lextale_loop.thisTrialN,instructions_lextale_loop.thisN,instructions_lextale_loop.thisIndex,instructions_lextale_loop.ran,key_resp_lextale_practice.keys,key_resp_lextale_practice.corr,key_resp_lextale_practice.rt,trials_lextale_practice_loop.thisRepN,trials_lextale_practice_loop.thisTrialN,trials_lextale_practice_loop.thisN,trials_lextale_practice_loop.thisIndex,trials_lextale_practice_loop.ran,stim,word,prac_button_real,prac_button_false,key_resp_lextale_trial.keys,key_resp_lextale_trial.corr,key_resp_lextale_trial.rt,trials_lextale_loop.thisRepN,trials_lextale_loop.thisTrialN,trials_lextale_loop.thisN,trials_lextale_loop.thisIndex,trials_lextale_loop.ran,button_real,button_false,key_resp_ac2.keys,key_resp_ac2.corr,key_resp_ac2.rt,check_pass,check_fails,ac2_loop.thisRepN,ac2_loop.thisTrialN,ac2_loop.thisN,ac2_loop.thisIndex,ac2_loop.ran,slider_eq_trial.response,trials_eq_loop.thisRepN,trials_eq_loop.thisTrialN,trials_eq_loop.thisN,trials_eq_loop.thisIndex,trials_eq_loop.ran,item,is_test_item,is_distractor,is_agree_score,is_disagree_score
0,0,0,0,1,"In the following task you are going to hear a series of utterances. 

  You will decide if the utterances sound like questions or not using your keyboard.",(press the spacebar to continue),5ed6c9613e5fc912b310c00c,60568611ec04488a9e9da93b,6056aa8d30eaa0bbdd3aa8fd,I am not familiar with Spanish,East coast,NA,no,2021-03-20_22h08.57.813,empathy_intonation_perc,2020.2.10,Win32,60,,,,,,,,,,,,,,,,,,,,,,,,,,,,,,,,,,,,,,,,,,,,,,,,,,,,,,,,,,,,,,,,,,,,,,,,,,,,,,,,,,,,
0,1,1,1,1,"If you believe the utterance is a question, type '1' (for 'yes') and if you do not 
  believe it is a question type '0' (for 'no').

  Let's practice a bit...",(press the spacebar to continue),5ed6c9613e5fc912b310c00c,60568611ec04488a9e9da93b,6056aa8d30eaa0bbdd3aa8fd,I am not familiar with Spanish,East coast,NA,no,2021-03-20_22h08.57.813,empathy_intonation_perc,2020.2.10,Win32,60,,,,,,,,,,,,,,,,,,,,,,,,,,,,,,,,,,,,,,,,,,,,,,,,,,,,,,,,,,,,,,,,,,,,,,,,,,,,,,,,,,,,
,,,,,,,5ed6c9613e5fc912b310c00c,60568611ec04488a9e9da93b,6056aa8d30eaa0bbdd3aa8fd,I am not familiar with Spanish,East coast,NA,no,2021-03-20_22h08.57.813,empathy_intonation_perc,2020.2.10,Win32,60,1,0,5.43841,0,0,0,5,1,./stim/wavs/andalusian_statement_filler_Alberto-nunca-se-afeita.wav,0,,,,,,,,,,,,,,,,,,,,,,,,,,,,,,,,,,,,,,,,,,,,,,,,,,,,,,,,,,,,,,,,,,,,,,,,,,
,,,,,,,5ed6c9613e5fc912b310c00c,60568611ec04488a9e9da93b,6056aa8d30eaa0bbdd3aa8fd,I am not familiar with Spanish,East coast,NA,no,2021-03-20_22h08.57.813,empathy_intonation_perc,2020.2.10,Win32,60,0,1,3.60476,0,1,1,6,1,./stim/wavs/peruvian_statement_filler_El-nino-habla-con-su-madre.wav,0,,,,,,,,,,,,,,,,,,,,,,,,,,,,,,,,,,,,,,,,,,,,,,,,,,,,,,,,,,,,,,,,,,,,,,,,,,
,,,,,,,5ed6c9613e5fc912b310c00c,60568611ec04488a9e9da93b,6056aa8d30eaa0bbdd3aa8fd,I am not familiar with Spanish,East coast,NA,no,2021-03-20_22h08.57.813,empathy_intonation_perc,2020.2.10,Win32,60,0,0,6.985665,0,2,2,2,1,./stim/wavs/chilean_question_filler_Mi-padre-cantaba-bien.wav,1,,,,,,,,,,,,,,,,,,,,,,,,,,,,,,,,,,,,,,,,,,,,,,,,,,,,,,,,,,,,,,,,,,,,,,,,,,
,,,,,,,5ed6c9613e5fc912b310c00c,60568611ec04488a9e9da93b,6056aa8d30eaa0bbdd3aa8fd,I am not familiar with Spanish,East coast,NA,no,2021-03-20_22h08.57.813,empathy_intonation_perc,2020.2.10,Win32,60,0,1,2.250955,0,3,3,7,1,./stim/wavs/puertorican_statement_filler_La-nina-pinta-con-su-amiga.wav,0,,,,,,,,,,,,,,,,,,,,,,,,,,,,,,,,,,,,,,,,,,,,,,,,,,,,,,,,,,,,,,,,,,,,,,,,,,
,,,,,,,5ed6c9613e5fc912b310c00c,60568611ec04488a9e9da93b,6056aa8d30eaa0bbdd3aa8fd,I am not familiar with Spanish,East coast,NA,no,2021-03-20_22h08.57.813,empathy_intonation_perc,2020.2.10,Win32,60,1,1,1.890095,0,4,4,3,1,./stim/wavs/mexican_question_filler_Felipe-no-tiene-contrasena.wav,1,,,,,,,,,,,,,,,,,,,,,,,,,,,,,,,,,,,,,,,,,,,,,,,,,,,,,,,,,,,,,,,,,,,,,,,,,,
,,,,,,,5ed6c9613e5fc912b310c00c,60568611ec04488a9e9da93b,6056aa8d30eaa0bbdd3aa8fd,I am not familiar with Spanish,East coast,NA,no,2021-03-20_22h08.57.813,empathy_intonation_perc,2020.2.10,Win32,60,0,1,1.967545,0,5,5,4,1,./stim/wavs/cuban_statement_filler_Cocinabas-por-la-noche.wav,0,,,,,,,,,,,,,,,,,,,,,,,,,,,,,,,,,,,,,,,,,,,,,,,,,,,,,,,,,,,,,,,,,,,,,,,,,,
,,,,,,,5ed6c9613e5fc912b310c00c,60568611ec04488a9e9da93b,6056aa8d30eaa0bbdd3aa8fd,I am not familiar with Spanish,East coast,NA,no,2021-03-20_22h08.57.813,empathy_intonation_perc,2020.2.10,Win32,60,1,1,2.17525,0,6,6,0,1,./stim/wavs/castilian_question_filler_Mi-esposo-conoce-al-chico.wav,1,,,,,,,,,,,,,,,,,,,,,,,,,,,,,,,,,,,,,,,,,,,,,,,,,,,,,,,,,,,,,,,,,,,,,,,,,,
,,,,,,,5ed6c9613e5fc912b310c00c,60568611ec04488a9e9da93b,6056aa8d30eaa0bbdd3aa8fd,I am not familiar with Spanish,East coast,NA,no,2021-03-20_22h08.57.813,empathy_intonation_perc,2020.2.10,Win32,60,1,1,1.63508,0,7,7,1,1,./stim/wavs/argentine_question_filler_Mi-vecino-habla-mucho.wav,1,,,,,,,,,,,,,,,,,,,,,,,,,,,,,,,,,,,,,,,,,,,,,,,,,,,,,,,,,,,,,,,,,,,,,,,,,,
,,,,,,,5ed6c9613e5fc912b310c00c,60568611ec04488a9e9da93b,6056aa8d30eaa0bbdd3aa8fd,I am not familiar with Spanish,East coast,NA,no,2021-03-20_22h08.57.813,empathy_intonation_perc,2020.2.10,Win32,60,,,,,,,,,,1,cuban,0,0,1.525225,0,0,0,16,1,17,./stim/wavs/andalusian_match_interrogative-partial-wh_Cuando-bebia-el-vino.wav,./stim/wavs/argentine_match_interrogative-partial-wh_Cuando-bebia-el-vino.wav,./stim/wavs/castilian_match_interrogative-partial-wh_Cuando-bebia-el-vino.wav,./stim/wavs/chilean_match_interrogative-partial-wh_Cuando-bebia-el-vino.wav,./stim/wavs/cuban_match_interrogative-partial-wh_Cuando-bebia-el-vino.wav,./stim/wavs/mexican_match_interrogative-partial-wh_Cuando-bebia-el-vino.wav,./stim/wavs/peruvian_match_interrogative-partial-wh_Cuando-bebia-el-vino.wav,./stim/wavs/puertorican_match_interrogative-partial-wh_Cuando-bebia-el-vino.wav,,,,,,,,,,,,,,,,,,,,,,,,,,,,,,,,,,,,,,,,,,,,,,,,,,,,,,,,
,,,,,,,5ed6c9613e5fc912b310c00c,60568611ec04488a9e9da93b,6056aa8d30eaa0bbdd3aa8fd,I am not familiar with Spanish,East coast,NA,no,2021-03-20_22h08.57.813,empathy_intonation_perc,2020.2.10,Win32,60,,,,,,,,,,0,chilean,0,1,2.15733,0,1,1,14,1,15,./stim/wavs/andalusian_match_declarative-narrow-focus_Mariano-habla-del-tiempo.wav,./stim/wavs/argentine_match_declarative-narrow-focus_Mariano-habla-del-tiempo.wav,./stim/wavs/castilian_match_declarative-narrow-focus_Mariano-habla-del-tiempo.wav,./stim/wavs/chilean_match_declarative-narrow-focus_Mariano-habla-del-tiempo.wav,./stim/wavs/cuban_match_declarative-narrow-focus_Mariano-habla-del-tiempo.wav,./stim/wavs/mexican_match_declarative-narrow-focus_Mariano-habla-del-tiempo.wav,./stim/wavs/peruvian_match_declarative-narrow-focus_Mariano-habla-del-tiempo.wav,./stim/wavs/puertorican_match_declarative-narrow-focus_Mariano-habla-del-tiempo.wav,,,,,,,,,,,,,,,,,,,,,,,,,,,,,,,,,,,,,,,,,,,,,,,,,,,,,,,,
,,,,,,,5ed6c9613e5fc912b310c00c,60568611ec04488a9e9da93b,6056aa8d30eaa0bbdd3aa8fd,I am not familiar with Spanish,East coast,NA,no,2021-03-20_22h08.57.813,empathy_intonation_perc,2020.2.10,Win32,60,,,,,,,,,,1,peruvian,1,1,1.666105,0,2,2,24,1,25,./stim/wavs/andalusian_match_interrogative-total-yn_Ana-lleva-el-abrigo.wav,./stim/wavs/argentine_match_interrogative-total-yn_Ana-lleva-el-abrigo.wav,./stim/wavs/castilian_match_interrogative-total-yn_Ana-lleva-el-abrigo.wav,./stim/wavs/chilean_match_interrogative-total-yn_Ana-lleva-el-abrigo.wav,./stim/wavs/cuban_match_interrogative-total-yn_Ana-lleva-el-abrigo.wav,./stim/wavs/mexican_match_interrogative-total-yn_Ana-lleva-el-abrigo.wav,./stim/wavs/peruvian_match_interrogative-total-yn_Ana-lleva-el-abrigo.wav,./stim/wavs/puertorican_match_interrogative-total-yn_Ana-lleva-el-abrigo.wav,,,,,,,,,,,,,,,,,,,,,,,,,,,,,,,,,,,,,,,,,,,,,,,,,,,,,,,,
,,,,,,,5ed6c9613e5fc912b310c00c,60568611ec04488a9e9da93b,6056aa8d30eaa0bbdd3aa8fd,I am not familiar with Spanish,East coast,NA,no,2021-03-20_22h08.57.813,empathy_intonation_perc,2020.2.10,Win32,60,,,,,,,,,,1,argentine,1,1,1.917165,0,3,3,61,1,62,./stim/wavs/andalusian_mismatch_interrogative-total-yn_Mi-madre-come-la-fruta.wav,./stim/wavs/argentine_mismatch_interrogative-total-yn_Mi-madre-come-la-fruta.wav,./stim/wavs/castilian_mismatch_interrogative-total-yn_Mi-madre-come-la-fruta.wav,./stim/wavs/chilean_mismatch_interrogative-total-yn_Mi-madre-come-la-fruta.wav,./stim/wavs/cuban_mismatch_interrogative-total-yn_Mi-madre-come-la-fruta.wav,./stim/wavs/mexican_mismatch_interrogative-total-yn_Mi-madre-come-la-fruta.wav,./stim/wavs/peruvian_mismatch_interrogative-total-yn_Mi-madre-come-la-fruta.wav,./stim/wavs/puertorican_mismatch_interrogative-total-yn_Mi-madre-come-la-fruta.wav,,,,,,,,,,,,,,,,,,,,,,,,,,,,,,,,,,,,,,,,,,,,,,,,,,,,,,,,
,,,,,,,5ed6c9613e5fc912b310c00c,60568611ec04488a9e9da93b,6056aa8d30eaa0bbdd3aa8fd,I am not familiar with Spanish,East coast,NA,no,2021-03-20_22h08.57.813,empathy_intonation_perc,2020.2.10,Win32,60,,,,,,,,,,1,mexican,1,1,1.84329,0,4,4,28,1,29,./stim/wavs/andalusian_match_interrogative-total-yn_Manuela-vende-el-carro.wav,./stim/wavs/argentine_match_interrogative-total-yn_Manuela-vende-el-carro.wav,./stim/wavs/castilian_match_interrogative-total-yn_Manuela-vende-el-carro.wav,./stim/wavs/chilean_match_interrogative-total-yn_Manuela-vende-el-carro.wav,./stim/wavs/cuban_match_interrogative-total-yn_Manuela-vende-el-carro.wav,./stim/wavs/mexican_match_interrogative-total-yn_Manuela-vende-el-carro.wav,./stim/wavs/peruvian_match_interrogative-total-yn_Manuela-vende-el-carro.wav,./stim/wavs/puertorican_match_interrogative-total-yn_Manuela-vende-el-carro.wav,,,,,,,,,,,,,,,,,,,,,,,,,,,,,,,,,,,,,,,,,,,,,,,,,,,,,,,,
,,,,,,,5ed6c9613e5fc912b310c00c,60568611ec04488a9e9da93b,6056aa8d30eaa0bbdd3aa8fd,I am not familiar with Spanish,East coast,NA,no,2021-03-20_22h08.57.813,empathy_intonation_perc,2020.2.10,Win32,60,,,,,,,,,,0,peruvian,0,1,1.86924,0,5,5,42,1,43,./stim/wavs/andalusian_mismatch_declarative-narrow-focus_El-nino-oye-el-rio.wav,./stim/wavs/argentine_mismatch_declarative-narrow-focus_El-nino-oye-el-rio.wav,./stim/wavs/castilian_mismatch_declarative-narrow-focus_El-nino-oye-el-rio.wav,./stim/wavs/chilean_mismatch_declarative-narrow-focus_El-nino-oye-el-rio.wav,./stim/wavs/cuban_mismatch_declarative-narrow-focus_El-nino-oye-el-rio.wav,./stim/wavs/mexican_mismatch_declarative-narrow-focus_El-nino-oye-el-rio.wav,./stim/wavs/peruvian_mismatch_declarative-narrow-focus_El-nino-oye-el-rio.wav,./stim/wavs/puertorican_mismatch_declarative-narrow-focus_El-nino-oye-el-rio.wav,,,,,,,,,,,,,,,,,,,,,,,,,,,,,,,,,,,,,,,,,,,,,,,,,,,,,,,,
,,,,,,,5ed6c9613e5fc912b310c00c,60568611ec04488a9e9da93b,6056aa8d30eaa0bbdd3aa8fd,I am not familiar with Spanish,East coast,NA,no,2021-03-20_22h08.57.813,empathy_intonation_perc,2020.2.10,Win32,60,,,,,,,,,,1,argentine,1,1,1.58967,0,6,6,26,1,27,./stim/wavs/andalusian_match_interrogative-total-yn_David-leia-el-libro.wav,./stim/wavs/argentine_match_interrogative-total-yn_David-leia-el-libro.wav,./stim/wavs/castilian_match_interrogative-total-yn_David-leia-el-libro.wav,./stim/wavs/chilean_match_interrogative-total-yn_David-leia-el-libro.wav,./stim/wavs/cuban_match_interrogative-total-yn_David-leia-el-libro.wav,./stim/wavs/mexican_match_interrogative-total-yn_David-leia-el-libro.wav,./stim/wavs/peruvian_match_interrogative-total-yn_David-leia-el-libro.wav,./stim/wavs/puertorican_match_interrogative-total-yn_David-leia-el-libro.wav,,,,,,,,,,,,,,,,,,,,,,,,,,,,,,,,,,,,,,,,,,,,,,,,,,,,,,,,
,,,,,,,5ed6c9613e5fc912b310c00c,60568611ec04488a9e9da93b,6056aa8d30eaa0bbdd3aa8fd,I am not familiar with Spanish,East coast,NA,no,2021-03-20_22h08.57.813,empathy_intonation_perc,2020.2.10,Win32,60,,,,,,,,,,0,mexican,0,1,1.601045,0,7,7,12,1,13,./stim/wavs/andalusian_match_declarative-narrow-focus_Manuela-vende-el-carro.wav,./stim/wavs/argentine_match_declarative-narrow-focus_Manuela-vende-el-carro.wav,./stim/wavs/castilian_match_declarative-narrow-focus_Manuela-vende-el-carro.wav,./stim/wavs/chilean_match_declarative-narrow-focus_Manuela-vende-el-carro.wav,./stim/wavs/cuban_match_declarative-narrow-focus_Manuela-vende-el-carro.wav,./stim/wavs/mexican_match_declarative-narrow-focus_Manuela-vende-el-carro.wav,./stim/wavs/peruvian_match_declarative-narrow-focus_Manuela-vende-el-carro.wav,./stim/wavs/puertorican_match_declarative-narrow-focus_Manuela-vende-el-carro.wav,,,,,,,,,,,,,,,,,,,,,,,,,,,,,,,,,,,,,,,,,,,,,,,,,,,,,,,,
,,,,,,,5ed6c9613e5fc912b310c00c,60568611ec04488a9e9da93b,6056aa8d30eaa0bbdd3aa8fd,I am not familiar with Spanish,East coast,NA,no,2021-03-20_22h08.57.813,empathy_intonation_perc,2020.2.10,Win32,60,,,,,,,,,,1,andalusian,1,1,1.584955,0,8,8,31,1,32,./stim/wavs/andalusian_match_interrogative-total-yn_Marta-abre-el-regalo.wav,./stim/wavs/argentine_match_interrogative-total-yn_Marta-abre-el-regalo.wav,./stim/wavs/castilian_match_interrogative-total-yn_Marta-abre-el-regalo.wav,./stim/wavs/chilean_match_interrogative-total-yn_Marta-abre-el-regalo.wav,./stim/wavs/cuban_match_interrogative-total-yn_Marta-abre-el-regalo.wav,./stim/wavs/mexican_match_interrogative-total-yn_Marta-abre-el-regalo.wav,./stim/wavs/peruvian_match_interrogative-total-yn_Marta-abre-el-regalo.wav,./stim/wavs/puertorican_match_interrogative-total-yn_Marta-abre-el-regalo.wav,,,,,,,,,,,,,,,,,,,,,,,,,,,,,,,,,,,,,,,,,,,,,,,,,,,,,,,,
,,,,,,,5ed6c9613e5fc912b310c00c,60568611ec04488a9e9da93b,6056aa8d30eaa0bbdd3aa8fd,I am not familiar with Spanish,East coast,NA,no,2021-03-20_22h08.57.813,empathy_intonation_perc,2020.2.10,Win32,60,,,,,,,,,,1,mexican,1,1,1.578275,0,9,9,53,1,54,./stim/wavs/andalusian_mismatch_interrogative-partial-wh_Por-que-oia-el-rio.wav,./stim/wavs/argentine_mismatch_interrogative-partial-wh_Por-que-oia-el-rio.wav,./stim/wavs/castilian_mismatch_interrogative-partial-wh_Por-que-oia-el-rio.wav,./stim/wavs/chilean_mismatch_interrogative-partial-wh_Por-que-oia-el-rio.wav,./stim/wavs/cuban_mismatch_interrogative-partial-wh_Por-que-oia-el-rio.wav,./stim/wavs/mexican_mismatch_interrogative-partial-wh_Por-que-oia-el-rio.wav,./stim/wavs/peruvian_mismatch_interrogative-partial-wh_Por-que-oia-el-rio.wav,./stim/wavs/puertorican_mismatch_interrogative-partial-wh_Por-que-oia-el-rio.wav,,,,,,,,,,,,,,,,,,,,,,,,,,,,,,,,,,,,,,,,,,,,,,,,,,,,,,,,
,,,,,,,5ed6c9613e5fc912b310c00c,60568611ec04488a9e9da93b,6056aa8d30eaa0bbdd3aa8fd,I am not familiar with Spanish,East coast,NA,no,2021-03-20_22h08.57.813,empathy_intonation_perc,2020.2.10,Win32,60,,,,,,,,,,1,mexican,0,0,2.36802,0,10,10,20,1,21,./stim/wavs/andalusian_match_interrogative-partial-wh_Por-que-abre-el-regalo.wav,./stim/wavs/argentine_match_interrogative-partial-wh_Por-que-abre-el-regalo.wav,./stim/wavs/castilian_match_interrogative-partial-wh_Por-que-abre-el-regalo.wav,./stim/wavs/chilean_match_interrogative-partial-wh_Por-que-abre-el-regalo.wav,./stim/wavs/cuban_match_interrogative-partial-wh_Por-que-abre-el-regalo.wav,./stim/wavs/mexican_match_interrogative-partial-wh_Por-que-abre-el-regalo.wav,./stim/wavs/peruvian_match_interrogative-partial-wh_Por-que-abre-el-regalo.wav,./stim/wavs/puertorican_match_interrogative-partial-wh_Por-que-abre-el-regalo.wav,,,,,,,,,,,,,,,,,,,,,,,,,,,,,,,,,,,,,,,,,,,,,,,,,,,,,,,,
,,,,,,,5ed6c9613e5fc912b310c00c,60568611ec04488a9e9da93b,6056aa8d30eaa0bbdd3aa8fd,I am not familiar with Spanish,East coast,NA,no,2021-03-20_22h08.57.813,empathy_intonation_perc,2020.2.10,Win32,60,,,,,,,,,,0,argentine,0,1,1.6456,0,11,11,41,1,42,./stim/wavs/andalusian_mismatch_declarative-narrow-focus_El-hombre-mira-la-luna.wav,./stim/wavs/argentine_mismatch_declarative-narrow-focus_El-hombre-mira-la-luna.wav,./stim/wavs/castilian_mismatch_declarative-narrow-focus_El-hombre-mira-la-luna.wav,./stim/wavs/chilean_mismatch_declarative-narrow-focus_El-hombre-mira-la-luna.wav,./stim/wavs/cuban_mismatch_declarative-narrow-focus_El-hombre-mira-la-luna.wav,./stim/wavs/mexican_mismatch_declarative-narrow-focus_El-hombre-mira-la-luna.wav,./stim/wavs/peruvian_mismatch_declarative-narrow-focus_El-hombre-mira-la-luna.wav,./stim/wavs/puertorican_mismatch_declarative-narrow-focus_El-hombre-mira-la-luna.wav,,,,,,,,,,,,,,,,,,,,,,,,,,,,,,,,,,,,,,,,,,,,,,,,,,,,,,,,
,,,,,,,5ed6c9613e5fc912b310c00c,60568611ec04488a9e9da93b,6056aa8d30eaa0bbdd3aa8fd,I am not familiar with Spanish,East coast,NA,no,2021-03-20_22h08.57.813,empathy_intonation_perc,2020.2.10,Win32,60,,,,,,,,,,0,argentine,0,1,1.97319,0,12,12,5,1,6,./stim/wavs/andalusian_match_declarative-broad-focus_Maria-bebe-el-vino.wav,./stim/wavs/argentine_match_declarative-broad-focus_Maria-bebe-el-vino.wav,./stim/wavs/castilian_match_declarative-broad-focus_Maria-bebe-el-vino.wav,./stim/wavs/chilean_match_declarative-broad-focus_Maria-bebe-el-vino.wav,./stim/wavs/cuban_match_declarative-broad-focus_Maria-bebe-el-vino.wav,./stim/wavs/mexican_match_declarative-broad-focus_Maria-bebe-el-vino.wav,./stim/wavs/peruvian_match_declarative-broad-focus_Maria-bebe-el-vino.wav,./stim/wavs/puertorican_match_declarative-broad-focus_Maria-bebe-el-vino.wav,,,,,,,,,,,,,,,,,,,,,,,,,,,,,,,,,,,,,,,,,,,,,,,,,,,,,,,,
,,,,,,,5ed6c9613e5fc912b310c00c,60568611ec04488a9e9da93b,6056aa8d30eaa0bbdd3aa8fd,I am not familiar with Spanish,East coast,NA,no,2021-03-20_22h08.57.813,empathy_intonation_perc,2020.2.10,Win32,60,,,,,,,,,,0,peruvian,0,1,2.27861,0,13,13,45,1,46,./stim/wavs/andalusian_mismatch_declarative-narrow-focus_Mi-madre-come-la-fruta.wav,./stim/wavs/argentine_mismatch_declarative-narrow-focus_Mi-madre-come-la-fruta.wav,./stim/wavs/castilian_mismatch_declarative-narrow-focus_Mi-madre-come-la-fruta.wav,./stim/wavs/chilean_mismatch_declarative-narrow-focus_Mi-madre-come-la-fruta.wav,./stim/wavs/cuban_mismatch_declarative-narrow-focus_Mi-madre-come-la-fruta.wav,./stim/wavs/mexican_mismatch_declarative-narrow-focus_Mi-madre-come-la-fruta.wav,./stim/wavs/peruvian_mismatch_declarative-narrow-focus_Mi-madre-come-la-fruta.wav,./stim/wavs/puertorican_mismatch_declarative-narrow-focus_Mi-madre-come-la-fruta.wav,,,,,,,,,,,,,,,,,,,,,,,,,,,,,,,,,,,,,,,,,,,,,,,,,,,,,,,,
,,,,,,,5ed6c9613e5fc912b310c00c,60568611ec04488a9e9da93b,6056aa8d30eaa0bbdd3aa8fd,I am not familiar with Spanish,East coast,NA,no,2021-03-20_22h08.57.813,empathy_intonation_perc,2020.2.10,Win32,60,,,,,,,,,,0,argentine,0,1,1.90445,0,14,14,46,1,47,./stim/wavs/andalusian_mismatch_declarative-narrow-focus_Mi-novio-viene-del-lago.wav,./stim/wavs/argentine_mismatch_declarative-narrow-focus_Mi-novio-viene-del-lago.wav,./stim/wavs/castilian_mismatch_declarative-narrow-focus_Mi-novio-viene-del-lago.wav,./stim/wavs/chilean_mismatch_declarative-narrow-focus_Mi-novio-viene-del-lago.wav,./stim/wavs/cuban_mismatch_declarative-narrow-focus_Mi-novio-viene-del-lago.wav,./stim/wavs/mexican_mismatch_declarative-narrow-focus_Mi-novio-viene-del-lago.wav,./stim/wavs/peruvian_mismatch_declarative-narrow-focus_Mi-novio-viene-del-lago.wav,./stim/wavs/puertorican_mismatch_declarative-narrow-focus_Mi-novio-viene-del-lago.wav,,,,,,,,,,,,,,,,,,,,,,,,,,,,,,,,,,,,,,,,,,,,,,,,,,,,,,,,
,,,,,,,5ed6c9613e5fc912b310c00c,60568611ec04488a9e9da93b,6056aa8d30eaa0bbdd3aa8fd,I am not familiar with Spanish,East coast,NA,no,2021-03-20_22h08.57.813,empathy_intonation_perc,2020.2.10,Win32,60,,,,,,,,,,0,peruvian,0,1,2.771565,0,15,15,37,1,38,./stim/wavs/andalusian_mismatch_declarative-broad-focus_Mi-madre-come-la-fruta.wav,./stim/wavs/argentine_mismatch_declarative-broad-focus_Mi-madre-come-la-fruta.wav,./stim/wavs/castilian_mismatch_declarative-broad-focus_Mi-madre-come-la-fruta.wav,./stim/wavs/chilean_mismatch_declarative-broad-focus_Mi-madre-come-la-fruta.wav,./stim/wavs/cuban_mismatch_declarative-broad-focus_Mi-madre-come-la-fruta.wav,./stim/wavs/mexican_mismatch_declarative-broad-focus_Mi-madre-come-la-fruta.wav,./stim/wavs/peruvian_mismatch_declarative-broad-focus_Mi-madre-come-la-fruta.wav,./stim/wavs/puertorican_mismatch_declarative-broad-focus_Mi-madre-come-la-fruta.wav,,,,,,,,,,,,,,,,,,,,,,,,,,,,,,,,,,,,,,,,,,,,,,,,,,,,,,,,
,,,,,,,5ed6c9613e5fc912b310c00c,60568611ec04488a9e9da93b,6056aa8d30eaa0bbdd3aa8fd,I am not familiar with Spanish,East coast,NA,no,2021-03-20_22h08.57.813,empathy_intonation_perc,2020.2.10,Win32,60,,,,,,,,,,1,andalusian,1,1,2.478055,0,16,16,49,1,50,./stim/wavs/andalusian_mismatch_interrogative-partial-wh_Cuando-lavaba-el-plato.wav,./stim/wavs/argentine_mismatch_interrogative-partial-wh_Cuando-lavaba-el-plato.wav,./stim/wavs/castilian_mismatch_interrogative-partial-wh_Cuando-lavaba-el-plato.wav,./stim/wavs/chilean_mismatch_interrogative-partial-wh_Cuando-lavaba-el-plato.wav,./stim/wavs/cuban_mismatch_interrogative-partial-wh_Cuando-lavaba-el-plato.wav,./stim/wavs/mexican_mismatch_interrogative-partial-wh_Cuando-lavaba-el-plato.wav,./stim/wavs/peruvian_mismatch_interrogative-partial-wh_Cuando-lavaba-el-plato.wav,./stim/wavs/puertorican_mismatch_interrogative-partial-wh_Cuando-lavaba-el-plato.wav,,,,,,,,,,,,,,,,,,,,,,,,,,,,,,,,,,,,,,,,,,,,,,,,,,,,,,,,
,,,,,,,5ed6c9613e5fc912b310c00c,60568611ec04488a9e9da93b,6056aa8d30eaa0bbdd3aa8fd,I am not familiar with Spanish,East coast,NA,no,2021-03-20_22h08.57.813,empathy_intonation_perc,2020.2.10,Win32,60,,,,,,,,,,0,cuban,0,1,1.66082,0,17,17,3,1,4,./stim/wavs/andalusian_match_declarative-broad-focus_Emilio-ama-la-marcha.wav,./stim/wavs/argentine_match_declarative-broad-focus_Emilio-ama-la-marcha.wav,./stim/wavs/castilian_match_declarative-broad-focus_Emilio-ama-la-marcha.wav,./stim/wavs/chilean_match_declarative-broad-focus_Emilio-ama-la-marcha.wav,./stim/wavs/cuban_match_declarative-broad-focus_Emilio-ama-la-marcha.wav,./stim/wavs/mexican_match_declarative-broad-focus_Emilio-ama-la-marcha.wav,./stim/wavs/peruvian_match_declarative-broad-focus_Emilio-ama-la-marcha.wav,./stim/wavs/puertorican_match_declarative-broad-focus_Emilio-ama-la-marcha.wav,,,,,,,,,,,,,,,,,,,,,,,,,,,,,,,,,,,,,,,,,,,,,,,,,,,,,,,,
,,,,,,,5ed6c9613e5fc912b310c00c,60568611ec04488a9e9da93b,6056aa8d30eaa0bbdd3aa8fd,I am not familiar with Spanish,East coast,NA,no,2021-03-20_22h08.57.813,empathy_intonation_perc,2020.2.10,Win32,60,,,,,,,,,,0,mexican,0,1,1.456775,0,18,18,8,1,9,./stim/wavs/andalusian_match_declarative-narrow-focus_Ana-lleva-el-abrigo.wav,./stim/wavs/argentine_match_declarative-narrow-focus_Ana-lleva-el-abrigo.wav,./stim/wavs/castilian_match_declarative-narrow-focus_Ana-lleva-el-abrigo.wav,./stim/wavs/chilean_match_declarative-narrow-focus_Ana-lleva-el-abrigo.wav,./stim/wavs/cuban_match_declarative-narrow-focus_Ana-lleva-el-abrigo.wav,./stim/wavs/mexican_match_declarative-narrow-focus_Ana-lleva-el-abrigo.wav,./stim/wavs/peruvian_match_declarative-narrow-focus_Ana-lleva-el-abrigo.wav,./stim/wavs/puertorican_match_declarative-narrow-focus_Ana-lleva-el-abrigo.wav,,,,,,,,,,,,,,,,,,,,,,,,,,,,,,,,,,,,,,,,,,,,,,,,,,,,,,,,
,,,,,,,5ed6c9613e5fc912b310c00c,60568611ec04488a9e9da93b,6056aa8d30eaa0bbdd3aa8fd,I am not familiar with Spanish,East coast,NA,no,2021-03-20_22h08.57.813,empathy_intonation_perc,2020.2.10,Win32,60,,,,,,,,,,0,cuban,0,1,1.80405,0,19,19,4,1,5,./stim/wavs/andalusian_match_declarative-broad-focus_Manuela-vende-el-carro.wav,./stim/wavs/argentine_match_declarative-broad-focus_Manuela-vende-el-carro.wav,./stim/wavs/castilian_match_declarative-broad-focus_Manuela-vende-el-carro.wav,./stim/wavs/chilean_match_declarative-broad-focus_Manuela-vende-el-carro.wav,./stim/wavs/cuban_match_declarative-broad-focus_Manuela-vende-el-carro.wav,./stim/wavs/mexican_match_declarative-broad-focus_Manuela-vende-el-carro.wav,./stim/wavs/peruvian_match_declarative-broad-focus_Manuela-vende-el-carro.wav,./stim/wavs/puertorican_match_declarative-broad-focus_Manuela-vende-el-carro.wav,,,,,,,,,,,,,,,,,,,,,,,,,,,,,,,,,,,,,,,,,,,,,,,,,,,,,,,,
,,,,,,,5ed6c9613e5fc912b310c00c,60568611ec04488a9e9da93b,6056aa8d30eaa0bbdd3aa8fd,I am not familiar with Spanish,East coast,NA,no,2021-03-20_22h08.57.813,empathy_intonation_perc,2020.2.10,Win32,60,,,,,,,,,,1,cuban,0,0,1.667675,0,20,20,54,1,55,./stim/wavs/andalusian_mismatch_interrogative-partial-wh_Por-que-venia-del-lago.wav,./stim/wavs/argentine_mismatch_interrogative-partial-wh_Por-que-venia-del-lago.wav,./stim/wavs/castilian_mismatch_interrogative-partial-wh_Por-que-venia-del-lago.wav,./stim/wavs/chilean_mismatch_interrogative-partial-wh_Por-que-venia-del-lago.wav,./stim/wavs/cuban_mismatch_interrogative-partial-wh_Por-que-venia-del-lago.wav,./stim/wavs/mexican_mismatch_interrogative-partial-wh_Por-que-venia-del-lago.wav,./stim/wavs/peruvian_mismatch_interrogative-partial-wh_Por-que-venia-del-lago.wav,./stim/wavs/puertorican_mismatch_interrogative-partial-wh_Por-que-venia-del-lago.wav,,,,,,,,,,,,,,,,,,,,,,,,,,,,,,,,,,,,,,,,,,,,,,,,,,,,,,,,
,,,,,,,5ed6c9613e5fc912b310c00c,60568611ec04488a9e9da93b,6056aa8d30eaa0bbdd3aa8fd,I am not familiar with Spanish,East coast,NA,no,2021-03-20_22h08.57.813,empathy_intonation_perc,2020.2.10,Win32,60,,,,,,,,,,1,argentine,0,0,3.02401,0,21,21,52,1,53,./stim/wavs/andalusian_mismatch_interrogative-partial-wh_Por-que-odiaba-la-lluvia.wav,./stim/wavs/argentine_mismatch_interrogative-partial-wh_Por-que-odiaba-la-lluvia.wav,./stim/wavs/castilian_mismatch_interrogative-partial-wh_Por-que-odiaba-la-lluvia.wav,./stim/wavs/chilean_mismatch_interrogative-partial-wh_Por-que-odiaba-la-lluvia.wav,./stim/wavs/cuban_mismatch_interrogative-partial-wh_Por-que-odiaba-la-lluvia.wav,./stim/wavs/mexican_mismatch_interrogative-partial-wh_Por-que-odiaba-la-lluvia.wav,./stim/wavs/peruvian_mismatch_interrogative-partial-wh_Por-que-odiaba-la-lluvia.wav,./stim/wavs/puertorican_mismatch_interrogative-partial-wh_Por-que-odiaba-la-lluvia.wav,,,,,,,,,,,,,,,,,,,,,,,,,,,,,,,,,,,,,,,,,,,,,,,,,,,,,,,,
,,,,,,,5ed6c9613e5fc912b310c00c,60568611ec04488a9e9da93b,6056aa8d30eaa0bbdd3aa8fd,I am not familiar with Spanish,East coast,NA,no,2021-03-20_22h08.57.813,empathy_intonation_perc,2020.2.10,Win32,60,,,,,,,,,,1,mexican,1,1,1.91753,0,22,22,29,1,30,./stim/wavs/andalusian_match_interrogative-total-yn_Maria-bebe-el-vino.wav,./stim/wavs/argentine_match_interrogative-total-yn_Maria-bebe-el-vino.wav,./stim/wavs/castilian_match_interrogative-total-yn_Maria-bebe-el-vino.wav,./stim/wavs/chilean_match_interrogative-total-yn_Maria-bebe-el-vino.wav,./stim/wavs/cuban_match_interrogative-total-yn_Maria-bebe-el-vino.wav,./stim/wavs/mexican_match_interrogative-total-yn_Maria-bebe-el-vino.wav,./stim/wavs/peruvian_match_interrogative-total-yn_Maria-bebe-el-vino.wav,./stim/wavs/puertorican_match_interrogative-total-yn_Maria-bebe-el-vino.wav,,,,,,,,,,,,,,,,,,,,,,,,,,,,,,,,,,,,,,,,,,,,,,,,,,,,,,,,
,,,,,,,5ed6c9613e5fc912b310c00c,60568611ec04488a9e9da93b,6056aa8d30eaa0bbdd3aa8fd,I am not familiar with Spanish,East coast,NA,no,2021-03-20_22h08.57.813,empathy_intonation_perc,2020.2.10,Win32,60,,,,,,,,,,1,andalusian,1,1,1.791845,0,23,23,58,1,59,./stim/wavs/andalusian_mismatch_interrogative-total-yn_El-nino-oye-el-rio.wav,./stim/wavs/argentine_mismatch_interrogative-total-yn_El-nino-oye-el-rio.wav,./stim/wavs/castilian_mismatch_interrogative-total-yn_El-nino-oye-el-rio.wav,./stim/wavs/chilean_mismatch_interrogative-total-yn_El-nino-oye-el-rio.wav,./stim/wavs/cuban_mismatch_interrogative-total-yn_El-nino-oye-el-rio.wav,./stim/wavs/mexican_mismatch_interrogative-total-yn_El-nino-oye-el-rio.wav,./stim/wavs/peruvian_mismatch_interrogative-total-yn_El-nino-oye-el-rio.wav,./stim/wavs/puertorican_mismatch_interrogative-total-yn_El-nino-oye-el-rio.wav,,,,,,,,,,,,,,,,,,,,,,,,,,,,,,,,,,,,,,,,,,,,,,,,,,,,,,,,
,,,,,,,5ed6c9613e5fc912b310c00c,60568611ec04488a9e9da93b,6056aa8d30eaa0bbdd3aa8fd,I am not familiar with Spanish,East coast,NA,no,2021-03-20_22h08.57.813,empathy_intonation_perc,2020.2.10,Win32,60,,,,,,,,,,0,andalusian,0,1,2.034015,0,24,24,1,1,2,./stim/wavs/andalusian_match_declarative-broad-focus_Daniel-iba-a-Bolivia.wav,./stim/wavs/argentine_match_declarative-broad-focus_Daniel-iba-a-Bolivia.wav,./stim/wavs/castilian_match_declarative-broad-focus_Daniel-iba-a-Bolivia.wav,./stim/wavs/chilean_match_declarative-broad-focus_Daniel-iba-a-Bolivia.wav,./stim/wavs/cuban_match_declarative-broad-focus_Daniel-iba-a-Bolivia.wav,./stim/wavs/mexican_match_declarative-broad-focus_Daniel-iba-a-Bolivia.wav,./stim/wavs/peruvian_match_declarative-broad-focus_Daniel-iba-a-Bolivia.wav,./stim/wavs/puertorican_match_declarative-broad-focus_Daniel-iba-a-Bolivia.wav,,,,,,,,,,,,,,,,,,,,,,,,,,,,,,,,,,,,,,,,,,,,,,,,,,,,,,,,
,,,,,,,5ed6c9613e5fc912b310c00c,60568611ec04488a9e9da93b,6056aa8d30eaa0bbdd3aa8fd,I am not familiar with Spanish,East coast,NA,no,2021-03-20_22h08.57.813,empathy_intonation_perc,2020.2.10,Win32,60,,,,,,,,,,0,cuban,0,1,2.13902,0,25,25,38,1,39,./stim/wavs/andalusian_mismatch_declarative-broad-focus_Mi-novio-viene-del-lago.wav,./stim/wavs/argentine_mismatch_declarative-broad-focus_Mi-novio-viene-del-lago.wav,./stim/wavs/castilian_mismatch_declarative-broad-focus_Mi-novio-viene-del-lago.wav,./stim/wavs/chilean_mismatch_declarative-broad-focus_Mi-novio-viene-del-lago.wav,./stim/wavs/cuban_mismatch_declarative-broad-focus_Mi-novio-viene-del-lago.wav,./stim/wavs/mexican_mismatch_declarative-broad-focus_Mi-novio-viene-del-lago.wav,./stim/wavs/peruvian_mismatch_declarative-broad-focus_Mi-novio-viene-del-lago.wav,./stim/wavs/puertorican_mismatch_declarative-broad-focus_Mi-novio-viene-del-lago.wav,,,,,,,,,,,,,,,,,,,,,,,,,,,,,,,,,,,,,,,,,,,,,,,,,,,,,,,,
,,,,,,,5ed6c9613e5fc912b310c00c,60568611ec04488a9e9da93b,6056aa8d30eaa0bbdd3aa8fd,I am not familiar with Spanish,East coast,NA,no,2021-03-20_22h08.57.813,empathy_intonation_perc,2020.2.10,Win32,60,,,,,,,,,,0,puertorican,0,1,1.567545,0,26,26,7,1,8,./stim/wavs/andalusian_match_declarative-broad-focus_Marta-abre-el-regalo.wav,./stim/wavs/argentine_match_declarative-broad-focus_Marta-abre-el-regalo.wav,./stim/wavs/castilian_match_declarative-broad-focus_Marta-abre-el-regalo.wav,./stim/wavs/chilean_match_declarative-broad-focus_Marta-abre-el-regalo.wav,./stim/wavs/cuban_match_declarative-broad-focus_Marta-abre-el-regalo.wav,./stim/wavs/mexican_match_declarative-broad-focus_Marta-abre-el-regalo.wav,./stim/wavs/peruvian_match_declarative-broad-focus_Marta-abre-el-regalo.wav,./stim/wavs/puertorican_match_declarative-broad-focus_Marta-abre-el-regalo.wav,,,,,,,,,,,,,,,,,,,,,,,,,,,,,,,,,,,,,,,,,,,,,,,,,,,,,,,,
,,,,,,,5ed6c9613e5fc912b310c00c,60568611ec04488a9e9da93b,6056aa8d30eaa0bbdd3aa8fd,I am not familiar with Spanish,East coast,NA,no,2021-03-20_22h08.57.813,empathy_intonation_perc,2020.2.10,Win32,60,,,,,,,,,,1,chilean,1,1,1.61758,0,27,27,48,1,49,./stim/wavs/andalusian_mismatch_interrogative-partial-wh_Cuando-comia-la-fruta.wav,./stim/wavs/argentine_mismatch_interrogative-partial-wh_Cuando-comia-la-fruta.wav,./stim/wavs/castilian_mismatch_interrogative-partial-wh_Cuando-comia-la-fruta.wav,./stim/wavs/chilean_mismatch_interrogative-partial-wh_Cuando-comia-la-fruta.wav,./stim/wavs/cuban_mismatch_interrogative-partial-wh_Cuando-comia-la-fruta.wav,./stim/wavs/mexican_mismatch_interrogative-partial-wh_Cuando-comia-la-fruta.wav,./stim/wavs/peruvian_mismatch_interrogative-partial-wh_Cuando-comia-la-fruta.wav,./stim/wavs/puertorican_mismatch_interrogative-partial-wh_Cuando-comia-la-fruta.wav,,,,,,,,,,,,,,,,,,,,,,,,,,,,,,,,,,,,,,,,,,,,,,,,,,,,,,,,
,,,,,,,5ed6c9613e5fc912b310c00c,60568611ec04488a9e9da93b,6056aa8d30eaa0bbdd3aa8fd,I am not familiar with Spanish,East coast,NA,no,2021-03-20_22h08.57.813,empathy_intonation_perc,2020.2.10,Win32,60,,,,,,,,,,1,castilian,1,1,1.60077,0,28,28,21,1,22,./stim/wavs/andalusian_match_interrogative-partial-wh_Por-que-ama-la-navidad.wav,./stim/wavs/argentine_match_interrogative-partial-wh_Por-que-ama-la-navidad.wav,./stim/wavs/castilian_match_interrogative-partial-wh_Por-que-ama-la-navidad.wav,./stim/wavs/chilean_match_interrogative-partial-wh_Por-que-ama-la-navidad.wav,./stim/wavs/cuban_match_interrogative-partial-wh_Por-que-ama-la-navidad.wav,./stim/wavs/mexican_match_interrogative-partial-wh_Por-que-ama-la-navidad.wav,./stim/wavs/peruvian_match_interrogative-partial-wh_Por-que-ama-la-navidad.wav,./stim/wavs/puertorican_match_interrogative-partial-wh_Por-que-ama-la-navidad.wav,,,,,,,,,,,,,,,,,,,,,,,,,,,,,,,,,,,,,,,,,,,,,,,,,,,,,,,,
,,,,,,,5ed6c9613e5fc912b310c00c,60568611ec04488a9e9da93b,6056aa8d30eaa0bbdd3aa8fd,I am not familiar with Spanish,East coast,NA,no,2021-03-20_22h08.57.813,empathy_intonation_perc,2020.2.10,Win32,60,,,,,,,,,,1,peruvian,0,0,2.22212,0,29,29,22,1,23,./stim/wavs/andalusian_match_interrogative-partial-wh_Por-que-hablaba-del-agua.wav,./stim/wavs/argentine_match_interrogative-partial-wh_Por-que-hablaba-del-agua.wav,./stim/wavs/castilian_match_interrogative-partial-wh_Por-que-hablaba-del-agua.wav,./stim/wavs/chilean_match_interrogative-partial-wh_Por-que-hablaba-del-agua.wav,./stim/wavs/cuban_match_interrogative-partial-wh_Por-que-hablaba-del-agua.wav,./stim/wavs/mexican_match_interrogative-partial-wh_Por-que-hablaba-del-agua.wav,./stim/wavs/peruvian_match_interrogative-partial-wh_Por-que-hablaba-del-agua.wav,./stim/wavs/puertorican_match_interrogative-partial-wh_Por-que-hablaba-del-agua.wav,,,,,,,,,,,,,,,,,,,,,,,,,,,,,,,,,,,,,,,,,,,,,,,,,,,,,,,,
,,,,,,,5ed6c9613e5fc912b310c00c,60568611ec04488a9e9da93b,6056aa8d30eaa0bbdd3aa8fd,I am not familiar with Spanish,East coast,NA,no,2021-03-20_22h08.57.813,empathy_intonation_perc,2020.2.10,Win32,60,,,,,,,,,,0,chilean,0,1,2.007855,0,30,30,33,1,34,./stim/wavs/andalusian_mismatch_declarative-broad-focus_El-hombre-mira-la-luna.wav,./stim/wavs/argentine_mismatch_declarative-broad-focus_El-hombre-mira-la-luna.wav,./stim/wavs/castilian_mismatch_declarative-broad-focus_El-hombre-mira-la-luna.wav,./stim/wavs/chilean_mismatch_declarative-broad-focus_El-hombre-mira-la-luna.wav,./stim/wavs/cuban_mismatch_declarative-broad-focus_El-hombre-mira-la-luna.wav,./stim/wavs/mexican_mismatch_declarative-broad-focus_El-hombre-mira-la-luna.wav,./stim/wavs/peruvian_mismatch_declarative-broad-focus_El-hombre-mira-la-luna.wav,./stim/wavs/puertorican_mismatch_declarative-broad-focus_El-hombre-mira-la-luna.wav,,,,,,,,,,,,,,,,,,,,,,,,,,,,,,,,,,,,,,,,,,,,,,,,,,,,,,,,
,,,,,,,5ed6c9613e5fc912b310c00c,60568611ec04488a9e9da93b,6056aa8d30eaa0bbdd3aa8fd,I am not familiar with Spanish,East coast,NA,no,2021-03-20_22h08.57.813,empathy_intonation_perc,2020.2.10,Win32,60,,,,,,,,,,1,castilian,1,1,2.851295,0,31,31,23,1,24,./stim/wavs/andalusian_match_interrogative-partial-wh_Por-que-iba-a-Bolivia.wav,./stim/wavs/argentine_match_interrogative-partial-wh_Por-que-iba-a-Bolivia.wav,./stim/wavs/castilian_match_interrogative-partial-wh_Por-que-iba-a-Bolivia.wav,./stim/wavs/chilean_match_interrogative-partial-wh_Por-que-iba-a-Bolivia.wav,./stim/wavs/cuban_match_interrogative-partial-wh_Por-que-iba-a-Bolivia.wav,./stim/wavs/mexican_match_interrogative-partial-wh_Por-que-iba-a-Bolivia.wav,./stim/wavs/peruvian_match_interrogative-partial-wh_Por-que-iba-a-Bolivia.wav,./stim/wavs/puertorican_match_interrogative-partial-wh_Por-que-iba-a-Bolivia.wav,,,,,,,,,,,,,,,,,,,,,,,,,,,,,,,,,,,,,,,,,,,,,,,,,,,,,,,,
,,,,,,,5ed6c9613e5fc912b310c00c,60568611ec04488a9e9da93b,6056aa8d30eaa0bbdd3aa8fd,I am not familiar with Spanish,East coast,NA,no,2021-03-20_22h08.57.813,empathy_intonation_perc,2020.2.10,Win32,60,,,,,,,,,,0,puertorican,0,1,1.74489,0,32,32,6,1,7,./stim/wavs/andalusian_match_declarative-broad-focus_Mariano-habla-del-tiempo.wav,./stim/wavs/argentine_match_declarative-broad-focus_Mariano-habla-del-tiempo.wav,./stim/wavs/castilian_match_declarative-broad-focus_Mariano-habla-del-tiempo.wav,./stim/wavs/chilean_match_declarative-broad-focus_Mariano-habla-del-tiempo.wav,./stim/wavs/cuban_match_declarative-broad-focus_Mariano-habla-del-tiempo.wav,./stim/wavs/mexican_match_declarative-broad-focus_Mariano-habla-del-tiempo.wav,./stim/wavs/peruvian_match_declarative-broad-focus_Mariano-habla-del-tiempo.wav,./stim/wavs/puertorican_match_declarative-broad-focus_Mariano-habla-del-tiempo.wav,,,,,,,,,,,,,,,,,,,,,,,,,,,,,,,,,,,,,,,,,,,,,,,,,,,,,,,,
,,,,,,,5ed6c9613e5fc912b310c00c,60568611ec04488a9e9da93b,6056aa8d30eaa0bbdd3aa8fd,I am not familiar with Spanish,East coast,NA,no,2021-03-20_22h08.57.813,empathy_intonation_perc,2020.2.10,Win32,60,,,,,,,,,,1,puertorican,0,0,2.008815,0,33,33,50,1,51,./stim/wavs/andalusian_mismatch_interrogative-partial-wh_Cuando-miraba-la-luna.wav,./stim/wavs/argentine_mismatch_interrogative-partial-wh_Cuando-miraba-la-luna.wav,./stim/wavs/castilian_mismatch_interrogative-partial-wh_Cuando-miraba-la-luna.wav,./stim/wavs/chilean_mismatch_interrogative-partial-wh_Cuando-miraba-la-luna.wav,./stim/wavs/cuban_mismatch_interrogative-partial-wh_Cuando-miraba-la-luna.wav,./stim/wavs/mexican_mismatch_interrogative-partial-wh_Cuando-miraba-la-luna.wav,./stim/wavs/peruvian_mismatch_interrogative-partial-wh_Cuando-miraba-la-luna.wav,./stim/wavs/puertorican_mismatch_interrogative-partial-wh_Cuando-miraba-la-luna.wav,,,,,,,,,,,,,,,,,,,,,,,,,,,,,,,,,,,,,,,,,,,,,,,,,,,,,,,,
,,,,,,,5ed6c9613e5fc912b310c00c,60568611ec04488a9e9da93b,6056aa8d30eaa0bbdd3aa8fd,I am not familiar with Spanish,East coast,NA,no,2021-03-20_22h08.57.813,empathy_intonation_perc,2020.2.10,Win32,60,,,,,,,,,,1,mexican,1,1,2.092135,0,34,34,25,1,26,./stim/wavs/andalusian_match_interrogative-total-yn_Daniel-iba-a-Bolivia.wav,./stim/wavs/argentine_match_interrogative-total-yn_Daniel-iba-a-Bolivia.wav,./stim/wavs/castilian_match_interrogative-total-yn_Daniel-iba-a-Bolivia.wav,./stim/wavs/chilean_match_interrogative-total-yn_Daniel-iba-a-Bolivia.wav,./stim/wavs/cuban_match_interrogative-total-yn_Daniel-iba-a-Bolivia.wav,./stim/wavs/mexican_match_interrogative-total-yn_Daniel-iba-a-Bolivia.wav,./stim/wavs/peruvian_match_interrogative-total-yn_Daniel-iba-a-Bolivia.wav,./stim/wavs/puertorican_match_interrogative-total-yn_Daniel-iba-a-Bolivia.wav,,,,,,,,,,,,,,,,,,,,,,,,,,,,,,,,,,,,,,,,,,,,,,,,,,,,,,,,
,,,,,,,5ed6c9613e5fc912b310c00c,60568611ec04488a9e9da93b,6056aa8d30eaa0bbdd3aa8fd,I am not familiar with Spanish,East coast,NA,no,2021-03-20_22h08.57.813,empathy_intonation_perc,2020.2.10,Win32,60,,,,,,,,,,1,argentine,1,1,1.972635,0,35,35,57,1,58,./stim/wavs/andalusian_mismatch_interrogative-total-yn_El-hombre-mira-la-luna.wav,./stim/wavs/argentine_mismatch_interrogative-total-yn_El-hombre-mira-la-luna.wav,./stim/wavs/castilian_mismatch_interrogative-total-yn_El-hombre-mira-la-luna.wav,./stim/wavs/chilean_mismatch_interrogative-total-yn_El-hombre-mira-la-luna.wav,./stim/wavs/cuban_mismatch_interrogative-total-yn_El-hombre-mira-la-luna.wav,./stim/wavs/mexican_mismatch_interrogative-total-yn_El-hombre-mira-la-luna.wav,./stim/wavs/peruvian_mismatch_interrogative-total-yn_El-hombre-mira-la-luna.wav,./stim/wavs/puertorican_mismatch_interrogative-total-yn_El-hombre-mira-la-luna.wav,,,,,,,,,,,,,,,,,,,,,,,,,,,,,,,,,,,,,,,,,,,,,,,,,,,,,,,,
,,,,,,,5ed6c9613e5fc912b310c00c,60568611ec04488a9e9da93b,6056aa8d30eaa0bbdd3aa8fd,I am not familiar with Spanish,East coast,NA,no,2021-03-20_22h08.57.813,empathy_intonation_perc,2020.2.10,Win32,60,,,,,,,,,,0,peruvian,0,1,2.06106,0,36,36,10,1,11,./stim/wavs/andalusian_match_declarative-narrow-focus_David-leia-el-libro.wav,./stim/wavs/argentine_match_declarative-narrow-focus_David-leia-el-libro.wav,./stim/wavs/castilian_match_declarative-narrow-focus_David-leia-el-libro.wav,./stim/wavs/chilean_match_declarative-narrow-focus_David-leia-el-libro.wav,./stim/wavs/cuban_match_declarative-narrow-focus_David-leia-el-libro.wav,./stim/wavs/mexican_match_declarative-narrow-focus_David-leia-el-libro.wav,./stim/wavs/peruvian_match_declarative-narrow-focus_David-leia-el-libro.wav,./stim/wavs/puertorican_match_declarative-narrow-focus_David-leia-el-libro.wav,,,,,,,,,,,,,,,,,,,,,,,,,,,,,,,,,,,,,,,,,,,,,,,,,,,,,,,,
,,,,,,,5ed6c9613e5fc912b310c00c,60568611ec04488a9e9da93b,6056aa8d30eaa0bbdd3aa8fd,I am not familiar with Spanish,East coast,NA,no,2021-03-20_22h08.57.813,empathy_intonation_perc,2020.2.10,Win32,60,,,,,,,,,,0,puertorican,0,1,2.35118,0,37,37,40,1,41,./stim/wavs/andalusian_mismatch_declarative-narrow-focus_El-bebe-comia-muy-bien.wav,./stim/wavs/argentine_mismatch_declarative-narrow-focus_El-bebe-comia-muy-bien.wav,./stim/wavs/castilian_mismatch_declarative-narrow-focus_El-bebe-comia-muy-bien.wav,./stim/wavs/chilean_mismatch_declarative-narrow-focus_El-bebe-comia-muy-bien.wav,./stim/wavs/cuban_mismatch_declarative-narrow-focus_El-bebe-comia-muy-bien.wav,./stim/wavs/mexican_mismatch_declarative-narrow-focus_El-bebe-comia-muy-bien.wav,./stim/wavs/peruvian_mismatch_declarative-narrow-focus_El-bebe-comia-muy-bien.wav,./stim/wavs/puertorican_mismatch_declarative-narrow-focus_El-bebe-comia-muy-bien.wav,,,,,,,,,,,,,,,,,,,,,,,,,,,,,,,,,,,,,,,,,,,,,,,,,,,,,,,,
,,,,,,,5ed6c9613e5fc912b310c00c,60568611ec04488a9e9da93b,6056aa8d30eaa0bbdd3aa8fd,I am not familiar with Spanish,East coast,NA,no,2021-03-20_22h08.57.813,empathy_intonation_perc,2020.2.10,Win32,60,,,,,,,,,,0,castilian,0,1,1.80984,0,38,38,9,1,10,./stim/wavs/andalusian_match_declarative-narrow-focus_Daniel-iba-a-Bolivia.wav,./stim/wavs/argentine_match_declarative-narrow-focus_Daniel-iba-a-Bolivia.wav,./stim/wavs/castilian_match_declarative-narrow-focus_Daniel-iba-a-Bolivia.wav,./stim/wavs/chilean_match_declarative-narrow-focus_Daniel-iba-a-Bolivia.wav,./stim/wavs/cuban_match_declarative-narrow-focus_Daniel-iba-a-Bolivia.wav,./stim/wavs/mexican_match_declarative-narrow-focus_Daniel-iba-a-Bolivia.wav,./stim/wavs/peruvian_match_declarative-narrow-focus_Daniel-iba-a-Bolivia.wav,./stim/wavs/puertorican_match_declarative-narrow-focus_Daniel-iba-a-Bolivia.wav,,,,,,,,,,,,,,,,,,,,,,,,,,,,,,,,,,,,,,,,,,,,,,,,,,,,,,,,
,,,,,,,5ed6c9613e5fc912b310c00c,60568611ec04488a9e9da93b,6056aa8d30eaa0bbdd3aa8fd,I am not familiar with Spanish,East coast,NA,no,2021-03-20_22h08.57.813,empathy_intonation_perc,2020.2.10,Win32,60,,,,,,,,,,0,puertorican,0,1,1.99121,0,39,39,44,1,45,./stim/wavs/andalusian_mismatch_declarative-narrow-focus_La-nina-lava-el-plato.wav,./stim/wavs/argentine_mismatch_declarative-narrow-focus_La-nina-lava-el-plato.wav,./stim/wavs/castilian_mismatch_declarative-narrow-focus_La-nina-lava-el-plato.wav,./stim/wavs/chilean_mismatch_declarative-narrow-focus_La-nina-lava-el-plato.wav,./stim/wavs/cuban_mismatch_declarative-narrow-focus_La-nina-lava-el-plato.wav,./stim/wavs/mexican_mismatch_declarative-narrow-focus_La-nina-lava-el-plato.wav,./stim/wavs/peruvian_mismatch_declarative-narrow-focus_La-nina-lava-el-plato.wav,./stim/wavs/puertorican_mismatch_declarative-narrow-focus_La-nina-lava-el-plato.wav,,,,,,,,,,,,,,,,,,,,,,,,,,,,,,,,,,,,,,,,,,,,,,,,,,,,,,,,
,,,,,,,5ed6c9613e5fc912b310c00c,60568611ec04488a9e9da93b,6056aa8d30eaa0bbdd3aa8fd,I am not familiar with Spanish,East coast,NA,no,2021-03-20_22h08.57.813,empathy_intonation_perc,2020.2.10,Win32,60,,,,,,,,,,1,argentine,0,0,2.32233,0,40,40,51,1,52,./stim/wavs/andalusian_mismatch_interrogative-partial-wh_Por-que-desayuna-muy-bien.wav,./stim/wavs/argentine_mismatch_interrogative-partial-wh_Por-que-desayuna-muy-bien.wav,./stim/wavs/castilian_mismatch_interrogative-partial-wh_Por-que-desayuna-muy-bien.wav,./stim/wavs/chilean_mismatch_interrogative-partial-wh_Por-que-desayuna-muy-bien.wav,./stim/wavs/cuban_mismatch_interrogative-partial-wh_Por-que-desayuna-muy-bien.wav,./stim/wavs/mexican_mismatch_interrogative-partial-wh_Por-que-desayuna-muy-bien.wav,./stim/wavs/peruvian_mismatch_interrogative-partial-wh_Por-que-desayuna-muy-bien.wav,./stim/wavs/puertorican_mismatch_interrogative-partial-wh_Por-que-desayuna-muy-bien.wav,,,,,,,,,,,,,,,,,,,,,,,,,,,,,,,,,,,,,,,,,,,,,,,,,,,,,,,,
,,,,,,,5ed6c9613e5fc912b310c00c,60568611ec04488a9e9da93b,6056aa8d30eaa0bbdd3aa8fd,I am not familiar with Spanish,East coast,NA,no,2021-03-20_22h08.57.813,empathy_intonation_perc,2020.2.10,Win32,60,,,,,,,,,,1,mexican,1,1,2.238585,0,41,41,19,1,20,./stim/wavs/andalusian_match_interrogative-partial-wh_Cuando-vendia-el-carro.wav,./stim/wavs/argentine_match_interrogative-partial-wh_Cuando-vendia-el-carro.wav,./stim/wavs/castilian_match_interrogative-partial-wh_Cuando-vendia-el-carro.wav,./stim/wavs/chilean_match_interrogative-partial-wh_Cuando-vendia-el-carro.wav,./stim/wavs/cuban_match_interrogative-partial-wh_Cuando-vendia-el-carro.wav,./stim/wavs/mexican_match_interrogative-partial-wh_Cuando-vendia-el-carro.wav,./stim/wavs/peruvian_match_interrogative-partial-wh_Cuando-vendia-el-carro.wav,./stim/wavs/puertorican_match_interrogative-partial-wh_Cuando-vendia-el-carro.wav,,,,,,,,,,,,,,,,,,,,,,,,,,,,,,,,,,,,,,,,,,,,,,,,,,,,,,,,
,,,,,,,5ed6c9613e5fc912b310c00c,60568611ec04488a9e9da93b,6056aa8d30eaa0bbdd3aa8fd,I am not familiar with Spanish,East coast,NA,no,2021-03-20_22h08.57.813,empathy_intonation_perc,2020.2.10,Win32,60,,,,,,,,,,0,chilean,1,0,1.63558,0,42,42,43,1,44,./stim/wavs/andalusian_mismatch_declarative-narrow-focus_La-maestra-vive-en-Paris.wav,./stim/wavs/argentine_mismatch_declarative-narrow-focus_La-maestra-vive-en-Paris.wav,./stim/wavs/castilian_mismatch_declarative-narrow-focus_La-maestra-vive-en-Paris.wav,./stim/wavs/chilean_mismatch_declarative-narrow-focus_La-maestra-vive-en-Paris.wav,./stim/wavs/cuban_mismatch_declarative-narrow-focus_La-maestra-vive-en-Paris.wav,./stim/wavs/mexican_mismatch_declarative-narrow-focus_La-maestra-vive-en-Paris.wav,./stim/wavs/peruvian_mismatch_declarative-narrow-focus_La-maestra-vive-en-Paris.wav,./stim/wavs/puertorican_mismatch_declarative-narrow-focus_La-maestra-vive-en-Paris.wav,,,,,,,,,,,,,,,,,,,,,,,,,,,,,,,,,,,,,,,,,,,,,,,,,,,,,,,,
,,,,,,,5ed6c9613e5fc912b310c00c,60568611ec04488a9e9da93b,6056aa8d30eaa0bbdd3aa8fd,I am not familiar with Spanish,East coast,NA,no,2021-03-20_22h08.57.813,empathy_intonation_perc,2020.2.10,Win32,60,,,,,,,,,,1,mexican,0,0,1.93416,0,43,43,60,1,61,./stim/wavs/andalusian_mismatch_interrogative-total-yn_La-nina-lava-el-plato.wav,./stim/wavs/argentine_mismatch_interrogative-total-yn_La-nina-lava-el-plato.wav,./stim/wavs/castilian_mismatch_interrogative-total-yn_La-nina-lava-el-plato.wav,./stim/wavs/chilean_mismatch_interrogative-total-yn_La-nina-lava-el-plato.wav,./stim/wavs/cuban_mismatch_interrogative-total-yn_La-nina-lava-el-plato.wav,./stim/wavs/mexican_mismatch_interrogative-total-yn_La-nina-lava-el-plato.wav,./stim/wavs/peruvian_mismatch_interrogative-total-yn_La-nina-lava-el-plato.wav,./stim/wavs/puertorican_mismatch_interrogative-total-yn_La-nina-lava-el-plato.wav,,,,,,,,,,,,,,,,,,,,,,,,,,,,,,,,,,,,,,,,,,,,,,,,,,,,,,,,
,,,,,,,5ed6c9613e5fc912b310c00c,60568611ec04488a9e9da93b,6056aa8d30eaa0bbdd3aa8fd,I am not familiar with Spanish,East coast,NA,no,2021-03-20_22h08.57.813,empathy_intonation_perc,2020.2.10,Win32,60,,,,,,,,,,1,chilean,0,0,3.12039,0,44,44,18,1,19,./stim/wavs/andalusian_match_interrogative-partial-wh_Cuando-lleva-el-abrigo.wav,./stim/wavs/argentine_match_interrogative-partial-wh_Cuando-lleva-el-abrigo.wav,./stim/wavs/castilian_match_interrogative-partial-wh_Cuando-lleva-el-abrigo.wav,./stim/wavs/chilean_match_interrogative-partial-wh_Cuando-lleva-el-abrigo.wav,./stim/wavs/cuban_match_interrogative-partial-wh_Cuando-lleva-el-abrigo.wav,./stim/wavs/mexican_match_interrogative-partial-wh_Cuando-lleva-el-abrigo.wav,./stim/wavs/peruvian_match_interrogative-partial-wh_Cuando-lleva-el-abrigo.wav,./stim/wavs/puertorican_match_interrogative-partial-wh_Cuando-lleva-el-abrigo.wav,,,,,,,,,,,,,,,,,,,,,,,,,,,,,,,,,,,,,,,,,,,,,,,,,,,,,,,,
,,,,,,,5ed6c9613e5fc912b310c00c,60568611ec04488a9e9da93b,6056aa8d30eaa0bbdd3aa8fd,I am not familiar with Spanish,East coast,NA,no,2021-03-20_22h08.57.813,empathy_intonation_perc,2020.2.10,Win32,60,,,,,,,,,,1,argentine,1,1,1.784035,0,45,45,59,1,60,./stim/wavs/andalusian_mismatch_interrogative-total-yn_La-maestra-vive-en-Paris.wav,./stim/wavs/argentine_mismatch_interrogative-total-yn_La-maestra-vive-en-Paris.wav,./stim/wavs/castilian_mismatch_interrogative-total-yn_La-maestra-vive-en-Paris.wav,./stim/wavs/chilean_mismatch_interrogative-total-yn_La-maestra-vive-en-Paris.wav,./stim/wavs/cuban_mismatch_interrogative-total-yn_La-maestra-vive-en-Paris.wav,./stim/wavs/mexican_mismatch_interrogative-total-yn_La-maestra-vive-en-Paris.wav,./stim/wavs/peruvian_mismatch_interrogative-total-yn_La-maestra-vive-en-Paris.wav,./stim/wavs/puertorican_mismatch_interrogative-total-yn_La-maestra-vive-en-Paris.wav,,,,,,,,,,,,,,,,,,,,,,,,,,,,,,,,,,,,,,,,,,,,,,,,,,,,,,,,
,,,,,,,5ed6c9613e5fc912b310c00c,60568611ec04488a9e9da93b,6056aa8d30eaa0bbdd3aa8fd,I am not familiar with Spanish,East coast,NA,no,2021-03-20_22h08.57.813,empathy_intonation_perc,2020.2.10,Win32,60,,,,,,,,,,1,mexican,1,1,1.66033,0,46,46,27,1,28,./stim/wavs/andalusian_match_interrogative-total-yn_Emilio-ama-la-marcha.wav,./stim/wavs/argentine_match_interrogative-total-yn_Emilio-ama-la-marcha.wav,./stim/wavs/castilian_match_interrogative-total-yn_Emilio-ama-la-marcha.wav,./stim/wavs/chilean_match_interrogative-total-yn_Emilio-ama-la-marcha.wav,./stim/wavs/cuban_match_interrogative-total-yn_Emilio-ama-la-marcha.wav,./stim/wavs/mexican_match_interrogative-total-yn_Emilio-ama-la-marcha.wav,./stim/wavs/peruvian_match_interrogative-total-yn_Emilio-ama-la-marcha.wav,./stim/wavs/puertorican_match_interrogative-total-yn_Emilio-ama-la-marcha.wav,,,,,,,,,,,,,,,,,,,,,,,,,,,,,,,,,,,,,,,,,,,,,,,,,,,,,,,,
,,,,,,,5ed6c9613e5fc912b310c00c,60568611ec04488a9e9da93b,6056aa8d30eaa0bbdd3aa8fd,I am not familiar with Spanish,East coast,NA,no,2021-03-20_22h08.57.813,empathy_intonation_perc,2020.2.10,Win32,60,,,,,,,,,,0,chilean,0,1,2.150595,0,47,47,36,1,37,./stim/wavs/andalusian_mismatch_declarative-broad-focus_La-nina-lava-el-plato.wav,./stim/wavs/argentine_mismatch_declarative-broad-focus_La-nina-lava-el-plato.wav,./stim/wavs/castilian_mismatch_declarative-broad-focus_La-nina-lava-el-plato.wav,./stim/wavs/chilean_mismatch_declarative-broad-focus_La-nina-lava-el-plato.wav,./stim/wavs/cuban_mismatch_declarative-broad-focus_La-nina-lava-el-plato.wav,./stim/wavs/mexican_mismatch_declarative-broad-focus_La-nina-lava-el-plato.wav,./stim/wavs/peruvian_mismatch_declarative-broad-focus_La-nina-lava-el-plato.wav,./stim/wavs/puertorican_mismatch_declarative-broad-focus_La-nina-lava-el-plato.wav,,,,,,,,,,,,,,,,,,,,,,,,,,,,,,,,,,,,,,,,,,,,,,,,,,,,,,,,
,,,,,,,5ed6c9613e5fc912b310c00c,60568611ec04488a9e9da93b,6056aa8d30eaa0bbdd3aa8fd,I am not familiar with Spanish,East coast,NA,no,2021-03-20_22h08.57.813,empathy_intonation_perc,2020.2.10,Win32,60,,,,,,,,,,0,puertorican,0,1,2.242645,0,48,48,35,1,36,./stim/wavs/andalusian_mismatch_declarative-broad-focus_La-maestra-vive-en-Paris.wav,./stim/wavs/argentine_mismatch_declarative-broad-focus_La-maestra-vive-en-Paris.wav,./stim/wavs/castilian_mismatch_declarative-broad-focus_La-maestra-vive-en-Paris.wav,./stim/wavs/chilean_mismatch_declarative-broad-focus_La-maestra-vive-en-Paris.wav,./stim/wavs/cuban_mismatch_declarative-broad-focus_La-maestra-vive-en-Paris.wav,./stim/wavs/mexican_mismatch_declarative-broad-focus_La-maestra-vive-en-Paris.wav,./stim/wavs/peruvian_mismatch_declarative-broad-focus_La-maestra-vive-en-Paris.wav,./stim/wavs/puertorican_mismatch_declarative-broad-focus_La-maestra-vive-en-Paris.wav,,,,,,,,,,,,,,,,,,,,,,,,,,,,,,,,,,,,,,,,,,,,,,,,,,,,,,,,
,,,,,,,5ed6c9613e5fc912b310c00c,60568611ec04488a9e9da93b,6056aa8d30eaa0bbdd3aa8fd,I am not familiar with Spanish,East coast,NA,no,2021-03-20_22h08.57.813,empathy_intonation_perc,2020.2.10,Win32,60,,,,,,,,,,1,andalusian,1,1,1.864635,0,49,49,63,1,64,./stim/wavs/andalusian_mismatch_interrogative-total-yn_Mi-tia-odia-la-lluvia.wav,./stim/wavs/argentine_mismatch_interrogative-total-yn_Mi-tia-odia-la-lluvia.wav,./stim/wavs/castilian_mismatch_interrogative-total-yn_Mi-tia-odia-la-lluvia.wav,./stim/wavs/chilean_mismatch_interrogative-total-yn_Mi-tia-odia-la-lluvia.wav,./stim/wavs/cuban_mismatch_interrogative-total-yn_Mi-tia-odia-la-lluvia.wav,./stim/wavs/mexican_mismatch_interrogative-total-yn_Mi-tia-odia-la-lluvia.wav,./stim/wavs/peruvian_mismatch_interrogative-total-yn_Mi-tia-odia-la-lluvia.wav,./stim/wavs/puertorican_mismatch_interrogative-total-yn_Mi-tia-odia-la-lluvia.wav,,,,,,,,,,,,,,,,,,,,,,,,,,,,,,,,,,,,,,,,,,,,,,,,,,,,,,,,
,,,,,,,5ed6c9613e5fc912b310c00c,60568611ec04488a9e9da93b,6056aa8d30eaa0bbdd3aa8fd,I am not familiar with Spanish,East coast,NA,no,2021-03-20_22h08.57.813,empathy_intonation_perc,2020.2.10,Win32,60,,,,,,,,,,1,castilian,1,1,1.934065,0,50,50,30,1,31,./stim/wavs/andalusian_match_interrogative-total-yn_Mariano-habla-del-tiempo.wav,./stim/wavs/argentine_match_interrogative-total-yn_Mariano-habla-del-tiempo.wav,./stim/wavs/castilian_match_interrogative-total-yn_Mariano-habla-del-tiempo.wav,./stim/wavs/chilean_match_interrogative-total-yn_Mariano-habla-del-tiempo.wav,./stim/wavs/cuban_match_interrogative-total-yn_Mariano-habla-del-tiempo.wav,./stim/wavs/mexican_match_interrogative-total-yn_Mariano-habla-del-tiempo.wav,./stim/wavs/peruvian_match_interrogative-total-yn_Mariano-habla-del-tiempo.wav,./stim/wavs/puertorican_match_interrogative-total-yn_Mariano-habla-del-tiempo.wav,,,,,,,,,,,,,,,,,,,,,,,,,,,,,,,,,,,,,,,,,,,,,,,,,,,,,,,,
,,,,,,,5ed6c9613e5fc912b310c00c,60568611ec04488a9e9da93b,6056aa8d30eaa0bbdd3aa8fd,I am not familiar with Spanish,East coast,NA,no,2021-03-20_22h08.57.813,empathy_intonation_perc,2020.2.10,Win32,60,,,,,,,,,,0,peruvian,0,1,1.975065,0,51,51,15,1,16,./stim/wavs/andalusian_match_declarative-narrow-focus_Marta-abre-el-regalo.wav,./stim/wavs/argentine_match_declarative-narrow-focus_Marta-abre-el-regalo.wav,./stim/wavs/castilian_match_declarative-narrow-focus_Marta-abre-el-regalo.wav,./stim/wavs/chilean_match_declarative-narrow-focus_Marta-abre-el-regalo.wav,./stim/wavs/cuban_match_declarative-narrow-focus_Marta-abre-el-regalo.wav,./stim/wavs/mexican_match_declarative-narrow-focus_Marta-abre-el-regalo.wav,./stim/wavs/peruvian_match_declarative-narrow-focus_Marta-abre-el-regalo.wav,./stim/wavs/puertorican_match_declarative-narrow-focus_Marta-abre-el-regalo.wav,,,,,,,,,,,,,,,,,,,,,,,,,,,,,,,,,,,,,,,,,,,,,,,,,,,,,,,,
,,,,,,,5ed6c9613e5fc912b310c00c,60568611ec04488a9e9da93b,6056aa8d30eaa0bbdd3aa8fd,I am not familiar with Spanish,East coast,NA,no,2021-03-20_22h08.57.813,empathy_intonation_perc,2020.2.10,Win32,60,,,,,,,,,,1,argentine,1,1,1.667345,0,52,52,56,1,57,./stim/wavs/andalusian_mismatch_interrogative-total-yn_El-bebe-comia-muy-bien.wav,./stim/wavs/argentine_mismatch_interrogative-total-yn_El-bebe-comia-muy-bien.wav,./stim/wavs/castilian_mismatch_interrogative-total-yn_El-bebe-comia-muy-bien.wav,./stim/wavs/chilean_mismatch_interrogative-total-yn_El-bebe-comia-muy-bien.wav,./stim/wavs/cuban_mismatch_interrogative-total-yn_El-bebe-comia-muy-bien.wav,./stim/wavs/mexican_mismatch_interrogative-total-yn_El-bebe-comia-muy-bien.wav,./stim/wavs/peruvian_mismatch_interrogative-total-yn_El-bebe-comia-muy-bien.wav,./stim/wavs/puertorican_mismatch_interrogative-total-yn_El-bebe-comia-muy-bien.wav,,,,,,,,,,,,,,,,,,,,,,,,,,,,,,,,,,,,,,,,,,,,,,,,,,,,,,,,
,,,,,,,5ed6c9613e5fc912b310c00c,60568611ec04488a9e9da93b,6056aa8d30eaa0bbdd3aa8fd,I am not familiar with Spanish,East coast,NA,no,2021-03-20_22h08.57.813,empathy_intonation_perc,2020.2.10,Win32,60,,,,,,,,,,0,castilian,0,1,1.70537,0,53,53,0,1,1,./stim/wavs/andalusian_match_declarative-broad-focus_Ana-lleva-el-abrigo.wav,./stim/wavs/argentine_match_declarative-broad-focus_Ana-lleva-el-abrigo.wav,./stim/wavs/castilian_match_declarative-broad-focus_Ana-lleva-el-abrigo.wav,./stim/wavs/chilean_match_declarative-broad-focus_Ana-lleva-el-abrigo.wav,./stim/wavs/cuban_match_declarative-broad-focus_Ana-lleva-el-abrigo.wav,./stim/wavs/mexican_match_declarative-broad-focus_Ana-lleva-el-abrigo.wav,./stim/wavs/peruvian_match_declarative-broad-focus_Ana-lleva-el-abrigo.wav,./stim/wavs/puertorican_match_declarative-broad-focus_Ana-lleva-el-abrigo.wav,,,,,,,,,,,,,,,,,,,,,,,,,,,,,,,,,,,,,,,,,,,,,,,,,,,,,,,,
,,,,,,,5ed6c9613e5fc912b310c00c,60568611ec04488a9e9da93b,6056aa8d30eaa0bbdd3aa8fd,I am not familiar with Spanish,East coast,NA,no,2021-03-20_22h08.57.813,empathy_intonation_perc,2020.2.10,Win32,60,,,,,,,,,,1,cuban,0,0,1.86747,0,54,54,17,1,18,./stim/wavs/andalusian_match_interrogative-partial-wh_Cuando-leia-el-libro.wav,./stim/wavs/argentine_match_interrogative-partial-wh_Cuando-leia-el-libro.wav,./stim/wavs/castilian_match_interrogative-partial-wh_Cuando-leia-el-libro.wav,./stim/wavs/chilean_match_interrogative-partial-wh_Cuando-leia-el-libro.wav,./stim/wavs/cuban_match_interrogative-partial-wh_Cuando-leia-el-libro.wav,./stim/wavs/mexican_match_interrogative-partial-wh_Cuando-leia-el-libro.wav,./stim/wavs/peruvian_match_interrogative-partial-wh_Cuando-leia-el-libro.wav,./stim/wavs/puertorican_match_interrogative-partial-wh_Cuando-leia-el-libro.wav,,,,,,,,,,,,,,,,,,,,,,,,,,,,,,,,,,,,,,,,,,,,,,,,,,,,,,,,
,,,,,,,5ed6c9613e5fc912b310c00c,60568611ec04488a9e9da93b,6056aa8d30eaa0bbdd3aa8fd,I am not familiar with Spanish,East coast,NA,no,2021-03-20_22h08.57.813,empathy_intonation_perc,2020.2.10,Win32,60,,,,,,,,,,0,peruvian,0,1,3.222385,0,55,55,32,1,33,./stim/wavs/andalusian_mismatch_declarative-broad-focus_El-bebe-comia-muy-bien.wav,./stim/wavs/argentine_mismatch_declarative-broad-focus_El-bebe-comia-muy-bien.wav,./stim/wavs/castilian_mismatch_declarative-broad-focus_El-bebe-comia-muy-bien.wav,./stim/wavs/chilean_mismatch_declarative-broad-focus_El-bebe-comia-muy-bien.wav,./stim/wavs/cuban_mismatch_declarative-broad-focus_El-bebe-comia-muy-bien.wav,./stim/wavs/mexican_mismatch_declarative-broad-focus_El-bebe-comia-muy-bien.wav,./stim/wavs/peruvian_mismatch_declarative-broad-focus_El-bebe-comia-muy-bien.wav,./stim/wavs/puertorican_mismatch_declarative-broad-focus_El-bebe-comia-muy-bien.wav,,,,,,,,,,,,,,,,,,,,,,,,,,,,,,,,,,,,,,,,,,,,,,,,,,,,,,,,
,,,,,,,5ed6c9613e5fc912b310c00c,60568611ec04488a9e9da93b,6056aa8d30eaa0bbdd3aa8fd,I am not familiar with Spanish,East coast,NA,no,2021-03-20_22h08.57.813,empathy_intonation_perc,2020.2.10,Win32,60,,,,,,,,,,0,cuban,0,1,2.42482,0,56,56,39,1,40,./stim/wavs/andalusian_mismatch_declarative-broad-focus_Mi-tia-odia-la-lluvia.wav,./stim/wavs/argentine_mismatch_declarative-broad-focus_Mi-tia-odia-la-lluvia.wav,./stim/wavs/castilian_mismatch_declarative-broad-focus_Mi-tia-odia-la-lluvia.wav,./stim/wavs/chilean_mismatch_declarative-broad-focus_Mi-tia-odia-la-lluvia.wav,./stim/wavs/cuban_mismatch_declarative-broad-focus_Mi-tia-odia-la-lluvia.wav,./stim/wavs/mexican_mismatch_declarative-broad-focus_Mi-tia-odia-la-lluvia.wav,./stim/wavs/peruvian_mismatch_declarative-broad-focus_Mi-tia-odia-la-lluvia.wav,./stim/wavs/puertorican_mismatch_declarative-broad-focus_Mi-tia-odia-la-lluvia.wav,,,,,,,,,,,,,,,,,,,,,,,,,,,,,,,,,,,,,,,,,,,,,,,,,,,,,,,,
,,,,,,,5ed6c9613e5fc912b310c00c,60568611ec04488a9e9da93b,6056aa8d30eaa0bbdd3aa8fd,I am not familiar with Spanish,East coast,NA,no,2021-03-20_22h08.57.813,empathy_intonation_perc,2020.2.10,Win32,60,,,,,,,,,,0,peruvian,0,1,2.261675,0,57,57,11,1,12,./stim/wavs/andalusian_match_declarative-narrow-focus_Emilio-ama-la-marcha.wav,./stim/wavs/argentine_match_declarative-narrow-focus_Emilio-ama-la-marcha.wav,./stim/wavs/castilian_match_declarative-narrow-focus_Emilio-ama-la-marcha.wav,./stim/wavs/chilean_match_declarative-narrow-focus_Emilio-ama-la-marcha.wav,./stim/wavs/cuban_match_declarative-narrow-focus_Emilio-ama-la-marcha.wav,./stim/wavs/mexican_match_declarative-narrow-focus_Emilio-ama-la-marcha.wav,./stim/wavs/peruvian_match_declarative-narrow-focus_Emilio-ama-la-marcha.wav,./stim/wavs/puertorican_match_declarative-narrow-focus_Emilio-ama-la-marcha.wav,,,,,,,,,,,,,,,,,,,,,,,,,,,,,,,,,,,,,,,,,,,,,,,,,,,,,,,,
,,,,,,,5ed6c9613e5fc912b310c00c,60568611ec04488a9e9da93b,6056aa8d30eaa0bbdd3aa8fd,I am not familiar with Spanish,East coast,NA,no,2021-03-20_22h08.57.813,empathy_intonation_perc,2020.2.10,Win32,60,,,,,,,,,,1,chilean,1,1,2.05112,0,58,58,55,1,56,./stim/wavs/andalusian_mismatch_interrogative-partial-wh_Por-que-vivia-en-Paris.wav,./stim/wavs/argentine_mismatch_interrogative-partial-wh_Por-que-vivia-en-Paris.wav,./stim/wavs/castilian_mismatch_interrogative-partial-wh_Por-que-vivia-en-Paris.wav,./stim/wavs/chilean_mismatch_interrogative-partial-wh_Por-que-vivia-en-Paris.wav,./stim/wavs/cuban_mismatch_interrogative-partial-wh_Por-que-vivia-en-Paris.wav,./stim/wavs/mexican_mismatch_interrogative-partial-wh_Por-que-vivia-en-Paris.wav,./stim/wavs/peruvian_mismatch_interrogative-partial-wh_Por-que-vivia-en-Paris.wav,./stim/wavs/puertorican_mismatch_interrogative-partial-wh_Por-que-vivia-en-Paris.wav,,,,,,,,,,,,,,,,,,,,,,,,,,,,,,,,,,,,,,,,,,,,,,,,,,,,,,,,
,,,,,,,5ed6c9613e5fc912b310c00c,60568611ec04488a9e9da93b,6056aa8d30eaa0bbdd3aa8fd,I am not familiar with Spanish,East coast,NA,no,2021-03-20_22h08.57.813,empathy_intonation_perc,2020.2.10,Win32,60,,,,,,,,,,1,puertorican,0,0,1.691265,0,59,59,62,1,63,./stim/wavs/andalusian_mismatch_interrogative-total-yn_Mi-novio-viene-del-lago.wav,./stim/wavs/argentine_mismatch_interrogative-total-yn_Mi-novio-viene-del-lago.wav,./stim/wavs/castilian_mismatch_interrogative-total-yn_Mi-novio-viene-del-lago.wav,./stim/wavs/chilean_mismatch_interrogative-total-yn_Mi-novio-viene-del-lago.wav,./stim/wavs/cuban_mismatch_interrogative-total-yn_Mi-novio-viene-del-lago.wav,./stim/wavs/mexican_mismatch_interrogative-total-yn_Mi-novio-viene-del-lago.wav,./stim/wavs/peruvian_mismatch_interrogative-total-yn_Mi-novio-viene-del-lago.wav,./stim/wavs/puertorican_mismatch_interrogative-total-yn_Mi-novio-viene-del-lago.wav,,,,,,,,,,,,,,,,,,,,,,,,,,,,,,,,,,,,,,,,,,,,,,,,,,,,,,,,
,,,,,,,5ed6c9613e5fc912b310c00c,60568611ec04488a9e9da93b,6056aa8d30eaa0bbdd3aa8fd,I am not familiar with Spanish,East coast,NA,no,2021-03-20_22h08.57.813,empathy_intonation_perc,2020.2.10,Win32,60,,,,,,,,,,0,cuban,0,1,1.843355,0,60,60,13,1,14,./stim/wavs/andalusian_match_declarative-narrow-focus_Maria-bebe-el-vino.wav,./stim/wavs/argentine_match_declarative-narrow-focus_Maria-bebe-el-vino.wav,./stim/wavs/castilian_match_declarative-narrow-focus_Maria-bebe-el-vino.wav,./stim/wavs/chilean_match_declarative-narrow-focus_Maria-bebe-el-vino.wav,./stim/wavs/cuban_match_declarative-narrow-focus_Maria-bebe-el-vino.wav,./stim/wavs/mexican_match_declarative-narrow-focus_Maria-bebe-el-vino.wav,./stim/wavs/peruvian_match_declarative-narrow-focus_Maria-bebe-el-vino.wav,./stim/wavs/puertorican_match_declarative-narrow-focus_Maria-bebe-el-vino.wav,,,,,,,,,,,,,,,,,,,,,,,,,,,,,,,,,,,,,,,,,,,,,,,,,,,,,,,,
,,,,,,,5ed6c9613e5fc912b310c00c,60568611ec04488a9e9da93b,6056aa8d30eaa0bbdd3aa8fd,I am not familiar with Spanish,East coast,NA,no,2021-03-20_22h08.57.813,empathy_intonation_perc,2020.2.10,Win32,60,,,,,,,,,,0,peruvian,0,1,1.943645,0,61,61,34,1,35,./stim/wavs/andalusian_mismatch_declarative-broad-focus_El-nino-oye-el-rio.wav,./stim/wavs/argentine_mismatch_declarative-broad-focus_El-nino-oye-el-rio.wav,./stim/wavs/castilian_mismatch_declarative-broad-focus_El-nino-oye-el-rio.wav,./stim/wavs/chilean_mismatch_declarative-broad-focus_El-nino-oye-el-rio.wav,./stim/wavs/cuban_mismatch_declarative-broad-focus_El-nino-oye-el-rio.wav,./stim/wavs/mexican_mismatch_declarative-broad-focus_El-nino-oye-el-rio.wav,./stim/wavs/peruvian_mismatch_declarative-broad-focus_El-nino-oye-el-rio.wav,./stim/wavs/puertorican_mismatch_declarative-broad-focus_El-nino-oye-el-rio.wav,,,,,,,,,,,,,,,,,,,,,,,,,,,,,,,,,,,,,,,,,,,,,,,,,,,,,,,,
,,,,,,,5ed6c9613e5fc912b310c00c,60568611ec04488a9e9da93b,6056aa8d30eaa0bbdd3aa8fd,I am not familiar with Spanish,East coast,NA,no,2021-03-20_22h08.57.813,empathy_intonation_perc,2020.2.10,Win32,60,,,,,,,,,,0,puertorican,0,1,2.267365,0,62,62,47,1,48,./stim/wavs/andalusian_mismatch_declarative-narrow-focus_Mi-tia-odia-la-lluvia.wav,./stim/wavs/argentine_mismatch_declarative-narrow-focus_Mi-tia-odia-la-lluvia.wav,./stim/wavs/castilian_mismatch_declarative-narrow-focus_Mi-tia-odia-la-lluvia.wav,./stim/wavs/chilean_mismatch_declarative-narrow-focus_Mi-tia-odia-la-lluvia.wav,./stim/wavs/cuban_mismatch_declarative-narrow-focus_Mi-tia-odia-la-lluvia.wav,./stim/wavs/mexican_mismatch_declarative-narrow-focus_Mi-tia-odia-la-lluvia.wav,./stim/wavs/peruvian_mismatch_declarative-narrow-focus_Mi-tia-odia-la-lluvia.wav,./stim/wavs/puertorican_mismatch_declarative-narrow-focus_Mi-tia-odia-la-lluvia.wav,,,,,,,,,,,,,,,,,,,,,,,,,,,,,,,,,,,,,,,,,,,,,,,,,,,,,,,,
,,,,,,,5ed6c9613e5fc912b310c00c,60568611ec04488a9e9da93b,6056aa8d30eaa0bbdd3aa8fd,I am not familiar with Spanish,East coast,NA,no,2021-03-20_22h08.57.813,empathy_intonation_perc,2020.2.10,Win32,60,,,,,,,,,,0,puertorican,0,1,1.97522,0,63,63,2,1,3,./stim/wavs/andalusian_match_declarative-broad-focus_David-leia-el-libro.wav,./stim/wavs/argentine_match_declarative-broad-focus_David-leia-el-libro.wav,./stim/wavs/castilian_match_declarative-broad-focus_David-leia-el-libro.wav,./stim/wavs/chilean_match_declarative-broad-focus_David-leia-el-libro.wav,./stim/wavs/cuban_match_declarative-broad-focus_David-leia-el-libro.wav,./stim/wavs/mexican_match_declarative-broad-focus_David-leia-el-libro.wav,./stim/wavs/peruvian_match_declarative-broad-focus_David-leia-el-libro.wav,./stim/wavs/puertorican_match_declarative-broad-focus_David-leia-el-libro.wav,,,,,,,,,,,,,,,,,,,,,,,,,,,,,,,,,,,,,,,,,,,,,,,,,,,,,,,,
,,,,,,,5ed6c9613e5fc912b310c00c,60568611ec04488a9e9da93b,6056aa8d30eaa0bbdd3aa8fd,I am not familiar with Spanish,East coast,NA,no,2021-03-20_22h08.57.813,empathy_intonation_perc,2020.2.10,Win32,60,,,,,,,,,,,,,,,,,,,,,,,,,,,,,h,1,7.40076,0,0,0,0,1,,,,,,,,,,,,,,,,,,,,,,,,,,,,,,,,,,,,,,,,,,,,,,,,
,,,,,"Great! Now we will move on. The next task consists of about 60 trials, in each of which you will see a string of letters. 
  
  Your task is to decide whether this is a real Spanish word or not.",(press the spacebar to continue),5ed6c9613e5fc912b310c00c,60568611ec04488a9e9da93b,6056aa8d30eaa0bbdd3aa8fd,I am not familiar with Spanish,East coast,NA,no,2021-03-20_22h08.57.813,empathy_intonation_perc,2020.2.10,Win32,60,,,,,,,,,,,,,,,,,,,,,,,,,,,,,,,,,,,,,0,0,0,0,1,,,,,,,,,,,,,,,,,,,,,,,,,,,,,,,,,,,,,,,,,,,
,,,,,"If you think it is an existing Spanish word, you type '1' (for 'REAL'), and if you think it is not an existing Spanish word, you type '0' (for 'FAKE').",(press the spacebar to continue),5ed6c9613e5fc912b310c00c,60568611ec04488a9e9da93b,6056aa8d30eaa0bbdd3aa8fd,I am not familiar with Spanish,East coast,NA,no,2021-03-20_22h08.57.813,empathy_intonation_perc,2020.2.10,Win32,60,,,,,,,,,,,,,,,,,,,,,,,,,,,,,,,,,,,,,0,1,1,1,1,,,,,,,,,,,,,,,,,,,,,,,,,,,,,,,,,,,,,,,,,,,
,,,,,"If you are sure that the word exists, even though you dont know its exact meaning, you may still respond '1' (REAL). 
  
  But if you are not sure if it is an existing word, you should respond '0' (FAKE).
  
  Let's do a practice round...",(press the spacebar to continue),5ed6c9613e5fc912b310c00c,60568611ec04488a9e9da93b,6056aa8d30eaa0bbdd3aa8fd,I am not familiar with Spanish,East coast,NA,no,2021-03-20_22h08.57.813,empathy_intonation_perc,2020.2.10,Win32,60,,,,,,,,,,,,,,,,,,,,,,,,,,,,,,,,,,,,,0,2,2,2,1,,,,,,,,,,,,,,,,,,,,,,,,,,,,,,,,,,,,,,,,,,,
,,,,,,,5ed6c9613e5fc912b310c00c,60568611ec04488a9e9da93b,6056aa8d30eaa0bbdd3aa8fd,I am not familiar with Spanish,East coast,NA,no,2021-03-20_22h08.57.813,empathy_intonation_perc,2020.2.10,Win32,60,,,,,,,,,,0,,,,,,,,,,,,,,,,,,,,,,,,,,,,,,,,1,0,3.138855,0,0,0,0,1,0,depiste,REAL,FAKE,,,,,,,,,,,,,,,,,,,,,,,,,,,,,,,
,,,,,,,5ed6c9613e5fc912b310c00c,60568611ec04488a9e9da93b,6056aa8d30eaa0bbdd3aa8fd,I am not familiar with Spanish,East coast,NA,no,2021-03-20_22h08.57.813,empathy_intonation_perc,2020.2.10,Win32,60,,,,,,,,,,1,,,,,,,,,,,,,,,,,,,,,,,,,,,,,,,,1,1,3.389695,0,1,1,1,1,0,s,REAL,FAKE,,,,,,,,,,,,,,,,,,,,,,,,,,,,,,,
,,,,,,,5ed6c9613e5fc912b310c00c,60568611ec04488a9e9da93b,6056aa8d30eaa0bbdd3aa8fd,I am not familiar with Spanish,East coast,NA,no,2021-03-20_22h08.57.813,empathy_intonation_perc,2020.2.10,Win32,60,,,,,,,,,,0,,,,,,,,,,,,,,,,,,,,,,,,,,,,,,,,0,1,1.53397,0,2,2,2,1,0,con,REAL,FAKE,,,,,,,,,,,,,,,,,,,,,,,,,,,,,,,
,,,,,,,5ed6c9613e5fc912b310c00c,60568611ec04488a9e9da93b,6056aa8d30eaa0bbdd3aa8fd,I am not familiar with Spanish,East coast,NA,no,2021-03-20_22h08.57.813,empathy_intonation_perc,2020.2.10,Win32,60,,,,,,,,,,0,,,,,,,,,,,,,,,,,,,,,,,,,,,,,,,,0,1,0.850935,0,3,3,3,1,0,calpar,REAL,FAKE,,,,,,,,,,,,,,,,,,,,,,,,,,,,,,,
,,,,,,,5ed6c9613e5fc912b310c00c,60568611ec04488a9e9da93b,6056aa8d30eaa0bbdd3aa8fd,I am not familiar with Spanish,East coast,NA,no,2021-03-20_22h08.57.813,empathy_intonation_perc,2020.2.10,Win32,60,,,,,,,,,,0,,,,,,,,,,,,,,,,,,,,,,,,,,,,,,,,0,1,1.035655,0,4,4,4,1,0,joten,REAL,FAKE,,,,,,,,,,,,,,,,,,,,,,,,,,,,,,,
,,,,,,,5ed6c9613e5fc912b310c00c,60568611ec04488a9e9da93b,6056aa8d30eaa0bbdd3aa8fd,I am not familiar with Spanish,East coast,NA,no,2021-03-20_22h08.57.813,empathy_intonation_perc,2020.2.10,Win32,60,,,,,,,,,,1,,,,,,,,,,,,,,,,,,,,,,,,,,,,,,,,1,1,1.417495,0,5,5,5,1,0,sacapuntas,REAL,FAKE,,,,,,,,,,,,,,,,,,,,,,,,,,,,,,,
,,,,,,,5ed6c9613e5fc912b310c00c,60568611ec04488a9e9da93b,6056aa8d30eaa0bbdd3aa8fd,I am not familiar with Spanish,East coast,NA,no,2021-03-20_22h08.57.813,empathy_intonation_perc,2020.2.10,Win32,60,,,,,,,,,,0,,,,,,,,,,,,,,,,,,,,,,,,,,,,,,,,0,1,1.035765,0,6,6,6,1,0,priba,REAL,FAKE,,,,,,,,,,,,,,,,,,,,,,,,,,,,,,,
,,,,,,,5ed6c9613e5fc912b310c00c,60568611ec04488a9e9da93b,6056aa8d30eaa0bbdd3aa8fd,I am not familiar with Spanish,East coast,NA,no,2021-03-20_22h08.57.813,empathy_intonation_perc,2020.2.10,Win32,60,,,,,,,,,,0,,,,,,,,,,,,,,,,,,,,,,,,,,,,,,,,0,1,2.97542,0,7,7,7,1,0,pelasula,REAL,FAKE,,,,,,,,,,,,,,,,,,,,,,,,,,,,,,,
,,,,,,,5ed6c9613e5fc912b310c00c,60568611ec04488a9e9da93b,6056aa8d30eaa0bbdd3aa8fd,I am not familiar with Spanish,East coast,NA,no,2021-03-20_22h08.57.813,empathy_intonation_perc,2020.2.10,Win32,60,,,,,,,,,,1,,,,,,,,,,,,,,,,,,,,,,,,,,,,,,,,1,1,0.967515,0,8,8,8,1,0,bien,REAL,FAKE,,,,,,,,,,,,,,,,,,,,,,,,,,,,,,,
,,,,,,,5ed6c9613e5fc912b310c00c,60568611ec04488a9e9da93b,6056aa8d30eaa0bbdd3aa8fd,I am not familiar with Spanish,East coast,NA,no,2021-03-20_22h08.57.813,empathy_intonation_perc,2020.2.10,Win32,60,,,,,,,,,,1,,,,,,,,,,,,,,,,,,,,,,,,,,,,,,,,1,1,0.927295,0,9,9,9,1,0,casa,REAL,FAKE,,,,,,,,,,,,,,,,,,,,,,,,,,,,,,,
,,,,,,,5ed6c9613e5fc912b310c00c,60568611ec04488a9e9da93b,6056aa8d30eaa0bbdd3aa8fd,I am not familiar with Spanish,East coast,NA,no,2021-03-20_22h08.57.813,empathy_intonation_perc,2020.2.10,Win32,60,,,,,,,,,,0,,,,,,,,,,,,,,,,,,,,,,,,,,,,,,,,0,1,0.890745,0,10,10,10,1,0,lejo,REAL,FAKE,,,,,,,,,,,,,,,,,,,,,,,,,,,,,,,
,,,,,,,5ed6c9613e5fc912b310c00c,60568611ec04488a9e9da93b,6056aa8d30eaa0bbdd3aa8fd,I am not familiar with Spanish,East coast,NA,no,2021-03-20_22h08.57.813,empathy_intonation_perc,2020.2.10,Win32,60,,,,,,,,,,0,,,,,,,,,,,,,,,,,,,,,,,,,,,,,,,,1,0,1.10766,0,11,11,11,1,0,pretantas,REAL,FAKE,,,,,,,,,,,,,,,,,,,,,,,,,,,,,,,
,,,,,,,5ed6c9613e5fc912b310c00c,60568611ec04488a9e9da93b,6056aa8d30eaa0bbdd3aa8fd,I am not familiar with Spanish,East coast,NA,no,2021-03-20_22h08.57.813,empathy_intonation_perc,2020.2.10,Win32,60,,,,,,,,,,0,,,,,,,,,,,,,,,,,,,,,,,,,,,,,,,,,,,,,,,,74,cintro,,,1,0,0.93982,0,0,0,73,1,REAL,FAKE,,,,,,,,,,,,,,,,,,,,,
,,,,,,,5ed6c9613e5fc912b310c00c,60568611ec04488a9e9da93b,6056aa8d30eaa0bbdd3aa8fd,I am not familiar with Spanish,East coast,NA,no,2021-03-20_22h08.57.813,empathy_intonation_perc,2020.2.10,Win32,60,,,,,,,,,,0,,,,,,,,,,,,,,,,,,,,,,,,,,,,,,,,,,,,,,,,30,alardio,,,0,1,0.985815,0,1,1,29,1,REAL,FAKE,,,,,,,,,,,,,,,,,,,,,
,,,,,,,5ed6c9613e5fc912b310c00c,60568611ec04488a9e9da93b,6056aa8d30eaa0bbdd3aa8fd,I am not familiar with Spanish,East coast,NA,no,2021-03-20_22h08.57.813,empathy_intonation_perc,2020.2.10,Win32,60,,,,,,,,,,0,,,,,,,,,,,,,,,,,,,,,,,,,,,,,,,,,,,,,,,,72,pemicin,,,0,1,1.00456,0,2,2,71,1,REAL,FAKE,,,,,,,,,,,,,,,,,,,,,
,,,,,,,5ed6c9613e5fc912b310c00c,60568611ec04488a9e9da93b,6056aa8d30eaa0bbdd3aa8fd,I am not familiar with Spanish,East coast,NA,no,2021-03-20_22h08.57.813,empathy_intonation_perc,2020.2.10,Win32,60,,,,,,,,,,1,,,,,,,,,,,,,,,,,,,,,,,,,,,,,,,,,,,,,,,,77,tiburn,,,0,0,1.65452,0,3,3,76,1,REAL,FAKE,,,,,,,,,,,,,,,,,,,,,
,,,,,,,5ed6c9613e5fc912b310c00c,60568611ec04488a9e9da93b,6056aa8d30eaa0bbdd3aa8fd,I am not familiar with Spanish,East coast,NA,no,2021-03-20_22h08.57.813,empathy_intonation_perc,2020.2.10,Win32,60,,,,,,,,,,0,,,,,,,,,,,,,,,,,,,,,,,,,,,,,,,,,,,,,,,,79,tropaje,,,0,1,0.95174,0,4,4,78,1,REAL,FAKE,,,,,,,,,,,,,,,,,,,,,
,,,,,,,5ed6c9613e5fc912b310c00c,60568611ec04488a9e9da93b,6056aa8d30eaa0bbdd3aa8fd,I am not familiar with Spanish,East coast,NA,no,2021-03-20_22h08.57.813,empathy_intonation_perc,2020.2.10,Win32,60,,,,,,,,,,1,,,,,,,,,,,,,,,,,,,,,,,,,,,,,,,,,,,,,,,,68,alegre,,,1,1,0.65078,0,5,5,67,1,REAL,FAKE,,,,,,,,,,,,,,,,,,,,,
,,,,,,,5ed6c9613e5fc912b310c00c,60568611ec04488a9e9da93b,6056aa8d30eaa0bbdd3aa8fd,I am not familiar with Spanish,East coast,NA,no,2021-03-20_22h08.57.813,empathy_intonation_perc,2020.2.10,Win32,60,,,,,,,,,,1,,,,,,,,,,,,,,,,,,,,,,,,,,,,,,,,,,,,,,,,26,secuestro,,,0,0,1.301015,0,6,6,25,1,REAL,FAKE,,,,,,,,,,,,,,,,,,,,,
,,,,,,,5ed6c9613e5fc912b310c00c,60568611ec04488a9e9da93b,6056aa8d30eaa0bbdd3aa8fd,I am not familiar with Spanish,East coast,NA,no,2021-03-20_22h08.57.813,empathy_intonation_perc,2020.2.10,Win32,60,,,,,,,,,,1,,,,,,,,,,,,,,,,,,,,,,,,,,,,,,,,,,,,,,,,64,orgulloso,,,0,0,2.00199,0,7,7,63,1,REAL,FAKE,,,,,,,,,,,,,,,,,,,,,
,,,,,,,5ed6c9613e5fc912b310c00c,60568611ec04488a9e9da93b,6056aa8d30eaa0bbdd3aa8fd,I am not familiar with Spanish,East coast,NA,no,2021-03-20_22h08.57.813,empathy_intonation_perc,2020.2.10,Win32,60,,,,,,,,,,0,,,,,,,,,,,,,,,,,,,,,,,,,,,,,,,,,,,,,,,,23,lampera,,,1,0,1.16758,0,8,8,22,1,REAL,FAKE,,,,,,,,,,,,,,,,,,,,,
,,,,,,,5ed6c9613e5fc912b310c00c,60568611ec04488a9e9da93b,6056aa8d30eaa0bbdd3aa8fd,I am not familiar with Spanish,East coast,NA,no,2021-03-20_22h08.57.813,empathy_intonation_perc,2020.2.10,Win32,60,,,,,,,,,,1,,,,,,,,,,,,,,,,,,,,,,,,,,,,,,,,,,,,,,,,39,torpe,,,0,0,1.55817,0,9,9,38,1,REAL,FAKE,,,,,,,,,,,,,,,,,,,,,
,,,,,,,5ed6c9613e5fc912b310c00c,60568611ec04488a9e9da93b,6056aa8d30eaa0bbdd3aa8fd,I am not familiar with Spanish,East coast,NA,no,2021-03-20_22h08.57.813,empathy_intonation_perc,2020.2.10,Win32,60,,,,,,,,,,1,,,,,,,,,,,,,,,,,,,,,,,,,,,,,,,,,,,,,,,,73,hervidor,,,0,0,1.250795,0,10,10,72,1,REAL,FAKE,,,,,,,,,,,,,,,,,,,,,
,,,,,,,5ed6c9613e5fc912b310c00c,60568611ec04488a9e9da93b,6056aa8d30eaa0bbdd3aa8fd,I am not familiar with Spanish,East coast,NA,no,2021-03-20_22h08.57.813,empathy_intonation_perc,2020.2.10,Win32,60,,,,,,,,,,1,,,,,,,,,,,,,,,,,,,,,,,,,,,,,,,,,,,,,,,,45,jilguero,,,0,0,1.00591,0,11,11,44,1,REAL,FAKE,,,,,,,,,,,,,,,,,,,,,
,,,,,,,5ed6c9613e5fc912b310c00c,60568611ec04488a9e9da93b,6056aa8d30eaa0bbdd3aa8fd,I am not familiar with Spanish,East coast,NA,no,2021-03-20_22h08.57.813,empathy_intonation_perc,2020.2.10,Win32,60,,,,,,,,,,1,,,,,,,,,,,,,,,,,,,,,,,,,,,,,,,,,,,,,,,,75,yacer,,,0,0,0.670275,0,12,12,74,1,REAL,FAKE,,,,,,,,,,,,,,,,,,,,,
,,,,,,,5ed6c9613e5fc912b310c00c,60568611ec04488a9e9da93b,6056aa8d30eaa0bbdd3aa8fd,I am not familiar with Spanish,East coast,NA,no,2021-03-20_22h08.57.813,empathy_intonation_perc,2020.2.10,Win32,60,,,,,,,,,,1,,,,,,,,,,,,,,,,,,,,,,,,,,,,,,,,,,,,,,,,14,yunque,,,0,0,1.07321,0,13,13,13,1,REAL,FAKE,,,,,,,,,,,,,,,,,,,,,
,,,,,,,5ed6c9613e5fc912b310c00c,60568611ec04488a9e9da93b,6056aa8d30eaa0bbdd3aa8fd,I am not familiar with Spanish,East coast,NA,no,2021-03-20_22h08.57.813,empathy_intonation_perc,2020.2.10,Win32,60,,,,,,,,,,1,,,,,,,,,,,,,,,,,,,,,,,,,,,,,,,,,,,,,,,,60,matar,,,0,0,0.73439,0,14,14,59,1,REAL,FAKE,,,,,,,,,,,,,,,,,,,,,
,,,,,,,5ed6c9613e5fc912b310c00c,60568611ec04488a9e9da93b,6056aa8d30eaa0bbdd3aa8fd,I am not familiar with Spanish,East coast,NA,no,2021-03-20_22h08.57.813,empathy_intonation_perc,2020.2.10,Win32,60,,,,,,,,,,1,,,,,,,,,,,,,,,,,,,,,,,,,,,,,,,,,,,,,,,,56,musgo,,,0,0,1.25788,0,15,15,55,1,REAL,FAKE,,,,,,,,,,,,,,,,,,,,,
,,,,,,,5ed6c9613e5fc912b310c00c,60568611ec04488a9e9da93b,6056aa8d30eaa0bbdd3aa8fd,I am not familiar with Spanish,East coast,NA,no,2021-03-20_22h08.57.813,empathy_intonation_perc,2020.2.10,Win32,60,,,,,,,,,,1,,,,,,,,,,,,,,,,,,,,,,,,,,,,,,,,,,,,,,,,25,bisagra,,,0,0,1.076555,0,16,16,24,1,REAL,FAKE,,,,,,,,,,,,,,,,,,,,,
,,,,,,,5ed6c9613e5fc912b310c00c,60568611ec04488a9e9da93b,6056aa8d30eaa0bbdd3aa8fd,I am not familiar with Spanish,East coast,NA,no,2021-03-20_22h08.57.813,empathy_intonation_perc,2020.2.10,Win32,60,,,,,,,,,,1,,,,,,,,,,,,,,,,,,,,,,,,,,,,,,,,,,,,,,,,28,merodear,,,0,0,1.26842,0,17,17,27,1,REAL,FAKE,,,,,,,,,,,,,,,,,,,,,
,,,,,,,5ed6c9613e5fc912b310c00c,60568611ec04488a9e9da93b,6056aa8d30eaa0bbdd3aa8fd,I am not familiar with Spanish,East coast,NA,no,2021-03-20_22h08.57.813,empathy_intonation_perc,2020.2.10,Win32,60,,,,,,,,,,1,,,,,,,,,,,,,,,,,,,,,,,,,,,,,,,,,,,,,,,,76,atar,,,0,0,0.804965,0,18,18,75,1,REAL,FAKE,,,,,,,,,,,,,,,,,,,,,
,,,,,,,5ed6c9613e5fc912b310c00c,60568611ec04488a9e9da93b,6056aa8d30eaa0bbdd3aa8fd,I am not familiar with Spanish,East coast,NA,no,2021-03-20_22h08.57.813,empathy_intonation_perc,2020.2.10,Win32,60,,,,,,,,,,1,,,,,,,,,,,,,,,,,,,,,,,,,,,,,,,,,,,,,,,,20,vido,,,0,0,1.250985,0,19,19,19,1,REAL,FAKE,,,,,,,,,,,,,,,,,,,,,
,,,,,,,5ed6c9613e5fc912b310c00c,60568611ec04488a9e9da93b,6056aa8d30eaa0bbdd3aa8fd,I am not familiar with Spanish,East coast,NA,no,2021-03-20_22h08.57.813,empathy_intonation_perc,2020.2.10,Win32,60,,,,,,,,,,0,,,,,,,,,,,,,,,,,,,,,,,,,,,,,,,,,,,,,,,,35,rompido,,,1,0,0.9075,0,20,20,34,1,REAL,FAKE,,,,,,,,,,,,,,,,,,,,,
,,,,,,,5ed6c9613e5fc912b310c00c,60568611ec04488a9e9da93b,6056aa8d30eaa0bbdd3aa8fd,I am not familiar with Spanish,East coast,NA,no,2021-03-20_22h08.57.813,empathy_intonation_perc,2020.2.10,Win32,60,,,,,,,,,,1,,,,,,,,,,,,,,,,,,,,,,,,,,,,,,,,,,,,,,,,46,martillo,,,0,0,2.35118,0,21,21,45,1,REAL,FAKE,,,,,,,,,,,,,,,,,,,,,
,,,,,,,5ed6c9613e5fc912b310c00c,60568611ec04488a9e9da93b,6056aa8d30eaa0bbdd3aa8fd,I am not familiar with Spanish,East coast,NA,no,2021-03-20_22h08.57.813,empathy_intonation_perc,2020.2.10,Win32,60,,,,,,,,,,1,,,,,,,,,,,,,,,,,,,,,,,,,,,,,,,,,,,,,,,,90,clavel,,,0,0,2.18401,0,22,22,89,1,REAL,FAKE,,,,,,,,,,,,,,,,,,,,,
,,,,,,,5ed6c9613e5fc912b310c00c,60568611ec04488a9e9da93b,6056aa8d30eaa0bbdd3aa8fd,I am not familiar with Spanish,East coast,NA,no,2021-03-20_22h08.57.813,empathy_intonation_perc,2020.2.10,Win32,60,,,,,,,,,,1,,,,,,,,,,,,,,,,,,,,,,,,,,,,,,,,,,,,,,,,49,ganar,,,0,0,0.81767,0,23,23,48,1,REAL,FAKE,,,,,,,,,,,,,,,,,,,,,
,,,,,,,5ed6c9613e5fc912b310c00c,60568611ec04488a9e9da93b,6056aa8d30eaa0bbdd3aa8fd,I am not familiar with Spanish,East coast,NA,no,2021-03-20_22h08.57.813,empathy_intonation_perc,2020.2.10,Win32,60,,,,,,,,,,1,,,,,,,,,,,,,,,,,,,,,,,,,,,,,,,,,,,,,,,,80,hormiga,,,0,0,1.5684,0,24,24,79,1,REAL,FAKE,,,,,,,,,,,,,,,,,,,,,
,,,,,,,5ed6c9613e5fc912b310c00c,60568611ec04488a9e9da93b,6056aa8d30eaa0bbdd3aa8fd,I am not familiar with Spanish,East coast,NA,no,2021-03-20_22h08.57.813,empathy_intonation_perc,2020.2.10,Win32,60,,,,,,,,,,1,,,,,,,,,,,,,,,,,,,,,,,,,,,,,,,,,,,,,,,,85,lad,,,0,0,1.473005,0,25,25,84,1,REAL,FAKE,,,,,,,,,,,,,,,,,,,,,
,,,,,,,5ed6c9613e5fc912b310c00c,60568611ec04488a9e9da93b,6056aa8d30eaa0bbdd3aa8fd,I am not familiar with Spanish,East coast,NA,no,2021-03-20_22h08.57.813,empathy_intonation_perc,2020.2.10,Win32,60,,,,,,,,,,0,,,,,,,,,,,,,,,,,,,,,,,,,,,,,,,,,,,,,,,,84,escuto,,,1,0,0.80453,0,26,26,83,1,REAL,FAKE,,,,,,,,,,,,,,,,,,,,,
,,,,,,,5ed6c9613e5fc912b310c00c,60568611ec04488a9e9da93b,6056aa8d30eaa0bbdd3aa8fd,I am not familiar with Spanish,East coast,NA,no,2021-03-20_22h08.57.813,empathy_intonation_perc,2020.2.10,Win32,60,,,,,,,,,,0,,,,,,,,,,,,,,,,,,,,,,,,,,,,,,,,,,,,,,,,18,arsa,,,0,1,0.8057,0,27,27,17,1,REAL,FAKE,,,,,,,,,,,,,,,,,,,,,
,,,,,,,5ed6c9613e5fc912b310c00c,60568611ec04488a9e9da93b,6056aa8d30eaa0bbdd3aa8fd,I am not familiar with Spanish,East coast,NA,no,2021-03-20_22h08.57.813,empathy_intonation_perc,2020.2.10,Win32,60,,,,,,,,,,1,,,,,,,,,,,,,,,,,,,,,,,,,,,,,,,,,,,,,,,,5,zapato,,,0,0,1.35914,0,28,28,4,1,REAL,FAKE,,,,,,,,,,,,,,,,,,,,,
,,,,,,,5ed6c9613e5fc912b310c00c,60568611ec04488a9e9da93b,6056aa8d30eaa0bbdd3aa8fd,I am not familiar with Spanish,East coast,NA,no,2021-03-20_22h08.57.813,empathy_intonation_perc,2020.2.10,Win32,60,,,,,,,,,,0,,,,,,,,,,,,,,,,,,,,,,,,,,,,,,,,,,,,,,,,87,grodo,,,0,1,1.67395,0,29,29,86,1,REAL,FAKE,,,,,,,,,,,,,,,,,,,,,
,,,,,,,5ed6c9613e5fc912b310c00c,60568611ec04488a9e9da93b,6056aa8d30eaa0bbdd3aa8fd,I am not familiar with Spanish,East coast,NA,no,2021-03-20_22h08.57.813,empathy_intonation_perc,2020.2.10,Win32,60,,,,,,,,,,1,,,,,,,,,,,,,,,,,,,,,,,,,,,,,,,,,,,,,,,,6,tergiversar,,,0,0,2.217485,0,30,30,5,1,REAL,FAKE,,,,,,,,,,,,,,,,,,,,,
,,,,,,,5ed6c9613e5fc912b310c00c,60568611ec04488a9e9da93b,6056aa8d30eaa0bbdd3aa8fd,I am not familiar with Spanish,East coast,NA,no,2021-03-20_22h08.57.813,empathy_intonation_perc,2020.2.10,Win32,60,,,,,,,,,,0,,,,,,,,,,,,,,,,,,,,,,,,,,,,,,,,,,,,,,,,50,flamida,,,0,1,1.25501,0,31,31,49,1,REAL,FAKE,,,,,,,,,,,,,,,,,,,,,
,,,,,,,5ed6c9613e5fc912b310c00c,60568611ec04488a9e9da93b,6056aa8d30eaa0bbdd3aa8fd,I am not familiar with Spanish,East coast,NA,no,2021-03-20_22h08.57.813,empathy_intonation_perc,2020.2.10,Win32,60,,,,,,,,,,1,,,,,,,,,,,,,,,,,,,,,,,,,,,,,,,,,,,,,,,,78,frondoso,,,0,0,1.21782,0,32,32,77,1,REAL,FAKE,,,,,,,,,,,,,,,,,,,,,
,,,,,,,5ed6c9613e5fc912b310c00c,60568611ec04488a9e9da93b,6056aa8d30eaa0bbdd3aa8fd,I am not familiar with Spanish,East coast,NA,no,2021-03-20_22h08.57.813,empathy_intonation_perc,2020.2.10,Win32,60,,,,,,,,,,0,,,,,,,,,,,,,,,,,,,,,,,,,,,,,,,,,,,,,,,,10,antar,,,0,1,1.326605,0,33,33,9,1,REAL,FAKE,,,,,,,,,,,,,,,,,,,,,
,,,,,,,5ed6c9613e5fc912b310c00c,60568611ec04488a9e9da93b,6056aa8d30eaa0bbdd3aa8fd,I am not familiar with Spanish,East coast,NA,no,2021-03-20_22h08.57.813,empathy_intonation_perc,2020.2.10,Win32,60,,,,,,,,,,0,,,,,,,,,,,,,,,,,,,,,,,,,,,,,,,,,,,,,,,,63,esposante,,,1,0,1.500935,0,34,34,62,1,REAL,FAKE,,,,,,,,,,,,,,,,,,,,,
,,,,,,,5ed6c9613e5fc912b310c00c,60568611ec04488a9e9da93b,6056aa8d30eaa0bbdd3aa8fd,I am not familiar with Spanish,East coast,NA,no,2021-03-20_22h08.57.813,empathy_intonation_perc,2020.2.10,Win32,60,,,,,,,,,,1,,,,,,,,,,,,,,,,,,,,,,,,,,,,,,,,,,,,,,,,86,barato,,,0,0,1.234225,0,35,35,85,1,REAL,FAKE,,,,,,,,,,,,,,,,,,,,,
,,,,,,,5ed6c9613e5fc912b310c00c,60568611ec04488a9e9da93b,6056aa8d30eaa0bbdd3aa8fd,I am not familiar with Spanish,East coast,NA,no,2021-03-20_22h08.57.813,empathy_intonation_perc,2020.2.10,Win32,60,,,,,,,,,,1,,,,,,,,,,,,,,,,,,,,,,,,,,,,,,,,,,,,,,,,48,ladrn,,,0,0,1.067055,0,36,36,47,1,REAL,FAKE,,,,,,,,,,,,,,,,,,,,,
,,,,,,,5ed6c9613e5fc912b310c00c,60568611ec04488a9e9da93b,6056aa8d30eaa0bbdd3aa8fd,I am not familiar with Spanish,East coast,NA,no,2021-03-20_22h08.57.813,empathy_intonation_perc,2020.2.10,Win32,60,,,,,,,,,,1,,,,,,,,,,,,,,,,,,,,,,,,,,,,,,,,,,,,,,,,2,pellizcar,,,0,0,1.286745,0,37,37,1,1,REAL,FAKE,,,,,,,,,,,,,,,,,,,,,
,,,,,,,5ed6c9613e5fc912b310c00c,60568611ec04488a9e9da93b,6056aa8d30eaa0bbdd3aa8fd,I am not familiar with Spanish,East coast,NA,no,2021-03-20_22h08.57.813,empathy_intonation_perc,2020.2.10,Win32,60,,,,,,,,,,0,,,,,,,,,,,,,,,,,,,,,,,,,,,,,,,,,,,,,,,,47,cartinar,,,0,1,1.211235,0,38,38,46,1,REAL,FAKE,,,,,,,,,,,,,,,,,,,,,
,,,,,,,5ed6c9613e5fc912b310c00c,60568611ec04488a9e9da93b,6056aa8d30eaa0bbdd3aa8fd,I am not familiar with Spanish,East coast,NA,no,2021-03-20_22h08.57.813,empathy_intonation_perc,2020.2.10,Win32,60,,,,,,,,,,1,,,,,,,,,,,,,,,,,,,,,,,,,,,,,,,,,,,,,,,,7,psimo,,,0,0,2.50848,0,39,39,6,1,REAL,FAKE,,,,,,,,,,,,,,,,,,,,,
,,,,,,,5ed6c9613e5fc912b310c00c,60568611ec04488a9e9da93b,6056aa8d30eaa0bbdd3aa8fd,I am not familiar with Spanish,East coast,NA,no,2021-03-20_22h08.57.813,empathy_intonation_perc,2020.2.10,Win32,60,,,,,,,,,,1,,,,,,,,,,,,,,,,,,,,,,,,,,,,,,,,,,,,,,,,31,pandilla,,,0,0,1.81014,0,40,40,30,1,REAL,FAKE,,,,,,,,,,,,,,,,,,,,,
,,,,,,,5ed6c9613e5fc912b310c00c,60568611ec04488a9e9da93b,6056aa8d30eaa0bbdd3aa8fd,I am not familiar with Spanish,East coast,NA,no,2021-03-20_22h08.57.813,empathy_intonation_perc,2020.2.10,Win32,60,,,,,,,,,,0,,,,,,,,,,,,,,,,,,,,,,,,,,,,,,,,,,,,,,,,53,vegada,,,0,1,1.01193,0,41,41,52,1,REAL,FAKE,,,,,,,,,,,,,,,,,,,,,
,,,,,,,5ed6c9613e5fc912b310c00c,60568611ec04488a9e9da93b,6056aa8d30eaa0bbdd3aa8fd,I am not familiar with Spanish,East coast,NA,no,2021-03-20_22h08.57.813,empathy_intonation_perc,2020.2.10,Win32,60,,,,,,,,,,1,,,,,,,,,,,,,,,,,,,,,,,,,,,,,,,,,,,,,,,,41,rebuscar,,,0,0,1.05142,0,42,42,40,1,REAL,FAKE,,,,,,,,,,,,,,,,,,,,,
,,,,,,,5ed6c9613e5fc912b310c00c,60568611ec04488a9e9da93b,6056aa8d30eaa0bbdd3aa8fd,I am not familiar with Spanish,East coast,NA,no,2021-03-20_22h08.57.813,empathy_intonation_perc,2020.2.10,Win32,60,,,,,,,,,,0,,,,,,,,,,,,,,,,,,,,,,,,,,,,,,,,,,,,,,,,58,plaudir,,,0,1,0.73407,0,43,43,57,1,REAL,FAKE,,,,,,,,,,,,,,,,,,,,,
,,,,,,,5ed6c9613e5fc912b310c00c,60568611ec04488a9e9da93b,6056aa8d30eaa0bbdd3aa8fd,I am not familiar with Spanish,East coast,NA,no,2021-03-20_22h08.57.813,empathy_intonation_perc,2020.2.10,Win32,60,,,,,,,,,,0,,,,,,,,,,,,,,,,,,,,,,,,,,,,,,,,,,,,,,,,27,acutacin,,,0,1,1.719515,0,44,44,26,1,REAL,FAKE,,,,,,,,,,,,,,,,,,,,,
,,,,,,,5ed6c9613e5fc912b310c00c,60568611ec04488a9e9da93b,6056aa8d30eaa0bbdd3aa8fd,I am not familiar with Spanish,East coast,NA,no,2021-03-20_22h08.57.813,empathy_intonation_perc,2020.2.10,Win32,60,,,,,,,,,,1,,,,,,,,,,,,,,,,,,,,,,,,,,,,,,,,,,,,,,,,34,aviso,,,1,1,1.058675,0,45,45,33,1,REAL,FAKE,,,,,,,,,,,,,,,,,,,,,
,,,,,,,5ed6c9613e5fc912b310c00c,60568611ec04488a9e9da93b,6056aa8d30eaa0bbdd3aa8fd,I am not familiar with Spanish,East coast,NA,no,2021-03-20_22h08.57.813,empathy_intonation_perc,2020.2.10,Win32,60,,,,,,,,,,0,,,,,,,,,,,,,,,,,,,,,,,,,,,,,,,,,,,,,,,,29,decar,,,0,1,0.75196,0,46,46,28,1,REAL,FAKE,,,,,,,,,,,,,,,,,,,,,
,,,,,,,5ed6c9613e5fc912b310c00c,60568611ec04488a9e9da93b,6056aa8d30eaa0bbdd3aa8fd,I am not familiar with Spanish,East coast,NA,no,2021-03-20_22h08.57.813,empathy_intonation_perc,2020.2.10,Win32,60,,,,,,,,,,0,,,,,,,,,,,,,,,,,,,,,,,,,,,,,,,,,,,,,,,,66,hacido,,,0,1,2.784085,0,47,47,65,1,REAL,FAKE,,,,,,,,,,,,,,,,,,,,,
,,,,,,,5ed6c9613e5fc912b310c00c,60568611ec04488a9e9da93b,6056aa8d30eaa0bbdd3aa8fd,I am not familiar with Spanish,East coast,NA,no,2021-03-20_22h08.57.813,empathy_intonation_perc,2020.2.10,Win32,60,,,,,,,,,,1,,,,,,,,,,,,,,,,,,,,,,,,,,,,,,,,,,,,,,,,65,bizcocho,,,0,0,1.950605,0,48,48,64,1,REAL,FAKE,,,,,,,,,,,,,,,,,,,,,
,,,,,,,5ed6c9613e5fc912b310c00c,60568611ec04488a9e9da93b,6056aa8d30eaa0bbdd3aa8fd,I am not familiar with Spanish,East coast,NA,no,2021-03-20_22h08.57.813,empathy_intonation_perc,2020.2.10,Win32,60,,,,,,,,,,1,,,,,,,,,,,,,,,,,,,,,,,,,,,,,,,,,,,,,,,,12,asesinato,,,0,0,1.393285,0,49,49,11,1,REAL,FAKE,,,,,,,,,,,,,,,,,,,,,
,,,,,,,5ed6c9613e5fc912b310c00c,60568611ec04488a9e9da93b,6056aa8d30eaa0bbdd3aa8fd,I am not familiar with Spanish,East coast,NA,no,2021-03-20_22h08.57.813,empathy_intonation_perc,2020.2.10,Win32,60,,,,,,,,,,1,,,,,,,,,,,,,,,,,,,,,,,,,,,,,,,,,,,,,,,,38,estornudar,,,1,1,2.235855,0,50,50,37,1,REAL,FAKE,,,,,,,,,,,,,,,,,,,,,
,,,,,,,5ed6c9613e5fc912b310c00c,60568611ec04488a9e9da93b,6056aa8d30eaa0bbdd3aa8fd,I am not familiar with Spanish,East coast,NA,no,2021-03-20_22h08.57.813,empathy_intonation_perc,2020.2.10,Win32,60,,,,,,,,,,1,,,,,,,,,,,,,,,,,,,,,,,,,,,,,,,,,,,,,,,,67,cabello,,,1,1,0.945405,0,51,51,66,1,REAL,FAKE,,,,,,,,,,,,,,,,,,,,,
,,,,,,,5ed6c9613e5fc912b310c00c,60568611ec04488a9e9da93b,6056aa8d30eaa0bbdd3aa8fd,I am not familiar with Spanish,East coast,NA,no,2021-03-20_22h08.57.813,empathy_intonation_perc,2020.2.10,Win32,60,,,,,,,,,,1,,,,,,,,,,,,,,,,,,,,,,,,,,,,,,,,,,,,,,,,9,hacha,,,0,0,0.817635,0,52,52,8,1,REAL,FAKE,,,,,,,,,,,,,,,,,,,,,
,,,,,,,5ed6c9613e5fc912b310c00c,60568611ec04488a9e9da93b,6056aa8d30eaa0bbdd3aa8fd,I am not familiar with Spanish,East coast,NA,no,2021-03-20_22h08.57.813,empathy_intonation_perc,2020.2.10,Win32,60,,,,,,,,,,1,,,,,,,,,,,,,,,,,,,,,,,,,,,,,,,,,,,,,,,,43,canela,,,0,0,1.02234,0,53,53,42,1,REAL,FAKE,,,,,,,,,,,,,,,,,,,,,
,,,,,,,5ed6c9613e5fc912b310c00c,60568611ec04488a9e9da93b,6056aa8d30eaa0bbdd3aa8fd,I am not familiar with Spanish,East coast,NA,no,2021-03-20_22h08.57.813,empathy_intonation_perc,2020.2.10,Win32,60,,,,,,,,,,0,,,,,,,,,,,,,,,,,,,,,,,,,,,,,,,,,,,,,,,,70,temblo,,,0,1,1.934065,0,54,54,69,1,REAL,FAKE,,,,,,,,,,,,,,,,,,,,,
,,,,,,,5ed6c9613e5fc912b310c00c,60568611ec04488a9e9da93b,6056aa8d30eaa0bbdd3aa8fd,I am not familiar with Spanish,East coast,NA,no,2021-03-20_22h08.57.813,empathy_intonation_perc,2020.2.10,Win32,60,,,,,,,,,,0,,,,,,,,,,,,,,,,,,,,,,,,,,,,,,,,,,,,,,,,42,cadallo,,,0,1,0.93789,0,55,55,41,1,REAL,FAKE,,,,,,,,,,,,,,,,,,,,,
,,,,,,,5ed6c9613e5fc912b310c00c,60568611ec04488a9e9da93b,6056aa8d30eaa0bbdd3aa8fd,I am not familiar with Spanish,East coast,NA,no,2021-03-20_22h08.57.813,empathy_intonation_perc,2020.2.10,Win32,60,,,,,,,,,,0,,,,,,,,,,,,,,,,,,,,,,,,,,,,,,,,,,,,,,,,8,cadea,,,1,0,1.217625,0,56,56,7,1,REAL,FAKE,,,,,,,,,,,,,,,,,,,,,
,,,,,,,5ed6c9613e5fc912b310c00c,60568611ec04488a9e9da93b,6056aa8d30eaa0bbdd3aa8fd,I am not familiar with Spanish,East coast,NA,no,2021-03-20_22h08.57.813,empathy_intonation_perc,2020.2.10,Win32,60,,,,,,,,,,0,,,,,,,,,,,,,,,,,,,,,,,,,,,,,,,,,,,,,,,,33,pauca,,,0,1,0.9675,0,57,57,32,1,REAL,FAKE,,,,,,,,,,,,,,,,,,,,,
,,,,,,,5ed6c9613e5fc912b310c00c,60568611ec04488a9e9da93b,6056aa8d30eaa0bbdd3aa8fd,I am not familiar with Spanish,East coast,NA,no,2021-03-20_22h08.57.813,empathy_intonation_perc,2020.2.10,Win32,60,,,,,,,,,,1,,,,,,,,,,,,,,,,,,,,,,,,,,,,,,,,,,,,,,,,37,granuja,,,0,0,0.685185,0,58,58,36,1,REAL,FAKE,,,,,,,,,,,,,,,,,,,,,
,,,,,,,5ed6c9613e5fc912b310c00c,60568611ec04488a9e9da93b,6056aa8d30eaa0bbdd3aa8fd,I am not familiar with Spanish,East coast,NA,no,2021-03-20_22h08.57.813,empathy_intonation_perc,2020.2.10,Win32,60,,,,,,,,,,1,,,,,,,,,,,,,,,,,,,,,,,,,,,,,,,,,,,,,,,,88,acantilado,,,0,0,1.650765,0,59,59,87,1,REAL,FAKE,,,,,,,,,,,,,,,,,,,,,
,,,,,,,5ed6c9613e5fc912b310c00c,60568611ec04488a9e9da93b,6056aa8d30eaa0bbdd3aa8fd,I am not familiar with Spanish,East coast,NA,no,2021-03-20_22h08.57.813,empathy_intonation_perc,2020.2.10,Win32,60,,,,,,,,,,1,,,,,,,,,,,,,,,,,,,,,,,,,,,,,,,,,,,,,,,,11,cenefa,,,0,0,0.817435,0,60,60,10,1,REAL,FAKE,,,,,,,,,,,,,,,,,,,,,
,,,,,,,5ed6c9613e5fc912b310c00c,60568611ec04488a9e9da93b,6056aa8d30eaa0bbdd3aa8fd,I am not familiar with Spanish,East coast,NA,no,2021-03-20_22h08.57.813,empathy_intonation_perc,2020.2.10,Win32,60,,,,,,,,,,1,,,,,,,,,,,,,,,,,,,,,,,,,,,,,,,,,,,,,,,,13,helar,,,0,0,0.60789,0,61,61,12,1,REAL,FAKE,,,,,,,,,,,,,,,,,,,,,
,,,,,,,5ed6c9613e5fc912b310c00c,60568611ec04488a9e9da93b,6056aa8d30eaa0bbdd3aa8fd,I am not familiar with Spanish,East coast,NA,no,2021-03-20_22h08.57.813,empathy_intonation_perc,2020.2.10,Win32,60,,,,,,,,,,1,,,,,,,,,,,,,,,,,,,,,,,,,,,,,,,,,,,,,,,,57,tacao,,,0,0,1.26099,0,62,62,56,1,REAL,FAKE,,,,,,,,,,,,,,,,,,,,,
,,,,,,,5ed6c9613e5fc912b310c00c,60568611ec04488a9e9da93b,6056aa8d30eaa0bbdd3aa8fd,I am not familiar with Spanish,East coast,NA,no,2021-03-20_22h08.57.813,empathy_intonation_perc,2020.2.10,Win32,60,,,,,,,,,,1,,,,,,,,,,,,,,,,,,,,,,,,,,,,,,,,,,,,,,,,40,alfombra,,,0,0,1.284165,0,63,63,39,1,REAL,FAKE,,,,,,,,,,,,,,,,,,,,,
,,,,,,,5ed6c9613e5fc912b310c00c,60568611ec04488a9e9da93b,6056aa8d30eaa0bbdd3aa8fd,I am not familiar with Spanish,East coast,NA,no,2021-03-20_22h08.57.813,empathy_intonation_perc,2020.2.10,Win32,60,,,,,,,,,,1,,,,,,,,,,,,,,,,,,,,,,,,,,,,,,,,,,,,,,,,54,fomentar,,,0,0,1.30116,0,64,64,53,1,REAL,FAKE,,,,,,,,,,,,,,,,,,,,,
,,,,,,,5ed6c9613e5fc912b310c00c,60568611ec04488a9e9da93b,6056aa8d30eaa0bbdd3aa8fd,I am not familiar with Spanish,East coast,NA,no,2021-03-20_22h08.57.813,empathy_intonation_perc,2020.2.10,Win32,60,,,,,,,,,,0,,,,,,,,,,,,,,,,,,,,,,,,,,,,,,,,,,,,,,,,19,brecedad,,,0,1,1.12325,0,65,65,18,1,REAL,FAKE,,,,,,,,,,,,,,,,,,,,,
,,,,,,,5ed6c9613e5fc912b310c00c,60568611ec04488a9e9da93b,6056aa8d30eaa0bbdd3aa8fd,I am not familiar with Spanish,East coast,NA,no,2021-03-20_22h08.57.813,empathy_intonation_perc,2020.2.10,Win32,60,,,,,,,,,,1,,,,,,,,,,,,,,,,,,,,,,,,,,,,,,,,,,,,,,,,52,camisa,,,1,1,1.052565,0,66,66,51,1,REAL,FAKE,,,,,,,,,,,,,,,,,,,,,
,,,,,,,5ed6c9613e5fc912b310c00c,60568611ec04488a9e9da93b,6056aa8d30eaa0bbdd3aa8fd,I am not familiar with Spanish,East coast,NA,no,2021-03-20_22h08.57.813,empathy_intonation_perc,2020.2.10,Win32,60,,,,,,,,,,1,,,,,,,,,,,,,,,,,,,,,,,,,,,,,,,,,,,,,,,,89,prisa,,,1,1,0.890435,0,67,67,88,1,REAL,FAKE,,,,,,,,,,,,,,,,,,,,,
,,,,,,,5ed6c9613e5fc912b310c00c,60568611ec04488a9e9da93b,6056aa8d30eaa0bbdd3aa8fd,I am not familiar with Spanish,East coast,NA,no,2021-03-20_22h08.57.813,empathy_intonation_perc,2020.2.10,Win32,60,,,,,,,,,,1,,,,,,,,,,,,,,,,,,,,,,,,,,,,,,,,,,,,,,,,3,pulmones,,,0,0,1.01776,0,68,68,2,1,REAL,FAKE,,,,,,,,,,,,,,,,,,,,,
,,,,,,,5ed6c9613e5fc912b310c00c,60568611ec04488a9e9da93b,6056aa8d30eaa0bbdd3aa8fd,I am not familiar with Spanish,East coast,NA,no,2021-03-20_22h08.57.813,empathy_intonation_perc,2020.2.10,Win32,60,,,,,,,,,,1,,,,,,,,,,,,,,,,,,,,,,,,,,,,,,,,,,,,,,,,22,lacayo,,,0,0,0.634105,0,69,69,21,1,REAL,FAKE,,,,,,,,,,,,,,,,,,,,,
,,,,,,,5ed6c9613e5fc912b310c00c,60568611ec04488a9e9da93b,6056aa8d30eaa0bbdd3aa8fd,I am not familiar with Spanish,East coast,NA,no,2021-03-20_22h08.57.813,empathy_intonation_perc,2020.2.10,Win32,60,,,,,,,,,,1,,,,,,,,,,,,,,,,,,,,,,,,,,,,,,,,,,,,,,,,62,flaco,,,0,0,0.75094,0,70,70,61,1,REAL,FAKE,,,,,,,,,,,,,,,,,,,,,
,,,,,,,5ed6c9613e5fc912b310c00c,60568611ec04488a9e9da93b,6056aa8d30eaa0bbdd3aa8fd,I am not familiar with Spanish,East coast,NA,no,2021-03-20_22h08.57.813,empathy_intonation_perc,2020.2.10,Win32,60,,,,,,,,,,0,,,,,,,,,,,,,,,,,,,,,,,,,,,,,,,,,,,,,,,,16,abracer,,,0,1,0.993495,0,71,71,15,1,REAL,FAKE,,,,,,,,,,,,,,,,,,,,,
,,,,,,,5ed6c9613e5fc912b310c00c,60568611ec04488a9e9da93b,6056aa8d30eaa0bbdd3aa8fd,I am not familiar with Spanish,East coast,NA,no,2021-03-20_22h08.57.813,empathy_intonation_perc,2020.2.10,Win32,60,,,,,,,,,,1,,,,,,,,,,,,,,,,,,,,,,,,,,,,,,,,,,,,,,,,15,regar,,,0,0,0.634315,0,72,72,14,1,REAL,FAKE,,,,,,,,,,,,,,,,,,,,,
,,,,,,,5ed6c9613e5fc912b310c00c,60568611ec04488a9e9da93b,6056aa8d30eaa0bbdd3aa8fd,I am not familiar with Spanish,East coast,NA,no,2021-03-20_22h08.57.813,empathy_intonation_perc,2020.2.10,Win32,60,,,,,,,,,,0,,,,,,,,,,,,,,,,,,,,,,,,,,,,,,,,,,,,,,,,82,empirador,,,0,1,1.790395,0,73,73,81,1,REAL,FAKE,,,,,,,,,,,,,,,,,,,,,
,,,,,,,5ed6c9613e5fc912b310c00c,60568611ec04488a9e9da93b,6056aa8d30eaa0bbdd3aa8fd,I am not familiar with Spanish,East coast,NA,no,2021-03-20_22h08.57.813,empathy_intonation_perc,2020.2.10,Win32,60,,,,,,,,,,1,,,,,,,,,,,,,,,,,,,,,,,,,,,,,,,,,,,,,,,,83,guante,,,0,0,0.975985,0,74,74,82,1,REAL,FAKE,,,,,,,,,,,,,,,,,,,,,
,,,,,,,5ed6c9613e5fc912b310c00c,60568611ec04488a9e9da93b,6056aa8d30eaa0bbdd3aa8fd,I am not familiar with Spanish,East coast,NA,no,2021-03-20_22h08.57.813,empathy_intonation_perc,2020.2.10,Win32,60,,,,,,,,,,1,,,,,,,,,,,,,,,,,,,,,,,,,,,,,,,,,,,,,,,,44,cuchara,,,0,0,1.24175,0,75,75,43,1,REAL,FAKE,,,,,,,,,,,,,,,,,,,,,
,,,,,,,5ed6c9613e5fc912b310c00c,60568611ec04488a9e9da93b,6056aa8d30eaa0bbdd3aa8fd,I am not familiar with Spanish,East coast,NA,no,2021-03-20_22h08.57.813,empathy_intonation_perc,2020.2.10,Win32,60,,,,,,,,,,1,,,,,,,,,,,,,,,,,,,,,,,,,,,,,,,,,,,,,,,,24,ltigo,,,0,0,1.28432,0,76,76,23,1,REAL,FAKE,,,,,,,,,,,,,,,,,,,,,
,,,,,,,5ed6c9613e5fc912b310c00c,60568611ec04488a9e9da93b,6056aa8d30eaa0bbdd3aa8fd,I am not familiar with Spanish,East coast,NA,no,2021-03-20_22h08.57.813,empathy_intonation_perc,2020.2.10,Win32,60,,,,,,,,,,1,,,,,,,,,,,,,,,,,,,,,,,,,,,,,,,,,,,,,,,,69,engatusar,,,1,1,1.119455,0,77,77,68,1,REAL,FAKE,,,,,,,,,,,,,,,,,,,,,
,,,,,,,5ed6c9613e5fc912b310c00c,60568611ec04488a9e9da93b,6056aa8d30eaa0bbdd3aa8fd,I am not familiar with Spanish,East coast,NA,no,2021-03-20_22h08.57.813,empathy_intonation_perc,2020.2.10,Win32,60,,,,,,,,,,0,,,,,,,,,,,,,,,,,,,,,,,,,,,,,,,,,,,,,,,,1,terzo,,,0,1,0.701615,0,78,78,0,1,REAL,FAKE,,,,,,,,,,,,,,,,,,,,,
,,,,,,,5ed6c9613e5fc912b310c00c,60568611ec04488a9e9da93b,6056aa8d30eaa0bbdd3aa8fd,I am not familiar with Spanish,East coast,NA,no,2021-03-20_22h08.57.813,empathy_intonation_perc,2020.2.10,Win32,60,,,,,,,,,,1,,,,,,,,,,,,,,,,,,,,,,,,,,,,,,,,,,,,,,,,59,besar,,,0,0,0.72481,0,79,79,58,1,REAL,FAKE,,,,,,,,,,,,,,,,,,,,,
,,,,,,,5ed6c9613e5fc912b310c00c,60568611ec04488a9e9da93b,6056aa8d30eaa0bbdd3aa8fd,I am not familiar with Spanish,East coast,NA,no,2021-03-20_22h08.57.813,empathy_intonation_perc,2020.2.10,Win32,60,,,,,,,,,,1,,,,,,,,,,,,,,,,,,,,,,,,,,,,,,,,,,,,,,,,71,polvoriento,,,0,0,0.78429,0,80,80,70,1,REAL,FAKE,,,,,,,,,,,,,,,,,,,,,
,,,,,,,5ed6c9613e5fc912b310c00c,60568611ec04488a9e9da93b,6056aa8d30eaa0bbdd3aa8fd,I am not familiar with Spanish,East coast,NA,no,2021-03-20_22h08.57.813,empathy_intonation_perc,2020.2.10,Win32,60,,,,,,,,,,1,,,,,,,,,,,,,,,,,,,,,,,,,,,,,,,,,,,,,,,,81,pozo,,,1,1,1.038065,0,81,81,80,1,REAL,FAKE,,,,,,,,,,,,,,,,,,,,,
,,,,,,,5ed6c9613e5fc912b310c00c,60568611ec04488a9e9da93b,6056aa8d30eaa0bbdd3aa8fd,I am not familiar with Spanish,East coast,NA,no,2021-03-20_22h08.57.813,empathy_intonation_perc,2020.2.10,Win32,60,,,,,,,,,,1,,,,,,,,,,,,,,,,,,,,,,,,,,,,,,,,,,,,,,,,61,seda,,,0,0,0.742755,0,82,82,60,1,REAL,FAKE,,,,,,,,,,,,,,,,,,,,,
,,,,,,,5ed6c9613e5fc912b310c00c,60568611ec04488a9e9da93b,6056aa8d30eaa0bbdd3aa8fd,I am not familiar with Spanish,East coast,NA,no,2021-03-20_22h08.57.813,empathy_intonation_perc,2020.2.10,Win32,60,,,,,,,,,,0,,,,,,,,,,,,,,,,,,,,,,,,,,,,,,,,,,,,,,,,21,capillo,,,1,0,1.592375,0,83,83,20,1,REAL,FAKE,,,,,,,,,,,,,,,,,,,,,
,,,,,,,5ed6c9613e5fc912b310c00c,60568611ec04488a9e9da93b,6056aa8d30eaa0bbdd3aa8fd,I am not familiar with Spanish,East coast,NA,no,2021-03-20_22h08.57.813,empathy_intonation_perc,2020.2.10,Win32,60,,,,,,,,,,0,,,,,,,,,,,,,,,,,,,,,,,,,,,,,,,,,,,,,,,,4,batilln,,,0,1,2.738805,0,84,84,3,1,REAL,FAKE,,,,,,,,,,,,,,,,,,,,,
,,,,,,,5ed6c9613e5fc912b310c00c,60568611ec04488a9e9da93b,6056aa8d30eaa0bbdd3aa8fd,I am not familiar with Spanish,East coast,NA,no,2021-03-20_22h08.57.813,empathy_intonation_perc,2020.2.10,Win32,60,,,,,,,,,,0,,,,,,,,,,,,,,,,,,,,,,,,,,,,,,,,,,,,,,,,17,floroso,,,1,0,0.868795,0,85,85,16,1,REAL,FAKE,,,,,,,,,,,,,,,,,,,,,
,,,,,,,5ed6c9613e5fc912b310c00c,60568611ec04488a9e9da93b,6056aa8d30eaa0bbdd3aa8fd,I am not familiar with Spanish,East coast,NA,no,2021-03-20_22h08.57.813,empathy_intonation_perc,2020.2.10,Win32,60,,,,,,,,,,0,,,,,,,,,,,,,,,,,,,,,,,,,,,,,,,,,,,,,,,,32,fatacidad,,,0,1,2.55388,0,86,86,31,1,REAL,FAKE,,,,,,,,,,,,,,,,,,,,,
,,,,,,,5ed6c9613e5fc912b310c00c,60568611ec04488a9e9da93b,6056aa8d30eaa0bbdd3aa8fd,I am not familiar with Spanish,East coast,NA,no,2021-03-20_22h08.57.813,empathy_intonation_perc,2020.2.10,Win32,60,,,,,,,,,,1,,,,,,,,,,,,,,,,,,,,,,,,,,,,,,,,,,,,,,,,55,nevar,,,0,0,0.660025,0,87,87,54,1,REAL,FAKE,,,,,,,,,,,,,,,,,,,,,
,,,,,,,5ed6c9613e5fc912b310c00c,60568611ec04488a9e9da93b,6056aa8d30eaa0bbdd3aa8fd,I am not familiar with Spanish,East coast,NA,no,2021-03-20_22h08.57.813,empathy_intonation_perc,2020.2.10,Win32,60,,,,,,,,,,1,,,,,,,,,,,,,,,,,,,,,,,,,,,,,,,,,,,,,,,,51,candado,,,0,0,1.367525,0,88,88,50,1,REAL,FAKE,,,,,,,,,,,,,,,,,,,,,
,,,,,,,5ed6c9613e5fc912b310c00c,60568611ec04488a9e9da93b,6056aa8d30eaa0bbdd3aa8fd,I am not familiar with Spanish,East coast,NA,no,2021-03-20_22h08.57.813,empathy_intonation_perc,2020.2.10,Win32,60,,,,,,,,,,1,,,,,,,,,,,,,,,,,,,,,,,,,,,,,,,,,,,,,,,,36,loro,,,0,0,1.01077,0,89,89,35,1,REAL,FAKE,,,,,,,,,,,,,,,,,,,,,
