instructions_2afc_loop.thisRepN,instructions_2afc_loop.thisTrialN,instructions_2afc_loop.thisN,instructions_2afc_loop.thisIndex,instructions_2afc_loop.ran,instructions_text,continue_text,participant,study_id,session,I am most familiar with Spanish from...*,What part of the US are you from?*,At what age did you begin learning Spanish?*,Are you proficient in any languages other than English/Spanish?*,date,expName,psychopyVersion,OS,frameRate,key_resp_2afc_practice.keys,key_resp_2afc_practice.corr,key_resp_2afc_practice.rt,trials_2afc_practice_loop.thisRepN,trials_2afc_practice_loop.thisTrialN,trials_2afc_practice_loop.thisN,trials_2afc_practice_loop.thisIndex,trials_2afc_practice_loop.ran,path,correct_response,the_col,key_resp_2afc_trial.keys,key_resp_2afc_trial.corr,key_resp_2afc_trial.rt,trials_2afc_loop.thisRepN,trials_2afc_loop.thisTrialN,trials_2afc_loop.thisN,trials_2afc_loop.thisIndex,trials_2afc_loop.ran,item_num,andalusian,argentine,castilian,chilean,cuban,mexican,peruvian,puertorican,key_resp_ac1.keys,key_resp_ac1.corr,key_resp_ac1.rt,ac1_loop.thisRepN,ac1_loop.thisTrialN,ac1_loop.thisN,ac1_loop.thisIndex,ac1_loop.ran,instructions_lextale_loop.thisRepN,instructions_lextale_loop.thisTrialN,instructions_lextale_loop.thisN,instructions_lextale_loop.thisIndex,instructions_lextale_loop.ran,key_resp_lextale_practice.keys,key_resp_lextale_practice.corr,key_resp_lextale_practice.rt,trials_lextale_practice_loop.thisRepN,trials_lextale_practice_loop.thisTrialN,trials_lextale_practice_loop.thisN,trials_lextale_practice_loop.thisIndex,trials_lextale_practice_loop.ran,stim,word,prac_button_real,prac_button_false,key_resp_lextale_trial.keys,key_resp_lextale_trial.corr,key_resp_lextale_trial.rt,trials_lextale_loop.thisRepN,trials_lextale_loop.thisTrialN,trials_lextale_loop.thisN,trials_lextale_loop.thisIndex,trials_lextale_loop.ran,button_real,button_false,key_resp_ac2.keys,key_resp_ac2.corr,key_resp_ac2.rt,check_pass,check_fails,ac2_loop.thisRepN,ac2_loop.thisTrialN,ac2_loop.thisN,ac2_loop.thisIndex,ac2_loop.ran,slider_eq_trial.response,trials_eq_loop.thisRepN,trials_eq_loop.thisTrialN,trials_eq_loop.thisN,trials_eq_loop.thisIndex,trials_eq_loop.ran,item,is_test_item,is_distractor,is_agree_score,is_disagree_score
0,0,0,0,1,"In the following task you are going to hear a series of utterances. 

  You will decide if the utterances sound like questions or not using your keyboard.",(press the spacebar to continue),5efb5360f3f69c084c1ca850,605b45a4d25f287719a41696,6060ed87985ae0e0f21a3440,I am not familiar with Spanish,East coast,13 or older,no,2021-03-28_16h57.23.262,empathy_intonation_perc,2020.2.10,Win32,60,,,,,,,,,,,,,,,,,,,,,,,,,,,,,,,,,,,,,,,,,,,,,,,,,,,,,,,,,,,,,,,,,,,,,,,,,,,,,,,,,,,,
0,1,1,1,1,"If you believe the utterance is a question, type '1' (for 'yes') and if you do not 
  believe it is a question type '0' (for 'no').

  Let's practice a bit...",(press the spacebar to continue),5efb5360f3f69c084c1ca850,605b45a4d25f287719a41696,6060ed87985ae0e0f21a3440,I am not familiar with Spanish,East coast,13 or older,no,2021-03-28_16h57.23.262,empathy_intonation_perc,2020.2.10,Win32,60,,,,,,,,,,,,,,,,,,,,,,,,,,,,,,,,,,,,,,,,,,,,,,,,,,,,,,,,,,,,,,,,,,,,,,,,,,,,,,,,,,,,
,,,,,,,5efb5360f3f69c084c1ca850,605b45a4d25f287719a41696,6060ed87985ae0e0f21a3440,I am not familiar with Spanish,East coast,13 or older,no,2021-03-28_16h57.23.262,empathy_intonation_perc,2020.2.10,Win32,60,0,1,2.650535,0,0,0,4,1,./stim/wavs/cuban_statement_filler_Cocinabas-por-la-noche.wav,0,,,,,,,,,,,,,,,,,,,,,,,,,,,,,,,,,,,,,,,,,,,,,,,,,,,,,,,,,,,,,,,,,,,,,,,,,,
,,,,,,,5efb5360f3f69c084c1ca850,605b45a4d25f287719a41696,6060ed87985ae0e0f21a3440,I am not familiar with Spanish,East coast,13 or older,no,2021-03-28_16h57.23.262,empathy_intonation_perc,2020.2.10,Win32,60,0,1,2.821575,0,1,1,6,1,./stim/wavs/peruvian_statement_filler_El-nino-habla-con-su-madre.wav,0,,,,,,,,,,,,,,,,,,,,,,,,,,,,,,,,,,,,,,,,,,,,,,,,,,,,,,,,,,,,,,,,,,,,,,,,,,
,,,,,,,5efb5360f3f69c084c1ca850,605b45a4d25f287719a41696,6060ed87985ae0e0f21a3440,I am not familiar with Spanish,East coast,13 or older,no,2021-03-28_16h57.23.262,empathy_intonation_perc,2020.2.10,Win32,60,1,1,1.84013,0,2,2,2,1,./stim/wavs/chilean_question_filler_Mi-padre-cantaba-bien.wav,1,,,,,,,,,,,,,,,,,,,,,,,,,,,,,,,,,,,,,,,,,,,,,,,,,,,,,,,,,,,,,,,,,,,,,,,,,,
,,,,,,,5efb5360f3f69c084c1ca850,605b45a4d25f287719a41696,6060ed87985ae0e0f21a3440,I am not familiar with Spanish,East coast,13 or older,no,2021-03-28_16h57.23.262,empathy_intonation_perc,2020.2.10,Win32,60,1,1,1.99826,0,3,3,0,1,./stim/wavs/castilian_question_filler_Mi-esposo-conoce-al-chico.wav,1,,,,,,,,,,,,,,,,,,,,,,,,,,,,,,,,,,,,,,,,,,,,,,,,,,,,,,,,,,,,,,,,,,,,,,,,,,
,,,,,,,5efb5360f3f69c084c1ca850,605b45a4d25f287719a41696,6060ed87985ae0e0f21a3440,I am not familiar with Spanish,East coast,13 or older,no,2021-03-28_16h57.23.262,empathy_intonation_perc,2020.2.10,Win32,60,0,0,1.756045,0,4,4,3,1,./stim/wavs/mexican_question_filler_Felipe-no-tiene-contrasena.wav,1,,,,,,,,,,,,,,,,,,,,,,,,,,,,,,,,,,,,,,,,,,,,,,,,,,,,,,,,,,,,,,,,,,,,,,,,,,
,,,,,,,5efb5360f3f69c084c1ca850,605b45a4d25f287719a41696,6060ed87985ae0e0f21a3440,I am not familiar with Spanish,East coast,13 or older,no,2021-03-28_16h57.23.262,empathy_intonation_perc,2020.2.10,Win32,60,0,0,1.770735,0,5,5,1,1,./stim/wavs/argentine_question_filler_Mi-vecino-habla-mucho.wav,1,,,,,,,,,,,,,,,,,,,,,,,,,,,,,,,,,,,,,,,,,,,,,,,,,,,,,,,,,,,,,,,,,,,,,,,,,,
,,,,,,,5efb5360f3f69c084c1ca850,605b45a4d25f287719a41696,6060ed87985ae0e0f21a3440,I am not familiar with Spanish,East coast,13 or older,no,2021-03-28_16h57.23.262,empathy_intonation_perc,2020.2.10,Win32,60,0,1,1.6815,0,6,6,7,1,./stim/wavs/puertorican_statement_filler_La-nina-pinta-con-su-amiga.wav,0,,,,,,,,,,,,,,,,,,,,,,,,,,,,,,,,,,,,,,,,,,,,,,,,,,,,,,,,,,,,,,,,,,,,,,,,,,
,,,,,,,5efb5360f3f69c084c1ca850,605b45a4d25f287719a41696,6060ed87985ae0e0f21a3440,I am not familiar with Spanish,East coast,13 or older,no,2021-03-28_16h57.23.262,empathy_intonation_perc,2020.2.10,Win32,60,0,1,2.004935,0,7,7,5,1,./stim/wavs/andalusian_statement_filler_Alberto-nunca-se-afeita.wav,0,,,,,,,,,,,,,,,,,,,,,,,,,,,,,,,,,,,,,,,,,,,,,,,,,,,,,,,,,,,,,,,,,,,,,,,,,,
,,,,,,,5efb5360f3f69c084c1ca850,605b45a4d25f287719a41696,6060ed87985ae0e0f21a3440,I am not familiar with Spanish,East coast,13 or older,no,2021-03-28_16h57.23.262,empathy_intonation_perc,2020.2.10,Win32,60,,,,,,,,,,1,argentine,0,0,1.548715,0,0,0,57,1,58,./stim/wavs/andalusian_mismatch_interrogative-total-yn_El-hombre-mira-la-luna.wav,./stim/wavs/argentine_mismatch_interrogative-total-yn_El-hombre-mira-la-luna.wav,./stim/wavs/castilian_mismatch_interrogative-total-yn_El-hombre-mira-la-luna.wav,./stim/wavs/chilean_mismatch_interrogative-total-yn_El-hombre-mira-la-luna.wav,./stim/wavs/cuban_mismatch_interrogative-total-yn_El-hombre-mira-la-luna.wav,./stim/wavs/mexican_mismatch_interrogative-total-yn_El-hombre-mira-la-luna.wav,./stim/wavs/peruvian_mismatch_interrogative-total-yn_El-hombre-mira-la-luna.wav,./stim/wavs/puertorican_mismatch_interrogative-total-yn_El-hombre-mira-la-luna.wav,,,,,,,,,,,,,,,,,,,,,,,,,,,,,,,,,,,,,,,,,,,,,,,,,,,,,,,,
,,,,,,,5efb5360f3f69c084c1ca850,605b45a4d25f287719a41696,6060ed87985ae0e0f21a3440,I am not familiar with Spanish,East coast,13 or older,no,2021-03-28_16h57.23.262,empathy_intonation_perc,2020.2.10,Win32,60,,,,,,,,,,0,castilian,0,1,1.785945,0,1,1,32,1,33,./stim/wavs/andalusian_mismatch_declarative-broad-focus_El-bebe-comia-muy-bien.wav,./stim/wavs/argentine_mismatch_declarative-broad-focus_El-bebe-comia-muy-bien.wav,./stim/wavs/castilian_mismatch_declarative-broad-focus_El-bebe-comia-muy-bien.wav,./stim/wavs/chilean_mismatch_declarative-broad-focus_El-bebe-comia-muy-bien.wav,./stim/wavs/cuban_mismatch_declarative-broad-focus_El-bebe-comia-muy-bien.wav,./stim/wavs/mexican_mismatch_declarative-broad-focus_El-bebe-comia-muy-bien.wav,./stim/wavs/peruvian_mismatch_declarative-broad-focus_El-bebe-comia-muy-bien.wav,./stim/wavs/puertorican_mismatch_declarative-broad-focus_El-bebe-comia-muy-bien.wav,,,,,,,,,,,,,,,,,,,,,,,,,,,,,,,,,,,,,,,,,,,,,,,,,,,,,,,,
,,,,,,,5efb5360f3f69c084c1ca850,605b45a4d25f287719a41696,6060ed87985ae0e0f21a3440,I am not familiar with Spanish,East coast,13 or older,no,2021-03-28_16h57.23.262,empathy_intonation_perc,2020.2.10,Win32,60,,,,,,,,,,0,chilean,0,1,1.73886,0,2,2,46,1,47,./stim/wavs/andalusian_mismatch_declarative-narrow-focus_Mi-novio-viene-del-lago.wav,./stim/wavs/argentine_mismatch_declarative-narrow-focus_Mi-novio-viene-del-lago.wav,./stim/wavs/castilian_mismatch_declarative-narrow-focus_Mi-novio-viene-del-lago.wav,./stim/wavs/chilean_mismatch_declarative-narrow-focus_Mi-novio-viene-del-lago.wav,./stim/wavs/cuban_mismatch_declarative-narrow-focus_Mi-novio-viene-del-lago.wav,./stim/wavs/mexican_mismatch_declarative-narrow-focus_Mi-novio-viene-del-lago.wav,./stim/wavs/peruvian_mismatch_declarative-narrow-focus_Mi-novio-viene-del-lago.wav,./stim/wavs/puertorican_mismatch_declarative-narrow-focus_Mi-novio-viene-del-lago.wav,,,,,,,,,,,,,,,,,,,,,,,,,,,,,,,,,,,,,,,,,,,,,,,,,,,,,,,,
,,,,,,,5efb5360f3f69c084c1ca850,605b45a4d25f287719a41696,6060ed87985ae0e0f21a3440,I am not familiar with Spanish,East coast,13 or older,no,2021-03-28_16h57.23.262,empathy_intonation_perc,2020.2.10,Win32,60,,,,,,,,,,1,peruvian,0,0,1.826025,0,3,3,16,1,17,./stim/wavs/andalusian_match_interrogative-partial-wh_Cuando-bebia-el-vino.wav,./stim/wavs/argentine_match_interrogative-partial-wh_Cuando-bebia-el-vino.wav,./stim/wavs/castilian_match_interrogative-partial-wh_Cuando-bebia-el-vino.wav,./stim/wavs/chilean_match_interrogative-partial-wh_Cuando-bebia-el-vino.wav,./stim/wavs/cuban_match_interrogative-partial-wh_Cuando-bebia-el-vino.wav,./stim/wavs/mexican_match_interrogative-partial-wh_Cuando-bebia-el-vino.wav,./stim/wavs/peruvian_match_interrogative-partial-wh_Cuando-bebia-el-vino.wav,./stim/wavs/puertorican_match_interrogative-partial-wh_Cuando-bebia-el-vino.wav,,,,,,,,,,,,,,,,,,,,,,,,,,,,,,,,,,,,,,,,,,,,,,,,,,,,,,,,
,,,,,,,5efb5360f3f69c084c1ca850,605b45a4d25f287719a41696,6060ed87985ae0e0f21a3440,I am not familiar with Spanish,East coast,13 or older,no,2021-03-28_16h57.23.262,empathy_intonation_perc,2020.2.10,Win32,60,,,,,,,,,,0,cuban,0,1,1.64154,0,4,4,7,1,8,./stim/wavs/andalusian_match_declarative-broad-focus_Marta-abre-el-regalo.wav,./stim/wavs/argentine_match_declarative-broad-focus_Marta-abre-el-regalo.wav,./stim/wavs/castilian_match_declarative-broad-focus_Marta-abre-el-regalo.wav,./stim/wavs/chilean_match_declarative-broad-focus_Marta-abre-el-regalo.wav,./stim/wavs/cuban_match_declarative-broad-focus_Marta-abre-el-regalo.wav,./stim/wavs/mexican_match_declarative-broad-focus_Marta-abre-el-regalo.wav,./stim/wavs/peruvian_match_declarative-broad-focus_Marta-abre-el-regalo.wav,./stim/wavs/puertorican_match_declarative-broad-focus_Marta-abre-el-regalo.wav,,,,,,,,,,,,,,,,,,,,,,,,,,,,,,,,,,,,,,,,,,,,,,,,,,,,,,,,
,,,,,,,5efb5360f3f69c084c1ca850,605b45a4d25f287719a41696,6060ed87985ae0e0f21a3440,I am not familiar with Spanish,East coast,13 or older,no,2021-03-28_16h57.23.262,empathy_intonation_perc,2020.2.10,Win32,60,,,,,,,,,,0,peruvian,0,1,2.09869,0,5,5,43,1,44,./stim/wavs/andalusian_mismatch_declarative-narrow-focus_La-maestra-vive-en-Paris.wav,./stim/wavs/argentine_mismatch_declarative-narrow-focus_La-maestra-vive-en-Paris.wav,./stim/wavs/castilian_mismatch_declarative-narrow-focus_La-maestra-vive-en-Paris.wav,./stim/wavs/chilean_mismatch_declarative-narrow-focus_La-maestra-vive-en-Paris.wav,./stim/wavs/cuban_mismatch_declarative-narrow-focus_La-maestra-vive-en-Paris.wav,./stim/wavs/mexican_mismatch_declarative-narrow-focus_La-maestra-vive-en-Paris.wav,./stim/wavs/peruvian_mismatch_declarative-narrow-focus_La-maestra-vive-en-Paris.wav,./stim/wavs/puertorican_mismatch_declarative-narrow-focus_La-maestra-vive-en-Paris.wav,,,,,,,,,,,,,,,,,,,,,,,,,,,,,,,,,,,,,,,,,,,,,,,,,,,,,,,,
,,,,,,,5efb5360f3f69c084c1ca850,605b45a4d25f287719a41696,6060ed87985ae0e0f21a3440,I am not familiar with Spanish,East coast,13 or older,no,2021-03-28_16h57.23.262,empathy_intonation_perc,2020.2.10,Win32,60,,,,,,,,,,1,chilean,0,0,2.093965,0,6,6,31,1,32,./stim/wavs/andalusian_match_interrogative-total-yn_Marta-abre-el-regalo.wav,./stim/wavs/argentine_match_interrogative-total-yn_Marta-abre-el-regalo.wav,./stim/wavs/castilian_match_interrogative-total-yn_Marta-abre-el-regalo.wav,./stim/wavs/chilean_match_interrogative-total-yn_Marta-abre-el-regalo.wav,./stim/wavs/cuban_match_interrogative-total-yn_Marta-abre-el-regalo.wav,./stim/wavs/mexican_match_interrogative-total-yn_Marta-abre-el-regalo.wav,./stim/wavs/peruvian_match_interrogative-total-yn_Marta-abre-el-regalo.wav,./stim/wavs/puertorican_match_interrogative-total-yn_Marta-abre-el-regalo.wav,,,,,,,,,,,,,,,,,,,,,,,,,,,,,,,,,,,,,,,,,,,,,,,,,,,,,,,,
,,,,,,,5efb5360f3f69c084c1ca850,605b45a4d25f287719a41696,6060ed87985ae0e0f21a3440,I am not familiar with Spanish,East coast,13 or older,no,2021-03-28_16h57.23.262,empathy_intonation_perc,2020.2.10,Win32,60,,,,,,,,,,1,andalusian,1,1,1.76531,0,7,7,27,1,28,./stim/wavs/andalusian_match_interrogative-total-yn_Emilio-ama-la-marcha.wav,./stim/wavs/argentine_match_interrogative-total-yn_Emilio-ama-la-marcha.wav,./stim/wavs/castilian_match_interrogative-total-yn_Emilio-ama-la-marcha.wav,./stim/wavs/chilean_match_interrogative-total-yn_Emilio-ama-la-marcha.wav,./stim/wavs/cuban_match_interrogative-total-yn_Emilio-ama-la-marcha.wav,./stim/wavs/mexican_match_interrogative-total-yn_Emilio-ama-la-marcha.wav,./stim/wavs/peruvian_match_interrogative-total-yn_Emilio-ama-la-marcha.wav,./stim/wavs/puertorican_match_interrogative-total-yn_Emilio-ama-la-marcha.wav,,,,,,,,,,,,,,,,,,,,,,,,,,,,,,,,,,,,,,,,,,,,,,,,,,,,,,,,
,,,,,,,5efb5360f3f69c084c1ca850,605b45a4d25f287719a41696,6060ed87985ae0e0f21a3440,I am not familiar with Spanish,East coast,13 or older,no,2021-03-28_16h57.23.262,empathy_intonation_perc,2020.2.10,Win32,60,,,,,,,,,,1,puertorican,0,0,1.63764,0,8,8,56,1,57,./stim/wavs/andalusian_mismatch_interrogative-total-yn_El-bebe-comia-muy-bien.wav,./stim/wavs/argentine_mismatch_interrogative-total-yn_El-bebe-comia-muy-bien.wav,./stim/wavs/castilian_mismatch_interrogative-total-yn_El-bebe-comia-muy-bien.wav,./stim/wavs/chilean_mismatch_interrogative-total-yn_El-bebe-comia-muy-bien.wav,./stim/wavs/cuban_mismatch_interrogative-total-yn_El-bebe-comia-muy-bien.wav,./stim/wavs/mexican_mismatch_interrogative-total-yn_El-bebe-comia-muy-bien.wav,./stim/wavs/peruvian_mismatch_interrogative-total-yn_El-bebe-comia-muy-bien.wav,./stim/wavs/puertorican_mismatch_interrogative-total-yn_El-bebe-comia-muy-bien.wav,,,,,,,,,,,,,,,,,,,,,,,,,,,,,,,,,,,,,,,,,,,,,,,,,,,,,,,,
,,,,,,,5efb5360f3f69c084c1ca850,605b45a4d25f287719a41696,6060ed87985ae0e0f21a3440,I am not familiar with Spanish,East coast,13 or older,no,2021-03-28_16h57.23.262,empathy_intonation_perc,2020.2.10,Win32,60,,,,,,,,,,0,puertorican,0,1,1.333655,0,9,9,5,1,6,./stim/wavs/andalusian_match_declarative-broad-focus_Maria-bebe-el-vino.wav,./stim/wavs/argentine_match_declarative-broad-focus_Maria-bebe-el-vino.wav,./stim/wavs/castilian_match_declarative-broad-focus_Maria-bebe-el-vino.wav,./stim/wavs/chilean_match_declarative-broad-focus_Maria-bebe-el-vino.wav,./stim/wavs/cuban_match_declarative-broad-focus_Maria-bebe-el-vino.wav,./stim/wavs/mexican_match_declarative-broad-focus_Maria-bebe-el-vino.wav,./stim/wavs/peruvian_match_declarative-broad-focus_Maria-bebe-el-vino.wav,./stim/wavs/puertorican_match_declarative-broad-focus_Maria-bebe-el-vino.wav,,,,,,,,,,,,,,,,,,,,,,,,,,,,,,,,,,,,,,,,,,,,,,,,,,,,,,,,
,,,,,,,5efb5360f3f69c084c1ca850,605b45a4d25f287719a41696,6060ed87985ae0e0f21a3440,I am not familiar with Spanish,East coast,13 or older,no,2021-03-28_16h57.23.262,empathy_intonation_perc,2020.2.10,Win32,60,,,,,,,,,,1,mexican,1,1,1.900625,0,10,10,20,1,21,./stim/wavs/andalusian_match_interrogative-partial-wh_Por-que-abre-el-regalo.wav,./stim/wavs/argentine_match_interrogative-partial-wh_Por-que-abre-el-regalo.wav,./stim/wavs/castilian_match_interrogative-partial-wh_Por-que-abre-el-regalo.wav,./stim/wavs/chilean_match_interrogative-partial-wh_Por-que-abre-el-regalo.wav,./stim/wavs/cuban_match_interrogative-partial-wh_Por-que-abre-el-regalo.wav,./stim/wavs/mexican_match_interrogative-partial-wh_Por-que-abre-el-regalo.wav,./stim/wavs/peruvian_match_interrogative-partial-wh_Por-que-abre-el-regalo.wav,./stim/wavs/puertorican_match_interrogative-partial-wh_Por-que-abre-el-regalo.wav,,,,,,,,,,,,,,,,,,,,,,,,,,,,,,,,,,,,,,,,,,,,,,,,,,,,,,,,
,,,,,,,5efb5360f3f69c084c1ca850,605b45a4d25f287719a41696,6060ed87985ae0e0f21a3440,I am not familiar with Spanish,East coast,13 or older,no,2021-03-28_16h57.23.262,empathy_intonation_perc,2020.2.10,Win32,60,,,,,,,,,,0,andalusian,0,1,2.42112,0,11,11,15,1,16,./stim/wavs/andalusian_match_declarative-narrow-focus_Marta-abre-el-regalo.wav,./stim/wavs/argentine_match_declarative-narrow-focus_Marta-abre-el-regalo.wav,./stim/wavs/castilian_match_declarative-narrow-focus_Marta-abre-el-regalo.wav,./stim/wavs/chilean_match_declarative-narrow-focus_Marta-abre-el-regalo.wav,./stim/wavs/cuban_match_declarative-narrow-focus_Marta-abre-el-regalo.wav,./stim/wavs/mexican_match_declarative-narrow-focus_Marta-abre-el-regalo.wav,./stim/wavs/peruvian_match_declarative-narrow-focus_Marta-abre-el-regalo.wav,./stim/wavs/puertorican_match_declarative-narrow-focus_Marta-abre-el-regalo.wav,,,,,,,,,,,,,,,,,,,,,,,,,,,,,,,,,,,,,,,,,,,,,,,,,,,,,,,,
,,,,,,,5efb5360f3f69c084c1ca850,605b45a4d25f287719a41696,6060ed87985ae0e0f21a3440,I am not familiar with Spanish,East coast,13 or older,no,2021-03-28_16h57.23.262,empathy_intonation_perc,2020.2.10,Win32,60,,,,,,,,,,0,castilian,0,1,2.31542,0,12,12,37,1,38,./stim/wavs/andalusian_mismatch_declarative-broad-focus_Mi-madre-come-la-fruta.wav,./stim/wavs/argentine_mismatch_declarative-broad-focus_Mi-madre-come-la-fruta.wav,./stim/wavs/castilian_mismatch_declarative-broad-focus_Mi-madre-come-la-fruta.wav,./stim/wavs/chilean_mismatch_declarative-broad-focus_Mi-madre-come-la-fruta.wav,./stim/wavs/cuban_mismatch_declarative-broad-focus_Mi-madre-come-la-fruta.wav,./stim/wavs/mexican_mismatch_declarative-broad-focus_Mi-madre-come-la-fruta.wav,./stim/wavs/peruvian_mismatch_declarative-broad-focus_Mi-madre-come-la-fruta.wav,./stim/wavs/puertorican_mismatch_declarative-broad-focus_Mi-madre-come-la-fruta.wav,,,,,,,,,,,,,,,,,,,,,,,,,,,,,,,,,,,,,,,,,,,,,,,,,,,,,,,,
,,,,,,,5efb5360f3f69c084c1ca850,605b45a4d25f287719a41696,6060ed87985ae0e0f21a3440,I am not familiar with Spanish,East coast,13 or older,no,2021-03-28_16h57.23.262,empathy_intonation_perc,2020.2.10,Win32,60,,,,,,,,,,1,mexican,0,0,1.5218,0,13,13,49,1,50,./stim/wavs/andalusian_mismatch_interrogative-partial-wh_Cuando-lavaba-el-plato.wav,./stim/wavs/argentine_mismatch_interrogative-partial-wh_Cuando-lavaba-el-plato.wav,./stim/wavs/castilian_mismatch_interrogative-partial-wh_Cuando-lavaba-el-plato.wav,./stim/wavs/chilean_mismatch_interrogative-partial-wh_Cuando-lavaba-el-plato.wav,./stim/wavs/cuban_mismatch_interrogative-partial-wh_Cuando-lavaba-el-plato.wav,./stim/wavs/mexican_mismatch_interrogative-partial-wh_Cuando-lavaba-el-plato.wav,./stim/wavs/peruvian_mismatch_interrogative-partial-wh_Cuando-lavaba-el-plato.wav,./stim/wavs/puertorican_mismatch_interrogative-partial-wh_Cuando-lavaba-el-plato.wav,,,,,,,,,,,,,,,,,,,,,,,,,,,,,,,,,,,,,,,,,,,,,,,,,,,,,,,,
,,,,,,,5efb5360f3f69c084c1ca850,605b45a4d25f287719a41696,6060ed87985ae0e0f21a3440,I am not familiar with Spanish,East coast,13 or older,no,2021-03-28_16h57.23.262,empathy_intonation_perc,2020.2.10,Win32,60,,,,,,,,,,1,puertorican,0,0,1.501235,0,14,14,58,1,59,./stim/wavs/andalusian_mismatch_interrogative-total-yn_El-nino-oye-el-rio.wav,./stim/wavs/argentine_mismatch_interrogative-total-yn_El-nino-oye-el-rio.wav,./stim/wavs/castilian_mismatch_interrogative-total-yn_El-nino-oye-el-rio.wav,./stim/wavs/chilean_mismatch_interrogative-total-yn_El-nino-oye-el-rio.wav,./stim/wavs/cuban_mismatch_interrogative-total-yn_El-nino-oye-el-rio.wav,./stim/wavs/mexican_mismatch_interrogative-total-yn_El-nino-oye-el-rio.wav,./stim/wavs/peruvian_mismatch_interrogative-total-yn_El-nino-oye-el-rio.wav,./stim/wavs/puertorican_mismatch_interrogative-total-yn_El-nino-oye-el-rio.wav,,,,,,,,,,,,,,,,,,,,,,,,,,,,,,,,,,,,,,,,,,,,,,,,,,,,,,,,
,,,,,,,5efb5360f3f69c084c1ca850,605b45a4d25f287719a41696,6060ed87985ae0e0f21a3440,I am not familiar with Spanish,East coast,13 or older,no,2021-03-28_16h57.23.262,empathy_intonation_perc,2020.2.10,Win32,60,,,,,,,,,,0,argentine,0,1,1.84936,0,15,15,12,1,13,./stim/wavs/andalusian_match_declarative-narrow-focus_Manuela-vende-el-carro.wav,./stim/wavs/argentine_match_declarative-narrow-focus_Manuela-vende-el-carro.wav,./stim/wavs/castilian_match_declarative-narrow-focus_Manuela-vende-el-carro.wav,./stim/wavs/chilean_match_declarative-narrow-focus_Manuela-vende-el-carro.wav,./stim/wavs/cuban_match_declarative-narrow-focus_Manuela-vende-el-carro.wav,./stim/wavs/mexican_match_declarative-narrow-focus_Manuela-vende-el-carro.wav,./stim/wavs/peruvian_match_declarative-narrow-focus_Manuela-vende-el-carro.wav,./stim/wavs/puertorican_match_declarative-narrow-focus_Manuela-vende-el-carro.wav,,,,,,,,,,,,,,,,,,,,,,,,,,,,,,,,,,,,,,,,,,,,,,,,,,,,,,,,
,,,,,,,5efb5360f3f69c084c1ca850,605b45a4d25f287719a41696,6060ed87985ae0e0f21a3440,I am not familiar with Spanish,East coast,13 or older,no,2021-03-28_16h57.23.262,empathy_intonation_perc,2020.2.10,Win32,60,,,,,,,,,,0,castilian,0,1,2.017965,0,16,16,1,1,2,./stim/wavs/andalusian_match_declarative-broad-focus_Daniel-iba-a-Bolivia.wav,./stim/wavs/argentine_match_declarative-broad-focus_Daniel-iba-a-Bolivia.wav,./stim/wavs/castilian_match_declarative-broad-focus_Daniel-iba-a-Bolivia.wav,./stim/wavs/chilean_match_declarative-broad-focus_Daniel-iba-a-Bolivia.wav,./stim/wavs/cuban_match_declarative-broad-focus_Daniel-iba-a-Bolivia.wav,./stim/wavs/mexican_match_declarative-broad-focus_Daniel-iba-a-Bolivia.wav,./stim/wavs/peruvian_match_declarative-broad-focus_Daniel-iba-a-Bolivia.wav,./stim/wavs/puertorican_match_declarative-broad-focus_Daniel-iba-a-Bolivia.wav,,,,,,,,,,,,,,,,,,,,,,,,,,,,,,,,,,,,,,,,,,,,,,,,,,,,,,,,
,,,,,,,5efb5360f3f69c084c1ca850,605b45a4d25f287719a41696,6060ed87985ae0e0f21a3440,I am not familiar with Spanish,East coast,13 or older,no,2021-03-28_16h57.23.262,empathy_intonation_perc,2020.2.10,Win32,60,,,,,,,,,,1,peruvian,0,0,1.62707,0,17,17,25,1,26,./stim/wavs/andalusian_match_interrogative-total-yn_Daniel-iba-a-Bolivia.wav,./stim/wavs/argentine_match_interrogative-total-yn_Daniel-iba-a-Bolivia.wav,./stim/wavs/castilian_match_interrogative-total-yn_Daniel-iba-a-Bolivia.wav,./stim/wavs/chilean_match_interrogative-total-yn_Daniel-iba-a-Bolivia.wav,./stim/wavs/cuban_match_interrogative-total-yn_Daniel-iba-a-Bolivia.wav,./stim/wavs/mexican_match_interrogative-total-yn_Daniel-iba-a-Bolivia.wav,./stim/wavs/peruvian_match_interrogative-total-yn_Daniel-iba-a-Bolivia.wav,./stim/wavs/puertorican_match_interrogative-total-yn_Daniel-iba-a-Bolivia.wav,,,,,,,,,,,,,,,,,,,,,,,,,,,,,,,,,,,,,,,,,,,,,,,,,,,,,,,,
,,,,,,,5efb5360f3f69c084c1ca850,605b45a4d25f287719a41696,6060ed87985ae0e0f21a3440,I am not familiar with Spanish,East coast,13 or older,no,2021-03-28_16h57.23.262,empathy_intonation_perc,2020.2.10,Win32,60,,,,,,,,,,0,chilean,0,1,2.339225,0,18,18,6,1,7,./stim/wavs/andalusian_match_declarative-broad-focus_Mariano-habla-del-tiempo.wav,./stim/wavs/argentine_match_declarative-broad-focus_Mariano-habla-del-tiempo.wav,./stim/wavs/castilian_match_declarative-broad-focus_Mariano-habla-del-tiempo.wav,./stim/wavs/chilean_match_declarative-broad-focus_Mariano-habla-del-tiempo.wav,./stim/wavs/cuban_match_declarative-broad-focus_Mariano-habla-del-tiempo.wav,./stim/wavs/mexican_match_declarative-broad-focus_Mariano-habla-del-tiempo.wav,./stim/wavs/peruvian_match_declarative-broad-focus_Mariano-habla-del-tiempo.wav,./stim/wavs/puertorican_match_declarative-broad-focus_Mariano-habla-del-tiempo.wav,,,,,,,,,,,,,,,,,,,,,,,,,,,,,,,,,,,,,,,,,,,,,,,,,,,,,,,,
,,,,,,,5efb5360f3f69c084c1ca850,605b45a4d25f287719a41696,6060ed87985ae0e0f21a3440,I am not familiar with Spanish,East coast,13 or older,no,2021-03-28_16h57.23.262,empathy_intonation_perc,2020.2.10,Win32,60,,,,,,,,,,0,peruvian,0,1,1.67232,0,19,19,9,1,10,./stim/wavs/andalusian_match_declarative-narrow-focus_Daniel-iba-a-Bolivia.wav,./stim/wavs/argentine_match_declarative-narrow-focus_Daniel-iba-a-Bolivia.wav,./stim/wavs/castilian_match_declarative-narrow-focus_Daniel-iba-a-Bolivia.wav,./stim/wavs/chilean_match_declarative-narrow-focus_Daniel-iba-a-Bolivia.wav,./stim/wavs/cuban_match_declarative-narrow-focus_Daniel-iba-a-Bolivia.wav,./stim/wavs/mexican_match_declarative-narrow-focus_Daniel-iba-a-Bolivia.wav,./stim/wavs/peruvian_match_declarative-narrow-focus_Daniel-iba-a-Bolivia.wav,./stim/wavs/puertorican_match_declarative-narrow-focus_Daniel-iba-a-Bolivia.wav,,,,,,,,,,,,,,,,,,,,,,,,,,,,,,,,,,,,,,,,,,,,,,,,,,,,,,,,
,,,,,,,5efb5360f3f69c084c1ca850,605b45a4d25f287719a41696,6060ed87985ae0e0f21a3440,I am not familiar with Spanish,East coast,13 or older,no,2021-03-28_16h57.23.262,empathy_intonation_perc,2020.2.10,Win32,60,,,,,,,,,,1,puertorican,1,1,1.35279,0,20,20,50,1,51,./stim/wavs/andalusian_mismatch_interrogative-partial-wh_Cuando-miraba-la-luna.wav,./stim/wavs/argentine_mismatch_interrogative-partial-wh_Cuando-miraba-la-luna.wav,./stim/wavs/castilian_mismatch_interrogative-partial-wh_Cuando-miraba-la-luna.wav,./stim/wavs/chilean_mismatch_interrogative-partial-wh_Cuando-miraba-la-luna.wav,./stim/wavs/cuban_mismatch_interrogative-partial-wh_Cuando-miraba-la-luna.wav,./stim/wavs/mexican_mismatch_interrogative-partial-wh_Cuando-miraba-la-luna.wav,./stim/wavs/peruvian_mismatch_interrogative-partial-wh_Cuando-miraba-la-luna.wav,./stim/wavs/puertorican_mismatch_interrogative-partial-wh_Cuando-miraba-la-luna.wav,,,,,,,,,,,,,,,,,,,,,,,,,,,,,,,,,,,,,,,,,,,,,,,,,,,,,,,,
,,,,,,,5efb5360f3f69c084c1ca850,605b45a4d25f287719a41696,6060ed87985ae0e0f21a3440,I am not familiar with Spanish,East coast,13 or older,no,2021-03-28_16h57.23.262,empathy_intonation_perc,2020.2.10,Win32,60,,,,,,,,,,0,puertorican,0,1,1.62321,0,21,21,14,1,15,./stim/wavs/andalusian_match_declarative-narrow-focus_Mariano-habla-del-tiempo.wav,./stim/wavs/argentine_match_declarative-narrow-focus_Mariano-habla-del-tiempo.wav,./stim/wavs/castilian_match_declarative-narrow-focus_Mariano-habla-del-tiempo.wav,./stim/wavs/chilean_match_declarative-narrow-focus_Mariano-habla-del-tiempo.wav,./stim/wavs/cuban_match_declarative-narrow-focus_Mariano-habla-del-tiempo.wav,./stim/wavs/mexican_match_declarative-narrow-focus_Mariano-habla-del-tiempo.wav,./stim/wavs/peruvian_match_declarative-narrow-focus_Mariano-habla-del-tiempo.wav,./stim/wavs/puertorican_match_declarative-narrow-focus_Mariano-habla-del-tiempo.wav,,,,,,,,,,,,,,,,,,,,,,,,,,,,,,,,,,,,,,,,,,,,,,,,,,,,,,,,
,,,,,,,5efb5360f3f69c084c1ca850,605b45a4d25f287719a41696,6060ed87985ae0e0f21a3440,I am not familiar with Spanish,East coast,13 or older,no,2021-03-28_16h57.23.262,empathy_intonation_perc,2020.2.10,Win32,60,,,,,,,,,,0,cuban,0,1,1.79488,0,22,22,10,1,11,./stim/wavs/andalusian_match_declarative-narrow-focus_David-leia-el-libro.wav,./stim/wavs/argentine_match_declarative-narrow-focus_David-leia-el-libro.wav,./stim/wavs/castilian_match_declarative-narrow-focus_David-leia-el-libro.wav,./stim/wavs/chilean_match_declarative-narrow-focus_David-leia-el-libro.wav,./stim/wavs/cuban_match_declarative-narrow-focus_David-leia-el-libro.wav,./stim/wavs/mexican_match_declarative-narrow-focus_David-leia-el-libro.wav,./stim/wavs/peruvian_match_declarative-narrow-focus_David-leia-el-libro.wav,./stim/wavs/puertorican_match_declarative-narrow-focus_David-leia-el-libro.wav,,,,,,,,,,,,,,,,,,,,,,,,,,,,,,,,,,,,,,,,,,,,,,,,,,,,,,,,
,,,,,,,5efb5360f3f69c084c1ca850,605b45a4d25f287719a41696,6060ed87985ae0e0f21a3440,I am not familiar with Spanish,East coast,13 or older,no,2021-03-28_16h57.23.262,empathy_intonation_perc,2020.2.10,Win32,60,,,,,,,,,,1,cuban,1,1,1.217395,0,23,23,53,1,54,./stim/wavs/andalusian_mismatch_interrogative-partial-wh_Por-que-oia-el-rio.wav,./stim/wavs/argentine_mismatch_interrogative-partial-wh_Por-que-oia-el-rio.wav,./stim/wavs/castilian_mismatch_interrogative-partial-wh_Por-que-oia-el-rio.wav,./stim/wavs/chilean_mismatch_interrogative-partial-wh_Por-que-oia-el-rio.wav,./stim/wavs/cuban_mismatch_interrogative-partial-wh_Por-que-oia-el-rio.wav,./stim/wavs/mexican_mismatch_interrogative-partial-wh_Por-que-oia-el-rio.wav,./stim/wavs/peruvian_mismatch_interrogative-partial-wh_Por-que-oia-el-rio.wav,./stim/wavs/puertorican_mismatch_interrogative-partial-wh_Por-que-oia-el-rio.wav,,,,,,,,,,,,,,,,,,,,,,,,,,,,,,,,,,,,,,,,,,,,,,,,,,,,,,,,
,,,,,,,5efb5360f3f69c084c1ca850,605b45a4d25f287719a41696,6060ed87985ae0e0f21a3440,I am not familiar with Spanish,East coast,13 or older,no,2021-03-28_16h57.23.262,empathy_intonation_perc,2020.2.10,Win32,60,,,,,,,,,,1,chilean,0,0,2.34569,0,24,24,29,1,30,./stim/wavs/andalusian_match_interrogative-total-yn_Maria-bebe-el-vino.wav,./stim/wavs/argentine_match_interrogative-total-yn_Maria-bebe-el-vino.wav,./stim/wavs/castilian_match_interrogative-total-yn_Maria-bebe-el-vino.wav,./stim/wavs/chilean_match_interrogative-total-yn_Maria-bebe-el-vino.wav,./stim/wavs/cuban_match_interrogative-total-yn_Maria-bebe-el-vino.wav,./stim/wavs/mexican_match_interrogative-total-yn_Maria-bebe-el-vino.wav,./stim/wavs/peruvian_match_interrogative-total-yn_Maria-bebe-el-vino.wav,./stim/wavs/puertorican_match_interrogative-total-yn_Maria-bebe-el-vino.wav,,,,,,,,,,,,,,,,,,,,,,,,,,,,,,,,,,,,,,,,,,,,,,,,,,,,,,,,
,,,,,,,5efb5360f3f69c084c1ca850,605b45a4d25f287719a41696,6060ed87985ae0e0f21a3440,I am not familiar with Spanish,East coast,13 or older,no,2021-03-28_16h57.23.262,empathy_intonation_perc,2020.2.10,Win32,60,,,,,,,,,,0,andalusian,0,1,1.81753,0,25,25,0,1,1,./stim/wavs/andalusian_match_declarative-broad-focus_Ana-lleva-el-abrigo.wav,./stim/wavs/argentine_match_declarative-broad-focus_Ana-lleva-el-abrigo.wav,./stim/wavs/castilian_match_declarative-broad-focus_Ana-lleva-el-abrigo.wav,./stim/wavs/chilean_match_declarative-broad-focus_Ana-lleva-el-abrigo.wav,./stim/wavs/cuban_match_declarative-broad-focus_Ana-lleva-el-abrigo.wav,./stim/wavs/mexican_match_declarative-broad-focus_Ana-lleva-el-abrigo.wav,./stim/wavs/peruvian_match_declarative-broad-focus_Ana-lleva-el-abrigo.wav,./stim/wavs/puertorican_match_declarative-broad-focus_Ana-lleva-el-abrigo.wav,,,,,,,,,,,,,,,,,,,,,,,,,,,,,,,,,,,,,,,,,,,,,,,,,,,,,,,,
,,,,,,,5efb5360f3f69c084c1ca850,605b45a4d25f287719a41696,6060ed87985ae0e0f21a3440,I am not familiar with Spanish,East coast,13 or older,no,2021-03-28_16h57.23.262,empathy_intonation_perc,2020.2.10,Win32,60,,,,,,,,,,0,puertorican,0,1,1.650445,0,26,26,2,1,3,./stim/wavs/andalusian_match_declarative-broad-focus_David-leia-el-libro.wav,./stim/wavs/argentine_match_declarative-broad-focus_David-leia-el-libro.wav,./stim/wavs/castilian_match_declarative-broad-focus_David-leia-el-libro.wav,./stim/wavs/chilean_match_declarative-broad-focus_David-leia-el-libro.wav,./stim/wavs/cuban_match_declarative-broad-focus_David-leia-el-libro.wav,./stim/wavs/mexican_match_declarative-broad-focus_David-leia-el-libro.wav,./stim/wavs/peruvian_match_declarative-broad-focus_David-leia-el-libro.wav,./stim/wavs/puertorican_match_declarative-broad-focus_David-leia-el-libro.wav,,,,,,,,,,,,,,,,,,,,,,,,,,,,,,,,,,,,,,,,,,,,,,,,,,,,,,,,
,,,,,,,5efb5360f3f69c084c1ca850,605b45a4d25f287719a41696,6060ed87985ae0e0f21a3440,I am not familiar with Spanish,East coast,13 or older,no,2021-03-28_16h57.23.262,empathy_intonation_perc,2020.2.10,Win32,60,,,,,,,,,,0,andalusian,0,1,1.926935,0,27,27,40,1,41,./stim/wavs/andalusian_mismatch_declarative-narrow-focus_El-bebe-comia-muy-bien.wav,./stim/wavs/argentine_mismatch_declarative-narrow-focus_El-bebe-comia-muy-bien.wav,./stim/wavs/castilian_mismatch_declarative-narrow-focus_El-bebe-comia-muy-bien.wav,./stim/wavs/chilean_mismatch_declarative-narrow-focus_El-bebe-comia-muy-bien.wav,./stim/wavs/cuban_mismatch_declarative-narrow-focus_El-bebe-comia-muy-bien.wav,./stim/wavs/mexican_mismatch_declarative-narrow-focus_El-bebe-comia-muy-bien.wav,./stim/wavs/peruvian_mismatch_declarative-narrow-focus_El-bebe-comia-muy-bien.wav,./stim/wavs/puertorican_mismatch_declarative-narrow-focus_El-bebe-comia-muy-bien.wav,,,,,,,,,,,,,,,,,,,,,,,,,,,,,,,,,,,,,,,,,,,,,,,,,,,,,,,,
,,,,,,,5efb5360f3f69c084c1ca850,605b45a4d25f287719a41696,6060ed87985ae0e0f21a3440,I am not familiar with Spanish,East coast,13 or older,no,2021-03-28_16h57.23.262,empathy_intonation_perc,2020.2.10,Win32,60,,,,,,,,,,0,andalusian,1,0,1.92614,0,28,28,34,1,35,./stim/wavs/andalusian_mismatch_declarative-broad-focus_El-nino-oye-el-rio.wav,./stim/wavs/argentine_mismatch_declarative-broad-focus_El-nino-oye-el-rio.wav,./stim/wavs/castilian_mismatch_declarative-broad-focus_El-nino-oye-el-rio.wav,./stim/wavs/chilean_mismatch_declarative-broad-focus_El-nino-oye-el-rio.wav,./stim/wavs/cuban_mismatch_declarative-broad-focus_El-nino-oye-el-rio.wav,./stim/wavs/mexican_mismatch_declarative-broad-focus_El-nino-oye-el-rio.wav,./stim/wavs/peruvian_mismatch_declarative-broad-focus_El-nino-oye-el-rio.wav,./stim/wavs/puertorican_mismatch_declarative-broad-focus_El-nino-oye-el-rio.wav,,,,,,,,,,,,,,,,,,,,,,,,,,,,,,,,,,,,,,,,,,,,,,,,,,,,,,,,
,,,,,,,5efb5360f3f69c084c1ca850,605b45a4d25f287719a41696,6060ed87985ae0e0f21a3440,I am not familiar with Spanish,East coast,13 or older,no,2021-03-28_16h57.23.262,empathy_intonation_perc,2020.2.10,Win32,60,,,,,,,,,,0,argentine,0,1,1.383905,0,29,29,13,1,14,./stim/wavs/andalusian_match_declarative-narrow-focus_Maria-bebe-el-vino.wav,./stim/wavs/argentine_match_declarative-narrow-focus_Maria-bebe-el-vino.wav,./stim/wavs/castilian_match_declarative-narrow-focus_Maria-bebe-el-vino.wav,./stim/wavs/chilean_match_declarative-narrow-focus_Maria-bebe-el-vino.wav,./stim/wavs/cuban_match_declarative-narrow-focus_Maria-bebe-el-vino.wav,./stim/wavs/mexican_match_declarative-narrow-focus_Maria-bebe-el-vino.wav,./stim/wavs/peruvian_match_declarative-narrow-focus_Maria-bebe-el-vino.wav,./stim/wavs/puertorican_match_declarative-narrow-focus_Maria-bebe-el-vino.wav,,,,,,,,,,,,,,,,,,,,,,,,,,,,,,,,,,,,,,,,,,,,,,,,,,,,,,,,
,,,,,,,5efb5360f3f69c084c1ca850,605b45a4d25f287719a41696,6060ed87985ae0e0f21a3440,I am not familiar with Spanish,East coast,13 or older,no,2021-03-28_16h57.23.262,empathy_intonation_perc,2020.2.10,Win32,60,,,,,,,,,,0,chilean,1,0,2.166495,0,30,30,33,1,34,./stim/wavs/andalusian_mismatch_declarative-broad-focus_El-hombre-mira-la-luna.wav,./stim/wavs/argentine_mismatch_declarative-broad-focus_El-hombre-mira-la-luna.wav,./stim/wavs/castilian_mismatch_declarative-broad-focus_El-hombre-mira-la-luna.wav,./stim/wavs/chilean_mismatch_declarative-broad-focus_El-hombre-mira-la-luna.wav,./stim/wavs/cuban_mismatch_declarative-broad-focus_El-hombre-mira-la-luna.wav,./stim/wavs/mexican_mismatch_declarative-broad-focus_El-hombre-mira-la-luna.wav,./stim/wavs/peruvian_mismatch_declarative-broad-focus_El-hombre-mira-la-luna.wav,./stim/wavs/puertorican_mismatch_declarative-broad-focus_El-hombre-mira-la-luna.wav,,,,,,,,,,,,,,,,,,,,,,,,,,,,,,,,,,,,,,,,,,,,,,,,,,,,,,,,
,,,,,,,5efb5360f3f69c084c1ca850,605b45a4d25f287719a41696,6060ed87985ae0e0f21a3440,I am not familiar with Spanish,East coast,13 or older,no,2021-03-28_16h57.23.262,empathy_intonation_perc,2020.2.10,Win32,60,,,,,,,,,,0,cuban,0,1,2.32567,0,31,31,47,1,48,./stim/wavs/andalusian_mismatch_declarative-narrow-focus_Mi-tia-odia-la-lluvia.wav,./stim/wavs/argentine_mismatch_declarative-narrow-focus_Mi-tia-odia-la-lluvia.wav,./stim/wavs/castilian_mismatch_declarative-narrow-focus_Mi-tia-odia-la-lluvia.wav,./stim/wavs/chilean_mismatch_declarative-narrow-focus_Mi-tia-odia-la-lluvia.wav,./stim/wavs/cuban_mismatch_declarative-narrow-focus_Mi-tia-odia-la-lluvia.wav,./stim/wavs/mexican_mismatch_declarative-narrow-focus_Mi-tia-odia-la-lluvia.wav,./stim/wavs/peruvian_mismatch_declarative-narrow-focus_Mi-tia-odia-la-lluvia.wav,./stim/wavs/puertorican_mismatch_declarative-narrow-focus_Mi-tia-odia-la-lluvia.wav,,,,,,,,,,,,,,,,,,,,,,,,,,,,,,,,,,,,,,,,,,,,,,,,,,,,,,,,
,,,,,,,5efb5360f3f69c084c1ca850,605b45a4d25f287719a41696,6060ed87985ae0e0f21a3440,I am not familiar with Spanish,East coast,13 or older,no,2021-03-28_16h57.23.262,empathy_intonation_perc,2020.2.10,Win32,60,,,,,,,,,,1,andalusian,1,1,1.76829,0,32,32,62,1,63,./stim/wavs/andalusian_mismatch_interrogative-total-yn_Mi-novio-viene-del-lago.wav,./stim/wavs/argentine_mismatch_interrogative-total-yn_Mi-novio-viene-del-lago.wav,./stim/wavs/castilian_mismatch_interrogative-total-yn_Mi-novio-viene-del-lago.wav,./stim/wavs/chilean_mismatch_interrogative-total-yn_Mi-novio-viene-del-lago.wav,./stim/wavs/cuban_mismatch_interrogative-total-yn_Mi-novio-viene-del-lago.wav,./stim/wavs/mexican_mismatch_interrogative-total-yn_Mi-novio-viene-del-lago.wav,./stim/wavs/peruvian_mismatch_interrogative-total-yn_Mi-novio-viene-del-lago.wav,./stim/wavs/puertorican_mismatch_interrogative-total-yn_Mi-novio-viene-del-lago.wav,,,,,,,,,,,,,,,,,,,,,,,,,,,,,,,,,,,,,,,,,,,,,,,,,,,,,,,,
,,,,,,,5efb5360f3f69c084c1ca850,605b45a4d25f287719a41696,6060ed87985ae0e0f21a3440,I am not familiar with Spanish,East coast,13 or older,no,2021-03-28_16h57.23.262,empathy_intonation_perc,2020.2.10,Win32,60,,,,,,,,,,0,andalusian,1,0,1.900995,0,33,33,38,1,39,./stim/wavs/andalusian_mismatch_declarative-broad-focus_Mi-novio-viene-del-lago.wav,./stim/wavs/argentine_mismatch_declarative-broad-focus_Mi-novio-viene-del-lago.wav,./stim/wavs/castilian_mismatch_declarative-broad-focus_Mi-novio-viene-del-lago.wav,./stim/wavs/chilean_mismatch_declarative-broad-focus_Mi-novio-viene-del-lago.wav,./stim/wavs/cuban_mismatch_declarative-broad-focus_Mi-novio-viene-del-lago.wav,./stim/wavs/mexican_mismatch_declarative-broad-focus_Mi-novio-viene-del-lago.wav,./stim/wavs/peruvian_mismatch_declarative-broad-focus_Mi-novio-viene-del-lago.wav,./stim/wavs/puertorican_mismatch_declarative-broad-focus_Mi-novio-viene-del-lago.wav,,,,,,,,,,,,,,,,,,,,,,,,,,,,,,,,,,,,,,,,,,,,,,,,,,,,,,,,
,,,,,,,5efb5360f3f69c084c1ca850,605b45a4d25f287719a41696,6060ed87985ae0e0f21a3440,I am not familiar with Spanish,East coast,13 or older,no,2021-03-28_16h57.23.262,empathy_intonation_perc,2020.2.10,Win32,60,,,,,,,,,,0,puertorican,0,1,1.428665,0,34,34,11,1,12,./stim/wavs/andalusian_match_declarative-narrow-focus_Emilio-ama-la-marcha.wav,./stim/wavs/argentine_match_declarative-narrow-focus_Emilio-ama-la-marcha.wav,./stim/wavs/castilian_match_declarative-narrow-focus_Emilio-ama-la-marcha.wav,./stim/wavs/chilean_match_declarative-narrow-focus_Emilio-ama-la-marcha.wav,./stim/wavs/cuban_match_declarative-narrow-focus_Emilio-ama-la-marcha.wav,./stim/wavs/mexican_match_declarative-narrow-focus_Emilio-ama-la-marcha.wav,./stim/wavs/peruvian_match_declarative-narrow-focus_Emilio-ama-la-marcha.wav,./stim/wavs/puertorican_match_declarative-narrow-focus_Emilio-ama-la-marcha.wav,,,,,,,,,,,,,,,,,,,,,,,,,,,,,,,,,,,,,,,,,,,,,,,,,,,,,,,,
,,,,,,,5efb5360f3f69c084c1ca850,605b45a4d25f287719a41696,6060ed87985ae0e0f21a3440,I am not familiar with Spanish,East coast,13 or older,no,2021-03-28_16h57.23.262,empathy_intonation_perc,2020.2.10,Win32,60,,,,,,,,,,1,cuban,1,1,2.40008,0,35,35,30,1,31,./stim/wavs/andalusian_match_interrogative-total-yn_Mariano-habla-del-tiempo.wav,./stim/wavs/argentine_match_interrogative-total-yn_Mariano-habla-del-tiempo.wav,./stim/wavs/castilian_match_interrogative-total-yn_Mariano-habla-del-tiempo.wav,./stim/wavs/chilean_match_interrogative-total-yn_Mariano-habla-del-tiempo.wav,./stim/wavs/cuban_match_interrogative-total-yn_Mariano-habla-del-tiempo.wav,./stim/wavs/mexican_match_interrogative-total-yn_Mariano-habla-del-tiempo.wav,./stim/wavs/peruvian_match_interrogative-total-yn_Mariano-habla-del-tiempo.wav,./stim/wavs/puertorican_match_interrogative-total-yn_Mariano-habla-del-tiempo.wav,,,,,,,,,,,,,,,,,,,,,,,,,,,,,,,,,,,,,,,,,,,,,,,,,,,,,,,,
,,,,,,,5efb5360f3f69c084c1ca850,605b45a4d25f287719a41696,6060ed87985ae0e0f21a3440,I am not familiar with Spanish,East coast,13 or older,no,2021-03-28_16h57.23.262,empathy_intonation_perc,2020.2.10,Win32,60,,,,,,,,,,1,puertorican,1,1,1.0265,0,36,36,48,1,49,./stim/wavs/andalusian_mismatch_interrogative-partial-wh_Cuando-comia-la-fruta.wav,./stim/wavs/argentine_mismatch_interrogative-partial-wh_Cuando-comia-la-fruta.wav,./stim/wavs/castilian_mismatch_interrogative-partial-wh_Cuando-comia-la-fruta.wav,./stim/wavs/chilean_mismatch_interrogative-partial-wh_Cuando-comia-la-fruta.wav,./stim/wavs/cuban_mismatch_interrogative-partial-wh_Cuando-comia-la-fruta.wav,./stim/wavs/mexican_mismatch_interrogative-partial-wh_Cuando-comia-la-fruta.wav,./stim/wavs/peruvian_mismatch_interrogative-partial-wh_Cuando-comia-la-fruta.wav,./stim/wavs/puertorican_mismatch_interrogative-partial-wh_Cuando-comia-la-fruta.wav,,,,,,,,,,,,,,,,,,,,,,,,,,,,,,,,,,,,,,,,,,,,,,,,,,,,,,,,
,,,,,,,5efb5360f3f69c084c1ca850,605b45a4d25f287719a41696,6060ed87985ae0e0f21a3440,I am not familiar with Spanish,East coast,13 or older,no,2021-03-28_16h57.23.262,empathy_intonation_perc,2020.2.10,Win32,60,,,,,,,,,,1,castilian,1,1,2.12441,0,37,37,63,1,64,./stim/wavs/andalusian_mismatch_interrogative-total-yn_Mi-tia-odia-la-lluvia.wav,./stim/wavs/argentine_mismatch_interrogative-total-yn_Mi-tia-odia-la-lluvia.wav,./stim/wavs/castilian_mismatch_interrogative-total-yn_Mi-tia-odia-la-lluvia.wav,./stim/wavs/chilean_mismatch_interrogative-total-yn_Mi-tia-odia-la-lluvia.wav,./stim/wavs/cuban_mismatch_interrogative-total-yn_Mi-tia-odia-la-lluvia.wav,./stim/wavs/mexican_mismatch_interrogative-total-yn_Mi-tia-odia-la-lluvia.wav,./stim/wavs/peruvian_mismatch_interrogative-total-yn_Mi-tia-odia-la-lluvia.wav,./stim/wavs/puertorican_mismatch_interrogative-total-yn_Mi-tia-odia-la-lluvia.wav,,,,,,,,,,,,,,,,,,,,,,,,,,,,,,,,,,,,,,,,,,,,,,,,,,,,,,,,
,,,,,,,5efb5360f3f69c084c1ca850,605b45a4d25f287719a41696,6060ed87985ae0e0f21a3440,I am not familiar with Spanish,East coast,13 or older,no,2021-03-28_16h57.23.262,empathy_intonation_perc,2020.2.10,Win32,60,,,,,,,,,,1,puertorican,1,1,1.28451,0,38,38,18,1,19,./stim/wavs/andalusian_match_interrogative-partial-wh_Cuando-lleva-el-abrigo.wav,./stim/wavs/argentine_match_interrogative-partial-wh_Cuando-lleva-el-abrigo.wav,./stim/wavs/castilian_match_interrogative-partial-wh_Cuando-lleva-el-abrigo.wav,./stim/wavs/chilean_match_interrogative-partial-wh_Cuando-lleva-el-abrigo.wav,./stim/wavs/cuban_match_interrogative-partial-wh_Cuando-lleva-el-abrigo.wav,./stim/wavs/mexican_match_interrogative-partial-wh_Cuando-lleva-el-abrigo.wav,./stim/wavs/peruvian_match_interrogative-partial-wh_Cuando-lleva-el-abrigo.wav,./stim/wavs/puertorican_match_interrogative-partial-wh_Cuando-lleva-el-abrigo.wav,,,,,,,,,,,,,,,,,,,,,,,,,,,,,,,,,,,,,,,,,,,,,,,,,,,,,,,,
,,,,,,,5efb5360f3f69c084c1ca850,605b45a4d25f287719a41696,6060ed87985ae0e0f21a3440,I am not familiar with Spanish,East coast,13 or older,no,2021-03-28_16h57.23.262,empathy_intonation_perc,2020.2.10,Win32,60,,,,,,,,,,1,puertorican,1,1,1.441755,0,39,39,51,1,52,./stim/wavs/andalusian_mismatch_interrogative-partial-wh_Por-que-desayuna-muy-bien.wav,./stim/wavs/argentine_mismatch_interrogative-partial-wh_Por-que-desayuna-muy-bien.wav,./stim/wavs/castilian_mismatch_interrogative-partial-wh_Por-que-desayuna-muy-bien.wav,./stim/wavs/chilean_mismatch_interrogative-partial-wh_Por-que-desayuna-muy-bien.wav,./stim/wavs/cuban_mismatch_interrogative-partial-wh_Por-que-desayuna-muy-bien.wav,./stim/wavs/mexican_mismatch_interrogative-partial-wh_Por-que-desayuna-muy-bien.wav,./stim/wavs/peruvian_mismatch_interrogative-partial-wh_Por-que-desayuna-muy-bien.wav,./stim/wavs/puertorican_mismatch_interrogative-partial-wh_Por-que-desayuna-muy-bien.wav,,,,,,,,,,,,,,,,,,,,,,,,,,,,,,,,,,,,,,,,,,,,,,,,,,,,,,,,
,,,,,,,5efb5360f3f69c084c1ca850,605b45a4d25f287719a41696,6060ed87985ae0e0f21a3440,I am not familiar with Spanish,East coast,13 or older,no,2021-03-28_16h57.23.262,empathy_intonation_perc,2020.2.10,Win32,60,,,,,,,,,,0,andalusian,0,1,1.798225,0,40,40,42,1,43,./stim/wavs/andalusian_mismatch_declarative-narrow-focus_El-nino-oye-el-rio.wav,./stim/wavs/argentine_mismatch_declarative-narrow-focus_El-nino-oye-el-rio.wav,./stim/wavs/castilian_mismatch_declarative-narrow-focus_El-nino-oye-el-rio.wav,./stim/wavs/chilean_mismatch_declarative-narrow-focus_El-nino-oye-el-rio.wav,./stim/wavs/cuban_mismatch_declarative-narrow-focus_El-nino-oye-el-rio.wav,./stim/wavs/mexican_mismatch_declarative-narrow-focus_El-nino-oye-el-rio.wav,./stim/wavs/peruvian_mismatch_declarative-narrow-focus_El-nino-oye-el-rio.wav,./stim/wavs/puertorican_mismatch_declarative-narrow-focus_El-nino-oye-el-rio.wav,,,,,,,,,,,,,,,,,,,,,,,,,,,,,,,,,,,,,,,,,,,,,,,,,,,,,,,,
,,,,,,,5efb5360f3f69c084c1ca850,605b45a4d25f287719a41696,6060ed87985ae0e0f21a3440,I am not familiar with Spanish,East coast,13 or older,no,2021-03-28_16h57.23.262,empathy_intonation_perc,2020.2.10,Win32,60,,,,,,,,,,0,mexican,0,1,1.485775,0,41,41,45,1,46,./stim/wavs/andalusian_mismatch_declarative-narrow-focus_Mi-madre-come-la-fruta.wav,./stim/wavs/argentine_mismatch_declarative-narrow-focus_Mi-madre-come-la-fruta.wav,./stim/wavs/castilian_mismatch_declarative-narrow-focus_Mi-madre-come-la-fruta.wav,./stim/wavs/chilean_mismatch_declarative-narrow-focus_Mi-madre-come-la-fruta.wav,./stim/wavs/cuban_mismatch_declarative-narrow-focus_Mi-madre-come-la-fruta.wav,./stim/wavs/mexican_mismatch_declarative-narrow-focus_Mi-madre-come-la-fruta.wav,./stim/wavs/peruvian_mismatch_declarative-narrow-focus_Mi-madre-come-la-fruta.wav,./stim/wavs/puertorican_mismatch_declarative-narrow-focus_Mi-madre-come-la-fruta.wav,,,,,,,,,,,,,,,,,,,,,,,,,,,,,,,,,,,,,,,,,,,,,,,,,,,,,,,,
,,,,,,,5efb5360f3f69c084c1ca850,605b45a4d25f287719a41696,6060ed87985ae0e0f21a3440,I am not familiar with Spanish,East coast,13 or older,no,2021-03-28_16h57.23.262,empathy_intonation_perc,2020.2.10,Win32,60,,,,,,,,,,1,argentine,1,1,1.49198,0,42,42,52,1,53,./stim/wavs/andalusian_mismatch_interrogative-partial-wh_Por-que-odiaba-la-lluvia.wav,./stim/wavs/argentine_mismatch_interrogative-partial-wh_Por-que-odiaba-la-lluvia.wav,./stim/wavs/castilian_mismatch_interrogative-partial-wh_Por-que-odiaba-la-lluvia.wav,./stim/wavs/chilean_mismatch_interrogative-partial-wh_Por-que-odiaba-la-lluvia.wav,./stim/wavs/cuban_mismatch_interrogative-partial-wh_Por-que-odiaba-la-lluvia.wav,./stim/wavs/mexican_mismatch_interrogative-partial-wh_Por-que-odiaba-la-lluvia.wav,./stim/wavs/peruvian_mismatch_interrogative-partial-wh_Por-que-odiaba-la-lluvia.wav,./stim/wavs/puertorican_mismatch_interrogative-partial-wh_Por-que-odiaba-la-lluvia.wav,,,,,,,,,,,,,,,,,,,,,,,,,,,,,,,,,,,,,,,,,,,,,,,,,,,,,,,,
,,,,,,,5efb5360f3f69c084c1ca850,605b45a4d25f287719a41696,6060ed87985ae0e0f21a3440,I am not familiar with Spanish,East coast,13 or older,no,2021-03-28_16h57.23.262,empathy_intonation_perc,2020.2.10,Win32,60,,,,,,,,,,0,puertorican,1,0,2.25928,0,43,43,41,1,42,./stim/wavs/andalusian_mismatch_declarative-narrow-focus_El-hombre-mira-la-luna.wav,./stim/wavs/argentine_mismatch_declarative-narrow-focus_El-hombre-mira-la-luna.wav,./stim/wavs/castilian_mismatch_declarative-narrow-focus_El-hombre-mira-la-luna.wav,./stim/wavs/chilean_mismatch_declarative-narrow-focus_El-hombre-mira-la-luna.wav,./stim/wavs/cuban_mismatch_declarative-narrow-focus_El-hombre-mira-la-luna.wav,./stim/wavs/mexican_mismatch_declarative-narrow-focus_El-hombre-mira-la-luna.wav,./stim/wavs/peruvian_mismatch_declarative-narrow-focus_El-hombre-mira-la-luna.wav,./stim/wavs/puertorican_mismatch_declarative-narrow-focus_El-hombre-mira-la-luna.wav,,,,,,,,,,,,,,,,,,,,,,,,,,,,,,,,,,,,,,,,,,,,,,,,,,,,,,,,
,,,,,,,5efb5360f3f69c084c1ca850,605b45a4d25f287719a41696,6060ed87985ae0e0f21a3440,I am not familiar with Spanish,East coast,13 or older,no,2021-03-28_16h57.23.262,empathy_intonation_perc,2020.2.10,Win32,60,,,,,,,,,,1,cuban,1,1,1.05126,0,44,44,55,1,56,./stim/wavs/andalusian_mismatch_interrogative-partial-wh_Por-que-vivia-en-Paris.wav,./stim/wavs/argentine_mismatch_interrogative-partial-wh_Por-que-vivia-en-Paris.wav,./stim/wavs/castilian_mismatch_interrogative-partial-wh_Por-que-vivia-en-Paris.wav,./stim/wavs/chilean_mismatch_interrogative-partial-wh_Por-que-vivia-en-Paris.wav,./stim/wavs/cuban_mismatch_interrogative-partial-wh_Por-que-vivia-en-Paris.wav,./stim/wavs/mexican_mismatch_interrogative-partial-wh_Por-que-vivia-en-Paris.wav,./stim/wavs/peruvian_mismatch_interrogative-partial-wh_Por-que-vivia-en-Paris.wav,./stim/wavs/puertorican_mismatch_interrogative-partial-wh_Por-que-vivia-en-Paris.wav,,,,,,,,,,,,,,,,,,,,,,,,,,,,,,,,,,,,,,,,,,,,,,,,,,,,,,,,
,,,,,,,5efb5360f3f69c084c1ca850,605b45a4d25f287719a41696,6060ed87985ae0e0f21a3440,I am not familiar with Spanish,East coast,13 or older,no,2021-03-28_16h57.23.262,empathy_intonation_perc,2020.2.10,Win32,60,,,,,,,,,,1,andalusian,0,0,1.566795,0,45,45,24,1,25,./stim/wavs/andalusian_match_interrogative-total-yn_Ana-lleva-el-abrigo.wav,./stim/wavs/argentine_match_interrogative-total-yn_Ana-lleva-el-abrigo.wav,./stim/wavs/castilian_match_interrogative-total-yn_Ana-lleva-el-abrigo.wav,./stim/wavs/chilean_match_interrogative-total-yn_Ana-lleva-el-abrigo.wav,./stim/wavs/cuban_match_interrogative-total-yn_Ana-lleva-el-abrigo.wav,./stim/wavs/mexican_match_interrogative-total-yn_Ana-lleva-el-abrigo.wav,./stim/wavs/peruvian_match_interrogative-total-yn_Ana-lleva-el-abrigo.wav,./stim/wavs/puertorican_match_interrogative-total-yn_Ana-lleva-el-abrigo.wav,,,,,,,,,,,,,,,,,,,,,,,,,,,,,,,,,,,,,,,,,,,,,,,,,,,,,,,,
,,,,,,,5efb5360f3f69c084c1ca850,605b45a4d25f287719a41696,6060ed87985ae0e0f21a3440,I am not familiar with Spanish,East coast,13 or older,no,2021-03-28_16h57.23.262,empathy_intonation_perc,2020.2.10,Win32,60,,,,,,,,,,0,andalusian,0,1,1.862045,0,46,46,4,1,5,./stim/wavs/andalusian_match_declarative-broad-focus_Manuela-vende-el-carro.wav,./stim/wavs/argentine_match_declarative-broad-focus_Manuela-vende-el-carro.wav,./stim/wavs/castilian_match_declarative-broad-focus_Manuela-vende-el-carro.wav,./stim/wavs/chilean_match_declarative-broad-focus_Manuela-vende-el-carro.wav,./stim/wavs/cuban_match_declarative-broad-focus_Manuela-vende-el-carro.wav,./stim/wavs/mexican_match_declarative-broad-focus_Manuela-vende-el-carro.wav,./stim/wavs/peruvian_match_declarative-broad-focus_Manuela-vende-el-carro.wav,./stim/wavs/puertorican_match_declarative-broad-focus_Manuela-vende-el-carro.wav,,,,,,,,,,,,,,,,,,,,,,,,,,,,,,,,,,,,,,,,,,,,,,,,,,,,,,,,
,,,,,,,5efb5360f3f69c084c1ca850,605b45a4d25f287719a41696,6060ed87985ae0e0f21a3440,I am not familiar with Spanish,East coast,13 or older,no,2021-03-28_16h57.23.262,empathy_intonation_perc,2020.2.10,Win32,60,,,,,,,,,,0,mexican,0,1,1.63249,0,47,47,39,1,40,./stim/wavs/andalusian_mismatch_declarative-broad-focus_Mi-tia-odia-la-lluvia.wav,./stim/wavs/argentine_mismatch_declarative-broad-focus_Mi-tia-odia-la-lluvia.wav,./stim/wavs/castilian_mismatch_declarative-broad-focus_Mi-tia-odia-la-lluvia.wav,./stim/wavs/chilean_mismatch_declarative-broad-focus_Mi-tia-odia-la-lluvia.wav,./stim/wavs/cuban_mismatch_declarative-broad-focus_Mi-tia-odia-la-lluvia.wav,./stim/wavs/mexican_mismatch_declarative-broad-focus_Mi-tia-odia-la-lluvia.wav,./stim/wavs/peruvian_mismatch_declarative-broad-focus_Mi-tia-odia-la-lluvia.wav,./stim/wavs/puertorican_mismatch_declarative-broad-focus_Mi-tia-odia-la-lluvia.wav,,,,,,,,,,,,,,,,,,,,,,,,,,,,,,,,,,,,,,,,,,,,,,,,,,,,,,,,
,,,,,,,5efb5360f3f69c084c1ca850,605b45a4d25f287719a41696,6060ed87985ae0e0f21a3440,I am not familiar with Spanish,East coast,13 or older,no,2021-03-28_16h57.23.262,empathy_intonation_perc,2020.2.10,Win32,60,,,,,,,,,,1,chilean,1,1,1.15034,0,48,48,23,1,24,./stim/wavs/andalusian_match_interrogative-partial-wh_Por-que-iba-a-Bolivia.wav,./stim/wavs/argentine_match_interrogative-partial-wh_Por-que-iba-a-Bolivia.wav,./stim/wavs/castilian_match_interrogative-partial-wh_Por-que-iba-a-Bolivia.wav,./stim/wavs/chilean_match_interrogative-partial-wh_Por-que-iba-a-Bolivia.wav,./stim/wavs/cuban_match_interrogative-partial-wh_Por-que-iba-a-Bolivia.wav,./stim/wavs/mexican_match_interrogative-partial-wh_Por-que-iba-a-Bolivia.wav,./stim/wavs/peruvian_match_interrogative-partial-wh_Por-que-iba-a-Bolivia.wav,./stim/wavs/puertorican_match_interrogative-partial-wh_Por-que-iba-a-Bolivia.wav,,,,,,,,,,,,,,,,,,,,,,,,,,,,,,,,,,,,,,,,,,,,,,,,,,,,,,,,
,,,,,,,5efb5360f3f69c084c1ca850,605b45a4d25f287719a41696,6060ed87985ae0e0f21a3440,I am not familiar with Spanish,East coast,13 or older,no,2021-03-28_16h57.23.262,empathy_intonation_perc,2020.2.10,Win32,60,,,,,,,,,,0,castilian,0,1,2.342985,0,49,49,35,1,36,./stim/wavs/andalusian_mismatch_declarative-broad-focus_La-maestra-vive-en-Paris.wav,./stim/wavs/argentine_mismatch_declarative-broad-focus_La-maestra-vive-en-Paris.wav,./stim/wavs/castilian_mismatch_declarative-broad-focus_La-maestra-vive-en-Paris.wav,./stim/wavs/chilean_mismatch_declarative-broad-focus_La-maestra-vive-en-Paris.wav,./stim/wavs/cuban_mismatch_declarative-broad-focus_La-maestra-vive-en-Paris.wav,./stim/wavs/mexican_mismatch_declarative-broad-focus_La-maestra-vive-en-Paris.wav,./stim/wavs/peruvian_mismatch_declarative-broad-focus_La-maestra-vive-en-Paris.wav,./stim/wavs/puertorican_mismatch_declarative-broad-focus_La-maestra-vive-en-Paris.wav,,,,,,,,,,,,,,,,,,,,,,,,,,,,,,,,,,,,,,,,,,,,,,,,,,,,,,,,
,,,,,,,5efb5360f3f69c084c1ca850,605b45a4d25f287719a41696,6060ed87985ae0e0f21a3440,I am not familiar with Spanish,East coast,13 or older,no,2021-03-28_16h57.23.262,empathy_intonation_perc,2020.2.10,Win32,60,,,,,,,,,,1,cuban,0,0,1.266385,0,50,50,54,1,55,./stim/wavs/andalusian_mismatch_interrogative-partial-wh_Por-que-venia-del-lago.wav,./stim/wavs/argentine_mismatch_interrogative-partial-wh_Por-que-venia-del-lago.wav,./stim/wavs/castilian_mismatch_interrogative-partial-wh_Por-que-venia-del-lago.wav,./stim/wavs/chilean_mismatch_interrogative-partial-wh_Por-que-venia-del-lago.wav,./stim/wavs/cuban_mismatch_interrogative-partial-wh_Por-que-venia-del-lago.wav,./stim/wavs/mexican_mismatch_interrogative-partial-wh_Por-que-venia-del-lago.wav,./stim/wavs/peruvian_mismatch_interrogative-partial-wh_Por-que-venia-del-lago.wav,./stim/wavs/puertorican_mismatch_interrogative-partial-wh_Por-que-venia-del-lago.wav,,,,,,,,,,,,,,,,,,,,,,,,,,,,,,,,,,,,,,,,,,,,,,,,,,,,,,,,
,,,,,,,5efb5360f3f69c084c1ca850,605b45a4d25f287719a41696,6060ed87985ae0e0f21a3440,I am not familiar with Spanish,East coast,13 or older,no,2021-03-28_16h57.23.262,empathy_intonation_perc,2020.2.10,Win32,60,,,,,,,,,,0,chilean,0,1,1.49417,0,51,51,8,1,9,./stim/wavs/andalusian_match_declarative-narrow-focus_Ana-lleva-el-abrigo.wav,./stim/wavs/argentine_match_declarative-narrow-focus_Ana-lleva-el-abrigo.wav,./stim/wavs/castilian_match_declarative-narrow-focus_Ana-lleva-el-abrigo.wav,./stim/wavs/chilean_match_declarative-narrow-focus_Ana-lleva-el-abrigo.wav,./stim/wavs/cuban_match_declarative-narrow-focus_Ana-lleva-el-abrigo.wav,./stim/wavs/mexican_match_declarative-narrow-focus_Ana-lleva-el-abrigo.wav,./stim/wavs/peruvian_match_declarative-narrow-focus_Ana-lleva-el-abrigo.wav,./stim/wavs/puertorican_match_declarative-narrow-focus_Ana-lleva-el-abrigo.wav,,,,,,,,,,,,,,,,,,,,,,,,,,,,,,,,,,,,,,,,,,,,,,,,,,,,,,,,
,,,,,,,5efb5360f3f69c084c1ca850,605b45a4d25f287719a41696,6060ed87985ae0e0f21a3440,I am not familiar with Spanish,East coast,13 or older,no,2021-03-28_16h57.23.262,empathy_intonation_perc,2020.2.10,Win32,60,,,,,,,,,,1,argentine,0,0,1.69473,0,52,52,60,1,61,./stim/wavs/andalusian_mismatch_interrogative-total-yn_La-nina-lava-el-plato.wav,./stim/wavs/argentine_mismatch_interrogative-total-yn_La-nina-lava-el-plato.wav,./stim/wavs/castilian_mismatch_interrogative-total-yn_La-nina-lava-el-plato.wav,./stim/wavs/chilean_mismatch_interrogative-total-yn_La-nina-lava-el-plato.wav,./stim/wavs/cuban_mismatch_interrogative-total-yn_La-nina-lava-el-plato.wav,./stim/wavs/mexican_mismatch_interrogative-total-yn_La-nina-lava-el-plato.wav,./stim/wavs/peruvian_mismatch_interrogative-total-yn_La-nina-lava-el-plato.wav,./stim/wavs/puertorican_mismatch_interrogative-total-yn_La-nina-lava-el-plato.wav,,,,,,,,,,,,,,,,,,,,,,,,,,,,,,,,,,,,,,,,,,,,,,,,,,,,,,,,
,,,,,,,5efb5360f3f69c084c1ca850,605b45a4d25f287719a41696,6060ed87985ae0e0f21a3440,I am not familiar with Spanish,East coast,13 or older,no,2021-03-28_16h57.23.262,empathy_intonation_perc,2020.2.10,Win32,60,,,,,,,,,,1,chilean,0,0,1.6013,0,53,53,26,1,27,./stim/wavs/andalusian_match_interrogative-total-yn_David-leia-el-libro.wav,./stim/wavs/argentine_match_interrogative-total-yn_David-leia-el-libro.wav,./stim/wavs/castilian_match_interrogative-total-yn_David-leia-el-libro.wav,./stim/wavs/chilean_match_interrogative-total-yn_David-leia-el-libro.wav,./stim/wavs/cuban_match_interrogative-total-yn_David-leia-el-libro.wav,./stim/wavs/mexican_match_interrogative-total-yn_David-leia-el-libro.wav,./stim/wavs/peruvian_match_interrogative-total-yn_David-leia-el-libro.wav,./stim/wavs/puertorican_match_interrogative-total-yn_David-leia-el-libro.wav,,,,,,,,,,,,,,,,,,,,,,,,,,,,,,,,,,,,,,,,,,,,,,,,,,,,,,,,
,,,,,,,5efb5360f3f69c084c1ca850,605b45a4d25f287719a41696,6060ed87985ae0e0f21a3440,I am not familiar with Spanish,East coast,13 or older,no,2021-03-28_16h57.23.262,empathy_intonation_perc,2020.2.10,Win32,60,,,,,,,,,,0,puertorican,0,1,1.423385,0,54,54,36,1,37,./stim/wavs/andalusian_mismatch_declarative-broad-focus_La-nina-lava-el-plato.wav,./stim/wavs/argentine_mismatch_declarative-broad-focus_La-nina-lava-el-plato.wav,./stim/wavs/castilian_mismatch_declarative-broad-focus_La-nina-lava-el-plato.wav,./stim/wavs/chilean_mismatch_declarative-broad-focus_La-nina-lava-el-plato.wav,./stim/wavs/cuban_mismatch_declarative-broad-focus_La-nina-lava-el-plato.wav,./stim/wavs/mexican_mismatch_declarative-broad-focus_La-nina-lava-el-plato.wav,./stim/wavs/peruvian_mismatch_declarative-broad-focus_La-nina-lava-el-plato.wav,./stim/wavs/puertorican_mismatch_declarative-broad-focus_La-nina-lava-el-plato.wav,,,,,,,,,,,,,,,,,,,,,,,,,,,,,,,,,,,,,,,,,,,,,,,,,,,,,,,,
,,,,,,,5efb5360f3f69c084c1ca850,605b45a4d25f287719a41696,6060ed87985ae0e0f21a3440,I am not familiar with Spanish,East coast,13 or older,no,2021-03-28_16h57.23.262,empathy_intonation_perc,2020.2.10,Win32,60,,,,,,,,,,0,peruvian,0,1,2.05037,0,55,55,44,1,45,./stim/wavs/andalusian_mismatch_declarative-narrow-focus_La-nina-lava-el-plato.wav,./stim/wavs/argentine_mismatch_declarative-narrow-focus_La-nina-lava-el-plato.wav,./stim/wavs/castilian_mismatch_declarative-narrow-focus_La-nina-lava-el-plato.wav,./stim/wavs/chilean_mismatch_declarative-narrow-focus_La-nina-lava-el-plato.wav,./stim/wavs/cuban_mismatch_declarative-narrow-focus_La-nina-lava-el-plato.wav,./stim/wavs/mexican_mismatch_declarative-narrow-focus_La-nina-lava-el-plato.wav,./stim/wavs/peruvian_mismatch_declarative-narrow-focus_La-nina-lava-el-plato.wav,./stim/wavs/puertorican_mismatch_declarative-narrow-focus_La-nina-lava-el-plato.wav,,,,,,,,,,,,,,,,,,,,,,,,,,,,,,,,,,,,,,,,,,,,,,,,,,,,,,,,
,,,,,,,5efb5360f3f69c084c1ca850,605b45a4d25f287719a41696,6060ed87985ae0e0f21a3440,I am not familiar with Spanish,East coast,13 or older,no,2021-03-28_16h57.23.262,empathy_intonation_perc,2020.2.10,Win32,60,,,,,,,,,,1,peruvian,0,0,1.63253,0,56,56,61,1,62,./stim/wavs/andalusian_mismatch_interrogative-total-yn_Mi-madre-come-la-fruta.wav,./stim/wavs/argentine_mismatch_interrogative-total-yn_Mi-madre-come-la-fruta.wav,./stim/wavs/castilian_mismatch_interrogative-total-yn_Mi-madre-come-la-fruta.wav,./stim/wavs/chilean_mismatch_interrogative-total-yn_Mi-madre-come-la-fruta.wav,./stim/wavs/cuban_mismatch_interrogative-total-yn_Mi-madre-come-la-fruta.wav,./stim/wavs/mexican_mismatch_interrogative-total-yn_Mi-madre-come-la-fruta.wav,./stim/wavs/peruvian_mismatch_interrogative-total-yn_Mi-madre-come-la-fruta.wav,./stim/wavs/puertorican_mismatch_interrogative-total-yn_Mi-madre-come-la-fruta.wav,,,,,,,,,,,,,,,,,,,,,,,,,,,,,,,,,,,,,,,,,,,,,,,,,,,,,,,,
,,,,,,,5efb5360f3f69c084c1ca850,605b45a4d25f287719a41696,6060ed87985ae0e0f21a3440,I am not familiar with Spanish,East coast,13 or older,no,2021-03-28_16h57.23.262,empathy_intonation_perc,2020.2.10,Win32,60,,,,,,,,,,0,cuban,0,1,1.565655,0,57,57,3,1,4,./stim/wavs/andalusian_match_declarative-broad-focus_Emilio-ama-la-marcha.wav,./stim/wavs/argentine_match_declarative-broad-focus_Emilio-ama-la-marcha.wav,./stim/wavs/castilian_match_declarative-broad-focus_Emilio-ama-la-marcha.wav,./stim/wavs/chilean_match_declarative-broad-focus_Emilio-ama-la-marcha.wav,./stim/wavs/cuban_match_declarative-broad-focus_Emilio-ama-la-marcha.wav,./stim/wavs/mexican_match_declarative-broad-focus_Emilio-ama-la-marcha.wav,./stim/wavs/peruvian_match_declarative-broad-focus_Emilio-ama-la-marcha.wav,./stim/wavs/puertorican_match_declarative-broad-focus_Emilio-ama-la-marcha.wav,,,,,,,,,,,,,,,,,,,,,,,,,,,,,,,,,,,,,,,,,,,,,,,,,,,,,,,,
,,,,,,,5efb5360f3f69c084c1ca850,605b45a4d25f287719a41696,6060ed87985ae0e0f21a3440,I am not familiar with Spanish,East coast,13 or older,no,2021-03-28_16h57.23.262,empathy_intonation_perc,2020.2.10,Win32,60,,,,,,,,,,1,cuban,1,1,1.1583,0,58,58,19,1,20,./stim/wavs/andalusian_match_interrogative-partial-wh_Cuando-vendia-el-carro.wav,./stim/wavs/argentine_match_interrogative-partial-wh_Cuando-vendia-el-carro.wav,./stim/wavs/castilian_match_interrogative-partial-wh_Cuando-vendia-el-carro.wav,./stim/wavs/chilean_match_interrogative-partial-wh_Cuando-vendia-el-carro.wav,./stim/wavs/cuban_match_interrogative-partial-wh_Cuando-vendia-el-carro.wav,./stim/wavs/mexican_match_interrogative-partial-wh_Cuando-vendia-el-carro.wav,./stim/wavs/peruvian_match_interrogative-partial-wh_Cuando-vendia-el-carro.wav,./stim/wavs/puertorican_match_interrogative-partial-wh_Cuando-vendia-el-carro.wav,,,,,,,,,,,,,,,,,,,,,,,,,,,,,,,,,,,,,,,,,,,,,,,,,,,,,,,,
,,,,,,,5efb5360f3f69c084c1ca850,605b45a4d25f287719a41696,6060ed87985ae0e0f21a3440,I am not familiar with Spanish,East coast,13 or older,no,2021-03-28_16h57.23.262,empathy_intonation_perc,2020.2.10,Win32,60,,,,,,,,,,1,argentine,1,1,1.241215,0,59,59,17,1,18,./stim/wavs/andalusian_match_interrogative-partial-wh_Cuando-leia-el-libro.wav,./stim/wavs/argentine_match_interrogative-partial-wh_Cuando-leia-el-libro.wav,./stim/wavs/castilian_match_interrogative-partial-wh_Cuando-leia-el-libro.wav,./stim/wavs/chilean_match_interrogative-partial-wh_Cuando-leia-el-libro.wav,./stim/wavs/cuban_match_interrogative-partial-wh_Cuando-leia-el-libro.wav,./stim/wavs/mexican_match_interrogative-partial-wh_Cuando-leia-el-libro.wav,./stim/wavs/peruvian_match_interrogative-partial-wh_Cuando-leia-el-libro.wav,./stim/wavs/puertorican_match_interrogative-partial-wh_Cuando-leia-el-libro.wav,,,,,,,,,,,,,,,,,,,,,,,,,,,,,,,,,,,,,,,,,,,,,,,,,,,,,,,,
,,,,,,,5efb5360f3f69c084c1ca850,605b45a4d25f287719a41696,6060ed87985ae0e0f21a3440,I am not familiar with Spanish,East coast,13 or older,no,2021-03-28_16h57.23.262,empathy_intonation_perc,2020.2.10,Win32,60,,,,,,,,,,1,argentine,1,1,0.95069,0,60,60,22,1,23,./stim/wavs/andalusian_match_interrogative-partial-wh_Por-que-hablaba-del-agua.wav,./stim/wavs/argentine_match_interrogative-partial-wh_Por-que-hablaba-del-agua.wav,./stim/wavs/castilian_match_interrogative-partial-wh_Por-que-hablaba-del-agua.wav,./stim/wavs/chilean_match_interrogative-partial-wh_Por-que-hablaba-del-agua.wav,./stim/wavs/cuban_match_interrogative-partial-wh_Por-que-hablaba-del-agua.wav,./stim/wavs/mexican_match_interrogative-partial-wh_Por-que-hablaba-del-agua.wav,./stim/wavs/peruvian_match_interrogative-partial-wh_Por-que-hablaba-del-agua.wav,./stim/wavs/puertorican_match_interrogative-partial-wh_Por-que-hablaba-del-agua.wav,,,,,,,,,,,,,,,,,,,,,,,,,,,,,,,,,,,,,,,,,,,,,,,,,,,,,,,,
,,,,,,,5efb5360f3f69c084c1ca850,605b45a4d25f287719a41696,6060ed87985ae0e0f21a3440,I am not familiar with Spanish,East coast,13 or older,no,2021-03-28_16h57.23.262,empathy_intonation_perc,2020.2.10,Win32,60,,,,,,,,,,1,chilean,0,0,1.695365,0,61,61,59,1,60,./stim/wavs/andalusian_mismatch_interrogative-total-yn_La-maestra-vive-en-Paris.wav,./stim/wavs/argentine_mismatch_interrogative-total-yn_La-maestra-vive-en-Paris.wav,./stim/wavs/castilian_mismatch_interrogative-total-yn_La-maestra-vive-en-Paris.wav,./stim/wavs/chilean_mismatch_interrogative-total-yn_La-maestra-vive-en-Paris.wav,./stim/wavs/cuban_mismatch_interrogative-total-yn_La-maestra-vive-en-Paris.wav,./stim/wavs/mexican_mismatch_interrogative-total-yn_La-maestra-vive-en-Paris.wav,./stim/wavs/peruvian_mismatch_interrogative-total-yn_La-maestra-vive-en-Paris.wav,./stim/wavs/puertorican_mismatch_interrogative-total-yn_La-maestra-vive-en-Paris.wav,,,,,,,,,,,,,,,,,,,,,,,,,,,,,,,,,,,,,,,,,,,,,,,,,,,,,,,,
,,,,,,,5efb5360f3f69c084c1ca850,605b45a4d25f287719a41696,6060ed87985ae0e0f21a3440,I am not familiar with Spanish,East coast,13 or older,no,2021-03-28_16h57.23.262,empathy_intonation_perc,2020.2.10,Win32,60,,,,,,,,,,1,puertorican,1,1,0.96969,0,62,62,21,1,22,./stim/wavs/andalusian_match_interrogative-partial-wh_Por-que-ama-la-navidad.wav,./stim/wavs/argentine_match_interrogative-partial-wh_Por-que-ama-la-navidad.wav,./stim/wavs/castilian_match_interrogative-partial-wh_Por-que-ama-la-navidad.wav,./stim/wavs/chilean_match_interrogative-partial-wh_Por-que-ama-la-navidad.wav,./stim/wavs/cuban_match_interrogative-partial-wh_Por-que-ama-la-navidad.wav,./stim/wavs/mexican_match_interrogative-partial-wh_Por-que-ama-la-navidad.wav,./stim/wavs/peruvian_match_interrogative-partial-wh_Por-que-ama-la-navidad.wav,./stim/wavs/puertorican_match_interrogative-partial-wh_Por-que-ama-la-navidad.wav,,,,,,,,,,,,,,,,,,,,,,,,,,,,,,,,,,,,,,,,,,,,,,,,,,,,,,,,
,,,,,,,5efb5360f3f69c084c1ca850,605b45a4d25f287719a41696,6060ed87985ae0e0f21a3440,I am not familiar with Spanish,East coast,13 or older,no,2021-03-28_16h57.23.262,empathy_intonation_perc,2020.2.10,Win32,60,,,,,,,,,,1,mexican,0,0,1.46142,0,63,63,28,1,29,./stim/wavs/andalusian_match_interrogative-total-yn_Manuela-vende-el-carro.wav,./stim/wavs/argentine_match_interrogative-total-yn_Manuela-vende-el-carro.wav,./stim/wavs/castilian_match_interrogative-total-yn_Manuela-vende-el-carro.wav,./stim/wavs/chilean_match_interrogative-total-yn_Manuela-vende-el-carro.wav,./stim/wavs/cuban_match_interrogative-total-yn_Manuela-vende-el-carro.wav,./stim/wavs/mexican_match_interrogative-total-yn_Manuela-vende-el-carro.wav,./stim/wavs/peruvian_match_interrogative-total-yn_Manuela-vende-el-carro.wav,./stim/wavs/puertorican_match_interrogative-total-yn_Manuela-vende-el-carro.wav,,,,,,,,,,,,,,,,,,,,,,,,,,,,,,,,,,,,,,,,,,,,,,,,,,,,,,,,
,,,,,,,5efb5360f3f69c084c1ca850,605b45a4d25f287719a41696,6060ed87985ae0e0f21a3440,I am not familiar with Spanish,East coast,13 or older,no,2021-03-28_16h57.23.262,empathy_intonation_perc,2020.2.10,Win32,60,,,,,,,,,,,,,,,,,,,,,,,,,,,,,h,1,6.6108,0,0,0,0,1,,,,,,,,,,,,,,,,,,,,,,,,,,,,,,,,,,,,,,,,,,,,,,,,
,,,,,"Great! Now we will move on. The next task consists of about 60 trials, in each of which you will see a string of letters. 
  
  Your task is to decide whether this is a real Spanish word or not.",(press the spacebar to continue),5efb5360f3f69c084c1ca850,605b45a4d25f287719a41696,6060ed87985ae0e0f21a3440,I am not familiar with Spanish,East coast,13 or older,no,2021-03-28_16h57.23.262,empathy_intonation_perc,2020.2.10,Win32,60,,,,,,,,,,,,,,,,,,,,,,,,,,,,,,,,,,,,,0,0,0,0,1,,,,,,,,,,,,,,,,,,,,,,,,,,,,,,,,,,,,,,,,,,,
,,,,,"If you think it is an existing Spanish word, you type '1' (for 'REAL'), and if you think it is not an existing Spanish word, you type '0' (for 'FAKE').",(press the spacebar to continue),5efb5360f3f69c084c1ca850,605b45a4d25f287719a41696,6060ed87985ae0e0f21a3440,I am not familiar with Spanish,East coast,13 or older,no,2021-03-28_16h57.23.262,empathy_intonation_perc,2020.2.10,Win32,60,,,,,,,,,,,,,,,,,,,,,,,,,,,,,,,,,,,,,0,1,1,1,1,,,,,,,,,,,,,,,,,,,,,,,,,,,,,,,,,,,,,,,,,,,
,,,,,"If you are sure that the word exists, even though you dont know its exact meaning, you may still respond '1' (REAL). 
  
  But if you are not sure if it is an existing word, you should respond '0' (FAKE).
  
  Let's do a practice round...",(press the spacebar to continue),5efb5360f3f69c084c1ca850,605b45a4d25f287719a41696,6060ed87985ae0e0f21a3440,I am not familiar with Spanish,East coast,13 or older,no,2021-03-28_16h57.23.262,empathy_intonation_perc,2020.2.10,Win32,60,,,,,,,,,,,,,,,,,,,,,,,,,,,,,,,,,,,,,0,2,2,2,1,,,,,,,,,,,,,,,,,,,,,,,,,,,,,,,,,,,,,,,,,,,
,,,,,,,5efb5360f3f69c084c1ca850,605b45a4d25f287719a41696,6060ed87985ae0e0f21a3440,I am not familiar with Spanish,East coast,13 or older,no,2021-03-28_16h57.23.262,empathy_intonation_perc,2020.2.10,Win32,60,,,,,,,,,,0,,,,,,,,,,,,,,,,,,,,,,,,,,,,,,,,0,1,2.04688,0,0,0,0,1,0,depiste,REAL,FAKE,,,,,,,,,,,,,,,,,,,,,,,,,,,,,,,
,,,,,,,5efb5360f3f69c084c1ca850,605b45a4d25f287719a41696,6060ed87985ae0e0f21a3440,I am not familiar with Spanish,East coast,13 or older,no,2021-03-28_16h57.23.262,empathy_intonation_perc,2020.2.10,Win32,60,,,,,,,,,,1,,,,,,,,,,,,,,,,,,,,,,,,,,,,,,,,1,1,0.740995,0,1,1,1,1,0,s,REAL,FAKE,,,,,,,,,,,,,,,,,,,,,,,,,,,,,,,
,,,,,,,5efb5360f3f69c084c1ca850,605b45a4d25f287719a41696,6060ed87985ae0e0f21a3440,I am not familiar with Spanish,East coast,13 or older,no,2021-03-28_16h57.23.262,empathy_intonation_perc,2020.2.10,Win32,60,,,,,,,,,,0,,,,,,,,,,,,,,,,,,,,,,,,,,,,,,,,0,1,0.85777,0,2,2,2,1,0,con,REAL,FAKE,,,,,,,,,,,,,,,,,,,,,,,,,,,,,,,
,,,,,,,5efb5360f3f69c084c1ca850,605b45a4d25f287719a41696,6060ed87985ae0e0f21a3440,I am not familiar with Spanish,East coast,13 or older,no,2021-03-28_16h57.23.262,empathy_intonation_perc,2020.2.10,Win32,60,,,,,,,,,,0,,,,,,,,,,,,,,,,,,,,,,,,,,,,,,,,1,0,0.918065,0,3,3,3,1,0,calpar,REAL,FAKE,,,,,,,,,,,,,,,,,,,,,,,,,,,,,,,
,,,,,,,5efb5360f3f69c084c1ca850,605b45a4d25f287719a41696,6060ed87985ae0e0f21a3440,I am not familiar with Spanish,East coast,13 or older,no,2021-03-28_16h57.23.262,empathy_intonation_perc,2020.2.10,Win32,60,,,,,,,,,,0,,,,,,,,,,,,,,,,,,,,,,,,,,,,,,,,0,1,1.09005,0,4,4,4,1,0,joten,REAL,FAKE,,,,,,,,,,,,,,,,,,,,,,,,,,,,,,,
,,,,,,,5efb5360f3f69c084c1ca850,605b45a4d25f287719a41696,6060ed87985ae0e0f21a3440,I am not familiar with Spanish,East coast,13 or older,no,2021-03-28_16h57.23.262,empathy_intonation_perc,2020.2.10,Win32,60,,,,,,,,,,1,,,,,,,,,,,,,,,,,,,,,,,,,,,,,,,,1,1,1.030825,0,5,5,5,1,0,sacapuntas,REAL,FAKE,,,,,,,,,,,,,,,,,,,,,,,,,,,,,,,
,,,,,,,5efb5360f3f69c084c1ca850,605b45a4d25f287719a41696,6060ed87985ae0e0f21a3440,I am not familiar with Spanish,East coast,13 or older,no,2021-03-28_16h57.23.262,empathy_intonation_perc,2020.2.10,Win32,60,,,,,,,,,,0,,,,,,,,,,,,,,,,,,,,,,,,,,,,,,,,1,0,1.01445,0,6,6,6,1,0,priba,REAL,FAKE,,,,,,,,,,,,,,,,,,,,,,,,,,,,,,,
,,,,,,,5efb5360f3f69c084c1ca850,605b45a4d25f287719a41696,6060ed87985ae0e0f21a3440,I am not familiar with Spanish,East coast,13 or older,no,2021-03-28_16h57.23.262,empathy_intonation_perc,2020.2.10,Win32,60,,,,,,,,,,0,,,,,,,,,,,,,,,,,,,,,,,,,,,,,,,,0,1,0.753955,0,7,7,7,1,0,pelasula,REAL,FAKE,,,,,,,,,,,,,,,,,,,,,,,,,,,,,,,
,,,,,,,5efb5360f3f69c084c1ca850,605b45a4d25f287719a41696,6060ed87985ae0e0f21a3440,I am not familiar with Spanish,East coast,13 or older,no,2021-03-28_16h57.23.262,empathy_intonation_perc,2020.2.10,Win32,60,,,,,,,,,,1,,,,,,,,,,,,,,,,,,,,,,,,,,,,,,,,1,1,0.76699,0,8,8,8,1,0,bien,REAL,FAKE,,,,,,,,,,,,,,,,,,,,,,,,,,,,,,,
,,,,,,,5efb5360f3f69c084c1ca850,605b45a4d25f287719a41696,6060ed87985ae0e0f21a3440,I am not familiar with Spanish,East coast,13 or older,no,2021-03-28_16h57.23.262,empathy_intonation_perc,2020.2.10,Win32,60,,,,,,,,,,1,,,,,,,,,,,,,,,,,,,,,,,,,,,,,,,,1,1,0.681945,0,9,9,9,1,0,casa,REAL,FAKE,,,,,,,,,,,,,,,,,,,,,,,,,,,,,,,
,,,,,,,5efb5360f3f69c084c1ca850,605b45a4d25f287719a41696,6060ed87985ae0e0f21a3440,I am not familiar with Spanish,East coast,13 or older,no,2021-03-28_16h57.23.262,empathy_intonation_perc,2020.2.10,Win32,60,,,,,,,,,,0,,,,,,,,,,,,,,,,,,,,,,,,,,,,,,,,1,0,0.68691,0,10,10,10,1,0,lejo,REAL,FAKE,,,,,,,,,,,,,,,,,,,,,,,,,,,,,,,
,,,,,,,5efb5360f3f69c084c1ca850,605b45a4d25f287719a41696,6060ed87985ae0e0f21a3440,I am not familiar with Spanish,East coast,13 or older,no,2021-03-28_16h57.23.262,empathy_intonation_perc,2020.2.10,Win32,60,,,,,,,,,,0,,,,,,,,,,,,,,,,,,,,,,,,,,,,,,,,1,0,0.803595,0,11,11,11,1,0,pretantas,REAL,FAKE,,,,,,,,,,,,,,,,,,,,,,,,,,,,,,,
,,,,,,,5efb5360f3f69c084c1ca850,605b45a4d25f287719a41696,6060ed87985ae0e0f21a3440,I am not familiar with Spanish,East coast,13 or older,no,2021-03-28_16h57.23.262,empathy_intonation_perc,2020.2.10,Win32,60,,,,,,,,,,1,,,,,,,,,,,,,,,,,,,,,,,,,,,,,,,,,,,,,,,,77,tiburn,,,1,1,0.883735,0,0,0,76,1,REAL,FAKE,,,,,,,,,,,,,,,,,,,,,
,,,,,,,5efb5360f3f69c084c1ca850,605b45a4d25f287719a41696,6060ed87985ae0e0f21a3440,I am not familiar with Spanish,East coast,13 or older,no,2021-03-28_16h57.23.262,empathy_intonation_perc,2020.2.10,Win32,60,,,,,,,,,,1,,,,,,,,,,,,,,,,,,,,,,,,,,,,,,,,,,,,,,,,24,ltigo,,,1,1,0.815285,0,1,1,23,1,REAL,FAKE,,,,,,,,,,,,,,,,,,,,,
,,,,,,,5efb5360f3f69c084c1ca850,605b45a4d25f287719a41696,6060ed87985ae0e0f21a3440,I am not familiar with Spanish,East coast,13 or older,no,2021-03-28_16h57.23.262,empathy_intonation_perc,2020.2.10,Win32,60,,,,,,,,,,1,,,,,,,,,,,,,,,,,,,,,,,,,,,,,,,,,,,,,,,,34,aviso,,,1,1,0.874985,0,2,2,33,1,REAL,FAKE,,,,,,,,,,,,,,,,,,,,,
,,,,,,,5efb5360f3f69c084c1ca850,605b45a4d25f287719a41696,6060ed87985ae0e0f21a3440,I am not familiar with Spanish,East coast,13 or older,no,2021-03-28_16h57.23.262,empathy_intonation_perc,2020.2.10,Win32,60,,,,,,,,,,1,,,,,,,,,,,,,,,,,,,,,,,,,,,,,,,,,,,,,,,,15,regar,,,1,1,0.7681,0,3,3,14,1,REAL,FAKE,,,,,,,,,,,,,,,,,,,,,
,,,,,,,5efb5360f3f69c084c1ca850,605b45a4d25f287719a41696,6060ed87985ae0e0f21a3440,I am not familiar with Spanish,East coast,13 or older,no,2021-03-28_16h57.23.262,empathy_intonation_perc,2020.2.10,Win32,60,,,,,,,,,,1,,,,,,,,,,,,,,,,,,,,,,,,,,,,,,,,,,,,,,,,55,nevar,,,1,1,0.7657,0,4,4,54,1,REAL,FAKE,,,,,,,,,,,,,,,,,,,,,
,,,,,,,5efb5360f3f69c084c1ca850,605b45a4d25f287719a41696,6060ed87985ae0e0f21a3440,I am not familiar with Spanish,East coast,13 or older,no,2021-03-28_16h57.23.262,empathy_intonation_perc,2020.2.10,Win32,60,,,,,,,,,,1,,,,,,,,,,,,,,,,,,,,,,,,,,,,,,,,,,,,,,,,28,merodear,,,1,1,0.953145,0,5,5,27,1,REAL,FAKE,,,,,,,,,,,,,,,,,,,,,
,,,,,,,5efb5360f3f69c084c1ca850,605b45a4d25f287719a41696,6060ed87985ae0e0f21a3440,I am not familiar with Spanish,East coast,13 or older,no,2021-03-28_16h57.23.262,empathy_intonation_perc,2020.2.10,Win32,60,,,,,,,,,,1,,,,,,,,,,,,,,,,,,,,,,,,,,,,,,,,,,,,,,,,61,seda,,,0,0,1.02239,0,6,6,60,1,REAL,FAKE,,,,,,,,,,,,,,,,,,,,,
,,,,,,,5efb5360f3f69c084c1ca850,605b45a4d25f287719a41696,6060ed87985ae0e0f21a3440,I am not familiar with Spanish,East coast,13 or older,no,2021-03-28_16h57.23.262,empathy_intonation_perc,2020.2.10,Win32,60,,,,,,,,,,1,,,,,,,,,,,,,,,,,,,,,,,,,,,,,,,,,,,,,,,,56,musgo,,,0,0,0.735455,0,7,7,55,1,REAL,FAKE,,,,,,,,,,,,,,,,,,,,,
,,,,,,,5efb5360f3f69c084c1ca850,605b45a4d25f287719a41696,6060ed87985ae0e0f21a3440,I am not familiar with Spanish,East coast,13 or older,no,2021-03-28_16h57.23.262,empathy_intonation_perc,2020.2.10,Win32,60,,,,,,,,,,0,,,,,,,,,,,,,,,,,,,,,,,,,,,,,,,,,,,,,,,,35,rompido,,,0,1,0.60655,0,8,8,34,1,REAL,FAKE,,,,,,,,,,,,,,,,,,,,,
,,,,,,,5efb5360f3f69c084c1ca850,605b45a4d25f287719a41696,6060ed87985ae0e0f21a3440,I am not familiar with Spanish,East coast,13 or older,no,2021-03-28_16h57.23.262,empathy_intonation_perc,2020.2.10,Win32,60,,,,,,,,,,1,,,,,,,,,,,,,,,,,,,,,,,,,,,,,,,,,,,,,,,,41,rebuscar,,,1,1,0.931245,0,9,9,40,1,REAL,FAKE,,,,,,,,,,,,,,,,,,,,,
,,,,,,,5efb5360f3f69c084c1ca850,605b45a4d25f287719a41696,6060ed87985ae0e0f21a3440,I am not familiar with Spanish,East coast,13 or older,no,2021-03-28_16h57.23.262,empathy_intonation_perc,2020.2.10,Win32,60,,,,,,,,,,1,,,,,,,,,,,,,,,,,,,,,,,,,,,,,,,,,,,,,,,,88,acantilado,,,0,0,0.841165,0,10,10,87,1,REAL,FAKE,,,,,,,,,,,,,,,,,,,,,
,,,,,,,5efb5360f3f69c084c1ca850,605b45a4d25f287719a41696,6060ed87985ae0e0f21a3440,I am not familiar with Spanish,East coast,13 or older,no,2021-03-28_16h57.23.262,empathy_intonation_perc,2020.2.10,Win32,60,,,,,,,,,,0,,,,,,,,,,,,,,,,,,,,,,,,,,,,,,,,,,,,,,,,29,decar,,,1,0,0.71415,0,11,11,28,1,REAL,FAKE,,,,,,,,,,,,,,,,,,,,,
,,,,,,,5efb5360f3f69c084c1ca850,605b45a4d25f287719a41696,6060ed87985ae0e0f21a3440,I am not familiar with Spanish,East coast,13 or older,no,2021-03-28_16h57.23.262,empathy_intonation_perc,2020.2.10,Win32,60,,,,,,,,,,0,,,,,,,,,,,,,,,,,,,,,,,,,,,,,,,,,,,,,,,,58,plaudir,,,1,0,0.68963,0,12,12,57,1,REAL,FAKE,,,,,,,,,,,,,,,,,,,,,
,,,,,,,5efb5360f3f69c084c1ca850,605b45a4d25f287719a41696,6060ed87985ae0e0f21a3440,I am not familiar with Spanish,East coast,13 or older,no,2021-03-28_16h57.23.262,empathy_intonation_perc,2020.2.10,Win32,60,,,,,,,,,,1,,,,,,,,,,,,,,,,,,,,,,,,,,,,,,,,,,,,,,,,48,ladrn,,,0,0,0.83855,0,13,13,47,1,REAL,FAKE,,,,,,,,,,,,,,,,,,,,,
,,,,,,,5efb5360f3f69c084c1ca850,605b45a4d25f287719a41696,6060ed87985ae0e0f21a3440,I am not familiar with Spanish,East coast,13 or older,no,2021-03-28_16h57.23.262,empathy_intonation_perc,2020.2.10,Win32,60,,,,,,,,,,1,,,,,,,,,,,,,,,,,,,,,,,,,,,,,,,,,,,,,,,,69,engatusar,,,0,0,0.80659,0,14,14,68,1,REAL,FAKE,,,,,,,,,,,,,,,,,,,,,
,,,,,,,5efb5360f3f69c084c1ca850,605b45a4d25f287719a41696,6060ed87985ae0e0f21a3440,I am not familiar with Spanish,East coast,13 or older,no,2021-03-28_16h57.23.262,empathy_intonation_perc,2020.2.10,Win32,60,,,,,,,,,,0,,,,,,,,,,,,,,,,,,,,,,,,,,,,,,,,,,,,,,,,4,batilln,,,1,0,1.271015,0,15,15,3,1,REAL,FAKE,,,,,,,,,,,,,,,,,,,,,
,,,,,,,5efb5360f3f69c084c1ca850,605b45a4d25f287719a41696,6060ed87985ae0e0f21a3440,I am not familiar with Spanish,East coast,13 or older,no,2021-03-28_16h57.23.262,empathy_intonation_perc,2020.2.10,Win32,60,,,,,,,,,,1,,,,,,,,,,,,,,,,,,,,,,,,,,,,,,,,,,,,,,,,45,jilguero,,,0,0,0.684465,0,16,16,44,1,REAL,FAKE,,,,,,,,,,,,,,,,,,,,,
,,,,,,,5efb5360f3f69c084c1ca850,605b45a4d25f287719a41696,6060ed87985ae0e0f21a3440,I am not familiar with Spanish,East coast,13 or older,no,2021-03-28_16h57.23.262,empathy_intonation_perc,2020.2.10,Win32,60,,,,,,,,,,1,,,,,,,,,,,,,,,,,,,,,,,,,,,,,,,,,,,,,,,,46,martillo,,,1,1,0.81372,0,17,17,45,1,REAL,FAKE,,,,,,,,,,,,,,,,,,,,,
,,,,,,,5efb5360f3f69c084c1ca850,605b45a4d25f287719a41696,6060ed87985ae0e0f21a3440,I am not familiar with Spanish,East coast,13 or older,no,2021-03-28_16h57.23.262,empathy_intonation_perc,2020.2.10,Win32,60,,,,,,,,,,0,,,,,,,,,,,,,,,,,,,,,,,,,,,,,,,,,,,,,,,,1,terzo,,,1,0,0.66416,0,18,18,0,1,REAL,FAKE,,,,,,,,,,,,,,,,,,,,,
,,,,,,,5efb5360f3f69c084c1ca850,605b45a4d25f287719a41696,6060ed87985ae0e0f21a3440,I am not familiar with Spanish,East coast,13 or older,no,2021-03-28_16h57.23.262,empathy_intonation_perc,2020.2.10,Win32,60,,,,,,,,,,0,,,,,,,,,,,,,,,,,,,,,,,,,,,,,,,,,,,,,,,,74,cintro,,,0,1,1.18149,0,19,19,73,1,REAL,FAKE,,,,,,,,,,,,,,,,,,,,,
,,,,,,,5efb5360f3f69c084c1ca850,605b45a4d25f287719a41696,6060ed87985ae0e0f21a3440,I am not familiar with Spanish,East coast,13 or older,no,2021-03-28_16h57.23.262,empathy_intonation_perc,2020.2.10,Win32,60,,,,,,,,,,0,,,,,,,,,,,,,,,,,,,,,,,,,,,,,,,,,,,,,,,,72,pemicin,,,0,1,0.984775,0,20,20,71,1,REAL,FAKE,,,,,,,,,,,,,,,,,,,,,
,,,,,,,5efb5360f3f69c084c1ca850,605b45a4d25f287719a41696,6060ed87985ae0e0f21a3440,I am not familiar with Spanish,East coast,13 or older,no,2021-03-28_16h57.23.262,empathy_intonation_perc,2020.2.10,Win32,60,,,,,,,,,,0,,,,,,,,,,,,,,,,,,,,,,,,,,,,,,,,,,,,,,,,30,alardio,,,0,1,0.664095,0,21,21,29,1,REAL,FAKE,,,,,,,,,,,,,,,,,,,,,
,,,,,,,5efb5360f3f69c084c1ca850,605b45a4d25f287719a41696,6060ed87985ae0e0f21a3440,I am not familiar with Spanish,East coast,13 or older,no,2021-03-28_16h57.23.262,empathy_intonation_perc,2020.2.10,Win32,60,,,,,,,,,,1,,,,,,,,,,,,,,,,,,,,,,,,,,,,,,,,,,,,,,,,20,vido,,,1,1,0.672735,0,22,22,19,1,REAL,FAKE,,,,,,,,,,,,,,,,,,,,,
,,,,,,,5efb5360f3f69c084c1ca850,605b45a4d25f287719a41696,6060ed87985ae0e0f21a3440,I am not familiar with Spanish,East coast,13 or older,no,2021-03-28_16h57.23.262,empathy_intonation_perc,2020.2.10,Win32,60,,,,,,,,,,0,,,,,,,,,,,,,,,,,,,,,,,,,,,,,,,,,,,,,,,,10,antar,,,1,0,0.768715,0,23,23,9,1,REAL,FAKE,,,,,,,,,,,,,,,,,,,,,
,,,,,,,5efb5360f3f69c084c1ca850,605b45a4d25f287719a41696,6060ed87985ae0e0f21a3440,I am not familiar with Spanish,East coast,13 or older,no,2021-03-28_16h57.23.262,empathy_intonation_perc,2020.2.10,Win32,60,,,,,,,,,,1,,,,,,,,,,,,,,,,,,,,,,,,,,,,,,,,,,,,,,,,52,camisa,,,1,1,0.820745,0,24,24,51,1,REAL,FAKE,,,,,,,,,,,,,,,,,,,,,
,,,,,,,5efb5360f3f69c084c1ca850,605b45a4d25f287719a41696,6060ed87985ae0e0f21a3440,I am not familiar with Spanish,East coast,13 or older,no,2021-03-28_16h57.23.262,empathy_intonation_perc,2020.2.10,Win32,60,,,,,,,,,,1,,,,,,,,,,,,,,,,,,,,,,,,,,,,,,,,,,,,,,,,59,besar,,,1,1,1.09033,0,25,25,58,1,REAL,FAKE,,,,,,,,,,,,,,,,,,,,,
,,,,,,,5efb5360f3f69c084c1ca850,605b45a4d25f287719a41696,6060ed87985ae0e0f21a3440,I am not familiar with Spanish,East coast,13 or older,no,2021-03-28_16h57.23.262,empathy_intonation_perc,2020.2.10,Win32,60,,,,,,,,,,1,,,,,,,,,,,,,,,,,,,,,,,,,,,,,,,,,,,,,,,,31,pandilla,,,0,0,0.765605,0,26,26,30,1,REAL,FAKE,,,,,,,,,,,,,,,,,,,,,
,,,,,,,5efb5360f3f69c084c1ca850,605b45a4d25f287719a41696,6060ed87985ae0e0f21a3440,I am not familiar with Spanish,East coast,13 or older,no,2021-03-28_16h57.23.262,empathy_intonation_perc,2020.2.10,Win32,60,,,,,,,,,,1,,,,,,,,,,,,,,,,,,,,,,,,,,,,,,,,,,,,,,,,83,guante,,,1,1,0.815705,0,27,27,82,1,REAL,FAKE,,,,,,,,,,,,,,,,,,,,,
,,,,,,,5efb5360f3f69c084c1ca850,605b45a4d25f287719a41696,6060ed87985ae0e0f21a3440,I am not familiar with Spanish,East coast,13 or older,no,2021-03-28_16h57.23.262,empathy_intonation_perc,2020.2.10,Win32,60,,,,,,,,,,0,,,,,,,,,,,,,,,,,,,,,,,,,,,,,,,,,,,,,,,,16,abracer,,,0,1,0.649025,0,28,28,15,1,REAL,FAKE,,,,,,,,,,,,,,,,,,,,,
,,,,,,,5efb5360f3f69c084c1ca850,605b45a4d25f287719a41696,6060ed87985ae0e0f21a3440,I am not familiar with Spanish,East coast,13 or older,no,2021-03-28_16h57.23.262,empathy_intonation_perc,2020.2.10,Win32,60,,,,,,,,,,1,,,,,,,,,,,,,,,,,,,,,,,,,,,,,,,,,,,,,,,,11,cenefa,,,0,0,0.74764,0,29,29,10,1,REAL,FAKE,,,,,,,,,,,,,,,,,,,,,
,,,,,,,5efb5360f3f69c084c1ca850,605b45a4d25f287719a41696,6060ed87985ae0e0f21a3440,I am not familiar with Spanish,East coast,13 or older,no,2021-03-28_16h57.23.262,empathy_intonation_perc,2020.2.10,Win32,60,,,,,,,,,,0,,,,,,,,,,,,,,,,,,,,,,,,,,,,,,,,,,,,,,,,18,arsa,,,0,1,0.539855,0,30,30,17,1,REAL,FAKE,,,,,,,,,,,,,,,,,,,,,
,,,,,,,5efb5360f3f69c084c1ca850,605b45a4d25f287719a41696,6060ed87985ae0e0f21a3440,I am not familiar with Spanish,East coast,13 or older,no,2021-03-28_16h57.23.262,empathy_intonation_perc,2020.2.10,Win32,60,,,,,,,,,,0,,,,,,,,,,,,,,,,,,,,,,,,,,,,,,,,,,,,,,,,23,lampera,,,1,0,0.580345,0,31,31,22,1,REAL,FAKE,,,,,,,,,,,,,,,,,,,,,
,,,,,,,5efb5360f3f69c084c1ca850,605b45a4d25f287719a41696,6060ed87985ae0e0f21a3440,I am not familiar with Spanish,East coast,13 or older,no,2021-03-28_16h57.23.262,empathy_intonation_perc,2020.2.10,Win32,60,,,,,,,,,,1,,,,,,,,,,,,,,,,,,,,,,,,,,,,,,,,,,,,,,,,65,bizcocho,,,1,1,1.26601,0,32,32,64,1,REAL,FAKE,,,,,,,,,,,,,,,,,,,,,
,,,,,,,5efb5360f3f69c084c1ca850,605b45a4d25f287719a41696,6060ed87985ae0e0f21a3440,I am not familiar with Spanish,East coast,13 or older,no,2021-03-28_16h57.23.262,empathy_intonation_perc,2020.2.10,Win32,60,,,,,,,,,,1,,,,,,,,,,,,,,,,,,,,,,,,,,,,,,,,,,,,,,,,40,alfombra,,,0,0,0.808915,0,33,33,39,1,REAL,FAKE,,,,,,,,,,,,,,,,,,,,,
,,,,,,,5efb5360f3f69c084c1ca850,605b45a4d25f287719a41696,6060ed87985ae0e0f21a3440,I am not familiar with Spanish,East coast,13 or older,no,2021-03-28_16h57.23.262,empathy_intonation_perc,2020.2.10,Win32,60,,,,,,,,,,1,,,,,,,,,,,,,,,,,,,,,,,,,,,,,,,,,,,,,,,,64,orgulloso,,,1,1,0.98381,0,34,34,63,1,REAL,FAKE,,,,,,,,,,,,,,,,,,,,,
,,,,,,,5efb5360f3f69c084c1ca850,605b45a4d25f287719a41696,6060ed87985ae0e0f21a3440,I am not familiar with Spanish,East coast,13 or older,no,2021-03-28_16h57.23.262,empathy_intonation_perc,2020.2.10,Win32,60,,,,,,,,,,1,,,,,,,,,,,,,,,,,,,,,,,,,,,,,,,,,,,,,,,,44,cuchara,,,1,1,0.715765,0,35,35,43,1,REAL,FAKE,,,,,,,,,,,,,,,,,,,,,
,,,,,,,5efb5360f3f69c084c1ca850,605b45a4d25f287719a41696,6060ed87985ae0e0f21a3440,I am not familiar with Spanish,East coast,13 or older,no,2021-03-28_16h57.23.262,empathy_intonation_perc,2020.2.10,Win32,60,,,,,,,,,,1,,,,,,,,,,,,,,,,,,,,,,,,,,,,,,,,,,,,,,,,76,atar,,,1,1,1.098875,0,36,36,75,1,REAL,FAKE,,,,,,,,,,,,,,,,,,,,,
,,,,,,,5efb5360f3f69c084c1ca850,605b45a4d25f287719a41696,6060ed87985ae0e0f21a3440,I am not familiar with Spanish,East coast,13 or older,no,2021-03-28_16h57.23.262,empathy_intonation_perc,2020.2.10,Win32,60,,,,,,,,,,1,,,,,,,,,,,,,,,,,,,,,,,,,,,,,,,,,,,,,,,,49,ganar,,,1,1,0.83093,0,37,37,48,1,REAL,FAKE,,,,,,,,,,,,,,,,,,,,,
,,,,,,,5efb5360f3f69c084c1ca850,605b45a4d25f287719a41696,6060ed87985ae0e0f21a3440,I am not familiar with Spanish,East coast,13 or older,no,2021-03-28_16h57.23.262,empathy_intonation_perc,2020.2.10,Win32,60,,,,,,,,,,1,,,,,,,,,,,,,,,,,,,,,,,,,,,,,,,,,,,,,,,,86,barato,,,0,0,0.657815,0,38,38,85,1,REAL,FAKE,,,,,,,,,,,,,,,,,,,,,
,,,,,,,5efb5360f3f69c084c1ca850,605b45a4d25f287719a41696,6060ed87985ae0e0f21a3440,I am not familiar with Spanish,East coast,13 or older,no,2021-03-28_16h57.23.262,empathy_intonation_perc,2020.2.10,Win32,60,,,,,,,,,,1,,,,,,,,,,,,,,,,,,,,,,,,,,,,,,,,,,,,,,,,71,polvoriento,,,0,0,0.724995,0,39,39,70,1,REAL,FAKE,,,,,,,,,,,,,,,,,,,,,
,,,,,,,5efb5360f3f69c084c1ca850,605b45a4d25f287719a41696,6060ed87985ae0e0f21a3440,I am not familiar with Spanish,East coast,13 or older,no,2021-03-28_16h57.23.262,empathy_intonation_perc,2020.2.10,Win32,60,,,,,,,,,,1,,,,,,,,,,,,,,,,,,,,,,,,,,,,,,,,,,,,,,,,7,psimo,,,0,0,1.254155,0,40,40,6,1,REAL,FAKE,,,,,,,,,,,,,,,,,,,,,
,,,,,,,5efb5360f3f69c084c1ca850,605b45a4d25f287719a41696,6060ed87985ae0e0f21a3440,I am not familiar with Spanish,East coast,13 or older,no,2021-03-28_16h57.23.262,empathy_intonation_perc,2020.2.10,Win32,60,,,,,,,,,,1,,,,,,,,,,,,,,,,,,,,,,,,,,,,,,,,,,,,,,,,6,tergiversar,,,0,0,1.023025,0,41,41,5,1,REAL,FAKE,,,,,,,,,,,,,,,,,,,,,
,,,,,,,5efb5360f3f69c084c1ca850,605b45a4d25f287719a41696,6060ed87985ae0e0f21a3440,I am not familiar with Spanish,East coast,13 or older,no,2021-03-28_16h57.23.262,empathy_intonation_perc,2020.2.10,Win32,60,,,,,,,,,,1,,,,,,,,,,,,,,,,,,,,,,,,,,,,,,,,,,,,,,,,26,secuestro,,,0,0,0.753605,0,42,42,25,1,REAL,FAKE,,,,,,,,,,,,,,,,,,,,,
,,,,,,,5efb5360f3f69c084c1ca850,605b45a4d25f287719a41696,6060ed87985ae0e0f21a3440,I am not familiar with Spanish,East coast,13 or older,no,2021-03-28_16h57.23.262,empathy_intonation_perc,2020.2.10,Win32,60,,,,,,,,,,1,,,,,,,,,,,,,,,,,,,,,,,,,,,,,,,,,,,,,,,,89,prisa,,,0,0,1.25204,0,43,43,88,1,REAL,FAKE,,,,,,,,,,,,,,,,,,,,,
,,,,,,,5efb5360f3f69c084c1ca850,605b45a4d25f287719a41696,6060ed87985ae0e0f21a3440,I am not familiar with Spanish,East coast,13 or older,no,2021-03-28_16h57.23.262,empathy_intonation_perc,2020.2.10,Win32,60,,,,,,,,,,1,,,,,,,,,,,,,,,,,,,,,,,,,,,,,,,,,,,,,,,,81,pozo,,,1,1,0.70296,0,44,44,80,1,REAL,FAKE,,,,,,,,,,,,,,,,,,,,,
,,,,,,,5efb5360f3f69c084c1ca850,605b45a4d25f287719a41696,6060ed87985ae0e0f21a3440,I am not familiar with Spanish,East coast,13 or older,no,2021-03-28_16h57.23.262,empathy_intonation_perc,2020.2.10,Win32,60,,,,,,,,,,1,,,,,,,,,,,,,,,,,,,,,,,,,,,,,,,,,,,,,,,,62,flaco,,,1,1,0.686815,0,45,45,61,1,REAL,FAKE,,,,,,,,,,,,,,,,,,,,,
,,,,,,,5efb5360f3f69c084c1ca850,605b45a4d25f287719a41696,6060ed87985ae0e0f21a3440,I am not familiar with Spanish,East coast,13 or older,no,2021-03-28_16h57.23.262,empathy_intonation_perc,2020.2.10,Win32,60,,,,,,,,,,1,,,,,,,,,,,,,,,,,,,,,,,,,,,,,,,,,,,,,,,,14,yunque,,,0,0,0.70295,0,46,46,13,1,REAL,FAKE,,,,,,,,,,,,,,,,,,,,,
,,,,,,,5efb5360f3f69c084c1ca850,605b45a4d25f287719a41696,6060ed87985ae0e0f21a3440,I am not familiar with Spanish,East coast,13 or older,no,2021-03-28_16h57.23.262,empathy_intonation_perc,2020.2.10,Win32,60,,,,,,,,,,1,,,,,,,,,,,,,,,,,,,,,,,,,,,,,,,,,,,,,,,,78,frondoso,,,1,1,0.717895,0,47,47,77,1,REAL,FAKE,,,,,,,,,,,,,,,,,,,,,
,,,,,,,5efb5360f3f69c084c1ca850,605b45a4d25f287719a41696,6060ed87985ae0e0f21a3440,I am not familiar with Spanish,East coast,13 or older,no,2021-03-28_16h57.23.262,empathy_intonation_perc,2020.2.10,Win32,60,,,,,,,,,,1,,,,,,,,,,,,,,,,,,,,,,,,,,,,,,,,,,,,,,,,3,pulmones,,,0,0,0.666265,0,48,48,2,1,REAL,FAKE,,,,,,,,,,,,,,,,,,,,,
,,,,,,,5efb5360f3f69c084c1ca850,605b45a4d25f287719a41696,6060ed87985ae0e0f21a3440,I am not familiar with Spanish,East coast,13 or older,no,2021-03-28_16h57.23.262,empathy_intonation_perc,2020.2.10,Win32,60,,,,,,,,,,0,,,,,,,,,,,,,,,,,,,,,,,,,,,,,,,,,,,,,,,,87,grodo,,,0,1,0.802895,0,49,49,86,1,REAL,FAKE,,,,,,,,,,,,,,,,,,,,,
,,,,,,,5efb5360f3f69c084c1ca850,605b45a4d25f287719a41696,6060ed87985ae0e0f21a3440,I am not familiar with Spanish,East coast,13 or older,no,2021-03-28_16h57.23.262,empathy_intonation_perc,2020.2.10,Win32,60,,,,,,,,,,0,,,,,,,,,,,,,,,,,,,,,,,,,,,,,,,,,,,,,,,,27,acutacin,,,0,1,1.14183,0,50,50,26,1,REAL,FAKE,,,,,,,,,,,,,,,,,,,,,
,,,,,,,5efb5360f3f69c084c1ca850,605b45a4d25f287719a41696,6060ed87985ae0e0f21a3440,I am not familiar with Spanish,East coast,13 or older,no,2021-03-28_16h57.23.262,empathy_intonation_perc,2020.2.10,Win32,60,,,,,,,,,,1,,,,,,,,,,,,,,,,,,,,,,,,,,,,,,,,,,,,,,,,37,granuja,,,0,0,0.881825,0,51,51,36,1,REAL,FAKE,,,,,,,,,,,,,,,,,,,,,
,,,,,,,5efb5360f3f69c084c1ca850,605b45a4d25f287719a41696,6060ed87985ae0e0f21a3440,I am not familiar with Spanish,East coast,13 or older,no,2021-03-28_16h57.23.262,empathy_intonation_perc,2020.2.10,Win32,60,,,,,,,,,,0,,,,,,,,,,,,,,,,,,,,,,,,,,,,,,,,,,,,,,,,33,pauca,,,0,1,1.083775,0,52,52,32,1,REAL,FAKE,,,,,,,,,,,,,,,,,,,,,
,,,,,,,5efb5360f3f69c084c1ca850,605b45a4d25f287719a41696,6060ed87985ae0e0f21a3440,I am not familiar with Spanish,East coast,13 or older,no,2021-03-28_16h57.23.262,empathy_intonation_perc,2020.2.10,Win32,60,,,,,,,,,,1,,,,,,,,,,,,,,,,,,,,,,,,,,,,,,,,,,,,,,,,36,loro,,,1,1,0.56484,0,53,53,35,1,REAL,FAKE,,,,,,,,,,,,,,,,,,,,,
,,,,,,,5efb5360f3f69c084c1ca850,605b45a4d25f287719a41696,6060ed87985ae0e0f21a3440,I am not familiar with Spanish,East coast,13 or older,no,2021-03-28_16h57.23.262,empathy_intonation_perc,2020.2.10,Win32,60,,,,,,,,,,1,,,,,,,,,,,,,,,,,,,,,,,,,,,,,,,,,,,,,,,,90,clavel,,,1,1,0.576515,0,54,54,89,1,REAL,FAKE,,,,,,,,,,,,,,,,,,,,,
,,,,,,,5efb5360f3f69c084c1ca850,605b45a4d25f287719a41696,6060ed87985ae0e0f21a3440,I am not familiar with Spanish,East coast,13 or older,no,2021-03-28_16h57.23.262,empathy_intonation_perc,2020.2.10,Win32,60,,,,,,,,,,1,,,,,,,,,,,,,,,,,,,,,,,,,,,,,,,,,,,,,,,,75,yacer,,,0,0,0.799105,0,55,55,74,1,REAL,FAKE,,,,,,,,,,,,,,,,,,,,,
,,,,,,,5efb5360f3f69c084c1ca850,605b45a4d25f287719a41696,6060ed87985ae0e0f21a3440,I am not familiar with Spanish,East coast,13 or older,no,2021-03-28_16h57.23.262,empathy_intonation_perc,2020.2.10,Win32,60,,,,,,,,,,1,,,,,,,,,,,,,,,,,,,,,,,,,,,,,,,,,,,,,,,,43,canela,,,1,1,0.875845,0,56,56,42,1,REAL,FAKE,,,,,,,,,,,,,,,,,,,,,
,,,,,,,5efb5360f3f69c084c1ca850,605b45a4d25f287719a41696,6060ed87985ae0e0f21a3440,I am not familiar with Spanish,East coast,13 or older,no,2021-03-28_16h57.23.262,empathy_intonation_perc,2020.2.10,Win32,60,,,,,,,,,,1,,,,,,,,,,,,,,,,,,,,,,,,,,,,,,,,,,,,,,,,73,hervidor,,,0,0,0.77986,0,57,57,72,1,REAL,FAKE,,,,,,,,,,,,,,,,,,,,,
,,,,,,,5efb5360f3f69c084c1ca850,605b45a4d25f287719a41696,6060ed87985ae0e0f21a3440,I am not familiar with Spanish,East coast,13 or older,no,2021-03-28_16h57.23.262,empathy_intonation_perc,2020.2.10,Win32,60,,,,,,,,,,0,,,,,,,,,,,,,,,,,,,,,,,,,,,,,,,,,,,,,,,,84,escuto,,,1,0,0.741715,0,58,58,83,1,REAL,FAKE,,,,,,,,,,,,,,,,,,,,,
,,,,,,,5efb5360f3f69c084c1ca850,605b45a4d25f287719a41696,6060ed87985ae0e0f21a3440,I am not familiar with Spanish,East coast,13 or older,no,2021-03-28_16h57.23.262,empathy_intonation_perc,2020.2.10,Win32,60,,,,,,,,,,0,,,,,,,,,,,,,,,,,,,,,,,,,,,,,,,,,,,,,,,,66,hacido,,,1,0,0.632835,0,59,59,65,1,REAL,FAKE,,,,,,,,,,,,,,,,,,,,,
,,,,,,,5efb5360f3f69c084c1ca850,605b45a4d25f287719a41696,6060ed87985ae0e0f21a3440,I am not familiar with Spanish,East coast,13 or older,no,2021-03-28_16h57.23.262,empathy_intonation_perc,2020.2.10,Win32,60,,,,,,,,,,0,,,,,,,,,,,,,,,,,,,,,,,,,,,,,,,,,,,,,,,,82,empirador,,,1,0,0.798405,0,60,60,81,1,REAL,FAKE,,,,,,,,,,,,,,,,,,,,,
,,,,,,,5efb5360f3f69c084c1ca850,605b45a4d25f287719a41696,6060ed87985ae0e0f21a3440,I am not familiar with Spanish,East coast,13 or older,no,2021-03-28_16h57.23.262,empathy_intonation_perc,2020.2.10,Win32,60,,,,,,,,,,0,,,,,,,,,,,,,,,,,,,,,,,,,,,,,,,,,,,,,,,,8,cadea,,,1,0,0.647895,0,61,61,7,1,REAL,FAKE,,,,,,,,,,,,,,,,,,,,,
,,,,,,,5efb5360f3f69c084c1ca850,605b45a4d25f287719a41696,6060ed87985ae0e0f21a3440,I am not familiar with Spanish,East coast,13 or older,no,2021-03-28_16h57.23.262,empathy_intonation_perc,2020.2.10,Win32,60,,,,,,,,,,0,,,,,,,,,,,,,,,,,,,,,,,,,,,,,,,,,,,,,,,,42,cadallo,,,1,0,1.51505,0,62,62,41,1,REAL,FAKE,,,,,,,,,,,,,,,,,,,,,
,,,,,,,5efb5360f3f69c084c1ca850,605b45a4d25f287719a41696,6060ed87985ae0e0f21a3440,I am not familiar with Spanish,East coast,13 or older,no,2021-03-28_16h57.23.262,empathy_intonation_perc,2020.2.10,Win32,60,,,,,,,,,,1,,,,,,,,,,,,,,,,,,,,,,,,,,,,,,,,,,,,,,,,68,alegre,,,1,1,0.89247,0,63,63,67,1,REAL,FAKE,,,,,,,,,,,,,,,,,,,,,
,,,,,,,5efb5360f3f69c084c1ca850,605b45a4d25f287719a41696,6060ed87985ae0e0f21a3440,I am not familiar with Spanish,East coast,13 or older,no,2021-03-28_16h57.23.262,empathy_intonation_perc,2020.2.10,Win32,60,,,,,,,,,,1,,,,,,,,,,,,,,,,,,,,,,,,,,,,,,,,,,,,,,,,38,estornudar,,,0,0,0.698825,0,64,64,37,1,REAL,FAKE,,,,,,,,,,,,,,,,,,,,,
,,,,,,,5efb5360f3f69c084c1ca850,605b45a4d25f287719a41696,6060ed87985ae0e0f21a3440,I am not familiar with Spanish,East coast,13 or older,no,2021-03-28_16h57.23.262,empathy_intonation_perc,2020.2.10,Win32,60,,,,,,,,,,1,,,,,,,,,,,,,,,,,,,,,,,,,,,,,,,,,,,,,,,,12,asesinato,,,0,0,0.75822,0,65,65,11,1,REAL,FAKE,,,,,,,,,,,,,,,,,,,,,
,,,,,,,5efb5360f3f69c084c1ca850,605b45a4d25f287719a41696,6060ed87985ae0e0f21a3440,I am not familiar with Spanish,East coast,13 or older,no,2021-03-28_16h57.23.262,empathy_intonation_perc,2020.2.10,Win32,60,,,,,,,,,,0,,,,,,,,,,,,,,,,,,,,,,,,,,,,,,,,,,,,,,,,21,capillo,,,1,0,0.620145,0,66,66,20,1,REAL,FAKE,,,,,,,,,,,,,,,,,,,,,
,,,,,,,5efb5360f3f69c084c1ca850,605b45a4d25f287719a41696,6060ed87985ae0e0f21a3440,I am not familiar with Spanish,East coast,13 or older,no,2021-03-28_16h57.23.262,empathy_intonation_perc,2020.2.10,Win32,60,,,,,,,,,,0,,,,,,,,,,,,,,,,,,,,,,,,,,,,,,,,,,,,,,,,32,fatacidad,,,1,0,1.5684,0,67,67,31,1,REAL,FAKE,,,,,,,,,,,,,,,,,,,,,
,,,,,,,5efb5360f3f69c084c1ca850,605b45a4d25f287719a41696,6060ed87985ae0e0f21a3440,I am not familiar with Spanish,East coast,13 or older,no,2021-03-28_16h57.23.262,empathy_intonation_perc,2020.2.10,Win32,60,,,,,,,,,,1,,,,,,,,,,,,,,,,,,,,,,,,,,,,,,,,,,,,,,,,60,matar,,,0,0,0.725325,0,68,68,59,1,REAL,FAKE,,,,,,,,,,,,,,,,,,,,,
,,,,,,,5efb5360f3f69c084c1ca850,605b45a4d25f287719a41696,6060ed87985ae0e0f21a3440,I am not familiar with Spanish,East coast,13 or older,no,2021-03-28_16h57.23.262,empathy_intonation_perc,2020.2.10,Win32,60,,,,,,,,,,1,,,,,,,,,,,,,,,,,,,,,,,,,,,,,,,,,,,,,,,,67,cabello,,,1,1,0.68266,0,69,69,66,1,REAL,FAKE,,,,,,,,,,,,,,,,,,,,,
,,,,,,,5efb5360f3f69c084c1ca850,605b45a4d25f287719a41696,6060ed87985ae0e0f21a3440,I am not familiar with Spanish,East coast,13 or older,no,2021-03-28_16h57.23.262,empathy_intonation_perc,2020.2.10,Win32,60,,,,,,,,,,0,,,,,,,,,,,,,,,,,,,,,,,,,,,,,,,,,,,,,,,,63,esposante,,,0,1,0.66976,0,70,70,62,1,REAL,FAKE,,,,,,,,,,,,,,,,,,,,,
,,,,,,,5efb5360f3f69c084c1ca850,605b45a4d25f287719a41696,6060ed87985ae0e0f21a3440,I am not familiar with Spanish,East coast,13 or older,no,2021-03-28_16h57.23.262,empathy_intonation_perc,2020.2.10,Win32,60,,,,,,,,,,0,,,,,,,,,,,,,,,,,,,,,,,,,,,,,,,,,,,,,,,,17,floroso,,,1,0,1.005185,0,71,71,16,1,REAL,FAKE,,,,,,,,,,,,,,,,,,,,,
,,,,,,,5efb5360f3f69c084c1ca850,605b45a4d25f287719a41696,6060ed87985ae0e0f21a3440,I am not familiar with Spanish,East coast,13 or older,no,2021-03-28_16h57.23.262,empathy_intonation_perc,2020.2.10,Win32,60,,,,,,,,,,0,,,,,,,,,,,,,,,,,,,,,,,,,,,,,,,,,,,,,,,,70,temblo,,,0,1,0.68376,0,72,72,69,1,REAL,FAKE,,,,,,,,,,,,,,,,,,,,,
,,,,,,,5efb5360f3f69c084c1ca850,605b45a4d25f287719a41696,6060ed87985ae0e0f21a3440,I am not familiar with Spanish,East coast,13 or older,no,2021-03-28_16h57.23.262,empathy_intonation_perc,2020.2.10,Win32,60,,,,,,,,,,1,,,,,,,,,,,,,,,,,,,,,,,,,,,,,,,,,,,,,,,,54,fomentar,,,1,1,0.73248,0,73,73,53,1,REAL,FAKE,,,,,,,,,,,,,,,,,,,,,
,,,,,,,5efb5360f3f69c084c1ca850,605b45a4d25f287719a41696,6060ed87985ae0e0f21a3440,I am not familiar with Spanish,East coast,13 or older,no,2021-03-28_16h57.23.262,empathy_intonation_perc,2020.2.10,Win32,60,,,,,,,,,,1,,,,,,,,,,,,,,,,,,,,,,,,,,,,,,,,,,,,,,,,9,hacha,,,1,1,0.565665,0,74,74,8,1,REAL,FAKE,,,,,,,,,,,,,,,,,,,,,
,,,,,,,5efb5360f3f69c084c1ca850,605b45a4d25f287719a41696,6060ed87985ae0e0f21a3440,I am not familiar with Spanish,East coast,13 or older,no,2021-03-28_16h57.23.262,empathy_intonation_perc,2020.2.10,Win32,60,,,,,,,,,,0,,,,,,,,,,,,,,,,,,,,,,,,,,,,,,,,,,,,,,,,50,flamida,,,1,0,0.555555,0,75,75,49,1,REAL,FAKE,,,,,,,,,,,,,,,,,,,,,
,,,,,,,5efb5360f3f69c084c1ca850,605b45a4d25f287719a41696,6060ed87985ae0e0f21a3440,I am not familiar with Spanish,East coast,13 or older,no,2021-03-28_16h57.23.262,empathy_intonation_perc,2020.2.10,Win32,60,,,,,,,,,,1,,,,,,,,,,,,,,,,,,,,,,,,,,,,,,,,,,,,,,,,39,torpe,,,1,1,0.501635,0,76,76,38,1,REAL,FAKE,,,,,,,,,,,,,,,,,,,,,
,,,,,,,5efb5360f3f69c084c1ca850,605b45a4d25f287719a41696,6060ed87985ae0e0f21a3440,I am not familiar with Spanish,East coast,13 or older,no,2021-03-28_16h57.23.262,empathy_intonation_perc,2020.2.10,Win32,60,,,,,,,,,,1,,,,,,,,,,,,,,,,,,,,,,,,,,,,,,,,,,,,,,,,2,pellizcar,,,0,0,0.591095,0,77,77,1,1,REAL,FAKE,,,,,,,,,,,,,,,,,,,,,
,,,,,,,5efb5360f3f69c084c1ca850,605b45a4d25f287719a41696,6060ed87985ae0e0f21a3440,I am not familiar with Spanish,East coast,13 or older,no,2021-03-28_16h57.23.262,empathy_intonation_perc,2020.2.10,Win32,60,,,,,,,,,,0,,,,,,,,,,,,,,,,,,,,,,,,,,,,,,,,,,,,,,,,47,cartinar,,,1,0,0.722955,0,78,78,46,1,REAL,FAKE,,,,,,,,,,,,,,,,,,,,,
,,,,,,,5efb5360f3f69c084c1ca850,605b45a4d25f287719a41696,6060ed87985ae0e0f21a3440,I am not familiar with Spanish,East coast,13 or older,no,2021-03-28_16h57.23.262,empathy_intonation_perc,2020.2.10,Win32,60,,,,,,,,,,1,,,,,,,,,,,,,,,,,,,,,,,,,,,,,,,,,,,,,,,,22,lacayo,,,0,0,1.5554,0,79,79,21,1,REAL,FAKE,,,,,,,,,,,,,,,,,,,,,
,,,,,,,5efb5360f3f69c084c1ca850,605b45a4d25f287719a41696,6060ed87985ae0e0f21a3440,I am not familiar with Spanish,East coast,13 or older,no,2021-03-28_16h57.23.262,empathy_intonation_perc,2020.2.10,Win32,60,,,,,,,,,,1,,,,,,,,,,,,,,,,,,,,,,,,,,,,,,,,,,,,,,,,25,bisagra,,,0,0,0.59389,0,80,80,24,1,REAL,FAKE,,,,,,,,,,,,,,,,,,,,,
,,,,,,,5efb5360f3f69c084c1ca850,605b45a4d25f287719a41696,6060ed87985ae0e0f21a3440,I am not familiar with Spanish,East coast,13 or older,no,2021-03-28_16h57.23.262,empathy_intonation_perc,2020.2.10,Win32,60,,,,,,,,,,1,,,,,,,,,,,,,,,,,,,,,,,,,,,,,,,,,,,,,,,,51,candado,,,0,0,0.74315,0,81,81,50,1,REAL,FAKE,,,,,,,,,,,,,,,,,,,,,
,,,,,,,5efb5360f3f69c084c1ca850,605b45a4d25f287719a41696,6060ed87985ae0e0f21a3440,I am not familiar with Spanish,East coast,13 or older,no,2021-03-28_16h57.23.262,empathy_intonation_perc,2020.2.10,Win32,60,,,,,,,,,,1,,,,,,,,,,,,,,,,,,,,,,,,,,,,,,,,,,,,,,,,5,zapato,,,0,0,0.799115,0,82,82,4,1,REAL,FAKE,,,,,,,,,,,,,,,,,,,,,
,,,,,,,5efb5360f3f69c084c1ca850,605b45a4d25f287719a41696,6060ed87985ae0e0f21a3440,I am not familiar with Spanish,East coast,13 or older,no,2021-03-28_16h57.23.262,empathy_intonation_perc,2020.2.10,Win32,60,,,,,,,,,,0,,,,,,,,,,,,,,,,,,,,,,,,,,,,,,,,,,,,,,,,79,tropaje,,,0,1,0.56447,0,83,83,78,1,REAL,FAKE,,,,,,,,,,,,,,,,,,,,,
,,,,,,,5efb5360f3f69c084c1ca850,605b45a4d25f287719a41696,6060ed87985ae0e0f21a3440,I am not familiar with Spanish,East coast,13 or older,no,2021-03-28_16h57.23.262,empathy_intonation_perc,2020.2.10,Win32,60,,,,,,,,,,0,,,,,,,,,,,,,,,,,,,,,,,,,,,,,,,,,,,,,,,,19,brecedad,,,0,1,0.543835,0,84,84,18,1,REAL,FAKE,,,,,,,,,,,,,,,,,,,,,
