instructions_2afc_loop.thisRepN,instructions_2afc_loop.thisTrialN,instructions_2afc_loop.thisN,instructions_2afc_loop.thisIndex,instructions_2afc_loop.ran,instructions_text,continue_text,participant,study_id,session,I am most familiar with Spanish from...*,What part of the US are you from?*,At what age did you begin learning Spanish?*,Are you proficient in any languages other than English/Spanish?*,date,expName,psychopyVersion,OS,frameRate,key_resp_2afc_practice.keys,key_resp_2afc_practice.corr,key_resp_2afc_practice.rt,trials_2afc_practice_loop.thisRepN,trials_2afc_practice_loop.thisTrialN,trials_2afc_practice_loop.thisN,trials_2afc_practice_loop.thisIndex,trials_2afc_practice_loop.ran,path,correct_response,the_col,key_resp_2afc_trial.keys,key_resp_2afc_trial.corr,key_resp_2afc_trial.rt,trials_2afc_loop.thisRepN,trials_2afc_loop.thisTrialN,trials_2afc_loop.thisN,trials_2afc_loop.thisIndex,trials_2afc_loop.ran,item_num,andalusian,argentine,castilian,chilean,cuban,mexican,peruvian,puertorican,key_resp_ac1.keys,key_resp_ac1.corr,key_resp_ac1.rt,ac1_loop.thisRepN,ac1_loop.thisTrialN,ac1_loop.thisN,ac1_loop.thisIndex,ac1_loop.ran,instructions_lextale_loop.thisRepN,instructions_lextale_loop.thisTrialN,instructions_lextale_loop.thisN,instructions_lextale_loop.thisIndex,instructions_lextale_loop.ran,key_resp_lextale_practice.keys,key_resp_lextale_practice.corr,key_resp_lextale_practice.rt,trials_lextale_practice_loop.thisRepN,trials_lextale_practice_loop.thisTrialN,trials_lextale_practice_loop.thisN,trials_lextale_practice_loop.thisIndex,trials_lextale_practice_loop.ran,stim,word,prac_button_real,prac_button_false,key_resp_lextale_trial.keys,key_resp_lextale_trial.corr,key_resp_lextale_trial.rt,trials_lextale_loop.thisRepN,trials_lextale_loop.thisTrialN,trials_lextale_loop.thisN,trials_lextale_loop.thisIndex,trials_lextale_loop.ran,button_real,button_false,key_resp_ac2.keys,key_resp_ac2.corr,key_resp_ac2.rt,check_pass,check_fails,ac2_loop.thisRepN,ac2_loop.thisTrialN,ac2_loop.thisN,ac2_loop.thisIndex,ac2_loop.ran,slider_eq_trial.response,trials_eq_loop.thisRepN,trials_eq_loop.thisTrialN,trials_eq_loop.thisN,trials_eq_loop.thisIndex,trials_eq_loop.ran,item,is_test_item,is_distractor,is_agree_score,is_disagree_score
0,0,0,0,1,"In the following task you are going to hear a series of utterances. 

  You will decide if the utterances sound like questions or not using your keyboard.",(press the spacebar to continue),5f121091e95fdc03b5e897d0,605b45a4d25f287719a41696,60623c4f0bb3054a1dc8f8af,Mexico,Midwest,13 or older,no,2021-03-29_16h46.00.134,empathy_intonation_perc,2020.2.10,Win32,60,,,,,,,,,,,,,,,,,,,,,,,,,,,,,,,,,,,,,,,,,,,,,,,,,,,,,,,,,,,,,,,,,,,,,,,,,,,,,,,,,,,,
0,1,1,1,1,"If you believe the utterance is a question, type '1' (for 'yes') and if you do not 
  believe it is a question type '0' (for 'no').

  Let's practice a bit...",(press the spacebar to continue),5f121091e95fdc03b5e897d0,605b45a4d25f287719a41696,60623c4f0bb3054a1dc8f8af,Mexico,Midwest,13 or older,no,2021-03-29_16h46.00.134,empathy_intonation_perc,2020.2.10,Win32,60,,,,,,,,,,,,,,,,,,,,,,,,,,,,,,,,,,,,,,,,,,,,,,,,,,,,,,,,,,,,,,,,,,,,,,,,,,,,,,,,,,,,
,,,,,,,5f121091e95fdc03b5e897d0,605b45a4d25f287719a41696,60623c4f0bb3054a1dc8f8af,Mexico,Midwest,13 or older,no,2021-03-29_16h46.00.134,empathy_intonation_perc,2020.2.10,Win32,60,1,1,2.766765,0,0,0,0,1,./stim/wavs/castilian_question_filler_Mi-esposo-conoce-al-chico.wav,1,,,,,,,,,,,,,,,,,,,,,,,,,,,,,,,,,,,,,,,,,,,,,,,,,,,,,,,,,,,,,,,,,,,,,,,,,,
,,,,,,,5f121091e95fdc03b5e897d0,605b45a4d25f287719a41696,60623c4f0bb3054a1dc8f8af,Mexico,Midwest,13 or older,no,2021-03-29_16h46.00.134,empathy_intonation_perc,2020.2.10,Win32,60,0,0,2.300335,0,1,1,2,1,./stim/wavs/chilean_question_filler_Mi-padre-cantaba-bien.wav,1,,,,,,,,,,,,,,,,,,,,,,,,,,,,,,,,,,,,,,,,,,,,,,,,,,,,,,,,,,,,,,,,,,,,,,,,,,
,,,,,,,5f121091e95fdc03b5e897d0,605b45a4d25f287719a41696,60623c4f0bb3054a1dc8f8af,Mexico,Midwest,13 or older,no,2021-03-29_16h46.00.134,empathy_intonation_perc,2020.2.10,Win32,60,1,1,1.772895,0,2,2,3,1,./stim/wavs/mexican_question_filler_Felipe-no-tiene-contrasena.wav,1,,,,,,,,,,,,,,,,,,,,,,,,,,,,,,,,,,,,,,,,,,,,,,,,,,,,,,,,,,,,,,,,,,,,,,,,,,
,,,,,,,5f121091e95fdc03b5e897d0,605b45a4d25f287719a41696,60623c4f0bb3054a1dc8f8af,Mexico,Midwest,13 or older,no,2021-03-29_16h46.00.134,empathy_intonation_perc,2020.2.10,Win32,60,0,0,2.021575,0,3,3,1,1,./stim/wavs/argentine_question_filler_Mi-vecino-habla-mucho.wav,1,,,,,,,,,,,,,,,,,,,,,,,,,,,,,,,,,,,,,,,,,,,,,,,,,,,,,,,,,,,,,,,,,,,,,,,,,,
,,,,,,,5f121091e95fdc03b5e897d0,605b45a4d25f287719a41696,60623c4f0bb3054a1dc8f8af,Mexico,Midwest,13 or older,no,2021-03-29_16h46.00.134,empathy_intonation_perc,2020.2.10,Win32,60,0,1,1.734095,0,4,4,5,1,./stim/wavs/andalusian_statement_filler_Alberto-nunca-se-afeita.wav,0,,,,,,,,,,,,,,,,,,,,,,,,,,,,,,,,,,,,,,,,,,,,,,,,,,,,,,,,,,,,,,,,,,,,,,,,,,
,,,,,,,5f121091e95fdc03b5e897d0,605b45a4d25f287719a41696,60623c4f0bb3054a1dc8f8af,Mexico,Midwest,13 or older,no,2021-03-29_16h46.00.134,empathy_intonation_perc,2020.2.10,Win32,60,0,1,1.71808,0,5,5,7,1,./stim/wavs/puertorican_statement_filler_La-nina-pinta-con-su-amiga.wav,0,,,,,,,,,,,,,,,,,,,,,,,,,,,,,,,,,,,,,,,,,,,,,,,,,,,,,,,,,,,,,,,,,,,,,,,,,,
,,,,,,,5f121091e95fdc03b5e897d0,605b45a4d25f287719a41696,60623c4f0bb3054a1dc8f8af,Mexico,Midwest,13 or older,no,2021-03-29_16h46.00.134,empathy_intonation_perc,2020.2.10,Win32,60,0,1,2.10423,0,6,6,6,1,./stim/wavs/peruvian_statement_filler_El-nino-habla-con-su-madre.wav,0,,,,,,,,,,,,,,,,,,,,,,,,,,,,,,,,,,,,,,,,,,,,,,,,,,,,,,,,,,,,,,,,,,,,,,,,,,
,,,,,,,5f121091e95fdc03b5e897d0,605b45a4d25f287719a41696,60623c4f0bb3054a1dc8f8af,Mexico,Midwest,13 or older,no,2021-03-29_16h46.00.134,empathy_intonation_perc,2020.2.10,Win32,60,0,1,1.50883,0,7,7,4,1,./stim/wavs/cuban_statement_filler_Cocinabas-por-la-noche.wav,0,,,,,,,,,,,,,,,,,,,,,,,,,,,,,,,,,,,,,,,,,,,,,,,,,,,,,,,,,,,,,,,,,,,,,,,,,,
,,,,,,,5f121091e95fdc03b5e897d0,605b45a4d25f287719a41696,60623c4f0bb3054a1dc8f8af,Mexico,Midwest,13 or older,no,2021-03-29_16h46.00.134,empathy_intonation_perc,2020.2.10,Win32,60,,,,,,,,,,1,mexican,1,1,1.689295,0,0,0,60,1,61,./stim/wavs/andalusian_mismatch_interrogative-total-yn_La-nina-lava-el-plato.wav,./stim/wavs/argentine_mismatch_interrogative-total-yn_La-nina-lava-el-plato.wav,./stim/wavs/castilian_mismatch_interrogative-total-yn_La-nina-lava-el-plato.wav,./stim/wavs/chilean_mismatch_interrogative-total-yn_La-nina-lava-el-plato.wav,./stim/wavs/cuban_mismatch_interrogative-total-yn_La-nina-lava-el-plato.wav,./stim/wavs/mexican_mismatch_interrogative-total-yn_La-nina-lava-el-plato.wav,./stim/wavs/peruvian_mismatch_interrogative-total-yn_La-nina-lava-el-plato.wav,./stim/wavs/puertorican_mismatch_interrogative-total-yn_La-nina-lava-el-plato.wav,,,,,,,,,,,,,,,,,,,,,,,,,,,,,,,,,,,,,,,,,,,,,,,,,,,,,,,,
,,,,,,,5f121091e95fdc03b5e897d0,605b45a4d25f287719a41696,60623c4f0bb3054a1dc8f8af,Mexico,Midwest,13 or older,no,2021-03-29_16h46.00.134,empathy_intonation_perc,2020.2.10,Win32,60,,,,,,,,,,1,andalusian,0,0,1.755945,0,1,1,59,1,60,./stim/wavs/andalusian_mismatch_interrogative-total-yn_La-maestra-vive-en-Paris.wav,./stim/wavs/argentine_mismatch_interrogative-total-yn_La-maestra-vive-en-Paris.wav,./stim/wavs/castilian_mismatch_interrogative-total-yn_La-maestra-vive-en-Paris.wav,./stim/wavs/chilean_mismatch_interrogative-total-yn_La-maestra-vive-en-Paris.wav,./stim/wavs/cuban_mismatch_interrogative-total-yn_La-maestra-vive-en-Paris.wav,./stim/wavs/mexican_mismatch_interrogative-total-yn_La-maestra-vive-en-Paris.wav,./stim/wavs/peruvian_mismatch_interrogative-total-yn_La-maestra-vive-en-Paris.wav,./stim/wavs/puertorican_mismatch_interrogative-total-yn_La-maestra-vive-en-Paris.wav,,,,,,,,,,,,,,,,,,,,,,,,,,,,,,,,,,,,,,,,,,,,,,,,,,,,,,,,
,,,,,,,5f121091e95fdc03b5e897d0,605b45a4d25f287719a41696,60623c4f0bb3054a1dc8f8af,Mexico,Midwest,13 or older,no,2021-03-29_16h46.00.134,empathy_intonation_perc,2020.2.10,Win32,60,,,,,,,,,,0,chilean,0,1,1.72654,0,2,2,47,1,48,./stim/wavs/andalusian_mismatch_declarative-narrow-focus_Mi-tia-odia-la-lluvia.wav,./stim/wavs/argentine_mismatch_declarative-narrow-focus_Mi-tia-odia-la-lluvia.wav,./stim/wavs/castilian_mismatch_declarative-narrow-focus_Mi-tia-odia-la-lluvia.wav,./stim/wavs/chilean_mismatch_declarative-narrow-focus_Mi-tia-odia-la-lluvia.wav,./stim/wavs/cuban_mismatch_declarative-narrow-focus_Mi-tia-odia-la-lluvia.wav,./stim/wavs/mexican_mismatch_declarative-narrow-focus_Mi-tia-odia-la-lluvia.wav,./stim/wavs/peruvian_mismatch_declarative-narrow-focus_Mi-tia-odia-la-lluvia.wav,./stim/wavs/puertorican_mismatch_declarative-narrow-focus_Mi-tia-odia-la-lluvia.wav,,,,,,,,,,,,,,,,,,,,,,,,,,,,,,,,,,,,,,,,,,,,,,,,,,,,,,,,
,,,,,,,5f121091e95fdc03b5e897d0,605b45a4d25f287719a41696,60623c4f0bb3054a1dc8f8af,Mexico,Midwest,13 or older,no,2021-03-29_16h46.00.134,empathy_intonation_perc,2020.2.10,Win32,60,,,,,,,,,,0,puertorican,0,1,1.46893,0,3,3,39,1,40,./stim/wavs/andalusian_mismatch_declarative-broad-focus_Mi-tia-odia-la-lluvia.wav,./stim/wavs/argentine_mismatch_declarative-broad-focus_Mi-tia-odia-la-lluvia.wav,./stim/wavs/castilian_mismatch_declarative-broad-focus_Mi-tia-odia-la-lluvia.wav,./stim/wavs/chilean_mismatch_declarative-broad-focus_Mi-tia-odia-la-lluvia.wav,./stim/wavs/cuban_mismatch_declarative-broad-focus_Mi-tia-odia-la-lluvia.wav,./stim/wavs/mexican_mismatch_declarative-broad-focus_Mi-tia-odia-la-lluvia.wav,./stim/wavs/peruvian_mismatch_declarative-broad-focus_Mi-tia-odia-la-lluvia.wav,./stim/wavs/puertorican_mismatch_declarative-broad-focus_Mi-tia-odia-la-lluvia.wav,,,,,,,,,,,,,,,,,,,,,,,,,,,,,,,,,,,,,,,,,,,,,,,,,,,,,,,,
,,,,,,,5f121091e95fdc03b5e897d0,605b45a4d25f287719a41696,60623c4f0bb3054a1dc8f8af,Mexico,Midwest,13 or older,no,2021-03-29_16h46.00.134,empathy_intonation_perc,2020.2.10,Win32,60,,,,,,,,,,0,puertorican,0,1,1.536295,0,4,4,45,1,46,./stim/wavs/andalusian_mismatch_declarative-narrow-focus_Mi-madre-come-la-fruta.wav,./stim/wavs/argentine_mismatch_declarative-narrow-focus_Mi-madre-come-la-fruta.wav,./stim/wavs/castilian_mismatch_declarative-narrow-focus_Mi-madre-come-la-fruta.wav,./stim/wavs/chilean_mismatch_declarative-narrow-focus_Mi-madre-come-la-fruta.wav,./stim/wavs/cuban_mismatch_declarative-narrow-focus_Mi-madre-come-la-fruta.wav,./stim/wavs/mexican_mismatch_declarative-narrow-focus_Mi-madre-come-la-fruta.wav,./stim/wavs/peruvian_mismatch_declarative-narrow-focus_Mi-madre-come-la-fruta.wav,./stim/wavs/puertorican_mismatch_declarative-narrow-focus_Mi-madre-come-la-fruta.wav,,,,,,,,,,,,,,,,,,,,,,,,,,,,,,,,,,,,,,,,,,,,,,,,,,,,,,,,
,,,,,,,5f121091e95fdc03b5e897d0,605b45a4d25f287719a41696,60623c4f0bb3054a1dc8f8af,Mexico,Midwest,13 or older,no,2021-03-29_16h46.00.134,empathy_intonation_perc,2020.2.10,Win32,60,,,,,,,,,,0,chilean,0,1,1.31266,0,5,5,12,1,13,./stim/wavs/andalusian_match_declarative-narrow-focus_Manuela-vende-el-carro.wav,./stim/wavs/argentine_match_declarative-narrow-focus_Manuela-vende-el-carro.wav,./stim/wavs/castilian_match_declarative-narrow-focus_Manuela-vende-el-carro.wav,./stim/wavs/chilean_match_declarative-narrow-focus_Manuela-vende-el-carro.wav,./stim/wavs/cuban_match_declarative-narrow-focus_Manuela-vende-el-carro.wav,./stim/wavs/mexican_match_declarative-narrow-focus_Manuela-vende-el-carro.wav,./stim/wavs/peruvian_match_declarative-narrow-focus_Manuela-vende-el-carro.wav,./stim/wavs/puertorican_match_declarative-narrow-focus_Manuela-vende-el-carro.wav,,,,,,,,,,,,,,,,,,,,,,,,,,,,,,,,,,,,,,,,,,,,,,,,,,,,,,,,
,,,,,,,5f121091e95fdc03b5e897d0,605b45a4d25f287719a41696,60623c4f0bb3054a1dc8f8af,Mexico,Midwest,13 or older,no,2021-03-29_16h46.00.134,empathy_intonation_perc,2020.2.10,Win32,60,,,,,,,,,,1,mexican,1,1,1.55311,0,6,6,28,1,29,./stim/wavs/andalusian_match_interrogative-total-yn_Manuela-vende-el-carro.wav,./stim/wavs/argentine_match_interrogative-total-yn_Manuela-vende-el-carro.wav,./stim/wavs/castilian_match_interrogative-total-yn_Manuela-vende-el-carro.wav,./stim/wavs/chilean_match_interrogative-total-yn_Manuela-vende-el-carro.wav,./stim/wavs/cuban_match_interrogative-total-yn_Manuela-vende-el-carro.wav,./stim/wavs/mexican_match_interrogative-total-yn_Manuela-vende-el-carro.wav,./stim/wavs/peruvian_match_interrogative-total-yn_Manuela-vende-el-carro.wav,./stim/wavs/puertorican_match_interrogative-total-yn_Manuela-vende-el-carro.wav,,,,,,,,,,,,,,,,,,,,,,,,,,,,,,,,,,,,,,,,,,,,,,,,,,,,,,,,
,,,,,,,5f121091e95fdc03b5e897d0,605b45a4d25f287719a41696,60623c4f0bb3054a1dc8f8af,Mexico,Midwest,13 or older,no,2021-03-29_16h46.00.134,empathy_intonation_perc,2020.2.10,Win32,60,,,,,,,,,,1,puertorican,0,0,1.48544,0,7,7,51,1,52,./stim/wavs/andalusian_mismatch_interrogative-partial-wh_Por-que-desayuna-muy-bien.wav,./stim/wavs/argentine_mismatch_interrogative-partial-wh_Por-que-desayuna-muy-bien.wav,./stim/wavs/castilian_mismatch_interrogative-partial-wh_Por-que-desayuna-muy-bien.wav,./stim/wavs/chilean_mismatch_interrogative-partial-wh_Por-que-desayuna-muy-bien.wav,./stim/wavs/cuban_mismatch_interrogative-partial-wh_Por-que-desayuna-muy-bien.wav,./stim/wavs/mexican_mismatch_interrogative-partial-wh_Por-que-desayuna-muy-bien.wav,./stim/wavs/peruvian_mismatch_interrogative-partial-wh_Por-que-desayuna-muy-bien.wav,./stim/wavs/puertorican_mismatch_interrogative-partial-wh_Por-que-desayuna-muy-bien.wav,,,,,,,,,,,,,,,,,,,,,,,,,,,,,,,,,,,,,,,,,,,,,,,,,,,,,,,,
,,,,,,,5f121091e95fdc03b5e897d0,605b45a4d25f287719a41696,60623c4f0bb3054a1dc8f8af,Mexico,Midwest,13 or older,no,2021-03-29_16h46.00.134,empathy_intonation_perc,2020.2.10,Win32,60,,,,,,,,,,0,cuban,0,1,1.48658,0,8,8,0,1,1,./stim/wavs/andalusian_match_declarative-broad-focus_Ana-lleva-el-abrigo.wav,./stim/wavs/argentine_match_declarative-broad-focus_Ana-lleva-el-abrigo.wav,./stim/wavs/castilian_match_declarative-broad-focus_Ana-lleva-el-abrigo.wav,./stim/wavs/chilean_match_declarative-broad-focus_Ana-lleva-el-abrigo.wav,./stim/wavs/cuban_match_declarative-broad-focus_Ana-lleva-el-abrigo.wav,./stim/wavs/mexican_match_declarative-broad-focus_Ana-lleva-el-abrigo.wav,./stim/wavs/peruvian_match_declarative-broad-focus_Ana-lleva-el-abrigo.wav,./stim/wavs/puertorican_match_declarative-broad-focus_Ana-lleva-el-abrigo.wav,,,,,,,,,,,,,,,,,,,,,,,,,,,,,,,,,,,,,,,,,,,,,,,,,,,,,,,,
,,,,,,,5f121091e95fdc03b5e897d0,605b45a4d25f287719a41696,60623c4f0bb3054a1dc8f8af,Mexico,Midwest,13 or older,no,2021-03-29_16h46.00.134,empathy_intonation_perc,2020.2.10,Win32,60,,,,,,,,,,1,andalusian,1,1,1.32332,0,9,9,22,1,23,./stim/wavs/andalusian_match_interrogative-partial-wh_Por-que-hablaba-del-agua.wav,./stim/wavs/argentine_match_interrogative-partial-wh_Por-que-hablaba-del-agua.wav,./stim/wavs/castilian_match_interrogative-partial-wh_Por-que-hablaba-del-agua.wav,./stim/wavs/chilean_match_interrogative-partial-wh_Por-que-hablaba-del-agua.wav,./stim/wavs/cuban_match_interrogative-partial-wh_Por-que-hablaba-del-agua.wav,./stim/wavs/mexican_match_interrogative-partial-wh_Por-que-hablaba-del-agua.wav,./stim/wavs/peruvian_match_interrogative-partial-wh_Por-que-hablaba-del-agua.wav,./stim/wavs/puertorican_match_interrogative-partial-wh_Por-que-hablaba-del-agua.wav,,,,,,,,,,,,,,,,,,,,,,,,,,,,,,,,,,,,,,,,,,,,,,,,,,,,,,,,
,,,,,,,5f121091e95fdc03b5e897d0,605b45a4d25f287719a41696,60623c4f0bb3054a1dc8f8af,Mexico,Midwest,13 or older,no,2021-03-29_16h46.00.134,empathy_intonation_perc,2020.2.10,Win32,60,,,,,,,,,,1,argentine,0,0,1.74388,0,10,10,27,1,28,./stim/wavs/andalusian_match_interrogative-total-yn_Emilio-ama-la-marcha.wav,./stim/wavs/argentine_match_interrogative-total-yn_Emilio-ama-la-marcha.wav,./stim/wavs/castilian_match_interrogative-total-yn_Emilio-ama-la-marcha.wav,./stim/wavs/chilean_match_interrogative-total-yn_Emilio-ama-la-marcha.wav,./stim/wavs/cuban_match_interrogative-total-yn_Emilio-ama-la-marcha.wav,./stim/wavs/mexican_match_interrogative-total-yn_Emilio-ama-la-marcha.wav,./stim/wavs/peruvian_match_interrogative-total-yn_Emilio-ama-la-marcha.wav,./stim/wavs/puertorican_match_interrogative-total-yn_Emilio-ama-la-marcha.wav,,,,,,,,,,,,,,,,,,,,,,,,,,,,,,,,,,,,,,,,,,,,,,,,,,,,,,,,
,,,,,,,5f121091e95fdc03b5e897d0,605b45a4d25f287719a41696,60623c4f0bb3054a1dc8f8af,Mexico,Midwest,13 or older,no,2021-03-29_16h46.00.134,empathy_intonation_perc,2020.2.10,Win32,60,,,,,,,,,,0,mexican,0,1,1.32687,0,11,11,8,1,9,./stim/wavs/andalusian_match_declarative-narrow-focus_Ana-lleva-el-abrigo.wav,./stim/wavs/argentine_match_declarative-narrow-focus_Ana-lleva-el-abrigo.wav,./stim/wavs/castilian_match_declarative-narrow-focus_Ana-lleva-el-abrigo.wav,./stim/wavs/chilean_match_declarative-narrow-focus_Ana-lleva-el-abrigo.wav,./stim/wavs/cuban_match_declarative-narrow-focus_Ana-lleva-el-abrigo.wav,./stim/wavs/mexican_match_declarative-narrow-focus_Ana-lleva-el-abrigo.wav,./stim/wavs/peruvian_match_declarative-narrow-focus_Ana-lleva-el-abrigo.wav,./stim/wavs/puertorican_match_declarative-narrow-focus_Ana-lleva-el-abrigo.wav,,,,,,,,,,,,,,,,,,,,,,,,,,,,,,,,,,,,,,,,,,,,,,,,,,,,,,,,
,,,,,,,5f121091e95fdc03b5e897d0,605b45a4d25f287719a41696,60623c4f0bb3054a1dc8f8af,Mexico,Midwest,13 or older,no,2021-03-29_16h46.00.134,empathy_intonation_perc,2020.2.10,Win32,60,,,,,,,,,,1,andalusian,0,0,1.686345,0,12,12,48,1,49,./stim/wavs/andalusian_mismatch_interrogative-partial-wh_Cuando-comia-la-fruta.wav,./stim/wavs/argentine_mismatch_interrogative-partial-wh_Cuando-comia-la-fruta.wav,./stim/wavs/castilian_mismatch_interrogative-partial-wh_Cuando-comia-la-fruta.wav,./stim/wavs/chilean_mismatch_interrogative-partial-wh_Cuando-comia-la-fruta.wav,./stim/wavs/cuban_mismatch_interrogative-partial-wh_Cuando-comia-la-fruta.wav,./stim/wavs/mexican_mismatch_interrogative-partial-wh_Cuando-comia-la-fruta.wav,./stim/wavs/peruvian_mismatch_interrogative-partial-wh_Cuando-comia-la-fruta.wav,./stim/wavs/puertorican_mismatch_interrogative-partial-wh_Cuando-comia-la-fruta.wav,,,,,,,,,,,,,,,,,,,,,,,,,,,,,,,,,,,,,,,,,,,,,,,,,,,,,,,,
,,,,,,,5f121091e95fdc03b5e897d0,605b45a4d25f287719a41696,60623c4f0bb3054a1dc8f8af,Mexico,Midwest,13 or older,no,2021-03-29_16h46.00.134,empathy_intonation_perc,2020.2.10,Win32,60,,,,,,,,,,1,argentine,0,0,1.487115,0,13,13,29,1,30,./stim/wavs/andalusian_match_interrogative-total-yn_Maria-bebe-el-vino.wav,./stim/wavs/argentine_match_interrogative-total-yn_Maria-bebe-el-vino.wav,./stim/wavs/castilian_match_interrogative-total-yn_Maria-bebe-el-vino.wav,./stim/wavs/chilean_match_interrogative-total-yn_Maria-bebe-el-vino.wav,./stim/wavs/cuban_match_interrogative-total-yn_Maria-bebe-el-vino.wav,./stim/wavs/mexican_match_interrogative-total-yn_Maria-bebe-el-vino.wav,./stim/wavs/peruvian_match_interrogative-total-yn_Maria-bebe-el-vino.wav,./stim/wavs/puertorican_match_interrogative-total-yn_Maria-bebe-el-vino.wav,,,,,,,,,,,,,,,,,,,,,,,,,,,,,,,,,,,,,,,,,,,,,,,,,,,,,,,,
,,,,,,,5f121091e95fdc03b5e897d0,605b45a4d25f287719a41696,60623c4f0bb3054a1dc8f8af,Mexico,Midwest,13 or older,no,2021-03-29_16h46.00.134,empathy_intonation_perc,2020.2.10,Win32,60,,,,,,,,,,0,castilian,0,1,1.46518,0,14,14,5,1,6,./stim/wavs/andalusian_match_declarative-broad-focus_Maria-bebe-el-vino.wav,./stim/wavs/argentine_match_declarative-broad-focus_Maria-bebe-el-vino.wav,./stim/wavs/castilian_match_declarative-broad-focus_Maria-bebe-el-vino.wav,./stim/wavs/chilean_match_declarative-broad-focus_Maria-bebe-el-vino.wav,./stim/wavs/cuban_match_declarative-broad-focus_Maria-bebe-el-vino.wav,./stim/wavs/mexican_match_declarative-broad-focus_Maria-bebe-el-vino.wav,./stim/wavs/peruvian_match_declarative-broad-focus_Maria-bebe-el-vino.wav,./stim/wavs/puertorican_match_declarative-broad-focus_Maria-bebe-el-vino.wav,,,,,,,,,,,,,,,,,,,,,,,,,,,,,,,,,,,,,,,,,,,,,,,,,,,,,,,,
,,,,,,,5f121091e95fdc03b5e897d0,605b45a4d25f287719a41696,60623c4f0bb3054a1dc8f8af,Mexico,Midwest,13 or older,no,2021-03-29_16h46.00.134,empathy_intonation_perc,2020.2.10,Win32,60,,,,,,,,,,1,chilean,1,1,1.4133,0,15,15,57,1,58,./stim/wavs/andalusian_mismatch_interrogative-total-yn_El-hombre-mira-la-luna.wav,./stim/wavs/argentine_mismatch_interrogative-total-yn_El-hombre-mira-la-luna.wav,./stim/wavs/castilian_mismatch_interrogative-total-yn_El-hombre-mira-la-luna.wav,./stim/wavs/chilean_mismatch_interrogative-total-yn_El-hombre-mira-la-luna.wav,./stim/wavs/cuban_mismatch_interrogative-total-yn_El-hombre-mira-la-luna.wav,./stim/wavs/mexican_mismatch_interrogative-total-yn_El-hombre-mira-la-luna.wav,./stim/wavs/peruvian_mismatch_interrogative-total-yn_El-hombre-mira-la-luna.wav,./stim/wavs/puertorican_mismatch_interrogative-total-yn_El-hombre-mira-la-luna.wav,,,,,,,,,,,,,,,,,,,,,,,,,,,,,,,,,,,,,,,,,,,,,,,,,,,,,,,,
,,,,,,,5f121091e95fdc03b5e897d0,605b45a4d25f287719a41696,60623c4f0bb3054a1dc8f8af,Mexico,Midwest,13 or older,no,2021-03-29_16h46.00.134,empathy_intonation_perc,2020.2.10,Win32,60,,,,,,,,,,0,peruvian,0,1,1.545305,0,16,16,1,1,2,./stim/wavs/andalusian_match_declarative-broad-focus_Daniel-iba-a-Bolivia.wav,./stim/wavs/argentine_match_declarative-broad-focus_Daniel-iba-a-Bolivia.wav,./stim/wavs/castilian_match_declarative-broad-focus_Daniel-iba-a-Bolivia.wav,./stim/wavs/chilean_match_declarative-broad-focus_Daniel-iba-a-Bolivia.wav,./stim/wavs/cuban_match_declarative-broad-focus_Daniel-iba-a-Bolivia.wav,./stim/wavs/mexican_match_declarative-broad-focus_Daniel-iba-a-Bolivia.wav,./stim/wavs/peruvian_match_declarative-broad-focus_Daniel-iba-a-Bolivia.wav,./stim/wavs/puertorican_match_declarative-broad-focus_Daniel-iba-a-Bolivia.wav,,,,,,,,,,,,,,,,,,,,,,,,,,,,,,,,,,,,,,,,,,,,,,,,,,,,,,,,
,,,,,,,5f121091e95fdc03b5e897d0,605b45a4d25f287719a41696,60623c4f0bb3054a1dc8f8af,Mexico,Midwest,13 or older,no,2021-03-29_16h46.00.134,empathy_intonation_perc,2020.2.10,Win32,60,,,,,,,,,,0,chilean,0,1,1.260285,0,17,17,2,1,3,./stim/wavs/andalusian_match_declarative-broad-focus_David-leia-el-libro.wav,./stim/wavs/argentine_match_declarative-broad-focus_David-leia-el-libro.wav,./stim/wavs/castilian_match_declarative-broad-focus_David-leia-el-libro.wav,./stim/wavs/chilean_match_declarative-broad-focus_David-leia-el-libro.wav,./stim/wavs/cuban_match_declarative-broad-focus_David-leia-el-libro.wav,./stim/wavs/mexican_match_declarative-broad-focus_David-leia-el-libro.wav,./stim/wavs/peruvian_match_declarative-broad-focus_David-leia-el-libro.wav,./stim/wavs/puertorican_match_declarative-broad-focus_David-leia-el-libro.wav,,,,,,,,,,,,,,,,,,,,,,,,,,,,,,,,,,,,,,,,,,,,,,,,,,,,,,,,
,,,,,,,5f121091e95fdc03b5e897d0,605b45a4d25f287719a41696,60623c4f0bb3054a1dc8f8af,Mexico,Midwest,13 or older,no,2021-03-29_16h46.00.134,empathy_intonation_perc,2020.2.10,Win32,60,,,,,,,,,,1,peruvian,0,0,1.401395,0,18,18,26,1,27,./stim/wavs/andalusian_match_interrogative-total-yn_David-leia-el-libro.wav,./stim/wavs/argentine_match_interrogative-total-yn_David-leia-el-libro.wav,./stim/wavs/castilian_match_interrogative-total-yn_David-leia-el-libro.wav,./stim/wavs/chilean_match_interrogative-total-yn_David-leia-el-libro.wav,./stim/wavs/cuban_match_interrogative-total-yn_David-leia-el-libro.wav,./stim/wavs/mexican_match_interrogative-total-yn_David-leia-el-libro.wav,./stim/wavs/peruvian_match_interrogative-total-yn_David-leia-el-libro.wav,./stim/wavs/puertorican_match_interrogative-total-yn_David-leia-el-libro.wav,,,,,,,,,,,,,,,,,,,,,,,,,,,,,,,,,,,,,,,,,,,,,,,,,,,,,,,,
,,,,,,,5f121091e95fdc03b5e897d0,605b45a4d25f287719a41696,60623c4f0bb3054a1dc8f8af,Mexico,Midwest,13 or older,no,2021-03-29_16h46.00.134,empathy_intonation_perc,2020.2.10,Win32,60,,,,,,,,,,0,peruvian,0,1,1.522695,0,19,19,15,1,16,./stim/wavs/andalusian_match_declarative-narrow-focus_Marta-abre-el-regalo.wav,./stim/wavs/argentine_match_declarative-narrow-focus_Marta-abre-el-regalo.wav,./stim/wavs/castilian_match_declarative-narrow-focus_Marta-abre-el-regalo.wav,./stim/wavs/chilean_match_declarative-narrow-focus_Marta-abre-el-regalo.wav,./stim/wavs/cuban_match_declarative-narrow-focus_Marta-abre-el-regalo.wav,./stim/wavs/mexican_match_declarative-narrow-focus_Marta-abre-el-regalo.wav,./stim/wavs/peruvian_match_declarative-narrow-focus_Marta-abre-el-regalo.wav,./stim/wavs/puertorican_match_declarative-narrow-focus_Marta-abre-el-regalo.wav,,,,,,,,,,,,,,,,,,,,,,,,,,,,,,,,,,,,,,,,,,,,,,,,,,,,,,,,
,,,,,,,5f121091e95fdc03b5e897d0,605b45a4d25f287719a41696,60623c4f0bb3054a1dc8f8af,Mexico,Midwest,13 or older,no,2021-03-29_16h46.00.134,empathy_intonation_perc,2020.2.10,Win32,60,,,,,,,,,,1,peruvian,0,0,1.74515,0,20,20,30,1,31,./stim/wavs/andalusian_match_interrogative-total-yn_Mariano-habla-del-tiempo.wav,./stim/wavs/argentine_match_interrogative-total-yn_Mariano-habla-del-tiempo.wav,./stim/wavs/castilian_match_interrogative-total-yn_Mariano-habla-del-tiempo.wav,./stim/wavs/chilean_match_interrogative-total-yn_Mariano-habla-del-tiempo.wav,./stim/wavs/cuban_match_interrogative-total-yn_Mariano-habla-del-tiempo.wav,./stim/wavs/mexican_match_interrogative-total-yn_Mariano-habla-del-tiempo.wav,./stim/wavs/peruvian_match_interrogative-total-yn_Mariano-habla-del-tiempo.wav,./stim/wavs/puertorican_match_interrogative-total-yn_Mariano-habla-del-tiempo.wav,,,,,,,,,,,,,,,,,,,,,,,,,,,,,,,,,,,,,,,,,,,,,,,,,,,,,,,,
,,,,,,,5f121091e95fdc03b5e897d0,605b45a4d25f287719a41696,60623c4f0bb3054a1dc8f8af,Mexico,Midwest,13 or older,no,2021-03-29_16h46.00.134,empathy_intonation_perc,2020.2.10,Win32,60,,,,,,,,,,1,andalusian,1,1,1.397135,0,21,21,53,1,54,./stim/wavs/andalusian_mismatch_interrogative-partial-wh_Por-que-oia-el-rio.wav,./stim/wavs/argentine_mismatch_interrogative-partial-wh_Por-que-oia-el-rio.wav,./stim/wavs/castilian_mismatch_interrogative-partial-wh_Por-que-oia-el-rio.wav,./stim/wavs/chilean_mismatch_interrogative-partial-wh_Por-que-oia-el-rio.wav,./stim/wavs/cuban_mismatch_interrogative-partial-wh_Por-que-oia-el-rio.wav,./stim/wavs/mexican_mismatch_interrogative-partial-wh_Por-que-oia-el-rio.wav,./stim/wavs/peruvian_mismatch_interrogative-partial-wh_Por-que-oia-el-rio.wav,./stim/wavs/puertorican_mismatch_interrogative-partial-wh_Por-que-oia-el-rio.wav,,,,,,,,,,,,,,,,,,,,,,,,,,,,,,,,,,,,,,,,,,,,,,,,,,,,,,,,
,,,,,,,5f121091e95fdc03b5e897d0,605b45a4d25f287719a41696,60623c4f0bb3054a1dc8f8af,Mexico,Midwest,13 or older,no,2021-03-29_16h46.00.134,empathy_intonation_perc,2020.2.10,Win32,60,,,,,,,,,,0,castilian,0,1,1.47009,0,22,22,11,1,12,./stim/wavs/andalusian_match_declarative-narrow-focus_Emilio-ama-la-marcha.wav,./stim/wavs/argentine_match_declarative-narrow-focus_Emilio-ama-la-marcha.wav,./stim/wavs/castilian_match_declarative-narrow-focus_Emilio-ama-la-marcha.wav,./stim/wavs/chilean_match_declarative-narrow-focus_Emilio-ama-la-marcha.wav,./stim/wavs/cuban_match_declarative-narrow-focus_Emilio-ama-la-marcha.wav,./stim/wavs/mexican_match_declarative-narrow-focus_Emilio-ama-la-marcha.wav,./stim/wavs/peruvian_match_declarative-narrow-focus_Emilio-ama-la-marcha.wav,./stim/wavs/puertorican_match_declarative-narrow-focus_Emilio-ama-la-marcha.wav,,,,,,,,,,,,,,,,,,,,,,,,,,,,,,,,,,,,,,,,,,,,,,,,,,,,,,,,
,,,,,,,5f121091e95fdc03b5e897d0,605b45a4d25f287719a41696,60623c4f0bb3054a1dc8f8af,Mexico,Midwest,13 or older,no,2021-03-29_16h46.00.134,empathy_intonation_perc,2020.2.10,Win32,60,,,,,,,,,,0,puertorican,0,1,1.5962,0,23,23,37,1,38,./stim/wavs/andalusian_mismatch_declarative-broad-focus_Mi-madre-come-la-fruta.wav,./stim/wavs/argentine_mismatch_declarative-broad-focus_Mi-madre-come-la-fruta.wav,./stim/wavs/castilian_mismatch_declarative-broad-focus_Mi-madre-come-la-fruta.wav,./stim/wavs/chilean_mismatch_declarative-broad-focus_Mi-madre-come-la-fruta.wav,./stim/wavs/cuban_mismatch_declarative-broad-focus_Mi-madre-come-la-fruta.wav,./stim/wavs/mexican_mismatch_declarative-broad-focus_Mi-madre-come-la-fruta.wav,./stim/wavs/peruvian_mismatch_declarative-broad-focus_Mi-madre-come-la-fruta.wav,./stim/wavs/puertorican_mismatch_declarative-broad-focus_Mi-madre-come-la-fruta.wav,,,,,,,,,,,,,,,,,,,,,,,,,,,,,,,,,,,,,,,,,,,,,,,,,,,,,,,,
,,,,,,,5f121091e95fdc03b5e897d0,605b45a4d25f287719a41696,60623c4f0bb3054a1dc8f8af,Mexico,Midwest,13 or older,no,2021-03-29_16h46.00.134,empathy_intonation_perc,2020.2.10,Win32,60,,,,,,,,,,1,cuban,0,0,1.504165,0,24,24,20,1,21,./stim/wavs/andalusian_match_interrogative-partial-wh_Por-que-abre-el-regalo.wav,./stim/wavs/argentine_match_interrogative-partial-wh_Por-que-abre-el-regalo.wav,./stim/wavs/castilian_match_interrogative-partial-wh_Por-que-abre-el-regalo.wav,./stim/wavs/chilean_match_interrogative-partial-wh_Por-que-abre-el-regalo.wav,./stim/wavs/cuban_match_interrogative-partial-wh_Por-que-abre-el-regalo.wav,./stim/wavs/mexican_match_interrogative-partial-wh_Por-que-abre-el-regalo.wav,./stim/wavs/peruvian_match_interrogative-partial-wh_Por-que-abre-el-regalo.wav,./stim/wavs/puertorican_match_interrogative-partial-wh_Por-que-abre-el-regalo.wav,,,,,,,,,,,,,,,,,,,,,,,,,,,,,,,,,,,,,,,,,,,,,,,,,,,,,,,,
,,,,,,,5f121091e95fdc03b5e897d0,605b45a4d25f287719a41696,60623c4f0bb3054a1dc8f8af,Mexico,Midwest,13 or older,no,2021-03-29_16h46.00.134,empathy_intonation_perc,2020.2.10,Win32,60,,,,,,,,,,0,puertorican,0,1,1.635925,0,25,25,14,1,15,./stim/wavs/andalusian_match_declarative-narrow-focus_Mariano-habla-del-tiempo.wav,./stim/wavs/argentine_match_declarative-narrow-focus_Mariano-habla-del-tiempo.wav,./stim/wavs/castilian_match_declarative-narrow-focus_Mariano-habla-del-tiempo.wav,./stim/wavs/chilean_match_declarative-narrow-focus_Mariano-habla-del-tiempo.wav,./stim/wavs/cuban_match_declarative-narrow-focus_Mariano-habla-del-tiempo.wav,./stim/wavs/mexican_match_declarative-narrow-focus_Mariano-habla-del-tiempo.wav,./stim/wavs/peruvian_match_declarative-narrow-focus_Mariano-habla-del-tiempo.wav,./stim/wavs/puertorican_match_declarative-narrow-focus_Mariano-habla-del-tiempo.wav,,,,,,,,,,,,,,,,,,,,,,,,,,,,,,,,,,,,,,,,,,,,,,,,,,,,,,,,
,,,,,,,5f121091e95fdc03b5e897d0,605b45a4d25f287719a41696,60623c4f0bb3054a1dc8f8af,Mexico,Midwest,13 or older,no,2021-03-29_16h46.00.134,empathy_intonation_perc,2020.2.10,Win32,60,,,,,,,,,,0,peruvian,0,1,1.839535,0,26,26,42,1,43,./stim/wavs/andalusian_mismatch_declarative-narrow-focus_El-nino-oye-el-rio.wav,./stim/wavs/argentine_mismatch_declarative-narrow-focus_El-nino-oye-el-rio.wav,./stim/wavs/castilian_mismatch_declarative-narrow-focus_El-nino-oye-el-rio.wav,./stim/wavs/chilean_mismatch_declarative-narrow-focus_El-nino-oye-el-rio.wav,./stim/wavs/cuban_mismatch_declarative-narrow-focus_El-nino-oye-el-rio.wav,./stim/wavs/mexican_mismatch_declarative-narrow-focus_El-nino-oye-el-rio.wav,./stim/wavs/peruvian_mismatch_declarative-narrow-focus_El-nino-oye-el-rio.wav,./stim/wavs/puertorican_mismatch_declarative-narrow-focus_El-nino-oye-el-rio.wav,,,,,,,,,,,,,,,,,,,,,,,,,,,,,,,,,,,,,,,,,,,,,,,,,,,,,,,,
,,,,,,,5f121091e95fdc03b5e897d0,605b45a4d25f287719a41696,60623c4f0bb3054a1dc8f8af,Mexico,Midwest,13 or older,no,2021-03-29_16h46.00.134,empathy_intonation_perc,2020.2.10,Win32,60,,,,,,,,,,0,puertorican,0,1,1.63614,0,27,27,43,1,44,./stim/wavs/andalusian_mismatch_declarative-narrow-focus_La-maestra-vive-en-Paris.wav,./stim/wavs/argentine_mismatch_declarative-narrow-focus_La-maestra-vive-en-Paris.wav,./stim/wavs/castilian_mismatch_declarative-narrow-focus_La-maestra-vive-en-Paris.wav,./stim/wavs/chilean_mismatch_declarative-narrow-focus_La-maestra-vive-en-Paris.wav,./stim/wavs/cuban_mismatch_declarative-narrow-focus_La-maestra-vive-en-Paris.wav,./stim/wavs/mexican_mismatch_declarative-narrow-focus_La-maestra-vive-en-Paris.wav,./stim/wavs/peruvian_mismatch_declarative-narrow-focus_La-maestra-vive-en-Paris.wav,./stim/wavs/puertorican_mismatch_declarative-narrow-focus_La-maestra-vive-en-Paris.wav,,,,,,,,,,,,,,,,,,,,,,,,,,,,,,,,,,,,,,,,,,,,,,,,,,,,,,,,
,,,,,,,5f121091e95fdc03b5e897d0,605b45a4d25f287719a41696,60623c4f0bb3054a1dc8f8af,Mexico,Midwest,13 or older,no,2021-03-29_16h46.00.134,empathy_intonation_perc,2020.2.10,Win32,60,,,,,,,,,,1,cuban,0,0,1.404705,0,28,28,25,1,26,./stim/wavs/andalusian_match_interrogative-total-yn_Daniel-iba-a-Bolivia.wav,./stim/wavs/argentine_match_interrogative-total-yn_Daniel-iba-a-Bolivia.wav,./stim/wavs/castilian_match_interrogative-total-yn_Daniel-iba-a-Bolivia.wav,./stim/wavs/chilean_match_interrogative-total-yn_Daniel-iba-a-Bolivia.wav,./stim/wavs/cuban_match_interrogative-total-yn_Daniel-iba-a-Bolivia.wav,./stim/wavs/mexican_match_interrogative-total-yn_Daniel-iba-a-Bolivia.wav,./stim/wavs/peruvian_match_interrogative-total-yn_Daniel-iba-a-Bolivia.wav,./stim/wavs/puertorican_match_interrogative-total-yn_Daniel-iba-a-Bolivia.wav,,,,,,,,,,,,,,,,,,,,,,,,,,,,,,,,,,,,,,,,,,,,,,,,,,,,,,,,
,,,,,,,5f121091e95fdc03b5e897d0,605b45a4d25f287719a41696,60623c4f0bb3054a1dc8f8af,Mexico,Midwest,13 or older,no,2021-03-29_16h46.00.134,empathy_intonation_perc,2020.2.10,Win32,60,,,,,,,,,,1,chilean,0,0,1.2525,0,29,29,17,1,18,./stim/wavs/andalusian_match_interrogative-partial-wh_Cuando-leia-el-libro.wav,./stim/wavs/argentine_match_interrogative-partial-wh_Cuando-leia-el-libro.wav,./stim/wavs/castilian_match_interrogative-partial-wh_Cuando-leia-el-libro.wav,./stim/wavs/chilean_match_interrogative-partial-wh_Cuando-leia-el-libro.wav,./stim/wavs/cuban_match_interrogative-partial-wh_Cuando-leia-el-libro.wav,./stim/wavs/mexican_match_interrogative-partial-wh_Cuando-leia-el-libro.wav,./stim/wavs/peruvian_match_interrogative-partial-wh_Cuando-leia-el-libro.wav,./stim/wavs/puertorican_match_interrogative-partial-wh_Cuando-leia-el-libro.wav,,,,,,,,,,,,,,,,,,,,,,,,,,,,,,,,,,,,,,,,,,,,,,,,,,,,,,,,
,,,,,,,5f121091e95fdc03b5e897d0,605b45a4d25f287719a41696,60623c4f0bb3054a1dc8f8af,Mexico,Midwest,13 or older,no,2021-03-29_16h46.00.134,empathy_intonation_perc,2020.2.10,Win32,60,,,,,,,,,,1,chilean,0,0,1.489655,0,30,30,63,1,64,./stim/wavs/andalusian_mismatch_interrogative-total-yn_Mi-tia-odia-la-lluvia.wav,./stim/wavs/argentine_mismatch_interrogative-total-yn_Mi-tia-odia-la-lluvia.wav,./stim/wavs/castilian_mismatch_interrogative-total-yn_Mi-tia-odia-la-lluvia.wav,./stim/wavs/chilean_mismatch_interrogative-total-yn_Mi-tia-odia-la-lluvia.wav,./stim/wavs/cuban_mismatch_interrogative-total-yn_Mi-tia-odia-la-lluvia.wav,./stim/wavs/mexican_mismatch_interrogative-total-yn_Mi-tia-odia-la-lluvia.wav,./stim/wavs/peruvian_mismatch_interrogative-total-yn_Mi-tia-odia-la-lluvia.wav,./stim/wavs/puertorican_mismatch_interrogative-total-yn_Mi-tia-odia-la-lluvia.wav,,,,,,,,,,,,,,,,,,,,,,,,,,,,,,,,,,,,,,,,,,,,,,,,,,,,,,,,
,,,,,,,5f121091e95fdc03b5e897d0,605b45a4d25f287719a41696,60623c4f0bb3054a1dc8f8af,Mexico,Midwest,13 or older,no,2021-03-29_16h46.00.134,empathy_intonation_perc,2020.2.10,Win32,60,,,,,,,,,,0,cuban,0,1,1.5508,0,31,31,34,1,35,./stim/wavs/andalusian_mismatch_declarative-broad-focus_El-nino-oye-el-rio.wav,./stim/wavs/argentine_mismatch_declarative-broad-focus_El-nino-oye-el-rio.wav,./stim/wavs/castilian_mismatch_declarative-broad-focus_El-nino-oye-el-rio.wav,./stim/wavs/chilean_mismatch_declarative-broad-focus_El-nino-oye-el-rio.wav,./stim/wavs/cuban_mismatch_declarative-broad-focus_El-nino-oye-el-rio.wav,./stim/wavs/mexican_mismatch_declarative-broad-focus_El-nino-oye-el-rio.wav,./stim/wavs/peruvian_mismatch_declarative-broad-focus_El-nino-oye-el-rio.wav,./stim/wavs/puertorican_mismatch_declarative-broad-focus_El-nino-oye-el-rio.wav,,,,,,,,,,,,,,,,,,,,,,,,,,,,,,,,,,,,,,,,,,,,,,,,,,,,,,,,
,,,,,,,5f121091e95fdc03b5e897d0,605b45a4d25f287719a41696,60623c4f0bb3054a1dc8f8af,Mexico,Midwest,13 or older,no,2021-03-29_16h46.00.134,empathy_intonation_perc,2020.2.10,Win32,60,,,,,,,,,,0,mexican,0,1,1.585025,0,32,32,3,1,4,./stim/wavs/andalusian_match_declarative-broad-focus_Emilio-ama-la-marcha.wav,./stim/wavs/argentine_match_declarative-broad-focus_Emilio-ama-la-marcha.wav,./stim/wavs/castilian_match_declarative-broad-focus_Emilio-ama-la-marcha.wav,./stim/wavs/chilean_match_declarative-broad-focus_Emilio-ama-la-marcha.wav,./stim/wavs/cuban_match_declarative-broad-focus_Emilio-ama-la-marcha.wav,./stim/wavs/mexican_match_declarative-broad-focus_Emilio-ama-la-marcha.wav,./stim/wavs/peruvian_match_declarative-broad-focus_Emilio-ama-la-marcha.wav,./stim/wavs/puertorican_match_declarative-broad-focus_Emilio-ama-la-marcha.wav,,,,,,,,,,,,,,,,,,,,,,,,,,,,,,,,,,,,,,,,,,,,,,,,,,,,,,,,
,,,,,,,5f121091e95fdc03b5e897d0,605b45a4d25f287719a41696,60623c4f0bb3054a1dc8f8af,Mexico,Midwest,13 or older,no,2021-03-29_16h46.00.134,empathy_intonation_perc,2020.2.10,Win32,60,,,,,,,,,,0,argentine,0,1,1.73917,0,33,33,33,1,34,./stim/wavs/andalusian_mismatch_declarative-broad-focus_El-hombre-mira-la-luna.wav,./stim/wavs/argentine_mismatch_declarative-broad-focus_El-hombre-mira-la-luna.wav,./stim/wavs/castilian_mismatch_declarative-broad-focus_El-hombre-mira-la-luna.wav,./stim/wavs/chilean_mismatch_declarative-broad-focus_El-hombre-mira-la-luna.wav,./stim/wavs/cuban_mismatch_declarative-broad-focus_El-hombre-mira-la-luna.wav,./stim/wavs/mexican_mismatch_declarative-broad-focus_El-hombre-mira-la-luna.wav,./stim/wavs/peruvian_mismatch_declarative-broad-focus_El-hombre-mira-la-luna.wav,./stim/wavs/puertorican_mismatch_declarative-broad-focus_El-hombre-mira-la-luna.wav,,,,,,,,,,,,,,,,,,,,,,,,,,,,,,,,,,,,,,,,,,,,,,,,,,,,,,,,
,,,,,,,5f121091e95fdc03b5e897d0,605b45a4d25f287719a41696,60623c4f0bb3054a1dc8f8af,Mexico,Midwest,13 or older,no,2021-03-29_16h46.00.134,empathy_intonation_perc,2020.2.10,Win32,60,,,,,,,,,,1,peruvian,1,1,1.697865,0,34,34,62,1,63,./stim/wavs/andalusian_mismatch_interrogative-total-yn_Mi-novio-viene-del-lago.wav,./stim/wavs/argentine_mismatch_interrogative-total-yn_Mi-novio-viene-del-lago.wav,./stim/wavs/castilian_mismatch_interrogative-total-yn_Mi-novio-viene-del-lago.wav,./stim/wavs/chilean_mismatch_interrogative-total-yn_Mi-novio-viene-del-lago.wav,./stim/wavs/cuban_mismatch_interrogative-total-yn_Mi-novio-viene-del-lago.wav,./stim/wavs/mexican_mismatch_interrogative-total-yn_Mi-novio-viene-del-lago.wav,./stim/wavs/peruvian_mismatch_interrogative-total-yn_Mi-novio-viene-del-lago.wav,./stim/wavs/puertorican_mismatch_interrogative-total-yn_Mi-novio-viene-del-lago.wav,,,,,,,,,,,,,,,,,,,,,,,,,,,,,,,,,,,,,,,,,,,,,,,,,,,,,,,,
,,,,,,,5f121091e95fdc03b5e897d0,605b45a4d25f287719a41696,60623c4f0bb3054a1dc8f8af,Mexico,Midwest,13 or older,no,2021-03-29_16h46.00.134,empathy_intonation_perc,2020.2.10,Win32,60,,,,,,,,,,0,castilian,0,1,1.752925,0,35,35,7,1,8,./stim/wavs/andalusian_match_declarative-broad-focus_Marta-abre-el-regalo.wav,./stim/wavs/argentine_match_declarative-broad-focus_Marta-abre-el-regalo.wav,./stim/wavs/castilian_match_declarative-broad-focus_Marta-abre-el-regalo.wav,./stim/wavs/chilean_match_declarative-broad-focus_Marta-abre-el-regalo.wav,./stim/wavs/cuban_match_declarative-broad-focus_Marta-abre-el-regalo.wav,./stim/wavs/mexican_match_declarative-broad-focus_Marta-abre-el-regalo.wav,./stim/wavs/peruvian_match_declarative-broad-focus_Marta-abre-el-regalo.wav,./stim/wavs/puertorican_match_declarative-broad-focus_Marta-abre-el-regalo.wav,,,,,,,,,,,,,,,,,,,,,,,,,,,,,,,,,,,,,,,,,,,,,,,,,,,,,,,,
,,,,,,,5f121091e95fdc03b5e897d0,605b45a4d25f287719a41696,60623c4f0bb3054a1dc8f8af,Mexico,Midwest,13 or older,no,2021-03-29_16h46.00.134,empathy_intonation_perc,2020.2.10,Win32,60,,,,,,,,,,1,mexican,1,1,2.938185,0,36,36,55,1,56,./stim/wavs/andalusian_mismatch_interrogative-partial-wh_Por-que-vivia-en-Paris.wav,./stim/wavs/argentine_mismatch_interrogative-partial-wh_Por-que-vivia-en-Paris.wav,./stim/wavs/castilian_mismatch_interrogative-partial-wh_Por-que-vivia-en-Paris.wav,./stim/wavs/chilean_mismatch_interrogative-partial-wh_Por-que-vivia-en-Paris.wav,./stim/wavs/cuban_mismatch_interrogative-partial-wh_Por-que-vivia-en-Paris.wav,./stim/wavs/mexican_mismatch_interrogative-partial-wh_Por-que-vivia-en-Paris.wav,./stim/wavs/peruvian_mismatch_interrogative-partial-wh_Por-que-vivia-en-Paris.wav,./stim/wavs/puertorican_mismatch_interrogative-partial-wh_Por-que-vivia-en-Paris.wav,,,,,,,,,,,,,,,,,,,,,,,,,,,,,,,,,,,,,,,,,,,,,,,,,,,,,,,,
,,,,,,,5f121091e95fdc03b5e897d0,605b45a4d25f287719a41696,60623c4f0bb3054a1dc8f8af,Mexico,Midwest,13 or older,no,2021-03-29_16h46.00.134,empathy_intonation_perc,2020.2.10,Win32,60,,,,,,,,,,1,chilean,0,0,1.94129,0,37,37,52,1,53,./stim/wavs/andalusian_mismatch_interrogative-partial-wh_Por-que-odiaba-la-lluvia.wav,./stim/wavs/argentine_mismatch_interrogative-partial-wh_Por-que-odiaba-la-lluvia.wav,./stim/wavs/castilian_mismatch_interrogative-partial-wh_Por-que-odiaba-la-lluvia.wav,./stim/wavs/chilean_mismatch_interrogative-partial-wh_Por-que-odiaba-la-lluvia.wav,./stim/wavs/cuban_mismatch_interrogative-partial-wh_Por-que-odiaba-la-lluvia.wav,./stim/wavs/mexican_mismatch_interrogative-partial-wh_Por-que-odiaba-la-lluvia.wav,./stim/wavs/peruvian_mismatch_interrogative-partial-wh_Por-que-odiaba-la-lluvia.wav,./stim/wavs/puertorican_mismatch_interrogative-partial-wh_Por-que-odiaba-la-lluvia.wav,,,,,,,,,,,,,,,,,,,,,,,,,,,,,,,,,,,,,,,,,,,,,,,,,,,,,,,,
,,,,,,,5f121091e95fdc03b5e897d0,605b45a4d25f287719a41696,60623c4f0bb3054a1dc8f8af,Mexico,Midwest,13 or older,no,2021-03-29_16h46.00.134,empathy_intonation_perc,2020.2.10,Win32,60,,,,,,,,,,1,cuban,0,0,1.52949,0,38,38,49,1,50,./stim/wavs/andalusian_mismatch_interrogative-partial-wh_Cuando-lavaba-el-plato.wav,./stim/wavs/argentine_mismatch_interrogative-partial-wh_Cuando-lavaba-el-plato.wav,./stim/wavs/castilian_mismatch_interrogative-partial-wh_Cuando-lavaba-el-plato.wav,./stim/wavs/chilean_mismatch_interrogative-partial-wh_Cuando-lavaba-el-plato.wav,./stim/wavs/cuban_mismatch_interrogative-partial-wh_Cuando-lavaba-el-plato.wav,./stim/wavs/mexican_mismatch_interrogative-partial-wh_Cuando-lavaba-el-plato.wav,./stim/wavs/peruvian_mismatch_interrogative-partial-wh_Cuando-lavaba-el-plato.wav,./stim/wavs/puertorican_mismatch_interrogative-partial-wh_Cuando-lavaba-el-plato.wav,,,,,,,,,,,,,,,,,,,,,,,,,,,,,,,,,,,,,,,,,,,,,,,,,,,,,,,,
,,,,,,,5f121091e95fdc03b5e897d0,605b45a4d25f287719a41696,60623c4f0bb3054a1dc8f8af,Mexico,Midwest,13 or older,no,2021-03-29_16h46.00.134,empathy_intonation_perc,2020.2.10,Win32,60,,,,,,,,,,1,puertorican,1,1,1.614125,0,39,39,19,1,20,./stim/wavs/andalusian_match_interrogative-partial-wh_Cuando-vendia-el-carro.wav,./stim/wavs/argentine_match_interrogative-partial-wh_Cuando-vendia-el-carro.wav,./stim/wavs/castilian_match_interrogative-partial-wh_Cuando-vendia-el-carro.wav,./stim/wavs/chilean_match_interrogative-partial-wh_Cuando-vendia-el-carro.wav,./stim/wavs/cuban_match_interrogative-partial-wh_Cuando-vendia-el-carro.wav,./stim/wavs/mexican_match_interrogative-partial-wh_Cuando-vendia-el-carro.wav,./stim/wavs/peruvian_match_interrogative-partial-wh_Cuando-vendia-el-carro.wav,./stim/wavs/puertorican_match_interrogative-partial-wh_Cuando-vendia-el-carro.wav,,,,,,,,,,,,,,,,,,,,,,,,,,,,,,,,,,,,,,,,,,,,,,,,,,,,,,,,
,,,,,,,5f121091e95fdc03b5e897d0,605b45a4d25f287719a41696,60623c4f0bb3054a1dc8f8af,Mexico,Midwest,13 or older,no,2021-03-29_16h46.00.134,empathy_intonation_perc,2020.2.10,Win32,60,,,,,,,,,,0,argentine,0,1,1.45034,0,40,40,44,1,45,./stim/wavs/andalusian_mismatch_declarative-narrow-focus_La-nina-lava-el-plato.wav,./stim/wavs/argentine_mismatch_declarative-narrow-focus_La-nina-lava-el-plato.wav,./stim/wavs/castilian_mismatch_declarative-narrow-focus_La-nina-lava-el-plato.wav,./stim/wavs/chilean_mismatch_declarative-narrow-focus_La-nina-lava-el-plato.wav,./stim/wavs/cuban_mismatch_declarative-narrow-focus_La-nina-lava-el-plato.wav,./stim/wavs/mexican_mismatch_declarative-narrow-focus_La-nina-lava-el-plato.wav,./stim/wavs/peruvian_mismatch_declarative-narrow-focus_La-nina-lava-el-plato.wav,./stim/wavs/puertorican_mismatch_declarative-narrow-focus_La-nina-lava-el-plato.wav,,,,,,,,,,,,,,,,,,,,,,,,,,,,,,,,,,,,,,,,,,,,,,,,,,,,,,,,
,,,,,,,5f121091e95fdc03b5e897d0,605b45a4d25f287719a41696,60623c4f0bb3054a1dc8f8af,Mexico,Midwest,13 or older,no,2021-03-29_16h46.00.134,empathy_intonation_perc,2020.2.10,Win32,60,,,,,,,,,,1,andalusian,0,0,1.74697,0,41,41,21,1,22,./stim/wavs/andalusian_match_interrogative-partial-wh_Por-que-ama-la-navidad.wav,./stim/wavs/argentine_match_interrogative-partial-wh_Por-que-ama-la-navidad.wav,./stim/wavs/castilian_match_interrogative-partial-wh_Por-que-ama-la-navidad.wav,./stim/wavs/chilean_match_interrogative-partial-wh_Por-que-ama-la-navidad.wav,./stim/wavs/cuban_match_interrogative-partial-wh_Por-que-ama-la-navidad.wav,./stim/wavs/mexican_match_interrogative-partial-wh_Por-que-ama-la-navidad.wav,./stim/wavs/peruvian_match_interrogative-partial-wh_Por-que-ama-la-navidad.wav,./stim/wavs/puertorican_match_interrogative-partial-wh_Por-que-ama-la-navidad.wav,,,,,,,,,,,,,,,,,,,,,,,,,,,,,,,,,,,,,,,,,,,,,,,,,,,,,,,,
,,,,,,,5f121091e95fdc03b5e897d0,605b45a4d25f287719a41696,60623c4f0bb3054a1dc8f8af,Mexico,Midwest,13 or older,no,2021-03-29_16h46.00.134,empathy_intonation_perc,2020.2.10,Win32,60,,,,,,,,,,0,mexican,0,1,1.49722,0,42,42,35,1,36,./stim/wavs/andalusian_mismatch_declarative-broad-focus_La-maestra-vive-en-Paris.wav,./stim/wavs/argentine_mismatch_declarative-broad-focus_La-maestra-vive-en-Paris.wav,./stim/wavs/castilian_mismatch_declarative-broad-focus_La-maestra-vive-en-Paris.wav,./stim/wavs/chilean_mismatch_declarative-broad-focus_La-maestra-vive-en-Paris.wav,./stim/wavs/cuban_mismatch_declarative-broad-focus_La-maestra-vive-en-Paris.wav,./stim/wavs/mexican_mismatch_declarative-broad-focus_La-maestra-vive-en-Paris.wav,./stim/wavs/peruvian_mismatch_declarative-broad-focus_La-maestra-vive-en-Paris.wav,./stim/wavs/puertorican_mismatch_declarative-broad-focus_La-maestra-vive-en-Paris.wav,,,,,,,,,,,,,,,,,,,,,,,,,,,,,,,,,,,,,,,,,,,,,,,,,,,,,,,,
,,,,,,,5f121091e95fdc03b5e897d0,605b45a4d25f287719a41696,60623c4f0bb3054a1dc8f8af,Mexico,Midwest,13 or older,no,2021-03-29_16h46.00.134,empathy_intonation_perc,2020.2.10,Win32,60,,,,,,,,,,0,argentine,0,1,1.214285,0,43,43,46,1,47,./stim/wavs/andalusian_mismatch_declarative-narrow-focus_Mi-novio-viene-del-lago.wav,./stim/wavs/argentine_mismatch_declarative-narrow-focus_Mi-novio-viene-del-lago.wav,./stim/wavs/castilian_mismatch_declarative-narrow-focus_Mi-novio-viene-del-lago.wav,./stim/wavs/chilean_mismatch_declarative-narrow-focus_Mi-novio-viene-del-lago.wav,./stim/wavs/cuban_mismatch_declarative-narrow-focus_Mi-novio-viene-del-lago.wav,./stim/wavs/mexican_mismatch_declarative-narrow-focus_Mi-novio-viene-del-lago.wav,./stim/wavs/peruvian_mismatch_declarative-narrow-focus_Mi-novio-viene-del-lago.wav,./stim/wavs/puertorican_mismatch_declarative-narrow-focus_Mi-novio-viene-del-lago.wav,,,,,,,,,,,,,,,,,,,,,,,,,,,,,,,,,,,,,,,,,,,,,,,,,,,,,,,,
,,,,,,,5f121091e95fdc03b5e897d0,605b45a4d25f287719a41696,60623c4f0bb3054a1dc8f8af,Mexico,Midwest,13 or older,no,2021-03-29_16h46.00.134,empathy_intonation_perc,2020.2.10,Win32,60,,,,,,,,,,1,andalusian,1,1,1.637175,0,44,44,58,1,59,./stim/wavs/andalusian_mismatch_interrogative-total-yn_El-nino-oye-el-rio.wav,./stim/wavs/argentine_mismatch_interrogative-total-yn_El-nino-oye-el-rio.wav,./stim/wavs/castilian_mismatch_interrogative-total-yn_El-nino-oye-el-rio.wav,./stim/wavs/chilean_mismatch_interrogative-total-yn_El-nino-oye-el-rio.wav,./stim/wavs/cuban_mismatch_interrogative-total-yn_El-nino-oye-el-rio.wav,./stim/wavs/mexican_mismatch_interrogative-total-yn_El-nino-oye-el-rio.wav,./stim/wavs/peruvian_mismatch_interrogative-total-yn_El-nino-oye-el-rio.wav,./stim/wavs/puertorican_mismatch_interrogative-total-yn_El-nino-oye-el-rio.wav,,,,,,,,,,,,,,,,,,,,,,,,,,,,,,,,,,,,,,,,,,,,,,,,,,,,,,,,
,,,,,,,5f121091e95fdc03b5e897d0,605b45a4d25f287719a41696,60623c4f0bb3054a1dc8f8af,Mexico,Midwest,13 or older,no,2021-03-29_16h46.00.134,empathy_intonation_perc,2020.2.10,Win32,60,,,,,,,,,,0,castilian,0,1,1.59836,0,45,45,9,1,10,./stim/wavs/andalusian_match_declarative-narrow-focus_Daniel-iba-a-Bolivia.wav,./stim/wavs/argentine_match_declarative-narrow-focus_Daniel-iba-a-Bolivia.wav,./stim/wavs/castilian_match_declarative-narrow-focus_Daniel-iba-a-Bolivia.wav,./stim/wavs/chilean_match_declarative-narrow-focus_Daniel-iba-a-Bolivia.wav,./stim/wavs/cuban_match_declarative-narrow-focus_Daniel-iba-a-Bolivia.wav,./stim/wavs/mexican_match_declarative-narrow-focus_Daniel-iba-a-Bolivia.wav,./stim/wavs/peruvian_match_declarative-narrow-focus_Daniel-iba-a-Bolivia.wav,./stim/wavs/puertorican_match_declarative-narrow-focus_Daniel-iba-a-Bolivia.wav,,,,,,,,,,,,,,,,,,,,,,,,,,,,,,,,,,,,,,,,,,,,,,,,,,,,,,,,
,,,,,,,5f121091e95fdc03b5e897d0,605b45a4d25f287719a41696,60623c4f0bb3054a1dc8f8af,Mexico,Midwest,13 or older,no,2021-03-29_16h46.00.134,empathy_intonation_perc,2020.2.10,Win32,60,,,,,,,,,,0,andalusian,0,1,1.37224,0,46,46,10,1,11,./stim/wavs/andalusian_match_declarative-narrow-focus_David-leia-el-libro.wav,./stim/wavs/argentine_match_declarative-narrow-focus_David-leia-el-libro.wav,./stim/wavs/castilian_match_declarative-narrow-focus_David-leia-el-libro.wav,./stim/wavs/chilean_match_declarative-narrow-focus_David-leia-el-libro.wav,./stim/wavs/cuban_match_declarative-narrow-focus_David-leia-el-libro.wav,./stim/wavs/mexican_match_declarative-narrow-focus_David-leia-el-libro.wav,./stim/wavs/peruvian_match_declarative-narrow-focus_David-leia-el-libro.wav,./stim/wavs/puertorican_match_declarative-narrow-focus_David-leia-el-libro.wav,,,,,,,,,,,,,,,,,,,,,,,,,,,,,,,,,,,,,,,,,,,,,,,,,,,,,,,,
,,,,,,,5f121091e95fdc03b5e897d0,605b45a4d25f287719a41696,60623c4f0bb3054a1dc8f8af,Mexico,Midwest,13 or older,no,2021-03-29_16h46.00.134,empathy_intonation_perc,2020.2.10,Win32,60,,,,,,,,,,1,castilian,0,0,1.4372,0,47,47,16,1,17,./stim/wavs/andalusian_match_interrogative-partial-wh_Cuando-bebia-el-vino.wav,./stim/wavs/argentine_match_interrogative-partial-wh_Cuando-bebia-el-vino.wav,./stim/wavs/castilian_match_interrogative-partial-wh_Cuando-bebia-el-vino.wav,./stim/wavs/chilean_match_interrogative-partial-wh_Cuando-bebia-el-vino.wav,./stim/wavs/cuban_match_interrogative-partial-wh_Cuando-bebia-el-vino.wav,./stim/wavs/mexican_match_interrogative-partial-wh_Cuando-bebia-el-vino.wav,./stim/wavs/peruvian_match_interrogative-partial-wh_Cuando-bebia-el-vino.wav,./stim/wavs/puertorican_match_interrogative-partial-wh_Cuando-bebia-el-vino.wav,,,,,,,,,,,,,,,,,,,,,,,,,,,,,,,,,,,,,,,,,,,,,,,,,,,,,,,,
,,,,,,,5f121091e95fdc03b5e897d0,605b45a4d25f287719a41696,60623c4f0bb3054a1dc8f8af,Mexico,Midwest,13 or older,no,2021-03-29_16h46.00.134,empathy_intonation_perc,2020.2.10,Win32,60,,,,,,,,,,0,castilian,1,0,1.686895,0,48,48,40,1,41,./stim/wavs/andalusian_mismatch_declarative-narrow-focus_El-bebe-comia-muy-bien.wav,./stim/wavs/argentine_mismatch_declarative-narrow-focus_El-bebe-comia-muy-bien.wav,./stim/wavs/castilian_mismatch_declarative-narrow-focus_El-bebe-comia-muy-bien.wav,./stim/wavs/chilean_mismatch_declarative-narrow-focus_El-bebe-comia-muy-bien.wav,./stim/wavs/cuban_mismatch_declarative-narrow-focus_El-bebe-comia-muy-bien.wav,./stim/wavs/mexican_mismatch_declarative-narrow-focus_El-bebe-comia-muy-bien.wav,./stim/wavs/peruvian_mismatch_declarative-narrow-focus_El-bebe-comia-muy-bien.wav,./stim/wavs/puertorican_mismatch_declarative-narrow-focus_El-bebe-comia-muy-bien.wav,,,,,,,,,,,,,,,,,,,,,,,,,,,,,,,,,,,,,,,,,,,,,,,,,,,,,,,,
,,,,,,,5f121091e95fdc03b5e897d0,605b45a4d25f287719a41696,60623c4f0bb3054a1dc8f8af,Mexico,Midwest,13 or older,no,2021-03-29_16h46.00.134,empathy_intonation_perc,2020.2.10,Win32,60,,,,,,,,,,0,cuban,0,1,1.31665,0,49,49,32,1,33,./stim/wavs/andalusian_mismatch_declarative-broad-focus_El-bebe-comia-muy-bien.wav,./stim/wavs/argentine_mismatch_declarative-broad-focus_El-bebe-comia-muy-bien.wav,./stim/wavs/castilian_mismatch_declarative-broad-focus_El-bebe-comia-muy-bien.wav,./stim/wavs/chilean_mismatch_declarative-broad-focus_El-bebe-comia-muy-bien.wav,./stim/wavs/cuban_mismatch_declarative-broad-focus_El-bebe-comia-muy-bien.wav,./stim/wavs/mexican_mismatch_declarative-broad-focus_El-bebe-comia-muy-bien.wav,./stim/wavs/peruvian_mismatch_declarative-broad-focus_El-bebe-comia-muy-bien.wav,./stim/wavs/puertorican_mismatch_declarative-broad-focus_El-bebe-comia-muy-bien.wav,,,,,,,,,,,,,,,,,,,,,,,,,,,,,,,,,,,,,,,,,,,,,,,,,,,,,,,,
,,,,,,,5f121091e95fdc03b5e897d0,605b45a4d25f287719a41696,60623c4f0bb3054a1dc8f8af,Mexico,Midwest,13 or older,no,2021-03-29_16h46.00.134,empathy_intonation_perc,2020.2.10,Win32,60,,,,,,,,,,0,castilian,0,1,1.46937,0,50,50,13,1,14,./stim/wavs/andalusian_match_declarative-narrow-focus_Maria-bebe-el-vino.wav,./stim/wavs/argentine_match_declarative-narrow-focus_Maria-bebe-el-vino.wav,./stim/wavs/castilian_match_declarative-narrow-focus_Maria-bebe-el-vino.wav,./stim/wavs/chilean_match_declarative-narrow-focus_Maria-bebe-el-vino.wav,./stim/wavs/cuban_match_declarative-narrow-focus_Maria-bebe-el-vino.wav,./stim/wavs/mexican_match_declarative-narrow-focus_Maria-bebe-el-vino.wav,./stim/wavs/peruvian_match_declarative-narrow-focus_Maria-bebe-el-vino.wav,./stim/wavs/puertorican_match_declarative-narrow-focus_Maria-bebe-el-vino.wav,,,,,,,,,,,,,,,,,,,,,,,,,,,,,,,,,,,,,,,,,,,,,,,,,,,,,,,,
,,,,,,,5f121091e95fdc03b5e897d0,605b45a4d25f287719a41696,60623c4f0bb3054a1dc8f8af,Mexico,Midwest,13 or older,no,2021-03-29_16h46.00.134,empathy_intonation_perc,2020.2.10,Win32,60,,,,,,,,,,1,chilean,0,0,1.55582,0,51,51,56,1,57,./stim/wavs/andalusian_mismatch_interrogative-total-yn_El-bebe-comia-muy-bien.wav,./stim/wavs/argentine_mismatch_interrogative-total-yn_El-bebe-comia-muy-bien.wav,./stim/wavs/castilian_mismatch_interrogative-total-yn_El-bebe-comia-muy-bien.wav,./stim/wavs/chilean_mismatch_interrogative-total-yn_El-bebe-comia-muy-bien.wav,./stim/wavs/cuban_mismatch_interrogative-total-yn_El-bebe-comia-muy-bien.wav,./stim/wavs/mexican_mismatch_interrogative-total-yn_El-bebe-comia-muy-bien.wav,./stim/wavs/peruvian_mismatch_interrogative-total-yn_El-bebe-comia-muy-bien.wav,./stim/wavs/puertorican_mismatch_interrogative-total-yn_El-bebe-comia-muy-bien.wav,,,,,,,,,,,,,,,,,,,,,,,,,,,,,,,,,,,,,,,,,,,,,,,,,,,,,,,,
,,,,,,,5f121091e95fdc03b5e897d0,605b45a4d25f287719a41696,60623c4f0bb3054a1dc8f8af,Mexico,Midwest,13 or older,no,2021-03-29_16h46.00.134,empathy_intonation_perc,2020.2.10,Win32,60,,,,,,,,,,0,chilean,0,1,1.504085,0,52,52,36,1,37,./stim/wavs/andalusian_mismatch_declarative-broad-focus_La-nina-lava-el-plato.wav,./stim/wavs/argentine_mismatch_declarative-broad-focus_La-nina-lava-el-plato.wav,./stim/wavs/castilian_mismatch_declarative-broad-focus_La-nina-lava-el-plato.wav,./stim/wavs/chilean_mismatch_declarative-broad-focus_La-nina-lava-el-plato.wav,./stim/wavs/cuban_mismatch_declarative-broad-focus_La-nina-lava-el-plato.wav,./stim/wavs/mexican_mismatch_declarative-broad-focus_La-nina-lava-el-plato.wav,./stim/wavs/peruvian_mismatch_declarative-broad-focus_La-nina-lava-el-plato.wav,./stim/wavs/puertorican_mismatch_declarative-broad-focus_La-nina-lava-el-plato.wav,,,,,,,,,,,,,,,,,,,,,,,,,,,,,,,,,,,,,,,,,,,,,,,,,,,,,,,,
,,,,,,,5f121091e95fdc03b5e897d0,605b45a4d25f287719a41696,60623c4f0bb3054a1dc8f8af,Mexico,Midwest,13 or older,no,2021-03-29_16h46.00.134,empathy_intonation_perc,2020.2.10,Win32,60,,,,,,,,,,1,argentine,1,1,1.40304,0,53,53,18,1,19,./stim/wavs/andalusian_match_interrogative-partial-wh_Cuando-lleva-el-abrigo.wav,./stim/wavs/argentine_match_interrogative-partial-wh_Cuando-lleva-el-abrigo.wav,./stim/wavs/castilian_match_interrogative-partial-wh_Cuando-lleva-el-abrigo.wav,./stim/wavs/chilean_match_interrogative-partial-wh_Cuando-lleva-el-abrigo.wav,./stim/wavs/cuban_match_interrogative-partial-wh_Cuando-lleva-el-abrigo.wav,./stim/wavs/mexican_match_interrogative-partial-wh_Cuando-lleva-el-abrigo.wav,./stim/wavs/peruvian_match_interrogative-partial-wh_Cuando-lleva-el-abrigo.wav,./stim/wavs/puertorican_match_interrogative-partial-wh_Cuando-lleva-el-abrigo.wav,,,,,,,,,,,,,,,,,,,,,,,,,,,,,,,,,,,,,,,,,,,,,,,,,,,,,,,,
,,,,,,,5f121091e95fdc03b5e897d0,605b45a4d25f287719a41696,60623c4f0bb3054a1dc8f8af,Mexico,Midwest,13 or older,no,2021-03-29_16h46.00.134,empathy_intonation_perc,2020.2.10,Win32,60,,,,,,,,,,1,mexican,1,1,1.33022,0,54,54,24,1,25,./stim/wavs/andalusian_match_interrogative-total-yn_Ana-lleva-el-abrigo.wav,./stim/wavs/argentine_match_interrogative-total-yn_Ana-lleva-el-abrigo.wav,./stim/wavs/castilian_match_interrogative-total-yn_Ana-lleva-el-abrigo.wav,./stim/wavs/chilean_match_interrogative-total-yn_Ana-lleva-el-abrigo.wav,./stim/wavs/cuban_match_interrogative-total-yn_Ana-lleva-el-abrigo.wav,./stim/wavs/mexican_match_interrogative-total-yn_Ana-lleva-el-abrigo.wav,./stim/wavs/peruvian_match_interrogative-total-yn_Ana-lleva-el-abrigo.wav,./stim/wavs/puertorican_match_interrogative-total-yn_Ana-lleva-el-abrigo.wav,,,,,,,,,,,,,,,,,,,,,,,,,,,,,,,,,,,,,,,,,,,,,,,,,,,,,,,,
,,,,,,,5f121091e95fdc03b5e897d0,605b45a4d25f287719a41696,60623c4f0bb3054a1dc8f8af,Mexico,Midwest,13 or older,no,2021-03-29_16h46.00.134,empathy_intonation_perc,2020.2.10,Win32,60,,,,,,,,,,1,castilian,1,1,1.19741,0,55,55,23,1,24,./stim/wavs/andalusian_match_interrogative-partial-wh_Por-que-iba-a-Bolivia.wav,./stim/wavs/argentine_match_interrogative-partial-wh_Por-que-iba-a-Bolivia.wav,./stim/wavs/castilian_match_interrogative-partial-wh_Por-que-iba-a-Bolivia.wav,./stim/wavs/chilean_match_interrogative-partial-wh_Por-que-iba-a-Bolivia.wav,./stim/wavs/cuban_match_interrogative-partial-wh_Por-que-iba-a-Bolivia.wav,./stim/wavs/mexican_match_interrogative-partial-wh_Por-que-iba-a-Bolivia.wav,./stim/wavs/peruvian_match_interrogative-partial-wh_Por-que-iba-a-Bolivia.wav,./stim/wavs/puertorican_match_interrogative-partial-wh_Por-que-iba-a-Bolivia.wav,,,,,,,,,,,,,,,,,,,,,,,,,,,,,,,,,,,,,,,,,,,,,,,,,,,,,,,,
,,,,,,,5f121091e95fdc03b5e897d0,605b45a4d25f287719a41696,60623c4f0bb3054a1dc8f8af,Mexico,Midwest,13 or older,no,2021-03-29_16h46.00.134,empathy_intonation_perc,2020.2.10,Win32,60,,,,,,,,,,1,argentine,0,0,1.23766,0,56,56,50,1,51,./stim/wavs/andalusian_mismatch_interrogative-partial-wh_Cuando-miraba-la-luna.wav,./stim/wavs/argentine_mismatch_interrogative-partial-wh_Cuando-miraba-la-luna.wav,./stim/wavs/castilian_mismatch_interrogative-partial-wh_Cuando-miraba-la-luna.wav,./stim/wavs/chilean_mismatch_interrogative-partial-wh_Cuando-miraba-la-luna.wav,./stim/wavs/cuban_mismatch_interrogative-partial-wh_Cuando-miraba-la-luna.wav,./stim/wavs/mexican_mismatch_interrogative-partial-wh_Cuando-miraba-la-luna.wav,./stim/wavs/peruvian_mismatch_interrogative-partial-wh_Cuando-miraba-la-luna.wav,./stim/wavs/puertorican_mismatch_interrogative-partial-wh_Cuando-miraba-la-luna.wav,,,,,,,,,,,,,,,,,,,,,,,,,,,,,,,,,,,,,,,,,,,,,,,,,,,,,,,,
,,,,,,,5f121091e95fdc03b5e897d0,605b45a4d25f287719a41696,60623c4f0bb3054a1dc8f8af,Mexico,Midwest,13 or older,no,2021-03-29_16h46.00.134,empathy_intonation_perc,2020.2.10,Win32,60,,,,,,,,,,1,argentine,0,0,1.52058,0,57,57,31,1,32,./stim/wavs/andalusian_match_interrogative-total-yn_Marta-abre-el-regalo.wav,./stim/wavs/argentine_match_interrogative-total-yn_Marta-abre-el-regalo.wav,./stim/wavs/castilian_match_interrogative-total-yn_Marta-abre-el-regalo.wav,./stim/wavs/chilean_match_interrogative-total-yn_Marta-abre-el-regalo.wav,./stim/wavs/cuban_match_interrogative-total-yn_Marta-abre-el-regalo.wav,./stim/wavs/mexican_match_interrogative-total-yn_Marta-abre-el-regalo.wav,./stim/wavs/peruvian_match_interrogative-total-yn_Marta-abre-el-regalo.wav,./stim/wavs/puertorican_match_interrogative-total-yn_Marta-abre-el-regalo.wav,,,,,,,,,,,,,,,,,,,,,,,,,,,,,,,,,,,,,,,,,,,,,,,,,,,,,,,,
,,,,,,,5f121091e95fdc03b5e897d0,605b45a4d25f287719a41696,60623c4f0bb3054a1dc8f8af,Mexico,Midwest,13 or older,no,2021-03-29_16h46.00.134,empathy_intonation_perc,2020.2.10,Win32,60,,,,,,,,,,0,andalusian,0,1,1.51489,0,58,58,38,1,39,./stim/wavs/andalusian_mismatch_declarative-broad-focus_Mi-novio-viene-del-lago.wav,./stim/wavs/argentine_mismatch_declarative-broad-focus_Mi-novio-viene-del-lago.wav,./stim/wavs/castilian_mismatch_declarative-broad-focus_Mi-novio-viene-del-lago.wav,./stim/wavs/chilean_mismatch_declarative-broad-focus_Mi-novio-viene-del-lago.wav,./stim/wavs/cuban_mismatch_declarative-broad-focus_Mi-novio-viene-del-lago.wav,./stim/wavs/mexican_mismatch_declarative-broad-focus_Mi-novio-viene-del-lago.wav,./stim/wavs/peruvian_mismatch_declarative-broad-focus_Mi-novio-viene-del-lago.wav,./stim/wavs/puertorican_mismatch_declarative-broad-focus_Mi-novio-viene-del-lago.wav,,,,,,,,,,,,,,,,,,,,,,,,,,,,,,,,,,,,,,,,,,,,,,,,,,,,,,,,
,,,,,,,5f121091e95fdc03b5e897d0,605b45a4d25f287719a41696,60623c4f0bb3054a1dc8f8af,Mexico,Midwest,13 or older,no,2021-03-29_16h46.00.134,empathy_intonation_perc,2020.2.10,Win32,60,,,,,,,,,,1,andalusian,1,1,2.655015,0,59,59,54,1,55,./stim/wavs/andalusian_mismatch_interrogative-partial-wh_Por-que-venia-del-lago.wav,./stim/wavs/argentine_mismatch_interrogative-partial-wh_Por-que-venia-del-lago.wav,./stim/wavs/castilian_mismatch_interrogative-partial-wh_Por-que-venia-del-lago.wav,./stim/wavs/chilean_mismatch_interrogative-partial-wh_Por-que-venia-del-lago.wav,./stim/wavs/cuban_mismatch_interrogative-partial-wh_Por-que-venia-del-lago.wav,./stim/wavs/mexican_mismatch_interrogative-partial-wh_Por-que-venia-del-lago.wav,./stim/wavs/peruvian_mismatch_interrogative-partial-wh_Por-que-venia-del-lago.wav,./stim/wavs/puertorican_mismatch_interrogative-partial-wh_Por-que-venia-del-lago.wav,,,,,,,,,,,,,,,,,,,,,,,,,,,,,,,,,,,,,,,,,,,,,,,,,,,,,,,,
,,,,,,,5f121091e95fdc03b5e897d0,605b45a4d25f287719a41696,60623c4f0bb3054a1dc8f8af,Mexico,Midwest,13 or older,no,2021-03-29_16h46.00.134,empathy_intonation_perc,2020.2.10,Win32,60,,,,,,,,,,1,andalusian,1,1,1.50302,0,60,60,61,1,62,./stim/wavs/andalusian_mismatch_interrogative-total-yn_Mi-madre-come-la-fruta.wav,./stim/wavs/argentine_mismatch_interrogative-total-yn_Mi-madre-come-la-fruta.wav,./stim/wavs/castilian_mismatch_interrogative-total-yn_Mi-madre-come-la-fruta.wav,./stim/wavs/chilean_mismatch_interrogative-total-yn_Mi-madre-come-la-fruta.wav,./stim/wavs/cuban_mismatch_interrogative-total-yn_Mi-madre-come-la-fruta.wav,./stim/wavs/mexican_mismatch_interrogative-total-yn_Mi-madre-come-la-fruta.wav,./stim/wavs/peruvian_mismatch_interrogative-total-yn_Mi-madre-come-la-fruta.wav,./stim/wavs/puertorican_mismatch_interrogative-total-yn_Mi-madre-come-la-fruta.wav,,,,,,,,,,,,,,,,,,,,,,,,,,,,,,,,,,,,,,,,,,,,,,,,,,,,,,,,
,,,,,,,5f121091e95fdc03b5e897d0,605b45a4d25f287719a41696,60623c4f0bb3054a1dc8f8af,Mexico,Midwest,13 or older,no,2021-03-29_16h46.00.134,empathy_intonation_perc,2020.2.10,Win32,60,,,,,,,,,,0,castilian,0,1,1.689825,0,61,61,4,1,5,./stim/wavs/andalusian_match_declarative-broad-focus_Manuela-vende-el-carro.wav,./stim/wavs/argentine_match_declarative-broad-focus_Manuela-vende-el-carro.wav,./stim/wavs/castilian_match_declarative-broad-focus_Manuela-vende-el-carro.wav,./stim/wavs/chilean_match_declarative-broad-focus_Manuela-vende-el-carro.wav,./stim/wavs/cuban_match_declarative-broad-focus_Manuela-vende-el-carro.wav,./stim/wavs/mexican_match_declarative-broad-focus_Manuela-vende-el-carro.wav,./stim/wavs/peruvian_match_declarative-broad-focus_Manuela-vende-el-carro.wav,./stim/wavs/puertorican_match_declarative-broad-focus_Manuela-vende-el-carro.wav,,,,,,,,,,,,,,,,,,,,,,,,,,,,,,,,,,,,,,,,,,,,,,,,,,,,,,,,
,,,,,,,5f121091e95fdc03b5e897d0,605b45a4d25f287719a41696,60623c4f0bb3054a1dc8f8af,Mexico,Midwest,13 or older,no,2021-03-29_16h46.00.134,empathy_intonation_perc,2020.2.10,Win32,60,,,,,,,,,,0,mexican,0,1,1.73568,0,62,62,41,1,42,./stim/wavs/andalusian_mismatch_declarative-narrow-focus_El-hombre-mira-la-luna.wav,./stim/wavs/argentine_mismatch_declarative-narrow-focus_El-hombre-mira-la-luna.wav,./stim/wavs/castilian_mismatch_declarative-narrow-focus_El-hombre-mira-la-luna.wav,./stim/wavs/chilean_mismatch_declarative-narrow-focus_El-hombre-mira-la-luna.wav,./stim/wavs/cuban_mismatch_declarative-narrow-focus_El-hombre-mira-la-luna.wav,./stim/wavs/mexican_mismatch_declarative-narrow-focus_El-hombre-mira-la-luna.wav,./stim/wavs/peruvian_mismatch_declarative-narrow-focus_El-hombre-mira-la-luna.wav,./stim/wavs/puertorican_mismatch_declarative-narrow-focus_El-hombre-mira-la-luna.wav,,,,,,,,,,,,,,,,,,,,,,,,,,,,,,,,,,,,,,,,,,,,,,,,,,,,,,,,
,,,,,,,5f121091e95fdc03b5e897d0,605b45a4d25f287719a41696,60623c4f0bb3054a1dc8f8af,Mexico,Midwest,13 or older,no,2021-03-29_16h46.00.134,empathy_intonation_perc,2020.2.10,Win32,60,,,,,,,,,,0,argentine,0,1,1.354945,0,63,63,6,1,7,./stim/wavs/andalusian_match_declarative-broad-focus_Mariano-habla-del-tiempo.wav,./stim/wavs/argentine_match_declarative-broad-focus_Mariano-habla-del-tiempo.wav,./stim/wavs/castilian_match_declarative-broad-focus_Mariano-habla-del-tiempo.wav,./stim/wavs/chilean_match_declarative-broad-focus_Mariano-habla-del-tiempo.wav,./stim/wavs/cuban_match_declarative-broad-focus_Mariano-habla-del-tiempo.wav,./stim/wavs/mexican_match_declarative-broad-focus_Mariano-habla-del-tiempo.wav,./stim/wavs/peruvian_match_declarative-broad-focus_Mariano-habla-del-tiempo.wav,./stim/wavs/puertorican_match_declarative-broad-focus_Mariano-habla-del-tiempo.wav,,,,,,,,,,,,,,,,,,,,,,,,,,,,,,,,,,,,,,,,,,,,,,,,,,,,,,,,
,,,,,,,5f121091e95fdc03b5e897d0,605b45a4d25f287719a41696,60623c4f0bb3054a1dc8f8af,Mexico,Midwest,13 or older,no,2021-03-29_16h46.00.134,empathy_intonation_perc,2020.2.10,Win32,60,,,,,,,,,,,,,,,,,,,,,,,,,,,,,h,1,3.735985,0,0,0,0,1,,,,,,,,,,,,,,,,,,,,,,,,,,,,,,,,,,,,,,,,,,,,,,,,
,,,,,"Great! Now we will move on. The next task consists of about 60 trials, in each of which you will see a string of letters. 
  
  Your task is to decide whether this is a real Spanish word or not.",(press the spacebar to continue),5f121091e95fdc03b5e897d0,605b45a4d25f287719a41696,60623c4f0bb3054a1dc8f8af,Mexico,Midwest,13 or older,no,2021-03-29_16h46.00.134,empathy_intonation_perc,2020.2.10,Win32,60,,,,,,,,,,,,,,,,,,,,,,,,,,,,,,,,,,,,,0,0,0,0,1,,,,,,,,,,,,,,,,,,,,,,,,,,,,,,,,,,,,,,,,,,,
,,,,,"If you think it is an existing Spanish word, you type '1' (for 'REAL'), and if you think it is not an existing Spanish word, you type '0' (for 'FAKE').",(press the spacebar to continue),5f121091e95fdc03b5e897d0,605b45a4d25f287719a41696,60623c4f0bb3054a1dc8f8af,Mexico,Midwest,13 or older,no,2021-03-29_16h46.00.134,empathy_intonation_perc,2020.2.10,Win32,60,,,,,,,,,,,,,,,,,,,,,,,,,,,,,,,,,,,,,0,1,1,1,1,,,,,,,,,,,,,,,,,,,,,,,,,,,,,,,,,,,,,,,,,,,
,,,,,"If you are sure that the word exists, even though you dont know its exact meaning, you may still respond '1' (REAL). 
  
  But if you are not sure if it is an existing word, you should respond '0' (FAKE).
  
  Let's do a practice round...",(press the spacebar to continue),5f121091e95fdc03b5e897d0,605b45a4d25f287719a41696,60623c4f0bb3054a1dc8f8af,Mexico,Midwest,13 or older,no,2021-03-29_16h46.00.134,empathy_intonation_perc,2020.2.10,Win32,60,,,,,,,,,,,,,,,,,,,,,,,,,,,,,,,,,,,,,0,2,2,2,1,,,,,,,,,,,,,,,,,,,,,,,,,,,,,,,,,,,,,,,,,,,
,,,,,,,5f121091e95fdc03b5e897d0,605b45a4d25f287719a41696,60623c4f0bb3054a1dc8f8af,Mexico,Midwest,13 or older,no,2021-03-29_16h46.00.134,empathy_intonation_perc,2020.2.10,Win32,60,,,,,,,,,,0,,,,,,,,,,,,,,,,,,,,,,,,,,,,,,,,1,0,0.88799,0,0,0,0,1,0,depiste,REAL,FAKE,,,,,,,,,,,,,,,,,,,,,,,,,,,,,,,
,,,,,,,5f121091e95fdc03b5e897d0,605b45a4d25f287719a41696,60623c4f0bb3054a1dc8f8af,Mexico,Midwest,13 or older,no,2021-03-29_16h46.00.134,empathy_intonation_perc,2020.2.10,Win32,60,,,,,,,,,,1,,,,,,,,,,,,,,,,,,,,,,,,,,,,,,,,1,1,0.559415,0,1,1,1,1,0,s,REAL,FAKE,,,,,,,,,,,,,,,,,,,,,,,,,,,,,,,
,,,,,,,5f121091e95fdc03b5e897d0,605b45a4d25f287719a41696,60623c4f0bb3054a1dc8f8af,Mexico,Midwest,13 or older,no,2021-03-29_16h46.00.134,empathy_intonation_perc,2020.2.10,Win32,60,,,,,,,,,,0,,,,,,,,,,,,,,,,,,,,,,,,,,,,,,,,1,0,0.64801,0,2,2,2,1,0,con,REAL,FAKE,,,,,,,,,,,,,,,,,,,,,,,,,,,,,,,
,,,,,,,5f121091e95fdc03b5e897d0,605b45a4d25f287719a41696,60623c4f0bb3054a1dc8f8af,Mexico,Midwest,13 or older,no,2021-03-29_16h46.00.134,empathy_intonation_perc,2020.2.10,Win32,60,,,,,,,,,,0,,,,,,,,,,,,,,,,,,,,,,,,,,,,,,,,1,0,0.97134,0,3,3,3,1,0,calpar,REAL,FAKE,,,,,,,,,,,,,,,,,,,,,,,,,,,,,,,
,,,,,,,5f121091e95fdc03b5e897d0,605b45a4d25f287719a41696,60623c4f0bb3054a1dc8f8af,Mexico,Midwest,13 or older,no,2021-03-29_16h46.00.134,empathy_intonation_perc,2020.2.10,Win32,60,,,,,,,,,,0,,,,,,,,,,,,,,,,,,,,,,,,,,,,,,,,0,1,0.658395,0,4,4,4,1,0,joten,REAL,FAKE,,,,,,,,,,,,,,,,,,,,,,,,,,,,,,,
,,,,,,,5f121091e95fdc03b5e897d0,605b45a4d25f287719a41696,60623c4f0bb3054a1dc8f8af,Mexico,Midwest,13 or older,no,2021-03-29_16h46.00.134,empathy_intonation_perc,2020.2.10,Win32,60,,,,,,,,,,1,,,,,,,,,,,,,,,,,,,,,,,,,,,,,,,,0,0,0.67376,0,5,5,5,1,0,sacapuntas,REAL,FAKE,,,,,,,,,,,,,,,,,,,,,,,,,,,,,,,
,,,,,,,5f121091e95fdc03b5e897d0,605b45a4d25f287719a41696,60623c4f0bb3054a1dc8f8af,Mexico,Midwest,13 or older,no,2021-03-29_16h46.00.134,empathy_intonation_perc,2020.2.10,Win32,60,,,,,,,,,,0,,,,,,,,,,,,,,,,,,,,,,,,,,,,,,,,1,0,0.69516,0,6,6,6,1,0,priba,REAL,FAKE,,,,,,,,,,,,,,,,,,,,,,,,,,,,,,,
,,,,,,,5f121091e95fdc03b5e897d0,605b45a4d25f287719a41696,60623c4f0bb3054a1dc8f8af,Mexico,Midwest,13 or older,no,2021-03-29_16h46.00.134,empathy_intonation_perc,2020.2.10,Win32,60,,,,,,,,,,0,,,,,,,,,,,,,,,,,,,,,,,,,,,,,,,,1,0,0.854735,0,7,7,7,1,0,pelasula,REAL,FAKE,,,,,,,,,,,,,,,,,,,,,,,,,,,,,,,
,,,,,,,5f121091e95fdc03b5e897d0,605b45a4d25f287719a41696,60623c4f0bb3054a1dc8f8af,Mexico,Midwest,13 or older,no,2021-03-29_16h46.00.134,empathy_intonation_perc,2020.2.10,Win32,60,,,,,,,,,,1,,,,,,,,,,,,,,,,,,,,,,,,,,,,,,,,1,1,0.57269,0,8,8,8,1,0,bien,REAL,FAKE,,,,,,,,,,,,,,,,,,,,,,,,,,,,,,,
,,,,,,,5f121091e95fdc03b5e897d0,605b45a4d25f287719a41696,60623c4f0bb3054a1dc8f8af,Mexico,Midwest,13 or older,no,2021-03-29_16h46.00.134,empathy_intonation_perc,2020.2.10,Win32,60,,,,,,,,,,1,,,,,,,,,,,,,,,,,,,,,,,,,,,,,,,,1,1,0.53034,0,9,9,9,1,0,casa,REAL,FAKE,,,,,,,,,,,,,,,,,,,,,,,,,,,,,,,
,,,,,,,5f121091e95fdc03b5e897d0,605b45a4d25f287719a41696,60623c4f0bb3054a1dc8f8af,Mexico,Midwest,13 or older,no,2021-03-29_16h46.00.134,empathy_intonation_perc,2020.2.10,Win32,60,,,,,,,,,,0,,,,,,,,,,,,,,,,,,,,,,,,,,,,,,,,0,1,0.60319,0,10,10,10,1,0,lejo,REAL,FAKE,,,,,,,,,,,,,,,,,,,,,,,,,,,,,,,
,,,,,,,5f121091e95fdc03b5e897d0,605b45a4d25f287719a41696,60623c4f0bb3054a1dc8f8af,Mexico,Midwest,13 or older,no,2021-03-29_16h46.00.134,empathy_intonation_perc,2020.2.10,Win32,60,,,,,,,,,,0,,,,,,,,,,,,,,,,,,,,,,,,,,,,,,,,0,1,1.147505,0,11,11,11,1,0,pretantas,REAL,FAKE,,,,,,,,,,,,,,,,,,,,,,,,,,,,,,,
,,,,,,,5f121091e95fdc03b5e897d0,605b45a4d25f287719a41696,60623c4f0bb3054a1dc8f8af,Mexico,Midwest,13 or older,no,2021-03-29_16h46.00.134,empathy_intonation_perc,2020.2.10,Win32,60,,,,,,,,,,0,,,,,,,,,,,,,,,,,,,,,,,,,,,,,,,,,,,,,,,,50,flamida,,,1,0,1.006725,0,0,0,49,1,REAL,FAKE,,,,,,,,,,,,,,,,,,,,,
,,,,,,,5f121091e95fdc03b5e897d0,605b45a4d25f287719a41696,60623c4f0bb3054a1dc8f8af,Mexico,Midwest,13 or older,no,2021-03-29_16h46.00.134,empathy_intonation_perc,2020.2.10,Win32,60,,,,,,,,,,0,,,,,,,,,,,,,,,,,,,,,,,,,,,,,,,,,,,,,,,,18,arsa,,,1,0,0.643075,0,1,1,17,1,REAL,FAKE,,,,,,,,,,,,,,,,,,,,,
,,,,,,,5f121091e95fdc03b5e897d0,605b45a4d25f287719a41696,60623c4f0bb3054a1dc8f8af,Mexico,Midwest,13 or older,no,2021-03-29_16h46.00.134,empathy_intonation_perc,2020.2.10,Win32,60,,,,,,,,,,1,,,,,,,,,,,,,,,,,,,,,,,,,,,,,,,,,,,,,,,,49,ganar,,,1,1,0.702155,0,2,2,48,1,REAL,FAKE,,,,,,,,,,,,,,,,,,,,,
,,,,,,,5f121091e95fdc03b5e897d0,605b45a4d25f287719a41696,60623c4f0bb3054a1dc8f8af,Mexico,Midwest,13 or older,no,2021-03-29_16h46.00.134,empathy_intonation_perc,2020.2.10,Win32,60,,,,,,,,,,1,,,,,,,,,,,,,,,,,,,,,,,,,,,,,,,,,,,,,,,,26,secuestro,,,0,0,0.865965,0,3,3,25,1,REAL,FAKE,,,,,,,,,,,,,,,,,,,,,
,,,,,,,5f121091e95fdc03b5e897d0,605b45a4d25f287719a41696,60623c4f0bb3054a1dc8f8af,Mexico,Midwest,13 or older,no,2021-03-29_16h46.00.134,empathy_intonation_perc,2020.2.10,Win32,60,,,,,,,,,,0,,,,,,,,,,,,,,,,,,,,,,,,,,,,,,,,,,,,,,,,72,pemicin,,,1,0,1.49682,0,4,4,71,1,REAL,FAKE,,,,,,,,,,,,,,,,,,,,,
,,,,,,,5f121091e95fdc03b5e897d0,605b45a4d25f287719a41696,60623c4f0bb3054a1dc8f8af,Mexico,Midwest,13 or older,no,2021-03-29_16h46.00.134,empathy_intonation_perc,2020.2.10,Win32,60,,,,,,,,,,0,,,,,,,,,,,,,,,,,,,,,,,,,,,,,,,,,,,,,,,,63,esposante,,,1,0,0.69894,0,5,5,62,1,REAL,FAKE,,,,,,,,,,,,,,,,,,,,,
,,,,,,,5f121091e95fdc03b5e897d0,605b45a4d25f287719a41696,60623c4f0bb3054a1dc8f8af,Mexico,Midwest,13 or older,no,2021-03-29_16h46.00.134,empathy_intonation_perc,2020.2.10,Win32,60,,,,,,,,,,1,,,,,,,,,,,,,,,,,,,,,,,,,,,,,,,,,,,,,,,,15,regar,,,0,0,1.03058,0,6,6,14,1,REAL,FAKE,,,,,,,,,,,,,,,,,,,,,
,,,,,,,5f121091e95fdc03b5e897d0,605b45a4d25f287719a41696,60623c4f0bb3054a1dc8f8af,Mexico,Midwest,13 or older,no,2021-03-29_16h46.00.134,empathy_intonation_perc,2020.2.10,Win32,60,,,,,,,,,,1,,,,,,,,,,,,,,,,,,,,,,,,,,,,,,,,,,,,,,,,28,merodear,,,0,0,0.687035,0,7,7,27,1,REAL,FAKE,,,,,,,,,,,,,,,,,,,,,
,,,,,,,5f121091e95fdc03b5e897d0,605b45a4d25f287719a41696,60623c4f0bb3054a1dc8f8af,Mexico,Midwest,13 or older,no,2021-03-29_16h46.00.134,empathy_intonation_perc,2020.2.10,Win32,60,,,,,,,,,,1,,,,,,,,,,,,,,,,,,,,,,,,,,,,,,,,,,,,,,,,48,ladrn,,,1,1,0.53083,0,8,8,47,1,REAL,FAKE,,,,,,,,,,,,,,,,,,,,,
,,,,,,,5f121091e95fdc03b5e897d0,605b45a4d25f287719a41696,60623c4f0bb3054a1dc8f8af,Mexico,Midwest,13 or older,no,2021-03-29_16h46.00.134,empathy_intonation_perc,2020.2.10,Win32,60,,,,,,,,,,1,,,,,,,,,,,,,,,,,,,,,,,,,,,,,,,,,,,,,,,,69,engatusar,,,0,0,0.61473,0,9,9,68,1,REAL,FAKE,,,,,,,,,,,,,,,,,,,,,
,,,,,,,5f121091e95fdc03b5e897d0,605b45a4d25f287719a41696,60623c4f0bb3054a1dc8f8af,Mexico,Midwest,13 or older,no,2021-03-29_16h46.00.134,empathy_intonation_perc,2020.2.10,Win32,60,,,,,,,,,,0,,,,,,,,,,,,,,,,,,,,,,,,,,,,,,,,,,,,,,,,35,rompido,,,0,1,0.665105,0,10,10,34,1,REAL,FAKE,,,,,,,,,,,,,,,,,,,,,
,,,,,,,5f121091e95fdc03b5e897d0,605b45a4d25f287719a41696,60623c4f0bb3054a1dc8f8af,Mexico,Midwest,13 or older,no,2021-03-29_16h46.00.134,empathy_intonation_perc,2020.2.10,Win32,60,,,,,,,,,,1,,,,,,,,,,,,,,,,,,,,,,,,,,,,,,,,,,,,,,,,85,lad,,,1,1,0.99721,0,11,11,84,1,REAL,FAKE,,,,,,,,,,,,,,,,,,,,,
,,,,,,,5f121091e95fdc03b5e897d0,605b45a4d25f287719a41696,60623c4f0bb3054a1dc8f8af,Mexico,Midwest,13 or older,no,2021-03-29_16h46.00.134,empathy_intonation_perc,2020.2.10,Win32,60,,,,,,,,,,1,,,,,,,,,,,,,,,,,,,,,,,,,,,,,,,,,,,,,,,,39,torpe,,,0,0,0.748745,0,12,12,38,1,REAL,FAKE,,,,,,,,,,,,,,,,,,,,,
,,,,,,,5f121091e95fdc03b5e897d0,605b45a4d25f287719a41696,60623c4f0bb3054a1dc8f8af,Mexico,Midwest,13 or older,no,2021-03-29_16h46.00.134,empathy_intonation_perc,2020.2.10,Win32,60,,,,,,,,,,1,,,,,,,,,,,,,,,,,,,,,,,,,,,,,,,,,,,,,,,,59,besar,,,1,1,0.976005,0,13,13,58,1,REAL,FAKE,,,,,,,,,,,,,,,,,,,,,
,,,,,,,5f121091e95fdc03b5e897d0,605b45a4d25f287719a41696,60623c4f0bb3054a1dc8f8af,Mexico,Midwest,13 or older,no,2021-03-29_16h46.00.134,empathy_intonation_perc,2020.2.10,Win32,60,,,,,,,,,,0,,,,,,,,,,,,,,,,,,,,,,,,,,,,,,,,,,,,,,,,23,lampera,,,0,1,0.88074,0,14,14,22,1,REAL,FAKE,,,,,,,,,,,,,,,,,,,,,
,,,,,,,5f121091e95fdc03b5e897d0,605b45a4d25f287719a41696,60623c4f0bb3054a1dc8f8af,Mexico,Midwest,13 or older,no,2021-03-29_16h46.00.134,empathy_intonation_perc,2020.2.10,Win32,60,,,,,,,,,,0,,,,,,,,,,,,,,,,,,,,,,,,,,,,,,,,,,,,,,,,42,cadallo,,,1,0,1.650535,0,15,15,41,1,REAL,FAKE,,,,,,,,,,,,,,,,,,,,,
,,,,,,,5f121091e95fdc03b5e897d0,605b45a4d25f287719a41696,60623c4f0bb3054a1dc8f8af,Mexico,Midwest,13 or older,no,2021-03-29_16h46.00.134,empathy_intonation_perc,2020.2.10,Win32,60,,,,,,,,,,0,,,,,,,,,,,,,,,,,,,,,,,,,,,,,,,,,,,,,,,,32,fatacidad,,,0,1,1.649385,0,16,16,31,1,REAL,FAKE,,,,,,,,,,,,,,,,,,,,,
,,,,,,,5f121091e95fdc03b5e897d0,605b45a4d25f287719a41696,60623c4f0bb3054a1dc8f8af,Mexico,Midwest,13 or older,no,2021-03-29_16h46.00.134,empathy_intonation_perc,2020.2.10,Win32,60,,,,,,,,,,1,,,,,,,,,,,,,,,,,,,,,,,,,,,,,,,,,,,,,,,,61,seda,,,1,1,0.618245,0,17,17,60,1,REAL,FAKE,,,,,,,,,,,,,,,,,,,,,
,,,,,,,5f121091e95fdc03b5e897d0,605b45a4d25f287719a41696,60623c4f0bb3054a1dc8f8af,Mexico,Midwest,13 or older,no,2021-03-29_16h46.00.134,empathy_intonation_perc,2020.2.10,Win32,60,,,,,,,,,,1,,,,,,,,,,,,,,,,,,,,,,,,,,,,,,,,,,,,,,,,6,tergiversar,,,0,0,0.599145,0,18,18,5,1,REAL,FAKE,,,,,,,,,,,,,,,,,,,,,
,,,,,,,5f121091e95fdc03b5e897d0,605b45a4d25f287719a41696,60623c4f0bb3054a1dc8f8af,Mexico,Midwest,13 or older,no,2021-03-29_16h46.00.134,empathy_intonation_perc,2020.2.10,Win32,60,,,,,,,,,,1,,,,,,,,,,,,,,,,,,,,,,,,,,,,,,,,,,,,,,,,3,pulmones,,,0,0,0.5682,0,19,19,2,1,REAL,FAKE,,,,,,,,,,,,,,,,,,,,,
,,,,,,,5f121091e95fdc03b5e897d0,605b45a4d25f287719a41696,60623c4f0bb3054a1dc8f8af,Mexico,Midwest,13 or older,no,2021-03-29_16h46.00.134,empathy_intonation_perc,2020.2.10,Win32,60,,,,,,,,,,1,,,,,,,,,,,,,,,,,,,,,,,,,,,,,,,,,,,,,,,,88,acantilado,,,0,0,0.701185,0,20,20,87,1,REAL,FAKE,,,,,,,,,,,,,,,,,,,,,
,,,,,,,5f121091e95fdc03b5e897d0,605b45a4d25f287719a41696,60623c4f0bb3054a1dc8f8af,Mexico,Midwest,13 or older,no,2021-03-29_16h46.00.134,empathy_intonation_perc,2020.2.10,Win32,60,,,,,,,,,,0,,,,,,,,,,,,,,,,,,,,,,,,,,,,,,,,,,,,,,,,21,capillo,,,1,0,0.581435,0,21,21,20,1,REAL,FAKE,,,,,,,,,,,,,,,,,,,,,
,,,,,,,5f121091e95fdc03b5e897d0,605b45a4d25f287719a41696,60623c4f0bb3054a1dc8f8af,Mexico,Midwest,13 or older,no,2021-03-29_16h46.00.134,empathy_intonation_perc,2020.2.10,Win32,60,,,,,,,,,,1,,,,,,,,,,,,,,,,,,,,,,,,,,,,,,,,,,,,,,,,78,frondoso,,,0,0,0.64116,0,22,22,77,1,REAL,FAKE,,,,,,,,,,,,,,,,,,,,,
,,,,,,,5f121091e95fdc03b5e897d0,605b45a4d25f287719a41696,60623c4f0bb3054a1dc8f8af,Mexico,Midwest,13 or older,no,2021-03-29_16h46.00.134,empathy_intonation_perc,2020.2.10,Win32,60,,,,,,,,,,1,,,,,,,,,,,,,,,,,,,,,,,,,,,,,,,,,,,,,,,,7,psimo,,,0,0,0.65034,0,23,23,6,1,REAL,FAKE,,,,,,,,,,,,,,,,,,,,,
,,,,,,,5f121091e95fdc03b5e897d0,605b45a4d25f287719a41696,60623c4f0bb3054a1dc8f8af,Mexico,Midwest,13 or older,no,2021-03-29_16h46.00.134,empathy_intonation_perc,2020.2.10,Win32,60,,,,,,,,,,1,,,,,,,,,,,,,,,,,,,,,,,,,,,,,,,,,,,,,,,,11,cenefa,,,1,1,0.647525,0,24,24,10,1,REAL,FAKE,,,,,,,,,,,,,,,,,,,,,
,,,,,,,5f121091e95fdc03b5e897d0,605b45a4d25f287719a41696,60623c4f0bb3054a1dc8f8af,Mexico,Midwest,13 or older,no,2021-03-29_16h46.00.134,empathy_intonation_perc,2020.2.10,Win32,60,,,,,,,,,,1,,,,,,,,,,,,,,,,,,,,,,,,,,,,,,,,,,,,,,,,57,tacao,,,0,0,0.61301,0,25,25,56,1,REAL,FAKE,,,,,,,,,,,,,,,,,,,,,
,,,,,,,5f121091e95fdc03b5e897d0,605b45a4d25f287719a41696,60623c4f0bb3054a1dc8f8af,Mexico,Midwest,13 or older,no,2021-03-29_16h46.00.134,empathy_intonation_perc,2020.2.10,Win32,60,,,,,,,,,,1,,,,,,,,,,,,,,,,,,,,,,,,,,,,,,,,,,,,,,,,13,helar,,,0,0,0.715145,0,26,26,12,1,REAL,FAKE,,,,,,,,,,,,,,,,,,,,,
,,,,,,,5f121091e95fdc03b5e897d0,605b45a4d25f287719a41696,60623c4f0bb3054a1dc8f8af,Mexico,Midwest,13 or older,no,2021-03-29_16h46.00.134,empathy_intonation_perc,2020.2.10,Win32,60,,,,,,,,,,1,,,,,,,,,,,,,,,,,,,,,,,,,,,,,,,,,,,,,,,,80,hormiga,,,0,0,0.779985,0,27,27,79,1,REAL,FAKE,,,,,,,,,,,,,,,,,,,,,
,,,,,,,5f121091e95fdc03b5e897d0,605b45a4d25f287719a41696,60623c4f0bb3054a1dc8f8af,Mexico,Midwest,13 or older,no,2021-03-29_16h46.00.134,empathy_intonation_perc,2020.2.10,Win32,60,,,,,,,,,,1,,,,,,,,,,,,,,,,,,,,,,,,,,,,,,,,,,,,,,,,81,pozo,,,1,1,0.48231,0,28,28,80,1,REAL,FAKE,,,,,,,,,,,,,,,,,,,,,
,,,,,,,5f121091e95fdc03b5e897d0,605b45a4d25f287719a41696,60623c4f0bb3054a1dc8f8af,Mexico,Midwest,13 or older,no,2021-03-29_16h46.00.134,empathy_intonation_perc,2020.2.10,Win32,60,,,,,,,,,,1,,,,,,,,,,,,,,,,,,,,,,,,,,,,,,,,,,,,,,,,86,barato,,,1,1,0.625815,0,29,29,85,1,REAL,FAKE,,,,,,,,,,,,,,,,,,,,,
,,,,,,,5f121091e95fdc03b5e897d0,605b45a4d25f287719a41696,60623c4f0bb3054a1dc8f8af,Mexico,Midwest,13 or older,no,2021-03-29_16h46.00.134,empathy_intonation_perc,2020.2.10,Win32,60,,,,,,,,,,1,,,,,,,,,,,,,,,,,,,,,,,,,,,,,,,,,,,,,,,,24,ltigo,,,1,1,0.59691,0,30,30,23,1,REAL,FAKE,,,,,,,,,,,,,,,,,,,,,
,,,,,,,5f121091e95fdc03b5e897d0,605b45a4d25f287719a41696,60623c4f0bb3054a1dc8f8af,Mexico,Midwest,13 or older,no,2021-03-29_16h46.00.134,empathy_intonation_perc,2020.2.10,Win32,60,,,,,,,,,,0,,,,,,,,,,,,,,,,,,,,,,,,,,,,,,,,,,,,,,,,17,floroso,,,0,1,0.64213,0,31,31,16,1,REAL,FAKE,,,,,,,,,,,,,,,,,,,,,
,,,,,,,5f121091e95fdc03b5e897d0,605b45a4d25f287719a41696,60623c4f0bb3054a1dc8f8af,Mexico,Midwest,13 or older,no,2021-03-29_16h46.00.134,empathy_intonation_perc,2020.2.10,Win32,60,,,,,,,,,,1,,,,,,,,,,,,,,,,,,,,,,,,,,,,,,,,,,,,,,,,73,hervidor,,,0,0,0.10699,0,32,32,72,1,REAL,FAKE,,,,,,,,,,,,,,,,,,,,,
,,,,,,,5f121091e95fdc03b5e897d0,605b45a4d25f287719a41696,60623c4f0bb3054a1dc8f8af,Mexico,Midwest,13 or older,no,2021-03-29_16h46.00.134,empathy_intonation_perc,2020.2.10,Win32,60,,,,,,,,,,1,,,,,,,,,,,,,,,,,,,,,,,,,,,,,,,,,,,,,,,,45,jilguero,,,0,0,0.840385,0,33,33,44,1,REAL,FAKE,,,,,,,,,,,,,,,,,,,,,
,,,,,,,5f121091e95fdc03b5e897d0,605b45a4d25f287719a41696,60623c4f0bb3054a1dc8f8af,Mexico,Midwest,13 or older,no,2021-03-29_16h46.00.134,empathy_intonation_perc,2020.2.10,Win32,60,,,,,,,,,,1,,,,,,,,,,,,,,,,,,,,,,,,,,,,,,,,,,,,,,,,62,flaco,,,1,1,0.675975,0,34,34,61,1,REAL,FAKE,,,,,,,,,,,,,,,,,,,,,
,,,,,,,5f121091e95fdc03b5e897d0,605b45a4d25f287719a41696,60623c4f0bb3054a1dc8f8af,Mexico,Midwest,13 or older,no,2021-03-29_16h46.00.134,empathy_intonation_perc,2020.2.10,Win32,60,,,,,,,,,,1,,,,,,,,,,,,,,,,,,,,,,,,,,,,,,,,,,,,,,,,14,yunque,,,0,0,0.639135,0,35,35,13,1,REAL,FAKE,,,,,,,,,,,,,,,,,,,,,
,,,,,,,5f121091e95fdc03b5e897d0,605b45a4d25f287719a41696,60623c4f0bb3054a1dc8f8af,Mexico,Midwest,13 or older,no,2021-03-29_16h46.00.134,empathy_intonation_perc,2020.2.10,Win32,60,,,,,,,,,,0,,,,,,,,,,,,,,,,,,,,,,,,,,,,,,,,,,,,,,,,70,temblo,,,0,1,0.79928,0,36,36,69,1,REAL,FAKE,,,,,,,,,,,,,,,,,,,,,
,,,,,,,5f121091e95fdc03b5e897d0,605b45a4d25f287719a41696,60623c4f0bb3054a1dc8f8af,Mexico,Midwest,13 or older,no,2021-03-29_16h46.00.134,empathy_intonation_perc,2020.2.10,Win32,60,,,,,,,,,,1,,,,,,,,,,,,,,,,,,,,,,,,,,,,,,,,,,,,,,,,5,zapato,,,0,0,0.610405,0,37,37,4,1,REAL,FAKE,,,,,,,,,,,,,,,,,,,,,
,,,,,,,5f121091e95fdc03b5e897d0,605b45a4d25f287719a41696,60623c4f0bb3054a1dc8f8af,Mexico,Midwest,13 or older,no,2021-03-29_16h46.00.134,empathy_intonation_perc,2020.2.10,Win32,60,,,,,,,,,,1,,,,,,,,,,,,,,,,,,,,,,,,,,,,,,,,,,,,,,,,75,yacer,,,0,0,0.857725,0,38,38,74,1,REAL,FAKE,,,,,,,,,,,,,,,,,,,,,
,,,,,,,5f121091e95fdc03b5e897d0,605b45a4d25f287719a41696,60623c4f0bb3054a1dc8f8af,Mexico,Midwest,13 or older,no,2021-03-29_16h46.00.134,empathy_intonation_perc,2020.2.10,Win32,60,,,,,,,,,,1,,,,,,,,,,,,,,,,,,,,,,,,,,,,,,,,,,,,,,,,77,tiburn,,,1,1,0.765445,0,39,39,76,1,REAL,FAKE,,,,,,,,,,,,,,,,,,,,,
,,,,,,,5f121091e95fdc03b5e897d0,605b45a4d25f287719a41696,60623c4f0bb3054a1dc8f8af,Mexico,Midwest,13 or older,no,2021-03-29_16h46.00.134,empathy_intonation_perc,2020.2.10,Win32,60,,,,,,,,,,0,,,,,,,,,,,,,,,,,,,,,,,,,,,,,,,,,,,,,,,,82,empirador,,,0,1,0.616385,0,40,40,81,1,REAL,FAKE,,,,,,,,,,,,,,,,,,,,,
,,,,,,,5f121091e95fdc03b5e897d0,605b45a4d25f287719a41696,60623c4f0bb3054a1dc8f8af,Mexico,Midwest,13 or older,no,2021-03-29_16h46.00.134,empathy_intonation_perc,2020.2.10,Win32,60,,,,,,,,,,1,,,,,,,,,,,,,,,,,,,,,,,,,,,,,,,,,,,,,,,,64,orgulloso,,,0,0,0.56281,0,41,41,63,1,REAL,FAKE,,,,,,,,,,,,,,,,,,,,,
,,,,,,,5f121091e95fdc03b5e897d0,605b45a4d25f287719a41696,60623c4f0bb3054a1dc8f8af,Mexico,Midwest,13 or older,no,2021-03-29_16h46.00.134,empathy_intonation_perc,2020.2.10,Win32,60,,,,,,,,,,1,,,,,,,,,,,,,,,,,,,,,,,,,,,,,,,,,,,,,,,,76,atar,,,1,1,0.59267,0,42,42,75,1,REAL,FAKE,,,,,,,,,,,,,,,,,,,,,
,,,,,,,5f121091e95fdc03b5e897d0,605b45a4d25f287719a41696,60623c4f0bb3054a1dc8f8af,Mexico,Midwest,13 or older,no,2021-03-29_16h46.00.134,empathy_intonation_perc,2020.2.10,Win32,60,,,,,,,,,,1,,,,,,,,,,,,,,,,,,,,,,,,,,,,,,,,,,,,,,,,36,loro,,,1,1,0.6152,0,43,43,35,1,REAL,FAKE,,,,,,,,,,,,,,,,,,,,,
,,,,,,,5f121091e95fdc03b5e897d0,605b45a4d25f287719a41696,60623c4f0bb3054a1dc8f8af,Mexico,Midwest,13 or older,no,2021-03-29_16h46.00.134,empathy_intonation_perc,2020.2.10,Win32,60,,,,,,,,,,1,,,,,,,,,,,,,,,,,,,,,,,,,,,,,,,,,,,,,,,,44,cuchara,,,0,0,0.52098,0,44,44,43,1,REAL,FAKE,,,,,,,,,,,,,,,,,,,,,
,,,,,,,5f121091e95fdc03b5e897d0,605b45a4d25f287719a41696,60623c4f0bb3054a1dc8f8af,Mexico,Midwest,13 or older,no,2021-03-29_16h46.00.134,empathy_intonation_perc,2020.2.10,Win32,60,,,,,,,,,,0,,,,,,,,,,,,,,,,,,,,,,,,,,,,,,,,,,,,,,,,29,decar,,,1,0,0.681905,0,45,45,28,1,REAL,FAKE,,,,,,,,,,,,,,,,,,,,,
,,,,,,,5f121091e95fdc03b5e897d0,605b45a4d25f287719a41696,60623c4f0bb3054a1dc8f8af,Mexico,Midwest,13 or older,no,2021-03-29_16h46.00.134,empathy_intonation_perc,2020.2.10,Win32,60,,,,,,,,,,1,,,,,,,,,,,,,,,,,,,,,,,,,,,,,,,,,,,,,,,,51,candado,,,0,0,0.697365,0,46,46,50,1,REAL,FAKE,,,,,,,,,,,,,,,,,,,,,
,,,,,,,5f121091e95fdc03b5e897d0,605b45a4d25f287719a41696,60623c4f0bb3054a1dc8f8af,Mexico,Midwest,13 or older,no,2021-03-29_16h46.00.134,empathy_intonation_perc,2020.2.10,Win32,60,,,,,,,,,,1,,,,,,,,,,,,,,,,,,,,,,,,,,,,,,,,,,,,,,,,9,hacha,,,1,1,0.568555,0,47,47,8,1,REAL,FAKE,,,,,,,,,,,,,,,,,,,,,
,,,,,,,5f121091e95fdc03b5e897d0,605b45a4d25f287719a41696,60623c4f0bb3054a1dc8f8af,Mexico,Midwest,13 or older,no,2021-03-29_16h46.00.134,empathy_intonation_perc,2020.2.10,Win32,60,,,,,,,,,,1,,,,,,,,,,,,,,,,,,,,,,,,,,,,,,,,,,,,,,,,54,fomentar,,,0,0,0.73284,0,48,48,53,1,REAL,FAKE,,,,,,,,,,,,,,,,,,,,,
,,,,,,,5f121091e95fdc03b5e897d0,605b45a4d25f287719a41696,60623c4f0bb3054a1dc8f8af,Mexico,Midwest,13 or older,no,2021-03-29_16h46.00.134,empathy_intonation_perc,2020.2.10,Win32,60,,,,,,,,,,1,,,,,,,,,,,,,,,,,,,,,,,,,,,,,,,,,,,,,,,,71,polvoriento,,,0,0,0.513195,0,49,49,70,1,REAL,FAKE,,,,,,,,,,,,,,,,,,,,,
,,,,,,,5f121091e95fdc03b5e897d0,605b45a4d25f287719a41696,60623c4f0bb3054a1dc8f8af,Mexico,Midwest,13 or older,no,2021-03-29_16h46.00.134,empathy_intonation_perc,2020.2.10,Win32,60,,,,,,,,,,0,,,,,,,,,,,,,,,,,,,,,,,,,,,,,,,,,,,,,,,,10,antar,,,0,1,1.098,0,50,50,9,1,REAL,FAKE,,,,,,,,,,,,,,,,,,,,,
,,,,,,,5f121091e95fdc03b5e897d0,605b45a4d25f287719a41696,60623c4f0bb3054a1dc8f8af,Mexico,Midwest,13 or older,no,2021-03-29_16h46.00.134,empathy_intonation_perc,2020.2.10,Win32,60,,,,,,,,,,1,,,,,,,,,,,,,,,,,,,,,,,,,,,,,,,,,,,,,,,,89,prisa,,,0,0,0.90023,0,51,51,88,1,REAL,FAKE,,,,,,,,,,,,,,,,,,,,,
,,,,,,,5f121091e95fdc03b5e897d0,605b45a4d25f287719a41696,60623c4f0bb3054a1dc8f8af,Mexico,Midwest,13 or older,no,2021-03-29_16h46.00.134,empathy_intonation_perc,2020.2.10,Win32,60,,,,,,,,,,1,,,,,,,,,,,,,,,,,,,,,,,,,,,,,,,,,,,,,,,,41,rebuscar,,,0,0,0.59941,0,52,52,40,1,REAL,FAKE,,,,,,,,,,,,,,,,,,,,,
,,,,,,,5f121091e95fdc03b5e897d0,605b45a4d25f287719a41696,60623c4f0bb3054a1dc8f8af,Mexico,Midwest,13 or older,no,2021-03-29_16h46.00.134,empathy_intonation_perc,2020.2.10,Win32,60,,,,,,,,,,1,,,,,,,,,,,,,,,,,,,,,,,,,,,,,,,,,,,,,,,,55,nevar,,,0,0,0.50564,0,53,53,54,1,REAL,FAKE,,,,,,,,,,,,,,,,,,,,,
,,,,,,,5f121091e95fdc03b5e897d0,605b45a4d25f287719a41696,60623c4f0bb3054a1dc8f8af,Mexico,Midwest,13 or older,no,2021-03-29_16h46.00.134,empathy_intonation_perc,2020.2.10,Win32,60,,,,,,,,,,1,,,,,,,,,,,,,,,,,,,,,,,,,,,,,,,,,,,,,,,,25,bisagra,,,0,0,0.516205,0,54,54,24,1,REAL,FAKE,,,,,,,,,,,,,,,,,,,,,
,,,,,,,5f121091e95fdc03b5e897d0,605b45a4d25f287719a41696,60623c4f0bb3054a1dc8f8af,Mexico,Midwest,13 or older,no,2021-03-29_16h46.00.134,empathy_intonation_perc,2020.2.10,Win32,60,,,,,,,,,,1,,,,,,,,,,,,,,,,,,,,,,,,,,,,,,,,,,,,,,,,12,asesinato,,,0,0,0.50161,0,55,55,11,1,REAL,FAKE,,,,,,,,,,,,,,,,,,,,,
,,,,,,,5f121091e95fdc03b5e897d0,605b45a4d25f287719a41696,60623c4f0bb3054a1dc8f8af,Mexico,Midwest,13 or older,no,2021-03-29_16h46.00.134,empathy_intonation_perc,2020.2.10,Win32,60,,,,,,,,,,0,,,,,,,,,,,,,,,,,,,,,,,,,,,,,,,,,,,,,,,,19,brecedad,,,0,1,0.61737,0,56,56,18,1,REAL,FAKE,,,,,,,,,,,,,,,,,,,,,
,,,,,,,5f121091e95fdc03b5e897d0,605b45a4d25f287719a41696,60623c4f0bb3054a1dc8f8af,Mexico,Midwest,13 or older,no,2021-03-29_16h46.00.134,empathy_intonation_perc,2020.2.10,Win32,60,,,,,,,,,,1,,,,,,,,,,,,,,,,,,,,,,,,,,,,,,,,,,,,,,,,31,pandilla,,,0,0,0.43185,0,57,57,30,1,REAL,FAKE,,,,,,,,,,,,,,,,,,,,,
,,,,,,,5f121091e95fdc03b5e897d0,605b45a4d25f287719a41696,60623c4f0bb3054a1dc8f8af,Mexico,Midwest,13 or older,no,2021-03-29_16h46.00.134,empathy_intonation_perc,2020.2.10,Win32,60,,,,,,,,,,1,,,,,,,,,,,,,,,,,,,,,,,,,,,,,,,,,,,,,,,,67,cabello,,,0,0,0.447315,0,58,58,66,1,REAL,FAKE,,,,,,,,,,,,,,,,,,,,,
,,,,,,,5f121091e95fdc03b5e897d0,605b45a4d25f287719a41696,60623c4f0bb3054a1dc8f8af,Mexico,Midwest,13 or older,no,2021-03-29_16h46.00.134,empathy_intonation_perc,2020.2.10,Win32,60,,,,,,,,,,0,,,,,,,,,,,,,,,,,,,,,,,,,,,,,,,,,,,,,,,,4,batilln,,,1,0,0.763615,0,59,59,3,1,REAL,FAKE,,,,,,,,,,,,,,,,,,,,,
,,,,,,,5f121091e95fdc03b5e897d0,605b45a4d25f287719a41696,60623c4f0bb3054a1dc8f8af,Mexico,Midwest,13 or older,no,2021-03-29_16h46.00.134,empathy_intonation_perc,2020.2.10,Win32,60,,,,,,,,,,1,,,,,,,,,,,,,,,,,,,,,,,,,,,,,,,,,,,,,,,,22,lacayo,,,0,0,0.647265,0,60,60,21,1,REAL,FAKE,,,,,,,,,,,,,,,,,,,,,
,,,,,,,5f121091e95fdc03b5e897d0,605b45a4d25f287719a41696,60623c4f0bb3054a1dc8f8af,Mexico,Midwest,13 or older,no,2021-03-29_16h46.00.134,empathy_intonation_perc,2020.2.10,Win32,60,,,,,,,,,,1,,,,,,,,,,,,,,,,,,,,,,,,,,,,,,,,,,,,,,,,37,granuja,,,0,0,0.60041,0,61,61,36,1,REAL,FAKE,,,,,,,,,,,,,,,,,,,,,
,,,,,,,5f121091e95fdc03b5e897d0,605b45a4d25f287719a41696,60623c4f0bb3054a1dc8f8af,Mexico,Midwest,13 or older,no,2021-03-29_16h46.00.134,empathy_intonation_perc,2020.2.10,Win32,60,,,,,,,,,,0,,,,,,,,,,,,,,,,,,,,,,,,,,,,,,,,,,,,,,,,87,grodo,,,1,0,0.79299,0,62,62,86,1,REAL,FAKE,,,,,,,,,,,,,,,,,,,,,
,,,,,,,5f121091e95fdc03b5e897d0,605b45a4d25f287719a41696,60623c4f0bb3054a1dc8f8af,Mexico,Midwest,13 or older,no,2021-03-29_16h46.00.134,empathy_intonation_perc,2020.2.10,Win32,60,,,,,,,,,,1,,,,,,,,,,,,,,,,,,,,,,,,,,,,,,,,,,,,,,,,43,canela,,,0,0,0.606865,0,63,63,42,1,REAL,FAKE,,,,,,,,,,,,,,,,,,,,,
,,,,,,,5f121091e95fdc03b5e897d0,605b45a4d25f287719a41696,60623c4f0bb3054a1dc8f8af,Mexico,Midwest,13 or older,no,2021-03-29_16h46.00.134,empathy_intonation_perc,2020.2.10,Win32,60,,,,,,,,,,1,,,,,,,,,,,,,,,,,,,,,,,,,,,,,,,,,,,,,,,,68,alegre,,,0,0,0.79817,0,64,64,67,1,REAL,FAKE,,,,,,,,,,,,,,,,,,,,,
,,,,,,,5f121091e95fdc03b5e897d0,605b45a4d25f287719a41696,60623c4f0bb3054a1dc8f8af,Mexico,Midwest,13 or older,no,2021-03-29_16h46.00.134,empathy_intonation_perc,2020.2.10,Win32,60,,,,,,,,,,0,,,,,,,,,,,,,,,,,,,,,,,,,,,,,,,,,,,,,,,,27,acutacin,,,1,0,0.81451,0,65,65,26,1,REAL,FAKE,,,,,,,,,,,,,,,,,,,,,
,,,,,,,5f121091e95fdc03b5e897d0,605b45a4d25f287719a41696,60623c4f0bb3054a1dc8f8af,Mexico,Midwest,13 or older,no,2021-03-29_16h46.00.134,empathy_intonation_perc,2020.2.10,Win32,60,,,,,,,,,,0,,,,,,,,,,,,,,,,,,,,,,,,,,,,,,,,,,,,,,,,8,cadea,,,0,1,0.48278,0,66,66,7,1,REAL,FAKE,,,,,,,,,,,,,,,,,,,,,
,,,,,,,5f121091e95fdc03b5e897d0,605b45a4d25f287719a41696,60623c4f0bb3054a1dc8f8af,Mexico,Midwest,13 or older,no,2021-03-29_16h46.00.134,empathy_intonation_perc,2020.2.10,Win32,60,,,,,,,,,,1,,,,,,,,,,,,,,,,,,,,,,,,,,,,,,,,,,,,,,,,60,matar,,,0,0,0.41453,0,67,67,59,1,REAL,FAKE,,,,,,,,,,,,,,,,,,,,,
,,,,,,,5f121091e95fdc03b5e897d0,605b45a4d25f287719a41696,60623c4f0bb3054a1dc8f8af,Mexico,Midwest,13 or older,no,2021-03-29_16h46.00.134,empathy_intonation_perc,2020.2.10,Win32,60,,,,,,,,,,1,,,,,,,,,,,,,,,,,,,,,,,,,,,,,,,,,,,,,,,,90,clavel,,,1,1,0.558565,0,68,68,89,1,REAL,FAKE,,,,,,,,,,,,,,,,,,,,,
,,,,,,,5f121091e95fdc03b5e897d0,605b45a4d25f287719a41696,60623c4f0bb3054a1dc8f8af,Mexico,Midwest,13 or older,no,2021-03-29_16h46.00.134,empathy_intonation_perc,2020.2.10,Win32,60,,,,,,,,,,1,,,,,,,,,,,,,,,,,,,,,,,,,,,,,,,,,,,,,,,,46,martillo,,,0,0,0.280555,0,69,69,45,1,REAL,FAKE,,,,,,,,,,,,,,,,,,,,,
,,,,,,,5f121091e95fdc03b5e897d0,605b45a4d25f287719a41696,60623c4f0bb3054a1dc8f8af,Mexico,Midwest,13 or older,no,2021-03-29_16h46.00.134,empathy_intonation_perc,2020.2.10,Win32,60,,,,,,,,,,1,,,,,,,,,,,,,,,,,,,,,,,,,,,,,,,,,,,,,,,,20,vido,,,0,0,0.401065,0,70,70,19,1,REAL,FAKE,,,,,,,,,,,,,,,,,,,,,
,,,,,,,5f121091e95fdc03b5e897d0,605b45a4d25f287719a41696,60623c4f0bb3054a1dc8f8af,Mexico,Midwest,13 or older,no,2021-03-29_16h46.00.134,empathy_intonation_perc,2020.2.10,Win32,60,,,,,,,,,,1,,,,,,,,,,,,,,,,,,,,,,,,,,,,,,,,,,,,,,,,83,guante,,,0,0,0.370515,0,71,71,82,1,REAL,FAKE,,,,,,,,,,,,,,,,,,,,,
,,,,,,,5f121091e95fdc03b5e897d0,605b45a4d25f287719a41696,60623c4f0bb3054a1dc8f8af,Mexico,Midwest,13 or older,no,2021-03-29_16h46.00.134,empathy_intonation_perc,2020.2.10,Win32,60,,,,,,,,,,0,,,,,,,,,,,,,,,,,,,,,,,,,,,,,,,,,,,,,,,,53,vegada,,,0,1,0.330255,0,72,72,52,1,REAL,FAKE,,,,,,,,,,,,,,,,,,,,,
,,,,,,,5f121091e95fdc03b5e897d0,605b45a4d25f287719a41696,60623c4f0bb3054a1dc8f8af,Mexico,Midwest,13 or older,no,2021-03-29_16h46.00.134,empathy_intonation_perc,2020.2.10,Win32,60,,,,,,,,,,1,,,,,,,,,,,,,,,,,,,,,,,,,,,,,,,,,,,,,,,,56,musgo,,,0,0,0.88335,0,73,73,55,1,REAL,FAKE,,,,,,,,,,,,,,,,,,,,,
,,,,,,,5f121091e95fdc03b5e897d0,605b45a4d25f287719a41696,60623c4f0bb3054a1dc8f8af,Mexico,Midwest,13 or older,no,2021-03-29_16h46.00.134,empathy_intonation_perc,2020.2.10,Win32,60,,,,,,,,,,1,,,,,,,,,,,,,,,,,,,,,,,,,,,,,,,,,,,,,,,,2,pellizcar,,,1,1,0.525975,0,74,74,1,1,REAL,FAKE,,,,,,,,,,,,,,,,,,,,,
,,,,,,,5f121091e95fdc03b5e897d0,605b45a4d25f287719a41696,60623c4f0bb3054a1dc8f8af,Mexico,Midwest,13 or older,no,2021-03-29_16h46.00.134,empathy_intonation_perc,2020.2.10,Win32,60,,,,,,,,,,0,,,,,,,,,,,,,,,,,,,,,,,,,,,,,,,,,,,,,,,,16,abracer,,,0,1,0.486615,0,75,75,15,1,REAL,FAKE,,,,,,,,,,,,,,,,,,,,,
,,,,,,,5f121091e95fdc03b5e897d0,605b45a4d25f287719a41696,60623c4f0bb3054a1dc8f8af,Mexico,Midwest,13 or older,no,2021-03-29_16h46.00.134,empathy_intonation_perc,2020.2.10,Win32,60,,,,,,,,,,1,,,,,,,,,,,,,,,,,,,,,,,,,,,,,,,,,,,,,,,,52,camisa,,,1,1,0.44877,0,76,76,51,1,REAL,FAKE,,,,,,,,,,,,,,,,,,,,,
,,,,,,,5f121091e95fdc03b5e897d0,605b45a4d25f287719a41696,60623c4f0bb3054a1dc8f8af,Mexico,Midwest,13 or older,no,2021-03-29_16h46.00.134,empathy_intonation_perc,2020.2.10,Win32,60,,,,,,,,,,1,,,,,,,,,,,,,,,,,,,,,,,,,,,,,,,,,,,,,,,,40,alfombra,,,0,0,0.6129,0,77,77,39,1,REAL,FAKE,,,,,,,,,,,,,,,,,,,,,
,,,,,,,5f121091e95fdc03b5e897d0,605b45a4d25f287719a41696,60623c4f0bb3054a1dc8f8af,Mexico,Midwest,13 or older,no,2021-03-29_16h46.00.134,empathy_intonation_perc,2020.2.10,Win32,60,,,,,,,,,,0,,,,,,,,,,,,,,,,,,,,,,,,,,,,,,,,,,,,,,,,66,hacido,,,0,1,0.58022,0,78,78,65,1,REAL,FAKE,,,,,,,,,,,,,,,,,,,,,
,,,,,,,5f121091e95fdc03b5e897d0,605b45a4d25f287719a41696,60623c4f0bb3054a1dc8f8af,Mexico,Midwest,13 or older,no,2021-03-29_16h46.00.134,empathy_intonation_perc,2020.2.10,Win32,60,,,,,,,,,,0,,,,,,,,,,,,,,,,,,,,,,,,,,,,,,,,,,,,,,,,33,pauca,,,0,1,0.366495,0,79,79,32,1,REAL,FAKE,,,,,,,,,,,,,,,,,,,,,
,,,,,,,5f121091e95fdc03b5e897d0,605b45a4d25f287719a41696,60623c4f0bb3054a1dc8f8af,Mexico,Midwest,13 or older,no,2021-03-29_16h46.00.134,empathy_intonation_perc,2020.2.10,Win32,60,,,,,,,,,,0,,,,,,,,,,,,,,,,,,,,,,,,,,,,,,,,,,,,,,,,58,plaudir,,,0,1,0.33186,0,80,80,57,1,REAL,FAKE,,,,,,,,,,,,,,,,,,,,,
,,,,,,,5f121091e95fdc03b5e897d0,605b45a4d25f287719a41696,60623c4f0bb3054a1dc8f8af,Mexico,Midwest,13 or older,no,2021-03-29_16h46.00.134,empathy_intonation_perc,2020.2.10,Win32,60,,,,,,,,,,1,,,,,,,,,,,,,,,,,,,,,,,,,,,,,,,,,,,,,,,,34,aviso,,,0,0,0.43275,0,81,81,33,1,REAL,FAKE,,,,,,,,,,,,,,,,,,,,,
,,,,,,,5f121091e95fdc03b5e897d0,605b45a4d25f287719a41696,60623c4f0bb3054a1dc8f8af,Mexico,Midwest,13 or older,no,2021-03-29_16h46.00.134,empathy_intonation_perc,2020.2.10,Win32,60,,,,,,,,,,0,,,,,,,,,,,,,,,,,,,,,,,,,,,,,,,,,,,,,,,,79,tropaje,,,0,1,0.65358,0,82,82,78,1,REAL,FAKE,,,,,,,,,,,,,,,,,,,,,
,,,,,,,5f121091e95fdc03b5e897d0,605b45a4d25f287719a41696,60623c4f0bb3054a1dc8f8af,Mexico,Midwest,13 or older,no,2021-03-29_16h46.00.134,empathy_intonation_perc,2020.2.10,Win32,60,,,,,,,,,,1,,,,,,,,,,,,,,,,,,,,,,,,,,,,,,,,,,,,,,,,65,bizcocho,,,0,0,0.515595,0,83,83,64,1,REAL,FAKE,,,,,,,,,,,,,,,,,,,,,
,,,,,,,5f121091e95fdc03b5e897d0,605b45a4d25f287719a41696,60623c4f0bb3054a1dc8f8af,Mexico,Midwest,13 or older,no,2021-03-29_16h46.00.134,empathy_intonation_perc,2020.2.10,Win32,60,,,,,,,,,,0,,,,,,,,,,,,,,,,,,,,,,,,,,,,,,,,,,,,,,,,30,alardio,,,0,1,0.45197,0,84,84,29,1,REAL,FAKE,,,,,,,,,,,,,,,,,,,,,
,,,,,,,5f121091e95fdc03b5e897d0,605b45a4d25f287719a41696,60623c4f0bb3054a1dc8f8af,Mexico,Midwest,13 or older,no,2021-03-29_16h46.00.134,empathy_intonation_perc,2020.2.10,Win32,60,,,,,,,,,,0,,,,,,,,,,,,,,,,,,,,,,,,,,,,,,,,,,,,,,,,74,cintro,,,0,1,0.899575,0,85,85,73,1,REAL,FAKE,,,,,,,,,,,,,,,,,,,,,
,,,,,,,5f121091e95fdc03b5e897d0,605b45a4d25f287719a41696,60623c4f0bb3054a1dc8f8af,Mexico,Midwest,13 or older,no,2021-03-29_16h46.00.134,empathy_intonation_perc,2020.2.10,Win32,60,,,,,,,,,,0,,,,,,,,,,,,,,,,,,,,,,,,,,,,,,,,,,,,,,,,47,cartinar,,,0,1,0.598285,0,86,86,46,1,REAL,FAKE,,,,,,,,,,,,,,,,,,,,,
,,,,,,,5f121091e95fdc03b5e897d0,605b45a4d25f287719a41696,60623c4f0bb3054a1dc8f8af,Mexico,Midwest,13 or older,no,2021-03-29_16h46.00.134,empathy_intonation_perc,2020.2.10,Win32,60,,,,,,,,,,0,,,,,,,,,,,,,,,,,,,,,,,,,,,,,,,,,,,,,,,,1,terzo,,,1,0,0.39798,0,87,87,0,1,REAL,FAKE,,,,,,,,,,,,,,,,,,,,,
,,,,,,,5f121091e95fdc03b5e897d0,605b45a4d25f287719a41696,60623c4f0bb3054a1dc8f8af,Mexico,Midwest,13 or older,no,2021-03-29_16h46.00.134,empathy_intonation_perc,2020.2.10,Win32,60,,,,,,,,,,1,,,,,,,,,,,,,,,,,,,,,,,,,,,,,,,,,,,,,,,,38,estornudar,,,0,0,0.406265,0,88,88,37,1,REAL,FAKE,,,,,,,,,,,,,,,,,,,,,
,,,,,,,5f121091e95fdc03b5e897d0,605b45a4d25f287719a41696,60623c4f0bb3054a1dc8f8af,Mexico,Midwest,13 or older,no,2021-03-29_16h46.00.134,empathy_intonation_perc,2020.2.10,Win32,60,,,,,,,,,,0,,,,,,,,,,,,,,,,,,,,,,,,,,,,,,,,,,,,,,,,84,escuto,,,1,0,0.46586,0,89,89,83,1,REAL,FAKE,,,,,,,,,,,,,,,,,,,,,
,,,,,,,5f121091e95fdc03b5e897d0,605b45a4d25f287719a41696,60623c4f0bb3054a1dc8f8af,Mexico,Midwest,13 or older,no,2021-03-29_16h46.00.134,empathy_intonation_perc,2020.2.10,Win32,60,,,,,,,,,,,,,,,,,,,,,,,,,,,,,,,,,,,,,,,,,,,,,,,,,,,,,,,,,,,,,,,,4,1,2.084175,1,0,0,0,0,0,1,,,,,,,,,,,
,,,,,,,5f121091e95fdc03b5e897d0,605b45a4d25f287719a41696,60623c4f0bb3054a1dc8f8af,Mexico,Midwest,13 or older,no,2021-03-29_16h46.00.134,empathy_intonation_perc,2020.2.10,Win32,60,,,,,,,,,,,,,,,,,,,,1,,,,,,,,,,,,,,,,,,,,,,,,,,,,,,,,,,,,,,,,,,,,,,,,,,,,,,1,0,0,0,0,1,I can easily tell if someone else wants to enter a conversation.,1,0,1,0
,,,,,,,5f121091e95fdc03b5e897d0,605b45a4d25f287719a41696,60623c4f0bb3054a1dc8f8af,Mexico,Midwest,13 or older,no,2021-03-29_16h46.00.134,empathy_intonation_perc,2020.2.10,Win32,60,,,,,,,,,,,,,,,,,,,,2,,,,,,,,,,,,,,,,,,,,,,,,,,,,,,,,,,,,,,,,,,,,,,,,,,,,,,1,0,1,1,1,1,I prefer animals to humans.,0,1,0,0
,,,,,,,5f121091e95fdc03b5e897d0,605b45a4d25f287719a41696,60623c4f0bb3054a1dc8f8af,Mexico,Midwest,13 or older,no,2021-03-29_16h46.00.134,empathy_intonation_perc,2020.2.10,Win32,60,,,,,,,,,,,,,,,,,,,,3,,,,,,,,,,,,,,,,,,,,,,,,,,,,,,,,,,,,,,,,,,,,,,,,,,,,,,2,0,2,2,2,1,I try to keep up with the current trends and fashions.,0,1,0,0
,,,,,,,5f121091e95fdc03b5e897d0,605b45a4d25f287719a41696,60623c4f0bb3054a1dc8f8af,Mexico,Midwest,13 or older,no,2021-03-29_16h46.00.134,empathy_intonation_perc,2020.2.10,Win32,60,,,,,,,,,,,,,,,,,,,,4,,,,,,,,,,,,,,,,,,,,,,,,,,,,,,,,,,,,,,,,,,,,,,,,,,,,,,1,0,3,3,3,1,"I find it difficult to explain to others things that I understand easily, 
  when they dont understand it first time.",1,0,0,1
,,,,,,,5f121091e95fdc03b5e897d0,605b45a4d25f287719a41696,60623c4f0bb3054a1dc8f8af,Mexico,Midwest,13 or older,no,2021-03-29_16h46.00.134,empathy_intonation_perc,2020.2.10,Win32,60,,,,,,,,,,,,,,,,,,,,5,,,,,,,,,,,,,,,,,,,,,,,,,,,,,,,,,,,,,,,,,,,,,,,,,,,,,,1,0,4,4,4,1,I dream most nights.,0,1,0,0
,,,,,,,5f121091e95fdc03b5e897d0,605b45a4d25f287719a41696,60623c4f0bb3054a1dc8f8af,Mexico,Midwest,13 or older,no,2021-03-29_16h46.00.134,empathy_intonation_perc,2020.2.10,Win32,60,,,,,,,,,,,,,,,,,,,,6,,,,,,,,,,,,,,,,,,,,,,,,,,,,,,,,,,,,,,,,,,,,,,,,,,,,,,3,0,5,5,5,1,I really enjoy caring for other people.,1,0,1,0
,,,,,,,5f121091e95fdc03b5e897d0,605b45a4d25f287719a41696,60623c4f0bb3054a1dc8f8af,Mexico,Midwest,13 or older,no,2021-03-29_16h46.00.134,empathy_intonation_perc,2020.2.10,Win32,60,,,,,,,,,,,,,,,,,,,,7,,,,,,,,,,,,,,,,,,,,,,,,,,,,,,,,,,,,,,,,,,,,,,,,,,,,,,1,0,6,6,6,1,I try to solve my own problems rather than discussing them with others.,0,1,0,0
,,,,,,,5f121091e95fdc03b5e897d0,605b45a4d25f287719a41696,60623c4f0bb3054a1dc8f8af,Mexico,Midwest,13 or older,no,2021-03-29_16h46.00.134,empathy_intonation_perc,2020.2.10,Win32,60,,,,,,,,,,,,,,,,,,,,8,,,,,,,,,,,,,,,,,,,,,,,,,,,,,,,,,,,,,,,,,,,,,,,,,,,,,,3,0,7,7,7,1,I find it hard to know what to do in a social situation.,1,0,0,1
,,,,,,,5f121091e95fdc03b5e897d0,605b45a4d25f287719a41696,60623c4f0bb3054a1dc8f8af,Mexico,Midwest,13 or older,no,2021-03-29_16h46.00.134,empathy_intonation_perc,2020.2.10,Win32,60,,,,,,,,,,,,,,,,,,,,9,,,,,,,,,,,,,,,,,,,,,,,,,,,,,,,,,,,,,,,,,,,,,,,,,,,,,,5,0,8,8,8,1,I am at my best first thing in the morning.,0,1,0,0
