instructions_2afc_loop.thisRepN,instructions_2afc_loop.thisTrialN,instructions_2afc_loop.thisN,instructions_2afc_loop.thisIndex,instructions_2afc_loop.ran,instructions_text,continue_text,participant,study_id,session,I am most familiar with Spanish from...*,What part of the US are you from?*,At what age did you begin learning Spanish?*,Are you proficient in any languages other than English/Spanish?*,date,expName,psychopyVersion,OS,frameRate,key_resp_2afc_practice.keys,key_resp_2afc_practice.corr,key_resp_2afc_practice.rt,trials_2afc_practice_loop.thisRepN,trials_2afc_practice_loop.thisTrialN,trials_2afc_practice_loop.thisN,trials_2afc_practice_loop.thisIndex,trials_2afc_practice_loop.ran,path,correct_response,the_col,key_resp_2afc_trial.keys,key_resp_2afc_trial.corr,key_resp_2afc_trial.rt,trials_2afc_loop.thisRepN,trials_2afc_loop.thisTrialN,trials_2afc_loop.thisN,trials_2afc_loop.thisIndex,trials_2afc_loop.ran,item_num,andalusian,argentine,castilian,chilean,cuban,mexican,peruvian,puertorican,key_resp_ac1.keys,key_resp_ac1.corr,key_resp_ac1.rt,ac1_loop.thisRepN,ac1_loop.thisTrialN,ac1_loop.thisN,ac1_loop.thisIndex,ac1_loop.ran,instructions_lextale_loop.thisRepN,instructions_lextale_loop.thisTrialN,instructions_lextale_loop.thisN,instructions_lextale_loop.thisIndex,instructions_lextale_loop.ran,key_resp_lextale_practice.keys,key_resp_lextale_practice.corr,key_resp_lextale_practice.rt,trials_lextale_practice_loop.thisRepN,trials_lextale_practice_loop.thisTrialN,trials_lextale_practice_loop.thisN,trials_lextale_practice_loop.thisIndex,trials_lextale_practice_loop.ran,stim,word,prac_button_real,prac_button_false,key_resp_lextale_trial.keys,key_resp_lextale_trial.corr,key_resp_lextale_trial.rt,trials_lextale_loop.thisRepN,trials_lextale_loop.thisTrialN,trials_lextale_loop.thisN,trials_lextale_loop.thisIndex,trials_lextale_loop.ran,button_real,button_false,key_resp_ac2.keys,key_resp_ac2.corr,key_resp_ac2.rt,check_pass,check_fails,ac2_loop.thisRepN,ac2_loop.thisTrialN,ac2_loop.thisN,ac2_loop.thisIndex,ac2_loop.ran,slider_eq_trial.response,trials_eq_loop.thisRepN,trials_eq_loop.thisTrialN,trials_eq_loop.thisN,trials_eq_loop.thisIndex,trials_eq_loop.ran,item,is_test_item,is_distractor,is_agree_score,is_disagree_score
0,0,0,0,1,"In the following task you are going to hear a series of utterances. 

  You will decide if the utterances sound like questions or not using your keyboard.",(press the spacebar to continue),5f14e0f456500058ee865863,605b45a4d25f287719a41696,605cee943559b3a5be3b387c,Spain,Midwest,13 or older,no,2021-03-25_16h12.37.493,empathy_intonation_perc,2020.2.10,Linux i686,60,,,,,,,,,,,,,,,,,,,,,,,,,,,,,,,,,,,,,,,,,,,,,,,,,,,,,,,,,,,,,,,,,,,,,,,,,,,,,,,,,,,,
0,1,1,1,1,"If you believe the utterance is a question, type '1' (for 'yes') and if you do not 
  believe it is a question type '0' (for 'no').

  Let's practice a bit...",(press the spacebar to continue),5f14e0f456500058ee865863,605b45a4d25f287719a41696,605cee943559b3a5be3b387c,Spain,Midwest,13 or older,no,2021-03-25_16h12.37.493,empathy_intonation_perc,2020.2.10,Linux i686,60,,,,,,,,,,,,,,,,,,,,,,,,,,,,,,,,,,,,,,,,,,,,,,,,,,,,,,,,,,,,,,,,,,,,,,,,,,,,,,,,,,,,
,,,,,,,5f14e0f456500058ee865863,605b45a4d25f287719a41696,605cee943559b3a5be3b387c,Spain,Midwest,13 or older,no,2021-03-25_16h12.37.493,empathy_intonation_perc,2020.2.10,Linux i686,60,1,1,7.408,0,0,0,0,1,./stim/wavs/castilian_question_filler_Mi-esposo-conoce-al-chico.wav,1,,,,,,,,,,,,,,,,,,,,,,,,,,,,,,,,,,,,,,,,,,,,,,,,,,,,,,,,,,,,,,,,,,,,,,,,,,
,,,,,,,5f14e0f456500058ee865863,605b45a4d25f287719a41696,605cee943559b3a5be3b387c,Spain,Midwest,13 or older,no,2021-03-25_16h12.37.493,empathy_intonation_perc,2020.2.10,Linux i686,60,0,1,3.631,0,1,1,7,1,./stim/wavs/puertorican_statement_filler_La-nina-pinta-con-su-amiga.wav,0,,,,,,,,,,,,,,,,,,,,,,,,,,,,,,,,,,,,,,,,,,,,,,,,,,,,,,,,,,,,,,,,,,,,,,,,,,
,,,,,,,5f14e0f456500058ee865863,605b45a4d25f287719a41696,605cee943559b3a5be3b387c,Spain,Midwest,13 or older,no,2021-03-25_16h12.37.493,empathy_intonation_perc,2020.2.10,Linux i686,60,0,0,3.655,0,2,2,2,1,./stim/wavs/chilean_question_filler_Mi-padre-cantaba-bien.wav,1,,,,,,,,,,,,,,,,,,,,,,,,,,,,,,,,,,,,,,,,,,,,,,,,,,,,,,,,,,,,,,,,,,,,,,,,,,
,,,,,,,5f14e0f456500058ee865863,605b45a4d25f287719a41696,605cee943559b3a5be3b387c,Spain,Midwest,13 or older,no,2021-03-25_16h12.37.493,empathy_intonation_perc,2020.2.10,Linux i686,60,0,1,2.085,0,3,3,6,1,./stim/wavs/peruvian_statement_filler_El-nino-habla-con-su-madre.wav,0,,,,,,,,,,,,,,,,,,,,,,,,,,,,,,,,,,,,,,,,,,,,,,,,,,,,,,,,,,,,,,,,,,,,,,,,,,
,,,,,,,5f14e0f456500058ee865863,605b45a4d25f287719a41696,605cee943559b3a5be3b387c,Spain,Midwest,13 or older,no,2021-03-25_16h12.37.493,empathy_intonation_perc,2020.2.10,Linux i686,60,0,1,3.216,0,4,4,4,1,./stim/wavs/cuban_statement_filler_Cocinabas-por-la-noche.wav,0,,,,,,,,,,,,,,,,,,,,,,,,,,,,,,,,,,,,,,,,,,,,,,,,,,,,,,,,,,,,,,,,,,,,,,,,,,
,,,,,,,5f14e0f456500058ee865863,605b45a4d25f287719a41696,605cee943559b3a5be3b387c,Spain,Midwest,13 or older,no,2021-03-25_16h12.37.493,empathy_intonation_perc,2020.2.10,Linux i686,60,1,1,1.825,0,5,5,1,1,./stim/wavs/argentine_question_filler_Mi-vecino-habla-mucho.wav,1,,,,,,,,,,,,,,,,,,,,,,,,,,,,,,,,,,,,,,,,,,,,,,,,,,,,,,,,,,,,,,,,,,,,,,,,,,
,,,,,,,5f14e0f456500058ee865863,605b45a4d25f287719a41696,605cee943559b3a5be3b387c,Spain,Midwest,13 or older,no,2021-03-25_16h12.37.493,empathy_intonation_perc,2020.2.10,Linux i686,60,1,1,2.679,0,6,6,3,1,./stim/wavs/mexican_question_filler_Felipe-no-tiene-contrasena.wav,1,,,,,,,,,,,,,,,,,,,,,,,,,,,,,,,,,,,,,,,,,,,,,,,,,,,,,,,,,,,,,,,,,,,,,,,,,,
,,,,,,,5f14e0f456500058ee865863,605b45a4d25f287719a41696,605cee943559b3a5be3b387c,Spain,Midwest,13 or older,no,2021-03-25_16h12.37.493,empathy_intonation_perc,2020.2.10,Linux i686,60,0,1,1.827,0,7,7,5,1,./stim/wavs/andalusian_statement_filler_Alberto-nunca-se-afeita.wav,0,,,,,,,,,,,,,,,,,,,,,,,,,,,,,,,,,,,,,,,,,,,,,,,,,,,,,,,,,,,,,,,,,,,,,,,,,,
,,,,,,,5f14e0f456500058ee865863,605b45a4d25f287719a41696,605cee943559b3a5be3b387c,Spain,Midwest,13 or older,no,2021-03-25_16h12.37.493,empathy_intonation_perc,2020.2.10,Linux i686,60,,,,,,,,,,1,andalusian,1,1,1.778,0,0,0,28,1,29,./stim/wavs/andalusian_match_interrogative-total-yn_Manuela-vende-el-carro.wav,./stim/wavs/argentine_match_interrogative-total-yn_Manuela-vende-el-carro.wav,./stim/wavs/castilian_match_interrogative-total-yn_Manuela-vende-el-carro.wav,./stim/wavs/chilean_match_interrogative-total-yn_Manuela-vende-el-carro.wav,./stim/wavs/cuban_match_interrogative-total-yn_Manuela-vende-el-carro.wav,./stim/wavs/mexican_match_interrogative-total-yn_Manuela-vende-el-carro.wav,./stim/wavs/peruvian_match_interrogative-total-yn_Manuela-vende-el-carro.wav,./stim/wavs/puertorican_match_interrogative-total-yn_Manuela-vende-el-carro.wav,,,,,,,,,,,,,,,,,,,,,,,,,,,,,,,,,,,,,,,,,,,,,,,,,,,,,,,,
,,,,,,,5f14e0f456500058ee865863,605b45a4d25f287719a41696,605cee943559b3a5be3b387c,Spain,Midwest,13 or older,no,2021-03-25_16h12.37.493,empathy_intonation_perc,2020.2.10,Linux i686,60,,,,,,,,,,1,peruvian,0,0,3.307,0,1,1,22,1,23,./stim/wavs/andalusian_match_interrogative-partial-wh_Por-que-hablaba-del-agua.wav,./stim/wavs/argentine_match_interrogative-partial-wh_Por-que-hablaba-del-agua.wav,./stim/wavs/castilian_match_interrogative-partial-wh_Por-que-hablaba-del-agua.wav,./stim/wavs/chilean_match_interrogative-partial-wh_Por-que-hablaba-del-agua.wav,./stim/wavs/cuban_match_interrogative-partial-wh_Por-que-hablaba-del-agua.wav,./stim/wavs/mexican_match_interrogative-partial-wh_Por-que-hablaba-del-agua.wav,./stim/wavs/peruvian_match_interrogative-partial-wh_Por-que-hablaba-del-agua.wav,./stim/wavs/puertorican_match_interrogative-partial-wh_Por-que-hablaba-del-agua.wav,,,,,,,,,,,,,,,,,,,,,,,,,,,,,,,,,,,,,,,,,,,,,,,,,,,,,,,,
,,,,,,,5f14e0f456500058ee865863,605b45a4d25f287719a41696,605cee943559b3a5be3b387c,Spain,Midwest,13 or older,no,2021-03-25_16h12.37.493,empathy_intonation_perc,2020.2.10,Linux i686,60,,,,,,,,,,0,andalusian,0,1,1.725,0,2,2,4,1,5,./stim/wavs/andalusian_match_declarative-broad-focus_Manuela-vende-el-carro.wav,./stim/wavs/argentine_match_declarative-broad-focus_Manuela-vende-el-carro.wav,./stim/wavs/castilian_match_declarative-broad-focus_Manuela-vende-el-carro.wav,./stim/wavs/chilean_match_declarative-broad-focus_Manuela-vende-el-carro.wav,./stim/wavs/cuban_match_declarative-broad-focus_Manuela-vende-el-carro.wav,./stim/wavs/mexican_match_declarative-broad-focus_Manuela-vende-el-carro.wav,./stim/wavs/peruvian_match_declarative-broad-focus_Manuela-vende-el-carro.wav,./stim/wavs/puertorican_match_declarative-broad-focus_Manuela-vende-el-carro.wav,,,,,,,,,,,,,,,,,,,,,,,,,,,,,,,,,,,,,,,,,,,,,,,,,,,,,,,,
,,,,,,,5f14e0f456500058ee865863,605b45a4d25f287719a41696,605cee943559b3a5be3b387c,Spain,Midwest,13 or older,no,2021-03-25_16h12.37.493,empathy_intonation_perc,2020.2.10,Linux i686,60,,,,,,,,,,0,puertorican,0,1,2.098,0,3,3,7,1,8,./stim/wavs/andalusian_match_declarative-broad-focus_Marta-abre-el-regalo.wav,./stim/wavs/argentine_match_declarative-broad-focus_Marta-abre-el-regalo.wav,./stim/wavs/castilian_match_declarative-broad-focus_Marta-abre-el-regalo.wav,./stim/wavs/chilean_match_declarative-broad-focus_Marta-abre-el-regalo.wav,./stim/wavs/cuban_match_declarative-broad-focus_Marta-abre-el-regalo.wav,./stim/wavs/mexican_match_declarative-broad-focus_Marta-abre-el-regalo.wav,./stim/wavs/peruvian_match_declarative-broad-focus_Marta-abre-el-regalo.wav,./stim/wavs/puertorican_match_declarative-broad-focus_Marta-abre-el-regalo.wav,,,,,,,,,,,,,,,,,,,,,,,,,,,,,,,,,,,,,,,,,,,,,,,,,,,,,,,,
,,,,,,,5f14e0f456500058ee865863,605b45a4d25f287719a41696,605cee943559b3a5be3b387c,Spain,Midwest,13 or older,no,2021-03-25_16h12.37.493,empathy_intonation_perc,2020.2.10,Linux i686,60,,,,,,,,,,1,argentine,1,1,1.502,0,4,4,54,1,55,./stim/wavs/andalusian_mismatch_interrogative-partial-wh_Por-que-venia-del-lago.wav,./stim/wavs/argentine_mismatch_interrogative-partial-wh_Por-que-venia-del-lago.wav,./stim/wavs/castilian_mismatch_interrogative-partial-wh_Por-que-venia-del-lago.wav,./stim/wavs/chilean_mismatch_interrogative-partial-wh_Por-que-venia-del-lago.wav,./stim/wavs/cuban_mismatch_interrogative-partial-wh_Por-que-venia-del-lago.wav,./stim/wavs/mexican_mismatch_interrogative-partial-wh_Por-que-venia-del-lago.wav,./stim/wavs/peruvian_mismatch_interrogative-partial-wh_Por-que-venia-del-lago.wav,./stim/wavs/puertorican_mismatch_interrogative-partial-wh_Por-que-venia-del-lago.wav,,,,,,,,,,,,,,,,,,,,,,,,,,,,,,,,,,,,,,,,,,,,,,,,,,,,,,,,
,,,,,,,5f14e0f456500058ee865863,605b45a4d25f287719a41696,605cee943559b3a5be3b387c,Spain,Midwest,13 or older,no,2021-03-25_16h12.37.493,empathy_intonation_perc,2020.2.10,Linux i686,60,,,,,,,,,,1,puertorican,1,1,3.874,0,5,5,53,1,54,./stim/wavs/andalusian_mismatch_interrogative-partial-wh_Por-que-oia-el-rio.wav,./stim/wavs/argentine_mismatch_interrogative-partial-wh_Por-que-oia-el-rio.wav,./stim/wavs/castilian_mismatch_interrogative-partial-wh_Por-que-oia-el-rio.wav,./stim/wavs/chilean_mismatch_interrogative-partial-wh_Por-que-oia-el-rio.wav,./stim/wavs/cuban_mismatch_interrogative-partial-wh_Por-que-oia-el-rio.wav,./stim/wavs/mexican_mismatch_interrogative-partial-wh_Por-que-oia-el-rio.wav,./stim/wavs/peruvian_mismatch_interrogative-partial-wh_Por-que-oia-el-rio.wav,./stim/wavs/puertorican_mismatch_interrogative-partial-wh_Por-que-oia-el-rio.wav,,,,,,,,,,,,,,,,,,,,,,,,,,,,,,,,,,,,,,,,,,,,,,,,,,,,,,,,
,,,,,,,5f14e0f456500058ee865863,605b45a4d25f287719a41696,605cee943559b3a5be3b387c,Spain,Midwest,13 or older,no,2021-03-25_16h12.37.493,empathy_intonation_perc,2020.2.10,Linux i686,60,,,,,,,,,,0,andalusian,0,1,2.805,0,6,6,3,1,4,./stim/wavs/andalusian_match_declarative-broad-focus_Emilio-ama-la-marcha.wav,./stim/wavs/argentine_match_declarative-broad-focus_Emilio-ama-la-marcha.wav,./stim/wavs/castilian_match_declarative-broad-focus_Emilio-ama-la-marcha.wav,./stim/wavs/chilean_match_declarative-broad-focus_Emilio-ama-la-marcha.wav,./stim/wavs/cuban_match_declarative-broad-focus_Emilio-ama-la-marcha.wav,./stim/wavs/mexican_match_declarative-broad-focus_Emilio-ama-la-marcha.wav,./stim/wavs/peruvian_match_declarative-broad-focus_Emilio-ama-la-marcha.wav,./stim/wavs/puertorican_match_declarative-broad-focus_Emilio-ama-la-marcha.wav,,,,,,,,,,,,,,,,,,,,,,,,,,,,,,,,,,,,,,,,,,,,,,,,,,,,,,,,
,,,,,,,5f14e0f456500058ee865863,605b45a4d25f287719a41696,605cee943559b3a5be3b387c,Spain,Midwest,13 or older,no,2021-03-25_16h12.37.493,empathy_intonation_perc,2020.2.10,Linux i686,60,,,,,,,,,,1,argentine,1,1,1.425,0,7,7,55,1,56,./stim/wavs/andalusian_mismatch_interrogative-partial-wh_Por-que-vivia-en-Paris.wav,./stim/wavs/argentine_mismatch_interrogative-partial-wh_Por-que-vivia-en-Paris.wav,./stim/wavs/castilian_mismatch_interrogative-partial-wh_Por-que-vivia-en-Paris.wav,./stim/wavs/chilean_mismatch_interrogative-partial-wh_Por-que-vivia-en-Paris.wav,./stim/wavs/cuban_mismatch_interrogative-partial-wh_Por-que-vivia-en-Paris.wav,./stim/wavs/mexican_mismatch_interrogative-partial-wh_Por-que-vivia-en-Paris.wav,./stim/wavs/peruvian_mismatch_interrogative-partial-wh_Por-que-vivia-en-Paris.wav,./stim/wavs/puertorican_mismatch_interrogative-partial-wh_Por-que-vivia-en-Paris.wav,,,,,,,,,,,,,,,,,,,,,,,,,,,,,,,,,,,,,,,,,,,,,,,,,,,,,,,,
,,,,,,,5f14e0f456500058ee865863,605b45a4d25f287719a41696,605cee943559b3a5be3b387c,Spain,Midwest,13 or older,no,2021-03-25_16h12.37.493,empathy_intonation_perc,2020.2.10,Linux i686,60,,,,,,,,,,0,cuban,0,1,2.291,0,8,8,9,1,10,./stim/wavs/andalusian_match_declarative-narrow-focus_Daniel-iba-a-Bolivia.wav,./stim/wavs/argentine_match_declarative-narrow-focus_Daniel-iba-a-Bolivia.wav,./stim/wavs/castilian_match_declarative-narrow-focus_Daniel-iba-a-Bolivia.wav,./stim/wavs/chilean_match_declarative-narrow-focus_Daniel-iba-a-Bolivia.wav,./stim/wavs/cuban_match_declarative-narrow-focus_Daniel-iba-a-Bolivia.wav,./stim/wavs/mexican_match_declarative-narrow-focus_Daniel-iba-a-Bolivia.wav,./stim/wavs/peruvian_match_declarative-narrow-focus_Daniel-iba-a-Bolivia.wav,./stim/wavs/puertorican_match_declarative-narrow-focus_Daniel-iba-a-Bolivia.wav,,,,,,,,,,,,,,,,,,,,,,,,,,,,,,,,,,,,,,,,,,,,,,,,,,,,,,,,
,,,,,,,5f14e0f456500058ee865863,605b45a4d25f287719a41696,605cee943559b3a5be3b387c,Spain,Midwest,13 or older,no,2021-03-25_16h12.37.493,empathy_intonation_perc,2020.2.10,Linux i686,60,,,,,,,,,,1,andalusian,0,0,2.632,0,9,9,24,1,25,./stim/wavs/andalusian_match_interrogative-total-yn_Ana-lleva-el-abrigo.wav,./stim/wavs/argentine_match_interrogative-total-yn_Ana-lleva-el-abrigo.wav,./stim/wavs/castilian_match_interrogative-total-yn_Ana-lleva-el-abrigo.wav,./stim/wavs/chilean_match_interrogative-total-yn_Ana-lleva-el-abrigo.wav,./stim/wavs/cuban_match_interrogative-total-yn_Ana-lleva-el-abrigo.wav,./stim/wavs/mexican_match_interrogative-total-yn_Ana-lleva-el-abrigo.wav,./stim/wavs/peruvian_match_interrogative-total-yn_Ana-lleva-el-abrigo.wav,./stim/wavs/puertorican_match_interrogative-total-yn_Ana-lleva-el-abrigo.wav,,,,,,,,,,,,,,,,,,,,,,,,,,,,,,,,,,,,,,,,,,,,,,,,,,,,,,,,
,,,,,,,5f14e0f456500058ee865863,605b45a4d25f287719a41696,605cee943559b3a5be3b387c,Spain,Midwest,13 or older,no,2021-03-25_16h12.37.493,empathy_intonation_perc,2020.2.10,Linux i686,60,,,,,,,,,,0,chilean,0,1,1.665,0,10,10,13,1,14,./stim/wavs/andalusian_match_declarative-narrow-focus_Maria-bebe-el-vino.wav,./stim/wavs/argentine_match_declarative-narrow-focus_Maria-bebe-el-vino.wav,./stim/wavs/castilian_match_declarative-narrow-focus_Maria-bebe-el-vino.wav,./stim/wavs/chilean_match_declarative-narrow-focus_Maria-bebe-el-vino.wav,./stim/wavs/cuban_match_declarative-narrow-focus_Maria-bebe-el-vino.wav,./stim/wavs/mexican_match_declarative-narrow-focus_Maria-bebe-el-vino.wav,./stim/wavs/peruvian_match_declarative-narrow-focus_Maria-bebe-el-vino.wav,./stim/wavs/puertorican_match_declarative-narrow-focus_Maria-bebe-el-vino.wav,,,,,,,,,,,,,,,,,,,,,,,,,,,,,,,,,,,,,,,,,,,,,,,,,,,,,,,,
,,,,,,,5f14e0f456500058ee865863,605b45a4d25f287719a41696,605cee943559b3a5be3b387c,Spain,Midwest,13 or older,no,2021-03-25_16h12.37.493,empathy_intonation_perc,2020.2.10,Linux i686,60,,,,,,,,,,1,mexican,1,1,1.93,0,11,11,30,1,31,./stim/wavs/andalusian_match_interrogative-total-yn_Mariano-habla-del-tiempo.wav,./stim/wavs/argentine_match_interrogative-total-yn_Mariano-habla-del-tiempo.wav,./stim/wavs/castilian_match_interrogative-total-yn_Mariano-habla-del-tiempo.wav,./stim/wavs/chilean_match_interrogative-total-yn_Mariano-habla-del-tiempo.wav,./stim/wavs/cuban_match_interrogative-total-yn_Mariano-habla-del-tiempo.wav,./stim/wavs/mexican_match_interrogative-total-yn_Mariano-habla-del-tiempo.wav,./stim/wavs/peruvian_match_interrogative-total-yn_Mariano-habla-del-tiempo.wav,./stim/wavs/puertorican_match_interrogative-total-yn_Mariano-habla-del-tiempo.wav,,,,,,,,,,,,,,,,,,,,,,,,,,,,,,,,,,,,,,,,,,,,,,,,,,,,,,,,
,,,,,,,5f14e0f456500058ee865863,605b45a4d25f287719a41696,605cee943559b3a5be3b387c,Spain,Midwest,13 or older,no,2021-03-25_16h12.37.493,empathy_intonation_perc,2020.2.10,Linux i686,60,,,,,,,,,,0,chilean,0,1,1.727,0,12,12,33,1,34,./stim/wavs/andalusian_mismatch_declarative-broad-focus_El-hombre-mira-la-luna.wav,./stim/wavs/argentine_mismatch_declarative-broad-focus_El-hombre-mira-la-luna.wav,./stim/wavs/castilian_mismatch_declarative-broad-focus_El-hombre-mira-la-luna.wav,./stim/wavs/chilean_mismatch_declarative-broad-focus_El-hombre-mira-la-luna.wav,./stim/wavs/cuban_mismatch_declarative-broad-focus_El-hombre-mira-la-luna.wav,./stim/wavs/mexican_mismatch_declarative-broad-focus_El-hombre-mira-la-luna.wav,./stim/wavs/peruvian_mismatch_declarative-broad-focus_El-hombre-mira-la-luna.wav,./stim/wavs/puertorican_mismatch_declarative-broad-focus_El-hombre-mira-la-luna.wav,,,,,,,,,,,,,,,,,,,,,,,,,,,,,,,,,,,,,,,,,,,,,,,,,,,,,,,,
,,,,,,,5f14e0f456500058ee865863,605b45a4d25f287719a41696,605cee943559b3a5be3b387c,Spain,Midwest,13 or older,no,2021-03-25_16h12.37.493,empathy_intonation_perc,2020.2.10,Linux i686,60,,,,,,,,,,1,cuban,0,0,2.393,0,13,13,60,1,61,./stim/wavs/andalusian_mismatch_interrogative-total-yn_La-nina-lava-el-plato.wav,./stim/wavs/argentine_mismatch_interrogative-total-yn_La-nina-lava-el-plato.wav,./stim/wavs/castilian_mismatch_interrogative-total-yn_La-nina-lava-el-plato.wav,./stim/wavs/chilean_mismatch_interrogative-total-yn_La-nina-lava-el-plato.wav,./stim/wavs/cuban_mismatch_interrogative-total-yn_La-nina-lava-el-plato.wav,./stim/wavs/mexican_mismatch_interrogative-total-yn_La-nina-lava-el-plato.wav,./stim/wavs/peruvian_mismatch_interrogative-total-yn_La-nina-lava-el-plato.wav,./stim/wavs/puertorican_mismatch_interrogative-total-yn_La-nina-lava-el-plato.wav,,,,,,,,,,,,,,,,,,,,,,,,,,,,,,,,,,,,,,,,,,,,,,,,,,,,,,,,
,,,,,,,5f14e0f456500058ee865863,605b45a4d25f287719a41696,605cee943559b3a5be3b387c,Spain,Midwest,13 or older,no,2021-03-25_16h12.37.493,empathy_intonation_perc,2020.2.10,Linux i686,60,,,,,,,,,,1,cuban,0,0,1.674,0,14,14,61,1,62,./stim/wavs/andalusian_mismatch_interrogative-total-yn_Mi-madre-come-la-fruta.wav,./stim/wavs/argentine_mismatch_interrogative-total-yn_Mi-madre-come-la-fruta.wav,./stim/wavs/castilian_mismatch_interrogative-total-yn_Mi-madre-come-la-fruta.wav,./stim/wavs/chilean_mismatch_interrogative-total-yn_Mi-madre-come-la-fruta.wav,./stim/wavs/cuban_mismatch_interrogative-total-yn_Mi-madre-come-la-fruta.wav,./stim/wavs/mexican_mismatch_interrogative-total-yn_Mi-madre-come-la-fruta.wav,./stim/wavs/peruvian_mismatch_interrogative-total-yn_Mi-madre-come-la-fruta.wav,./stim/wavs/puertorican_mismatch_interrogative-total-yn_Mi-madre-come-la-fruta.wav,,,,,,,,,,,,,,,,,,,,,,,,,,,,,,,,,,,,,,,,,,,,,,,,,,,,,,,,
,,,,,,,5f14e0f456500058ee865863,605b45a4d25f287719a41696,605cee943559b3a5be3b387c,Spain,Midwest,13 or older,no,2021-03-25_16h12.37.493,empathy_intonation_perc,2020.2.10,Linux i686,60,,,,,,,,,,0,peruvian,0,1,1.891,0,15,15,39,1,40,./stim/wavs/andalusian_mismatch_declarative-broad-focus_Mi-tia-odia-la-lluvia.wav,./stim/wavs/argentine_mismatch_declarative-broad-focus_Mi-tia-odia-la-lluvia.wav,./stim/wavs/castilian_mismatch_declarative-broad-focus_Mi-tia-odia-la-lluvia.wav,./stim/wavs/chilean_mismatch_declarative-broad-focus_Mi-tia-odia-la-lluvia.wav,./stim/wavs/cuban_mismatch_declarative-broad-focus_Mi-tia-odia-la-lluvia.wav,./stim/wavs/mexican_mismatch_declarative-broad-focus_Mi-tia-odia-la-lluvia.wav,./stim/wavs/peruvian_mismatch_declarative-broad-focus_Mi-tia-odia-la-lluvia.wav,./stim/wavs/puertorican_mismatch_declarative-broad-focus_Mi-tia-odia-la-lluvia.wav,,,,,,,,,,,,,,,,,,,,,,,,,,,,,,,,,,,,,,,,,,,,,,,,,,,,,,,,
,,,,,,,5f14e0f456500058ee865863,605b45a4d25f287719a41696,605cee943559b3a5be3b387c,Spain,Midwest,13 or older,no,2021-03-25_16h12.37.493,empathy_intonation_perc,2020.2.10,Linux i686,60,,,,,,,,,,0,puertorican,0,1,2.203,0,16,16,44,1,45,./stim/wavs/andalusian_mismatch_declarative-narrow-focus_La-nina-lava-el-plato.wav,./stim/wavs/argentine_mismatch_declarative-narrow-focus_La-nina-lava-el-plato.wav,./stim/wavs/castilian_mismatch_declarative-narrow-focus_La-nina-lava-el-plato.wav,./stim/wavs/chilean_mismatch_declarative-narrow-focus_La-nina-lava-el-plato.wav,./stim/wavs/cuban_mismatch_declarative-narrow-focus_La-nina-lava-el-plato.wav,./stim/wavs/mexican_mismatch_declarative-narrow-focus_La-nina-lava-el-plato.wav,./stim/wavs/peruvian_mismatch_declarative-narrow-focus_La-nina-lava-el-plato.wav,./stim/wavs/puertorican_mismatch_declarative-narrow-focus_La-nina-lava-el-plato.wav,,,,,,,,,,,,,,,,,,,,,,,,,,,,,,,,,,,,,,,,,,,,,,,,,,,,,,,,
,,,,,,,5f14e0f456500058ee865863,605b45a4d25f287719a41696,605cee943559b3a5be3b387c,Spain,Midwest,13 or older,no,2021-03-25_16h12.37.493,empathy_intonation_perc,2020.2.10,Linux i686,60,,,,,,,,,,0,mexican,0,1,2.031,0,17,17,2,1,3,./stim/wavs/andalusian_match_declarative-broad-focus_David-leia-el-libro.wav,./stim/wavs/argentine_match_declarative-broad-focus_David-leia-el-libro.wav,./stim/wavs/castilian_match_declarative-broad-focus_David-leia-el-libro.wav,./stim/wavs/chilean_match_declarative-broad-focus_David-leia-el-libro.wav,./stim/wavs/cuban_match_declarative-broad-focus_David-leia-el-libro.wav,./stim/wavs/mexican_match_declarative-broad-focus_David-leia-el-libro.wav,./stim/wavs/peruvian_match_declarative-broad-focus_David-leia-el-libro.wav,./stim/wavs/puertorican_match_declarative-broad-focus_David-leia-el-libro.wav,,,,,,,,,,,,,,,,,,,,,,,,,,,,,,,,,,,,,,,,,,,,,,,,,,,,,,,,
,,,,,,,5f14e0f456500058ee865863,605b45a4d25f287719a41696,605cee943559b3a5be3b387c,Spain,Midwest,13 or older,no,2021-03-25_16h12.37.493,empathy_intonation_perc,2020.2.10,Linux i686,60,,,,,,,,,,0,andalusian,0,1,2.801,0,18,18,40,1,41,./stim/wavs/andalusian_mismatch_declarative-narrow-focus_El-bebe-comia-muy-bien.wav,./stim/wavs/argentine_mismatch_declarative-narrow-focus_El-bebe-comia-muy-bien.wav,./stim/wavs/castilian_mismatch_declarative-narrow-focus_El-bebe-comia-muy-bien.wav,./stim/wavs/chilean_mismatch_declarative-narrow-focus_El-bebe-comia-muy-bien.wav,./stim/wavs/cuban_mismatch_declarative-narrow-focus_El-bebe-comia-muy-bien.wav,./stim/wavs/mexican_mismatch_declarative-narrow-focus_El-bebe-comia-muy-bien.wav,./stim/wavs/peruvian_mismatch_declarative-narrow-focus_El-bebe-comia-muy-bien.wav,./stim/wavs/puertorican_mismatch_declarative-narrow-focus_El-bebe-comia-muy-bien.wav,,,,,,,,,,,,,,,,,,,,,,,,,,,,,,,,,,,,,,,,,,,,,,,,,,,,,,,,
,,,,,,,5f14e0f456500058ee865863,605b45a4d25f287719a41696,605cee943559b3a5be3b387c,Spain,Midwest,13 or older,no,2021-03-25_16h12.37.493,empathy_intonation_perc,2020.2.10,Linux i686,60,,,,,,,,,,1,mexican,1,1,1.856,0,19,19,31,1,32,./stim/wavs/andalusian_match_interrogative-total-yn_Marta-abre-el-regalo.wav,./stim/wavs/argentine_match_interrogative-total-yn_Marta-abre-el-regalo.wav,./stim/wavs/castilian_match_interrogative-total-yn_Marta-abre-el-regalo.wav,./stim/wavs/chilean_match_interrogative-total-yn_Marta-abre-el-regalo.wav,./stim/wavs/cuban_match_interrogative-total-yn_Marta-abre-el-regalo.wav,./stim/wavs/mexican_match_interrogative-total-yn_Marta-abre-el-regalo.wav,./stim/wavs/peruvian_match_interrogative-total-yn_Marta-abre-el-regalo.wav,./stim/wavs/puertorican_match_interrogative-total-yn_Marta-abre-el-regalo.wav,,,,,,,,,,,,,,,,,,,,,,,,,,,,,,,,,,,,,,,,,,,,,,,,,,,,,,,,
,,,,,,,5f14e0f456500058ee865863,605b45a4d25f287719a41696,605cee943559b3a5be3b387c,Spain,Midwest,13 or older,no,2021-03-25_16h12.37.493,empathy_intonation_perc,2020.2.10,Linux i686,60,,,,,,,,,,0,cuban,0,1,2.527,0,20,20,34,1,35,./stim/wavs/andalusian_mismatch_declarative-broad-focus_El-nino-oye-el-rio.wav,./stim/wavs/argentine_mismatch_declarative-broad-focus_El-nino-oye-el-rio.wav,./stim/wavs/castilian_mismatch_declarative-broad-focus_El-nino-oye-el-rio.wav,./stim/wavs/chilean_mismatch_declarative-broad-focus_El-nino-oye-el-rio.wav,./stim/wavs/cuban_mismatch_declarative-broad-focus_El-nino-oye-el-rio.wav,./stim/wavs/mexican_mismatch_declarative-broad-focus_El-nino-oye-el-rio.wav,./stim/wavs/peruvian_mismatch_declarative-broad-focus_El-nino-oye-el-rio.wav,./stim/wavs/puertorican_mismatch_declarative-broad-focus_El-nino-oye-el-rio.wav,,,,,,,,,,,,,,,,,,,,,,,,,,,,,,,,,,,,,,,,,,,,,,,,,,,,,,,,
,,,,,,,5f14e0f456500058ee865863,605b45a4d25f287719a41696,605cee943559b3a5be3b387c,Spain,Midwest,13 or older,no,2021-03-25_16h12.37.493,empathy_intonation_perc,2020.2.10,Linux i686,60,,,,,,,,,,1,chilean,0,0,1.833,0,21,21,25,1,26,./stim/wavs/andalusian_match_interrogative-total-yn_Daniel-iba-a-Bolivia.wav,./stim/wavs/argentine_match_interrogative-total-yn_Daniel-iba-a-Bolivia.wav,./stim/wavs/castilian_match_interrogative-total-yn_Daniel-iba-a-Bolivia.wav,./stim/wavs/chilean_match_interrogative-total-yn_Daniel-iba-a-Bolivia.wav,./stim/wavs/cuban_match_interrogative-total-yn_Daniel-iba-a-Bolivia.wav,./stim/wavs/mexican_match_interrogative-total-yn_Daniel-iba-a-Bolivia.wav,./stim/wavs/peruvian_match_interrogative-total-yn_Daniel-iba-a-Bolivia.wav,./stim/wavs/puertorican_match_interrogative-total-yn_Daniel-iba-a-Bolivia.wav,,,,,,,,,,,,,,,,,,,,,,,,,,,,,,,,,,,,,,,,,,,,,,,,,,,,,,,,
,,,,,,,5f14e0f456500058ee865863,605b45a4d25f287719a41696,605cee943559b3a5be3b387c,Spain,Midwest,13 or older,no,2021-03-25_16h12.37.493,empathy_intonation_perc,2020.2.10,Linux i686,60,,,,,,,,,,0,cuban,0,1,2.357,0,22,22,42,1,43,./stim/wavs/andalusian_mismatch_declarative-narrow-focus_El-nino-oye-el-rio.wav,./stim/wavs/argentine_mismatch_declarative-narrow-focus_El-nino-oye-el-rio.wav,./stim/wavs/castilian_mismatch_declarative-narrow-focus_El-nino-oye-el-rio.wav,./stim/wavs/chilean_mismatch_declarative-narrow-focus_El-nino-oye-el-rio.wav,./stim/wavs/cuban_mismatch_declarative-narrow-focus_El-nino-oye-el-rio.wav,./stim/wavs/mexican_mismatch_declarative-narrow-focus_El-nino-oye-el-rio.wav,./stim/wavs/peruvian_mismatch_declarative-narrow-focus_El-nino-oye-el-rio.wav,./stim/wavs/puertorican_mismatch_declarative-narrow-focus_El-nino-oye-el-rio.wav,,,,,,,,,,,,,,,,,,,,,,,,,,,,,,,,,,,,,,,,,,,,,,,,,,,,,,,,
,,,,,,,5f14e0f456500058ee865863,605b45a4d25f287719a41696,605cee943559b3a5be3b387c,Spain,Midwest,13 or older,no,2021-03-25_16h12.37.493,empathy_intonation_perc,2020.2.10,Linux i686,60,,,,,,,,,,0,chilean,0,1,3.076,0,23,23,14,1,15,./stim/wavs/andalusian_match_declarative-narrow-focus_Mariano-habla-del-tiempo.wav,./stim/wavs/argentine_match_declarative-narrow-focus_Mariano-habla-del-tiempo.wav,./stim/wavs/castilian_match_declarative-narrow-focus_Mariano-habla-del-tiempo.wav,./stim/wavs/chilean_match_declarative-narrow-focus_Mariano-habla-del-tiempo.wav,./stim/wavs/cuban_match_declarative-narrow-focus_Mariano-habla-del-tiempo.wav,./stim/wavs/mexican_match_declarative-narrow-focus_Mariano-habla-del-tiempo.wav,./stim/wavs/peruvian_match_declarative-narrow-focus_Mariano-habla-del-tiempo.wav,./stim/wavs/puertorican_match_declarative-narrow-focus_Mariano-habla-del-tiempo.wav,,,,,,,,,,,,,,,,,,,,,,,,,,,,,,,,,,,,,,,,,,,,,,,,,,,,,,,,
,,,,,,,5f14e0f456500058ee865863,605b45a4d25f287719a41696,605cee943559b3a5be3b387c,Spain,Midwest,13 or older,no,2021-03-25_16h12.37.493,empathy_intonation_perc,2020.2.10,Linux i686,60,,,,,,,,,,0,peruvian,0,1,1.663,0,24,24,37,1,38,./stim/wavs/andalusian_mismatch_declarative-broad-focus_Mi-madre-come-la-fruta.wav,./stim/wavs/argentine_mismatch_declarative-broad-focus_Mi-madre-come-la-fruta.wav,./stim/wavs/castilian_mismatch_declarative-broad-focus_Mi-madre-come-la-fruta.wav,./stim/wavs/chilean_mismatch_declarative-broad-focus_Mi-madre-come-la-fruta.wav,./stim/wavs/cuban_mismatch_declarative-broad-focus_Mi-madre-come-la-fruta.wav,./stim/wavs/mexican_mismatch_declarative-broad-focus_Mi-madre-come-la-fruta.wav,./stim/wavs/peruvian_mismatch_declarative-broad-focus_Mi-madre-come-la-fruta.wav,./stim/wavs/puertorican_mismatch_declarative-broad-focus_Mi-madre-come-la-fruta.wav,,,,,,,,,,,,,,,,,,,,,,,,,,,,,,,,,,,,,,,,,,,,,,,,,,,,,,,,
,,,,,,,5f14e0f456500058ee865863,605b45a4d25f287719a41696,605cee943559b3a5be3b387c,Spain,Midwest,13 or older,no,2021-03-25_16h12.37.493,empathy_intonation_perc,2020.2.10,Linux i686,60,,,,,,,,,,1,chilean,1,1,2.082,0,25,25,56,1,57,./stim/wavs/andalusian_mismatch_interrogative-total-yn_El-bebe-comia-muy-bien.wav,./stim/wavs/argentine_mismatch_interrogative-total-yn_El-bebe-comia-muy-bien.wav,./stim/wavs/castilian_mismatch_interrogative-total-yn_El-bebe-comia-muy-bien.wav,./stim/wavs/chilean_mismatch_interrogative-total-yn_El-bebe-comia-muy-bien.wav,./stim/wavs/cuban_mismatch_interrogative-total-yn_El-bebe-comia-muy-bien.wav,./stim/wavs/mexican_mismatch_interrogative-total-yn_El-bebe-comia-muy-bien.wav,./stim/wavs/peruvian_mismatch_interrogative-total-yn_El-bebe-comia-muy-bien.wav,./stim/wavs/puertorican_mismatch_interrogative-total-yn_El-bebe-comia-muy-bien.wav,,,,,,,,,,,,,,,,,,,,,,,,,,,,,,,,,,,,,,,,,,,,,,,,,,,,,,,,
,,,,,,,5f14e0f456500058ee865863,605b45a4d25f287719a41696,605cee943559b3a5be3b387c,Spain,Midwest,13 or older,no,2021-03-25_16h12.37.493,empathy_intonation_perc,2020.2.10,Linux i686,60,,,,,,,,,,1,puertorican,0,0,2.665,0,26,26,58,1,59,./stim/wavs/andalusian_mismatch_interrogative-total-yn_El-nino-oye-el-rio.wav,./stim/wavs/argentine_mismatch_interrogative-total-yn_El-nino-oye-el-rio.wav,./stim/wavs/castilian_mismatch_interrogative-total-yn_El-nino-oye-el-rio.wav,./stim/wavs/chilean_mismatch_interrogative-total-yn_El-nino-oye-el-rio.wav,./stim/wavs/cuban_mismatch_interrogative-total-yn_El-nino-oye-el-rio.wav,./stim/wavs/mexican_mismatch_interrogative-total-yn_El-nino-oye-el-rio.wav,./stim/wavs/peruvian_mismatch_interrogative-total-yn_El-nino-oye-el-rio.wav,./stim/wavs/puertorican_mismatch_interrogative-total-yn_El-nino-oye-el-rio.wav,,,,,,,,,,,,,,,,,,,,,,,,,,,,,,,,,,,,,,,,,,,,,,,,,,,,,,,,
,,,,,,,5f14e0f456500058ee865863,605b45a4d25f287719a41696,605cee943559b3a5be3b387c,Spain,Midwest,13 or older,no,2021-03-25_16h12.37.493,empathy_intonation_perc,2020.2.10,Linux i686,60,,,,,,,,,,1,argentine,1,1,2.637,0,27,27,48,1,49,./stim/wavs/andalusian_mismatch_interrogative-partial-wh_Cuando-comia-la-fruta.wav,./stim/wavs/argentine_mismatch_interrogative-partial-wh_Cuando-comia-la-fruta.wav,./stim/wavs/castilian_mismatch_interrogative-partial-wh_Cuando-comia-la-fruta.wav,./stim/wavs/chilean_mismatch_interrogative-partial-wh_Cuando-comia-la-fruta.wav,./stim/wavs/cuban_mismatch_interrogative-partial-wh_Cuando-comia-la-fruta.wav,./stim/wavs/mexican_mismatch_interrogative-partial-wh_Cuando-comia-la-fruta.wav,./stim/wavs/peruvian_mismatch_interrogative-partial-wh_Cuando-comia-la-fruta.wav,./stim/wavs/puertorican_mismatch_interrogative-partial-wh_Cuando-comia-la-fruta.wav,,,,,,,,,,,,,,,,,,,,,,,,,,,,,,,,,,,,,,,,,,,,,,,,,,,,,,,,
,,,,,,,5f14e0f456500058ee865863,605b45a4d25f287719a41696,605cee943559b3a5be3b387c,Spain,Midwest,13 or older,no,2021-03-25_16h12.37.493,empathy_intonation_perc,2020.2.10,Linux i686,60,,,,,,,,,,0,argentine,1,0,3.551,0,28,28,1,1,2,./stim/wavs/andalusian_match_declarative-broad-focus_Daniel-iba-a-Bolivia.wav,./stim/wavs/argentine_match_declarative-broad-focus_Daniel-iba-a-Bolivia.wav,./stim/wavs/castilian_match_declarative-broad-focus_Daniel-iba-a-Bolivia.wav,./stim/wavs/chilean_match_declarative-broad-focus_Daniel-iba-a-Bolivia.wav,./stim/wavs/cuban_match_declarative-broad-focus_Daniel-iba-a-Bolivia.wav,./stim/wavs/mexican_match_declarative-broad-focus_Daniel-iba-a-Bolivia.wav,./stim/wavs/peruvian_match_declarative-broad-focus_Daniel-iba-a-Bolivia.wav,./stim/wavs/puertorican_match_declarative-broad-focus_Daniel-iba-a-Bolivia.wav,,,,,,,,,,,,,,,,,,,,,,,,,,,,,,,,,,,,,,,,,,,,,,,,,,,,,,,,
,,,,,,,5f14e0f456500058ee865863,605b45a4d25f287719a41696,605cee943559b3a5be3b387c,Spain,Midwest,13 or older,no,2021-03-25_16h12.37.493,empathy_intonation_perc,2020.2.10,Linux i686,60,,,,,,,,,,0,chilean,0,1,2.522,0,29,29,35,1,36,./stim/wavs/andalusian_mismatch_declarative-broad-focus_La-maestra-vive-en-Paris.wav,./stim/wavs/argentine_mismatch_declarative-broad-focus_La-maestra-vive-en-Paris.wav,./stim/wavs/castilian_mismatch_declarative-broad-focus_La-maestra-vive-en-Paris.wav,./stim/wavs/chilean_mismatch_declarative-broad-focus_La-maestra-vive-en-Paris.wav,./stim/wavs/cuban_mismatch_declarative-broad-focus_La-maestra-vive-en-Paris.wav,./stim/wavs/mexican_mismatch_declarative-broad-focus_La-maestra-vive-en-Paris.wav,./stim/wavs/peruvian_mismatch_declarative-broad-focus_La-maestra-vive-en-Paris.wav,./stim/wavs/puertorican_mismatch_declarative-broad-focus_La-maestra-vive-en-Paris.wav,,,,,,,,,,,,,,,,,,,,,,,,,,,,,,,,,,,,,,,,,,,,,,,,,,,,,,,,
,,,,,,,5f14e0f456500058ee865863,605b45a4d25f287719a41696,605cee943559b3a5be3b387c,Spain,Midwest,13 or older,no,2021-03-25_16h12.37.493,empathy_intonation_perc,2020.2.10,Linux i686,60,,,,,,,,,,1,chilean,1,1,1.664,0,30,30,50,1,51,./stim/wavs/andalusian_mismatch_interrogative-partial-wh_Cuando-miraba-la-luna.wav,./stim/wavs/argentine_mismatch_interrogative-partial-wh_Cuando-miraba-la-luna.wav,./stim/wavs/castilian_mismatch_interrogative-partial-wh_Cuando-miraba-la-luna.wav,./stim/wavs/chilean_mismatch_interrogative-partial-wh_Cuando-miraba-la-luna.wav,./stim/wavs/cuban_mismatch_interrogative-partial-wh_Cuando-miraba-la-luna.wav,./stim/wavs/mexican_mismatch_interrogative-partial-wh_Cuando-miraba-la-luna.wav,./stim/wavs/peruvian_mismatch_interrogative-partial-wh_Cuando-miraba-la-luna.wav,./stim/wavs/puertorican_mismatch_interrogative-partial-wh_Cuando-miraba-la-luna.wav,,,,,,,,,,,,,,,,,,,,,,,,,,,,,,,,,,,,,,,,,,,,,,,,,,,,,,,,
,,,,,,,5f14e0f456500058ee865863,605b45a4d25f287719a41696,605cee943559b3a5be3b387c,Spain,Midwest,13 or older,no,2021-03-25_16h12.37.493,empathy_intonation_perc,2020.2.10,Linux i686,60,,,,,,,,,,0,argentine,0,1,3.093,0,31,31,11,1,12,./stim/wavs/andalusian_match_declarative-narrow-focus_Emilio-ama-la-marcha.wav,./stim/wavs/argentine_match_declarative-narrow-focus_Emilio-ama-la-marcha.wav,./stim/wavs/castilian_match_declarative-narrow-focus_Emilio-ama-la-marcha.wav,./stim/wavs/chilean_match_declarative-narrow-focus_Emilio-ama-la-marcha.wav,./stim/wavs/cuban_match_declarative-narrow-focus_Emilio-ama-la-marcha.wav,./stim/wavs/mexican_match_declarative-narrow-focus_Emilio-ama-la-marcha.wav,./stim/wavs/peruvian_match_declarative-narrow-focus_Emilio-ama-la-marcha.wav,./stim/wavs/puertorican_match_declarative-narrow-focus_Emilio-ama-la-marcha.wav,,,,,,,,,,,,,,,,,,,,,,,,,,,,,,,,,,,,,,,,,,,,,,,,,,,,,,,,
,,,,,,,5f14e0f456500058ee865863,605b45a4d25f287719a41696,605cee943559b3a5be3b387c,Spain,Midwest,13 or older,no,2021-03-25_16h12.37.493,empathy_intonation_perc,2020.2.10,Linux i686,60,,,,,,,,,,1,puertorican,0,0,1.742,0,32,32,26,1,27,./stim/wavs/andalusian_match_interrogative-total-yn_David-leia-el-libro.wav,./stim/wavs/argentine_match_interrogative-total-yn_David-leia-el-libro.wav,./stim/wavs/castilian_match_interrogative-total-yn_David-leia-el-libro.wav,./stim/wavs/chilean_match_interrogative-total-yn_David-leia-el-libro.wav,./stim/wavs/cuban_match_interrogative-total-yn_David-leia-el-libro.wav,./stim/wavs/mexican_match_interrogative-total-yn_David-leia-el-libro.wav,./stim/wavs/peruvian_match_interrogative-total-yn_David-leia-el-libro.wav,./stim/wavs/puertorican_match_interrogative-total-yn_David-leia-el-libro.wav,,,,,,,,,,,,,,,,,,,,,,,,,,,,,,,,,,,,,,,,,,,,,,,,,,,,,,,,
,,,,,,,5f14e0f456500058ee865863,605b45a4d25f287719a41696,605cee943559b3a5be3b387c,Spain,Midwest,13 or older,no,2021-03-25_16h12.37.493,empathy_intonation_perc,2020.2.10,Linux i686,60,,,,,,,,,,0,chilean,0,1,2.761,0,33,33,43,1,44,./stim/wavs/andalusian_mismatch_declarative-narrow-focus_La-maestra-vive-en-Paris.wav,./stim/wavs/argentine_mismatch_declarative-narrow-focus_La-maestra-vive-en-Paris.wav,./stim/wavs/castilian_mismatch_declarative-narrow-focus_La-maestra-vive-en-Paris.wav,./stim/wavs/chilean_mismatch_declarative-narrow-focus_La-maestra-vive-en-Paris.wav,./stim/wavs/cuban_mismatch_declarative-narrow-focus_La-maestra-vive-en-Paris.wav,./stim/wavs/mexican_mismatch_declarative-narrow-focus_La-maestra-vive-en-Paris.wav,./stim/wavs/peruvian_mismatch_declarative-narrow-focus_La-maestra-vive-en-Paris.wav,./stim/wavs/puertorican_mismatch_declarative-narrow-focus_La-maestra-vive-en-Paris.wav,,,,,,,,,,,,,,,,,,,,,,,,,,,,,,,,,,,,,,,,,,,,,,,,,,,,,,,,
,,,,,,,5f14e0f456500058ee865863,605b45a4d25f287719a41696,605cee943559b3a5be3b387c,Spain,Midwest,13 or older,no,2021-03-25_16h12.37.493,empathy_intonation_perc,2020.2.10,Linux i686,60,,,,,,,,,,0,castilian,0,1,1.665,0,34,34,45,1,46,./stim/wavs/andalusian_mismatch_declarative-narrow-focus_Mi-madre-come-la-fruta.wav,./stim/wavs/argentine_mismatch_declarative-narrow-focus_Mi-madre-come-la-fruta.wav,./stim/wavs/castilian_mismatch_declarative-narrow-focus_Mi-madre-come-la-fruta.wav,./stim/wavs/chilean_mismatch_declarative-narrow-focus_Mi-madre-come-la-fruta.wav,./stim/wavs/cuban_mismatch_declarative-narrow-focus_Mi-madre-come-la-fruta.wav,./stim/wavs/mexican_mismatch_declarative-narrow-focus_Mi-madre-come-la-fruta.wav,./stim/wavs/peruvian_mismatch_declarative-narrow-focus_Mi-madre-come-la-fruta.wav,./stim/wavs/puertorican_mismatch_declarative-narrow-focus_Mi-madre-come-la-fruta.wav,,,,,,,,,,,,,,,,,,,,,,,,,,,,,,,,,,,,,,,,,,,,,,,,,,,,,,,,
,,,,,,,5f14e0f456500058ee865863,605b45a4d25f287719a41696,605cee943559b3a5be3b387c,Spain,Midwest,13 or older,no,2021-03-25_16h12.37.493,empathy_intonation_perc,2020.2.10,Linux i686,60,,,,,,,,,,1,castilian,1,1,3.118,0,35,35,52,1,53,./stim/wavs/andalusian_mismatch_interrogative-partial-wh_Por-que-odiaba-la-lluvia.wav,./stim/wavs/argentine_mismatch_interrogative-partial-wh_Por-que-odiaba-la-lluvia.wav,./stim/wavs/castilian_mismatch_interrogative-partial-wh_Por-que-odiaba-la-lluvia.wav,./stim/wavs/chilean_mismatch_interrogative-partial-wh_Por-que-odiaba-la-lluvia.wav,./stim/wavs/cuban_mismatch_interrogative-partial-wh_Por-que-odiaba-la-lluvia.wav,./stim/wavs/mexican_mismatch_interrogative-partial-wh_Por-que-odiaba-la-lluvia.wav,./stim/wavs/peruvian_mismatch_interrogative-partial-wh_Por-que-odiaba-la-lluvia.wav,./stim/wavs/puertorican_mismatch_interrogative-partial-wh_Por-que-odiaba-la-lluvia.wav,,,,,,,,,,,,,,,,,,,,,,,,,,,,,,,,,,,,,,,,,,,,,,,,,,,,,,,,
,,,,,,,5f14e0f456500058ee865863,605b45a4d25f287719a41696,605cee943559b3a5be3b387c,Spain,Midwest,13 or older,no,2021-03-25_16h12.37.493,empathy_intonation_perc,2020.2.10,Linux i686,60,,,,,,,,,,1,castilian,1,1,0.832,0,36,36,21,1,22,./stim/wavs/andalusian_match_interrogative-partial-wh_Por-que-ama-la-navidad.wav,./stim/wavs/argentine_match_interrogative-partial-wh_Por-que-ama-la-navidad.wav,./stim/wavs/castilian_match_interrogative-partial-wh_Por-que-ama-la-navidad.wav,./stim/wavs/chilean_match_interrogative-partial-wh_Por-que-ama-la-navidad.wav,./stim/wavs/cuban_match_interrogative-partial-wh_Por-que-ama-la-navidad.wav,./stim/wavs/mexican_match_interrogative-partial-wh_Por-que-ama-la-navidad.wav,./stim/wavs/peruvian_match_interrogative-partial-wh_Por-que-ama-la-navidad.wav,./stim/wavs/puertorican_match_interrogative-partial-wh_Por-que-ama-la-navidad.wav,,,,,,,,,,,,,,,,,,,,,,,,,,,,,,,,,,,,,,,,,,,,,,,,,,,,,,,,
,,,,,,,5f14e0f456500058ee865863,605b45a4d25f287719a41696,605cee943559b3a5be3b387c,Spain,Midwest,13 or older,no,2021-03-25_16h12.37.493,empathy_intonation_perc,2020.2.10,Linux i686,60,,,,,,,,,,1,argentine,0,0,2.554,0,37,37,29,1,30,./stim/wavs/andalusian_match_interrogative-total-yn_Maria-bebe-el-vino.wav,./stim/wavs/argentine_match_interrogative-total-yn_Maria-bebe-el-vino.wav,./stim/wavs/castilian_match_interrogative-total-yn_Maria-bebe-el-vino.wav,./stim/wavs/chilean_match_interrogative-total-yn_Maria-bebe-el-vino.wav,./stim/wavs/cuban_match_interrogative-total-yn_Maria-bebe-el-vino.wav,./stim/wavs/mexican_match_interrogative-total-yn_Maria-bebe-el-vino.wav,./stim/wavs/peruvian_match_interrogative-total-yn_Maria-bebe-el-vino.wav,./stim/wavs/puertorican_match_interrogative-total-yn_Maria-bebe-el-vino.wav,,,,,,,,,,,,,,,,,,,,,,,,,,,,,,,,,,,,,,,,,,,,,,,,,,,,,,,,
,,,,,,,5f14e0f456500058ee865863,605b45a4d25f287719a41696,605cee943559b3a5be3b387c,Spain,Midwest,13 or older,no,2021-03-25_16h12.37.493,empathy_intonation_perc,2020.2.10,Linux i686,60,,,,,,,,,,0,argentine,1,0,2.232,0,38,38,6,1,7,./stim/wavs/andalusian_match_declarative-broad-focus_Mariano-habla-del-tiempo.wav,./stim/wavs/argentine_match_declarative-broad-focus_Mariano-habla-del-tiempo.wav,./stim/wavs/castilian_match_declarative-broad-focus_Mariano-habla-del-tiempo.wav,./stim/wavs/chilean_match_declarative-broad-focus_Mariano-habla-del-tiempo.wav,./stim/wavs/cuban_match_declarative-broad-focus_Mariano-habla-del-tiempo.wav,./stim/wavs/mexican_match_declarative-broad-focus_Mariano-habla-del-tiempo.wav,./stim/wavs/peruvian_match_declarative-broad-focus_Mariano-habla-del-tiempo.wav,./stim/wavs/puertorican_match_declarative-broad-focus_Mariano-habla-del-tiempo.wav,,,,,,,,,,,,,,,,,,,,,,,,,,,,,,,,,,,,,,,,,,,,,,,,,,,,,,,,
,,,,,,,5f14e0f456500058ee865863,605b45a4d25f287719a41696,605cee943559b3a5be3b387c,Spain,Midwest,13 or older,no,2021-03-25_16h12.37.493,empathy_intonation_perc,2020.2.10,Linux i686,60,,,,,,,,,,1,cuban,1,1,2.421,0,39,39,20,1,21,./stim/wavs/andalusian_match_interrogative-partial-wh_Por-que-abre-el-regalo.wav,./stim/wavs/argentine_match_interrogative-partial-wh_Por-que-abre-el-regalo.wav,./stim/wavs/castilian_match_interrogative-partial-wh_Por-que-abre-el-regalo.wav,./stim/wavs/chilean_match_interrogative-partial-wh_Por-que-abre-el-regalo.wav,./stim/wavs/cuban_match_interrogative-partial-wh_Por-que-abre-el-regalo.wav,./stim/wavs/mexican_match_interrogative-partial-wh_Por-que-abre-el-regalo.wav,./stim/wavs/peruvian_match_interrogative-partial-wh_Por-que-abre-el-regalo.wav,./stim/wavs/puertorican_match_interrogative-partial-wh_Por-que-abre-el-regalo.wav,,,,,,,,,,,,,,,,,,,,,,,,,,,,,,,,,,,,,,,,,,,,,,,,,,,,,,,,
,,,,,,,5f14e0f456500058ee865863,605b45a4d25f287719a41696,605cee943559b3a5be3b387c,Spain,Midwest,13 or older,no,2021-03-25_16h12.37.493,empathy_intonation_perc,2020.2.10,Linux i686,60,,,,,,,,,,1,puertorican,0,0,1.825,0,40,40,62,1,63,./stim/wavs/andalusian_mismatch_interrogative-total-yn_Mi-novio-viene-del-lago.wav,./stim/wavs/argentine_mismatch_interrogative-total-yn_Mi-novio-viene-del-lago.wav,./stim/wavs/castilian_mismatch_interrogative-total-yn_Mi-novio-viene-del-lago.wav,./stim/wavs/chilean_mismatch_interrogative-total-yn_Mi-novio-viene-del-lago.wav,./stim/wavs/cuban_mismatch_interrogative-total-yn_Mi-novio-viene-del-lago.wav,./stim/wavs/mexican_mismatch_interrogative-total-yn_Mi-novio-viene-del-lago.wav,./stim/wavs/peruvian_mismatch_interrogative-total-yn_Mi-novio-viene-del-lago.wav,./stim/wavs/puertorican_mismatch_interrogative-total-yn_Mi-novio-viene-del-lago.wav,,,,,,,,,,,,,,,,,,,,,,,,,,,,,,,,,,,,,,,,,,,,,,,,,,,,,,,,
,,,,,,,5f14e0f456500058ee865863,605b45a4d25f287719a41696,605cee943559b3a5be3b387c,Spain,Midwest,13 or older,no,2021-03-25_16h12.37.493,empathy_intonation_perc,2020.2.10,Linux i686,60,,,,,,,,,,1,peruvian,1,1,1.394,0,41,41,17,1,18,./stim/wavs/andalusian_match_interrogative-partial-wh_Cuando-leia-el-libro.wav,./stim/wavs/argentine_match_interrogative-partial-wh_Cuando-leia-el-libro.wav,./stim/wavs/castilian_match_interrogative-partial-wh_Cuando-leia-el-libro.wav,./stim/wavs/chilean_match_interrogative-partial-wh_Cuando-leia-el-libro.wav,./stim/wavs/cuban_match_interrogative-partial-wh_Cuando-leia-el-libro.wav,./stim/wavs/mexican_match_interrogative-partial-wh_Cuando-leia-el-libro.wav,./stim/wavs/peruvian_match_interrogative-partial-wh_Cuando-leia-el-libro.wav,./stim/wavs/puertorican_match_interrogative-partial-wh_Cuando-leia-el-libro.wav,,,,,,,,,,,,,,,,,,,,,,,,,,,,,,,,,,,,,,,,,,,,,,,,,,,,,,,,
,,,,,,,5f14e0f456500058ee865863,605b45a4d25f287719a41696,605cee943559b3a5be3b387c,Spain,Midwest,13 or older,no,2021-03-25_16h12.37.493,empathy_intonation_perc,2020.2.10,Linux i686,60,,,,,,,,,,0,puertorican,0,1,1.994,0,42,42,10,1,11,./stim/wavs/andalusian_match_declarative-narrow-focus_David-leia-el-libro.wav,./stim/wavs/argentine_match_declarative-narrow-focus_David-leia-el-libro.wav,./stim/wavs/castilian_match_declarative-narrow-focus_David-leia-el-libro.wav,./stim/wavs/chilean_match_declarative-narrow-focus_David-leia-el-libro.wav,./stim/wavs/cuban_match_declarative-narrow-focus_David-leia-el-libro.wav,./stim/wavs/mexican_match_declarative-narrow-focus_David-leia-el-libro.wav,./stim/wavs/peruvian_match_declarative-narrow-focus_David-leia-el-libro.wav,./stim/wavs/puertorican_match_declarative-narrow-focus_David-leia-el-libro.wav,,,,,,,,,,,,,,,,,,,,,,,,,,,,,,,,,,,,,,,,,,,,,,,,,,,,,,,,
,,,,,,,5f14e0f456500058ee865863,605b45a4d25f287719a41696,605cee943559b3a5be3b387c,Spain,Midwest,13 or older,no,2021-03-25_16h12.37.493,empathy_intonation_perc,2020.2.10,Linux i686,60,,,,,,,,,,1,andalusian,1,1,2.743,0,43,43,59,1,60,./stim/wavs/andalusian_mismatch_interrogative-total-yn_La-maestra-vive-en-Paris.wav,./stim/wavs/argentine_mismatch_interrogative-total-yn_La-maestra-vive-en-Paris.wav,./stim/wavs/castilian_mismatch_interrogative-total-yn_La-maestra-vive-en-Paris.wav,./stim/wavs/chilean_mismatch_interrogative-total-yn_La-maestra-vive-en-Paris.wav,./stim/wavs/cuban_mismatch_interrogative-total-yn_La-maestra-vive-en-Paris.wav,./stim/wavs/mexican_mismatch_interrogative-total-yn_La-maestra-vive-en-Paris.wav,./stim/wavs/peruvian_mismatch_interrogative-total-yn_La-maestra-vive-en-Paris.wav,./stim/wavs/puertorican_mismatch_interrogative-total-yn_La-maestra-vive-en-Paris.wav,,,,,,,,,,,,,,,,,,,,,,,,,,,,,,,,,,,,,,,,,,,,,,,,,,,,,,,,
,,,,,,,5f14e0f456500058ee865863,605b45a4d25f287719a41696,605cee943559b3a5be3b387c,Spain,Midwest,13 or older,no,2021-03-25_16h12.37.493,empathy_intonation_perc,2020.2.10,Linux i686,60,,,,,,,,,,1,cuban,0,0,3.06,0,44,44,63,1,64,./stim/wavs/andalusian_mismatch_interrogative-total-yn_Mi-tia-odia-la-lluvia.wav,./stim/wavs/argentine_mismatch_interrogative-total-yn_Mi-tia-odia-la-lluvia.wav,./stim/wavs/castilian_mismatch_interrogative-total-yn_Mi-tia-odia-la-lluvia.wav,./stim/wavs/chilean_mismatch_interrogative-total-yn_Mi-tia-odia-la-lluvia.wav,./stim/wavs/cuban_mismatch_interrogative-total-yn_Mi-tia-odia-la-lluvia.wav,./stim/wavs/mexican_mismatch_interrogative-total-yn_Mi-tia-odia-la-lluvia.wav,./stim/wavs/peruvian_mismatch_interrogative-total-yn_Mi-tia-odia-la-lluvia.wav,./stim/wavs/puertorican_mismatch_interrogative-total-yn_Mi-tia-odia-la-lluvia.wav,,,,,,,,,,,,,,,,,,,,,,,,,,,,,,,,,,,,,,,,,,,,,,,,,,,,,,,,
,,,,,,,5f14e0f456500058ee865863,605b45a4d25f287719a41696,605cee943559b3a5be3b387c,Spain,Midwest,13 or older,no,2021-03-25_16h12.37.493,empathy_intonation_perc,2020.2.10,Linux i686,60,,,,,,,,,,0,peruvian,0,1,1.84,0,45,45,5,1,6,./stim/wavs/andalusian_match_declarative-broad-focus_Maria-bebe-el-vino.wav,./stim/wavs/argentine_match_declarative-broad-focus_Maria-bebe-el-vino.wav,./stim/wavs/castilian_match_declarative-broad-focus_Maria-bebe-el-vino.wav,./stim/wavs/chilean_match_declarative-broad-focus_Maria-bebe-el-vino.wav,./stim/wavs/cuban_match_declarative-broad-focus_Maria-bebe-el-vino.wav,./stim/wavs/mexican_match_declarative-broad-focus_Maria-bebe-el-vino.wav,./stim/wavs/peruvian_match_declarative-broad-focus_Maria-bebe-el-vino.wav,./stim/wavs/puertorican_match_declarative-broad-focus_Maria-bebe-el-vino.wav,,,,,,,,,,,,,,,,,,,,,,,,,,,,,,,,,,,,,,,,,,,,,,,,,,,,,,,,
,,,,,,,5f14e0f456500058ee865863,605b45a4d25f287719a41696,605cee943559b3a5be3b387c,Spain,Midwest,13 or older,no,2021-03-25_16h12.37.493,empathy_intonation_perc,2020.2.10,Linux i686,60,,,,,,,,,,0,mexican,0,1,1.452,0,46,46,36,1,37,./stim/wavs/andalusian_mismatch_declarative-broad-focus_La-nina-lava-el-plato.wav,./stim/wavs/argentine_mismatch_declarative-broad-focus_La-nina-lava-el-plato.wav,./stim/wavs/castilian_mismatch_declarative-broad-focus_La-nina-lava-el-plato.wav,./stim/wavs/chilean_mismatch_declarative-broad-focus_La-nina-lava-el-plato.wav,./stim/wavs/cuban_mismatch_declarative-broad-focus_La-nina-lava-el-plato.wav,./stim/wavs/mexican_mismatch_declarative-broad-focus_La-nina-lava-el-plato.wav,./stim/wavs/peruvian_mismatch_declarative-broad-focus_La-nina-lava-el-plato.wav,./stim/wavs/puertorican_mismatch_declarative-broad-focus_La-nina-lava-el-plato.wav,,,,,,,,,,,,,,,,,,,,,,,,,,,,,,,,,,,,,,,,,,,,,,,,,,,,,,,,
,,,,,,,5f14e0f456500058ee865863,605b45a4d25f287719a41696,605cee943559b3a5be3b387c,Spain,Midwest,13 or older,no,2021-03-25_16h12.37.493,empathy_intonation_perc,2020.2.10,Linux i686,60,,,,,,,,,,1,castilian,1,1,3.933,0,47,47,27,1,28,./stim/wavs/andalusian_match_interrogative-total-yn_Emilio-ama-la-marcha.wav,./stim/wavs/argentine_match_interrogative-total-yn_Emilio-ama-la-marcha.wav,./stim/wavs/castilian_match_interrogative-total-yn_Emilio-ama-la-marcha.wav,./stim/wavs/chilean_match_interrogative-total-yn_Emilio-ama-la-marcha.wav,./stim/wavs/cuban_match_interrogative-total-yn_Emilio-ama-la-marcha.wav,./stim/wavs/mexican_match_interrogative-total-yn_Emilio-ama-la-marcha.wav,./stim/wavs/peruvian_match_interrogative-total-yn_Emilio-ama-la-marcha.wav,./stim/wavs/puertorican_match_interrogative-total-yn_Emilio-ama-la-marcha.wav,,,,,,,,,,,,,,,,,,,,,,,,,,,,,,,,,,,,,,,,,,,,,,,,,,,,,,,,
,,,,,,,5f14e0f456500058ee865863,605b45a4d25f287719a41696,605cee943559b3a5be3b387c,Spain,Midwest,13 or older,no,2021-03-25_16h12.37.493,empathy_intonation_perc,2020.2.10,Linux i686,60,,,,,,,,,,1,mexican,0,0,2.508,0,48,48,57,1,58,./stim/wavs/andalusian_mismatch_interrogative-total-yn_El-hombre-mira-la-luna.wav,./stim/wavs/argentine_mismatch_interrogative-total-yn_El-hombre-mira-la-luna.wav,./stim/wavs/castilian_mismatch_interrogative-total-yn_El-hombre-mira-la-luna.wav,./stim/wavs/chilean_mismatch_interrogative-total-yn_El-hombre-mira-la-luna.wav,./stim/wavs/cuban_mismatch_interrogative-total-yn_El-hombre-mira-la-luna.wav,./stim/wavs/mexican_mismatch_interrogative-total-yn_El-hombre-mira-la-luna.wav,./stim/wavs/peruvian_mismatch_interrogative-total-yn_El-hombre-mira-la-luna.wav,./stim/wavs/puertorican_mismatch_interrogative-total-yn_El-hombre-mira-la-luna.wav,,,,,,,,,,,,,,,,,,,,,,,,,,,,,,,,,,,,,,,,,,,,,,,,,,,,,,,,
,,,,,,,5f14e0f456500058ee865863,605b45a4d25f287719a41696,605cee943559b3a5be3b387c,Spain,Midwest,13 or older,no,2021-03-25_16h12.37.493,empathy_intonation_perc,2020.2.10,Linux i686,60,,,,,,,,,,1,chilean,1,1,2.058,0,49,49,23,1,24,./stim/wavs/andalusian_match_interrogative-partial-wh_Por-que-iba-a-Bolivia.wav,./stim/wavs/argentine_match_interrogative-partial-wh_Por-que-iba-a-Bolivia.wav,./stim/wavs/castilian_match_interrogative-partial-wh_Por-que-iba-a-Bolivia.wav,./stim/wavs/chilean_match_interrogative-partial-wh_Por-que-iba-a-Bolivia.wav,./stim/wavs/cuban_match_interrogative-partial-wh_Por-que-iba-a-Bolivia.wav,./stim/wavs/mexican_match_interrogative-partial-wh_Por-que-iba-a-Bolivia.wav,./stim/wavs/peruvian_match_interrogative-partial-wh_Por-que-iba-a-Bolivia.wav,./stim/wavs/puertorican_match_interrogative-partial-wh_Por-que-iba-a-Bolivia.wav,,,,,,,,,,,,,,,,,,,,,,,,,,,,,,,,,,,,,,,,,,,,,,,,,,,,,,,,
,,,,,,,5f14e0f456500058ee865863,605b45a4d25f287719a41696,605cee943559b3a5be3b387c,Spain,Midwest,13 or older,no,2021-03-25_16h12.37.493,empathy_intonation_perc,2020.2.10,Linux i686,60,,,,,,,,,,0,andalusian,0,1,3.106,0,50,50,0,1,1,./stim/wavs/andalusian_match_declarative-broad-focus_Ana-lleva-el-abrigo.wav,./stim/wavs/argentine_match_declarative-broad-focus_Ana-lleva-el-abrigo.wav,./stim/wavs/castilian_match_declarative-broad-focus_Ana-lleva-el-abrigo.wav,./stim/wavs/chilean_match_declarative-broad-focus_Ana-lleva-el-abrigo.wav,./stim/wavs/cuban_match_declarative-broad-focus_Ana-lleva-el-abrigo.wav,./stim/wavs/mexican_match_declarative-broad-focus_Ana-lleva-el-abrigo.wav,./stim/wavs/peruvian_match_declarative-broad-focus_Ana-lleva-el-abrigo.wav,./stim/wavs/puertorican_match_declarative-broad-focus_Ana-lleva-el-abrigo.wav,,,,,,,,,,,,,,,,,,,,,,,,,,,,,,,,,,,,,,,,,,,,,,,,,,,,,,,,
,,,,,,,5f14e0f456500058ee865863,605b45a4d25f287719a41696,605cee943559b3a5be3b387c,Spain,Midwest,13 or older,no,2021-03-25_16h12.37.493,empathy_intonation_perc,2020.2.10,Linux i686,60,,,,,,,,,,1,puertorican,1,1,1.2,0,51,51,16,1,17,./stim/wavs/andalusian_match_interrogative-partial-wh_Cuando-bebia-el-vino.wav,./stim/wavs/argentine_match_interrogative-partial-wh_Cuando-bebia-el-vino.wav,./stim/wavs/castilian_match_interrogative-partial-wh_Cuando-bebia-el-vino.wav,./stim/wavs/chilean_match_interrogative-partial-wh_Cuando-bebia-el-vino.wav,./stim/wavs/cuban_match_interrogative-partial-wh_Cuando-bebia-el-vino.wav,./stim/wavs/mexican_match_interrogative-partial-wh_Cuando-bebia-el-vino.wav,./stim/wavs/peruvian_match_interrogative-partial-wh_Cuando-bebia-el-vino.wav,./stim/wavs/puertorican_match_interrogative-partial-wh_Cuando-bebia-el-vino.wav,,,,,,,,,,,,,,,,,,,,,,,,,,,,,,,,,,,,,,,,,,,,,,,,,,,,,,,,
,,,,,,,5f14e0f456500058ee865863,605b45a4d25f287719a41696,605cee943559b3a5be3b387c,Spain,Midwest,13 or older,no,2021-03-25_16h12.37.493,empathy_intonation_perc,2020.2.10,Linux i686,60,,,,,,,,,,1,andalusian,1,1,0.789,0,52,52,51,1,52,./stim/wavs/andalusian_mismatch_interrogative-partial-wh_Por-que-desayuna-muy-bien.wav,./stim/wavs/argentine_mismatch_interrogative-partial-wh_Por-que-desayuna-muy-bien.wav,./stim/wavs/castilian_mismatch_interrogative-partial-wh_Por-que-desayuna-muy-bien.wav,./stim/wavs/chilean_mismatch_interrogative-partial-wh_Por-que-desayuna-muy-bien.wav,./stim/wavs/cuban_mismatch_interrogative-partial-wh_Por-que-desayuna-muy-bien.wav,./stim/wavs/mexican_mismatch_interrogative-partial-wh_Por-que-desayuna-muy-bien.wav,./stim/wavs/peruvian_mismatch_interrogative-partial-wh_Por-que-desayuna-muy-bien.wav,./stim/wavs/puertorican_mismatch_interrogative-partial-wh_Por-que-desayuna-muy-bien.wav,,,,,,,,,,,,,,,,,,,,,,,,,,,,,,,,,,,,,,,,,,,,,,,,,,,,,,,,
,,,,,,,5f14e0f456500058ee865863,605b45a4d25f287719a41696,605cee943559b3a5be3b387c,Spain,Midwest,13 or older,no,2021-03-25_16h12.37.493,empathy_intonation_perc,2020.2.10,Linux i686,60,,,,,,,,,,0,chilean,0,1,1.676,0,53,53,38,1,39,./stim/wavs/andalusian_mismatch_declarative-broad-focus_Mi-novio-viene-del-lago.wav,./stim/wavs/argentine_mismatch_declarative-broad-focus_Mi-novio-viene-del-lago.wav,./stim/wavs/castilian_mismatch_declarative-broad-focus_Mi-novio-viene-del-lago.wav,./stim/wavs/chilean_mismatch_declarative-broad-focus_Mi-novio-viene-del-lago.wav,./stim/wavs/cuban_mismatch_declarative-broad-focus_Mi-novio-viene-del-lago.wav,./stim/wavs/mexican_mismatch_declarative-broad-focus_Mi-novio-viene-del-lago.wav,./stim/wavs/peruvian_mismatch_declarative-broad-focus_Mi-novio-viene-del-lago.wav,./stim/wavs/puertorican_mismatch_declarative-broad-focus_Mi-novio-viene-del-lago.wav,,,,,,,,,,,,,,,,,,,,,,,,,,,,,,,,,,,,,,,,,,,,,,,,,,,,,,,,
,,,,,,,5f14e0f456500058ee865863,605b45a4d25f287719a41696,605cee943559b3a5be3b387c,Spain,Midwest,13 or older,no,2021-03-25_16h12.37.493,empathy_intonation_perc,2020.2.10,Linux i686,60,,,,,,,,,,1,mexican,1,1,1.265,0,54,54,18,1,19,./stim/wavs/andalusian_match_interrogative-partial-wh_Cuando-lleva-el-abrigo.wav,./stim/wavs/argentine_match_interrogative-partial-wh_Cuando-lleva-el-abrigo.wav,./stim/wavs/castilian_match_interrogative-partial-wh_Cuando-lleva-el-abrigo.wav,./stim/wavs/chilean_match_interrogative-partial-wh_Cuando-lleva-el-abrigo.wav,./stim/wavs/cuban_match_interrogative-partial-wh_Cuando-lleva-el-abrigo.wav,./stim/wavs/mexican_match_interrogative-partial-wh_Cuando-lleva-el-abrigo.wav,./stim/wavs/peruvian_match_interrogative-partial-wh_Cuando-lleva-el-abrigo.wav,./stim/wavs/puertorican_match_interrogative-partial-wh_Cuando-lleva-el-abrigo.wav,,,,,,,,,,,,,,,,,,,,,,,,,,,,,,,,,,,,,,,,,,,,,,,,,,,,,,,,
,,,,,,,5f14e0f456500058ee865863,605b45a4d25f287719a41696,605cee943559b3a5be3b387c,Spain,Midwest,13 or older,no,2021-03-25_16h12.37.493,empathy_intonation_perc,2020.2.10,Linux i686,60,,,,,,,,,,1,mexican,1,1,1.034,0,55,55,19,1,20,./stim/wavs/andalusian_match_interrogative-partial-wh_Cuando-vendia-el-carro.wav,./stim/wavs/argentine_match_interrogative-partial-wh_Cuando-vendia-el-carro.wav,./stim/wavs/castilian_match_interrogative-partial-wh_Cuando-vendia-el-carro.wav,./stim/wavs/chilean_match_interrogative-partial-wh_Cuando-vendia-el-carro.wav,./stim/wavs/cuban_match_interrogative-partial-wh_Cuando-vendia-el-carro.wav,./stim/wavs/mexican_match_interrogative-partial-wh_Cuando-vendia-el-carro.wav,./stim/wavs/peruvian_match_interrogative-partial-wh_Cuando-vendia-el-carro.wav,./stim/wavs/puertorican_match_interrogative-partial-wh_Cuando-vendia-el-carro.wav,,,,,,,,,,,,,,,,,,,,,,,,,,,,,,,,,,,,,,,,,,,,,,,,,,,,,,,,
,,,,,,,5f14e0f456500058ee865863,605b45a4d25f287719a41696,605cee943559b3a5be3b387c,Spain,Midwest,13 or older,no,2021-03-25_16h12.37.493,empathy_intonation_perc,2020.2.10,Linux i686,60,,,,,,,,,,0,cuban,0,1,1.379,0,56,56,8,1,9,./stim/wavs/andalusian_match_declarative-narrow-focus_Ana-lleva-el-abrigo.wav,./stim/wavs/argentine_match_declarative-narrow-focus_Ana-lleva-el-abrigo.wav,./stim/wavs/castilian_match_declarative-narrow-focus_Ana-lleva-el-abrigo.wav,./stim/wavs/chilean_match_declarative-narrow-focus_Ana-lleva-el-abrigo.wav,./stim/wavs/cuban_match_declarative-narrow-focus_Ana-lleva-el-abrigo.wav,./stim/wavs/mexican_match_declarative-narrow-focus_Ana-lleva-el-abrigo.wav,./stim/wavs/peruvian_match_declarative-narrow-focus_Ana-lleva-el-abrigo.wav,./stim/wavs/puertorican_match_declarative-narrow-focus_Ana-lleva-el-abrigo.wav,,,,,,,,,,,,,,,,,,,,,,,,,,,,,,,,,,,,,,,,,,,,,,,,,,,,,,,,
,,,,,,,5f14e0f456500058ee865863,605b45a4d25f287719a41696,605cee943559b3a5be3b387c,Spain,Midwest,13 or older,no,2021-03-25_16h12.37.493,empathy_intonation_perc,2020.2.10,Linux i686,60,,,,,,,,,,0,mexican,0,1,1.369,0,57,57,46,1,47,./stim/wavs/andalusian_mismatch_declarative-narrow-focus_Mi-novio-viene-del-lago.wav,./stim/wavs/argentine_mismatch_declarative-narrow-focus_Mi-novio-viene-del-lago.wav,./stim/wavs/castilian_mismatch_declarative-narrow-focus_Mi-novio-viene-del-lago.wav,./stim/wavs/chilean_mismatch_declarative-narrow-focus_Mi-novio-viene-del-lago.wav,./stim/wavs/cuban_mismatch_declarative-narrow-focus_Mi-novio-viene-del-lago.wav,./stim/wavs/mexican_mismatch_declarative-narrow-focus_Mi-novio-viene-del-lago.wav,./stim/wavs/peruvian_mismatch_declarative-narrow-focus_Mi-novio-viene-del-lago.wav,./stim/wavs/puertorican_mismatch_declarative-narrow-focus_Mi-novio-viene-del-lago.wav,,,,,,,,,,,,,,,,,,,,,,,,,,,,,,,,,,,,,,,,,,,,,,,,,,,,,,,,
,,,,,,,5f14e0f456500058ee865863,605b45a4d25f287719a41696,605cee943559b3a5be3b387c,Spain,Midwest,13 or older,no,2021-03-25_16h12.37.493,empathy_intonation_perc,2020.2.10,Linux i686,60,,,,,,,,,,0,argentine,0,1,1.621,0,58,58,12,1,13,./stim/wavs/andalusian_match_declarative-narrow-focus_Manuela-vende-el-carro.wav,./stim/wavs/argentine_match_declarative-narrow-focus_Manuela-vende-el-carro.wav,./stim/wavs/castilian_match_declarative-narrow-focus_Manuela-vende-el-carro.wav,./stim/wavs/chilean_match_declarative-narrow-focus_Manuela-vende-el-carro.wav,./stim/wavs/cuban_match_declarative-narrow-focus_Manuela-vende-el-carro.wav,./stim/wavs/mexican_match_declarative-narrow-focus_Manuela-vende-el-carro.wav,./stim/wavs/peruvian_match_declarative-narrow-focus_Manuela-vende-el-carro.wav,./stim/wavs/puertorican_match_declarative-narrow-focus_Manuela-vende-el-carro.wav,,,,,,,,,,,,,,,,,,,,,,,,,,,,,,,,,,,,,,,,,,,,,,,,,,,,,,,,
,,,,,,,5f14e0f456500058ee865863,605b45a4d25f287719a41696,605cee943559b3a5be3b387c,Spain,Midwest,13 or older,no,2021-03-25_16h12.37.493,empathy_intonation_perc,2020.2.10,Linux i686,60,,,,,,,,,,1,chilean,1,1,1.425,0,59,59,49,1,50,./stim/wavs/andalusian_mismatch_interrogative-partial-wh_Cuando-lavaba-el-plato.wav,./stim/wavs/argentine_mismatch_interrogative-partial-wh_Cuando-lavaba-el-plato.wav,./stim/wavs/castilian_mismatch_interrogative-partial-wh_Cuando-lavaba-el-plato.wav,./stim/wavs/chilean_mismatch_interrogative-partial-wh_Cuando-lavaba-el-plato.wav,./stim/wavs/cuban_mismatch_interrogative-partial-wh_Cuando-lavaba-el-plato.wav,./stim/wavs/mexican_mismatch_interrogative-partial-wh_Cuando-lavaba-el-plato.wav,./stim/wavs/peruvian_mismatch_interrogative-partial-wh_Cuando-lavaba-el-plato.wav,./stim/wavs/puertorican_mismatch_interrogative-partial-wh_Cuando-lavaba-el-plato.wav,,,,,,,,,,,,,,,,,,,,,,,,,,,,,,,,,,,,,,,,,,,,,,,,,,,,,,,,
,,,,,,,5f14e0f456500058ee865863,605b45a4d25f287719a41696,605cee943559b3a5be3b387c,Spain,Midwest,13 or older,no,2021-03-25_16h12.37.493,empathy_intonation_perc,2020.2.10,Linux i686,60,,,,,,,,,,0,argentine,0,1,1.103,0,60,60,15,1,16,./stim/wavs/andalusian_match_declarative-narrow-focus_Marta-abre-el-regalo.wav,./stim/wavs/argentine_match_declarative-narrow-focus_Marta-abre-el-regalo.wav,./stim/wavs/castilian_match_declarative-narrow-focus_Marta-abre-el-regalo.wav,./stim/wavs/chilean_match_declarative-narrow-focus_Marta-abre-el-regalo.wav,./stim/wavs/cuban_match_declarative-narrow-focus_Marta-abre-el-regalo.wav,./stim/wavs/mexican_match_declarative-narrow-focus_Marta-abre-el-regalo.wav,./stim/wavs/peruvian_match_declarative-narrow-focus_Marta-abre-el-regalo.wav,./stim/wavs/puertorican_match_declarative-narrow-focus_Marta-abre-el-regalo.wav,,,,,,,,,,,,,,,,,,,,,,,,,,,,,,,,,,,,,,,,,,,,,,,,,,,,,,,,
,,,,,,,5f14e0f456500058ee865863,605b45a4d25f287719a41696,605cee943559b3a5be3b387c,Spain,Midwest,13 or older,no,2021-03-25_16h12.37.493,empathy_intonation_perc,2020.2.10,Linux i686,60,,,,,,,,,,0,cuban,0,1,1.926,0,61,61,32,1,33,./stim/wavs/andalusian_mismatch_declarative-broad-focus_El-bebe-comia-muy-bien.wav,./stim/wavs/argentine_mismatch_declarative-broad-focus_El-bebe-comia-muy-bien.wav,./stim/wavs/castilian_mismatch_declarative-broad-focus_El-bebe-comia-muy-bien.wav,./stim/wavs/chilean_mismatch_declarative-broad-focus_El-bebe-comia-muy-bien.wav,./stim/wavs/cuban_mismatch_declarative-broad-focus_El-bebe-comia-muy-bien.wav,./stim/wavs/mexican_mismatch_declarative-broad-focus_El-bebe-comia-muy-bien.wav,./stim/wavs/peruvian_mismatch_declarative-broad-focus_El-bebe-comia-muy-bien.wav,./stim/wavs/puertorican_mismatch_declarative-broad-focus_El-bebe-comia-muy-bien.wav,,,,,,,,,,,,,,,,,,,,,,,,,,,,,,,,,,,,,,,,,,,,,,,,,,,,,,,,
,,,,,,,5f14e0f456500058ee865863,605b45a4d25f287719a41696,605cee943559b3a5be3b387c,Spain,Midwest,13 or older,no,2021-03-25_16h12.37.493,empathy_intonation_perc,2020.2.10,Linux i686,60,,,,,,,,,,0,puertorican,0,1,1.868,0,62,62,41,1,42,./stim/wavs/andalusian_mismatch_declarative-narrow-focus_El-hombre-mira-la-luna.wav,./stim/wavs/argentine_mismatch_declarative-narrow-focus_El-hombre-mira-la-luna.wav,./stim/wavs/castilian_mismatch_declarative-narrow-focus_El-hombre-mira-la-luna.wav,./stim/wavs/chilean_mismatch_declarative-narrow-focus_El-hombre-mira-la-luna.wav,./stim/wavs/cuban_mismatch_declarative-narrow-focus_El-hombre-mira-la-luna.wav,./stim/wavs/mexican_mismatch_declarative-narrow-focus_El-hombre-mira-la-luna.wav,./stim/wavs/peruvian_mismatch_declarative-narrow-focus_El-hombre-mira-la-luna.wav,./stim/wavs/puertorican_mismatch_declarative-narrow-focus_El-hombre-mira-la-luna.wav,,,,,,,,,,,,,,,,,,,,,,,,,,,,,,,,,,,,,,,,,,,,,,,,,,,,,,,,
,,,,,,,5f14e0f456500058ee865863,605b45a4d25f287719a41696,605cee943559b3a5be3b387c,Spain,Midwest,13 or older,no,2021-03-25_16h12.37.493,empathy_intonation_perc,2020.2.10,Linux i686,60,,,,,,,,,,0,andalusian,0,1,1.64,0,63,63,47,1,48,./stim/wavs/andalusian_mismatch_declarative-narrow-focus_Mi-tia-odia-la-lluvia.wav,./stim/wavs/argentine_mismatch_declarative-narrow-focus_Mi-tia-odia-la-lluvia.wav,./stim/wavs/castilian_mismatch_declarative-narrow-focus_Mi-tia-odia-la-lluvia.wav,./stim/wavs/chilean_mismatch_declarative-narrow-focus_Mi-tia-odia-la-lluvia.wav,./stim/wavs/cuban_mismatch_declarative-narrow-focus_Mi-tia-odia-la-lluvia.wav,./stim/wavs/mexican_mismatch_declarative-narrow-focus_Mi-tia-odia-la-lluvia.wav,./stim/wavs/peruvian_mismatch_declarative-narrow-focus_Mi-tia-odia-la-lluvia.wav,./stim/wavs/puertorican_mismatch_declarative-narrow-focus_Mi-tia-odia-la-lluvia.wav,,,,,,,,,,,,,,,,,,,,,,,,,,,,,,,,,,,,,,,,,,,,,,,,,,,,,,,,
,,,,,,,5f14e0f456500058ee865863,605b45a4d25f287719a41696,605cee943559b3a5be3b387c,Spain,Midwest,13 or older,no,2021-03-25_16h12.37.493,empathy_intonation_perc,2020.2.10,Linux i686,60,,,,,,,,,,,,,,,,,,,,,,,,,,,,,h,1,2.693,0,0,0,0,1,,,,,,,,,,,,,,,,,,,,,,,,,,,,,,,,,,,,,,,,,,,,,,,,
,,,,,"Great! Now we will move on. The next task consists of about 60 trials, in each of which you will see a string of letters. 
  
  Your task is to decide whether this is a real Spanish word or not.",(press the spacebar to continue),5f14e0f456500058ee865863,605b45a4d25f287719a41696,605cee943559b3a5be3b387c,Spain,Midwest,13 or older,no,2021-03-25_16h12.37.493,empathy_intonation_perc,2020.2.10,Linux i686,60,,,,,,,,,,,,,,,,,,,,,,,,,,,,,,,,,,,,,0,0,0,0,1,,,,,,,,,,,,,,,,,,,,,,,,,,,,,,,,,,,,,,,,,,,
,,,,,"If you think it is an existing Spanish word, you type '1' (for 'REAL'), and if you think it is not an existing Spanish word, you type '0' (for 'FAKE').",(press the spacebar to continue),5f14e0f456500058ee865863,605b45a4d25f287719a41696,605cee943559b3a5be3b387c,Spain,Midwest,13 or older,no,2021-03-25_16h12.37.493,empathy_intonation_perc,2020.2.10,Linux i686,60,,,,,,,,,,,,,,,,,,,,,,,,,,,,,,,,,,,,,0,1,1,1,1,,,,,,,,,,,,,,,,,,,,,,,,,,,,,,,,,,,,,,,,,,,
,,,,,"If you are sure that the word exists, even though you dont know its exact meaning, you may still respond '1' (REAL). 
  
  But if you are not sure if it is an existing word, you should respond '0' (FAKE).
  
  Let's do a practice round...",(press the spacebar to continue),5f14e0f456500058ee865863,605b45a4d25f287719a41696,605cee943559b3a5be3b387c,Spain,Midwest,13 or older,no,2021-03-25_16h12.37.493,empathy_intonation_perc,2020.2.10,Linux i686,60,,,,,,,,,,,,,,,,,,,,,,,,,,,,,,,,,,,,,0,2,2,2,1,,,,,,,,,,,,,,,,,,,,,,,,,,,,,,,,,,,,,,,,,,,
,,,,,,,5f14e0f456500058ee865863,605b45a4d25f287719a41696,605cee943559b3a5be3b387c,Spain,Midwest,13 or older,no,2021-03-25_16h12.37.493,empathy_intonation_perc,2020.2.10,Linux i686,60,,,,,,,,,,0,,,,,,,,,,,,,,,,,,,,,,,,,,,,,,,,0,1,2.145,0,0,0,0,1,0,depiste,REAL,FAKE,,,,,,,,,,,,,,,,,,,,,,,,,,,,,,,
,,,,,,,5f14e0f456500058ee865863,605b45a4d25f287719a41696,605cee943559b3a5be3b387c,Spain,Midwest,13 or older,no,2021-03-25_16h12.37.493,empathy_intonation_perc,2020.2.10,Linux i686,60,,,,,,,,,,1,,,,,,,,,,,,,,,,,,,,,,,,,,,,,,,,1,1,0.778,0,1,1,1,1,0,s,REAL,FAKE,,,,,,,,,,,,,,,,,,,,,,,,,,,,,,,
,,,,,,,5f14e0f456500058ee865863,605b45a4d25f287719a41696,605cee943559b3a5be3b387c,Spain,Midwest,13 or older,no,2021-03-25_16h12.37.493,empathy_intonation_perc,2020.2.10,Linux i686,60,,,,,,,,,,0,,,,,,,,,,,,,,,,,,,,,,,,,,,,,,,,1,0,1.099,0,2,2,2,1,0,con,REAL,FAKE,,,,,,,,,,,,,,,,,,,,,,,,,,,,,,,
,,,,,,,5f14e0f456500058ee865863,605b45a4d25f287719a41696,605cee943559b3a5be3b387c,Spain,Midwest,13 or older,no,2021-03-25_16h12.37.493,empathy_intonation_perc,2020.2.10,Linux i686,60,,,,,,,,,,0,,,,,,,,,,,,,,,,,,,,,,,,,,,,,,,,1,0,1.239,0,3,3,3,1,0,calpar,REAL,FAKE,,,,,,,,,,,,,,,,,,,,,,,,,,,,,,,
,,,,,,,5f14e0f456500058ee865863,605b45a4d25f287719a41696,605cee943559b3a5be3b387c,Spain,Midwest,13 or older,no,2021-03-25_16h12.37.493,empathy_intonation_perc,2020.2.10,Linux i686,60,,,,,,,,,,0,,,,,,,,,,,,,,,,,,,,,,,,,,,,,,,,0,1,1.022,0,4,4,4,1,0,joten,REAL,FAKE,,,,,,,,,,,,,,,,,,,,,,,,,,,,,,,
,,,,,,,5f14e0f456500058ee865863,605b45a4d25f287719a41696,605cee943559b3a5be3b387c,Spain,Midwest,13 or older,no,2021-03-25_16h12.37.493,empathy_intonation_perc,2020.2.10,Linux i686,60,,,,,,,,,,1,,,,,,,,,,,,,,,,,,,,,,,,,,,,,,,,1,1,1.007,0,5,5,5,1,0,sacapuntas,REAL,FAKE,,,,,,,,,,,,,,,,,,,,,,,,,,,,,,,
,,,,,,,5f14e0f456500058ee865863,605b45a4d25f287719a41696,605cee943559b3a5be3b387c,Spain,Midwest,13 or older,no,2021-03-25_16h12.37.493,empathy_intonation_perc,2020.2.10,Linux i686,60,,,,,,,,,,0,,,,,,,,,,,,,,,,,,,,,,,,,,,,,,,,0,1,1.113,0,6,6,6,1,0,priba,REAL,FAKE,,,,,,,,,,,,,,,,,,,,,,,,,,,,,,,
,,,,,,,5f14e0f456500058ee865863,605b45a4d25f287719a41696,605cee943559b3a5be3b387c,Spain,Midwest,13 or older,no,2021-03-25_16h12.37.493,empathy_intonation_perc,2020.2.10,Linux i686,60,,,,,,,,,,0,,,,,,,,,,,,,,,,,,,,,,,,,,,,,,,,1,0,1.459,0,7,7,7,1,0,pelasula,REAL,FAKE,,,,,,,,,,,,,,,,,,,,,,,,,,,,,,,
,,,,,,,5f14e0f456500058ee865863,605b45a4d25f287719a41696,605cee943559b3a5be3b387c,Spain,Midwest,13 or older,no,2021-03-25_16h12.37.493,empathy_intonation_perc,2020.2.10,Linux i686,60,,,,,,,,,,1,,,,,,,,,,,,,,,,,,,,,,,,,,,,,,,,1,1,0.71,0,8,8,8,1,0,bien,REAL,FAKE,,,,,,,,,,,,,,,,,,,,,,,,,,,,,,,
,,,,,,,5f14e0f456500058ee865863,605b45a4d25f287719a41696,605cee943559b3a5be3b387c,Spain,Midwest,13 or older,no,2021-03-25_16h12.37.493,empathy_intonation_perc,2020.2.10,Linux i686,60,,,,,,,,,,1,,,,,,,,,,,,,,,,,,,,,,,,,,,,,,,,1,1,0.702,0,9,9,9,1,0,casa,REAL,FAKE,,,,,,,,,,,,,,,,,,,,,,,,,,,,,,,
,,,,,,,5f14e0f456500058ee865863,605b45a4d25f287719a41696,605cee943559b3a5be3b387c,Spain,Midwest,13 or older,no,2021-03-25_16h12.37.493,empathy_intonation_perc,2020.2.10,Linux i686,60,,,,,,,,,,0,,,,,,,,,,,,,,,,,,,,,,,,,,,,,,,,1,0,0.859,0,10,10,10,1,0,lejo,REAL,FAKE,,,,,,,,,,,,,,,,,,,,,,,,,,,,,,,
,,,,,,,5f14e0f456500058ee865863,605b45a4d25f287719a41696,605cee943559b3a5be3b387c,Spain,Midwest,13 or older,no,2021-03-25_16h12.37.493,empathy_intonation_perc,2020.2.10,Linux i686,60,,,,,,,,,,0,,,,,,,,,,,,,,,,,,,,,,,,,,,,,,,,1,0,1.197,0,11,11,11,1,0,pretantas,REAL,FAKE,,,,,,,,,,,,,,,,,,,,,,,,,,,,,,,
,,,,,,,5f14e0f456500058ee865863,605b45a4d25f287719a41696,605cee943559b3a5be3b387c,Spain,Midwest,13 or older,no,2021-03-25_16h12.37.493,empathy_intonation_perc,2020.2.10,Linux i686,60,,,,,,,,,,1,,,,,,,,,,,,,,,,,,,,,,,,,,,,,,,,,,,,,,,,6,tergiversar,,,0,0,0.961,0,0,0,5,1,REAL,FAKE,,,,,,,,,,,,,,,,,,,,,
,,,,,,,5f14e0f456500058ee865863,605b45a4d25f287719a41696,605cee943559b3a5be3b387c,Spain,Midwest,13 or older,no,2021-03-25_16h12.37.493,empathy_intonation_perc,2020.2.10,Linux i686,60,,,,,,,,,,1,,,,,,,,,,,,,,,,,,,,,,,,,,,,,,,,,,,,,,,,69,engatusar,,,0,0,1.84,0,1,1,68,1,REAL,FAKE,,,,,,,,,,,,,,,,,,,,,
,,,,,,,5f14e0f456500058ee865863,605b45a4d25f287719a41696,605cee943559b3a5be3b387c,Spain,Midwest,13 or older,no,2021-03-25_16h12.37.493,empathy_intonation_perc,2020.2.10,Linux i686,60,,,,,,,,,,0,,,,,,,,,,,,,,,,,,,,,,,,,,,,,,,,,,,,,,,,29,decar,,,1,0,0.763,0,2,2,28,1,REAL,FAKE,,,,,,,,,,,,,,,,,,,,,
,,,,,,,5f14e0f456500058ee865863,605b45a4d25f287719a41696,605cee943559b3a5be3b387c,Spain,Midwest,13 or older,no,2021-03-25_16h12.37.493,empathy_intonation_perc,2020.2.10,Linux i686,60,,,,,,,,,,0,,,,,,,,,,,,,,,,,,,,,,,,,,,,,,,,,,,,,,,,79,tropaje,,,0,1,1.305,0,3,3,78,1,REAL,FAKE,,,,,,,,,,,,,,,,,,,,,
,,,,,,,5f14e0f456500058ee865863,605b45a4d25f287719a41696,605cee943559b3a5be3b387c,Spain,Midwest,13 or older,no,2021-03-25_16h12.37.493,empathy_intonation_perc,2020.2.10,Linux i686,60,,,,,,,,,,0,,,,,,,,,,,,,,,,,,,,,,,,,,,,,,,,,,,,,,,,10,antar,,,1,0,0.88,0,4,4,9,1,REAL,FAKE,,,,,,,,,,,,,,,,,,,,,
,,,,,,,5f14e0f456500058ee865863,605b45a4d25f287719a41696,605cee943559b3a5be3b387c,Spain,Midwest,13 or older,no,2021-03-25_16h12.37.493,empathy_intonation_perc,2020.2.10,Linux i686,60,,,,,,,,,,1,,,,,,,,,,,,,,,,,,,,,,,,,,,,,,,,,,,,,,,,28,merodear,,,0,0,1.407,0,5,5,27,1,REAL,FAKE,,,,,,,,,,,,,,,,,,,,,
,,,,,,,5f14e0f456500058ee865863,605b45a4d25f287719a41696,605cee943559b3a5be3b387c,Spain,Midwest,13 or older,no,2021-03-25_16h12.37.493,empathy_intonation_perc,2020.2.10,Linux i686,60,,,,,,,,,,1,,,,,,,,,,,,,,,,,,,,,,,,,,,,,,,,,,,,,,,,77,tiburn,,,1,1,0.865,0,6,6,76,1,REAL,FAKE,,,,,,,,,,,,,,,,,,,,,
,,,,,,,5f14e0f456500058ee865863,605b45a4d25f287719a41696,605cee943559b3a5be3b387c,Spain,Midwest,13 or older,no,2021-03-25_16h12.37.493,empathy_intonation_perc,2020.2.10,Linux i686,60,,,,,,,,,,1,,,,,,,,,,,,,,,,,,,,,,,,,,,,,,,,,,,,,,,,12,asesinato,,,0,0,1.585,0,7,7,11,1,REAL,FAKE,,,,,,,,,,,,,,,,,,,,,
,,,,,,,5f14e0f456500058ee865863,605b45a4d25f287719a41696,605cee943559b3a5be3b387c,Spain,Midwest,13 or older,no,2021-03-25_16h12.37.493,empathy_intonation_perc,2020.2.10,Linux i686,60,,,,,,,,,,0,,,,,,,,,,,,,,,,,,,,,,,,,,,,,,,,,,,,,,,,33,pauca,,,1,0,1.36,0,8,8,32,1,REAL,FAKE,,,,,,,,,,,,,,,,,,,,,
,,,,,,,5f14e0f456500058ee865863,605b45a4d25f287719a41696,605cee943559b3a5be3b387c,Spain,Midwest,13 or older,no,2021-03-25_16h12.37.493,empathy_intonation_perc,2020.2.10,Linux i686,60,,,,,,,,,,1,,,,,,,,,,,,,,,,,,,,,,,,,,,,,,,,,,,,,,,,9,hacha,,,1,1,1.158,0,9,9,8,1,REAL,FAKE,,,,,,,,,,,,,,,,,,,,,
,,,,,,,5f14e0f456500058ee865863,605b45a4d25f287719a41696,605cee943559b3a5be3b387c,Spain,Midwest,13 or older,no,2021-03-25_16h12.37.493,empathy_intonation_perc,2020.2.10,Linux i686,60,,,,,,,,,,1,,,,,,,,,,,,,,,,,,,,,,,,,,,,,,,,,,,,,,,,7,psimo,,,1,1,0.947,0,10,10,6,1,REAL,FAKE,,,,,,,,,,,,,,,,,,,,,
,,,,,,,5f14e0f456500058ee865863,605b45a4d25f287719a41696,605cee943559b3a5be3b387c,Spain,Midwest,13 or older,no,2021-03-25_16h12.37.493,empathy_intonation_perc,2020.2.10,Linux i686,60,,,,,,,,,,0,,,,,,,,,,,,,,,,,,,,,,,,,,,,,,,,,,,,,,,,66,hacido,,,1,0,0.948,0,11,11,65,1,REAL,FAKE,,,,,,,,,,,,,,,,,,,,,
,,,,,,,5f14e0f456500058ee865863,605b45a4d25f287719a41696,605cee943559b3a5be3b387c,Spain,Midwest,13 or older,no,2021-03-25_16h12.37.493,empathy_intonation_perc,2020.2.10,Linux i686,60,,,,,,,,,,1,,,,,,,,,,,,,,,,,,,,,,,,,,,,,,,,,,,,,,,,83,guante,,,1,1,1.305,0,12,12,82,1,REAL,FAKE,,,,,,,,,,,,,,,,,,,,,
,,,,,,,5f14e0f456500058ee865863,605b45a4d25f287719a41696,605cee943559b3a5be3b387c,Spain,Midwest,13 or older,no,2021-03-25_16h12.37.493,empathy_intonation_perc,2020.2.10,Linux i686,60,,,,,,,,,,1,,,,,,,,,,,,,,,,,,,,,,,,,,,,,,,,,,,,,,,,73,hervidor,,,1,1,1.387,0,13,13,72,1,REAL,FAKE,,,,,,,,,,,,,,,,,,,,,
,,,,,,,5f14e0f456500058ee865863,605b45a4d25f287719a41696,605cee943559b3a5be3b387c,Spain,Midwest,13 or older,no,2021-03-25_16h12.37.493,empathy_intonation_perc,2020.2.10,Linux i686,60,,,,,,,,,,1,,,,,,,,,,,,,,,,,,,,,,,,,,,,,,,,,,,,,,,,80,hormiga,,,0,0,1.247,0,14,14,79,1,REAL,FAKE,,,,,,,,,,,,,,,,,,,,,
,,,,,,,5f14e0f456500058ee865863,605b45a4d25f287719a41696,605cee943559b3a5be3b387c,Spain,Midwest,13 or older,no,2021-03-25_16h12.37.493,empathy_intonation_perc,2020.2.10,Linux i686,60,,,,,,,,,,1,,,,,,,,,,,,,,,,,,,,,,,,,,,,,,,,,,,,,,,,46,martillo,,,1,1,1.84,0,15,15,45,1,REAL,FAKE,,,,,,,,,,,,,,,,,,,,,
,,,,,,,5f14e0f456500058ee865863,605b45a4d25f287719a41696,605cee943559b3a5be3b387c,Spain,Midwest,13 or older,no,2021-03-25_16h12.37.493,empathy_intonation_perc,2020.2.10,Linux i686,60,,,,,,,,,,0,,,,,,,,,,,,,,,,,,,,,,,,,,,,,,,,,,,,,,,,53,vegada,,,1,0,1.068,0,16,16,52,1,REAL,FAKE,,,,,,,,,,,,,,,,,,,,,
,,,,,,,5f14e0f456500058ee865863,605b45a4d25f287719a41696,605cee943559b3a5be3b387c,Spain,Midwest,13 or older,no,2021-03-25_16h12.37.493,empathy_intonation_perc,2020.2.10,Linux i686,60,,,,,,,,,,1,,,,,,,,,,,,,,,,,,,,,,,,,,,,,,,,,,,,,,,,5,zapato,,,0,0,0.809,0,17,17,4,1,REAL,FAKE,,,,,,,,,,,,,,,,,,,,,
,,,,,,,5f14e0f456500058ee865863,605b45a4d25f287719a41696,605cee943559b3a5be3b387c,Spain,Midwest,13 or older,no,2021-03-25_16h12.37.493,empathy_intonation_perc,2020.2.10,Linux i686,60,,,,,,,,,,1,,,,,,,,,,,,,,,,,,,,,,,,,,,,,,,,,,,,,,,,38,estornudar,,,0,0,3.416,0,18,18,37,1,REAL,FAKE,,,,,,,,,,,,,,,,,,,,,
,,,,,,,5f14e0f456500058ee865863,605b45a4d25f287719a41696,605cee943559b3a5be3b387c,Spain,Midwest,13 or older,no,2021-03-25_16h12.37.493,empathy_intonation_perc,2020.2.10,Linux i686,60,,,,,,,,,,1,,,,,,,,,,,,,,,,,,,,,,,,,,,,,,,,,,,,,,,,51,candado,,,1,1,1.287,0,19,19,50,1,REAL,FAKE,,,,,,,,,,,,,,,,,,,,,
,,,,,,,5f14e0f456500058ee865863,605b45a4d25f287719a41696,605cee943559b3a5be3b387c,Spain,Midwest,13 or older,no,2021-03-25_16h12.37.493,empathy_intonation_perc,2020.2.10,Linux i686,60,,,,,,,,,,1,,,,,,,,,,,,,,,,,,,,,,,,,,,,,,,,,,,,,,,,90,clavel,,,1,1,1.321,0,20,20,89,1,REAL,FAKE,,,,,,,,,,,,,,,,,,,,,
,,,,,,,5f14e0f456500058ee865863,605b45a4d25f287719a41696,605cee943559b3a5be3b387c,Spain,Midwest,13 or older,no,2021-03-25_16h12.37.493,empathy_intonation_perc,2020.2.10,Linux i686,60,,,,,,,,,,1,,,,,,,,,,,,,,,,,,,,,,,,,,,,,,,,,,,,,,,,2,pellizcar,,,0,0,1.081,0,21,21,1,1,REAL,FAKE,,,,,,,,,,,,,,,,,,,,,
,,,,,,,5f14e0f456500058ee865863,605b45a4d25f287719a41696,605cee943559b3a5be3b387c,Spain,Midwest,13 or older,no,2021-03-25_16h12.37.493,empathy_intonation_perc,2020.2.10,Linux i686,60,,,,,,,,,,1,,,,,,,,,,,,,,,,,,,,,,,,,,,,,,,,,,,,,,,,36,loro,,,1,1,0.904,0,22,22,35,1,REAL,FAKE,,,,,,,,,,,,,,,,,,,,,
,,,,,,,5f14e0f456500058ee865863,605b45a4d25f287719a41696,605cee943559b3a5be3b387c,Spain,Midwest,13 or older,no,2021-03-25_16h12.37.493,empathy_intonation_perc,2020.2.10,Linux i686,60,,,,,,,,,,1,,,,,,,,,,,,,,,,,,,,,,,,,,,,,,,,,,,,,,,,49,ganar,,,0,0,2.361,0,23,23,48,1,REAL,FAKE,,,,,,,,,,,,,,,,,,,,,
,,,,,,,5f14e0f456500058ee865863,605b45a4d25f287719a41696,605cee943559b3a5be3b387c,Spain,Midwest,13 or older,no,2021-03-25_16h12.37.493,empathy_intonation_perc,2020.2.10,Linux i686,60,,,,,,,,,,0,,,,,,,,,,,,,,,,,,,,,,,,,,,,,,,,,,,,,,,,72,pemicin,,,0,1,1.44,0,24,24,71,1,REAL,FAKE,,,,,,,,,,,,,,,,,,,,,
,,,,,,,5f14e0f456500058ee865863,605b45a4d25f287719a41696,605cee943559b3a5be3b387c,Spain,Midwest,13 or older,no,2021-03-25_16h12.37.493,empathy_intonation_perc,2020.2.10,Linux i686,60,,,,,,,,,,1,,,,,,,,,,,,,,,,,,,,,,,,,,,,,,,,,,,,,,,,39,torpe,,,1,1,1.231,0,25,25,38,1,REAL,FAKE,,,,,,,,,,,,,,,,,,,,,
,,,,,,,5f14e0f456500058ee865863,605b45a4d25f287719a41696,605cee943559b3a5be3b387c,Spain,Midwest,13 or older,no,2021-03-25_16h12.37.493,empathy_intonation_perc,2020.2.10,Linux i686,60,,,,,,,,,,0,,,,,,,,,,,,,,,,,,,,,,,,,,,,,,,,,,,,,,,,19,brecedad,,,0,1,1.118,0,26,26,18,1,REAL,FAKE,,,,,,,,,,,,,,,,,,,,,
,,,,,,,5f14e0f456500058ee865863,605b45a4d25f287719a41696,605cee943559b3a5be3b387c,Spain,Midwest,13 or older,no,2021-03-25_16h12.37.493,empathy_intonation_perc,2020.2.10,Linux i686,60,,,,,,,,,,0,,,,,,,,,,,,,,,,,,,,,,,,,,,,,,,,,,,,,,,,18,arsa,,,0,1,2.355,0,27,27,17,1,REAL,FAKE,,,,,,,,,,,,,,,,,,,,,
,,,,,,,5f14e0f456500058ee865863,605b45a4d25f287719a41696,605cee943559b3a5be3b387c,Spain,Midwest,13 or older,no,2021-03-25_16h12.37.493,empathy_intonation_perc,2020.2.10,Linux i686,60,,,,,,,,,,1,,,,,,,,,,,,,,,,,,,,,,,,,,,,,,,,,,,,,,,,15,regar,,,1,1,1.114,0,28,28,14,1,REAL,FAKE,,,,,,,,,,,,,,,,,,,,,
,,,,,,,5f14e0f456500058ee865863,605b45a4d25f287719a41696,605cee943559b3a5be3b387c,Spain,Midwest,13 or older,no,2021-03-25_16h12.37.493,empathy_intonation_perc,2020.2.10,Linux i686,60,,,,,,,,,,1,,,,,,,,,,,,,,,,,,,,,,,,,,,,,,,,,,,,,,,,56,musgo,,,0,0,1.294,0,29,29,55,1,REAL,FAKE,,,,,,,,,,,,,,,,,,,,,
,,,,,,,5f14e0f456500058ee865863,605b45a4d25f287719a41696,605cee943559b3a5be3b387c,Spain,Midwest,13 or older,no,2021-03-25_16h12.37.493,empathy_intonation_perc,2020.2.10,Linux i686,60,,,,,,,,,,0,,,,,,,,,,,,,,,,,,,,,,,,,,,,,,,,,,,,,,,,58,plaudir,,,0,1,0.855,0,30,30,57,1,REAL,FAKE,,,,,,,,,,,,,,,,,,,,,
,,,,,,,5f14e0f456500058ee865863,605b45a4d25f287719a41696,605cee943559b3a5be3b387c,Spain,Midwest,13 or older,no,2021-03-25_16h12.37.493,empathy_intonation_perc,2020.2.10,Linux i686,60,,,,,,,,,,0,,,,,,,,,,,,,,,,,,,,,,,,,,,,,,,,,,,,,,,,84,escuto,,,1,0,1.001,0,31,31,83,1,REAL,FAKE,,,,,,,,,,,,,,,,,,,,,
,,,,,,,5f14e0f456500058ee865863,605b45a4d25f287719a41696,605cee943559b3a5be3b387c,Spain,Midwest,13 or older,no,2021-03-25_16h12.37.493,empathy_intonation_perc,2020.2.10,Linux i686,60,,,,,,,,,,1,,,,,,,,,,,,,,,,,,,,,,,,,,,,,,,,,,,,,,,,75,yacer,,,0,0,1.249,0,32,32,74,1,REAL,FAKE,,,,,,,,,,,,,,,,,,,,,
,,,,,,,5f14e0f456500058ee865863,605b45a4d25f287719a41696,605cee943559b3a5be3b387c,Spain,Midwest,13 or older,no,2021-03-25_16h12.37.493,empathy_intonation_perc,2020.2.10,Linux i686,60,,,,,,,,,,0,,,,,,,,,,,,,,,,,,,,,,,,,,,,,,,,,,,,,,,,74,cintro,,,1,0,0.76,0,33,33,73,1,REAL,FAKE,,,,,,,,,,,,,,,,,,,,,
,,,,,,,5f14e0f456500058ee865863,605b45a4d25f287719a41696,605cee943559b3a5be3b387c,Spain,Midwest,13 or older,no,2021-03-25_16h12.37.493,empathy_intonation_perc,2020.2.10,Linux i686,60,,,,,,,,,,0,,,,,,,,,,,,,,,,,,,,,,,,,,,,,,,,,,,,,,,,8,cadea,,,1,0,1.31,0,34,34,7,1,REAL,FAKE,,,,,,,,,,,,,,,,,,,,,
,,,,,,,5f14e0f456500058ee865863,605b45a4d25f287719a41696,605cee943559b3a5be3b387c,Spain,Midwest,13 or older,no,2021-03-25_16h12.37.493,empathy_intonation_perc,2020.2.10,Linux i686,60,,,,,,,,,,1,,,,,,,,,,,,,,,,,,,,,,,,,,,,,,,,,,,,,,,,24,ltigo,,,1,1,0.854,0,35,35,23,1,REAL,FAKE,,,,,,,,,,,,,,,,,,,,,
,,,,,,,5f14e0f456500058ee865863,605b45a4d25f287719a41696,605cee943559b3a5be3b387c,Spain,Midwest,13 or older,no,2021-03-25_16h12.37.493,empathy_intonation_perc,2020.2.10,Linux i686,60,,,,,,,,,,1,,,,,,,,,,,,,,,,,,,,,,,,,,,,,,,,,,,,,,,,52,camisa,,,1,1,1.076,0,36,36,51,1,REAL,FAKE,,,,,,,,,,,,,,,,,,,,,
,,,,,,,5f14e0f456500058ee865863,605b45a4d25f287719a41696,605cee943559b3a5be3b387c,Spain,Midwest,13 or older,no,2021-03-25_16h12.37.493,empathy_intonation_perc,2020.2.10,Linux i686,60,,,,,,,,,,1,,,,,,,,,,,,,,,,,,,,,,,,,,,,,,,,,,,,,,,,11,cenefa,,,0,0,0.875,0,37,37,10,1,REAL,FAKE,,,,,,,,,,,,,,,,,,,,,
,,,,,,,5f14e0f456500058ee865863,605b45a4d25f287719a41696,605cee943559b3a5be3b387c,Spain,Midwest,13 or older,no,2021-03-25_16h12.37.493,empathy_intonation_perc,2020.2.10,Linux i686,60,,,,,,,,,,1,,,,,,,,,,,,,,,,,,,,,,,,,,,,,,,,,,,,,,,,81,pozo,,,1,1,0.77,0,38,38,80,1,REAL,FAKE,,,,,,,,,,,,,,,,,,,,,
,,,,,,,5f14e0f456500058ee865863,605b45a4d25f287719a41696,605cee943559b3a5be3b387c,Spain,Midwest,13 or older,no,2021-03-25_16h12.37.493,empathy_intonation_perc,2020.2.10,Linux i686,60,,,,,,,,,,1,,,,,,,,,,,,,,,,,,,,,,,,,,,,,,,,,,,,,,,,89,prisa,,,1,1,1.002,0,39,39,88,1,REAL,FAKE,,,,,,,,,,,,,,,,,,,,,
,,,,,,,5f14e0f456500058ee865863,605b45a4d25f287719a41696,605cee943559b3a5be3b387c,Spain,Midwest,13 or older,no,2021-03-25_16h12.37.493,empathy_intonation_perc,2020.2.10,Linux i686,60,,,,,,,,,,0,,,,,,,,,,,,,,,,,,,,,,,,,,,,,,,,,,,,,,,,82,empirador,,,1,0,1.34,0,40,40,81,1,REAL,FAKE,,,,,,,,,,,,,,,,,,,,,
,,,,,,,5f14e0f456500058ee865863,605b45a4d25f287719a41696,605cee943559b3a5be3b387c,Spain,Midwest,13 or older,no,2021-03-25_16h12.37.493,empathy_intonation_perc,2020.2.10,Linux i686,60,,,,,,,,,,1,,,,,,,,,,,,,,,,,,,,,,,,,,,,,,,,,,,,,,,,62,flaco,,,1,1,0.997,0,41,41,61,1,REAL,FAKE,,,,,,,,,,,,,,,,,,,,,
,,,,,,,5f14e0f456500058ee865863,605b45a4d25f287719a41696,605cee943559b3a5be3b387c,Spain,Midwest,13 or older,no,2021-03-25_16h12.37.493,empathy_intonation_perc,2020.2.10,Linux i686,60,,,,,,,,,,0,,,,,,,,,,,,,,,,,,,,,,,,,,,,,,,,,,,,,,,,23,lampera,,,1,0,2.596,0,42,42,22,1,REAL,FAKE,,,,,,,,,,,,,,,,,,,,,
,,,,,,,5f14e0f456500058ee865863,605b45a4d25f287719a41696,605cee943559b3a5be3b387c,Spain,Midwest,13 or older,no,2021-03-25_16h12.37.493,empathy_intonation_perc,2020.2.10,Linux i686,60,,,,,,,,,,1,,,,,,,,,,,,,,,,,,,,,,,,,,,,,,,,,,,,,,,,25,bisagra,,,0,0,0.678,0,43,43,24,1,REAL,FAKE,,,,,,,,,,,,,,,,,,,,,
,,,,,,,5f14e0f456500058ee865863,605b45a4d25f287719a41696,605cee943559b3a5be3b387c,Spain,Midwest,13 or older,no,2021-03-25_16h12.37.493,empathy_intonation_perc,2020.2.10,Linux i686,60,,,,,,,,,,0,,,,,,,,,,,,,,,,,,,,,,,,,,,,,,,,,,,,,,,,50,flamida,,,0,1,1.544,0,44,44,49,1,REAL,FAKE,,,,,,,,,,,,,,,,,,,,,
,,,,,,,5f14e0f456500058ee865863,605b45a4d25f287719a41696,605cee943559b3a5be3b387c,Spain,Midwest,13 or older,no,2021-03-25_16h12.37.493,empathy_intonation_perc,2020.2.10,Linux i686,60,,,,,,,,,,0,,,,,,,,,,,,,,,,,,,,,,,,,,,,,,,,,,,,,,,,70,temblo,,,0,1,0.829,0,45,45,69,1,REAL,FAKE,,,,,,,,,,,,,,,,,,,,,
,,,,,,,5f14e0f456500058ee865863,605b45a4d25f287719a41696,605cee943559b3a5be3b387c,Spain,Midwest,13 or older,no,2021-03-25_16h12.37.493,empathy_intonation_perc,2020.2.10,Linux i686,60,,,,,,,,,,1,,,,,,,,,,,,,,,,,,,,,,,,,,,,,,,,,,,,,,,,45,jilguero,,,0,0,0.919,0,46,46,44,1,REAL,FAKE,,,,,,,,,,,,,,,,,,,,,
,,,,,,,5f14e0f456500058ee865863,605b45a4d25f287719a41696,605cee943559b3a5be3b387c,Spain,Midwest,13 or older,no,2021-03-25_16h12.37.493,empathy_intonation_perc,2020.2.10,Linux i686,60,,,,,,,,,,1,,,,,,,,,,,,,,,,,,,,,,,,,,,,,,,,,,,,,,,,60,matar,,,1,1,0.989,0,47,47,59,1,REAL,FAKE,,,,,,,,,,,,,,,,,,,,,
,,,,,,,5f14e0f456500058ee865863,605b45a4d25f287719a41696,605cee943559b3a5be3b387c,Spain,Midwest,13 or older,no,2021-03-25_16h12.37.493,empathy_intonation_perc,2020.2.10,Linux i686,60,,,,,,,,,,1,,,,,,,,,,,,,,,,,,,,,,,,,,,,,,,,,,,,,,,,65,bizcocho,,,0,0,0.772,0,48,48,64,1,REAL,FAKE,,,,,,,,,,,,,,,,,,,,,
,,,,,,,5f14e0f456500058ee865863,605b45a4d25f287719a41696,605cee943559b3a5be3b387c,Spain,Midwest,13 or older,no,2021-03-25_16h12.37.493,empathy_intonation_perc,2020.2.10,Linux i686,60,,,,,,,,,,0,,,,,,,,,,,,,,,,,,,,,,,,,,,,,,,,,,,,,,,,17,floroso,,,1,0,1.269,0,49,49,16,1,REAL,FAKE,,,,,,,,,,,,,,,,,,,,,
,,,,,,,5f14e0f456500058ee865863,605b45a4d25f287719a41696,605cee943559b3a5be3b387c,Spain,Midwest,13 or older,no,2021-03-25_16h12.37.493,empathy_intonation_perc,2020.2.10,Linux i686,60,,,,,,,,,,1,,,,,,,,,,,,,,,,,,,,,,,,,,,,,,,,,,,,,,,,20,vido,,,1,1,1.075,0,50,50,19,1,REAL,FAKE,,,,,,,,,,,,,,,,,,,,,
,,,,,,,5f14e0f456500058ee865863,605b45a4d25f287719a41696,605cee943559b3a5be3b387c,Spain,Midwest,13 or older,no,2021-03-25_16h12.37.493,empathy_intonation_perc,2020.2.10,Linux i686,60,,,,,,,,,,0,,,,,,,,,,,,,,,,,,,,,,,,,,,,,,,,,,,,,,,,21,capillo,,,1,0,1.164,0,51,51,20,1,REAL,FAKE,,,,,,,,,,,,,,,,,,,,,
,,,,,,,5f14e0f456500058ee865863,605b45a4d25f287719a41696,605cee943559b3a5be3b387c,Spain,Midwest,13 or older,no,2021-03-25_16h12.37.493,empathy_intonation_perc,2020.2.10,Linux i686,60,,,,,,,,,,1,,,,,,,,,,,,,,,,,,,,,,,,,,,,,,,,,,,,,,,,54,fomentar,,,1,1,2.665,0,52,52,53,1,REAL,FAKE,,,,,,,,,,,,,,,,,,,,,
,,,,,,,5f14e0f456500058ee865863,605b45a4d25f287719a41696,605cee943559b3a5be3b387c,Spain,Midwest,13 or older,no,2021-03-25_16h12.37.493,empathy_intonation_perc,2020.2.10,Linux i686,60,,,,,,,,,,0,,,,,,,,,,,,,,,,,,,,,,,,,,,,,,,,,,,,,,,,1,terzo,,,1,0,1.066,0,53,53,0,1,REAL,FAKE,,,,,,,,,,,,,,,,,,,,,
,,,,,,,5f14e0f456500058ee865863,605b45a4d25f287719a41696,605cee943559b3a5be3b387c,Spain,Midwest,13 or older,no,2021-03-25_16h12.37.493,empathy_intonation_perc,2020.2.10,Linux i686,60,,,,,,,,,,0,,,,,,,,,,,,,,,,,,,,,,,,,,,,,,,,,,,,,,,,32,fatacidad,,,0,1,0.815,0,54,54,31,1,REAL,FAKE,,,,,,,,,,,,,,,,,,,,,
,,,,,,,5f14e0f456500058ee865863,605b45a4d25f287719a41696,605cee943559b3a5be3b387c,Spain,Midwest,13 or older,no,2021-03-25_16h12.37.493,empathy_intonation_perc,2020.2.10,Linux i686,60,,,,,,,,,,1,,,,,,,,,,,,,,,,,,,,,,,,,,,,,,,,,,,,,,,,76,atar,,,1,1,0.829,0,55,55,75,1,REAL,FAKE,,,,,,,,,,,,,,,,,,,,,
,,,,,,,5f14e0f456500058ee865863,605b45a4d25f287719a41696,605cee943559b3a5be3b387c,Spain,Midwest,13 or older,no,2021-03-25_16h12.37.493,empathy_intonation_perc,2020.2.10,Linux i686,60,,,,,,,,,,1,,,,,,,,,,,,,,,,,,,,,,,,,,,,,,,,,,,,,,,,40,alfombra,,,0,0,1.288,0,56,56,39,1,REAL,FAKE,,,,,,,,,,,,,,,,,,,,,
,,,,,,,5f14e0f456500058ee865863,605b45a4d25f287719a41696,605cee943559b3a5be3b387c,Spain,Midwest,13 or older,no,2021-03-25_16h12.37.493,empathy_intonation_perc,2020.2.10,Linux i686,60,,,,,,,,,,0,,,,,,,,,,,,,,,,,,,,,,,,,,,,,,,,,,,,,,,,63,esposante,,,1,0,1.274,0,57,57,62,1,REAL,FAKE,,,,,,,,,,,,,,,,,,,,,
,,,,,,,5f14e0f456500058ee865863,605b45a4d25f287719a41696,605cee943559b3a5be3b387c,Spain,Midwest,13 or older,no,2021-03-25_16h12.37.493,empathy_intonation_perc,2020.2.10,Linux i686,60,,,,,,,,,,0,,,,,,,,,,,,,,,,,,,,,,,,,,,,,,,,,,,,,,,,30,alardio,,,0,1,1.829,0,58,58,29,1,REAL,FAKE,,,,,,,,,,,,,,,,,,,,,
,,,,,,,5f14e0f456500058ee865863,605b45a4d25f287719a41696,605cee943559b3a5be3b387c,Spain,Midwest,13 or older,no,2021-03-25_16h12.37.493,empathy_intonation_perc,2020.2.10,Linux i686,60,,,,,,,,,,1,,,,,,,,,,,,,,,,,,,,,,,,,,,,,,,,,,,,,,,,85,lad,,,0,0,1.551,0,59,59,84,1,REAL,FAKE,,,,,,,,,,,,,,,,,,,,,
,,,,,,,5f14e0f456500058ee865863,605b45a4d25f287719a41696,605cee943559b3a5be3b387c,Spain,Midwest,13 or older,no,2021-03-25_16h12.37.493,empathy_intonation_perc,2020.2.10,Linux i686,60,,,,,,,,,,1,,,,,,,,,,,,,,,,,,,,,,,,,,,,,,,,,,,,,,,,55,nevar,,,0,0,1.282,0,60,60,54,1,REAL,FAKE,,,,,,,,,,,,,,,,,,,,,
,,,,,,,5f14e0f456500058ee865863,605b45a4d25f287719a41696,605cee943559b3a5be3b387c,Spain,Midwest,13 or older,no,2021-03-25_16h12.37.493,empathy_intonation_perc,2020.2.10,Linux i686,60,,,,,,,,,,1,,,,,,,,,,,,,,,,,,,,,,,,,,,,,,,,,,,,,,,,31,pandilla,,,1,1,0.784,0,61,61,30,1,REAL,FAKE,,,,,,,,,,,,,,,,,,,,,
,,,,,,,5f14e0f456500058ee865863,605b45a4d25f287719a41696,605cee943559b3a5be3b387c,Spain,Midwest,13 or older,no,2021-03-25_16h12.37.493,empathy_intonation_perc,2020.2.10,Linux i686,60,,,,,,,,,,1,,,,,,,,,,,,,,,,,,,,,,,,,,,,,,,,,,,,,,,,37,granuja,,,1,1,1.519,0,62,62,36,1,REAL,FAKE,,,,,,,,,,,,,,,,,,,,,
,,,,,,,5f14e0f456500058ee865863,605b45a4d25f287719a41696,605cee943559b3a5be3b387c,Spain,Midwest,13 or older,no,2021-03-25_16h12.37.493,empathy_intonation_perc,2020.2.10,Linux i686,60,,,,,,,,,,1,,,,,,,,,,,,,,,,,,,,,,,,,,,,,,,,,,,,,,,,48,ladrn,,,1,1,1.335,0,63,63,47,1,REAL,FAKE,,,,,,,,,,,,,,,,,,,,,
,,,,,,,5f14e0f456500058ee865863,605b45a4d25f287719a41696,605cee943559b3a5be3b387c,Spain,Midwest,13 or older,no,2021-03-25_16h12.37.493,empathy_intonation_perc,2020.2.10,Linux i686,60,,,,,,,,,,1,,,,,,,,,,,,,,,,,,,,,,,,,,,,,,,,,,,,,,,,26,secuestro,,,1,1,1.745,0,64,64,25,1,REAL,FAKE,,,,,,,,,,,,,,,,,,,,,
,,,,,,,5f14e0f456500058ee865863,605b45a4d25f287719a41696,605cee943559b3a5be3b387c,Spain,Midwest,13 or older,no,2021-03-25_16h12.37.493,empathy_intonation_perc,2020.2.10,Linux i686,60,,,,,,,,,,1,,,,,,,,,,,,,,,,,,,,,,,,,,,,,,,,,,,,,,,,44,cuchara,,,1,1,2.723,0,65,65,43,1,REAL,FAKE,,,,,,,,,,,,,,,,,,,,,
,,,,,,,5f14e0f456500058ee865863,605b45a4d25f287719a41696,605cee943559b3a5be3b387c,Spain,Midwest,13 or older,no,2021-03-25_16h12.37.493,empathy_intonation_perc,2020.2.10,Linux i686,60,,,,,,,,,,1,,,,,,,,,,,,,,,,,,,,,,,,,,,,,,,,,,,,,,,,78,frondoso,,,0,0,1.416,0,66,66,77,1,REAL,FAKE,,,,,,,,,,,,,,,,,,,,,
,,,,,,,5f14e0f456500058ee865863,605b45a4d25f287719a41696,605cee943559b3a5be3b387c,Spain,Midwest,13 or older,no,2021-03-25_16h12.37.493,empathy_intonation_perc,2020.2.10,Linux i686,60,,,,,,,,,,0,,,,,,,,,,,,,,,,,,,,,,,,,,,,,,,,,,,,,,,,42,cadallo,,,1,0,0.834,0,67,67,41,1,REAL,FAKE,,,,,,,,,,,,,,,,,,,,,
,,,,,,,5f14e0f456500058ee865863,605b45a4d25f287719a41696,605cee943559b3a5be3b387c,Spain,Midwest,13 or older,no,2021-03-25_16h12.37.493,empathy_intonation_perc,2020.2.10,Linux i686,60,,,,,,,,,,1,,,,,,,,,,,,,,,,,,,,,,,,,,,,,,,,,,,,,,,,64,orgulloso,,,0,0,0.937,0,68,68,63,1,REAL,FAKE,,,,,,,,,,,,,,,,,,,,,
,,,,,,,5f14e0f456500058ee865863,605b45a4d25f287719a41696,605cee943559b3a5be3b387c,Spain,Midwest,13 or older,no,2021-03-25_16h12.37.493,empathy_intonation_perc,2020.2.10,Linux i686,60,,,,,,,,,,1,,,,,,,,,,,,,,,,,,,,,,,,,,,,,,,,,,,,,,,,3,pulmones,,,1,1,1.632,0,69,69,2,1,REAL,FAKE,,,,,,,,,,,,,,,,,,,,,
,,,,,,,5f14e0f456500058ee865863,605b45a4d25f287719a41696,605cee943559b3a5be3b387c,Spain,Midwest,13 or older,no,2021-03-25_16h12.37.493,empathy_intonation_perc,2020.2.10,Linux i686,60,,,,,,,,,,0,,,,,,,,,,,,,,,,,,,,,,,,,,,,,,,,,,,,,,,,87,grodo,,,0,1,0.79,0,70,70,86,1,REAL,FAKE,,,,,,,,,,,,,,,,,,,,,
,,,,,,,5f14e0f456500058ee865863,605b45a4d25f287719a41696,605cee943559b3a5be3b387c,Spain,Midwest,13 or older,no,2021-03-25_16h12.37.493,empathy_intonation_perc,2020.2.10,Linux i686,60,,,,,,,,,,0,,,,,,,,,,,,,,,,,,,,,,,,,,,,,,,,,,,,,,,,47,cartinar,,,1,0,2.357,0,71,71,46,1,REAL,FAKE,,,,,,,,,,,,,,,,,,,,,
,,,,,,,5f14e0f456500058ee865863,605b45a4d25f287719a41696,605cee943559b3a5be3b387c,Spain,Midwest,13 or older,no,2021-03-25_16h12.37.493,empathy_intonation_perc,2020.2.10,Linux i686,60,,,,,,,,,,0,,,,,,,,,,,,,,,,,,,,,,,,,,,,,,,,,,,,,,,,4,batilln,,,0,1,1.333,0,72,72,3,1,REAL,FAKE,,,,,,,,,,,,,,,,,,,,,
,,,,,,,5f14e0f456500058ee865863,605b45a4d25f287719a41696,605cee943559b3a5be3b387c,Spain,Midwest,13 or older,no,2021-03-25_16h12.37.493,empathy_intonation_perc,2020.2.10,Linux i686,60,,,,,,,,,,1,,,,,,,,,,,,,,,,,,,,,,,,,,,,,,,,,,,,,,,,68,alegre,,,1,1,0.934,0,73,73,67,1,REAL,FAKE,,,,,,,,,,,,,,,,,,,,,
,,,,,,,5f14e0f456500058ee865863,605b45a4d25f287719a41696,605cee943559b3a5be3b387c,Spain,Midwest,13 or older,no,2021-03-25_16h12.37.493,empathy_intonation_perc,2020.2.10,Linux i686,60,,,,,,,,,,1,,,,,,,,,,,,,,,,,,,,,,,,,,,,,,,,,,,,,,,,41,rebuscar,,,0,0,0.908,0,74,74,40,1,REAL,FAKE,,,,,,,,,,,,,,,,,,,,,
,,,,,,,5f14e0f456500058ee865863,605b45a4d25f287719a41696,605cee943559b3a5be3b387c,Spain,Midwest,13 or older,no,2021-03-25_16h12.37.493,empathy_intonation_perc,2020.2.10,Linux i686,60,,,,,,,,,,1,,,,,,,,,,,,,,,,,,,,,,,,,,,,,,,,,,,,,,,,61,seda,,,0,0,0.93,0,75,75,60,1,REAL,FAKE,,,,,,,,,,,,,,,,,,,,,
,,,,,,,5f14e0f456500058ee865863,605b45a4d25f287719a41696,605cee943559b3a5be3b387c,Spain,Midwest,13 or older,no,2021-03-25_16h12.37.493,empathy_intonation_perc,2020.2.10,Linux i686,60,,,,,,,,,,1,,,,,,,,,,,,,,,,,,,,,,,,,,,,,,,,,,,,,,,,88,acantilado,,,0,0,1.638,0,76,76,87,1,REAL,FAKE,,,,,,,,,,,,,,,,,,,,,
,,,,,,,5f14e0f456500058ee865863,605b45a4d25f287719a41696,605cee943559b3a5be3b387c,Spain,Midwest,13 or older,no,2021-03-25_16h12.37.493,empathy_intonation_perc,2020.2.10,Linux i686,60,,,,,,,,,,0,,,,,,,,,,,,,,,,,,,,,,,,,,,,,,,,,,,,,,,,16,abracer,,,0,1,0.874,0,77,77,15,1,REAL,FAKE,,,,,,,,,,,,,,,,,,,,,
,,,,,,,5f14e0f456500058ee865863,605b45a4d25f287719a41696,605cee943559b3a5be3b387c,Spain,Midwest,13 or older,no,2021-03-25_16h12.37.493,empathy_intonation_perc,2020.2.10,Linux i686,60,,,,,,,,,,1,,,,,,,,,,,,,,,,,,,,,,,,,,,,,,,,,,,,,,,,59,besar,,,1,1,1.422,0,78,78,58,1,REAL,FAKE,,,,,,,,,,,,,,,,,,,,,
,,,,,,,5f14e0f456500058ee865863,605b45a4d25f287719a41696,605cee943559b3a5be3b387c,Spain,Midwest,13 or older,no,2021-03-25_16h12.37.493,empathy_intonation_perc,2020.2.10,Linux i686,60,,,,,,,,,,0,,,,,,,,,,,,,,,,,,,,,,,,,,,,,,,,,,,,,,,,35,rompido,,,0,1,2.898,0,79,79,34,1,REAL,FAKE,,,,,,,,,,,,,,,,,,,,,
,,,,,,,5f14e0f456500058ee865863,605b45a4d25f287719a41696,605cee943559b3a5be3b387c,Spain,Midwest,13 or older,no,2021-03-25_16h12.37.493,empathy_intonation_perc,2020.2.10,Linux i686,60,,,,,,,,,,1,,,,,,,,,,,,,,,,,,,,,,,,,,,,,,,,,,,,,,,,71,polvoriento,,,0,0,1.274,0,80,80,70,1,REAL,FAKE,,,,,,,,,,,,,,,,,,,,,
,,,,,,,5f14e0f456500058ee865863,605b45a4d25f287719a41696,605cee943559b3a5be3b387c,Spain,Midwest,13 or older,no,2021-03-25_16h12.37.493,empathy_intonation_perc,2020.2.10,Linux i686,60,,,,,,,,,,1,,,,,,,,,,,,,,,,,,,,,,,,,,,,,,,,,,,,,,,,22,lacayo,,,1,1,2.811,0,81,81,21,1,REAL,FAKE,,,,,,,,,,,,,,,,,,,,,
,,,,,,,5f14e0f456500058ee865863,605b45a4d25f287719a41696,605cee943559b3a5be3b387c,Spain,Midwest,13 or older,no,2021-03-25_16h12.37.493,empathy_intonation_perc,2020.2.10,Linux i686,60,,,,,,,,,,1,,,,,,,,,,,,,,,,,,,,,,,,,,,,,,,,,,,,,,,,86,barato,,,1,1,1.154,0,82,82,85,1,REAL,FAKE,,,,,,,,,,,,,,,,,,,,,
,,,,,,,5f14e0f456500058ee865863,605b45a4d25f287719a41696,605cee943559b3a5be3b387c,Spain,Midwest,13 or older,no,2021-03-25_16h12.37.493,empathy_intonation_perc,2020.2.10,Linux i686,60,,,,,,,,,,1,,,,,,,,,,,,,,,,,,,,,,,,,,,,,,,,,,,,,,,,34,aviso,,,1,1,0.838,0,83,83,33,1,REAL,FAKE,,,,,,,,,,,,,,,,,,,,,
,,,,,,,5f14e0f456500058ee865863,605b45a4d25f287719a41696,605cee943559b3a5be3b387c,Spain,Midwest,13 or older,no,2021-03-25_16h12.37.493,empathy_intonation_perc,2020.2.10,Linux i686,60,,,,,,,,,,0,,,,,,,,,,,,,,,,,,,,,,,,,,,,,,,,,,,,,,,,27,acutacin,,,1,0,1.684,0,84,84,26,1,REAL,FAKE,,,,,,,,,,,,,,,,,,,,,
,,,,,,,5f14e0f456500058ee865863,605b45a4d25f287719a41696,605cee943559b3a5be3b387c,Spain,Midwest,13 or older,no,2021-03-25_16h12.37.493,empathy_intonation_perc,2020.2.10,Linux i686,60,,,,,,,,,,1,,,,,,,,,,,,,,,,,,,,,,,,,,,,,,,,,,,,,,,,57,tacao,,,1,1,1.195,0,85,85,56,1,REAL,FAKE,,,,,,,,,,,,,,,,,,,,,
,,,,,,,5f14e0f456500058ee865863,605b45a4d25f287719a41696,605cee943559b3a5be3b387c,Spain,Midwest,13 or older,no,2021-03-25_16h12.37.493,empathy_intonation_perc,2020.2.10,Linux i686,60,,,,,,,,,,1,,,,,,,,,,,,,,,,,,,,,,,,,,,,,,,,,,,,,,,,14,yunque,,,0,0,1.219,0,86,86,13,1,REAL,FAKE,,,,,,,,,,,,,,,,,,,,,
,,,,,,,5f14e0f456500058ee865863,605b45a4d25f287719a41696,605cee943559b3a5be3b387c,Spain,Midwest,13 or older,no,2021-03-25_16h12.37.493,empathy_intonation_perc,2020.2.10,Linux i686,60,,,,,,,,,,1,,,,,,,,,,,,,,,,,,,,,,,,,,,,,,,,,,,,,,,,43,canela,,,1,1,0.984,0,87,87,42,1,REAL,FAKE,,,,,,,,,,,,,,,,,,,,,
,,,,,,,5f14e0f456500058ee865863,605b45a4d25f287719a41696,605cee943559b3a5be3b387c,Spain,Midwest,13 or older,no,2021-03-25_16h12.37.493,empathy_intonation_perc,2020.2.10,Linux i686,60,,,,,,,,,,1,,,,,,,,,,,,,,,,,,,,,,,,,,,,,,,,,,,,,,,,13,helar,,,1,1,1.569,0,88,88,12,1,REAL,FAKE,,,,,,,,,,,,,,,,,,,,,
,,,,,,,5f14e0f456500058ee865863,605b45a4d25f287719a41696,605cee943559b3a5be3b387c,Spain,Midwest,13 or older,no,2021-03-25_16h12.37.493,empathy_intonation_perc,2020.2.10,Linux i686,60,,,,,,,,,,1,,,,,,,,,,,,,,,,,,,,,,,,,,,,,,,,,,,,,,,,67,cabello,,,1,1,0.824,0,89,89,66,1,REAL,FAKE,,,,,,,,,,,,,,,,,,,,,
,,,,,,,5f14e0f456500058ee865863,605b45a4d25f287719a41696,605cee943559b3a5be3b387c,Spain,Midwest,13 or older,no,2021-03-25_16h12.37.493,empathy_intonation_perc,2020.2.10,Linux i686,60,,,,,,,,,,,,,,,,,,,,,,,,,,,,,,,,,,,,,,,,,,,,,,,,,,,,,,,,,,,,,,,,4,1,1.93,1,0,0,0,0,0,1,,,,,,,,,,,
,,,,,,,5f14e0f456500058ee865863,605b45a4d25f287719a41696,605cee943559b3a5be3b387c,Spain,Midwest,13 or older,no,2021-03-25_16h12.37.493,empathy_intonation_perc,2020.2.10,Linux i686,60,,,,,,,,,,,,,,,,,,,,1,,,,,,,,,,,,,,,,,,,,,,,,,,,,,,,,,,,,,,,,,,,,,,,,,,,,,,4,0,0,0,0,1,I can easily tell if someone else wants to enter a conversation.,1,0,1,0
,,,,,,,5f14e0f456500058ee865863,605b45a4d25f287719a41696,605cee943559b3a5be3b387c,Spain,Midwest,13 or older,no,2021-03-25_16h12.37.493,empathy_intonation_perc,2020.2.10,Linux i686,60,,,,,,,,,,,,,,,,,,,,2,,,,,,,,,,,,,,,,,,,,,,,,,,,,,,,,,,,,,,,,,,,,,,,,,,,,,,2,0,1,1,1,1,I prefer animals to humans.,0,1,0,0
,,,,,,,5f14e0f456500058ee865863,605b45a4d25f287719a41696,605cee943559b3a5be3b387c,Spain,Midwest,13 or older,no,2021-03-25_16h12.37.493,empathy_intonation_perc,2020.2.10,Linux i686,60,,,,,,,,,,,,,,,,,,,,3,,,,,,,,,,,,,,,,,,,,,,,,,,,,,,,,,,,,,,,,,,,,,,,,,,,,,,4,0,2,2,2,1,I try to keep up with the current trends and fashions.,0,1,0,0
,,,,,,,5f14e0f456500058ee865863,605b45a4d25f287719a41696,605cee943559b3a5be3b387c,Spain,Midwest,13 or older,no,2021-03-25_16h12.37.493,empathy_intonation_perc,2020.2.10,Linux i686,60,,,,,,,,,,,,,,,,,,,,4,,,,,,,,,,,,,,,,,,,,,,,,,,,,,,,,,,,,,,,,,,,,,,,,,,,,,,2,0,3,3,3,1,"I find it difficult to explain to others things that I understand easily, 
  when they dont understand it first time.",1,0,0,1
,,,,,,,5f14e0f456500058ee865863,605b45a4d25f287719a41696,605cee943559b3a5be3b387c,Spain,Midwest,13 or older,no,2021-03-25_16h12.37.493,empathy_intonation_perc,2020.2.10,Linux i686,60,,,,,,,,,,,,,,,,,,,,5,,,,,,,,,,,,,,,,,,,,,,,,,,,,,,,,,,,,,,,,,,,,,,,,,,,,,,4,0,4,4,4,1,I dream most nights.,0,1,0,0
,,,,,,,5f14e0f456500058ee865863,605b45a4d25f287719a41696,605cee943559b3a5be3b387c,Spain,Midwest,13 or older,no,2021-03-25_16h12.37.493,empathy_intonation_perc,2020.2.10,Linux i686,60,,,,,,,,,,,,,,,,,,,,6,,,,,,,,,,,,,,,,,,,,,,,,,,,,,,,,,,,,,,,,,,,,,,,,,,,,,,2,0,5,5,5,1,I really enjoy caring for other people.,1,0,1,0
,,,,,,,5f14e0f456500058ee865863,605b45a4d25f287719a41696,605cee943559b3a5be3b387c,Spain,Midwest,13 or older,no,2021-03-25_16h12.37.493,empathy_intonation_perc,2020.2.10,Linux i686,60,,,,,,,,,,,,,,,,,,,,7,,,,,,,,,,,,,,,,,,,,,,,,,,,,,,,,,,,,,,,,,,,,,,,,,,,,,,1,0,6,6,6,1,I try to solve my own problems rather than discussing them with others.,0,1,0,0
,,,,,,,5f14e0f456500058ee865863,605b45a4d25f287719a41696,605cee943559b3a5be3b387c,Spain,Midwest,13 or older,no,2021-03-25_16h12.37.493,empathy_intonation_perc,2020.2.10,Linux i686,60,,,,,,,,,,,,,,,,,,,,8,,,,,,,,,,,,,,,,,,,,,,,,,,,,,,,,,,,,,,,,,,,,,,,,,,,,,,2,0,7,7,7,1,I find it hard to know what to do in a social situation.,1,0,0,1
