instructions_2afc_loop.thisRepN,instructions_2afc_loop.thisTrialN,instructions_2afc_loop.thisN,instructions_2afc_loop.thisIndex,instructions_2afc_loop.ran,instructions_text,continue_text,participant,study_id,session,I am most familiar with Spanish from...*,What part of the US are you from?*,At what age did you begin learning Spanish?*,Are you proficient in any languages other than English/Spanish?*,date,expName,psychopyVersion,OS,frameRate,key_resp_2afc_practice.keys,key_resp_2afc_practice.corr,key_resp_2afc_practice.rt,trials_2afc_practice_loop.thisRepN,trials_2afc_practice_loop.thisTrialN,trials_2afc_practice_loop.thisN,trials_2afc_practice_loop.thisIndex,trials_2afc_practice_loop.ran,path,correct_response,the_col,key_resp_2afc_trial.keys,key_resp_2afc_trial.corr,key_resp_2afc_trial.rt,trials_2afc_loop.thisRepN,trials_2afc_loop.thisTrialN,trials_2afc_loop.thisN,trials_2afc_loop.thisIndex,trials_2afc_loop.ran,item_num,andalusian,argentine,castilian,chilean,cuban,mexican,peruvian,puertorican,key_resp_ac1.keys,key_resp_ac1.corr,key_resp_ac1.rt,ac1_loop.thisRepN,ac1_loop.thisTrialN,ac1_loop.thisN,ac1_loop.thisIndex,ac1_loop.ran,instructions_lextale_loop.thisRepN,instructions_lextale_loop.thisTrialN,instructions_lextale_loop.thisN,instructions_lextale_loop.thisIndex,instructions_lextale_loop.ran,key_resp_lextale_practice.keys,key_resp_lextale_practice.corr,key_resp_lextale_practice.rt,trials_lextale_practice_loop.thisRepN,trials_lextale_practice_loop.thisTrialN,trials_lextale_practice_loop.thisN,trials_lextale_practice_loop.thisIndex,trials_lextale_practice_loop.ran,stim,word,prac_button_real,prac_button_false,key_resp_lextale_trial.keys,key_resp_lextale_trial.corr,key_resp_lextale_trial.rt,trials_lextale_loop.thisRepN,trials_lextale_loop.thisTrialN,trials_lextale_loop.thisN,trials_lextale_loop.thisIndex,trials_lextale_loop.ran,button_real,button_false,key_resp_ac2.keys,key_resp_ac2.corr,key_resp_ac2.rt,check_pass,check_fails,ac2_loop.thisRepN,ac2_loop.thisTrialN,ac2_loop.thisN,ac2_loop.thisIndex,ac2_loop.ran,slider_eq_trial.response,trials_eq_loop.thisRepN,trials_eq_loop.thisTrialN,trials_eq_loop.thisN,trials_eq_loop.thisIndex,trials_eq_loop.ran,item,is_test_item,is_distractor,is_agree_score,is_disagree_score
0,0,0,0,1,"In the following task you are going to hear a series of utterances. 

  You will decide if the utterances sound like questions or not using your keyboard.",(press the spacebar to continue),5f23ff398626c51fdd6c3fb5,6057c54e64b0b4e5c128b4f9,6057fde7c5590f6a1b90c946,United States,Northeast,13 or older,no,2021-03-21_22h23.45.856,empathy_intonation_perc,2020.2.10,Win32,60,,,,,,,,,,,,,,,,,,,,,,,,,,,,,,,,,,,,,,,,,,,,,,,,,,,,,,,,,,,,,,,,,,,,,,,,,,,,,,,,,,,,
0,1,1,1,1,"If you believe the utterance is a question, type '1' (for 'yes') and if you do not 
  believe it is a question type '0' (for 'no').

  Let's practice a bit...",(press the spacebar to continue),5f23ff398626c51fdd6c3fb5,6057c54e64b0b4e5c128b4f9,6057fde7c5590f6a1b90c946,United States,Northeast,13 or older,no,2021-03-21_22h23.45.856,empathy_intonation_perc,2020.2.10,Win32,60,,,,,,,,,,,,,,,,,,,,,,,,,,,,,,,,,,,,,,,,,,,,,,,,,,,,,,,,,,,,,,,,,,,,,,,,,,,,,,,,,,,,
,,,,,,,5f23ff398626c51fdd6c3fb5,6057c54e64b0b4e5c128b4f9,6057fde7c5590f6a1b90c946,United States,Northeast,13 or older,no,2021-03-21_22h23.45.856,empathy_intonation_perc,2020.2.10,Win32,60,1,0,11.49243,0,0,0,5,1,./stim/wavs/andalusian_statement_filler_Alberto-nunca-se-afeita.wav,0,,,,,,,,,,,,,,,,,,,,,,,,,,,,,,,,,,,,,,,,,,,,,,,,,,,,,,,,,,,,,,,,,,,,,,,,,,
,,,,,,,5f23ff398626c51fdd6c3fb5,6057c54e64b0b4e5c128b4f9,6057fde7c5590f6a1b90c946,United States,Northeast,13 or older,no,2021-03-21_22h23.45.856,empathy_intonation_perc,2020.2.10,Win32,60,0,0,5.011625,0,1,1,0,1,./stim/wavs/castilian_question_filler_Mi-esposo-conoce-al-chico.wav,1,,,,,,,,,,,,,,,,,,,,,,,,,,,,,,,,,,,,,,,,,,,,,,,,,,,,,,,,,,,,,,,,,,,,,,,,,,
,,,,,,,5f23ff398626c51fdd6c3fb5,6057c54e64b0b4e5c128b4f9,6057fde7c5590f6a1b90c946,United States,Northeast,13 or older,no,2021-03-21_22h23.45.856,empathy_intonation_perc,2020.2.10,Win32,60,0,0,1.74829,0,2,2,2,1,./stim/wavs/chilean_question_filler_Mi-padre-cantaba-bien.wav,1,,,,,,,,,,,,,,,,,,,,,,,,,,,,,,,,,,,,,,,,,,,,,,,,,,,,,,,,,,,,,,,,,,,,,,,,,,
,,,,,,,5f23ff398626c51fdd6c3fb5,6057c54e64b0b4e5c128b4f9,6057fde7c5590f6a1b90c946,United States,Northeast,13 or older,no,2021-03-21_22h23.45.856,empathy_intonation_perc,2020.2.10,Win32,60,0,0,2.47417,0,3,3,1,1,./stim/wavs/argentine_question_filler_Mi-vecino-habla-mucho.wav,1,,,,,,,,,,,,,,,,,,,,,,,,,,,,,,,,,,,,,,,,,,,,,,,,,,,,,,,,,,,,,,,,,,,,,,,,,,
,,,,,,,5f23ff398626c51fdd6c3fb5,6057c54e64b0b4e5c128b4f9,6057fde7c5590f6a1b90c946,United States,Northeast,13 or older,no,2021-03-21_22h23.45.856,empathy_intonation_perc,2020.2.10,Win32,60,1,0,2.861445,0,4,4,7,1,./stim/wavs/puertorican_statement_filler_La-nina-pinta-con-su-amiga.wav,0,,,,,,,,,,,,,,,,,,,,,,,,,,,,,,,,,,,,,,,,,,,,,,,,,,,,,,,,,,,,,,,,,,,,,,,,,,
,,,,,,,5f23ff398626c51fdd6c3fb5,6057c54e64b0b4e5c128b4f9,6057fde7c5590f6a1b90c946,United States,Northeast,13 or older,no,2021-03-21_22h23.45.856,empathy_intonation_perc,2020.2.10,Win32,60,0,1,2.30862,0,5,5,4,1,./stim/wavs/cuban_statement_filler_Cocinabas-por-la-noche.wav,0,,,,,,,,,,,,,,,,,,,,,,,,,,,,,,,,,,,,,,,,,,,,,,,,,,,,,,,,,,,,,,,,,,,,,,,,,,
,,,,,,,5f23ff398626c51fdd6c3fb5,6057c54e64b0b4e5c128b4f9,6057fde7c5590f6a1b90c946,United States,Northeast,13 or older,no,2021-03-21_22h23.45.856,empathy_intonation_perc,2020.2.10,Win32,60,0,0,2.69643,0,6,6,3,1,./stim/wavs/mexican_question_filler_Felipe-no-tiene-contrasena.wav,1,,,,,,,,,,,,,,,,,,,,,,,,,,,,,,,,,,,,,,,,,,,,,,,,,,,,,,,,,,,,,,,,,,,,,,,,,,
,,,,,,,5f23ff398626c51fdd6c3fb5,6057c54e64b0b4e5c128b4f9,6057fde7c5590f6a1b90c946,United States,Northeast,13 or older,no,2021-03-21_22h23.45.856,empathy_intonation_perc,2020.2.10,Win32,60,0,1,3.30622,0,7,7,6,1,./stim/wavs/peruvian_statement_filler_El-nino-habla-con-su-madre.wav,0,,,,,,,,,,,,,,,,,,,,,,,,,,,,,,,,,,,,,,,,,,,,,,,,,,,,,,,,,,,,,,,,,,,,,,,,,,
,,,,,,,5f23ff398626c51fdd6c3fb5,6057c54e64b0b4e5c128b4f9,6057fde7c5590f6a1b90c946,United States,Northeast,13 or older,no,2021-03-21_22h23.45.856,empathy_intonation_perc,2020.2.10,Win32,60,,,,,,,,,,0,chilean,0,1,1.85832,0,0,0,44,1,45,./stim/wavs/andalusian_mismatch_declarative-narrow-focus_La-nina-lava-el-plato.wav,./stim/wavs/argentine_mismatch_declarative-narrow-focus_La-nina-lava-el-plato.wav,./stim/wavs/castilian_mismatch_declarative-narrow-focus_La-nina-lava-el-plato.wav,./stim/wavs/chilean_mismatch_declarative-narrow-focus_La-nina-lava-el-plato.wav,./stim/wavs/cuban_mismatch_declarative-narrow-focus_La-nina-lava-el-plato.wav,./stim/wavs/mexican_mismatch_declarative-narrow-focus_La-nina-lava-el-plato.wav,./stim/wavs/peruvian_mismatch_declarative-narrow-focus_La-nina-lava-el-plato.wav,./stim/wavs/puertorican_mismatch_declarative-narrow-focus_La-nina-lava-el-plato.wav,,,,,,,,,,,,,,,,,,,,,,,,,,,,,,,,,,,,,,,,,,,,,,,,,,,,,,,,
,,,,,,,5f23ff398626c51fdd6c3fb5,6057c54e64b0b4e5c128b4f9,6057fde7c5590f6a1b90c946,United States,Northeast,13 or older,no,2021-03-21_22h23.45.856,empathy_intonation_perc,2020.2.10,Win32,60,,,,,,,,,,1,mexican,1,1,1.374625,0,1,1,49,1,50,./stim/wavs/andalusian_mismatch_interrogative-partial-wh_Cuando-lavaba-el-plato.wav,./stim/wavs/argentine_mismatch_interrogative-partial-wh_Cuando-lavaba-el-plato.wav,./stim/wavs/castilian_mismatch_interrogative-partial-wh_Cuando-lavaba-el-plato.wav,./stim/wavs/chilean_mismatch_interrogative-partial-wh_Cuando-lavaba-el-plato.wav,./stim/wavs/cuban_mismatch_interrogative-partial-wh_Cuando-lavaba-el-plato.wav,./stim/wavs/mexican_mismatch_interrogative-partial-wh_Cuando-lavaba-el-plato.wav,./stim/wavs/peruvian_mismatch_interrogative-partial-wh_Cuando-lavaba-el-plato.wav,./stim/wavs/puertorican_mismatch_interrogative-partial-wh_Cuando-lavaba-el-plato.wav,,,,,,,,,,,,,,,,,,,,,,,,,,,,,,,,,,,,,,,,,,,,,,,,,,,,,,,,
,,,,,,,5f23ff398626c51fdd6c3fb5,6057c54e64b0b4e5c128b4f9,6057fde7c5590f6a1b90c946,United States,Northeast,13 or older,no,2021-03-21_22h23.45.856,empathy_intonation_perc,2020.2.10,Win32,60,,,,,,,,,,0,andalusian,0,1,1.85344,0,2,2,11,1,12,./stim/wavs/andalusian_match_declarative-narrow-focus_Emilio-ama-la-marcha.wav,./stim/wavs/argentine_match_declarative-narrow-focus_Emilio-ama-la-marcha.wav,./stim/wavs/castilian_match_declarative-narrow-focus_Emilio-ama-la-marcha.wav,./stim/wavs/chilean_match_declarative-narrow-focus_Emilio-ama-la-marcha.wav,./stim/wavs/cuban_match_declarative-narrow-focus_Emilio-ama-la-marcha.wav,./stim/wavs/mexican_match_declarative-narrow-focus_Emilio-ama-la-marcha.wav,./stim/wavs/peruvian_match_declarative-narrow-focus_Emilio-ama-la-marcha.wav,./stim/wavs/puertorican_match_declarative-narrow-focus_Emilio-ama-la-marcha.wav,,,,,,,,,,,,,,,,,,,,,,,,,,,,,,,,,,,,,,,,,,,,,,,,,,,,,,,,
,,,,,,,5f23ff398626c51fdd6c3fb5,6057c54e64b0b4e5c128b4f9,6057fde7c5590f6a1b90c946,United States,Northeast,13 or older,no,2021-03-21_22h23.45.856,empathy_intonation_perc,2020.2.10,Win32,60,,,,,,,,,,0,mexican,0,1,2.010445,0,3,3,33,1,34,./stim/wavs/andalusian_mismatch_declarative-broad-focus_El-hombre-mira-la-luna.wav,./stim/wavs/argentine_mismatch_declarative-broad-focus_El-hombre-mira-la-luna.wav,./stim/wavs/castilian_mismatch_declarative-broad-focus_El-hombre-mira-la-luna.wav,./stim/wavs/chilean_mismatch_declarative-broad-focus_El-hombre-mira-la-luna.wav,./stim/wavs/cuban_mismatch_declarative-broad-focus_El-hombre-mira-la-luna.wav,./stim/wavs/mexican_mismatch_declarative-broad-focus_El-hombre-mira-la-luna.wav,./stim/wavs/peruvian_mismatch_declarative-broad-focus_El-hombre-mira-la-luna.wav,./stim/wavs/puertorican_mismatch_declarative-broad-focus_El-hombre-mira-la-luna.wav,,,,,,,,,,,,,,,,,,,,,,,,,,,,,,,,,,,,,,,,,,,,,,,,,,,,,,,,
,,,,,,,5f23ff398626c51fdd6c3fb5,6057c54e64b0b4e5c128b4f9,6057fde7c5590f6a1b90c946,United States,Northeast,13 or older,no,2021-03-21_22h23.45.856,empathy_intonation_perc,2020.2.10,Win32,60,,,,,,,,,,0,cuban,0,1,2.266625,0,4,4,1,1,2,./stim/wavs/andalusian_match_declarative-broad-focus_Daniel-iba-a-Bolivia.wav,./stim/wavs/argentine_match_declarative-broad-focus_Daniel-iba-a-Bolivia.wav,./stim/wavs/castilian_match_declarative-broad-focus_Daniel-iba-a-Bolivia.wav,./stim/wavs/chilean_match_declarative-broad-focus_Daniel-iba-a-Bolivia.wav,./stim/wavs/cuban_match_declarative-broad-focus_Daniel-iba-a-Bolivia.wav,./stim/wavs/mexican_match_declarative-broad-focus_Daniel-iba-a-Bolivia.wav,./stim/wavs/peruvian_match_declarative-broad-focus_Daniel-iba-a-Bolivia.wav,./stim/wavs/puertorican_match_declarative-broad-focus_Daniel-iba-a-Bolivia.wav,,,,,,,,,,,,,,,,,,,,,,,,,,,,,,,,,,,,,,,,,,,,,,,,,,,,,,,,
,,,,,,,5f23ff398626c51fdd6c3fb5,6057c54e64b0b4e5c128b4f9,6057fde7c5590f6a1b90c946,United States,Northeast,13 or older,no,2021-03-21_22h23.45.856,empathy_intonation_perc,2020.2.10,Win32,60,,,,,,,,,,1,puertorican,0,0,2.781585,0,5,5,52,1,53,./stim/wavs/andalusian_mismatch_interrogative-partial-wh_Por-que-odiaba-la-lluvia.wav,./stim/wavs/argentine_mismatch_interrogative-partial-wh_Por-que-odiaba-la-lluvia.wav,./stim/wavs/castilian_mismatch_interrogative-partial-wh_Por-que-odiaba-la-lluvia.wav,./stim/wavs/chilean_mismatch_interrogative-partial-wh_Por-que-odiaba-la-lluvia.wav,./stim/wavs/cuban_mismatch_interrogative-partial-wh_Por-que-odiaba-la-lluvia.wav,./stim/wavs/mexican_mismatch_interrogative-partial-wh_Por-que-odiaba-la-lluvia.wav,./stim/wavs/peruvian_mismatch_interrogative-partial-wh_Por-que-odiaba-la-lluvia.wav,./stim/wavs/puertorican_mismatch_interrogative-partial-wh_Por-que-odiaba-la-lluvia.wav,,,,,,,,,,,,,,,,,,,,,,,,,,,,,,,,,,,,,,,,,,,,,,,,,,,,,,,,
,,,,,,,5f23ff398626c51fdd6c3fb5,6057c54e64b0b4e5c128b4f9,6057fde7c5590f6a1b90c946,United States,Northeast,13 or older,no,2021-03-21_22h23.45.856,empathy_intonation_perc,2020.2.10,Win32,60,,,,,,,,,,1,castilian,1,1,1.204545,0,6,6,48,1,49,./stim/wavs/andalusian_mismatch_interrogative-partial-wh_Cuando-comia-la-fruta.wav,./stim/wavs/argentine_mismatch_interrogative-partial-wh_Cuando-comia-la-fruta.wav,./stim/wavs/castilian_mismatch_interrogative-partial-wh_Cuando-comia-la-fruta.wav,./stim/wavs/chilean_mismatch_interrogative-partial-wh_Cuando-comia-la-fruta.wav,./stim/wavs/cuban_mismatch_interrogative-partial-wh_Cuando-comia-la-fruta.wav,./stim/wavs/mexican_mismatch_interrogative-partial-wh_Cuando-comia-la-fruta.wav,./stim/wavs/peruvian_mismatch_interrogative-partial-wh_Cuando-comia-la-fruta.wav,./stim/wavs/puertorican_mismatch_interrogative-partial-wh_Cuando-comia-la-fruta.wav,,,,,,,,,,,,,,,,,,,,,,,,,,,,,,,,,,,,,,,,,,,,,,,,,,,,,,,,
,,,,,,,5f23ff398626c51fdd6c3fb5,6057c54e64b0b4e5c128b4f9,6057fde7c5590f6a1b90c946,United States,Northeast,13 or older,no,2021-03-21_22h23.45.856,empathy_intonation_perc,2020.2.10,Win32,60,,,,,,,,,,1,peruvian,1,1,3.60666,0,7,7,31,1,32,./stim/wavs/andalusian_match_interrogative-total-yn_Marta-abre-el-regalo.wav,./stim/wavs/argentine_match_interrogative-total-yn_Marta-abre-el-regalo.wav,./stim/wavs/castilian_match_interrogative-total-yn_Marta-abre-el-regalo.wav,./stim/wavs/chilean_match_interrogative-total-yn_Marta-abre-el-regalo.wav,./stim/wavs/cuban_match_interrogative-total-yn_Marta-abre-el-regalo.wav,./stim/wavs/mexican_match_interrogative-total-yn_Marta-abre-el-regalo.wav,./stim/wavs/peruvian_match_interrogative-total-yn_Marta-abre-el-regalo.wav,./stim/wavs/puertorican_match_interrogative-total-yn_Marta-abre-el-regalo.wav,,,,,,,,,,,,,,,,,,,,,,,,,,,,,,,,,,,,,,,,,,,,,,,,,,,,,,,,
,,,,,,,5f23ff398626c51fdd6c3fb5,6057c54e64b0b4e5c128b4f9,6057fde7c5590f6a1b90c946,United States,Northeast,13 or older,no,2021-03-21_22h23.45.856,empathy_intonation_perc,2020.2.10,Win32,60,,,,,,,,,,0,castilian,0,1,2.49058,0,8,8,15,1,16,./stim/wavs/andalusian_match_declarative-narrow-focus_Marta-abre-el-regalo.wav,./stim/wavs/argentine_match_declarative-narrow-focus_Marta-abre-el-regalo.wav,./stim/wavs/castilian_match_declarative-narrow-focus_Marta-abre-el-regalo.wav,./stim/wavs/chilean_match_declarative-narrow-focus_Marta-abre-el-regalo.wav,./stim/wavs/cuban_match_declarative-narrow-focus_Marta-abre-el-regalo.wav,./stim/wavs/mexican_match_declarative-narrow-focus_Marta-abre-el-regalo.wav,./stim/wavs/peruvian_match_declarative-narrow-focus_Marta-abre-el-regalo.wav,./stim/wavs/puertorican_match_declarative-narrow-focus_Marta-abre-el-regalo.wav,,,,,,,,,,,,,,,,,,,,,,,,,,,,,,,,,,,,,,,,,,,,,,,,,,,,,,,,
,,,,,,,5f23ff398626c51fdd6c3fb5,6057c54e64b0b4e5c128b4f9,6057fde7c5590f6a1b90c946,United States,Northeast,13 or older,no,2021-03-21_22h23.45.856,empathy_intonation_perc,2020.2.10,Win32,60,,,,,,,,,,0,chilean,0,1,2.659005,0,9,9,14,1,15,./stim/wavs/andalusian_match_declarative-narrow-focus_Mariano-habla-del-tiempo.wav,./stim/wavs/argentine_match_declarative-narrow-focus_Mariano-habla-del-tiempo.wav,./stim/wavs/castilian_match_declarative-narrow-focus_Mariano-habla-del-tiempo.wav,./stim/wavs/chilean_match_declarative-narrow-focus_Mariano-habla-del-tiempo.wav,./stim/wavs/cuban_match_declarative-narrow-focus_Mariano-habla-del-tiempo.wav,./stim/wavs/mexican_match_declarative-narrow-focus_Mariano-habla-del-tiempo.wav,./stim/wavs/peruvian_match_declarative-narrow-focus_Mariano-habla-del-tiempo.wav,./stim/wavs/puertorican_match_declarative-narrow-focus_Mariano-habla-del-tiempo.wav,,,,,,,,,,,,,,,,,,,,,,,,,,,,,,,,,,,,,,,,,,,,,,,,,,,,,,,,
,,,,,,,5f23ff398626c51fdd6c3fb5,6057c54e64b0b4e5c128b4f9,6057fde7c5590f6a1b90c946,United States,Northeast,13 or older,no,2021-03-21_22h23.45.856,empathy_intonation_perc,2020.2.10,Win32,60,,,,,,,,,,0,puertorican,0,1,1.954975,0,10,10,47,1,48,./stim/wavs/andalusian_mismatch_declarative-narrow-focus_Mi-tia-odia-la-lluvia.wav,./stim/wavs/argentine_mismatch_declarative-narrow-focus_Mi-tia-odia-la-lluvia.wav,./stim/wavs/castilian_mismatch_declarative-narrow-focus_Mi-tia-odia-la-lluvia.wav,./stim/wavs/chilean_mismatch_declarative-narrow-focus_Mi-tia-odia-la-lluvia.wav,./stim/wavs/cuban_mismatch_declarative-narrow-focus_Mi-tia-odia-la-lluvia.wav,./stim/wavs/mexican_mismatch_declarative-narrow-focus_Mi-tia-odia-la-lluvia.wav,./stim/wavs/peruvian_mismatch_declarative-narrow-focus_Mi-tia-odia-la-lluvia.wav,./stim/wavs/puertorican_mismatch_declarative-narrow-focus_Mi-tia-odia-la-lluvia.wav,,,,,,,,,,,,,,,,,,,,,,,,,,,,,,,,,,,,,,,,,,,,,,,,,,,,,,,,
,,,,,,,5f23ff398626c51fdd6c3fb5,6057c54e64b0b4e5c128b4f9,6057fde7c5590f6a1b90c946,United States,Northeast,13 or older,no,2021-03-21_22h23.45.856,empathy_intonation_perc,2020.2.10,Win32,60,,,,,,,,,,0,argentine,0,1,2.580375,0,11,11,36,1,37,./stim/wavs/andalusian_mismatch_declarative-broad-focus_La-nina-lava-el-plato.wav,./stim/wavs/argentine_mismatch_declarative-broad-focus_La-nina-lava-el-plato.wav,./stim/wavs/castilian_mismatch_declarative-broad-focus_La-nina-lava-el-plato.wav,./stim/wavs/chilean_mismatch_declarative-broad-focus_La-nina-lava-el-plato.wav,./stim/wavs/cuban_mismatch_declarative-broad-focus_La-nina-lava-el-plato.wav,./stim/wavs/mexican_mismatch_declarative-broad-focus_La-nina-lava-el-plato.wav,./stim/wavs/peruvian_mismatch_declarative-broad-focus_La-nina-lava-el-plato.wav,./stim/wavs/puertorican_mismatch_declarative-broad-focus_La-nina-lava-el-plato.wav,,,,,,,,,,,,,,,,,,,,,,,,,,,,,,,,,,,,,,,,,,,,,,,,,,,,,,,,
,,,,,,,5f23ff398626c51fdd6c3fb5,6057c54e64b0b4e5c128b4f9,6057fde7c5590f6a1b90c946,United States,Northeast,13 or older,no,2021-03-21_22h23.45.856,empathy_intonation_perc,2020.2.10,Win32,60,,,,,,,,,,1,argentine,1,1,1.3905,0,12,12,16,1,17,./stim/wavs/andalusian_match_interrogative-partial-wh_Cuando-bebia-el-vino.wav,./stim/wavs/argentine_match_interrogative-partial-wh_Cuando-bebia-el-vino.wav,./stim/wavs/castilian_match_interrogative-partial-wh_Cuando-bebia-el-vino.wav,./stim/wavs/chilean_match_interrogative-partial-wh_Cuando-bebia-el-vino.wav,./stim/wavs/cuban_match_interrogative-partial-wh_Cuando-bebia-el-vino.wav,./stim/wavs/mexican_match_interrogative-partial-wh_Cuando-bebia-el-vino.wav,./stim/wavs/peruvian_match_interrogative-partial-wh_Cuando-bebia-el-vino.wav,./stim/wavs/puertorican_match_interrogative-partial-wh_Cuando-bebia-el-vino.wav,,,,,,,,,,,,,,,,,,,,,,,,,,,,,,,,,,,,,,,,,,,,,,,,,,,,,,,,
,,,,,,,5f23ff398626c51fdd6c3fb5,6057c54e64b0b4e5c128b4f9,6057fde7c5590f6a1b90c946,United States,Northeast,13 or older,no,2021-03-21_22h23.45.856,empathy_intonation_perc,2020.2.10,Win32,60,,,,,,,,,,1,mexican,1,1,8.96294,0,13,13,63,1,64,./stim/wavs/andalusian_mismatch_interrogative-total-yn_Mi-tia-odia-la-lluvia.wav,./stim/wavs/argentine_mismatch_interrogative-total-yn_Mi-tia-odia-la-lluvia.wav,./stim/wavs/castilian_mismatch_interrogative-total-yn_Mi-tia-odia-la-lluvia.wav,./stim/wavs/chilean_mismatch_interrogative-total-yn_Mi-tia-odia-la-lluvia.wav,./stim/wavs/cuban_mismatch_interrogative-total-yn_Mi-tia-odia-la-lluvia.wav,./stim/wavs/mexican_mismatch_interrogative-total-yn_Mi-tia-odia-la-lluvia.wav,./stim/wavs/peruvian_mismatch_interrogative-total-yn_Mi-tia-odia-la-lluvia.wav,./stim/wavs/puertorican_mismatch_interrogative-total-yn_Mi-tia-odia-la-lluvia.wav,,,,,,,,,,,,,,,,,,,,,,,,,,,,,,,,,,,,,,,,,,,,,,,,,,,,,,,,
,,,,,,,5f23ff398626c51fdd6c3fb5,6057c54e64b0b4e5c128b4f9,6057fde7c5590f6a1b90c946,United States,Northeast,13 or older,no,2021-03-21_22h23.45.856,empathy_intonation_perc,2020.2.10,Win32,60,,,,,,,,,,0,andalusian,0,1,1.90767,0,14,14,5,1,6,./stim/wavs/andalusian_match_declarative-broad-focus_Maria-bebe-el-vino.wav,./stim/wavs/argentine_match_declarative-broad-focus_Maria-bebe-el-vino.wav,./stim/wavs/castilian_match_declarative-broad-focus_Maria-bebe-el-vino.wav,./stim/wavs/chilean_match_declarative-broad-focus_Maria-bebe-el-vino.wav,./stim/wavs/cuban_match_declarative-broad-focus_Maria-bebe-el-vino.wav,./stim/wavs/mexican_match_declarative-broad-focus_Maria-bebe-el-vino.wav,./stim/wavs/peruvian_match_declarative-broad-focus_Maria-bebe-el-vino.wav,./stim/wavs/puertorican_match_declarative-broad-focus_Maria-bebe-el-vino.wav,,,,,,,,,,,,,,,,,,,,,,,,,,,,,,,,,,,,,,,,,,,,,,,,,,,,,,,,
,,,,,,,5f23ff398626c51fdd6c3fb5,6057c54e64b0b4e5c128b4f9,6057fde7c5590f6a1b90c946,United States,Northeast,13 or older,no,2021-03-21_22h23.45.856,empathy_intonation_perc,2020.2.10,Win32,60,,,,,,,,,,1,chilean,0,0,2.037575,0,15,15,62,1,63,./stim/wavs/andalusian_mismatch_interrogative-total-yn_Mi-novio-viene-del-lago.wav,./stim/wavs/argentine_mismatch_interrogative-total-yn_Mi-novio-viene-del-lago.wav,./stim/wavs/castilian_mismatch_interrogative-total-yn_Mi-novio-viene-del-lago.wav,./stim/wavs/chilean_mismatch_interrogative-total-yn_Mi-novio-viene-del-lago.wav,./stim/wavs/cuban_mismatch_interrogative-total-yn_Mi-novio-viene-del-lago.wav,./stim/wavs/mexican_mismatch_interrogative-total-yn_Mi-novio-viene-del-lago.wav,./stim/wavs/peruvian_mismatch_interrogative-total-yn_Mi-novio-viene-del-lago.wav,./stim/wavs/puertorican_mismatch_interrogative-total-yn_Mi-novio-viene-del-lago.wav,,,,,,,,,,,,,,,,,,,,,,,,,,,,,,,,,,,,,,,,,,,,,,,,,,,,,,,,
,,,,,,,5f23ff398626c51fdd6c3fb5,6057c54e64b0b4e5c128b4f9,6057fde7c5590f6a1b90c946,United States,Northeast,13 or older,no,2021-03-21_22h23.45.856,empathy_intonation_perc,2020.2.10,Win32,60,,,,,,,,,,0,castilian,0,1,2.339835,0,16,16,4,1,5,./stim/wavs/andalusian_match_declarative-broad-focus_Manuela-vende-el-carro.wav,./stim/wavs/argentine_match_declarative-broad-focus_Manuela-vende-el-carro.wav,./stim/wavs/castilian_match_declarative-broad-focus_Manuela-vende-el-carro.wav,./stim/wavs/chilean_match_declarative-broad-focus_Manuela-vende-el-carro.wav,./stim/wavs/cuban_match_declarative-broad-focus_Manuela-vende-el-carro.wav,./stim/wavs/mexican_match_declarative-broad-focus_Manuela-vende-el-carro.wav,./stim/wavs/peruvian_match_declarative-broad-focus_Manuela-vende-el-carro.wav,./stim/wavs/puertorican_match_declarative-broad-focus_Manuela-vende-el-carro.wav,,,,,,,,,,,,,,,,,,,,,,,,,,,,,,,,,,,,,,,,,,,,,,,,,,,,,,,,
,,,,,,,5f23ff398626c51fdd6c3fb5,6057c54e64b0b4e5c128b4f9,6057fde7c5590f6a1b90c946,United States,Northeast,13 or older,no,2021-03-21_22h23.45.856,empathy_intonation_perc,2020.2.10,Win32,60,,,,,,,,,,0,andalusian,0,1,1.637945,0,17,17,41,1,42,./stim/wavs/andalusian_mismatch_declarative-narrow-focus_El-hombre-mira-la-luna.wav,./stim/wavs/argentine_mismatch_declarative-narrow-focus_El-hombre-mira-la-luna.wav,./stim/wavs/castilian_mismatch_declarative-narrow-focus_El-hombre-mira-la-luna.wav,./stim/wavs/chilean_mismatch_declarative-narrow-focus_El-hombre-mira-la-luna.wav,./stim/wavs/cuban_mismatch_declarative-narrow-focus_El-hombre-mira-la-luna.wav,./stim/wavs/mexican_mismatch_declarative-narrow-focus_El-hombre-mira-la-luna.wav,./stim/wavs/peruvian_mismatch_declarative-narrow-focus_El-hombre-mira-la-luna.wav,./stim/wavs/puertorican_mismatch_declarative-narrow-focus_El-hombre-mira-la-luna.wav,,,,,,,,,,,,,,,,,,,,,,,,,,,,,,,,,,,,,,,,,,,,,,,,,,,,,,,,
,,,,,,,5f23ff398626c51fdd6c3fb5,6057c54e64b0b4e5c128b4f9,6057fde7c5590f6a1b90c946,United States,Northeast,13 or older,no,2021-03-21_22h23.45.856,empathy_intonation_perc,2020.2.10,Win32,60,,,,,,,,,,1,puertorican,0,0,1.568645,0,18,18,61,1,62,./stim/wavs/andalusian_mismatch_interrogative-total-yn_Mi-madre-come-la-fruta.wav,./stim/wavs/argentine_mismatch_interrogative-total-yn_Mi-madre-come-la-fruta.wav,./stim/wavs/castilian_mismatch_interrogative-total-yn_Mi-madre-come-la-fruta.wav,./stim/wavs/chilean_mismatch_interrogative-total-yn_Mi-madre-come-la-fruta.wav,./stim/wavs/cuban_mismatch_interrogative-total-yn_Mi-madre-come-la-fruta.wav,./stim/wavs/mexican_mismatch_interrogative-total-yn_Mi-madre-come-la-fruta.wav,./stim/wavs/peruvian_mismatch_interrogative-total-yn_Mi-madre-come-la-fruta.wav,./stim/wavs/puertorican_mismatch_interrogative-total-yn_Mi-madre-come-la-fruta.wav,,,,,,,,,,,,,,,,,,,,,,,,,,,,,,,,,,,,,,,,,,,,,,,,,,,,,,,,
,,,,,,,5f23ff398626c51fdd6c3fb5,6057c54e64b0b4e5c128b4f9,6057fde7c5590f6a1b90c946,United States,Northeast,13 or older,no,2021-03-21_22h23.45.856,empathy_intonation_perc,2020.2.10,Win32,60,,,,,,,,,,1,chilean,0,0,1.423905,0,19,19,60,1,61,./stim/wavs/andalusian_mismatch_interrogative-total-yn_La-nina-lava-el-plato.wav,./stim/wavs/argentine_mismatch_interrogative-total-yn_La-nina-lava-el-plato.wav,./stim/wavs/castilian_mismatch_interrogative-total-yn_La-nina-lava-el-plato.wav,./stim/wavs/chilean_mismatch_interrogative-total-yn_La-nina-lava-el-plato.wav,./stim/wavs/cuban_mismatch_interrogative-total-yn_La-nina-lava-el-plato.wav,./stim/wavs/mexican_mismatch_interrogative-total-yn_La-nina-lava-el-plato.wav,./stim/wavs/peruvian_mismatch_interrogative-total-yn_La-nina-lava-el-plato.wav,./stim/wavs/puertorican_mismatch_interrogative-total-yn_La-nina-lava-el-plato.wav,,,,,,,,,,,,,,,,,,,,,,,,,,,,,,,,,,,,,,,,,,,,,,,,,,,,,,,,
,,,,,,,5f23ff398626c51fdd6c3fb5,6057c54e64b0b4e5c128b4f9,6057fde7c5590f6a1b90c946,United States,Northeast,13 or older,no,2021-03-21_22h23.45.856,empathy_intonation_perc,2020.2.10,Win32,60,,,,,,,,,,0,castilian,0,1,1.831935,0,20,20,46,1,47,./stim/wavs/andalusian_mismatch_declarative-narrow-focus_Mi-novio-viene-del-lago.wav,./stim/wavs/argentine_mismatch_declarative-narrow-focus_Mi-novio-viene-del-lago.wav,./stim/wavs/castilian_mismatch_declarative-narrow-focus_Mi-novio-viene-del-lago.wav,./stim/wavs/chilean_mismatch_declarative-narrow-focus_Mi-novio-viene-del-lago.wav,./stim/wavs/cuban_mismatch_declarative-narrow-focus_Mi-novio-viene-del-lago.wav,./stim/wavs/mexican_mismatch_declarative-narrow-focus_Mi-novio-viene-del-lago.wav,./stim/wavs/peruvian_mismatch_declarative-narrow-focus_Mi-novio-viene-del-lago.wav,./stim/wavs/puertorican_mismatch_declarative-narrow-focus_Mi-novio-viene-del-lago.wav,,,,,,,,,,,,,,,,,,,,,,,,,,,,,,,,,,,,,,,,,,,,,,,,,,,,,,,,
,,,,,,,5f23ff398626c51fdd6c3fb5,6057c54e64b0b4e5c128b4f9,6057fde7c5590f6a1b90c946,United States,Northeast,13 or older,no,2021-03-21_22h23.45.856,empathy_intonation_perc,2020.2.10,Win32,60,,,,,,,,,,1,andalusian,1,1,1.43887,0,21,21,54,1,55,./stim/wavs/andalusian_mismatch_interrogative-partial-wh_Por-que-venia-del-lago.wav,./stim/wavs/argentine_mismatch_interrogative-partial-wh_Por-que-venia-del-lago.wav,./stim/wavs/castilian_mismatch_interrogative-partial-wh_Por-que-venia-del-lago.wav,./stim/wavs/chilean_mismatch_interrogative-partial-wh_Por-que-venia-del-lago.wav,./stim/wavs/cuban_mismatch_interrogative-partial-wh_Por-que-venia-del-lago.wav,./stim/wavs/mexican_mismatch_interrogative-partial-wh_Por-que-venia-del-lago.wav,./stim/wavs/peruvian_mismatch_interrogative-partial-wh_Por-que-venia-del-lago.wav,./stim/wavs/puertorican_mismatch_interrogative-partial-wh_Por-que-venia-del-lago.wav,,,,,,,,,,,,,,,,,,,,,,,,,,,,,,,,,,,,,,,,,,,,,,,,,,,,,,,,
,,,,,,,5f23ff398626c51fdd6c3fb5,6057c54e64b0b4e5c128b4f9,6057fde7c5590f6a1b90c946,United States,Northeast,13 or older,no,2021-03-21_22h23.45.856,empathy_intonation_perc,2020.2.10,Win32,60,,,,,,,,,,1,chilean,1,1,2.12639,0,22,22,23,1,24,./stim/wavs/andalusian_match_interrogative-partial-wh_Por-que-iba-a-Bolivia.wav,./stim/wavs/argentine_match_interrogative-partial-wh_Por-que-iba-a-Bolivia.wav,./stim/wavs/castilian_match_interrogative-partial-wh_Por-que-iba-a-Bolivia.wav,./stim/wavs/chilean_match_interrogative-partial-wh_Por-que-iba-a-Bolivia.wav,./stim/wavs/cuban_match_interrogative-partial-wh_Por-que-iba-a-Bolivia.wav,./stim/wavs/mexican_match_interrogative-partial-wh_Por-que-iba-a-Bolivia.wav,./stim/wavs/peruvian_match_interrogative-partial-wh_Por-que-iba-a-Bolivia.wav,./stim/wavs/puertorican_match_interrogative-partial-wh_Por-que-iba-a-Bolivia.wav,,,,,,,,,,,,,,,,,,,,,,,,,,,,,,,,,,,,,,,,,,,,,,,,,,,,,,,,
,,,,,,,5f23ff398626c51fdd6c3fb5,6057c54e64b0b4e5c128b4f9,6057fde7c5590f6a1b90c946,United States,Northeast,13 or older,no,2021-03-21_22h23.45.856,empathy_intonation_perc,2020.2.10,Win32,60,,,,,,,,,,1,cuban,0,0,2.045055,0,23,23,59,1,60,./stim/wavs/andalusian_mismatch_interrogative-total-yn_La-maestra-vive-en-Paris.wav,./stim/wavs/argentine_mismatch_interrogative-total-yn_La-maestra-vive-en-Paris.wav,./stim/wavs/castilian_mismatch_interrogative-total-yn_La-maestra-vive-en-Paris.wav,./stim/wavs/chilean_mismatch_interrogative-total-yn_La-maestra-vive-en-Paris.wav,./stim/wavs/cuban_mismatch_interrogative-total-yn_La-maestra-vive-en-Paris.wav,./stim/wavs/mexican_mismatch_interrogative-total-yn_La-maestra-vive-en-Paris.wav,./stim/wavs/peruvian_mismatch_interrogative-total-yn_La-maestra-vive-en-Paris.wav,./stim/wavs/puertorican_mismatch_interrogative-total-yn_La-maestra-vive-en-Paris.wav,,,,,,,,,,,,,,,,,,,,,,,,,,,,,,,,,,,,,,,,,,,,,,,,,,,,,,,,
,,,,,,,5f23ff398626c51fdd6c3fb5,6057c54e64b0b4e5c128b4f9,6057fde7c5590f6a1b90c946,United States,Northeast,13 or older,no,2021-03-21_22h23.45.856,empathy_intonation_perc,2020.2.10,Win32,60,,,,,,,,,,1,argentine,1,1,3.486385,0,24,24,28,1,29,./stim/wavs/andalusian_match_interrogative-total-yn_Manuela-vende-el-carro.wav,./stim/wavs/argentine_match_interrogative-total-yn_Manuela-vende-el-carro.wav,./stim/wavs/castilian_match_interrogative-total-yn_Manuela-vende-el-carro.wav,./stim/wavs/chilean_match_interrogative-total-yn_Manuela-vende-el-carro.wav,./stim/wavs/cuban_match_interrogative-total-yn_Manuela-vende-el-carro.wav,./stim/wavs/mexican_match_interrogative-total-yn_Manuela-vende-el-carro.wav,./stim/wavs/peruvian_match_interrogative-total-yn_Manuela-vende-el-carro.wav,./stim/wavs/puertorican_match_interrogative-total-yn_Manuela-vende-el-carro.wav,,,,,,,,,,,,,,,,,,,,,,,,,,,,,,,,,,,,,,,,,,,,,,,,,,,,,,,,
,,,,,,,5f23ff398626c51fdd6c3fb5,6057c54e64b0b4e5c128b4f9,6057fde7c5590f6a1b90c946,United States,Northeast,13 or older,no,2021-03-21_22h23.45.856,empathy_intonation_perc,2020.2.10,Win32,60,,,,,,,,,,1,mexican,1,1,2.05887,0,25,25,30,1,31,./stim/wavs/andalusian_match_interrogative-total-yn_Mariano-habla-del-tiempo.wav,./stim/wavs/argentine_match_interrogative-total-yn_Mariano-habla-del-tiempo.wav,./stim/wavs/castilian_match_interrogative-total-yn_Mariano-habla-del-tiempo.wav,./stim/wavs/chilean_match_interrogative-total-yn_Mariano-habla-del-tiempo.wav,./stim/wavs/cuban_match_interrogative-total-yn_Mariano-habla-del-tiempo.wav,./stim/wavs/mexican_match_interrogative-total-yn_Mariano-habla-del-tiempo.wav,./stim/wavs/peruvian_match_interrogative-total-yn_Mariano-habla-del-tiempo.wav,./stim/wavs/puertorican_match_interrogative-total-yn_Mariano-habla-del-tiempo.wav,,,,,,,,,,,,,,,,,,,,,,,,,,,,,,,,,,,,,,,,,,,,,,,,,,,,,,,,
,,,,,,,5f23ff398626c51fdd6c3fb5,6057c54e64b0b4e5c128b4f9,6057fde7c5590f6a1b90c946,United States,Northeast,13 or older,no,2021-03-21_22h23.45.856,empathy_intonation_perc,2020.2.10,Win32,60,,,,,,,,,,1,mexican,0,0,2.18985,0,26,26,24,1,25,./stim/wavs/andalusian_match_interrogative-total-yn_Ana-lleva-el-abrigo.wav,./stim/wavs/argentine_match_interrogative-total-yn_Ana-lleva-el-abrigo.wav,./stim/wavs/castilian_match_interrogative-total-yn_Ana-lleva-el-abrigo.wav,./stim/wavs/chilean_match_interrogative-total-yn_Ana-lleva-el-abrigo.wav,./stim/wavs/cuban_match_interrogative-total-yn_Ana-lleva-el-abrigo.wav,./stim/wavs/mexican_match_interrogative-total-yn_Ana-lleva-el-abrigo.wav,./stim/wavs/peruvian_match_interrogative-total-yn_Ana-lleva-el-abrigo.wav,./stim/wavs/puertorican_match_interrogative-total-yn_Ana-lleva-el-abrigo.wav,,,,,,,,,,,,,,,,,,,,,,,,,,,,,,,,,,,,,,,,,,,,,,,,,,,,,,,,
,,,,,,,5f23ff398626c51fdd6c3fb5,6057c54e64b0b4e5c128b4f9,6057fde7c5590f6a1b90c946,United States,Northeast,13 or older,no,2021-03-21_22h23.45.856,empathy_intonation_perc,2020.2.10,Win32,60,,,,,,,,,,0,argentine,0,1,2.031725,0,27,27,3,1,4,./stim/wavs/andalusian_match_declarative-broad-focus_Emilio-ama-la-marcha.wav,./stim/wavs/argentine_match_declarative-broad-focus_Emilio-ama-la-marcha.wav,./stim/wavs/castilian_match_declarative-broad-focus_Emilio-ama-la-marcha.wav,./stim/wavs/chilean_match_declarative-broad-focus_Emilio-ama-la-marcha.wav,./stim/wavs/cuban_match_declarative-broad-focus_Emilio-ama-la-marcha.wav,./stim/wavs/mexican_match_declarative-broad-focus_Emilio-ama-la-marcha.wav,./stim/wavs/peruvian_match_declarative-broad-focus_Emilio-ama-la-marcha.wav,./stim/wavs/puertorican_match_declarative-broad-focus_Emilio-ama-la-marcha.wav,,,,,,,,,,,,,,,,,,,,,,,,,,,,,,,,,,,,,,,,,,,,,,,,,,,,,,,,
,,,,,,,5f23ff398626c51fdd6c3fb5,6057c54e64b0b4e5c128b4f9,6057fde7c5590f6a1b90c946,United States,Northeast,13 or older,no,2021-03-21_22h23.45.856,empathy_intonation_perc,2020.2.10,Win32,60,,,,,,,,,,1,cuban,1,1,1.54883,0,28,28,17,1,18,./stim/wavs/andalusian_match_interrogative-partial-wh_Cuando-leia-el-libro.wav,./stim/wavs/argentine_match_interrogative-partial-wh_Cuando-leia-el-libro.wav,./stim/wavs/castilian_match_interrogative-partial-wh_Cuando-leia-el-libro.wav,./stim/wavs/chilean_match_interrogative-partial-wh_Cuando-leia-el-libro.wav,./stim/wavs/cuban_match_interrogative-partial-wh_Cuando-leia-el-libro.wav,./stim/wavs/mexican_match_interrogative-partial-wh_Cuando-leia-el-libro.wav,./stim/wavs/peruvian_match_interrogative-partial-wh_Cuando-leia-el-libro.wav,./stim/wavs/puertorican_match_interrogative-partial-wh_Cuando-leia-el-libro.wav,,,,,,,,,,,,,,,,,,,,,,,,,,,,,,,,,,,,,,,,,,,,,,,,,,,,,,,,
,,,,,,,5f23ff398626c51fdd6c3fb5,6057c54e64b0b4e5c128b4f9,6057fde7c5590f6a1b90c946,United States,Northeast,13 or older,no,2021-03-21_22h23.45.856,empathy_intonation_perc,2020.2.10,Win32,60,,,,,,,,,,1,castilian,1,1,1.88825,0,29,29,57,1,58,./stim/wavs/andalusian_mismatch_interrogative-total-yn_El-hombre-mira-la-luna.wav,./stim/wavs/argentine_mismatch_interrogative-total-yn_El-hombre-mira-la-luna.wav,./stim/wavs/castilian_mismatch_interrogative-total-yn_El-hombre-mira-la-luna.wav,./stim/wavs/chilean_mismatch_interrogative-total-yn_El-hombre-mira-la-luna.wav,./stim/wavs/cuban_mismatch_interrogative-total-yn_El-hombre-mira-la-luna.wav,./stim/wavs/mexican_mismatch_interrogative-total-yn_El-hombre-mira-la-luna.wav,./stim/wavs/peruvian_mismatch_interrogative-total-yn_El-hombre-mira-la-luna.wav,./stim/wavs/puertorican_mismatch_interrogative-total-yn_El-hombre-mira-la-luna.wav,,,,,,,,,,,,,,,,,,,,,,,,,,,,,,,,,,,,,,,,,,,,,,,,,,,,,,,,
,,,,,,,5f23ff398626c51fdd6c3fb5,6057c54e64b0b4e5c128b4f9,6057fde7c5590f6a1b90c946,United States,Northeast,13 or older,no,2021-03-21_22h23.45.856,empathy_intonation_perc,2020.2.10,Win32,60,,,,,,,,,,0,argentine,1,0,1.78874,0,30,30,8,1,9,./stim/wavs/andalusian_match_declarative-narrow-focus_Ana-lleva-el-abrigo.wav,./stim/wavs/argentine_match_declarative-narrow-focus_Ana-lleva-el-abrigo.wav,./stim/wavs/castilian_match_declarative-narrow-focus_Ana-lleva-el-abrigo.wav,./stim/wavs/chilean_match_declarative-narrow-focus_Ana-lleva-el-abrigo.wav,./stim/wavs/cuban_match_declarative-narrow-focus_Ana-lleva-el-abrigo.wav,./stim/wavs/mexican_match_declarative-narrow-focus_Ana-lleva-el-abrigo.wav,./stim/wavs/peruvian_match_declarative-narrow-focus_Ana-lleva-el-abrigo.wav,./stim/wavs/puertorican_match_declarative-narrow-focus_Ana-lleva-el-abrigo.wav,,,,,,,,,,,,,,,,,,,,,,,,,,,,,,,,,,,,,,,,,,,,,,,,,,,,,,,,
,,,,,,,5f23ff398626c51fdd6c3fb5,6057c54e64b0b4e5c128b4f9,6057fde7c5590f6a1b90c946,United States,Northeast,13 or older,no,2021-03-21_22h23.45.856,empathy_intonation_perc,2020.2.10,Win32,60,,,,,,,,,,1,puertorican,0,0,1.747995,0,31,31,27,1,28,./stim/wavs/andalusian_match_interrogative-total-yn_Emilio-ama-la-marcha.wav,./stim/wavs/argentine_match_interrogative-total-yn_Emilio-ama-la-marcha.wav,./stim/wavs/castilian_match_interrogative-total-yn_Emilio-ama-la-marcha.wav,./stim/wavs/chilean_match_interrogative-total-yn_Emilio-ama-la-marcha.wav,./stim/wavs/cuban_match_interrogative-total-yn_Emilio-ama-la-marcha.wav,./stim/wavs/mexican_match_interrogative-total-yn_Emilio-ama-la-marcha.wav,./stim/wavs/peruvian_match_interrogative-total-yn_Emilio-ama-la-marcha.wav,./stim/wavs/puertorican_match_interrogative-total-yn_Emilio-ama-la-marcha.wav,,,,,,,,,,,,,,,,,,,,,,,,,,,,,,,,,,,,,,,,,,,,,,,,,,,,,,,,
,,,,,,,5f23ff398626c51fdd6c3fb5,6057c54e64b0b4e5c128b4f9,6057fde7c5590f6a1b90c946,United States,Northeast,13 or older,no,2021-03-21_22h23.45.856,empathy_intonation_perc,2020.2.10,Win32,60,,,,,,,,,,1,mexican,1,1,1.55544,0,32,32,51,1,52,./stim/wavs/andalusian_mismatch_interrogative-partial-wh_Por-que-desayuna-muy-bien.wav,./stim/wavs/argentine_mismatch_interrogative-partial-wh_Por-que-desayuna-muy-bien.wav,./stim/wavs/castilian_mismatch_interrogative-partial-wh_Por-que-desayuna-muy-bien.wav,./stim/wavs/chilean_mismatch_interrogative-partial-wh_Por-que-desayuna-muy-bien.wav,./stim/wavs/cuban_mismatch_interrogative-partial-wh_Por-que-desayuna-muy-bien.wav,./stim/wavs/mexican_mismatch_interrogative-partial-wh_Por-que-desayuna-muy-bien.wav,./stim/wavs/peruvian_mismatch_interrogative-partial-wh_Por-que-desayuna-muy-bien.wav,./stim/wavs/puertorican_mismatch_interrogative-partial-wh_Por-que-desayuna-muy-bien.wav,,,,,,,,,,,,,,,,,,,,,,,,,,,,,,,,,,,,,,,,,,,,,,,,,,,,,,,,
,,,,,,,5f23ff398626c51fdd6c3fb5,6057c54e64b0b4e5c128b4f9,6057fde7c5590f6a1b90c946,United States,Northeast,13 or older,no,2021-03-21_22h23.45.856,empathy_intonation_perc,2020.2.10,Win32,60,,,,,,,,,,0,castilian,0,1,8.71288,0,33,33,9,1,10,./stim/wavs/andalusian_match_declarative-narrow-focus_Daniel-iba-a-Bolivia.wav,./stim/wavs/argentine_match_declarative-narrow-focus_Daniel-iba-a-Bolivia.wav,./stim/wavs/castilian_match_declarative-narrow-focus_Daniel-iba-a-Bolivia.wav,./stim/wavs/chilean_match_declarative-narrow-focus_Daniel-iba-a-Bolivia.wav,./stim/wavs/cuban_match_declarative-narrow-focus_Daniel-iba-a-Bolivia.wav,./stim/wavs/mexican_match_declarative-narrow-focus_Daniel-iba-a-Bolivia.wav,./stim/wavs/peruvian_match_declarative-narrow-focus_Daniel-iba-a-Bolivia.wav,./stim/wavs/puertorican_match_declarative-narrow-focus_Daniel-iba-a-Bolivia.wav,,,,,,,,,,,,,,,,,,,,,,,,,,,,,,,,,,,,,,,,,,,,,,,,,,,,,,,,
,,,,,,,5f23ff398626c51fdd6c3fb5,6057c54e64b0b4e5c128b4f9,6057fde7c5590f6a1b90c946,United States,Northeast,13 or older,no,2021-03-21_22h23.45.856,empathy_intonation_perc,2020.2.10,Win32,60,,,,,,,,,,0,castilian,0,1,2.594025,0,34,34,7,1,8,./stim/wavs/andalusian_match_declarative-broad-focus_Marta-abre-el-regalo.wav,./stim/wavs/argentine_match_declarative-broad-focus_Marta-abre-el-regalo.wav,./stim/wavs/castilian_match_declarative-broad-focus_Marta-abre-el-regalo.wav,./stim/wavs/chilean_match_declarative-broad-focus_Marta-abre-el-regalo.wav,./stim/wavs/cuban_match_declarative-broad-focus_Marta-abre-el-regalo.wav,./stim/wavs/mexican_match_declarative-broad-focus_Marta-abre-el-regalo.wav,./stim/wavs/peruvian_match_declarative-broad-focus_Marta-abre-el-regalo.wav,./stim/wavs/puertorican_match_declarative-broad-focus_Marta-abre-el-regalo.wav,,,,,,,,,,,,,,,,,,,,,,,,,,,,,,,,,,,,,,,,,,,,,,,,,,,,,,,,
,,,,,,,5f23ff398626c51fdd6c3fb5,6057c54e64b0b4e5c128b4f9,6057fde7c5590f6a1b90c946,United States,Northeast,13 or older,no,2021-03-21_22h23.45.856,empathy_intonation_perc,2020.2.10,Win32,60,,,,,,,,,,1,cuban,0,0,1.814715,0,35,35,58,1,59,./stim/wavs/andalusian_mismatch_interrogative-total-yn_El-nino-oye-el-rio.wav,./stim/wavs/argentine_mismatch_interrogative-total-yn_El-nino-oye-el-rio.wav,./stim/wavs/castilian_mismatch_interrogative-total-yn_El-nino-oye-el-rio.wav,./stim/wavs/chilean_mismatch_interrogative-total-yn_El-nino-oye-el-rio.wav,./stim/wavs/cuban_mismatch_interrogative-total-yn_El-nino-oye-el-rio.wav,./stim/wavs/mexican_mismatch_interrogative-total-yn_El-nino-oye-el-rio.wav,./stim/wavs/peruvian_mismatch_interrogative-total-yn_El-nino-oye-el-rio.wav,./stim/wavs/puertorican_mismatch_interrogative-total-yn_El-nino-oye-el-rio.wav,,,,,,,,,,,,,,,,,,,,,,,,,,,,,,,,,,,,,,,,,,,,,,,,,,,,,,,,
,,,,,,,5f23ff398626c51fdd6c3fb5,6057c54e64b0b4e5c128b4f9,6057fde7c5590f6a1b90c946,United States,Northeast,13 or older,no,2021-03-21_22h23.45.856,empathy_intonation_perc,2020.2.10,Win32,60,,,,,,,,,,1,mexican,0,0,1.811455,0,36,36,26,1,27,./stim/wavs/andalusian_match_interrogative-total-yn_David-leia-el-libro.wav,./stim/wavs/argentine_match_interrogative-total-yn_David-leia-el-libro.wav,./stim/wavs/castilian_match_interrogative-total-yn_David-leia-el-libro.wav,./stim/wavs/chilean_match_interrogative-total-yn_David-leia-el-libro.wav,./stim/wavs/cuban_match_interrogative-total-yn_David-leia-el-libro.wav,./stim/wavs/mexican_match_interrogative-total-yn_David-leia-el-libro.wav,./stim/wavs/peruvian_match_interrogative-total-yn_David-leia-el-libro.wav,./stim/wavs/puertorican_match_interrogative-total-yn_David-leia-el-libro.wav,,,,,,,,,,,,,,,,,,,,,,,,,,,,,,,,,,,,,,,,,,,,,,,,,,,,,,,,
,,,,,,,5f23ff398626c51fdd6c3fb5,6057c54e64b0b4e5c128b4f9,6057fde7c5590f6a1b90c946,United States,Northeast,13 or older,no,2021-03-21_22h23.45.856,empathy_intonation_perc,2020.2.10,Win32,60,,,,,,,,,,1,mexican,0,0,1.62679,0,37,37,29,1,30,./stim/wavs/andalusian_match_interrogative-total-yn_Maria-bebe-el-vino.wav,./stim/wavs/argentine_match_interrogative-total-yn_Maria-bebe-el-vino.wav,./stim/wavs/castilian_match_interrogative-total-yn_Maria-bebe-el-vino.wav,./stim/wavs/chilean_match_interrogative-total-yn_Maria-bebe-el-vino.wav,./stim/wavs/cuban_match_interrogative-total-yn_Maria-bebe-el-vino.wav,./stim/wavs/mexican_match_interrogative-total-yn_Maria-bebe-el-vino.wav,./stim/wavs/peruvian_match_interrogative-total-yn_Maria-bebe-el-vino.wav,./stim/wavs/puertorican_match_interrogative-total-yn_Maria-bebe-el-vino.wav,,,,,,,,,,,,,,,,,,,,,,,,,,,,,,,,,,,,,,,,,,,,,,,,,,,,,,,,
,,,,,,,5f23ff398626c51fdd6c3fb5,6057c54e64b0b4e5c128b4f9,6057fde7c5590f6a1b90c946,United States,Northeast,13 or older,no,2021-03-21_22h23.45.856,empathy_intonation_perc,2020.2.10,Win32,60,,,,,,,,,,0,puertorican,0,1,1.76538,0,38,38,10,1,11,./stim/wavs/andalusian_match_declarative-narrow-focus_David-leia-el-libro.wav,./stim/wavs/argentine_match_declarative-narrow-focus_David-leia-el-libro.wav,./stim/wavs/castilian_match_declarative-narrow-focus_David-leia-el-libro.wav,./stim/wavs/chilean_match_declarative-narrow-focus_David-leia-el-libro.wav,./stim/wavs/cuban_match_declarative-narrow-focus_David-leia-el-libro.wav,./stim/wavs/mexican_match_declarative-narrow-focus_David-leia-el-libro.wav,./stim/wavs/peruvian_match_declarative-narrow-focus_David-leia-el-libro.wav,./stim/wavs/puertorican_match_declarative-narrow-focus_David-leia-el-libro.wav,,,,,,,,,,,,,,,,,,,,,,,,,,,,,,,,,,,,,,,,,,,,,,,,,,,,,,,,
,,,,,,,5f23ff398626c51fdd6c3fb5,6057c54e64b0b4e5c128b4f9,6057fde7c5590f6a1b90c946,United States,Northeast,13 or older,no,2021-03-21_22h23.45.856,empathy_intonation_perc,2020.2.10,Win32,60,,,,,,,,,,0,mexican,0,1,1.69242,0,39,39,42,1,43,./stim/wavs/andalusian_mismatch_declarative-narrow-focus_El-nino-oye-el-rio.wav,./stim/wavs/argentine_mismatch_declarative-narrow-focus_El-nino-oye-el-rio.wav,./stim/wavs/castilian_mismatch_declarative-narrow-focus_El-nino-oye-el-rio.wav,./stim/wavs/chilean_mismatch_declarative-narrow-focus_El-nino-oye-el-rio.wav,./stim/wavs/cuban_mismatch_declarative-narrow-focus_El-nino-oye-el-rio.wav,./stim/wavs/mexican_mismatch_declarative-narrow-focus_El-nino-oye-el-rio.wav,./stim/wavs/peruvian_mismatch_declarative-narrow-focus_El-nino-oye-el-rio.wav,./stim/wavs/puertorican_mismatch_declarative-narrow-focus_El-nino-oye-el-rio.wav,,,,,,,,,,,,,,,,,,,,,,,,,,,,,,,,,,,,,,,,,,,,,,,,,,,,,,,,
,,,,,,,5f23ff398626c51fdd6c3fb5,6057c54e64b0b4e5c128b4f9,6057fde7c5590f6a1b90c946,United States,Northeast,13 or older,no,2021-03-21_22h23.45.856,empathy_intonation_perc,2020.2.10,Win32,60,,,,,,,,,,1,castilian,1,1,1.209295,0,40,40,22,1,23,./stim/wavs/andalusian_match_interrogative-partial-wh_Por-que-hablaba-del-agua.wav,./stim/wavs/argentine_match_interrogative-partial-wh_Por-que-hablaba-del-agua.wav,./stim/wavs/castilian_match_interrogative-partial-wh_Por-que-hablaba-del-agua.wav,./stim/wavs/chilean_match_interrogative-partial-wh_Por-que-hablaba-del-agua.wav,./stim/wavs/cuban_match_interrogative-partial-wh_Por-que-hablaba-del-agua.wav,./stim/wavs/mexican_match_interrogative-partial-wh_Por-que-hablaba-del-agua.wav,./stim/wavs/peruvian_match_interrogative-partial-wh_Por-que-hablaba-del-agua.wav,./stim/wavs/puertorican_match_interrogative-partial-wh_Por-que-hablaba-del-agua.wav,,,,,,,,,,,,,,,,,,,,,,,,,,,,,,,,,,,,,,,,,,,,,,,,,,,,,,,,
,,,,,,,5f23ff398626c51fdd6c3fb5,6057c54e64b0b4e5c128b4f9,6057fde7c5590f6a1b90c946,United States,Northeast,13 or older,no,2021-03-21_22h23.45.856,empathy_intonation_perc,2020.2.10,Win32,60,,,,,,,,,,1,chilean,1,1,1.455,0,41,41,55,1,56,./stim/wavs/andalusian_mismatch_interrogative-partial-wh_Por-que-vivia-en-Paris.wav,./stim/wavs/argentine_mismatch_interrogative-partial-wh_Por-que-vivia-en-Paris.wav,./stim/wavs/castilian_mismatch_interrogative-partial-wh_Por-que-vivia-en-Paris.wav,./stim/wavs/chilean_mismatch_interrogative-partial-wh_Por-que-vivia-en-Paris.wav,./stim/wavs/cuban_mismatch_interrogative-partial-wh_Por-que-vivia-en-Paris.wav,./stim/wavs/mexican_mismatch_interrogative-partial-wh_Por-que-vivia-en-Paris.wav,./stim/wavs/peruvian_mismatch_interrogative-partial-wh_Por-que-vivia-en-Paris.wav,./stim/wavs/puertorican_mismatch_interrogative-partial-wh_Por-que-vivia-en-Paris.wav,,,,,,,,,,,,,,,,,,,,,,,,,,,,,,,,,,,,,,,,,,,,,,,,,,,,,,,,
,,,,,,,5f23ff398626c51fdd6c3fb5,6057c54e64b0b4e5c128b4f9,6057fde7c5590f6a1b90c946,United States,Northeast,13 or older,no,2021-03-21_22h23.45.856,empathy_intonation_perc,2020.2.10,Win32,60,,,,,,,,,,0,argentine,0,1,2.085,0,42,42,32,1,33,./stim/wavs/andalusian_mismatch_declarative-broad-focus_El-bebe-comia-muy-bien.wav,./stim/wavs/argentine_mismatch_declarative-broad-focus_El-bebe-comia-muy-bien.wav,./stim/wavs/castilian_mismatch_declarative-broad-focus_El-bebe-comia-muy-bien.wav,./stim/wavs/chilean_mismatch_declarative-broad-focus_El-bebe-comia-muy-bien.wav,./stim/wavs/cuban_mismatch_declarative-broad-focus_El-bebe-comia-muy-bien.wav,./stim/wavs/mexican_mismatch_declarative-broad-focus_El-bebe-comia-muy-bien.wav,./stim/wavs/peruvian_mismatch_declarative-broad-focus_El-bebe-comia-muy-bien.wav,./stim/wavs/puertorican_mismatch_declarative-broad-focus_El-bebe-comia-muy-bien.wav,,,,,,,,,,,,,,,,,,,,,,,,,,,,,,,,,,,,,,,,,,,,,,,,,,,,,,,,
,,,,,,,5f23ff398626c51fdd6c3fb5,6057c54e64b0b4e5c128b4f9,6057fde7c5590f6a1b90c946,United States,Northeast,13 or older,no,2021-03-21_22h23.45.856,empathy_intonation_perc,2020.2.10,Win32,60,,,,,,,,,,0,chilean,0,1,1.541885,0,43,43,2,1,3,./stim/wavs/andalusian_match_declarative-broad-focus_David-leia-el-libro.wav,./stim/wavs/argentine_match_declarative-broad-focus_David-leia-el-libro.wav,./stim/wavs/castilian_match_declarative-broad-focus_David-leia-el-libro.wav,./stim/wavs/chilean_match_declarative-broad-focus_David-leia-el-libro.wav,./stim/wavs/cuban_match_declarative-broad-focus_David-leia-el-libro.wav,./stim/wavs/mexican_match_declarative-broad-focus_David-leia-el-libro.wav,./stim/wavs/peruvian_match_declarative-broad-focus_David-leia-el-libro.wav,./stim/wavs/puertorican_match_declarative-broad-focus_David-leia-el-libro.wav,,,,,,,,,,,,,,,,,,,,,,,,,,,,,,,,,,,,,,,,,,,,,,,,,,,,,,,,
,,,,,,,5f23ff398626c51fdd6c3fb5,6057c54e64b0b4e5c128b4f9,6057fde7c5590f6a1b90c946,United States,Northeast,13 or older,no,2021-03-21_22h23.45.856,empathy_intonation_perc,2020.2.10,Win32,60,,,,,,,,,,0,puertorican,0,1,1.890645,0,44,44,39,1,40,./stim/wavs/andalusian_mismatch_declarative-broad-focus_Mi-tia-odia-la-lluvia.wav,./stim/wavs/argentine_mismatch_declarative-broad-focus_Mi-tia-odia-la-lluvia.wav,./stim/wavs/castilian_mismatch_declarative-broad-focus_Mi-tia-odia-la-lluvia.wav,./stim/wavs/chilean_mismatch_declarative-broad-focus_Mi-tia-odia-la-lluvia.wav,./stim/wavs/cuban_mismatch_declarative-broad-focus_Mi-tia-odia-la-lluvia.wav,./stim/wavs/mexican_mismatch_declarative-broad-focus_Mi-tia-odia-la-lluvia.wav,./stim/wavs/peruvian_mismatch_declarative-broad-focus_Mi-tia-odia-la-lluvia.wav,./stim/wavs/puertorican_mismatch_declarative-broad-focus_Mi-tia-odia-la-lluvia.wav,,,,,,,,,,,,,,,,,,,,,,,,,,,,,,,,,,,,,,,,,,,,,,,,,,,,,,,,
,,,,,,,5f23ff398626c51fdd6c3fb5,6057c54e64b0b4e5c128b4f9,6057fde7c5590f6a1b90c946,United States,Northeast,13 or older,no,2021-03-21_22h23.45.856,empathy_intonation_perc,2020.2.10,Win32,60,,,,,,,,,,1,argentine,1,1,1.41801,0,45,45,19,1,20,./stim/wavs/andalusian_match_interrogative-partial-wh_Cuando-vendia-el-carro.wav,./stim/wavs/argentine_match_interrogative-partial-wh_Cuando-vendia-el-carro.wav,./stim/wavs/castilian_match_interrogative-partial-wh_Cuando-vendia-el-carro.wav,./stim/wavs/chilean_match_interrogative-partial-wh_Cuando-vendia-el-carro.wav,./stim/wavs/cuban_match_interrogative-partial-wh_Cuando-vendia-el-carro.wav,./stim/wavs/mexican_match_interrogative-partial-wh_Cuando-vendia-el-carro.wav,./stim/wavs/peruvian_match_interrogative-partial-wh_Cuando-vendia-el-carro.wav,./stim/wavs/puertorican_match_interrogative-partial-wh_Cuando-vendia-el-carro.wav,,,,,,,,,,,,,,,,,,,,,,,,,,,,,,,,,,,,,,,,,,,,,,,,,,,,,,,,
,,,,,,,5f23ff398626c51fdd6c3fb5,6057c54e64b0b4e5c128b4f9,6057fde7c5590f6a1b90c946,United States,Northeast,13 or older,no,2021-03-21_22h23.45.856,empathy_intonation_perc,2020.2.10,Win32,60,,,,,,,,,,1,argentine,1,1,2.43115,0,46,46,53,1,54,./stim/wavs/andalusian_mismatch_interrogative-partial-wh_Por-que-oia-el-rio.wav,./stim/wavs/argentine_mismatch_interrogative-partial-wh_Por-que-oia-el-rio.wav,./stim/wavs/castilian_mismatch_interrogative-partial-wh_Por-que-oia-el-rio.wav,./stim/wavs/chilean_mismatch_interrogative-partial-wh_Por-que-oia-el-rio.wav,./stim/wavs/cuban_mismatch_interrogative-partial-wh_Por-que-oia-el-rio.wav,./stim/wavs/mexican_mismatch_interrogative-partial-wh_Por-que-oia-el-rio.wav,./stim/wavs/peruvian_mismatch_interrogative-partial-wh_Por-que-oia-el-rio.wav,./stim/wavs/puertorican_mismatch_interrogative-partial-wh_Por-que-oia-el-rio.wav,,,,,,,,,,,,,,,,,,,,,,,,,,,,,,,,,,,,,,,,,,,,,,,,,,,,,,,,
,,,,,,,5f23ff398626c51fdd6c3fb5,6057c54e64b0b4e5c128b4f9,6057fde7c5590f6a1b90c946,United States,Northeast,13 or older,no,2021-03-21_22h23.45.856,empathy_intonation_perc,2020.2.10,Win32,60,,,,,,,,,,0,andalusian,0,1,1.486915,0,47,47,40,1,41,./stim/wavs/andalusian_mismatch_declarative-narrow-focus_El-bebe-comia-muy-bien.wav,./stim/wavs/argentine_mismatch_declarative-narrow-focus_El-bebe-comia-muy-bien.wav,./stim/wavs/castilian_mismatch_declarative-narrow-focus_El-bebe-comia-muy-bien.wav,./stim/wavs/chilean_mismatch_declarative-narrow-focus_El-bebe-comia-muy-bien.wav,./stim/wavs/cuban_mismatch_declarative-narrow-focus_El-bebe-comia-muy-bien.wav,./stim/wavs/mexican_mismatch_declarative-narrow-focus_El-bebe-comia-muy-bien.wav,./stim/wavs/peruvian_mismatch_declarative-narrow-focus_El-bebe-comia-muy-bien.wav,./stim/wavs/puertorican_mismatch_declarative-narrow-focus_El-bebe-comia-muy-bien.wav,,,,,,,,,,,,,,,,,,,,,,,,,,,,,,,,,,,,,,,,,,,,,,,,,,,,,,,,
,,,,,,,5f23ff398626c51fdd6c3fb5,6057c54e64b0b4e5c128b4f9,6057fde7c5590f6a1b90c946,United States,Northeast,13 or older,no,2021-03-21_22h23.45.856,empathy_intonation_perc,2020.2.10,Win32,60,,,,,,,,,,0,cuban,0,1,2.18179,0,48,48,45,1,46,./stim/wavs/andalusian_mismatch_declarative-narrow-focus_Mi-madre-come-la-fruta.wav,./stim/wavs/argentine_mismatch_declarative-narrow-focus_Mi-madre-come-la-fruta.wav,./stim/wavs/castilian_mismatch_declarative-narrow-focus_Mi-madre-come-la-fruta.wav,./stim/wavs/chilean_mismatch_declarative-narrow-focus_Mi-madre-come-la-fruta.wav,./stim/wavs/cuban_mismatch_declarative-narrow-focus_Mi-madre-come-la-fruta.wav,./stim/wavs/mexican_mismatch_declarative-narrow-focus_Mi-madre-come-la-fruta.wav,./stim/wavs/peruvian_mismatch_declarative-narrow-focus_Mi-madre-come-la-fruta.wav,./stim/wavs/puertorican_mismatch_declarative-narrow-focus_Mi-madre-come-la-fruta.wav,,,,,,,,,,,,,,,,,,,,,,,,,,,,,,,,,,,,,,,,,,,,,,,,,,,,,,,,
,,,,,,,5f23ff398626c51fdd6c3fb5,6057c54e64b0b4e5c128b4f9,6057fde7c5590f6a1b90c946,United States,Northeast,13 or older,no,2021-03-21_22h23.45.856,empathy_intonation_perc,2020.2.10,Win32,60,,,,,,,,,,1,mexican,1,1,1.340845,0,49,49,21,1,22,./stim/wavs/andalusian_match_interrogative-partial-wh_Por-que-ama-la-navidad.wav,./stim/wavs/argentine_match_interrogative-partial-wh_Por-que-ama-la-navidad.wav,./stim/wavs/castilian_match_interrogative-partial-wh_Por-que-ama-la-navidad.wav,./stim/wavs/chilean_match_interrogative-partial-wh_Por-que-ama-la-navidad.wav,./stim/wavs/cuban_match_interrogative-partial-wh_Por-que-ama-la-navidad.wav,./stim/wavs/mexican_match_interrogative-partial-wh_Por-que-ama-la-navidad.wav,./stim/wavs/peruvian_match_interrogative-partial-wh_Por-que-ama-la-navidad.wav,./stim/wavs/puertorican_match_interrogative-partial-wh_Por-que-ama-la-navidad.wav,,,,,,,,,,,,,,,,,,,,,,,,,,,,,,,,,,,,,,,,,,,,,,,,,,,,,,,,
,,,,,,,5f23ff398626c51fdd6c3fb5,6057c54e64b0b4e5c128b4f9,6057fde7c5590f6a1b90c946,United States,Northeast,13 or older,no,2021-03-21_22h23.45.856,empathy_intonation_perc,2020.2.10,Win32,60,,,,,,,,,,0,argentine,0,1,1.920525,0,50,50,38,1,39,./stim/wavs/andalusian_mismatch_declarative-broad-focus_Mi-novio-viene-del-lago.wav,./stim/wavs/argentine_mismatch_declarative-broad-focus_Mi-novio-viene-del-lago.wav,./stim/wavs/castilian_mismatch_declarative-broad-focus_Mi-novio-viene-del-lago.wav,./stim/wavs/chilean_mismatch_declarative-broad-focus_Mi-novio-viene-del-lago.wav,./stim/wavs/cuban_mismatch_declarative-broad-focus_Mi-novio-viene-del-lago.wav,./stim/wavs/mexican_mismatch_declarative-broad-focus_Mi-novio-viene-del-lago.wav,./stim/wavs/peruvian_mismatch_declarative-broad-focus_Mi-novio-viene-del-lago.wav,./stim/wavs/puertorican_mismatch_declarative-broad-focus_Mi-novio-viene-del-lago.wav,,,,,,,,,,,,,,,,,,,,,,,,,,,,,,,,,,,,,,,,,,,,,,,,,,,,,,,,
,,,,,,,5f23ff398626c51fdd6c3fb5,6057c54e64b0b4e5c128b4f9,6057fde7c5590f6a1b90c946,United States,Northeast,13 or older,no,2021-03-21_22h23.45.856,empathy_intonation_perc,2020.2.10,Win32,60,,,,,,,,,,1,chilean,0,0,1.817825,0,51,51,56,1,57,./stim/wavs/andalusian_mismatch_interrogative-total-yn_El-bebe-comia-muy-bien.wav,./stim/wavs/argentine_mismatch_interrogative-total-yn_El-bebe-comia-muy-bien.wav,./stim/wavs/castilian_mismatch_interrogative-total-yn_El-bebe-comia-muy-bien.wav,./stim/wavs/chilean_mismatch_interrogative-total-yn_El-bebe-comia-muy-bien.wav,./stim/wavs/cuban_mismatch_interrogative-total-yn_El-bebe-comia-muy-bien.wav,./stim/wavs/mexican_mismatch_interrogative-total-yn_El-bebe-comia-muy-bien.wav,./stim/wavs/peruvian_mismatch_interrogative-total-yn_El-bebe-comia-muy-bien.wav,./stim/wavs/puertorican_mismatch_interrogative-total-yn_El-bebe-comia-muy-bien.wav,,,,,,,,,,,,,,,,,,,,,,,,,,,,,,,,,,,,,,,,,,,,,,,,,,,,,,,,
,,,,,,,5f23ff398626c51fdd6c3fb5,6057c54e64b0b4e5c128b4f9,6057fde7c5590f6a1b90c946,United States,Northeast,13 or older,no,2021-03-21_22h23.45.856,empathy_intonation_perc,2020.2.10,Win32,60,,,,,,,,,,1,cuban,0,0,1.70034,0,52,52,50,1,51,./stim/wavs/andalusian_mismatch_interrogative-partial-wh_Cuando-miraba-la-luna.wav,./stim/wavs/argentine_mismatch_interrogative-partial-wh_Cuando-miraba-la-luna.wav,./stim/wavs/castilian_mismatch_interrogative-partial-wh_Cuando-miraba-la-luna.wav,./stim/wavs/chilean_mismatch_interrogative-partial-wh_Cuando-miraba-la-luna.wav,./stim/wavs/cuban_mismatch_interrogative-partial-wh_Cuando-miraba-la-luna.wav,./stim/wavs/mexican_mismatch_interrogative-partial-wh_Cuando-miraba-la-luna.wav,./stim/wavs/peruvian_mismatch_interrogative-partial-wh_Cuando-miraba-la-luna.wav,./stim/wavs/puertorican_mismatch_interrogative-partial-wh_Cuando-miraba-la-luna.wav,,,,,,,,,,,,,,,,,,,,,,,,,,,,,,,,,,,,,,,,,,,,,,,,,,,,,,,,
,,,,,,,5f23ff398626c51fdd6c3fb5,6057c54e64b0b4e5c128b4f9,6057fde7c5590f6a1b90c946,United States,Northeast,13 or older,no,2021-03-21_22h23.45.856,empathy_intonation_perc,2020.2.10,Win32,60,,,,,,,,,,1,peruvian,1,1,2.201595,0,53,53,20,1,21,./stim/wavs/andalusian_match_interrogative-partial-wh_Por-que-abre-el-regalo.wav,./stim/wavs/argentine_match_interrogative-partial-wh_Por-que-abre-el-regalo.wav,./stim/wavs/castilian_match_interrogative-partial-wh_Por-que-abre-el-regalo.wav,./stim/wavs/chilean_match_interrogative-partial-wh_Por-que-abre-el-regalo.wav,./stim/wavs/cuban_match_interrogative-partial-wh_Por-que-abre-el-regalo.wav,./stim/wavs/mexican_match_interrogative-partial-wh_Por-que-abre-el-regalo.wav,./stim/wavs/peruvian_match_interrogative-partial-wh_Por-que-abre-el-regalo.wav,./stim/wavs/puertorican_match_interrogative-partial-wh_Por-que-abre-el-regalo.wav,,,,,,,,,,,,,,,,,,,,,,,,,,,,,,,,,,,,,,,,,,,,,,,,,,,,,,,,
,,,,,,,5f23ff398626c51fdd6c3fb5,6057c54e64b0b4e5c128b4f9,6057fde7c5590f6a1b90c946,United States,Northeast,13 or older,no,2021-03-21_22h23.45.856,empathy_intonation_perc,2020.2.10,Win32,60,,,,,,,,,,0,andalusian,0,1,2.08857,0,54,54,6,1,7,./stim/wavs/andalusian_match_declarative-broad-focus_Mariano-habla-del-tiempo.wav,./stim/wavs/argentine_match_declarative-broad-focus_Mariano-habla-del-tiempo.wav,./stim/wavs/castilian_match_declarative-broad-focus_Mariano-habla-del-tiempo.wav,./stim/wavs/chilean_match_declarative-broad-focus_Mariano-habla-del-tiempo.wav,./stim/wavs/cuban_match_declarative-broad-focus_Mariano-habla-del-tiempo.wav,./stim/wavs/mexican_match_declarative-broad-focus_Mariano-habla-del-tiempo.wav,./stim/wavs/peruvian_match_declarative-broad-focus_Mariano-habla-del-tiempo.wav,./stim/wavs/puertorican_match_declarative-broad-focus_Mariano-habla-del-tiempo.wav,,,,,,,,,,,,,,,,,,,,,,,,,,,,,,,,,,,,,,,,,,,,,,,,,,,,,,,,
,,,,,,,5f23ff398626c51fdd6c3fb5,6057c54e64b0b4e5c128b4f9,6057fde7c5590f6a1b90c946,United States,Northeast,13 or older,no,2021-03-21_22h23.45.856,empathy_intonation_perc,2020.2.10,Win32,60,,,,,,,,,,0,mexican,0,1,1.42899,0,55,55,13,1,14,./stim/wavs/andalusian_match_declarative-narrow-focus_Maria-bebe-el-vino.wav,./stim/wavs/argentine_match_declarative-narrow-focus_Maria-bebe-el-vino.wav,./stim/wavs/castilian_match_declarative-narrow-focus_Maria-bebe-el-vino.wav,./stim/wavs/chilean_match_declarative-narrow-focus_Maria-bebe-el-vino.wav,./stim/wavs/cuban_match_declarative-narrow-focus_Maria-bebe-el-vino.wav,./stim/wavs/mexican_match_declarative-narrow-focus_Maria-bebe-el-vino.wav,./stim/wavs/peruvian_match_declarative-narrow-focus_Maria-bebe-el-vino.wav,./stim/wavs/puertorican_match_declarative-narrow-focus_Maria-bebe-el-vino.wav,,,,,,,,,,,,,,,,,,,,,,,,,,,,,,,,,,,,,,,,,,,,,,,,,,,,,,,,
,,,,,,,5f23ff398626c51fdd6c3fb5,6057c54e64b0b4e5c128b4f9,6057fde7c5590f6a1b90c946,United States,Northeast,13 or older,no,2021-03-21_22h23.45.856,empathy_intonation_perc,2020.2.10,Win32,60,,,,,,,,,,0,peruvian,0,1,2.15682,0,56,56,35,1,36,./stim/wavs/andalusian_mismatch_declarative-broad-focus_La-maestra-vive-en-Paris.wav,./stim/wavs/argentine_mismatch_declarative-broad-focus_La-maestra-vive-en-Paris.wav,./stim/wavs/castilian_mismatch_declarative-broad-focus_La-maestra-vive-en-Paris.wav,./stim/wavs/chilean_mismatch_declarative-broad-focus_La-maestra-vive-en-Paris.wav,./stim/wavs/cuban_mismatch_declarative-broad-focus_La-maestra-vive-en-Paris.wav,./stim/wavs/mexican_mismatch_declarative-broad-focus_La-maestra-vive-en-Paris.wav,./stim/wavs/peruvian_mismatch_declarative-broad-focus_La-maestra-vive-en-Paris.wav,./stim/wavs/puertorican_mismatch_declarative-broad-focus_La-maestra-vive-en-Paris.wav,,,,,,,,,,,,,,,,,,,,,,,,,,,,,,,,,,,,,,,,,,,,,,,,,,,,,,,,
,,,,,,,5f23ff398626c51fdd6c3fb5,6057c54e64b0b4e5c128b4f9,6057fde7c5590f6a1b90c946,United States,Northeast,13 or older,no,2021-03-21_22h23.45.856,empathy_intonation_perc,2020.2.10,Win32,60,,,,,,,,,,1,chilean,0,0,2.49792,0,57,57,25,1,26,./stim/wavs/andalusian_match_interrogative-total-yn_Daniel-iba-a-Bolivia.wav,./stim/wavs/argentine_match_interrogative-total-yn_Daniel-iba-a-Bolivia.wav,./stim/wavs/castilian_match_interrogative-total-yn_Daniel-iba-a-Bolivia.wav,./stim/wavs/chilean_match_interrogative-total-yn_Daniel-iba-a-Bolivia.wav,./stim/wavs/cuban_match_interrogative-total-yn_Daniel-iba-a-Bolivia.wav,./stim/wavs/mexican_match_interrogative-total-yn_Daniel-iba-a-Bolivia.wav,./stim/wavs/peruvian_match_interrogative-total-yn_Daniel-iba-a-Bolivia.wav,./stim/wavs/puertorican_match_interrogative-total-yn_Daniel-iba-a-Bolivia.wav,,,,,,,,,,,,,,,,,,,,,,,,,,,,,,,,,,,,,,,,,,,,,,,,,,,,,,,,
,,,,,,,5f23ff398626c51fdd6c3fb5,6057c54e64b0b4e5c128b4f9,6057fde7c5590f6a1b90c946,United States,Northeast,13 or older,no,2021-03-21_22h23.45.856,empathy_intonation_perc,2020.2.10,Win32,60,,,,,,,,,,0,andalusian,0,1,1.84192,0,58,58,43,1,44,./stim/wavs/andalusian_mismatch_declarative-narrow-focus_La-maestra-vive-en-Paris.wav,./stim/wavs/argentine_mismatch_declarative-narrow-focus_La-maestra-vive-en-Paris.wav,./stim/wavs/castilian_mismatch_declarative-narrow-focus_La-maestra-vive-en-Paris.wav,./stim/wavs/chilean_mismatch_declarative-narrow-focus_La-maestra-vive-en-Paris.wav,./stim/wavs/cuban_mismatch_declarative-narrow-focus_La-maestra-vive-en-Paris.wav,./stim/wavs/mexican_mismatch_declarative-narrow-focus_La-maestra-vive-en-Paris.wav,./stim/wavs/peruvian_mismatch_declarative-narrow-focus_La-maestra-vive-en-Paris.wav,./stim/wavs/puertorican_mismatch_declarative-narrow-focus_La-maestra-vive-en-Paris.wav,,,,,,,,,,,,,,,,,,,,,,,,,,,,,,,,,,,,,,,,,,,,,,,,,,,,,,,,
,,,,,,,5f23ff398626c51fdd6c3fb5,6057c54e64b0b4e5c128b4f9,6057fde7c5590f6a1b90c946,United States,Northeast,13 or older,no,2021-03-21_22h23.45.856,empathy_intonation_perc,2020.2.10,Win32,60,,,,,,,,,,0,argentine,0,1,1.68397,0,59,59,0,1,1,./stim/wavs/andalusian_match_declarative-broad-focus_Ana-lleva-el-abrigo.wav,./stim/wavs/argentine_match_declarative-broad-focus_Ana-lleva-el-abrigo.wav,./stim/wavs/castilian_match_declarative-broad-focus_Ana-lleva-el-abrigo.wav,./stim/wavs/chilean_match_declarative-broad-focus_Ana-lleva-el-abrigo.wav,./stim/wavs/cuban_match_declarative-broad-focus_Ana-lleva-el-abrigo.wav,./stim/wavs/mexican_match_declarative-broad-focus_Ana-lleva-el-abrigo.wav,./stim/wavs/peruvian_match_declarative-broad-focus_Ana-lleva-el-abrigo.wav,./stim/wavs/puertorican_match_declarative-broad-focus_Ana-lleva-el-abrigo.wav,,,,,,,,,,,,,,,,,,,,,,,,,,,,,,,,,,,,,,,,,,,,,,,,,,,,,,,,
,,,,,,,5f23ff398626c51fdd6c3fb5,6057c54e64b0b4e5c128b4f9,6057fde7c5590f6a1b90c946,United States,Northeast,13 or older,no,2021-03-21_22h23.45.856,empathy_intonation_perc,2020.2.10,Win32,60,,,,,,,,,,0,cuban,0,1,1.809365,0,60,60,34,1,35,./stim/wavs/andalusian_mismatch_declarative-broad-focus_El-nino-oye-el-rio.wav,./stim/wavs/argentine_mismatch_declarative-broad-focus_El-nino-oye-el-rio.wav,./stim/wavs/castilian_mismatch_declarative-broad-focus_El-nino-oye-el-rio.wav,./stim/wavs/chilean_mismatch_declarative-broad-focus_El-nino-oye-el-rio.wav,./stim/wavs/cuban_mismatch_declarative-broad-focus_El-nino-oye-el-rio.wav,./stim/wavs/mexican_mismatch_declarative-broad-focus_El-nino-oye-el-rio.wav,./stim/wavs/peruvian_mismatch_declarative-broad-focus_El-nino-oye-el-rio.wav,./stim/wavs/puertorican_mismatch_declarative-broad-focus_El-nino-oye-el-rio.wav,,,,,,,,,,,,,,,,,,,,,,,,,,,,,,,,,,,,,,,,,,,,,,,,,,,,,,,,
,,,,,,,5f23ff398626c51fdd6c3fb5,6057c54e64b0b4e5c128b4f9,6057fde7c5590f6a1b90c946,United States,Northeast,13 or older,no,2021-03-21_22h23.45.856,empathy_intonation_perc,2020.2.10,Win32,60,,,,,,,,,,1,puertorican,1,1,2.093745,0,61,61,18,1,19,./stim/wavs/andalusian_match_interrogative-partial-wh_Cuando-lleva-el-abrigo.wav,./stim/wavs/argentine_match_interrogative-partial-wh_Cuando-lleva-el-abrigo.wav,./stim/wavs/castilian_match_interrogative-partial-wh_Cuando-lleva-el-abrigo.wav,./stim/wavs/chilean_match_interrogative-partial-wh_Cuando-lleva-el-abrigo.wav,./stim/wavs/cuban_match_interrogative-partial-wh_Cuando-lleva-el-abrigo.wav,./stim/wavs/mexican_match_interrogative-partial-wh_Cuando-lleva-el-abrigo.wav,./stim/wavs/peruvian_match_interrogative-partial-wh_Cuando-lleva-el-abrigo.wav,./stim/wavs/puertorican_match_interrogative-partial-wh_Cuando-lleva-el-abrigo.wav,,,,,,,,,,,,,,,,,,,,,,,,,,,,,,,,,,,,,,,,,,,,,,,,,,,,,,,,
,,,,,,,5f23ff398626c51fdd6c3fb5,6057c54e64b0b4e5c128b4f9,6057fde7c5590f6a1b90c946,United States,Northeast,13 or older,no,2021-03-21_22h23.45.856,empathy_intonation_perc,2020.2.10,Win32,60,,,,,,,,,,0,argentine,0,1,1.89779,0,62,62,37,1,38,./stim/wavs/andalusian_mismatch_declarative-broad-focus_Mi-madre-come-la-fruta.wav,./stim/wavs/argentine_mismatch_declarative-broad-focus_Mi-madre-come-la-fruta.wav,./stim/wavs/castilian_mismatch_declarative-broad-focus_Mi-madre-come-la-fruta.wav,./stim/wavs/chilean_mismatch_declarative-broad-focus_Mi-madre-come-la-fruta.wav,./stim/wavs/cuban_mismatch_declarative-broad-focus_Mi-madre-come-la-fruta.wav,./stim/wavs/mexican_mismatch_declarative-broad-focus_Mi-madre-come-la-fruta.wav,./stim/wavs/peruvian_mismatch_declarative-broad-focus_Mi-madre-come-la-fruta.wav,./stim/wavs/puertorican_mismatch_declarative-broad-focus_Mi-madre-come-la-fruta.wav,,,,,,,,,,,,,,,,,,,,,,,,,,,,,,,,,,,,,,,,,,,,,,,,,,,,,,,,
,,,,,,,5f23ff398626c51fdd6c3fb5,6057c54e64b0b4e5c128b4f9,6057fde7c5590f6a1b90c946,United States,Northeast,13 or older,no,2021-03-21_22h23.45.856,empathy_intonation_perc,2020.2.10,Win32,60,,,,,,,,,,0,puertorican,0,1,1.97038,0,63,63,12,1,13,./stim/wavs/andalusian_match_declarative-narrow-focus_Manuela-vende-el-carro.wav,./stim/wavs/argentine_match_declarative-narrow-focus_Manuela-vende-el-carro.wav,./stim/wavs/castilian_match_declarative-narrow-focus_Manuela-vende-el-carro.wav,./stim/wavs/chilean_match_declarative-narrow-focus_Manuela-vende-el-carro.wav,./stim/wavs/cuban_match_declarative-narrow-focus_Manuela-vende-el-carro.wav,./stim/wavs/mexican_match_declarative-narrow-focus_Manuela-vende-el-carro.wav,./stim/wavs/peruvian_match_declarative-narrow-focus_Manuela-vende-el-carro.wav,./stim/wavs/puertorican_match_declarative-narrow-focus_Manuela-vende-el-carro.wav,,,,,,,,,,,,,,,,,,,,,,,,,,,,,,,,,,,,,,,,,,,,,,,,,,,,,,,,
,,,,,,,5f23ff398626c51fdd6c3fb5,6057c54e64b0b4e5c128b4f9,6057fde7c5590f6a1b90c946,United States,Northeast,13 or older,no,2021-03-21_22h23.45.856,empathy_intonation_perc,2020.2.10,Win32,60,,,,,,,,,,,,,,,,,,,,,,,,,,,,,h,1,6.482705,0,0,0,0,1,,,,,,,,,,,,,,,,,,,,,,,,,,,,,,,,,,,,,,,,,,,,,,,,
,,,,,"Great! Now we will move on. The next task consists of about 60 trials, in each of which you will see a string of letters. 
  
  Your task is to decide whether this is a real Spanish word or not.",(press the spacebar to continue),5f23ff398626c51fdd6c3fb5,6057c54e64b0b4e5c128b4f9,6057fde7c5590f6a1b90c946,United States,Northeast,13 or older,no,2021-03-21_22h23.45.856,empathy_intonation_perc,2020.2.10,Win32,60,,,,,,,,,,,,,,,,,,,,,,,,,,,,,,,,,,,,,0,0,0,0,1,,,,,,,,,,,,,,,,,,,,,,,,,,,,,,,,,,,,,,,,,,,
,,,,,"If you think it is an existing Spanish word, you type '1' (for 'REAL'), and if you think it is not an existing Spanish word, you type '0' (for 'FAKE').",(press the spacebar to continue),5f23ff398626c51fdd6c3fb5,6057c54e64b0b4e5c128b4f9,6057fde7c5590f6a1b90c946,United States,Northeast,13 or older,no,2021-03-21_22h23.45.856,empathy_intonation_perc,2020.2.10,Win32,60,,,,,,,,,,,,,,,,,,,,,,,,,,,,,,,,,,,,,0,1,1,1,1,,,,,,,,,,,,,,,,,,,,,,,,,,,,,,,,,,,,,,,,,,,
,,,,,"If you are sure that the word exists, even though you dont know its exact meaning, you may still respond '1' (REAL). 
  
  But if you are not sure if it is an existing word, you should respond '0' (FAKE).
  
  Let's do a practice round...",(press the spacebar to continue),5f23ff398626c51fdd6c3fb5,6057c54e64b0b4e5c128b4f9,6057fde7c5590f6a1b90c946,United States,Northeast,13 or older,no,2021-03-21_22h23.45.856,empathy_intonation_perc,2020.2.10,Win32,60,,,,,,,,,,,,,,,,,,,,,,,,,,,,,,,,,,,,,0,2,2,2,1,,,,,,,,,,,,,,,,,,,,,,,,,,,,,,,,,,,,,,,,,,,
,,,,,,,5f23ff398626c51fdd6c3fb5,6057c54e64b0b4e5c128b4f9,6057fde7c5590f6a1b90c946,United States,Northeast,13 or older,no,2021-03-21_22h23.45.856,empathy_intonation_perc,2020.2.10,Win32,60,,,,,,,,,,0,,,,,,,,,,,,,,,,,,,,,,,,,,,,,,,,0,1,1.49851,0,0,0,0,1,0,depiste,REAL,FAKE,,,,,,,,,,,,,,,,,,,,,,,,,,,,,,,
,,,,,,,5f23ff398626c51fdd6c3fb5,6057c54e64b0b4e5c128b4f9,6057fde7c5590f6a1b90c946,United States,Northeast,13 or older,no,2021-03-21_22h23.45.856,empathy_intonation_perc,2020.2.10,Win32,60,,,,,,,,,,1,,,,,,,,,,,,,,,,,,,,,,,,,,,,,,,,1,1,1.23173,0,1,1,1,1,0,s,REAL,FAKE,,,,,,,,,,,,,,,,,,,,,,,,,,,,,,,
,,,,,,,5f23ff398626c51fdd6c3fb5,6057c54e64b0b4e5c128b4f9,6057fde7c5590f6a1b90c946,United States,Northeast,13 or older,no,2021-03-21_22h23.45.856,empathy_intonation_perc,2020.2.10,Win32,60,,,,,,,,,,0,,,,,,,,,,,,,,,,,,,,,,,,,,,,,,,,0,1,1.38094,0,2,2,2,1,0,con,REAL,FAKE,,,,,,,,,,,,,,,,,,,,,,,,,,,,,,,
,,,,,,,5f23ff398626c51fdd6c3fb5,6057c54e64b0b4e5c128b4f9,6057fde7c5590f6a1b90c946,United States,Northeast,13 or older,no,2021-03-21_22h23.45.856,empathy_intonation_perc,2020.2.10,Win32,60,,,,,,,,,,0,,,,,,,,,,,,,,,,,,,,,,,,,,,,,,,,0,1,1.672545,0,3,3,3,1,0,calpar,REAL,FAKE,,,,,,,,,,,,,,,,,,,,,,,,,,,,,,,
,,,,,,,5f23ff398626c51fdd6c3fb5,6057c54e64b0b4e5c128b4f9,6057fde7c5590f6a1b90c946,United States,Northeast,13 or older,no,2021-03-21_22h23.45.856,empathy_intonation_perc,2020.2.10,Win32,60,,,,,,,,,,0,,,,,,,,,,,,,,,,,,,,,,,,,,,,,,,,0,1,0.733275,0,4,4,4,1,0,joten,REAL,FAKE,,,,,,,,,,,,,,,,,,,,,,,,,,,,,,,
,,,,,,,5f23ff398626c51fdd6c3fb5,6057c54e64b0b4e5c128b4f9,6057fde7c5590f6a1b90c946,United States,Northeast,13 or older,no,2021-03-21_22h23.45.856,empathy_intonation_perc,2020.2.10,Win32,60,,,,,,,,,,1,,,,,,,,,,,,,,,,,,,,,,,,,,,,,,,,1,1,0.880105,0,5,5,5,1,0,sacapuntas,REAL,FAKE,,,,,,,,,,,,,,,,,,,,,,,,,,,,,,,
,,,,,,,5f23ff398626c51fdd6c3fb5,6057c54e64b0b4e5c128b4f9,6057fde7c5590f6a1b90c946,United States,Northeast,13 or older,no,2021-03-21_22h23.45.856,empathy_intonation_perc,2020.2.10,Win32,60,,,,,,,,,,0,,,,,,,,,,,,,,,,,,,,,,,,,,,,,,,,0,1,1.05076,0,6,6,6,1,0,priba,REAL,FAKE,,,,,,,,,,,,,,,,,,,,,,,,,,,,,,,
,,,,,,,5f23ff398626c51fdd6c3fb5,6057c54e64b0b4e5c128b4f9,6057fde7c5590f6a1b90c946,United States,Northeast,13 or older,no,2021-03-21_22h23.45.856,empathy_intonation_perc,2020.2.10,Win32,60,,,,,,,,,,0,,,,,,,,,,,,,,,,,,,,,,,,,,,,,,,,0,1,1.130295,0,7,7,7,1,0,pelasula,REAL,FAKE,,,,,,,,,,,,,,,,,,,,,,,,,,,,,,,
,,,,,,,5f23ff398626c51fdd6c3fb5,6057c54e64b0b4e5c128b4f9,6057fde7c5590f6a1b90c946,United States,Northeast,13 or older,no,2021-03-21_22h23.45.856,empathy_intonation_perc,2020.2.10,Win32,60,,,,,,,,,,1,,,,,,,,,,,,,,,,,,,,,,,,,,,,,,,,1,1,0.734185,0,8,8,8,1,0,bien,REAL,FAKE,,,,,,,,,,,,,,,,,,,,,,,,,,,,,,,
,,,,,,,5f23ff398626c51fdd6c3fb5,6057c54e64b0b4e5c128b4f9,6057fde7c5590f6a1b90c946,United States,Northeast,13 or older,no,2021-03-21_22h23.45.856,empathy_intonation_perc,2020.2.10,Win32,60,,,,,,,,,,1,,,,,,,,,,,,,,,,,,,,,,,,,,,,,,,,1,1,0.731995,0,9,9,9,1,0,casa,REAL,FAKE,,,,,,,,,,,,,,,,,,,,,,,,,,,,,,,
,,,,,,,5f23ff398626c51fdd6c3fb5,6057c54e64b0b4e5c128b4f9,6057fde7c5590f6a1b90c946,United States,Northeast,13 or older,no,2021-03-21_22h23.45.856,empathy_intonation_perc,2020.2.10,Win32,60,,,,,,,,,,0,,,,,,,,,,,,,,,,,,,,,,,,,,,,,,,,0,1,0.85383,0,10,10,10,1,0,lejo,REAL,FAKE,,,,,,,,,,,,,,,,,,,,,,,,,,,,,,,
,,,,,,,5f23ff398626c51fdd6c3fb5,6057c54e64b0b4e5c128b4f9,6057fde7c5590f6a1b90c946,United States,Northeast,13 or older,no,2021-03-21_22h23.45.856,empathy_intonation_perc,2020.2.10,Win32,60,,,,,,,,,,0,,,,,,,,,,,,,,,,,,,,,,,,,,,,,,,,1,0,1.6046,0,11,11,11,1,0,pretantas,REAL,FAKE,,,,,,,,,,,,,,,,,,,,,,,,,,,,,,,
,,,,,,,5f23ff398626c51fdd6c3fb5,6057c54e64b0b4e5c128b4f9,6057fde7c5590f6a1b90c946,United States,Northeast,13 or older,no,2021-03-21_22h23.45.856,empathy_intonation_perc,2020.2.10,Win32,60,,,,,,,,,,1,,,,,,,,,,,,,,,,,,,,,,,,,,,,,,,,,,,,,,,,25,bisagra,,,0,0,1.213465,0,0,0,24,1,REAL,FAKE,,,,,,,,,,,,,,,,,,,,,
,,,,,,,5f23ff398626c51fdd6c3fb5,6057c54e64b0b4e5c128b4f9,6057fde7c5590f6a1b90c946,United States,Northeast,13 or older,no,2021-03-21_22h23.45.856,empathy_intonation_perc,2020.2.10,Win32,60,,,,,,,,,,1,,,,,,,,,,,,,,,,,,,,,,,,,,,,,,,,,,,,,,,,49,ganar,,,1,1,1.740245,0,1,1,48,1,REAL,FAKE,,,,,,,,,,,,,,,,,,,,,
,,,,,,,5f23ff398626c51fdd6c3fb5,6057c54e64b0b4e5c128b4f9,6057fde7c5590f6a1b90c946,United States,Northeast,13 or older,no,2021-03-21_22h23.45.856,empathy_intonation_perc,2020.2.10,Win32,60,,,,,,,,,,1,,,,,,,,,,,,,,,,,,,,,,,,,,,,,,,,,,,,,,,,2,pellizcar,,,0,0,2.03686,0,2,2,1,1,REAL,FAKE,,,,,,,,,,,,,,,,,,,,,
,,,,,,,5f23ff398626c51fdd6c3fb5,6057c54e64b0b4e5c128b4f9,6057fde7c5590f6a1b90c946,United States,Northeast,13 or older,no,2021-03-21_22h23.45.856,empathy_intonation_perc,2020.2.10,Win32,60,,,,,,,,,,1,,,,,,,,,,,,,,,,,,,,,,,,,,,,,,,,,,,,,,,,55,nevar,,,0,0,2.300615,0,3,3,54,1,REAL,FAKE,,,,,,,,,,,,,,,,,,,,,
,,,,,,,5f23ff398626c51fdd6c3fb5,6057c54e64b0b4e5c128b4f9,6057fde7c5590f6a1b90c946,United States,Northeast,13 or older,no,2021-03-21_22h23.45.856,empathy_intonation_perc,2020.2.10,Win32,60,,,,,,,,,,1,,,,,,,,,,,,,,,,,,,,,,,,,,,,,,,,,,,,,,,,64,orgulloso,,,1,1,1.32372,0,4,4,63,1,REAL,FAKE,,,,,,,,,,,,,,,,,,,,,
,,,,,,,5f23ff398626c51fdd6c3fb5,6057c54e64b0b4e5c128b4f9,6057fde7c5590f6a1b90c946,United States,Northeast,13 or older,no,2021-03-21_22h23.45.856,empathy_intonation_perc,2020.2.10,Win32,60,,,,,,,,,,0,,,,,,,,,,,,,,,,,,,,,,,,,,,,,,,,,,,,,,,,66,hacido,,,1,0,1.100035,0,5,5,65,1,REAL,FAKE,,,,,,,,,,,,,,,,,,,,,
,,,,,,,5f23ff398626c51fdd6c3fb5,6057c54e64b0b4e5c128b4f9,6057fde7c5590f6a1b90c946,United States,Northeast,13 or older,no,2021-03-21_22h23.45.856,empathy_intonation_perc,2020.2.10,Win32,60,,,,,,,,,,0,,,,,,,,,,,,,,,,,,,,,,,,,,,,,,,,,,,,,,,,32,fatacidad,,,0,1,1.73115,0,6,6,31,1,REAL,FAKE,,,,,,,,,,,,,,,,,,,,,
,,,,,,,5f23ff398626c51fdd6c3fb5,6057c54e64b0b4e5c128b4f9,6057fde7c5590f6a1b90c946,United States,Northeast,13 or older,no,2021-03-21_22h23.45.856,empathy_intonation_perc,2020.2.10,Win32,60,,,,,,,,,,0,,,,,,,,,,,,,,,,,,,,,,,,,,,,,,,,,,,,,,,,79,tropaje,,,0,1,1.105485,0,7,7,78,1,REAL,FAKE,,,,,,,,,,,,,,,,,,,,,
,,,,,,,5f23ff398626c51fdd6c3fb5,6057c54e64b0b4e5c128b4f9,6057fde7c5590f6a1b90c946,United States,Northeast,13 or older,no,2021-03-21_22h23.45.856,empathy_intonation_perc,2020.2.10,Win32,60,,,,,,,,,,1,,,,,,,,,,,,,,,,,,,,,,,,,,,,,,,,,,,,,,,,89,prisa,,,1,1,1.38989,0,8,8,88,1,REAL,FAKE,,,,,,,,,,,,,,,,,,,,,
,,,,,,,5f23ff398626c51fdd6c3fb5,6057c54e64b0b4e5c128b4f9,6057fde7c5590f6a1b90c946,United States,Northeast,13 or older,no,2021-03-21_22h23.45.856,empathy_intonation_perc,2020.2.10,Win32,60,,,,,,,,,,0,,,,,,,,,,,,,,,,,,,,,,,,,,,,,,,,,,,,,,,,87,grodo,,,0,1,0.969255,0,9,9,86,1,REAL,FAKE,,,,,,,,,,,,,,,,,,,,,
,,,,,,,5f23ff398626c51fdd6c3fb5,6057c54e64b0b4e5c128b4f9,6057fde7c5590f6a1b90c946,United States,Northeast,13 or older,no,2021-03-21_22h23.45.856,empathy_intonation_perc,2020.2.10,Win32,60,,,,,,,,,,1,,,,,,,,,,,,,,,,,,,,,,,,,,,,,,,,,,,,,,,,7,psimo,,,1,1,0.796065,0,10,10,6,1,REAL,FAKE,,,,,,,,,,,,,,,,,,,,,
,,,,,,,5f23ff398626c51fdd6c3fb5,6057c54e64b0b4e5c128b4f9,6057fde7c5590f6a1b90c946,United States,Northeast,13 or older,no,2021-03-21_22h23.45.856,empathy_intonation_perc,2020.2.10,Win32,60,,,,,,,,,,0,,,,,,,,,,,,,,,,,,,,,,,,,,,,,,,,,,,,,,,,70,temblo,,,0,1,1.017045,0,11,11,69,1,REAL,FAKE,,,,,,,,,,,,,,,,,,,,,
,,,,,,,5f23ff398626c51fdd6c3fb5,6057c54e64b0b4e5c128b4f9,6057fde7c5590f6a1b90c946,United States,Northeast,13 or older,no,2021-03-21_22h23.45.856,empathy_intonation_perc,2020.2.10,Win32,60,,,,,,,,,,1,,,,,,,,,,,,,,,,,,,,,,,,,,,,,,,,,,,,,,,,77,tiburn,,,1,1,1.436545,0,12,12,76,1,REAL,FAKE,,,,,,,,,,,,,,,,,,,,,
,,,,,,,5f23ff398626c51fdd6c3fb5,6057c54e64b0b4e5c128b4f9,6057fde7c5590f6a1b90c946,United States,Northeast,13 or older,no,2021-03-21_22h23.45.856,empathy_intonation_perc,2020.2.10,Win32,60,,,,,,,,,,1,,,,,,,,,,,,,,,,,,,,,,,,,,,,,,,,,,,,,,,,59,besar,,,1,1,0.82882,0,13,13,58,1,REAL,FAKE,,,,,,,,,,,,,,,,,,,,,
,,,,,,,5f23ff398626c51fdd6c3fb5,6057c54e64b0b4e5c128b4f9,6057fde7c5590f6a1b90c946,United States,Northeast,13 or older,no,2021-03-21_22h23.45.856,empathy_intonation_perc,2020.2.10,Win32,60,,,,,,,,,,1,,,,,,,,,,,,,,,,,,,,,,,,,,,,,,,,,,,,,,,,90,clavel,,,0,0,0.88112,0,14,14,89,1,REAL,FAKE,,,,,,,,,,,,,,,,,,,,,
,,,,,,,5f23ff398626c51fdd6c3fb5,6057c54e64b0b4e5c128b4f9,6057fde7c5590f6a1b90c946,United States,Northeast,13 or older,no,2021-03-21_22h23.45.856,empathy_intonation_perc,2020.2.10,Win32,60,,,,,,,,,,1,,,,,,,,,,,,,,,,,,,,,,,,,,,,,,,,,,,,,,,,73,hervidor,,,0,0,3.48253,0,15,15,72,1,REAL,FAKE,,,,,,,,,,,,,,,,,,,,,
,,,,,,,5f23ff398626c51fdd6c3fb5,6057c54e64b0b4e5c128b4f9,6057fde7c5590f6a1b90c946,United States,Northeast,13 or older,no,2021-03-21_22h23.45.856,empathy_intonation_perc,2020.2.10,Win32,60,,,,,,,,,,1,,,,,,,,,,,,,,,,,,,,,,,,,,,,,,,,,,,,,,,,75,yacer,,,0,0,1.14651,0,16,16,74,1,REAL,FAKE,,,,,,,,,,,,,,,,,,,,,
,,,,,,,5f23ff398626c51fdd6c3fb5,6057c54e64b0b4e5c128b4f9,6057fde7c5590f6a1b90c946,United States,Northeast,13 or older,no,2021-03-21_22h23.45.856,empathy_intonation_perc,2020.2.10,Win32,60,,,,,,,,,,0,,,,,,,,,,,,,,,,,,,,,,,,,,,,,,,,,,,,,,,,42,cadallo,,,0,1,1.9137,0,17,17,41,1,REAL,FAKE,,,,,,,,,,,,,,,,,,,,,
,,,,,,,5f23ff398626c51fdd6c3fb5,6057c54e64b0b4e5c128b4f9,6057fde7c5590f6a1b90c946,United States,Northeast,13 or older,no,2021-03-21_22h23.45.856,empathy_intonation_perc,2020.2.10,Win32,60,,,,,,,,,,0,,,,,,,,,,,,,,,,,,,,,,,,,,,,,,,,,,,,,,,,8,cadea,,,1,0,0.812225,0,18,18,7,1,REAL,FAKE,,,,,,,,,,,,,,,,,,,,,
,,,,,,,5f23ff398626c51fdd6c3fb5,6057c54e64b0b4e5c128b4f9,6057fde7c5590f6a1b90c946,United States,Northeast,13 or older,no,2021-03-21_22h23.45.856,empathy_intonation_perc,2020.2.10,Win32,60,,,,,,,,,,1,,,,,,,,,,,,,,,,,,,,,,,,,,,,,,,,,,,,,,,,13,helar,,,1,1,0.879525,0,19,19,12,1,REAL,FAKE,,,,,,,,,,,,,,,,,,,,,
,,,,,,,5f23ff398626c51fdd6c3fb5,6057c54e64b0b4e5c128b4f9,6057fde7c5590f6a1b90c946,United States,Northeast,13 or older,no,2021-03-21_22h23.45.856,empathy_intonation_perc,2020.2.10,Win32,60,,,,,,,,,,0,,,,,,,,,,,,,,,,,,,,,,,,,,,,,,,,,,,,,,,,21,capillo,,,0,1,1.174535,0,20,20,20,1,REAL,FAKE,,,,,,,,,,,,,,,,,,,,,
,,,,,,,5f23ff398626c51fdd6c3fb5,6057c54e64b0b4e5c128b4f9,6057fde7c5590f6a1b90c946,United States,Northeast,13 or older,no,2021-03-21_22h23.45.856,empathy_intonation_perc,2020.2.10,Win32,60,,,,,,,,,,0,,,,,,,,,,,,,,,,,,,,,,,,,,,,,,,,,,,,,,,,16,abracer,,,1,0,0.813965,0,21,21,15,1,REAL,FAKE,,,,,,,,,,,,,,,,,,,,,
,,,,,,,5f23ff398626c51fdd6c3fb5,6057c54e64b0b4e5c128b4f9,6057fde7c5590f6a1b90c946,United States,Northeast,13 or older,no,2021-03-21_22h23.45.856,empathy_intonation_perc,2020.2.10,Win32,60,,,,,,,,,,1,,,,,,,,,,,,,,,,,,,,,,,,,,,,,,,,,,,,,,,,44,cuchara,,,1,1,1.29433,0,22,22,43,1,REAL,FAKE,,,,,,,,,,,,,,,,,,,,,
,,,,,,,5f23ff398626c51fdd6c3fb5,6057c54e64b0b4e5c128b4f9,6057fde7c5590f6a1b90c946,United States,Northeast,13 or older,no,2021-03-21_22h23.45.856,empathy_intonation_perc,2020.2.10,Win32,60,,,,,,,,,,1,,,,,,,,,,,,,,,,,,,,,,,,,,,,,,,,,,,,,,,,40,alfombra,,,0,0,0.87889,0,23,23,39,1,REAL,FAKE,,,,,,,,,,,,,,,,,,,,,
,,,,,,,5f23ff398626c51fdd6c3fb5,6057c54e64b0b4e5c128b4f9,6057fde7c5590f6a1b90c946,United States,Northeast,13 or older,no,2021-03-21_22h23.45.856,empathy_intonation_perc,2020.2.10,Win32,60,,,,,,,,,,1,,,,,,,,,,,,,,,,,,,,,,,,,,,,,,,,,,,,,,,,56,musgo,,,0,0,0.79745,0,24,24,55,1,REAL,FAKE,,,,,,,,,,,,,,,,,,,,,
,,,,,,,5f23ff398626c51fdd6c3fb5,6057c54e64b0b4e5c128b4f9,6057fde7c5590f6a1b90c946,United States,Northeast,13 or older,no,2021-03-21_22h23.45.856,empathy_intonation_perc,2020.2.10,Win32,60,,,,,,,,,,0,,,,,,,,,,,,,,,,,,,,,,,,,,,,,,,,,,,,,,,,53,vegada,,,0,1,0.82898,0,25,25,52,1,REAL,FAKE,,,,,,,,,,,,,,,,,,,,,
,,,,,,,5f23ff398626c51fdd6c3fb5,6057c54e64b0b4e5c128b4f9,6057fde7c5590f6a1b90c946,United States,Northeast,13 or older,no,2021-03-21_22h23.45.856,empathy_intonation_perc,2020.2.10,Win32,60,,,,,,,,,,1,,,,,,,,,,,,,,,,,,,,,,,,,,,,,,,,,,,,,,,,31,pandilla,,,0,0,0.92157,0,26,26,30,1,REAL,FAKE,,,,,,,,,,,,,,,,,,,,,
,,,,,,,5f23ff398626c51fdd6c3fb5,6057c54e64b0b4e5c128b4f9,6057fde7c5590f6a1b90c946,United States,Northeast,13 or older,no,2021-03-21_22h23.45.856,empathy_intonation_perc,2020.2.10,Win32,60,,,,,,,,,,1,,,,,,,,,,,,,,,,,,,,,,,,,,,,,,,,,,,,,,,,52,camisa,,,1,1,0.73512,0,27,27,51,1,REAL,FAKE,,,,,,,,,,,,,,,,,,,,,
,,,,,,,5f23ff398626c51fdd6c3fb5,6057c54e64b0b4e5c128b4f9,6057fde7c5590f6a1b90c946,United States,Northeast,13 or older,no,2021-03-21_22h23.45.856,empathy_intonation_perc,2020.2.10,Win32,60,,,,,,,,,,1,,,,,,,,,,,,,,,,,,,,,,,,,,,,,,,,,,,,,,,,24,ltigo,,,0,0,1.618885,0,28,28,23,1,REAL,FAKE,,,,,,,,,,,,,,,,,,,,,
,,,,,,,5f23ff398626c51fdd6c3fb5,6057c54e64b0b4e5c128b4f9,6057fde7c5590f6a1b90c946,United States,Northeast,13 or older,no,2021-03-21_22h23.45.856,empathy_intonation_perc,2020.2.10,Win32,60,,,,,,,,,,1,,,,,,,,,,,,,,,,,,,,,,,,,,,,,,,,,,,,,,,,20,vido,,,1,1,0.85127,0,29,29,19,1,REAL,FAKE,,,,,,,,,,,,,,,,,,,,,
,,,,,,,5f23ff398626c51fdd6c3fb5,6057c54e64b0b4e5c128b4f9,6057fde7c5590f6a1b90c946,United States,Northeast,13 or older,no,2021-03-21_22h23.45.856,empathy_intonation_perc,2020.2.10,Win32,60,,,,,,,,,,1,,,,,,,,,,,,,,,,,,,,,,,,,,,,,,,,,,,,,,,,37,granuja,,,0,0,1.380215,0,30,30,36,1,REAL,FAKE,,,,,,,,,,,,,,,,,,,,,
,,,,,,,5f23ff398626c51fdd6c3fb5,6057c54e64b0b4e5c128b4f9,6057fde7c5590f6a1b90c946,United States,Northeast,13 or older,no,2021-03-21_22h23.45.856,empathy_intonation_perc,2020.2.10,Win32,60,,,,,,,,,,0,,,,,,,,,,,,,,,,,,,,,,,,,,,,,,,,,,,,,,,,72,pemicin,,,0,1,1.27936,0,31,31,71,1,REAL,FAKE,,,,,,,,,,,,,,,,,,,,,
,,,,,,,5f23ff398626c51fdd6c3fb5,6057c54e64b0b4e5c128b4f9,6057fde7c5590f6a1b90c946,United States,Northeast,13 or older,no,2021-03-21_22h23.45.856,empathy_intonation_perc,2020.2.10,Win32,60,,,,,,,,,,1,,,,,,,,,,,,,,,,,,,,,,,,,,,,,,,,,,,,,,,,85,lad,,,0,0,1.348465,0,32,32,84,1,REAL,FAKE,,,,,,,,,,,,,,,,,,,,,
,,,,,,,5f23ff398626c51fdd6c3fb5,6057c54e64b0b4e5c128b4f9,6057fde7c5590f6a1b90c946,United States,Northeast,13 or older,no,2021-03-21_22h23.45.856,empathy_intonation_perc,2020.2.10,Win32,60,,,,,,,,,,1,,,,,,,,,,,,,,,,,,,,,,,,,,,,,,,,,,,,,,,,5,zapato,,,1,1,1.02357,0,33,33,4,1,REAL,FAKE,,,,,,,,,,,,,,,,,,,,,
,,,,,,,5f23ff398626c51fdd6c3fb5,6057c54e64b0b4e5c128b4f9,6057fde7c5590f6a1b90c946,United States,Northeast,13 or older,no,2021-03-21_22h23.45.856,empathy_intonation_perc,2020.2.10,Win32,60,,,,,,,,,,1,,,,,,,,,,,,,,,,,,,,,,,,,,,,,,,,,,,,,,,,86,barato,,,0,0,1.344915,0,34,34,85,1,REAL,FAKE,,,,,,,,,,,,,,,,,,,,,
,,,,,,,5f23ff398626c51fdd6c3fb5,6057c54e64b0b4e5c128b4f9,6057fde7c5590f6a1b90c946,United States,Northeast,13 or older,no,2021-03-21_22h23.45.856,empathy_intonation_perc,2020.2.10,Win32,60,,,,,,,,,,1,,,,,,,,,,,,,,,,,,,,,,,,,,,,,,,,,,,,,,,,9,hacha,,,0,0,0.91192,0,35,35,8,1,REAL,FAKE,,,,,,,,,,,,,,,,,,,,,
,,,,,,,5f23ff398626c51fdd6c3fb5,6057c54e64b0b4e5c128b4f9,6057fde7c5590f6a1b90c946,United States,Northeast,13 or older,no,2021-03-21_22h23.45.856,empathy_intonation_perc,2020.2.10,Win32,60,,,,,,,,,,1,,,,,,,,,,,,,,,,,,,,,,,,,,,,,,,,,,,,,,,,36,loro,,,0,0,0.760265,0,36,36,35,1,REAL,FAKE,,,,,,,,,,,,,,,,,,,,,
,,,,,,,5f23ff398626c51fdd6c3fb5,6057c54e64b0b4e5c128b4f9,6057fde7c5590f6a1b90c946,United States,Northeast,13 or older,no,2021-03-21_22h23.45.856,empathy_intonation_perc,2020.2.10,Win32,60,,,,,,,,,,1,,,,,,,,,,,,,,,,,,,,,,,,,,,,,,,,,,,,,,,,80,hormiga,,,0,0,0.7824,0,37,37,79,1,REAL,FAKE,,,,,,,,,,,,,,,,,,,,,
,,,,,,,5f23ff398626c51fdd6c3fb5,6057c54e64b0b4e5c128b4f9,6057fde7c5590f6a1b90c946,United States,Northeast,13 or older,no,2021-03-21_22h23.45.856,empathy_intonation_perc,2020.2.10,Win32,60,,,,,,,,,,1,,,,,,,,,,,,,,,,,,,,,,,,,,,,,,,,,,,,,,,,3,pulmones,,,1,1,1.140845,0,38,38,2,1,REAL,FAKE,,,,,,,,,,,,,,,,,,,,,
,,,,,,,5f23ff398626c51fdd6c3fb5,6057c54e64b0b4e5c128b4f9,6057fde7c5590f6a1b90c946,United States,Northeast,13 or older,no,2021-03-21_22h23.45.856,empathy_intonation_perc,2020.2.10,Win32,60,,,,,,,,,,1,,,,,,,,,,,,,,,,,,,,,,,,,,,,,,,,,,,,,,,,11,cenefa,,,0,0,0.830085,0,39,39,10,1,REAL,FAKE,,,,,,,,,,,,,,,,,,,,,
,,,,,,,5f23ff398626c51fdd6c3fb5,6057c54e64b0b4e5c128b4f9,6057fde7c5590f6a1b90c946,United States,Northeast,13 or older,no,2021-03-21_22h23.45.856,empathy_intonation_perc,2020.2.10,Win32,60,,,,,,,,,,1,,,,,,,,,,,,,,,,,,,,,,,,,,,,,,,,,,,,,,,,62,flaco,,,1,1,0.79775,0,40,40,61,1,REAL,FAKE,,,,,,,,,,,,,,,,,,,,,
,,,,,,,5f23ff398626c51fdd6c3fb5,6057c54e64b0b4e5c128b4f9,6057fde7c5590f6a1b90c946,United States,Northeast,13 or older,no,2021-03-21_22h23.45.856,empathy_intonation_perc,2020.2.10,Win32,60,,,,,,,,,,1,,,,,,,,,,,,,,,,,,,,,,,,,,,,,,,,,,,,,,,,88,acantilado,,,1,1,1.836065,0,41,41,87,1,REAL,FAKE,,,,,,,,,,,,,,,,,,,,,
,,,,,,,5f23ff398626c51fdd6c3fb5,6057c54e64b0b4e5c128b4f9,6057fde7c5590f6a1b90c946,United States,Northeast,13 or older,no,2021-03-21_22h23.45.856,empathy_intonation_perc,2020.2.10,Win32,60,,,,,,,,,,0,,,,,,,,,,,,,,,,,,,,,,,,,,,,,,,,,,,,,,,,50,flamida,,,0,1,1.29537,0,42,42,49,1,REAL,FAKE,,,,,,,,,,,,,,,,,,,,,
,,,,,,,5f23ff398626c51fdd6c3fb5,6057c54e64b0b4e5c128b4f9,6057fde7c5590f6a1b90c946,United States,Northeast,13 or older,no,2021-03-21_22h23.45.856,empathy_intonation_perc,2020.2.10,Win32,60,,,,,,,,,,1,,,,,,,,,,,,,,,,,,,,,,,,,,,,,,,,,,,,,,,,15,regar,,,1,1,0.78589,0,43,43,14,1,REAL,FAKE,,,,,,,,,,,,,,,,,,,,,
,,,,,,,5f23ff398626c51fdd6c3fb5,6057c54e64b0b4e5c128b4f9,6057fde7c5590f6a1b90c946,United States,Northeast,13 or older,no,2021-03-21_22h23.45.856,empathy_intonation_perc,2020.2.10,Win32,60,,,,,,,,,,1,,,,,,,,,,,,,,,,,,,,,,,,,,,,,,,,,,,,,,,,43,canela,,,0,0,1.04631,0,44,44,42,1,REAL,FAKE,,,,,,,,,,,,,,,,,,,,,
,,,,,,,5f23ff398626c51fdd6c3fb5,6057c54e64b0b4e5c128b4f9,6057fde7c5590f6a1b90c946,United States,Northeast,13 or older,no,2021-03-21_22h23.45.856,empathy_intonation_perc,2020.2.10,Win32,60,,,,,,,,,,0,,,,,,,,,,,,,,,,,,,,,,,,,,,,,,,,,,,,,,,,82,empirador,,,1,0,1.113245,0,45,45,81,1,REAL,FAKE,,,,,,,,,,,,,,,,,,,,,
,,,,,,,5f23ff398626c51fdd6c3fb5,6057c54e64b0b4e5c128b4f9,6057fde7c5590f6a1b90c946,United States,Northeast,13 or older,no,2021-03-21_22h23.45.856,empathy_intonation_perc,2020.2.10,Win32,60,,,,,,,,,,1,,,,,,,,,,,,,,,,,,,,,,,,,,,,,,,,,,,,,,,,60,matar,,,0,0,1.148,0,46,46,59,1,REAL,FAKE,,,,,,,,,,,,,,,,,,,,,
,,,,,,,5f23ff398626c51fdd6c3fb5,6057c54e64b0b4e5c128b4f9,6057fde7c5590f6a1b90c946,United States,Northeast,13 or older,no,2021-03-21_22h23.45.856,empathy_intonation_perc,2020.2.10,Win32,60,,,,,,,,,,0,,,,,,,,,,,,,,,,,,,,,,,,,,,,,,,,,,,,,,,,18,arsa,,,0,1,1.209415,0,47,47,17,1,REAL,FAKE,,,,,,,,,,,,,,,,,,,,,
,,,,,,,5f23ff398626c51fdd6c3fb5,6057c54e64b0b4e5c128b4f9,6057fde7c5590f6a1b90c946,United States,Northeast,13 or older,no,2021-03-21_22h23.45.856,empathy_intonation_perc,2020.2.10,Win32,60,,,,,,,,,,1,,,,,,,,,,,,,,,,,,,,,,,,,,,,,,,,,,,,,,,,48,ladrn,,,0,0,0.961225,0,48,48,47,1,REAL,FAKE,,,,,,,,,,,,,,,,,,,,,
,,,,,,,5f23ff398626c51fdd6c3fb5,6057c54e64b0b4e5c128b4f9,6057fde7c5590f6a1b90c946,United States,Northeast,13 or older,no,2021-03-21_22h23.45.856,empathy_intonation_perc,2020.2.10,Win32,60,,,,,,,,,,0,,,,,,,,,,,,,,,,,,,,,,,,,,,,,,,,,,,,,,,,23,lampera,,,1,0,1.133035,0,49,49,22,1,REAL,FAKE,,,,,,,,,,,,,,,,,,,,,
,,,,,,,5f23ff398626c51fdd6c3fb5,6057c54e64b0b4e5c128b4f9,6057fde7c5590f6a1b90c946,United States,Northeast,13 or older,no,2021-03-21_22h23.45.856,empathy_intonation_perc,2020.2.10,Win32,60,,,,,,,,,,0,,,,,,,,,,,,,,,,,,,,,,,,,,,,,,,,,,,,,,,,4,batilln,,,1,0,1.105355,0,50,50,3,1,REAL,FAKE,,,,,,,,,,,,,,,,,,,,,
,,,,,,,5f23ff398626c51fdd6c3fb5,6057c54e64b0b4e5c128b4f9,6057fde7c5590f6a1b90c946,United States,Northeast,13 or older,no,2021-03-21_22h23.45.856,empathy_intonation_perc,2020.2.10,Win32,60,,,,,,,,,,1,,,,,,,,,,,,,,,,,,,,,,,,,,,,,,,,,,,,,,,,65,bizcocho,,,0,0,1.41052,0,51,51,64,1,REAL,FAKE,,,,,,,,,,,,,,,,,,,,,
,,,,,,,5f23ff398626c51fdd6c3fb5,6057c54e64b0b4e5c128b4f9,6057fde7c5590f6a1b90c946,United States,Northeast,13 or older,no,2021-03-21_22h23.45.856,empathy_intonation_perc,2020.2.10,Win32,60,,,,,,,,,,1,,,,,,,,,,,,,,,,,,,,,,,,,,,,,,,,,,,,,,,,61,seda,,,0,0,1.64625,0,52,52,60,1,REAL,FAKE,,,,,,,,,,,,,,,,,,,,,
,,,,,,,5f23ff398626c51fdd6c3fb5,6057c54e64b0b4e5c128b4f9,6057fde7c5590f6a1b90c946,United States,Northeast,13 or older,no,2021-03-21_22h23.45.856,empathy_intonation_perc,2020.2.10,Win32,60,,,,,,,,,,1,,,,,,,,,,,,,,,,,,,,,,,,,,,,,,,,,,,,,,,,54,fomentar,,,0,0,1.418115,0,53,53,53,1,REAL,FAKE,,,,,,,,,,,,,,,,,,,,,
,,,,,,,5f23ff398626c51fdd6c3fb5,6057c54e64b0b4e5c128b4f9,6057fde7c5590f6a1b90c946,United States,Northeast,13 or older,no,2021-03-21_22h23.45.856,empathy_intonation_perc,2020.2.10,Win32,60,,,,,,,,,,0,,,,,,,,,,,,,,,,,,,,,,,,,,,,,,,,,,,,,,,,74,cintro,,,1,0,0.81103,0,54,54,73,1,REAL,FAKE,,,,,,,,,,,,,,,,,,,,,
,,,,,,,5f23ff398626c51fdd6c3fb5,6057c54e64b0b4e5c128b4f9,6057fde7c5590f6a1b90c946,United States,Northeast,13 or older,no,2021-03-21_22h23.45.856,empathy_intonation_perc,2020.2.10,Win32,60,,,,,,,,,,1,,,,,,,,,,,,,,,,,,,,,,,,,,,,,,,,,,,,,,,,81,pozo,,,0,0,0.749635,0,55,55,80,1,REAL,FAKE,,,,,,,,,,,,,,,,,,,,,
,,,,,,,5f23ff398626c51fdd6c3fb5,6057c54e64b0b4e5c128b4f9,6057fde7c5590f6a1b90c946,United States,Northeast,13 or older,no,2021-03-21_22h23.45.856,empathy_intonation_perc,2020.2.10,Win32,60,,,,,,,,,,1,,,,,,,,,,,,,,,,,,,,,,,,,,,,,,,,,,,,,,,,26,secuestro,,,1,1,1.05566,0,56,56,25,1,REAL,FAKE,,,,,,,,,,,,,,,,,,,,,
,,,,,,,5f23ff398626c51fdd6c3fb5,6057c54e64b0b4e5c128b4f9,6057fde7c5590f6a1b90c946,United States,Northeast,13 or older,no,2021-03-21_22h23.45.856,empathy_intonation_perc,2020.2.10,Win32,60,,,,,,,,,,1,,,,,,,,,,,,,,,,,,,,,,,,,,,,,,,,,,,,,,,,6,tergiversar,,,0,0,1.170535,0,57,57,5,1,REAL,FAKE,,,,,,,,,,,,,,,,,,,,,
,,,,,,,5f23ff398626c51fdd6c3fb5,6057c54e64b0b4e5c128b4f9,6057fde7c5590f6a1b90c946,United States,Northeast,13 or older,no,2021-03-21_22h23.45.856,empathy_intonation_perc,2020.2.10,Win32,60,,,,,,,,,,0,,,,,,,,,,,,,,,,,,,,,,,,,,,,,,,,,,,,,,,,84,escuto,,,1,0,2.10201,0,58,58,83,1,REAL,FAKE,,,,,,,,,,,,,,,,,,,,,
,,,,,,,5f23ff398626c51fdd6c3fb5,6057c54e64b0b4e5c128b4f9,6057fde7c5590f6a1b90c946,United States,Northeast,13 or older,no,2021-03-21_22h23.45.856,empathy_intonation_perc,2020.2.10,Win32,60,,,,,,,,,,1,,,,,,,,,,,,,,,,,,,,,,,,,,,,,,,,,,,,,,,,28,merodear,,,0,0,0.70189,0,59,59,27,1,REAL,FAKE,,,,,,,,,,,,,,,,,,,,,
,,,,,,,5f23ff398626c51fdd6c3fb5,6057c54e64b0b4e5c128b4f9,6057fde7c5590f6a1b90c946,United States,Northeast,13 or older,no,2021-03-21_22h23.45.856,empathy_intonation_perc,2020.2.10,Win32,60,,,,,,,,,,1,,,,,,,,,,,,,,,,,,,,,,,,,,,,,,,,,,,,,,,,34,aviso,,,1,1,0.88815,0,60,60,33,1,REAL,FAKE,,,,,,,,,,,,,,,,,,,,,
,,,,,,,5f23ff398626c51fdd6c3fb5,6057c54e64b0b4e5c128b4f9,6057fde7c5590f6a1b90c946,United States,Northeast,13 or older,no,2021-03-21_22h23.45.856,empathy_intonation_perc,2020.2.10,Win32,60,,,,,,,,,,1,,,,,,,,,,,,,,,,,,,,,,,,,,,,,,,,,,,,,,,,46,martillo,,,1,1,1.42567,0,61,61,45,1,REAL,FAKE,,,,,,,,,,,,,,,,,,,,,
,,,,,,,5f23ff398626c51fdd6c3fb5,6057c54e64b0b4e5c128b4f9,6057fde7c5590f6a1b90c946,United States,Northeast,13 or older,no,2021-03-21_22h23.45.856,empathy_intonation_perc,2020.2.10,Win32,60,,,,,,,,,,0,,,,,,,,,,,,,,,,,,,,,,,,,,,,,,,,,,,,,,,,58,plaudir,,,0,1,0.66502,0,62,62,57,1,REAL,FAKE,,,,,,,,,,,,,,,,,,,,,
,,,,,,,5f23ff398626c51fdd6c3fb5,6057c54e64b0b4e5c128b4f9,6057fde7c5590f6a1b90c946,United States,Northeast,13 or older,no,2021-03-21_22h23.45.856,empathy_intonation_perc,2020.2.10,Win32,60,,,,,,,,,,1,,,,,,,,,,,,,,,,,,,,,,,,,,,,,,,,,,,,,,,,45,jilguero,,,0,0,2.250585,0,63,63,44,1,REAL,FAKE,,,,,,,,,,,,,,,,,,,,,
,,,,,,,5f23ff398626c51fdd6c3fb5,6057c54e64b0b4e5c128b4f9,6057fde7c5590f6a1b90c946,United States,Northeast,13 or older,no,2021-03-21_22h23.45.856,empathy_intonation_perc,2020.2.10,Win32,60,,,,,,,,,,1,,,,,,,,,,,,,,,,,,,,,,,,,,,,,,,,,,,,,,,,76,atar,,,0,0,0.93691,0,64,64,75,1,REAL,FAKE,,,,,,,,,,,,,,,,,,,,,
,,,,,,,5f23ff398626c51fdd6c3fb5,6057c54e64b0b4e5c128b4f9,6057fde7c5590f6a1b90c946,United States,Northeast,13 or older,no,2021-03-21_22h23.45.856,empathy_intonation_perc,2020.2.10,Win32,60,,,,,,,,,,0,,,,,,,,,,,,,,,,,,,,,,,,,,,,,,,,,,,,,,,,30,alardio,,,0,1,0.879665,0,65,65,29,1,REAL,FAKE,,,,,,,,,,,,,,,,,,,,,
,,,,,,,5f23ff398626c51fdd6c3fb5,6057c54e64b0b4e5c128b4f9,6057fde7c5590f6a1b90c946,United States,Northeast,13 or older,no,2021-03-21_22h23.45.856,empathy_intonation_perc,2020.2.10,Win32,60,,,,,,,,,,1,,,,,,,,,,,,,,,,,,,,,,,,,,,,,,,,,,,,,,,,22,lacayo,,,0,0,0.8526,0,66,66,21,1,REAL,FAKE,,,,,,,,,,,,,,,,,,,,,
,,,,,,,5f23ff398626c51fdd6c3fb5,6057c54e64b0b4e5c128b4f9,6057fde7c5590f6a1b90c946,United States,Northeast,13 or older,no,2021-03-21_22h23.45.856,empathy_intonation_perc,2020.2.10,Win32,60,,,,,,,,,,0,,,,,,,,,,,,,,,,,,,,,,,,,,,,,,,,,,,,,,,,19,brecedad,,,0,1,0.852695,0,67,67,18,1,REAL,FAKE,,,,,,,,,,,,,,,,,,,,,
,,,,,,,5f23ff398626c51fdd6c3fb5,6057c54e64b0b4e5c128b4f9,6057fde7c5590f6a1b90c946,United States,Northeast,13 or older,no,2021-03-21_22h23.45.856,empathy_intonation_perc,2020.2.10,Win32,60,,,,,,,,,,0,,,,,,,,,,,,,,,,,,,,,,,,,,,,,,,,,,,,,,,,29,decar,,,0,1,0.702235,0,68,68,28,1,REAL,FAKE,,,,,,,,,,,,,,,,,,,,,
,,,,,,,5f23ff398626c51fdd6c3fb5,6057c54e64b0b4e5c128b4f9,6057fde7c5590f6a1b90c946,United States,Northeast,13 or older,no,2021-03-21_22h23.45.856,empathy_intonation_perc,2020.2.10,Win32,60,,,,,,,,,,0,,,,,,,,,,,,,,,,,,,,,,,,,,,,,,,,,,,,,,,,63,esposante,,,1,0,1.82948,0,69,69,62,1,REAL,FAKE,,,,,,,,,,,,,,,,,,,,,
,,,,,,,5f23ff398626c51fdd6c3fb5,6057c54e64b0b4e5c128b4f9,6057fde7c5590f6a1b90c946,United States,Northeast,13 or older,no,2021-03-21_22h23.45.856,empathy_intonation_perc,2020.2.10,Win32,60,,,,,,,,,,1,,,,,,,,,,,,,,,,,,,,,,,,,,,,,,,,,,,,,,,,14,yunque,,,0,0,0.77849,0,70,70,13,1,REAL,FAKE,,,,,,,,,,,,,,,,,,,,,
,,,,,,,5f23ff398626c51fdd6c3fb5,6057c54e64b0b4e5c128b4f9,6057fde7c5590f6a1b90c946,United States,Northeast,13 or older,no,2021-03-21_22h23.45.856,empathy_intonation_perc,2020.2.10,Win32,60,,,,,,,,,,1,,,,,,,,,,,,,,,,,,,,,,,,,,,,,,,,,,,,,,,,83,guante,,,0,0,1.06903,0,71,71,82,1,REAL,FAKE,,,,,,,,,,,,,,,,,,,,,
,,,,,,,5f23ff398626c51fdd6c3fb5,6057c54e64b0b4e5c128b4f9,6057fde7c5590f6a1b90c946,United States,Northeast,13 or older,no,2021-03-21_22h23.45.856,empathy_intonation_perc,2020.2.10,Win32,60,,,,,,,,,,1,,,,,,,,,,,,,,,,,,,,,,,,,,,,,,,,,,,,,,,,57,tacao,,,1,1,1.120795,0,72,72,56,1,REAL,FAKE,,,,,,,,,,,,,,,,,,,,,
,,,,,,,5f23ff398626c51fdd6c3fb5,6057c54e64b0b4e5c128b4f9,6057fde7c5590f6a1b90c946,United States,Northeast,13 or older,no,2021-03-21_22h23.45.856,empathy_intonation_perc,2020.2.10,Win32,60,,,,,,,,,,0,,,,,,,,,,,,,,,,,,,,,,,,,,,,,,,,,,,,,,,,1,terzo,,,0,1,0.683185,0,73,73,0,1,REAL,FAKE,,,,,,,,,,,,,,,,,,,,,
,,,,,,,5f23ff398626c51fdd6c3fb5,6057c54e64b0b4e5c128b4f9,6057fde7c5590f6a1b90c946,United States,Northeast,13 or older,no,2021-03-21_22h23.45.856,empathy_intonation_perc,2020.2.10,Win32,60,,,,,,,,,,1,,,,,,,,,,,,,,,,,,,,,,,,,,,,,,,,,,,,,,,,78,frondoso,,,0,0,1.0334,0,74,74,77,1,REAL,FAKE,,,,,,,,,,,,,,,,,,,,,
,,,,,,,5f23ff398626c51fdd6c3fb5,6057c54e64b0b4e5c128b4f9,6057fde7c5590f6a1b90c946,United States,Northeast,13 or older,no,2021-03-21_22h23.45.856,empathy_intonation_perc,2020.2.10,Win32,60,,,,,,,,,,1,,,,,,,,,,,,,,,,,,,,,,,,,,,,,,,,,,,,,,,,51,candado,,,1,1,1.1634,0,75,75,50,1,REAL,FAKE,,,,,,,,,,,,,,,,,,,,,
,,,,,,,5f23ff398626c51fdd6c3fb5,6057c54e64b0b4e5c128b4f9,6057fde7c5590f6a1b90c946,United States,Northeast,13 or older,no,2021-03-21_22h23.45.856,empathy_intonation_perc,2020.2.10,Win32,60,,,,,,,,,,1,,,,,,,,,,,,,,,,,,,,,,,,,,,,,,,,,,,,,,,,71,polvoriento,,,0,0,0.80343,0,76,76,70,1,REAL,FAKE,,,,,,,,,,,,,,,,,,,,,
,,,,,,,5f23ff398626c51fdd6c3fb5,6057c54e64b0b4e5c128b4f9,6057fde7c5590f6a1b90c946,United States,Northeast,13 or older,no,2021-03-21_22h23.45.856,empathy_intonation_perc,2020.2.10,Win32,60,,,,,,,,,,0,,,,,,,,,,,,,,,,,,,,,,,,,,,,,,,,,,,,,,,,17,floroso,,,0,1,0.8293,0,77,77,16,1,REAL,FAKE,,,,,,,,,,,,,,,,,,,,,
,,,,,,,5f23ff398626c51fdd6c3fb5,6057c54e64b0b4e5c128b4f9,6057fde7c5590f6a1b90c946,United States,Northeast,13 or older,no,2021-03-21_22h23.45.856,empathy_intonation_perc,2020.2.10,Win32,60,,,,,,,,,,1,,,,,,,,,,,,,,,,,,,,,,,,,,,,,,,,,,,,,,,,12,asesinato,,,1,1,0.9165,0,78,78,11,1,REAL,FAKE,,,,,,,,,,,,,,,,,,,,,
,,,,,,,5f23ff398626c51fdd6c3fb5,6057c54e64b0b4e5c128b4f9,6057fde7c5590f6a1b90c946,United States,Northeast,13 or older,no,2021-03-21_22h23.45.856,empathy_intonation_perc,2020.2.10,Win32,60,,,,,,,,,,0,,,,,,,,,,,,,,,,,,,,,,,,,,,,,,,,,,,,,,,,47,cartinar,,,0,1,1.196065,0,79,79,46,1,REAL,FAKE,,,,,,,,,,,,,,,,,,,,,
,,,,,,,5f23ff398626c51fdd6c3fb5,6057c54e64b0b4e5c128b4f9,6057fde7c5590f6a1b90c946,United States,Northeast,13 or older,no,2021-03-21_22h23.45.856,empathy_intonation_perc,2020.2.10,Win32,60,,,,,,,,,,1,,,,,,,,,,,,,,,,,,,,,,,,,,,,,,,,,,,,,,,,39,torpe,,,0,0,0.73016,0,80,80,38,1,REAL,FAKE,,,,,,,,,,,,,,,,,,,,,
,,,,,,,5f23ff398626c51fdd6c3fb5,6057c54e64b0b4e5c128b4f9,6057fde7c5590f6a1b90c946,United States,Northeast,13 or older,no,2021-03-21_22h23.45.856,empathy_intonation_perc,2020.2.10,Win32,60,,,,,,,,,,1,,,,,,,,,,,,,,,,,,,,,,,,,,,,,,,,,,,,,,,,41,rebuscar,,,0,0,0.77236,0,81,81,40,1,REAL,FAKE,,,,,,,,,,,,,,,,,,,,,
,,,,,,,5f23ff398626c51fdd6c3fb5,6057c54e64b0b4e5c128b4f9,6057fde7c5590f6a1b90c946,United States,Northeast,13 or older,no,2021-03-21_22h23.45.856,empathy_intonation_perc,2020.2.10,Win32,60,,,,,,,,,,0,,,,,,,,,,,,,,,,,,,,,,,,,,,,,,,,,,,,,,,,27,acutacin,,,1,0,1.414425,0,82,82,26,1,REAL,FAKE,,,,,,,,,,,,,,,,,,,,,
,,,,,,,5f23ff398626c51fdd6c3fb5,6057c54e64b0b4e5c128b4f9,6057fde7c5590f6a1b90c946,United States,Northeast,13 or older,no,2021-03-21_22h23.45.856,empathy_intonation_perc,2020.2.10,Win32,60,,,,,,,,,,0,,,,,,,,,,,,,,,,,,,,,,,,,,,,,,,,,,,,,,,,35,rompido,,,1,0,1.552215,0,83,83,34,1,REAL,FAKE,,,,,,,,,,,,,,,,,,,,,
,,,,,,,5f23ff398626c51fdd6c3fb5,6057c54e64b0b4e5c128b4f9,6057fde7c5590f6a1b90c946,United States,Northeast,13 or older,no,2021-03-21_22h23.45.856,empathy_intonation_perc,2020.2.10,Win32,60,,,,,,,,,,0,,,,,,,,,,,,,,,,,,,,,,,,,,,,,,,,,,,,,,,,33,pauca,,,0,1,0.785045,0,84,84,32,1,REAL,FAKE,,,,,,,,,,,,,,,,,,,,,
,,,,,,,5f23ff398626c51fdd6c3fb5,6057c54e64b0b4e5c128b4f9,6057fde7c5590f6a1b90c946,United States,Northeast,13 or older,no,2021-03-21_22h23.45.856,empathy_intonation_perc,2020.2.10,Win32,60,,,,,,,,,,1,,,,,,,,,,,,,,,,,,,,,,,,,,,,,,,,,,,,,,,,68,alegre,,,1,1,0.83613,0,85,85,67,1,REAL,FAKE,,,,,,,,,,,,,,,,,,,,,
,,,,,,,5f23ff398626c51fdd6c3fb5,6057c54e64b0b4e5c128b4f9,6057fde7c5590f6a1b90c946,United States,Northeast,13 or older,no,2021-03-21_22h23.45.856,empathy_intonation_perc,2020.2.10,Win32,60,,,,,,,,,,1,,,,,,,,,,,,,,,,,,,,,,,,,,,,,,,,,,,,,,,,38,estornudar,,,0,0,1.246605,0,86,86,37,1,REAL,FAKE,,,,,,,,,,,,,,,,,,,,,
,,,,,,,5f23ff398626c51fdd6c3fb5,6057c54e64b0b4e5c128b4f9,6057fde7c5590f6a1b90c946,United States,Northeast,13 or older,no,2021-03-21_22h23.45.856,empathy_intonation_perc,2020.2.10,Win32,60,,,,,,,,,,1,,,,,,,,,,,,,,,,,,,,,,,,,,,,,,,,,,,,,,,,67,cabello,,,1,1,0.85212,0,87,87,66,1,REAL,FAKE,,,,,,,,,,,,,,,,,,,,,
,,,,,,,5f23ff398626c51fdd6c3fb5,6057c54e64b0b4e5c128b4f9,6057fde7c5590f6a1b90c946,United States,Northeast,13 or older,no,2021-03-21_22h23.45.856,empathy_intonation_perc,2020.2.10,Win32,60,,,,,,,,,,0,,,,,,,,,,,,,,,,,,,,,,,,,,,,,,,,,,,,,,,,10,antar,,,1,0,0.920235,0,88,88,9,1,REAL,FAKE,,,,,,,,,,,,,,,,,,,,,
,,,,,,,5f23ff398626c51fdd6c3fb5,6057c54e64b0b4e5c128b4f9,6057fde7c5590f6a1b90c946,United States,Northeast,13 or older,no,2021-03-21_22h23.45.856,empathy_intonation_perc,2020.2.10,Win32,60,,,,,,,,,,1,,,,,,,,,,,,,,,,,,,,,,,,,,,,,,,,,,,,,,,,69,engatusar,,,0,0,0.9662,0,89,89,68,1,REAL,FAKE,,,,,,,,,,,,,,,,,,,,,
,,,,,,,5f23ff398626c51fdd6c3fb5,6057c54e64b0b4e5c128b4f9,6057fde7c5590f6a1b90c946,United States,Northeast,13 or older,no,2021-03-21_22h23.45.856,empathy_intonation_perc,2020.2.10,Win32,60,,,,,,,,,,,,,,,,,,,,,,,,,,,,,,,,,,,,,,,,,,,,,,,,,,,,,,,,,,,,,,,,4,1,1.95145,1,0,0,0,0,0,1,,,,,,,,,,,
,,,,,,,5f23ff398626c51fdd6c3fb5,6057c54e64b0b4e5c128b4f9,6057fde7c5590f6a1b90c946,United States,Northeast,13 or older,no,2021-03-21_22h23.45.856,empathy_intonation_perc,2020.2.10,Win32,60,,,,,,,,,,,,,,,,,,,,1,,,,,,,,,,,,,,,,,,,,,,,,,,,,,,,,,,,,,,,,,,,,,,,,,,,,,,3,0,0,0,0,1,I can easily tell if someone else wants to enter a conversation.,1,0,1,0
,,,,,,,5f23ff398626c51fdd6c3fb5,6057c54e64b0b4e5c128b4f9,6057fde7c5590f6a1b90c946,United States,Northeast,13 or older,no,2021-03-21_22h23.45.856,empathy_intonation_perc,2020.2.10,Win32,60,,,,,,,,,,,,,,,,,,,,2,,,,,,,,,,,,,,,,,,,,,,,,,,,,,,,,,,,,,,,,,,,,,,,,,,,,,,2,0,1,1,1,1,I prefer animals to humans.,0,1,0,0
,,,,,,,5f23ff398626c51fdd6c3fb5,6057c54e64b0b4e5c128b4f9,6057fde7c5590f6a1b90c946,United States,Northeast,13 or older,no,2021-03-21_22h23.45.856,empathy_intonation_perc,2020.2.10,Win32,60,,,,,,,,,,,,,,,,,,,,3,,,,,,,,,,,,,,,,,,,,,,,,,,,,,,,,,,,,,,,,,,,,,,,,,,,,,,3,0,2,2,2,1,I try to keep up with the current trends and fashions.,0,1,0,0
,,,,,,,5f23ff398626c51fdd6c3fb5,6057c54e64b0b4e5c128b4f9,6057fde7c5590f6a1b90c946,United States,Northeast,13 or older,no,2021-03-21_22h23.45.856,empathy_intonation_perc,2020.2.10,Win32,60,,,,,,,,,,,,,,,,,,,,4,,,,,,,,,,,,,,,,,,,,,,,,,,,,,,,,,,,,,,,,,,,,,,,,,,,,,,3,0,3,3,3,1,"I find it difficult to explain to others things that I understand easily, 
  when they dont understand it first time.",1,0,0,1
