instructions_2afc_loop.thisRepN,instructions_2afc_loop.thisTrialN,instructions_2afc_loop.thisN,instructions_2afc_loop.thisIndex,instructions_2afc_loop.ran,instructions_text,continue_text,participant,study_id,session,I am most familiar with Spanish from...*,What part of the US are you from?*,At what age did you begin learning Spanish?*,Are you proficient in any languages other than English/Spanish?*,date,expName,psychopyVersion,OS,frameRate,key_resp_2afc_practice.keys,key_resp_2afc_practice.corr,key_resp_2afc_practice.rt,trials_2afc_practice_loop.thisRepN,trials_2afc_practice_loop.thisTrialN,trials_2afc_practice_loop.thisN,trials_2afc_practice_loop.thisIndex,trials_2afc_practice_loop.ran,path,correct_response,the_col,key_resp_2afc_trial.keys,key_resp_2afc_trial.corr,key_resp_2afc_trial.rt,trials_2afc_loop.thisRepN,trials_2afc_loop.thisTrialN,trials_2afc_loop.thisN,trials_2afc_loop.thisIndex,trials_2afc_loop.ran,item_num,andalusian,argentine,castilian,chilean,cuban,mexican,peruvian,puertorican,key_resp_ac1.keys,key_resp_ac1.corr,key_resp_ac1.rt,ac1_loop.thisRepN,ac1_loop.thisTrialN,ac1_loop.thisN,ac1_loop.thisIndex,ac1_loop.ran,instructions_lextale_loop.thisRepN,instructions_lextale_loop.thisTrialN,instructions_lextale_loop.thisN,instructions_lextale_loop.thisIndex,instructions_lextale_loop.ran,key_resp_lextale_practice.keys,key_resp_lextale_practice.corr,key_resp_lextale_practice.rt,trials_lextale_practice_loop.thisRepN,trials_lextale_practice_loop.thisTrialN,trials_lextale_practice_loop.thisN,trials_lextale_practice_loop.thisIndex,trials_lextale_practice_loop.ran,stim,word,prac_button_real,prac_button_false,key_resp_lextale_trial.keys,key_resp_lextale_trial.corr,key_resp_lextale_trial.rt,trials_lextale_loop.thisRepN,trials_lextale_loop.thisTrialN,trials_lextale_loop.thisN,trials_lextale_loop.thisIndex,trials_lextale_loop.ran,button_real,button_false,key_resp_ac2.keys,key_resp_ac2.corr,key_resp_ac2.rt,check_pass,check_fails,ac2_loop.thisRepN,ac2_loop.thisTrialN,ac2_loop.thisN,ac2_loop.thisIndex,ac2_loop.ran,slider_eq_trial.response,trials_eq_loop.thisRepN,trials_eq_loop.thisTrialN,trials_eq_loop.thisN,trials_eq_loop.thisIndex,trials_eq_loop.ran,item,is_test_item,is_distractor,is_agree_score,is_disagree_score
0,0,0,0,1,"In the following task you are going to hear a series of utterances. 

  You will decide if the utterances sound like questions or not using your keyboard.",(press the spacebar to continue),5f2af333a305a1453082fa08,6057c54e64b0b4e5c128b4f9,6058e37d42615ab85535a6ae,United States,Northeast,13 or older,no,2021-03-22_14h36.15.901,empathy_intonation_perc,2020.2.10,MacIntel,60,,,,,,,,,,,,,,,,,,,,,,,,,,,,,,,,,,,,,,,,,,,,,,,,,,,,,,,,,,,,,,,,,,,,,,,,,,,,,,,,,,,,
0,1,1,1,1,"If you believe the utterance is a question, type '1' (for 'yes') and if you do not 
  believe it is a question type '0' (for 'no').

  Let's practice a bit...",(press the spacebar to continue),5f2af333a305a1453082fa08,6057c54e64b0b4e5c128b4f9,6058e37d42615ab85535a6ae,United States,Northeast,13 or older,no,2021-03-22_14h36.15.901,empathy_intonation_perc,2020.2.10,MacIntel,60,,,,,,,,,,,,,,,,,,,,,,,,,,,,,,,,,,,,,,,,,,,,,,,,,,,,,,,,,,,,,,,,,,,,,,,,,,,,,,,,,,,,
,,,,,,,5f2af333a305a1453082fa08,6057c54e64b0b4e5c128b4f9,6058e37d42615ab85535a6ae,United States,Northeast,13 or older,no,2021-03-22_14h36.15.901,empathy_intonation_perc,2020.2.10,MacIntel,60,0,1,2.661835,0,0,0,4,1,./stim/wavs/cuban_statement_filler_Cocinabas-por-la-noche.wav,0,,,,,,,,,,,,,,,,,,,,,,,,,,,,,,,,,,,,,,,,,,,,,,,,,,,,,,,,,,,,,,,,,,,,,,,,,,
,,,,,,,5f2af333a305a1453082fa08,6057c54e64b0b4e5c128b4f9,6058e37d42615ab85535a6ae,United States,Northeast,13 or older,no,2021-03-22_14h36.15.901,empathy_intonation_perc,2020.2.10,MacIntel,60,0,1,2.334585,0,1,1,5,1,./stim/wavs/andalusian_statement_filler_Alberto-nunca-se-afeita.wav,0,,,,,,,,,,,,,,,,,,,,,,,,,,,,,,,,,,,,,,,,,,,,,,,,,,,,,,,,,,,,,,,,,,,,,,,,,,
,,,,,,,5f2af333a305a1453082fa08,6057c54e64b0b4e5c128b4f9,6058e37d42615ab85535a6ae,United States,Northeast,13 or older,no,2021-03-22_14h36.15.901,empathy_intonation_perc,2020.2.10,MacIntel,60,1,1,2.649915,0,2,2,0,1,./stim/wavs/castilian_question_filler_Mi-esposo-conoce-al-chico.wav,1,,,,,,,,,,,,,,,,,,,,,,,,,,,,,,,,,,,,,,,,,,,,,,,,,,,,,,,,,,,,,,,,,,,,,,,,,,
,,,,,,,5f2af333a305a1453082fa08,6057c54e64b0b4e5c128b4f9,6058e37d42615ab85535a6ae,United States,Northeast,13 or older,no,2021-03-22_14h36.15.901,empathy_intonation_perc,2020.2.10,MacIntel,60,0,1,1.958955,0,3,3,7,1,./stim/wavs/puertorican_statement_filler_La-nina-pinta-con-su-amiga.wav,0,,,,,,,,,,,,,,,,,,,,,,,,,,,,,,,,,,,,,,,,,,,,,,,,,,,,,,,,,,,,,,,,,,,,,,,,,,
,,,,,,,5f2af333a305a1453082fa08,6057c54e64b0b4e5c128b4f9,6058e37d42615ab85535a6ae,United States,Northeast,13 or older,no,2021-03-22_14h36.15.901,empathy_intonation_perc,2020.2.10,MacIntel,60,0,1,2.31846,0,4,4,6,1,./stim/wavs/peruvian_statement_filler_El-nino-habla-con-su-madre.wav,0,,,,,,,,,,,,,,,,,,,,,,,,,,,,,,,,,,,,,,,,,,,,,,,,,,,,,,,,,,,,,,,,,,,,,,,,,,
,,,,,,,5f2af333a305a1453082fa08,6057c54e64b0b4e5c128b4f9,6058e37d42615ab85535a6ae,United States,Northeast,13 or older,no,2021-03-22_14h36.15.901,empathy_intonation_perc,2020.2.10,MacIntel,60,1,1,2.09279,0,5,5,1,1,./stim/wavs/argentine_question_filler_Mi-vecino-habla-mucho.wav,1,,,,,,,,,,,,,,,,,,,,,,,,,,,,,,,,,,,,,,,,,,,,,,,,,,,,,,,,,,,,,,,,,,,,,,,,,,
,,,,,,,5f2af333a305a1453082fa08,6057c54e64b0b4e5c128b4f9,6058e37d42615ab85535a6ae,United States,Northeast,13 or older,no,2021-03-22_14h36.15.901,empathy_intonation_perc,2020.2.10,MacIntel,60,1,1,3.22412,0,6,6,3,1,./stim/wavs/mexican_question_filler_Felipe-no-tiene-contrasena.wav,1,,,,,,,,,,,,,,,,,,,,,,,,,,,,,,,,,,,,,,,,,,,,,,,,,,,,,,,,,,,,,,,,,,,,,,,,,,
,,,,,,,5f2af333a305a1453082fa08,6057c54e64b0b4e5c128b4f9,6058e37d42615ab85535a6ae,United States,Northeast,13 or older,no,2021-03-22_14h36.15.901,empathy_intonation_perc,2020.2.10,MacIntel,60,0,0,1.76875,0,7,7,2,1,./stim/wavs/chilean_question_filler_Mi-padre-cantaba-bien.wav,1,,,,,,,,,,,,,,,,,,,,,,,,,,,,,,,,,,,,,,,,,,,,,,,,,,,,,,,,,,,,,,,,,,,,,,,,,,
,,,,,,,5f2af333a305a1453082fa08,6057c54e64b0b4e5c128b4f9,6058e37d42615ab85535a6ae,United States,Northeast,13 or older,no,2021-03-22_14h36.15.901,empathy_intonation_perc,2020.2.10,MacIntel,60,,,,,,,,,,1,andalusian,0,0,2.10825,0,0,0,53,1,54,./stim/wavs/andalusian_mismatch_interrogative-partial-wh_Por-que-oia-el-rio.wav,./stim/wavs/argentine_mismatch_interrogative-partial-wh_Por-que-oia-el-rio.wav,./stim/wavs/castilian_mismatch_interrogative-partial-wh_Por-que-oia-el-rio.wav,./stim/wavs/chilean_mismatch_interrogative-partial-wh_Por-que-oia-el-rio.wav,./stim/wavs/cuban_mismatch_interrogative-partial-wh_Por-que-oia-el-rio.wav,./stim/wavs/mexican_mismatch_interrogative-partial-wh_Por-que-oia-el-rio.wav,./stim/wavs/peruvian_mismatch_interrogative-partial-wh_Por-que-oia-el-rio.wav,./stim/wavs/puertorican_mismatch_interrogative-partial-wh_Por-que-oia-el-rio.wav,,,,,,,,,,,,,,,,,,,,,,,,,,,,,,,,,,,,,,,,,,,,,,,,,,,,,,,,
,,,,,,,5f2af333a305a1453082fa08,6057c54e64b0b4e5c128b4f9,6058e37d42615ab85535a6ae,United States,Northeast,13 or older,no,2021-03-22_14h36.15.901,empathy_intonation_perc,2020.2.10,MacIntel,60,,,,,,,,,,0,chilean,0,1,2.018875,0,1,1,44,1,45,./stim/wavs/andalusian_mismatch_declarative-narrow-focus_La-nina-lava-el-plato.wav,./stim/wavs/argentine_mismatch_declarative-narrow-focus_La-nina-lava-el-plato.wav,./stim/wavs/castilian_mismatch_declarative-narrow-focus_La-nina-lava-el-plato.wav,./stim/wavs/chilean_mismatch_declarative-narrow-focus_La-nina-lava-el-plato.wav,./stim/wavs/cuban_mismatch_declarative-narrow-focus_La-nina-lava-el-plato.wav,./stim/wavs/mexican_mismatch_declarative-narrow-focus_La-nina-lava-el-plato.wav,./stim/wavs/peruvian_mismatch_declarative-narrow-focus_La-nina-lava-el-plato.wav,./stim/wavs/puertorican_mismatch_declarative-narrow-focus_La-nina-lava-el-plato.wav,,,,,,,,,,,,,,,,,,,,,,,,,,,,,,,,,,,,,,,,,,,,,,,,,,,,,,,,
,,,,,,,5f2af333a305a1453082fa08,6057c54e64b0b4e5c128b4f9,6058e37d42615ab85535a6ae,United States,Northeast,13 or older,no,2021-03-22_14h36.15.901,empathy_intonation_perc,2020.2.10,MacIntel,60,,,,,,,,,,0,castilian,0,1,1.801085,0,2,2,13,1,14,./stim/wavs/andalusian_match_declarative-narrow-focus_Maria-bebe-el-vino.wav,./stim/wavs/argentine_match_declarative-narrow-focus_Maria-bebe-el-vino.wav,./stim/wavs/castilian_match_declarative-narrow-focus_Maria-bebe-el-vino.wav,./stim/wavs/chilean_match_declarative-narrow-focus_Maria-bebe-el-vino.wav,./stim/wavs/cuban_match_declarative-narrow-focus_Maria-bebe-el-vino.wav,./stim/wavs/mexican_match_declarative-narrow-focus_Maria-bebe-el-vino.wav,./stim/wavs/peruvian_match_declarative-narrow-focus_Maria-bebe-el-vino.wav,./stim/wavs/puertorican_match_declarative-narrow-focus_Maria-bebe-el-vino.wav,,,,,,,,,,,,,,,,,,,,,,,,,,,,,,,,,,,,,,,,,,,,,,,,,,,,,,,,
,,,,,,,5f2af333a305a1453082fa08,6057c54e64b0b4e5c128b4f9,6058e37d42615ab85535a6ae,United States,Northeast,13 or older,no,2021-03-22_14h36.15.901,empathy_intonation_perc,2020.2.10,MacIntel,60,,,,,,,,,,0,puertorican,0,1,1.653045,0,3,3,7,1,8,./stim/wavs/andalusian_match_declarative-broad-focus_Marta-abre-el-regalo.wav,./stim/wavs/argentine_match_declarative-broad-focus_Marta-abre-el-regalo.wav,./stim/wavs/castilian_match_declarative-broad-focus_Marta-abre-el-regalo.wav,./stim/wavs/chilean_match_declarative-broad-focus_Marta-abre-el-regalo.wav,./stim/wavs/cuban_match_declarative-broad-focus_Marta-abre-el-regalo.wav,./stim/wavs/mexican_match_declarative-broad-focus_Marta-abre-el-regalo.wav,./stim/wavs/peruvian_match_declarative-broad-focus_Marta-abre-el-regalo.wav,./stim/wavs/puertorican_match_declarative-broad-focus_Marta-abre-el-regalo.wav,,,,,,,,,,,,,,,,,,,,,,,,,,,,,,,,,,,,,,,,,,,,,,,,,,,,,,,,
,,,,,,,5f2af333a305a1453082fa08,6057c54e64b0b4e5c128b4f9,6058e37d42615ab85535a6ae,United States,Northeast,13 or older,no,2021-03-22_14h36.15.901,empathy_intonation_perc,2020.2.10,MacIntel,60,,,,,,,,,,0,cuban,0,1,1.62188,0,4,4,9,1,10,./stim/wavs/andalusian_match_declarative-narrow-focus_Daniel-iba-a-Bolivia.wav,./stim/wavs/argentine_match_declarative-narrow-focus_Daniel-iba-a-Bolivia.wav,./stim/wavs/castilian_match_declarative-narrow-focus_Daniel-iba-a-Bolivia.wav,./stim/wavs/chilean_match_declarative-narrow-focus_Daniel-iba-a-Bolivia.wav,./stim/wavs/cuban_match_declarative-narrow-focus_Daniel-iba-a-Bolivia.wav,./stim/wavs/mexican_match_declarative-narrow-focus_Daniel-iba-a-Bolivia.wav,./stim/wavs/peruvian_match_declarative-narrow-focus_Daniel-iba-a-Bolivia.wav,./stim/wavs/puertorican_match_declarative-narrow-focus_Daniel-iba-a-Bolivia.wav,,,,,,,,,,,,,,,,,,,,,,,,,,,,,,,,,,,,,,,,,,,,,,,,,,,,,,,,
,,,,,,,5f2af333a305a1453082fa08,6057c54e64b0b4e5c128b4f9,6058e37d42615ab85535a6ae,United States,Northeast,13 or older,no,2021-03-22_14h36.15.901,empathy_intonation_perc,2020.2.10,MacIntel,60,,,,,,,,,,1,peruvian,1,1,2.723585,0,5,5,30,1,31,./stim/wavs/andalusian_match_interrogative-total-yn_Mariano-habla-del-tiempo.wav,./stim/wavs/argentine_match_interrogative-total-yn_Mariano-habla-del-tiempo.wav,./stim/wavs/castilian_match_interrogative-total-yn_Mariano-habla-del-tiempo.wav,./stim/wavs/chilean_match_interrogative-total-yn_Mariano-habla-del-tiempo.wav,./stim/wavs/cuban_match_interrogative-total-yn_Mariano-habla-del-tiempo.wav,./stim/wavs/mexican_match_interrogative-total-yn_Mariano-habla-del-tiempo.wav,./stim/wavs/peruvian_match_interrogative-total-yn_Mariano-habla-del-tiempo.wav,./stim/wavs/puertorican_match_interrogative-total-yn_Mariano-habla-del-tiempo.wav,,,,,,,,,,,,,,,,,,,,,,,,,,,,,,,,,,,,,,,,,,,,,,,,,,,,,,,,
,,,,,,,5f2af333a305a1453082fa08,6057c54e64b0b4e5c128b4f9,6058e37d42615ab85535a6ae,United States,Northeast,13 or older,no,2021-03-22_14h36.15.901,empathy_intonation_perc,2020.2.10,MacIntel,60,,,,,,,,,,0,castilian,0,1,2.053085,0,6,6,40,1,41,./stim/wavs/andalusian_mismatch_declarative-narrow-focus_El-bebe-comia-muy-bien.wav,./stim/wavs/argentine_mismatch_declarative-narrow-focus_El-bebe-comia-muy-bien.wav,./stim/wavs/castilian_mismatch_declarative-narrow-focus_El-bebe-comia-muy-bien.wav,./stim/wavs/chilean_mismatch_declarative-narrow-focus_El-bebe-comia-muy-bien.wav,./stim/wavs/cuban_mismatch_declarative-narrow-focus_El-bebe-comia-muy-bien.wav,./stim/wavs/mexican_mismatch_declarative-narrow-focus_El-bebe-comia-muy-bien.wav,./stim/wavs/peruvian_mismatch_declarative-narrow-focus_El-bebe-comia-muy-bien.wav,./stim/wavs/puertorican_mismatch_declarative-narrow-focus_El-bebe-comia-muy-bien.wav,,,,,,,,,,,,,,,,,,,,,,,,,,,,,,,,,,,,,,,,,,,,,,,,,,,,,,,,
,,,,,,,5f2af333a305a1453082fa08,6057c54e64b0b4e5c128b4f9,6058e37d42615ab85535a6ae,United States,Northeast,13 or older,no,2021-03-22_14h36.15.901,empathy_intonation_perc,2020.2.10,MacIntel,60,,,,,,,,,,0,puertorican,0,1,1.875205,0,7,7,37,1,38,./stim/wavs/andalusian_mismatch_declarative-broad-focus_Mi-madre-come-la-fruta.wav,./stim/wavs/argentine_mismatch_declarative-broad-focus_Mi-madre-come-la-fruta.wav,./stim/wavs/castilian_mismatch_declarative-broad-focus_Mi-madre-come-la-fruta.wav,./stim/wavs/chilean_mismatch_declarative-broad-focus_Mi-madre-come-la-fruta.wav,./stim/wavs/cuban_mismatch_declarative-broad-focus_Mi-madre-come-la-fruta.wav,./stim/wavs/mexican_mismatch_declarative-broad-focus_Mi-madre-come-la-fruta.wav,./stim/wavs/peruvian_mismatch_declarative-broad-focus_Mi-madre-come-la-fruta.wav,./stim/wavs/puertorican_mismatch_declarative-broad-focus_Mi-madre-come-la-fruta.wav,,,,,,,,,,,,,,,,,,,,,,,,,,,,,,,,,,,,,,,,,,,,,,,,,,,,,,,,
,,,,,,,5f2af333a305a1453082fa08,6057c54e64b0b4e5c128b4f9,6058e37d42615ab85535a6ae,United States,Northeast,13 or older,no,2021-03-22_14h36.15.901,empathy_intonation_perc,2020.2.10,MacIntel,60,,,,,,,,,,1,argentine,0,0,1.909005,0,8,8,19,1,20,./stim/wavs/andalusian_match_interrogative-partial-wh_Cuando-vendia-el-carro.wav,./stim/wavs/argentine_match_interrogative-partial-wh_Cuando-vendia-el-carro.wav,./stim/wavs/castilian_match_interrogative-partial-wh_Cuando-vendia-el-carro.wav,./stim/wavs/chilean_match_interrogative-partial-wh_Cuando-vendia-el-carro.wav,./stim/wavs/cuban_match_interrogative-partial-wh_Cuando-vendia-el-carro.wav,./stim/wavs/mexican_match_interrogative-partial-wh_Cuando-vendia-el-carro.wav,./stim/wavs/peruvian_match_interrogative-partial-wh_Cuando-vendia-el-carro.wav,./stim/wavs/puertorican_match_interrogative-partial-wh_Cuando-vendia-el-carro.wav,,,,,,,,,,,,,,,,,,,,,,,,,,,,,,,,,,,,,,,,,,,,,,,,,,,,,,,,
,,,,,,,5f2af333a305a1453082fa08,6057c54e64b0b4e5c128b4f9,6058e37d42615ab85535a6ae,United States,Northeast,13 or older,no,2021-03-22_14h36.15.901,empathy_intonation_perc,2020.2.10,MacIntel,60,,,,,,,,,,1,castilian,1,1,1.73642,0,9,9,48,1,49,./stim/wavs/andalusian_mismatch_interrogative-partial-wh_Cuando-comia-la-fruta.wav,./stim/wavs/argentine_mismatch_interrogative-partial-wh_Cuando-comia-la-fruta.wav,./stim/wavs/castilian_mismatch_interrogative-partial-wh_Cuando-comia-la-fruta.wav,./stim/wavs/chilean_mismatch_interrogative-partial-wh_Cuando-comia-la-fruta.wav,./stim/wavs/cuban_mismatch_interrogative-partial-wh_Cuando-comia-la-fruta.wav,./stim/wavs/mexican_mismatch_interrogative-partial-wh_Cuando-comia-la-fruta.wav,./stim/wavs/peruvian_mismatch_interrogative-partial-wh_Cuando-comia-la-fruta.wav,./stim/wavs/puertorican_mismatch_interrogative-partial-wh_Cuando-comia-la-fruta.wav,,,,,,,,,,,,,,,,,,,,,,,,,,,,,,,,,,,,,,,,,,,,,,,,,,,,,,,,
,,,,,,,5f2af333a305a1453082fa08,6057c54e64b0b4e5c128b4f9,6058e37d42615ab85535a6ae,United States,Northeast,13 or older,no,2021-03-22_14h36.15.901,empathy_intonation_perc,2020.2.10,MacIntel,60,,,,,,,,,,0,argentine,0,1,1.809915,0,10,10,47,1,48,./stim/wavs/andalusian_mismatch_declarative-narrow-focus_Mi-tia-odia-la-lluvia.wav,./stim/wavs/argentine_mismatch_declarative-narrow-focus_Mi-tia-odia-la-lluvia.wav,./stim/wavs/castilian_mismatch_declarative-narrow-focus_Mi-tia-odia-la-lluvia.wav,./stim/wavs/chilean_mismatch_declarative-narrow-focus_Mi-tia-odia-la-lluvia.wav,./stim/wavs/cuban_mismatch_declarative-narrow-focus_Mi-tia-odia-la-lluvia.wav,./stim/wavs/mexican_mismatch_declarative-narrow-focus_Mi-tia-odia-la-lluvia.wav,./stim/wavs/peruvian_mismatch_declarative-narrow-focus_Mi-tia-odia-la-lluvia.wav,./stim/wavs/puertorican_mismatch_declarative-narrow-focus_Mi-tia-odia-la-lluvia.wav,,,,,,,,,,,,,,,,,,,,,,,,,,,,,,,,,,,,,,,,,,,,,,,,,,,,,,,,
,,,,,,,5f2af333a305a1453082fa08,6057c54e64b0b4e5c128b4f9,6058e37d42615ab85535a6ae,United States,Northeast,13 or older,no,2021-03-22_14h36.15.901,empathy_intonation_perc,2020.2.10,MacIntel,60,,,,,,,,,,0,peruvian,0,1,1.78475,0,11,11,15,1,16,./stim/wavs/andalusian_match_declarative-narrow-focus_Marta-abre-el-regalo.wav,./stim/wavs/argentine_match_declarative-narrow-focus_Marta-abre-el-regalo.wav,./stim/wavs/castilian_match_declarative-narrow-focus_Marta-abre-el-regalo.wav,./stim/wavs/chilean_match_declarative-narrow-focus_Marta-abre-el-regalo.wav,./stim/wavs/cuban_match_declarative-narrow-focus_Marta-abre-el-regalo.wav,./stim/wavs/mexican_match_declarative-narrow-focus_Marta-abre-el-regalo.wav,./stim/wavs/peruvian_match_declarative-narrow-focus_Marta-abre-el-regalo.wav,./stim/wavs/puertorican_match_declarative-narrow-focus_Marta-abre-el-regalo.wav,,,,,,,,,,,,,,,,,,,,,,,,,,,,,,,,,,,,,,,,,,,,,,,,,,,,,,,,
,,,,,,,5f2af333a305a1453082fa08,6057c54e64b0b4e5c128b4f9,6058e37d42615ab85535a6ae,United States,Northeast,13 or older,no,2021-03-22_14h36.15.901,empathy_intonation_perc,2020.2.10,MacIntel,60,,,,,,,,,,1,puertorican,0,0,1.82617,0,12,12,61,1,62,./stim/wavs/andalusian_mismatch_interrogative-total-yn_Mi-madre-come-la-fruta.wav,./stim/wavs/argentine_mismatch_interrogative-total-yn_Mi-madre-come-la-fruta.wav,./stim/wavs/castilian_mismatch_interrogative-total-yn_Mi-madre-come-la-fruta.wav,./stim/wavs/chilean_mismatch_interrogative-total-yn_Mi-madre-come-la-fruta.wav,./stim/wavs/cuban_mismatch_interrogative-total-yn_Mi-madre-come-la-fruta.wav,./stim/wavs/mexican_mismatch_interrogative-total-yn_Mi-madre-come-la-fruta.wav,./stim/wavs/peruvian_mismatch_interrogative-total-yn_Mi-madre-come-la-fruta.wav,./stim/wavs/puertorican_mismatch_interrogative-total-yn_Mi-madre-come-la-fruta.wav,,,,,,,,,,,,,,,,,,,,,,,,,,,,,,,,,,,,,,,,,,,,,,,,,,,,,,,,
,,,,,,,5f2af333a305a1453082fa08,6057c54e64b0b4e5c128b4f9,6058e37d42615ab85535a6ae,United States,Northeast,13 or older,no,2021-03-22_14h36.15.901,empathy_intonation_perc,2020.2.10,MacIntel,60,,,,,,,,,,0,castilian,0,1,1.83875,0,13,13,12,1,13,./stim/wavs/andalusian_match_declarative-narrow-focus_Manuela-vende-el-carro.wav,./stim/wavs/argentine_match_declarative-narrow-focus_Manuela-vende-el-carro.wav,./stim/wavs/castilian_match_declarative-narrow-focus_Manuela-vende-el-carro.wav,./stim/wavs/chilean_match_declarative-narrow-focus_Manuela-vende-el-carro.wav,./stim/wavs/cuban_match_declarative-narrow-focus_Manuela-vende-el-carro.wav,./stim/wavs/mexican_match_declarative-narrow-focus_Manuela-vende-el-carro.wav,./stim/wavs/peruvian_match_declarative-narrow-focus_Manuela-vende-el-carro.wav,./stim/wavs/puertorican_match_declarative-narrow-focus_Manuela-vende-el-carro.wav,,,,,,,,,,,,,,,,,,,,,,,,,,,,,,,,,,,,,,,,,,,,,,,,,,,,,,,,
,,,,,,,5f2af333a305a1453082fa08,6057c54e64b0b4e5c128b4f9,6058e37d42615ab85535a6ae,United States,Northeast,13 or older,no,2021-03-22_14h36.15.901,empathy_intonation_perc,2020.2.10,MacIntel,60,,,,,,,,,,1,cuban,0,0,1.520745,0,14,14,24,1,25,./stim/wavs/andalusian_match_interrogative-total-yn_Ana-lleva-el-abrigo.wav,./stim/wavs/argentine_match_interrogative-total-yn_Ana-lleva-el-abrigo.wav,./stim/wavs/castilian_match_interrogative-total-yn_Ana-lleva-el-abrigo.wav,./stim/wavs/chilean_match_interrogative-total-yn_Ana-lleva-el-abrigo.wav,./stim/wavs/cuban_match_interrogative-total-yn_Ana-lleva-el-abrigo.wav,./stim/wavs/mexican_match_interrogative-total-yn_Ana-lleva-el-abrigo.wav,./stim/wavs/peruvian_match_interrogative-total-yn_Ana-lleva-el-abrigo.wav,./stim/wavs/puertorican_match_interrogative-total-yn_Ana-lleva-el-abrigo.wav,,,,,,,,,,,,,,,,,,,,,,,,,,,,,,,,,,,,,,,,,,,,,,,,,,,,,,,,
,,,,,,,5f2af333a305a1453082fa08,6057c54e64b0b4e5c128b4f9,6058e37d42615ab85535a6ae,United States,Northeast,13 or older,no,2021-03-22_14h36.15.901,empathy_intonation_perc,2020.2.10,MacIntel,60,,,,,,,,,,0,argentine,0,1,1.959415,0,15,15,32,1,33,./stim/wavs/andalusian_mismatch_declarative-broad-focus_El-bebe-comia-muy-bien.wav,./stim/wavs/argentine_mismatch_declarative-broad-focus_El-bebe-comia-muy-bien.wav,./stim/wavs/castilian_mismatch_declarative-broad-focus_El-bebe-comia-muy-bien.wav,./stim/wavs/chilean_mismatch_declarative-broad-focus_El-bebe-comia-muy-bien.wav,./stim/wavs/cuban_mismatch_declarative-broad-focus_El-bebe-comia-muy-bien.wav,./stim/wavs/mexican_mismatch_declarative-broad-focus_El-bebe-comia-muy-bien.wav,./stim/wavs/peruvian_mismatch_declarative-broad-focus_El-bebe-comia-muy-bien.wav,./stim/wavs/puertorican_mismatch_declarative-broad-focus_El-bebe-comia-muy-bien.wav,,,,,,,,,,,,,,,,,,,,,,,,,,,,,,,,,,,,,,,,,,,,,,,,,,,,,,,,
,,,,,,,5f2af333a305a1453082fa08,6057c54e64b0b4e5c128b4f9,6058e37d42615ab85535a6ae,United States,Northeast,13 or older,no,2021-03-22_14h36.15.901,empathy_intonation_perc,2020.2.10,MacIntel,60,,,,,,,,,,1,mexican,1,1,1.95354,0,16,16,25,1,26,./stim/wavs/andalusian_match_interrogative-total-yn_Daniel-iba-a-Bolivia.wav,./stim/wavs/argentine_match_interrogative-total-yn_Daniel-iba-a-Bolivia.wav,./stim/wavs/castilian_match_interrogative-total-yn_Daniel-iba-a-Bolivia.wav,./stim/wavs/chilean_match_interrogative-total-yn_Daniel-iba-a-Bolivia.wav,./stim/wavs/cuban_match_interrogative-total-yn_Daniel-iba-a-Bolivia.wav,./stim/wavs/mexican_match_interrogative-total-yn_Daniel-iba-a-Bolivia.wav,./stim/wavs/peruvian_match_interrogative-total-yn_Daniel-iba-a-Bolivia.wav,./stim/wavs/puertorican_match_interrogative-total-yn_Daniel-iba-a-Bolivia.wav,,,,,,,,,,,,,,,,,,,,,,,,,,,,,,,,,,,,,,,,,,,,,,,,,,,,,,,,
,,,,,,,5f2af333a305a1453082fa08,6057c54e64b0b4e5c128b4f9,6058e37d42615ab85535a6ae,United States,Northeast,13 or older,no,2021-03-22_14h36.15.901,empathy_intonation_perc,2020.2.10,MacIntel,60,,,,,,,,,,0,cuban,0,1,1.953795,0,17,17,35,1,36,./stim/wavs/andalusian_mismatch_declarative-broad-focus_La-maestra-vive-en-Paris.wav,./stim/wavs/argentine_mismatch_declarative-broad-focus_La-maestra-vive-en-Paris.wav,./stim/wavs/castilian_mismatch_declarative-broad-focus_La-maestra-vive-en-Paris.wav,./stim/wavs/chilean_mismatch_declarative-broad-focus_La-maestra-vive-en-Paris.wav,./stim/wavs/cuban_mismatch_declarative-broad-focus_La-maestra-vive-en-Paris.wav,./stim/wavs/mexican_mismatch_declarative-broad-focus_La-maestra-vive-en-Paris.wav,./stim/wavs/peruvian_mismatch_declarative-broad-focus_La-maestra-vive-en-Paris.wav,./stim/wavs/puertorican_mismatch_declarative-broad-focus_La-maestra-vive-en-Paris.wav,,,,,,,,,,,,,,,,,,,,,,,,,,,,,,,,,,,,,,,,,,,,,,,,,,,,,,,,
,,,,,,,5f2af333a305a1453082fa08,6057c54e64b0b4e5c128b4f9,6058e37d42615ab85535a6ae,United States,Northeast,13 or older,no,2021-03-22_14h36.15.901,empathy_intonation_perc,2020.2.10,MacIntel,60,,,,,,,,,,0,chilean,0,1,1.694745,0,18,18,3,1,4,./stim/wavs/andalusian_match_declarative-broad-focus_Emilio-ama-la-marcha.wav,./stim/wavs/argentine_match_declarative-broad-focus_Emilio-ama-la-marcha.wav,./stim/wavs/castilian_match_declarative-broad-focus_Emilio-ama-la-marcha.wav,./stim/wavs/chilean_match_declarative-broad-focus_Emilio-ama-la-marcha.wav,./stim/wavs/cuban_match_declarative-broad-focus_Emilio-ama-la-marcha.wav,./stim/wavs/mexican_match_declarative-broad-focus_Emilio-ama-la-marcha.wav,./stim/wavs/peruvian_match_declarative-broad-focus_Emilio-ama-la-marcha.wav,./stim/wavs/puertorican_match_declarative-broad-focus_Emilio-ama-la-marcha.wav,,,,,,,,,,,,,,,,,,,,,,,,,,,,,,,,,,,,,,,,,,,,,,,,,,,,,,,,
,,,,,,,5f2af333a305a1453082fa08,6057c54e64b0b4e5c128b4f9,6058e37d42615ab85535a6ae,United States,Northeast,13 or older,no,2021-03-22_14h36.15.901,empathy_intonation_perc,2020.2.10,MacIntel,60,,,,,,,,,,0,castilian,0,1,1.78733,0,19,19,11,1,12,./stim/wavs/andalusian_match_declarative-narrow-focus_Emilio-ama-la-marcha.wav,./stim/wavs/argentine_match_declarative-narrow-focus_Emilio-ama-la-marcha.wav,./stim/wavs/castilian_match_declarative-narrow-focus_Emilio-ama-la-marcha.wav,./stim/wavs/chilean_match_declarative-narrow-focus_Emilio-ama-la-marcha.wav,./stim/wavs/cuban_match_declarative-narrow-focus_Emilio-ama-la-marcha.wav,./stim/wavs/mexican_match_declarative-narrow-focus_Emilio-ama-la-marcha.wav,./stim/wavs/peruvian_match_declarative-narrow-focus_Emilio-ama-la-marcha.wav,./stim/wavs/puertorican_match_declarative-narrow-focus_Emilio-ama-la-marcha.wav,,,,,,,,,,,,,,,,,,,,,,,,,,,,,,,,,,,,,,,,,,,,,,,,,,,,,,,,
,,,,,,,5f2af333a305a1453082fa08,6057c54e64b0b4e5c128b4f9,6058e37d42615ab85535a6ae,United States,Northeast,13 or older,no,2021-03-22_14h36.15.901,empathy_intonation_perc,2020.2.10,MacIntel,60,,,,,,,,,,1,mexican,0,0,1.95492,0,20,20,49,1,50,./stim/wavs/andalusian_mismatch_interrogative-partial-wh_Cuando-lavaba-el-plato.wav,./stim/wavs/argentine_mismatch_interrogative-partial-wh_Cuando-lavaba-el-plato.wav,./stim/wavs/castilian_mismatch_interrogative-partial-wh_Cuando-lavaba-el-plato.wav,./stim/wavs/chilean_mismatch_interrogative-partial-wh_Cuando-lavaba-el-plato.wav,./stim/wavs/cuban_mismatch_interrogative-partial-wh_Cuando-lavaba-el-plato.wav,./stim/wavs/mexican_mismatch_interrogative-partial-wh_Cuando-lavaba-el-plato.wav,./stim/wavs/peruvian_mismatch_interrogative-partial-wh_Cuando-lavaba-el-plato.wav,./stim/wavs/puertorican_mismatch_interrogative-partial-wh_Cuando-lavaba-el-plato.wav,,,,,,,,,,,,,,,,,,,,,,,,,,,,,,,,,,,,,,,,,,,,,,,,,,,,,,,,
,,,,,,,5f2af333a305a1453082fa08,6057c54e64b0b4e5c128b4f9,6058e37d42615ab85535a6ae,United States,Northeast,13 or older,no,2021-03-22_14h36.15.901,empathy_intonation_perc,2020.2.10,MacIntel,60,,,,,,,,,,0,peruvian,0,1,2.052705,0,21,21,45,1,46,./stim/wavs/andalusian_mismatch_declarative-narrow-focus_Mi-madre-come-la-fruta.wav,./stim/wavs/argentine_mismatch_declarative-narrow-focus_Mi-madre-come-la-fruta.wav,./stim/wavs/castilian_mismatch_declarative-narrow-focus_Mi-madre-come-la-fruta.wav,./stim/wavs/chilean_mismatch_declarative-narrow-focus_Mi-madre-come-la-fruta.wav,./stim/wavs/cuban_mismatch_declarative-narrow-focus_Mi-madre-come-la-fruta.wav,./stim/wavs/mexican_mismatch_declarative-narrow-focus_Mi-madre-come-la-fruta.wav,./stim/wavs/peruvian_mismatch_declarative-narrow-focus_Mi-madre-come-la-fruta.wav,./stim/wavs/puertorican_mismatch_declarative-narrow-focus_Mi-madre-come-la-fruta.wav,,,,,,,,,,,,,,,,,,,,,,,,,,,,,,,,,,,,,,,,,,,,,,,,,,,,,,,,
,,,,,,,5f2af333a305a1453082fa08,6057c54e64b0b4e5c128b4f9,6058e37d42615ab85535a6ae,United States,Northeast,13 or older,no,2021-03-22_14h36.15.901,empathy_intonation_perc,2020.2.10,MacIntel,60,,,,,,,,,,1,castilian,1,1,1.780415,0,22,22,18,1,19,./stim/wavs/andalusian_match_interrogative-partial-wh_Cuando-lleva-el-abrigo.wav,./stim/wavs/argentine_match_interrogative-partial-wh_Cuando-lleva-el-abrigo.wav,./stim/wavs/castilian_match_interrogative-partial-wh_Cuando-lleva-el-abrigo.wav,./stim/wavs/chilean_match_interrogative-partial-wh_Cuando-lleva-el-abrigo.wav,./stim/wavs/cuban_match_interrogative-partial-wh_Cuando-lleva-el-abrigo.wav,./stim/wavs/mexican_match_interrogative-partial-wh_Cuando-lleva-el-abrigo.wav,./stim/wavs/peruvian_match_interrogative-partial-wh_Cuando-lleva-el-abrigo.wav,./stim/wavs/puertorican_match_interrogative-partial-wh_Cuando-lleva-el-abrigo.wav,,,,,,,,,,,,,,,,,,,,,,,,,,,,,,,,,,,,,,,,,,,,,,,,,,,,,,,,
,,,,,,,5f2af333a305a1453082fa08,6057c54e64b0b4e5c128b4f9,6058e37d42615ab85535a6ae,United States,Northeast,13 or older,no,2021-03-22_14h36.15.901,empathy_intonation_perc,2020.2.10,MacIntel,60,,,,,,,,,,0,peruvian,0,1,1.72792,0,23,23,4,1,5,./stim/wavs/andalusian_match_declarative-broad-focus_Manuela-vende-el-carro.wav,./stim/wavs/argentine_match_declarative-broad-focus_Manuela-vende-el-carro.wav,./stim/wavs/castilian_match_declarative-broad-focus_Manuela-vende-el-carro.wav,./stim/wavs/chilean_match_declarative-broad-focus_Manuela-vende-el-carro.wav,./stim/wavs/cuban_match_declarative-broad-focus_Manuela-vende-el-carro.wav,./stim/wavs/mexican_match_declarative-broad-focus_Manuela-vende-el-carro.wav,./stim/wavs/peruvian_match_declarative-broad-focus_Manuela-vende-el-carro.wav,./stim/wavs/puertorican_match_declarative-broad-focus_Manuela-vende-el-carro.wav,,,,,,,,,,,,,,,,,,,,,,,,,,,,,,,,,,,,,,,,,,,,,,,,,,,,,,,,
,,,,,,,5f2af333a305a1453082fa08,6057c54e64b0b4e5c128b4f9,6058e37d42615ab85535a6ae,United States,Northeast,13 or older,no,2021-03-22_14h36.15.901,empathy_intonation_perc,2020.2.10,MacIntel,60,,,,,,,,,,1,castilian,1,1,1.604335,0,24,24,50,1,51,./stim/wavs/andalusian_mismatch_interrogative-partial-wh_Cuando-miraba-la-luna.wav,./stim/wavs/argentine_mismatch_interrogative-partial-wh_Cuando-miraba-la-luna.wav,./stim/wavs/castilian_mismatch_interrogative-partial-wh_Cuando-miraba-la-luna.wav,./stim/wavs/chilean_mismatch_interrogative-partial-wh_Cuando-miraba-la-luna.wav,./stim/wavs/cuban_mismatch_interrogative-partial-wh_Cuando-miraba-la-luna.wav,./stim/wavs/mexican_mismatch_interrogative-partial-wh_Cuando-miraba-la-luna.wav,./stim/wavs/peruvian_mismatch_interrogative-partial-wh_Cuando-miraba-la-luna.wav,./stim/wavs/puertorican_mismatch_interrogative-partial-wh_Cuando-miraba-la-luna.wav,,,,,,,,,,,,,,,,,,,,,,,,,,,,,,,,,,,,,,,,,,,,,,,,,,,,,,,,
,,,,,,,5f2af333a305a1453082fa08,6057c54e64b0b4e5c128b4f9,6058e37d42615ab85535a6ae,United States,Northeast,13 or older,no,2021-03-22_14h36.15.901,empathy_intonation_perc,2020.2.10,MacIntel,60,,,,,,,,,,1,mexican,0,0,1.5535,0,25,25,17,1,18,./stim/wavs/andalusian_match_interrogative-partial-wh_Cuando-leia-el-libro.wav,./stim/wavs/argentine_match_interrogative-partial-wh_Cuando-leia-el-libro.wav,./stim/wavs/castilian_match_interrogative-partial-wh_Cuando-leia-el-libro.wav,./stim/wavs/chilean_match_interrogative-partial-wh_Cuando-leia-el-libro.wav,./stim/wavs/cuban_match_interrogative-partial-wh_Cuando-leia-el-libro.wav,./stim/wavs/mexican_match_interrogative-partial-wh_Cuando-leia-el-libro.wav,./stim/wavs/peruvian_match_interrogative-partial-wh_Cuando-leia-el-libro.wav,./stim/wavs/puertorican_match_interrogative-partial-wh_Cuando-leia-el-libro.wav,,,,,,,,,,,,,,,,,,,,,,,,,,,,,,,,,,,,,,,,,,,,,,,,,,,,,,,,
,,,,,,,5f2af333a305a1453082fa08,6057c54e64b0b4e5c128b4f9,6058e37d42615ab85535a6ae,United States,Northeast,13 or older,no,2021-03-22_14h36.15.901,empathy_intonation_perc,2020.2.10,MacIntel,60,,,,,,,,,,0,mexican,0,1,1.554375,0,26,26,5,1,6,./stim/wavs/andalusian_match_declarative-broad-focus_Maria-bebe-el-vino.wav,./stim/wavs/argentine_match_declarative-broad-focus_Maria-bebe-el-vino.wav,./stim/wavs/castilian_match_declarative-broad-focus_Maria-bebe-el-vino.wav,./stim/wavs/chilean_match_declarative-broad-focus_Maria-bebe-el-vino.wav,./stim/wavs/cuban_match_declarative-broad-focus_Maria-bebe-el-vino.wav,./stim/wavs/mexican_match_declarative-broad-focus_Maria-bebe-el-vino.wav,./stim/wavs/peruvian_match_declarative-broad-focus_Maria-bebe-el-vino.wav,./stim/wavs/puertorican_match_declarative-broad-focus_Maria-bebe-el-vino.wav,,,,,,,,,,,,,,,,,,,,,,,,,,,,,,,,,,,,,,,,,,,,,,,,,,,,,,,,
,,,,,,,5f2af333a305a1453082fa08,6057c54e64b0b4e5c128b4f9,6058e37d42615ab85535a6ae,United States,Northeast,13 or older,no,2021-03-22_14h36.15.901,empathy_intonation_perc,2020.2.10,MacIntel,60,,,,,,,,,,1,andalusian,1,1,1.612915,0,27,27,31,1,32,./stim/wavs/andalusian_match_interrogative-total-yn_Marta-abre-el-regalo.wav,./stim/wavs/argentine_match_interrogative-total-yn_Marta-abre-el-regalo.wav,./stim/wavs/castilian_match_interrogative-total-yn_Marta-abre-el-regalo.wav,./stim/wavs/chilean_match_interrogative-total-yn_Marta-abre-el-regalo.wav,./stim/wavs/cuban_match_interrogative-total-yn_Marta-abre-el-regalo.wav,./stim/wavs/mexican_match_interrogative-total-yn_Marta-abre-el-regalo.wav,./stim/wavs/peruvian_match_interrogative-total-yn_Marta-abre-el-regalo.wav,./stim/wavs/puertorican_match_interrogative-total-yn_Marta-abre-el-regalo.wav,,,,,,,,,,,,,,,,,,,,,,,,,,,,,,,,,,,,,,,,,,,,,,,,,,,,,,,,
,,,,,,,5f2af333a305a1453082fa08,6057c54e64b0b4e5c128b4f9,6058e37d42615ab85535a6ae,United States,Northeast,13 or older,no,2021-03-22_14h36.15.901,empathy_intonation_perc,2020.2.10,MacIntel,60,,,,,,,,,,0,peruvian,0,1,7.387375,0,28,28,39,1,40,./stim/wavs/andalusian_mismatch_declarative-broad-focus_Mi-tia-odia-la-lluvia.wav,./stim/wavs/argentine_mismatch_declarative-broad-focus_Mi-tia-odia-la-lluvia.wav,./stim/wavs/castilian_mismatch_declarative-broad-focus_Mi-tia-odia-la-lluvia.wav,./stim/wavs/chilean_mismatch_declarative-broad-focus_Mi-tia-odia-la-lluvia.wav,./stim/wavs/cuban_mismatch_declarative-broad-focus_Mi-tia-odia-la-lluvia.wav,./stim/wavs/mexican_mismatch_declarative-broad-focus_Mi-tia-odia-la-lluvia.wav,./stim/wavs/peruvian_mismatch_declarative-broad-focus_Mi-tia-odia-la-lluvia.wav,./stim/wavs/puertorican_mismatch_declarative-broad-focus_Mi-tia-odia-la-lluvia.wav,,,,,,,,,,,,,,,,,,,,,,,,,,,,,,,,,,,,,,,,,,,,,,,,,,,,,,,,
,,,,,,,5f2af333a305a1453082fa08,6057c54e64b0b4e5c128b4f9,6058e37d42615ab85535a6ae,United States,Northeast,13 or older,no,2021-03-22_14h36.15.901,empathy_intonation_perc,2020.2.10,MacIntel,60,,,,,,,,,,1,castilian,1,1,1.73688,0,29,29,52,1,53,./stim/wavs/andalusian_mismatch_interrogative-partial-wh_Por-que-odiaba-la-lluvia.wav,./stim/wavs/argentine_mismatch_interrogative-partial-wh_Por-que-odiaba-la-lluvia.wav,./stim/wavs/castilian_mismatch_interrogative-partial-wh_Por-que-odiaba-la-lluvia.wav,./stim/wavs/chilean_mismatch_interrogative-partial-wh_Por-que-odiaba-la-lluvia.wav,./stim/wavs/cuban_mismatch_interrogative-partial-wh_Por-que-odiaba-la-lluvia.wav,./stim/wavs/mexican_mismatch_interrogative-partial-wh_Por-que-odiaba-la-lluvia.wav,./stim/wavs/peruvian_mismatch_interrogative-partial-wh_Por-que-odiaba-la-lluvia.wav,./stim/wavs/puertorican_mismatch_interrogative-partial-wh_Por-que-odiaba-la-lluvia.wav,,,,,,,,,,,,,,,,,,,,,,,,,,,,,,,,,,,,,,,,,,,,,,,,,,,,,,,,
,,,,,,,5f2af333a305a1453082fa08,6057c54e64b0b4e5c128b4f9,6058e37d42615ab85535a6ae,United States,Northeast,13 or older,no,2021-03-22_14h36.15.901,empathy_intonation_perc,2020.2.10,MacIntel,60,,,,,,,,,,1,chilean,0,0,2.254165,0,30,30,22,1,23,./stim/wavs/andalusian_match_interrogative-partial-wh_Por-que-hablaba-del-agua.wav,./stim/wavs/argentine_match_interrogative-partial-wh_Por-que-hablaba-del-agua.wav,./stim/wavs/castilian_match_interrogative-partial-wh_Por-que-hablaba-del-agua.wav,./stim/wavs/chilean_match_interrogative-partial-wh_Por-que-hablaba-del-agua.wav,./stim/wavs/cuban_match_interrogative-partial-wh_Por-que-hablaba-del-agua.wav,./stim/wavs/mexican_match_interrogative-partial-wh_Por-que-hablaba-del-agua.wav,./stim/wavs/peruvian_match_interrogative-partial-wh_Por-que-hablaba-del-agua.wav,./stim/wavs/puertorican_match_interrogative-partial-wh_Por-que-hablaba-del-agua.wav,,,,,,,,,,,,,,,,,,,,,,,,,,,,,,,,,,,,,,,,,,,,,,,,,,,,,,,,
,,,,,,,5f2af333a305a1453082fa08,6057c54e64b0b4e5c128b4f9,6058e37d42615ab85535a6ae,United States,Northeast,13 or older,no,2021-03-22_14h36.15.901,empathy_intonation_perc,2020.2.10,MacIntel,60,,,,,,,,,,1,argentine,1,1,1.80925,0,31,31,62,1,63,./stim/wavs/andalusian_mismatch_interrogative-total-yn_Mi-novio-viene-del-lago.wav,./stim/wavs/argentine_mismatch_interrogative-total-yn_Mi-novio-viene-del-lago.wav,./stim/wavs/castilian_mismatch_interrogative-total-yn_Mi-novio-viene-del-lago.wav,./stim/wavs/chilean_mismatch_interrogative-total-yn_Mi-novio-viene-del-lago.wav,./stim/wavs/cuban_mismatch_interrogative-total-yn_Mi-novio-viene-del-lago.wav,./stim/wavs/mexican_mismatch_interrogative-total-yn_Mi-novio-viene-del-lago.wav,./stim/wavs/peruvian_mismatch_interrogative-total-yn_Mi-novio-viene-del-lago.wav,./stim/wavs/puertorican_mismatch_interrogative-total-yn_Mi-novio-viene-del-lago.wav,,,,,,,,,,,,,,,,,,,,,,,,,,,,,,,,,,,,,,,,,,,,,,,,,,,,,,,,
,,,,,,,5f2af333a305a1453082fa08,6057c54e64b0b4e5c128b4f9,6058e37d42615ab85535a6ae,United States,Northeast,13 or older,no,2021-03-22_14h36.15.901,empathy_intonation_perc,2020.2.10,MacIntel,60,,,,,,,,,,0,mexican,0,1,1.65692,0,32,32,14,1,15,./stim/wavs/andalusian_match_declarative-narrow-focus_Mariano-habla-del-tiempo.wav,./stim/wavs/argentine_match_declarative-narrow-focus_Mariano-habla-del-tiempo.wav,./stim/wavs/castilian_match_declarative-narrow-focus_Mariano-habla-del-tiempo.wav,./stim/wavs/chilean_match_declarative-narrow-focus_Mariano-habla-del-tiempo.wav,./stim/wavs/cuban_match_declarative-narrow-focus_Mariano-habla-del-tiempo.wav,./stim/wavs/mexican_match_declarative-narrow-focus_Mariano-habla-del-tiempo.wav,./stim/wavs/peruvian_match_declarative-narrow-focus_Mariano-habla-del-tiempo.wav,./stim/wavs/puertorican_match_declarative-narrow-focus_Mariano-habla-del-tiempo.wav,,,,,,,,,,,,,,,,,,,,,,,,,,,,,,,,,,,,,,,,,,,,,,,,,,,,,,,,
,,,,,,,5f2af333a305a1453082fa08,6057c54e64b0b4e5c128b4f9,6058e37d42615ab85535a6ae,United States,Northeast,13 or older,no,2021-03-22_14h36.15.901,empathy_intonation_perc,2020.2.10,MacIntel,60,,,,,,,,,,1,andalusian,1,1,1.72142,0,33,33,28,1,29,./stim/wavs/andalusian_match_interrogative-total-yn_Manuela-vende-el-carro.wav,./stim/wavs/argentine_match_interrogative-total-yn_Manuela-vende-el-carro.wav,./stim/wavs/castilian_match_interrogative-total-yn_Manuela-vende-el-carro.wav,./stim/wavs/chilean_match_interrogative-total-yn_Manuela-vende-el-carro.wav,./stim/wavs/cuban_match_interrogative-total-yn_Manuela-vende-el-carro.wav,./stim/wavs/mexican_match_interrogative-total-yn_Manuela-vende-el-carro.wav,./stim/wavs/peruvian_match_interrogative-total-yn_Manuela-vende-el-carro.wav,./stim/wavs/puertorican_match_interrogative-total-yn_Manuela-vende-el-carro.wav,,,,,,,,,,,,,,,,,,,,,,,,,,,,,,,,,,,,,,,,,,,,,,,,,,,,,,,,
,,,,,,,5f2af333a305a1453082fa08,6057c54e64b0b4e5c128b4f9,6058e37d42615ab85535a6ae,United States,Northeast,13 or older,no,2021-03-22_14h36.15.901,empathy_intonation_perc,2020.2.10,MacIntel,60,,,,,,,,,,1,puertorican,0,0,1.66979,0,34,34,54,1,55,./stim/wavs/andalusian_mismatch_interrogative-partial-wh_Por-que-venia-del-lago.wav,./stim/wavs/argentine_mismatch_interrogative-partial-wh_Por-que-venia-del-lago.wav,./stim/wavs/castilian_mismatch_interrogative-partial-wh_Por-que-venia-del-lago.wav,./stim/wavs/chilean_mismatch_interrogative-partial-wh_Por-que-venia-del-lago.wav,./stim/wavs/cuban_mismatch_interrogative-partial-wh_Por-que-venia-del-lago.wav,./stim/wavs/mexican_mismatch_interrogative-partial-wh_Por-que-venia-del-lago.wav,./stim/wavs/peruvian_mismatch_interrogative-partial-wh_Por-que-venia-del-lago.wav,./stim/wavs/puertorican_mismatch_interrogative-partial-wh_Por-que-venia-del-lago.wav,,,,,,,,,,,,,,,,,,,,,,,,,,,,,,,,,,,,,,,,,,,,,,,,,,,,,,,,
,,,,,,,5f2af333a305a1453082fa08,6057c54e64b0b4e5c128b4f9,6058e37d42615ab85535a6ae,United States,Northeast,13 or older,no,2021-03-22_14h36.15.901,empathy_intonation_perc,2020.2.10,MacIntel,60,,,,,,,,,,1,andalusian,1,1,1.737165,0,35,35,26,1,27,./stim/wavs/andalusian_match_interrogative-total-yn_David-leia-el-libro.wav,./stim/wavs/argentine_match_interrogative-total-yn_David-leia-el-libro.wav,./stim/wavs/castilian_match_interrogative-total-yn_David-leia-el-libro.wav,./stim/wavs/chilean_match_interrogative-total-yn_David-leia-el-libro.wav,./stim/wavs/cuban_match_interrogative-total-yn_David-leia-el-libro.wav,./stim/wavs/mexican_match_interrogative-total-yn_David-leia-el-libro.wav,./stim/wavs/peruvian_match_interrogative-total-yn_David-leia-el-libro.wav,./stim/wavs/puertorican_match_interrogative-total-yn_David-leia-el-libro.wav,,,,,,,,,,,,,,,,,,,,,,,,,,,,,,,,,,,,,,,,,,,,,,,,,,,,,,,,
,,,,,,,5f2af333a305a1453082fa08,6057c54e64b0b4e5c128b4f9,6058e37d42615ab85535a6ae,United States,Northeast,13 or older,no,2021-03-22_14h36.15.901,empathy_intonation_perc,2020.2.10,MacIntel,60,,,,,,,,,,0,andalusian,0,1,2.10496,0,36,36,6,1,7,./stim/wavs/andalusian_match_declarative-broad-focus_Mariano-habla-del-tiempo.wav,./stim/wavs/argentine_match_declarative-broad-focus_Mariano-habla-del-tiempo.wav,./stim/wavs/castilian_match_declarative-broad-focus_Mariano-habla-del-tiempo.wav,./stim/wavs/chilean_match_declarative-broad-focus_Mariano-habla-del-tiempo.wav,./stim/wavs/cuban_match_declarative-broad-focus_Mariano-habla-del-tiempo.wav,./stim/wavs/mexican_match_declarative-broad-focus_Mariano-habla-del-tiempo.wav,./stim/wavs/peruvian_match_declarative-broad-focus_Mariano-habla-del-tiempo.wav,./stim/wavs/puertorican_match_declarative-broad-focus_Mariano-habla-del-tiempo.wav,,,,,,,,,,,,,,,,,,,,,,,,,,,,,,,,,,,,,,,,,,,,,,,,,,,,,,,,
,,,,,,,5f2af333a305a1453082fa08,6057c54e64b0b4e5c128b4f9,6058e37d42615ab85535a6ae,United States,Northeast,13 or older,no,2021-03-22_14h36.15.901,empathy_intonation_perc,2020.2.10,MacIntel,60,,,,,,,,,,1,andalusian,1,1,3.673335,0,37,37,59,1,60,./stim/wavs/andalusian_mismatch_interrogative-total-yn_La-maestra-vive-en-Paris.wav,./stim/wavs/argentine_mismatch_interrogative-total-yn_La-maestra-vive-en-Paris.wav,./stim/wavs/castilian_mismatch_interrogative-total-yn_La-maestra-vive-en-Paris.wav,./stim/wavs/chilean_mismatch_interrogative-total-yn_La-maestra-vive-en-Paris.wav,./stim/wavs/cuban_mismatch_interrogative-total-yn_La-maestra-vive-en-Paris.wav,./stim/wavs/mexican_mismatch_interrogative-total-yn_La-maestra-vive-en-Paris.wav,./stim/wavs/peruvian_mismatch_interrogative-total-yn_La-maestra-vive-en-Paris.wav,./stim/wavs/puertorican_mismatch_interrogative-total-yn_La-maestra-vive-en-Paris.wav,,,,,,,,,,,,,,,,,,,,,,,,,,,,,,,,,,,,,,,,,,,,,,,,,,,,,,,,
,,,,,,,5f2af333a305a1453082fa08,6057c54e64b0b4e5c128b4f9,6058e37d42615ab85535a6ae,United States,Northeast,13 or older,no,2021-03-22_14h36.15.901,empathy_intonation_perc,2020.2.10,MacIntel,60,,,,,,,,,,1,argentine,1,1,3.17121,0,38,38,29,1,30,./stim/wavs/andalusian_match_interrogative-total-yn_Maria-bebe-el-vino.wav,./stim/wavs/argentine_match_interrogative-total-yn_Maria-bebe-el-vino.wav,./stim/wavs/castilian_match_interrogative-total-yn_Maria-bebe-el-vino.wav,./stim/wavs/chilean_match_interrogative-total-yn_Maria-bebe-el-vino.wav,./stim/wavs/cuban_match_interrogative-total-yn_Maria-bebe-el-vino.wav,./stim/wavs/mexican_match_interrogative-total-yn_Maria-bebe-el-vino.wav,./stim/wavs/peruvian_match_interrogative-total-yn_Maria-bebe-el-vino.wav,./stim/wavs/puertorican_match_interrogative-total-yn_Maria-bebe-el-vino.wav,,,,,,,,,,,,,,,,,,,,,,,,,,,,,,,,,,,,,,,,,,,,,,,,,,,,,,,,
,,,,,,,5f2af333a305a1453082fa08,6057c54e64b0b4e5c128b4f9,6058e37d42615ab85535a6ae,United States,Northeast,13 or older,no,2021-03-22_14h36.15.901,empathy_intonation_perc,2020.2.10,MacIntel,60,,,,,,,,,,1,andalusian,1,1,1.85425,0,39,39,56,1,57,./stim/wavs/andalusian_mismatch_interrogative-total-yn_El-bebe-comia-muy-bien.wav,./stim/wavs/argentine_mismatch_interrogative-total-yn_El-bebe-comia-muy-bien.wav,./stim/wavs/castilian_mismatch_interrogative-total-yn_El-bebe-comia-muy-bien.wav,./stim/wavs/chilean_mismatch_interrogative-total-yn_El-bebe-comia-muy-bien.wav,./stim/wavs/cuban_mismatch_interrogative-total-yn_El-bebe-comia-muy-bien.wav,./stim/wavs/mexican_mismatch_interrogative-total-yn_El-bebe-comia-muy-bien.wav,./stim/wavs/peruvian_mismatch_interrogative-total-yn_El-bebe-comia-muy-bien.wav,./stim/wavs/puertorican_mismatch_interrogative-total-yn_El-bebe-comia-muy-bien.wav,,,,,,,,,,,,,,,,,,,,,,,,,,,,,,,,,,,,,,,,,,,,,,,,,,,,,,,,
,,,,,,,5f2af333a305a1453082fa08,6057c54e64b0b4e5c128b4f9,6058e37d42615ab85535a6ae,United States,Northeast,13 or older,no,2021-03-22_14h36.15.901,empathy_intonation_perc,2020.2.10,MacIntel,60,,,,,,,,,,1,cuban,0,0,1.500545,0,40,40,16,1,17,./stim/wavs/andalusian_match_interrogative-partial-wh_Cuando-bebia-el-vino.wav,./stim/wavs/argentine_match_interrogative-partial-wh_Cuando-bebia-el-vino.wav,./stim/wavs/castilian_match_interrogative-partial-wh_Cuando-bebia-el-vino.wav,./stim/wavs/chilean_match_interrogative-partial-wh_Cuando-bebia-el-vino.wav,./stim/wavs/cuban_match_interrogative-partial-wh_Cuando-bebia-el-vino.wav,./stim/wavs/mexican_match_interrogative-partial-wh_Cuando-bebia-el-vino.wav,./stim/wavs/peruvian_match_interrogative-partial-wh_Cuando-bebia-el-vino.wav,./stim/wavs/puertorican_match_interrogative-partial-wh_Cuando-bebia-el-vino.wav,,,,,,,,,,,,,,,,,,,,,,,,,,,,,,,,,,,,,,,,,,,,,,,,,,,,,,,,
,,,,,,,5f2af333a305a1453082fa08,6057c54e64b0b4e5c128b4f9,6058e37d42615ab85535a6ae,United States,Northeast,13 or older,no,2021-03-22_14h36.15.901,empathy_intonation_perc,2020.2.10,MacIntel,60,,,,,,,,,,0,cuban,0,1,1.546625,0,41,41,2,1,3,./stim/wavs/andalusian_match_declarative-broad-focus_David-leia-el-libro.wav,./stim/wavs/argentine_match_declarative-broad-focus_David-leia-el-libro.wav,./stim/wavs/castilian_match_declarative-broad-focus_David-leia-el-libro.wav,./stim/wavs/chilean_match_declarative-broad-focus_David-leia-el-libro.wav,./stim/wavs/cuban_match_declarative-broad-focus_David-leia-el-libro.wav,./stim/wavs/mexican_match_declarative-broad-focus_David-leia-el-libro.wav,./stim/wavs/peruvian_match_declarative-broad-focus_David-leia-el-libro.wav,./stim/wavs/puertorican_match_declarative-broad-focus_David-leia-el-libro.wav,,,,,,,,,,,,,,,,,,,,,,,,,,,,,,,,,,,,,,,,,,,,,,,,,,,,,,,,
,,,,,,,5f2af333a305a1453082fa08,6057c54e64b0b4e5c128b4f9,6058e37d42615ab85535a6ae,United States,Northeast,13 or older,no,2021-03-22_14h36.15.901,empathy_intonation_perc,2020.2.10,MacIntel,60,,,,,,,,,,1,peruvian,1,1,1.920085,0,42,42,63,1,64,./stim/wavs/andalusian_mismatch_interrogative-total-yn_Mi-tia-odia-la-lluvia.wav,./stim/wavs/argentine_mismatch_interrogative-total-yn_Mi-tia-odia-la-lluvia.wav,./stim/wavs/castilian_mismatch_interrogative-total-yn_Mi-tia-odia-la-lluvia.wav,./stim/wavs/chilean_mismatch_interrogative-total-yn_Mi-tia-odia-la-lluvia.wav,./stim/wavs/cuban_mismatch_interrogative-total-yn_Mi-tia-odia-la-lluvia.wav,./stim/wavs/mexican_mismatch_interrogative-total-yn_Mi-tia-odia-la-lluvia.wav,./stim/wavs/peruvian_mismatch_interrogative-total-yn_Mi-tia-odia-la-lluvia.wav,./stim/wavs/puertorican_mismatch_interrogative-total-yn_Mi-tia-odia-la-lluvia.wav,,,,,,,,,,,,,,,,,,,,,,,,,,,,,,,,,,,,,,,,,,,,,,,,,,,,,,,,
,,,,,,,5f2af333a305a1453082fa08,6057c54e64b0b4e5c128b4f9,6058e37d42615ab85535a6ae,United States,Northeast,13 or older,no,2021-03-22_14h36.15.901,empathy_intonation_perc,2020.2.10,MacIntel,60,,,,,,,,,,0,cuban,0,1,1.852415,0,43,43,38,1,39,./stim/wavs/andalusian_mismatch_declarative-broad-focus_Mi-novio-viene-del-lago.wav,./stim/wavs/argentine_mismatch_declarative-broad-focus_Mi-novio-viene-del-lago.wav,./stim/wavs/castilian_mismatch_declarative-broad-focus_Mi-novio-viene-del-lago.wav,./stim/wavs/chilean_mismatch_declarative-broad-focus_Mi-novio-viene-del-lago.wav,./stim/wavs/cuban_mismatch_declarative-broad-focus_Mi-novio-viene-del-lago.wav,./stim/wavs/mexican_mismatch_declarative-broad-focus_Mi-novio-viene-del-lago.wav,./stim/wavs/peruvian_mismatch_declarative-broad-focus_Mi-novio-viene-del-lago.wav,./stim/wavs/puertorican_mismatch_declarative-broad-focus_Mi-novio-viene-del-lago.wav,,,,,,,,,,,,,,,,,,,,,,,,,,,,,,,,,,,,,,,,,,,,,,,,,,,,,,,,
,,,,,,,5f2af333a305a1453082fa08,6057c54e64b0b4e5c128b4f9,6058e37d42615ab85535a6ae,United States,Northeast,13 or older,no,2021-03-22_14h36.15.901,empathy_intonation_perc,2020.2.10,MacIntel,60,,,,,,,,,,1,peruvian,0,0,2.109,0,44,44,51,1,52,./stim/wavs/andalusian_mismatch_interrogative-partial-wh_Por-que-desayuna-muy-bien.wav,./stim/wavs/argentine_mismatch_interrogative-partial-wh_Por-que-desayuna-muy-bien.wav,./stim/wavs/castilian_mismatch_interrogative-partial-wh_Por-que-desayuna-muy-bien.wav,./stim/wavs/chilean_mismatch_interrogative-partial-wh_Por-que-desayuna-muy-bien.wav,./stim/wavs/cuban_mismatch_interrogative-partial-wh_Por-que-desayuna-muy-bien.wav,./stim/wavs/mexican_mismatch_interrogative-partial-wh_Por-que-desayuna-muy-bien.wav,./stim/wavs/peruvian_mismatch_interrogative-partial-wh_Por-que-desayuna-muy-bien.wav,./stim/wavs/puertorican_mismatch_interrogative-partial-wh_Por-que-desayuna-muy-bien.wav,,,,,,,,,,,,,,,,,,,,,,,,,,,,,,,,,,,,,,,,,,,,,,,,,,,,,,,,
,,,,,,,5f2af333a305a1453082fa08,6057c54e64b0b4e5c128b4f9,6058e37d42615ab85535a6ae,United States,Northeast,13 or older,no,2021-03-22_14h36.15.901,empathy_intonation_perc,2020.2.10,MacIntel,60,,,,,,,,,,0,argentine,0,1,1.55179,0,45,45,10,1,11,./stim/wavs/andalusian_match_declarative-narrow-focus_David-leia-el-libro.wav,./stim/wavs/argentine_match_declarative-narrow-focus_David-leia-el-libro.wav,./stim/wavs/castilian_match_declarative-narrow-focus_David-leia-el-libro.wav,./stim/wavs/chilean_match_declarative-narrow-focus_David-leia-el-libro.wav,./stim/wavs/cuban_match_declarative-narrow-focus_David-leia-el-libro.wav,./stim/wavs/mexican_match_declarative-narrow-focus_David-leia-el-libro.wav,./stim/wavs/peruvian_match_declarative-narrow-focus_David-leia-el-libro.wav,./stim/wavs/puertorican_match_declarative-narrow-focus_David-leia-el-libro.wav,,,,,,,,,,,,,,,,,,,,,,,,,,,,,,,,,,,,,,,,,,,,,,,,,,,,,,,,
,,,,,,,5f2af333a305a1453082fa08,6057c54e64b0b4e5c128b4f9,6058e37d42615ab85535a6ae,United States,Northeast,13 or older,no,2021-03-22_14h36.15.901,empathy_intonation_perc,2020.2.10,MacIntel,60,,,,,,,,,,0,chilean,0,1,2.01904,0,46,46,46,1,47,./stim/wavs/andalusian_mismatch_declarative-narrow-focus_Mi-novio-viene-del-lago.wav,./stim/wavs/argentine_mismatch_declarative-narrow-focus_Mi-novio-viene-del-lago.wav,./stim/wavs/castilian_mismatch_declarative-narrow-focus_Mi-novio-viene-del-lago.wav,./stim/wavs/chilean_mismatch_declarative-narrow-focus_Mi-novio-viene-del-lago.wav,./stim/wavs/cuban_mismatch_declarative-narrow-focus_Mi-novio-viene-del-lago.wav,./stim/wavs/mexican_mismatch_declarative-narrow-focus_Mi-novio-viene-del-lago.wav,./stim/wavs/peruvian_mismatch_declarative-narrow-focus_Mi-novio-viene-del-lago.wav,./stim/wavs/puertorican_mismatch_declarative-narrow-focus_Mi-novio-viene-del-lago.wav,,,,,,,,,,,,,,,,,,,,,,,,,,,,,,,,,,,,,,,,,,,,,,,,,,,,,,,,
,,,,,,,5f2af333a305a1453082fa08,6057c54e64b0b4e5c128b4f9,6058e37d42615ab85535a6ae,United States,Northeast,13 or older,no,2021-03-22_14h36.15.901,empathy_intonation_perc,2020.2.10,MacIntel,60,,,,,,,,,,1,peruvian,1,1,1.95675,0,47,47,60,1,61,./stim/wavs/andalusian_mismatch_interrogative-total-yn_La-nina-lava-el-plato.wav,./stim/wavs/argentine_mismatch_interrogative-total-yn_La-nina-lava-el-plato.wav,./stim/wavs/castilian_mismatch_interrogative-total-yn_La-nina-lava-el-plato.wav,./stim/wavs/chilean_mismatch_interrogative-total-yn_La-nina-lava-el-plato.wav,./stim/wavs/cuban_mismatch_interrogative-total-yn_La-nina-lava-el-plato.wav,./stim/wavs/mexican_mismatch_interrogative-total-yn_La-nina-lava-el-plato.wav,./stim/wavs/peruvian_mismatch_interrogative-total-yn_La-nina-lava-el-plato.wav,./stim/wavs/puertorican_mismatch_interrogative-total-yn_La-nina-lava-el-plato.wav,,,,,,,,,,,,,,,,,,,,,,,,,,,,,,,,,,,,,,,,,,,,,,,,,,,,,,,,
,,,,,,,5f2af333a305a1453082fa08,6057c54e64b0b4e5c128b4f9,6058e37d42615ab85535a6ae,United States,Northeast,13 or older,no,2021-03-22_14h36.15.901,empathy_intonation_perc,2020.2.10,MacIntel,60,,,,,,,,,,0,argentine,0,1,1.72625,0,48,48,1,1,2,./stim/wavs/andalusian_match_declarative-broad-focus_Daniel-iba-a-Bolivia.wav,./stim/wavs/argentine_match_declarative-broad-focus_Daniel-iba-a-Bolivia.wav,./stim/wavs/castilian_match_declarative-broad-focus_Daniel-iba-a-Bolivia.wav,./stim/wavs/chilean_match_declarative-broad-focus_Daniel-iba-a-Bolivia.wav,./stim/wavs/cuban_match_declarative-broad-focus_Daniel-iba-a-Bolivia.wav,./stim/wavs/mexican_match_declarative-broad-focus_Daniel-iba-a-Bolivia.wav,./stim/wavs/peruvian_match_declarative-broad-focus_Daniel-iba-a-Bolivia.wav,./stim/wavs/puertorican_match_declarative-broad-focus_Daniel-iba-a-Bolivia.wav,,,,,,,,,,,,,,,,,,,,,,,,,,,,,,,,,,,,,,,,,,,,,,,,,,,,,,,,
,,,,,,,5f2af333a305a1453082fa08,6057c54e64b0b4e5c128b4f9,6058e37d42615ab85535a6ae,United States,Northeast,13 or older,no,2021-03-22_14h36.15.901,empathy_intonation_perc,2020.2.10,MacIntel,60,,,,,,,,,,1,castilian,1,1,1.97467,0,49,49,27,1,28,./stim/wavs/andalusian_match_interrogative-total-yn_Emilio-ama-la-marcha.wav,./stim/wavs/argentine_match_interrogative-total-yn_Emilio-ama-la-marcha.wav,./stim/wavs/castilian_match_interrogative-total-yn_Emilio-ama-la-marcha.wav,./stim/wavs/chilean_match_interrogative-total-yn_Emilio-ama-la-marcha.wav,./stim/wavs/cuban_match_interrogative-total-yn_Emilio-ama-la-marcha.wav,./stim/wavs/mexican_match_interrogative-total-yn_Emilio-ama-la-marcha.wav,./stim/wavs/peruvian_match_interrogative-total-yn_Emilio-ama-la-marcha.wav,./stim/wavs/puertorican_match_interrogative-total-yn_Emilio-ama-la-marcha.wav,,,,,,,,,,,,,,,,,,,,,,,,,,,,,,,,,,,,,,,,,,,,,,,,,,,,,,,,
,,,,,,,5f2af333a305a1453082fa08,6057c54e64b0b4e5c128b4f9,6058e37d42615ab85535a6ae,United States,Northeast,13 or older,no,2021-03-22_14h36.15.901,empathy_intonation_perc,2020.2.10,MacIntel,60,,,,,,,,,,0,cuban,0,1,1.662375,0,50,50,8,1,9,./stim/wavs/andalusian_match_declarative-narrow-focus_Ana-lleva-el-abrigo.wav,./stim/wavs/argentine_match_declarative-narrow-focus_Ana-lleva-el-abrigo.wav,./stim/wavs/castilian_match_declarative-narrow-focus_Ana-lleva-el-abrigo.wav,./stim/wavs/chilean_match_declarative-narrow-focus_Ana-lleva-el-abrigo.wav,./stim/wavs/cuban_match_declarative-narrow-focus_Ana-lleva-el-abrigo.wav,./stim/wavs/mexican_match_declarative-narrow-focus_Ana-lleva-el-abrigo.wav,./stim/wavs/peruvian_match_declarative-narrow-focus_Ana-lleva-el-abrigo.wav,./stim/wavs/puertorican_match_declarative-narrow-focus_Ana-lleva-el-abrigo.wav,,,,,,,,,,,,,,,,,,,,,,,,,,,,,,,,,,,,,,,,,,,,,,,,,,,,,,,,
,,,,,,,5f2af333a305a1453082fa08,6057c54e64b0b4e5c128b4f9,6058e37d42615ab85535a6ae,United States,Northeast,13 or older,no,2021-03-22_14h36.15.901,empathy_intonation_perc,2020.2.10,MacIntel,60,,,,,,,,,,0,argentine,0,1,1.40958,0,51,51,41,1,42,./stim/wavs/andalusian_mismatch_declarative-narrow-focus_El-hombre-mira-la-luna.wav,./stim/wavs/argentine_mismatch_declarative-narrow-focus_El-hombre-mira-la-luna.wav,./stim/wavs/castilian_mismatch_declarative-narrow-focus_El-hombre-mira-la-luna.wav,./stim/wavs/chilean_mismatch_declarative-narrow-focus_El-hombre-mira-la-luna.wav,./stim/wavs/cuban_mismatch_declarative-narrow-focus_El-hombre-mira-la-luna.wav,./stim/wavs/mexican_mismatch_declarative-narrow-focus_El-hombre-mira-la-luna.wav,./stim/wavs/peruvian_mismatch_declarative-narrow-focus_El-hombre-mira-la-luna.wav,./stim/wavs/puertorican_mismatch_declarative-narrow-focus_El-hombre-mira-la-luna.wav,,,,,,,,,,,,,,,,,,,,,,,,,,,,,,,,,,,,,,,,,,,,,,,,,,,,,,,,
,,,,,,,5f2af333a305a1453082fa08,6057c54e64b0b4e5c128b4f9,6058e37d42615ab85535a6ae,United States,Northeast,13 or older,no,2021-03-22_14h36.15.901,empathy_intonation_perc,2020.2.10,MacIntel,60,,,,,,,,,,1,puertorican,1,1,2.13384,0,52,52,57,1,58,./stim/wavs/andalusian_mismatch_interrogative-total-yn_El-hombre-mira-la-luna.wav,./stim/wavs/argentine_mismatch_interrogative-total-yn_El-hombre-mira-la-luna.wav,./stim/wavs/castilian_mismatch_interrogative-total-yn_El-hombre-mira-la-luna.wav,./stim/wavs/chilean_mismatch_interrogative-total-yn_El-hombre-mira-la-luna.wav,./stim/wavs/cuban_mismatch_interrogative-total-yn_El-hombre-mira-la-luna.wav,./stim/wavs/mexican_mismatch_interrogative-total-yn_El-hombre-mira-la-luna.wav,./stim/wavs/peruvian_mismatch_interrogative-total-yn_El-hombre-mira-la-luna.wav,./stim/wavs/puertorican_mismatch_interrogative-total-yn_El-hombre-mira-la-luna.wav,,,,,,,,,,,,,,,,,,,,,,,,,,,,,,,,,,,,,,,,,,,,,,,,,,,,,,,,
,,,,,,,5f2af333a305a1453082fa08,6057c54e64b0b4e5c128b4f9,6058e37d42615ab85535a6ae,United States,Northeast,13 or older,no,2021-03-22_14h36.15.901,empathy_intonation_perc,2020.2.10,MacIntel,60,,,,,,,,,,0,mexican,0,1,1.883415,0,53,53,36,1,37,./stim/wavs/andalusian_mismatch_declarative-broad-focus_La-nina-lava-el-plato.wav,./stim/wavs/argentine_mismatch_declarative-broad-focus_La-nina-lava-el-plato.wav,./stim/wavs/castilian_mismatch_declarative-broad-focus_La-nina-lava-el-plato.wav,./stim/wavs/chilean_mismatch_declarative-broad-focus_La-nina-lava-el-plato.wav,./stim/wavs/cuban_mismatch_declarative-broad-focus_La-nina-lava-el-plato.wav,./stim/wavs/mexican_mismatch_declarative-broad-focus_La-nina-lava-el-plato.wav,./stim/wavs/peruvian_mismatch_declarative-broad-focus_La-nina-lava-el-plato.wav,./stim/wavs/puertorican_mismatch_declarative-broad-focus_La-nina-lava-el-plato.wav,,,,,,,,,,,,,,,,,,,,,,,,,,,,,,,,,,,,,,,,,,,,,,,,,,,,,,,,
,,,,,,,5f2af333a305a1453082fa08,6057c54e64b0b4e5c128b4f9,6058e37d42615ab85535a6ae,United States,Northeast,13 or older,no,2021-03-22_14h36.15.901,empathy_intonation_perc,2020.2.10,MacIntel,60,,,,,,,,,,1,mexican,0,0,1.638875,0,54,54,21,1,22,./stim/wavs/andalusian_match_interrogative-partial-wh_Por-que-ama-la-navidad.wav,./stim/wavs/argentine_match_interrogative-partial-wh_Por-que-ama-la-navidad.wav,./stim/wavs/castilian_match_interrogative-partial-wh_Por-que-ama-la-navidad.wav,./stim/wavs/chilean_match_interrogative-partial-wh_Por-que-ama-la-navidad.wav,./stim/wavs/cuban_match_interrogative-partial-wh_Por-que-ama-la-navidad.wav,./stim/wavs/mexican_match_interrogative-partial-wh_Por-que-ama-la-navidad.wav,./stim/wavs/peruvian_match_interrogative-partial-wh_Por-que-ama-la-navidad.wav,./stim/wavs/puertorican_match_interrogative-partial-wh_Por-que-ama-la-navidad.wav,,,,,,,,,,,,,,,,,,,,,,,,,,,,,,,,,,,,,,,,,,,,,,,,,,,,,,,,
,,,,,,,5f2af333a305a1453082fa08,6057c54e64b0b4e5c128b4f9,6058e37d42615ab85535a6ae,United States,Northeast,13 or older,no,2021-03-22_14h36.15.901,empathy_intonation_perc,2020.2.10,MacIntel,60,,,,,,,,,,1,argentine,1,1,1.936165,0,55,55,58,1,59,./stim/wavs/andalusian_mismatch_interrogative-total-yn_El-nino-oye-el-rio.wav,./stim/wavs/argentine_mismatch_interrogative-total-yn_El-nino-oye-el-rio.wav,./stim/wavs/castilian_mismatch_interrogative-total-yn_El-nino-oye-el-rio.wav,./stim/wavs/chilean_mismatch_interrogative-total-yn_El-nino-oye-el-rio.wav,./stim/wavs/cuban_mismatch_interrogative-total-yn_El-nino-oye-el-rio.wav,./stim/wavs/mexican_mismatch_interrogative-total-yn_El-nino-oye-el-rio.wav,./stim/wavs/peruvian_mismatch_interrogative-total-yn_El-nino-oye-el-rio.wav,./stim/wavs/puertorican_mismatch_interrogative-total-yn_El-nino-oye-el-rio.wav,,,,,,,,,,,,,,,,,,,,,,,,,,,,,,,,,,,,,,,,,,,,,,,,,,,,,,,,
,,,,,,,5f2af333a305a1453082fa08,6057c54e64b0b4e5c128b4f9,6058e37d42615ab85535a6ae,United States,Northeast,13 or older,no,2021-03-22_14h36.15.901,empathy_intonation_perc,2020.2.10,MacIntel,60,,,,,,,,,,0,puertorican,0,1,1.570415,0,56,56,33,1,34,./stim/wavs/andalusian_mismatch_declarative-broad-focus_El-hombre-mira-la-luna.wav,./stim/wavs/argentine_mismatch_declarative-broad-focus_El-hombre-mira-la-luna.wav,./stim/wavs/castilian_mismatch_declarative-broad-focus_El-hombre-mira-la-luna.wav,./stim/wavs/chilean_mismatch_declarative-broad-focus_El-hombre-mira-la-luna.wav,./stim/wavs/cuban_mismatch_declarative-broad-focus_El-hombre-mira-la-luna.wav,./stim/wavs/mexican_mismatch_declarative-broad-focus_El-hombre-mira-la-luna.wav,./stim/wavs/peruvian_mismatch_declarative-broad-focus_El-hombre-mira-la-luna.wav,./stim/wavs/puertorican_mismatch_declarative-broad-focus_El-hombre-mira-la-luna.wav,,,,,,,,,,,,,,,,,,,,,,,,,,,,,,,,,,,,,,,,,,,,,,,,,,,,,,,,
,,,,,,,5f2af333a305a1453082fa08,6057c54e64b0b4e5c128b4f9,6058e37d42615ab85535a6ae,United States,Northeast,13 or older,no,2021-03-22_14h36.15.901,empathy_intonation_perc,2020.2.10,MacIntel,60,,,,,,,,,,0,mexican,0,1,1.484875,0,57,57,34,1,35,./stim/wavs/andalusian_mismatch_declarative-broad-focus_El-nino-oye-el-rio.wav,./stim/wavs/argentine_mismatch_declarative-broad-focus_El-nino-oye-el-rio.wav,./stim/wavs/castilian_mismatch_declarative-broad-focus_El-nino-oye-el-rio.wav,./stim/wavs/chilean_mismatch_declarative-broad-focus_El-nino-oye-el-rio.wav,./stim/wavs/cuban_mismatch_declarative-broad-focus_El-nino-oye-el-rio.wav,./stim/wavs/mexican_mismatch_declarative-broad-focus_El-nino-oye-el-rio.wav,./stim/wavs/peruvian_mismatch_declarative-broad-focus_El-nino-oye-el-rio.wav,./stim/wavs/puertorican_mismatch_declarative-broad-focus_El-nino-oye-el-rio.wav,,,,,,,,,,,,,,,,,,,,,,,,,,,,,,,,,,,,,,,,,,,,,,,,,,,,,,,,
,,,,,,,5f2af333a305a1453082fa08,6057c54e64b0b4e5c128b4f9,6058e37d42615ab85535a6ae,United States,Northeast,13 or older,no,2021-03-22_14h36.15.901,empathy_intonation_perc,2020.2.10,MacIntel,60,,,,,,,,,,1,argentine,0,0,1.47012,0,58,58,55,1,56,./stim/wavs/andalusian_mismatch_interrogative-partial-wh_Por-que-vivia-en-Paris.wav,./stim/wavs/argentine_mismatch_interrogative-partial-wh_Por-que-vivia-en-Paris.wav,./stim/wavs/castilian_mismatch_interrogative-partial-wh_Por-que-vivia-en-Paris.wav,./stim/wavs/chilean_mismatch_interrogative-partial-wh_Por-que-vivia-en-Paris.wav,./stim/wavs/cuban_mismatch_interrogative-partial-wh_Por-que-vivia-en-Paris.wav,./stim/wavs/mexican_mismatch_interrogative-partial-wh_Por-que-vivia-en-Paris.wav,./stim/wavs/peruvian_mismatch_interrogative-partial-wh_Por-que-vivia-en-Paris.wav,./stim/wavs/puertorican_mismatch_interrogative-partial-wh_Por-que-vivia-en-Paris.wav,,,,,,,,,,,,,,,,,,,,,,,,,,,,,,,,,,,,,,,,,,,,,,,,,,,,,,,,
,,,,,,,5f2af333a305a1453082fa08,6057c54e64b0b4e5c128b4f9,6058e37d42615ab85535a6ae,United States,Northeast,13 or older,no,2021-03-22_14h36.15.901,empathy_intonation_perc,2020.2.10,MacIntel,60,,,,,,,,,,0,mexican,0,1,1.9045,0,59,59,43,1,44,./stim/wavs/andalusian_mismatch_declarative-narrow-focus_La-maestra-vive-en-Paris.wav,./stim/wavs/argentine_mismatch_declarative-narrow-focus_La-maestra-vive-en-Paris.wav,./stim/wavs/castilian_mismatch_declarative-narrow-focus_La-maestra-vive-en-Paris.wav,./stim/wavs/chilean_mismatch_declarative-narrow-focus_La-maestra-vive-en-Paris.wav,./stim/wavs/cuban_mismatch_declarative-narrow-focus_La-maestra-vive-en-Paris.wav,./stim/wavs/mexican_mismatch_declarative-narrow-focus_La-maestra-vive-en-Paris.wav,./stim/wavs/peruvian_mismatch_declarative-narrow-focus_La-maestra-vive-en-Paris.wav,./stim/wavs/puertorican_mismatch_declarative-narrow-focus_La-maestra-vive-en-Paris.wav,,,,,,,,,,,,,,,,,,,,,,,,,,,,,,,,,,,,,,,,,,,,,,,,,,,,,,,,
,,,,,,,5f2af333a305a1453082fa08,6057c54e64b0b4e5c128b4f9,6058e37d42615ab85535a6ae,United States,Northeast,13 or older,no,2021-03-22_14h36.15.901,empathy_intonation_perc,2020.2.10,MacIntel,60,,,,,,,,,,1,chilean,1,1,1.336125,0,60,60,23,1,24,./stim/wavs/andalusian_match_interrogative-partial-wh_Por-que-iba-a-Bolivia.wav,./stim/wavs/argentine_match_interrogative-partial-wh_Por-que-iba-a-Bolivia.wav,./stim/wavs/castilian_match_interrogative-partial-wh_Por-que-iba-a-Bolivia.wav,./stim/wavs/chilean_match_interrogative-partial-wh_Por-que-iba-a-Bolivia.wav,./stim/wavs/cuban_match_interrogative-partial-wh_Por-que-iba-a-Bolivia.wav,./stim/wavs/mexican_match_interrogative-partial-wh_Por-que-iba-a-Bolivia.wav,./stim/wavs/peruvian_match_interrogative-partial-wh_Por-que-iba-a-Bolivia.wav,./stim/wavs/puertorican_match_interrogative-partial-wh_Por-que-iba-a-Bolivia.wav,,,,,,,,,,,,,,,,,,,,,,,,,,,,,,,,,,,,,,,,,,,,,,,,,,,,,,,,
,,,,,,,5f2af333a305a1453082fa08,6057c54e64b0b4e5c128b4f9,6058e37d42615ab85535a6ae,United States,Northeast,13 or older,no,2021-03-22_14h36.15.901,empathy_intonation_perc,2020.2.10,MacIntel,60,,,,,,,,,,0,chilean,0,1,1.38608,0,61,61,0,1,1,./stim/wavs/andalusian_match_declarative-broad-focus_Ana-lleva-el-abrigo.wav,./stim/wavs/argentine_match_declarative-broad-focus_Ana-lleva-el-abrigo.wav,./stim/wavs/castilian_match_declarative-broad-focus_Ana-lleva-el-abrigo.wav,./stim/wavs/chilean_match_declarative-broad-focus_Ana-lleva-el-abrigo.wav,./stim/wavs/cuban_match_declarative-broad-focus_Ana-lleva-el-abrigo.wav,./stim/wavs/mexican_match_declarative-broad-focus_Ana-lleva-el-abrigo.wav,./stim/wavs/peruvian_match_declarative-broad-focus_Ana-lleva-el-abrigo.wav,./stim/wavs/puertorican_match_declarative-broad-focus_Ana-lleva-el-abrigo.wav,,,,,,,,,,,,,,,,,,,,,,,,,,,,,,,,,,,,,,,,,,,,,,,,,,,,,,,,
,,,,,,,5f2af333a305a1453082fa08,6057c54e64b0b4e5c128b4f9,6058e37d42615ab85535a6ae,United States,Northeast,13 or older,no,2021-03-22_14h36.15.901,empathy_intonation_perc,2020.2.10,MacIntel,60,,,,,,,,,,1,castilian,1,1,1.73721,0,62,62,20,1,21,./stim/wavs/andalusian_match_interrogative-partial-wh_Por-que-abre-el-regalo.wav,./stim/wavs/argentine_match_interrogative-partial-wh_Por-que-abre-el-regalo.wav,./stim/wavs/castilian_match_interrogative-partial-wh_Por-que-abre-el-regalo.wav,./stim/wavs/chilean_match_interrogative-partial-wh_Por-que-abre-el-regalo.wav,./stim/wavs/cuban_match_interrogative-partial-wh_Por-que-abre-el-regalo.wav,./stim/wavs/mexican_match_interrogative-partial-wh_Por-que-abre-el-regalo.wav,./stim/wavs/peruvian_match_interrogative-partial-wh_Por-que-abre-el-regalo.wav,./stim/wavs/puertorican_match_interrogative-partial-wh_Por-que-abre-el-regalo.wav,,,,,,,,,,,,,,,,,,,,,,,,,,,,,,,,,,,,,,,,,,,,,,,,,,,,,,,,
,,,,,,,5f2af333a305a1453082fa08,6057c54e64b0b4e5c128b4f9,6058e37d42615ab85535a6ae,United States,Northeast,13 or older,no,2021-03-22_14h36.15.901,empathy_intonation_perc,2020.2.10,MacIntel,60,,,,,,,,,,0,andalusian,0,1,1.60346,0,63,63,42,1,43,./stim/wavs/andalusian_mismatch_declarative-narrow-focus_El-nino-oye-el-rio.wav,./stim/wavs/argentine_mismatch_declarative-narrow-focus_El-nino-oye-el-rio.wav,./stim/wavs/castilian_mismatch_declarative-narrow-focus_El-nino-oye-el-rio.wav,./stim/wavs/chilean_mismatch_declarative-narrow-focus_El-nino-oye-el-rio.wav,./stim/wavs/cuban_mismatch_declarative-narrow-focus_El-nino-oye-el-rio.wav,./stim/wavs/mexican_mismatch_declarative-narrow-focus_El-nino-oye-el-rio.wav,./stim/wavs/peruvian_mismatch_declarative-narrow-focus_El-nino-oye-el-rio.wav,./stim/wavs/puertorican_mismatch_declarative-narrow-focus_El-nino-oye-el-rio.wav,,,,,,,,,,,,,,,,,,,,,,,,,,,,,,,,,,,,,,,,,,,,,,,,,,,,,,,,
,,,,,,,5f2af333a305a1453082fa08,6057c54e64b0b4e5c128b4f9,6058e37d42615ab85535a6ae,United States,Northeast,13 or older,no,2021-03-22_14h36.15.901,empathy_intonation_perc,2020.2.10,MacIntel,60,,,,,,,,,,,,,,,,,,,,,,,,,,,,,h,1,6.87063,0,0,0,0,1,,,,,,,,,,,,,,,,,,,,,,,,,,,,,,,,,,,,,,,,,,,,,,,,
,,,,,"Great! Now we will move on. The next task consists of about 60 trials, in each of which you will see a string of letters. 
  
  Your task is to decide whether this is a real Spanish word or not.",(press the spacebar to continue),5f2af333a305a1453082fa08,6057c54e64b0b4e5c128b4f9,6058e37d42615ab85535a6ae,United States,Northeast,13 or older,no,2021-03-22_14h36.15.901,empathy_intonation_perc,2020.2.10,MacIntel,60,,,,,,,,,,,,,,,,,,,,,,,,,,,,,,,,,,,,,0,0,0,0,1,,,,,,,,,,,,,,,,,,,,,,,,,,,,,,,,,,,,,,,,,,,
,,,,,"If you think it is an existing Spanish word, you type '1' (for 'REAL'), and if you think it is not an existing Spanish word, you type '0' (for 'FAKE').",(press the spacebar to continue),5f2af333a305a1453082fa08,6057c54e64b0b4e5c128b4f9,6058e37d42615ab85535a6ae,United States,Northeast,13 or older,no,2021-03-22_14h36.15.901,empathy_intonation_perc,2020.2.10,MacIntel,60,,,,,,,,,,,,,,,,,,,,,,,,,,,,,,,,,,,,,0,1,1,1,1,,,,,,,,,,,,,,,,,,,,,,,,,,,,,,,,,,,,,,,,,,,
,,,,,"If you are sure that the word exists, even though you dont know its exact meaning, you may still respond '1' (REAL). 
  
  But if you are not sure if it is an existing word, you should respond '0' (FAKE).
  
  Let's do a practice round...",(press the spacebar to continue),5f2af333a305a1453082fa08,6057c54e64b0b4e5c128b4f9,6058e37d42615ab85535a6ae,United States,Northeast,13 or older,no,2021-03-22_14h36.15.901,empathy_intonation_perc,2020.2.10,MacIntel,60,,,,,,,,,,,,,,,,,,,,,,,,,,,,,,,,,,,,,0,2,2,2,1,,,,,,,,,,,,,,,,,,,,,,,,,,,,,,,,,,,,,,,,,,,
,,,,,,,5f2af333a305a1453082fa08,6057c54e64b0b4e5c128b4f9,6058e37d42615ab85535a6ae,United States,Northeast,13 or older,no,2021-03-22_14h36.15.901,empathy_intonation_perc,2020.2.10,MacIntel,60,,,,,,,,,,0,,,,,,,,,,,,,,,,,,,,,,,,,,,,,,,,0,1,2.450295,0,0,0,0,1,0,depiste,REAL,FAKE,,,,,,,,,,,,,,,,,,,,,,,,,,,,,,,
,,,,,,,5f2af333a305a1453082fa08,6057c54e64b0b4e5c128b4f9,6058e37d42615ab85535a6ae,United States,Northeast,13 or older,no,2021-03-22_14h36.15.901,empathy_intonation_perc,2020.2.10,MacIntel,60,,,,,,,,,,1,,,,,,,,,,,,,,,,,,,,,,,,,,,,,,,,1,1,0.666625,0,1,1,1,1,0,s,REAL,FAKE,,,,,,,,,,,,,,,,,,,,,,,,,,,,,,,
,,,,,,,5f2af333a305a1453082fa08,6057c54e64b0b4e5c128b4f9,6058e37d42615ab85535a6ae,United States,Northeast,13 or older,no,2021-03-22_14h36.15.901,empathy_intonation_perc,2020.2.10,MacIntel,60,,,,,,,,,,0,,,,,,,,,,,,,,,,,,,,,,,,,,,,,,,,1,0,0.84,0,2,2,2,1,0,con,REAL,FAKE,,,,,,,,,,,,,,,,,,,,,,,,,,,,,,,
,,,,,,,5f2af333a305a1453082fa08,6057c54e64b0b4e5c128b4f9,6058e37d42615ab85535a6ae,United States,Northeast,13 or older,no,2021-03-22_14h36.15.901,empathy_intonation_perc,2020.2.10,MacIntel,60,,,,,,,,,,0,,,,,,,,,,,,,,,,,,,,,,,,,,,,,,,,1,0,0.731835,0,3,3,3,1,0,calpar,REAL,FAKE,,,,,,,,,,,,,,,,,,,,,,,,,,,,,,,
,,,,,,,5f2af333a305a1453082fa08,6057c54e64b0b4e5c128b4f9,6058e37d42615ab85535a6ae,United States,Northeast,13 or older,no,2021-03-22_14h36.15.901,empathy_intonation_perc,2020.2.10,MacIntel,60,,,,,,,,,,0,,,,,,,,,,,,,,,,,,,,,,,,,,,,,,,,0,1,0.831835,0,4,4,4,1,0,joten,REAL,FAKE,,,,,,,,,,,,,,,,,,,,,,,,,,,,,,,
,,,,,,,5f2af333a305a1453082fa08,6057c54e64b0b4e5c128b4f9,6058e37d42615ab85535a6ae,United States,Northeast,13 or older,no,2021-03-22_14h36.15.901,empathy_intonation_perc,2020.2.10,MacIntel,60,,,,,,,,,,1,,,,,,,,,,,,,,,,,,,,,,,,,,,,,,,,1,1,0.98129,0,5,5,5,1,0,sacapuntas,REAL,FAKE,,,,,,,,,,,,,,,,,,,,,,,,,,,,,,,
,,,,,,,5f2af333a305a1453082fa08,6057c54e64b0b4e5c128b4f9,6058e37d42615ab85535a6ae,United States,Northeast,13 or older,no,2021-03-22_14h36.15.901,empathy_intonation_perc,2020.2.10,MacIntel,60,,,,,,,,,,0,,,,,,,,,,,,,,,,,,,,,,,,,,,,,,,,0,1,1.881455,0,6,6,6,1,0,priba,REAL,FAKE,,,,,,,,,,,,,,,,,,,,,,,,,,,,,,,
,,,,,,,5f2af333a305a1453082fa08,6057c54e64b0b4e5c128b4f9,6058e37d42615ab85535a6ae,United States,Northeast,13 or older,no,2021-03-22_14h36.15.901,empathy_intonation_perc,2020.2.10,MacIntel,60,,,,,,,,,,0,,,,,,,,,,,,,,,,,,,,,,,,,,,,,,,,1,0,1.61575,0,7,7,7,1,0,pelasula,REAL,FAKE,,,,,,,,,,,,,,,,,,,,,,,,,,,,,,,
,,,,,,,5f2af333a305a1453082fa08,6057c54e64b0b4e5c128b4f9,6058e37d42615ab85535a6ae,United States,Northeast,13 or older,no,2021-03-22_14h36.15.901,empathy_intonation_perc,2020.2.10,MacIntel,60,,,,,,,,,,1,,,,,,,,,,,,,,,,,,,,,,,,,,,,,,,,1,1,0.65629,0,8,8,8,1,0,bien,REAL,FAKE,,,,,,,,,,,,,,,,,,,,,,,,,,,,,,,
,,,,,,,5f2af333a305a1453082fa08,6057c54e64b0b4e5c128b4f9,6058e37d42615ab85535a6ae,United States,Northeast,13 or older,no,2021-03-22_14h36.15.901,empathy_intonation_perc,2020.2.10,MacIntel,60,,,,,,,,,,1,,,,,,,,,,,,,,,,,,,,,,,,,,,,,,,,1,1,0.588955,0,9,9,9,1,0,casa,REAL,FAKE,,,,,,,,,,,,,,,,,,,,,,,,,,,,,,,
,,,,,,,5f2af333a305a1453082fa08,6057c54e64b0b4e5c128b4f9,6058e37d42615ab85535a6ae,United States,Northeast,13 or older,no,2021-03-22_14h36.15.901,empathy_intonation_perc,2020.2.10,MacIntel,60,,,,,,,,,,0,,,,,,,,,,,,,,,,,,,,,,,,,,,,,,,,1,0,0.634125,0,10,10,10,1,0,lejo,REAL,FAKE,,,,,,,,,,,,,,,,,,,,,,,,,,,,,,,
,,,,,,,5f2af333a305a1453082fa08,6057c54e64b0b4e5c128b4f9,6058e37d42615ab85535a6ae,United States,Northeast,13 or older,no,2021-03-22_14h36.15.901,empathy_intonation_perc,2020.2.10,MacIntel,60,,,,,,,,,,0,,,,,,,,,,,,,,,,,,,,,,,,,,,,,,,,1,0,0.999995,0,11,11,11,1,0,pretantas,REAL,FAKE,,,,,,,,,,,,,,,,,,,,,,,,,,,,,,,
,,,,,,,5f2af333a305a1453082fa08,6057c54e64b0b4e5c128b4f9,6058e37d42615ab85535a6ae,United States,Northeast,13 or older,no,2021-03-22_14h36.15.901,empathy_intonation_perc,2020.2.10,MacIntel,60,,,,,,,,,,0,,,,,,,,,,,,,,,,,,,,,,,,,,,,,,,,,,,,,,,,50,flamida,,,0,1,0.879375,0,0,0,49,1,REAL,FAKE,,,,,,,,,,,,,,,,,,,,,
,,,,,,,5f2af333a305a1453082fa08,6057c54e64b0b4e5c128b4f9,6058e37d42615ab85535a6ae,United States,Northeast,13 or older,no,2021-03-22_14h36.15.901,empathy_intonation_perc,2020.2.10,MacIntel,60,,,,,,,,,,1,,,,,,,,,,,,,,,,,,,,,,,,,,,,,,,,,,,,,,,,65,bizcocho,,,1,1,1.012125,0,1,1,64,1,REAL,FAKE,,,,,,,,,,,,,,,,,,,,,
,,,,,,,5f2af333a305a1453082fa08,6057c54e64b0b4e5c128b4f9,6058e37d42615ab85535a6ae,United States,Northeast,13 or older,no,2021-03-22_14h36.15.901,empathy_intonation_perc,2020.2.10,MacIntel,60,,,,,,,,,,1,,,,,,,,,,,,,,,,,,,,,,,,,,,,,,,,,,,,,,,,5,zapato,,,1,1,0.738335,0,2,2,4,1,REAL,FAKE,,,,,,,,,,,,,,,,,,,,,
,,,,,,,5f2af333a305a1453082fa08,6057c54e64b0b4e5c128b4f9,6058e37d42615ab85535a6ae,United States,Northeast,13 or older,no,2021-03-22_14h36.15.901,empathy_intonation_perc,2020.2.10,MacIntel,60,,,,,,,,,,1,,,,,,,,,,,,,,,,,,,,,,,,,,,,,,,,,,,,,,,,90,clavel,,,1,1,0.9315,0,3,3,89,1,REAL,FAKE,,,,,,,,,,,,,,,,,,,,,
,,,,,,,5f2af333a305a1453082fa08,6057c54e64b0b4e5c128b4f9,6058e37d42615ab85535a6ae,United States,Northeast,13 or older,no,2021-03-22_14h36.15.901,empathy_intonation_perc,2020.2.10,MacIntel,60,,,,,,,,,,1,,,,,,,,,,,,,,,,,,,,,,,,,,,,,,,,,,,,,,,,25,bisagra,,,0,0,0.863625,0,4,4,24,1,REAL,FAKE,,,,,,,,,,,,,,,,,,,,,
,,,,,,,5f2af333a305a1453082fa08,6057c54e64b0b4e5c128b4f9,6058e37d42615ab85535a6ae,United States,Northeast,13 or older,no,2021-03-22_14h36.15.901,empathy_intonation_perc,2020.2.10,MacIntel,60,,,,,,,,,,1,,,,,,,,,,,,,,,,,,,,,,,,,,,,,,,,,,,,,,,,28,merodear,,,1,1,1.66604,0,5,5,27,1,REAL,FAKE,,,,,,,,,,,,,,,,,,,,,
,,,,,,,5f2af333a305a1453082fa08,6057c54e64b0b4e5c128b4f9,6058e37d42615ab85535a6ae,United States,Northeast,13 or older,no,2021-03-22_14h36.15.901,empathy_intonation_perc,2020.2.10,MacIntel,60,,,,,,,,,,1,,,,,,,,,,,,,,,,,,,,,,,,,,,,,,,,,,,,,,,,39,torpe,,,0,0,1.459545,0,6,6,38,1,REAL,FAKE,,,,,,,,,,,,,,,,,,,,,
,,,,,,,5f2af333a305a1453082fa08,6057c54e64b0b4e5c128b4f9,6058e37d42615ab85535a6ae,United States,Northeast,13 or older,no,2021-03-22_14h36.15.901,empathy_intonation_perc,2020.2.10,MacIntel,60,,,,,,,,,,1,,,,,,,,,,,,,,,,,,,,,,,,,,,,,,,,,,,,,,,,61,seda,,,1,1,0.68283,0,7,7,60,1,REAL,FAKE,,,,,,,,,,,,,,,,,,,,,
,,,,,,,5f2af333a305a1453082fa08,6057c54e64b0b4e5c128b4f9,6058e37d42615ab85535a6ae,United States,Northeast,13 or older,no,2021-03-22_14h36.15.901,empathy_intonation_perc,2020.2.10,MacIntel,60,,,,,,,,,,1,,,,,,,,,,,,,,,,,,,,,,,,,,,,,,,,,,,,,,,,2,pellizcar,,,1,1,0.816005,0,8,8,1,1,REAL,FAKE,,,,,,,,,,,,,,,,,,,,,
,,,,,,,5f2af333a305a1453082fa08,6057c54e64b0b4e5c128b4f9,6058e37d42615ab85535a6ae,United States,Northeast,13 or older,no,2021-03-22_14h36.15.901,empathy_intonation_perc,2020.2.10,MacIntel,60,,,,,,,,,,0,,,,,,,,,,,,,,,,,,,,,,,,,,,,,,,,,,,,,,,,53,vegada,,,1,0,1.415665,0,9,9,52,1,REAL,FAKE,,,,,,,,,,,,,,,,,,,,,
,,,,,,,5f2af333a305a1453082fa08,6057c54e64b0b4e5c128b4f9,6058e37d42615ab85535a6ae,United States,Northeast,13 or older,no,2021-03-22_14h36.15.901,empathy_intonation_perc,2020.2.10,MacIntel,60,,,,,,,,,,0,,,,,,,,,,,,,,,,,,,,,,,,,,,,,,,,,,,,,,,,27,acutacin,,,1,0,0.768625,0,10,10,26,1,REAL,FAKE,,,,,,,,,,,,,,,,,,,,,
,,,,,,,5f2af333a305a1453082fa08,6057c54e64b0b4e5c128b4f9,6058e37d42615ab85535a6ae,United States,Northeast,13 or older,no,2021-03-22_14h36.15.901,empathy_intonation_perc,2020.2.10,MacIntel,60,,,,,,,,,,1,,,,,,,,,,,,,,,,,,,,,,,,,,,,,,,,,,,,,,,,12,asesinato,,,1,1,0.64975,0,11,11,11,1,REAL,FAKE,,,,,,,,,,,,,,,,,,,,,
,,,,,,,5f2af333a305a1453082fa08,6057c54e64b0b4e5c128b4f9,6058e37d42615ab85535a6ae,United States,Northeast,13 or older,no,2021-03-22_14h36.15.901,empathy_intonation_perc,2020.2.10,MacIntel,60,,,,,,,,,,0,,,,,,,,,,,,,,,,,,,,,,,,,,,,,,,,,,,,,,,,1,terzo,,,1,0,0.76742,0,12,12,0,1,REAL,FAKE,,,,,,,,,,,,,,,,,,,,,
,,,,,,,5f2af333a305a1453082fa08,6057c54e64b0b4e5c128b4f9,6058e37d42615ab85535a6ae,United States,Northeast,13 or older,no,2021-03-22_14h36.15.901,empathy_intonation_perc,2020.2.10,MacIntel,60,,,,,,,,,,1,,,,,,,,,,,,,,,,,,,,,,,,,,,,,,,,,,,,,,,,11,cenefa,,,0,0,0.73367,0,13,13,10,1,REAL,FAKE,,,,,,,,,,,,,,,,,,,,,
,,,,,,,5f2af333a305a1453082fa08,6057c54e64b0b4e5c128b4f9,6058e37d42615ab85535a6ae,United States,Northeast,13 or older,no,2021-03-22_14h36.15.901,empathy_intonation_perc,2020.2.10,MacIntel,60,,,,,,,,,,0,,,,,,,,,,,,,,,,,,,,,,,,,,,,,,,,,,,,,,,,19,brecedad,,,0,1,1.182295,0,14,14,18,1,REAL,FAKE,,,,,,,,,,,,,,,,,,,,,
,,,,,,,5f2af333a305a1453082fa08,6057c54e64b0b4e5c128b4f9,6058e37d42615ab85535a6ae,United States,Northeast,13 or older,no,2021-03-22_14h36.15.901,empathy_intonation_perc,2020.2.10,MacIntel,60,,,,,,,,,,1,,,,,,,,,,,,,,,,,,,,,,,,,,,,,,,,,,,,,,,,37,granuja,,,1,1,0.849835,0,15,15,36,1,REAL,FAKE,,,,,,,,,,,,,,,,,,,,,
,,,,,,,5f2af333a305a1453082fa08,6057c54e64b0b4e5c128b4f9,6058e37d42615ab85535a6ae,United States,Northeast,13 or older,no,2021-03-22_14h36.15.901,empathy_intonation_perc,2020.2.10,MacIntel,60,,,,,,,,,,1,,,,,,,,,,,,,,,,,,,,,,,,,,,,,,,,,,,,,,,,40,alfombra,,,0,0,1.535415,0,16,16,39,1,REAL,FAKE,,,,,,,,,,,,,,,,,,,,,
,,,,,,,5f2af333a305a1453082fa08,6057c54e64b0b4e5c128b4f9,6058e37d42615ab85535a6ae,United States,Northeast,13 or older,no,2021-03-22_14h36.15.901,empathy_intonation_perc,2020.2.10,MacIntel,60,,,,,,,,,,1,,,,,,,,,,,,,,,,,,,,,,,,,,,,,,,,,,,,,,,,46,martillo,,,1,1,0.69967,0,17,17,45,1,REAL,FAKE,,,,,,,,,,,,,,,,,,,,,
,,,,,,,5f2af333a305a1453082fa08,6057c54e64b0b4e5c128b4f9,6058e37d42615ab85535a6ae,United States,Northeast,13 or older,no,2021-03-22_14h36.15.901,empathy_intonation_perc,2020.2.10,MacIntel,60,,,,,,,,,,1,,,,,,,,,,,,,,,,,,,,,,,,,,,,,,,,,,,,,,,,81,pozo,,,1,1,0.63304,0,18,18,80,1,REAL,FAKE,,,,,,,,,,,,,,,,,,,,,
,,,,,,,5f2af333a305a1453082fa08,6057c54e64b0b4e5c128b4f9,6058e37d42615ab85535a6ae,United States,Northeast,13 or older,no,2021-03-22_14h36.15.901,empathy_intonation_perc,2020.2.10,MacIntel,60,,,,,,,,,,1,,,,,,,,,,,,,,,,,,,,,,,,,,,,,,,,,,,,,,,,52,camisa,,,1,1,0.736585,0,19,19,51,1,REAL,FAKE,,,,,,,,,,,,,,,,,,,,,
,,,,,,,5f2af333a305a1453082fa08,6057c54e64b0b4e5c128b4f9,6058e37d42615ab85535a6ae,United States,Northeast,13 or older,no,2021-03-22_14h36.15.901,empathy_intonation_perc,2020.2.10,MacIntel,60,,,,,,,,,,1,,,,,,,,,,,,,,,,,,,,,,,,,,,,,,,,,,,,,,,,88,acantilado,,,1,1,0.80229,0,20,20,87,1,REAL,FAKE,,,,,,,,,,,,,,,,,,,,,
,,,,,,,5f2af333a305a1453082fa08,6057c54e64b0b4e5c128b4f9,6058e37d42615ab85535a6ae,United States,Northeast,13 or older,no,2021-03-22_14h36.15.901,empathy_intonation_perc,2020.2.10,MacIntel,60,,,,,,,,,,0,,,,,,,,,,,,,,,,,,,,,,,,,,,,,,,,,,,,,,,,16,abracer,,,1,0,0.74821,0,21,21,15,1,REAL,FAKE,,,,,,,,,,,,,,,,,,,,,
,,,,,,,5f2af333a305a1453082fa08,6057c54e64b0b4e5c128b4f9,6058e37d42615ab85535a6ae,United States,Northeast,13 or older,no,2021-03-22_14h36.15.901,empathy_intonation_perc,2020.2.10,MacIntel,60,,,,,,,,,,1,,,,,,,,,,,,,,,,,,,,,,,,,,,,,,,,,,,,,,,,71,polvoriento,,,0,0,0.750125,0,22,22,70,1,REAL,FAKE,,,,,,,,,,,,,,,,,,,,,
,,,,,,,5f2af333a305a1453082fa08,6057c54e64b0b4e5c128b4f9,6058e37d42615ab85535a6ae,United States,Northeast,13 or older,no,2021-03-22_14h36.15.901,empathy_intonation_perc,2020.2.10,MacIntel,60,,,,,,,,,,1,,,,,,,,,,,,,,,,,,,,,,,,,,,,,,,,,,,,,,,,86,barato,,,0,0,0.88175,0,23,23,85,1,REAL,FAKE,,,,,,,,,,,,,,,,,,,,,
,,,,,,,5f2af333a305a1453082fa08,6057c54e64b0b4e5c128b4f9,6058e37d42615ab85535a6ae,United States,Northeast,13 or older,no,2021-03-22_14h36.15.901,empathy_intonation_perc,2020.2.10,MacIntel,60,,,,,,,,,,1,,,,,,,,,,,,,,,,,,,,,,,,,,,,,,,,,,,,,,,,38,estornudar,,,0,0,1.23471,0,24,24,37,1,REAL,FAKE,,,,,,,,,,,,,,,,,,,,,
,,,,,,,5f2af333a305a1453082fa08,6057c54e64b0b4e5c128b4f9,6058e37d42615ab85535a6ae,United States,Northeast,13 or older,no,2021-03-22_14h36.15.901,empathy_intonation_perc,2020.2.10,MacIntel,60,,,,,,,,,,0,,,,,,,,,,,,,,,,,,,,,,,,,,,,,,,,,,,,,,,,17,floroso,,,1,0,2.42329,0,25,25,16,1,REAL,FAKE,,,,,,,,,,,,,,,,,,,,,
,,,,,,,5f2af333a305a1453082fa08,6057c54e64b0b4e5c128b4f9,6058e37d42615ab85535a6ae,United States,Northeast,13 or older,no,2021-03-22_14h36.15.901,empathy_intonation_perc,2020.2.10,MacIntel,60,,,,,,,,,,1,,,,,,,,,,,,,,,,,,,,,,,,,,,,,,,,,,,,,,,,7,psimo,,,1,1,0.73108,0,26,26,6,1,REAL,FAKE,,,,,,,,,,,,,,,,,,,,,
,,,,,,,5f2af333a305a1453082fa08,6057c54e64b0b4e5c128b4f9,6058e37d42615ab85535a6ae,United States,Northeast,13 or older,no,2021-03-22_14h36.15.901,empathy_intonation_perc,2020.2.10,MacIntel,60,,,,,,,,,,1,,,,,,,,,,,,,,,,,,,,,,,,,,,,,,,,,,,,,,,,69,engatusar,,,1,1,0.88292,0,27,27,68,1,REAL,FAKE,,,,,,,,,,,,,,,,,,,,,
,,,,,,,5f2af333a305a1453082fa08,6057c54e64b0b4e5c128b4f9,6058e37d42615ab85535a6ae,United States,Northeast,13 or older,no,2021-03-22_14h36.15.901,empathy_intonation_perc,2020.2.10,MacIntel,60,,,,,,,,,,1,,,,,,,,,,,,,,,,,,,,,,,,,,,,,,,,,,,,,,,,3,pulmones,,,0,0,0.799255,0,28,28,2,1,REAL,FAKE,,,,,,,,,,,,,,,,,,,,,
,,,,,,,5f2af333a305a1453082fa08,6057c54e64b0b4e5c128b4f9,6058e37d42615ab85535a6ae,United States,Northeast,13 or older,no,2021-03-22_14h36.15.901,empathy_intonation_perc,2020.2.10,MacIntel,60,,,,,,,,,,0,,,,,,,,,,,,,,,,,,,,,,,,,,,,,,,,,,,,,,,,23,lampera,,,1,0,1.17213,0,29,29,22,1,REAL,FAKE,,,,,,,,,,,,,,,,,,,,,
,,,,,,,5f2af333a305a1453082fa08,6057c54e64b0b4e5c128b4f9,6058e37d42615ab85535a6ae,United States,Northeast,13 or older,no,2021-03-22_14h36.15.901,empathy_intonation_perc,2020.2.10,MacIntel,60,,,,,,,,,,1,,,,,,,,,,,,,,,,,,,,,,,,,,,,,,,,,,,,,,,,44,cuchara,,,0,0,0.707915,0,30,30,43,1,REAL,FAKE,,,,,,,,,,,,,,,,,,,,,
,,,,,,,5f2af333a305a1453082fa08,6057c54e64b0b4e5c128b4f9,6058e37d42615ab85535a6ae,United States,Northeast,13 or older,no,2021-03-22_14h36.15.901,empathy_intonation_perc,2020.2.10,MacIntel,60,,,,,,,,,,1,,,,,,,,,,,,,,,,,,,,,,,,,,,,,,,,,,,,,,,,48,ladrn,,,1,1,1.023295,0,31,31,47,1,REAL,FAKE,,,,,,,,,,,,,,,,,,,,,
,,,,,,,5f2af333a305a1453082fa08,6057c54e64b0b4e5c128b4f9,6058e37d42615ab85535a6ae,United States,Northeast,13 or older,no,2021-03-22_14h36.15.901,empathy_intonation_perc,2020.2.10,MacIntel,60,,,,,,,,,,0,,,,,,,,,,,,,,,,,,,,,,,,,,,,,,,,,,,,,,,,87,grodo,,,0,1,1.43796,0,32,32,86,1,REAL,FAKE,,,,,,,,,,,,,,,,,,,,,
,,,,,,,5f2af333a305a1453082fa08,6057c54e64b0b4e5c128b4f9,6058e37d42615ab85535a6ae,United States,Northeast,13 or older,no,2021-03-22_14h36.15.901,empathy_intonation_perc,2020.2.10,MacIntel,60,,,,,,,,,,0,,,,,,,,,,,,,,,,,,,,,,,,,,,,,,,,,,,,,,,,84,escuto,,,1,0,1.1725,0,33,33,83,1,REAL,FAKE,,,,,,,,,,,,,,,,,,,,,
,,,,,,,5f2af333a305a1453082fa08,6057c54e64b0b4e5c128b4f9,6058e37d42615ab85535a6ae,United States,Northeast,13 or older,no,2021-03-22_14h36.15.901,empathy_intonation_perc,2020.2.10,MacIntel,60,,,,,,,,,,1,,,,,,,,,,,,,,,,,,,,,,,,,,,,,,,,,,,,,,,,36,loro,,,0,0,0.98217,0,34,34,35,1,REAL,FAKE,,,,,,,,,,,,,,,,,,,,,
,,,,,,,5f2af333a305a1453082fa08,6057c54e64b0b4e5c128b4f9,6058e37d42615ab85535a6ae,United States,Northeast,13 or older,no,2021-03-22_14h36.15.901,empathy_intonation_perc,2020.2.10,MacIntel,60,,,,,,,,,,0,,,,,,,,,,,,,,,,,,,,,,,,,,,,,,,,,,,,,,,,82,empirador,,,1,0,0.709045,0,35,35,81,1,REAL,FAKE,,,,,,,,,,,,,,,,,,,,,
,,,,,,,5f2af333a305a1453082fa08,6057c54e64b0b4e5c128b4f9,6058e37d42615ab85535a6ae,United States,Northeast,13 or older,no,2021-03-22_14h36.15.901,empathy_intonation_perc,2020.2.10,MacIntel,60,,,,,,,,,,0,,,,,,,,,,,,,,,,,,,,,,,,,,,,,,,,,,,,,,,,74,cintro,,,1,0,1.020045,0,36,36,73,1,REAL,FAKE,,,,,,,,,,,,,,,,,,,,,
,,,,,,,5f2af333a305a1453082fa08,6057c54e64b0b4e5c128b4f9,6058e37d42615ab85535a6ae,United States,Northeast,13 or older,no,2021-03-22_14h36.15.901,empathy_intonation_perc,2020.2.10,MacIntel,60,,,,,,,,,,1,,,,,,,,,,,,,,,,,,,,,,,,,,,,,,,,,,,,,,,,56,musgo,,,0,0,0.62208,0,37,37,55,1,REAL,FAKE,,,,,,,,,,,,,,,,,,,,,
,,,,,,,5f2af333a305a1453082fa08,6057c54e64b0b4e5c128b4f9,6058e37d42615ab85535a6ae,United States,Northeast,13 or older,no,2021-03-22_14h36.15.901,empathy_intonation_perc,2020.2.10,MacIntel,60,,,,,,,,,,0,,,,,,,,,,,,,,,,,,,,,,,,,,,,,,,,,,,,,,,,63,esposante,,,0,1,0.98967,0,38,38,62,1,REAL,FAKE,,,,,,,,,,,,,,,,,,,,,
,,,,,,,5f2af333a305a1453082fa08,6057c54e64b0b4e5c128b4f9,6058e37d42615ab85535a6ae,United States,Northeast,13 or older,no,2021-03-22_14h36.15.901,empathy_intonation_perc,2020.2.10,MacIntel,60,,,,,,,,,,0,,,,,,,,,,,,,,,,,,,,,,,,,,,,,,,,,,,,,,,,8,cadea,,,1,0,0.85137,0,39,39,7,1,REAL,FAKE,,,,,,,,,,,,,,,,,,,,,
,,,,,,,5f2af333a305a1453082fa08,6057c54e64b0b4e5c128b4f9,6058e37d42615ab85535a6ae,United States,Northeast,13 or older,no,2021-03-22_14h36.15.901,empathy_intonation_perc,2020.2.10,MacIntel,60,,,,,,,,,,0,,,,,,,,,,,,,,,,,,,,,,,,,,,,,,,,,,,,,,,,70,temblo,,,0,1,0.916955,0,40,40,69,1,REAL,FAKE,,,,,,,,,,,,,,,,,,,,,
,,,,,,,5f2af333a305a1453082fa08,6057c54e64b0b4e5c128b4f9,6058e37d42615ab85535a6ae,United States,Northeast,13 or older,no,2021-03-22_14h36.15.901,empathy_intonation_perc,2020.2.10,MacIntel,60,,,,,,,,,,1,,,,,,,,,,,,,,,,,,,,,,,,,,,,,,,,,,,,,,,,26,secuestro,,,1,1,0.736375,0,41,41,25,1,REAL,FAKE,,,,,,,,,,,,,,,,,,,,,
,,,,,,,5f2af333a305a1453082fa08,6057c54e64b0b4e5c128b4f9,6058e37d42615ab85535a6ae,United States,Northeast,13 or older,no,2021-03-22_14h36.15.901,empathy_intonation_perc,2020.2.10,MacIntel,60,,,,,,,,,,0,,,,,,,,,,,,,,,,,,,,,,,,,,,,,,,,,,,,,,,,4,batilln,,,1,0,0.751835,0,42,42,3,1,REAL,FAKE,,,,,,,,,,,,,,,,,,,,,
,,,,,,,5f2af333a305a1453082fa08,6057c54e64b0b4e5c128b4f9,6058e37d42615ab85535a6ae,United States,Northeast,13 or older,no,2021-03-22_14h36.15.901,empathy_intonation_perc,2020.2.10,MacIntel,60,,,,,,,,,,0,,,,,,,,,,,,,,,,,,,,,,,,,,,,,,,,,,,,,,,,47,cartinar,,,1,0,0.81679,0,43,43,46,1,REAL,FAKE,,,,,,,,,,,,,,,,,,,,,
,,,,,,,5f2af333a305a1453082fa08,6057c54e64b0b4e5c128b4f9,6058e37d42615ab85535a6ae,United States,Northeast,13 or older,no,2021-03-22_14h36.15.901,empathy_intonation_perc,2020.2.10,MacIntel,60,,,,,,,,,,1,,,,,,,,,,,,,,,,,,,,,,,,,,,,,,,,,,,,,,,,24,ltigo,,,0,0,9.20525,0,44,44,23,1,REAL,FAKE,,,,,,,,,,,,,,,,,,,,,
,,,,,,,5f2af333a305a1453082fa08,6057c54e64b0b4e5c128b4f9,6058e37d42615ab85535a6ae,United States,Northeast,13 or older,no,2021-03-22_14h36.15.901,empathy_intonation_perc,2020.2.10,MacIntel,60,,,,,,,,,,1,,,,,,,,,,,,,,,,,,,,,,,,,,,,,,,,,,,,,,,,49,ganar,,,1,1,1.26729,0,45,45,48,1,REAL,FAKE,,,,,,,,,,,,,,,,,,,,,
,,,,,,,5f2af333a305a1453082fa08,6057c54e64b0b4e5c128b4f9,6058e37d42615ab85535a6ae,United States,Northeast,13 or older,no,2021-03-22_14h36.15.901,empathy_intonation_perc,2020.2.10,MacIntel,60,,,,,,,,,,1,,,,,,,,,,,,,,,,,,,,,,,,,,,,,,,,,,,,,,,,43,canela,,,1,1,0.710205,0,46,46,42,1,REAL,FAKE,,,,,,,,,,,,,,,,,,,,,
,,,,,,,5f2af333a305a1453082fa08,6057c54e64b0b4e5c128b4f9,6058e37d42615ab85535a6ae,United States,Northeast,13 or older,no,2021-03-22_14h36.15.901,empathy_intonation_perc,2020.2.10,MacIntel,60,,,,,,,,,,1,,,,,,,,,,,,,,,,,,,,,,,,,,,,,,,,,,,,,,,,14,yunque,,,0,0,0.664625,0,47,47,13,1,REAL,FAKE,,,,,,,,,,,,,,,,,,,,,
,,,,,,,5f2af333a305a1453082fa08,6057c54e64b0b4e5c128b4f9,6058e37d42615ab85535a6ae,United States,Northeast,13 or older,no,2021-03-22_14h36.15.901,empathy_intonation_perc,2020.2.10,MacIntel,60,,,,,,,,,,1,,,,,,,,,,,,,,,,,,,,,,,,,,,,,,,,,,,,,,,,9,hacha,,,1,1,0.61525,0,48,48,8,1,REAL,FAKE,,,,,,,,,,,,,,,,,,,,,
,,,,,,,5f2af333a305a1453082fa08,6057c54e64b0b4e5c128b4f9,6058e37d42615ab85535a6ae,United States,Northeast,13 or older,no,2021-03-22_14h36.15.901,empathy_intonation_perc,2020.2.10,MacIntel,60,,,,,,,,,,0,,,,,,,,,,,,,,,,,,,,,,,,,,,,,,,,,,,,,,,,79,tropaje,,,1,0,0.868125,0,49,49,78,1,REAL,FAKE,,,,,,,,,,,,,,,,,,,,,
,,,,,,,5f2af333a305a1453082fa08,6057c54e64b0b4e5c128b4f9,6058e37d42615ab85535a6ae,United States,Northeast,13 or older,no,2021-03-22_14h36.15.901,empathy_intonation_perc,2020.2.10,MacIntel,60,,,,,,,,,,1,,,,,,,,,,,,,,,,,,,,,,,,,,,,,,,,,,,,,,,,68,alegre,,,0,0,0.57421,0,50,50,67,1,REAL,FAKE,,,,,,,,,,,,,,,,,,,,,
,,,,,,,5f2af333a305a1453082fa08,6057c54e64b0b4e5c128b4f9,6058e37d42615ab85535a6ae,United States,Northeast,13 or older,no,2021-03-22_14h36.15.901,empathy_intonation_perc,2020.2.10,MacIntel,60,,,,,,,,,,1,,,,,,,,,,,,,,,,,,,,,,,,,,,,,,,,,,,,,,,,85,lad,,,0,0,0.804835,0,51,51,84,1,REAL,FAKE,,,,,,,,,,,,,,,,,,,,,
,,,,,,,5f2af333a305a1453082fa08,6057c54e64b0b4e5c128b4f9,6058e37d42615ab85535a6ae,United States,Northeast,13 or older,no,2021-03-22_14h36.15.901,empathy_intonation_perc,2020.2.10,MacIntel,60,,,,,,,,,,1,,,,,,,,,,,,,,,,,,,,,,,,,,,,,,,,,,,,,,,,54,fomentar,,,1,1,2.174625,0,52,52,53,1,REAL,FAKE,,,,,,,,,,,,,,,,,,,,,
,,,,,,,5f2af333a305a1453082fa08,6057c54e64b0b4e5c128b4f9,6058e37d42615ab85535a6ae,United States,Northeast,13 or older,no,2021-03-22_14h36.15.901,empathy_intonation_perc,2020.2.10,MacIntel,60,,,,,,,,,,1,,,,,,,,,,,,,,,,,,,,,,,,,,,,,,,,,,,,,,,,41,rebuscar,,,1,1,0.7215,0,53,53,40,1,REAL,FAKE,,,,,,,,,,,,,,,,,,,,,
,,,,,,,5f2af333a305a1453082fa08,6057c54e64b0b4e5c128b4f9,6058e37d42615ab85535a6ae,United States,Northeast,13 or older,no,2021-03-22_14h36.15.901,empathy_intonation_perc,2020.2.10,MacIntel,60,,,,,,,,,,1,,,,,,,,,,,,,,,,,,,,,,,,,,,,,,,,,,,,,,,,57,tacao,,,1,1,0.85729,0,54,54,56,1,REAL,FAKE,,,,,,,,,,,,,,,,,,,,,
,,,,,,,5f2af333a305a1453082fa08,6057c54e64b0b4e5c128b4f9,6058e37d42615ab85535a6ae,United States,Northeast,13 or older,no,2021-03-22_14h36.15.901,empathy_intonation_perc,2020.2.10,MacIntel,60,,,,,,,,,,0,,,,,,,,,,,,,,,,,,,,,,,,,,,,,,,,,,,,,,,,72,pemicin,,,0,1,1.132795,0,55,55,71,1,REAL,FAKE,,,,,,,,,,,,,,,,,,,,,
,,,,,,,5f2af333a305a1453082fa08,6057c54e64b0b4e5c128b4f9,6058e37d42615ab85535a6ae,United States,Northeast,13 or older,no,2021-03-22_14h36.15.901,empathy_intonation_perc,2020.2.10,MacIntel,60,,,,,,,,,,1,,,,,,,,,,,,,,,,,,,,,,,,,,,,,,,,,,,,,,,,73,hervidor,,,0,0,1.59908,0,56,56,72,1,REAL,FAKE,,,,,,,,,,,,,,,,,,,,,
,,,,,,,5f2af333a305a1453082fa08,6057c54e64b0b4e5c128b4f9,6058e37d42615ab85535a6ae,United States,Northeast,13 or older,no,2021-03-22_14h36.15.901,empathy_intonation_perc,2020.2.10,MacIntel,60,,,,,,,,,,0,,,,,,,,,,,,,,,,,,,,,,,,,,,,,,,,,,,,,,,,30,alardio,,,0,1,0.774375,0,57,57,29,1,REAL,FAKE,,,,,,,,,,,,,,,,,,,,,
,,,,,,,5f2af333a305a1453082fa08,6057c54e64b0b4e5c128b4f9,6058e37d42615ab85535a6ae,United States,Northeast,13 or older,no,2021-03-22_14h36.15.901,empathy_intonation_perc,2020.2.10,MacIntel,60,,,,,,,,,,1,,,,,,,,,,,,,,,,,,,,,,,,,,,,,,,,,,,,,,,,80,hormiga,,,0,0,0.714585,0,58,58,79,1,REAL,FAKE,,,,,,,,,,,,,,,,,,,,,
,,,,,,,5f2af333a305a1453082fa08,6057c54e64b0b4e5c128b4f9,6058e37d42615ab85535a6ae,United States,Northeast,13 or older,no,2021-03-22_14h36.15.901,empathy_intonation_perc,2020.2.10,MacIntel,60,,,,,,,,,,1,,,,,,,,,,,,,,,,,,,,,,,,,,,,,,,,,,,,,,,,83,guante,,,0,0,0.84904,0,59,59,82,1,REAL,FAKE,,,,,,,,,,,,,,,,,,,,,
,,,,,,,5f2af333a305a1453082fa08,6057c54e64b0b4e5c128b4f9,6058e37d42615ab85535a6ae,United States,Northeast,13 or older,no,2021-03-22_14h36.15.901,empathy_intonation_perc,2020.2.10,MacIntel,60,,,,,,,,,,0,,,,,,,,,,,,,,,,,,,,,,,,,,,,,,,,,,,,,,,,32,fatacidad,,,1,0,0.688715,0,60,60,31,1,REAL,FAKE,,,,,,,,,,,,,,,,,,,,,
,,,,,,,5f2af333a305a1453082fa08,6057c54e64b0b4e5c128b4f9,6058e37d42615ab85535a6ae,United States,Northeast,13 or older,no,2021-03-22_14h36.15.901,empathy_intonation_perc,2020.2.10,MacIntel,60,,,,,,,,,,0,,,,,,,,,,,,,,,,,,,,,,,,,,,,,,,,,,,,,,,,35,rompido,,,0,1,1.056665,0,61,61,34,1,REAL,FAKE,,,,,,,,,,,,,,,,,,,,,
,,,,,,,5f2af333a305a1453082fa08,6057c54e64b0b4e5c128b4f9,6058e37d42615ab85535a6ae,United States,Northeast,13 or older,no,2021-03-22_14h36.15.901,empathy_intonation_perc,2020.2.10,MacIntel,60,,,,,,,,,,0,,,,,,,,,,,,,,,,,,,,,,,,,,,,,,,,,,,,,,,,29,decar,,,1,0,0.71492,0,62,62,28,1,REAL,FAKE,,,,,,,,,,,,,,,,,,,,,
,,,,,,,5f2af333a305a1453082fa08,6057c54e64b0b4e5c128b4f9,6058e37d42615ab85535a6ae,United States,Northeast,13 or older,no,2021-03-22_14h36.15.901,empathy_intonation_perc,2020.2.10,MacIntel,60,,,,,,,,,,1,,,,,,,,,,,,,,,,,,,,,,,,,,,,,,,,,,,,,,,,34,aviso,,,0,0,0.748795,0,63,63,33,1,REAL,FAKE,,,,,,,,,,,,,,,,,,,,,
,,,,,,,5f2af333a305a1453082fa08,6057c54e64b0b4e5c128b4f9,6058e37d42615ab85535a6ae,United States,Northeast,13 or older,no,2021-03-22_14h36.15.901,empathy_intonation_perc,2020.2.10,MacIntel,60,,,,,,,,,,1,,,,,,,,,,,,,,,,,,,,,,,,,,,,,,,,,,,,,,,,77,tiburn,,,1,1,0.83296,0,64,64,76,1,REAL,FAKE,,,,,,,,,,,,,,,,,,,,,
,,,,,,,5f2af333a305a1453082fa08,6057c54e64b0b4e5c128b4f9,6058e37d42615ab85535a6ae,United States,Northeast,13 or older,no,2021-03-22_14h36.15.901,empathy_intonation_perc,2020.2.10,MacIntel,60,,,,,,,,,,0,,,,,,,,,,,,,,,,,,,,,,,,,,,,,,,,,,,,,,,,58,plaudir,,,0,1,0.98404,0,65,65,57,1,REAL,FAKE,,,,,,,,,,,,,,,,,,,,,
,,,,,,,5f2af333a305a1453082fa08,6057c54e64b0b4e5c128b4f9,6058e37d42615ab85535a6ae,United States,Northeast,13 or older,no,2021-03-22_14h36.15.901,empathy_intonation_perc,2020.2.10,MacIntel,60,,,,,,,,,,1,,,,,,,,,,,,,,,,,,,,,,,,,,,,,,,,,,,,,,,,13,helar,,,1,1,0.79954,0,66,66,12,1,REAL,FAKE,,,,,,,,,,,,,,,,,,,,,
,,,,,,,5f2af333a305a1453082fa08,6057c54e64b0b4e5c128b4f9,6058e37d42615ab85535a6ae,United States,Northeast,13 or older,no,2021-03-22_14h36.15.901,empathy_intonation_perc,2020.2.10,MacIntel,60,,,,,,,,,,1,,,,,,,,,,,,,,,,,,,,,,,,,,,,,,,,,,,,,,,,67,cabello,,,1,1,0.898455,0,67,67,66,1,REAL,FAKE,,,,,,,,,,,,,,,,,,,,,
,,,,,,,5f2af333a305a1453082fa08,6057c54e64b0b4e5c128b4f9,6058e37d42615ab85535a6ae,United States,Northeast,13 or older,no,2021-03-22_14h36.15.901,empathy_intonation_perc,2020.2.10,MacIntel,60,,,,,,,,,,1,,,,,,,,,,,,,,,,,,,,,,,,,,,,,,,,,,,,,,,,64,orgulloso,,,1,1,0.855915,0,68,68,63,1,REAL,FAKE,,,,,,,,,,,,,,,,,,,,,
,,,,,,,5f2af333a305a1453082fa08,6057c54e64b0b4e5c128b4f9,6058e37d42615ab85535a6ae,United States,Northeast,13 or older,no,2021-03-22_14h36.15.901,empathy_intonation_perc,2020.2.10,MacIntel,60,,,,,,,,,,1,,,,,,,,,,,,,,,,,,,,,,,,,,,,,,,,,,,,,,,,59,besar,,,1,1,0.63246,0,69,69,58,1,REAL,FAKE,,,,,,,,,,,,,,,,,,,,,
,,,,,,,5f2af333a305a1453082fa08,6057c54e64b0b4e5c128b4f9,6058e37d42615ab85535a6ae,United States,Northeast,13 or older,no,2021-03-22_14h36.15.901,empathy_intonation_perc,2020.2.10,MacIntel,60,,,,,,,,,,1,,,,,,,,,,,,,,,,,,,,,,,,,,,,,,,,,,,,,,,,45,jilguero,,,0,0,0.966915,0,70,70,44,1,REAL,FAKE,,,,,,,,,,,,,,,,,,,,,
,,,,,,,5f2af333a305a1453082fa08,6057c54e64b0b4e5c128b4f9,6058e37d42615ab85535a6ae,United States,Northeast,13 or older,no,2021-03-22_14h36.15.901,empathy_intonation_perc,2020.2.10,MacIntel,60,,,,,,,,,,1,,,,,,,,,,,,,,,,,,,,,,,,,,,,,,,,,,,,,,,,76,atar,,,0,0,0.641545,0,71,71,75,1,REAL,FAKE,,,,,,,,,,,,,,,,,,,,,
,,,,,,,5f2af333a305a1453082fa08,6057c54e64b0b4e5c128b4f9,6058e37d42615ab85535a6ae,United States,Northeast,13 or older,no,2021-03-22_14h36.15.901,empathy_intonation_perc,2020.2.10,MacIntel,60,,,,,,,,,,1,,,,,,,,,,,,,,,,,,,,,,,,,,,,,,,,,,,,,,,,89,prisa,,,0,0,0.90021,0,72,72,88,1,REAL,FAKE,,,,,,,,,,,,,,,,,,,,,
,,,,,,,5f2af333a305a1453082fa08,6057c54e64b0b4e5c128b4f9,6058e37d42615ab85535a6ae,United States,Northeast,13 or older,no,2021-03-22_14h36.15.901,empathy_intonation_perc,2020.2.10,MacIntel,60,,,,,,,,,,0,,,,,,,,,,,,,,,,,,,,,,,,,,,,,,,,,,,,,,,,10,antar,,,1,0,1.03362,0,73,73,9,1,REAL,FAKE,,,,,,,,,,,,,,,,,,,,,
,,,,,,,5f2af333a305a1453082fa08,6057c54e64b0b4e5c128b4f9,6058e37d42615ab85535a6ae,United States,Northeast,13 or older,no,2021-03-22_14h36.15.901,empathy_intonation_perc,2020.2.10,MacIntel,60,,,,,,,,,,1,,,,,,,,,,,,,,,,,,,,,,,,,,,,,,,,,,,,,,,,62,flaco,,,1,1,0.725375,0,74,74,61,1,REAL,FAKE,,,,,,,,,,,,,,,,,,,,,
,,,,,,,5f2af333a305a1453082fa08,6057c54e64b0b4e5c128b4f9,6058e37d42615ab85535a6ae,United States,Northeast,13 or older,no,2021-03-22_14h36.15.901,empathy_intonation_perc,2020.2.10,MacIntel,60,,,,,,,,,,0,,,,,,,,,,,,,,,,,,,,,,,,,,,,,,,,,,,,,,,,21,capillo,,,0,1,0.62091,0,75,75,20,1,REAL,FAKE,,,,,,,,,,,,,,,,,,,,,
,,,,,,,5f2af333a305a1453082fa08,6057c54e64b0b4e5c128b4f9,6058e37d42615ab85535a6ae,United States,Northeast,13 or older,no,2021-03-22_14h36.15.901,empathy_intonation_perc,2020.2.10,MacIntel,60,,,,,,,,,,0,,,,,,,,,,,,,,,,,,,,,,,,,,,,,,,,,,,,,,,,33,pauca,,,0,1,0.83996,0,76,76,32,1,REAL,FAKE,,,,,,,,,,,,,,,,,,,,,
,,,,,,,5f2af333a305a1453082fa08,6057c54e64b0b4e5c128b4f9,6058e37d42615ab85535a6ae,United States,Northeast,13 or older,no,2021-03-22_14h36.15.901,empathy_intonation_perc,2020.2.10,MacIntel,60,,,,,,,,,,1,,,,,,,,,,,,,,,,,,,,,,,,,,,,,,,,,,,,,,,,31,pandilla,,,1,1,0.73171,0,77,77,30,1,REAL,FAKE,,,,,,,,,,,,,,,,,,,,,
,,,,,,,5f2af333a305a1453082fa08,6057c54e64b0b4e5c128b4f9,6058e37d42615ab85535a6ae,United States,Northeast,13 or older,no,2021-03-22_14h36.15.901,empathy_intonation_perc,2020.2.10,MacIntel,60,,,,,,,,,,1,,,,,,,,,,,,,,,,,,,,,,,,,,,,,,,,,,,,,,,,78,frondoso,,,0,0,0.77221,0,78,78,77,1,REAL,FAKE,,,,,,,,,,,,,,,,,,,,,
,,,,,,,5f2af333a305a1453082fa08,6057c54e64b0b4e5c128b4f9,6058e37d42615ab85535a6ae,United States,Northeast,13 or older,no,2021-03-22_14h36.15.901,empathy_intonation_perc,2020.2.10,MacIntel,60,,,,,,,,,,1,,,,,,,,,,,,,,,,,,,,,,,,,,,,,,,,,,,,,,,,75,yacer,,,0,0,0.598335,0,79,79,74,1,REAL,FAKE,,,,,,,,,,,,,,,,,,,,,
,,,,,,,5f2af333a305a1453082fa08,6057c54e64b0b4e5c128b4f9,6058e37d42615ab85535a6ae,United States,Northeast,13 or older,no,2021-03-22_14h36.15.901,empathy_intonation_perc,2020.2.10,MacIntel,60,,,,,,,,,,0,,,,,,,,,,,,,,,,,,,,,,,,,,,,,,,,,,,,,,,,66,hacido,,,1,0,0.838,0,80,80,65,1,REAL,FAKE,,,,,,,,,,,,,,,,,,,,,
,,,,,,,5f2af333a305a1453082fa08,6057c54e64b0b4e5c128b4f9,6058e37d42615ab85535a6ae,United States,Northeast,13 or older,no,2021-03-22_14h36.15.901,empathy_intonation_perc,2020.2.10,MacIntel,60,,,,,,,,,,1,,,,,,,,,,,,,,,,,,,,,,,,,,,,,,,,,,,,,,,,51,candado,,,0,0,0.78271,0,81,81,50,1,REAL,FAKE,,,,,,,,,,,,,,,,,,,,,
,,,,,,,5f2af333a305a1453082fa08,6057c54e64b0b4e5c128b4f9,6058e37d42615ab85535a6ae,United States,Northeast,13 or older,no,2021-03-22_14h36.15.901,empathy_intonation_perc,2020.2.10,MacIntel,60,,,,,,,,,,1,,,,,,,,,,,,,,,,,,,,,,,,,,,,,,,,,,,,,,,,20,vido,,,0,0,0.809705,0,82,82,19,1,REAL,FAKE,,,,,,,,,,,,,,,,,,,,,
,,,,,,,5f2af333a305a1453082fa08,6057c54e64b0b4e5c128b4f9,6058e37d42615ab85535a6ae,United States,Northeast,13 or older,no,2021-03-22_14h36.15.901,empathy_intonation_perc,2020.2.10,MacIntel,60,,,,,,,,,,0,,,,,,,,,,,,,,,,,,,,,,,,,,,,,,,,,,,,,,,,18,arsa,,,0,1,0.684415,0,83,83,17,1,REAL,FAKE,,,,,,,,,,,,,,,,,,,,,
,,,,,,,5f2af333a305a1453082fa08,6057c54e64b0b4e5c128b4f9,6058e37d42615ab85535a6ae,United States,Northeast,13 or older,no,2021-03-22_14h36.15.901,empathy_intonation_perc,2020.2.10,MacIntel,60,,,,,,,,,,1,,,,,,,,,,,,,,,,,,,,,,,,,,,,,,,,,,,,,,,,6,tergiversar,,,0,0,0.80558,0,84,84,5,1,REAL,FAKE,,,,,,,,,,,,,,,,,,,,,
,,,,,,,5f2af333a305a1453082fa08,6057c54e64b0b4e5c128b4f9,6058e37d42615ab85535a6ae,United States,Northeast,13 or older,no,2021-03-22_14h36.15.901,empathy_intonation_perc,2020.2.10,MacIntel,60,,,,,,,,,,0,,,,,,,,,,,,,,,,,,,,,,,,,,,,,,,,,,,,,,,,42,cadallo,,,0,1,0.8815,0,85,85,41,1,REAL,FAKE,,,,,,,,,,,,,,,,,,,,,
,,,,,,,5f2af333a305a1453082fa08,6057c54e64b0b4e5c128b4f9,6058e37d42615ab85535a6ae,United States,Northeast,13 or older,no,2021-03-22_14h36.15.901,empathy_intonation_perc,2020.2.10,MacIntel,60,,,,,,,,,,1,,,,,,,,,,,,,,,,,,,,,,,,,,,,,,,,,,,,,,,,15,regar,,,1,1,0.733205,0,86,86,14,1,REAL,FAKE,,,,,,,,,,,,,,,,,,,,,
,,,,,,,5f2af333a305a1453082fa08,6057c54e64b0b4e5c128b4f9,6058e37d42615ab85535a6ae,United States,Northeast,13 or older,no,2021-03-22_14h36.15.901,empathy_intonation_perc,2020.2.10,MacIntel,60,,,,,,,,,,1,,,,,,,,,,,,,,,,,,,,,,,,,,,,,,,,,,,,,,,,22,lacayo,,,0,0,0.85825,0,87,87,21,1,REAL,FAKE,,,,,,,,,,,,,,,,,,,,,
,,,,,,,5f2af333a305a1453082fa08,6057c54e64b0b4e5c128b4f9,6058e37d42615ab85535a6ae,United States,Northeast,13 or older,no,2021-03-22_14h36.15.901,empathy_intonation_perc,2020.2.10,MacIntel,60,,,,,,,,,,1,,,,,,,,,,,,,,,,,,,,,,,,,,,,,,,,,,,,,,,,55,nevar,,,1,1,0.832585,0,88,88,54,1,REAL,FAKE,,,,,,,,,,,,,,,,,,,,,
,,,,,,,5f2af333a305a1453082fa08,6057c54e64b0b4e5c128b4f9,6058e37d42615ab85535a6ae,United States,Northeast,13 or older,no,2021-03-22_14h36.15.901,empathy_intonation_perc,2020.2.10,MacIntel,60,,,,,,,,,,1,,,,,,,,,,,,,,,,,,,,,,,,,,,,,,,,,,,,,,,,60,matar,,,1,1,0.750045,0,89,89,59,1,REAL,FAKE,,,,,,,,,,,,,,,,,,,,,
,,,,,,,5f2af333a305a1453082fa08,6057c54e64b0b4e5c128b4f9,6058e37d42615ab85535a6ae,United States,Northeast,13 or older,no,2021-03-22_14h36.15.901,empathy_intonation_perc,2020.2.10,MacIntel,60,,,,,,,,,,,,,,,,,,,,,,,,,,,,,,,,,,,,,,,,,,,,,,,,,,,,,,,,,,,,,,,,4,1,1.97946,1,0,0,0,0,0,1,,,,,,,,,,,
,,,,,,,5f2af333a305a1453082fa08,6057c54e64b0b4e5c128b4f9,6058e37d42615ab85535a6ae,United States,Northeast,13 or older,no,2021-03-22_14h36.15.901,empathy_intonation_perc,2020.2.10,MacIntel,60,,,,,,,,,,,,,,,,,,,,1,,,,,,,,,,,,,,,,,,,,,,,,,,,,,,,,,,,,,,,,,,,,,,,,,,,,,,2,0,0,0,0,1,I can easily tell if someone else wants to enter a conversation.,1,0,1,0
,,,,,,,5f2af333a305a1453082fa08,6057c54e64b0b4e5c128b4f9,6058e37d42615ab85535a6ae,United States,Northeast,13 or older,no,2021-03-22_14h36.15.901,empathy_intonation_perc,2020.2.10,MacIntel,60,,,,,,,,,,,,,,,,,,,,2,,,,,,,,,,,,,,,,,,,,,,,,,,,,,,,,,,,,,,,,,,,,,,,,,,,,,,3,0,1,1,1,1,I prefer animals to humans.,0,1,0,0
