instructions_2afc_loop.thisRepN,instructions_2afc_loop.thisTrialN,instructions_2afc_loop.thisN,instructions_2afc_loop.thisIndex,instructions_2afc_loop.ran,instructions_text,continue_text,participant,study_id,session,I am most familiar with Spanish from...*,What part of the US are you from?*,At what age did you begin learning Spanish?*,Are you proficient in any languages other than English/Spanish?*,date,expName,psychopyVersion,OS,frameRate,key_resp_2afc_practice.keys,key_resp_2afc_practice.corr,key_resp_2afc_practice.rt,trials_2afc_practice_loop.thisRepN,trials_2afc_practice_loop.thisTrialN,trials_2afc_practice_loop.thisN,trials_2afc_practice_loop.thisIndex,trials_2afc_practice_loop.ran,path,correct_response,the_col,key_resp_2afc_trial.keys,key_resp_2afc_trial.corr,key_resp_2afc_trial.rt,trials_2afc_loop.thisRepN,trials_2afc_loop.thisTrialN,trials_2afc_loop.thisN,trials_2afc_loop.thisIndex,trials_2afc_loop.ran,item_num,andalusian,argentine,castilian,chilean,cuban,mexican,peruvian,puertorican,key_resp_ac1.keys,key_resp_ac1.corr,key_resp_ac1.rt,ac1_loop.thisRepN,ac1_loop.thisTrialN,ac1_loop.thisN,ac1_loop.thisIndex,ac1_loop.ran,instructions_lextale_loop.thisRepN,instructions_lextale_loop.thisTrialN,instructions_lextale_loop.thisN,instructions_lextale_loop.thisIndex,instructions_lextale_loop.ran,key_resp_lextale_practice.keys,key_resp_lextale_practice.corr,key_resp_lextale_practice.rt,trials_lextale_practice_loop.thisRepN,trials_lextale_practice_loop.thisTrialN,trials_lextale_practice_loop.thisN,trials_lextale_practice_loop.thisIndex,trials_lextale_practice_loop.ran,stim,word,prac_button_real,prac_button_false,key_resp_lextale_trial.keys,key_resp_lextale_trial.corr,key_resp_lextale_trial.rt,trials_lextale_loop.thisRepN,trials_lextale_loop.thisTrialN,trials_lextale_loop.thisN,trials_lextale_loop.thisIndex,trials_lextale_loop.ran,button_real,button_false,key_resp_ac2.keys,key_resp_ac2.corr,key_resp_ac2.rt,check_pass,check_fails,ac2_loop.thisRepN,ac2_loop.thisTrialN,ac2_loop.thisN,ac2_loop.thisIndex,ac2_loop.ran,slider_eq_trial.response,trials_eq_loop.thisRepN,trials_eq_loop.thisTrialN,trials_eq_loop.thisN,trials_eq_loop.thisIndex,trials_eq_loop.ran,item,is_test_item,is_distractor,is_agree_score,is_disagree_score
0,0,0,0,1,"In the following task you are going to hear a series of utterances. 

  You will decide if the utterances sound like questions or not using your keyboard.",(press the spacebar to continue),5f2cd45cd689ae1ec67c848c,605b45a4d25f287719a41696,605be137a886b49d3287d474,Spain,Midwest,13 or older,no,2021-03-24_21h04.05.835,empathy_intonation_perc,2020.2.10,MacIntel,60,,,,,,,,,,,,,,,,,,,,,,,,,,,,,,,,,,,,,,,,,,,,,,,,,,,,,,,,,,,,,,,,,,,,,,,,,,,,,,,,,,,,
0,1,1,1,1,"If you believe the utterance is a question, type '1' (for 'yes') and if you do not 
  believe it is a question type '0' (for 'no').

  Let's practice a bit...",(press the spacebar to continue),5f2cd45cd689ae1ec67c848c,605b45a4d25f287719a41696,605be137a886b49d3287d474,Spain,Midwest,13 or older,no,2021-03-24_21h04.05.835,empathy_intonation_perc,2020.2.10,MacIntel,60,,,,,,,,,,,,,,,,,,,,,,,,,,,,,,,,,,,,,,,,,,,,,,,,,,,,,,,,,,,,,,,,,,,,,,,,,,,,,,,,,,,,
,,,,,,,5f2cd45cd689ae1ec67c848c,605b45a4d25f287719a41696,605be137a886b49d3287d474,Spain,Midwest,13 or older,no,2021-03-24_21h04.05.835,empathy_intonation_perc,2020.2.10,MacIntel,60,0,1,2.022125,0,0,0,5,1,./stim/wavs/andalusian_statement_filler_Alberto-nunca-se-afeita.wav,0,,,,,,,,,,,,,,,,,,,,,,,,,,,,,,,,,,,,,,,,,,,,,,,,,,,,,,,,,,,,,,,,,,,,,,,,,,
,,,,,,,5f2cd45cd689ae1ec67c848c,605b45a4d25f287719a41696,605be137a886b49d3287d474,Spain,Midwest,13 or older,no,2021-03-24_21h04.05.835,empathy_intonation_perc,2020.2.10,MacIntel,60,0,1,1.76002,0,1,1,4,1,./stim/wavs/cuban_statement_filler_Cocinabas-por-la-noche.wav,0,,,,,,,,,,,,,,,,,,,,,,,,,,,,,,,,,,,,,,,,,,,,,,,,,,,,,,,,,,,,,,,,,,,,,,,,,,
,,,,,,,5f2cd45cd689ae1ec67c848c,605b45a4d25f287719a41696,605be137a886b49d3287d474,Spain,Midwest,13 or older,no,2021-03-24_21h04.05.835,empathy_intonation_perc,2020.2.10,MacIntel,60,1,1,1.96502,0,2,2,0,1,./stim/wavs/castilian_question_filler_Mi-esposo-conoce-al-chico.wav,1,,,,,,,,,,,,,,,,,,,,,,,,,,,,,,,,,,,,,,,,,,,,,,,,,,,,,,,,,,,,,,,,,,,,,,,,,,
,,,,,,,5f2cd45cd689ae1ec67c848c,605b45a4d25f287719a41696,605be137a886b49d3287d474,Spain,Midwest,13 or older,no,2021-03-24_21h04.05.835,empathy_intonation_perc,2020.2.10,MacIntel,60,0,1,2.21244,0,3,3,6,1,./stim/wavs/peruvian_statement_filler_El-nino-habla-con-su-madre.wav,0,,,,,,,,,,,,,,,,,,,,,,,,,,,,,,,,,,,,,,,,,,,,,,,,,,,,,,,,,,,,,,,,,,,,,,,,,,
,,,,,,,5f2cd45cd689ae1ec67c848c,605b45a4d25f287719a41696,605be137a886b49d3287d474,Spain,Midwest,13 or older,no,2021-03-24_21h04.05.835,empathy_intonation_perc,2020.2.10,MacIntel,60,1,1,1.67656,0,4,4,1,1,./stim/wavs/argentine_question_filler_Mi-vecino-habla-mucho.wav,1,,,,,,,,,,,,,,,,,,,,,,,,,,,,,,,,,,,,,,,,,,,,,,,,,,,,,,,,,,,,,,,,,,,,,,,,,,
,,,,,,,5f2cd45cd689ae1ec67c848c,605b45a4d25f287719a41696,605be137a886b49d3287d474,Spain,Midwest,13 or older,no,2021-03-24_21h04.05.835,empathy_intonation_perc,2020.2.10,MacIntel,60,1,1,2.079275,0,5,5,3,1,./stim/wavs/mexican_question_filler_Felipe-no-tiene-contrasena.wav,1,,,,,,,,,,,,,,,,,,,,,,,,,,,,,,,,,,,,,,,,,,,,,,,,,,,,,,,,,,,,,,,,,,,,,,,,,,
,,,,,,,5f2cd45cd689ae1ec67c848c,605b45a4d25f287719a41696,605be137a886b49d3287d474,Spain,Midwest,13 or older,no,2021-03-24_21h04.05.835,empathy_intonation_perc,2020.2.10,MacIntel,60,0,1,2.03912,0,6,6,7,1,./stim/wavs/puertorican_statement_filler_La-nina-pinta-con-su-amiga.wav,0,,,,,,,,,,,,,,,,,,,,,,,,,,,,,,,,,,,,,,,,,,,,,,,,,,,,,,,,,,,,,,,,,,,,,,,,,,
,,,,,,,5f2cd45cd689ae1ec67c848c,605b45a4d25f287719a41696,605be137a886b49d3287d474,Spain,Midwest,13 or older,no,2021-03-24_21h04.05.835,empathy_intonation_perc,2020.2.10,MacIntel,60,0,0,2.07665,0,7,7,2,1,./stim/wavs/chilean_question_filler_Mi-padre-cantaba-bien.wav,1,,,,,,,,,,,,,,,,,,,,,,,,,,,,,,,,,,,,,,,,,,,,,,,,,,,,,,,,,,,,,,,,,,,,,,,,,,
,,,,,,,5f2cd45cd689ae1ec67c848c,605b45a4d25f287719a41696,605be137a886b49d3287d474,Spain,Midwest,13 or older,no,2021-03-24_21h04.05.835,empathy_intonation_perc,2020.2.10,MacIntel,60,,,,,,,,,,0,chilean,0,1,1.726635,0,0,0,44,1,45,./stim/wavs/andalusian_mismatch_declarative-narrow-focus_La-nina-lava-el-plato.wav,./stim/wavs/argentine_mismatch_declarative-narrow-focus_La-nina-lava-el-plato.wav,./stim/wavs/castilian_mismatch_declarative-narrow-focus_La-nina-lava-el-plato.wav,./stim/wavs/chilean_mismatch_declarative-narrow-focus_La-nina-lava-el-plato.wav,./stim/wavs/cuban_mismatch_declarative-narrow-focus_La-nina-lava-el-plato.wav,./stim/wavs/mexican_mismatch_declarative-narrow-focus_La-nina-lava-el-plato.wav,./stim/wavs/peruvian_mismatch_declarative-narrow-focus_La-nina-lava-el-plato.wav,./stim/wavs/puertorican_mismatch_declarative-narrow-focus_La-nina-lava-el-plato.wav,,,,,,,,,,,,,,,,,,,,,,,,,,,,,,,,,,,,,,,,,,,,,,,,,,,,,,,,
,,,,,,,5f2cd45cd689ae1ec67c848c,605b45a4d25f287719a41696,605be137a886b49d3287d474,Spain,Midwest,13 or older,no,2021-03-24_21h04.05.835,empathy_intonation_perc,2020.2.10,MacIntel,60,,,,,,,,,,0,argentine,0,1,1.751245,0,1,1,36,1,37,./stim/wavs/andalusian_mismatch_declarative-broad-focus_La-nina-lava-el-plato.wav,./stim/wavs/argentine_mismatch_declarative-broad-focus_La-nina-lava-el-plato.wav,./stim/wavs/castilian_mismatch_declarative-broad-focus_La-nina-lava-el-plato.wav,./stim/wavs/chilean_mismatch_declarative-broad-focus_La-nina-lava-el-plato.wav,./stim/wavs/cuban_mismatch_declarative-broad-focus_La-nina-lava-el-plato.wav,./stim/wavs/mexican_mismatch_declarative-broad-focus_La-nina-lava-el-plato.wav,./stim/wavs/peruvian_mismatch_declarative-broad-focus_La-nina-lava-el-plato.wav,./stim/wavs/puertorican_mismatch_declarative-broad-focus_La-nina-lava-el-plato.wav,,,,,,,,,,,,,,,,,,,,,,,,,,,,,,,,,,,,,,,,,,,,,,,,,,,,,,,,
,,,,,,,5f2cd45cd689ae1ec67c848c,605b45a4d25f287719a41696,605be137a886b49d3287d474,Spain,Midwest,13 or older,no,2021-03-24_21h04.05.835,empathy_intonation_perc,2020.2.10,MacIntel,60,,,,,,,,,,0,chilean,0,1,1.919505,0,2,2,38,1,39,./stim/wavs/andalusian_mismatch_declarative-broad-focus_Mi-novio-viene-del-lago.wav,./stim/wavs/argentine_mismatch_declarative-broad-focus_Mi-novio-viene-del-lago.wav,./stim/wavs/castilian_mismatch_declarative-broad-focus_Mi-novio-viene-del-lago.wav,./stim/wavs/chilean_mismatch_declarative-broad-focus_Mi-novio-viene-del-lago.wav,./stim/wavs/cuban_mismatch_declarative-broad-focus_Mi-novio-viene-del-lago.wav,./stim/wavs/mexican_mismatch_declarative-broad-focus_Mi-novio-viene-del-lago.wav,./stim/wavs/peruvian_mismatch_declarative-broad-focus_Mi-novio-viene-del-lago.wav,./stim/wavs/puertorican_mismatch_declarative-broad-focus_Mi-novio-viene-del-lago.wav,,,,,,,,,,,,,,,,,,,,,,,,,,,,,,,,,,,,,,,,,,,,,,,,,,,,,,,,
,,,,,,,5f2cd45cd689ae1ec67c848c,605b45a4d25f287719a41696,605be137a886b49d3287d474,Spain,Midwest,13 or older,no,2021-03-24_21h04.05.835,empathy_intonation_perc,2020.2.10,MacIntel,60,,,,,,,,,,1,puertorican,0,0,1.43438,0,3,3,24,1,25,./stim/wavs/andalusian_match_interrogative-total-yn_Ana-lleva-el-abrigo.wav,./stim/wavs/argentine_match_interrogative-total-yn_Ana-lleva-el-abrigo.wav,./stim/wavs/castilian_match_interrogative-total-yn_Ana-lleva-el-abrigo.wav,./stim/wavs/chilean_match_interrogative-total-yn_Ana-lleva-el-abrigo.wav,./stim/wavs/cuban_match_interrogative-total-yn_Ana-lleva-el-abrigo.wav,./stim/wavs/mexican_match_interrogative-total-yn_Ana-lleva-el-abrigo.wav,./stim/wavs/peruvian_match_interrogative-total-yn_Ana-lleva-el-abrigo.wav,./stim/wavs/puertorican_match_interrogative-total-yn_Ana-lleva-el-abrigo.wav,,,,,,,,,,,,,,,,,,,,,,,,,,,,,,,,,,,,,,,,,,,,,,,,,,,,,,,,
,,,,,,,5f2cd45cd689ae1ec67c848c,605b45a4d25f287719a41696,605be137a886b49d3287d474,Spain,Midwest,13 or older,no,2021-03-24_21h04.05.835,empathy_intonation_perc,2020.2.10,MacIntel,60,,,,,,,,,,0,mexican,0,1,1.45613,0,4,4,41,1,42,./stim/wavs/andalusian_mismatch_declarative-narrow-focus_El-hombre-mira-la-luna.wav,./stim/wavs/argentine_mismatch_declarative-narrow-focus_El-hombre-mira-la-luna.wav,./stim/wavs/castilian_mismatch_declarative-narrow-focus_El-hombre-mira-la-luna.wav,./stim/wavs/chilean_mismatch_declarative-narrow-focus_El-hombre-mira-la-luna.wav,./stim/wavs/cuban_mismatch_declarative-narrow-focus_El-hombre-mira-la-luna.wav,./stim/wavs/mexican_mismatch_declarative-narrow-focus_El-hombre-mira-la-luna.wav,./stim/wavs/peruvian_mismatch_declarative-narrow-focus_El-hombre-mira-la-luna.wav,./stim/wavs/puertorican_mismatch_declarative-narrow-focus_El-hombre-mira-la-luna.wav,,,,,,,,,,,,,,,,,,,,,,,,,,,,,,,,,,,,,,,,,,,,,,,,,,,,,,,,
,,,,,,,5f2cd45cd689ae1ec67c848c,605b45a4d25f287719a41696,605be137a886b49d3287d474,Spain,Midwest,13 or older,no,2021-03-24_21h04.05.835,empathy_intonation_perc,2020.2.10,MacIntel,60,,,,,,,,,,1,mexican,1,1,1.70092,0,5,5,27,1,28,./stim/wavs/andalusian_match_interrogative-total-yn_Emilio-ama-la-marcha.wav,./stim/wavs/argentine_match_interrogative-total-yn_Emilio-ama-la-marcha.wav,./stim/wavs/castilian_match_interrogative-total-yn_Emilio-ama-la-marcha.wav,./stim/wavs/chilean_match_interrogative-total-yn_Emilio-ama-la-marcha.wav,./stim/wavs/cuban_match_interrogative-total-yn_Emilio-ama-la-marcha.wav,./stim/wavs/mexican_match_interrogative-total-yn_Emilio-ama-la-marcha.wav,./stim/wavs/peruvian_match_interrogative-total-yn_Emilio-ama-la-marcha.wav,./stim/wavs/puertorican_match_interrogative-total-yn_Emilio-ama-la-marcha.wav,,,,,,,,,,,,,,,,,,,,,,,,,,,,,,,,,,,,,,,,,,,,,,,,,,,,,,,,
,,,,,,,5f2cd45cd689ae1ec67c848c,605b45a4d25f287719a41696,605be137a886b49d3287d474,Spain,Midwest,13 or older,no,2021-03-24_21h04.05.835,empathy_intonation_perc,2020.2.10,MacIntel,60,,,,,,,,,,0,puertorican,0,1,1.642765,0,6,6,39,1,40,./stim/wavs/andalusian_mismatch_declarative-broad-focus_Mi-tia-odia-la-lluvia.wav,./stim/wavs/argentine_mismatch_declarative-broad-focus_Mi-tia-odia-la-lluvia.wav,./stim/wavs/castilian_mismatch_declarative-broad-focus_Mi-tia-odia-la-lluvia.wav,./stim/wavs/chilean_mismatch_declarative-broad-focus_Mi-tia-odia-la-lluvia.wav,./stim/wavs/cuban_mismatch_declarative-broad-focus_Mi-tia-odia-la-lluvia.wav,./stim/wavs/mexican_mismatch_declarative-broad-focus_Mi-tia-odia-la-lluvia.wav,./stim/wavs/peruvian_mismatch_declarative-broad-focus_Mi-tia-odia-la-lluvia.wav,./stim/wavs/puertorican_mismatch_declarative-broad-focus_Mi-tia-odia-la-lluvia.wav,,,,,,,,,,,,,,,,,,,,,,,,,,,,,,,,,,,,,,,,,,,,,,,,,,,,,,,,
,,,,,,,5f2cd45cd689ae1ec67c848c,605b45a4d25f287719a41696,605be137a886b49d3287d474,Spain,Midwest,13 or older,no,2021-03-24_21h04.05.835,empathy_intonation_perc,2020.2.10,MacIntel,60,,,,,,,,,,0,puertorican,1,0,1.532545,0,7,7,40,1,41,./stim/wavs/andalusian_mismatch_declarative-narrow-focus_El-bebe-comia-muy-bien.wav,./stim/wavs/argentine_mismatch_declarative-narrow-focus_El-bebe-comia-muy-bien.wav,./stim/wavs/castilian_mismatch_declarative-narrow-focus_El-bebe-comia-muy-bien.wav,./stim/wavs/chilean_mismatch_declarative-narrow-focus_El-bebe-comia-muy-bien.wav,./stim/wavs/cuban_mismatch_declarative-narrow-focus_El-bebe-comia-muy-bien.wav,./stim/wavs/mexican_mismatch_declarative-narrow-focus_El-bebe-comia-muy-bien.wav,./stim/wavs/peruvian_mismatch_declarative-narrow-focus_El-bebe-comia-muy-bien.wav,./stim/wavs/puertorican_mismatch_declarative-narrow-focus_El-bebe-comia-muy-bien.wav,,,,,,,,,,,,,,,,,,,,,,,,,,,,,,,,,,,,,,,,,,,,,,,,,,,,,,,,
,,,,,,,5f2cd45cd689ae1ec67c848c,605b45a4d25f287719a41696,605be137a886b49d3287d474,Spain,Midwest,13 or older,no,2021-03-24_21h04.05.835,empathy_intonation_perc,2020.2.10,MacIntel,60,,,,,,,,,,1,argentine,0,0,1.703645,0,8,8,48,1,49,./stim/wavs/andalusian_mismatch_interrogative-partial-wh_Cuando-comia-la-fruta.wav,./stim/wavs/argentine_mismatch_interrogative-partial-wh_Cuando-comia-la-fruta.wav,./stim/wavs/castilian_mismatch_interrogative-partial-wh_Cuando-comia-la-fruta.wav,./stim/wavs/chilean_mismatch_interrogative-partial-wh_Cuando-comia-la-fruta.wav,./stim/wavs/cuban_mismatch_interrogative-partial-wh_Cuando-comia-la-fruta.wav,./stim/wavs/mexican_mismatch_interrogative-partial-wh_Cuando-comia-la-fruta.wav,./stim/wavs/peruvian_mismatch_interrogative-partial-wh_Cuando-comia-la-fruta.wav,./stim/wavs/puertorican_mismatch_interrogative-partial-wh_Cuando-comia-la-fruta.wav,,,,,,,,,,,,,,,,,,,,,,,,,,,,,,,,,,,,,,,,,,,,,,,,,,,,,,,,
,,,,,,,5f2cd45cd689ae1ec67c848c,605b45a4d25f287719a41696,605be137a886b49d3287d474,Spain,Midwest,13 or older,no,2021-03-24_21h04.05.835,empathy_intonation_perc,2020.2.10,MacIntel,60,,,,,,,,,,1,argentine,0,0,1.44974,0,9,9,49,1,50,./stim/wavs/andalusian_mismatch_interrogative-partial-wh_Cuando-lavaba-el-plato.wav,./stim/wavs/argentine_mismatch_interrogative-partial-wh_Cuando-lavaba-el-plato.wav,./stim/wavs/castilian_mismatch_interrogative-partial-wh_Cuando-lavaba-el-plato.wav,./stim/wavs/chilean_mismatch_interrogative-partial-wh_Cuando-lavaba-el-plato.wav,./stim/wavs/cuban_mismatch_interrogative-partial-wh_Cuando-lavaba-el-plato.wav,./stim/wavs/mexican_mismatch_interrogative-partial-wh_Cuando-lavaba-el-plato.wav,./stim/wavs/peruvian_mismatch_interrogative-partial-wh_Cuando-lavaba-el-plato.wav,./stim/wavs/puertorican_mismatch_interrogative-partial-wh_Cuando-lavaba-el-plato.wav,,,,,,,,,,,,,,,,,,,,,,,,,,,,,,,,,,,,,,,,,,,,,,,,,,,,,,,,
,,,,,,,5f2cd45cd689ae1ec67c848c,605b45a4d25f287719a41696,605be137a886b49d3287d474,Spain,Midwest,13 or older,no,2021-03-24_21h04.05.835,empathy_intonation_perc,2020.2.10,MacIntel,60,,,,,,,,,,0,mexican,0,1,2.117455,0,10,10,15,1,16,./stim/wavs/andalusian_match_declarative-narrow-focus_Marta-abre-el-regalo.wav,./stim/wavs/argentine_match_declarative-narrow-focus_Marta-abre-el-regalo.wav,./stim/wavs/castilian_match_declarative-narrow-focus_Marta-abre-el-regalo.wav,./stim/wavs/chilean_match_declarative-narrow-focus_Marta-abre-el-regalo.wav,./stim/wavs/cuban_match_declarative-narrow-focus_Marta-abre-el-regalo.wav,./stim/wavs/mexican_match_declarative-narrow-focus_Marta-abre-el-regalo.wav,./stim/wavs/peruvian_match_declarative-narrow-focus_Marta-abre-el-regalo.wav,./stim/wavs/puertorican_match_declarative-narrow-focus_Marta-abre-el-regalo.wav,,,,,,,,,,,,,,,,,,,,,,,,,,,,,,,,,,,,,,,,,,,,,,,,,,,,,,,,
,,,,,,,5f2cd45cd689ae1ec67c848c,605b45a4d25f287719a41696,605be137a886b49d3287d474,Spain,Midwest,13 or older,no,2021-03-24_21h04.05.835,empathy_intonation_perc,2020.2.10,MacIntel,60,,,,,,,,,,1,chilean,1,1,1.419995,0,11,11,20,1,21,./stim/wavs/andalusian_match_interrogative-partial-wh_Por-que-abre-el-regalo.wav,./stim/wavs/argentine_match_interrogative-partial-wh_Por-que-abre-el-regalo.wav,./stim/wavs/castilian_match_interrogative-partial-wh_Por-que-abre-el-regalo.wav,./stim/wavs/chilean_match_interrogative-partial-wh_Por-que-abre-el-regalo.wav,./stim/wavs/cuban_match_interrogative-partial-wh_Por-que-abre-el-regalo.wav,./stim/wavs/mexican_match_interrogative-partial-wh_Por-que-abre-el-regalo.wav,./stim/wavs/peruvian_match_interrogative-partial-wh_Por-que-abre-el-regalo.wav,./stim/wavs/puertorican_match_interrogative-partial-wh_Por-que-abre-el-regalo.wav,,,,,,,,,,,,,,,,,,,,,,,,,,,,,,,,,,,,,,,,,,,,,,,,,,,,,,,,
,,,,,,,5f2cd45cd689ae1ec67c848c,605b45a4d25f287719a41696,605be137a886b49d3287d474,Spain,Midwest,13 or older,no,2021-03-24_21h04.05.835,empathy_intonation_perc,2020.2.10,MacIntel,60,,,,,,,,,,1,peruvian,1,1,1.700835,0,12,12,63,1,64,./stim/wavs/andalusian_mismatch_interrogative-total-yn_Mi-tia-odia-la-lluvia.wav,./stim/wavs/argentine_mismatch_interrogative-total-yn_Mi-tia-odia-la-lluvia.wav,./stim/wavs/castilian_mismatch_interrogative-total-yn_Mi-tia-odia-la-lluvia.wav,./stim/wavs/chilean_mismatch_interrogative-total-yn_Mi-tia-odia-la-lluvia.wav,./stim/wavs/cuban_mismatch_interrogative-total-yn_Mi-tia-odia-la-lluvia.wav,./stim/wavs/mexican_mismatch_interrogative-total-yn_Mi-tia-odia-la-lluvia.wav,./stim/wavs/peruvian_mismatch_interrogative-total-yn_Mi-tia-odia-la-lluvia.wav,./stim/wavs/puertorican_mismatch_interrogative-total-yn_Mi-tia-odia-la-lluvia.wav,,,,,,,,,,,,,,,,,,,,,,,,,,,,,,,,,,,,,,,,,,,,,,,,,,,,,,,,
,,,,,,,5f2cd45cd689ae1ec67c848c,605b45a4d25f287719a41696,605be137a886b49d3287d474,Spain,Midwest,13 or older,no,2021-03-24_21h04.05.835,empathy_intonation_perc,2020.2.10,MacIntel,60,,,,,,,,,,1,andalusian,1,1,1.42758,0,13,13,55,1,56,./stim/wavs/andalusian_mismatch_interrogative-partial-wh_Por-que-vivia-en-Paris.wav,./stim/wavs/argentine_mismatch_interrogative-partial-wh_Por-que-vivia-en-Paris.wav,./stim/wavs/castilian_mismatch_interrogative-partial-wh_Por-que-vivia-en-Paris.wav,./stim/wavs/chilean_mismatch_interrogative-partial-wh_Por-que-vivia-en-Paris.wav,./stim/wavs/cuban_mismatch_interrogative-partial-wh_Por-que-vivia-en-Paris.wav,./stim/wavs/mexican_mismatch_interrogative-partial-wh_Por-que-vivia-en-Paris.wav,./stim/wavs/peruvian_mismatch_interrogative-partial-wh_Por-que-vivia-en-Paris.wav,./stim/wavs/puertorican_mismatch_interrogative-partial-wh_Por-que-vivia-en-Paris.wav,,,,,,,,,,,,,,,,,,,,,,,,,,,,,,,,,,,,,,,,,,,,,,,,,,,,,,,,
,,,,,,,5f2cd45cd689ae1ec67c848c,605b45a4d25f287719a41696,605be137a886b49d3287d474,Spain,Midwest,13 or older,no,2021-03-24_21h04.05.835,empathy_intonation_perc,2020.2.10,MacIntel,60,,,,,,,,,,0,peruvian,0,1,1.832335,0,14,14,34,1,35,./stim/wavs/andalusian_mismatch_declarative-broad-focus_El-nino-oye-el-rio.wav,./stim/wavs/argentine_mismatch_declarative-broad-focus_El-nino-oye-el-rio.wav,./stim/wavs/castilian_mismatch_declarative-broad-focus_El-nino-oye-el-rio.wav,./stim/wavs/chilean_mismatch_declarative-broad-focus_El-nino-oye-el-rio.wav,./stim/wavs/cuban_mismatch_declarative-broad-focus_El-nino-oye-el-rio.wav,./stim/wavs/mexican_mismatch_declarative-broad-focus_El-nino-oye-el-rio.wav,./stim/wavs/peruvian_mismatch_declarative-broad-focus_El-nino-oye-el-rio.wav,./stim/wavs/puertorican_mismatch_declarative-broad-focus_El-nino-oye-el-rio.wav,,,,,,,,,,,,,,,,,,,,,,,,,,,,,,,,,,,,,,,,,,,,,,,,,,,,,,,,
,,,,,,,5f2cd45cd689ae1ec67c848c,605b45a4d25f287719a41696,605be137a886b49d3287d474,Spain,Midwest,13 or older,no,2021-03-24_21h04.05.835,empathy_intonation_perc,2020.2.10,MacIntel,60,,,,,,,,,,1,castilian,1,1,1.409385,0,15,15,57,1,58,./stim/wavs/andalusian_mismatch_interrogative-total-yn_El-hombre-mira-la-luna.wav,./stim/wavs/argentine_mismatch_interrogative-total-yn_El-hombre-mira-la-luna.wav,./stim/wavs/castilian_mismatch_interrogative-total-yn_El-hombre-mira-la-luna.wav,./stim/wavs/chilean_mismatch_interrogative-total-yn_El-hombre-mira-la-luna.wav,./stim/wavs/cuban_mismatch_interrogative-total-yn_El-hombre-mira-la-luna.wav,./stim/wavs/mexican_mismatch_interrogative-total-yn_El-hombre-mira-la-luna.wav,./stim/wavs/peruvian_mismatch_interrogative-total-yn_El-hombre-mira-la-luna.wav,./stim/wavs/puertorican_mismatch_interrogative-total-yn_El-hombre-mira-la-luna.wav,,,,,,,,,,,,,,,,,,,,,,,,,,,,,,,,,,,,,,,,,,,,,,,,,,,,,,,,
,,,,,,,5f2cd45cd689ae1ec67c848c,605b45a4d25f287719a41696,605be137a886b49d3287d474,Spain,Midwest,13 or older,no,2021-03-24_21h04.05.835,empathy_intonation_perc,2020.2.10,MacIntel,60,,,,,,,,,,1,cuban,0,0,1.868415,0,16,16,23,1,24,./stim/wavs/andalusian_match_interrogative-partial-wh_Por-que-iba-a-Bolivia.wav,./stim/wavs/argentine_match_interrogative-partial-wh_Por-que-iba-a-Bolivia.wav,./stim/wavs/castilian_match_interrogative-partial-wh_Por-que-iba-a-Bolivia.wav,./stim/wavs/chilean_match_interrogative-partial-wh_Por-que-iba-a-Bolivia.wav,./stim/wavs/cuban_match_interrogative-partial-wh_Por-que-iba-a-Bolivia.wav,./stim/wavs/mexican_match_interrogative-partial-wh_Por-que-iba-a-Bolivia.wav,./stim/wavs/peruvian_match_interrogative-partial-wh_Por-que-iba-a-Bolivia.wav,./stim/wavs/puertorican_match_interrogative-partial-wh_Por-que-iba-a-Bolivia.wav,,,,,,,,,,,,,,,,,,,,,,,,,,,,,,,,,,,,,,,,,,,,,,,,,,,,,,,,
,,,,,,,5f2cd45cd689ae1ec67c848c,605b45a4d25f287719a41696,605be137a886b49d3287d474,Spain,Midwest,13 or older,no,2021-03-24_21h04.05.835,empathy_intonation_perc,2020.2.10,MacIntel,60,,,,,,,,,,0,argentine,0,1,1.83128,0,17,17,11,1,12,./stim/wavs/andalusian_match_declarative-narrow-focus_Emilio-ama-la-marcha.wav,./stim/wavs/argentine_match_declarative-narrow-focus_Emilio-ama-la-marcha.wav,./stim/wavs/castilian_match_declarative-narrow-focus_Emilio-ama-la-marcha.wav,./stim/wavs/chilean_match_declarative-narrow-focus_Emilio-ama-la-marcha.wav,./stim/wavs/cuban_match_declarative-narrow-focus_Emilio-ama-la-marcha.wav,./stim/wavs/mexican_match_declarative-narrow-focus_Emilio-ama-la-marcha.wav,./stim/wavs/peruvian_match_declarative-narrow-focus_Emilio-ama-la-marcha.wav,./stim/wavs/puertorican_match_declarative-narrow-focus_Emilio-ama-la-marcha.wav,,,,,,,,,,,,,,,,,,,,,,,,,,,,,,,,,,,,,,,,,,,,,,,,,,,,,,,,
,,,,,,,5f2cd45cd689ae1ec67c848c,605b45a4d25f287719a41696,605be137a886b49d3287d474,Spain,Midwest,13 or older,no,2021-03-24_21h04.05.835,empathy_intonation_perc,2020.2.10,MacIntel,60,,,,,,,,,,1,cuban,0,0,1.88562,0,18,18,29,1,30,./stim/wavs/andalusian_match_interrogative-total-yn_Maria-bebe-el-vino.wav,./stim/wavs/argentine_match_interrogative-total-yn_Maria-bebe-el-vino.wav,./stim/wavs/castilian_match_interrogative-total-yn_Maria-bebe-el-vino.wav,./stim/wavs/chilean_match_interrogative-total-yn_Maria-bebe-el-vino.wav,./stim/wavs/cuban_match_interrogative-total-yn_Maria-bebe-el-vino.wav,./stim/wavs/mexican_match_interrogative-total-yn_Maria-bebe-el-vino.wav,./stim/wavs/peruvian_match_interrogative-total-yn_Maria-bebe-el-vino.wav,./stim/wavs/puertorican_match_interrogative-total-yn_Maria-bebe-el-vino.wav,,,,,,,,,,,,,,,,,,,,,,,,,,,,,,,,,,,,,,,,,,,,,,,,,,,,,,,,
,,,,,,,5f2cd45cd689ae1ec67c848c,605b45a4d25f287719a41696,605be137a886b49d3287d474,Spain,Midwest,13 or older,no,2021-03-24_21h04.05.835,empathy_intonation_perc,2020.2.10,MacIntel,60,,,,,,,,,,1,puertorican,1,1,1.489375,0,19,19,56,1,57,./stim/wavs/andalusian_mismatch_interrogative-total-yn_El-bebe-comia-muy-bien.wav,./stim/wavs/argentine_mismatch_interrogative-total-yn_El-bebe-comia-muy-bien.wav,./stim/wavs/castilian_mismatch_interrogative-total-yn_El-bebe-comia-muy-bien.wav,./stim/wavs/chilean_mismatch_interrogative-total-yn_El-bebe-comia-muy-bien.wav,./stim/wavs/cuban_mismatch_interrogative-total-yn_El-bebe-comia-muy-bien.wav,./stim/wavs/mexican_mismatch_interrogative-total-yn_El-bebe-comia-muy-bien.wav,./stim/wavs/peruvian_mismatch_interrogative-total-yn_El-bebe-comia-muy-bien.wav,./stim/wavs/puertorican_mismatch_interrogative-total-yn_El-bebe-comia-muy-bien.wav,,,,,,,,,,,,,,,,,,,,,,,,,,,,,,,,,,,,,,,,,,,,,,,,,,,,,,,,
,,,,,,,5f2cd45cd689ae1ec67c848c,605b45a4d25f287719a41696,605be137a886b49d3287d474,Spain,Midwest,13 or older,no,2021-03-24_21h04.05.835,empathy_intonation_perc,2020.2.10,MacIntel,60,,,,,,,,,,1,castilian,1,1,1.770255,0,20,20,31,1,32,./stim/wavs/andalusian_match_interrogative-total-yn_Marta-abre-el-regalo.wav,./stim/wavs/argentine_match_interrogative-total-yn_Marta-abre-el-regalo.wav,./stim/wavs/castilian_match_interrogative-total-yn_Marta-abre-el-regalo.wav,./stim/wavs/chilean_match_interrogative-total-yn_Marta-abre-el-regalo.wav,./stim/wavs/cuban_match_interrogative-total-yn_Marta-abre-el-regalo.wav,./stim/wavs/mexican_match_interrogative-total-yn_Marta-abre-el-regalo.wav,./stim/wavs/peruvian_match_interrogative-total-yn_Marta-abre-el-regalo.wav,./stim/wavs/puertorican_match_interrogative-total-yn_Marta-abre-el-regalo.wav,,,,,,,,,,,,,,,,,,,,,,,,,,,,,,,,,,,,,,,,,,,,,,,,,,,,,,,,
,,,,,,,5f2cd45cd689ae1ec67c848c,605b45a4d25f287719a41696,605be137a886b49d3287d474,Spain,Midwest,13 or older,no,2021-03-24_21h04.05.835,empathy_intonation_perc,2020.2.10,MacIntel,60,,,,,,,,,,0,argentine,0,1,2.238825,0,21,21,43,1,44,./stim/wavs/andalusian_mismatch_declarative-narrow-focus_La-maestra-vive-en-Paris.wav,./stim/wavs/argentine_mismatch_declarative-narrow-focus_La-maestra-vive-en-Paris.wav,./stim/wavs/castilian_mismatch_declarative-narrow-focus_La-maestra-vive-en-Paris.wav,./stim/wavs/chilean_mismatch_declarative-narrow-focus_La-maestra-vive-en-Paris.wav,./stim/wavs/cuban_mismatch_declarative-narrow-focus_La-maestra-vive-en-Paris.wav,./stim/wavs/mexican_mismatch_declarative-narrow-focus_La-maestra-vive-en-Paris.wav,./stim/wavs/peruvian_mismatch_declarative-narrow-focus_La-maestra-vive-en-Paris.wav,./stim/wavs/puertorican_mismatch_declarative-narrow-focus_La-maestra-vive-en-Paris.wav,,,,,,,,,,,,,,,,,,,,,,,,,,,,,,,,,,,,,,,,,,,,,,,,,,,,,,,,
,,,,,,,5f2cd45cd689ae1ec67c848c,605b45a4d25f287719a41696,605be137a886b49d3287d474,Spain,Midwest,13 or older,no,2021-03-24_21h04.05.835,empathy_intonation_perc,2020.2.10,MacIntel,60,,,,,,,,,,1,cuban,0,0,1.6085,0,22,22,51,1,52,./stim/wavs/andalusian_mismatch_interrogative-partial-wh_Por-que-desayuna-muy-bien.wav,./stim/wavs/argentine_mismatch_interrogative-partial-wh_Por-que-desayuna-muy-bien.wav,./stim/wavs/castilian_mismatch_interrogative-partial-wh_Por-que-desayuna-muy-bien.wav,./stim/wavs/chilean_mismatch_interrogative-partial-wh_Por-que-desayuna-muy-bien.wav,./stim/wavs/cuban_mismatch_interrogative-partial-wh_Por-que-desayuna-muy-bien.wav,./stim/wavs/mexican_mismatch_interrogative-partial-wh_Por-que-desayuna-muy-bien.wav,./stim/wavs/peruvian_mismatch_interrogative-partial-wh_Por-que-desayuna-muy-bien.wav,./stim/wavs/puertorican_mismatch_interrogative-partial-wh_Por-que-desayuna-muy-bien.wav,,,,,,,,,,,,,,,,,,,,,,,,,,,,,,,,,,,,,,,,,,,,,,,,,,,,,,,,
,,,,,,,5f2cd45cd689ae1ec67c848c,605b45a4d25f287719a41696,605be137a886b49d3287d474,Spain,Midwest,13 or older,no,2021-03-24_21h04.05.835,empathy_intonation_perc,2020.2.10,MacIntel,60,,,,,,,,,,1,cuban,0,0,1.75229,0,23,23,26,1,27,./stim/wavs/andalusian_match_interrogative-total-yn_David-leia-el-libro.wav,./stim/wavs/argentine_match_interrogative-total-yn_David-leia-el-libro.wav,./stim/wavs/castilian_match_interrogative-total-yn_David-leia-el-libro.wav,./stim/wavs/chilean_match_interrogative-total-yn_David-leia-el-libro.wav,./stim/wavs/cuban_match_interrogative-total-yn_David-leia-el-libro.wav,./stim/wavs/mexican_match_interrogative-total-yn_David-leia-el-libro.wav,./stim/wavs/peruvian_match_interrogative-total-yn_David-leia-el-libro.wav,./stim/wavs/puertorican_match_interrogative-total-yn_David-leia-el-libro.wav,,,,,,,,,,,,,,,,,,,,,,,,,,,,,,,,,,,,,,,,,,,,,,,,,,,,,,,,
,,,,,,,5f2cd45cd689ae1ec67c848c,605b45a4d25f287719a41696,605be137a886b49d3287d474,Spain,Midwest,13 or older,no,2021-03-24_21h04.05.835,empathy_intonation_perc,2020.2.10,MacIntel,60,,,,,,,,,,0,chilean,1,0,2.05142,0,24,24,9,1,10,./stim/wavs/andalusian_match_declarative-narrow-focus_Daniel-iba-a-Bolivia.wav,./stim/wavs/argentine_match_declarative-narrow-focus_Daniel-iba-a-Bolivia.wav,./stim/wavs/castilian_match_declarative-narrow-focus_Daniel-iba-a-Bolivia.wav,./stim/wavs/chilean_match_declarative-narrow-focus_Daniel-iba-a-Bolivia.wav,./stim/wavs/cuban_match_declarative-narrow-focus_Daniel-iba-a-Bolivia.wav,./stim/wavs/mexican_match_declarative-narrow-focus_Daniel-iba-a-Bolivia.wav,./stim/wavs/peruvian_match_declarative-narrow-focus_Daniel-iba-a-Bolivia.wav,./stim/wavs/puertorican_match_declarative-narrow-focus_Daniel-iba-a-Bolivia.wav,,,,,,,,,,,,,,,,,,,,,,,,,,,,,,,,,,,,,,,,,,,,,,,,,,,,,,,,
,,,,,,,5f2cd45cd689ae1ec67c848c,605b45a4d25f287719a41696,605be137a886b49d3287d474,Spain,Midwest,13 or older,no,2021-03-24_21h04.05.835,empathy_intonation_perc,2020.2.10,MacIntel,60,,,,,,,,,,1,chilean,1,1,1.81071,0,25,25,61,1,62,./stim/wavs/andalusian_mismatch_interrogative-total-yn_Mi-madre-come-la-fruta.wav,./stim/wavs/argentine_mismatch_interrogative-total-yn_Mi-madre-come-la-fruta.wav,./stim/wavs/castilian_mismatch_interrogative-total-yn_Mi-madre-come-la-fruta.wav,./stim/wavs/chilean_mismatch_interrogative-total-yn_Mi-madre-come-la-fruta.wav,./stim/wavs/cuban_mismatch_interrogative-total-yn_Mi-madre-come-la-fruta.wav,./stim/wavs/mexican_mismatch_interrogative-total-yn_Mi-madre-come-la-fruta.wav,./stim/wavs/peruvian_mismatch_interrogative-total-yn_Mi-madre-come-la-fruta.wav,./stim/wavs/puertorican_mismatch_interrogative-total-yn_Mi-madre-come-la-fruta.wav,,,,,,,,,,,,,,,,,,,,,,,,,,,,,,,,,,,,,,,,,,,,,,,,,,,,,,,,
,,,,,,,5f2cd45cd689ae1ec67c848c,605b45a4d25f287719a41696,605be137a886b49d3287d474,Spain,Midwest,13 or older,no,2021-03-24_21h04.05.835,empathy_intonation_perc,2020.2.10,MacIntel,60,,,,,,,,,,1,castilian,1,1,1.68428,0,26,26,18,1,19,./stim/wavs/andalusian_match_interrogative-partial-wh_Cuando-lleva-el-abrigo.wav,./stim/wavs/argentine_match_interrogative-partial-wh_Cuando-lleva-el-abrigo.wav,./stim/wavs/castilian_match_interrogative-partial-wh_Cuando-lleva-el-abrigo.wav,./stim/wavs/chilean_match_interrogative-partial-wh_Cuando-lleva-el-abrigo.wav,./stim/wavs/cuban_match_interrogative-partial-wh_Cuando-lleva-el-abrigo.wav,./stim/wavs/mexican_match_interrogative-partial-wh_Cuando-lleva-el-abrigo.wav,./stim/wavs/peruvian_match_interrogative-partial-wh_Cuando-lleva-el-abrigo.wav,./stim/wavs/puertorican_match_interrogative-partial-wh_Cuando-lleva-el-abrigo.wav,,,,,,,,,,,,,,,,,,,,,,,,,,,,,,,,,,,,,,,,,,,,,,,,,,,,,,,,
,,,,,,,5f2cd45cd689ae1ec67c848c,605b45a4d25f287719a41696,605be137a886b49d3287d474,Spain,Midwest,13 or older,no,2021-03-24_21h04.05.835,empathy_intonation_perc,2020.2.10,MacIntel,60,,,,,,,,,,1,puertorican,1,1,1.64429,0,27,27,50,1,51,./stim/wavs/andalusian_mismatch_interrogative-partial-wh_Cuando-miraba-la-luna.wav,./stim/wavs/argentine_mismatch_interrogative-partial-wh_Cuando-miraba-la-luna.wav,./stim/wavs/castilian_mismatch_interrogative-partial-wh_Cuando-miraba-la-luna.wav,./stim/wavs/chilean_mismatch_interrogative-partial-wh_Cuando-miraba-la-luna.wav,./stim/wavs/cuban_mismatch_interrogative-partial-wh_Cuando-miraba-la-luna.wav,./stim/wavs/mexican_mismatch_interrogative-partial-wh_Cuando-miraba-la-luna.wav,./stim/wavs/peruvian_mismatch_interrogative-partial-wh_Cuando-miraba-la-luna.wav,./stim/wavs/puertorican_mismatch_interrogative-partial-wh_Cuando-miraba-la-luna.wav,,,,,,,,,,,,,,,,,,,,,,,,,,,,,,,,,,,,,,,,,,,,,,,,,,,,,,,,
,,,,,,,5f2cd45cd689ae1ec67c848c,605b45a4d25f287719a41696,605be137a886b49d3287d474,Spain,Midwest,13 or older,no,2021-03-24_21h04.05.835,empathy_intonation_perc,2020.2.10,MacIntel,60,,,,,,,,,,1,peruvian,1,1,1.483755,0,28,28,21,1,22,./stim/wavs/andalusian_match_interrogative-partial-wh_Por-que-ama-la-navidad.wav,./stim/wavs/argentine_match_interrogative-partial-wh_Por-que-ama-la-navidad.wav,./stim/wavs/castilian_match_interrogative-partial-wh_Por-que-ama-la-navidad.wav,./stim/wavs/chilean_match_interrogative-partial-wh_Por-que-ama-la-navidad.wav,./stim/wavs/cuban_match_interrogative-partial-wh_Por-que-ama-la-navidad.wav,./stim/wavs/mexican_match_interrogative-partial-wh_Por-que-ama-la-navidad.wav,./stim/wavs/peruvian_match_interrogative-partial-wh_Por-que-ama-la-navidad.wav,./stim/wavs/puertorican_match_interrogative-partial-wh_Por-que-ama-la-navidad.wav,,,,,,,,,,,,,,,,,,,,,,,,,,,,,,,,,,,,,,,,,,,,,,,,,,,,,,,,
,,,,,,,5f2cd45cd689ae1ec67c848c,605b45a4d25f287719a41696,605be137a886b49d3287d474,Spain,Midwest,13 or older,no,2021-03-24_21h04.05.835,empathy_intonation_perc,2020.2.10,MacIntel,60,,,,,,,,,,0,puertorican,0,1,1.58628,0,29,29,33,1,34,./stim/wavs/andalusian_mismatch_declarative-broad-focus_El-hombre-mira-la-luna.wav,./stim/wavs/argentine_mismatch_declarative-broad-focus_El-hombre-mira-la-luna.wav,./stim/wavs/castilian_mismatch_declarative-broad-focus_El-hombre-mira-la-luna.wav,./stim/wavs/chilean_mismatch_declarative-broad-focus_El-hombre-mira-la-luna.wav,./stim/wavs/cuban_mismatch_declarative-broad-focus_El-hombre-mira-la-luna.wav,./stim/wavs/mexican_mismatch_declarative-broad-focus_El-hombre-mira-la-luna.wav,./stim/wavs/peruvian_mismatch_declarative-broad-focus_El-hombre-mira-la-luna.wav,./stim/wavs/puertorican_mismatch_declarative-broad-focus_El-hombre-mira-la-luna.wav,,,,,,,,,,,,,,,,,,,,,,,,,,,,,,,,,,,,,,,,,,,,,,,,,,,,,,,,
,,,,,,,5f2cd45cd689ae1ec67c848c,605b45a4d25f287719a41696,605be137a886b49d3287d474,Spain,Midwest,13 or older,no,2021-03-24_21h04.05.835,empathy_intonation_perc,2020.2.10,MacIntel,60,,,,,,,,,,0,castilian,0,1,2.26922,0,30,30,32,1,33,./stim/wavs/andalusian_mismatch_declarative-broad-focus_El-bebe-comia-muy-bien.wav,./stim/wavs/argentine_mismatch_declarative-broad-focus_El-bebe-comia-muy-bien.wav,./stim/wavs/castilian_mismatch_declarative-broad-focus_El-bebe-comia-muy-bien.wav,./stim/wavs/chilean_mismatch_declarative-broad-focus_El-bebe-comia-muy-bien.wav,./stim/wavs/cuban_mismatch_declarative-broad-focus_El-bebe-comia-muy-bien.wav,./stim/wavs/mexican_mismatch_declarative-broad-focus_El-bebe-comia-muy-bien.wav,./stim/wavs/peruvian_mismatch_declarative-broad-focus_El-bebe-comia-muy-bien.wav,./stim/wavs/puertorican_mismatch_declarative-broad-focus_El-bebe-comia-muy-bien.wav,,,,,,,,,,,,,,,,,,,,,,,,,,,,,,,,,,,,,,,,,,,,,,,,,,,,,,,,
,,,,,,,5f2cd45cd689ae1ec67c848c,605b45a4d25f287719a41696,605be137a886b49d3287d474,Spain,Midwest,13 or older,no,2021-03-24_21h04.05.835,empathy_intonation_perc,2020.2.10,MacIntel,60,,,,,,,,,,0,mexican,0,1,1.90692,0,31,31,45,1,46,./stim/wavs/andalusian_mismatch_declarative-narrow-focus_Mi-madre-come-la-fruta.wav,./stim/wavs/argentine_mismatch_declarative-narrow-focus_Mi-madre-come-la-fruta.wav,./stim/wavs/castilian_mismatch_declarative-narrow-focus_Mi-madre-come-la-fruta.wav,./stim/wavs/chilean_mismatch_declarative-narrow-focus_Mi-madre-come-la-fruta.wav,./stim/wavs/cuban_mismatch_declarative-narrow-focus_Mi-madre-come-la-fruta.wav,./stim/wavs/mexican_mismatch_declarative-narrow-focus_Mi-madre-come-la-fruta.wav,./stim/wavs/peruvian_mismatch_declarative-narrow-focus_Mi-madre-come-la-fruta.wav,./stim/wavs/puertorican_mismatch_declarative-narrow-focus_Mi-madre-come-la-fruta.wav,,,,,,,,,,,,,,,,,,,,,,,,,,,,,,,,,,,,,,,,,,,,,,,,,,,,,,,,
,,,,,,,5f2cd45cd689ae1ec67c848c,605b45a4d25f287719a41696,605be137a886b49d3287d474,Spain,Midwest,13 or older,no,2021-03-24_21h04.05.835,empathy_intonation_perc,2020.2.10,MacIntel,60,,,,,,,,,,0,chilean,0,1,1.693995,0,32,32,3,1,4,./stim/wavs/andalusian_match_declarative-broad-focus_Emilio-ama-la-marcha.wav,./stim/wavs/argentine_match_declarative-broad-focus_Emilio-ama-la-marcha.wav,./stim/wavs/castilian_match_declarative-broad-focus_Emilio-ama-la-marcha.wav,./stim/wavs/chilean_match_declarative-broad-focus_Emilio-ama-la-marcha.wav,./stim/wavs/cuban_match_declarative-broad-focus_Emilio-ama-la-marcha.wav,./stim/wavs/mexican_match_declarative-broad-focus_Emilio-ama-la-marcha.wav,./stim/wavs/peruvian_match_declarative-broad-focus_Emilio-ama-la-marcha.wav,./stim/wavs/puertorican_match_declarative-broad-focus_Emilio-ama-la-marcha.wav,,,,,,,,,,,,,,,,,,,,,,,,,,,,,,,,,,,,,,,,,,,,,,,,,,,,,,,,
,,,,,,,5f2cd45cd689ae1ec67c848c,605b45a4d25f287719a41696,605be137a886b49d3287d474,Spain,Midwest,13 or older,no,2021-03-24_21h04.05.835,empathy_intonation_perc,2020.2.10,MacIntel,60,,,,,,,,,,1,puertorican,0,0,1.507415,0,33,33,53,1,54,./stim/wavs/andalusian_mismatch_interrogative-partial-wh_Por-que-oia-el-rio.wav,./stim/wavs/argentine_mismatch_interrogative-partial-wh_Por-que-oia-el-rio.wav,./stim/wavs/castilian_mismatch_interrogative-partial-wh_Por-que-oia-el-rio.wav,./stim/wavs/chilean_mismatch_interrogative-partial-wh_Por-que-oia-el-rio.wav,./stim/wavs/cuban_mismatch_interrogative-partial-wh_Por-que-oia-el-rio.wav,./stim/wavs/mexican_mismatch_interrogative-partial-wh_Por-que-oia-el-rio.wav,./stim/wavs/peruvian_mismatch_interrogative-partial-wh_Por-que-oia-el-rio.wav,./stim/wavs/puertorican_mismatch_interrogative-partial-wh_Por-que-oia-el-rio.wav,,,,,,,,,,,,,,,,,,,,,,,,,,,,,,,,,,,,,,,,,,,,,,,,,,,,,,,,
,,,,,,,5f2cd45cd689ae1ec67c848c,605b45a4d25f287719a41696,605be137a886b49d3287d474,Spain,Midwest,13 or older,no,2021-03-24_21h04.05.835,empathy_intonation_perc,2020.2.10,MacIntel,60,,,,,,,,,,1,puertorican,1,1,1.52618,0,34,34,19,1,20,./stim/wavs/andalusian_match_interrogative-partial-wh_Cuando-vendia-el-carro.wav,./stim/wavs/argentine_match_interrogative-partial-wh_Cuando-vendia-el-carro.wav,./stim/wavs/castilian_match_interrogative-partial-wh_Cuando-vendia-el-carro.wav,./stim/wavs/chilean_match_interrogative-partial-wh_Cuando-vendia-el-carro.wav,./stim/wavs/cuban_match_interrogative-partial-wh_Cuando-vendia-el-carro.wav,./stim/wavs/mexican_match_interrogative-partial-wh_Cuando-vendia-el-carro.wav,./stim/wavs/peruvian_match_interrogative-partial-wh_Cuando-vendia-el-carro.wav,./stim/wavs/puertorican_match_interrogative-partial-wh_Cuando-vendia-el-carro.wav,,,,,,,,,,,,,,,,,,,,,,,,,,,,,,,,,,,,,,,,,,,,,,,,,,,,,,,,
,,,,,,,5f2cd45cd689ae1ec67c848c,605b45a4d25f287719a41696,605be137a886b49d3287d474,Spain,Midwest,13 or older,no,2021-03-24_21h04.05.835,empathy_intonation_perc,2020.2.10,MacIntel,60,,,,,,,,,,0,mexican,1,0,1.368165,0,35,35,8,1,9,./stim/wavs/andalusian_match_declarative-narrow-focus_Ana-lleva-el-abrigo.wav,./stim/wavs/argentine_match_declarative-narrow-focus_Ana-lleva-el-abrigo.wav,./stim/wavs/castilian_match_declarative-narrow-focus_Ana-lleva-el-abrigo.wav,./stim/wavs/chilean_match_declarative-narrow-focus_Ana-lleva-el-abrigo.wav,./stim/wavs/cuban_match_declarative-narrow-focus_Ana-lleva-el-abrigo.wav,./stim/wavs/mexican_match_declarative-narrow-focus_Ana-lleva-el-abrigo.wav,./stim/wavs/peruvian_match_declarative-narrow-focus_Ana-lleva-el-abrigo.wav,./stim/wavs/puertorican_match_declarative-narrow-focus_Ana-lleva-el-abrigo.wav,,,,,,,,,,,,,,,,,,,,,,,,,,,,,,,,,,,,,,,,,,,,,,,,,,,,,,,,
,,,,,,,5f2cd45cd689ae1ec67c848c,605b45a4d25f287719a41696,605be137a886b49d3287d474,Spain,Midwest,13 or older,no,2021-03-24_21h04.05.835,empathy_intonation_perc,2020.2.10,MacIntel,60,,,,,,,,,,0,argentine,0,1,1.58165,0,36,36,46,1,47,./stim/wavs/andalusian_mismatch_declarative-narrow-focus_Mi-novio-viene-del-lago.wav,./stim/wavs/argentine_mismatch_declarative-narrow-focus_Mi-novio-viene-del-lago.wav,./stim/wavs/castilian_mismatch_declarative-narrow-focus_Mi-novio-viene-del-lago.wav,./stim/wavs/chilean_mismatch_declarative-narrow-focus_Mi-novio-viene-del-lago.wav,./stim/wavs/cuban_mismatch_declarative-narrow-focus_Mi-novio-viene-del-lago.wav,./stim/wavs/mexican_mismatch_declarative-narrow-focus_Mi-novio-viene-del-lago.wav,./stim/wavs/peruvian_mismatch_declarative-narrow-focus_Mi-novio-viene-del-lago.wav,./stim/wavs/puertorican_mismatch_declarative-narrow-focus_Mi-novio-viene-del-lago.wav,,,,,,,,,,,,,,,,,,,,,,,,,,,,,,,,,,,,,,,,,,,,,,,,,,,,,,,,
,,,,,,,5f2cd45cd689ae1ec67c848c,605b45a4d25f287719a41696,605be137a886b49d3287d474,Spain,Midwest,13 or older,no,2021-03-24_21h04.05.835,empathy_intonation_perc,2020.2.10,MacIntel,60,,,,,,,,,,0,puertorican,0,1,1.496595,0,37,37,5,1,6,./stim/wavs/andalusian_match_declarative-broad-focus_Maria-bebe-el-vino.wav,./stim/wavs/argentine_match_declarative-broad-focus_Maria-bebe-el-vino.wav,./stim/wavs/castilian_match_declarative-broad-focus_Maria-bebe-el-vino.wav,./stim/wavs/chilean_match_declarative-broad-focus_Maria-bebe-el-vino.wav,./stim/wavs/cuban_match_declarative-broad-focus_Maria-bebe-el-vino.wav,./stim/wavs/mexican_match_declarative-broad-focus_Maria-bebe-el-vino.wav,./stim/wavs/peruvian_match_declarative-broad-focus_Maria-bebe-el-vino.wav,./stim/wavs/puertorican_match_declarative-broad-focus_Maria-bebe-el-vino.wav,,,,,,,,,,,,,,,,,,,,,,,,,,,,,,,,,,,,,,,,,,,,,,,,,,,,,,,,
,,,,,,,5f2cd45cd689ae1ec67c848c,605b45a4d25f287719a41696,605be137a886b49d3287d474,Spain,Midwest,13 or older,no,2021-03-24_21h04.05.835,empathy_intonation_perc,2020.2.10,MacIntel,60,,,,,,,,,,0,cuban,0,1,1.627295,0,38,38,2,1,3,./stim/wavs/andalusian_match_declarative-broad-focus_David-leia-el-libro.wav,./stim/wavs/argentine_match_declarative-broad-focus_David-leia-el-libro.wav,./stim/wavs/castilian_match_declarative-broad-focus_David-leia-el-libro.wav,./stim/wavs/chilean_match_declarative-broad-focus_David-leia-el-libro.wav,./stim/wavs/cuban_match_declarative-broad-focus_David-leia-el-libro.wav,./stim/wavs/mexican_match_declarative-broad-focus_David-leia-el-libro.wav,./stim/wavs/peruvian_match_declarative-broad-focus_David-leia-el-libro.wav,./stim/wavs/puertorican_match_declarative-broad-focus_David-leia-el-libro.wav,,,,,,,,,,,,,,,,,,,,,,,,,,,,,,,,,,,,,,,,,,,,,,,,,,,,,,,,
,,,,,,,5f2cd45cd689ae1ec67c848c,605b45a4d25f287719a41696,605be137a886b49d3287d474,Spain,Midwest,13 or older,no,2021-03-24_21h04.05.835,empathy_intonation_perc,2020.2.10,MacIntel,60,,,,,,,,,,1,mexican,1,1,1.34429,0,39,39,22,1,23,./stim/wavs/andalusian_match_interrogative-partial-wh_Por-que-hablaba-del-agua.wav,./stim/wavs/argentine_match_interrogative-partial-wh_Por-que-hablaba-del-agua.wav,./stim/wavs/castilian_match_interrogative-partial-wh_Por-que-hablaba-del-agua.wav,./stim/wavs/chilean_match_interrogative-partial-wh_Por-que-hablaba-del-agua.wav,./stim/wavs/cuban_match_interrogative-partial-wh_Por-que-hablaba-del-agua.wav,./stim/wavs/mexican_match_interrogative-partial-wh_Por-que-hablaba-del-agua.wav,./stim/wavs/peruvian_match_interrogative-partial-wh_Por-que-hablaba-del-agua.wav,./stim/wavs/puertorican_match_interrogative-partial-wh_Por-que-hablaba-del-agua.wav,,,,,,,,,,,,,,,,,,,,,,,,,,,,,,,,,,,,,,,,,,,,,,,,,,,,,,,,
,,,,,,,5f2cd45cd689ae1ec67c848c,605b45a4d25f287719a41696,605be137a886b49d3287d474,Spain,Midwest,13 or older,no,2021-03-24_21h04.05.835,empathy_intonation_perc,2020.2.10,MacIntel,60,,,,,,,,,,1,mexican,0,0,2.007355,0,40,40,17,1,18,./stim/wavs/andalusian_match_interrogative-partial-wh_Cuando-leia-el-libro.wav,./stim/wavs/argentine_match_interrogative-partial-wh_Cuando-leia-el-libro.wav,./stim/wavs/castilian_match_interrogative-partial-wh_Cuando-leia-el-libro.wav,./stim/wavs/chilean_match_interrogative-partial-wh_Cuando-leia-el-libro.wav,./stim/wavs/cuban_match_interrogative-partial-wh_Cuando-leia-el-libro.wav,./stim/wavs/mexican_match_interrogative-partial-wh_Cuando-leia-el-libro.wav,./stim/wavs/peruvian_match_interrogative-partial-wh_Cuando-leia-el-libro.wav,./stim/wavs/puertorican_match_interrogative-partial-wh_Cuando-leia-el-libro.wav,,,,,,,,,,,,,,,,,,,,,,,,,,,,,,,,,,,,,,,,,,,,,,,,,,,,,,,,
,,,,,,,5f2cd45cd689ae1ec67c848c,605b45a4d25f287719a41696,605be137a886b49d3287d474,Spain,Midwest,13 or older,no,2021-03-24_21h04.05.835,empathy_intonation_perc,2020.2.10,MacIntel,60,,,,,,,,,,1,puertorican,0,0,1.35319,0,41,41,58,1,59,./stim/wavs/andalusian_mismatch_interrogative-total-yn_El-nino-oye-el-rio.wav,./stim/wavs/argentine_mismatch_interrogative-total-yn_El-nino-oye-el-rio.wav,./stim/wavs/castilian_mismatch_interrogative-total-yn_El-nino-oye-el-rio.wav,./stim/wavs/chilean_mismatch_interrogative-total-yn_El-nino-oye-el-rio.wav,./stim/wavs/cuban_mismatch_interrogative-total-yn_El-nino-oye-el-rio.wav,./stim/wavs/mexican_mismatch_interrogative-total-yn_El-nino-oye-el-rio.wav,./stim/wavs/peruvian_mismatch_interrogative-total-yn_El-nino-oye-el-rio.wav,./stim/wavs/puertorican_mismatch_interrogative-total-yn_El-nino-oye-el-rio.wav,,,,,,,,,,,,,,,,,,,,,,,,,,,,,,,,,,,,,,,,,,,,,,,,,,,,,,,,
,,,,,,,5f2cd45cd689ae1ec67c848c,605b45a4d25f287719a41696,605be137a886b49d3287d474,Spain,Midwest,13 or older,no,2021-03-24_21h04.05.835,empathy_intonation_perc,2020.2.10,MacIntel,60,,,,,,,,,,0,andalusian,0,1,1.48225,0,42,42,4,1,5,./stim/wavs/andalusian_match_declarative-broad-focus_Manuela-vende-el-carro.wav,./stim/wavs/argentine_match_declarative-broad-focus_Manuela-vende-el-carro.wav,./stim/wavs/castilian_match_declarative-broad-focus_Manuela-vende-el-carro.wav,./stim/wavs/chilean_match_declarative-broad-focus_Manuela-vende-el-carro.wav,./stim/wavs/cuban_match_declarative-broad-focus_Manuela-vende-el-carro.wav,./stim/wavs/mexican_match_declarative-broad-focus_Manuela-vende-el-carro.wav,./stim/wavs/peruvian_match_declarative-broad-focus_Manuela-vende-el-carro.wav,./stim/wavs/puertorican_match_declarative-broad-focus_Manuela-vende-el-carro.wav,,,,,,,,,,,,,,,,,,,,,,,,,,,,,,,,,,,,,,,,,,,,,,,,,,,,,,,,
,,,,,,,5f2cd45cd689ae1ec67c848c,605b45a4d25f287719a41696,605be137a886b49d3287d474,Spain,Midwest,13 or older,no,2021-03-24_21h04.05.835,empathy_intonation_perc,2020.2.10,MacIntel,60,,,,,,,,,,0,cuban,1,0,1.27749,0,43,43,42,1,43,./stim/wavs/andalusian_mismatch_declarative-narrow-focus_El-nino-oye-el-rio.wav,./stim/wavs/argentine_mismatch_declarative-narrow-focus_El-nino-oye-el-rio.wav,./stim/wavs/castilian_mismatch_declarative-narrow-focus_El-nino-oye-el-rio.wav,./stim/wavs/chilean_mismatch_declarative-narrow-focus_El-nino-oye-el-rio.wav,./stim/wavs/cuban_mismatch_declarative-narrow-focus_El-nino-oye-el-rio.wav,./stim/wavs/mexican_mismatch_declarative-narrow-focus_El-nino-oye-el-rio.wav,./stim/wavs/peruvian_mismatch_declarative-narrow-focus_El-nino-oye-el-rio.wav,./stim/wavs/puertorican_mismatch_declarative-narrow-focus_El-nino-oye-el-rio.wav,,,,,,,,,,,,,,,,,,,,,,,,,,,,,,,,,,,,,,,,,,,,,,,,,,,,,,,,
,,,,,,,5f2cd45cd689ae1ec67c848c,605b45a4d25f287719a41696,605be137a886b49d3287d474,Spain,Midwest,13 or older,no,2021-03-24_21h04.05.835,empathy_intonation_perc,2020.2.10,MacIntel,60,,,,,,,,,,1,argentine,0,0,1.635645,0,44,44,60,1,61,./stim/wavs/andalusian_mismatch_interrogative-total-yn_La-nina-lava-el-plato.wav,./stim/wavs/argentine_mismatch_interrogative-total-yn_La-nina-lava-el-plato.wav,./stim/wavs/castilian_mismatch_interrogative-total-yn_La-nina-lava-el-plato.wav,./stim/wavs/chilean_mismatch_interrogative-total-yn_La-nina-lava-el-plato.wav,./stim/wavs/cuban_mismatch_interrogative-total-yn_La-nina-lava-el-plato.wav,./stim/wavs/mexican_mismatch_interrogative-total-yn_La-nina-lava-el-plato.wav,./stim/wavs/peruvian_mismatch_interrogative-total-yn_La-nina-lava-el-plato.wav,./stim/wavs/puertorican_mismatch_interrogative-total-yn_La-nina-lava-el-plato.wav,,,,,,,,,,,,,,,,,,,,,,,,,,,,,,,,,,,,,,,,,,,,,,,,,,,,,,,,
,,,,,,,5f2cd45cd689ae1ec67c848c,605b45a4d25f287719a41696,605be137a886b49d3287d474,Spain,Midwest,13 or older,no,2021-03-24_21h04.05.835,empathy_intonation_perc,2020.2.10,MacIntel,60,,,,,,,,,,0,argentine,1,0,1.29429,0,45,45,7,1,8,./stim/wavs/andalusian_match_declarative-broad-focus_Marta-abre-el-regalo.wav,./stim/wavs/argentine_match_declarative-broad-focus_Marta-abre-el-regalo.wav,./stim/wavs/castilian_match_declarative-broad-focus_Marta-abre-el-regalo.wav,./stim/wavs/chilean_match_declarative-broad-focus_Marta-abre-el-regalo.wav,./stim/wavs/cuban_match_declarative-broad-focus_Marta-abre-el-regalo.wav,./stim/wavs/mexican_match_declarative-broad-focus_Marta-abre-el-regalo.wav,./stim/wavs/peruvian_match_declarative-broad-focus_Marta-abre-el-regalo.wav,./stim/wavs/puertorican_match_declarative-broad-focus_Marta-abre-el-regalo.wav,,,,,,,,,,,,,,,,,,,,,,,,,,,,,,,,,,,,,,,,,,,,,,,,,,,,,,,,
,,,,,,,5f2cd45cd689ae1ec67c848c,605b45a4d25f287719a41696,605be137a886b49d3287d474,Spain,Midwest,13 or older,no,2021-03-24_21h04.05.835,empathy_intonation_perc,2020.2.10,MacIntel,60,,,,,,,,,,0,andalusian,1,0,1.54428,0,46,46,35,1,36,./stim/wavs/andalusian_mismatch_declarative-broad-focus_La-maestra-vive-en-Paris.wav,./stim/wavs/argentine_mismatch_declarative-broad-focus_La-maestra-vive-en-Paris.wav,./stim/wavs/castilian_mismatch_declarative-broad-focus_La-maestra-vive-en-Paris.wav,./stim/wavs/chilean_mismatch_declarative-broad-focus_La-maestra-vive-en-Paris.wav,./stim/wavs/cuban_mismatch_declarative-broad-focus_La-maestra-vive-en-Paris.wav,./stim/wavs/mexican_mismatch_declarative-broad-focus_La-maestra-vive-en-Paris.wav,./stim/wavs/peruvian_mismatch_declarative-broad-focus_La-maestra-vive-en-Paris.wav,./stim/wavs/puertorican_mismatch_declarative-broad-focus_La-maestra-vive-en-Paris.wav,,,,,,,,,,,,,,,,,,,,,,,,,,,,,,,,,,,,,,,,,,,,,,,,,,,,,,,,
,,,,,,,5f2cd45cd689ae1ec67c848c,605b45a4d25f287719a41696,605be137a886b49d3287d474,Spain,Midwest,13 or older,no,2021-03-24_21h04.05.835,empathy_intonation_perc,2020.2.10,MacIntel,60,,,,,,,,,,1,mexican,0,0,1.425255,0,47,47,62,1,63,./stim/wavs/andalusian_mismatch_interrogative-total-yn_Mi-novio-viene-del-lago.wav,./stim/wavs/argentine_mismatch_interrogative-total-yn_Mi-novio-viene-del-lago.wav,./stim/wavs/castilian_mismatch_interrogative-total-yn_Mi-novio-viene-del-lago.wav,./stim/wavs/chilean_mismatch_interrogative-total-yn_Mi-novio-viene-del-lago.wav,./stim/wavs/cuban_mismatch_interrogative-total-yn_Mi-novio-viene-del-lago.wav,./stim/wavs/mexican_mismatch_interrogative-total-yn_Mi-novio-viene-del-lago.wav,./stim/wavs/peruvian_mismatch_interrogative-total-yn_Mi-novio-viene-del-lago.wav,./stim/wavs/puertorican_mismatch_interrogative-total-yn_Mi-novio-viene-del-lago.wav,,,,,,,,,,,,,,,,,,,,,,,,,,,,,,,,,,,,,,,,,,,,,,,,,,,,,,,,
,,,,,,,5f2cd45cd689ae1ec67c848c,605b45a4d25f287719a41696,605be137a886b49d3287d474,Spain,Midwest,13 or older,no,2021-03-24_21h04.05.835,empathy_intonation_perc,2020.2.10,MacIntel,60,,,,,,,,,,0,andalusian,0,1,1.38614,0,48,48,0,1,1,./stim/wavs/andalusian_match_declarative-broad-focus_Ana-lleva-el-abrigo.wav,./stim/wavs/argentine_match_declarative-broad-focus_Ana-lleva-el-abrigo.wav,./stim/wavs/castilian_match_declarative-broad-focus_Ana-lleva-el-abrigo.wav,./stim/wavs/chilean_match_declarative-broad-focus_Ana-lleva-el-abrigo.wav,./stim/wavs/cuban_match_declarative-broad-focus_Ana-lleva-el-abrigo.wav,./stim/wavs/mexican_match_declarative-broad-focus_Ana-lleva-el-abrigo.wav,./stim/wavs/peruvian_match_declarative-broad-focus_Ana-lleva-el-abrigo.wav,./stim/wavs/puertorican_match_declarative-broad-focus_Ana-lleva-el-abrigo.wav,,,,,,,,,,,,,,,,,,,,,,,,,,,,,,,,,,,,,,,,,,,,,,,,,,,,,,,,
,,,,,,,5f2cd45cd689ae1ec67c848c,605b45a4d25f287719a41696,605be137a886b49d3287d474,Spain,Midwest,13 or older,no,2021-03-24_21h04.05.835,empathy_intonation_perc,2020.2.10,MacIntel,60,,,,,,,,,,0,castilian,1,0,1.526635,0,49,49,10,1,11,./stim/wavs/andalusian_match_declarative-narrow-focus_David-leia-el-libro.wav,./stim/wavs/argentine_match_declarative-narrow-focus_David-leia-el-libro.wav,./stim/wavs/castilian_match_declarative-narrow-focus_David-leia-el-libro.wav,./stim/wavs/chilean_match_declarative-narrow-focus_David-leia-el-libro.wav,./stim/wavs/cuban_match_declarative-narrow-focus_David-leia-el-libro.wav,./stim/wavs/mexican_match_declarative-narrow-focus_David-leia-el-libro.wav,./stim/wavs/peruvian_match_declarative-narrow-focus_David-leia-el-libro.wav,./stim/wavs/puertorican_match_declarative-narrow-focus_David-leia-el-libro.wav,,,,,,,,,,,,,,,,,,,,,,,,,,,,,,,,,,,,,,,,,,,,,,,,,,,,,,,,
,,,,,,,5f2cd45cd689ae1ec67c848c,605b45a4d25f287719a41696,605be137a886b49d3287d474,Spain,Midwest,13 or older,no,2021-03-24_21h04.05.835,empathy_intonation_perc,2020.2.10,MacIntel,60,,,,,,,,,,0,peruvian,0,1,1.65753,0,50,50,6,1,7,./stim/wavs/andalusian_match_declarative-broad-focus_Mariano-habla-del-tiempo.wav,./stim/wavs/argentine_match_declarative-broad-focus_Mariano-habla-del-tiempo.wav,./stim/wavs/castilian_match_declarative-broad-focus_Mariano-habla-del-tiempo.wav,./stim/wavs/chilean_match_declarative-broad-focus_Mariano-habla-del-tiempo.wav,./stim/wavs/cuban_match_declarative-broad-focus_Mariano-habla-del-tiempo.wav,./stim/wavs/mexican_match_declarative-broad-focus_Mariano-habla-del-tiempo.wav,./stim/wavs/peruvian_match_declarative-broad-focus_Mariano-habla-del-tiempo.wav,./stim/wavs/puertorican_match_declarative-broad-focus_Mariano-habla-del-tiempo.wav,,,,,,,,,,,,,,,,,,,,,,,,,,,,,,,,,,,,,,,,,,,,,,,,,,,,,,,,
,,,,,,,5f2cd45cd689ae1ec67c848c,605b45a4d25f287719a41696,605be137a886b49d3287d474,Spain,Midwest,13 or older,no,2021-03-24_21h04.05.835,empathy_intonation_perc,2020.2.10,MacIntel,60,,,,,,,,,,1,cuban,0,0,1.327735,0,51,51,54,1,55,./stim/wavs/andalusian_mismatch_interrogative-partial-wh_Por-que-venia-del-lago.wav,./stim/wavs/argentine_mismatch_interrogative-partial-wh_Por-que-venia-del-lago.wav,./stim/wavs/castilian_mismatch_interrogative-partial-wh_Por-que-venia-del-lago.wav,./stim/wavs/chilean_mismatch_interrogative-partial-wh_Por-que-venia-del-lago.wav,./stim/wavs/cuban_mismatch_interrogative-partial-wh_Por-que-venia-del-lago.wav,./stim/wavs/mexican_mismatch_interrogative-partial-wh_Por-que-venia-del-lago.wav,./stim/wavs/peruvian_mismatch_interrogative-partial-wh_Por-que-venia-del-lago.wav,./stim/wavs/puertorican_mismatch_interrogative-partial-wh_Por-que-venia-del-lago.wav,,,,,,,,,,,,,,,,,,,,,,,,,,,,,,,,,,,,,,,,,,,,,,,,,,,,,,,,
,,,,,,,5f2cd45cd689ae1ec67c848c,605b45a4d25f287719a41696,605be137a886b49d3287d474,Spain,Midwest,13 or older,no,2021-03-24_21h04.05.835,empathy_intonation_perc,2020.2.10,MacIntel,60,,,,,,,,,,1,puertorican,1,1,1.53455,0,52,52,30,1,31,./stim/wavs/andalusian_match_interrogative-total-yn_Mariano-habla-del-tiempo.wav,./stim/wavs/argentine_match_interrogative-total-yn_Mariano-habla-del-tiempo.wav,./stim/wavs/castilian_match_interrogative-total-yn_Mariano-habla-del-tiempo.wav,./stim/wavs/chilean_match_interrogative-total-yn_Mariano-habla-del-tiempo.wav,./stim/wavs/cuban_match_interrogative-total-yn_Mariano-habla-del-tiempo.wav,./stim/wavs/mexican_match_interrogative-total-yn_Mariano-habla-del-tiempo.wav,./stim/wavs/peruvian_match_interrogative-total-yn_Mariano-habla-del-tiempo.wav,./stim/wavs/puertorican_match_interrogative-total-yn_Mariano-habla-del-tiempo.wav,,,,,,,,,,,,,,,,,,,,,,,,,,,,,,,,,,,,,,,,,,,,,,,,,,,,,,,,
,,,,,,,5f2cd45cd689ae1ec67c848c,605b45a4d25f287719a41696,605be137a886b49d3287d474,Spain,Midwest,13 or older,no,2021-03-24_21h04.05.835,empathy_intonation_perc,2020.2.10,MacIntel,60,,,,,,,,,,1,mexican,0,0,1.411145,0,53,53,25,1,26,./stim/wavs/andalusian_match_interrogative-total-yn_Daniel-iba-a-Bolivia.wav,./stim/wavs/argentine_match_interrogative-total-yn_Daniel-iba-a-Bolivia.wav,./stim/wavs/castilian_match_interrogative-total-yn_Daniel-iba-a-Bolivia.wav,./stim/wavs/chilean_match_interrogative-total-yn_Daniel-iba-a-Bolivia.wav,./stim/wavs/cuban_match_interrogative-total-yn_Daniel-iba-a-Bolivia.wav,./stim/wavs/mexican_match_interrogative-total-yn_Daniel-iba-a-Bolivia.wav,./stim/wavs/peruvian_match_interrogative-total-yn_Daniel-iba-a-Bolivia.wav,./stim/wavs/puertorican_match_interrogative-total-yn_Daniel-iba-a-Bolivia.wav,,,,,,,,,,,,,,,,,,,,,,,,,,,,,,,,,,,,,,,,,,,,,,,,,,,,,,,,
,,,,,,,5f2cd45cd689ae1ec67c848c,605b45a4d25f287719a41696,605be137a886b49d3287d474,Spain,Midwest,13 or older,no,2021-03-24_21h04.05.835,empathy_intonation_perc,2020.2.10,MacIntel,60,,,,,,,,,,1,argentine,0,0,1.620335,0,54,54,59,1,60,./stim/wavs/andalusian_mismatch_interrogative-total-yn_La-maestra-vive-en-Paris.wav,./stim/wavs/argentine_mismatch_interrogative-total-yn_La-maestra-vive-en-Paris.wav,./stim/wavs/castilian_mismatch_interrogative-total-yn_La-maestra-vive-en-Paris.wav,./stim/wavs/chilean_mismatch_interrogative-total-yn_La-maestra-vive-en-Paris.wav,./stim/wavs/cuban_mismatch_interrogative-total-yn_La-maestra-vive-en-Paris.wav,./stim/wavs/mexican_mismatch_interrogative-total-yn_La-maestra-vive-en-Paris.wav,./stim/wavs/peruvian_mismatch_interrogative-total-yn_La-maestra-vive-en-Paris.wav,./stim/wavs/puertorican_mismatch_interrogative-total-yn_La-maestra-vive-en-Paris.wav,,,,,,,,,,,,,,,,,,,,,,,,,,,,,,,,,,,,,,,,,,,,,,,,,,,,,,,,
,,,,,,,5f2cd45cd689ae1ec67c848c,605b45a4d25f287719a41696,605be137a886b49d3287d474,Spain,Midwest,13 or older,no,2021-03-24_21h04.05.835,empathy_intonation_perc,2020.2.10,MacIntel,60,,,,,,,,,,0,chilean,1,0,1.15137,0,55,55,13,1,14,./stim/wavs/andalusian_match_declarative-narrow-focus_Maria-bebe-el-vino.wav,./stim/wavs/argentine_match_declarative-narrow-focus_Maria-bebe-el-vino.wav,./stim/wavs/castilian_match_declarative-narrow-focus_Maria-bebe-el-vino.wav,./stim/wavs/chilean_match_declarative-narrow-focus_Maria-bebe-el-vino.wav,./stim/wavs/cuban_match_declarative-narrow-focus_Maria-bebe-el-vino.wav,./stim/wavs/mexican_match_declarative-narrow-focus_Maria-bebe-el-vino.wav,./stim/wavs/peruvian_match_declarative-narrow-focus_Maria-bebe-el-vino.wav,./stim/wavs/puertorican_match_declarative-narrow-focus_Maria-bebe-el-vino.wav,,,,,,,,,,,,,,,,,,,,,,,,,,,,,,,,,,,,,,,,,,,,,,,,,,,,,,,,
,,,,,,,5f2cd45cd689ae1ec67c848c,605b45a4d25f287719a41696,605be137a886b49d3287d474,Spain,Midwest,13 or older,no,2021-03-24_21h04.05.835,empathy_intonation_perc,2020.2.10,MacIntel,60,,,,,,,,,,0,puertorican,0,1,1.083135,0,56,56,14,1,15,./stim/wavs/andalusian_match_declarative-narrow-focus_Mariano-habla-del-tiempo.wav,./stim/wavs/argentine_match_declarative-narrow-focus_Mariano-habla-del-tiempo.wav,./stim/wavs/castilian_match_declarative-narrow-focus_Mariano-habla-del-tiempo.wav,./stim/wavs/chilean_match_declarative-narrow-focus_Mariano-habla-del-tiempo.wav,./stim/wavs/cuban_match_declarative-narrow-focus_Mariano-habla-del-tiempo.wav,./stim/wavs/mexican_match_declarative-narrow-focus_Mariano-habla-del-tiempo.wav,./stim/wavs/peruvian_match_declarative-narrow-focus_Mariano-habla-del-tiempo.wav,./stim/wavs/puertorican_match_declarative-narrow-focus_Mariano-habla-del-tiempo.wav,,,,,,,,,,,,,,,,,,,,,,,,,,,,,,,,,,,,,,,,,,,,,,,,,,,,,,,,
,,,,,,,5f2cd45cd689ae1ec67c848c,605b45a4d25f287719a41696,605be137a886b49d3287d474,Spain,Midwest,13 or older,no,2021-03-24_21h04.05.835,empathy_intonation_perc,2020.2.10,MacIntel,60,,,,,,,,,,1,andalusian,0,0,1.566055,0,57,57,52,1,53,./stim/wavs/andalusian_mismatch_interrogative-partial-wh_Por-que-odiaba-la-lluvia.wav,./stim/wavs/argentine_mismatch_interrogative-partial-wh_Por-que-odiaba-la-lluvia.wav,./stim/wavs/castilian_mismatch_interrogative-partial-wh_Por-que-odiaba-la-lluvia.wav,./stim/wavs/chilean_mismatch_interrogative-partial-wh_Por-que-odiaba-la-lluvia.wav,./stim/wavs/cuban_mismatch_interrogative-partial-wh_Por-que-odiaba-la-lluvia.wav,./stim/wavs/mexican_mismatch_interrogative-partial-wh_Por-que-odiaba-la-lluvia.wav,./stim/wavs/peruvian_mismatch_interrogative-partial-wh_Por-que-odiaba-la-lluvia.wav,./stim/wavs/puertorican_mismatch_interrogative-partial-wh_Por-que-odiaba-la-lluvia.wav,,,,,,,,,,,,,,,,,,,,,,,,,,,,,,,,,,,,,,,,,,,,,,,,,,,,,,,,
,,,,,,,5f2cd45cd689ae1ec67c848c,605b45a4d25f287719a41696,605be137a886b49d3287d474,Spain,Midwest,13 or older,no,2021-03-24_21h04.05.835,empathy_intonation_perc,2020.2.10,MacIntel,60,,,,,,,,,,0,peruvian,1,0,1.682815,0,58,58,37,1,38,./stim/wavs/andalusian_mismatch_declarative-broad-focus_Mi-madre-come-la-fruta.wav,./stim/wavs/argentine_mismatch_declarative-broad-focus_Mi-madre-come-la-fruta.wav,./stim/wavs/castilian_mismatch_declarative-broad-focus_Mi-madre-come-la-fruta.wav,./stim/wavs/chilean_mismatch_declarative-broad-focus_Mi-madre-come-la-fruta.wav,./stim/wavs/cuban_mismatch_declarative-broad-focus_Mi-madre-come-la-fruta.wav,./stim/wavs/mexican_mismatch_declarative-broad-focus_Mi-madre-come-la-fruta.wav,./stim/wavs/peruvian_mismatch_declarative-broad-focus_Mi-madre-come-la-fruta.wav,./stim/wavs/puertorican_mismatch_declarative-broad-focus_Mi-madre-come-la-fruta.wav,,,,,,,,,,,,,,,,,,,,,,,,,,,,,,,,,,,,,,,,,,,,,,,,,,,,,,,,
,,,,,,,5f2cd45cd689ae1ec67c848c,605b45a4d25f287719a41696,605be137a886b49d3287d474,Spain,Midwest,13 or older,no,2021-03-24_21h04.05.835,empathy_intonation_perc,2020.2.10,MacIntel,60,,,,,,,,,,0,puertorican,1,0,1.4777,0,59,59,12,1,13,./stim/wavs/andalusian_match_declarative-narrow-focus_Manuela-vende-el-carro.wav,./stim/wavs/argentine_match_declarative-narrow-focus_Manuela-vende-el-carro.wav,./stim/wavs/castilian_match_declarative-narrow-focus_Manuela-vende-el-carro.wav,./stim/wavs/chilean_match_declarative-narrow-focus_Manuela-vende-el-carro.wav,./stim/wavs/cuban_match_declarative-narrow-focus_Manuela-vende-el-carro.wav,./stim/wavs/mexican_match_declarative-narrow-focus_Manuela-vende-el-carro.wav,./stim/wavs/peruvian_match_declarative-narrow-focus_Manuela-vende-el-carro.wav,./stim/wavs/puertorican_match_declarative-narrow-focus_Manuela-vende-el-carro.wav,,,,,,,,,,,,,,,,,,,,,,,,,,,,,,,,,,,,,,,,,,,,,,,,,,,,,,,,
,,,,,,,5f2cd45cd689ae1ec67c848c,605b45a4d25f287719a41696,605be137a886b49d3287d474,Spain,Midwest,13 or older,no,2021-03-24_21h04.05.835,empathy_intonation_perc,2020.2.10,MacIntel,60,,,,,,,,,,1,argentine,1,1,1.591065,0,60,60,16,1,17,./stim/wavs/andalusian_match_interrogative-partial-wh_Cuando-bebia-el-vino.wav,./stim/wavs/argentine_match_interrogative-partial-wh_Cuando-bebia-el-vino.wav,./stim/wavs/castilian_match_interrogative-partial-wh_Cuando-bebia-el-vino.wav,./stim/wavs/chilean_match_interrogative-partial-wh_Cuando-bebia-el-vino.wav,./stim/wavs/cuban_match_interrogative-partial-wh_Cuando-bebia-el-vino.wav,./stim/wavs/mexican_match_interrogative-partial-wh_Cuando-bebia-el-vino.wav,./stim/wavs/peruvian_match_interrogative-partial-wh_Cuando-bebia-el-vino.wav,./stim/wavs/puertorican_match_interrogative-partial-wh_Cuando-bebia-el-vino.wav,,,,,,,,,,,,,,,,,,,,,,,,,,,,,,,,,,,,,,,,,,,,,,,,,,,,,,,,
,,,,,,,5f2cd45cd689ae1ec67c848c,605b45a4d25f287719a41696,605be137a886b49d3287d474,Spain,Midwest,13 or older,no,2021-03-24_21h04.05.835,empathy_intonation_perc,2020.2.10,MacIntel,60,,,,,,,,,,0,castilian,0,1,1.567975,0,61,61,47,1,48,./stim/wavs/andalusian_mismatch_declarative-narrow-focus_Mi-tia-odia-la-lluvia.wav,./stim/wavs/argentine_mismatch_declarative-narrow-focus_Mi-tia-odia-la-lluvia.wav,./stim/wavs/castilian_mismatch_declarative-narrow-focus_Mi-tia-odia-la-lluvia.wav,./stim/wavs/chilean_mismatch_declarative-narrow-focus_Mi-tia-odia-la-lluvia.wav,./stim/wavs/cuban_mismatch_declarative-narrow-focus_Mi-tia-odia-la-lluvia.wav,./stim/wavs/mexican_mismatch_declarative-narrow-focus_Mi-tia-odia-la-lluvia.wav,./stim/wavs/peruvian_mismatch_declarative-narrow-focus_Mi-tia-odia-la-lluvia.wav,./stim/wavs/puertorican_mismatch_declarative-narrow-focus_Mi-tia-odia-la-lluvia.wav,,,,,,,,,,,,,,,,,,,,,,,,,,,,,,,,,,,,,,,,,,,,,,,,,,,,,,,,
,,,,,,,5f2cd45cd689ae1ec67c848c,605b45a4d25f287719a41696,605be137a886b49d3287d474,Spain,Midwest,13 or older,no,2021-03-24_21h04.05.835,empathy_intonation_perc,2020.2.10,MacIntel,60,,,,,,,,,,1,peruvian,0,0,1.72066,0,62,62,28,1,29,./stim/wavs/andalusian_match_interrogative-total-yn_Manuela-vende-el-carro.wav,./stim/wavs/argentine_match_interrogative-total-yn_Manuela-vende-el-carro.wav,./stim/wavs/castilian_match_interrogative-total-yn_Manuela-vende-el-carro.wav,./stim/wavs/chilean_match_interrogative-total-yn_Manuela-vende-el-carro.wav,./stim/wavs/cuban_match_interrogative-total-yn_Manuela-vende-el-carro.wav,./stim/wavs/mexican_match_interrogative-total-yn_Manuela-vende-el-carro.wav,./stim/wavs/peruvian_match_interrogative-total-yn_Manuela-vende-el-carro.wav,./stim/wavs/puertorican_match_interrogative-total-yn_Manuela-vende-el-carro.wav,,,,,,,,,,,,,,,,,,,,,,,,,,,,,,,,,,,,,,,,,,,,,,,,,,,,,,,,
,,,,,,,5f2cd45cd689ae1ec67c848c,605b45a4d25f287719a41696,605be137a886b49d3287d474,Spain,Midwest,13 or older,no,2021-03-24_21h04.05.835,empathy_intonation_perc,2020.2.10,MacIntel,60,,,,,,,,,,0,mexican,0,1,1.3255,0,63,63,1,1,2,./stim/wavs/andalusian_match_declarative-broad-focus_Daniel-iba-a-Bolivia.wav,./stim/wavs/argentine_match_declarative-broad-focus_Daniel-iba-a-Bolivia.wav,./stim/wavs/castilian_match_declarative-broad-focus_Daniel-iba-a-Bolivia.wav,./stim/wavs/chilean_match_declarative-broad-focus_Daniel-iba-a-Bolivia.wav,./stim/wavs/cuban_match_declarative-broad-focus_Daniel-iba-a-Bolivia.wav,./stim/wavs/mexican_match_declarative-broad-focus_Daniel-iba-a-Bolivia.wav,./stim/wavs/peruvian_match_declarative-broad-focus_Daniel-iba-a-Bolivia.wav,./stim/wavs/puertorican_match_declarative-broad-focus_Daniel-iba-a-Bolivia.wav,,,,,,,,,,,,,,,,,,,,,,,,,,,,,,,,,,,,,,,,,,,,,,,,,,,,,,,,
,,,,,,,5f2cd45cd689ae1ec67c848c,605b45a4d25f287719a41696,605be137a886b49d3287d474,Spain,Midwest,13 or older,no,2021-03-24_21h04.05.835,empathy_intonation_perc,2020.2.10,MacIntel,60,,,,,,,,,,,,,,,,,,,,,,,,,,,,,h,1,7.41167,0,0,0,0,1,,,,,,,,,,,,,,,,,,,,,,,,,,,,,,,,,,,,,,,,,,,,,,,,
,,,,,"Great! Now we will move on. The next task consists of about 60 trials, in each of which you will see a string of letters. 
  
  Your task is to decide whether this is a real Spanish word or not.",(press the spacebar to continue),5f2cd45cd689ae1ec67c848c,605b45a4d25f287719a41696,605be137a886b49d3287d474,Spain,Midwest,13 or older,no,2021-03-24_21h04.05.835,empathy_intonation_perc,2020.2.10,MacIntel,60,,,,,,,,,,,,,,,,,,,,,,,,,,,,,,,,,,,,,0,0,0,0,1,,,,,,,,,,,,,,,,,,,,,,,,,,,,,,,,,,,,,,,,,,,
,,,,,"If you think it is an existing Spanish word, you type '1' (for 'REAL'), and if you think it is not an existing Spanish word, you type '0' (for 'FAKE').",(press the spacebar to continue),5f2cd45cd689ae1ec67c848c,605b45a4d25f287719a41696,605be137a886b49d3287d474,Spain,Midwest,13 or older,no,2021-03-24_21h04.05.835,empathy_intonation_perc,2020.2.10,MacIntel,60,,,,,,,,,,,,,,,,,,,,,,,,,,,,,,,,,,,,,0,1,1,1,1,,,,,,,,,,,,,,,,,,,,,,,,,,,,,,,,,,,,,,,,,,,
,,,,,"If you are sure that the word exists, even though you dont know its exact meaning, you may still respond '1' (REAL). 
  
  But if you are not sure if it is an existing word, you should respond '0' (FAKE).
  
  Let's do a practice round...",(press the spacebar to continue),5f2cd45cd689ae1ec67c848c,605b45a4d25f287719a41696,605be137a886b49d3287d474,Spain,Midwest,13 or older,no,2021-03-24_21h04.05.835,empathy_intonation_perc,2020.2.10,MacIntel,60,,,,,,,,,,,,,,,,,,,,,,,,,,,,,,,,,,,,,0,2,2,2,1,,,,,,,,,,,,,,,,,,,,,,,,,,,,,,,,,,,,,,,,,,,
,,,,,,,5f2cd45cd689ae1ec67c848c,605b45a4d25f287719a41696,605be137a886b49d3287d474,Spain,Midwest,13 or older,no,2021-03-24_21h04.05.835,empathy_intonation_perc,2020.2.10,MacIntel,60,,,,,,,,,,0,,,,,,,,,,,,,,,,,,,,,,,,,,,,,,,,1,0,2.166645,0,0,0,0,1,0,depiste,REAL,FAKE,,,,,,,,,,,,,,,,,,,,,,,,,,,,,,,
,,,,,,,5f2cd45cd689ae1ec67c848c,605b45a4d25f287719a41696,605be137a886b49d3287d474,Spain,Midwest,13 or older,no,2021-03-24_21h04.05.835,empathy_intonation_perc,2020.2.10,MacIntel,60,,,,,,,,,,1,,,,,,,,,,,,,,,,,,,,,,,,,,,,,,,,1,1,0.842995,0,1,1,1,1,0,s,REAL,FAKE,,,,,,,,,,,,,,,,,,,,,,,,,,,,,,,
,,,,,,,5f2cd45cd689ae1ec67c848c,605b45a4d25f287719a41696,605be137a886b49d3287d474,Spain,Midwest,13 or older,no,2021-03-24_21h04.05.835,empathy_intonation_perc,2020.2.10,MacIntel,60,,,,,,,,,,0,,,,,,,,,,,,,,,,,,,,,,,,,,,,,,,,1,0,0.85416,0,2,2,2,1,0,con,REAL,FAKE,,,,,,,,,,,,,,,,,,,,,,,,,,,,,,,
,,,,,,,5f2cd45cd689ae1ec67c848c,605b45a4d25f287719a41696,605be137a886b49d3287d474,Spain,Midwest,13 or older,no,2021-03-24_21h04.05.835,empathy_intonation_perc,2020.2.10,MacIntel,60,,,,,,,,,,0,,,,,,,,,,,,,,,,,,,,,,,,,,,,,,,,1,0,0.77091,0,3,3,3,1,0,calpar,REAL,FAKE,,,,,,,,,,,,,,,,,,,,,,,,,,,,,,,
,,,,,,,5f2cd45cd689ae1ec67c848c,605b45a4d25f287719a41696,605be137a886b49d3287d474,Spain,Midwest,13 or older,no,2021-03-24_21h04.05.835,empathy_intonation_perc,2020.2.10,MacIntel,60,,,,,,,,,,0,,,,,,,,,,,,,,,,,,,,,,,,,,,,,,,,0,1,0.7468,0,4,4,4,1,0,joten,REAL,FAKE,,,,,,,,,,,,,,,,,,,,,,,,,,,,,,,
,,,,,,,5f2cd45cd689ae1ec67c848c,605b45a4d25f287719a41696,605be137a886b49d3287d474,Spain,Midwest,13 or older,no,2021-03-24_21h04.05.835,empathy_intonation_perc,2020.2.10,MacIntel,60,,,,,,,,,,1,,,,,,,,,,,,,,,,,,,,,,,,,,,,,,,,0,0,0.871355,0,5,5,5,1,0,sacapuntas,REAL,FAKE,,,,,,,,,,,,,,,,,,,,,,,,,,,,,,,
,,,,,,,5f2cd45cd689ae1ec67c848c,605b45a4d25f287719a41696,605be137a886b49d3287d474,Spain,Midwest,13 or older,no,2021-03-24_21h04.05.835,empathy_intonation_perc,2020.2.10,MacIntel,60,,,,,,,,,,0,,,,,,,,,,,,,,,,,,,,,,,,,,,,,,,,1,0,0.663425,0,6,6,6,1,0,priba,REAL,FAKE,,,,,,,,,,,,,,,,,,,,,,,,,,,,,,,
,,,,,,,5f2cd45cd689ae1ec67c848c,605b45a4d25f287719a41696,605be137a886b49d3287d474,Spain,Midwest,13 or older,no,2021-03-24_21h04.05.835,empathy_intonation_perc,2020.2.10,MacIntel,60,,,,,,,,,,0,,,,,,,,,,,,,,,,,,,,,,,,,,,,,,,,1,0,0.96397,0,7,7,7,1,0,pelasula,REAL,FAKE,,,,,,,,,,,,,,,,,,,,,,,,,,,,,,,
,,,,,,,5f2cd45cd689ae1ec67c848c,605b45a4d25f287719a41696,605be137a886b49d3287d474,Spain,Midwest,13 or older,no,2021-03-24_21h04.05.835,empathy_intonation_perc,2020.2.10,MacIntel,60,,,,,,,,,,1,,,,,,,,,,,,,,,,,,,,,,,,,,,,,,,,1,1,0.864215,0,8,8,8,1,0,bien,REAL,FAKE,,,,,,,,,,,,,,,,,,,,,,,,,,,,,,,
,,,,,,,5f2cd45cd689ae1ec67c848c,605b45a4d25f287719a41696,605be137a886b49d3287d474,Spain,Midwest,13 or older,no,2021-03-24_21h04.05.835,empathy_intonation_perc,2020.2.10,MacIntel,60,,,,,,,,,,1,,,,,,,,,,,,,,,,,,,,,,,,,,,,,,,,1,1,0.723195,0,9,9,9,1,0,casa,REAL,FAKE,,,,,,,,,,,,,,,,,,,,,,,,,,,,,,,
,,,,,,,5f2cd45cd689ae1ec67c848c,605b45a4d25f287719a41696,605be137a886b49d3287d474,Spain,Midwest,13 or older,no,2021-03-24_21h04.05.835,empathy_intonation_perc,2020.2.10,MacIntel,60,,,,,,,,,,0,,,,,,,,,,,,,,,,,,,,,,,,,,,,,,,,1,0,1.107625,0,10,10,10,1,0,lejo,REAL,FAKE,,,,,,,,,,,,,,,,,,,,,,,,,,,,,,,
,,,,,,,5f2cd45cd689ae1ec67c848c,605b45a4d25f287719a41696,605be137a886b49d3287d474,Spain,Midwest,13 or older,no,2021-03-24_21h04.05.835,empathy_intonation_perc,2020.2.10,MacIntel,60,,,,,,,,,,0,,,,,,,,,,,,,,,,,,,,,,,,,,,,,,,,1,0,0.968305,0,11,11,11,1,0,pretantas,REAL,FAKE,,,,,,,,,,,,,,,,,,,,,,,,,,,,,,,
,,,,,,,5f2cd45cd689ae1ec67c848c,605b45a4d25f287719a41696,605be137a886b49d3287d474,Spain,Midwest,13 or older,no,2021-03-24_21h04.05.835,empathy_intonation_perc,2020.2.10,MacIntel,60,,,,,,,,,,0,,,,,,,,,,,,,,,,,,,,,,,,,,,,,,,,,,,,,,,,17,floroso,,,0,1,0.85957,0,0,0,16,1,REAL,FAKE,,,,,,,,,,,,,,,,,,,,,
,,,,,,,5f2cd45cd689ae1ec67c848c,605b45a4d25f287719a41696,605be137a886b49d3287d474,Spain,Midwest,13 or older,no,2021-03-24_21h04.05.835,empathy_intonation_perc,2020.2.10,MacIntel,60,,,,,,,,,,1,,,,,,,,,,,,,,,,,,,,,,,,,,,,,,,,,,,,,,,,56,musgo,,,0,0,1.01499,0,1,1,55,1,REAL,FAKE,,,,,,,,,,,,,,,,,,,,,
,,,,,,,5f2cd45cd689ae1ec67c848c,605b45a4d25f287719a41696,605be137a886b49d3287d474,Spain,Midwest,13 or older,no,2021-03-24_21h04.05.835,empathy_intonation_perc,2020.2.10,MacIntel,60,,,,,,,,,,1,,,,,,,,,,,,,,,,,,,,,,,,,,,,,,,,,,,,,,,,61,seda,,,1,1,0.8666,0,2,2,60,1,REAL,FAKE,,,,,,,,,,,,,,,,,,,,,
,,,,,,,5f2cd45cd689ae1ec67c848c,605b45a4d25f287719a41696,605be137a886b49d3287d474,Spain,Midwest,13 or older,no,2021-03-24_21h04.05.835,empathy_intonation_perc,2020.2.10,MacIntel,60,,,,,,,,,,1,,,,,,,,,,,,,,,,,,,,,,,,,,,,,,,,,,,,,,,,14,yunque,,,1,1,0.867225,0,3,3,13,1,REAL,FAKE,,,,,,,,,,,,,,,,,,,,,
,,,,,,,5f2cd45cd689ae1ec67c848c,605b45a4d25f287719a41696,605be137a886b49d3287d474,Spain,Midwest,13 or older,no,2021-03-24_21h04.05.835,empathy_intonation_perc,2020.2.10,MacIntel,60,,,,,,,,,,1,,,,,,,,,,,,,,,,,,,,,,,,,,,,,,,,,,,,,,,,78,frondoso,,,1,1,0.68338,0,4,4,77,1,REAL,FAKE,,,,,,,,,,,,,,,,,,,,,
,,,,,,,5f2cd45cd689ae1ec67c848c,605b45a4d25f287719a41696,605be137a886b49d3287d474,Spain,Midwest,13 or older,no,2021-03-24_21h04.05.835,empathy_intonation_perc,2020.2.10,MacIntel,60,,,,,,,,,,1,,,,,,,,,,,,,,,,,,,,,,,,,,,,,,,,,,,,,,,,65,bizcocho,,,0,0,0.742225,0,5,5,64,1,REAL,FAKE,,,,,,,,,,,,,,,,,,,,,
,,,,,,,5f2cd45cd689ae1ec67c848c,605b45a4d25f287719a41696,605be137a886b49d3287d474,Spain,Midwest,13 or older,no,2021-03-24_21h04.05.835,empathy_intonation_perc,2020.2.10,MacIntel,60,,,,,,,,,,1,,,,,,,,,,,,,,,,,,,,,,,,,,,,,,,,,,,,,,,,13,helar,,,1,1,0.81974,0,6,6,12,1,REAL,FAKE,,,,,,,,,,,,,,,,,,,,,
,,,,,,,5f2cd45cd689ae1ec67c848c,605b45a4d25f287719a41696,605be137a886b49d3287d474,Spain,Midwest,13 or older,no,2021-03-24_21h04.05.835,empathy_intonation_perc,2020.2.10,MacIntel,60,,,,,,,,,,1,,,,,,,,,,,,,,,,,,,,,,,,,,,,,,,,,,,,,,,,6,tergiversar,,,1,1,0.836715,0,7,7,5,1,REAL,FAKE,,,,,,,,,,,,,,,,,,,,,
,,,,,,,5f2cd45cd689ae1ec67c848c,605b45a4d25f287719a41696,605be137a886b49d3287d474,Spain,Midwest,13 or older,no,2021-03-24_21h04.05.835,empathy_intonation_perc,2020.2.10,MacIntel,60,,,,,,,,,,1,,,,,,,,,,,,,,,,,,,,,,,,,,,,,,,,,,,,,,,,59,besar,,,1,1,0.66894,0,8,8,58,1,REAL,FAKE,,,,,,,,,,,,,,,,,,,,,
,,,,,,,5f2cd45cd689ae1ec67c848c,605b45a4d25f287719a41696,605be137a886b49d3287d474,Spain,Midwest,13 or older,no,2021-03-24_21h04.05.835,empathy_intonation_perc,2020.2.10,MacIntel,60,,,,,,,,,,1,,,,,,,,,,,,,,,,,,,,,,,,,,,,,,,,,,,,,,,,60,matar,,,0,0,0.849,0,9,9,59,1,REAL,FAKE,,,,,,,,,,,,,,,,,,,,,
,,,,,,,5f2cd45cd689ae1ec67c848c,605b45a4d25f287719a41696,605be137a886b49d3287d474,Spain,Midwest,13 or older,no,2021-03-24_21h04.05.835,empathy_intonation_perc,2020.2.10,MacIntel,60,,,,,,,,,,1,,,,,,,,,,,,,,,,,,,,,,,,,,,,,,,,,,,,,,,,83,guante,,,1,1,1.010305,0,10,10,82,1,REAL,FAKE,,,,,,,,,,,,,,,,,,,,,
,,,,,,,5f2cd45cd689ae1ec67c848c,605b45a4d25f287719a41696,605be137a886b49d3287d474,Spain,Midwest,13 or older,no,2021-03-24_21h04.05.835,empathy_intonation_perc,2020.2.10,MacIntel,60,,,,,,,,,,1,,,,,,,,,,,,,,,,,,,,,,,,,,,,,,,,,,,,,,,,49,ganar,,,1,1,0.836415,0,11,11,48,1,REAL,FAKE,,,,,,,,,,,,,,,,,,,,,
,,,,,,,5f2cd45cd689ae1ec67c848c,605b45a4d25f287719a41696,605be137a886b49d3287d474,Spain,Midwest,13 or older,no,2021-03-24_21h04.05.835,empathy_intonation_perc,2020.2.10,MacIntel,60,,,,,,,,,,1,,,,,,,,,,,,,,,,,,,,,,,,,,,,,,,,,,,,,,,,86,barato,,,1,1,0.984245,0,12,12,85,1,REAL,FAKE,,,,,,,,,,,,,,,,,,,,,
,,,,,,,5f2cd45cd689ae1ec67c848c,605b45a4d25f287719a41696,605be137a886b49d3287d474,Spain,Midwest,13 or older,no,2021-03-24_21h04.05.835,empathy_intonation_perc,2020.2.10,MacIntel,60,,,,,,,,,,0,,,,,,,,,,,,,,,,,,,,,,,,,,,,,,,,,,,,,,,,19,brecedad,,,1,0,0.980205,0,13,13,18,1,REAL,FAKE,,,,,,,,,,,,,,,,,,,,,
,,,,,,,5f2cd45cd689ae1ec67c848c,605b45a4d25f287719a41696,605be137a886b49d3287d474,Spain,Midwest,13 or older,no,2021-03-24_21h04.05.835,empathy_intonation_perc,2020.2.10,MacIntel,60,,,,,,,,,,0,,,,,,,,,,,,,,,,,,,,,,,,,,,,,,,,,,,,,,,,47,cartinar,,,1,0,1.26994,0,14,14,46,1,REAL,FAKE,,,,,,,,,,,,,,,,,,,,,
,,,,,,,5f2cd45cd689ae1ec67c848c,605b45a4d25f287719a41696,605be137a886b49d3287d474,Spain,Midwest,13 or older,no,2021-03-24_21h04.05.835,empathy_intonation_perc,2020.2.10,MacIntel,60,,,,,,,,,,1,,,,,,,,,,,,,,,,,,,,,,,,,,,,,,,,,,,,,,,,85,lad,,,1,1,0.530945,0,15,15,84,1,REAL,FAKE,,,,,,,,,,,,,,,,,,,,,
,,,,,,,5f2cd45cd689ae1ec67c848c,605b45a4d25f287719a41696,605be137a886b49d3287d474,Spain,Midwest,13 or older,no,2021-03-24_21h04.05.835,empathy_intonation_perc,2020.2.10,MacIntel,60,,,,,,,,,,0,,,,,,,,,,,,,,,,,,,,,,,,,,,,,,,,,,,,,,,,16,abracer,,,0,1,0.632545,0,16,16,15,1,REAL,FAKE,,,,,,,,,,,,,,,,,,,,,
,,,,,,,5f2cd45cd689ae1ec67c848c,605b45a4d25f287719a41696,605be137a886b49d3287d474,Spain,Midwest,13 or older,no,2021-03-24_21h04.05.835,empathy_intonation_perc,2020.2.10,MacIntel,60,,,,,,,,,,1,,,,,,,,,,,,,,,,,,,,,,,,,,,,,,,,,,,,,,,,26,secuestro,,,0,0,0.89366,0,17,17,25,1,REAL,FAKE,,,,,,,,,,,,,,,,,,,,,
,,,,,,,5f2cd45cd689ae1ec67c848c,605b45a4d25f287719a41696,605be137a886b49d3287d474,Spain,Midwest,13 or older,no,2021-03-24_21h04.05.835,empathy_intonation_perc,2020.2.10,MacIntel,60,,,,,,,,,,1,,,,,,,,,,,,,,,,,,,,,,,,,,,,,,,,,,,,,,,,15,regar,,,1,1,0.55205,0,18,18,14,1,REAL,FAKE,,,,,,,,,,,,,,,,,,,,,
,,,,,,,5f2cd45cd689ae1ec67c848c,605b45a4d25f287719a41696,605be137a886b49d3287d474,Spain,Midwest,13 or older,no,2021-03-24_21h04.05.835,empathy_intonation_perc,2020.2.10,MacIntel,60,,,,,,,,,,0,,,,,,,,,,,,,,,,,,,,,,,,,,,,,,,,,,,,,,,,63,esposante,,,1,0,0.660055,0,19,19,62,1,REAL,FAKE,,,,,,,,,,,,,,,,,,,,,
,,,,,,,5f2cd45cd689ae1ec67c848c,605b45a4d25f287719a41696,605be137a886b49d3287d474,Spain,Midwest,13 or older,no,2021-03-24_21h04.05.835,empathy_intonation_perc,2020.2.10,MacIntel,60,,,,,,,,,,1,,,,,,,,,,,,,,,,,,,,,,,,,,,,,,,,,,,,,,,,54,fomentar,,,1,1,0.785865,0,20,20,53,1,REAL,FAKE,,,,,,,,,,,,,,,,,,,,,
,,,,,,,5f2cd45cd689ae1ec67c848c,605b45a4d25f287719a41696,605be137a886b49d3287d474,Spain,Midwest,13 or older,no,2021-03-24_21h04.05.835,empathy_intonation_perc,2020.2.10,MacIntel,60,,,,,,,,,,0,,,,,,,,,,,,,,,,,,,,,,,,,,,,,,,,,,,,,,,,10,antar,,,1,0,0.70002,0,21,21,9,1,REAL,FAKE,,,,,,,,,,,,,,,,,,,,,
,,,,,,,5f2cd45cd689ae1ec67c848c,605b45a4d25f287719a41696,605be137a886b49d3287d474,Spain,Midwest,13 or older,no,2021-03-24_21h04.05.835,empathy_intonation_perc,2020.2.10,MacIntel,60,,,,,,,,,,0,,,,,,,,,,,,,,,,,,,,,,,,,,,,,,,,,,,,,,,,58,plaudir,,,1,0,0.753075,0,22,22,57,1,REAL,FAKE,,,,,,,,,,,,,,,,,,,,,
,,,,,,,5f2cd45cd689ae1ec67c848c,605b45a4d25f287719a41696,605be137a886b49d3287d474,Spain,Midwest,13 or older,no,2021-03-24_21h04.05.835,empathy_intonation_perc,2020.2.10,MacIntel,60,,,,,,,,,,0,,,,,,,,,,,,,,,,,,,,,,,,,,,,,,,,,,,,,,,,72,pemicin,,,0,1,0.437035,0,23,23,71,1,REAL,FAKE,,,,,,,,,,,,,,,,,,,,,
,,,,,,,5f2cd45cd689ae1ec67c848c,605b45a4d25f287719a41696,605be137a886b49d3287d474,Spain,Midwest,13 or older,no,2021-03-24_21h04.05.835,empathy_intonation_perc,2020.2.10,MacIntel,60,,,,,,,,,,1,,,,,,,,,,,,,,,,,,,,,,,,,,,,,,,,,,,,,,,,90,clavel,,,0,0,0.73152,0,24,24,89,1,REAL,FAKE,,,,,,,,,,,,,,,,,,,,,
,,,,,,,5f2cd45cd689ae1ec67c848c,605b45a4d25f287719a41696,605be137a886b49d3287d474,Spain,Midwest,13 or older,no,2021-03-24_21h04.05.835,empathy_intonation_perc,2020.2.10,MacIntel,60,,,,,,,,,,1,,,,,,,,,,,,,,,,,,,,,,,,,,,,,,,,,,,,,,,,77,tiburn,,,1,1,0.71895,0,25,25,76,1,REAL,FAKE,,,,,,,,,,,,,,,,,,,,,
,,,,,,,5f2cd45cd689ae1ec67c848c,605b45a4d25f287719a41696,605be137a886b49d3287d474,Spain,Midwest,13 or older,no,2021-03-24_21h04.05.835,empathy_intonation_perc,2020.2.10,MacIntel,60,,,,,,,,,,1,,,,,,,,,,,,,,,,,,,,,,,,,,,,,,,,,,,,,,,,62,flaco,,,0,0,0.86642,0,26,26,61,1,REAL,FAKE,,,,,,,,,,,,,,,,,,,,,
,,,,,,,5f2cd45cd689ae1ec67c848c,605b45a4d25f287719a41696,605be137a886b49d3287d474,Spain,Midwest,13 or older,no,2021-03-24_21h04.05.835,empathy_intonation_perc,2020.2.10,MacIntel,60,,,,,,,,,,0,,,,,,,,,,,,,,,,,,,,,,,,,,,,,,,,,,,,,,,,50,flamida,,,0,1,0.683575,0,27,27,49,1,REAL,FAKE,,,,,,,,,,,,,,,,,,,,,
,,,,,,,5f2cd45cd689ae1ec67c848c,605b45a4d25f287719a41696,605be137a886b49d3287d474,Spain,Midwest,13 or older,no,2021-03-24_21h04.05.835,empathy_intonation_perc,2020.2.10,MacIntel,60,,,,,,,,,,1,,,,,,,,,,,,,,,,,,,,,,,,,,,,,,,,,,,,,,,,9,hacha,,,0,0,0.65024,0,28,28,8,1,REAL,FAKE,,,,,,,,,,,,,,,,,,,,,
,,,,,,,5f2cd45cd689ae1ec67c848c,605b45a4d25f287719a41696,605be137a886b49d3287d474,Spain,Midwest,13 or older,no,2021-03-24_21h04.05.835,empathy_intonation_perc,2020.2.10,MacIntel,60,,,,,,,,,,1,,,,,,,,,,,,,,,,,,,,,,,,,,,,,,,,,,,,,,,,89,prisa,,,1,1,0.804155,0,29,29,88,1,REAL,FAKE,,,,,,,,,,,,,,,,,,,,,
,,,,,,,5f2cd45cd689ae1ec67c848c,605b45a4d25f287719a41696,605be137a886b49d3287d474,Spain,Midwest,13 or older,no,2021-03-24_21h04.05.835,empathy_intonation_perc,2020.2.10,MacIntel,60,,,,,,,,,,1,,,,,,,,,,,,,,,,,,,,,,,,,,,,,,,,,,,,,,,,48,ladrn,,,1,1,0.554575,0,30,30,47,1,REAL,FAKE,,,,,,,,,,,,,,,,,,,,,
,,,,,,,5f2cd45cd689ae1ec67c848c,605b45a4d25f287719a41696,605be137a886b49d3287d474,Spain,Midwest,13 or older,no,2021-03-24_21h04.05.835,empathy_intonation_perc,2020.2.10,MacIntel,60,,,,,,,,,,1,,,,,,,,,,,,,,,,,,,,,,,,,,,,,,,,,,,,,,,,22,lacayo,,,0,0,0.645325,0,31,31,21,1,REAL,FAKE,,,,,,,,,,,,,,,,,,,,,
,,,,,,,5f2cd45cd689ae1ec67c848c,605b45a4d25f287719a41696,605be137a886b49d3287d474,Spain,Midwest,13 or older,no,2021-03-24_21h04.05.835,empathy_intonation_perc,2020.2.10,MacIntel,60,,,,,,,,,,1,,,,,,,,,,,,,,,,,,,,,,,,,,,,,,,,,,,,,,,,88,acantilado,,,1,1,1.252415,0,32,32,87,1,REAL,FAKE,,,,,,,,,,,,,,,,,,,,,
,,,,,,,5f2cd45cd689ae1ec67c848c,605b45a4d25f287719a41696,605be137a886b49d3287d474,Spain,Midwest,13 or older,no,2021-03-24_21h04.05.835,empathy_intonation_perc,2020.2.10,MacIntel,60,,,,,,,,,,0,,,,,,,,,,,,,,,,,,,,,,,,,,,,,,,,,,,,,,,,79,tropaje,,,1,0,0.642475,0,33,33,78,1,REAL,FAKE,,,,,,,,,,,,,,,,,,,,,
,,,,,,,5f2cd45cd689ae1ec67c848c,605b45a4d25f287719a41696,605be137a886b49d3287d474,Spain,Midwest,13 or older,no,2021-03-24_21h04.05.835,empathy_intonation_perc,2020.2.10,MacIntel,60,,,,,,,,,,1,,,,,,,,,,,,,,,,,,,,,,,,,,,,,,,,,,,,,,,,28,merodear,,,1,1,0.441835,0,34,34,27,1,REAL,FAKE,,,,,,,,,,,,,,,,,,,,,
,,,,,,,5f2cd45cd689ae1ec67c848c,605b45a4d25f287719a41696,605be137a886b49d3287d474,Spain,Midwest,13 or older,no,2021-03-24_21h04.05.835,empathy_intonation_perc,2020.2.10,MacIntel,60,,,,,,,,,,0,,,,,,,,,,,,,,,,,,,,,,,,,,,,,,,,,,,,,,,,1,terzo,,,0,1,0.509425,0,35,35,0,1,REAL,FAKE,,,,,,,,,,,,,,,,,,,,,
,,,,,,,5f2cd45cd689ae1ec67c848c,605b45a4d25f287719a41696,605be137a886b49d3287d474,Spain,Midwest,13 or older,no,2021-03-24_21h04.05.835,empathy_intonation_perc,2020.2.10,MacIntel,60,,,,,,,,,,1,,,,,,,,,,,,,,,,,,,,,,,,,,,,,,,,,,,,,,,,71,polvoriento,,,0,0,0.375885,0,36,36,70,1,REAL,FAKE,,,,,,,,,,,,,,,,,,,,,
,,,,,,,5f2cd45cd689ae1ec67c848c,605b45a4d25f287719a41696,605be137a886b49d3287d474,Spain,Midwest,13 or older,no,2021-03-24_21h04.05.835,empathy_intonation_perc,2020.2.10,MacIntel,60,,,,,,,,,,1,,,,,,,,,,,,,,,,,,,,,,,,,,,,,,,,,,,,,,,,36,loro,,,1,1,0.38999,0,37,37,35,1,REAL,FAKE,,,,,,,,,,,,,,,,,,,,,
,,,,,,,5f2cd45cd689ae1ec67c848c,605b45a4d25f287719a41696,605be137a886b49d3287d474,Spain,Midwest,13 or older,no,2021-03-24_21h04.05.835,empathy_intonation_perc,2020.2.10,MacIntel,60,,,,,,,,,,1,,,,,,,,,,,,,,,,,,,,,,,,,,,,,,,,,,,,,,,,80,hormiga,,,1,1,0.465685,0,38,38,79,1,REAL,FAKE,,,,,,,,,,,,,,,,,,,,,
,,,,,,,5f2cd45cd689ae1ec67c848c,605b45a4d25f287719a41696,605be137a886b49d3287d474,Spain,Midwest,13 or older,no,2021-03-24_21h04.05.835,empathy_intonation_perc,2020.2.10,MacIntel,60,,,,,,,,,,1,,,,,,,,,,,,,,,,,,,,,,,,,,,,,,,,,,,,,,,,24,ltigo,,,0,0,0.41253,0,39,39,23,1,REAL,FAKE,,,,,,,,,,,,,,,,,,,,,
,,,,,,,5f2cd45cd689ae1ec67c848c,605b45a4d25f287719a41696,605be137a886b49d3287d474,Spain,Midwest,13 or older,no,2021-03-24_21h04.05.835,empathy_intonation_perc,2020.2.10,MacIntel,60,,,,,,,,,,1,,,,,,,,,,,,,,,,,,,,,,,,,,,,,,,,,,,,,,,,52,camisa,,,0,0,0.30449,0,40,40,51,1,REAL,FAKE,,,,,,,,,,,,,,,,,,,,,
,,,,,,,5f2cd45cd689ae1ec67c848c,605b45a4d25f287719a41696,605be137a886b49d3287d474,Spain,Midwest,13 or older,no,2021-03-24_21h04.05.835,empathy_intonation_perc,2020.2.10,MacIntel,60,,,,,,,,,,0,,,,,,,,,,,,,,,,,,,,,,,,,,,,,,,,,,,,,,,,53,vegada,,,1,0,0.86376,0,41,41,52,1,REAL,FAKE,,,,,,,,,,,,,,,,,,,,,
,,,,,,,5f2cd45cd689ae1ec67c848c,605b45a4d25f287719a41696,605be137a886b49d3287d474,Spain,Midwest,13 or older,no,2021-03-24_21h04.05.835,empathy_intonation_perc,2020.2.10,MacIntel,60,,,,,,,,,,1,,,,,,,,,,,,,,,,,,,,,,,,,,,,,,,,,,,,,,,,39,torpe,,,1,1,0.557605,0,42,42,38,1,REAL,FAKE,,,,,,,,,,,,,,,,,,,,,
,,,,,,,5f2cd45cd689ae1ec67c848c,605b45a4d25f287719a41696,605be137a886b49d3287d474,Spain,Midwest,13 or older,no,2021-03-24_21h04.05.835,empathy_intonation_perc,2020.2.10,MacIntel,60,,,,,,,,,,1,,,,,,,,,,,,,,,,,,,,,,,,,,,,,,,,,,,,,,,,3,pulmones,,,1,1,0.438915,0,43,43,2,1,REAL,FAKE,,,,,,,,,,,,,,,,,,,,,
,,,,,,,5f2cd45cd689ae1ec67c848c,605b45a4d25f287719a41696,605be137a886b49d3287d474,Spain,Midwest,13 or older,no,2021-03-24_21h04.05.835,empathy_intonation_perc,2020.2.10,MacIntel,60,,,,,,,,,,0,,,,,,,,,,,,,,,,,,,,,,,,,,,,,,,,,,,,,,,,33,pauca,,,0,1,0.45552,0,44,44,32,1,REAL,FAKE,,,,,,,,,,,,,,,,,,,,,
,,,,,,,5f2cd45cd689ae1ec67c848c,605b45a4d25f287719a41696,605be137a886b49d3287d474,Spain,Midwest,13 or older,no,2021-03-24_21h04.05.835,empathy_intonation_perc,2020.2.10,MacIntel,60,,,,,,,,,,1,,,,,,,,,,,,,,,,,,,,,,,,,,,,,,,,,,,,,,,,68,alegre,,,0,0,0.405165,0,45,45,67,1,REAL,FAKE,,,,,,,,,,,,,,,,,,,,,
,,,,,,,5f2cd45cd689ae1ec67c848c,605b45a4d25f287719a41696,605be137a886b49d3287d474,Spain,Midwest,13 or older,no,2021-03-24_21h04.05.835,empathy_intonation_perc,2020.2.10,MacIntel,60,,,,,,,,,,0,,,,,,,,,,,,,,,,,,,,,,,,,,,,,,,,,,,,,,,,4,batilln,,,1,0,0.61462,0,46,46,3,1,REAL,FAKE,,,,,,,,,,,,,,,,,,,,,
,,,,,,,5f2cd45cd689ae1ec67c848c,605b45a4d25f287719a41696,605be137a886b49d3287d474,Spain,Midwest,13 or older,no,2021-03-24_21h04.05.835,empathy_intonation_perc,2020.2.10,MacIntel,60,,,,,,,,,,1,,,,,,,,,,,,,,,,,,,,,,,,,,,,,,,,,,,,,,,,76,atar,,,1,1,0.91297,0,47,47,75,1,REAL,FAKE,,,,,,,,,,,,,,,,,,,,,
,,,,,,,5f2cd45cd689ae1ec67c848c,605b45a4d25f287719a41696,605be137a886b49d3287d474,Spain,Midwest,13 or older,no,2021-03-24_21h04.05.835,empathy_intonation_perc,2020.2.10,MacIntel,60,,,,,,,,,,1,,,,,,,,,,,,,,,,,,,,,,,,,,,,,,,,,,,,,,,,44,cuchara,,,0,0,0.59931,0,48,48,43,1,REAL,FAKE,,,,,,,,,,,,,,,,,,,,,
,,,,,,,5f2cd45cd689ae1ec67c848c,605b45a4d25f287719a41696,605be137a886b49d3287d474,Spain,Midwest,13 or older,no,2021-03-24_21h04.05.835,empathy_intonation_perc,2020.2.10,MacIntel,60,,,,,,,,,,1,,,,,,,,,,,,,,,,,,,,,,,,,,,,,,,,,,,,,,,,31,pandilla,,,1,1,0.93361,0,49,49,30,1,REAL,FAKE,,,,,,,,,,,,,,,,,,,,,
,,,,,,,5f2cd45cd689ae1ec67c848c,605b45a4d25f287719a41696,605be137a886b49d3287d474,Spain,Midwest,13 or older,no,2021-03-24_21h04.05.835,empathy_intonation_perc,2020.2.10,MacIntel,60,,,,,,,,,,1,,,,,,,,,,,,,,,,,,,,,,,,,,,,,,,,,,,,,,,,41,rebuscar,,,1,1,0.730325,0,50,50,40,1,REAL,FAKE,,,,,,,,,,,,,,,,,,,,,
,,,,,,,5f2cd45cd689ae1ec67c848c,605b45a4d25f287719a41696,605be137a886b49d3287d474,Spain,Midwest,13 or older,no,2021-03-24_21h04.05.835,empathy_intonation_perc,2020.2.10,MacIntel,60,,,,,,,,,,0,,,,,,,,,,,,,,,,,,,,,,,,,,,,,,,,,,,,,,,,74,cintro,,,1,0,0.700795,0,51,51,73,1,REAL,FAKE,,,,,,,,,,,,,,,,,,,,,
,,,,,,,5f2cd45cd689ae1ec67c848c,605b45a4d25f287719a41696,605be137a886b49d3287d474,Spain,Midwest,13 or older,no,2021-03-24_21h04.05.835,empathy_intonation_perc,2020.2.10,MacIntel,60,,,,,,,,,,1,,,,,,,,,,,,,,,,,,,,,,,,,,,,,,,,,,,,,,,,55,nevar,,,0,0,0.830955,0,52,52,54,1,REAL,FAKE,,,,,,,,,,,,,,,,,,,,,
,,,,,,,5f2cd45cd689ae1ec67c848c,605b45a4d25f287719a41696,605be137a886b49d3287d474,Spain,Midwest,13 or older,no,2021-03-24_21h04.05.835,empathy_intonation_perc,2020.2.10,MacIntel,60,,,,,,,,,,1,,,,,,,,,,,,,,,,,,,,,,,,,,,,,,,,,,,,,,,,40,alfombra,,,0,0,0.655975,0,53,53,39,1,REAL,FAKE,,,,,,,,,,,,,,,,,,,,,
,,,,,,,5f2cd45cd689ae1ec67c848c,605b45a4d25f287719a41696,605be137a886b49d3287d474,Spain,Midwest,13 or older,no,2021-03-24_21h04.05.835,empathy_intonation_perc,2020.2.10,MacIntel,60,,,,,,,,,,1,,,,,,,,,,,,,,,,,,,,,,,,,,,,,,,,,,,,,,,,43,canela,,,1,1,0.978845,0,54,54,42,1,REAL,FAKE,,,,,,,,,,,,,,,,,,,,,
,,,,,,,5f2cd45cd689ae1ec67c848c,605b45a4d25f287719a41696,605be137a886b49d3287d474,Spain,Midwest,13 or older,no,2021-03-24_21h04.05.835,empathy_intonation_perc,2020.2.10,MacIntel,60,,,,,,,,,,1,,,,,,,,,,,,,,,,,,,,,,,,,,,,,,,,,,,,,,,,5,zapato,,,1,1,0.735445,0,55,55,4,1,REAL,FAKE,,,,,,,,,,,,,,,,,,,,,
,,,,,,,5f2cd45cd689ae1ec67c848c,605b45a4d25f287719a41696,605be137a886b49d3287d474,Spain,Midwest,13 or older,no,2021-03-24_21h04.05.835,empathy_intonation_perc,2020.2.10,MacIntel,60,,,,,,,,,,1,,,,,,,,,,,,,,,,,,,,,,,,,,,,,,,,,,,,,,,,2,pellizcar,,,1,1,0.594945,0,56,56,1,1,REAL,FAKE,,,,,,,,,,,,,,,,,,,,,
,,,,,,,5f2cd45cd689ae1ec67c848c,605b45a4d25f287719a41696,605be137a886b49d3287d474,Spain,Midwest,13 or older,no,2021-03-24_21h04.05.835,empathy_intonation_perc,2020.2.10,MacIntel,60,,,,,,,,,,1,,,,,,,,,,,,,,,,,,,,,,,,,,,,,,,,,,,,,,,,73,hervidor,,,0,0,0.48263,0,57,57,72,1,REAL,FAKE,,,,,,,,,,,,,,,,,,,,,
,,,,,,,5f2cd45cd689ae1ec67c848c,605b45a4d25f287719a41696,605be137a886b49d3287d474,Spain,Midwest,13 or older,no,2021-03-24_21h04.05.835,empathy_intonation_perc,2020.2.10,MacIntel,60,,,,,,,,,,0,,,,,,,,,,,,,,,,,,,,,,,,,,,,,,,,,,,,,,,,8,cadea,,,0,1,0.386765,0,58,58,7,1,REAL,FAKE,,,,,,,,,,,,,,,,,,,,,
,,,,,,,5f2cd45cd689ae1ec67c848c,605b45a4d25f287719a41696,605be137a886b49d3287d474,Spain,Midwest,13 or older,no,2021-03-24_21h04.05.835,empathy_intonation_perc,2020.2.10,MacIntel,60,,,,,,,,,,0,,,,,,,,,,,,,,,,,,,,,,,,,,,,,,,,,,,,,,,,32,fatacidad,,,0,1,0.759285,0,59,59,31,1,REAL,FAKE,,,,,,,,,,,,,,,,,,,,,
,,,,,,,5f2cd45cd689ae1ec67c848c,605b45a4d25f287719a41696,605be137a886b49d3287d474,Spain,Midwest,13 or older,no,2021-03-24_21h04.05.835,empathy_intonation_perc,2020.2.10,MacIntel,60,,,,,,,,,,0,,,,,,,,,,,,,,,,,,,,,,,,,,,,,,,,,,,,,,,,27,acutacin,,,1,0,0.67462,0,60,60,26,1,REAL,FAKE,,,,,,,,,,,,,,,,,,,,,
,,,,,,,5f2cd45cd689ae1ec67c848c,605b45a4d25f287719a41696,605be137a886b49d3287d474,Spain,Midwest,13 or older,no,2021-03-24_21h04.05.835,empathy_intonation_perc,2020.2.10,MacIntel,60,,,,,,,,,,0,,,,,,,,,,,,,,,,,,,,,,,,,,,,,,,,,,,,,,,,30,alardio,,,1,0,0.64255,0,61,61,29,1,REAL,FAKE,,,,,,,,,,,,,,,,,,,,,
,,,,,,,5f2cd45cd689ae1ec67c848c,605b45a4d25f287719a41696,605be137a886b49d3287d474,Spain,Midwest,13 or older,no,2021-03-24_21h04.05.835,empathy_intonation_perc,2020.2.10,MacIntel,60,,,,,,,,,,1,,,,,,,,,,,,,,,,,,,,,,,,,,,,,,,,,,,,,,,,57,tacao,,,0,0,0.655835,0,62,62,56,1,REAL,FAKE,,,,,,,,,,,,,,,,,,,,,
,,,,,,,5f2cd45cd689ae1ec67c848c,605b45a4d25f287719a41696,605be137a886b49d3287d474,Spain,Midwest,13 or older,no,2021-03-24_21h04.05.835,empathy_intonation_perc,2020.2.10,MacIntel,60,,,,,,,,,,0,,,,,,,,,,,,,,,,,,,,,,,,,,,,,,,,,,,,,,,,84,escuto,,,1,0,0.692695,0,63,63,83,1,REAL,FAKE,,,,,,,,,,,,,,,,,,,,,
,,,,,,,5f2cd45cd689ae1ec67c848c,605b45a4d25f287719a41696,605be137a886b49d3287d474,Spain,Midwest,13 or older,no,2021-03-24_21h04.05.835,empathy_intonation_perc,2020.2.10,MacIntel,60,,,,,,,,,,1,,,,,,,,,,,,,,,,,,,,,,,,,,,,,,,,,,,,,,,,20,vido,,,1,1,0.37028,0,64,64,19,1,REAL,FAKE,,,,,,,,,,,,,,,,,,,,,
,,,,,,,5f2cd45cd689ae1ec67c848c,605b45a4d25f287719a41696,605be137a886b49d3287d474,Spain,Midwest,13 or older,no,2021-03-24_21h04.05.835,empathy_intonation_perc,2020.2.10,MacIntel,60,,,,,,,,,,1,,,,,,,,,,,,,,,,,,,,,,,,,,,,,,,,,,,,,,,,46,martillo,,,1,1,0.326535,0,65,65,45,1,REAL,FAKE,,,,,,,,,,,,,,,,,,,,,
,,,,,,,5f2cd45cd689ae1ec67c848c,605b45a4d25f287719a41696,605be137a886b49d3287d474,Spain,Midwest,13 or older,no,2021-03-24_21h04.05.835,empathy_intonation_perc,2020.2.10,MacIntel,60,,,,,,,,,,0,,,,,,,,,,,,,,,,,,,,,,,,,,,,,,,,,,,,,,,,18,arsa,,,1,0,0.50206,0,66,66,17,1,REAL,FAKE,,,,,,,,,,,,,,,,,,,,,
,,,,,,,5f2cd45cd689ae1ec67c848c,605b45a4d25f287719a41696,605be137a886b49d3287d474,Spain,Midwest,13 or older,no,2021-03-24_21h04.05.835,empathy_intonation_perc,2020.2.10,MacIntel,60,,,,,,,,,,1,,,,,,,,,,,,,,,,,,,,,,,,,,,,,,,,,,,,,,,,69,engatusar,,,0,0,0.382565,0,67,67,68,1,REAL,FAKE,,,,,,,,,,,,,,,,,,,,,
,,,,,,,5f2cd45cd689ae1ec67c848c,605b45a4d25f287719a41696,605be137a886b49d3287d474,Spain,Midwest,13 or older,no,2021-03-24_21h04.05.835,empathy_intonation_perc,2020.2.10,MacIntel,60,,,,,,,,,,1,,,,,,,,,,,,,,,,,,,,,,,,,,,,,,,,,,,,,,,,11,cenefa,,,0,0,0.317025,0,68,68,10,1,REAL,FAKE,,,,,,,,,,,,,,,,,,,,,
,,,,,,,5f2cd45cd689ae1ec67c848c,605b45a4d25f287719a41696,605be137a886b49d3287d474,Spain,Midwest,13 or older,no,2021-03-24_21h04.05.835,empathy_intonation_perc,2020.2.10,MacIntel,60,,,,,,,,,,0,,,,,,,,,,,,,,,,,,,,,,,,,,,,,,,,,,,,,,,,29,decar,,,0,1,0.352175,0,69,69,28,1,REAL,FAKE,,,,,,,,,,,,,,,,,,,,,
,,,,,,,5f2cd45cd689ae1ec67c848c,605b45a4d25f287719a41696,605be137a886b49d3287d474,Spain,Midwest,13 or older,no,2021-03-24_21h04.05.835,empathy_intonation_perc,2020.2.10,MacIntel,60,,,,,,,,,,1,,,,,,,,,,,,,,,,,,,,,,,,,,,,,,,,,,,,,,,,75,yacer,,,1,1,0.46823,0,70,70,74,1,REAL,FAKE,,,,,,,,,,,,,,,,,,,,,
,,,,,,,5f2cd45cd689ae1ec67c848c,605b45a4d25f287719a41696,605be137a886b49d3287d474,Spain,Midwest,13 or older,no,2021-03-24_21h04.05.835,empathy_intonation_perc,2020.2.10,MacIntel,60,,,,,,,,,,0,,,,,,,,,,,,,,,,,,,,,,,,,,,,,,,,,,,,,,,,82,empirador,,,0,1,0.353575,0,71,71,81,1,REAL,FAKE,,,,,,,,,,,,,,,,,,,,,
,,,,,,,5f2cd45cd689ae1ec67c848c,605b45a4d25f287719a41696,605be137a886b49d3287d474,Spain,Midwest,13 or older,no,2021-03-24_21h04.05.835,empathy_intonation_perc,2020.2.10,MacIntel,60,,,,,,,,,,1,,,,,,,,,,,,,,,,,,,,,,,,,,,,,,,,,,,,,,,,25,bisagra,,,1,1,0.617595,0,72,72,24,1,REAL,FAKE,,,,,,,,,,,,,,,,,,,,,
,,,,,,,5f2cd45cd689ae1ec67c848c,605b45a4d25f287719a41696,605be137a886b49d3287d474,Spain,Midwest,13 or older,no,2021-03-24_21h04.05.835,empathy_intonation_perc,2020.2.10,MacIntel,60,,,,,,,,,,0,,,,,,,,,,,,,,,,,,,,,,,,,,,,,,,,,,,,,,,,70,temblo,,,1,0,0.361995,0,73,73,69,1,REAL,FAKE,,,,,,,,,,,,,,,,,,,,,
,,,,,,,5f2cd45cd689ae1ec67c848c,605b45a4d25f287719a41696,605be137a886b49d3287d474,Spain,Midwest,13 or older,no,2021-03-24_21h04.05.835,empathy_intonation_perc,2020.2.10,MacIntel,60,,,,,,,,,,1,,,,,,,,,,,,,,,,,,,,,,,,,,,,,,,,,,,,,,,,12,asesinato,,,1,1,0.712705,0,74,74,11,1,REAL,FAKE,,,,,,,,,,,,,,,,,,,,,
,,,,,,,5f2cd45cd689ae1ec67c848c,605b45a4d25f287719a41696,605be137a886b49d3287d474,Spain,Midwest,13 or older,no,2021-03-24_21h04.05.835,empathy_intonation_perc,2020.2.10,MacIntel,60,,,,,,,,,,1,,,,,,,,,,,,,,,,,,,,,,,,,,,,,,,,,,,,,,,,67,cabello,,,0,0,0.398595,0,75,75,66,1,REAL,FAKE,,,,,,,,,,,,,,,,,,,,,
,,,,,,,5f2cd45cd689ae1ec67c848c,605b45a4d25f287719a41696,605be137a886b49d3287d474,Spain,Midwest,13 or older,no,2021-03-24_21h04.05.835,empathy_intonation_perc,2020.2.10,MacIntel,60,,,,,,,,,,0,,,,,,,,,,,,,,,,,,,,,,,,,,,,,,,,,,,,,,,,21,capillo,,,1,0,0.482435,0,76,76,20,1,REAL,FAKE,,,,,,,,,,,,,,,,,,,,,
,,,,,,,5f2cd45cd689ae1ec67c848c,605b45a4d25f287719a41696,605be137a886b49d3287d474,Spain,Midwest,13 or older,no,2021-03-24_21h04.05.835,empathy_intonation_perc,2020.2.10,MacIntel,60,,,,,,,,,,0,,,,,,,,,,,,,,,,,,,,,,,,,,,,,,,,,,,,,,,,87,grodo,,,1,0,0.34582,0,77,77,86,1,REAL,FAKE,,,,,,,,,,,,,,,,,,,,,
,,,,,,,5f2cd45cd689ae1ec67c848c,605b45a4d25f287719a41696,605be137a886b49d3287d474,Spain,Midwest,13 or older,no,2021-03-24_21h04.05.835,empathy_intonation_perc,2020.2.10,MacIntel,60,,,,,,,,,,1,,,,,,,,,,,,,,,,,,,,,,,,,,,,,,,,,,,,,,,,38,estornudar,,,1,1,0.497865,0,78,78,37,1,REAL,FAKE,,,,,,,,,,,,,,,,,,,,,
,,,,,,,5f2cd45cd689ae1ec67c848c,605b45a4d25f287719a41696,605be137a886b49d3287d474,Spain,Midwest,13 or older,no,2021-03-24_21h04.05.835,empathy_intonation_perc,2020.2.10,MacIntel,60,,,,,,,,,,0,,,,,,,,,,,,,,,,,,,,,,,,,,,,,,,,,,,,,,,,35,rompido,,,0,1,0.36258,0,79,79,34,1,REAL,FAKE,,,,,,,,,,,,,,,,,,,,,
,,,,,,,5f2cd45cd689ae1ec67c848c,605b45a4d25f287719a41696,605be137a886b49d3287d474,Spain,Midwest,13 or older,no,2021-03-24_21h04.05.835,empathy_intonation_perc,2020.2.10,MacIntel,60,,,,,,,,,,0,,,,,,,,,,,,,,,,,,,,,,,,,,,,,,,,,,,,,,,,42,cadallo,,,0,1,0.440985,0,80,80,41,1,REAL,FAKE,,,,,,,,,,,,,,,,,,,,,
,,,,,,,5f2cd45cd689ae1ec67c848c,605b45a4d25f287719a41696,605be137a886b49d3287d474,Spain,Midwest,13 or older,no,2021-03-24_21h04.05.835,empathy_intonation_perc,2020.2.10,MacIntel,60,,,,,,,,,,1,,,,,,,,,,,,,,,,,,,,,,,,,,,,,,,,,,,,,,,,51,candado,,,0,0,0.33822,0,81,81,50,1,REAL,FAKE,,,,,,,,,,,,,,,,,,,,,
,,,,,,,5f2cd45cd689ae1ec67c848c,605b45a4d25f287719a41696,605be137a886b49d3287d474,Spain,Midwest,13 or older,no,2021-03-24_21h04.05.835,empathy_intonation_perc,2020.2.10,MacIntel,60,,,,,,,,,,1,,,,,,,,,,,,,,,,,,,,,,,,,,,,,,,,,,,,,,,,34,aviso,,,1,1,0.56656,0,82,82,33,1,REAL,FAKE,,,,,,,,,,,,,,,,,,,,,
,,,,,,,5f2cd45cd689ae1ec67c848c,605b45a4d25f287719a41696,605be137a886b49d3287d474,Spain,Midwest,13 or older,no,2021-03-24_21h04.05.835,empathy_intonation_perc,2020.2.10,MacIntel,60,,,,,,,,,,0,,,,,,,,,,,,,,,,,,,,,,,,,,,,,,,,,,,,,,,,66,hacido,,,1,0,0.614005,0,83,83,65,1,REAL,FAKE,,,,,,,,,,,,,,,,,,,,,
,,,,,,,5f2cd45cd689ae1ec67c848c,605b45a4d25f287719a41696,605be137a886b49d3287d474,Spain,Midwest,13 or older,no,2021-03-24_21h04.05.835,empathy_intonation_perc,2020.2.10,MacIntel,60,,,,,,,,,,0,,,,,,,,,,,,,,,,,,,,,,,,,,,,,,,,,,,,,,,,23,lampera,,,0,1,0.56791,0,84,84,22,1,REAL,FAKE,,,,,,,,,,,,,,,,,,,,,
,,,,,,,5f2cd45cd689ae1ec67c848c,605b45a4d25f287719a41696,605be137a886b49d3287d474,Spain,Midwest,13 or older,no,2021-03-24_21h04.05.835,empathy_intonation_perc,2020.2.10,MacIntel,60,,,,,,,,,,1,,,,,,,,,,,,,,,,,,,,,,,,,,,,,,,,,,,,,,,,81,pozo,,,0,0,0.50097,0,85,85,80,1,REAL,FAKE,,,,,,,,,,,,,,,,,,,,,
,,,,,,,5f2cd45cd689ae1ec67c848c,605b45a4d25f287719a41696,605be137a886b49d3287d474,Spain,Midwest,13 or older,no,2021-03-24_21h04.05.835,empathy_intonation_perc,2020.2.10,MacIntel,60,,,,,,,,,,1,,,,,,,,,,,,,,,,,,,,,,,,,,,,,,,,,,,,,,,,45,jilguero,,,1,1,0.64963,0,86,86,44,1,REAL,FAKE,,,,,,,,,,,,,,,,,,,,,
,,,,,,,5f2cd45cd689ae1ec67c848c,605b45a4d25f287719a41696,605be137a886b49d3287d474,Spain,Midwest,13 or older,no,2021-03-24_21h04.05.835,empathy_intonation_perc,2020.2.10,MacIntel,60,,,,,,,,,,1,,,,,,,,,,,,,,,,,,,,,,,,,,,,,,,,,,,,,,,,37,granuja,,,1,1,0.550275,0,87,87,36,1,REAL,FAKE,,,,,,,,,,,,,,,,,,,,,
,,,,,,,5f2cd45cd689ae1ec67c848c,605b45a4d25f287719a41696,605be137a886b49d3287d474,Spain,Midwest,13 or older,no,2021-03-24_21h04.05.835,empathy_intonation_perc,2020.2.10,MacIntel,60,,,,,,,,,,1,,,,,,,,,,,,,,,,,,,,,,,,,,,,,,,,,,,,,,,,7,psimo,,,1,1,0.83085,0,88,88,6,1,REAL,FAKE,,,,,,,,,,,,,,,,,,,,,
,,,,,,,5f2cd45cd689ae1ec67c848c,605b45a4d25f287719a41696,605be137a886b49d3287d474,Spain,Midwest,13 or older,no,2021-03-24_21h04.05.835,empathy_intonation_perc,2020.2.10,MacIntel,60,,,,,,,,,,1,,,,,,,,,,,,,,,,,,,,,,,,,,,,,,,,,,,,,,,,64,orgulloso,,,0,0,0.580005,0,89,89,63,1,REAL,FAKE,,,,,,,,,,,,,,,,,,,,,
,,,,,,,5f2cd45cd689ae1ec67c848c,605b45a4d25f287719a41696,605be137a886b49d3287d474,Spain,Midwest,13 or older,no,2021-03-24_21h04.05.835,empathy_intonation_perc,2020.2.10,MacIntel,60,,,,,,,,,,,,,,,,,,,,,,,,,,,,,,,,,,,,,,,,,,,,,,,,,,,,,,,,,,,,,,,,4,1,2.43546,1,0,0,0,0,0,1,,,,,,,,,,,
,,,,,,,5f2cd45cd689ae1ec67c848c,605b45a4d25f287719a41696,605be137a886b49d3287d474,Spain,Midwest,13 or older,no,2021-03-24_21h04.05.835,empathy_intonation_perc,2020.2.10,MacIntel,60,,,,,,,,,,,,,,,,,,,,1,,,,,,,,,,,,,,,,,,,,,,,,,,,,,,,,,,,,,,,,,,,,,,,,,,,,,,3,0,0,0,0,1,I can easily tell if someone else wants to enter a conversation.,1,0,1,0
,,,,,,,5f2cd45cd689ae1ec67c848c,605b45a4d25f287719a41696,605be137a886b49d3287d474,Spain,Midwest,13 or older,no,2021-03-24_21h04.05.835,empathy_intonation_perc,2020.2.10,MacIntel,60,,,,,,,,,,,,,,,,,,,,2,,,,,,,,,,,,,,,,,,,,,,,,,,,,,,,,,,,,,,,,,,,,,,,,,,,,,,2,0,1,1,1,1,I prefer animals to humans.,0,1,0,0
,,,,,,,5f2cd45cd689ae1ec67c848c,605b45a4d25f287719a41696,605be137a886b49d3287d474,Spain,Midwest,13 or older,no,2021-03-24_21h04.05.835,empathy_intonation_perc,2020.2.10,MacIntel,60,,,,,,,,,,,,,,,,,,,,3,,,,,,,,,,,,,,,,,,,,,,,,,,,,,,,,,,,,,,,,,,,,,,,,,,,,,,2,0,2,2,2,1,I try to keep up with the current trends and fashions.,0,1,0,0
,,,,,,,5f2cd45cd689ae1ec67c848c,605b45a4d25f287719a41696,605be137a886b49d3287d474,Spain,Midwest,13 or older,no,2021-03-24_21h04.05.835,empathy_intonation_perc,2020.2.10,MacIntel,60,,,,,,,,,,,,,,,,,,,,4,,,,,,,,,,,,,,,,,,,,,,,,,,,,,,,,,,,,,,,,,,,,,,,,,,,,,,3,0,3,3,3,1,"I find it difficult to explain to others things that I understand easily, 
  when they dont understand it first time.",1,0,0,1
,,,,,,,5f2cd45cd689ae1ec67c848c,605b45a4d25f287719a41696,605be137a886b49d3287d474,Spain,Midwest,13 or older,no,2021-03-24_21h04.05.835,empathy_intonation_perc,2020.2.10,MacIntel,60,,,,,,,,,,,,,,,,,,,,5,,,,,,,,,,,,,,,,,,,,,,,,,,,,,,,,,,,,,,,,,,,,,,,,,,,,,,5,0,4,4,4,1,I dream most nights.,0,1,0,0
,,,,,,,5f2cd45cd689ae1ec67c848c,605b45a4d25f287719a41696,605be137a886b49d3287d474,Spain,Midwest,13 or older,no,2021-03-24_21h04.05.835,empathy_intonation_perc,2020.2.10,MacIntel,60,,,,,,,,,,,,,,,,,,,,6,,,,,,,,,,,,,,,,,,,,,,,,,,,,,,,,,,,,,,,,,,,,,,,,,,,,,,2,0,5,5,5,1,I really enjoy caring for other people.,1,0,1,0
,,,,,,,5f2cd45cd689ae1ec67c848c,605b45a4d25f287719a41696,605be137a886b49d3287d474,Spain,Midwest,13 or older,no,2021-03-24_21h04.05.835,empathy_intonation_perc,2020.2.10,MacIntel,60,,,,,,,,,,,,,,,,,,,,7,,,,,,,,,,,,,,,,,,,,,,,,,,,,,,,,,,,,,,,,,,,,,,,,,,,,,,3,0,6,6,6,1,I try to solve my own problems rather than discussing them with others.,0,1,0,0
,,,,,,,5f2cd45cd689ae1ec67c848c,605b45a4d25f287719a41696,605be137a886b49d3287d474,Spain,Midwest,13 or older,no,2021-03-24_21h04.05.835,empathy_intonation_perc,2020.2.10,MacIntel,60,,,,,,,,,,,,,,,,,,,,8,,,,,,,,,,,,,,,,,,,,,,,,,,,,,,,,,,,,,,,,,,,,,,,,,,,,,,1,0,7,7,7,1,I find it hard to know what to do in a social situation.,1,0,0,1
