instructions_2afc_loop.thisRepN,instructions_2afc_loop.thisTrialN,instructions_2afc_loop.thisN,instructions_2afc_loop.thisIndex,instructions_2afc_loop.ran,instructions_text,continue_text,participant,study_id,session,I am most familiar with Spanish from...*,What part of the US are you from?*,At what age did you begin learning Spanish?*,Are you proficient in any languages other than English/Spanish?*,date,expName,psychopyVersion,OS,frameRate,key_resp_2afc_practice.keys,key_resp_2afc_practice.corr,key_resp_2afc_practice.rt,trials_2afc_practice_loop.thisRepN,trials_2afc_practice_loop.thisTrialN,trials_2afc_practice_loop.thisN,trials_2afc_practice_loop.thisIndex,trials_2afc_practice_loop.ran,path,correct_response,the_col,key_resp_2afc_trial.keys,key_resp_2afc_trial.corr,key_resp_2afc_trial.rt,trials_2afc_loop.thisRepN,trials_2afc_loop.thisTrialN,trials_2afc_loop.thisN,trials_2afc_loop.thisIndex,trials_2afc_loop.ran,item_num,andalusian,argentine,castilian,chilean,cuban,mexican,peruvian,puertorican,key_resp_ac1.keys,key_resp_ac1.corr,key_resp_ac1.rt,ac1_loop.thisRepN,ac1_loop.thisTrialN,ac1_loop.thisN,ac1_loop.thisIndex,ac1_loop.ran,instructions_lextale_loop.thisRepN,instructions_lextale_loop.thisTrialN,instructions_lextale_loop.thisN,instructions_lextale_loop.thisIndex,instructions_lextale_loop.ran,key_resp_lextale_practice.keys,key_resp_lextale_practice.corr,key_resp_lextale_practice.rt,trials_lextale_practice_loop.thisRepN,trials_lextale_practice_loop.thisTrialN,trials_lextale_practice_loop.thisN,trials_lextale_practice_loop.thisIndex,trials_lextale_practice_loop.ran,stim,word,prac_button_real,prac_button_false,key_resp_lextale_trial.keys,key_resp_lextale_trial.corr,key_resp_lextale_trial.rt,trials_lextale_loop.thisRepN,trials_lextale_loop.thisTrialN,trials_lextale_loop.thisN,trials_lextale_loop.thisIndex,trials_lextale_loop.ran,button_real,button_false,key_resp_ac2.keys,key_resp_ac2.corr,key_resp_ac2.rt,check_pass,check_fails,ac2_loop.thisRepN,ac2_loop.thisTrialN,ac2_loop.thisN,ac2_loop.thisIndex,ac2_loop.ran,slider_eq_trial.response,trials_eq_loop.thisRepN,trials_eq_loop.thisTrialN,trials_eq_loop.thisN,trials_eq_loop.thisIndex,trials_eq_loop.ran,item,is_test_item,is_distractor,is_agree_score,is_disagree_score
0,0,0,0,1,"In the following task you are going to hear a series of utterances. 

  You will decide if the utterances sound like questions or not using your keyboard.",(press the spacebar to continue),5f3810bc8049e40ad7b6909a,605b45a4d25f287719a41696,605f324eed9ef913c955179a,United States,Midwest,13 or older,no,2021-03-27_09h26.21.154,empathy_intonation_perc,2020.2.10,Win32,60,,,,,,,,,,,,,,,,,,,,,,,,,,,,,,,,,,,,,,,,,,,,,,,,,,,,,,,,,,,,,,,,,,,,,,,,,,,,,,,,,,,,
0,1,1,1,1,"If you believe the utterance is a question, type '1' (for 'yes') and if you do not 
  believe it is a question type '0' (for 'no').

  Let's practice a bit...",(press the spacebar to continue),5f3810bc8049e40ad7b6909a,605b45a4d25f287719a41696,605f324eed9ef913c955179a,United States,Midwest,13 or older,no,2021-03-27_09h26.21.154,empathy_intonation_perc,2020.2.10,Win32,60,,,,,,,,,,,,,,,,,,,,,,,,,,,,,,,,,,,,,,,,,,,,,,,,,,,,,,,,,,,,,,,,,,,,,,,,,,,,,,,,,,,,
,,,,,,,5f3810bc8049e40ad7b6909a,605b45a4d25f287719a41696,605f324eed9ef913c955179a,United States,Midwest,13 or older,no,2021-03-27_09h26.21.154,empathy_intonation_perc,2020.2.10,Win32,60,1,1,7.70935,0,0,0,1,1,./stim/wavs/argentine_question_filler_Mi-vecino-habla-mucho.wav,1,,,,,,,,,,,,,,,,,,,,,,,,,,,,,,,,,,,,,,,,,,,,,,,,,,,,,,,,,,,,,,,,,,,,,,,,,,
,,,,,,,5f3810bc8049e40ad7b6909a,605b45a4d25f287719a41696,605f324eed9ef913c955179a,United States,Midwest,13 or older,no,2021-03-27_09h26.21.154,empathy_intonation_perc,2020.2.10,Win32,60,0,0,2.197655,0,1,1,0,1,./stim/wavs/castilian_question_filler_Mi-esposo-conoce-al-chico.wav,1,,,,,,,,,,,,,,,,,,,,,,,,,,,,,,,,,,,,,,,,,,,,,,,,,,,,,,,,,,,,,,,,,,,,,,,,,,
,,,,,,,5f3810bc8049e40ad7b6909a,605b45a4d25f287719a41696,605f324eed9ef913c955179a,United States,Midwest,13 or older,no,2021-03-27_09h26.21.154,empathy_intonation_perc,2020.2.10,Win32,60,0,1,1.8878,0,2,2,5,1,./stim/wavs/andalusian_statement_filler_Alberto-nunca-se-afeita.wav,0,,,,,,,,,,,,,,,,,,,,,,,,,,,,,,,,,,,,,,,,,,,,,,,,,,,,,,,,,,,,,,,,,,,,,,,,,,
,,,,,,,5f3810bc8049e40ad7b6909a,605b45a4d25f287719a41696,605f324eed9ef913c955179a,United States,Midwest,13 or older,no,2021-03-27_09h26.21.154,empathy_intonation_perc,2020.2.10,Win32,60,0,0,1.4398,0,3,3,2,1,./stim/wavs/chilean_question_filler_Mi-padre-cantaba-bien.wav,1,,,,,,,,,,,,,,,,,,,,,,,,,,,,,,,,,,,,,,,,,,,,,,,,,,,,,,,,,,,,,,,,,,,,,,,,,,
,,,,,,,5f3810bc8049e40ad7b6909a,605b45a4d25f287719a41696,605f324eed9ef913c955179a,United States,Midwest,13 or older,no,2021-03-27_09h26.21.154,empathy_intonation_perc,2020.2.10,Win32,60,0,1,2.116985,0,4,4,7,1,./stim/wavs/puertorican_statement_filler_La-nina-pinta-con-su-amiga.wav,0,,,,,,,,,,,,,,,,,,,,,,,,,,,,,,,,,,,,,,,,,,,,,,,,,,,,,,,,,,,,,,,,,,,,,,,,,,
,,,,,,,5f3810bc8049e40ad7b6909a,605b45a4d25f287719a41696,605f324eed9ef913c955179a,United States,Midwest,13 or older,no,2021-03-27_09h26.21.154,empathy_intonation_perc,2020.2.10,Win32,60,0,1,1.592535,0,5,5,4,1,./stim/wavs/cuban_statement_filler_Cocinabas-por-la-noche.wav,0,,,,,,,,,,,,,,,,,,,,,,,,,,,,,,,,,,,,,,,,,,,,,,,,,,,,,,,,,,,,,,,,,,,,,,,,,,
,,,,,,,5f3810bc8049e40ad7b6909a,605b45a4d25f287719a41696,605f324eed9ef913c955179a,United States,Midwest,13 or older,no,2021-03-27_09h26.21.154,empathy_intonation_perc,2020.2.10,Win32,60,0,1,2.230315,0,6,6,6,1,./stim/wavs/peruvian_statement_filler_El-nino-habla-con-su-madre.wav,0,,,,,,,,,,,,,,,,,,,,,,,,,,,,,,,,,,,,,,,,,,,,,,,,,,,,,,,,,,,,,,,,,,,,,,,,,,
,,,,,,,5f3810bc8049e40ad7b6909a,605b45a4d25f287719a41696,605f324eed9ef913c955179a,United States,Midwest,13 or older,no,2021-03-27_09h26.21.154,empathy_intonation_perc,2020.2.10,Win32,60,1,1,1.751505,0,7,7,3,1,./stim/wavs/mexican_question_filler_Felipe-no-tiene-contrasena.wav,1,,,,,,,,,,,,,,,,,,,,,,,,,,,,,,,,,,,,,,,,,,,,,,,,,,,,,,,,,,,,,,,,,,,,,,,,,,
,,,,,,,5f3810bc8049e40ad7b6909a,605b45a4d25f287719a41696,605f324eed9ef913c955179a,United States,Midwest,13 or older,no,2021-03-27_09h26.21.154,empathy_intonation_perc,2020.2.10,Win32,60,,,,,,,,,,1,castilian,1,1,1.794255,0,0,0,63,1,64,./stim/wavs/andalusian_mismatch_interrogative-total-yn_Mi-tia-odia-la-lluvia.wav,./stim/wavs/argentine_mismatch_interrogative-total-yn_Mi-tia-odia-la-lluvia.wav,./stim/wavs/castilian_mismatch_interrogative-total-yn_Mi-tia-odia-la-lluvia.wav,./stim/wavs/chilean_mismatch_interrogative-total-yn_Mi-tia-odia-la-lluvia.wav,./stim/wavs/cuban_mismatch_interrogative-total-yn_Mi-tia-odia-la-lluvia.wav,./stim/wavs/mexican_mismatch_interrogative-total-yn_Mi-tia-odia-la-lluvia.wav,./stim/wavs/peruvian_mismatch_interrogative-total-yn_Mi-tia-odia-la-lluvia.wav,./stim/wavs/puertorican_mismatch_interrogative-total-yn_Mi-tia-odia-la-lluvia.wav,,,,,,,,,,,,,,,,,,,,,,,,,,,,,,,,,,,,,,,,,,,,,,,,,,,,,,,,
,,,,,,,5f3810bc8049e40ad7b6909a,605b45a4d25f287719a41696,605f324eed9ef913c955179a,United States,Midwest,13 or older,no,2021-03-27_09h26.21.154,empathy_intonation_perc,2020.2.10,Win32,60,,,,,,,,,,1,mexican,1,1,1.890665,0,1,1,62,1,63,./stim/wavs/andalusian_mismatch_interrogative-total-yn_Mi-novio-viene-del-lago.wav,./stim/wavs/argentine_mismatch_interrogative-total-yn_Mi-novio-viene-del-lago.wav,./stim/wavs/castilian_mismatch_interrogative-total-yn_Mi-novio-viene-del-lago.wav,./stim/wavs/chilean_mismatch_interrogative-total-yn_Mi-novio-viene-del-lago.wav,./stim/wavs/cuban_mismatch_interrogative-total-yn_Mi-novio-viene-del-lago.wav,./stim/wavs/mexican_mismatch_interrogative-total-yn_Mi-novio-viene-del-lago.wav,./stim/wavs/peruvian_mismatch_interrogative-total-yn_Mi-novio-viene-del-lago.wav,./stim/wavs/puertorican_mismatch_interrogative-total-yn_Mi-novio-viene-del-lago.wav,,,,,,,,,,,,,,,,,,,,,,,,,,,,,,,,,,,,,,,,,,,,,,,,,,,,,,,,
,,,,,,,5f3810bc8049e40ad7b6909a,605b45a4d25f287719a41696,605f324eed9ef913c955179a,United States,Midwest,13 or older,no,2021-03-27_09h26.21.154,empathy_intonation_perc,2020.2.10,Win32,60,,,,,,,,,,0,mexican,0,1,1.5401,0,2,2,2,1,3,./stim/wavs/andalusian_match_declarative-broad-focus_David-leia-el-libro.wav,./stim/wavs/argentine_match_declarative-broad-focus_David-leia-el-libro.wav,./stim/wavs/castilian_match_declarative-broad-focus_David-leia-el-libro.wav,./stim/wavs/chilean_match_declarative-broad-focus_David-leia-el-libro.wav,./stim/wavs/cuban_match_declarative-broad-focus_David-leia-el-libro.wav,./stim/wavs/mexican_match_declarative-broad-focus_David-leia-el-libro.wav,./stim/wavs/peruvian_match_declarative-broad-focus_David-leia-el-libro.wav,./stim/wavs/puertorican_match_declarative-broad-focus_David-leia-el-libro.wav,,,,,,,,,,,,,,,,,,,,,,,,,,,,,,,,,,,,,,,,,,,,,,,,,,,,,,,,
,,,,,,,5f3810bc8049e40ad7b6909a,605b45a4d25f287719a41696,605f324eed9ef913c955179a,United States,Midwest,13 or older,no,2021-03-27_09h26.21.154,empathy_intonation_perc,2020.2.10,Win32,60,,,,,,,,,,1,andalusian,1,1,1.571155,0,3,3,29,1,30,./stim/wavs/andalusian_match_interrogative-total-yn_Maria-bebe-el-vino.wav,./stim/wavs/argentine_match_interrogative-total-yn_Maria-bebe-el-vino.wav,./stim/wavs/castilian_match_interrogative-total-yn_Maria-bebe-el-vino.wav,./stim/wavs/chilean_match_interrogative-total-yn_Maria-bebe-el-vino.wav,./stim/wavs/cuban_match_interrogative-total-yn_Maria-bebe-el-vino.wav,./stim/wavs/mexican_match_interrogative-total-yn_Maria-bebe-el-vino.wav,./stim/wavs/peruvian_match_interrogative-total-yn_Maria-bebe-el-vino.wav,./stim/wavs/puertorican_match_interrogative-total-yn_Maria-bebe-el-vino.wav,,,,,,,,,,,,,,,,,,,,,,,,,,,,,,,,,,,,,,,,,,,,,,,,,,,,,,,,
,,,,,,,5f3810bc8049e40ad7b6909a,605b45a4d25f287719a41696,605f324eed9ef913c955179a,United States,Midwest,13 or older,no,2021-03-27_09h26.21.154,empathy_intonation_perc,2020.2.10,Win32,60,,,,,,,,,,0,mexican,0,1,1.756865,0,4,4,43,1,44,./stim/wavs/andalusian_mismatch_declarative-narrow-focus_La-maestra-vive-en-Paris.wav,./stim/wavs/argentine_mismatch_declarative-narrow-focus_La-maestra-vive-en-Paris.wav,./stim/wavs/castilian_mismatch_declarative-narrow-focus_La-maestra-vive-en-Paris.wav,./stim/wavs/chilean_mismatch_declarative-narrow-focus_La-maestra-vive-en-Paris.wav,./stim/wavs/cuban_mismatch_declarative-narrow-focus_La-maestra-vive-en-Paris.wav,./stim/wavs/mexican_mismatch_declarative-narrow-focus_La-maestra-vive-en-Paris.wav,./stim/wavs/peruvian_mismatch_declarative-narrow-focus_La-maestra-vive-en-Paris.wav,./stim/wavs/puertorican_mismatch_declarative-narrow-focus_La-maestra-vive-en-Paris.wav,,,,,,,,,,,,,,,,,,,,,,,,,,,,,,,,,,,,,,,,,,,,,,,,,,,,,,,,
,,,,,,,5f3810bc8049e40ad7b6909a,605b45a4d25f287719a41696,605f324eed9ef913c955179a,United States,Midwest,13 or older,no,2021-03-27_09h26.21.154,empathy_intonation_perc,2020.2.10,Win32,60,,,,,,,,,,0,cuban,0,1,3.071185,0,5,5,7,1,8,./stim/wavs/andalusian_match_declarative-broad-focus_Marta-abre-el-regalo.wav,./stim/wavs/argentine_match_declarative-broad-focus_Marta-abre-el-regalo.wav,./stim/wavs/castilian_match_declarative-broad-focus_Marta-abre-el-regalo.wav,./stim/wavs/chilean_match_declarative-broad-focus_Marta-abre-el-regalo.wav,./stim/wavs/cuban_match_declarative-broad-focus_Marta-abre-el-regalo.wav,./stim/wavs/mexican_match_declarative-broad-focus_Marta-abre-el-regalo.wav,./stim/wavs/peruvian_match_declarative-broad-focus_Marta-abre-el-regalo.wav,./stim/wavs/puertorican_match_declarative-broad-focus_Marta-abre-el-regalo.wav,,,,,,,,,,,,,,,,,,,,,,,,,,,,,,,,,,,,,,,,,,,,,,,,,,,,,,,,
,,,,,,,5f3810bc8049e40ad7b6909a,605b45a4d25f287719a41696,605f324eed9ef913c955179a,United States,Midwest,13 or older,no,2021-03-27_09h26.21.154,empathy_intonation_perc,2020.2.10,Win32,60,,,,,,,,,,0,mexican,0,1,1.506925,0,6,6,34,1,35,./stim/wavs/andalusian_mismatch_declarative-broad-focus_El-nino-oye-el-rio.wav,./stim/wavs/argentine_mismatch_declarative-broad-focus_El-nino-oye-el-rio.wav,./stim/wavs/castilian_mismatch_declarative-broad-focus_El-nino-oye-el-rio.wav,./stim/wavs/chilean_mismatch_declarative-broad-focus_El-nino-oye-el-rio.wav,./stim/wavs/cuban_mismatch_declarative-broad-focus_El-nino-oye-el-rio.wav,./stim/wavs/mexican_mismatch_declarative-broad-focus_El-nino-oye-el-rio.wav,./stim/wavs/peruvian_mismatch_declarative-broad-focus_El-nino-oye-el-rio.wav,./stim/wavs/puertorican_mismatch_declarative-broad-focus_El-nino-oye-el-rio.wav,,,,,,,,,,,,,,,,,,,,,,,,,,,,,,,,,,,,,,,,,,,,,,,,,,,,,,,,
,,,,,,,5f3810bc8049e40ad7b6909a,605b45a4d25f287719a41696,605f324eed9ef913c955179a,United States,Midwest,13 or older,no,2021-03-27_09h26.21.154,empathy_intonation_perc,2020.2.10,Win32,60,,,,,,,,,,0,peruvian,0,1,1.74785,0,7,7,1,1,2,./stim/wavs/andalusian_match_declarative-broad-focus_Daniel-iba-a-Bolivia.wav,./stim/wavs/argentine_match_declarative-broad-focus_Daniel-iba-a-Bolivia.wav,./stim/wavs/castilian_match_declarative-broad-focus_Daniel-iba-a-Bolivia.wav,./stim/wavs/chilean_match_declarative-broad-focus_Daniel-iba-a-Bolivia.wav,./stim/wavs/cuban_match_declarative-broad-focus_Daniel-iba-a-Bolivia.wav,./stim/wavs/mexican_match_declarative-broad-focus_Daniel-iba-a-Bolivia.wav,./stim/wavs/peruvian_match_declarative-broad-focus_Daniel-iba-a-Bolivia.wav,./stim/wavs/puertorican_match_declarative-broad-focus_Daniel-iba-a-Bolivia.wav,,,,,,,,,,,,,,,,,,,,,,,,,,,,,,,,,,,,,,,,,,,,,,,,,,,,,,,,
,,,,,,,5f3810bc8049e40ad7b6909a,605b45a4d25f287719a41696,605f324eed9ef913c955179a,United States,Midwest,13 or older,no,2021-03-27_09h26.21.154,empathy_intonation_perc,2020.2.10,Win32,60,,,,,,,,,,0,chilean,1,0,1.465175,0,8,8,35,1,36,./stim/wavs/andalusian_mismatch_declarative-broad-focus_La-maestra-vive-en-Paris.wav,./stim/wavs/argentine_mismatch_declarative-broad-focus_La-maestra-vive-en-Paris.wav,./stim/wavs/castilian_mismatch_declarative-broad-focus_La-maestra-vive-en-Paris.wav,./stim/wavs/chilean_mismatch_declarative-broad-focus_La-maestra-vive-en-Paris.wav,./stim/wavs/cuban_mismatch_declarative-broad-focus_La-maestra-vive-en-Paris.wav,./stim/wavs/mexican_mismatch_declarative-broad-focus_La-maestra-vive-en-Paris.wav,./stim/wavs/peruvian_mismatch_declarative-broad-focus_La-maestra-vive-en-Paris.wav,./stim/wavs/puertorican_mismatch_declarative-broad-focus_La-maestra-vive-en-Paris.wav,,,,,,,,,,,,,,,,,,,,,,,,,,,,,,,,,,,,,,,,,,,,,,,,,,,,,,,,
,,,,,,,5f3810bc8049e40ad7b6909a,605b45a4d25f287719a41696,605f324eed9ef913c955179a,United States,Midwest,13 or older,no,2021-03-27_09h26.21.154,empathy_intonation_perc,2020.2.10,Win32,60,,,,,,,,,,0,castilian,0,1,1.80385,0,9,9,13,1,14,./stim/wavs/andalusian_match_declarative-narrow-focus_Maria-bebe-el-vino.wav,./stim/wavs/argentine_match_declarative-narrow-focus_Maria-bebe-el-vino.wav,./stim/wavs/castilian_match_declarative-narrow-focus_Maria-bebe-el-vino.wav,./stim/wavs/chilean_match_declarative-narrow-focus_Maria-bebe-el-vino.wav,./stim/wavs/cuban_match_declarative-narrow-focus_Maria-bebe-el-vino.wav,./stim/wavs/mexican_match_declarative-narrow-focus_Maria-bebe-el-vino.wav,./stim/wavs/peruvian_match_declarative-narrow-focus_Maria-bebe-el-vino.wav,./stim/wavs/puertorican_match_declarative-narrow-focus_Maria-bebe-el-vino.wav,,,,,,,,,,,,,,,,,,,,,,,,,,,,,,,,,,,,,,,,,,,,,,,,,,,,,,,,
,,,,,,,5f3810bc8049e40ad7b6909a,605b45a4d25f287719a41696,605f324eed9ef913c955179a,United States,Midwest,13 or older,no,2021-03-27_09h26.21.154,empathy_intonation_perc,2020.2.10,Win32,60,,,,,,,,,,1,andalusian,1,1,2.853735,0,10,10,23,1,24,./stim/wavs/andalusian_match_interrogative-partial-wh_Por-que-iba-a-Bolivia.wav,./stim/wavs/argentine_match_interrogative-partial-wh_Por-que-iba-a-Bolivia.wav,./stim/wavs/castilian_match_interrogative-partial-wh_Por-que-iba-a-Bolivia.wav,./stim/wavs/chilean_match_interrogative-partial-wh_Por-que-iba-a-Bolivia.wav,./stim/wavs/cuban_match_interrogative-partial-wh_Por-que-iba-a-Bolivia.wav,./stim/wavs/mexican_match_interrogative-partial-wh_Por-que-iba-a-Bolivia.wav,./stim/wavs/peruvian_match_interrogative-partial-wh_Por-que-iba-a-Bolivia.wav,./stim/wavs/puertorican_match_interrogative-partial-wh_Por-que-iba-a-Bolivia.wav,,,,,,,,,,,,,,,,,,,,,,,,,,,,,,,,,,,,,,,,,,,,,,,,,,,,,,,,
,,,,,,,5f3810bc8049e40ad7b6909a,605b45a4d25f287719a41696,605f324eed9ef913c955179a,United States,Midwest,13 or older,no,2021-03-27_09h26.21.154,empathy_intonation_perc,2020.2.10,Win32,60,,,,,,,,,,0,cuban,0,1,1.54224,0,11,11,45,1,46,./stim/wavs/andalusian_mismatch_declarative-narrow-focus_Mi-madre-come-la-fruta.wav,./stim/wavs/argentine_mismatch_declarative-narrow-focus_Mi-madre-come-la-fruta.wav,./stim/wavs/castilian_mismatch_declarative-narrow-focus_Mi-madre-come-la-fruta.wav,./stim/wavs/chilean_mismatch_declarative-narrow-focus_Mi-madre-come-la-fruta.wav,./stim/wavs/cuban_mismatch_declarative-narrow-focus_Mi-madre-come-la-fruta.wav,./stim/wavs/mexican_mismatch_declarative-narrow-focus_Mi-madre-come-la-fruta.wav,./stim/wavs/peruvian_mismatch_declarative-narrow-focus_Mi-madre-come-la-fruta.wav,./stim/wavs/puertorican_mismatch_declarative-narrow-focus_Mi-madre-come-la-fruta.wav,,,,,,,,,,,,,,,,,,,,,,,,,,,,,,,,,,,,,,,,,,,,,,,,,,,,,,,,
,,,,,,,5f3810bc8049e40ad7b6909a,605b45a4d25f287719a41696,605f324eed9ef913c955179a,United States,Midwest,13 or older,no,2021-03-27_09h26.21.154,empathy_intonation_perc,2020.2.10,Win32,60,,,,,,,,,,1,andalusian,1,1,1.551445,0,12,12,28,1,29,./stim/wavs/andalusian_match_interrogative-total-yn_Manuela-vende-el-carro.wav,./stim/wavs/argentine_match_interrogative-total-yn_Manuela-vende-el-carro.wav,./stim/wavs/castilian_match_interrogative-total-yn_Manuela-vende-el-carro.wav,./stim/wavs/chilean_match_interrogative-total-yn_Manuela-vende-el-carro.wav,./stim/wavs/cuban_match_interrogative-total-yn_Manuela-vende-el-carro.wav,./stim/wavs/mexican_match_interrogative-total-yn_Manuela-vende-el-carro.wav,./stim/wavs/peruvian_match_interrogative-total-yn_Manuela-vende-el-carro.wav,./stim/wavs/puertorican_match_interrogative-total-yn_Manuela-vende-el-carro.wav,,,,,,,,,,,,,,,,,,,,,,,,,,,,,,,,,,,,,,,,,,,,,,,,,,,,,,,,
,,,,,,,5f3810bc8049e40ad7b6909a,605b45a4d25f287719a41696,605f324eed9ef913c955179a,United States,Midwest,13 or older,no,2021-03-27_09h26.21.154,empathy_intonation_perc,2020.2.10,Win32,60,,,,,,,,,,1,cuban,1,1,1.76506,0,13,13,61,1,62,./stim/wavs/andalusian_mismatch_interrogative-total-yn_Mi-madre-come-la-fruta.wav,./stim/wavs/argentine_mismatch_interrogative-total-yn_Mi-madre-come-la-fruta.wav,./stim/wavs/castilian_mismatch_interrogative-total-yn_Mi-madre-come-la-fruta.wav,./stim/wavs/chilean_mismatch_interrogative-total-yn_Mi-madre-come-la-fruta.wav,./stim/wavs/cuban_mismatch_interrogative-total-yn_Mi-madre-come-la-fruta.wav,./stim/wavs/mexican_mismatch_interrogative-total-yn_Mi-madre-come-la-fruta.wav,./stim/wavs/peruvian_mismatch_interrogative-total-yn_Mi-madre-come-la-fruta.wav,./stim/wavs/puertorican_mismatch_interrogative-total-yn_Mi-madre-come-la-fruta.wav,,,,,,,,,,,,,,,,,,,,,,,,,,,,,,,,,,,,,,,,,,,,,,,,,,,,,,,,
,,,,,,,5f3810bc8049e40ad7b6909a,605b45a4d25f287719a41696,605f324eed9ef913c955179a,United States,Midwest,13 or older,no,2021-03-27_09h26.21.154,empathy_intonation_perc,2020.2.10,Win32,60,,,,,,,,,,1,chilean,0,0,2.06078,0,14,14,20,1,21,./stim/wavs/andalusian_match_interrogative-partial-wh_Por-que-abre-el-regalo.wav,./stim/wavs/argentine_match_interrogative-partial-wh_Por-que-abre-el-regalo.wav,./stim/wavs/castilian_match_interrogative-partial-wh_Por-que-abre-el-regalo.wav,./stim/wavs/chilean_match_interrogative-partial-wh_Por-que-abre-el-regalo.wav,./stim/wavs/cuban_match_interrogative-partial-wh_Por-que-abre-el-regalo.wav,./stim/wavs/mexican_match_interrogative-partial-wh_Por-que-abre-el-regalo.wav,./stim/wavs/peruvian_match_interrogative-partial-wh_Por-que-abre-el-regalo.wav,./stim/wavs/puertorican_match_interrogative-partial-wh_Por-que-abre-el-regalo.wav,,,,,,,,,,,,,,,,,,,,,,,,,,,,,,,,,,,,,,,,,,,,,,,,,,,,,,,,
,,,,,,,5f3810bc8049e40ad7b6909a,605b45a4d25f287719a41696,605f324eed9ef913c955179a,United States,Midwest,13 or older,no,2021-03-27_09h26.21.154,empathy_intonation_perc,2020.2.10,Win32,60,,,,,,,,,,1,chilean,1,1,1.63618,0,15,15,57,1,58,./stim/wavs/andalusian_mismatch_interrogative-total-yn_El-hombre-mira-la-luna.wav,./stim/wavs/argentine_mismatch_interrogative-total-yn_El-hombre-mira-la-luna.wav,./stim/wavs/castilian_mismatch_interrogative-total-yn_El-hombre-mira-la-luna.wav,./stim/wavs/chilean_mismatch_interrogative-total-yn_El-hombre-mira-la-luna.wav,./stim/wavs/cuban_mismatch_interrogative-total-yn_El-hombre-mira-la-luna.wav,./stim/wavs/mexican_mismatch_interrogative-total-yn_El-hombre-mira-la-luna.wav,./stim/wavs/peruvian_mismatch_interrogative-total-yn_El-hombre-mira-la-luna.wav,./stim/wavs/puertorican_mismatch_interrogative-total-yn_El-hombre-mira-la-luna.wav,,,,,,,,,,,,,,,,,,,,,,,,,,,,,,,,,,,,,,,,,,,,,,,,,,,,,,,,
,,,,,,,5f3810bc8049e40ad7b6909a,605b45a4d25f287719a41696,605f324eed9ef913c955179a,United States,Midwest,13 or older,no,2021-03-27_09h26.21.154,empathy_intonation_perc,2020.2.10,Win32,60,,,,,,,,,,0,puertorican,0,1,2.206645,0,16,16,39,1,40,./stim/wavs/andalusian_mismatch_declarative-broad-focus_Mi-tia-odia-la-lluvia.wav,./stim/wavs/argentine_mismatch_declarative-broad-focus_Mi-tia-odia-la-lluvia.wav,./stim/wavs/castilian_mismatch_declarative-broad-focus_Mi-tia-odia-la-lluvia.wav,./stim/wavs/chilean_mismatch_declarative-broad-focus_Mi-tia-odia-la-lluvia.wav,./stim/wavs/cuban_mismatch_declarative-broad-focus_Mi-tia-odia-la-lluvia.wav,./stim/wavs/mexican_mismatch_declarative-broad-focus_Mi-tia-odia-la-lluvia.wav,./stim/wavs/peruvian_mismatch_declarative-broad-focus_Mi-tia-odia-la-lluvia.wav,./stim/wavs/puertorican_mismatch_declarative-broad-focus_Mi-tia-odia-la-lluvia.wav,,,,,,,,,,,,,,,,,,,,,,,,,,,,,,,,,,,,,,,,,,,,,,,,,,,,,,,,
,,,,,,,5f3810bc8049e40ad7b6909a,605b45a4d25f287719a41696,605f324eed9ef913c955179a,United States,Midwest,13 or older,no,2021-03-27_09h26.21.154,empathy_intonation_perc,2020.2.10,Win32,60,,,,,,,,,,0,cuban,0,1,1.68789,0,17,17,42,1,43,./stim/wavs/andalusian_mismatch_declarative-narrow-focus_El-nino-oye-el-rio.wav,./stim/wavs/argentine_mismatch_declarative-narrow-focus_El-nino-oye-el-rio.wav,./stim/wavs/castilian_mismatch_declarative-narrow-focus_El-nino-oye-el-rio.wav,./stim/wavs/chilean_mismatch_declarative-narrow-focus_El-nino-oye-el-rio.wav,./stim/wavs/cuban_mismatch_declarative-narrow-focus_El-nino-oye-el-rio.wav,./stim/wavs/mexican_mismatch_declarative-narrow-focus_El-nino-oye-el-rio.wav,./stim/wavs/peruvian_mismatch_declarative-narrow-focus_El-nino-oye-el-rio.wav,./stim/wavs/puertorican_mismatch_declarative-narrow-focus_El-nino-oye-el-rio.wav,,,,,,,,,,,,,,,,,,,,,,,,,,,,,,,,,,,,,,,,,,,,,,,,,,,,,,,,
,,,,,,,5f3810bc8049e40ad7b6909a,605b45a4d25f287719a41696,605f324eed9ef913c955179a,United States,Midwest,13 or older,no,2021-03-27_09h26.21.154,empathy_intonation_perc,2020.2.10,Win32,60,,,,,,,,,,0,castilian,0,1,3.28781,0,18,18,3,1,4,./stim/wavs/andalusian_match_declarative-broad-focus_Emilio-ama-la-marcha.wav,./stim/wavs/argentine_match_declarative-broad-focus_Emilio-ama-la-marcha.wav,./stim/wavs/castilian_match_declarative-broad-focus_Emilio-ama-la-marcha.wav,./stim/wavs/chilean_match_declarative-broad-focus_Emilio-ama-la-marcha.wav,./stim/wavs/cuban_match_declarative-broad-focus_Emilio-ama-la-marcha.wav,./stim/wavs/mexican_match_declarative-broad-focus_Emilio-ama-la-marcha.wav,./stim/wavs/peruvian_match_declarative-broad-focus_Emilio-ama-la-marcha.wav,./stim/wavs/puertorican_match_declarative-broad-focus_Emilio-ama-la-marcha.wav,,,,,,,,,,,,,,,,,,,,,,,,,,,,,,,,,,,,,,,,,,,,,,,,,,,,,,,,
,,,,,,,5f3810bc8049e40ad7b6909a,605b45a4d25f287719a41696,605f324eed9ef913c955179a,United States,Midwest,13 or older,no,2021-03-27_09h26.21.154,empathy_intonation_perc,2020.2.10,Win32,60,,,,,,,,,,1,chilean,0,0,1.49181,0,19,19,16,1,17,./stim/wavs/andalusian_match_interrogative-partial-wh_Cuando-bebia-el-vino.wav,./stim/wavs/argentine_match_interrogative-partial-wh_Cuando-bebia-el-vino.wav,./stim/wavs/castilian_match_interrogative-partial-wh_Cuando-bebia-el-vino.wav,./stim/wavs/chilean_match_interrogative-partial-wh_Cuando-bebia-el-vino.wav,./stim/wavs/cuban_match_interrogative-partial-wh_Cuando-bebia-el-vino.wav,./stim/wavs/mexican_match_interrogative-partial-wh_Cuando-bebia-el-vino.wav,./stim/wavs/peruvian_match_interrogative-partial-wh_Cuando-bebia-el-vino.wav,./stim/wavs/puertorican_match_interrogative-partial-wh_Cuando-bebia-el-vino.wav,,,,,,,,,,,,,,,,,,,,,,,,,,,,,,,,,,,,,,,,,,,,,,,,,,,,,,,,
,,,,,,,5f3810bc8049e40ad7b6909a,605b45a4d25f287719a41696,605f324eed9ef913c955179a,United States,Midwest,13 or older,no,2021-03-27_09h26.21.154,empathy_intonation_perc,2020.2.10,Win32,60,,,,,,,,,,0,mexican,0,1,1.53329,0,20,20,11,1,12,./stim/wavs/andalusian_match_declarative-narrow-focus_Emilio-ama-la-marcha.wav,./stim/wavs/argentine_match_declarative-narrow-focus_Emilio-ama-la-marcha.wav,./stim/wavs/castilian_match_declarative-narrow-focus_Emilio-ama-la-marcha.wav,./stim/wavs/chilean_match_declarative-narrow-focus_Emilio-ama-la-marcha.wav,./stim/wavs/cuban_match_declarative-narrow-focus_Emilio-ama-la-marcha.wav,./stim/wavs/mexican_match_declarative-narrow-focus_Emilio-ama-la-marcha.wav,./stim/wavs/peruvian_match_declarative-narrow-focus_Emilio-ama-la-marcha.wav,./stim/wavs/puertorican_match_declarative-narrow-focus_Emilio-ama-la-marcha.wav,,,,,,,,,,,,,,,,,,,,,,,,,,,,,,,,,,,,,,,,,,,,,,,,,,,,,,,,
,,,,,,,5f3810bc8049e40ad7b6909a,605b45a4d25f287719a41696,605f324eed9ef913c955179a,United States,Midwest,13 or older,no,2021-03-27_09h26.21.154,empathy_intonation_perc,2020.2.10,Win32,60,,,,,,,,,,0,chilean,0,1,4.023595,0,21,21,37,1,38,./stim/wavs/andalusian_mismatch_declarative-broad-focus_Mi-madre-come-la-fruta.wav,./stim/wavs/argentine_mismatch_declarative-broad-focus_Mi-madre-come-la-fruta.wav,./stim/wavs/castilian_mismatch_declarative-broad-focus_Mi-madre-come-la-fruta.wav,./stim/wavs/chilean_mismatch_declarative-broad-focus_Mi-madre-come-la-fruta.wav,./stim/wavs/cuban_mismatch_declarative-broad-focus_Mi-madre-come-la-fruta.wav,./stim/wavs/mexican_mismatch_declarative-broad-focus_Mi-madre-come-la-fruta.wav,./stim/wavs/peruvian_mismatch_declarative-broad-focus_Mi-madre-come-la-fruta.wav,./stim/wavs/puertorican_mismatch_declarative-broad-focus_Mi-madre-come-la-fruta.wav,,,,,,,,,,,,,,,,,,,,,,,,,,,,,,,,,,,,,,,,,,,,,,,,,,,,,,,,
,,,,,,,5f3810bc8049e40ad7b6909a,605b45a4d25f287719a41696,605f324eed9ef913c955179a,United States,Midwest,13 or older,no,2021-03-27_09h26.21.154,empathy_intonation_perc,2020.2.10,Win32,60,,,,,,,,,,1,castilian,1,1,2.23527,0,22,22,56,1,57,./stim/wavs/andalusian_mismatch_interrogative-total-yn_El-bebe-comia-muy-bien.wav,./stim/wavs/argentine_mismatch_interrogative-total-yn_El-bebe-comia-muy-bien.wav,./stim/wavs/castilian_mismatch_interrogative-total-yn_El-bebe-comia-muy-bien.wav,./stim/wavs/chilean_mismatch_interrogative-total-yn_El-bebe-comia-muy-bien.wav,./stim/wavs/cuban_mismatch_interrogative-total-yn_El-bebe-comia-muy-bien.wav,./stim/wavs/mexican_mismatch_interrogative-total-yn_El-bebe-comia-muy-bien.wav,./stim/wavs/peruvian_mismatch_interrogative-total-yn_El-bebe-comia-muy-bien.wav,./stim/wavs/puertorican_mismatch_interrogative-total-yn_El-bebe-comia-muy-bien.wav,,,,,,,,,,,,,,,,,,,,,,,,,,,,,,,,,,,,,,,,,,,,,,,,,,,,,,,,
,,,,,,,5f3810bc8049e40ad7b6909a,605b45a4d25f287719a41696,605f324eed9ef913c955179a,United States,Midwest,13 or older,no,2021-03-27_09h26.21.154,empathy_intonation_perc,2020.2.10,Win32,60,,,,,,,,,,0,argentine,0,1,1.899645,0,23,23,38,1,39,./stim/wavs/andalusian_mismatch_declarative-broad-focus_Mi-novio-viene-del-lago.wav,./stim/wavs/argentine_mismatch_declarative-broad-focus_Mi-novio-viene-del-lago.wav,./stim/wavs/castilian_mismatch_declarative-broad-focus_Mi-novio-viene-del-lago.wav,./stim/wavs/chilean_mismatch_declarative-broad-focus_Mi-novio-viene-del-lago.wav,./stim/wavs/cuban_mismatch_declarative-broad-focus_Mi-novio-viene-del-lago.wav,./stim/wavs/mexican_mismatch_declarative-broad-focus_Mi-novio-viene-del-lago.wav,./stim/wavs/peruvian_mismatch_declarative-broad-focus_Mi-novio-viene-del-lago.wav,./stim/wavs/puertorican_mismatch_declarative-broad-focus_Mi-novio-viene-del-lago.wav,,,,,,,,,,,,,,,,,,,,,,,,,,,,,,,,,,,,,,,,,,,,,,,,,,,,,,,,
,,,,,,,5f3810bc8049e40ad7b6909a,605b45a4d25f287719a41696,605f324eed9ef913c955179a,United States,Midwest,13 or older,no,2021-03-27_09h26.21.154,empathy_intonation_perc,2020.2.10,Win32,60,,,,,,,,,,1,cuban,0,0,1.66941,0,24,24,26,1,27,./stim/wavs/andalusian_match_interrogative-total-yn_David-leia-el-libro.wav,./stim/wavs/argentine_match_interrogative-total-yn_David-leia-el-libro.wav,./stim/wavs/castilian_match_interrogative-total-yn_David-leia-el-libro.wav,./stim/wavs/chilean_match_interrogative-total-yn_David-leia-el-libro.wav,./stim/wavs/cuban_match_interrogative-total-yn_David-leia-el-libro.wav,./stim/wavs/mexican_match_interrogative-total-yn_David-leia-el-libro.wav,./stim/wavs/peruvian_match_interrogative-total-yn_David-leia-el-libro.wav,./stim/wavs/puertorican_match_interrogative-total-yn_David-leia-el-libro.wav,,,,,,,,,,,,,,,,,,,,,,,,,,,,,,,,,,,,,,,,,,,,,,,,,,,,,,,,
,,,,,,,5f3810bc8049e40ad7b6909a,605b45a4d25f287719a41696,605f324eed9ef913c955179a,United States,Midwest,13 or older,no,2021-03-27_09h26.21.154,empathy_intonation_perc,2020.2.10,Win32,60,,,,,,,,,,1,cuban,0,0,1.70012,0,25,25,51,1,52,./stim/wavs/andalusian_mismatch_interrogative-partial-wh_Por-que-desayuna-muy-bien.wav,./stim/wavs/argentine_mismatch_interrogative-partial-wh_Por-que-desayuna-muy-bien.wav,./stim/wavs/castilian_mismatch_interrogative-partial-wh_Por-que-desayuna-muy-bien.wav,./stim/wavs/chilean_mismatch_interrogative-partial-wh_Por-que-desayuna-muy-bien.wav,./stim/wavs/cuban_mismatch_interrogative-partial-wh_Por-que-desayuna-muy-bien.wav,./stim/wavs/mexican_mismatch_interrogative-partial-wh_Por-que-desayuna-muy-bien.wav,./stim/wavs/peruvian_mismatch_interrogative-partial-wh_Por-que-desayuna-muy-bien.wav,./stim/wavs/puertorican_mismatch_interrogative-partial-wh_Por-que-desayuna-muy-bien.wav,,,,,,,,,,,,,,,,,,,,,,,,,,,,,,,,,,,,,,,,,,,,,,,,,,,,,,,,
,,,,,,,5f3810bc8049e40ad7b6909a,605b45a4d25f287719a41696,605f324eed9ef913c955179a,United States,Midwest,13 or older,no,2021-03-27_09h26.21.154,empathy_intonation_perc,2020.2.10,Win32,60,,,,,,,,,,0,cuban,0,1,1.473415,0,26,26,44,1,45,./stim/wavs/andalusian_mismatch_declarative-narrow-focus_La-nina-lava-el-plato.wav,./stim/wavs/argentine_mismatch_declarative-narrow-focus_La-nina-lava-el-plato.wav,./stim/wavs/castilian_mismatch_declarative-narrow-focus_La-nina-lava-el-plato.wav,./stim/wavs/chilean_mismatch_declarative-narrow-focus_La-nina-lava-el-plato.wav,./stim/wavs/cuban_mismatch_declarative-narrow-focus_La-nina-lava-el-plato.wav,./stim/wavs/mexican_mismatch_declarative-narrow-focus_La-nina-lava-el-plato.wav,./stim/wavs/peruvian_mismatch_declarative-narrow-focus_La-nina-lava-el-plato.wav,./stim/wavs/puertorican_mismatch_declarative-narrow-focus_La-nina-lava-el-plato.wav,,,,,,,,,,,,,,,,,,,,,,,,,,,,,,,,,,,,,,,,,,,,,,,,,,,,,,,,
,,,,,,,5f3810bc8049e40ad7b6909a,605b45a4d25f287719a41696,605f324eed9ef913c955179a,United States,Midwest,13 or older,no,2021-03-27_09h26.21.154,empathy_intonation_perc,2020.2.10,Win32,60,,,,,,,,,,1,puertorican,0,0,1.38379,0,27,27,17,1,18,./stim/wavs/andalusian_match_interrogative-partial-wh_Cuando-leia-el-libro.wav,./stim/wavs/argentine_match_interrogative-partial-wh_Cuando-leia-el-libro.wav,./stim/wavs/castilian_match_interrogative-partial-wh_Cuando-leia-el-libro.wav,./stim/wavs/chilean_match_interrogative-partial-wh_Cuando-leia-el-libro.wav,./stim/wavs/cuban_match_interrogative-partial-wh_Cuando-leia-el-libro.wav,./stim/wavs/mexican_match_interrogative-partial-wh_Cuando-leia-el-libro.wav,./stim/wavs/peruvian_match_interrogative-partial-wh_Cuando-leia-el-libro.wav,./stim/wavs/puertorican_match_interrogative-partial-wh_Cuando-leia-el-libro.wav,,,,,,,,,,,,,,,,,,,,,,,,,,,,,,,,,,,,,,,,,,,,,,,,,,,,,,,,
,,,,,,,5f3810bc8049e40ad7b6909a,605b45a4d25f287719a41696,605f324eed9ef913c955179a,United States,Midwest,13 or older,no,2021-03-27_09h26.21.154,empathy_intonation_perc,2020.2.10,Win32,60,,,,,,,,,,1,peruvian,1,1,1.52769,0,28,28,50,1,51,./stim/wavs/andalusian_mismatch_interrogative-partial-wh_Cuando-miraba-la-luna.wav,./stim/wavs/argentine_mismatch_interrogative-partial-wh_Cuando-miraba-la-luna.wav,./stim/wavs/castilian_mismatch_interrogative-partial-wh_Cuando-miraba-la-luna.wav,./stim/wavs/chilean_mismatch_interrogative-partial-wh_Cuando-miraba-la-luna.wav,./stim/wavs/cuban_mismatch_interrogative-partial-wh_Cuando-miraba-la-luna.wav,./stim/wavs/mexican_mismatch_interrogative-partial-wh_Cuando-miraba-la-luna.wav,./stim/wavs/peruvian_mismatch_interrogative-partial-wh_Cuando-miraba-la-luna.wav,./stim/wavs/puertorican_mismatch_interrogative-partial-wh_Cuando-miraba-la-luna.wav,,,,,,,,,,,,,,,,,,,,,,,,,,,,,,,,,,,,,,,,,,,,,,,,,,,,,,,,
,,,,,,,5f3810bc8049e40ad7b6909a,605b45a4d25f287719a41696,605f324eed9ef913c955179a,United States,Midwest,13 or older,no,2021-03-27_09h26.21.154,empathy_intonation_perc,2020.2.10,Win32,60,,,,,,,,,,1,argentine,1,1,1.549965,0,29,29,48,1,49,./stim/wavs/andalusian_mismatch_interrogative-partial-wh_Cuando-comia-la-fruta.wav,./stim/wavs/argentine_mismatch_interrogative-partial-wh_Cuando-comia-la-fruta.wav,./stim/wavs/castilian_mismatch_interrogative-partial-wh_Cuando-comia-la-fruta.wav,./stim/wavs/chilean_mismatch_interrogative-partial-wh_Cuando-comia-la-fruta.wav,./stim/wavs/cuban_mismatch_interrogative-partial-wh_Cuando-comia-la-fruta.wav,./stim/wavs/mexican_mismatch_interrogative-partial-wh_Cuando-comia-la-fruta.wav,./stim/wavs/peruvian_mismatch_interrogative-partial-wh_Cuando-comia-la-fruta.wav,./stim/wavs/puertorican_mismatch_interrogative-partial-wh_Cuando-comia-la-fruta.wav,,,,,,,,,,,,,,,,,,,,,,,,,,,,,,,,,,,,,,,,,,,,,,,,,,,,,,,,
,,,,,,,5f3810bc8049e40ad7b6909a,605b45a4d25f287719a41696,605f324eed9ef913c955179a,United States,Midwest,13 or older,no,2021-03-27_09h26.21.154,empathy_intonation_perc,2020.2.10,Win32,60,,,,,,,,,,1,cuban,0,0,1.60053,0,30,30,25,1,26,./stim/wavs/andalusian_match_interrogative-total-yn_Daniel-iba-a-Bolivia.wav,./stim/wavs/argentine_match_interrogative-total-yn_Daniel-iba-a-Bolivia.wav,./stim/wavs/castilian_match_interrogative-total-yn_Daniel-iba-a-Bolivia.wav,./stim/wavs/chilean_match_interrogative-total-yn_Daniel-iba-a-Bolivia.wav,./stim/wavs/cuban_match_interrogative-total-yn_Daniel-iba-a-Bolivia.wav,./stim/wavs/mexican_match_interrogative-total-yn_Daniel-iba-a-Bolivia.wav,./stim/wavs/peruvian_match_interrogative-total-yn_Daniel-iba-a-Bolivia.wav,./stim/wavs/puertorican_match_interrogative-total-yn_Daniel-iba-a-Bolivia.wav,,,,,,,,,,,,,,,,,,,,,,,,,,,,,,,,,,,,,,,,,,,,,,,,,,,,,,,,
,,,,,,,5f3810bc8049e40ad7b6909a,605b45a4d25f287719a41696,605f324eed9ef913c955179a,United States,Midwest,13 or older,no,2021-03-27_09h26.21.154,empathy_intonation_perc,2020.2.10,Win32,60,,,,,,,,,,1,argentine,1,1,1.475195,0,31,31,21,1,22,./stim/wavs/andalusian_match_interrogative-partial-wh_Por-que-ama-la-navidad.wav,./stim/wavs/argentine_match_interrogative-partial-wh_Por-que-ama-la-navidad.wav,./stim/wavs/castilian_match_interrogative-partial-wh_Por-que-ama-la-navidad.wav,./stim/wavs/chilean_match_interrogative-partial-wh_Por-que-ama-la-navidad.wav,./stim/wavs/cuban_match_interrogative-partial-wh_Por-que-ama-la-navidad.wav,./stim/wavs/mexican_match_interrogative-partial-wh_Por-que-ama-la-navidad.wav,./stim/wavs/peruvian_match_interrogative-partial-wh_Por-que-ama-la-navidad.wav,./stim/wavs/puertorican_match_interrogative-partial-wh_Por-que-ama-la-navidad.wav,,,,,,,,,,,,,,,,,,,,,,,,,,,,,,,,,,,,,,,,,,,,,,,,,,,,,,,,
,,,,,,,5f3810bc8049e40ad7b6909a,605b45a4d25f287719a41696,605f324eed9ef913c955179a,United States,Midwest,13 or older,no,2021-03-27_09h26.21.154,empathy_intonation_perc,2020.2.10,Win32,60,,,,,,,,,,0,chilean,0,1,1.38414,0,32,32,12,1,13,./stim/wavs/andalusian_match_declarative-narrow-focus_Manuela-vende-el-carro.wav,./stim/wavs/argentine_match_declarative-narrow-focus_Manuela-vende-el-carro.wav,./stim/wavs/castilian_match_declarative-narrow-focus_Manuela-vende-el-carro.wav,./stim/wavs/chilean_match_declarative-narrow-focus_Manuela-vende-el-carro.wav,./stim/wavs/cuban_match_declarative-narrow-focus_Manuela-vende-el-carro.wav,./stim/wavs/mexican_match_declarative-narrow-focus_Manuela-vende-el-carro.wav,./stim/wavs/peruvian_match_declarative-narrow-focus_Manuela-vende-el-carro.wav,./stim/wavs/puertorican_match_declarative-narrow-focus_Manuela-vende-el-carro.wav,,,,,,,,,,,,,,,,,,,,,,,,,,,,,,,,,,,,,,,,,,,,,,,,,,,,,,,,
,,,,,,,5f3810bc8049e40ad7b6909a,605b45a4d25f287719a41696,605f324eed9ef913c955179a,United States,Midwest,13 or older,no,2021-03-27_09h26.21.154,empathy_intonation_perc,2020.2.10,Win32,60,,,,,,,,,,0,mexican,0,1,1.66969,0,33,33,41,1,42,./stim/wavs/andalusian_mismatch_declarative-narrow-focus_El-hombre-mira-la-luna.wav,./stim/wavs/argentine_mismatch_declarative-narrow-focus_El-hombre-mira-la-luna.wav,./stim/wavs/castilian_mismatch_declarative-narrow-focus_El-hombre-mira-la-luna.wav,./stim/wavs/chilean_mismatch_declarative-narrow-focus_El-hombre-mira-la-luna.wav,./stim/wavs/cuban_mismatch_declarative-narrow-focus_El-hombre-mira-la-luna.wav,./stim/wavs/mexican_mismatch_declarative-narrow-focus_El-hombre-mira-la-luna.wav,./stim/wavs/peruvian_mismatch_declarative-narrow-focus_El-hombre-mira-la-luna.wav,./stim/wavs/puertorican_mismatch_declarative-narrow-focus_El-hombre-mira-la-luna.wav,,,,,,,,,,,,,,,,,,,,,,,,,,,,,,,,,,,,,,,,,,,,,,,,,,,,,,,,
,,,,,,,5f3810bc8049e40ad7b6909a,605b45a4d25f287719a41696,605f324eed9ef913c955179a,United States,Midwest,13 or older,no,2021-03-27_09h26.21.154,empathy_intonation_perc,2020.2.10,Win32,60,,,,,,,,,,1,andalusian,1,1,1.803775,0,34,34,58,1,59,./stim/wavs/andalusian_mismatch_interrogative-total-yn_El-nino-oye-el-rio.wav,./stim/wavs/argentine_mismatch_interrogative-total-yn_El-nino-oye-el-rio.wav,./stim/wavs/castilian_mismatch_interrogative-total-yn_El-nino-oye-el-rio.wav,./stim/wavs/chilean_mismatch_interrogative-total-yn_El-nino-oye-el-rio.wav,./stim/wavs/cuban_mismatch_interrogative-total-yn_El-nino-oye-el-rio.wav,./stim/wavs/mexican_mismatch_interrogative-total-yn_El-nino-oye-el-rio.wav,./stim/wavs/peruvian_mismatch_interrogative-total-yn_El-nino-oye-el-rio.wav,./stim/wavs/puertorican_mismatch_interrogative-total-yn_El-nino-oye-el-rio.wav,,,,,,,,,,,,,,,,,,,,,,,,,,,,,,,,,,,,,,,,,,,,,,,,,,,,,,,,
,,,,,,,5f3810bc8049e40ad7b6909a,605b45a4d25f287719a41696,605f324eed9ef913c955179a,United States,Midwest,13 or older,no,2021-03-27_09h26.21.154,empathy_intonation_perc,2020.2.10,Win32,60,,,,,,,,,,0,andalusian,0,1,1.822135,0,35,35,6,1,7,./stim/wavs/andalusian_match_declarative-broad-focus_Mariano-habla-del-tiempo.wav,./stim/wavs/argentine_match_declarative-broad-focus_Mariano-habla-del-tiempo.wav,./stim/wavs/castilian_match_declarative-broad-focus_Mariano-habla-del-tiempo.wav,./stim/wavs/chilean_match_declarative-broad-focus_Mariano-habla-del-tiempo.wav,./stim/wavs/cuban_match_declarative-broad-focus_Mariano-habla-del-tiempo.wav,./stim/wavs/mexican_match_declarative-broad-focus_Mariano-habla-del-tiempo.wav,./stim/wavs/peruvian_match_declarative-broad-focus_Mariano-habla-del-tiempo.wav,./stim/wavs/puertorican_match_declarative-broad-focus_Mariano-habla-del-tiempo.wav,,,,,,,,,,,,,,,,,,,,,,,,,,,,,,,,,,,,,,,,,,,,,,,,,,,,,,,,
,,,,,,,5f3810bc8049e40ad7b6909a,605b45a4d25f287719a41696,605f324eed9ef913c955179a,United States,Midwest,13 or older,no,2021-03-27_09h26.21.154,empathy_intonation_perc,2020.2.10,Win32,60,,,,,,,,,,0,puertorican,0,1,1.512365,0,36,36,36,1,37,./stim/wavs/andalusian_mismatch_declarative-broad-focus_La-nina-lava-el-plato.wav,./stim/wavs/argentine_mismatch_declarative-broad-focus_La-nina-lava-el-plato.wav,./stim/wavs/castilian_mismatch_declarative-broad-focus_La-nina-lava-el-plato.wav,./stim/wavs/chilean_mismatch_declarative-broad-focus_La-nina-lava-el-plato.wav,./stim/wavs/cuban_mismatch_declarative-broad-focus_La-nina-lava-el-plato.wav,./stim/wavs/mexican_mismatch_declarative-broad-focus_La-nina-lava-el-plato.wav,./stim/wavs/peruvian_mismatch_declarative-broad-focus_La-nina-lava-el-plato.wav,./stim/wavs/puertorican_mismatch_declarative-broad-focus_La-nina-lava-el-plato.wav,,,,,,,,,,,,,,,,,,,,,,,,,,,,,,,,,,,,,,,,,,,,,,,,,,,,,,,,
,,,,,,,5f3810bc8049e40ad7b6909a,605b45a4d25f287719a41696,605f324eed9ef913c955179a,United States,Midwest,13 or older,no,2021-03-27_09h26.21.154,empathy_intonation_perc,2020.2.10,Win32,60,,,,,,,,,,0,castilian,0,1,1.822085,0,37,37,4,1,5,./stim/wavs/andalusian_match_declarative-broad-focus_Manuela-vende-el-carro.wav,./stim/wavs/argentine_match_declarative-broad-focus_Manuela-vende-el-carro.wav,./stim/wavs/castilian_match_declarative-broad-focus_Manuela-vende-el-carro.wav,./stim/wavs/chilean_match_declarative-broad-focus_Manuela-vende-el-carro.wav,./stim/wavs/cuban_match_declarative-broad-focus_Manuela-vende-el-carro.wav,./stim/wavs/mexican_match_declarative-broad-focus_Manuela-vende-el-carro.wav,./stim/wavs/peruvian_match_declarative-broad-focus_Manuela-vende-el-carro.wav,./stim/wavs/puertorican_match_declarative-broad-focus_Manuela-vende-el-carro.wav,,,,,,,,,,,,,,,,,,,,,,,,,,,,,,,,,,,,,,,,,,,,,,,,,,,,,,,,
,,,,,,,5f3810bc8049e40ad7b6909a,605b45a4d25f287719a41696,605f324eed9ef913c955179a,United States,Midwest,13 or older,no,2021-03-27_09h26.21.154,empathy_intonation_perc,2020.2.10,Win32,60,,,,,,,,,,1,puertorican,0,0,1.412055,0,38,38,30,1,31,./stim/wavs/andalusian_match_interrogative-total-yn_Mariano-habla-del-tiempo.wav,./stim/wavs/argentine_match_interrogative-total-yn_Mariano-habla-del-tiempo.wav,./stim/wavs/castilian_match_interrogative-total-yn_Mariano-habla-del-tiempo.wav,./stim/wavs/chilean_match_interrogative-total-yn_Mariano-habla-del-tiempo.wav,./stim/wavs/cuban_match_interrogative-total-yn_Mariano-habla-del-tiempo.wav,./stim/wavs/mexican_match_interrogative-total-yn_Mariano-habla-del-tiempo.wav,./stim/wavs/peruvian_match_interrogative-total-yn_Mariano-habla-del-tiempo.wav,./stim/wavs/puertorican_match_interrogative-total-yn_Mariano-habla-del-tiempo.wav,,,,,,,,,,,,,,,,,,,,,,,,,,,,,,,,,,,,,,,,,,,,,,,,,,,,,,,,
,,,,,,,5f3810bc8049e40ad7b6909a,605b45a4d25f287719a41696,605f324eed9ef913c955179a,United States,Midwest,13 or older,no,2021-03-27_09h26.21.154,empathy_intonation_perc,2020.2.10,Win32,60,,,,,,,,,,0,argentine,0,1,1.831245,0,39,39,32,1,33,./stim/wavs/andalusian_mismatch_declarative-broad-focus_El-bebe-comia-muy-bien.wav,./stim/wavs/argentine_mismatch_declarative-broad-focus_El-bebe-comia-muy-bien.wav,./stim/wavs/castilian_mismatch_declarative-broad-focus_El-bebe-comia-muy-bien.wav,./stim/wavs/chilean_mismatch_declarative-broad-focus_El-bebe-comia-muy-bien.wav,./stim/wavs/cuban_mismatch_declarative-broad-focus_El-bebe-comia-muy-bien.wav,./stim/wavs/mexican_mismatch_declarative-broad-focus_El-bebe-comia-muy-bien.wav,./stim/wavs/peruvian_mismatch_declarative-broad-focus_El-bebe-comia-muy-bien.wav,./stim/wavs/puertorican_mismatch_declarative-broad-focus_El-bebe-comia-muy-bien.wav,,,,,,,,,,,,,,,,,,,,,,,,,,,,,,,,,,,,,,,,,,,,,,,,,,,,,,,,
,,,,,,,5f3810bc8049e40ad7b6909a,605b45a4d25f287719a41696,605f324eed9ef913c955179a,United States,Midwest,13 or older,no,2021-03-27_09h26.21.154,empathy_intonation_perc,2020.2.10,Win32,60,,,,,,,,,,0,cuban,0,1,1.564675,0,40,40,5,1,6,./stim/wavs/andalusian_match_declarative-broad-focus_Maria-bebe-el-vino.wav,./stim/wavs/argentine_match_declarative-broad-focus_Maria-bebe-el-vino.wav,./stim/wavs/castilian_match_declarative-broad-focus_Maria-bebe-el-vino.wav,./stim/wavs/chilean_match_declarative-broad-focus_Maria-bebe-el-vino.wav,./stim/wavs/cuban_match_declarative-broad-focus_Maria-bebe-el-vino.wav,./stim/wavs/mexican_match_declarative-broad-focus_Maria-bebe-el-vino.wav,./stim/wavs/peruvian_match_declarative-broad-focus_Maria-bebe-el-vino.wav,./stim/wavs/puertorican_match_declarative-broad-focus_Maria-bebe-el-vino.wav,,,,,,,,,,,,,,,,,,,,,,,,,,,,,,,,,,,,,,,,,,,,,,,,,,,,,,,,
,,,,,,,5f3810bc8049e40ad7b6909a,605b45a4d25f287719a41696,605f324eed9ef913c955179a,United States,Midwest,13 or older,no,2021-03-27_09h26.21.154,empathy_intonation_perc,2020.2.10,Win32,60,,,,,,,,,,0,mexican,0,1,1.433125,0,41,41,15,1,16,./stim/wavs/andalusian_match_declarative-narrow-focus_Marta-abre-el-regalo.wav,./stim/wavs/argentine_match_declarative-narrow-focus_Marta-abre-el-regalo.wav,./stim/wavs/castilian_match_declarative-narrow-focus_Marta-abre-el-regalo.wav,./stim/wavs/chilean_match_declarative-narrow-focus_Marta-abre-el-regalo.wav,./stim/wavs/cuban_match_declarative-narrow-focus_Marta-abre-el-regalo.wav,./stim/wavs/mexican_match_declarative-narrow-focus_Marta-abre-el-regalo.wav,./stim/wavs/peruvian_match_declarative-narrow-focus_Marta-abre-el-regalo.wav,./stim/wavs/puertorican_match_declarative-narrow-focus_Marta-abre-el-regalo.wav,,,,,,,,,,,,,,,,,,,,,,,,,,,,,,,,,,,,,,,,,,,,,,,,,,,,,,,,
,,,,,,,5f3810bc8049e40ad7b6909a,605b45a4d25f287719a41696,605f324eed9ef913c955179a,United States,Midwest,13 or older,no,2021-03-27_09h26.21.154,empathy_intonation_perc,2020.2.10,Win32,60,,,,,,,,,,0,castilian,0,1,1.9279,0,42,42,47,1,48,./stim/wavs/andalusian_mismatch_declarative-narrow-focus_Mi-tia-odia-la-lluvia.wav,./stim/wavs/argentine_mismatch_declarative-narrow-focus_Mi-tia-odia-la-lluvia.wav,./stim/wavs/castilian_mismatch_declarative-narrow-focus_Mi-tia-odia-la-lluvia.wav,./stim/wavs/chilean_mismatch_declarative-narrow-focus_Mi-tia-odia-la-lluvia.wav,./stim/wavs/cuban_mismatch_declarative-narrow-focus_Mi-tia-odia-la-lluvia.wav,./stim/wavs/mexican_mismatch_declarative-narrow-focus_Mi-tia-odia-la-lluvia.wav,./stim/wavs/peruvian_mismatch_declarative-narrow-focus_Mi-tia-odia-la-lluvia.wav,./stim/wavs/puertorican_mismatch_declarative-narrow-focus_Mi-tia-odia-la-lluvia.wav,,,,,,,,,,,,,,,,,,,,,,,,,,,,,,,,,,,,,,,,,,,,,,,,,,,,,,,,
,,,,,,,5f3810bc8049e40ad7b6909a,605b45a4d25f287719a41696,605f324eed9ef913c955179a,United States,Midwest,13 or older,no,2021-03-27_09h26.21.154,empathy_intonation_perc,2020.2.10,Win32,60,,,,,,,,,,0,chilean,0,1,2.081915,0,43,43,46,1,47,./stim/wavs/andalusian_mismatch_declarative-narrow-focus_Mi-novio-viene-del-lago.wav,./stim/wavs/argentine_mismatch_declarative-narrow-focus_Mi-novio-viene-del-lago.wav,./stim/wavs/castilian_mismatch_declarative-narrow-focus_Mi-novio-viene-del-lago.wav,./stim/wavs/chilean_mismatch_declarative-narrow-focus_Mi-novio-viene-del-lago.wav,./stim/wavs/cuban_mismatch_declarative-narrow-focus_Mi-novio-viene-del-lago.wav,./stim/wavs/mexican_mismatch_declarative-narrow-focus_Mi-novio-viene-del-lago.wav,./stim/wavs/peruvian_mismatch_declarative-narrow-focus_Mi-novio-viene-del-lago.wav,./stim/wavs/puertorican_mismatch_declarative-narrow-focus_Mi-novio-viene-del-lago.wav,,,,,,,,,,,,,,,,,,,,,,,,,,,,,,,,,,,,,,,,,,,,,,,,,,,,,,,,
,,,,,,,5f3810bc8049e40ad7b6909a,605b45a4d25f287719a41696,605f324eed9ef913c955179a,United States,Midwest,13 or older,no,2021-03-27_09h26.21.154,empathy_intonation_perc,2020.2.10,Win32,60,,,,,,,,,,1,cuban,0,0,1.61529,0,44,44,52,1,53,./stim/wavs/andalusian_mismatch_interrogative-partial-wh_Por-que-odiaba-la-lluvia.wav,./stim/wavs/argentine_mismatch_interrogative-partial-wh_Por-que-odiaba-la-lluvia.wav,./stim/wavs/castilian_mismatch_interrogative-partial-wh_Por-que-odiaba-la-lluvia.wav,./stim/wavs/chilean_mismatch_interrogative-partial-wh_Por-que-odiaba-la-lluvia.wav,./stim/wavs/cuban_mismatch_interrogative-partial-wh_Por-que-odiaba-la-lluvia.wav,./stim/wavs/mexican_mismatch_interrogative-partial-wh_Por-que-odiaba-la-lluvia.wav,./stim/wavs/peruvian_mismatch_interrogative-partial-wh_Por-que-odiaba-la-lluvia.wav,./stim/wavs/puertorican_mismatch_interrogative-partial-wh_Por-que-odiaba-la-lluvia.wav,,,,,,,,,,,,,,,,,,,,,,,,,,,,,,,,,,,,,,,,,,,,,,,,,,,,,,,,
,,,,,,,5f3810bc8049e40ad7b6909a,605b45a4d25f287719a41696,605f324eed9ef913c955179a,United States,Midwest,13 or older,no,2021-03-27_09h26.21.154,empathy_intonation_perc,2020.2.10,Win32,60,,,,,,,,,,0,argentine,0,1,1.6069,0,45,45,8,1,9,./stim/wavs/andalusian_match_declarative-narrow-focus_Ana-lleva-el-abrigo.wav,./stim/wavs/argentine_match_declarative-narrow-focus_Ana-lleva-el-abrigo.wav,./stim/wavs/castilian_match_declarative-narrow-focus_Ana-lleva-el-abrigo.wav,./stim/wavs/chilean_match_declarative-narrow-focus_Ana-lleva-el-abrigo.wav,./stim/wavs/cuban_match_declarative-narrow-focus_Ana-lleva-el-abrigo.wav,./stim/wavs/mexican_match_declarative-narrow-focus_Ana-lleva-el-abrigo.wav,./stim/wavs/peruvian_match_declarative-narrow-focus_Ana-lleva-el-abrigo.wav,./stim/wavs/puertorican_match_declarative-narrow-focus_Ana-lleva-el-abrigo.wav,,,,,,,,,,,,,,,,,,,,,,,,,,,,,,,,,,,,,,,,,,,,,,,,,,,,,,,,
,,,,,,,5f3810bc8049e40ad7b6909a,605b45a4d25f287719a41696,605f324eed9ef913c955179a,United States,Midwest,13 or older,no,2021-03-27_09h26.21.154,empathy_intonation_perc,2020.2.10,Win32,60,,,,,,,,,,0,argentine,0,1,1.928415,0,46,46,14,1,15,./stim/wavs/andalusian_match_declarative-narrow-focus_Mariano-habla-del-tiempo.wav,./stim/wavs/argentine_match_declarative-narrow-focus_Mariano-habla-del-tiempo.wav,./stim/wavs/castilian_match_declarative-narrow-focus_Mariano-habla-del-tiempo.wav,./stim/wavs/chilean_match_declarative-narrow-focus_Mariano-habla-del-tiempo.wav,./stim/wavs/cuban_match_declarative-narrow-focus_Mariano-habla-del-tiempo.wav,./stim/wavs/mexican_match_declarative-narrow-focus_Mariano-habla-del-tiempo.wav,./stim/wavs/peruvian_match_declarative-narrow-focus_Mariano-habla-del-tiempo.wav,./stim/wavs/puertorican_match_declarative-narrow-focus_Mariano-habla-del-tiempo.wav,,,,,,,,,,,,,,,,,,,,,,,,,,,,,,,,,,,,,,,,,,,,,,,,,,,,,,,,
,,,,,,,5f3810bc8049e40ad7b6909a,605b45a4d25f287719a41696,605f324eed9ef913c955179a,United States,Midwest,13 or older,no,2021-03-27_09h26.21.154,empathy_intonation_perc,2020.2.10,Win32,60,,,,,,,,,,0,castilian,0,1,1.684175,0,47,47,33,1,34,./stim/wavs/andalusian_mismatch_declarative-broad-focus_El-hombre-mira-la-luna.wav,./stim/wavs/argentine_mismatch_declarative-broad-focus_El-hombre-mira-la-luna.wav,./stim/wavs/castilian_mismatch_declarative-broad-focus_El-hombre-mira-la-luna.wav,./stim/wavs/chilean_mismatch_declarative-broad-focus_El-hombre-mira-la-luna.wav,./stim/wavs/cuban_mismatch_declarative-broad-focus_El-hombre-mira-la-luna.wav,./stim/wavs/mexican_mismatch_declarative-broad-focus_El-hombre-mira-la-luna.wav,./stim/wavs/peruvian_mismatch_declarative-broad-focus_El-hombre-mira-la-luna.wav,./stim/wavs/puertorican_mismatch_declarative-broad-focus_El-hombre-mira-la-luna.wav,,,,,,,,,,,,,,,,,,,,,,,,,,,,,,,,,,,,,,,,,,,,,,,,,,,,,,,,
,,,,,,,5f3810bc8049e40ad7b6909a,605b45a4d25f287719a41696,605f324eed9ef913c955179a,United States,Midwest,13 or older,no,2021-03-27_09h26.21.154,empathy_intonation_perc,2020.2.10,Win32,60,,,,,,,,,,1,cuban,0,0,1.84185,0,48,48,60,1,61,./stim/wavs/andalusian_mismatch_interrogative-total-yn_La-nina-lava-el-plato.wav,./stim/wavs/argentine_mismatch_interrogative-total-yn_La-nina-lava-el-plato.wav,./stim/wavs/castilian_mismatch_interrogative-total-yn_La-nina-lava-el-plato.wav,./stim/wavs/chilean_mismatch_interrogative-total-yn_La-nina-lava-el-plato.wav,./stim/wavs/cuban_mismatch_interrogative-total-yn_La-nina-lava-el-plato.wav,./stim/wavs/mexican_mismatch_interrogative-total-yn_La-nina-lava-el-plato.wav,./stim/wavs/peruvian_mismatch_interrogative-total-yn_La-nina-lava-el-plato.wav,./stim/wavs/puertorican_mismatch_interrogative-total-yn_La-nina-lava-el-plato.wav,,,,,,,,,,,,,,,,,,,,,,,,,,,,,,,,,,,,,,,,,,,,,,,,,,,,,,,,
,,,,,,,5f3810bc8049e40ad7b6909a,605b45a4d25f287719a41696,605f324eed9ef913c955179a,United States,Midwest,13 or older,no,2021-03-27_09h26.21.154,empathy_intonation_perc,2020.2.10,Win32,60,,,,,,,,,,0,chilean,0,1,1.411605,0,49,49,9,1,10,./stim/wavs/andalusian_match_declarative-narrow-focus_Daniel-iba-a-Bolivia.wav,./stim/wavs/argentine_match_declarative-narrow-focus_Daniel-iba-a-Bolivia.wav,./stim/wavs/castilian_match_declarative-narrow-focus_Daniel-iba-a-Bolivia.wav,./stim/wavs/chilean_match_declarative-narrow-focus_Daniel-iba-a-Bolivia.wav,./stim/wavs/cuban_match_declarative-narrow-focus_Daniel-iba-a-Bolivia.wav,./stim/wavs/mexican_match_declarative-narrow-focus_Daniel-iba-a-Bolivia.wav,./stim/wavs/peruvian_match_declarative-narrow-focus_Daniel-iba-a-Bolivia.wav,./stim/wavs/puertorican_match_declarative-narrow-focus_Daniel-iba-a-Bolivia.wav,,,,,,,,,,,,,,,,,,,,,,,,,,,,,,,,,,,,,,,,,,,,,,,,,,,,,,,,
,,,,,,,5f3810bc8049e40ad7b6909a,605b45a4d25f287719a41696,605f324eed9ef913c955179a,United States,Midwest,13 or older,no,2021-03-27_09h26.21.154,empathy_intonation_perc,2020.2.10,Win32,60,,,,,,,,,,1,mexican,1,1,1.47902,0,50,50,49,1,50,./stim/wavs/andalusian_mismatch_interrogative-partial-wh_Cuando-lavaba-el-plato.wav,./stim/wavs/argentine_mismatch_interrogative-partial-wh_Cuando-lavaba-el-plato.wav,./stim/wavs/castilian_mismatch_interrogative-partial-wh_Cuando-lavaba-el-plato.wav,./stim/wavs/chilean_mismatch_interrogative-partial-wh_Cuando-lavaba-el-plato.wav,./stim/wavs/cuban_mismatch_interrogative-partial-wh_Cuando-lavaba-el-plato.wav,./stim/wavs/mexican_mismatch_interrogative-partial-wh_Cuando-lavaba-el-plato.wav,./stim/wavs/peruvian_mismatch_interrogative-partial-wh_Cuando-lavaba-el-plato.wav,./stim/wavs/puertorican_mismatch_interrogative-partial-wh_Cuando-lavaba-el-plato.wav,,,,,,,,,,,,,,,,,,,,,,,,,,,,,,,,,,,,,,,,,,,,,,,,,,,,,,,,
,,,,,,,5f3810bc8049e40ad7b6909a,605b45a4d25f287719a41696,605f324eed9ef913c955179a,United States,Midwest,13 or older,no,2021-03-27_09h26.21.154,empathy_intonation_perc,2020.2.10,Win32,60,,,,,,,,,,1,cuban,0,0,1.459565,0,51,51,31,1,32,./stim/wavs/andalusian_match_interrogative-total-yn_Marta-abre-el-regalo.wav,./stim/wavs/argentine_match_interrogative-total-yn_Marta-abre-el-regalo.wav,./stim/wavs/castilian_match_interrogative-total-yn_Marta-abre-el-regalo.wav,./stim/wavs/chilean_match_interrogative-total-yn_Marta-abre-el-regalo.wav,./stim/wavs/cuban_match_interrogative-total-yn_Marta-abre-el-regalo.wav,./stim/wavs/mexican_match_interrogative-total-yn_Marta-abre-el-regalo.wav,./stim/wavs/peruvian_match_interrogative-total-yn_Marta-abre-el-regalo.wav,./stim/wavs/puertorican_match_interrogative-total-yn_Marta-abre-el-regalo.wav,,,,,,,,,,,,,,,,,,,,,,,,,,,,,,,,,,,,,,,,,,,,,,,,,,,,,,,,
,,,,,,,5f3810bc8049e40ad7b6909a,605b45a4d25f287719a41696,605f324eed9ef913c955179a,United States,Midwest,13 or older,no,2021-03-27_09h26.21.154,empathy_intonation_perc,2020.2.10,Win32,60,,,,,,,,,,1,argentine,1,1,1.507865,0,52,52,18,1,19,./stim/wavs/andalusian_match_interrogative-partial-wh_Cuando-lleva-el-abrigo.wav,./stim/wavs/argentine_match_interrogative-partial-wh_Cuando-lleva-el-abrigo.wav,./stim/wavs/castilian_match_interrogative-partial-wh_Cuando-lleva-el-abrigo.wav,./stim/wavs/chilean_match_interrogative-partial-wh_Cuando-lleva-el-abrigo.wav,./stim/wavs/cuban_match_interrogative-partial-wh_Cuando-lleva-el-abrigo.wav,./stim/wavs/mexican_match_interrogative-partial-wh_Cuando-lleva-el-abrigo.wav,./stim/wavs/peruvian_match_interrogative-partial-wh_Cuando-lleva-el-abrigo.wav,./stim/wavs/puertorican_match_interrogative-partial-wh_Cuando-lleva-el-abrigo.wav,,,,,,,,,,,,,,,,,,,,,,,,,,,,,,,,,,,,,,,,,,,,,,,,,,,,,,,,
,,,,,,,5f3810bc8049e40ad7b6909a,605b45a4d25f287719a41696,605f324eed9ef913c955179a,United States,Midwest,13 or older,no,2021-03-27_09h26.21.154,empathy_intonation_perc,2020.2.10,Win32,60,,,,,,,,,,1,chilean,1,1,1.40895,0,53,53,19,1,20,./stim/wavs/andalusian_match_interrogative-partial-wh_Cuando-vendia-el-carro.wav,./stim/wavs/argentine_match_interrogative-partial-wh_Cuando-vendia-el-carro.wav,./stim/wavs/castilian_match_interrogative-partial-wh_Cuando-vendia-el-carro.wav,./stim/wavs/chilean_match_interrogative-partial-wh_Cuando-vendia-el-carro.wav,./stim/wavs/cuban_match_interrogative-partial-wh_Cuando-vendia-el-carro.wav,./stim/wavs/mexican_match_interrogative-partial-wh_Cuando-vendia-el-carro.wav,./stim/wavs/peruvian_match_interrogative-partial-wh_Cuando-vendia-el-carro.wav,./stim/wavs/puertorican_match_interrogative-partial-wh_Cuando-vendia-el-carro.wav,,,,,,,,,,,,,,,,,,,,,,,,,,,,,,,,,,,,,,,,,,,,,,,,,,,,,,,,
,,,,,,,5f3810bc8049e40ad7b6909a,605b45a4d25f287719a41696,605f324eed9ef913c955179a,United States,Midwest,13 or older,no,2021-03-27_09h26.21.154,empathy_intonation_perc,2020.2.10,Win32,60,,,,,,,,,,1,andalusian,1,1,1.398445,0,54,54,55,1,56,./stim/wavs/andalusian_mismatch_interrogative-partial-wh_Por-que-vivia-en-Paris.wav,./stim/wavs/argentine_mismatch_interrogative-partial-wh_Por-que-vivia-en-Paris.wav,./stim/wavs/castilian_mismatch_interrogative-partial-wh_Por-que-vivia-en-Paris.wav,./stim/wavs/chilean_mismatch_interrogative-partial-wh_Por-que-vivia-en-Paris.wav,./stim/wavs/cuban_mismatch_interrogative-partial-wh_Por-que-vivia-en-Paris.wav,./stim/wavs/mexican_mismatch_interrogative-partial-wh_Por-que-vivia-en-Paris.wav,./stim/wavs/peruvian_mismatch_interrogative-partial-wh_Por-que-vivia-en-Paris.wav,./stim/wavs/puertorican_mismatch_interrogative-partial-wh_Por-que-vivia-en-Paris.wav,,,,,,,,,,,,,,,,,,,,,,,,,,,,,,,,,,,,,,,,,,,,,,,,,,,,,,,,
,,,,,,,5f3810bc8049e40ad7b6909a,605b45a4d25f287719a41696,605f324eed9ef913c955179a,United States,Midwest,13 or older,no,2021-03-27_09h26.21.154,empathy_intonation_perc,2020.2.10,Win32,60,,,,,,,,,,0,peruvian,0,1,1.631705,0,55,55,10,1,11,./stim/wavs/andalusian_match_declarative-narrow-focus_David-leia-el-libro.wav,./stim/wavs/argentine_match_declarative-narrow-focus_David-leia-el-libro.wav,./stim/wavs/castilian_match_declarative-narrow-focus_David-leia-el-libro.wav,./stim/wavs/chilean_match_declarative-narrow-focus_David-leia-el-libro.wav,./stim/wavs/cuban_match_declarative-narrow-focus_David-leia-el-libro.wav,./stim/wavs/mexican_match_declarative-narrow-focus_David-leia-el-libro.wav,./stim/wavs/peruvian_match_declarative-narrow-focus_David-leia-el-libro.wav,./stim/wavs/puertorican_match_declarative-narrow-focus_David-leia-el-libro.wav,,,,,,,,,,,,,,,,,,,,,,,,,,,,,,,,,,,,,,,,,,,,,,,,,,,,,,,,
,,,,,,,5f3810bc8049e40ad7b6909a,605b45a4d25f287719a41696,605f324eed9ef913c955179a,United States,Midwest,13 or older,no,2021-03-27_09h26.21.154,empathy_intonation_perc,2020.2.10,Win32,60,,,,,,,,,,1,chilean,1,1,1.616655,0,56,56,54,1,55,./stim/wavs/andalusian_mismatch_interrogative-partial-wh_Por-que-venia-del-lago.wav,./stim/wavs/argentine_mismatch_interrogative-partial-wh_Por-que-venia-del-lago.wav,./stim/wavs/castilian_mismatch_interrogative-partial-wh_Por-que-venia-del-lago.wav,./stim/wavs/chilean_mismatch_interrogative-partial-wh_Por-que-venia-del-lago.wav,./stim/wavs/cuban_mismatch_interrogative-partial-wh_Por-que-venia-del-lago.wav,./stim/wavs/mexican_mismatch_interrogative-partial-wh_Por-que-venia-del-lago.wav,./stim/wavs/peruvian_mismatch_interrogative-partial-wh_Por-que-venia-del-lago.wav,./stim/wavs/puertorican_mismatch_interrogative-partial-wh_Por-que-venia-del-lago.wav,,,,,,,,,,,,,,,,,,,,,,,,,,,,,,,,,,,,,,,,,,,,,,,,,,,,,,,,
,,,,,,,5f3810bc8049e40ad7b6909a,605b45a4d25f287719a41696,605f324eed9ef913c955179a,United States,Midwest,13 or older,no,2021-03-27_09h26.21.154,empathy_intonation_perc,2020.2.10,Win32,60,,,,,,,,,,0,mexican,0,1,1.39581,0,57,57,0,1,1,./stim/wavs/andalusian_match_declarative-broad-focus_Ana-lleva-el-abrigo.wav,./stim/wavs/argentine_match_declarative-broad-focus_Ana-lleva-el-abrigo.wav,./stim/wavs/castilian_match_declarative-broad-focus_Ana-lleva-el-abrigo.wav,./stim/wavs/chilean_match_declarative-broad-focus_Ana-lleva-el-abrigo.wav,./stim/wavs/cuban_match_declarative-broad-focus_Ana-lleva-el-abrigo.wav,./stim/wavs/mexican_match_declarative-broad-focus_Ana-lleva-el-abrigo.wav,./stim/wavs/peruvian_match_declarative-broad-focus_Ana-lleva-el-abrigo.wav,./stim/wavs/puertorican_match_declarative-broad-focus_Ana-lleva-el-abrigo.wav,,,,,,,,,,,,,,,,,,,,,,,,,,,,,,,,,,,,,,,,,,,,,,,,,,,,,,,,
,,,,,,,5f3810bc8049e40ad7b6909a,605b45a4d25f287719a41696,605f324eed9ef913c955179a,United States,Midwest,13 or older,no,2021-03-27_09h26.21.154,empathy_intonation_perc,2020.2.10,Win32,60,,,,,,,,,,0,puertorican,0,1,1.51734,0,58,58,40,1,41,./stim/wavs/andalusian_mismatch_declarative-narrow-focus_El-bebe-comia-muy-bien.wav,./stim/wavs/argentine_mismatch_declarative-narrow-focus_El-bebe-comia-muy-bien.wav,./stim/wavs/castilian_mismatch_declarative-narrow-focus_El-bebe-comia-muy-bien.wav,./stim/wavs/chilean_mismatch_declarative-narrow-focus_El-bebe-comia-muy-bien.wav,./stim/wavs/cuban_mismatch_declarative-narrow-focus_El-bebe-comia-muy-bien.wav,./stim/wavs/mexican_mismatch_declarative-narrow-focus_El-bebe-comia-muy-bien.wav,./stim/wavs/peruvian_mismatch_declarative-narrow-focus_El-bebe-comia-muy-bien.wav,./stim/wavs/puertorican_mismatch_declarative-narrow-focus_El-bebe-comia-muy-bien.wav,,,,,,,,,,,,,,,,,,,,,,,,,,,,,,,,,,,,,,,,,,,,,,,,,,,,,,,,
,,,,,,,5f3810bc8049e40ad7b6909a,605b45a4d25f287719a41696,605f324eed9ef913c955179a,United States,Midwest,13 or older,no,2021-03-27_09h26.21.154,empathy_intonation_perc,2020.2.10,Win32,60,,,,,,,,,,1,peruvian,0,0,1.839935,0,59,59,53,1,54,./stim/wavs/andalusian_mismatch_interrogative-partial-wh_Por-que-oia-el-rio.wav,./stim/wavs/argentine_mismatch_interrogative-partial-wh_Por-que-oia-el-rio.wav,./stim/wavs/castilian_mismatch_interrogative-partial-wh_Por-que-oia-el-rio.wav,./stim/wavs/chilean_mismatch_interrogative-partial-wh_Por-que-oia-el-rio.wav,./stim/wavs/cuban_mismatch_interrogative-partial-wh_Por-que-oia-el-rio.wav,./stim/wavs/mexican_mismatch_interrogative-partial-wh_Por-que-oia-el-rio.wav,./stim/wavs/peruvian_mismatch_interrogative-partial-wh_Por-que-oia-el-rio.wav,./stim/wavs/puertorican_mismatch_interrogative-partial-wh_Por-que-oia-el-rio.wav,,,,,,,,,,,,,,,,,,,,,,,,,,,,,,,,,,,,,,,,,,,,,,,,,,,,,,,,
,,,,,,,5f3810bc8049e40ad7b6909a,605b45a4d25f287719a41696,605f324eed9ef913c955179a,United States,Midwest,13 or older,no,2021-03-27_09h26.21.154,empathy_intonation_perc,2020.2.10,Win32,60,,,,,,,,,,1,puertorican,0,0,1.633555,0,60,60,27,1,28,./stim/wavs/andalusian_match_interrogative-total-yn_Emilio-ama-la-marcha.wav,./stim/wavs/argentine_match_interrogative-total-yn_Emilio-ama-la-marcha.wav,./stim/wavs/castilian_match_interrogative-total-yn_Emilio-ama-la-marcha.wav,./stim/wavs/chilean_match_interrogative-total-yn_Emilio-ama-la-marcha.wav,./stim/wavs/cuban_match_interrogative-total-yn_Emilio-ama-la-marcha.wav,./stim/wavs/mexican_match_interrogative-total-yn_Emilio-ama-la-marcha.wav,./stim/wavs/peruvian_match_interrogative-total-yn_Emilio-ama-la-marcha.wav,./stim/wavs/puertorican_match_interrogative-total-yn_Emilio-ama-la-marcha.wav,,,,,,,,,,,,,,,,,,,,,,,,,,,,,,,,,,,,,,,,,,,,,,,,,,,,,,,,
,,,,,,,5f3810bc8049e40ad7b6909a,605b45a4d25f287719a41696,605f324eed9ef913c955179a,United States,Midwest,13 or older,no,2021-03-27_09h26.21.154,empathy_intonation_perc,2020.2.10,Win32,60,,,,,,,,,,1,andalusian,1,1,1.676715,0,61,61,59,1,60,./stim/wavs/andalusian_mismatch_interrogative-total-yn_La-maestra-vive-en-Paris.wav,./stim/wavs/argentine_mismatch_interrogative-total-yn_La-maestra-vive-en-Paris.wav,./stim/wavs/castilian_mismatch_interrogative-total-yn_La-maestra-vive-en-Paris.wav,./stim/wavs/chilean_mismatch_interrogative-total-yn_La-maestra-vive-en-Paris.wav,./stim/wavs/cuban_mismatch_interrogative-total-yn_La-maestra-vive-en-Paris.wav,./stim/wavs/mexican_mismatch_interrogative-total-yn_La-maestra-vive-en-Paris.wav,./stim/wavs/peruvian_mismatch_interrogative-total-yn_La-maestra-vive-en-Paris.wav,./stim/wavs/puertorican_mismatch_interrogative-total-yn_La-maestra-vive-en-Paris.wav,,,,,,,,,,,,,,,,,,,,,,,,,,,,,,,,,,,,,,,,,,,,,,,,,,,,,,,,
,,,,,,,5f3810bc8049e40ad7b6909a,605b45a4d25f287719a41696,605f324eed9ef913c955179a,United States,Midwest,13 or older,no,2021-03-27_09h26.21.154,empathy_intonation_perc,2020.2.10,Win32,60,,,,,,,,,,1,castilian,1,1,1.482315,0,62,62,22,1,23,./stim/wavs/andalusian_match_interrogative-partial-wh_Por-que-hablaba-del-agua.wav,./stim/wavs/argentine_match_interrogative-partial-wh_Por-que-hablaba-del-agua.wav,./stim/wavs/castilian_match_interrogative-partial-wh_Por-que-hablaba-del-agua.wav,./stim/wavs/chilean_match_interrogative-partial-wh_Por-que-hablaba-del-agua.wav,./stim/wavs/cuban_match_interrogative-partial-wh_Por-que-hablaba-del-agua.wav,./stim/wavs/mexican_match_interrogative-partial-wh_Por-que-hablaba-del-agua.wav,./stim/wavs/peruvian_match_interrogative-partial-wh_Por-que-hablaba-del-agua.wav,./stim/wavs/puertorican_match_interrogative-partial-wh_Por-que-hablaba-del-agua.wav,,,,,,,,,,,,,,,,,,,,,,,,,,,,,,,,,,,,,,,,,,,,,,,,,,,,,,,,
,,,,,,,5f3810bc8049e40ad7b6909a,605b45a4d25f287719a41696,605f324eed9ef913c955179a,United States,Midwest,13 or older,no,2021-03-27_09h26.21.154,empathy_intonation_perc,2020.2.10,Win32,60,,,,,,,,,,1,peruvian,0,0,1.58282,0,63,63,24,1,25,./stim/wavs/andalusian_match_interrogative-total-yn_Ana-lleva-el-abrigo.wav,./stim/wavs/argentine_match_interrogative-total-yn_Ana-lleva-el-abrigo.wav,./stim/wavs/castilian_match_interrogative-total-yn_Ana-lleva-el-abrigo.wav,./stim/wavs/chilean_match_interrogative-total-yn_Ana-lleva-el-abrigo.wav,./stim/wavs/cuban_match_interrogative-total-yn_Ana-lleva-el-abrigo.wav,./stim/wavs/mexican_match_interrogative-total-yn_Ana-lleva-el-abrigo.wav,./stim/wavs/peruvian_match_interrogative-total-yn_Ana-lleva-el-abrigo.wav,./stim/wavs/puertorican_match_interrogative-total-yn_Ana-lleva-el-abrigo.wav,,,,,,,,,,,,,,,,,,,,,,,,,,,,,,,,,,,,,,,,,,,,,,,,,,,,,,,,
,,,,,,,5f3810bc8049e40ad7b6909a,605b45a4d25f287719a41696,605f324eed9ef913c955179a,United States,Midwest,13 or older,no,2021-03-27_09h26.21.154,empathy_intonation_perc,2020.2.10,Win32,60,,,,,,,,,,,,,,,,,,,,,,,,,,,,,h,1,5.31927,0,0,0,0,1,,,,,,,,,,,,,,,,,,,,,,,,,,,,,,,,,,,,,,,,,,,,,,,,
,,,,,"Great! Now we will move on. The next task consists of about 60 trials, in each of which you will see a string of letters. 
  
  Your task is to decide whether this is a real Spanish word or not.",(press the spacebar to continue),5f3810bc8049e40ad7b6909a,605b45a4d25f287719a41696,605f324eed9ef913c955179a,United States,Midwest,13 or older,no,2021-03-27_09h26.21.154,empathy_intonation_perc,2020.2.10,Win32,60,,,,,,,,,,,,,,,,,,,,,,,,,,,,,,,,,,,,,0,0,0,0,1,,,,,,,,,,,,,,,,,,,,,,,,,,,,,,,,,,,,,,,,,,,
,,,,,"If you think it is an existing Spanish word, you type '1' (for 'REAL'), and if you think it is not an existing Spanish word, you type '0' (for 'FAKE').",(press the spacebar to continue),5f3810bc8049e40ad7b6909a,605b45a4d25f287719a41696,605f324eed9ef913c955179a,United States,Midwest,13 or older,no,2021-03-27_09h26.21.154,empathy_intonation_perc,2020.2.10,Win32,60,,,,,,,,,,,,,,,,,,,,,,,,,,,,,,,,,,,,,0,1,1,1,1,,,,,,,,,,,,,,,,,,,,,,,,,,,,,,,,,,,,,,,,,,,
,,,,,"If you are sure that the word exists, even though you dont know its exact meaning, you may still respond '1' (REAL). 
  
  But if you are not sure if it is an existing word, you should respond '0' (FAKE).
  
  Let's do a practice round...",(press the spacebar to continue),5f3810bc8049e40ad7b6909a,605b45a4d25f287719a41696,605f324eed9ef913c955179a,United States,Midwest,13 or older,no,2021-03-27_09h26.21.154,empathy_intonation_perc,2020.2.10,Win32,60,,,,,,,,,,,,,,,,,,,,,,,,,,,,,,,,,,,,,0,2,2,2,1,,,,,,,,,,,,,,,,,,,,,,,,,,,,,,,,,,,,,,,,,,,
,,,,,,,5f3810bc8049e40ad7b6909a,605b45a4d25f287719a41696,605f324eed9ef913c955179a,United States,Midwest,13 or older,no,2021-03-27_09h26.21.154,empathy_intonation_perc,2020.2.10,Win32,60,,,,,,,,,,0,,,,,,,,,,,,,,,,,,,,,,,,,,,,,,,,1,0,1.953165,0,0,0,0,1,0,depiste,REAL,FAKE,,,,,,,,,,,,,,,,,,,,,,,,,,,,,,,
,,,,,,,5f3810bc8049e40ad7b6909a,605b45a4d25f287719a41696,605f324eed9ef913c955179a,United States,Midwest,13 or older,no,2021-03-27_09h26.21.154,empathy_intonation_perc,2020.2.10,Win32,60,,,,,,,,,,1,,,,,,,,,,,,,,,,,,,,,,,,,,,,,,,,1,1,0.93084,0,1,1,1,1,0,s,REAL,FAKE,,,,,,,,,,,,,,,,,,,,,,,,,,,,,,,
,,,,,,,5f3810bc8049e40ad7b6909a,605b45a4d25f287719a41696,605f324eed9ef913c955179a,United States,Midwest,13 or older,no,2021-03-27_09h26.21.154,empathy_intonation_perc,2020.2.10,Win32,60,,,,,,,,,,0,,,,,,,,,,,,,,,,,,,,,,,,,,,,,,,,0,1,0.82211,0,2,2,2,1,0,con,REAL,FAKE,,,,,,,,,,,,,,,,,,,,,,,,,,,,,,,
,,,,,,,5f3810bc8049e40ad7b6909a,605b45a4d25f287719a41696,605f324eed9ef913c955179a,United States,Midwest,13 or older,no,2021-03-27_09h26.21.154,empathy_intonation_perc,2020.2.10,Win32,60,,,,,,,,,,0,,,,,,,,,,,,,,,,,,,,,,,,,,,,,,,,1,0,0.700175,0,3,3,3,1,0,calpar,REAL,FAKE,,,,,,,,,,,,,,,,,,,,,,,,,,,,,,,
,,,,,,,5f3810bc8049e40ad7b6909a,605b45a4d25f287719a41696,605f324eed9ef913c955179a,United States,Midwest,13 or older,no,2021-03-27_09h26.21.154,empathy_intonation_perc,2020.2.10,Win32,60,,,,,,,,,,0,,,,,,,,,,,,,,,,,,,,,,,,,,,,,,,,0,1,0.658655,0,4,4,4,1,0,joten,REAL,FAKE,,,,,,,,,,,,,,,,,,,,,,,,,,,,,,,
,,,,,,,5f3810bc8049e40ad7b6909a,605b45a4d25f287719a41696,605f324eed9ef913c955179a,United States,Midwest,13 or older,no,2021-03-27_09h26.21.154,empathy_intonation_perc,2020.2.10,Win32,60,,,,,,,,,,1,,,,,,,,,,,,,,,,,,,,,,,,,,,,,,,,1,1,0.872915,0,5,5,5,1,0,sacapuntas,REAL,FAKE,,,,,,,,,,,,,,,,,,,,,,,,,,,,,,,
,,,,,,,5f3810bc8049e40ad7b6909a,605b45a4d25f287719a41696,605f324eed9ef913c955179a,United States,Midwest,13 or older,no,2021-03-27_09h26.21.154,empathy_intonation_perc,2020.2.10,Win32,60,,,,,,,,,,0,,,,,,,,,,,,,,,,,,,,,,,,,,,,,,,,0,1,0.57898,0,6,6,6,1,0,priba,REAL,FAKE,,,,,,,,,,,,,,,,,,,,,,,,,,,,,,,
,,,,,,,5f3810bc8049e40ad7b6909a,605b45a4d25f287719a41696,605f324eed9ef913c955179a,United States,Midwest,13 or older,no,2021-03-27_09h26.21.154,empathy_intonation_perc,2020.2.10,Win32,60,,,,,,,,,,0,,,,,,,,,,,,,,,,,,,,,,,,,,,,,,,,1,0,0.739065,0,7,7,7,1,0,pelasula,REAL,FAKE,,,,,,,,,,,,,,,,,,,,,,,,,,,,,,,
,,,,,,,5f3810bc8049e40ad7b6909a,605b45a4d25f287719a41696,605f324eed9ef913c955179a,United States,Midwest,13 or older,no,2021-03-27_09h26.21.154,empathy_intonation_perc,2020.2.10,Win32,60,,,,,,,,,,1,,,,,,,,,,,,,,,,,,,,,,,,,,,,,,,,1,1,0.54865,0,8,8,8,1,0,bien,REAL,FAKE,,,,,,,,,,,,,,,,,,,,,,,,,,,,,,,
,,,,,,,5f3810bc8049e40ad7b6909a,605b45a4d25f287719a41696,605f324eed9ef913c955179a,United States,Midwest,13 or older,no,2021-03-27_09h26.21.154,empathy_intonation_perc,2020.2.10,Win32,60,,,,,,,,,,1,,,,,,,,,,,,,,,,,,,,,,,,,,,,,,,,1,1,0.49566,0,9,9,9,1,0,casa,REAL,FAKE,,,,,,,,,,,,,,,,,,,,,,,,,,,,,,,
,,,,,,,5f3810bc8049e40ad7b6909a,605b45a4d25f287719a41696,605f324eed9ef913c955179a,United States,Midwest,13 or older,no,2021-03-27_09h26.21.154,empathy_intonation_perc,2020.2.10,Win32,60,,,,,,,,,,0,,,,,,,,,,,,,,,,,,,,,,,,,,,,,,,,0,1,0.581915,0,10,10,10,1,0,lejo,REAL,FAKE,,,,,,,,,,,,,,,,,,,,,,,,,,,,,,,
,,,,,,,5f3810bc8049e40ad7b6909a,605b45a4d25f287719a41696,605f324eed9ef913c955179a,United States,Midwest,13 or older,no,2021-03-27_09h26.21.154,empathy_intonation_perc,2020.2.10,Win32,60,,,,,,,,,,0,,,,,,,,,,,,,,,,,,,,,,,,,,,,,,,,1,0,1.27347,0,11,11,11,1,0,pretantas,REAL,FAKE,,,,,,,,,,,,,,,,,,,,,,,,,,,,,,,
,,,,,,,5f3810bc8049e40ad7b6909a,605b45a4d25f287719a41696,605f324eed9ef913c955179a,United States,Midwest,13 or older,no,2021-03-27_09h26.21.154,empathy_intonation_perc,2020.2.10,Win32,60,,,,,,,,,,0,,,,,,,,,,,,,,,,,,,,,,,,,,,,,,,,,,,,,,,,10,antar,,,1,0,0.90627,0,0,0,9,1,REAL,FAKE,,,,,,,,,,,,,,,,,,,,,
,,,,,,,5f3810bc8049e40ad7b6909a,605b45a4d25f287719a41696,605f324eed9ef913c955179a,United States,Midwest,13 or older,no,2021-03-27_09h26.21.154,empathy_intonation_perc,2020.2.10,Win32,60,,,,,,,,,,1,,,,,,,,,,,,,,,,,,,,,,,,,,,,,,,,,,,,,,,,9,hacha,,,0,0,0.960975,0,1,1,8,1,REAL,FAKE,,,,,,,,,,,,,,,,,,,,,
,,,,,,,5f3810bc8049e40ad7b6909a,605b45a4d25f287719a41696,605f324eed9ef913c955179a,United States,Midwest,13 or older,no,2021-03-27_09h26.21.154,empathy_intonation_perc,2020.2.10,Win32,60,,,,,,,,,,0,,,,,,,,,,,,,,,,,,,,,,,,,,,,,,,,,,,,,,,,23,lampera,,,1,0,0.668115,0,2,2,22,1,REAL,FAKE,,,,,,,,,,,,,,,,,,,,,
,,,,,,,5f3810bc8049e40ad7b6909a,605b45a4d25f287719a41696,605f324eed9ef913c955179a,United States,Midwest,13 or older,no,2021-03-27_09h26.21.154,empathy_intonation_perc,2020.2.10,Win32,60,,,,,,,,,,1,,,,,,,,,,,,,,,,,,,,,,,,,,,,,,,,,,,,,,,,90,clavel,,,0,0,0.71459,0,3,3,89,1,REAL,FAKE,,,,,,,,,,,,,,,,,,,,,
,,,,,,,5f3810bc8049e40ad7b6909a,605b45a4d25f287719a41696,605f324eed9ef913c955179a,United States,Midwest,13 or older,no,2021-03-27_09h26.21.154,empathy_intonation_perc,2020.2.10,Win32,60,,,,,,,,,,1,,,,,,,,,,,,,,,,,,,,,,,,,,,,,,,,,,,,,,,,76,atar,,,1,1,1.403515,0,4,4,75,1,REAL,FAKE,,,,,,,,,,,,,,,,,,,,,
,,,,,,,5f3810bc8049e40ad7b6909a,605b45a4d25f287719a41696,605f324eed9ef913c955179a,United States,Midwest,13 or older,no,2021-03-27_09h26.21.154,empathy_intonation_perc,2020.2.10,Win32,60,,,,,,,,,,1,,,,,,,,,,,,,,,,,,,,,,,,,,,,,,,,,,,,,,,,5,zapato,,,1,1,0.631375,0,5,5,4,1,REAL,FAKE,,,,,,,,,,,,,,,,,,,,,
,,,,,,,5f3810bc8049e40ad7b6909a,605b45a4d25f287719a41696,605f324eed9ef913c955179a,United States,Midwest,13 or older,no,2021-03-27_09h26.21.154,empathy_intonation_perc,2020.2.10,Win32,60,,,,,,,,,,0,,,,,,,,,,,,,,,,,,,,,,,,,,,,,,,,,,,,,,,,42,cadallo,,,0,1,0.91404,0,6,6,41,1,REAL,FAKE,,,,,,,,,,,,,,,,,,,,,
,,,,,,,5f3810bc8049e40ad7b6909a,605b45a4d25f287719a41696,605f324eed9ef913c955179a,United States,Midwest,13 or older,no,2021-03-27_09h26.21.154,empathy_intonation_perc,2020.2.10,Win32,60,,,,,,,,,,1,,,,,,,,,,,,,,,,,,,,,,,,,,,,,,,,,,,,,,,,26,secuestro,,,1,1,1.01119,0,7,7,25,1,REAL,FAKE,,,,,,,,,,,,,,,,,,,,,
,,,,,,,5f3810bc8049e40ad7b6909a,605b45a4d25f287719a41696,605f324eed9ef913c955179a,United States,Midwest,13 or older,no,2021-03-27_09h26.21.154,empathy_intonation_perc,2020.2.10,Win32,60,,,,,,,,,,0,,,,,,,,,,,,,,,,,,,,,,,,,,,,,,,,,,,,,,,,21,capillo,,,0,1,1.11176,0,8,8,20,1,REAL,FAKE,,,,,,,,,,,,,,,,,,,,,
,,,,,,,5f3810bc8049e40ad7b6909a,605b45a4d25f287719a41696,605f324eed9ef913c955179a,United States,Midwest,13 or older,no,2021-03-27_09h26.21.154,empathy_intonation_perc,2020.2.10,Win32,60,,,,,,,,,,1,,,,,,,,,,,,,,,,,,,,,,,,,,,,,,,,,,,,,,,,64,orgulloso,,,0,0,0.649285,0,9,9,63,1,REAL,FAKE,,,,,,,,,,,,,,,,,,,,,
,,,,,,,5f3810bc8049e40ad7b6909a,605b45a4d25f287719a41696,605f324eed9ef913c955179a,United States,Midwest,13 or older,no,2021-03-27_09h26.21.154,empathy_intonation_perc,2020.2.10,Win32,60,,,,,,,,,,1,,,,,,,,,,,,,,,,,,,,,,,,,,,,,,,,,,,,,,,,57,tacao,,,1,1,0.6291,0,10,10,56,1,REAL,FAKE,,,,,,,,,,,,,,,,,,,,,
,,,,,,,5f3810bc8049e40ad7b6909a,605b45a4d25f287719a41696,605f324eed9ef913c955179a,United States,Midwest,13 or older,no,2021-03-27_09h26.21.154,empathy_intonation_perc,2020.2.10,Win32,60,,,,,,,,,,1,,,,,,,,,,,,,,,,,,,,,,,,,,,,,,,,,,,,,,,,7,psimo,,,1,1,0.779095,0,11,11,6,1,REAL,FAKE,,,,,,,,,,,,,,,,,,,,,
,,,,,,,5f3810bc8049e40ad7b6909a,605b45a4d25f287719a41696,605f324eed9ef913c955179a,United States,Midwest,13 or older,no,2021-03-27_09h26.21.154,empathy_intonation_perc,2020.2.10,Win32,60,,,,,,,,,,0,,,,,,,,,,,,,,,,,,,,,,,,,,,,,,,,,,,,,,,,47,cartinar,,,0,1,0.853755,0,12,12,46,1,REAL,FAKE,,,,,,,,,,,,,,,,,,,,,
,,,,,,,5f3810bc8049e40ad7b6909a,605b45a4d25f287719a41696,605f324eed9ef913c955179a,United States,Midwest,13 or older,no,2021-03-27_09h26.21.154,empathy_intonation_perc,2020.2.10,Win32,60,,,,,,,,,,1,,,,,,,,,,,,,,,,,,,,,,,,,,,,,,,,,,,,,,,,46,martillo,,,1,1,0.712575,0,13,13,45,1,REAL,FAKE,,,,,,,,,,,,,,,,,,,,,
,,,,,,,5f3810bc8049e40ad7b6909a,605b45a4d25f287719a41696,605f324eed9ef913c955179a,United States,Midwest,13 or older,no,2021-03-27_09h26.21.154,empathy_intonation_perc,2020.2.10,Win32,60,,,,,,,,,,1,,,,,,,,,,,,,,,,,,,,,,,,,,,,,,,,,,,,,,,,43,canela,,,1,1,0.553775,0,14,14,42,1,REAL,FAKE,,,,,,,,,,,,,,,,,,,,,
,,,,,,,5f3810bc8049e40ad7b6909a,605b45a4d25f287719a41696,605f324eed9ef913c955179a,United States,Midwest,13 or older,no,2021-03-27_09h26.21.154,empathy_intonation_perc,2020.2.10,Win32,60,,,,,,,,,,1,,,,,,,,,,,,,,,,,,,,,,,,,,,,,,,,,,,,,,,,80,hormiga,,,0,0,0.66275,0,15,15,79,1,REAL,FAKE,,,,,,,,,,,,,,,,,,,,,
,,,,,,,5f3810bc8049e40ad7b6909a,605b45a4d25f287719a41696,605f324eed9ef913c955179a,United States,Midwest,13 or older,no,2021-03-27_09h26.21.154,empathy_intonation_perc,2020.2.10,Win32,60,,,,,,,,,,1,,,,,,,,,,,,,,,,,,,,,,,,,,,,,,,,,,,,,,,,51,candado,,,1,1,0.630465,0,16,16,50,1,REAL,FAKE,,,,,,,,,,,,,,,,,,,,,
,,,,,,,5f3810bc8049e40ad7b6909a,605b45a4d25f287719a41696,605f324eed9ef913c955179a,United States,Midwest,13 or older,no,2021-03-27_09h26.21.154,empathy_intonation_perc,2020.2.10,Win32,60,,,,,,,,,,0,,,,,,,,,,,,,,,,,,,,,,,,,,,,,,,,,,,,,,,,8,cadea,,,1,0,0.96647,0,17,17,7,1,REAL,FAKE,,,,,,,,,,,,,,,,,,,,,
,,,,,,,5f3810bc8049e40ad7b6909a,605b45a4d25f287719a41696,605f324eed9ef913c955179a,United States,Midwest,13 or older,no,2021-03-27_09h26.21.154,empathy_intonation_perc,2020.2.10,Win32,60,,,,,,,,,,1,,,,,,,,,,,,,,,,,,,,,,,,,,,,,,,,,,,,,,,,24,ltigo,,,0,0,0.98423,0,18,18,23,1,REAL,FAKE,,,,,,,,,,,,,,,,,,,,,
,,,,,,,5f3810bc8049e40ad7b6909a,605b45a4d25f287719a41696,605f324eed9ef913c955179a,United States,Midwest,13 or older,no,2021-03-27_09h26.21.154,empathy_intonation_perc,2020.2.10,Win32,60,,,,,,,,,,0,,,,,,,,,,,,,,,,,,,,,,,,,,,,,,,,,,,,,,,,16,abracer,,,0,1,0.770205,0,19,19,15,1,REAL,FAKE,,,,,,,,,,,,,,,,,,,,,
,,,,,,,5f3810bc8049e40ad7b6909a,605b45a4d25f287719a41696,605f324eed9ef913c955179a,United States,Midwest,13 or older,no,2021-03-27_09h26.21.154,empathy_intonation_perc,2020.2.10,Win32,60,,,,,,,,,,0,,,,,,,,,,,,,,,,,,,,,,,,,,,,,,,,,,,,,,,,27,acutacin,,,1,0,1.12844,0,20,20,26,1,REAL,FAKE,,,,,,,,,,,,,,,,,,,,,
,,,,,,,5f3810bc8049e40ad7b6909a,605b45a4d25f287719a41696,605f324eed9ef913c955179a,United States,Midwest,13 or older,no,2021-03-27_09h26.21.154,empathy_intonation_perc,2020.2.10,Win32,60,,,,,,,,,,1,,,,,,,,,,,,,,,,,,,,,,,,,,,,,,,,,,,,,,,,6,tergiversar,,,0,0,0.845315,0,21,21,5,1,REAL,FAKE,,,,,,,,,,,,,,,,,,,,,
,,,,,,,5f3810bc8049e40ad7b6909a,605b45a4d25f287719a41696,605f324eed9ef913c955179a,United States,Midwest,13 or older,no,2021-03-27_09h26.21.154,empathy_intonation_perc,2020.2.10,Win32,60,,,,,,,,,,1,,,,,,,,,,,,,,,,,,,,,,,,,,,,,,,,,,,,,,,,83,guante,,,0,0,0.949645,0,22,22,82,1,REAL,FAKE,,,,,,,,,,,,,,,,,,,,,
,,,,,,,5f3810bc8049e40ad7b6909a,605b45a4d25f287719a41696,605f324eed9ef913c955179a,United States,Midwest,13 or older,no,2021-03-27_09h26.21.154,empathy_intonation_perc,2020.2.10,Win32,60,,,,,,,,,,0,,,,,,,,,,,,,,,,,,,,,,,,,,,,,,,,,,,,,,,,32,fatacidad,,,0,1,1.959805,0,23,23,31,1,REAL,FAKE,,,,,,,,,,,,,,,,,,,,,
,,,,,,,5f3810bc8049e40ad7b6909a,605b45a4d25f287719a41696,605f324eed9ef913c955179a,United States,Midwest,13 or older,no,2021-03-27_09h26.21.154,empathy_intonation_perc,2020.2.10,Win32,60,,,,,,,,,,1,,,,,,,,,,,,,,,,,,,,,,,,,,,,,,,,,,,,,,,,60,matar,,,1,1,0.68217,0,24,24,59,1,REAL,FAKE,,,,,,,,,,,,,,,,,,,,,
,,,,,,,5f3810bc8049e40ad7b6909a,605b45a4d25f287719a41696,605f324eed9ef913c955179a,United States,Midwest,13 or older,no,2021-03-27_09h26.21.154,empathy_intonation_perc,2020.2.10,Win32,60,,,,,,,,,,0,,,,,,,,,,,,,,,,,,,,,,,,,,,,,,,,,,,,,,,,84,escuto,,,1,0,0.54662,0,25,25,83,1,REAL,FAKE,,,,,,,,,,,,,,,,,,,,,
,,,,,,,5f3810bc8049e40ad7b6909a,605b45a4d25f287719a41696,605f324eed9ef913c955179a,United States,Midwest,13 or older,no,2021-03-27_09h26.21.154,empathy_intonation_perc,2020.2.10,Win32,60,,,,,,,,,,0,,,,,,,,,,,,,,,,,,,,,,,,,,,,,,,,,,,,,,,,50,flamida,,,0,1,1.067025,0,26,26,49,1,REAL,FAKE,,,,,,,,,,,,,,,,,,,,,
,,,,,,,5f3810bc8049e40ad7b6909a,605b45a4d25f287719a41696,605f324eed9ef913c955179a,United States,Midwest,13 or older,no,2021-03-27_09h26.21.154,empathy_intonation_perc,2020.2.10,Win32,60,,,,,,,,,,1,,,,,,,,,,,,,,,,,,,,,,,,,,,,,,,,,,,,,,,,25,bisagra,,,0,0,1.115325,0,27,27,24,1,REAL,FAKE,,,,,,,,,,,,,,,,,,,,,
,,,,,,,5f3810bc8049e40ad7b6909a,605b45a4d25f287719a41696,605f324eed9ef913c955179a,United States,Midwest,13 or older,no,2021-03-27_09h26.21.154,empathy_intonation_perc,2020.2.10,Win32,60,,,,,,,,,,1,,,,,,,,,,,,,,,,,,,,,,,,,,,,,,,,,,,,,,,,61,seda,,,0,0,0.63,0,28,28,60,1,REAL,FAKE,,,,,,,,,,,,,,,,,,,,,
,,,,,,,5f3810bc8049e40ad7b6909a,605b45a4d25f287719a41696,605f324eed9ef913c955179a,United States,Midwest,13 or older,no,2021-03-27_09h26.21.154,empathy_intonation_perc,2020.2.10,Win32,60,,,,,,,,,,1,,,,,,,,,,,,,,,,,,,,,,,,,,,,,,,,,,,,,,,,38,estornudar,,,0,0,2.015005,0,29,29,37,1,REAL,FAKE,,,,,,,,,,,,,,,,,,,,,
,,,,,,,5f3810bc8049e40ad7b6909a,605b45a4d25f287719a41696,605f324eed9ef913c955179a,United States,Midwest,13 or older,no,2021-03-27_09h26.21.154,empathy_intonation_perc,2020.2.10,Win32,60,,,,,,,,,,1,,,,,,,,,,,,,,,,,,,,,,,,,,,,,,,,,,,,,,,,78,frondoso,,,0,0,0.707775,0,30,30,77,1,REAL,FAKE,,,,,,,,,,,,,,,,,,,,,
,,,,,,,5f3810bc8049e40ad7b6909a,605b45a4d25f287719a41696,605f324eed9ef913c955179a,United States,Midwest,13 or older,no,2021-03-27_09h26.21.154,empathy_intonation_perc,2020.2.10,Win32,60,,,,,,,,,,0,,,,,,,,,,,,,,,,,,,,,,,,,,,,,,,,,,,,,,,,72,pemicin,,,0,1,1.07836,0,31,31,71,1,REAL,FAKE,,,,,,,,,,,,,,,,,,,,,
,,,,,,,5f3810bc8049e40ad7b6909a,605b45a4d25f287719a41696,605f324eed9ef913c955179a,United States,Midwest,13 or older,no,2021-03-27_09h26.21.154,empathy_intonation_perc,2020.2.10,Win32,60,,,,,,,,,,1,,,,,,,,,,,,,,,,,,,,,,,,,,,,,,,,,,,,,,,,12,asesinato,,,0,0,0.79776,0,32,32,11,1,REAL,FAKE,,,,,,,,,,,,,,,,,,,,,
,,,,,,,5f3810bc8049e40ad7b6909a,605b45a4d25f287719a41696,605f324eed9ef913c955179a,United States,Midwest,13 or older,no,2021-03-27_09h26.21.154,empathy_intonation_perc,2020.2.10,Win32,60,,,,,,,,,,1,,,,,,,,,,,,,,,,,,,,,,,,,,,,,,,,,,,,,,,,81,pozo,,,0,0,0.88668,0,33,33,80,1,REAL,FAKE,,,,,,,,,,,,,,,,,,,,,
,,,,,,,5f3810bc8049e40ad7b6909a,605b45a4d25f287719a41696,605f324eed9ef913c955179a,United States,Midwest,13 or older,no,2021-03-27_09h26.21.154,empathy_intonation_perc,2020.2.10,Win32,60,,,,,,,,,,1,,,,,,,,,,,,,,,,,,,,,,,,,,,,,,,,,,,,,,,,37,granuja,,,1,1,0.821595,0,34,34,36,1,REAL,FAKE,,,,,,,,,,,,,,,,,,,,,
,,,,,,,5f3810bc8049e40ad7b6909a,605b45a4d25f287719a41696,605f324eed9ef913c955179a,United States,Midwest,13 or older,no,2021-03-27_09h26.21.154,empathy_intonation_perc,2020.2.10,Win32,60,,,,,,,,,,1,,,,,,,,,,,,,,,,,,,,,,,,,,,,,,,,,,,,,,,,15,regar,,,1,1,0.612395,0,35,35,14,1,REAL,FAKE,,,,,,,,,,,,,,,,,,,,,
,,,,,,,5f3810bc8049e40ad7b6909a,605b45a4d25f287719a41696,605f324eed9ef913c955179a,United States,Midwest,13 or older,no,2021-03-27_09h26.21.154,empathy_intonation_perc,2020.2.10,Win32,60,,,,,,,,,,0,,,,,,,,,,,,,,,,,,,,,,,,,,,,,,,,,,,,,,,,63,esposante,,,1,0,1.028835,0,36,36,62,1,REAL,FAKE,,,,,,,,,,,,,,,,,,,,,
,,,,,,,5f3810bc8049e40ad7b6909a,605b45a4d25f287719a41696,605f324eed9ef913c955179a,United States,Midwest,13 or older,no,2021-03-27_09h26.21.154,empathy_intonation_perc,2020.2.10,Win32,60,,,,,,,,,,1,,,,,,,,,,,,,,,,,,,,,,,,,,,,,,,,,,,,,,,,89,prisa,,,1,1,0.867815,0,37,37,88,1,REAL,FAKE,,,,,,,,,,,,,,,,,,,,,
,,,,,,,5f3810bc8049e40ad7b6909a,605b45a4d25f287719a41696,605f324eed9ef913c955179a,United States,Midwest,13 or older,no,2021-03-27_09h26.21.154,empathy_intonation_perc,2020.2.10,Win32,60,,,,,,,,,,1,,,,,,,,,,,,,,,,,,,,,,,,,,,,,,,,,,,,,,,,36,loro,,,0,0,0.61344,0,38,38,35,1,REAL,FAKE,,,,,,,,,,,,,,,,,,,,,
,,,,,,,5f3810bc8049e40ad7b6909a,605b45a4d25f287719a41696,605f324eed9ef913c955179a,United States,Midwest,13 or older,no,2021-03-27_09h26.21.154,empathy_intonation_perc,2020.2.10,Win32,60,,,,,,,,,,1,,,,,,,,,,,,,,,,,,,,,,,,,,,,,,,,,,,,,,,,69,engatusar,,,0,0,0.75194,0,39,39,68,1,REAL,FAKE,,,,,,,,,,,,,,,,,,,,,
,,,,,,,5f3810bc8049e40ad7b6909a,605b45a4d25f287719a41696,605f324eed9ef913c955179a,United States,Midwest,13 or older,no,2021-03-27_09h26.21.154,empathy_intonation_perc,2020.2.10,Win32,60,,,,,,,,,,1,,,,,,,,,,,,,,,,,,,,,,,,,,,,,,,,,,,,,,,,55,nevar,,,0,0,0.61909,0,40,40,54,1,REAL,FAKE,,,,,,,,,,,,,,,,,,,,,
,,,,,,,5f3810bc8049e40ad7b6909a,605b45a4d25f287719a41696,605f324eed9ef913c955179a,United States,Midwest,13 or older,no,2021-03-27_09h26.21.154,empathy_intonation_perc,2020.2.10,Win32,60,,,,,,,,,,1,,,,,,,,,,,,,,,,,,,,,,,,,,,,,,,,,,,,,,,,49,ganar,,,0,0,0.535325,0,41,41,48,1,REAL,FAKE,,,,,,,,,,,,,,,,,,,,,
,,,,,,,5f3810bc8049e40ad7b6909a,605b45a4d25f287719a41696,605f324eed9ef913c955179a,United States,Midwest,13 or older,no,2021-03-27_09h26.21.154,empathy_intonation_perc,2020.2.10,Win32,60,,,,,,,,,,1,,,,,,,,,,,,,,,,,,,,,,,,,,,,,,,,,,,,,,,,68,alegre,,,1,1,0.72053,0,42,42,67,1,REAL,FAKE,,,,,,,,,,,,,,,,,,,,,
,,,,,,,5f3810bc8049e40ad7b6909a,605b45a4d25f287719a41696,605f324eed9ef913c955179a,United States,Midwest,13 or older,no,2021-03-27_09h26.21.154,empathy_intonation_perc,2020.2.10,Win32,60,,,,,,,,,,1,,,,,,,,,,,,,,,,,,,,,,,,,,,,,,,,,,,,,,,,34,aviso,,,0,0,0.746455,0,43,43,33,1,REAL,FAKE,,,,,,,,,,,,,,,,,,,,,
,,,,,,,5f3810bc8049e40ad7b6909a,605b45a4d25f287719a41696,605f324eed9ef913c955179a,United States,Midwest,13 or older,no,2021-03-27_09h26.21.154,empathy_intonation_perc,2020.2.10,Win32,60,,,,,,,,,,1,,,,,,,,,,,,,,,,,,,,,,,,,,,,,,,,,,,,,,,,52,camisa,,,1,1,0.60554,0,44,44,51,1,REAL,FAKE,,,,,,,,,,,,,,,,,,,,,
,,,,,,,5f3810bc8049e40ad7b6909a,605b45a4d25f287719a41696,605f324eed9ef913c955179a,United States,Midwest,13 or older,no,2021-03-27_09h26.21.154,empathy_intonation_perc,2020.2.10,Win32,60,,,,,,,,,,1,,,,,,,,,,,,,,,,,,,,,,,,,,,,,,,,,,,,,,,,44,cuchara,,,1,1,0.750715,0,45,45,43,1,REAL,FAKE,,,,,,,,,,,,,,,,,,,,,
,,,,,,,5f3810bc8049e40ad7b6909a,605b45a4d25f287719a41696,605f324eed9ef913c955179a,United States,Midwest,13 or older,no,2021-03-27_09h26.21.154,empathy_intonation_perc,2020.2.10,Win32,60,,,,,,,,,,1,,,,,,,,,,,,,,,,,,,,,,,,,,,,,,,,,,,,,,,,13,helar,,,0,0,0.620355,0,46,46,12,1,REAL,FAKE,,,,,,,,,,,,,,,,,,,,,
,,,,,,,5f3810bc8049e40ad7b6909a,605b45a4d25f287719a41696,605f324eed9ef913c955179a,United States,Midwest,13 or older,no,2021-03-27_09h26.21.154,empathy_intonation_perc,2020.2.10,Win32,60,,,,,,,,,,0,,,,,,,,,,,,,,,,,,,,,,,,,,,,,,,,,,,,,,,,82,empirador,,,1,0,0.581455,0,47,47,81,1,REAL,FAKE,,,,,,,,,,,,,,,,,,,,,
,,,,,,,5f3810bc8049e40ad7b6909a,605b45a4d25f287719a41696,605f324eed9ef913c955179a,United States,Midwest,13 or older,no,2021-03-27_09h26.21.154,empathy_intonation_perc,2020.2.10,Win32,60,,,,,,,,,,1,,,,,,,,,,,,,,,,,,,,,,,,,,,,,,,,,,,,,,,,71,polvoriento,,,0,0,0.906775,0,48,48,70,1,REAL,FAKE,,,,,,,,,,,,,,,,,,,,,
,,,,,,,5f3810bc8049e40ad7b6909a,605b45a4d25f287719a41696,605f324eed9ef913c955179a,United States,Midwest,13 or older,no,2021-03-27_09h26.21.154,empathy_intonation_perc,2020.2.10,Win32,60,,,,,,,,,,1,,,,,,,,,,,,,,,,,,,,,,,,,,,,,,,,,,,,,,,,28,merodear,,,0,0,0.91232,0,49,49,27,1,REAL,FAKE,,,,,,,,,,,,,,,,,,,,,
,,,,,,,5f3810bc8049e40ad7b6909a,605b45a4d25f287719a41696,605f324eed9ef913c955179a,United States,Midwest,13 or older,no,2021-03-27_09h26.21.154,empathy_intonation_perc,2020.2.10,Win32,60,,,,,,,,,,0,,,,,,,,,,,,,,,,,,,,,,,,,,,,,,,,,,,,,,,,58,plaudir,,,0,1,1.09109,0,50,50,57,1,REAL,FAKE,,,,,,,,,,,,,,,,,,,,,
,,,,,,,5f3810bc8049e40ad7b6909a,605b45a4d25f287719a41696,605f324eed9ef913c955179a,United States,Midwest,13 or older,no,2021-03-27_09h26.21.154,empathy_intonation_perc,2020.2.10,Win32,60,,,,,,,,,,0,,,,,,,,,,,,,,,,,,,,,,,,,,,,,,,,,,,,,,,,87,grodo,,,1,0,0.51244,0,51,51,86,1,REAL,FAKE,,,,,,,,,,,,,,,,,,,,,
,,,,,,,5f3810bc8049e40ad7b6909a,605b45a4d25f287719a41696,605f324eed9ef913c955179a,United States,Midwest,13 or older,no,2021-03-27_09h26.21.154,empathy_intonation_perc,2020.2.10,Win32,60,,,,,,,,,,1,,,,,,,,,,,,,,,,,,,,,,,,,,,,,,,,,,,,,,,,88,acantilado,,,1,1,0.70207,0,52,52,87,1,REAL,FAKE,,,,,,,,,,,,,,,,,,,,,
,,,,,,,5f3810bc8049e40ad7b6909a,605b45a4d25f287719a41696,605f324eed9ef913c955179a,United States,Midwest,13 or older,no,2021-03-27_09h26.21.154,empathy_intonation_perc,2020.2.10,Win32,60,,,,,,,,,,0,,,,,,,,,,,,,,,,,,,,,,,,,,,,,,,,,,,,,,,,53,vegada,,,0,1,0.71227,0,53,53,52,1,REAL,FAKE,,,,,,,,,,,,,,,,,,,,,
,,,,,,,5f3810bc8049e40ad7b6909a,605b45a4d25f287719a41696,605f324eed9ef913c955179a,United States,Midwest,13 or older,no,2021-03-27_09h26.21.154,empathy_intonation_perc,2020.2.10,Win32,60,,,,,,,,,,1,,,,,,,,,,,,,,,,,,,,,,,,,,,,,,,,,,,,,,,,3,pulmones,,,1,1,0.74898,0,54,54,2,1,REAL,FAKE,,,,,,,,,,,,,,,,,,,,,
,,,,,,,5f3810bc8049e40ad7b6909a,605b45a4d25f287719a41696,605f324eed9ef913c955179a,United States,Midwest,13 or older,no,2021-03-27_09h26.21.154,empathy_intonation_perc,2020.2.10,Win32,60,,,,,,,,,,1,,,,,,,,,,,,,,,,,,,,,,,,,,,,,,,,,,,,,,,,85,lad,,,0,0,0.59902,0,55,55,84,1,REAL,FAKE,,,,,,,,,,,,,,,,,,,,,
,,,,,,,5f3810bc8049e40ad7b6909a,605b45a4d25f287719a41696,605f324eed9ef913c955179a,United States,Midwest,13 or older,no,2021-03-27_09h26.21.154,empathy_intonation_perc,2020.2.10,Win32,60,,,,,,,,,,1,,,,,,,,,,,,,,,,,,,,,,,,,,,,,,,,,,,,,,,,86,barato,,,1,1,0.738655,0,56,56,85,1,REAL,FAKE,,,,,,,,,,,,,,,,,,,,,
,,,,,,,5f3810bc8049e40ad7b6909a,605b45a4d25f287719a41696,605f324eed9ef913c955179a,United States,Midwest,13 or older,no,2021-03-27_09h26.21.154,empathy_intonation_perc,2020.2.10,Win32,60,,,,,,,,,,0,,,,,,,,,,,,,,,,,,,,,,,,,,,,,,,,,,,,,,,,4,batilln,,,1,0,0.546475,0,57,57,3,1,REAL,FAKE,,,,,,,,,,,,,,,,,,,,,
,,,,,,,5f3810bc8049e40ad7b6909a,605b45a4d25f287719a41696,605f324eed9ef913c955179a,United States,Midwest,13 or older,no,2021-03-27_09h26.21.154,empathy_intonation_perc,2020.2.10,Win32,60,,,,,,,,,,1,,,,,,,,,,,,,,,,,,,,,,,,,,,,,,,,,,,,,,,,67,cabello,,,1,1,0.57913,0,58,58,66,1,REAL,FAKE,,,,,,,,,,,,,,,,,,,,,
,,,,,,,5f3810bc8049e40ad7b6909a,605b45a4d25f287719a41696,605f324eed9ef913c955179a,United States,Midwest,13 or older,no,2021-03-27_09h26.21.154,empathy_intonation_perc,2020.2.10,Win32,60,,,,,,,,,,1,,,,,,,,,,,,,,,,,,,,,,,,,,,,,,,,,,,,,,,,14,yunque,,,0,0,0.850075,0,59,59,13,1,REAL,FAKE,,,,,,,,,,,,,,,,,,,,,
,,,,,,,5f3810bc8049e40ad7b6909a,605b45a4d25f287719a41696,605f324eed9ef913c955179a,United States,Midwest,13 or older,no,2021-03-27_09h26.21.154,empathy_intonation_perc,2020.2.10,Win32,60,,,,,,,,,,0,,,,,,,,,,,,,,,,,,,,,,,,,,,,,,,,,,,,,,,,1,terzo,,,1,0,0.71165,0,60,60,0,1,REAL,FAKE,,,,,,,,,,,,,,,,,,,,,
,,,,,,,5f3810bc8049e40ad7b6909a,605b45a4d25f287719a41696,605f324eed9ef913c955179a,United States,Midwest,13 or older,no,2021-03-27_09h26.21.154,empathy_intonation_perc,2020.2.10,Win32,60,,,,,,,,,,1,,,,,,,,,,,,,,,,,,,,,,,,,,,,,,,,,,,,,,,,59,besar,,,0,0,1.19539,0,61,61,58,1,REAL,FAKE,,,,,,,,,,,,,,,,,,,,,
,,,,,,,5f3810bc8049e40ad7b6909a,605b45a4d25f287719a41696,605f324eed9ef913c955179a,United States,Midwest,13 or older,no,2021-03-27_09h26.21.154,empathy_intonation_perc,2020.2.10,Win32,60,,,,,,,,,,1,,,,,,,,,,,,,,,,,,,,,,,,,,,,,,,,,,,,,,,,20,vido,,,0,0,0.682065,0,62,62,19,1,REAL,FAKE,,,,,,,,,,,,,,,,,,,,,
,,,,,,,5f3810bc8049e40ad7b6909a,605b45a4d25f287719a41696,605f324eed9ef913c955179a,United States,Midwest,13 or older,no,2021-03-27_09h26.21.154,empathy_intonation_perc,2020.2.10,Win32,60,,,,,,,,,,0,,,,,,,,,,,,,,,,,,,,,,,,,,,,,,,,,,,,,,,,17,floroso,,,0,1,0.63833,0,63,63,16,1,REAL,FAKE,,,,,,,,,,,,,,,,,,,,,
,,,,,,,5f3810bc8049e40ad7b6909a,605b45a4d25f287719a41696,605f324eed9ef913c955179a,United States,Midwest,13 or older,no,2021-03-27_09h26.21.154,empathy_intonation_perc,2020.2.10,Win32,60,,,,,,,,,,1,,,,,,,,,,,,,,,,,,,,,,,,,,,,,,,,,,,,,,,,41,rebuscar,,,0,0,0.665885,0,64,64,40,1,REAL,FAKE,,,,,,,,,,,,,,,,,,,,,
,,,,,,,5f3810bc8049e40ad7b6909a,605b45a4d25f287719a41696,605f324eed9ef913c955179a,United States,Midwest,13 or older,no,2021-03-27_09h26.21.154,empathy_intonation_perc,2020.2.10,Win32,60,,,,,,,,,,1,,,,,,,,,,,,,,,,,,,,,,,,,,,,,,,,,,,,,,,,45,jilguero,,,0,0,0.586055,0,65,65,44,1,REAL,FAKE,,,,,,,,,,,,,,,,,,,,,
,,,,,,,5f3810bc8049e40ad7b6909a,605b45a4d25f287719a41696,605f324eed9ef913c955179a,United States,Midwest,13 or older,no,2021-03-27_09h26.21.154,empathy_intonation_perc,2020.2.10,Win32,60,,,,,,,,,,1,,,,,,,,,,,,,,,,,,,,,,,,,,,,,,,,,,,,,,,,77,tiburn,,,1,1,0.54552,0,66,66,76,1,REAL,FAKE,,,,,,,,,,,,,,,,,,,,,
,,,,,,,5f3810bc8049e40ad7b6909a,605b45a4d25f287719a41696,605f324eed9ef913c955179a,United States,Midwest,13 or older,no,2021-03-27_09h26.21.154,empathy_intonation_perc,2020.2.10,Win32,60,,,,,,,,,,1,,,,,,,,,,,,,,,,,,,,,,,,,,,,,,,,,,,,,,,,11,cenefa,,,0,0,0.914015,0,67,67,10,1,REAL,FAKE,,,,,,,,,,,,,,,,,,,,,
,,,,,,,5f3810bc8049e40ad7b6909a,605b45a4d25f287719a41696,605f324eed9ef913c955179a,United States,Midwest,13 or older,no,2021-03-27_09h26.21.154,empathy_intonation_perc,2020.2.10,Win32,60,,,,,,,,,,0,,,,,,,,,,,,,,,,,,,,,,,,,,,,,,,,,,,,,,,,19,brecedad,,,0,1,0.6296,0,68,68,18,1,REAL,FAKE,,,,,,,,,,,,,,,,,,,,,
,,,,,,,5f3810bc8049e40ad7b6909a,605b45a4d25f287719a41696,605f324eed9ef913c955179a,United States,Midwest,13 or older,no,2021-03-27_09h26.21.154,empathy_intonation_perc,2020.2.10,Win32,60,,,,,,,,,,1,,,,,,,,,,,,,,,,,,,,,,,,,,,,,,,,,,,,,,,,56,musgo,,,0,0,0.87465,0,69,69,55,1,REAL,FAKE,,,,,,,,,,,,,,,,,,,,,
,,,,,,,5f3810bc8049e40ad7b6909a,605b45a4d25f287719a41696,605f324eed9ef913c955179a,United States,Midwest,13 or older,no,2021-03-27_09h26.21.154,empathy_intonation_perc,2020.2.10,Win32,60,,,,,,,,,,0,,,,,,,,,,,,,,,,,,,,,,,,,,,,,,,,,,,,,,,,66,hacido,,,1,0,0.705475,0,70,70,65,1,REAL,FAKE,,,,,,,,,,,,,,,,,,,,,
,,,,,,,5f3810bc8049e40ad7b6909a,605b45a4d25f287719a41696,605f324eed9ef913c955179a,United States,Midwest,13 or older,no,2021-03-27_09h26.21.154,empathy_intonation_perc,2020.2.10,Win32,60,,,,,,,,,,1,,,,,,,,,,,,,,,,,,,,,,,,,,,,,,,,,,,,,,,,54,fomentar,,,0,0,0.591445,0,71,71,53,1,REAL,FAKE,,,,,,,,,,,,,,,,,,,,,
,,,,,,,5f3810bc8049e40ad7b6909a,605b45a4d25f287719a41696,605f324eed9ef913c955179a,United States,Midwest,13 or older,no,2021-03-27_09h26.21.154,empathy_intonation_perc,2020.2.10,Win32,60,,,,,,,,,,0,,,,,,,,,,,,,,,,,,,,,,,,,,,,,,,,,,,,,,,,35,rompido,,,1,0,0.736615,0,72,72,34,1,REAL,FAKE,,,,,,,,,,,,,,,,,,,,,
,,,,,,,5f3810bc8049e40ad7b6909a,605b45a4d25f287719a41696,605f324eed9ef913c955179a,United States,Midwest,13 or older,no,2021-03-27_09h26.21.154,empathy_intonation_perc,2020.2.10,Win32,60,,,,,,,,,,1,,,,,,,,,,,,,,,,,,,,,,,,,,,,,,,,,,,,,,,,31,pandilla,,,1,1,0.596345,0,73,73,30,1,REAL,FAKE,,,,,,,,,,,,,,,,,,,,,
,,,,,,,5f3810bc8049e40ad7b6909a,605b45a4d25f287719a41696,605f324eed9ef913c955179a,United States,Midwest,13 or older,no,2021-03-27_09h26.21.154,empathy_intonation_perc,2020.2.10,Win32,60,,,,,,,,,,0,,,,,,,,,,,,,,,,,,,,,,,,,,,,,,,,,,,,,,,,33,pauca,,,0,1,0.550045,0,74,74,32,1,REAL,FAKE,,,,,,,,,,,,,,,,,,,,,
,,,,,,,5f3810bc8049e40ad7b6909a,605b45a4d25f287719a41696,605f324eed9ef913c955179a,United States,Midwest,13 or older,no,2021-03-27_09h26.21.154,empathy_intonation_perc,2020.2.10,Win32,60,,,,,,,,,,1,,,,,,,,,,,,,,,,,,,,,,,,,,,,,,,,,,,,,,,,75,yacer,,,0,0,0.580095,0,75,75,74,1,REAL,FAKE,,,,,,,,,,,,,,,,,,,,,
,,,,,,,5f3810bc8049e40ad7b6909a,605b45a4d25f287719a41696,605f324eed9ef913c955179a,United States,Midwest,13 or older,no,2021-03-27_09h26.21.154,empathy_intonation_perc,2020.2.10,Win32,60,,,,,,,,,,0,,,,,,,,,,,,,,,,,,,,,,,,,,,,,,,,,,,,,,,,70,temblo,,,0,1,0.58324,0,76,76,69,1,REAL,FAKE,,,,,,,,,,,,,,,,,,,,,
,,,,,,,5f3810bc8049e40ad7b6909a,605b45a4d25f287719a41696,605f324eed9ef913c955179a,United States,Midwest,13 or older,no,2021-03-27_09h26.21.154,empathy_intonation_perc,2020.2.10,Win32,60,,,,,,,,,,1,,,,,,,,,,,,,,,,,,,,,,,,,,,,,,,,,,,,,,,,65,bizcocho,,,0,0,0.518145,0,77,77,64,1,REAL,FAKE,,,,,,,,,,,,,,,,,,,,,
,,,,,,,5f3810bc8049e40ad7b6909a,605b45a4d25f287719a41696,605f324eed9ef913c955179a,United States,Midwest,13 or older,no,2021-03-27_09h26.21.154,empathy_intonation_perc,2020.2.10,Win32,60,,,,,,,,,,0,,,,,,,,,,,,,,,,,,,,,,,,,,,,,,,,,,,,,,,,29,decar,,,0,1,0.567235,0,78,78,28,1,REAL,FAKE,,,,,,,,,,,,,,,,,,,,,
,,,,,,,5f3810bc8049e40ad7b6909a,605b45a4d25f287719a41696,605f324eed9ef913c955179a,United States,Midwest,13 or older,no,2021-03-27_09h26.21.154,empathy_intonation_perc,2020.2.10,Win32,60,,,,,,,,,,1,,,,,,,,,,,,,,,,,,,,,,,,,,,,,,,,,,,,,,,,2,pellizcar,,,1,1,0.51742,0,79,79,1,1,REAL,FAKE,,,,,,,,,,,,,,,,,,,,,
,,,,,,,5f3810bc8049e40ad7b6909a,605b45a4d25f287719a41696,605f324eed9ef913c955179a,United States,Midwest,13 or older,no,2021-03-27_09h26.21.154,empathy_intonation_perc,2020.2.10,Win32,60,,,,,,,,,,1,,,,,,,,,,,,,,,,,,,,,,,,,,,,,,,,,,,,,,,,62,flaco,,,0,0,0.582555,0,80,80,61,1,REAL,FAKE,,,,,,,,,,,,,,,,,,,,,
,,,,,,,5f3810bc8049e40ad7b6909a,605b45a4d25f287719a41696,605f324eed9ef913c955179a,United States,Midwest,13 or older,no,2021-03-27_09h26.21.154,empathy_intonation_perc,2020.2.10,Win32,60,,,,,,,,,,1,,,,,,,,,,,,,,,,,,,,,,,,,,,,,,,,,,,,,,,,39,torpe,,,0,0,0.466425,0,81,81,38,1,REAL,FAKE,,,,,,,,,,,,,,,,,,,,,
,,,,,,,5f3810bc8049e40ad7b6909a,605b45a4d25f287719a41696,605f324eed9ef913c955179a,United States,Midwest,13 or older,no,2021-03-27_09h26.21.154,empathy_intonation_perc,2020.2.10,Win32,60,,,,,,,,,,1,,,,,,,,,,,,,,,,,,,,,,,,,,,,,,,,,,,,,,,,73,hervidor,,,1,1,0.662035,0,82,82,72,1,REAL,FAKE,,,,,,,,,,,,,,,,,,,,,
,,,,,,,5f3810bc8049e40ad7b6909a,605b45a4d25f287719a41696,605f324eed9ef913c955179a,United States,Midwest,13 or older,no,2021-03-27_09h26.21.154,empathy_intonation_perc,2020.2.10,Win32,60,,,,,,,,,,0,,,,,,,,,,,,,,,,,,,,,,,,,,,,,,,,,,,,,,,,18,arsa,,,0,1,0.628715,0,83,83,17,1,REAL,FAKE,,,,,,,,,,,,,,,,,,,,,
,,,,,,,5f3810bc8049e40ad7b6909a,605b45a4d25f287719a41696,605f324eed9ef913c955179a,United States,Midwest,13 or older,no,2021-03-27_09h26.21.154,empathy_intonation_perc,2020.2.10,Win32,60,,,,,,,,,,1,,,,,,,,,,,,,,,,,,,,,,,,,,,,,,,,,,,,,,,,22,lacayo,,,0,0,0.56714,0,84,84,21,1,REAL,FAKE,,,,,,,,,,,,,,,,,,,,,
,,,,,,,5f3810bc8049e40ad7b6909a,605b45a4d25f287719a41696,605f324eed9ef913c955179a,United States,Midwest,13 or older,no,2021-03-27_09h26.21.154,empathy_intonation_perc,2020.2.10,Win32,60,,,,,,,,,,0,,,,,,,,,,,,,,,,,,,,,,,,,,,,,,,,,,,,,,,,30,alardio,,,0,1,0.747395,0,85,85,29,1,REAL,FAKE,,,,,,,,,,,,,,,,,,,,,
,,,,,,,5f3810bc8049e40ad7b6909a,605b45a4d25f287719a41696,605f324eed9ef913c955179a,United States,Midwest,13 or older,no,2021-03-27_09h26.21.154,empathy_intonation_perc,2020.2.10,Win32,60,,,,,,,,,,0,,,,,,,,,,,,,,,,,,,,,,,,,,,,,,,,,,,,,,,,74,cintro,,,1,0,1.03864,0,86,86,73,1,REAL,FAKE,,,,,,,,,,,,,,,,,,,,,
,,,,,,,5f3810bc8049e40ad7b6909a,605b45a4d25f287719a41696,605f324eed9ef913c955179a,United States,Midwest,13 or older,no,2021-03-27_09h26.21.154,empathy_intonation_perc,2020.2.10,Win32,60,,,,,,,,,,1,,,,,,,,,,,,,,,,,,,,,,,,,,,,,,,,,,,,,,,,48,ladrn,,,0,0,0.55221,0,87,87,47,1,REAL,FAKE,,,,,,,,,,,,,,,,,,,,,
,,,,,,,5f3810bc8049e40ad7b6909a,605b45a4d25f287719a41696,605f324eed9ef913c955179a,United States,Midwest,13 or older,no,2021-03-27_09h26.21.154,empathy_intonation_perc,2020.2.10,Win32,60,,,,,,,,,,1,,,,,,,,,,,,,,,,,,,,,,,,,,,,,,,,,,,,,,,,40,alfombra,,,0,0,0.90052,0,88,88,39,1,REAL,FAKE,,,,,,,,,,,,,,,,,,,,,
,,,,,,,5f3810bc8049e40ad7b6909a,605b45a4d25f287719a41696,605f324eed9ef913c955179a,United States,Midwest,13 or older,no,2021-03-27_09h26.21.154,empathy_intonation_perc,2020.2.10,Win32,60,,,,,,,,,,0,,,,,,,,,,,,,,,,,,,,,,,,,,,,,,,,,,,,,,,,79,tropaje,,,1,0,0.62944,0,89,89,78,1,REAL,FAKE,,,,,,,,,,,,,,,,,,,,,
,,,,,,,5f3810bc8049e40ad7b6909a,605b45a4d25f287719a41696,605f324eed9ef913c955179a,United States,Midwest,13 or older,no,2021-03-27_09h26.21.154,empathy_intonation_perc,2020.2.10,Win32,60,,,,,,,,,,,,,,,,,,,,,,,,,,,,,,,,,,,,,,,,,,,,,,,,,,,,,,,,,,,,,,,,4,1,3.733465,1,0,0,0,0,0,1,,,,,,,,,,,
,,,,,,,5f3810bc8049e40ad7b6909a,605b45a4d25f287719a41696,605f324eed9ef913c955179a,United States,Midwest,13 or older,no,2021-03-27_09h26.21.154,empathy_intonation_perc,2020.2.10,Win32,60,,,,,,,,,,,,,,,,,,,,1,,,,,,,,,,,,,,,,,,,,,,,,,,,,,,,,,,,,,,,,,,,,,,,,,,,,,,2,0,0,0,0,1,I can easily tell if someone else wants to enter a conversation.,1,0,1,0
,,,,,,,5f3810bc8049e40ad7b6909a,605b45a4d25f287719a41696,605f324eed9ef913c955179a,United States,Midwest,13 or older,no,2021-03-27_09h26.21.154,empathy_intonation_perc,2020.2.10,Win32,60,,,,,,,,,,,,,,,,,,,,2,,,,,,,,,,,,,,,,,,,,,,,,,,,,,,,,,,,,,,,,,,,,,,,,,,,,,,1,0,1,1,1,1,I prefer animals to humans.,0,1,0,0
,,,,,,,5f3810bc8049e40ad7b6909a,605b45a4d25f287719a41696,605f324eed9ef913c955179a,United States,Midwest,13 or older,no,2021-03-27_09h26.21.154,empathy_intonation_perc,2020.2.10,Win32,60,,,,,,,,,,,,,,,,,,,,3,,,,,,,,,,,,,,,,,,,,,,,,,,,,,,,,,,,,,,,,,,,,,,,,,,,,,,4,0,2,2,2,1,I try to keep up with the current trends and fashions.,0,1,0,0
,,,,,,,5f3810bc8049e40ad7b6909a,605b45a4d25f287719a41696,605f324eed9ef913c955179a,United States,Midwest,13 or older,no,2021-03-27_09h26.21.154,empathy_intonation_perc,2020.2.10,Win32,60,,,,,,,,,,,,,,,,,,,,4,,,,,,,,,,,,,,,,,,,,,,,,,,,,,,,,,,,,,,,,,,,,,,,,,,,,,,3,0,3,3,3,1,"I find it difficult to explain to others things that I understand easily, 
  when they dont understand it first time.",1,0,0,1
,,,,,,,5f3810bc8049e40ad7b6909a,605b45a4d25f287719a41696,605f324eed9ef913c955179a,United States,Midwest,13 or older,no,2021-03-27_09h26.21.154,empathy_intonation_perc,2020.2.10,Win32,60,,,,,,,,,,,,,,,,,,,,5,,,,,,,,,,,,,,,,,,,,,,,,,,,,,,,,,,,,,,,,,,,,,,,,,,,,,,4,0,4,4,4,1,I dream most nights.,0,1,0,0
