instructions_2afc_loop.thisRepN,instructions_2afc_loop.thisTrialN,instructions_2afc_loop.thisN,instructions_2afc_loop.thisIndex,instructions_2afc_loop.ran,instructions_text,continue_text,participant,study_id,session,I am most familiar with Spanish from...*,What part of the US are you from?*,At what age did you begin learning Spanish?*,Are you proficient in any languages other than English/Spanish?*,date,expName,psychopyVersion,OS,frameRate,key_resp_2afc_practice.keys,key_resp_2afc_practice.corr,key_resp_2afc_practice.rt,trials_2afc_practice_loop.thisRepN,trials_2afc_practice_loop.thisTrialN,trials_2afc_practice_loop.thisN,trials_2afc_practice_loop.thisIndex,trials_2afc_practice_loop.ran,path,correct_response,the_col,key_resp_2afc_trial.keys,key_resp_2afc_trial.corr,key_resp_2afc_trial.rt,trials_2afc_loop.thisRepN,trials_2afc_loop.thisTrialN,trials_2afc_loop.thisN,trials_2afc_loop.thisIndex,trials_2afc_loop.ran,item_num,andalusian,argentine,castilian,chilean,cuban,mexican,peruvian,puertorican,key_resp_ac1.keys,key_resp_ac1.corr,key_resp_ac1.rt,ac1_loop.thisRepN,ac1_loop.thisTrialN,ac1_loop.thisN,ac1_loop.thisIndex,ac1_loop.ran,instructions_lextale_loop.thisRepN,instructions_lextale_loop.thisTrialN,instructions_lextale_loop.thisN,instructions_lextale_loop.thisIndex,instructions_lextale_loop.ran,key_resp_lextale_practice.keys,key_resp_lextale_practice.corr,key_resp_lextale_practice.rt,trials_lextale_practice_loop.thisRepN,trials_lextale_practice_loop.thisTrialN,trials_lextale_practice_loop.thisN,trials_lextale_practice_loop.thisIndex,trials_lextale_practice_loop.ran,stim,word,prac_button_real,prac_button_false,key_resp_lextale_trial.keys,key_resp_lextale_trial.corr,key_resp_lextale_trial.rt,trials_lextale_loop.thisRepN,trials_lextale_loop.thisTrialN,trials_lextale_loop.thisN,trials_lextale_loop.thisIndex,trials_lextale_loop.ran,button_real,button_false,key_resp_ac2.keys,key_resp_ac2.corr,key_resp_ac2.rt,check_pass,check_fails,ac2_loop.thisRepN,ac2_loop.thisTrialN,ac2_loop.thisN,ac2_loop.thisIndex,ac2_loop.ran,slider_eq_trial.response,trials_eq_loop.thisRepN,trials_eq_loop.thisTrialN,trials_eq_loop.thisN,trials_eq_loop.thisIndex,trials_eq_loop.ran,item,is_test_item,is_distractor,is_agree_score,is_disagree_score
0,0,0,0,1,"In the following task you are going to hear a series of utterances. 

  You will decide if the utterances sound like questions or not using your keyboard.",(press the spacebar to continue),5f3fecd2bc9bac0b4ca93d30,60568611ec04488a9e9da93b,6056b576d201a5e5238e8a3e,Honduras,Midwest,13 or older,no,2021-03-20_22h55.41.011,empathy_intonation_perc,2020.2.10,Win32,60,,,,,,,,,,,,,,,,,,,,,,,,,,,,,,,,,,,,,,,,,,,,,,,,,,,,,,,,,,,,,,,,,,,,,,,,,,,,,,,,,,,,
0,1,1,1,1,"If you believe the utterance is a question, type '1' (for 'yes') and if you do not 
  believe it is a question type '0' (for 'no').

  Let's practice a bit...",(press the spacebar to continue),5f3fecd2bc9bac0b4ca93d30,60568611ec04488a9e9da93b,6056b576d201a5e5238e8a3e,Honduras,Midwest,13 or older,no,2021-03-20_22h55.41.011,empathy_intonation_perc,2020.2.10,Win32,60,,,,,,,,,,,,,,,,,,,,,,,,,,,,,,,,,,,,,,,,,,,,,,,,,,,,,,,,,,,,,,,,,,,,,,,,,,,,,,,,,,,,
,,,,,,,5f3fecd2bc9bac0b4ca93d30,60568611ec04488a9e9da93b,6056b576d201a5e5238e8a3e,Honduras,Midwest,13 or older,no,2021-03-20_22h55.41.011,empathy_intonation_perc,2020.2.10,Win32,60,0,1,3.05117,0,0,0,4,1,./stim/wavs/cuban_statement_filler_Cocinabas-por-la-noche.wav,0,,,,,,,,,,,,,,,,,,,,,,,,,,,,,,,,,,,,,,,,,,,,,,,,,,,,,,,,,,,,,,,,,,,,,,,,,,
,,,,,,,5f3fecd2bc9bac0b4ca93d30,60568611ec04488a9e9da93b,6056b576d201a5e5238e8a3e,Honduras,Midwest,13 or older,no,2021-03-20_22h55.41.011,empathy_intonation_perc,2020.2.10,Win32,60,1,1,2.44743,0,1,1,0,1,./stim/wavs/castilian_question_filler_Mi-esposo-conoce-al-chico.wav,1,,,,,,,,,,,,,,,,,,,,,,,,,,,,,,,,,,,,,,,,,,,,,,,,,,,,,,,,,,,,,,,,,,,,,,,,,,
,,,,,,,5f3fecd2bc9bac0b4ca93d30,60568611ec04488a9e9da93b,6056b576d201a5e5238e8a3e,Honduras,Midwest,13 or older,no,2021-03-20_22h55.41.011,empathy_intonation_perc,2020.2.10,Win32,60,0,0,1.89378,0,2,2,1,1,./stim/wavs/argentine_question_filler_Mi-vecino-habla-mucho.wav,1,,,,,,,,,,,,,,,,,,,,,,,,,,,,,,,,,,,,,,,,,,,,,,,,,,,,,,,,,,,,,,,,,,,,,,,,,,
,,,,,,,5f3fecd2bc9bac0b4ca93d30,60568611ec04488a9e9da93b,6056b576d201a5e5238e8a3e,Honduras,Midwest,13 or older,no,2021-03-20_22h55.41.011,empathy_intonation_perc,2020.2.10,Win32,60,0,1,1.7718,0,3,3,7,1,./stim/wavs/puertorican_statement_filler_La-nina-pinta-con-su-amiga.wav,0,,,,,,,,,,,,,,,,,,,,,,,,,,,,,,,,,,,,,,,,,,,,,,,,,,,,,,,,,,,,,,,,,,,,,,,,,,
,,,,,,,5f3fecd2bc9bac0b4ca93d30,60568611ec04488a9e9da93b,6056b576d201a5e5238e8a3e,Honduras,Midwest,13 or older,no,2021-03-20_22h55.41.011,empathy_intonation_perc,2020.2.10,Win32,60,0,1,2.182145,0,4,4,6,1,./stim/wavs/peruvian_statement_filler_El-nino-habla-con-su-madre.wav,0,,,,,,,,,,,,,,,,,,,,,,,,,,,,,,,,,,,,,,,,,,,,,,,,,,,,,,,,,,,,,,,,,,,,,,,,,,
,,,,,,,5f3fecd2bc9bac0b4ca93d30,60568611ec04488a9e9da93b,6056b576d201a5e5238e8a3e,Honduras,Midwest,13 or older,no,2021-03-20_22h55.41.011,empathy_intonation_perc,2020.2.10,Win32,60,1,1,1.8352,0,5,5,3,1,./stim/wavs/mexican_question_filler_Felipe-no-tiene-contrasena.wav,1,,,,,,,,,,,,,,,,,,,,,,,,,,,,,,,,,,,,,,,,,,,,,,,,,,,,,,,,,,,,,,,,,,,,,,,,,,
,,,,,,,5f3fecd2bc9bac0b4ca93d30,60568611ec04488a9e9da93b,6056b576d201a5e5238e8a3e,Honduras,Midwest,13 or older,no,2021-03-20_22h55.41.011,empathy_intonation_perc,2020.2.10,Win32,60,0,1,1.823095,0,6,6,5,1,./stim/wavs/andalusian_statement_filler_Alberto-nunca-se-afeita.wav,0,,,,,,,,,,,,,,,,,,,,,,,,,,,,,,,,,,,,,,,,,,,,,,,,,,,,,,,,,,,,,,,,,,,,,,,,,,
,,,,,,,5f3fecd2bc9bac0b4ca93d30,60568611ec04488a9e9da93b,6056b576d201a5e5238e8a3e,Honduras,Midwest,13 or older,no,2021-03-20_22h55.41.011,empathy_intonation_perc,2020.2.10,Win32,60,0,0,1.383905,0,7,7,2,1,./stim/wavs/chilean_question_filler_Mi-padre-cantaba-bien.wav,1,,,,,,,,,,,,,,,,,,,,,,,,,,,,,,,,,,,,,,,,,,,,,,,,,,,,,,,,,,,,,,,,,,,,,,,,,,
,,,,,,,5f3fecd2bc9bac0b4ca93d30,60568611ec04488a9e9da93b,6056b576d201a5e5238e8a3e,Honduras,Midwest,13 or older,no,2021-03-20_22h55.41.011,empathy_intonation_perc,2020.2.10,Win32,60,,,,,,,,,,1,peruvian,0,0,1.55759,0,0,0,24,1,25,./stim/wavs/andalusian_match_interrogative-total-yn_Ana-lleva-el-abrigo.wav,./stim/wavs/argentine_match_interrogative-total-yn_Ana-lleva-el-abrigo.wav,./stim/wavs/castilian_match_interrogative-total-yn_Ana-lleva-el-abrigo.wav,./stim/wavs/chilean_match_interrogative-total-yn_Ana-lleva-el-abrigo.wav,./stim/wavs/cuban_match_interrogative-total-yn_Ana-lleva-el-abrigo.wav,./stim/wavs/mexican_match_interrogative-total-yn_Ana-lleva-el-abrigo.wav,./stim/wavs/peruvian_match_interrogative-total-yn_Ana-lleva-el-abrigo.wav,./stim/wavs/puertorican_match_interrogative-total-yn_Ana-lleva-el-abrigo.wav,,,,,,,,,,,,,,,,,,,,,,,,,,,,,,,,,,,,,,,,,,,,,,,,,,,,,,,,
,,,,,,,5f3fecd2bc9bac0b4ca93d30,60568611ec04488a9e9da93b,6056b576d201a5e5238e8a3e,Honduras,Midwest,13 or older,no,2021-03-20_22h55.41.011,empathy_intonation_perc,2020.2.10,Win32,60,,,,,,,,,,0,puertorican,0,1,1.824925,0,1,1,10,1,11,./stim/wavs/andalusian_match_declarative-narrow-focus_David-leia-el-libro.wav,./stim/wavs/argentine_match_declarative-narrow-focus_David-leia-el-libro.wav,./stim/wavs/castilian_match_declarative-narrow-focus_David-leia-el-libro.wav,./stim/wavs/chilean_match_declarative-narrow-focus_David-leia-el-libro.wav,./stim/wavs/cuban_match_declarative-narrow-focus_David-leia-el-libro.wav,./stim/wavs/mexican_match_declarative-narrow-focus_David-leia-el-libro.wav,./stim/wavs/peruvian_match_declarative-narrow-focus_David-leia-el-libro.wav,./stim/wavs/puertorican_match_declarative-narrow-focus_David-leia-el-libro.wav,,,,,,,,,,,,,,,,,,,,,,,,,,,,,,,,,,,,,,,,,,,,,,,,,,,,,,,,
,,,,,,,5f3fecd2bc9bac0b4ca93d30,60568611ec04488a9e9da93b,6056b576d201a5e5238e8a3e,Honduras,Midwest,13 or older,no,2021-03-20_22h55.41.011,empathy_intonation_perc,2020.2.10,Win32,60,,,,,,,,,,0,puertorican,0,1,1.551355,0,2,2,13,1,14,./stim/wavs/andalusian_match_declarative-narrow-focus_Maria-bebe-el-vino.wav,./stim/wavs/argentine_match_declarative-narrow-focus_Maria-bebe-el-vino.wav,./stim/wavs/castilian_match_declarative-narrow-focus_Maria-bebe-el-vino.wav,./stim/wavs/chilean_match_declarative-narrow-focus_Maria-bebe-el-vino.wav,./stim/wavs/cuban_match_declarative-narrow-focus_Maria-bebe-el-vino.wav,./stim/wavs/mexican_match_declarative-narrow-focus_Maria-bebe-el-vino.wav,./stim/wavs/peruvian_match_declarative-narrow-focus_Maria-bebe-el-vino.wav,./stim/wavs/puertorican_match_declarative-narrow-focus_Maria-bebe-el-vino.wav,,,,,,,,,,,,,,,,,,,,,,,,,,,,,,,,,,,,,,,,,,,,,,,,,,,,,,,,
,,,,,,,5f3fecd2bc9bac0b4ca93d30,60568611ec04488a9e9da93b,6056b576d201a5e5238e8a3e,Honduras,Midwest,13 or older,no,2021-03-20_22h55.41.011,empathy_intonation_perc,2020.2.10,Win32,60,,,,,,,,,,1,castilian,1,1,1.799605,0,3,3,52,1,53,./stim/wavs/andalusian_mismatch_interrogative-partial-wh_Por-que-odiaba-la-lluvia.wav,./stim/wavs/argentine_mismatch_interrogative-partial-wh_Por-que-odiaba-la-lluvia.wav,./stim/wavs/castilian_mismatch_interrogative-partial-wh_Por-que-odiaba-la-lluvia.wav,./stim/wavs/chilean_mismatch_interrogative-partial-wh_Por-que-odiaba-la-lluvia.wav,./stim/wavs/cuban_mismatch_interrogative-partial-wh_Por-que-odiaba-la-lluvia.wav,./stim/wavs/mexican_mismatch_interrogative-partial-wh_Por-que-odiaba-la-lluvia.wav,./stim/wavs/peruvian_mismatch_interrogative-partial-wh_Por-que-odiaba-la-lluvia.wav,./stim/wavs/puertorican_mismatch_interrogative-partial-wh_Por-que-odiaba-la-lluvia.wav,,,,,,,,,,,,,,,,,,,,,,,,,,,,,,,,,,,,,,,,,,,,,,,,,,,,,,,,
,,,,,,,5f3fecd2bc9bac0b4ca93d30,60568611ec04488a9e9da93b,6056b576d201a5e5238e8a3e,Honduras,Midwest,13 or older,no,2021-03-20_22h55.41.011,empathy_intonation_perc,2020.2.10,Win32,60,,,,,,,,,,1,castilian,1,1,1.638945,0,4,4,19,1,20,./stim/wavs/andalusian_match_interrogative-partial-wh_Cuando-vendia-el-carro.wav,./stim/wavs/argentine_match_interrogative-partial-wh_Cuando-vendia-el-carro.wav,./stim/wavs/castilian_match_interrogative-partial-wh_Cuando-vendia-el-carro.wav,./stim/wavs/chilean_match_interrogative-partial-wh_Cuando-vendia-el-carro.wav,./stim/wavs/cuban_match_interrogative-partial-wh_Cuando-vendia-el-carro.wav,./stim/wavs/mexican_match_interrogative-partial-wh_Cuando-vendia-el-carro.wav,./stim/wavs/peruvian_match_interrogative-partial-wh_Cuando-vendia-el-carro.wav,./stim/wavs/puertorican_match_interrogative-partial-wh_Cuando-vendia-el-carro.wav,,,,,,,,,,,,,,,,,,,,,,,,,,,,,,,,,,,,,,,,,,,,,,,,,,,,,,,,
,,,,,,,5f3fecd2bc9bac0b4ca93d30,60568611ec04488a9e9da93b,6056b576d201a5e5238e8a3e,Honduras,Midwest,13 or older,no,2021-03-20_22h55.41.011,empathy_intonation_perc,2020.2.10,Win32,60,,,,,,,,,,1,peruvian,0,0,1.750895,0,5,5,57,1,58,./stim/wavs/andalusian_mismatch_interrogative-total-yn_El-hombre-mira-la-luna.wav,./stim/wavs/argentine_mismatch_interrogative-total-yn_El-hombre-mira-la-luna.wav,./stim/wavs/castilian_mismatch_interrogative-total-yn_El-hombre-mira-la-luna.wav,./stim/wavs/chilean_mismatch_interrogative-total-yn_El-hombre-mira-la-luna.wav,./stim/wavs/cuban_mismatch_interrogative-total-yn_El-hombre-mira-la-luna.wav,./stim/wavs/mexican_mismatch_interrogative-total-yn_El-hombre-mira-la-luna.wav,./stim/wavs/peruvian_mismatch_interrogative-total-yn_El-hombre-mira-la-luna.wav,./stim/wavs/puertorican_mismatch_interrogative-total-yn_El-hombre-mira-la-luna.wav,,,,,,,,,,,,,,,,,,,,,,,,,,,,,,,,,,,,,,,,,,,,,,,,,,,,,,,,
,,,,,,,5f3fecd2bc9bac0b4ca93d30,60568611ec04488a9e9da93b,6056b576d201a5e5238e8a3e,Honduras,Midwest,13 or older,no,2021-03-20_22h55.41.011,empathy_intonation_perc,2020.2.10,Win32,60,,,,,,,,,,1,andalusian,1,1,1.640755,0,6,6,29,1,30,./stim/wavs/andalusian_match_interrogative-total-yn_Maria-bebe-el-vino.wav,./stim/wavs/argentine_match_interrogative-total-yn_Maria-bebe-el-vino.wav,./stim/wavs/castilian_match_interrogative-total-yn_Maria-bebe-el-vino.wav,./stim/wavs/chilean_match_interrogative-total-yn_Maria-bebe-el-vino.wav,./stim/wavs/cuban_match_interrogative-total-yn_Maria-bebe-el-vino.wav,./stim/wavs/mexican_match_interrogative-total-yn_Maria-bebe-el-vino.wav,./stim/wavs/peruvian_match_interrogative-total-yn_Maria-bebe-el-vino.wav,./stim/wavs/puertorican_match_interrogative-total-yn_Maria-bebe-el-vino.wav,,,,,,,,,,,,,,,,,,,,,,,,,,,,,,,,,,,,,,,,,,,,,,,,,,,,,,,,
,,,,,,,5f3fecd2bc9bac0b4ca93d30,60568611ec04488a9e9da93b,6056b576d201a5e5238e8a3e,Honduras,Midwest,13 or older,no,2021-03-20_22h55.41.011,empathy_intonation_perc,2020.2.10,Win32,60,,,,,,,,,,1,cuban,0,0,2.18351,0,7,7,31,1,32,./stim/wavs/andalusian_match_interrogative-total-yn_Marta-abre-el-regalo.wav,./stim/wavs/argentine_match_interrogative-total-yn_Marta-abre-el-regalo.wav,./stim/wavs/castilian_match_interrogative-total-yn_Marta-abre-el-regalo.wav,./stim/wavs/chilean_match_interrogative-total-yn_Marta-abre-el-regalo.wav,./stim/wavs/cuban_match_interrogative-total-yn_Marta-abre-el-regalo.wav,./stim/wavs/mexican_match_interrogative-total-yn_Marta-abre-el-regalo.wav,./stim/wavs/peruvian_match_interrogative-total-yn_Marta-abre-el-regalo.wav,./stim/wavs/puertorican_match_interrogative-total-yn_Marta-abre-el-regalo.wav,,,,,,,,,,,,,,,,,,,,,,,,,,,,,,,,,,,,,,,,,,,,,,,,,,,,,,,,
,,,,,,,5f3fecd2bc9bac0b4ca93d30,60568611ec04488a9e9da93b,6056b576d201a5e5238e8a3e,Honduras,Midwest,13 or older,no,2021-03-20_22h55.41.011,empathy_intonation_perc,2020.2.10,Win32,60,,,,,,,,,,0,mexican,0,1,1.82533,0,8,8,36,1,37,./stim/wavs/andalusian_mismatch_declarative-broad-focus_La-nina-lava-el-plato.wav,./stim/wavs/argentine_mismatch_declarative-broad-focus_La-nina-lava-el-plato.wav,./stim/wavs/castilian_mismatch_declarative-broad-focus_La-nina-lava-el-plato.wav,./stim/wavs/chilean_mismatch_declarative-broad-focus_La-nina-lava-el-plato.wav,./stim/wavs/cuban_mismatch_declarative-broad-focus_La-nina-lava-el-plato.wav,./stim/wavs/mexican_mismatch_declarative-broad-focus_La-nina-lava-el-plato.wav,./stim/wavs/peruvian_mismatch_declarative-broad-focus_La-nina-lava-el-plato.wav,./stim/wavs/puertorican_mismatch_declarative-broad-focus_La-nina-lava-el-plato.wav,,,,,,,,,,,,,,,,,,,,,,,,,,,,,,,,,,,,,,,,,,,,,,,,,,,,,,,,
,,,,,,,5f3fecd2bc9bac0b4ca93d30,60568611ec04488a9e9da93b,6056b576d201a5e5238e8a3e,Honduras,Midwest,13 or older,no,2021-03-20_22h55.41.011,empathy_intonation_perc,2020.2.10,Win32,60,,,,,,,,,,1,puertorican,0,0,1.7231,0,9,9,62,1,63,./stim/wavs/andalusian_mismatch_interrogative-total-yn_Mi-novio-viene-del-lago.wav,./stim/wavs/argentine_mismatch_interrogative-total-yn_Mi-novio-viene-del-lago.wav,./stim/wavs/castilian_mismatch_interrogative-total-yn_Mi-novio-viene-del-lago.wav,./stim/wavs/chilean_mismatch_interrogative-total-yn_Mi-novio-viene-del-lago.wav,./stim/wavs/cuban_mismatch_interrogative-total-yn_Mi-novio-viene-del-lago.wav,./stim/wavs/mexican_mismatch_interrogative-total-yn_Mi-novio-viene-del-lago.wav,./stim/wavs/peruvian_mismatch_interrogative-total-yn_Mi-novio-viene-del-lago.wav,./stim/wavs/puertorican_mismatch_interrogative-total-yn_Mi-novio-viene-del-lago.wav,,,,,,,,,,,,,,,,,,,,,,,,,,,,,,,,,,,,,,,,,,,,,,,,,,,,,,,,
,,,,,,,5f3fecd2bc9bac0b4ca93d30,60568611ec04488a9e9da93b,6056b576d201a5e5238e8a3e,Honduras,Midwest,13 or older,no,2021-03-20_22h55.41.011,empathy_intonation_perc,2020.2.10,Win32,60,,,,,,,,,,0,mexican,0,1,1.4711,0,10,10,45,1,46,./stim/wavs/andalusian_mismatch_declarative-narrow-focus_Mi-madre-come-la-fruta.wav,./stim/wavs/argentine_mismatch_declarative-narrow-focus_Mi-madre-come-la-fruta.wav,./stim/wavs/castilian_mismatch_declarative-narrow-focus_Mi-madre-come-la-fruta.wav,./stim/wavs/chilean_mismatch_declarative-narrow-focus_Mi-madre-come-la-fruta.wav,./stim/wavs/cuban_mismatch_declarative-narrow-focus_Mi-madre-come-la-fruta.wav,./stim/wavs/mexican_mismatch_declarative-narrow-focus_Mi-madre-come-la-fruta.wav,./stim/wavs/peruvian_mismatch_declarative-narrow-focus_Mi-madre-come-la-fruta.wav,./stim/wavs/puertorican_mismatch_declarative-narrow-focus_Mi-madre-come-la-fruta.wav,,,,,,,,,,,,,,,,,,,,,,,,,,,,,,,,,,,,,,,,,,,,,,,,,,,,,,,,
,,,,,,,5f3fecd2bc9bac0b4ca93d30,60568611ec04488a9e9da93b,6056b576d201a5e5238e8a3e,Honduras,Midwest,13 or older,no,2021-03-20_22h55.41.011,empathy_intonation_perc,2020.2.10,Win32,60,,,,,,,,,,0,puertorican,0,1,1.686585,0,11,11,32,1,33,./stim/wavs/andalusian_mismatch_declarative-broad-focus_El-bebe-comia-muy-bien.wav,./stim/wavs/argentine_mismatch_declarative-broad-focus_El-bebe-comia-muy-bien.wav,./stim/wavs/castilian_mismatch_declarative-broad-focus_El-bebe-comia-muy-bien.wav,./stim/wavs/chilean_mismatch_declarative-broad-focus_El-bebe-comia-muy-bien.wav,./stim/wavs/cuban_mismatch_declarative-broad-focus_El-bebe-comia-muy-bien.wav,./stim/wavs/mexican_mismatch_declarative-broad-focus_El-bebe-comia-muy-bien.wav,./stim/wavs/peruvian_mismatch_declarative-broad-focus_El-bebe-comia-muy-bien.wav,./stim/wavs/puertorican_mismatch_declarative-broad-focus_El-bebe-comia-muy-bien.wav,,,,,,,,,,,,,,,,,,,,,,,,,,,,,,,,,,,,,,,,,,,,,,,,,,,,,,,,
,,,,,,,5f3fecd2bc9bac0b4ca93d30,60568611ec04488a9e9da93b,6056b576d201a5e5238e8a3e,Honduras,Midwest,13 or older,no,2021-03-20_22h55.41.011,empathy_intonation_perc,2020.2.10,Win32,60,,,,,,,,,,1,chilean,0,0,1.65041,0,12,12,58,1,59,./stim/wavs/andalusian_mismatch_interrogative-total-yn_El-nino-oye-el-rio.wav,./stim/wavs/argentine_mismatch_interrogative-total-yn_El-nino-oye-el-rio.wav,./stim/wavs/castilian_mismatch_interrogative-total-yn_El-nino-oye-el-rio.wav,./stim/wavs/chilean_mismatch_interrogative-total-yn_El-nino-oye-el-rio.wav,./stim/wavs/cuban_mismatch_interrogative-total-yn_El-nino-oye-el-rio.wav,./stim/wavs/mexican_mismatch_interrogative-total-yn_El-nino-oye-el-rio.wav,./stim/wavs/peruvian_mismatch_interrogative-total-yn_El-nino-oye-el-rio.wav,./stim/wavs/puertorican_mismatch_interrogative-total-yn_El-nino-oye-el-rio.wav,,,,,,,,,,,,,,,,,,,,,,,,,,,,,,,,,,,,,,,,,,,,,,,,,,,,,,,,
,,,,,,,5f3fecd2bc9bac0b4ca93d30,60568611ec04488a9e9da93b,6056b576d201a5e5238e8a3e,Honduras,Midwest,13 or older,no,2021-03-20_22h55.41.011,empathy_intonation_perc,2020.2.10,Win32,60,,,,,,,,,,1,andalusian,0,0,1.40058,0,13,13,61,1,62,./stim/wavs/andalusian_mismatch_interrogative-total-yn_Mi-madre-come-la-fruta.wav,./stim/wavs/argentine_mismatch_interrogative-total-yn_Mi-madre-come-la-fruta.wav,./stim/wavs/castilian_mismatch_interrogative-total-yn_Mi-madre-come-la-fruta.wav,./stim/wavs/chilean_mismatch_interrogative-total-yn_Mi-madre-come-la-fruta.wav,./stim/wavs/cuban_mismatch_interrogative-total-yn_Mi-madre-come-la-fruta.wav,./stim/wavs/mexican_mismatch_interrogative-total-yn_Mi-madre-come-la-fruta.wav,./stim/wavs/peruvian_mismatch_interrogative-total-yn_Mi-madre-come-la-fruta.wav,./stim/wavs/puertorican_mismatch_interrogative-total-yn_Mi-madre-come-la-fruta.wav,,,,,,,,,,,,,,,,,,,,,,,,,,,,,,,,,,,,,,,,,,,,,,,,,,,,,,,,
,,,,,,,5f3fecd2bc9bac0b4ca93d30,60568611ec04488a9e9da93b,6056b576d201a5e5238e8a3e,Honduras,Midwest,13 or older,no,2021-03-20_22h55.41.011,empathy_intonation_perc,2020.2.10,Win32,60,,,,,,,,,,0,argentine,0,1,1.398525,0,14,14,33,1,34,./stim/wavs/andalusian_mismatch_declarative-broad-focus_El-hombre-mira-la-luna.wav,./stim/wavs/argentine_mismatch_declarative-broad-focus_El-hombre-mira-la-luna.wav,./stim/wavs/castilian_mismatch_declarative-broad-focus_El-hombre-mira-la-luna.wav,./stim/wavs/chilean_mismatch_declarative-broad-focus_El-hombre-mira-la-luna.wav,./stim/wavs/cuban_mismatch_declarative-broad-focus_El-hombre-mira-la-luna.wav,./stim/wavs/mexican_mismatch_declarative-broad-focus_El-hombre-mira-la-luna.wav,./stim/wavs/peruvian_mismatch_declarative-broad-focus_El-hombre-mira-la-luna.wav,./stim/wavs/puertorican_mismatch_declarative-broad-focus_El-hombre-mira-la-luna.wav,,,,,,,,,,,,,,,,,,,,,,,,,,,,,,,,,,,,,,,,,,,,,,,,,,,,,,,,
,,,,,,,5f3fecd2bc9bac0b4ca93d30,60568611ec04488a9e9da93b,6056b576d201a5e5238e8a3e,Honduras,Midwest,13 or older,no,2021-03-20_22h55.41.011,empathy_intonation_perc,2020.2.10,Win32,60,,,,,,,,,,1,peruvian,1,1,1.850515,0,15,15,51,1,52,./stim/wavs/andalusian_mismatch_interrogative-partial-wh_Por-que-desayuna-muy-bien.wav,./stim/wavs/argentine_mismatch_interrogative-partial-wh_Por-que-desayuna-muy-bien.wav,./stim/wavs/castilian_mismatch_interrogative-partial-wh_Por-que-desayuna-muy-bien.wav,./stim/wavs/chilean_mismatch_interrogative-partial-wh_Por-que-desayuna-muy-bien.wav,./stim/wavs/cuban_mismatch_interrogative-partial-wh_Por-que-desayuna-muy-bien.wav,./stim/wavs/mexican_mismatch_interrogative-partial-wh_Por-que-desayuna-muy-bien.wav,./stim/wavs/peruvian_mismatch_interrogative-partial-wh_Por-que-desayuna-muy-bien.wav,./stim/wavs/puertorican_mismatch_interrogative-partial-wh_Por-que-desayuna-muy-bien.wav,,,,,,,,,,,,,,,,,,,,,,,,,,,,,,,,,,,,,,,,,,,,,,,,,,,,,,,,
,,,,,,,5f3fecd2bc9bac0b4ca93d30,60568611ec04488a9e9da93b,6056b576d201a5e5238e8a3e,Honduras,Midwest,13 or older,no,2021-03-20_22h55.41.011,empathy_intonation_perc,2020.2.10,Win32,60,,,,,,,,,,1,mexican,1,1,1.754255,0,16,16,48,1,49,./stim/wavs/andalusian_mismatch_interrogative-partial-wh_Cuando-comia-la-fruta.wav,./stim/wavs/argentine_mismatch_interrogative-partial-wh_Cuando-comia-la-fruta.wav,./stim/wavs/castilian_mismatch_interrogative-partial-wh_Cuando-comia-la-fruta.wav,./stim/wavs/chilean_mismatch_interrogative-partial-wh_Cuando-comia-la-fruta.wav,./stim/wavs/cuban_mismatch_interrogative-partial-wh_Cuando-comia-la-fruta.wav,./stim/wavs/mexican_mismatch_interrogative-partial-wh_Cuando-comia-la-fruta.wav,./stim/wavs/peruvian_mismatch_interrogative-partial-wh_Cuando-comia-la-fruta.wav,./stim/wavs/puertorican_mismatch_interrogative-partial-wh_Cuando-comia-la-fruta.wav,,,,,,,,,,,,,,,,,,,,,,,,,,,,,,,,,,,,,,,,,,,,,,,,,,,,,,,,
,,,,,,,5f3fecd2bc9bac0b4ca93d30,60568611ec04488a9e9da93b,6056b576d201a5e5238e8a3e,Honduras,Midwest,13 or older,no,2021-03-20_22h55.41.011,empathy_intonation_perc,2020.2.10,Win32,60,,,,,,,,,,1,puertorican,0,0,1.57652,0,17,17,25,1,26,./stim/wavs/andalusian_match_interrogative-total-yn_Daniel-iba-a-Bolivia.wav,./stim/wavs/argentine_match_interrogative-total-yn_Daniel-iba-a-Bolivia.wav,./stim/wavs/castilian_match_interrogative-total-yn_Daniel-iba-a-Bolivia.wav,./stim/wavs/chilean_match_interrogative-total-yn_Daniel-iba-a-Bolivia.wav,./stim/wavs/cuban_match_interrogative-total-yn_Daniel-iba-a-Bolivia.wav,./stim/wavs/mexican_match_interrogative-total-yn_Daniel-iba-a-Bolivia.wav,./stim/wavs/peruvian_match_interrogative-total-yn_Daniel-iba-a-Bolivia.wav,./stim/wavs/puertorican_match_interrogative-total-yn_Daniel-iba-a-Bolivia.wav,,,,,,,,,,,,,,,,,,,,,,,,,,,,,,,,,,,,,,,,,,,,,,,,,,,,,,,,
,,,,,,,5f3fecd2bc9bac0b4ca93d30,60568611ec04488a9e9da93b,6056b576d201a5e5238e8a3e,Honduras,Midwest,13 or older,no,2021-03-20_22h55.41.011,empathy_intonation_perc,2020.2.10,Win32,60,,,,,,,,,,1,mexican,1,1,1.734135,0,18,18,27,1,28,./stim/wavs/andalusian_match_interrogative-total-yn_Emilio-ama-la-marcha.wav,./stim/wavs/argentine_match_interrogative-total-yn_Emilio-ama-la-marcha.wav,./stim/wavs/castilian_match_interrogative-total-yn_Emilio-ama-la-marcha.wav,./stim/wavs/chilean_match_interrogative-total-yn_Emilio-ama-la-marcha.wav,./stim/wavs/cuban_match_interrogative-total-yn_Emilio-ama-la-marcha.wav,./stim/wavs/mexican_match_interrogative-total-yn_Emilio-ama-la-marcha.wav,./stim/wavs/peruvian_match_interrogative-total-yn_Emilio-ama-la-marcha.wav,./stim/wavs/puertorican_match_interrogative-total-yn_Emilio-ama-la-marcha.wav,,,,,,,,,,,,,,,,,,,,,,,,,,,,,,,,,,,,,,,,,,,,,,,,,,,,,,,,
,,,,,,,5f3fecd2bc9bac0b4ca93d30,60568611ec04488a9e9da93b,6056b576d201a5e5238e8a3e,Honduras,Midwest,13 or older,no,2021-03-20_22h55.41.011,empathy_intonation_perc,2020.2.10,Win32,60,,,,,,,,,,1,chilean,1,1,1.20328,0,19,19,23,1,24,./stim/wavs/andalusian_match_interrogative-partial-wh_Por-que-iba-a-Bolivia.wav,./stim/wavs/argentine_match_interrogative-partial-wh_Por-que-iba-a-Bolivia.wav,./stim/wavs/castilian_match_interrogative-partial-wh_Por-que-iba-a-Bolivia.wav,./stim/wavs/chilean_match_interrogative-partial-wh_Por-que-iba-a-Bolivia.wav,./stim/wavs/cuban_match_interrogative-partial-wh_Por-que-iba-a-Bolivia.wav,./stim/wavs/mexican_match_interrogative-partial-wh_Por-que-iba-a-Bolivia.wav,./stim/wavs/peruvian_match_interrogative-partial-wh_Por-que-iba-a-Bolivia.wav,./stim/wavs/puertorican_match_interrogative-partial-wh_Por-que-iba-a-Bolivia.wav,,,,,,,,,,,,,,,,,,,,,,,,,,,,,,,,,,,,,,,,,,,,,,,,,,,,,,,,
,,,,,,,5f3fecd2bc9bac0b4ca93d30,60568611ec04488a9e9da93b,6056b576d201a5e5238e8a3e,Honduras,Midwest,13 or older,no,2021-03-20_22h55.41.011,empathy_intonation_perc,2020.2.10,Win32,60,,,,,,,,,,0,cuban,0,1,1.40539,0,20,20,44,1,45,./stim/wavs/andalusian_mismatch_declarative-narrow-focus_La-nina-lava-el-plato.wav,./stim/wavs/argentine_mismatch_declarative-narrow-focus_La-nina-lava-el-plato.wav,./stim/wavs/castilian_mismatch_declarative-narrow-focus_La-nina-lava-el-plato.wav,./stim/wavs/chilean_mismatch_declarative-narrow-focus_La-nina-lava-el-plato.wav,./stim/wavs/cuban_mismatch_declarative-narrow-focus_La-nina-lava-el-plato.wav,./stim/wavs/mexican_mismatch_declarative-narrow-focus_La-nina-lava-el-plato.wav,./stim/wavs/peruvian_mismatch_declarative-narrow-focus_La-nina-lava-el-plato.wav,./stim/wavs/puertorican_mismatch_declarative-narrow-focus_La-nina-lava-el-plato.wav,,,,,,,,,,,,,,,,,,,,,,,,,,,,,,,,,,,,,,,,,,,,,,,,,,,,,,,,
,,,,,,,5f3fecd2bc9bac0b4ca93d30,60568611ec04488a9e9da93b,6056b576d201a5e5238e8a3e,Honduras,Midwest,13 or older,no,2021-03-20_22h55.41.011,empathy_intonation_perc,2020.2.10,Win32,60,,,,,,,,,,1,cuban,1,1,1.43653,0,21,21,16,1,17,./stim/wavs/andalusian_match_interrogative-partial-wh_Cuando-bebia-el-vino.wav,./stim/wavs/argentine_match_interrogative-partial-wh_Cuando-bebia-el-vino.wav,./stim/wavs/castilian_match_interrogative-partial-wh_Cuando-bebia-el-vino.wav,./stim/wavs/chilean_match_interrogative-partial-wh_Cuando-bebia-el-vino.wav,./stim/wavs/cuban_match_interrogative-partial-wh_Cuando-bebia-el-vino.wav,./stim/wavs/mexican_match_interrogative-partial-wh_Cuando-bebia-el-vino.wav,./stim/wavs/peruvian_match_interrogative-partial-wh_Cuando-bebia-el-vino.wav,./stim/wavs/puertorican_match_interrogative-partial-wh_Cuando-bebia-el-vino.wav,,,,,,,,,,,,,,,,,,,,,,,,,,,,,,,,,,,,,,,,,,,,,,,,,,,,,,,,
,,,,,,,5f3fecd2bc9bac0b4ca93d30,60568611ec04488a9e9da93b,6056b576d201a5e5238e8a3e,Honduras,Midwest,13 or older,no,2021-03-20_22h55.41.011,empathy_intonation_perc,2020.2.10,Win32,60,,,,,,,,,,0,mexican,0,1,1.91399,0,22,22,39,1,40,./stim/wavs/andalusian_mismatch_declarative-broad-focus_Mi-tia-odia-la-lluvia.wav,./stim/wavs/argentine_mismatch_declarative-broad-focus_Mi-tia-odia-la-lluvia.wav,./stim/wavs/castilian_mismatch_declarative-broad-focus_Mi-tia-odia-la-lluvia.wav,./stim/wavs/chilean_mismatch_declarative-broad-focus_Mi-tia-odia-la-lluvia.wav,./stim/wavs/cuban_mismatch_declarative-broad-focus_Mi-tia-odia-la-lluvia.wav,./stim/wavs/mexican_mismatch_declarative-broad-focus_Mi-tia-odia-la-lluvia.wav,./stim/wavs/peruvian_mismatch_declarative-broad-focus_Mi-tia-odia-la-lluvia.wav,./stim/wavs/puertorican_mismatch_declarative-broad-focus_Mi-tia-odia-la-lluvia.wav,,,,,,,,,,,,,,,,,,,,,,,,,,,,,,,,,,,,,,,,,,,,,,,,,,,,,,,,
,,,,,,,5f3fecd2bc9bac0b4ca93d30,60568611ec04488a9e9da93b,6056b576d201a5e5238e8a3e,Honduras,Midwest,13 or older,no,2021-03-20_22h55.41.011,empathy_intonation_perc,2020.2.10,Win32,60,,,,,,,,,,1,cuban,1,1,1.433545,0,23,23,20,1,21,./stim/wavs/andalusian_match_interrogative-partial-wh_Por-que-abre-el-regalo.wav,./stim/wavs/argentine_match_interrogative-partial-wh_Por-que-abre-el-regalo.wav,./stim/wavs/castilian_match_interrogative-partial-wh_Por-que-abre-el-regalo.wav,./stim/wavs/chilean_match_interrogative-partial-wh_Por-que-abre-el-regalo.wav,./stim/wavs/cuban_match_interrogative-partial-wh_Por-que-abre-el-regalo.wav,./stim/wavs/mexican_match_interrogative-partial-wh_Por-que-abre-el-regalo.wav,./stim/wavs/peruvian_match_interrogative-partial-wh_Por-que-abre-el-regalo.wav,./stim/wavs/puertorican_match_interrogative-partial-wh_Por-que-abre-el-regalo.wav,,,,,,,,,,,,,,,,,,,,,,,,,,,,,,,,,,,,,,,,,,,,,,,,,,,,,,,,
,,,,,,,5f3fecd2bc9bac0b4ca93d30,60568611ec04488a9e9da93b,6056b576d201a5e5238e8a3e,Honduras,Midwest,13 or older,no,2021-03-20_22h55.41.011,empathy_intonation_perc,2020.2.10,Win32,60,,,,,,,,,,1,peruvian,1,1,1.58372,0,24,24,54,1,55,./stim/wavs/andalusian_mismatch_interrogative-partial-wh_Por-que-venia-del-lago.wav,./stim/wavs/argentine_mismatch_interrogative-partial-wh_Por-que-venia-del-lago.wav,./stim/wavs/castilian_mismatch_interrogative-partial-wh_Por-que-venia-del-lago.wav,./stim/wavs/chilean_mismatch_interrogative-partial-wh_Por-que-venia-del-lago.wav,./stim/wavs/cuban_mismatch_interrogative-partial-wh_Por-que-venia-del-lago.wav,./stim/wavs/mexican_mismatch_interrogative-partial-wh_Por-que-venia-del-lago.wav,./stim/wavs/peruvian_mismatch_interrogative-partial-wh_Por-que-venia-del-lago.wav,./stim/wavs/puertorican_mismatch_interrogative-partial-wh_Por-que-venia-del-lago.wav,,,,,,,,,,,,,,,,,,,,,,,,,,,,,,,,,,,,,,,,,,,,,,,,,,,,,,,,
,,,,,,,5f3fecd2bc9bac0b4ca93d30,60568611ec04488a9e9da93b,6056b576d201a5e5238e8a3e,Honduras,Midwest,13 or older,no,2021-03-20_22h55.41.011,empathy_intonation_perc,2020.2.10,Win32,60,,,,,,,,,,0,argentine,0,1,2.036165,0,25,25,3,1,4,./stim/wavs/andalusian_match_declarative-broad-focus_Emilio-ama-la-marcha.wav,./stim/wavs/argentine_match_declarative-broad-focus_Emilio-ama-la-marcha.wav,./stim/wavs/castilian_match_declarative-broad-focus_Emilio-ama-la-marcha.wav,./stim/wavs/chilean_match_declarative-broad-focus_Emilio-ama-la-marcha.wav,./stim/wavs/cuban_match_declarative-broad-focus_Emilio-ama-la-marcha.wav,./stim/wavs/mexican_match_declarative-broad-focus_Emilio-ama-la-marcha.wav,./stim/wavs/peruvian_match_declarative-broad-focus_Emilio-ama-la-marcha.wav,./stim/wavs/puertorican_match_declarative-broad-focus_Emilio-ama-la-marcha.wav,,,,,,,,,,,,,,,,,,,,,,,,,,,,,,,,,,,,,,,,,,,,,,,,,,,,,,,,
,,,,,,,5f3fecd2bc9bac0b4ca93d30,60568611ec04488a9e9da93b,6056b576d201a5e5238e8a3e,Honduras,Midwest,13 or older,no,2021-03-20_22h55.41.011,empathy_intonation_perc,2020.2.10,Win32,60,,,,,,,,,,1,chilean,0,0,1.420805,0,26,26,60,1,61,./stim/wavs/andalusian_mismatch_interrogative-total-yn_La-nina-lava-el-plato.wav,./stim/wavs/argentine_mismatch_interrogative-total-yn_La-nina-lava-el-plato.wav,./stim/wavs/castilian_mismatch_interrogative-total-yn_La-nina-lava-el-plato.wav,./stim/wavs/chilean_mismatch_interrogative-total-yn_La-nina-lava-el-plato.wav,./stim/wavs/cuban_mismatch_interrogative-total-yn_La-nina-lava-el-plato.wav,./stim/wavs/mexican_mismatch_interrogative-total-yn_La-nina-lava-el-plato.wav,./stim/wavs/peruvian_mismatch_interrogative-total-yn_La-nina-lava-el-plato.wav,./stim/wavs/puertorican_mismatch_interrogative-total-yn_La-nina-lava-el-plato.wav,,,,,,,,,,,,,,,,,,,,,,,,,,,,,,,,,,,,,,,,,,,,,,,,,,,,,,,,
,,,,,,,5f3fecd2bc9bac0b4ca93d30,60568611ec04488a9e9da93b,6056b576d201a5e5238e8a3e,Honduras,Midwest,13 or older,no,2021-03-20_22h55.41.011,empathy_intonation_perc,2020.2.10,Win32,60,,,,,,,,,,1,mexican,0,0,1.60062,0,27,27,30,1,31,./stim/wavs/andalusian_match_interrogative-total-yn_Mariano-habla-del-tiempo.wav,./stim/wavs/argentine_match_interrogative-total-yn_Mariano-habla-del-tiempo.wav,./stim/wavs/castilian_match_interrogative-total-yn_Mariano-habla-del-tiempo.wav,./stim/wavs/chilean_match_interrogative-total-yn_Mariano-habla-del-tiempo.wav,./stim/wavs/cuban_match_interrogative-total-yn_Mariano-habla-del-tiempo.wav,./stim/wavs/mexican_match_interrogative-total-yn_Mariano-habla-del-tiempo.wav,./stim/wavs/peruvian_match_interrogative-total-yn_Mariano-habla-del-tiempo.wav,./stim/wavs/puertorican_match_interrogative-total-yn_Mariano-habla-del-tiempo.wav,,,,,,,,,,,,,,,,,,,,,,,,,,,,,,,,,,,,,,,,,,,,,,,,,,,,,,,,
,,,,,,,5f3fecd2bc9bac0b4ca93d30,60568611ec04488a9e9da93b,6056b576d201a5e5238e8a3e,Honduras,Midwest,13 or older,no,2021-03-20_22h55.41.011,empathy_intonation_perc,2020.2.10,Win32,60,,,,,,,,,,0,andalusian,0,1,1.494245,0,28,28,42,1,43,./stim/wavs/andalusian_mismatch_declarative-narrow-focus_El-nino-oye-el-rio.wav,./stim/wavs/argentine_mismatch_declarative-narrow-focus_El-nino-oye-el-rio.wav,./stim/wavs/castilian_mismatch_declarative-narrow-focus_El-nino-oye-el-rio.wav,./stim/wavs/chilean_mismatch_declarative-narrow-focus_El-nino-oye-el-rio.wav,./stim/wavs/cuban_mismatch_declarative-narrow-focus_El-nino-oye-el-rio.wav,./stim/wavs/mexican_mismatch_declarative-narrow-focus_El-nino-oye-el-rio.wav,./stim/wavs/peruvian_mismatch_declarative-narrow-focus_El-nino-oye-el-rio.wav,./stim/wavs/puertorican_mismatch_declarative-narrow-focus_El-nino-oye-el-rio.wav,,,,,,,,,,,,,,,,,,,,,,,,,,,,,,,,,,,,,,,,,,,,,,,,,,,,,,,,
,,,,,,,5f3fecd2bc9bac0b4ca93d30,60568611ec04488a9e9da93b,6056b576d201a5e5238e8a3e,Honduras,Midwest,13 or older,no,2021-03-20_22h55.41.011,empathy_intonation_perc,2020.2.10,Win32,60,,,,,,,,,,0,mexican,0,1,1.48641,0,29,29,12,1,13,./stim/wavs/andalusian_match_declarative-narrow-focus_Manuela-vende-el-carro.wav,./stim/wavs/argentine_match_declarative-narrow-focus_Manuela-vende-el-carro.wav,./stim/wavs/castilian_match_declarative-narrow-focus_Manuela-vende-el-carro.wav,./stim/wavs/chilean_match_declarative-narrow-focus_Manuela-vende-el-carro.wav,./stim/wavs/cuban_match_declarative-narrow-focus_Manuela-vende-el-carro.wav,./stim/wavs/mexican_match_declarative-narrow-focus_Manuela-vende-el-carro.wav,./stim/wavs/peruvian_match_declarative-narrow-focus_Manuela-vende-el-carro.wav,./stim/wavs/puertorican_match_declarative-narrow-focus_Manuela-vende-el-carro.wav,,,,,,,,,,,,,,,,,,,,,,,,,,,,,,,,,,,,,,,,,,,,,,,,,,,,,,,,
,,,,,,,5f3fecd2bc9bac0b4ca93d30,60568611ec04488a9e9da93b,6056b576d201a5e5238e8a3e,Honduras,Midwest,13 or older,no,2021-03-20_22h55.41.011,empathy_intonation_perc,2020.2.10,Win32,60,,,,,,,,,,0,castilian,0,1,1.91798,0,30,30,6,1,7,./stim/wavs/andalusian_match_declarative-broad-focus_Mariano-habla-del-tiempo.wav,./stim/wavs/argentine_match_declarative-broad-focus_Mariano-habla-del-tiempo.wav,./stim/wavs/castilian_match_declarative-broad-focus_Mariano-habla-del-tiempo.wav,./stim/wavs/chilean_match_declarative-broad-focus_Mariano-habla-del-tiempo.wav,./stim/wavs/cuban_match_declarative-broad-focus_Mariano-habla-del-tiempo.wav,./stim/wavs/mexican_match_declarative-broad-focus_Mariano-habla-del-tiempo.wav,./stim/wavs/peruvian_match_declarative-broad-focus_Mariano-habla-del-tiempo.wav,./stim/wavs/puertorican_match_declarative-broad-focus_Mariano-habla-del-tiempo.wav,,,,,,,,,,,,,,,,,,,,,,,,,,,,,,,,,,,,,,,,,,,,,,,,,,,,,,,,
,,,,,,,5f3fecd2bc9bac0b4ca93d30,60568611ec04488a9e9da93b,6056b576d201a5e5238e8a3e,Honduras,Midwest,13 or older,no,2021-03-20_22h55.41.011,empathy_intonation_perc,2020.2.10,Win32,60,,,,,,,,,,1,andalusian,1,1,2.149475,0,31,31,53,1,54,./stim/wavs/andalusian_mismatch_interrogative-partial-wh_Por-que-oia-el-rio.wav,./stim/wavs/argentine_mismatch_interrogative-partial-wh_Por-que-oia-el-rio.wav,./stim/wavs/castilian_mismatch_interrogative-partial-wh_Por-que-oia-el-rio.wav,./stim/wavs/chilean_mismatch_interrogative-partial-wh_Por-que-oia-el-rio.wav,./stim/wavs/cuban_mismatch_interrogative-partial-wh_Por-que-oia-el-rio.wav,./stim/wavs/mexican_mismatch_interrogative-partial-wh_Por-que-oia-el-rio.wav,./stim/wavs/peruvian_mismatch_interrogative-partial-wh_Por-que-oia-el-rio.wav,./stim/wavs/puertorican_mismatch_interrogative-partial-wh_Por-que-oia-el-rio.wav,,,,,,,,,,,,,,,,,,,,,,,,,,,,,,,,,,,,,,,,,,,,,,,,,,,,,,,,
,,,,,,,5f3fecd2bc9bac0b4ca93d30,60568611ec04488a9e9da93b,6056b576d201a5e5238e8a3e,Honduras,Midwest,13 or older,no,2021-03-20_22h55.41.011,empathy_intonation_perc,2020.2.10,Win32,60,,,,,,,,,,1,mexican,1,1,1.76757,0,32,32,63,1,64,./stim/wavs/andalusian_mismatch_interrogative-total-yn_Mi-tia-odia-la-lluvia.wav,./stim/wavs/argentine_mismatch_interrogative-total-yn_Mi-tia-odia-la-lluvia.wav,./stim/wavs/castilian_mismatch_interrogative-total-yn_Mi-tia-odia-la-lluvia.wav,./stim/wavs/chilean_mismatch_interrogative-total-yn_Mi-tia-odia-la-lluvia.wav,./stim/wavs/cuban_mismatch_interrogative-total-yn_Mi-tia-odia-la-lluvia.wav,./stim/wavs/mexican_mismatch_interrogative-total-yn_Mi-tia-odia-la-lluvia.wav,./stim/wavs/peruvian_mismatch_interrogative-total-yn_Mi-tia-odia-la-lluvia.wav,./stim/wavs/puertorican_mismatch_interrogative-total-yn_Mi-tia-odia-la-lluvia.wav,,,,,,,,,,,,,,,,,,,,,,,,,,,,,,,,,,,,,,,,,,,,,,,,,,,,,,,,
,,,,,,,5f3fecd2bc9bac0b4ca93d30,60568611ec04488a9e9da93b,6056b576d201a5e5238e8a3e,Honduras,Midwest,13 or older,no,2021-03-20_22h55.41.011,empathy_intonation_perc,2020.2.10,Win32,60,,,,,,,,,,0,castilian,0,1,1.768115,0,33,33,9,1,10,./stim/wavs/andalusian_match_declarative-narrow-focus_Daniel-iba-a-Bolivia.wav,./stim/wavs/argentine_match_declarative-narrow-focus_Daniel-iba-a-Bolivia.wav,./stim/wavs/castilian_match_declarative-narrow-focus_Daniel-iba-a-Bolivia.wav,./stim/wavs/chilean_match_declarative-narrow-focus_Daniel-iba-a-Bolivia.wav,./stim/wavs/cuban_match_declarative-narrow-focus_Daniel-iba-a-Bolivia.wav,./stim/wavs/mexican_match_declarative-narrow-focus_Daniel-iba-a-Bolivia.wav,./stim/wavs/peruvian_match_declarative-narrow-focus_Daniel-iba-a-Bolivia.wav,./stim/wavs/puertorican_match_declarative-narrow-focus_Daniel-iba-a-Bolivia.wav,,,,,,,,,,,,,,,,,,,,,,,,,,,,,,,,,,,,,,,,,,,,,,,,,,,,,,,,
,,,,,,,5f3fecd2bc9bac0b4ca93d30,60568611ec04488a9e9da93b,6056b576d201a5e5238e8a3e,Honduras,Midwest,13 or older,no,2021-03-20_22h55.41.011,empathy_intonation_perc,2020.2.10,Win32,60,,,,,,,,,,0,puertorican,0,1,1.768285,0,34,34,35,1,36,./stim/wavs/andalusian_mismatch_declarative-broad-focus_La-maestra-vive-en-Paris.wav,./stim/wavs/argentine_mismatch_declarative-broad-focus_La-maestra-vive-en-Paris.wav,./stim/wavs/castilian_mismatch_declarative-broad-focus_La-maestra-vive-en-Paris.wav,./stim/wavs/chilean_mismatch_declarative-broad-focus_La-maestra-vive-en-Paris.wav,./stim/wavs/cuban_mismatch_declarative-broad-focus_La-maestra-vive-en-Paris.wav,./stim/wavs/mexican_mismatch_declarative-broad-focus_La-maestra-vive-en-Paris.wav,./stim/wavs/peruvian_mismatch_declarative-broad-focus_La-maestra-vive-en-Paris.wav,./stim/wavs/puertorican_mismatch_declarative-broad-focus_La-maestra-vive-en-Paris.wav,,,,,,,,,,,,,,,,,,,,,,,,,,,,,,,,,,,,,,,,,,,,,,,,,,,,,,,,
,,,,,,,5f3fecd2bc9bac0b4ca93d30,60568611ec04488a9e9da93b,6056b576d201a5e5238e8a3e,Honduras,Midwest,13 or older,no,2021-03-20_22h55.41.011,empathy_intonation_perc,2020.2.10,Win32,60,,,,,,,,,,0,mexican,0,1,1.526075,0,35,35,46,1,47,./stim/wavs/andalusian_mismatch_declarative-narrow-focus_Mi-novio-viene-del-lago.wav,./stim/wavs/argentine_mismatch_declarative-narrow-focus_Mi-novio-viene-del-lago.wav,./stim/wavs/castilian_mismatch_declarative-narrow-focus_Mi-novio-viene-del-lago.wav,./stim/wavs/chilean_mismatch_declarative-narrow-focus_Mi-novio-viene-del-lago.wav,./stim/wavs/cuban_mismatch_declarative-narrow-focus_Mi-novio-viene-del-lago.wav,./stim/wavs/mexican_mismatch_declarative-narrow-focus_Mi-novio-viene-del-lago.wav,./stim/wavs/peruvian_mismatch_declarative-narrow-focus_Mi-novio-viene-del-lago.wav,./stim/wavs/puertorican_mismatch_declarative-narrow-focus_Mi-novio-viene-del-lago.wav,,,,,,,,,,,,,,,,,,,,,,,,,,,,,,,,,,,,,,,,,,,,,,,,,,,,,,,,
,,,,,,,5f3fecd2bc9bac0b4ca93d30,60568611ec04488a9e9da93b,6056b576d201a5e5238e8a3e,Honduras,Midwest,13 or older,no,2021-03-20_22h55.41.011,empathy_intonation_perc,2020.2.10,Win32,60,,,,,,,,,,1,chilean,1,1,1.69991,0,36,36,17,1,18,./stim/wavs/andalusian_match_interrogative-partial-wh_Cuando-leia-el-libro.wav,./stim/wavs/argentine_match_interrogative-partial-wh_Cuando-leia-el-libro.wav,./stim/wavs/castilian_match_interrogative-partial-wh_Cuando-leia-el-libro.wav,./stim/wavs/chilean_match_interrogative-partial-wh_Cuando-leia-el-libro.wav,./stim/wavs/cuban_match_interrogative-partial-wh_Cuando-leia-el-libro.wav,./stim/wavs/mexican_match_interrogative-partial-wh_Cuando-leia-el-libro.wav,./stim/wavs/peruvian_match_interrogative-partial-wh_Cuando-leia-el-libro.wav,./stim/wavs/puertorican_match_interrogative-partial-wh_Cuando-leia-el-libro.wav,,,,,,,,,,,,,,,,,,,,,,,,,,,,,,,,,,,,,,,,,,,,,,,,,,,,,,,,
,,,,,,,5f3fecd2bc9bac0b4ca93d30,60568611ec04488a9e9da93b,6056b576d201a5e5238e8a3e,Honduras,Midwest,13 or older,no,2021-03-20_22h55.41.011,empathy_intonation_perc,2020.2.10,Win32,60,,,,,,,,,,1,argentine,0,0,1.81804,0,37,37,22,1,23,./stim/wavs/andalusian_match_interrogative-partial-wh_Por-que-hablaba-del-agua.wav,./stim/wavs/argentine_match_interrogative-partial-wh_Por-que-hablaba-del-agua.wav,./stim/wavs/castilian_match_interrogative-partial-wh_Por-que-hablaba-del-agua.wav,./stim/wavs/chilean_match_interrogative-partial-wh_Por-que-hablaba-del-agua.wav,./stim/wavs/cuban_match_interrogative-partial-wh_Por-que-hablaba-del-agua.wav,./stim/wavs/mexican_match_interrogative-partial-wh_Por-que-hablaba-del-agua.wav,./stim/wavs/peruvian_match_interrogative-partial-wh_Por-que-hablaba-del-agua.wav,./stim/wavs/puertorican_match_interrogative-partial-wh_Por-que-hablaba-del-agua.wav,,,,,,,,,,,,,,,,,,,,,,,,,,,,,,,,,,,,,,,,,,,,,,,,,,,,,,,,
,,,,,,,5f3fecd2bc9bac0b4ca93d30,60568611ec04488a9e9da93b,6056b576d201a5e5238e8a3e,Honduras,Midwest,13 or older,no,2021-03-20_22h55.41.011,empathy_intonation_perc,2020.2.10,Win32,60,,,,,,,,,,1,puertorican,0,0,1.567995,0,38,38,28,1,29,./stim/wavs/andalusian_match_interrogative-total-yn_Manuela-vende-el-carro.wav,./stim/wavs/argentine_match_interrogative-total-yn_Manuela-vende-el-carro.wav,./stim/wavs/castilian_match_interrogative-total-yn_Manuela-vende-el-carro.wav,./stim/wavs/chilean_match_interrogative-total-yn_Manuela-vende-el-carro.wav,./stim/wavs/cuban_match_interrogative-total-yn_Manuela-vende-el-carro.wav,./stim/wavs/mexican_match_interrogative-total-yn_Manuela-vende-el-carro.wav,./stim/wavs/peruvian_match_interrogative-total-yn_Manuela-vende-el-carro.wav,./stim/wavs/puertorican_match_interrogative-total-yn_Manuela-vende-el-carro.wav,,,,,,,,,,,,,,,,,,,,,,,,,,,,,,,,,,,,,,,,,,,,,,,,,,,,,,,,
,,,,,,,5f3fecd2bc9bac0b4ca93d30,60568611ec04488a9e9da93b,6056b576d201a5e5238e8a3e,Honduras,Midwest,13 or older,no,2021-03-20_22h55.41.011,empathy_intonation_perc,2020.2.10,Win32,60,,,,,,,,,,0,peruvian,0,1,1.867305,0,39,39,14,1,15,./stim/wavs/andalusian_match_declarative-narrow-focus_Mariano-habla-del-tiempo.wav,./stim/wavs/argentine_match_declarative-narrow-focus_Mariano-habla-del-tiempo.wav,./stim/wavs/castilian_match_declarative-narrow-focus_Mariano-habla-del-tiempo.wav,./stim/wavs/chilean_match_declarative-narrow-focus_Mariano-habla-del-tiempo.wav,./stim/wavs/cuban_match_declarative-narrow-focus_Mariano-habla-del-tiempo.wav,./stim/wavs/mexican_match_declarative-narrow-focus_Mariano-habla-del-tiempo.wav,./stim/wavs/peruvian_match_declarative-narrow-focus_Mariano-habla-del-tiempo.wav,./stim/wavs/puertorican_match_declarative-narrow-focus_Mariano-habla-del-tiempo.wav,,,,,,,,,,,,,,,,,,,,,,,,,,,,,,,,,,,,,,,,,,,,,,,,,,,,,,,,
,,,,,,,5f3fecd2bc9bac0b4ca93d30,60568611ec04488a9e9da93b,6056b576d201a5e5238e8a3e,Honduras,Midwest,13 or older,no,2021-03-20_22h55.41.011,empathy_intonation_perc,2020.2.10,Win32,60,,,,,,,,,,1,cuban,0,0,1.667755,0,40,40,50,1,51,./stim/wavs/andalusian_mismatch_interrogative-partial-wh_Cuando-miraba-la-luna.wav,./stim/wavs/argentine_mismatch_interrogative-partial-wh_Cuando-miraba-la-luna.wav,./stim/wavs/castilian_mismatch_interrogative-partial-wh_Cuando-miraba-la-luna.wav,./stim/wavs/chilean_mismatch_interrogative-partial-wh_Cuando-miraba-la-luna.wav,./stim/wavs/cuban_mismatch_interrogative-partial-wh_Cuando-miraba-la-luna.wav,./stim/wavs/mexican_mismatch_interrogative-partial-wh_Cuando-miraba-la-luna.wav,./stim/wavs/peruvian_mismatch_interrogative-partial-wh_Cuando-miraba-la-luna.wav,./stim/wavs/puertorican_mismatch_interrogative-partial-wh_Cuando-miraba-la-luna.wav,,,,,,,,,,,,,,,,,,,,,,,,,,,,,,,,,,,,,,,,,,,,,,,,,,,,,,,,
,,,,,,,5f3fecd2bc9bac0b4ca93d30,60568611ec04488a9e9da93b,6056b576d201a5e5238e8a3e,Honduras,Midwest,13 or older,no,2021-03-20_22h55.41.011,empathy_intonation_perc,2020.2.10,Win32,60,,,,,,,,,,0,chilean,0,1,2.119985,0,41,41,38,1,39,./stim/wavs/andalusian_mismatch_declarative-broad-focus_Mi-novio-viene-del-lago.wav,./stim/wavs/argentine_mismatch_declarative-broad-focus_Mi-novio-viene-del-lago.wav,./stim/wavs/castilian_mismatch_declarative-broad-focus_Mi-novio-viene-del-lago.wav,./stim/wavs/chilean_mismatch_declarative-broad-focus_Mi-novio-viene-del-lago.wav,./stim/wavs/cuban_mismatch_declarative-broad-focus_Mi-novio-viene-del-lago.wav,./stim/wavs/mexican_mismatch_declarative-broad-focus_Mi-novio-viene-del-lago.wav,./stim/wavs/peruvian_mismatch_declarative-broad-focus_Mi-novio-viene-del-lago.wav,./stim/wavs/puertorican_mismatch_declarative-broad-focus_Mi-novio-viene-del-lago.wav,,,,,,,,,,,,,,,,,,,,,,,,,,,,,,,,,,,,,,,,,,,,,,,,,,,,,,,,
,,,,,,,5f3fecd2bc9bac0b4ca93d30,60568611ec04488a9e9da93b,6056b576d201a5e5238e8a3e,Honduras,Midwest,13 or older,no,2021-03-20_22h55.41.011,empathy_intonation_perc,2020.2.10,Win32,60,,,,,,,,,,1,castilian,1,1,2.18376,0,42,42,59,1,60,./stim/wavs/andalusian_mismatch_interrogative-total-yn_La-maestra-vive-en-Paris.wav,./stim/wavs/argentine_mismatch_interrogative-total-yn_La-maestra-vive-en-Paris.wav,./stim/wavs/castilian_mismatch_interrogative-total-yn_La-maestra-vive-en-Paris.wav,./stim/wavs/chilean_mismatch_interrogative-total-yn_La-maestra-vive-en-Paris.wav,./stim/wavs/cuban_mismatch_interrogative-total-yn_La-maestra-vive-en-Paris.wav,./stim/wavs/mexican_mismatch_interrogative-total-yn_La-maestra-vive-en-Paris.wav,./stim/wavs/peruvian_mismatch_interrogative-total-yn_La-maestra-vive-en-Paris.wav,./stim/wavs/puertorican_mismatch_interrogative-total-yn_La-maestra-vive-en-Paris.wav,,,,,,,,,,,,,,,,,,,,,,,,,,,,,,,,,,,,,,,,,,,,,,,,,,,,,,,,
,,,,,,,5f3fecd2bc9bac0b4ca93d30,60568611ec04488a9e9da93b,6056b576d201a5e5238e8a3e,Honduras,Midwest,13 or older,no,2021-03-20_22h55.41.011,empathy_intonation_perc,2020.2.10,Win32,60,,,,,,,,,,0,mexican,0,1,1.451975,0,43,43,0,1,1,./stim/wavs/andalusian_match_declarative-broad-focus_Ana-lleva-el-abrigo.wav,./stim/wavs/argentine_match_declarative-broad-focus_Ana-lleva-el-abrigo.wav,./stim/wavs/castilian_match_declarative-broad-focus_Ana-lleva-el-abrigo.wav,./stim/wavs/chilean_match_declarative-broad-focus_Ana-lleva-el-abrigo.wav,./stim/wavs/cuban_match_declarative-broad-focus_Ana-lleva-el-abrigo.wav,./stim/wavs/mexican_match_declarative-broad-focus_Ana-lleva-el-abrigo.wav,./stim/wavs/peruvian_match_declarative-broad-focus_Ana-lleva-el-abrigo.wav,./stim/wavs/puertorican_match_declarative-broad-focus_Ana-lleva-el-abrigo.wav,,,,,,,,,,,,,,,,,,,,,,,,,,,,,,,,,,,,,,,,,,,,,,,,,,,,,,,,
,,,,,,,5f3fecd2bc9bac0b4ca93d30,60568611ec04488a9e9da93b,6056b576d201a5e5238e8a3e,Honduras,Midwest,13 or older,no,2021-03-20_22h55.41.011,empathy_intonation_perc,2020.2.10,Win32,60,,,,,,,,,,0,castilian,0,1,2.052665,0,44,44,43,1,44,./stim/wavs/andalusian_mismatch_declarative-narrow-focus_La-maestra-vive-en-Paris.wav,./stim/wavs/argentine_mismatch_declarative-narrow-focus_La-maestra-vive-en-Paris.wav,./stim/wavs/castilian_mismatch_declarative-narrow-focus_La-maestra-vive-en-Paris.wav,./stim/wavs/chilean_mismatch_declarative-narrow-focus_La-maestra-vive-en-Paris.wav,./stim/wavs/cuban_mismatch_declarative-narrow-focus_La-maestra-vive-en-Paris.wav,./stim/wavs/mexican_mismatch_declarative-narrow-focus_La-maestra-vive-en-Paris.wav,./stim/wavs/peruvian_mismatch_declarative-narrow-focus_La-maestra-vive-en-Paris.wav,./stim/wavs/puertorican_mismatch_declarative-narrow-focus_La-maestra-vive-en-Paris.wav,,,,,,,,,,,,,,,,,,,,,,,,,,,,,,,,,,,,,,,,,,,,,,,,,,,,,,,,
,,,,,,,5f3fecd2bc9bac0b4ca93d30,60568611ec04488a9e9da93b,6056b576d201a5e5238e8a3e,Honduras,Midwest,13 or older,no,2021-03-20_22h55.41.011,empathy_intonation_perc,2020.2.10,Win32,60,,,,,,,,,,1,chilean,0,0,1.567975,0,45,45,18,1,19,./stim/wavs/andalusian_match_interrogative-partial-wh_Cuando-lleva-el-abrigo.wav,./stim/wavs/argentine_match_interrogative-partial-wh_Cuando-lleva-el-abrigo.wav,./stim/wavs/castilian_match_interrogative-partial-wh_Cuando-lleva-el-abrigo.wav,./stim/wavs/chilean_match_interrogative-partial-wh_Cuando-lleva-el-abrigo.wav,./stim/wavs/cuban_match_interrogative-partial-wh_Cuando-lleva-el-abrigo.wav,./stim/wavs/mexican_match_interrogative-partial-wh_Cuando-lleva-el-abrigo.wav,./stim/wavs/peruvian_match_interrogative-partial-wh_Cuando-lleva-el-abrigo.wav,./stim/wavs/puertorican_match_interrogative-partial-wh_Cuando-lleva-el-abrigo.wav,,,,,,,,,,,,,,,,,,,,,,,,,,,,,,,,,,,,,,,,,,,,,,,,,,,,,,,,
,,,,,,,5f3fecd2bc9bac0b4ca93d30,60568611ec04488a9e9da93b,6056b576d201a5e5238e8a3e,Honduras,Midwest,13 or older,no,2021-03-20_22h55.41.011,empathy_intonation_perc,2020.2.10,Win32,60,,,,,,,,,,0,andalusian,0,1,1.702115,0,46,46,34,1,35,./stim/wavs/andalusian_mismatch_declarative-broad-focus_El-nino-oye-el-rio.wav,./stim/wavs/argentine_mismatch_declarative-broad-focus_El-nino-oye-el-rio.wav,./stim/wavs/castilian_mismatch_declarative-broad-focus_El-nino-oye-el-rio.wav,./stim/wavs/chilean_mismatch_declarative-broad-focus_El-nino-oye-el-rio.wav,./stim/wavs/cuban_mismatch_declarative-broad-focus_El-nino-oye-el-rio.wav,./stim/wavs/mexican_mismatch_declarative-broad-focus_El-nino-oye-el-rio.wav,./stim/wavs/peruvian_mismatch_declarative-broad-focus_El-nino-oye-el-rio.wav,./stim/wavs/puertorican_mismatch_declarative-broad-focus_El-nino-oye-el-rio.wav,,,,,,,,,,,,,,,,,,,,,,,,,,,,,,,,,,,,,,,,,,,,,,,,,,,,,,,,
,,,,,,,5f3fecd2bc9bac0b4ca93d30,60568611ec04488a9e9da93b,6056b576d201a5e5238e8a3e,Honduras,Midwest,13 or older,no,2021-03-20_22h55.41.011,empathy_intonation_perc,2020.2.10,Win32,60,,,,,,,,,,0,chilean,0,1,1.537585,0,47,47,41,1,42,./stim/wavs/andalusian_mismatch_declarative-narrow-focus_El-hombre-mira-la-luna.wav,./stim/wavs/argentine_mismatch_declarative-narrow-focus_El-hombre-mira-la-luna.wav,./stim/wavs/castilian_mismatch_declarative-narrow-focus_El-hombre-mira-la-luna.wav,./stim/wavs/chilean_mismatch_declarative-narrow-focus_El-hombre-mira-la-luna.wav,./stim/wavs/cuban_mismatch_declarative-narrow-focus_El-hombre-mira-la-luna.wav,./stim/wavs/mexican_mismatch_declarative-narrow-focus_El-hombre-mira-la-luna.wav,./stim/wavs/peruvian_mismatch_declarative-narrow-focus_El-hombre-mira-la-luna.wav,./stim/wavs/puertorican_mismatch_declarative-narrow-focus_El-hombre-mira-la-luna.wav,,,,,,,,,,,,,,,,,,,,,,,,,,,,,,,,,,,,,,,,,,,,,,,,,,,,,,,,
,,,,,,,5f3fecd2bc9bac0b4ca93d30,60568611ec04488a9e9da93b,6056b576d201a5e5238e8a3e,Honduras,Midwest,13 or older,no,2021-03-20_22h55.41.011,empathy_intonation_perc,2020.2.10,Win32,60,,,,,,,,,,0,cuban,0,1,1.472815,0,48,48,5,1,6,./stim/wavs/andalusian_match_declarative-broad-focus_Maria-bebe-el-vino.wav,./stim/wavs/argentine_match_declarative-broad-focus_Maria-bebe-el-vino.wav,./stim/wavs/castilian_match_declarative-broad-focus_Maria-bebe-el-vino.wav,./stim/wavs/chilean_match_declarative-broad-focus_Maria-bebe-el-vino.wav,./stim/wavs/cuban_match_declarative-broad-focus_Maria-bebe-el-vino.wav,./stim/wavs/mexican_match_declarative-broad-focus_Maria-bebe-el-vino.wav,./stim/wavs/peruvian_match_declarative-broad-focus_Maria-bebe-el-vino.wav,./stim/wavs/puertorican_match_declarative-broad-focus_Maria-bebe-el-vino.wav,,,,,,,,,,,,,,,,,,,,,,,,,,,,,,,,,,,,,,,,,,,,,,,,,,,,,,,,
,,,,,,,5f3fecd2bc9bac0b4ca93d30,60568611ec04488a9e9da93b,6056b576d201a5e5238e8a3e,Honduras,Midwest,13 or older,no,2021-03-20_22h55.41.011,empathy_intonation_perc,2020.2.10,Win32,60,,,,,,,,,,0,peruvian,0,1,1.69945,0,49,49,11,1,12,./stim/wavs/andalusian_match_declarative-narrow-focus_Emilio-ama-la-marcha.wav,./stim/wavs/argentine_match_declarative-narrow-focus_Emilio-ama-la-marcha.wav,./stim/wavs/castilian_match_declarative-narrow-focus_Emilio-ama-la-marcha.wav,./stim/wavs/chilean_match_declarative-narrow-focus_Emilio-ama-la-marcha.wav,./stim/wavs/cuban_match_declarative-narrow-focus_Emilio-ama-la-marcha.wav,./stim/wavs/mexican_match_declarative-narrow-focus_Emilio-ama-la-marcha.wav,./stim/wavs/peruvian_match_declarative-narrow-focus_Emilio-ama-la-marcha.wav,./stim/wavs/puertorican_match_declarative-narrow-focus_Emilio-ama-la-marcha.wav,,,,,,,,,,,,,,,,,,,,,,,,,,,,,,,,,,,,,,,,,,,,,,,,,,,,,,,,
,,,,,,,5f3fecd2bc9bac0b4ca93d30,60568611ec04488a9e9da93b,6056b576d201a5e5238e8a3e,Honduras,Midwest,13 or older,no,2021-03-20_22h55.41.011,empathy_intonation_perc,2020.2.10,Win32,60,,,,,,,,,,0,puertorican,0,1,1.41953,0,50,50,2,1,3,./stim/wavs/andalusian_match_declarative-broad-focus_David-leia-el-libro.wav,./stim/wavs/argentine_match_declarative-broad-focus_David-leia-el-libro.wav,./stim/wavs/castilian_match_declarative-broad-focus_David-leia-el-libro.wav,./stim/wavs/chilean_match_declarative-broad-focus_David-leia-el-libro.wav,./stim/wavs/cuban_match_declarative-broad-focus_David-leia-el-libro.wav,./stim/wavs/mexican_match_declarative-broad-focus_David-leia-el-libro.wav,./stim/wavs/peruvian_match_declarative-broad-focus_David-leia-el-libro.wav,./stim/wavs/puertorican_match_declarative-broad-focus_David-leia-el-libro.wav,,,,,,,,,,,,,,,,,,,,,,,,,,,,,,,,,,,,,,,,,,,,,,,,,,,,,,,,
,,,,,,,5f3fecd2bc9bac0b4ca93d30,60568611ec04488a9e9da93b,6056b576d201a5e5238e8a3e,Honduras,Midwest,13 or older,no,2021-03-20_22h55.41.011,empathy_intonation_perc,2020.2.10,Win32,60,,,,,,,,,,1,castilian,1,1,1.66911,0,51,51,26,1,27,./stim/wavs/andalusian_match_interrogative-total-yn_David-leia-el-libro.wav,./stim/wavs/argentine_match_interrogative-total-yn_David-leia-el-libro.wav,./stim/wavs/castilian_match_interrogative-total-yn_David-leia-el-libro.wav,./stim/wavs/chilean_match_interrogative-total-yn_David-leia-el-libro.wav,./stim/wavs/cuban_match_interrogative-total-yn_David-leia-el-libro.wav,./stim/wavs/mexican_match_interrogative-total-yn_David-leia-el-libro.wav,./stim/wavs/peruvian_match_interrogative-total-yn_David-leia-el-libro.wav,./stim/wavs/puertorican_match_interrogative-total-yn_David-leia-el-libro.wav,,,,,,,,,,,,,,,,,,,,,,,,,,,,,,,,,,,,,,,,,,,,,,,,,,,,,,,,
,,,,,,,5f3fecd2bc9bac0b4ca93d30,60568611ec04488a9e9da93b,6056b576d201a5e5238e8a3e,Honduras,Midwest,13 or older,no,2021-03-20_22h55.41.011,empathy_intonation_perc,2020.2.10,Win32,60,,,,,,,,,,0,argentine,0,1,1.68661,0,52,52,1,1,2,./stim/wavs/andalusian_match_declarative-broad-focus_Daniel-iba-a-Bolivia.wav,./stim/wavs/argentine_match_declarative-broad-focus_Daniel-iba-a-Bolivia.wav,./stim/wavs/castilian_match_declarative-broad-focus_Daniel-iba-a-Bolivia.wav,./stim/wavs/chilean_match_declarative-broad-focus_Daniel-iba-a-Bolivia.wav,./stim/wavs/cuban_match_declarative-broad-focus_Daniel-iba-a-Bolivia.wav,./stim/wavs/mexican_match_declarative-broad-focus_Daniel-iba-a-Bolivia.wav,./stim/wavs/peruvian_match_declarative-broad-focus_Daniel-iba-a-Bolivia.wav,./stim/wavs/puertorican_match_declarative-broad-focus_Daniel-iba-a-Bolivia.wav,,,,,,,,,,,,,,,,,,,,,,,,,,,,,,,,,,,,,,,,,,,,,,,,,,,,,,,,
,,,,,,,5f3fecd2bc9bac0b4ca93d30,60568611ec04488a9e9da93b,6056b576d201a5e5238e8a3e,Honduras,Midwest,13 or older,no,2021-03-20_22h55.41.011,empathy_intonation_perc,2020.2.10,Win32,60,,,,,,,,,,0,castilian,0,1,1.791125,0,53,53,15,1,16,./stim/wavs/andalusian_match_declarative-narrow-focus_Marta-abre-el-regalo.wav,./stim/wavs/argentine_match_declarative-narrow-focus_Marta-abre-el-regalo.wav,./stim/wavs/castilian_match_declarative-narrow-focus_Marta-abre-el-regalo.wav,./stim/wavs/chilean_match_declarative-narrow-focus_Marta-abre-el-regalo.wav,./stim/wavs/cuban_match_declarative-narrow-focus_Marta-abre-el-regalo.wav,./stim/wavs/mexican_match_declarative-narrow-focus_Marta-abre-el-regalo.wav,./stim/wavs/peruvian_match_declarative-narrow-focus_Marta-abre-el-regalo.wav,./stim/wavs/puertorican_match_declarative-narrow-focus_Marta-abre-el-regalo.wav,,,,,,,,,,,,,,,,,,,,,,,,,,,,,,,,,,,,,,,,,,,,,,,,,,,,,,,,
,,,,,,,5f3fecd2bc9bac0b4ca93d30,60568611ec04488a9e9da93b,6056b576d201a5e5238e8a3e,Honduras,Midwest,13 or older,no,2021-03-20_22h55.41.011,empathy_intonation_perc,2020.2.10,Win32,60,,,,,,,,,,0,mexican,0,1,1.50073,0,54,54,40,1,41,./stim/wavs/andalusian_mismatch_declarative-narrow-focus_El-bebe-comia-muy-bien.wav,./stim/wavs/argentine_mismatch_declarative-narrow-focus_El-bebe-comia-muy-bien.wav,./stim/wavs/castilian_mismatch_declarative-narrow-focus_El-bebe-comia-muy-bien.wav,./stim/wavs/chilean_mismatch_declarative-narrow-focus_El-bebe-comia-muy-bien.wav,./stim/wavs/cuban_mismatch_declarative-narrow-focus_El-bebe-comia-muy-bien.wav,./stim/wavs/mexican_mismatch_declarative-narrow-focus_El-bebe-comia-muy-bien.wav,./stim/wavs/peruvian_mismatch_declarative-narrow-focus_El-bebe-comia-muy-bien.wav,./stim/wavs/puertorican_mismatch_declarative-narrow-focus_El-bebe-comia-muy-bien.wav,,,,,,,,,,,,,,,,,,,,,,,,,,,,,,,,,,,,,,,,,,,,,,,,,,,,,,,,
,,,,,,,5f3fecd2bc9bac0b4ca93d30,60568611ec04488a9e9da93b,6056b576d201a5e5238e8a3e,Honduras,Midwest,13 or older,no,2021-03-20_22h55.41.011,empathy_intonation_perc,2020.2.10,Win32,60,,,,,,,,,,0,cuban,0,1,1.783345,0,55,55,4,1,5,./stim/wavs/andalusian_match_declarative-broad-focus_Manuela-vende-el-carro.wav,./stim/wavs/argentine_match_declarative-broad-focus_Manuela-vende-el-carro.wav,./stim/wavs/castilian_match_declarative-broad-focus_Manuela-vende-el-carro.wav,./stim/wavs/chilean_match_declarative-broad-focus_Manuela-vende-el-carro.wav,./stim/wavs/cuban_match_declarative-broad-focus_Manuela-vende-el-carro.wav,./stim/wavs/mexican_match_declarative-broad-focus_Manuela-vende-el-carro.wav,./stim/wavs/peruvian_match_declarative-broad-focus_Manuela-vende-el-carro.wav,./stim/wavs/puertorican_match_declarative-broad-focus_Manuela-vende-el-carro.wav,,,,,,,,,,,,,,,,,,,,,,,,,,,,,,,,,,,,,,,,,,,,,,,,,,,,,,,,
,,,,,,,5f3fecd2bc9bac0b4ca93d30,60568611ec04488a9e9da93b,6056b576d201a5e5238e8a3e,Honduras,Midwest,13 or older,no,2021-03-20_22h55.41.011,empathy_intonation_perc,2020.2.10,Win32,60,,,,,,,,,,0,castilian,0,1,2.16604,0,56,56,7,1,8,./stim/wavs/andalusian_match_declarative-broad-focus_Marta-abre-el-regalo.wav,./stim/wavs/argentine_match_declarative-broad-focus_Marta-abre-el-regalo.wav,./stim/wavs/castilian_match_declarative-broad-focus_Marta-abre-el-regalo.wav,./stim/wavs/chilean_match_declarative-broad-focus_Marta-abre-el-regalo.wav,./stim/wavs/cuban_match_declarative-broad-focus_Marta-abre-el-regalo.wav,./stim/wavs/mexican_match_declarative-broad-focus_Marta-abre-el-regalo.wav,./stim/wavs/peruvian_match_declarative-broad-focus_Marta-abre-el-regalo.wav,./stim/wavs/puertorican_match_declarative-broad-focus_Marta-abre-el-regalo.wav,,,,,,,,,,,,,,,,,,,,,,,,,,,,,,,,,,,,,,,,,,,,,,,,,,,,,,,,
,,,,,,,5f3fecd2bc9bac0b4ca93d30,60568611ec04488a9e9da93b,6056b576d201a5e5238e8a3e,Honduras,Midwest,13 or older,no,2021-03-20_22h55.41.011,empathy_intonation_perc,2020.2.10,Win32,60,,,,,,,,,,0,puertorican,0,1,1.99976,0,57,57,47,1,48,./stim/wavs/andalusian_mismatch_declarative-narrow-focus_Mi-tia-odia-la-lluvia.wav,./stim/wavs/argentine_mismatch_declarative-narrow-focus_Mi-tia-odia-la-lluvia.wav,./stim/wavs/castilian_mismatch_declarative-narrow-focus_Mi-tia-odia-la-lluvia.wav,./stim/wavs/chilean_mismatch_declarative-narrow-focus_Mi-tia-odia-la-lluvia.wav,./stim/wavs/cuban_mismatch_declarative-narrow-focus_Mi-tia-odia-la-lluvia.wav,./stim/wavs/mexican_mismatch_declarative-narrow-focus_Mi-tia-odia-la-lluvia.wav,./stim/wavs/peruvian_mismatch_declarative-narrow-focus_Mi-tia-odia-la-lluvia.wav,./stim/wavs/puertorican_mismatch_declarative-narrow-focus_Mi-tia-odia-la-lluvia.wav,,,,,,,,,,,,,,,,,,,,,,,,,,,,,,,,,,,,,,,,,,,,,,,,,,,,,,,,
,,,,,,,5f3fecd2bc9bac0b4ca93d30,60568611ec04488a9e9da93b,6056b576d201a5e5238e8a3e,Honduras,Midwest,13 or older,no,2021-03-20_22h55.41.011,empathy_intonation_perc,2020.2.10,Win32,60,,,,,,,,,,1,andalusian,1,1,2.03389,0,58,58,55,1,56,./stim/wavs/andalusian_mismatch_interrogative-partial-wh_Por-que-vivia-en-Paris.wav,./stim/wavs/argentine_mismatch_interrogative-partial-wh_Por-que-vivia-en-Paris.wav,./stim/wavs/castilian_mismatch_interrogative-partial-wh_Por-que-vivia-en-Paris.wav,./stim/wavs/chilean_mismatch_interrogative-partial-wh_Por-que-vivia-en-Paris.wav,./stim/wavs/cuban_mismatch_interrogative-partial-wh_Por-que-vivia-en-Paris.wav,./stim/wavs/mexican_mismatch_interrogative-partial-wh_Por-que-vivia-en-Paris.wav,./stim/wavs/peruvian_mismatch_interrogative-partial-wh_Por-que-vivia-en-Paris.wav,./stim/wavs/puertorican_mismatch_interrogative-partial-wh_Por-que-vivia-en-Paris.wav,,,,,,,,,,,,,,,,,,,,,,,,,,,,,,,,,,,,,,,,,,,,,,,,,,,,,,,,
,,,,,,,5f3fecd2bc9bac0b4ca93d30,60568611ec04488a9e9da93b,6056b576d201a5e5238e8a3e,Honduras,Midwest,13 or older,no,2021-03-20_22h55.41.011,empathy_intonation_perc,2020.2.10,Win32,60,,,,,,,,,,0,andalusian,0,1,1.82202,0,59,59,37,1,38,./stim/wavs/andalusian_mismatch_declarative-broad-focus_Mi-madre-come-la-fruta.wav,./stim/wavs/argentine_mismatch_declarative-broad-focus_Mi-madre-come-la-fruta.wav,./stim/wavs/castilian_mismatch_declarative-broad-focus_Mi-madre-come-la-fruta.wav,./stim/wavs/chilean_mismatch_declarative-broad-focus_Mi-madre-come-la-fruta.wav,./stim/wavs/cuban_mismatch_declarative-broad-focus_Mi-madre-come-la-fruta.wav,./stim/wavs/mexican_mismatch_declarative-broad-focus_Mi-madre-come-la-fruta.wav,./stim/wavs/peruvian_mismatch_declarative-broad-focus_Mi-madre-come-la-fruta.wav,./stim/wavs/puertorican_mismatch_declarative-broad-focus_Mi-madre-come-la-fruta.wav,,,,,,,,,,,,,,,,,,,,,,,,,,,,,,,,,,,,,,,,,,,,,,,,,,,,,,,,
,,,,,,,5f3fecd2bc9bac0b4ca93d30,60568611ec04488a9e9da93b,6056b576d201a5e5238e8a3e,Honduras,Midwest,13 or older,no,2021-03-20_22h55.41.011,empathy_intonation_perc,2020.2.10,Win32,60,,,,,,,,,,1,peruvian,0,0,1.817725,0,60,60,49,1,50,./stim/wavs/andalusian_mismatch_interrogative-partial-wh_Cuando-lavaba-el-plato.wav,./stim/wavs/argentine_mismatch_interrogative-partial-wh_Cuando-lavaba-el-plato.wav,./stim/wavs/castilian_mismatch_interrogative-partial-wh_Cuando-lavaba-el-plato.wav,./stim/wavs/chilean_mismatch_interrogative-partial-wh_Cuando-lavaba-el-plato.wav,./stim/wavs/cuban_mismatch_interrogative-partial-wh_Cuando-lavaba-el-plato.wav,./stim/wavs/mexican_mismatch_interrogative-partial-wh_Cuando-lavaba-el-plato.wav,./stim/wavs/peruvian_mismatch_interrogative-partial-wh_Cuando-lavaba-el-plato.wav,./stim/wavs/puertorican_mismatch_interrogative-partial-wh_Cuando-lavaba-el-plato.wav,,,,,,,,,,,,,,,,,,,,,,,,,,,,,,,,,,,,,,,,,,,,,,,,,,,,,,,,
,,,,,,,5f3fecd2bc9bac0b4ca93d30,60568611ec04488a9e9da93b,6056b576d201a5e5238e8a3e,Honduras,Midwest,13 or older,no,2021-03-20_22h55.41.011,empathy_intonation_perc,2020.2.10,Win32,60,,,,,,,,,,1,andalusian,0,0,1.850835,0,61,61,56,1,57,./stim/wavs/andalusian_mismatch_interrogative-total-yn_El-bebe-comia-muy-bien.wav,./stim/wavs/argentine_mismatch_interrogative-total-yn_El-bebe-comia-muy-bien.wav,./stim/wavs/castilian_mismatch_interrogative-total-yn_El-bebe-comia-muy-bien.wav,./stim/wavs/chilean_mismatch_interrogative-total-yn_El-bebe-comia-muy-bien.wav,./stim/wavs/cuban_mismatch_interrogative-total-yn_El-bebe-comia-muy-bien.wav,./stim/wavs/mexican_mismatch_interrogative-total-yn_El-bebe-comia-muy-bien.wav,./stim/wavs/peruvian_mismatch_interrogative-total-yn_El-bebe-comia-muy-bien.wav,./stim/wavs/puertorican_mismatch_interrogative-total-yn_El-bebe-comia-muy-bien.wav,,,,,,,,,,,,,,,,,,,,,,,,,,,,,,,,,,,,,,,,,,,,,,,,,,,,,,,,
,,,,,,,5f3fecd2bc9bac0b4ca93d30,60568611ec04488a9e9da93b,6056b576d201a5e5238e8a3e,Honduras,Midwest,13 or older,no,2021-03-20_22h55.41.011,empathy_intonation_perc,2020.2.10,Win32,60,,,,,,,,,,1,cuban,1,1,2.399795,0,62,62,21,1,22,./stim/wavs/andalusian_match_interrogative-partial-wh_Por-que-ama-la-navidad.wav,./stim/wavs/argentine_match_interrogative-partial-wh_Por-que-ama-la-navidad.wav,./stim/wavs/castilian_match_interrogative-partial-wh_Por-que-ama-la-navidad.wav,./stim/wavs/chilean_match_interrogative-partial-wh_Por-que-ama-la-navidad.wav,./stim/wavs/cuban_match_interrogative-partial-wh_Por-que-ama-la-navidad.wav,./stim/wavs/mexican_match_interrogative-partial-wh_Por-que-ama-la-navidad.wav,./stim/wavs/peruvian_match_interrogative-partial-wh_Por-que-ama-la-navidad.wav,./stim/wavs/puertorican_match_interrogative-partial-wh_Por-que-ama-la-navidad.wav,,,,,,,,,,,,,,,,,,,,,,,,,,,,,,,,,,,,,,,,,,,,,,,,,,,,,,,,
,,,,,,,5f3fecd2bc9bac0b4ca93d30,60568611ec04488a9e9da93b,6056b576d201a5e5238e8a3e,Honduras,Midwest,13 or older,no,2021-03-20_22h55.41.011,empathy_intonation_perc,2020.2.10,Win32,60,,,,,,,,,,0,andalusian,0,1,2.734945,0,63,63,8,1,9,./stim/wavs/andalusian_match_declarative-narrow-focus_Ana-lleva-el-abrigo.wav,./stim/wavs/argentine_match_declarative-narrow-focus_Ana-lleva-el-abrigo.wav,./stim/wavs/castilian_match_declarative-narrow-focus_Ana-lleva-el-abrigo.wav,./stim/wavs/chilean_match_declarative-narrow-focus_Ana-lleva-el-abrigo.wav,./stim/wavs/cuban_match_declarative-narrow-focus_Ana-lleva-el-abrigo.wav,./stim/wavs/mexican_match_declarative-narrow-focus_Ana-lleva-el-abrigo.wav,./stim/wavs/peruvian_match_declarative-narrow-focus_Ana-lleva-el-abrigo.wav,./stim/wavs/puertorican_match_declarative-narrow-focus_Ana-lleva-el-abrigo.wav,,,,,,,,,,,,,,,,,,,,,,,,,,,,,,,,,,,,,,,,,,,,,,,,,,,,,,,,
,,,,,,,5f3fecd2bc9bac0b4ca93d30,60568611ec04488a9e9da93b,6056b576d201a5e5238e8a3e,Honduras,Midwest,13 or older,no,2021-03-20_22h55.41.011,empathy_intonation_perc,2020.2.10,Win32,60,,,,,,,,,,,,,,,,,,,,,,,,,,,,,h,1,3.37732,0,0,0,0,1,,,,,,,,,,,,,,,,,,,,,,,,,,,,,,,,,,,,,,,,,,,,,,,,
,,,,,"Great! Now we will move on. The next task consists of about 60 trials, in each of which you will see a string of letters. 
  
  Your task is to decide whether this is a real Spanish word or not.",(press the spacebar to continue),5f3fecd2bc9bac0b4ca93d30,60568611ec04488a9e9da93b,6056b576d201a5e5238e8a3e,Honduras,Midwest,13 or older,no,2021-03-20_22h55.41.011,empathy_intonation_perc,2020.2.10,Win32,60,,,,,,,,,,,,,,,,,,,,,,,,,,,,,,,,,,,,,0,0,0,0,1,,,,,,,,,,,,,,,,,,,,,,,,,,,,,,,,,,,,,,,,,,,
,,,,,"If you think it is an existing Spanish word, you type '1' (for 'REAL'), and if you think it is not an existing Spanish word, you type '0' (for 'FAKE').",(press the spacebar to continue),5f3fecd2bc9bac0b4ca93d30,60568611ec04488a9e9da93b,6056b576d201a5e5238e8a3e,Honduras,Midwest,13 or older,no,2021-03-20_22h55.41.011,empathy_intonation_perc,2020.2.10,Win32,60,,,,,,,,,,,,,,,,,,,,,,,,,,,,,,,,,,,,,0,1,1,1,1,,,,,,,,,,,,,,,,,,,,,,,,,,,,,,,,,,,,,,,,,,,
,,,,,"If you are sure that the word exists, even though you dont know its exact meaning, you may still respond '1' (REAL). 
  
  But if you are not sure if it is an existing word, you should respond '0' (FAKE).
  
  Let's do a practice round...",(press the spacebar to continue),5f3fecd2bc9bac0b4ca93d30,60568611ec04488a9e9da93b,6056b576d201a5e5238e8a3e,Honduras,Midwest,13 or older,no,2021-03-20_22h55.41.011,empathy_intonation_perc,2020.2.10,Win32,60,,,,,,,,,,,,,,,,,,,,,,,,,,,,,,,,,,,,,0,2,2,2,1,,,,,,,,,,,,,,,,,,,,,,,,,,,,,,,,,,,,,,,,,,,
,,,,,,,5f3fecd2bc9bac0b4ca93d30,60568611ec04488a9e9da93b,6056b576d201a5e5238e8a3e,Honduras,Midwest,13 or older,no,2021-03-20_22h55.41.011,empathy_intonation_perc,2020.2.10,Win32,60,,,,,,,,,,0,,,,,,,,,,,,,,,,,,,,,,,,,,,,,,,,1,0,2.9597,0,0,0,0,1,0,depiste,REAL,FAKE,,,,,,,,,,,,,,,,,,,,,,,,,,,,,,,
,,,,,,,5f3fecd2bc9bac0b4ca93d30,60568611ec04488a9e9da93b,6056b576d201a5e5238e8a3e,Honduras,Midwest,13 or older,no,2021-03-20_22h55.41.011,empathy_intonation_perc,2020.2.10,Win32,60,,,,,,,,,,1,,,,,,,,,,,,,,,,,,,,,,,,,,,,,,,,1,1,0.802475,0,1,1,1,1,0,s,REAL,FAKE,,,,,,,,,,,,,,,,,,,,,,,,,,,,,,,
,,,,,,,5f3fecd2bc9bac0b4ca93d30,60568611ec04488a9e9da93b,6056b576d201a5e5238e8a3e,Honduras,Midwest,13 or older,no,2021-03-20_22h55.41.011,empathy_intonation_perc,2020.2.10,Win32,60,,,,,,,,,,0,,,,,,,,,,,,,,,,,,,,,,,,,,,,,,,,0,1,1.108895,0,2,2,2,1,0,con,REAL,FAKE,,,,,,,,,,,,,,,,,,,,,,,,,,,,,,,
,,,,,,,5f3fecd2bc9bac0b4ca93d30,60568611ec04488a9e9da93b,6056b576d201a5e5238e8a3e,Honduras,Midwest,13 or older,no,2021-03-20_22h55.41.011,empathy_intonation_perc,2020.2.10,Win32,60,,,,,,,,,,0,,,,,,,,,,,,,,,,,,,,,,,,,,,,,,,,0,1,1.09534,0,3,3,3,1,0,calpar,REAL,FAKE,,,,,,,,,,,,,,,,,,,,,,,,,,,,,,,
,,,,,,,5f3fecd2bc9bac0b4ca93d30,60568611ec04488a9e9da93b,6056b576d201a5e5238e8a3e,Honduras,Midwest,13 or older,no,2021-03-20_22h55.41.011,empathy_intonation_perc,2020.2.10,Win32,60,,,,,,,,,,0,,,,,,,,,,,,,,,,,,,,,,,,,,,,,,,,0,1,1.931865,0,4,4,4,1,0,joten,REAL,FAKE,,,,,,,,,,,,,,,,,,,,,,,,,,,,,,,
,,,,,,,5f3fecd2bc9bac0b4ca93d30,60568611ec04488a9e9da93b,6056b576d201a5e5238e8a3e,Honduras,Midwest,13 or older,no,2021-03-20_22h55.41.011,empathy_intonation_perc,2020.2.10,Win32,60,,,,,,,,,,1,,,,,,,,,,,,,,,,,,,,,,,,,,,,,,,,1,1,1.3492,0,5,5,5,1,0,sacapuntas,REAL,FAKE,,,,,,,,,,,,,,,,,,,,,,,,,,,,,,,
,,,,,,,5f3fecd2bc9bac0b4ca93d30,60568611ec04488a9e9da93b,6056b576d201a5e5238e8a3e,Honduras,Midwest,13 or older,no,2021-03-20_22h55.41.011,empathy_intonation_perc,2020.2.10,Win32,60,,,,,,,,,,0,,,,,,,,,,,,,,,,,,,,,,,,,,,,,,,,0,1,1.028955,0,6,6,6,1,0,priba,REAL,FAKE,,,,,,,,,,,,,,,,,,,,,,,,,,,,,,,
,,,,,,,5f3fecd2bc9bac0b4ca93d30,60568611ec04488a9e9da93b,6056b576d201a5e5238e8a3e,Honduras,Midwest,13 or older,no,2021-03-20_22h55.41.011,empathy_intonation_perc,2020.2.10,Win32,60,,,,,,,,,,0,,,,,,,,,,,,,,,,,,,,,,,,,,,,,,,,0,1,1.07968,0,7,7,7,1,0,pelasula,REAL,FAKE,,,,,,,,,,,,,,,,,,,,,,,,,,,,,,,
,,,,,,,5f3fecd2bc9bac0b4ca93d30,60568611ec04488a9e9da93b,6056b576d201a5e5238e8a3e,Honduras,Midwest,13 or older,no,2021-03-20_22h55.41.011,empathy_intonation_perc,2020.2.10,Win32,60,,,,,,,,,,1,,,,,,,,,,,,,,,,,,,,,,,,,,,,,,,,1,1,1.26216,0,8,8,8,1,0,bien,REAL,FAKE,,,,,,,,,,,,,,,,,,,,,,,,,,,,,,,
,,,,,,,5f3fecd2bc9bac0b4ca93d30,60568611ec04488a9e9da93b,6056b576d201a5e5238e8a3e,Honduras,Midwest,13 or older,no,2021-03-20_22h55.41.011,empathy_intonation_perc,2020.2.10,Win32,60,,,,,,,,,,1,,,,,,,,,,,,,,,,,,,,,,,,,,,,,,,,1,1,0.581675,0,9,9,9,1,0,casa,REAL,FAKE,,,,,,,,,,,,,,,,,,,,,,,,,,,,,,,
,,,,,,,5f3fecd2bc9bac0b4ca93d30,60568611ec04488a9e9da93b,6056b576d201a5e5238e8a3e,Honduras,Midwest,13 or older,no,2021-03-20_22h55.41.011,empathy_intonation_perc,2020.2.10,Win32,60,,,,,,,,,,0,,,,,,,,,,,,,,,,,,,,,,,,,,,,,,,,1,0,1.22996,0,10,10,10,1,0,lejo,REAL,FAKE,,,,,,,,,,,,,,,,,,,,,,,,,,,,,,,
,,,,,,,5f3fecd2bc9bac0b4ca93d30,60568611ec04488a9e9da93b,6056b576d201a5e5238e8a3e,Honduras,Midwest,13 or older,no,2021-03-20_22h55.41.011,empathy_intonation_perc,2020.2.10,Win32,60,,,,,,,,,,0,,,,,,,,,,,,,,,,,,,,,,,,,,,,,,,,0,1,1.7785,0,11,11,11,1,0,pretantas,REAL,FAKE,,,,,,,,,,,,,,,,,,,,,,,,,,,,,,,
,,,,,,,5f3fecd2bc9bac0b4ca93d30,60568611ec04488a9e9da93b,6056b576d201a5e5238e8a3e,Honduras,Midwest,13 or older,no,2021-03-20_22h55.41.011,empathy_intonation_perc,2020.2.10,Win32,60,,,,,,,,,,1,,,,,,,,,,,,,,,,,,,,,,,,,,,,,,,,,,,,,,,,62,flaco,,,0,0,1.114075,0,0,0,61,1,REAL,FAKE,,,,,,,,,,,,,,,,,,,,,
,,,,,,,5f3fecd2bc9bac0b4ca93d30,60568611ec04488a9e9da93b,6056b576d201a5e5238e8a3e,Honduras,Midwest,13 or older,no,2021-03-20_22h55.41.011,empathy_intonation_perc,2020.2.10,Win32,60,,,,,,,,,,1,,,,,,,,,,,,,,,,,,,,,,,,,,,,,,,,,,,,,,,,44,cuchara,,,1,1,1.034065,0,1,1,43,1,REAL,FAKE,,,,,,,,,,,,,,,,,,,,,
,,,,,,,5f3fecd2bc9bac0b4ca93d30,60568611ec04488a9e9da93b,6056b576d201a5e5238e8a3e,Honduras,Midwest,13 or older,no,2021-03-20_22h55.41.011,empathy_intonation_perc,2020.2.10,Win32,60,,,,,,,,,,1,,,,,,,,,,,,,,,,,,,,,,,,,,,,,,,,,,,,,,,,34,aviso,,,0,0,0.82982,0,2,2,33,1,REAL,FAKE,,,,,,,,,,,,,,,,,,,,,
,,,,,,,5f3fecd2bc9bac0b4ca93d30,60568611ec04488a9e9da93b,6056b576d201a5e5238e8a3e,Honduras,Midwest,13 or older,no,2021-03-20_22h55.41.011,empathy_intonation_perc,2020.2.10,Win32,60,,,,,,,,,,1,,,,,,,,,,,,,,,,,,,,,,,,,,,,,,,,,,,,,,,,2,pellizcar,,,1,1,0.865415,0,3,3,1,1,REAL,FAKE,,,,,,,,,,,,,,,,,,,,,
,,,,,,,5f3fecd2bc9bac0b4ca93d30,60568611ec04488a9e9da93b,6056b576d201a5e5238e8a3e,Honduras,Midwest,13 or older,no,2021-03-20_22h55.41.011,empathy_intonation_perc,2020.2.10,Win32,60,,,,,,,,,,0,,,,,,,,,,,,,,,,,,,,,,,,,,,,,,,,,,,,,,,,70,temblo,,,0,1,1.01606,0,4,4,69,1,REAL,FAKE,,,,,,,,,,,,,,,,,,,,,
,,,,,,,5f3fecd2bc9bac0b4ca93d30,60568611ec04488a9e9da93b,6056b576d201a5e5238e8a3e,Honduras,Midwest,13 or older,no,2021-03-20_22h55.41.011,empathy_intonation_perc,2020.2.10,Win32,60,,,,,,,,,,1,,,,,,,,,,,,,,,,,,,,,,,,,,,,,,,,,,,,,,,,20,vido,,,1,1,1.74936,0,5,5,19,1,REAL,FAKE,,,,,,,,,,,,,,,,,,,,,
,,,,,,,5f3fecd2bc9bac0b4ca93d30,60568611ec04488a9e9da93b,6056b576d201a5e5238e8a3e,Honduras,Midwest,13 or older,no,2021-03-20_22h55.41.011,empathy_intonation_perc,2020.2.10,Win32,60,,,,,,,,,,1,,,,,,,,,,,,,,,,,,,,,,,,,,,,,,,,,,,,,,,,80,hormiga,,,0,0,1.535815,0,6,6,79,1,REAL,FAKE,,,,,,,,,,,,,,,,,,,,,
,,,,,,,5f3fecd2bc9bac0b4ca93d30,60568611ec04488a9e9da93b,6056b576d201a5e5238e8a3e,Honduras,Midwest,13 or older,no,2021-03-20_22h55.41.011,empathy_intonation_perc,2020.2.10,Win32,60,,,,,,,,,,0,,,,,,,,,,,,,,,,,,,,,,,,,,,,,,,,,,,,,,,,42,cadallo,,,0,1,0.983735,0,7,7,41,1,REAL,FAKE,,,,,,,,,,,,,,,,,,,,,
,,,,,,,5f3fecd2bc9bac0b4ca93d30,60568611ec04488a9e9da93b,6056b576d201a5e5238e8a3e,Honduras,Midwest,13 or older,no,2021-03-20_22h55.41.011,empathy_intonation_perc,2020.2.10,Win32,60,,,,,,,,,,1,,,,,,,,,,,,,,,,,,,,,,,,,,,,,,,,,,,,,,,,22,lacayo,,,0,0,0.768675,0,8,8,21,1,REAL,FAKE,,,,,,,,,,,,,,,,,,,,,
,,,,,,,5f3fecd2bc9bac0b4ca93d30,60568611ec04488a9e9da93b,6056b576d201a5e5238e8a3e,Honduras,Midwest,13 or older,no,2021-03-20_22h55.41.011,empathy_intonation_perc,2020.2.10,Win32,60,,,,,,,,,,1,,,,,,,,,,,,,,,,,,,,,,,,,,,,,,,,,,,,,,,,31,pandilla,,,1,1,1.86106,0,9,9,30,1,REAL,FAKE,,,,,,,,,,,,,,,,,,,,,
,,,,,,,5f3fecd2bc9bac0b4ca93d30,60568611ec04488a9e9da93b,6056b576d201a5e5238e8a3e,Honduras,Midwest,13 or older,no,2021-03-20_22h55.41.011,empathy_intonation_perc,2020.2.10,Win32,60,,,,,,,,,,1,,,,,,,,,,,,,,,,,,,,,,,,,,,,,,,,,,,,,,,,38,estornudar,,,1,1,1.53028,0,10,10,37,1,REAL,FAKE,,,,,,,,,,,,,,,,,,,,,
,,,,,,,5f3fecd2bc9bac0b4ca93d30,60568611ec04488a9e9da93b,6056b576d201a5e5238e8a3e,Honduras,Midwest,13 or older,no,2021-03-20_22h55.41.011,empathy_intonation_perc,2020.2.10,Win32,60,,,,,,,,,,1,,,,,,,,,,,,,,,,,,,,,,,,,,,,,,,,,,,,,,,,25,bisagra,,,0,0,1.2793,0,11,11,24,1,REAL,FAKE,,,,,,,,,,,,,,,,,,,,,
,,,,,,,5f3fecd2bc9bac0b4ca93d30,60568611ec04488a9e9da93b,6056b576d201a5e5238e8a3e,Honduras,Midwest,13 or older,no,2021-03-20_22h55.41.011,empathy_intonation_perc,2020.2.10,Win32,60,,,,,,,,,,1,,,,,,,,,,,,,,,,,,,,,,,,,,,,,,,,,,,,,,,,15,regar,,,1,1,1.16315,0,12,12,14,1,REAL,FAKE,,,,,,,,,,,,,,,,,,,,,
,,,,,,,5f3fecd2bc9bac0b4ca93d30,60568611ec04488a9e9da93b,6056b576d201a5e5238e8a3e,Honduras,Midwest,13 or older,no,2021-03-20_22h55.41.011,empathy_intonation_perc,2020.2.10,Win32,60,,,,,,,,,,1,,,,,,,,,,,,,,,,,,,,,,,,,,,,,,,,,,,,,,,,78,frondoso,,,0,0,1.315535,0,13,13,77,1,REAL,FAKE,,,,,,,,,,,,,,,,,,,,,
,,,,,,,5f3fecd2bc9bac0b4ca93d30,60568611ec04488a9e9da93b,6056b576d201a5e5238e8a3e,Honduras,Midwest,13 or older,no,2021-03-20_22h55.41.011,empathy_intonation_perc,2020.2.10,Win32,60,,,,,,,,,,1,,,,,,,,,,,,,,,,,,,,,,,,,,,,,,,,,,,,,,,,89,prisa,,,1,1,1.39594,0,14,14,88,1,REAL,FAKE,,,,,,,,,,,,,,,,,,,,,
,,,,,,,5f3fecd2bc9bac0b4ca93d30,60568611ec04488a9e9da93b,6056b576d201a5e5238e8a3e,Honduras,Midwest,13 or older,no,2021-03-20_22h55.41.011,empathy_intonation_perc,2020.2.10,Win32,60,,,,,,,,,,0,,,,,,,,,,,,,,,,,,,,,,,,,,,,,,,,,,,,,,,,66,hacido,,,0,1,1.18073,0,15,15,65,1,REAL,FAKE,,,,,,,,,,,,,,,,,,,,,
,,,,,,,5f3fecd2bc9bac0b4ca93d30,60568611ec04488a9e9da93b,6056b576d201a5e5238e8a3e,Honduras,Midwest,13 or older,no,2021-03-20_22h55.41.011,empathy_intonation_perc,2020.2.10,Win32,60,,,,,,,,,,1,,,,,,,,,,,,,,,,,,,,,,,,,,,,,,,,,,,,,,,,36,loro,,,0,0,1.837125,0,16,16,35,1,REAL,FAKE,,,,,,,,,,,,,,,,,,,,,
,,,,,,,5f3fecd2bc9bac0b4ca93d30,60568611ec04488a9e9da93b,6056b576d201a5e5238e8a3e,Honduras,Midwest,13 or older,no,2021-03-20_22h55.41.011,empathy_intonation_perc,2020.2.10,Win32,60,,,,,,,,,,0,,,,,,,,,,,,,,,,,,,,,,,,,,,,,,,,,,,,,,,,16,abracer,,,0,1,2.039425,0,17,17,15,1,REAL,FAKE,,,,,,,,,,,,,,,,,,,,,
,,,,,,,5f3fecd2bc9bac0b4ca93d30,60568611ec04488a9e9da93b,6056b576d201a5e5238e8a3e,Honduras,Midwest,13 or older,no,2021-03-20_22h55.41.011,empathy_intonation_perc,2020.2.10,Win32,60,,,,,,,,,,0,,,,,,,,,,,,,,,,,,,,,,,,,,,,,,,,,,,,,,,,87,grodo,,,0,1,1.08889,0,18,18,86,1,REAL,FAKE,,,,,,,,,,,,,,,,,,,,,
,,,,,,,5f3fecd2bc9bac0b4ca93d30,60568611ec04488a9e9da93b,6056b576d201a5e5238e8a3e,Honduras,Midwest,13 or older,no,2021-03-20_22h55.41.011,empathy_intonation_perc,2020.2.10,Win32,60,,,,,,,,,,1,,,,,,,,,,,,,,,,,,,,,,,,,,,,,,,,,,,,,,,,55,nevar,,,1,1,1.63506,0,19,19,54,1,REAL,FAKE,,,,,,,,,,,,,,,,,,,,,
,,,,,,,5f3fecd2bc9bac0b4ca93d30,60568611ec04488a9e9da93b,6056b576d201a5e5238e8a3e,Honduras,Midwest,13 or older,no,2021-03-20_22h55.41.011,empathy_intonation_perc,2020.2.10,Win32,60,,,,,,,,,,0,,,,,,,,,,,,,,,,,,,,,,,,,,,,,,,,,,,,,,,,58,plaudir,,,0,1,0.928815,0,20,20,57,1,REAL,FAKE,,,,,,,,,,,,,,,,,,,,,
,,,,,,,5f3fecd2bc9bac0b4ca93d30,60568611ec04488a9e9da93b,6056b576d201a5e5238e8a3e,Honduras,Midwest,13 or older,no,2021-03-20_22h55.41.011,empathy_intonation_perc,2020.2.10,Win32,60,,,,,,,,,,1,,,,,,,,,,,,,,,,,,,,,,,,,,,,,,,,,,,,,,,,48,ladrn,,,0,0,0.71834,0,21,21,47,1,REAL,FAKE,,,,,,,,,,,,,,,,,,,,,
,,,,,,,5f3fecd2bc9bac0b4ca93d30,60568611ec04488a9e9da93b,6056b576d201a5e5238e8a3e,Honduras,Midwest,13 or older,no,2021-03-20_22h55.41.011,empathy_intonation_perc,2020.2.10,Win32,60,,,,,,,,,,0,,,,,,,,,,,,,,,,,,,,,,,,,,,,,,,,,,,,,,,,32,fatacidad,,,0,1,2.14742,0,22,22,31,1,REAL,FAKE,,,,,,,,,,,,,,,,,,,,,
,,,,,,,5f3fecd2bc9bac0b4ca93d30,60568611ec04488a9e9da93b,6056b576d201a5e5238e8a3e,Honduras,Midwest,13 or older,no,2021-03-20_22h55.41.011,empathy_intonation_perc,2020.2.10,Win32,60,,,,,,,,,,1,,,,,,,,,,,,,,,,,,,,,,,,,,,,,,,,,,,,,,,,57,tacao,,,0,0,0.850505,0,23,23,56,1,REAL,FAKE,,,,,,,,,,,,,,,,,,,,,
,,,,,,,5f3fecd2bc9bac0b4ca93d30,60568611ec04488a9e9da93b,6056b576d201a5e5238e8a3e,Honduras,Midwest,13 or older,no,2021-03-20_22h55.41.011,empathy_intonation_perc,2020.2.10,Win32,60,,,,,,,,,,0,,,,,,,,,,,,,,,,,,,,,,,,,,,,,,,,,,,,,,,,53,vegada,,,0,1,0.914535,0,24,24,52,1,REAL,FAKE,,,,,,,,,,,,,,,,,,,,,
,,,,,,,5f3fecd2bc9bac0b4ca93d30,60568611ec04488a9e9da93b,6056b576d201a5e5238e8a3e,Honduras,Midwest,13 or older,no,2021-03-20_22h55.41.011,empathy_intonation_perc,2020.2.10,Win32,60,,,,,,,,,,1,,,,,,,,,,,,,,,,,,,,,,,,,,,,,,,,,,,,,,,,14,yunque,,,1,1,0.86966,0,25,25,13,1,REAL,FAKE,,,,,,,,,,,,,,,,,,,,,
,,,,,,,5f3fecd2bc9bac0b4ca93d30,60568611ec04488a9e9da93b,6056b576d201a5e5238e8a3e,Honduras,Midwest,13 or older,no,2021-03-20_22h55.41.011,empathy_intonation_perc,2020.2.10,Win32,60,,,,,,,,,,0,,,,,,,,,,,,,,,,,,,,,,,,,,,,,,,,,,,,,,,,21,capillo,,,1,0,2.14837,0,26,26,20,1,REAL,FAKE,,,,,,,,,,,,,,,,,,,,,
,,,,,,,5f3fecd2bc9bac0b4ca93d30,60568611ec04488a9e9da93b,6056b576d201a5e5238e8a3e,Honduras,Midwest,13 or older,no,2021-03-20_22h55.41.011,empathy_intonation_perc,2020.2.10,Win32,60,,,,,,,,,,1,,,,,,,,,,,,,,,,,,,,,,,,,,,,,,,,,,,,,,,,76,atar,,,0,0,0.667015,0,27,27,75,1,REAL,FAKE,,,,,,,,,,,,,,,,,,,,,
,,,,,,,5f3fecd2bc9bac0b4ca93d30,60568611ec04488a9e9da93b,6056b576d201a5e5238e8a3e,Honduras,Midwest,13 or older,no,2021-03-20_22h55.41.011,empathy_intonation_perc,2020.2.10,Win32,60,,,,,,,,,,1,,,,,,,,,,,,,,,,,,,,,,,,,,,,,,,,,,,,,,,,11,cenefa,,,0,0,1.349675,0,28,28,10,1,REAL,FAKE,,,,,,,,,,,,,,,,,,,,,
,,,,,,,5f3fecd2bc9bac0b4ca93d30,60568611ec04488a9e9da93b,6056b576d201a5e5238e8a3e,Honduras,Midwest,13 or older,no,2021-03-20_22h55.41.011,empathy_intonation_perc,2020.2.10,Win32,60,,,,,,,,,,1,,,,,,,,,,,,,,,,,,,,,,,,,,,,,,,,,,,,,,,,46,martillo,,,1,1,0.88379,0,29,29,45,1,REAL,FAKE,,,,,,,,,,,,,,,,,,,,,
,,,,,,,5f3fecd2bc9bac0b4ca93d30,60568611ec04488a9e9da93b,6056b576d201a5e5238e8a3e,Honduras,Midwest,13 or older,no,2021-03-20_22h55.41.011,empathy_intonation_perc,2020.2.10,Win32,60,,,,,,,,,,0,,,,,,,,,,,,,,,,,,,,,,,,,,,,,,,,,,,,,,,,17,floroso,,,0,1,0.649865,0,30,30,16,1,REAL,FAKE,,,,,,,,,,,,,,,,,,,,,
,,,,,,,5f3fecd2bc9bac0b4ca93d30,60568611ec04488a9e9da93b,6056b576d201a5e5238e8a3e,Honduras,Midwest,13 or older,no,2021-03-20_22h55.41.011,empathy_intonation_perc,2020.2.10,Win32,60,,,,,,,,,,0,,,,,,,,,,,,,,,,,,,,,,,,,,,,,,,,,,,,,,,,8,cadea,,,0,1,0.747845,0,31,31,7,1,REAL,FAKE,,,,,,,,,,,,,,,,,,,,,
,,,,,,,5f3fecd2bc9bac0b4ca93d30,60568611ec04488a9e9da93b,6056b576d201a5e5238e8a3e,Honduras,Midwest,13 or older,no,2021-03-20_22h55.41.011,empathy_intonation_perc,2020.2.10,Win32,60,,,,,,,,,,1,,,,,,,,,,,,,,,,,,,,,,,,,,,,,,,,,,,,,,,,71,polvoriento,,,0,0,1.713665,0,32,32,70,1,REAL,FAKE,,,,,,,,,,,,,,,,,,,,,
,,,,,,,5f3fecd2bc9bac0b4ca93d30,60568611ec04488a9e9da93b,6056b576d201a5e5238e8a3e,Honduras,Midwest,13 or older,no,2021-03-20_22h55.41.011,empathy_intonation_perc,2020.2.10,Win32,60,,,,,,,,,,1,,,,,,,,,,,,,,,,,,,,,,,,,,,,,,,,,,,,,,,,61,seda,,,1,1,0.6996,0,33,33,60,1,REAL,FAKE,,,,,,,,,,,,,,,,,,,,,
,,,,,,,5f3fecd2bc9bac0b4ca93d30,60568611ec04488a9e9da93b,6056b576d201a5e5238e8a3e,Honduras,Midwest,13 or older,no,2021-03-20_22h55.41.011,empathy_intonation_perc,2020.2.10,Win32,60,,,,,,,,,,0,,,,,,,,,,,,,,,,,,,,,,,,,,,,,,,,,,,,,,,,1,terzo,,,0,1,1.31426,0,34,34,0,1,REAL,FAKE,,,,,,,,,,,,,,,,,,,,,
,,,,,,,5f3fecd2bc9bac0b4ca93d30,60568611ec04488a9e9da93b,6056b576d201a5e5238e8a3e,Honduras,Midwest,13 or older,no,2021-03-20_22h55.41.011,empathy_intonation_perc,2020.2.10,Win32,60,,,,,,,,,,1,,,,,,,,,,,,,,,,,,,,,,,,,,,,,,,,,,,,,,,,7,psimo,,,1,1,1.146025,0,35,35,6,1,REAL,FAKE,,,,,,,,,,,,,,,,,,,,,
,,,,,,,5f3fecd2bc9bac0b4ca93d30,60568611ec04488a9e9da93b,6056b576d201a5e5238e8a3e,Honduras,Midwest,13 or older,no,2021-03-20_22h55.41.011,empathy_intonation_perc,2020.2.10,Win32,60,,,,,,,,,,1,,,,,,,,,,,,,,,,,,,,,,,,,,,,,,,,,,,,,,,,45,jilguero,,,0,0,0.92941,0,36,36,44,1,REAL,FAKE,,,,,,,,,,,,,,,,,,,,,
,,,,,,,5f3fecd2bc9bac0b4ca93d30,60568611ec04488a9e9da93b,6056b576d201a5e5238e8a3e,Honduras,Midwest,13 or older,no,2021-03-20_22h55.41.011,empathy_intonation_perc,2020.2.10,Win32,60,,,,,,,,,,0,,,,,,,,,,,,,,,,,,,,,,,,,,,,,,,,,,,,,,,,19,brecedad,,,0,1,0.81563,0,37,37,18,1,REAL,FAKE,,,,,,,,,,,,,,,,,,,,,
,,,,,,,5f3fecd2bc9bac0b4ca93d30,60568611ec04488a9e9da93b,6056b576d201a5e5238e8a3e,Honduras,Midwest,13 or older,no,2021-03-20_22h55.41.011,empathy_intonation_perc,2020.2.10,Win32,60,,,,,,,,,,1,,,,,,,,,,,,,,,,,,,,,,,,,,,,,,,,,,,,,,,,43,canela,,,0,0,0.82769,0,38,38,42,1,REAL,FAKE,,,,,,,,,,,,,,,,,,,,,
,,,,,,,5f3fecd2bc9bac0b4ca93d30,60568611ec04488a9e9da93b,6056b576d201a5e5238e8a3e,Honduras,Midwest,13 or older,no,2021-03-20_22h55.41.011,empathy_intonation_perc,2020.2.10,Win32,60,,,,,,,,,,1,,,,,,,,,,,,,,,,,,,,,,,,,,,,,,,,,,,,,,,,69,engatusar,,,0,0,0.78881,0,39,39,68,1,REAL,FAKE,,,,,,,,,,,,,,,,,,,,,
,,,,,,,5f3fecd2bc9bac0b4ca93d30,60568611ec04488a9e9da93b,6056b576d201a5e5238e8a3e,Honduras,Midwest,13 or older,no,2021-03-20_22h55.41.011,empathy_intonation_perc,2020.2.10,Win32,60,,,,,,,,,,1,,,,,,,,,,,,,,,,,,,,,,,,,,,,,,,,,,,,,,,,75,yacer,,,1,1,0.70616,0,40,40,74,1,REAL,FAKE,,,,,,,,,,,,,,,,,,,,,
,,,,,,,5f3fecd2bc9bac0b4ca93d30,60568611ec04488a9e9da93b,6056b576d201a5e5238e8a3e,Honduras,Midwest,13 or older,no,2021-03-20_22h55.41.011,empathy_intonation_perc,2020.2.10,Win32,60,,,,,,,,,,0,,,,,,,,,,,,,,,,,,,,,,,,,,,,,,,,,,,,,,,,33,pauca,,,0,1,0.814935,0,41,41,32,1,REAL,FAKE,,,,,,,,,,,,,,,,,,,,,
,,,,,,,5f3fecd2bc9bac0b4ca93d30,60568611ec04488a9e9da93b,6056b576d201a5e5238e8a3e,Honduras,Midwest,13 or older,no,2021-03-20_22h55.41.011,empathy_intonation_perc,2020.2.10,Win32,60,,,,,,,,,,1,,,,,,,,,,,,,,,,,,,,,,,,,,,,,,,,,,,,,,,,65,bizcocho,,,0,0,1.21819,0,42,42,64,1,REAL,FAKE,,,,,,,,,,,,,,,,,,,,,
,,,,,,,5f3fecd2bc9bac0b4ca93d30,60568611ec04488a9e9da93b,6056b576d201a5e5238e8a3e,Honduras,Midwest,13 or older,no,2021-03-20_22h55.41.011,empathy_intonation_perc,2020.2.10,Win32,60,,,,,,,,,,1,,,,,,,,,,,,,,,,,,,,,,,,,,,,,,,,,,,,,,,,60,matar,,,0,0,0.94683,0,43,43,59,1,REAL,FAKE,,,,,,,,,,,,,,,,,,,,,
,,,,,,,5f3fecd2bc9bac0b4ca93d30,60568611ec04488a9e9da93b,6056b576d201a5e5238e8a3e,Honduras,Midwest,13 or older,no,2021-03-20_22h55.41.011,empathy_intonation_perc,2020.2.10,Win32,60,,,,,,,,,,1,,,,,,,,,,,,,,,,,,,,,,,,,,,,,,,,,,,,,,,,88,acantilado,,,0,0,0.880075,0,44,44,87,1,REAL,FAKE,,,,,,,,,,,,,,,,,,,,,
,,,,,,,5f3fecd2bc9bac0b4ca93d30,60568611ec04488a9e9da93b,6056b576d201a5e5238e8a3e,Honduras,Midwest,13 or older,no,2021-03-20_22h55.41.011,empathy_intonation_perc,2020.2.10,Win32,60,,,,,,,,,,1,,,,,,,,,,,,,,,,,,,,,,,,,,,,,,,,,,,,,,,,83,guante,,,1,1,0.9463,0,45,45,82,1,REAL,FAKE,,,,,,,,,,,,,,,,,,,,,
,,,,,,,5f3fecd2bc9bac0b4ca93d30,60568611ec04488a9e9da93b,6056b576d201a5e5238e8a3e,Honduras,Midwest,13 or older,no,2021-03-20_22h55.41.011,empathy_intonation_perc,2020.2.10,Win32,60,,,,,,,,,,0,,,,,,,,,,,,,,,,,,,,,,,,,,,,,,,,,,,,,,,,47,cartinar,,,1,0,2.07923,0,46,46,46,1,REAL,FAKE,,,,,,,,,,,,,,,,,,,,,
,,,,,,,5f3fecd2bc9bac0b4ca93d30,60568611ec04488a9e9da93b,6056b576d201a5e5238e8a3e,Honduras,Midwest,13 or older,no,2021-03-20_22h55.41.011,empathy_intonation_perc,2020.2.10,Win32,60,,,,,,,,,,1,,,,,,,,,,,,,,,,,,,,,,,,,,,,,,,,,,,,,,,,68,alegre,,,1,1,0.70233,0,47,47,67,1,REAL,FAKE,,,,,,,,,,,,,,,,,,,,,
,,,,,,,5f3fecd2bc9bac0b4ca93d30,60568611ec04488a9e9da93b,6056b576d201a5e5238e8a3e,Honduras,Midwest,13 or older,no,2021-03-20_22h55.41.011,empathy_intonation_perc,2020.2.10,Win32,60,,,,,,,,,,0,,,,,,,,,,,,,,,,,,,,,,,,,,,,,,,,,,,,,,,,82,empirador,,,1,0,1.028995,0,48,48,81,1,REAL,FAKE,,,,,,,,,,,,,,,,,,,,,
,,,,,,,5f3fecd2bc9bac0b4ca93d30,60568611ec04488a9e9da93b,6056b576d201a5e5238e8a3e,Honduras,Midwest,13 or older,no,2021-03-20_22h55.41.011,empathy_intonation_perc,2020.2.10,Win32,60,,,,,,,,,,0,,,,,,,,,,,,,,,,,,,,,,,,,,,,,,,,,,,,,,,,29,decar,,,0,1,1.813235,0,49,49,28,1,REAL,FAKE,,,,,,,,,,,,,,,,,,,,,
,,,,,,,5f3fecd2bc9bac0b4ca93d30,60568611ec04488a9e9da93b,6056b576d201a5e5238e8a3e,Honduras,Midwest,13 or older,no,2021-03-20_22h55.41.011,empathy_intonation_perc,2020.2.10,Win32,60,,,,,,,,,,1,,,,,,,,,,,,,,,,,,,,,,,,,,,,,,,,,,,,,,,,64,orgulloso,,,1,1,0.66439,0,50,50,63,1,REAL,FAKE,,,,,,,,,,,,,,,,,,,,,
,,,,,,,5f3fecd2bc9bac0b4ca93d30,60568611ec04488a9e9da93b,6056b576d201a5e5238e8a3e,Honduras,Midwest,13 or older,no,2021-03-20_22h55.41.011,empathy_intonation_perc,2020.2.10,Win32,60,,,,,,,,,,1,,,,,,,,,,,,,,,,,,,,,,,,,,,,,,,,,,,,,,,,59,besar,,,1,1,1.08752,0,51,51,58,1,REAL,FAKE,,,,,,,,,,,,,,,,,,,,,
,,,,,,,5f3fecd2bc9bac0b4ca93d30,60568611ec04488a9e9da93b,6056b576d201a5e5238e8a3e,Honduras,Midwest,13 or older,no,2021-03-20_22h55.41.011,empathy_intonation_perc,2020.2.10,Win32,60,,,,,,,,,,1,,,,,,,,,,,,,,,,,,,,,,,,,,,,,,,,,,,,,,,,9,hacha,,,0,0,1.181465,0,52,52,8,1,REAL,FAKE,,,,,,,,,,,,,,,,,,,,,
,,,,,,,5f3fecd2bc9bac0b4ca93d30,60568611ec04488a9e9da93b,6056b576d201a5e5238e8a3e,Honduras,Midwest,13 or older,no,2021-03-20_22h55.41.011,empathy_intonation_perc,2020.2.10,Win32,60,,,,,,,,,,1,,,,,,,,,,,,,,,,,,,,,,,,,,,,,,,,,,,,,,,,54,fomentar,,,1,1,1.180685,0,53,53,53,1,REAL,FAKE,,,,,,,,,,,,,,,,,,,,,
,,,,,,,5f3fecd2bc9bac0b4ca93d30,60568611ec04488a9e9da93b,6056b576d201a5e5238e8a3e,Honduras,Midwest,13 or older,no,2021-03-20_22h55.41.011,empathy_intonation_perc,2020.2.10,Win32,60,,,,,,,,,,0,,,,,,,,,,,,,,,,,,,,,,,,,,,,,,,,,,,,,,,,18,arsa,,,0,1,0.72972,0,54,54,17,1,REAL,FAKE,,,,,,,,,,,,,,,,,,,,,
,,,,,,,5f3fecd2bc9bac0b4ca93d30,60568611ec04488a9e9da93b,6056b576d201a5e5238e8a3e,Honduras,Midwest,13 or older,no,2021-03-20_22h55.41.011,empathy_intonation_perc,2020.2.10,Win32,60,,,,,,,,,,0,,,,,,,,,,,,,,,,,,,,,,,,,,,,,,,,,,,,,,,,79,tropaje,,,0,1,1.00428,0,55,55,78,1,REAL,FAKE,,,,,,,,,,,,,,,,,,,,,
,,,,,,,5f3fecd2bc9bac0b4ca93d30,60568611ec04488a9e9da93b,6056b576d201a5e5238e8a3e,Honduras,Midwest,13 or older,no,2021-03-20_22h55.41.011,empathy_intonation_perc,2020.2.10,Win32,60,,,,,,,,,,0,,,,,,,,,,,,,,,,,,,,,,,,,,,,,,,,,,,,,,,,72,pemicin,,,0,1,1.0476,0,56,56,71,1,REAL,FAKE,,,,,,,,,,,,,,,,,,,,,
,,,,,,,5f3fecd2bc9bac0b4ca93d30,60568611ec04488a9e9da93b,6056b576d201a5e5238e8a3e,Honduras,Midwest,13 or older,no,2021-03-20_22h55.41.011,empathy_intonation_perc,2020.2.10,Win32,60,,,,,,,,,,1,,,,,,,,,,,,,,,,,,,,,,,,,,,,,,,,,,,,,,,,85,lad,,,0,0,0.752515,0,57,57,84,1,REAL,FAKE,,,,,,,,,,,,,,,,,,,,,
,,,,,,,5f3fecd2bc9bac0b4ca93d30,60568611ec04488a9e9da93b,6056b576d201a5e5238e8a3e,Honduras,Midwest,13 or older,no,2021-03-20_22h55.41.011,empathy_intonation_perc,2020.2.10,Win32,60,,,,,,,,,,0,,,,,,,,,,,,,,,,,,,,,,,,,,,,,,,,,,,,,,,,63,esposante,,,0,1,1.214135,0,58,58,62,1,REAL,FAKE,,,,,,,,,,,,,,,,,,,,,
,,,,,,,5f3fecd2bc9bac0b4ca93d30,60568611ec04488a9e9da93b,6056b576d201a5e5238e8a3e,Honduras,Midwest,13 or older,no,2021-03-20_22h55.41.011,empathy_intonation_perc,2020.2.10,Win32,60,,,,,,,,,,0,,,,,,,,,,,,,,,,,,,,,,,,,,,,,,,,,,,,,,,,30,alardio,,,0,1,0.763915,0,59,59,29,1,REAL,FAKE,,,,,,,,,,,,,,,,,,,,,
,,,,,,,5f3fecd2bc9bac0b4ca93d30,60568611ec04488a9e9da93b,6056b576d201a5e5238e8a3e,Honduras,Midwest,13 or older,no,2021-03-20_22h55.41.011,empathy_intonation_perc,2020.2.10,Win32,60,,,,,,,,,,1,,,,,,,,,,,,,,,,,,,,,,,,,,,,,,,,,,,,,,,,24,ltigo,,,0,0,1.311985,0,60,60,23,1,REAL,FAKE,,,,,,,,,,,,,,,,,,,,,
,,,,,,,5f3fecd2bc9bac0b4ca93d30,60568611ec04488a9e9da93b,6056b576d201a5e5238e8a3e,Honduras,Midwest,13 or older,no,2021-03-20_22h55.41.011,empathy_intonation_perc,2020.2.10,Win32,60,,,,,,,,,,1,,,,,,,,,,,,,,,,,,,,,,,,,,,,,,,,,,,,,,,,5,zapato,,,1,1,0.61241,0,61,61,4,1,REAL,FAKE,,,,,,,,,,,,,,,,,,,,,
,,,,,,,5f3fecd2bc9bac0b4ca93d30,60568611ec04488a9e9da93b,6056b576d201a5e5238e8a3e,Honduras,Midwest,13 or older,no,2021-03-20_22h55.41.011,empathy_intonation_perc,2020.2.10,Win32,60,,,,,,,,,,1,,,,,,,,,,,,,,,,,,,,,,,,,,,,,,,,,,,,,,,,40,alfombra,,,1,1,0.782325,0,62,62,39,1,REAL,FAKE,,,,,,,,,,,,,,,,,,,,,
,,,,,,,5f3fecd2bc9bac0b4ca93d30,60568611ec04488a9e9da93b,6056b576d201a5e5238e8a3e,Honduras,Midwest,13 or older,no,2021-03-20_22h55.41.011,empathy_intonation_perc,2020.2.10,Win32,60,,,,,,,,,,1,,,,,,,,,,,,,,,,,,,,,,,,,,,,,,,,,,,,,,,,3,pulmones,,,1,1,0.548555,0,63,63,2,1,REAL,FAKE,,,,,,,,,,,,,,,,,,,,,
,,,,,,,5f3fecd2bc9bac0b4ca93d30,60568611ec04488a9e9da93b,6056b576d201a5e5238e8a3e,Honduras,Midwest,13 or older,no,2021-03-20_22h55.41.011,empathy_intonation_perc,2020.2.10,Win32,60,,,,,,,,,,1,,,,,,,,,,,,,,,,,,,,,,,,,,,,,,,,,,,,,,,,52,camisa,,,1,1,0.581595,0,64,64,51,1,REAL,FAKE,,,,,,,,,,,,,,,,,,,,,
,,,,,,,5f3fecd2bc9bac0b4ca93d30,60568611ec04488a9e9da93b,6056b576d201a5e5238e8a3e,Honduras,Midwest,13 or older,no,2021-03-20_22h55.41.011,empathy_intonation_perc,2020.2.10,Win32,60,,,,,,,,,,1,,,,,,,,,,,,,,,,,,,,,,,,,,,,,,,,,,,,,,,,73,hervidor,,,0,0,0.69996,0,65,65,72,1,REAL,FAKE,,,,,,,,,,,,,,,,,,,,,
,,,,,,,5f3fecd2bc9bac0b4ca93d30,60568611ec04488a9e9da93b,6056b576d201a5e5238e8a3e,Honduras,Midwest,13 or older,no,2021-03-20_22h55.41.011,empathy_intonation_perc,2020.2.10,Win32,60,,,,,,,,,,0,,,,,,,,,,,,,,,,,,,,,,,,,,,,,,,,,,,,,,,,74,cintro,,,0,1,1.175615,0,66,66,73,1,REAL,FAKE,,,,,,,,,,,,,,,,,,,,,
,,,,,,,5f3fecd2bc9bac0b4ca93d30,60568611ec04488a9e9da93b,6056b576d201a5e5238e8a3e,Honduras,Midwest,13 or older,no,2021-03-20_22h55.41.011,empathy_intonation_perc,2020.2.10,Win32,60,,,,,,,,,,1,,,,,,,,,,,,,,,,,,,,,,,,,,,,,,,,,,,,,,,,86,barato,,,1,1,0.886345,0,67,67,85,1,REAL,FAKE,,,,,,,,,,,,,,,,,,,,,
,,,,,,,5f3fecd2bc9bac0b4ca93d30,60568611ec04488a9e9da93b,6056b576d201a5e5238e8a3e,Honduras,Midwest,13 or older,no,2021-03-20_22h55.41.011,empathy_intonation_perc,2020.2.10,Win32,60,,,,,,,,,,0,,,,,,,,,,,,,,,,,,,,,,,,,,,,,,,,,,,,,,,,10,antar,,,0,1,0.65297,0,68,68,9,1,REAL,FAKE,,,,,,,,,,,,,,,,,,,,,
,,,,,,,5f3fecd2bc9bac0b4ca93d30,60568611ec04488a9e9da93b,6056b576d201a5e5238e8a3e,Honduras,Midwest,13 or older,no,2021-03-20_22h55.41.011,empathy_intonation_perc,2020.2.10,Win32,60,,,,,,,,,,1,,,,,,,,,,,,,,,,,,,,,,,,,,,,,,,,,,,,,,,,13,helar,,,0,0,0.55752,0,69,69,12,1,REAL,FAKE,,,,,,,,,,,,,,,,,,,,,
,,,,,,,5f3fecd2bc9bac0b4ca93d30,60568611ec04488a9e9da93b,6056b576d201a5e5238e8a3e,Honduras,Midwest,13 or older,no,2021-03-20_22h55.41.011,empathy_intonation_perc,2020.2.10,Win32,60,,,,,,,,,,1,,,,,,,,,,,,,,,,,,,,,,,,,,,,,,,,,,,,,,,,49,ganar,,,1,1,0.63461,0,70,70,48,1,REAL,FAKE,,,,,,,,,,,,,,,,,,,,,
,,,,,,,5f3fecd2bc9bac0b4ca93d30,60568611ec04488a9e9da93b,6056b576d201a5e5238e8a3e,Honduras,Midwest,13 or older,no,2021-03-20_22h55.41.011,empathy_intonation_perc,2020.2.10,Win32,60,,,,,,,,,,1,,,,,,,,,,,,,,,,,,,,,,,,,,,,,,,,,,,,,,,,6,tergiversar,,,0,0,0.997175,0,71,71,5,1,REAL,FAKE,,,,,,,,,,,,,,,,,,,,,
,,,,,,,5f3fecd2bc9bac0b4ca93d30,60568611ec04488a9e9da93b,6056b576d201a5e5238e8a3e,Honduras,Midwest,13 or older,no,2021-03-20_22h55.41.011,empathy_intonation_perc,2020.2.10,Win32,60,,,,,,,,,,0,,,,,,,,,,,,,,,,,,,,,,,,,,,,,,,,,,,,,,,,50,flamida,,,0,1,0.7491,0,72,72,49,1,REAL,FAKE,,,,,,,,,,,,,,,,,,,,,
,,,,,,,5f3fecd2bc9bac0b4ca93d30,60568611ec04488a9e9da93b,6056b576d201a5e5238e8a3e,Honduras,Midwest,13 or older,no,2021-03-20_22h55.41.011,empathy_intonation_perc,2020.2.10,Win32,60,,,,,,,,,,1,,,,,,,,,,,,,,,,,,,,,,,,,,,,,,,,,,,,,,,,37,granuja,,,0,0,1.71396,0,73,73,36,1,REAL,FAKE,,,,,,,,,,,,,,,,,,,,,
,,,,,,,5f3fecd2bc9bac0b4ca93d30,60568611ec04488a9e9da93b,6056b576d201a5e5238e8a3e,Honduras,Midwest,13 or older,no,2021-03-20_22h55.41.011,empathy_intonation_perc,2020.2.10,Win32,60,,,,,,,,,,0,,,,,,,,,,,,,,,,,,,,,,,,,,,,,,,,,,,,,,,,4,batilln,,,1,0,2.74963,0,74,74,3,1,REAL,FAKE,,,,,,,,,,,,,,,,,,,,,
,,,,,,,5f3fecd2bc9bac0b4ca93d30,60568611ec04488a9e9da93b,6056b576d201a5e5238e8a3e,Honduras,Midwest,13 or older,no,2021-03-20_22h55.41.011,empathy_intonation_perc,2020.2.10,Win32,60,,,,,,,,,,0,,,,,,,,,,,,,,,,,,,,,,,,,,,,,,,,,,,,,,,,84,escuto,,,1,0,1.76099,0,75,75,83,1,REAL,FAKE,,,,,,,,,,,,,,,,,,,,,
,,,,,,,5f3fecd2bc9bac0b4ca93d30,60568611ec04488a9e9da93b,6056b576d201a5e5238e8a3e,Honduras,Midwest,13 or older,no,2021-03-20_22h55.41.011,empathy_intonation_perc,2020.2.10,Win32,60,,,,,,,,,,1,,,,,,,,,,,,,,,,,,,,,,,,,,,,,,,,,,,,,,,,26,secuestro,,,1,1,1.268485,0,76,76,25,1,REAL,FAKE,,,,,,,,,,,,,,,,,,,,,
,,,,,,,5f3fecd2bc9bac0b4ca93d30,60568611ec04488a9e9da93b,6056b576d201a5e5238e8a3e,Honduras,Midwest,13 or older,no,2021-03-20_22h55.41.011,empathy_intonation_perc,2020.2.10,Win32,60,,,,,,,,,,0,,,,,,,,,,,,,,,,,,,,,,,,,,,,,,,,,,,,,,,,27,acutacin,,,0,1,0.75162,0,77,77,26,1,REAL,FAKE,,,,,,,,,,,,,,,,,,,,,
,,,,,,,5f3fecd2bc9bac0b4ca93d30,60568611ec04488a9e9da93b,6056b576d201a5e5238e8a3e,Honduras,Midwest,13 or older,no,2021-03-20_22h55.41.011,empathy_intonation_perc,2020.2.10,Win32,60,,,,,,,,,,0,,,,,,,,,,,,,,,,,,,,,,,,,,,,,,,,,,,,,,,,23,lampera,,,0,1,0.716545,0,78,78,22,1,REAL,FAKE,,,,,,,,,,,,,,,,,,,,,
,,,,,,,5f3fecd2bc9bac0b4ca93d30,60568611ec04488a9e9da93b,6056b576d201a5e5238e8a3e,Honduras,Midwest,13 or older,no,2021-03-20_22h55.41.011,empathy_intonation_perc,2020.2.10,Win32,60,,,,,,,,,,0,,,,,,,,,,,,,,,,,,,,,,,,,,,,,,,,,,,,,,,,35,rompido,,,1,0,1.03172,0,79,79,34,1,REAL,FAKE,,,,,,,,,,,,,,,,,,,,,
,,,,,,,5f3fecd2bc9bac0b4ca93d30,60568611ec04488a9e9da93b,6056b576d201a5e5238e8a3e,Honduras,Midwest,13 or older,no,2021-03-20_22h55.41.011,empathy_intonation_perc,2020.2.10,Win32,60,,,,,,,,,,1,,,,,,,,,,,,,,,,,,,,,,,,,,,,,,,,,,,,,,,,39,torpe,,,0,0,1.490725,0,80,80,38,1,REAL,FAKE,,,,,,,,,,,,,,,,,,,,,
,,,,,,,5f3fecd2bc9bac0b4ca93d30,60568611ec04488a9e9da93b,6056b576d201a5e5238e8a3e,Honduras,Midwest,13 or older,no,2021-03-20_22h55.41.011,empathy_intonation_perc,2020.2.10,Win32,60,,,,,,,,,,1,,,,,,,,,,,,,,,,,,,,,,,,,,,,,,,,,,,,,,,,81,pozo,,,1,1,2.262515,0,81,81,80,1,REAL,FAKE,,,,,,,,,,,,,,,,,,,,,
,,,,,,,5f3fecd2bc9bac0b4ca93d30,60568611ec04488a9e9da93b,6056b576d201a5e5238e8a3e,Honduras,Midwest,13 or older,no,2021-03-20_22h55.41.011,empathy_intonation_perc,2020.2.10,Win32,60,,,,,,,,,,1,,,,,,,,,,,,,,,,,,,,,,,,,,,,,,,,,,,,,,,,51,candado,,,1,1,1.596075,0,82,82,50,1,REAL,FAKE,,,,,,,,,,,,,,,,,,,,,
,,,,,,,5f3fecd2bc9bac0b4ca93d30,60568611ec04488a9e9da93b,6056b576d201a5e5238e8a3e,Honduras,Midwest,13 or older,no,2021-03-20_22h55.41.011,empathy_intonation_perc,2020.2.10,Win32,60,,,,,,,,,,1,,,,,,,,,,,,,,,,,,,,,,,,,,,,,,,,,,,,,,,,28,merodear,,,0,0,1.61315,0,83,83,27,1,REAL,FAKE,,,,,,,,,,,,,,,,,,,,,
,,,,,,,5f3fecd2bc9bac0b4ca93d30,60568611ec04488a9e9da93b,6056b576d201a5e5238e8a3e,Honduras,Midwest,13 or older,no,2021-03-20_22h55.41.011,empathy_intonation_perc,2020.2.10,Win32,60,,,,,,,,,,1,,,,,,,,,,,,,,,,,,,,,,,,,,,,,,,,,,,,,,,,90,clavel,,,0,0,1.085475,0,84,84,89,1,REAL,FAKE,,,,,,,,,,,,,,,,,,,,,
,,,,,,,5f3fecd2bc9bac0b4ca93d30,60568611ec04488a9e9da93b,6056b576d201a5e5238e8a3e,Honduras,Midwest,13 or older,no,2021-03-20_22h55.41.011,empathy_intonation_perc,2020.2.10,Win32,60,,,,,,,,,,1,,,,,,,,,,,,,,,,,,,,,,,,,,,,,,,,,,,,,,,,41,rebuscar,,,0,0,1.13091,0,85,85,40,1,REAL,FAKE,,,,,,,,,,,,,,,,,,,,,
,,,,,,,5f3fecd2bc9bac0b4ca93d30,60568611ec04488a9e9da93b,6056b576d201a5e5238e8a3e,Honduras,Midwest,13 or older,no,2021-03-20_22h55.41.011,empathy_intonation_perc,2020.2.10,Win32,60,,,,,,,,,,1,,,,,,,,,,,,,,,,,,,,,,,,,,,,,,,,,,,,,,,,56,musgo,,,0,0,0.730745,0,86,86,55,1,REAL,FAKE,,,,,,,,,,,,,,,,,,,,,
,,,,,,,5f3fecd2bc9bac0b4ca93d30,60568611ec04488a9e9da93b,6056b576d201a5e5238e8a3e,Honduras,Midwest,13 or older,no,2021-03-20_22h55.41.011,empathy_intonation_perc,2020.2.10,Win32,60,,,,,,,,,,1,,,,,,,,,,,,,,,,,,,,,,,,,,,,,,,,,,,,,,,,67,cabello,,,1,1,1.379685,0,87,87,66,1,REAL,FAKE,,,,,,,,,,,,,,,,,,,,,
,,,,,,,5f3fecd2bc9bac0b4ca93d30,60568611ec04488a9e9da93b,6056b576d201a5e5238e8a3e,Honduras,Midwest,13 or older,no,2021-03-20_22h55.41.011,empathy_intonation_perc,2020.2.10,Win32,60,,,,,,,,,,1,,,,,,,,,,,,,,,,,,,,,,,,,,,,,,,,,,,,,,,,12,asesinato,,,0,0,0.7962,0,88,88,11,1,REAL,FAKE,,,,,,,,,,,,,,,,,,,,,
,,,,,,,5f3fecd2bc9bac0b4ca93d30,60568611ec04488a9e9da93b,6056b576d201a5e5238e8a3e,Honduras,Midwest,13 or older,no,2021-03-20_22h55.41.011,empathy_intonation_perc,2020.2.10,Win32,60,,,,,,,,,,1,,,,,,,,,,,,,,,,,,,,,,,,,,,,,,,,,,,,,,,,77,tiburn,,,1,1,1.834235,0,89,89,76,1,REAL,FAKE,,,,,,,,,,,,,,,,,,,,,
,,,,,,,5f3fecd2bc9bac0b4ca93d30,60568611ec04488a9e9da93b,6056b576d201a5e5238e8a3e,Honduras,Midwest,13 or older,no,2021-03-20_22h55.41.011,empathy_intonation_perc,2020.2.10,Win32,60,,,,,,,,,,,,,,,,,,,,,,,,,,,,,,,,,,,,,,,,,,,,,,,,,,,,,,,,,,,,,,,,4,1,2.25159,1,0,0,0,0,0,1,,,,,,,,,,,
,,,,,,,5f3fecd2bc9bac0b4ca93d30,60568611ec04488a9e9da93b,6056b576d201a5e5238e8a3e,Honduras,Midwest,13 or older,no,2021-03-20_22h55.41.011,empathy_intonation_perc,2020.2.10,Win32,60,,,,,,,,,,,,,,,,,,,,1,,,,,,,,,,,,,,,,,,,,,,,,,,,,,,,,,,,,,,,,,,,,,,,,,,,,,,2,0,0,0,0,1,I can easily tell if someone else wants to enter a conversation.,1,0,1,0
,,,,,,,5f3fecd2bc9bac0b4ca93d30,60568611ec04488a9e9da93b,6056b576d201a5e5238e8a3e,Honduras,Midwest,13 or older,no,2021-03-20_22h55.41.011,empathy_intonation_perc,2020.2.10,Win32,60,,,,,,,,,,,,,,,,,,,,2,,,,,,,,,,,,,,,,,,,,,,,,,,,,,,,,,,,,,,,,,,,,,,,,,,,,,,4,0,1,1,1,1,I prefer animals to humans.,0,1,0,0
,,,,,,,5f3fecd2bc9bac0b4ca93d30,60568611ec04488a9e9da93b,6056b576d201a5e5238e8a3e,Honduras,Midwest,13 or older,no,2021-03-20_22h55.41.011,empathy_intonation_perc,2020.2.10,Win32,60,,,,,,,,,,,,,,,,,,,,3,,,,,,,,,,,,,,,,,,,,,,,,,,,,,,,,,,,,,,,,,,,,,,,,,,,,,,3,0,2,2,2,1,I try to keep up with the current trends and fashions.,0,1,0,0
,,,,,,,5f3fecd2bc9bac0b4ca93d30,60568611ec04488a9e9da93b,6056b576d201a5e5238e8a3e,Honduras,Midwest,13 or older,no,2021-03-20_22h55.41.011,empathy_intonation_perc,2020.2.10,Win32,60,,,,,,,,,,,,,,,,,,,,4,,,,,,,,,,,,,,,,,,,,,,,,,,,,,,,,,,,,,,,,,,,,,,,,,,,,,,2,0,3,3,3,1,"I find it difficult to explain to others things that I understand easily, 
  when they dont understand it first time.",1,0,0,1
,,,,,,,5f3fecd2bc9bac0b4ca93d30,60568611ec04488a9e9da93b,6056b576d201a5e5238e8a3e,Honduras,Midwest,13 or older,no,2021-03-20_22h55.41.011,empathy_intonation_perc,2020.2.10,Win32,60,,,,,,,,,,,,,,,,,,,,5,,,,,,,,,,,,,,,,,,,,,,,,,,,,,,,,,,,,,,,,,,,,,,,,,,,,,,1,0,4,4,4,1,I dream most nights.,0,1,0,0
,,,,,,,5f3fecd2bc9bac0b4ca93d30,60568611ec04488a9e9da93b,6056b576d201a5e5238e8a3e,Honduras,Midwest,13 or older,no,2021-03-20_22h55.41.011,empathy_intonation_perc,2020.2.10,Win32,60,,,,,,,,,,,,,,,,,,,,6,,,,,,,,,,,,,,,,,,,,,,,,,,,,,,,,,,,,,,,,,,,,,,,,,,,,,,1,0,5,5,5,1,I really enjoy caring for other people.,1,0,1,0
,,,,,,,5f3fecd2bc9bac0b4ca93d30,60568611ec04488a9e9da93b,6056b576d201a5e5238e8a3e,Honduras,Midwest,13 or older,no,2021-03-20_22h55.41.011,empathy_intonation_perc,2020.2.10,Win32,60,,,,,,,,,,,,,,,,,,,,7,,,,,,,,,,,,,,,,,,,,,,,,,,,,,,,,,,,,,,,,,,,,,,,,,,,,,,4,0,6,6,6,1,I try to solve my own problems rather than discussing them with others.,0,1,0,0
,,,,,,,5f3fecd2bc9bac0b4ca93d30,60568611ec04488a9e9da93b,6056b576d201a5e5238e8a3e,Honduras,Midwest,13 or older,no,2021-03-20_22h55.41.011,empathy_intonation_perc,2020.2.10,Win32,60,,,,,,,,,,,,,,,,,,,,8,,,,,,,,,,,,,,,,,,,,,,,,,,,,,,,,,,,,,,,,,,,,,,,,,,,,,,4,0,7,7,7,1,I find it hard to know what to do in a social situation.,1,0,0,1
