instructions_2afc_loop.thisRepN,instructions_2afc_loop.thisTrialN,instructions_2afc_loop.thisN,instructions_2afc_loop.thisIndex,instructions_2afc_loop.ran,instructions_text,continue_text,participant,study_id,session,I am most familiar with Spanish from...*,What part of the US are you from?*,At what age did you begin learning Spanish?*,Are you proficient in any languages other than English/Spanish?*,date,expName,psychopyVersion,OS,frameRate,key_resp_2afc_practice.keys,key_resp_2afc_practice.corr,key_resp_2afc_practice.rt,trials_2afc_practice_loop.thisRepN,trials_2afc_practice_loop.thisTrialN,trials_2afc_practice_loop.thisN,trials_2afc_practice_loop.thisIndex,trials_2afc_practice_loop.ran,path,correct_response,the_col,key_resp_2afc_trial.keys,key_resp_2afc_trial.corr,key_resp_2afc_trial.rt,trials_2afc_loop.thisRepN,trials_2afc_loop.thisTrialN,trials_2afc_loop.thisN,trials_2afc_loop.thisIndex,trials_2afc_loop.ran,item_num,andalusian,argentine,castilian,chilean,cuban,mexican,peruvian,puertorican,key_resp_ac1.keys,key_resp_ac1.corr,key_resp_ac1.rt,ac1_loop.thisRepN,ac1_loop.thisTrialN,ac1_loop.thisN,ac1_loop.thisIndex,ac1_loop.ran,instructions_lextale_loop.thisRepN,instructions_lextale_loop.thisTrialN,instructions_lextale_loop.thisN,instructions_lextale_loop.thisIndex,instructions_lextale_loop.ran,key_resp_lextale_practice.keys,key_resp_lextale_practice.corr,key_resp_lextale_practice.rt,trials_lextale_practice_loop.thisRepN,trials_lextale_practice_loop.thisTrialN,trials_lextale_practice_loop.thisN,trials_lextale_practice_loop.thisIndex,trials_lextale_practice_loop.ran,stim,word,prac_button_real,prac_button_false,key_resp_lextale_trial.keys,key_resp_lextale_trial.corr,key_resp_lextale_trial.rt,trials_lextale_loop.thisRepN,trials_lextale_loop.thisTrialN,trials_lextale_loop.thisN,trials_lextale_loop.thisIndex,trials_lextale_loop.ran,button_real,button_false,key_resp_ac2.keys,key_resp_ac2.corr,key_resp_ac2.rt,check_pass,check_fails,ac2_loop.thisRepN,ac2_loop.thisTrialN,ac2_loop.thisN,ac2_loop.thisIndex,ac2_loop.ran,slider_eq_trial.response,trials_eq_loop.thisRepN,trials_eq_loop.thisTrialN,trials_eq_loop.thisN,trials_eq_loop.thisIndex,trials_eq_loop.ran,item,is_test_item,is_distractor,is_agree_score,is_disagree_score
0,0,0,0,1,"In the following task you are going to hear a series of utterances. 

  You will decide if the utterances sound like questions or not using your keyboard.",(press the spacebar to continue),5f40de3e899a9b2155b6eabf,6057c54e64b0b4e5c128b4f9,60590a94d85cc79a71fa207b,United States,Northeast,13 or older,no,2021-03-22_17h27.39.078,empathy_intonation_perc,2020.2.10,Win32,60,,,,,,,,,,,,,,,,,,,,,,,,,,,,,,,,,,,,,,,,,,,,,,,,,,,,,,,,,,,,,,,,,,,,,,,,,,,,,,,,,,,,
0,1,1,1,1,"If you believe the utterance is a question, type '1' (for 'yes') and if you do not 
  believe it is a question type '0' (for 'no').

  Let's practice a bit...",(press the spacebar to continue),5f40de3e899a9b2155b6eabf,6057c54e64b0b4e5c128b4f9,60590a94d85cc79a71fa207b,United States,Northeast,13 or older,no,2021-03-22_17h27.39.078,empathy_intonation_perc,2020.2.10,Win32,60,,,,,,,,,,,,,,,,,,,,,,,,,,,,,,,,,,,,,,,,,,,,,,,,,,,,,,,,,,,,,,,,,,,,,,,,,,,,,,,,,,,,
,,,,,,,5f40de3e899a9b2155b6eabf,6057c54e64b0b4e5c128b4f9,60590a94d85cc79a71fa207b,United States,Northeast,13 or older,no,2021-03-22_17h27.39.078,empathy_intonation_perc,2020.2.10,Win32,60,1,1,2.947405,0,0,0,1,1,./stim/wavs/argentine_question_filler_Mi-vecino-habla-mucho.wav,1,,,,,,,,,,,,,,,,,,,,,,,,,,,,,,,,,,,,,,,,,,,,,,,,,,,,,,,,,,,,,,,,,,,,,,,,,,
,,,,,,,5f40de3e899a9b2155b6eabf,6057c54e64b0b4e5c128b4f9,60590a94d85cc79a71fa207b,United States,Northeast,13 or older,no,2021-03-22_17h27.39.078,empathy_intonation_perc,2020.2.10,Win32,60,1,1,3.83227,0,1,1,0,1,./stim/wavs/castilian_question_filler_Mi-esposo-conoce-al-chico.wav,1,,,,,,,,,,,,,,,,,,,,,,,,,,,,,,,,,,,,,,,,,,,,,,,,,,,,,,,,,,,,,,,,,,,,,,,,,,
,,,,,,,5f40de3e899a9b2155b6eabf,6057c54e64b0b4e5c128b4f9,60590a94d85cc79a71fa207b,United States,Northeast,13 or older,no,2021-03-22_17h27.39.078,empathy_intonation_perc,2020.2.10,Win32,60,1,1,5.511655,0,2,2,2,1,./stim/wavs/chilean_question_filler_Mi-padre-cantaba-bien.wav,1,,,,,,,,,,,,,,,,,,,,,,,,,,,,,,,,,,,,,,,,,,,,,,,,,,,,,,,,,,,,,,,,,,,,,,,,,,
,,,,,,,5f40de3e899a9b2155b6eabf,6057c54e64b0b4e5c128b4f9,60590a94d85cc79a71fa207b,United States,Northeast,13 or older,no,2021-03-22_17h27.39.078,empathy_intonation_perc,2020.2.10,Win32,60,0,1,6.24264,0,3,3,6,1,./stim/wavs/peruvian_statement_filler_El-nino-habla-con-su-madre.wav,0,,,,,,,,,,,,,,,,,,,,,,,,,,,,,,,,,,,,,,,,,,,,,,,,,,,,,,,,,,,,,,,,,,,,,,,,,,
,,,,,,,5f40de3e899a9b2155b6eabf,6057c54e64b0b4e5c128b4f9,60590a94d85cc79a71fa207b,United States,Northeast,13 or older,no,2021-03-22_17h27.39.078,empathy_intonation_perc,2020.2.10,Win32,60,1,1,2.532705,0,4,4,3,1,./stim/wavs/mexican_question_filler_Felipe-no-tiene-contrasena.wav,1,,,,,,,,,,,,,,,,,,,,,,,,,,,,,,,,,,,,,,,,,,,,,,,,,,,,,,,,,,,,,,,,,,,,,,,,,,
,,,,,,,5f40de3e899a9b2155b6eabf,6057c54e64b0b4e5c128b4f9,60590a94d85cc79a71fa207b,United States,Northeast,13 or older,no,2021-03-22_17h27.39.078,empathy_intonation_perc,2020.2.10,Win32,60,0,1,3.562165,0,5,5,5,1,./stim/wavs/andalusian_statement_filler_Alberto-nunca-se-afeita.wav,0,,,,,,,,,,,,,,,,,,,,,,,,,,,,,,,,,,,,,,,,,,,,,,,,,,,,,,,,,,,,,,,,,,,,,,,,,,
,,,,,,,5f40de3e899a9b2155b6eabf,6057c54e64b0b4e5c128b4f9,60590a94d85cc79a71fa207b,United States,Northeast,13 or older,no,2021-03-22_17h27.39.078,empathy_intonation_perc,2020.2.10,Win32,60,1,0,3.53365,0,6,6,4,1,./stim/wavs/cuban_statement_filler_Cocinabas-por-la-noche.wav,0,,,,,,,,,,,,,,,,,,,,,,,,,,,,,,,,,,,,,,,,,,,,,,,,,,,,,,,,,,,,,,,,,,,,,,,,,,
,,,,,,,5f40de3e899a9b2155b6eabf,6057c54e64b0b4e5c128b4f9,60590a94d85cc79a71fa207b,United States,Northeast,13 or older,no,2021-03-22_17h27.39.078,empathy_intonation_perc,2020.2.10,Win32,60,1,0,3.84,0,7,7,7,1,./stim/wavs/puertorican_statement_filler_La-nina-pinta-con-su-amiga.wav,0,,,,,,,,,,,,,,,,,,,,,,,,,,,,,,,,,,,,,,,,,,,,,,,,,,,,,,,,,,,,,,,,,,,,,,,,,,
,,,,,,,5f40de3e899a9b2155b6eabf,6057c54e64b0b4e5c128b4f9,60590a94d85cc79a71fa207b,United States,Northeast,13 or older,no,2021-03-22_17h27.39.078,empathy_intonation_perc,2020.2.10,Win32,60,,,,,,,,,,1,cuban,1,1,3.268005,0,0,0,51,1,52,./stim/wavs/andalusian_mismatch_interrogative-partial-wh_Por-que-desayuna-muy-bien.wav,./stim/wavs/argentine_mismatch_interrogative-partial-wh_Por-que-desayuna-muy-bien.wav,./stim/wavs/castilian_mismatch_interrogative-partial-wh_Por-que-desayuna-muy-bien.wav,./stim/wavs/chilean_mismatch_interrogative-partial-wh_Por-que-desayuna-muy-bien.wav,./stim/wavs/cuban_mismatch_interrogative-partial-wh_Por-que-desayuna-muy-bien.wav,./stim/wavs/mexican_mismatch_interrogative-partial-wh_Por-que-desayuna-muy-bien.wav,./stim/wavs/peruvian_mismatch_interrogative-partial-wh_Por-que-desayuna-muy-bien.wav,./stim/wavs/puertorican_mismatch_interrogative-partial-wh_Por-que-desayuna-muy-bien.wav,,,,,,,,,,,,,,,,,,,,,,,,,,,,,,,,,,,,,,,,,,,,,,,,,,,,,,,,
,,,,,,,5f40de3e899a9b2155b6eabf,6057c54e64b0b4e5c128b4f9,60590a94d85cc79a71fa207b,United States,Northeast,13 or older,no,2021-03-22_17h27.39.078,empathy_intonation_perc,2020.2.10,Win32,60,,,,,,,,,,1,cuban,1,1,2.616655,0,1,1,20,1,21,./stim/wavs/andalusian_match_interrogative-partial-wh_Por-que-abre-el-regalo.wav,./stim/wavs/argentine_match_interrogative-partial-wh_Por-que-abre-el-regalo.wav,./stim/wavs/castilian_match_interrogative-partial-wh_Por-que-abre-el-regalo.wav,./stim/wavs/chilean_match_interrogative-partial-wh_Por-que-abre-el-regalo.wav,./stim/wavs/cuban_match_interrogative-partial-wh_Por-que-abre-el-regalo.wav,./stim/wavs/mexican_match_interrogative-partial-wh_Por-que-abre-el-regalo.wav,./stim/wavs/peruvian_match_interrogative-partial-wh_Por-que-abre-el-regalo.wav,./stim/wavs/puertorican_match_interrogative-partial-wh_Por-que-abre-el-regalo.wav,,,,,,,,,,,,,,,,,,,,,,,,,,,,,,,,,,,,,,,,,,,,,,,,,,,,,,,,
,,,,,,,5f40de3e899a9b2155b6eabf,6057c54e64b0b4e5c128b4f9,60590a94d85cc79a71fa207b,United States,Northeast,13 or older,no,2021-03-22_17h27.39.078,empathy_intonation_perc,2020.2.10,Win32,60,,,,,,,,,,1,cuban,1,1,2.603,0,2,2,55,1,56,./stim/wavs/andalusian_mismatch_interrogative-partial-wh_Por-que-vivia-en-Paris.wav,./stim/wavs/argentine_mismatch_interrogative-partial-wh_Por-que-vivia-en-Paris.wav,./stim/wavs/castilian_mismatch_interrogative-partial-wh_Por-que-vivia-en-Paris.wav,./stim/wavs/chilean_mismatch_interrogative-partial-wh_Por-que-vivia-en-Paris.wav,./stim/wavs/cuban_mismatch_interrogative-partial-wh_Por-que-vivia-en-Paris.wav,./stim/wavs/mexican_mismatch_interrogative-partial-wh_Por-que-vivia-en-Paris.wav,./stim/wavs/peruvian_mismatch_interrogative-partial-wh_Por-que-vivia-en-Paris.wav,./stim/wavs/puertorican_mismatch_interrogative-partial-wh_Por-que-vivia-en-Paris.wav,,,,,,,,,,,,,,,,,,,,,,,,,,,,,,,,,,,,,,,,,,,,,,,,,,,,,,,,
,,,,,,,5f40de3e899a9b2155b6eabf,6057c54e64b0b4e5c128b4f9,60590a94d85cc79a71fa207b,United States,Northeast,13 or older,no,2021-03-22_17h27.39.078,empathy_intonation_perc,2020.2.10,Win32,60,,,,,,,,,,1,mexican,0,0,2.047175,0,3,3,16,1,17,./stim/wavs/andalusian_match_interrogative-partial-wh_Cuando-bebia-el-vino.wav,./stim/wavs/argentine_match_interrogative-partial-wh_Cuando-bebia-el-vino.wav,./stim/wavs/castilian_match_interrogative-partial-wh_Cuando-bebia-el-vino.wav,./stim/wavs/chilean_match_interrogative-partial-wh_Cuando-bebia-el-vino.wav,./stim/wavs/cuban_match_interrogative-partial-wh_Cuando-bebia-el-vino.wav,./stim/wavs/mexican_match_interrogative-partial-wh_Cuando-bebia-el-vino.wav,./stim/wavs/peruvian_match_interrogative-partial-wh_Cuando-bebia-el-vino.wav,./stim/wavs/puertorican_match_interrogative-partial-wh_Cuando-bebia-el-vino.wav,,,,,,,,,,,,,,,,,,,,,,,,,,,,,,,,,,,,,,,,,,,,,,,,,,,,,,,,
,,,,,,,5f40de3e899a9b2155b6eabf,6057c54e64b0b4e5c128b4f9,60590a94d85cc79a71fa207b,United States,Northeast,13 or older,no,2021-03-22_17h27.39.078,empathy_intonation_perc,2020.2.10,Win32,60,,,,,,,,,,0,cuban,0,1,3.26564,0,4,4,38,1,39,./stim/wavs/andalusian_mismatch_declarative-broad-focus_Mi-novio-viene-del-lago.wav,./stim/wavs/argentine_mismatch_declarative-broad-focus_Mi-novio-viene-del-lago.wav,./stim/wavs/castilian_mismatch_declarative-broad-focus_Mi-novio-viene-del-lago.wav,./stim/wavs/chilean_mismatch_declarative-broad-focus_Mi-novio-viene-del-lago.wav,./stim/wavs/cuban_mismatch_declarative-broad-focus_Mi-novio-viene-del-lago.wav,./stim/wavs/mexican_mismatch_declarative-broad-focus_Mi-novio-viene-del-lago.wav,./stim/wavs/peruvian_mismatch_declarative-broad-focus_Mi-novio-viene-del-lago.wav,./stim/wavs/puertorican_mismatch_declarative-broad-focus_Mi-novio-viene-del-lago.wav,,,,,,,,,,,,,,,,,,,,,,,,,,,,,,,,,,,,,,,,,,,,,,,,,,,,,,,,
,,,,,,,5f40de3e899a9b2155b6eabf,6057c54e64b0b4e5c128b4f9,60590a94d85cc79a71fa207b,United States,Northeast,13 or older,no,2021-03-22_17h27.39.078,empathy_intonation_perc,2020.2.10,Win32,60,,,,,,,,,,0,castilian,1,0,2.337925,0,5,5,46,1,47,./stim/wavs/andalusian_mismatch_declarative-narrow-focus_Mi-novio-viene-del-lago.wav,./stim/wavs/argentine_mismatch_declarative-narrow-focus_Mi-novio-viene-del-lago.wav,./stim/wavs/castilian_mismatch_declarative-narrow-focus_Mi-novio-viene-del-lago.wav,./stim/wavs/chilean_mismatch_declarative-narrow-focus_Mi-novio-viene-del-lago.wav,./stim/wavs/cuban_mismatch_declarative-narrow-focus_Mi-novio-viene-del-lago.wav,./stim/wavs/mexican_mismatch_declarative-narrow-focus_Mi-novio-viene-del-lago.wav,./stim/wavs/peruvian_mismatch_declarative-narrow-focus_Mi-novio-viene-del-lago.wav,./stim/wavs/puertorican_mismatch_declarative-narrow-focus_Mi-novio-viene-del-lago.wav,,,,,,,,,,,,,,,,,,,,,,,,,,,,,,,,,,,,,,,,,,,,,,,,,,,,,,,,
,,,,,,,5f40de3e899a9b2155b6eabf,6057c54e64b0b4e5c128b4f9,60590a94d85cc79a71fa207b,United States,Northeast,13 or older,no,2021-03-22_17h27.39.078,empathy_intonation_perc,2020.2.10,Win32,60,,,,,,,,,,0,castilian,1,0,3.19497,0,6,6,43,1,44,./stim/wavs/andalusian_mismatch_declarative-narrow-focus_La-maestra-vive-en-Paris.wav,./stim/wavs/argentine_mismatch_declarative-narrow-focus_La-maestra-vive-en-Paris.wav,./stim/wavs/castilian_mismatch_declarative-narrow-focus_La-maestra-vive-en-Paris.wav,./stim/wavs/chilean_mismatch_declarative-narrow-focus_La-maestra-vive-en-Paris.wav,./stim/wavs/cuban_mismatch_declarative-narrow-focus_La-maestra-vive-en-Paris.wav,./stim/wavs/mexican_mismatch_declarative-narrow-focus_La-maestra-vive-en-Paris.wav,./stim/wavs/peruvian_mismatch_declarative-narrow-focus_La-maestra-vive-en-Paris.wav,./stim/wavs/puertorican_mismatch_declarative-narrow-focus_La-maestra-vive-en-Paris.wav,,,,,,,,,,,,,,,,,,,,,,,,,,,,,,,,,,,,,,,,,,,,,,,,,,,,,,,,
,,,,,,,5f40de3e899a9b2155b6eabf,6057c54e64b0b4e5c128b4f9,60590a94d85cc79a71fa207b,United States,Northeast,13 or older,no,2021-03-22_17h27.39.078,empathy_intonation_perc,2020.2.10,Win32,60,,,,,,,,,,1,peruvian,0,0,3.07305,0,7,7,18,1,19,./stim/wavs/andalusian_match_interrogative-partial-wh_Cuando-lleva-el-abrigo.wav,./stim/wavs/argentine_match_interrogative-partial-wh_Cuando-lleva-el-abrigo.wav,./stim/wavs/castilian_match_interrogative-partial-wh_Cuando-lleva-el-abrigo.wav,./stim/wavs/chilean_match_interrogative-partial-wh_Cuando-lleva-el-abrigo.wav,./stim/wavs/cuban_match_interrogative-partial-wh_Cuando-lleva-el-abrigo.wav,./stim/wavs/mexican_match_interrogative-partial-wh_Cuando-lleva-el-abrigo.wav,./stim/wavs/peruvian_match_interrogative-partial-wh_Cuando-lleva-el-abrigo.wav,./stim/wavs/puertorican_match_interrogative-partial-wh_Cuando-lleva-el-abrigo.wav,,,,,,,,,,,,,,,,,,,,,,,,,,,,,,,,,,,,,,,,,,,,,,,,,,,,,,,,
,,,,,,,5f40de3e899a9b2155b6eabf,6057c54e64b0b4e5c128b4f9,60590a94d85cc79a71fa207b,United States,Northeast,13 or older,no,2021-03-22_17h27.39.078,empathy_intonation_perc,2020.2.10,Win32,60,,,,,,,,,,1,cuban,1,1,1.636485,0,8,8,17,1,18,./stim/wavs/andalusian_match_interrogative-partial-wh_Cuando-leia-el-libro.wav,./stim/wavs/argentine_match_interrogative-partial-wh_Cuando-leia-el-libro.wav,./stim/wavs/castilian_match_interrogative-partial-wh_Cuando-leia-el-libro.wav,./stim/wavs/chilean_match_interrogative-partial-wh_Cuando-leia-el-libro.wav,./stim/wavs/cuban_match_interrogative-partial-wh_Cuando-leia-el-libro.wav,./stim/wavs/mexican_match_interrogative-partial-wh_Cuando-leia-el-libro.wav,./stim/wavs/peruvian_match_interrogative-partial-wh_Cuando-leia-el-libro.wav,./stim/wavs/puertorican_match_interrogative-partial-wh_Cuando-leia-el-libro.wav,,,,,,,,,,,,,,,,,,,,,,,,,,,,,,,,,,,,,,,,,,,,,,,,,,,,,,,,
,,,,,,,5f40de3e899a9b2155b6eabf,6057c54e64b0b4e5c128b4f9,60590a94d85cc79a71fa207b,United States,Northeast,13 or older,no,2021-03-22_17h27.39.078,empathy_intonation_perc,2020.2.10,Win32,60,,,,,,,,,,0,chilean,0,1,3.188765,0,9,9,5,1,6,./stim/wavs/andalusian_match_declarative-broad-focus_Maria-bebe-el-vino.wav,./stim/wavs/argentine_match_declarative-broad-focus_Maria-bebe-el-vino.wav,./stim/wavs/castilian_match_declarative-broad-focus_Maria-bebe-el-vino.wav,./stim/wavs/chilean_match_declarative-broad-focus_Maria-bebe-el-vino.wav,./stim/wavs/cuban_match_declarative-broad-focus_Maria-bebe-el-vino.wav,./stim/wavs/mexican_match_declarative-broad-focus_Maria-bebe-el-vino.wav,./stim/wavs/peruvian_match_declarative-broad-focus_Maria-bebe-el-vino.wav,./stim/wavs/puertorican_match_declarative-broad-focus_Maria-bebe-el-vino.wav,,,,,,,,,,,,,,,,,,,,,,,,,,,,,,,,,,,,,,,,,,,,,,,,,,,,,,,,
,,,,,,,5f40de3e899a9b2155b6eabf,6057c54e64b0b4e5c128b4f9,60590a94d85cc79a71fa207b,United States,Northeast,13 or older,no,2021-03-22_17h27.39.078,empathy_intonation_perc,2020.2.10,Win32,60,,,,,,,,,,1,cuban,1,1,1.70355,0,10,10,63,1,64,./stim/wavs/andalusian_mismatch_interrogative-total-yn_Mi-tia-odia-la-lluvia.wav,./stim/wavs/argentine_mismatch_interrogative-total-yn_Mi-tia-odia-la-lluvia.wav,./stim/wavs/castilian_mismatch_interrogative-total-yn_Mi-tia-odia-la-lluvia.wav,./stim/wavs/chilean_mismatch_interrogative-total-yn_Mi-tia-odia-la-lluvia.wav,./stim/wavs/cuban_mismatch_interrogative-total-yn_Mi-tia-odia-la-lluvia.wav,./stim/wavs/mexican_mismatch_interrogative-total-yn_Mi-tia-odia-la-lluvia.wav,./stim/wavs/peruvian_mismatch_interrogative-total-yn_Mi-tia-odia-la-lluvia.wav,./stim/wavs/puertorican_mismatch_interrogative-total-yn_Mi-tia-odia-la-lluvia.wav,,,,,,,,,,,,,,,,,,,,,,,,,,,,,,,,,,,,,,,,,,,,,,,,,,,,,,,,
,,,,,,,5f40de3e899a9b2155b6eabf,6057c54e64b0b4e5c128b4f9,60590a94d85cc79a71fa207b,United States,Northeast,13 or older,no,2021-03-22_17h27.39.078,empathy_intonation_perc,2020.2.10,Win32,60,,,,,,,,,,0,cuban,1,0,2.65623,0,11,11,32,1,33,./stim/wavs/andalusian_mismatch_declarative-broad-focus_El-bebe-comia-muy-bien.wav,./stim/wavs/argentine_mismatch_declarative-broad-focus_El-bebe-comia-muy-bien.wav,./stim/wavs/castilian_mismatch_declarative-broad-focus_El-bebe-comia-muy-bien.wav,./stim/wavs/chilean_mismatch_declarative-broad-focus_El-bebe-comia-muy-bien.wav,./stim/wavs/cuban_mismatch_declarative-broad-focus_El-bebe-comia-muy-bien.wav,./stim/wavs/mexican_mismatch_declarative-broad-focus_El-bebe-comia-muy-bien.wav,./stim/wavs/peruvian_mismatch_declarative-broad-focus_El-bebe-comia-muy-bien.wav,./stim/wavs/puertorican_mismatch_declarative-broad-focus_El-bebe-comia-muy-bien.wav,,,,,,,,,,,,,,,,,,,,,,,,,,,,,,,,,,,,,,,,,,,,,,,,,,,,,,,,
,,,,,,,5f40de3e899a9b2155b6eabf,6057c54e64b0b4e5c128b4f9,60590a94d85cc79a71fa207b,United States,Northeast,13 or older,no,2021-03-22_17h27.39.078,empathy_intonation_perc,2020.2.10,Win32,60,,,,,,,,,,1,andalusian,1,1,1.77856,0,12,12,29,1,30,./stim/wavs/andalusian_match_interrogative-total-yn_Maria-bebe-el-vino.wav,./stim/wavs/argentine_match_interrogative-total-yn_Maria-bebe-el-vino.wav,./stim/wavs/castilian_match_interrogative-total-yn_Maria-bebe-el-vino.wav,./stim/wavs/chilean_match_interrogative-total-yn_Maria-bebe-el-vino.wav,./stim/wavs/cuban_match_interrogative-total-yn_Maria-bebe-el-vino.wav,./stim/wavs/mexican_match_interrogative-total-yn_Maria-bebe-el-vino.wav,./stim/wavs/peruvian_match_interrogative-total-yn_Maria-bebe-el-vino.wav,./stim/wavs/puertorican_match_interrogative-total-yn_Maria-bebe-el-vino.wav,,,,,,,,,,,,,,,,,,,,,,,,,,,,,,,,,,,,,,,,,,,,,,,,,,,,,,,,
,,,,,,,5f40de3e899a9b2155b6eabf,6057c54e64b0b4e5c128b4f9,60590a94d85cc79a71fa207b,United States,Northeast,13 or older,no,2021-03-22_17h27.39.078,empathy_intonation_perc,2020.2.10,Win32,60,,,,,,,,,,1,puertorican,0,0,2.170575,0,13,13,59,1,60,./stim/wavs/andalusian_mismatch_interrogative-total-yn_La-maestra-vive-en-Paris.wav,./stim/wavs/argentine_mismatch_interrogative-total-yn_La-maestra-vive-en-Paris.wav,./stim/wavs/castilian_mismatch_interrogative-total-yn_La-maestra-vive-en-Paris.wav,./stim/wavs/chilean_mismatch_interrogative-total-yn_La-maestra-vive-en-Paris.wav,./stim/wavs/cuban_mismatch_interrogative-total-yn_La-maestra-vive-en-Paris.wav,./stim/wavs/mexican_mismatch_interrogative-total-yn_La-maestra-vive-en-Paris.wav,./stim/wavs/peruvian_mismatch_interrogative-total-yn_La-maestra-vive-en-Paris.wav,./stim/wavs/puertorican_mismatch_interrogative-total-yn_La-maestra-vive-en-Paris.wav,,,,,,,,,,,,,,,,,,,,,,,,,,,,,,,,,,,,,,,,,,,,,,,,,,,,,,,,
,,,,,,,5f40de3e899a9b2155b6eabf,6057c54e64b0b4e5c128b4f9,60590a94d85cc79a71fa207b,United States,Northeast,13 or older,no,2021-03-22_17h27.39.078,empathy_intonation_perc,2020.2.10,Win32,60,,,,,,,,,,1,cuban,1,1,3.26309,0,14,14,28,1,29,./stim/wavs/andalusian_match_interrogative-total-yn_Manuela-vende-el-carro.wav,./stim/wavs/argentine_match_interrogative-total-yn_Manuela-vende-el-carro.wav,./stim/wavs/castilian_match_interrogative-total-yn_Manuela-vende-el-carro.wav,./stim/wavs/chilean_match_interrogative-total-yn_Manuela-vende-el-carro.wav,./stim/wavs/cuban_match_interrogative-total-yn_Manuela-vende-el-carro.wav,./stim/wavs/mexican_match_interrogative-total-yn_Manuela-vende-el-carro.wav,./stim/wavs/peruvian_match_interrogative-total-yn_Manuela-vende-el-carro.wav,./stim/wavs/puertorican_match_interrogative-total-yn_Manuela-vende-el-carro.wav,,,,,,,,,,,,,,,,,,,,,,,,,,,,,,,,,,,,,,,,,,,,,,,,,,,,,,,,
,,,,,,,5f40de3e899a9b2155b6eabf,6057c54e64b0b4e5c128b4f9,60590a94d85cc79a71fa207b,United States,Northeast,13 or older,no,2021-03-22_17h27.39.078,empathy_intonation_perc,2020.2.10,Win32,60,,,,,,,,,,1,chilean,1,1,1.633965,0,15,15,50,1,51,./stim/wavs/andalusian_mismatch_interrogative-partial-wh_Cuando-miraba-la-luna.wav,./stim/wavs/argentine_mismatch_interrogative-partial-wh_Cuando-miraba-la-luna.wav,./stim/wavs/castilian_mismatch_interrogative-partial-wh_Cuando-miraba-la-luna.wav,./stim/wavs/chilean_mismatch_interrogative-partial-wh_Cuando-miraba-la-luna.wav,./stim/wavs/cuban_mismatch_interrogative-partial-wh_Cuando-miraba-la-luna.wav,./stim/wavs/mexican_mismatch_interrogative-partial-wh_Cuando-miraba-la-luna.wav,./stim/wavs/peruvian_mismatch_interrogative-partial-wh_Cuando-miraba-la-luna.wav,./stim/wavs/puertorican_mismatch_interrogative-partial-wh_Cuando-miraba-la-luna.wav,,,,,,,,,,,,,,,,,,,,,,,,,,,,,,,,,,,,,,,,,,,,,,,,,,,,,,,,
,,,,,,,5f40de3e899a9b2155b6eabf,6057c54e64b0b4e5c128b4f9,60590a94d85cc79a71fa207b,United States,Northeast,13 or older,no,2021-03-22_17h27.39.078,empathy_intonation_perc,2020.2.10,Win32,60,,,,,,,,,,0,chilean,0,1,2.03001,0,16,16,39,1,40,./stim/wavs/andalusian_mismatch_declarative-broad-focus_Mi-tia-odia-la-lluvia.wav,./stim/wavs/argentine_mismatch_declarative-broad-focus_Mi-tia-odia-la-lluvia.wav,./stim/wavs/castilian_mismatch_declarative-broad-focus_Mi-tia-odia-la-lluvia.wav,./stim/wavs/chilean_mismatch_declarative-broad-focus_Mi-tia-odia-la-lluvia.wav,./stim/wavs/cuban_mismatch_declarative-broad-focus_Mi-tia-odia-la-lluvia.wav,./stim/wavs/mexican_mismatch_declarative-broad-focus_Mi-tia-odia-la-lluvia.wav,./stim/wavs/peruvian_mismatch_declarative-broad-focus_Mi-tia-odia-la-lluvia.wav,./stim/wavs/puertorican_mismatch_declarative-broad-focus_Mi-tia-odia-la-lluvia.wav,,,,,,,,,,,,,,,,,,,,,,,,,,,,,,,,,,,,,,,,,,,,,,,,,,,,,,,,
,,,,,,,5f40de3e899a9b2155b6eabf,6057c54e64b0b4e5c128b4f9,60590a94d85cc79a71fa207b,United States,Northeast,13 or older,no,2021-03-22_17h27.39.078,empathy_intonation_perc,2020.2.10,Win32,60,,,,,,,,,,0,andalusian,0,1,2.47084,0,17,17,44,1,45,./stim/wavs/andalusian_mismatch_declarative-narrow-focus_La-nina-lava-el-plato.wav,./stim/wavs/argentine_mismatch_declarative-narrow-focus_La-nina-lava-el-plato.wav,./stim/wavs/castilian_mismatch_declarative-narrow-focus_La-nina-lava-el-plato.wav,./stim/wavs/chilean_mismatch_declarative-narrow-focus_La-nina-lava-el-plato.wav,./stim/wavs/cuban_mismatch_declarative-narrow-focus_La-nina-lava-el-plato.wav,./stim/wavs/mexican_mismatch_declarative-narrow-focus_La-nina-lava-el-plato.wav,./stim/wavs/peruvian_mismatch_declarative-narrow-focus_La-nina-lava-el-plato.wav,./stim/wavs/puertorican_mismatch_declarative-narrow-focus_La-nina-lava-el-plato.wav,,,,,,,,,,,,,,,,,,,,,,,,,,,,,,,,,,,,,,,,,,,,,,,,,,,,,,,,
,,,,,,,5f40de3e899a9b2155b6eabf,6057c54e64b0b4e5c128b4f9,60590a94d85cc79a71fa207b,United States,Northeast,13 or older,no,2021-03-22_17h27.39.078,empathy_intonation_perc,2020.2.10,Win32,60,,,,,,,,,,0,puertorican,1,0,1.867585,0,18,18,13,1,14,./stim/wavs/andalusian_match_declarative-narrow-focus_Maria-bebe-el-vino.wav,./stim/wavs/argentine_match_declarative-narrow-focus_Maria-bebe-el-vino.wav,./stim/wavs/castilian_match_declarative-narrow-focus_Maria-bebe-el-vino.wav,./stim/wavs/chilean_match_declarative-narrow-focus_Maria-bebe-el-vino.wav,./stim/wavs/cuban_match_declarative-narrow-focus_Maria-bebe-el-vino.wav,./stim/wavs/mexican_match_declarative-narrow-focus_Maria-bebe-el-vino.wav,./stim/wavs/peruvian_match_declarative-narrow-focus_Maria-bebe-el-vino.wav,./stim/wavs/puertorican_match_declarative-narrow-focus_Maria-bebe-el-vino.wav,,,,,,,,,,,,,,,,,,,,,,,,,,,,,,,,,,,,,,,,,,,,,,,,,,,,,,,,
,,,,,,,5f40de3e899a9b2155b6eabf,6057c54e64b0b4e5c128b4f9,60590a94d85cc79a71fa207b,United States,Northeast,13 or older,no,2021-03-22_17h27.39.078,empathy_intonation_perc,2020.2.10,Win32,60,,,,,,,,,,0,peruvian,0,1,2.86614,0,19,19,45,1,46,./stim/wavs/andalusian_mismatch_declarative-narrow-focus_Mi-madre-come-la-fruta.wav,./stim/wavs/argentine_mismatch_declarative-narrow-focus_Mi-madre-come-la-fruta.wav,./stim/wavs/castilian_mismatch_declarative-narrow-focus_Mi-madre-come-la-fruta.wav,./stim/wavs/chilean_mismatch_declarative-narrow-focus_Mi-madre-come-la-fruta.wav,./stim/wavs/cuban_mismatch_declarative-narrow-focus_Mi-madre-come-la-fruta.wav,./stim/wavs/mexican_mismatch_declarative-narrow-focus_Mi-madre-come-la-fruta.wav,./stim/wavs/peruvian_mismatch_declarative-narrow-focus_Mi-madre-come-la-fruta.wav,./stim/wavs/puertorican_mismatch_declarative-narrow-focus_Mi-madre-come-la-fruta.wav,,,,,,,,,,,,,,,,,,,,,,,,,,,,,,,,,,,,,,,,,,,,,,,,,,,,,,,,
,,,,,,,5f40de3e899a9b2155b6eabf,6057c54e64b0b4e5c128b4f9,60590a94d85cc79a71fa207b,United States,Northeast,13 or older,no,2021-03-22_17h27.39.078,empathy_intonation_perc,2020.2.10,Win32,60,,,,,,,,,,1,cuban,1,1,1.714785,0,20,20,61,1,62,./stim/wavs/andalusian_mismatch_interrogative-total-yn_Mi-madre-come-la-fruta.wav,./stim/wavs/argentine_mismatch_interrogative-total-yn_Mi-madre-come-la-fruta.wav,./stim/wavs/castilian_mismatch_interrogative-total-yn_Mi-madre-come-la-fruta.wav,./stim/wavs/chilean_mismatch_interrogative-total-yn_Mi-madre-come-la-fruta.wav,./stim/wavs/cuban_mismatch_interrogative-total-yn_Mi-madre-come-la-fruta.wav,./stim/wavs/mexican_mismatch_interrogative-total-yn_Mi-madre-come-la-fruta.wav,./stim/wavs/peruvian_mismatch_interrogative-total-yn_Mi-madre-come-la-fruta.wav,./stim/wavs/puertorican_mismatch_interrogative-total-yn_Mi-madre-come-la-fruta.wav,,,,,,,,,,,,,,,,,,,,,,,,,,,,,,,,,,,,,,,,,,,,,,,,,,,,,,,,
,,,,,,,5f40de3e899a9b2155b6eabf,6057c54e64b0b4e5c128b4f9,60590a94d85cc79a71fa207b,United States,Northeast,13 or older,no,2021-03-22_17h27.39.078,empathy_intonation_perc,2020.2.10,Win32,60,,,,,,,,,,1,castilian,0,0,2.811725,0,21,21,62,1,63,./stim/wavs/andalusian_mismatch_interrogative-total-yn_Mi-novio-viene-del-lago.wav,./stim/wavs/argentine_mismatch_interrogative-total-yn_Mi-novio-viene-del-lago.wav,./stim/wavs/castilian_mismatch_interrogative-total-yn_Mi-novio-viene-del-lago.wav,./stim/wavs/chilean_mismatch_interrogative-total-yn_Mi-novio-viene-del-lago.wav,./stim/wavs/cuban_mismatch_interrogative-total-yn_Mi-novio-viene-del-lago.wav,./stim/wavs/mexican_mismatch_interrogative-total-yn_Mi-novio-viene-del-lago.wav,./stim/wavs/peruvian_mismatch_interrogative-total-yn_Mi-novio-viene-del-lago.wav,./stim/wavs/puertorican_mismatch_interrogative-total-yn_Mi-novio-viene-del-lago.wav,,,,,,,,,,,,,,,,,,,,,,,,,,,,,,,,,,,,,,,,,,,,,,,,,,,,,,,,
,,,,,,,5f40de3e899a9b2155b6eabf,6057c54e64b0b4e5c128b4f9,60590a94d85cc79a71fa207b,United States,Northeast,13 or older,no,2021-03-22_17h27.39.078,empathy_intonation_perc,2020.2.10,Win32,60,,,,,,,,,,1,cuban,1,1,2.58524,0,22,22,27,1,28,./stim/wavs/andalusian_match_interrogative-total-yn_Emilio-ama-la-marcha.wav,./stim/wavs/argentine_match_interrogative-total-yn_Emilio-ama-la-marcha.wav,./stim/wavs/castilian_match_interrogative-total-yn_Emilio-ama-la-marcha.wav,./stim/wavs/chilean_match_interrogative-total-yn_Emilio-ama-la-marcha.wav,./stim/wavs/cuban_match_interrogative-total-yn_Emilio-ama-la-marcha.wav,./stim/wavs/mexican_match_interrogative-total-yn_Emilio-ama-la-marcha.wav,./stim/wavs/peruvian_match_interrogative-total-yn_Emilio-ama-la-marcha.wav,./stim/wavs/puertorican_match_interrogative-total-yn_Emilio-ama-la-marcha.wav,,,,,,,,,,,,,,,,,,,,,,,,,,,,,,,,,,,,,,,,,,,,,,,,,,,,,,,,
,,,,,,,5f40de3e899a9b2155b6eabf,6057c54e64b0b4e5c128b4f9,60590a94d85cc79a71fa207b,United States,Northeast,13 or older,no,2021-03-22_17h27.39.078,empathy_intonation_perc,2020.2.10,Win32,60,,,,,,,,,,0,andalusian,1,0,2.341565,0,23,23,0,1,1,./stim/wavs/andalusian_match_declarative-broad-focus_Ana-lleva-el-abrigo.wav,./stim/wavs/argentine_match_declarative-broad-focus_Ana-lleva-el-abrigo.wav,./stim/wavs/castilian_match_declarative-broad-focus_Ana-lleva-el-abrigo.wav,./stim/wavs/chilean_match_declarative-broad-focus_Ana-lleva-el-abrigo.wav,./stim/wavs/cuban_match_declarative-broad-focus_Ana-lleva-el-abrigo.wav,./stim/wavs/mexican_match_declarative-broad-focus_Ana-lleva-el-abrigo.wav,./stim/wavs/peruvian_match_declarative-broad-focus_Ana-lleva-el-abrigo.wav,./stim/wavs/puertorican_match_declarative-broad-focus_Ana-lleva-el-abrigo.wav,,,,,,,,,,,,,,,,,,,,,,,,,,,,,,,,,,,,,,,,,,,,,,,,,,,,,,,,
,,,,,,,5f40de3e899a9b2155b6eabf,6057c54e64b0b4e5c128b4f9,60590a94d85cc79a71fa207b,United States,Northeast,13 or older,no,2021-03-22_17h27.39.078,empathy_intonation_perc,2020.2.10,Win32,60,,,,,,,,,,1,castilian,1,1,2.18522,0,24,24,21,1,22,./stim/wavs/andalusian_match_interrogative-partial-wh_Por-que-ama-la-navidad.wav,./stim/wavs/argentine_match_interrogative-partial-wh_Por-que-ama-la-navidad.wav,./stim/wavs/castilian_match_interrogative-partial-wh_Por-que-ama-la-navidad.wav,./stim/wavs/chilean_match_interrogative-partial-wh_Por-que-ama-la-navidad.wav,./stim/wavs/cuban_match_interrogative-partial-wh_Por-que-ama-la-navidad.wav,./stim/wavs/mexican_match_interrogative-partial-wh_Por-que-ama-la-navidad.wav,./stim/wavs/peruvian_match_interrogative-partial-wh_Por-que-ama-la-navidad.wav,./stim/wavs/puertorican_match_interrogative-partial-wh_Por-que-ama-la-navidad.wav,,,,,,,,,,,,,,,,,,,,,,,,,,,,,,,,,,,,,,,,,,,,,,,,,,,,,,,,
,,,,,,,5f40de3e899a9b2155b6eabf,6057c54e64b0b4e5c128b4f9,60590a94d85cc79a71fa207b,United States,Northeast,13 or older,no,2021-03-22_17h27.39.078,empathy_intonation_perc,2020.2.10,Win32,60,,,,,,,,,,1,argentine,0,0,2.25843,0,25,25,26,1,27,./stim/wavs/andalusian_match_interrogative-total-yn_David-leia-el-libro.wav,./stim/wavs/argentine_match_interrogative-total-yn_David-leia-el-libro.wav,./stim/wavs/castilian_match_interrogative-total-yn_David-leia-el-libro.wav,./stim/wavs/chilean_match_interrogative-total-yn_David-leia-el-libro.wav,./stim/wavs/cuban_match_interrogative-total-yn_David-leia-el-libro.wav,./stim/wavs/mexican_match_interrogative-total-yn_David-leia-el-libro.wav,./stim/wavs/peruvian_match_interrogative-total-yn_David-leia-el-libro.wav,./stim/wavs/puertorican_match_interrogative-total-yn_David-leia-el-libro.wav,,,,,,,,,,,,,,,,,,,,,,,,,,,,,,,,,,,,,,,,,,,,,,,,,,,,,,,,
,,,,,,,5f40de3e899a9b2155b6eabf,6057c54e64b0b4e5c128b4f9,60590a94d85cc79a71fa207b,United States,Northeast,13 or older,no,2021-03-22_17h27.39.078,empathy_intonation_perc,2020.2.10,Win32,60,,,,,,,,,,1,chilean,1,1,1.49788,0,26,26,23,1,24,./stim/wavs/andalusian_match_interrogative-partial-wh_Por-que-iba-a-Bolivia.wav,./stim/wavs/argentine_match_interrogative-partial-wh_Por-que-iba-a-Bolivia.wav,./stim/wavs/castilian_match_interrogative-partial-wh_Por-que-iba-a-Bolivia.wav,./stim/wavs/chilean_match_interrogative-partial-wh_Por-que-iba-a-Bolivia.wav,./stim/wavs/cuban_match_interrogative-partial-wh_Por-que-iba-a-Bolivia.wav,./stim/wavs/mexican_match_interrogative-partial-wh_Por-que-iba-a-Bolivia.wav,./stim/wavs/peruvian_match_interrogative-partial-wh_Por-que-iba-a-Bolivia.wav,./stim/wavs/puertorican_match_interrogative-partial-wh_Por-que-iba-a-Bolivia.wav,,,,,,,,,,,,,,,,,,,,,,,,,,,,,,,,,,,,,,,,,,,,,,,,,,,,,,,,
,,,,,,,5f40de3e899a9b2155b6eabf,6057c54e64b0b4e5c128b4f9,60590a94d85cc79a71fa207b,United States,Northeast,13 or older,no,2021-03-22_17h27.39.078,empathy_intonation_perc,2020.2.10,Win32,60,,,,,,,,,,0,peruvian,1,0,2.49605,0,27,27,34,1,35,./stim/wavs/andalusian_mismatch_declarative-broad-focus_El-nino-oye-el-rio.wav,./stim/wavs/argentine_mismatch_declarative-broad-focus_El-nino-oye-el-rio.wav,./stim/wavs/castilian_mismatch_declarative-broad-focus_El-nino-oye-el-rio.wav,./stim/wavs/chilean_mismatch_declarative-broad-focus_El-nino-oye-el-rio.wav,./stim/wavs/cuban_mismatch_declarative-broad-focus_El-nino-oye-el-rio.wav,./stim/wavs/mexican_mismatch_declarative-broad-focus_El-nino-oye-el-rio.wav,./stim/wavs/peruvian_mismatch_declarative-broad-focus_El-nino-oye-el-rio.wav,./stim/wavs/puertorican_mismatch_declarative-broad-focus_El-nino-oye-el-rio.wav,,,,,,,,,,,,,,,,,,,,,,,,,,,,,,,,,,,,,,,,,,,,,,,,,,,,,,,,
,,,,,,,5f40de3e899a9b2155b6eabf,6057c54e64b0b4e5c128b4f9,60590a94d85cc79a71fa207b,United States,Northeast,13 or older,no,2021-03-22_17h27.39.078,empathy_intonation_perc,2020.2.10,Win32,60,,,,,,,,,,1,castilian,1,1,3.06796,0,28,28,58,1,59,./stim/wavs/andalusian_mismatch_interrogative-total-yn_El-nino-oye-el-rio.wav,./stim/wavs/argentine_mismatch_interrogative-total-yn_El-nino-oye-el-rio.wav,./stim/wavs/castilian_mismatch_interrogative-total-yn_El-nino-oye-el-rio.wav,./stim/wavs/chilean_mismatch_interrogative-total-yn_El-nino-oye-el-rio.wav,./stim/wavs/cuban_mismatch_interrogative-total-yn_El-nino-oye-el-rio.wav,./stim/wavs/mexican_mismatch_interrogative-total-yn_El-nino-oye-el-rio.wav,./stim/wavs/peruvian_mismatch_interrogative-total-yn_El-nino-oye-el-rio.wav,./stim/wavs/puertorican_mismatch_interrogative-total-yn_El-nino-oye-el-rio.wav,,,,,,,,,,,,,,,,,,,,,,,,,,,,,,,,,,,,,,,,,,,,,,,,,,,,,,,,
,,,,,,,5f40de3e899a9b2155b6eabf,6057c54e64b0b4e5c128b4f9,60590a94d85cc79a71fa207b,United States,Northeast,13 or older,no,2021-03-22_17h27.39.078,empathy_intonation_perc,2020.2.10,Win32,60,,,,,,,,,,0,cuban,0,1,4.345845,0,29,29,42,1,43,./stim/wavs/andalusian_mismatch_declarative-narrow-focus_El-nino-oye-el-rio.wav,./stim/wavs/argentine_mismatch_declarative-narrow-focus_El-nino-oye-el-rio.wav,./stim/wavs/castilian_mismatch_declarative-narrow-focus_El-nino-oye-el-rio.wav,./stim/wavs/chilean_mismatch_declarative-narrow-focus_El-nino-oye-el-rio.wav,./stim/wavs/cuban_mismatch_declarative-narrow-focus_El-nino-oye-el-rio.wav,./stim/wavs/mexican_mismatch_declarative-narrow-focus_El-nino-oye-el-rio.wav,./stim/wavs/peruvian_mismatch_declarative-narrow-focus_El-nino-oye-el-rio.wav,./stim/wavs/puertorican_mismatch_declarative-narrow-focus_El-nino-oye-el-rio.wav,,,,,,,,,,,,,,,,,,,,,,,,,,,,,,,,,,,,,,,,,,,,,,,,,,,,,,,,
,,,,,,,5f40de3e899a9b2155b6eabf,6057c54e64b0b4e5c128b4f9,60590a94d85cc79a71fa207b,United States,Northeast,13 or older,no,2021-03-22_17h27.39.078,empathy_intonation_perc,2020.2.10,Win32,60,,,,,,,,,,1,castilian,1,1,3.633225,0,30,30,56,1,57,./stim/wavs/andalusian_mismatch_interrogative-total-yn_El-bebe-comia-muy-bien.wav,./stim/wavs/argentine_mismatch_interrogative-total-yn_El-bebe-comia-muy-bien.wav,./stim/wavs/castilian_mismatch_interrogative-total-yn_El-bebe-comia-muy-bien.wav,./stim/wavs/chilean_mismatch_interrogative-total-yn_El-bebe-comia-muy-bien.wav,./stim/wavs/cuban_mismatch_interrogative-total-yn_El-bebe-comia-muy-bien.wav,./stim/wavs/mexican_mismatch_interrogative-total-yn_El-bebe-comia-muy-bien.wav,./stim/wavs/peruvian_mismatch_interrogative-total-yn_El-bebe-comia-muy-bien.wav,./stim/wavs/puertorican_mismatch_interrogative-total-yn_El-bebe-comia-muy-bien.wav,,,,,,,,,,,,,,,,,,,,,,,,,,,,,,,,,,,,,,,,,,,,,,,,,,,,,,,,
,,,,,,,5f40de3e899a9b2155b6eabf,6057c54e64b0b4e5c128b4f9,60590a94d85cc79a71fa207b,United States,Northeast,13 or older,no,2021-03-22_17h27.39.078,empathy_intonation_perc,2020.2.10,Win32,60,,,,,,,,,,0,cuban,0,1,2.173205,0,31,31,2,1,3,./stim/wavs/andalusian_match_declarative-broad-focus_David-leia-el-libro.wav,./stim/wavs/argentine_match_declarative-broad-focus_David-leia-el-libro.wav,./stim/wavs/castilian_match_declarative-broad-focus_David-leia-el-libro.wav,./stim/wavs/chilean_match_declarative-broad-focus_David-leia-el-libro.wav,./stim/wavs/cuban_match_declarative-broad-focus_David-leia-el-libro.wav,./stim/wavs/mexican_match_declarative-broad-focus_David-leia-el-libro.wav,./stim/wavs/peruvian_match_declarative-broad-focus_David-leia-el-libro.wav,./stim/wavs/puertorican_match_declarative-broad-focus_David-leia-el-libro.wav,,,,,,,,,,,,,,,,,,,,,,,,,,,,,,,,,,,,,,,,,,,,,,,,,,,,,,,,
,,,,,,,5f40de3e899a9b2155b6eabf,6057c54e64b0b4e5c128b4f9,60590a94d85cc79a71fa207b,United States,Northeast,13 or older,no,2021-03-22_17h27.39.078,empathy_intonation_perc,2020.2.10,Win32,60,,,,,,,,,,1,argentine,1,1,4.72586,0,32,32,54,1,55,./stim/wavs/andalusian_mismatch_interrogative-partial-wh_Por-que-venia-del-lago.wav,./stim/wavs/argentine_mismatch_interrogative-partial-wh_Por-que-venia-del-lago.wav,./stim/wavs/castilian_mismatch_interrogative-partial-wh_Por-que-venia-del-lago.wav,./stim/wavs/chilean_mismatch_interrogative-partial-wh_Por-que-venia-del-lago.wav,./stim/wavs/cuban_mismatch_interrogative-partial-wh_Por-que-venia-del-lago.wav,./stim/wavs/mexican_mismatch_interrogative-partial-wh_Por-que-venia-del-lago.wav,./stim/wavs/peruvian_mismatch_interrogative-partial-wh_Por-que-venia-del-lago.wav,./stim/wavs/puertorican_mismatch_interrogative-partial-wh_Por-que-venia-del-lago.wav,,,,,,,,,,,,,,,,,,,,,,,,,,,,,,,,,,,,,,,,,,,,,,,,,,,,,,,,
,,,,,,,5f40de3e899a9b2155b6eabf,6057c54e64b0b4e5c128b4f9,60590a94d85cc79a71fa207b,United States,Northeast,13 or older,no,2021-03-22_17h27.39.078,empathy_intonation_perc,2020.2.10,Win32,60,,,,,,,,,,0,andalusian,0,1,2.189605,0,33,33,11,1,12,./stim/wavs/andalusian_match_declarative-narrow-focus_Emilio-ama-la-marcha.wav,./stim/wavs/argentine_match_declarative-narrow-focus_Emilio-ama-la-marcha.wav,./stim/wavs/castilian_match_declarative-narrow-focus_Emilio-ama-la-marcha.wav,./stim/wavs/chilean_match_declarative-narrow-focus_Emilio-ama-la-marcha.wav,./stim/wavs/cuban_match_declarative-narrow-focus_Emilio-ama-la-marcha.wav,./stim/wavs/mexican_match_declarative-narrow-focus_Emilio-ama-la-marcha.wav,./stim/wavs/peruvian_match_declarative-narrow-focus_Emilio-ama-la-marcha.wav,./stim/wavs/puertorican_match_declarative-narrow-focus_Emilio-ama-la-marcha.wav,,,,,,,,,,,,,,,,,,,,,,,,,,,,,,,,,,,,,,,,,,,,,,,,,,,,,,,,
,,,,,,,5f40de3e899a9b2155b6eabf,6057c54e64b0b4e5c128b4f9,60590a94d85cc79a71fa207b,United States,Northeast,13 or older,no,2021-03-22_17h27.39.078,empathy_intonation_perc,2020.2.10,Win32,60,,,,,,,,,,1,cuban,0,0,2.404435,0,34,34,19,1,20,./stim/wavs/andalusian_match_interrogative-partial-wh_Cuando-vendia-el-carro.wav,./stim/wavs/argentine_match_interrogative-partial-wh_Cuando-vendia-el-carro.wav,./stim/wavs/castilian_match_interrogative-partial-wh_Cuando-vendia-el-carro.wav,./stim/wavs/chilean_match_interrogative-partial-wh_Cuando-vendia-el-carro.wav,./stim/wavs/cuban_match_interrogative-partial-wh_Cuando-vendia-el-carro.wav,./stim/wavs/mexican_match_interrogative-partial-wh_Cuando-vendia-el-carro.wav,./stim/wavs/peruvian_match_interrogative-partial-wh_Cuando-vendia-el-carro.wav,./stim/wavs/puertorican_match_interrogative-partial-wh_Cuando-vendia-el-carro.wav,,,,,,,,,,,,,,,,,,,,,,,,,,,,,,,,,,,,,,,,,,,,,,,,,,,,,,,,
,,,,,,,5f40de3e899a9b2155b6eabf,6057c54e64b0b4e5c128b4f9,60590a94d85cc79a71fa207b,United States,Northeast,13 or older,no,2021-03-22_17h27.39.078,empathy_intonation_perc,2020.2.10,Win32,60,,,,,,,,,,1,peruvian,1,1,1.81663,0,35,35,53,1,54,./stim/wavs/andalusian_mismatch_interrogative-partial-wh_Por-que-oia-el-rio.wav,./stim/wavs/argentine_mismatch_interrogative-partial-wh_Por-que-oia-el-rio.wav,./stim/wavs/castilian_mismatch_interrogative-partial-wh_Por-que-oia-el-rio.wav,./stim/wavs/chilean_mismatch_interrogative-partial-wh_Por-que-oia-el-rio.wav,./stim/wavs/cuban_mismatch_interrogative-partial-wh_Por-que-oia-el-rio.wav,./stim/wavs/mexican_mismatch_interrogative-partial-wh_Por-que-oia-el-rio.wav,./stim/wavs/peruvian_mismatch_interrogative-partial-wh_Por-que-oia-el-rio.wav,./stim/wavs/puertorican_mismatch_interrogative-partial-wh_Por-que-oia-el-rio.wav,,,,,,,,,,,,,,,,,,,,,,,,,,,,,,,,,,,,,,,,,,,,,,,,,,,,,,,,
,,,,,,,5f40de3e899a9b2155b6eabf,6057c54e64b0b4e5c128b4f9,60590a94d85cc79a71fa207b,United States,Northeast,13 or older,no,2021-03-22_17h27.39.078,empathy_intonation_perc,2020.2.10,Win32,60,,,,,,,,,,0,puertorican,1,0,2.898135,0,36,36,36,1,37,./stim/wavs/andalusian_mismatch_declarative-broad-focus_La-nina-lava-el-plato.wav,./stim/wavs/argentine_mismatch_declarative-broad-focus_La-nina-lava-el-plato.wav,./stim/wavs/castilian_mismatch_declarative-broad-focus_La-nina-lava-el-plato.wav,./stim/wavs/chilean_mismatch_declarative-broad-focus_La-nina-lava-el-plato.wav,./stim/wavs/cuban_mismatch_declarative-broad-focus_La-nina-lava-el-plato.wav,./stim/wavs/mexican_mismatch_declarative-broad-focus_La-nina-lava-el-plato.wav,./stim/wavs/peruvian_mismatch_declarative-broad-focus_La-nina-lava-el-plato.wav,./stim/wavs/puertorican_mismatch_declarative-broad-focus_La-nina-lava-el-plato.wav,,,,,,,,,,,,,,,,,,,,,,,,,,,,,,,,,,,,,,,,,,,,,,,,,,,,,,,,
,,,,,,,5f40de3e899a9b2155b6eabf,6057c54e64b0b4e5c128b4f9,60590a94d85cc79a71fa207b,United States,Northeast,13 or older,no,2021-03-22_17h27.39.078,empathy_intonation_perc,2020.2.10,Win32,60,,,,,,,,,,1,cuban,1,1,2.328985,0,37,37,22,1,23,./stim/wavs/andalusian_match_interrogative-partial-wh_Por-que-hablaba-del-agua.wav,./stim/wavs/argentine_match_interrogative-partial-wh_Por-que-hablaba-del-agua.wav,./stim/wavs/castilian_match_interrogative-partial-wh_Por-que-hablaba-del-agua.wav,./stim/wavs/chilean_match_interrogative-partial-wh_Por-que-hablaba-del-agua.wav,./stim/wavs/cuban_match_interrogative-partial-wh_Por-que-hablaba-del-agua.wav,./stim/wavs/mexican_match_interrogative-partial-wh_Por-que-hablaba-del-agua.wav,./stim/wavs/peruvian_match_interrogative-partial-wh_Por-que-hablaba-del-agua.wav,./stim/wavs/puertorican_match_interrogative-partial-wh_Por-que-hablaba-del-agua.wav,,,,,,,,,,,,,,,,,,,,,,,,,,,,,,,,,,,,,,,,,,,,,,,,,,,,,,,,
,,,,,,,5f40de3e899a9b2155b6eabf,6057c54e64b0b4e5c128b4f9,60590a94d85cc79a71fa207b,United States,Northeast,13 or older,no,2021-03-22_17h27.39.078,empathy_intonation_perc,2020.2.10,Win32,60,,,,,,,,,,0,mexican,1,0,2.25381,0,38,38,1,1,2,./stim/wavs/andalusian_match_declarative-broad-focus_Daniel-iba-a-Bolivia.wav,./stim/wavs/argentine_match_declarative-broad-focus_Daniel-iba-a-Bolivia.wav,./stim/wavs/castilian_match_declarative-broad-focus_Daniel-iba-a-Bolivia.wav,./stim/wavs/chilean_match_declarative-broad-focus_Daniel-iba-a-Bolivia.wav,./stim/wavs/cuban_match_declarative-broad-focus_Daniel-iba-a-Bolivia.wav,./stim/wavs/mexican_match_declarative-broad-focus_Daniel-iba-a-Bolivia.wav,./stim/wavs/peruvian_match_declarative-broad-focus_Daniel-iba-a-Bolivia.wav,./stim/wavs/puertorican_match_declarative-broad-focus_Daniel-iba-a-Bolivia.wav,,,,,,,,,,,,,,,,,,,,,,,,,,,,,,,,,,,,,,,,,,,,,,,,,,,,,,,,
,,,,,,,5f40de3e899a9b2155b6eabf,6057c54e64b0b4e5c128b4f9,60590a94d85cc79a71fa207b,United States,Northeast,13 or older,no,2021-03-22_17h27.39.078,empathy_intonation_perc,2020.2.10,Win32,60,,,,,,,,,,1,andalusian,0,0,1.640445,0,39,39,49,1,50,./stim/wavs/andalusian_mismatch_interrogative-partial-wh_Cuando-lavaba-el-plato.wav,./stim/wavs/argentine_mismatch_interrogative-partial-wh_Cuando-lavaba-el-plato.wav,./stim/wavs/castilian_mismatch_interrogative-partial-wh_Cuando-lavaba-el-plato.wav,./stim/wavs/chilean_mismatch_interrogative-partial-wh_Cuando-lavaba-el-plato.wav,./stim/wavs/cuban_mismatch_interrogative-partial-wh_Cuando-lavaba-el-plato.wav,./stim/wavs/mexican_mismatch_interrogative-partial-wh_Cuando-lavaba-el-plato.wav,./stim/wavs/peruvian_mismatch_interrogative-partial-wh_Cuando-lavaba-el-plato.wav,./stim/wavs/puertorican_mismatch_interrogative-partial-wh_Cuando-lavaba-el-plato.wav,,,,,,,,,,,,,,,,,,,,,,,,,,,,,,,,,,,,,,,,,,,,,,,,,,,,,,,,
,,,,,,,5f40de3e899a9b2155b6eabf,6057c54e64b0b4e5c128b4f9,60590a94d85cc79a71fa207b,United States,Northeast,13 or older,no,2021-03-22_17h27.39.078,empathy_intonation_perc,2020.2.10,Win32,60,,,,,,,,,,1,castilian,1,1,1.85925,0,40,40,25,1,26,./stim/wavs/andalusian_match_interrogative-total-yn_Daniel-iba-a-Bolivia.wav,./stim/wavs/argentine_match_interrogative-total-yn_Daniel-iba-a-Bolivia.wav,./stim/wavs/castilian_match_interrogative-total-yn_Daniel-iba-a-Bolivia.wav,./stim/wavs/chilean_match_interrogative-total-yn_Daniel-iba-a-Bolivia.wav,./stim/wavs/cuban_match_interrogative-total-yn_Daniel-iba-a-Bolivia.wav,./stim/wavs/mexican_match_interrogative-total-yn_Daniel-iba-a-Bolivia.wav,./stim/wavs/peruvian_match_interrogative-total-yn_Daniel-iba-a-Bolivia.wav,./stim/wavs/puertorican_match_interrogative-total-yn_Daniel-iba-a-Bolivia.wav,,,,,,,,,,,,,,,,,,,,,,,,,,,,,,,,,,,,,,,,,,,,,,,,,,,,,,,,
,,,,,,,5f40de3e899a9b2155b6eabf,6057c54e64b0b4e5c128b4f9,60590a94d85cc79a71fa207b,United States,Northeast,13 or older,no,2021-03-22_17h27.39.078,empathy_intonation_perc,2020.2.10,Win32,60,,,,,,,,,,1,argentine,1,1,1.981295,0,41,41,48,1,49,./stim/wavs/andalusian_mismatch_interrogative-partial-wh_Cuando-comia-la-fruta.wav,./stim/wavs/argentine_mismatch_interrogative-partial-wh_Cuando-comia-la-fruta.wav,./stim/wavs/castilian_mismatch_interrogative-partial-wh_Cuando-comia-la-fruta.wav,./stim/wavs/chilean_mismatch_interrogative-partial-wh_Cuando-comia-la-fruta.wav,./stim/wavs/cuban_mismatch_interrogative-partial-wh_Cuando-comia-la-fruta.wav,./stim/wavs/mexican_mismatch_interrogative-partial-wh_Cuando-comia-la-fruta.wav,./stim/wavs/peruvian_mismatch_interrogative-partial-wh_Cuando-comia-la-fruta.wav,./stim/wavs/puertorican_mismatch_interrogative-partial-wh_Cuando-comia-la-fruta.wav,,,,,,,,,,,,,,,,,,,,,,,,,,,,,,,,,,,,,,,,,,,,,,,,,,,,,,,,
,,,,,,,5f40de3e899a9b2155b6eabf,6057c54e64b0b4e5c128b4f9,60590a94d85cc79a71fa207b,United States,Northeast,13 or older,no,2021-03-22_17h27.39.078,empathy_intonation_perc,2020.2.10,Win32,60,,,,,,,,,,0,peruvian,0,1,2.09066,0,42,42,14,1,15,./stim/wavs/andalusian_match_declarative-narrow-focus_Mariano-habla-del-tiempo.wav,./stim/wavs/argentine_match_declarative-narrow-focus_Mariano-habla-del-tiempo.wav,./stim/wavs/castilian_match_declarative-narrow-focus_Mariano-habla-del-tiempo.wav,./stim/wavs/chilean_match_declarative-narrow-focus_Mariano-habla-del-tiempo.wav,./stim/wavs/cuban_match_declarative-narrow-focus_Mariano-habla-del-tiempo.wav,./stim/wavs/mexican_match_declarative-narrow-focus_Mariano-habla-del-tiempo.wav,./stim/wavs/peruvian_match_declarative-narrow-focus_Mariano-habla-del-tiempo.wav,./stim/wavs/puertorican_match_declarative-narrow-focus_Mariano-habla-del-tiempo.wav,,,,,,,,,,,,,,,,,,,,,,,,,,,,,,,,,,,,,,,,,,,,,,,,,,,,,,,,
,,,,,,,5f40de3e899a9b2155b6eabf,6057c54e64b0b4e5c128b4f9,60590a94d85cc79a71fa207b,United States,Northeast,13 or older,no,2021-03-22_17h27.39.078,empathy_intonation_perc,2020.2.10,Win32,60,,,,,,,,,,1,andalusian,1,1,1.722755,0,43,43,31,1,32,./stim/wavs/andalusian_match_interrogative-total-yn_Marta-abre-el-regalo.wav,./stim/wavs/argentine_match_interrogative-total-yn_Marta-abre-el-regalo.wav,./stim/wavs/castilian_match_interrogative-total-yn_Marta-abre-el-regalo.wav,./stim/wavs/chilean_match_interrogative-total-yn_Marta-abre-el-regalo.wav,./stim/wavs/cuban_match_interrogative-total-yn_Marta-abre-el-regalo.wav,./stim/wavs/mexican_match_interrogative-total-yn_Marta-abre-el-regalo.wav,./stim/wavs/peruvian_match_interrogative-total-yn_Marta-abre-el-regalo.wav,./stim/wavs/puertorican_match_interrogative-total-yn_Marta-abre-el-regalo.wav,,,,,,,,,,,,,,,,,,,,,,,,,,,,,,,,,,,,,,,,,,,,,,,,,,,,,,,,
,,,,,,,5f40de3e899a9b2155b6eabf,6057c54e64b0b4e5c128b4f9,60590a94d85cc79a71fa207b,United States,Northeast,13 or older,no,2021-03-22_17h27.39.078,empathy_intonation_perc,2020.2.10,Win32,60,,,,,,,,,,0,cuban,0,1,1.91275,0,44,44,37,1,38,./stim/wavs/andalusian_mismatch_declarative-broad-focus_Mi-madre-come-la-fruta.wav,./stim/wavs/argentine_mismatch_declarative-broad-focus_Mi-madre-come-la-fruta.wav,./stim/wavs/castilian_mismatch_declarative-broad-focus_Mi-madre-come-la-fruta.wav,./stim/wavs/chilean_mismatch_declarative-broad-focus_Mi-madre-come-la-fruta.wav,./stim/wavs/cuban_mismatch_declarative-broad-focus_Mi-madre-come-la-fruta.wav,./stim/wavs/mexican_mismatch_declarative-broad-focus_Mi-madre-come-la-fruta.wav,./stim/wavs/peruvian_mismatch_declarative-broad-focus_Mi-madre-come-la-fruta.wav,./stim/wavs/puertorican_mismatch_declarative-broad-focus_Mi-madre-come-la-fruta.wav,,,,,,,,,,,,,,,,,,,,,,,,,,,,,,,,,,,,,,,,,,,,,,,,,,,,,,,,
,,,,,,,5f40de3e899a9b2155b6eabf,6057c54e64b0b4e5c128b4f9,60590a94d85cc79a71fa207b,United States,Northeast,13 or older,no,2021-03-22_17h27.39.078,empathy_intonation_perc,2020.2.10,Win32,60,,,,,,,,,,1,chilean,1,1,3.154825,0,45,45,30,1,31,./stim/wavs/andalusian_match_interrogative-total-yn_Mariano-habla-del-tiempo.wav,./stim/wavs/argentine_match_interrogative-total-yn_Mariano-habla-del-tiempo.wav,./stim/wavs/castilian_match_interrogative-total-yn_Mariano-habla-del-tiempo.wav,./stim/wavs/chilean_match_interrogative-total-yn_Mariano-habla-del-tiempo.wav,./stim/wavs/cuban_match_interrogative-total-yn_Mariano-habla-del-tiempo.wav,./stim/wavs/mexican_match_interrogative-total-yn_Mariano-habla-del-tiempo.wav,./stim/wavs/peruvian_match_interrogative-total-yn_Mariano-habla-del-tiempo.wav,./stim/wavs/puertorican_match_interrogative-total-yn_Mariano-habla-del-tiempo.wav,,,,,,,,,,,,,,,,,,,,,,,,,,,,,,,,,,,,,,,,,,,,,,,,,,,,,,,,
,,,,,,,5f40de3e899a9b2155b6eabf,6057c54e64b0b4e5c128b4f9,60590a94d85cc79a71fa207b,United States,Northeast,13 or older,no,2021-03-22_17h27.39.078,empathy_intonation_perc,2020.2.10,Win32,60,,,,,,,,,,0,andalusian,0,1,1.82871,0,46,46,9,1,10,./stim/wavs/andalusian_match_declarative-narrow-focus_Daniel-iba-a-Bolivia.wav,./stim/wavs/argentine_match_declarative-narrow-focus_Daniel-iba-a-Bolivia.wav,./stim/wavs/castilian_match_declarative-narrow-focus_Daniel-iba-a-Bolivia.wav,./stim/wavs/chilean_match_declarative-narrow-focus_Daniel-iba-a-Bolivia.wav,./stim/wavs/cuban_match_declarative-narrow-focus_Daniel-iba-a-Bolivia.wav,./stim/wavs/mexican_match_declarative-narrow-focus_Daniel-iba-a-Bolivia.wav,./stim/wavs/peruvian_match_declarative-narrow-focus_Daniel-iba-a-Bolivia.wav,./stim/wavs/puertorican_match_declarative-narrow-focus_Daniel-iba-a-Bolivia.wav,,,,,,,,,,,,,,,,,,,,,,,,,,,,,,,,,,,,,,,,,,,,,,,,,,,,,,,,
,,,,,,,5f40de3e899a9b2155b6eabf,6057c54e64b0b4e5c128b4f9,60590a94d85cc79a71fa207b,United States,Northeast,13 or older,no,2021-03-22_17h27.39.078,empathy_intonation_perc,2020.2.10,Win32,60,,,,,,,,,,0,andalusian,1,0,2.27058,0,47,47,33,1,34,./stim/wavs/andalusian_mismatch_declarative-broad-focus_El-hombre-mira-la-luna.wav,./stim/wavs/argentine_mismatch_declarative-broad-focus_El-hombre-mira-la-luna.wav,./stim/wavs/castilian_mismatch_declarative-broad-focus_El-hombre-mira-la-luna.wav,./stim/wavs/chilean_mismatch_declarative-broad-focus_El-hombre-mira-la-luna.wav,./stim/wavs/cuban_mismatch_declarative-broad-focus_El-hombre-mira-la-luna.wav,./stim/wavs/mexican_mismatch_declarative-broad-focus_El-hombre-mira-la-luna.wav,./stim/wavs/peruvian_mismatch_declarative-broad-focus_El-hombre-mira-la-luna.wav,./stim/wavs/puertorican_mismatch_declarative-broad-focus_El-hombre-mira-la-luna.wav,,,,,,,,,,,,,,,,,,,,,,,,,,,,,,,,,,,,,,,,,,,,,,,,,,,,,,,,
,,,,,,,5f40de3e899a9b2155b6eabf,6057c54e64b0b4e5c128b4f9,60590a94d85cc79a71fa207b,United States,Northeast,13 or older,no,2021-03-22_17h27.39.078,empathy_intonation_perc,2020.2.10,Win32,60,,,,,,,,,,0,chilean,0,1,1.77892,0,48,48,4,1,5,./stim/wavs/andalusian_match_declarative-broad-focus_Manuela-vende-el-carro.wav,./stim/wavs/argentine_match_declarative-broad-focus_Manuela-vende-el-carro.wav,./stim/wavs/castilian_match_declarative-broad-focus_Manuela-vende-el-carro.wav,./stim/wavs/chilean_match_declarative-broad-focus_Manuela-vende-el-carro.wav,./stim/wavs/cuban_match_declarative-broad-focus_Manuela-vende-el-carro.wav,./stim/wavs/mexican_match_declarative-broad-focus_Manuela-vende-el-carro.wav,./stim/wavs/peruvian_match_declarative-broad-focus_Manuela-vende-el-carro.wav,./stim/wavs/puertorican_match_declarative-broad-focus_Manuela-vende-el-carro.wav,,,,,,,,,,,,,,,,,,,,,,,,,,,,,,,,,,,,,,,,,,,,,,,,,,,,,,,,
,,,,,,,5f40de3e899a9b2155b6eabf,6057c54e64b0b4e5c128b4f9,60590a94d85cc79a71fa207b,United States,Northeast,13 or older,no,2021-03-22_17h27.39.078,empathy_intonation_perc,2020.2.10,Win32,60,,,,,,,,,,1,mexican,1,1,1.9491,0,49,49,60,1,61,./stim/wavs/andalusian_mismatch_interrogative-total-yn_La-nina-lava-el-plato.wav,./stim/wavs/argentine_mismatch_interrogative-total-yn_La-nina-lava-el-plato.wav,./stim/wavs/castilian_mismatch_interrogative-total-yn_La-nina-lava-el-plato.wav,./stim/wavs/chilean_mismatch_interrogative-total-yn_La-nina-lava-el-plato.wav,./stim/wavs/cuban_mismatch_interrogative-total-yn_La-nina-lava-el-plato.wav,./stim/wavs/mexican_mismatch_interrogative-total-yn_La-nina-lava-el-plato.wav,./stim/wavs/peruvian_mismatch_interrogative-total-yn_La-nina-lava-el-plato.wav,./stim/wavs/puertorican_mismatch_interrogative-total-yn_La-nina-lava-el-plato.wav,,,,,,,,,,,,,,,,,,,,,,,,,,,,,,,,,,,,,,,,,,,,,,,,,,,,,,,,
,,,,,,,5f40de3e899a9b2155b6eabf,6057c54e64b0b4e5c128b4f9,60590a94d85cc79a71fa207b,United States,Northeast,13 or older,no,2021-03-22_17h27.39.078,empathy_intonation_perc,2020.2.10,Win32,60,,,,,,,,,,0,chilean,0,1,2.101605,0,50,50,47,1,48,./stim/wavs/andalusian_mismatch_declarative-narrow-focus_Mi-tia-odia-la-lluvia.wav,./stim/wavs/argentine_mismatch_declarative-narrow-focus_Mi-tia-odia-la-lluvia.wav,./stim/wavs/castilian_mismatch_declarative-narrow-focus_Mi-tia-odia-la-lluvia.wav,./stim/wavs/chilean_mismatch_declarative-narrow-focus_Mi-tia-odia-la-lluvia.wav,./stim/wavs/cuban_mismatch_declarative-narrow-focus_Mi-tia-odia-la-lluvia.wav,./stim/wavs/mexican_mismatch_declarative-narrow-focus_Mi-tia-odia-la-lluvia.wav,./stim/wavs/peruvian_mismatch_declarative-narrow-focus_Mi-tia-odia-la-lluvia.wav,./stim/wavs/puertorican_mismatch_declarative-narrow-focus_Mi-tia-odia-la-lluvia.wav,,,,,,,,,,,,,,,,,,,,,,,,,,,,,,,,,,,,,,,,,,,,,,,,,,,,,,,,
,,,,,,,5f40de3e899a9b2155b6eabf,6057c54e64b0b4e5c128b4f9,60590a94d85cc79a71fa207b,United States,Northeast,13 or older,no,2021-03-22_17h27.39.078,empathy_intonation_perc,2020.2.10,Win32,60,,,,,,,,,,0,puertorican,1,0,3.65664,0,51,51,35,1,36,./stim/wavs/andalusian_mismatch_declarative-broad-focus_La-maestra-vive-en-Paris.wav,./stim/wavs/argentine_mismatch_declarative-broad-focus_La-maestra-vive-en-Paris.wav,./stim/wavs/castilian_mismatch_declarative-broad-focus_La-maestra-vive-en-Paris.wav,./stim/wavs/chilean_mismatch_declarative-broad-focus_La-maestra-vive-en-Paris.wav,./stim/wavs/cuban_mismatch_declarative-broad-focus_La-maestra-vive-en-Paris.wav,./stim/wavs/mexican_mismatch_declarative-broad-focus_La-maestra-vive-en-Paris.wav,./stim/wavs/peruvian_mismatch_declarative-broad-focus_La-maestra-vive-en-Paris.wav,./stim/wavs/puertorican_mismatch_declarative-broad-focus_La-maestra-vive-en-Paris.wav,,,,,,,,,,,,,,,,,,,,,,,,,,,,,,,,,,,,,,,,,,,,,,,,,,,,,,,,
,,,,,,,5f40de3e899a9b2155b6eabf,6057c54e64b0b4e5c128b4f9,60590a94d85cc79a71fa207b,United States,Northeast,13 or older,no,2021-03-22_17h27.39.078,empathy_intonation_perc,2020.2.10,Win32,60,,,,,,,,,,0,chilean,1,0,3.13042,0,52,52,6,1,7,./stim/wavs/andalusian_match_declarative-broad-focus_Mariano-habla-del-tiempo.wav,./stim/wavs/argentine_match_declarative-broad-focus_Mariano-habla-del-tiempo.wav,./stim/wavs/castilian_match_declarative-broad-focus_Mariano-habla-del-tiempo.wav,./stim/wavs/chilean_match_declarative-broad-focus_Mariano-habla-del-tiempo.wav,./stim/wavs/cuban_match_declarative-broad-focus_Mariano-habla-del-tiempo.wav,./stim/wavs/mexican_match_declarative-broad-focus_Mariano-habla-del-tiempo.wav,./stim/wavs/peruvian_match_declarative-broad-focus_Mariano-habla-del-tiempo.wav,./stim/wavs/puertorican_match_declarative-broad-focus_Mariano-habla-del-tiempo.wav,,,,,,,,,,,,,,,,,,,,,,,,,,,,,,,,,,,,,,,,,,,,,,,,,,,,,,,,
,,,,,,,5f40de3e899a9b2155b6eabf,6057c54e64b0b4e5c128b4f9,60590a94d85cc79a71fa207b,United States,Northeast,13 or older,no,2021-03-22_17h27.39.078,empathy_intonation_perc,2020.2.10,Win32,60,,,,,,,,,,0,mexican,1,0,1.584435,0,53,53,41,1,42,./stim/wavs/andalusian_mismatch_declarative-narrow-focus_El-hombre-mira-la-luna.wav,./stim/wavs/argentine_mismatch_declarative-narrow-focus_El-hombre-mira-la-luna.wav,./stim/wavs/castilian_mismatch_declarative-narrow-focus_El-hombre-mira-la-luna.wav,./stim/wavs/chilean_mismatch_declarative-narrow-focus_El-hombre-mira-la-luna.wav,./stim/wavs/cuban_mismatch_declarative-narrow-focus_El-hombre-mira-la-luna.wav,./stim/wavs/mexican_mismatch_declarative-narrow-focus_El-hombre-mira-la-luna.wav,./stim/wavs/peruvian_mismatch_declarative-narrow-focus_El-hombre-mira-la-luna.wav,./stim/wavs/puertorican_mismatch_declarative-narrow-focus_El-hombre-mira-la-luna.wav,,,,,,,,,,,,,,,,,,,,,,,,,,,,,,,,,,,,,,,,,,,,,,,,,,,,,,,,
,,,,,,,5f40de3e899a9b2155b6eabf,6057c54e64b0b4e5c128b4f9,60590a94d85cc79a71fa207b,United States,Northeast,13 or older,no,2021-03-22_17h27.39.078,empathy_intonation_perc,2020.2.10,Win32,60,,,,,,,,,,0,cuban,0,1,2.761845,0,54,54,10,1,11,./stim/wavs/andalusian_match_declarative-narrow-focus_David-leia-el-libro.wav,./stim/wavs/argentine_match_declarative-narrow-focus_David-leia-el-libro.wav,./stim/wavs/castilian_match_declarative-narrow-focus_David-leia-el-libro.wav,./stim/wavs/chilean_match_declarative-narrow-focus_David-leia-el-libro.wav,./stim/wavs/cuban_match_declarative-narrow-focus_David-leia-el-libro.wav,./stim/wavs/mexican_match_declarative-narrow-focus_David-leia-el-libro.wav,./stim/wavs/peruvian_match_declarative-narrow-focus_David-leia-el-libro.wav,./stim/wavs/puertorican_match_declarative-narrow-focus_David-leia-el-libro.wav,,,,,,,,,,,,,,,,,,,,,,,,,,,,,,,,,,,,,,,,,,,,,,,,,,,,,,,,
,,,,,,,5f40de3e899a9b2155b6eabf,6057c54e64b0b4e5c128b4f9,60590a94d85cc79a71fa207b,United States,Northeast,13 or older,no,2021-03-22_17h27.39.078,empathy_intonation_perc,2020.2.10,Win32,60,,,,,,,,,,1,peruvian,1,1,2.831595,0,55,55,52,1,53,./stim/wavs/andalusian_mismatch_interrogative-partial-wh_Por-que-odiaba-la-lluvia.wav,./stim/wavs/argentine_mismatch_interrogative-partial-wh_Por-que-odiaba-la-lluvia.wav,./stim/wavs/castilian_mismatch_interrogative-partial-wh_Por-que-odiaba-la-lluvia.wav,./stim/wavs/chilean_mismatch_interrogative-partial-wh_Por-que-odiaba-la-lluvia.wav,./stim/wavs/cuban_mismatch_interrogative-partial-wh_Por-que-odiaba-la-lluvia.wav,./stim/wavs/mexican_mismatch_interrogative-partial-wh_Por-que-odiaba-la-lluvia.wav,./stim/wavs/peruvian_mismatch_interrogative-partial-wh_Por-que-odiaba-la-lluvia.wav,./stim/wavs/puertorican_mismatch_interrogative-partial-wh_Por-que-odiaba-la-lluvia.wav,,,,,,,,,,,,,,,,,,,,,,,,,,,,,,,,,,,,,,,,,,,,,,,,,,,,,,,,
,,,,,,,5f40de3e899a9b2155b6eabf,6057c54e64b0b4e5c128b4f9,60590a94d85cc79a71fa207b,United States,Northeast,13 or older,no,2021-03-22_17h27.39.078,empathy_intonation_perc,2020.2.10,Win32,60,,,,,,,,,,1,mexican,1,1,1.715,0,56,56,24,1,25,./stim/wavs/andalusian_match_interrogative-total-yn_Ana-lleva-el-abrigo.wav,./stim/wavs/argentine_match_interrogative-total-yn_Ana-lleva-el-abrigo.wav,./stim/wavs/castilian_match_interrogative-total-yn_Ana-lleva-el-abrigo.wav,./stim/wavs/chilean_match_interrogative-total-yn_Ana-lleva-el-abrigo.wav,./stim/wavs/cuban_match_interrogative-total-yn_Ana-lleva-el-abrigo.wav,./stim/wavs/mexican_match_interrogative-total-yn_Ana-lleva-el-abrigo.wav,./stim/wavs/peruvian_match_interrogative-total-yn_Ana-lleva-el-abrigo.wav,./stim/wavs/puertorican_match_interrogative-total-yn_Ana-lleva-el-abrigo.wav,,,,,,,,,,,,,,,,,,,,,,,,,,,,,,,,,,,,,,,,,,,,,,,,,,,,,,,,
,,,,,,,5f40de3e899a9b2155b6eabf,6057c54e64b0b4e5c128b4f9,60590a94d85cc79a71fa207b,United States,Northeast,13 or older,no,2021-03-22_17h27.39.078,empathy_intonation_perc,2020.2.10,Win32,60,,,,,,,,,,0,puertorican,0,1,2.310615,0,57,57,12,1,13,./stim/wavs/andalusian_match_declarative-narrow-focus_Manuela-vende-el-carro.wav,./stim/wavs/argentine_match_declarative-narrow-focus_Manuela-vende-el-carro.wav,./stim/wavs/castilian_match_declarative-narrow-focus_Manuela-vende-el-carro.wav,./stim/wavs/chilean_match_declarative-narrow-focus_Manuela-vende-el-carro.wav,./stim/wavs/cuban_match_declarative-narrow-focus_Manuela-vende-el-carro.wav,./stim/wavs/mexican_match_declarative-narrow-focus_Manuela-vende-el-carro.wav,./stim/wavs/peruvian_match_declarative-narrow-focus_Manuela-vende-el-carro.wav,./stim/wavs/puertorican_match_declarative-narrow-focus_Manuela-vende-el-carro.wav,,,,,,,,,,,,,,,,,,,,,,,,,,,,,,,,,,,,,,,,,,,,,,,,,,,,,,,,
,,,,,,,5f40de3e899a9b2155b6eabf,6057c54e64b0b4e5c128b4f9,60590a94d85cc79a71fa207b,United States,Northeast,13 or older,no,2021-03-22_17h27.39.078,empathy_intonation_perc,2020.2.10,Win32,60,,,,,,,,,,0,castilian,1,0,2.27737,0,58,58,40,1,41,./stim/wavs/andalusian_mismatch_declarative-narrow-focus_El-bebe-comia-muy-bien.wav,./stim/wavs/argentine_mismatch_declarative-narrow-focus_El-bebe-comia-muy-bien.wav,./stim/wavs/castilian_mismatch_declarative-narrow-focus_El-bebe-comia-muy-bien.wav,./stim/wavs/chilean_mismatch_declarative-narrow-focus_El-bebe-comia-muy-bien.wav,./stim/wavs/cuban_mismatch_declarative-narrow-focus_El-bebe-comia-muy-bien.wav,./stim/wavs/mexican_mismatch_declarative-narrow-focus_El-bebe-comia-muy-bien.wav,./stim/wavs/peruvian_mismatch_declarative-narrow-focus_El-bebe-comia-muy-bien.wav,./stim/wavs/puertorican_mismatch_declarative-narrow-focus_El-bebe-comia-muy-bien.wav,,,,,,,,,,,,,,,,,,,,,,,,,,,,,,,,,,,,,,,,,,,,,,,,,,,,,,,,
,,,,,,,5f40de3e899a9b2155b6eabf,6057c54e64b0b4e5c128b4f9,60590a94d85cc79a71fa207b,United States,Northeast,13 or older,no,2021-03-22_17h27.39.078,empathy_intonation_perc,2020.2.10,Win32,60,,,,,,,,,,0,castilian,0,1,2.63051,0,59,59,7,1,8,./stim/wavs/andalusian_match_declarative-broad-focus_Marta-abre-el-regalo.wav,./stim/wavs/argentine_match_declarative-broad-focus_Marta-abre-el-regalo.wav,./stim/wavs/castilian_match_declarative-broad-focus_Marta-abre-el-regalo.wav,./stim/wavs/chilean_match_declarative-broad-focus_Marta-abre-el-regalo.wav,./stim/wavs/cuban_match_declarative-broad-focus_Marta-abre-el-regalo.wav,./stim/wavs/mexican_match_declarative-broad-focus_Marta-abre-el-regalo.wav,./stim/wavs/peruvian_match_declarative-broad-focus_Marta-abre-el-regalo.wav,./stim/wavs/puertorican_match_declarative-broad-focus_Marta-abre-el-regalo.wav,,,,,,,,,,,,,,,,,,,,,,,,,,,,,,,,,,,,,,,,,,,,,,,,,,,,,,,,
,,,,,,,5f40de3e899a9b2155b6eabf,6057c54e64b0b4e5c128b4f9,60590a94d85cc79a71fa207b,United States,Northeast,13 or older,no,2021-03-22_17h27.39.078,empathy_intonation_perc,2020.2.10,Win32,60,,,,,,,,,,0,cuban,1,0,2.049285,0,60,60,3,1,4,./stim/wavs/andalusian_match_declarative-broad-focus_Emilio-ama-la-marcha.wav,./stim/wavs/argentine_match_declarative-broad-focus_Emilio-ama-la-marcha.wav,./stim/wavs/castilian_match_declarative-broad-focus_Emilio-ama-la-marcha.wav,./stim/wavs/chilean_match_declarative-broad-focus_Emilio-ama-la-marcha.wav,./stim/wavs/cuban_match_declarative-broad-focus_Emilio-ama-la-marcha.wav,./stim/wavs/mexican_match_declarative-broad-focus_Emilio-ama-la-marcha.wav,./stim/wavs/peruvian_match_declarative-broad-focus_Emilio-ama-la-marcha.wav,./stim/wavs/puertorican_match_declarative-broad-focus_Emilio-ama-la-marcha.wav,,,,,,,,,,,,,,,,,,,,,,,,,,,,,,,,,,,,,,,,,,,,,,,,,,,,,,,,
,,,,,,,5f40de3e899a9b2155b6eabf,6057c54e64b0b4e5c128b4f9,60590a94d85cc79a71fa207b,United States,Northeast,13 or older,no,2021-03-22_17h27.39.078,empathy_intonation_perc,2020.2.10,Win32,60,,,,,,,,,,0,andalusian,0,1,2.383025,0,61,61,8,1,9,./stim/wavs/andalusian_match_declarative-narrow-focus_Ana-lleva-el-abrigo.wav,./stim/wavs/argentine_match_declarative-narrow-focus_Ana-lleva-el-abrigo.wav,./stim/wavs/castilian_match_declarative-narrow-focus_Ana-lleva-el-abrigo.wav,./stim/wavs/chilean_match_declarative-narrow-focus_Ana-lleva-el-abrigo.wav,./stim/wavs/cuban_match_declarative-narrow-focus_Ana-lleva-el-abrigo.wav,./stim/wavs/mexican_match_declarative-narrow-focus_Ana-lleva-el-abrigo.wav,./stim/wavs/peruvian_match_declarative-narrow-focus_Ana-lleva-el-abrigo.wav,./stim/wavs/puertorican_match_declarative-narrow-focus_Ana-lleva-el-abrigo.wav,,,,,,,,,,,,,,,,,,,,,,,,,,,,,,,,,,,,,,,,,,,,,,,,,,,,,,,,
,,,,,,,5f40de3e899a9b2155b6eabf,6057c54e64b0b4e5c128b4f9,60590a94d85cc79a71fa207b,United States,Northeast,13 or older,no,2021-03-22_17h27.39.078,empathy_intonation_perc,2020.2.10,Win32,60,,,,,,,,,,1,castilian,1,1,1.752655,0,62,62,57,1,58,./stim/wavs/andalusian_mismatch_interrogative-total-yn_El-hombre-mira-la-luna.wav,./stim/wavs/argentine_mismatch_interrogative-total-yn_El-hombre-mira-la-luna.wav,./stim/wavs/castilian_mismatch_interrogative-total-yn_El-hombre-mira-la-luna.wav,./stim/wavs/chilean_mismatch_interrogative-total-yn_El-hombre-mira-la-luna.wav,./stim/wavs/cuban_mismatch_interrogative-total-yn_El-hombre-mira-la-luna.wav,./stim/wavs/mexican_mismatch_interrogative-total-yn_El-hombre-mira-la-luna.wav,./stim/wavs/peruvian_mismatch_interrogative-total-yn_El-hombre-mira-la-luna.wav,./stim/wavs/puertorican_mismatch_interrogative-total-yn_El-hombre-mira-la-luna.wav,,,,,,,,,,,,,,,,,,,,,,,,,,,,,,,,,,,,,,,,,,,,,,,,,,,,,,,,
,,,,,,,5f40de3e899a9b2155b6eabf,6057c54e64b0b4e5c128b4f9,60590a94d85cc79a71fa207b,United States,Northeast,13 or older,no,2021-03-22_17h27.39.078,empathy_intonation_perc,2020.2.10,Win32,60,,,,,,,,,,0,castilian,0,1,1.79135,0,63,63,15,1,16,./stim/wavs/andalusian_match_declarative-narrow-focus_Marta-abre-el-regalo.wav,./stim/wavs/argentine_match_declarative-narrow-focus_Marta-abre-el-regalo.wav,./stim/wavs/castilian_match_declarative-narrow-focus_Marta-abre-el-regalo.wav,./stim/wavs/chilean_match_declarative-narrow-focus_Marta-abre-el-regalo.wav,./stim/wavs/cuban_match_declarative-narrow-focus_Marta-abre-el-regalo.wav,./stim/wavs/mexican_match_declarative-narrow-focus_Marta-abre-el-regalo.wav,./stim/wavs/peruvian_match_declarative-narrow-focus_Marta-abre-el-regalo.wav,./stim/wavs/puertorican_match_declarative-narrow-focus_Marta-abre-el-regalo.wav,,,,,,,,,,,,,,,,,,,,,,,,,,,,,,,,,,,,,,,,,,,,,,,,,,,,,,,,
,,,,,,,5f40de3e899a9b2155b6eabf,6057c54e64b0b4e5c128b4f9,60590a94d85cc79a71fa207b,United States,Northeast,13 or older,no,2021-03-22_17h27.39.078,empathy_intonation_perc,2020.2.10,Win32,60,,,,,,,,,,,,,,,,,,,,,,,,,,,,,h,1,9.49667,0,0,0,0,1,,,,,,,,,,,,,,,,,,,,,,,,,,,,,,,,,,,,,,,,,,,,,,,,
,,,,,"Great! Now we will move on. The next task consists of about 60 trials, in each of which you will see a string of letters. 
  
  Your task is to decide whether this is a real Spanish word or not.",(press the spacebar to continue),5f40de3e899a9b2155b6eabf,6057c54e64b0b4e5c128b4f9,60590a94d85cc79a71fa207b,United States,Northeast,13 or older,no,2021-03-22_17h27.39.078,empathy_intonation_perc,2020.2.10,Win32,60,,,,,,,,,,,,,,,,,,,,,,,,,,,,,,,,,,,,,0,0,0,0,1,,,,,,,,,,,,,,,,,,,,,,,,,,,,,,,,,,,,,,,,,,,
,,,,,"If you think it is an existing Spanish word, you type '1' (for 'REAL'), and if you think it is not an existing Spanish word, you type '0' (for 'FAKE').",(press the spacebar to continue),5f40de3e899a9b2155b6eabf,6057c54e64b0b4e5c128b4f9,60590a94d85cc79a71fa207b,United States,Northeast,13 or older,no,2021-03-22_17h27.39.078,empathy_intonation_perc,2020.2.10,Win32,60,,,,,,,,,,,,,,,,,,,,,,,,,,,,,,,,,,,,,0,1,1,1,1,,,,,,,,,,,,,,,,,,,,,,,,,,,,,,,,,,,,,,,,,,,
,,,,,"If you are sure that the word exists, even though you dont know its exact meaning, you may still respond '1' (REAL). 
  
  But if you are not sure if it is an existing word, you should respond '0' (FAKE).
  
  Let's do a practice round...",(press the spacebar to continue),5f40de3e899a9b2155b6eabf,6057c54e64b0b4e5c128b4f9,60590a94d85cc79a71fa207b,United States,Northeast,13 or older,no,2021-03-22_17h27.39.078,empathy_intonation_perc,2020.2.10,Win32,60,,,,,,,,,,,,,,,,,,,,,,,,,,,,,,,,,,,,,0,2,2,2,1,,,,,,,,,,,,,,,,,,,,,,,,,,,,,,,,,,,,,,,,,,,
,,,,,,,5f40de3e899a9b2155b6eabf,6057c54e64b0b4e5c128b4f9,60590a94d85cc79a71fa207b,United States,Northeast,13 or older,no,2021-03-22_17h27.39.078,empathy_intonation_perc,2020.2.10,Win32,60,,,,,,,,,,0,,,,,,,,,,,,,,,,,,,,,,,,,,,,,,,,1,0,2.210355,0,0,0,0,1,0,depiste,REAL,FAKE,,,,,,,,,,,,,,,,,,,,,,,,,,,,,,,
,,,,,,,5f40de3e899a9b2155b6eabf,6057c54e64b0b4e5c128b4f9,60590a94d85cc79a71fa207b,United States,Northeast,13 or older,no,2021-03-22_17h27.39.078,empathy_intonation_perc,2020.2.10,Win32,60,,,,,,,,,,1,,,,,,,,,,,,,,,,,,,,,,,,,,,,,,,,1,1,1.328615,0,1,1,1,1,0,s,REAL,FAKE,,,,,,,,,,,,,,,,,,,,,,,,,,,,,,,
,,,,,,,5f40de3e899a9b2155b6eabf,6057c54e64b0b4e5c128b4f9,60590a94d85cc79a71fa207b,United States,Northeast,13 or older,no,2021-03-22_17h27.39.078,empathy_intonation_perc,2020.2.10,Win32,60,,,,,,,,,,0,,,,,,,,,,,,,,,,,,,,,,,,,,,,,,,,1,0,2.79552,0,2,2,2,1,0,con,REAL,FAKE,,,,,,,,,,,,,,,,,,,,,,,,,,,,,,,
,,,,,,,5f40de3e899a9b2155b6eabf,6057c54e64b0b4e5c128b4f9,60590a94d85cc79a71fa207b,United States,Northeast,13 or older,no,2021-03-22_17h27.39.078,empathy_intonation_perc,2020.2.10,Win32,60,,,,,,,,,,0,,,,,,,,,,,,,,,,,,,,,,,,,,,,,,,,0,1,1.841375,0,3,3,3,1,0,calpar,REAL,FAKE,,,,,,,,,,,,,,,,,,,,,,,,,,,,,,,
,,,,,,,5f40de3e899a9b2155b6eabf,6057c54e64b0b4e5c128b4f9,60590a94d85cc79a71fa207b,United States,Northeast,13 or older,no,2021-03-22_17h27.39.078,empathy_intonation_perc,2020.2.10,Win32,60,,,,,,,,,,0,,,,,,,,,,,,,,,,,,,,,,,,,,,,,,,,0,1,1.298085,0,4,4,4,1,0,joten,REAL,FAKE,,,,,,,,,,,,,,,,,,,,,,,,,,,,,,,
,,,,,,,5f40de3e899a9b2155b6eabf,6057c54e64b0b4e5c128b4f9,60590a94d85cc79a71fa207b,United States,Northeast,13 or older,no,2021-03-22_17h27.39.078,empathy_intonation_perc,2020.2.10,Win32,60,,,,,,,,,,1,,,,,,,,,,,,,,,,,,,,,,,,,,,,,,,,0,0,2.300165,0,5,5,5,1,0,sacapuntas,REAL,FAKE,,,,,,,,,,,,,,,,,,,,,,,,,,,,,,,
,,,,,,,5f40de3e899a9b2155b6eabf,6057c54e64b0b4e5c128b4f9,60590a94d85cc79a71fa207b,United States,Northeast,13 or older,no,2021-03-22_17h27.39.078,empathy_intonation_perc,2020.2.10,Win32,60,,,,,,,,,,0,,,,,,,,,,,,,,,,,,,,,,,,,,,,,,,,1,0,1.769,0,6,6,6,1,0,priba,REAL,FAKE,,,,,,,,,,,,,,,,,,,,,,,,,,,,,,,
,,,,,,,5f40de3e899a9b2155b6eabf,6057c54e64b0b4e5c128b4f9,60590a94d85cc79a71fa207b,United States,Northeast,13 or older,no,2021-03-22_17h27.39.078,empathy_intonation_perc,2020.2.10,Win32,60,,,,,,,,,,0,,,,,,,,,,,,,,,,,,,,,,,,,,,,,,,,0,1,1.8281,0,7,7,7,1,0,pelasula,REAL,FAKE,,,,,,,,,,,,,,,,,,,,,,,,,,,,,,,
,,,,,,,5f40de3e899a9b2155b6eabf,6057c54e64b0b4e5c128b4f9,60590a94d85cc79a71fa207b,United States,Northeast,13 or older,no,2021-03-22_17h27.39.078,empathy_intonation_perc,2020.2.10,Win32,60,,,,,,,,,,1,,,,,,,,,,,,,,,,,,,,,,,,,,,,,,,,1,1,1.836395,0,8,8,8,1,0,bien,REAL,FAKE,,,,,,,,,,,,,,,,,,,,,,,,,,,,,,,
,,,,,,,5f40de3e899a9b2155b6eabf,6057c54e64b0b4e5c128b4f9,60590a94d85cc79a71fa207b,United States,Northeast,13 or older,no,2021-03-22_17h27.39.078,empathy_intonation_perc,2020.2.10,Win32,60,,,,,,,,,,1,,,,,,,,,,,,,,,,,,,,,,,,,,,,,,,,0,0,1.75563,0,9,9,9,1,0,casa,REAL,FAKE,,,,,,,,,,,,,,,,,,,,,,,,,,,,,,,
,,,,,,,5f40de3e899a9b2155b6eabf,6057c54e64b0b4e5c128b4f9,60590a94d85cc79a71fa207b,United States,Northeast,13 or older,no,2021-03-22_17h27.39.078,empathy_intonation_perc,2020.2.10,Win32,60,,,,,,,,,,0,,,,,,,,,,,,,,,,,,,,,,,,,,,,,,,,1,0,1.450245,0,10,10,10,1,0,lejo,REAL,FAKE,,,,,,,,,,,,,,,,,,,,,,,,,,,,,,,
,,,,,,,5f40de3e899a9b2155b6eabf,6057c54e64b0b4e5c128b4f9,60590a94d85cc79a71fa207b,United States,Northeast,13 or older,no,2021-03-22_17h27.39.078,empathy_intonation_perc,2020.2.10,Win32,60,,,,,,,,,,0,,,,,,,,,,,,,,,,,,,,,,,,,,,,,,,,0,1,2.168995,0,11,11,11,1,0,pretantas,REAL,FAKE,,,,,,,,,,,,,,,,,,,,,,,,,,,,,,,
,,,,,,,5f40de3e899a9b2155b6eabf,6057c54e64b0b4e5c128b4f9,60590a94d85cc79a71fa207b,United States,Northeast,13 or older,no,2021-03-22_17h27.39.078,empathy_intonation_perc,2020.2.10,Win32,60,,,,,,,,,,1,,,,,,,,,,,,,,,,,,,,,,,,,,,,,,,,,,,,,,,,12,asesinato,,,1,1,2.09299,0,0,0,11,1,REAL,FAKE,,,,,,,,,,,,,,,,,,,,,
,,,,,,,5f40de3e899a9b2155b6eabf,6057c54e64b0b4e5c128b4f9,60590a94d85cc79a71fa207b,United States,Northeast,13 or older,no,2021-03-22_17h27.39.078,empathy_intonation_perc,2020.2.10,Win32,60,,,,,,,,,,1,,,,,,,,,,,,,,,,,,,,,,,,,,,,,,,,,,,,,,,,65,bizcocho,,,0,0,2.007215,0,1,1,64,1,REAL,FAKE,,,,,,,,,,,,,,,,,,,,,
,,,,,,,5f40de3e899a9b2155b6eabf,6057c54e64b0b4e5c128b4f9,60590a94d85cc79a71fa207b,United States,Northeast,13 or older,no,2021-03-22_17h27.39.078,empathy_intonation_perc,2020.2.10,Win32,60,,,,,,,,,,1,,,,,,,,,,,,,,,,,,,,,,,,,,,,,,,,,,,,,,,,24,ltigo,,,1,1,2.821935,0,2,2,23,1,REAL,FAKE,,,,,,,,,,,,,,,,,,,,,
,,,,,,,5f40de3e899a9b2155b6eabf,6057c54e64b0b4e5c128b4f9,60590a94d85cc79a71fa207b,United States,Northeast,13 or older,no,2021-03-22_17h27.39.078,empathy_intonation_perc,2020.2.10,Win32,60,,,,,,,,,,0,,,,,,,,,,,,,,,,,,,,,,,,,,,,,,,,,,,,,,,,50,flamida,,,0,1,1.488425,0,3,3,49,1,REAL,FAKE,,,,,,,,,,,,,,,,,,,,,
,,,,,,,5f40de3e899a9b2155b6eabf,6057c54e64b0b4e5c128b4f9,60590a94d85cc79a71fa207b,United States,Northeast,13 or older,no,2021-03-22_17h27.39.078,empathy_intonation_perc,2020.2.10,Win32,60,,,,,,,,,,1,,,,,,,,,,,,,,,,,,,,,,,,,,,,,,,,,,,,,,,,83,guante,,,1,1,1.47508,0,4,4,82,1,REAL,FAKE,,,,,,,,,,,,,,,,,,,,,
,,,,,,,5f40de3e899a9b2155b6eabf,6057c54e64b0b4e5c128b4f9,60590a94d85cc79a71fa207b,United States,Northeast,13 or older,no,2021-03-22_17h27.39.078,empathy_intonation_perc,2020.2.10,Win32,60,,,,,,,,,,1,,,,,,,,,,,,,,,,,,,,,,,,,,,,,,,,,,,,,,,,25,bisagra,,,1,1,1.540935,0,5,5,24,1,REAL,FAKE,,,,,,,,,,,,,,,,,,,,,
,,,,,,,5f40de3e899a9b2155b6eabf,6057c54e64b0b4e5c128b4f9,60590a94d85cc79a71fa207b,United States,Northeast,13 or older,no,2021-03-22_17h27.39.078,empathy_intonation_perc,2020.2.10,Win32,60,,,,,,,,,,1,,,,,,,,,,,,,,,,,,,,,,,,,,,,,,,,,,,,,,,,67,cabello,,,0,0,2.532195,0,6,6,66,1,REAL,FAKE,,,,,,,,,,,,,,,,,,,,,
,,,,,,,5f40de3e899a9b2155b6eabf,6057c54e64b0b4e5c128b4f9,60590a94d85cc79a71fa207b,United States,Northeast,13 or older,no,2021-03-22_17h27.39.078,empathy_intonation_perc,2020.2.10,Win32,60,,,,,,,,,,0,,,,,,,,,,,,,,,,,,,,,,,,,,,,,,,,,,,,,,,,63,esposante,,,1,0,2.03632,0,7,7,62,1,REAL,FAKE,,,,,,,,,,,,,,,,,,,,,
,,,,,,,5f40de3e899a9b2155b6eabf,6057c54e64b0b4e5c128b4f9,60590a94d85cc79a71fa207b,United States,Northeast,13 or older,no,2021-03-22_17h27.39.078,empathy_intonation_perc,2020.2.10,Win32,60,,,,,,,,,,1,,,,,,,,,,,,,,,,,,,,,,,,,,,,,,,,,,,,,,,,68,alegre,,,1,1,2.477715,0,8,8,67,1,REAL,FAKE,,,,,,,,,,,,,,,,,,,,,
,,,,,,,5f40de3e899a9b2155b6eabf,6057c54e64b0b4e5c128b4f9,60590a94d85cc79a71fa207b,United States,Northeast,13 or older,no,2021-03-22_17h27.39.078,empathy_intonation_perc,2020.2.10,Win32,60,,,,,,,,,,1,,,,,,,,,,,,,,,,,,,,,,,,,,,,,,,,,,,,,,,,31,pandilla,,,0,0,1.976155,0,9,9,30,1,REAL,FAKE,,,,,,,,,,,,,,,,,,,,,
,,,,,,,5f40de3e899a9b2155b6eabf,6057c54e64b0b4e5c128b4f9,60590a94d85cc79a71fa207b,United States,Northeast,13 or older,no,2021-03-22_17h27.39.078,empathy_intonation_perc,2020.2.10,Win32,60,,,,,,,,,,0,,,,,,,,,,,,,,,,,,,,,,,,,,,,,,,,,,,,,,,,58,plaudir,,,0,1,1.550855,0,10,10,57,1,REAL,FAKE,,,,,,,,,,,,,,,,,,,,,
,,,,,,,5f40de3e899a9b2155b6eabf,6057c54e64b0b4e5c128b4f9,60590a94d85cc79a71fa207b,United States,Northeast,13 or older,no,2021-03-22_17h27.39.078,empathy_intonation_perc,2020.2.10,Win32,60,,,,,,,,,,0,,,,,,,,,,,,,,,,,,,,,,,,,,,,,,,,,,,,,,,,33,pauca,,,1,0,1.235105,0,11,11,32,1,REAL,FAKE,,,,,,,,,,,,,,,,,,,,,
,,,,,,,5f40de3e899a9b2155b6eabf,6057c54e64b0b4e5c128b4f9,60590a94d85cc79a71fa207b,United States,Northeast,13 or older,no,2021-03-22_17h27.39.078,empathy_intonation_perc,2020.2.10,Win32,60,,,,,,,,,,1,,,,,,,,,,,,,,,,,,,,,,,,,,,,,,,,,,,,,,,,85,lad,,,1,1,1.44158,0,12,12,84,1,REAL,FAKE,,,,,,,,,,,,,,,,,,,,,
,,,,,,,5f40de3e899a9b2155b6eabf,6057c54e64b0b4e5c128b4f9,60590a94d85cc79a71fa207b,United States,Northeast,13 or older,no,2021-03-22_17h27.39.078,empathy_intonation_perc,2020.2.10,Win32,60,,,,,,,,,,1,,,,,,,,,,,,,,,,,,,,,,,,,,,,,,,,,,,,,,,,46,martillo,,,1,1,1.177175,0,13,13,45,1,REAL,FAKE,,,,,,,,,,,,,,,,,,,,,
,,,,,,,5f40de3e899a9b2155b6eabf,6057c54e64b0b4e5c128b4f9,60590a94d85cc79a71fa207b,United States,Northeast,13 or older,no,2021-03-22_17h27.39.078,empathy_intonation_perc,2020.2.10,Win32,60,,,,,,,,,,1,,,,,,,,,,,,,,,,,,,,,,,,,,,,,,,,,,,,,,,,15,regar,,,0,0,0.844785,0,14,14,14,1,REAL,FAKE,,,,,,,,,,,,,,,,,,,,,
,,,,,,,5f40de3e899a9b2155b6eabf,6057c54e64b0b4e5c128b4f9,60590a94d85cc79a71fa207b,United States,Northeast,13 or older,no,2021-03-22_17h27.39.078,empathy_intonation_perc,2020.2.10,Win32,60,,,,,,,,,,0,,,,,,,,,,,,,,,,,,,,,,,,,,,,,,,,,,,,,,,,74,cintro,,,1,0,2.30646,0,15,15,73,1,REAL,FAKE,,,,,,,,,,,,,,,,,,,,,
,,,,,,,5f40de3e899a9b2155b6eabf,6057c54e64b0b4e5c128b4f9,60590a94d85cc79a71fa207b,United States,Northeast,13 or older,no,2021-03-22_17h27.39.078,empathy_intonation_perc,2020.2.10,Win32,60,,,,,,,,,,0,,,,,,,,,,,,,,,,,,,,,,,,,,,,,,,,,,,,,,,,17,floroso,,,0,1,2.76092,0,16,16,16,1,REAL,FAKE,,,,,,,,,,,,,,,,,,,,,
,,,,,,,5f40de3e899a9b2155b6eabf,6057c54e64b0b4e5c128b4f9,60590a94d85cc79a71fa207b,United States,Northeast,13 or older,no,2021-03-22_17h27.39.078,empathy_intonation_perc,2020.2.10,Win32,60,,,,,,,,,,1,,,,,,,,,,,,,,,,,,,,,,,,,,,,,,,,,,,,,,,,57,tacao,,,1,1,1.992945,0,17,17,56,1,REAL,FAKE,,,,,,,,,,,,,,,,,,,,,
,,,,,,,5f40de3e899a9b2155b6eabf,6057c54e64b0b4e5c128b4f9,60590a94d85cc79a71fa207b,United States,Northeast,13 or older,no,2021-03-22_17h27.39.078,empathy_intonation_perc,2020.2.10,Win32,60,,,,,,,,,,0,,,,,,,,,,,,,,,,,,,,,,,,,,,,,,,,,,,,,,,,32,fatacidad,,,1,0,2.2472,0,18,18,31,1,REAL,FAKE,,,,,,,,,,,,,,,,,,,,,
,,,,,,,5f40de3e899a9b2155b6eabf,6057c54e64b0b4e5c128b4f9,60590a94d85cc79a71fa207b,United States,Northeast,13 or older,no,2021-03-22_17h27.39.078,empathy_intonation_perc,2020.2.10,Win32,60,,,,,,,,,,1,,,,,,,,,,,,,,,,,,,,,,,,,,,,,,,,,,,,,,,,64,orgulloso,,,0,0,1.53501,0,19,19,63,1,REAL,FAKE,,,,,,,,,,,,,,,,,,,,,
,,,,,,,5f40de3e899a9b2155b6eabf,6057c54e64b0b4e5c128b4f9,60590a94d85cc79a71fa207b,United States,Northeast,13 or older,no,2021-03-22_17h27.39.078,empathy_intonation_perc,2020.2.10,Win32,60,,,,,,,,,,1,,,,,,,,,,,,,,,,,,,,,,,,,,,,,,,,,,,,,,,,86,barato,,,1,1,1.83198,0,20,20,85,1,REAL,FAKE,,,,,,,,,,,,,,,,,,,,,
,,,,,,,5f40de3e899a9b2155b6eabf,6057c54e64b0b4e5c128b4f9,60590a94d85cc79a71fa207b,United States,Northeast,13 or older,no,2021-03-22_17h27.39.078,empathy_intonation_perc,2020.2.10,Win32,60,,,,,,,,,,1,,,,,,,,,,,,,,,,,,,,,,,,,,,,,,,,,,,,,,,,71,polvoriento,,,1,1,4.23248,0,21,21,70,1,REAL,FAKE,,,,,,,,,,,,,,,,,,,,,
,,,,,,,5f40de3e899a9b2155b6eabf,6057c54e64b0b4e5c128b4f9,60590a94d85cc79a71fa207b,United States,Northeast,13 or older,no,2021-03-22_17h27.39.078,empathy_intonation_perc,2020.2.10,Win32,60,,,,,,,,,,1,,,,,,,,,,,,,,,,,,,,,,,,,,,,,,,,,,,,,,,,80,hormiga,,,0,0,2.05842,0,22,22,79,1,REAL,FAKE,,,,,,,,,,,,,,,,,,,,,
,,,,,,,5f40de3e899a9b2155b6eabf,6057c54e64b0b4e5c128b4f9,60590a94d85cc79a71fa207b,United States,Northeast,13 or older,no,2021-03-22_17h27.39.078,empathy_intonation_perc,2020.2.10,Win32,60,,,,,,,,,,1,,,,,,,,,,,,,,,,,,,,,,,,,,,,,,,,,,,,,,,,26,secuestro,,,0,0,2.40125,0,23,23,25,1,REAL,FAKE,,,,,,,,,,,,,,,,,,,,,
,,,,,,,5f40de3e899a9b2155b6eabf,6057c54e64b0b4e5c128b4f9,60590a94d85cc79a71fa207b,United States,Northeast,13 or older,no,2021-03-22_17h27.39.078,empathy_intonation_perc,2020.2.10,Win32,60,,,,,,,,,,1,,,,,,,,,,,,,,,,,,,,,,,,,,,,,,,,,,,,,,,,77,tiburn,,,1,1,7.24345,0,24,24,76,1,REAL,FAKE,,,,,,,,,,,,,,,,,,,,,
,,,,,,,5f40de3e899a9b2155b6eabf,6057c54e64b0b4e5c128b4f9,60590a94d85cc79a71fa207b,United States,Northeast,13 or older,no,2021-03-22_17h27.39.078,empathy_intonation_perc,2020.2.10,Win32,60,,,,,,,,,,0,,,,,,,,,,,,,,,,,,,,,,,,,,,,,,,,,,,,,,,,72,pemicin,,,1,0,1.94866,0,25,25,71,1,REAL,FAKE,,,,,,,,,,,,,,,,,,,,,
,,,,,,,5f40de3e899a9b2155b6eabf,6057c54e64b0b4e5c128b4f9,60590a94d85cc79a71fa207b,United States,Northeast,13 or older,no,2021-03-22_17h27.39.078,empathy_intonation_perc,2020.2.10,Win32,60,,,,,,,,,,1,,,,,,,,,,,,,,,,,,,,,,,,,,,,,,,,,,,,,,,,20,vido,,,1,1,1.2849,0,26,26,19,1,REAL,FAKE,,,,,,,,,,,,,,,,,,,,,
,,,,,,,5f40de3e899a9b2155b6eabf,6057c54e64b0b4e5c128b4f9,60590a94d85cc79a71fa207b,United States,Northeast,13 or older,no,2021-03-22_17h27.39.078,empathy_intonation_perc,2020.2.10,Win32,60,,,,,,,,,,0,,,,,,,,,,,,,,,,,,,,,,,,,,,,,,,,,,,,,,,,27,acutacin,,,0,1,3.35477,0,27,27,26,1,REAL,FAKE,,,,,,,,,,,,,,,,,,,,,
,,,,,,,5f40de3e899a9b2155b6eabf,6057c54e64b0b4e5c128b4f9,60590a94d85cc79a71fa207b,United States,Northeast,13 or older,no,2021-03-22_17h27.39.078,empathy_intonation_perc,2020.2.10,Win32,60,,,,,,,,,,0,,,,,,,,,,,,,,,,,,,,,,,,,,,,,,,,,,,,,,,,23,lampera,,,0,1,3.232485,0,28,28,22,1,REAL,FAKE,,,,,,,,,,,,,,,,,,,,,
,,,,,,,5f40de3e899a9b2155b6eabf,6057c54e64b0b4e5c128b4f9,60590a94d85cc79a71fa207b,United States,Northeast,13 or older,no,2021-03-22_17h27.39.078,empathy_intonation_perc,2020.2.10,Win32,60,,,,,,,,,,1,,,,,,,,,,,,,,,,,,,,,,,,,,,,,,,,,,,,,,,,62,flaco,,,1,1,1.041665,0,29,29,61,1,REAL,FAKE,,,,,,,,,,,,,,,,,,,,,
,,,,,,,5f40de3e899a9b2155b6eabf,6057c54e64b0b4e5c128b4f9,60590a94d85cc79a71fa207b,United States,Northeast,13 or older,no,2021-03-22_17h27.39.078,empathy_intonation_perc,2020.2.10,Win32,60,,,,,,,,,,1,,,,,,,,,,,,,,,,,,,,,,,,,,,,,,,,,,,,,,,,2,pellizcar,,,1,1,2.20898,0,30,30,1,1,REAL,FAKE,,,,,,,,,,,,,,,,,,,,,
,,,,,,,5f40de3e899a9b2155b6eabf,6057c54e64b0b4e5c128b4f9,60590a94d85cc79a71fa207b,United States,Northeast,13 or older,no,2021-03-22_17h27.39.078,empathy_intonation_perc,2020.2.10,Win32,60,,,,,,,,,,1,,,,,,,,,,,,,,,,,,,,,,,,,,,,,,,,,,,,,,,,54,fomentar,,,0,0,1.681695,0,31,31,53,1,REAL,FAKE,,,,,,,,,,,,,,,,,,,,,
,,,,,,,5f40de3e899a9b2155b6eabf,6057c54e64b0b4e5c128b4f9,60590a94d85cc79a71fa207b,United States,Northeast,13 or older,no,2021-03-22_17h27.39.078,empathy_intonation_perc,2020.2.10,Win32,60,,,,,,,,,,0,,,,,,,,,,,,,,,,,,,,,,,,,,,,,,,,,,,,,,,,18,arsa,,,0,1,1.16685,0,32,32,17,1,REAL,FAKE,,,,,,,,,,,,,,,,,,,,,
,,,,,,,5f40de3e899a9b2155b6eabf,6057c54e64b0b4e5c128b4f9,60590a94d85cc79a71fa207b,United States,Northeast,13 or older,no,2021-03-22_17h27.39.078,empathy_intonation_perc,2020.2.10,Win32,60,,,,,,,,,,1,,,,,,,,,,,,,,,,,,,,,,,,,,,,,,,,,,,,,,,,7,psimo,,,0,0,3.475965,0,33,33,6,1,REAL,FAKE,,,,,,,,,,,,,,,,,,,,,
,,,,,,,5f40de3e899a9b2155b6eabf,6057c54e64b0b4e5c128b4f9,60590a94d85cc79a71fa207b,United States,Northeast,13 or older,no,2021-03-22_17h27.39.078,empathy_intonation_perc,2020.2.10,Win32,60,,,,,,,,,,0,,,,,,,,,,,,,,,,,,,,,,,,,,,,,,,,,,,,,,,,70,temblo,,,0,1,1.26241,0,34,34,69,1,REAL,FAKE,,,,,,,,,,,,,,,,,,,,,
,,,,,,,5f40de3e899a9b2155b6eabf,6057c54e64b0b4e5c128b4f9,60590a94d85cc79a71fa207b,United States,Northeast,13 or older,no,2021-03-22_17h27.39.078,empathy_intonation_perc,2020.2.10,Win32,60,,,,,,,,,,1,,,,,,,,,,,,,,,,,,,,,,,,,,,,,,,,,,,,,,,,56,musgo,,,0,0,1.704735,0,35,35,55,1,REAL,FAKE,,,,,,,,,,,,,,,,,,,,,
,,,,,,,5f40de3e899a9b2155b6eabf,6057c54e64b0b4e5c128b4f9,60590a94d85cc79a71fa207b,United States,Northeast,13 or older,no,2021-03-22_17h27.39.078,empathy_intonation_perc,2020.2.10,Win32,60,,,,,,,,,,1,,,,,,,,,,,,,,,,,,,,,,,,,,,,,,,,,,,,,,,,90,clavel,,,1,1,0.9932,0,36,36,89,1,REAL,FAKE,,,,,,,,,,,,,,,,,,,,,
,,,,,,,5f40de3e899a9b2155b6eabf,6057c54e64b0b4e5c128b4f9,60590a94d85cc79a71fa207b,United States,Northeast,13 or older,no,2021-03-22_17h27.39.078,empathy_intonation_perc,2020.2.10,Win32,60,,,,,,,,,,1,,,,,,,,,,,,,,,,,,,,,,,,,,,,,,,,,,,,,,,,6,tergiversar,,,0,0,1.71407,0,37,37,5,1,REAL,FAKE,,,,,,,,,,,,,,,,,,,,,
,,,,,,,5f40de3e899a9b2155b6eabf,6057c54e64b0b4e5c128b4f9,60590a94d85cc79a71fa207b,United States,Northeast,13 or older,no,2021-03-22_17h27.39.078,empathy_intonation_perc,2020.2.10,Win32,60,,,,,,,,,,1,,,,,,,,,,,,,,,,,,,,,,,,,,,,,,,,,,,,,,,,28,merodear,,,0,0,2.163095,0,38,38,27,1,REAL,FAKE,,,,,,,,,,,,,,,,,,,,,
,,,,,,,5f40de3e899a9b2155b6eabf,6057c54e64b0b4e5c128b4f9,60590a94d85cc79a71fa207b,United States,Northeast,13 or older,no,2021-03-22_17h27.39.078,empathy_intonation_perc,2020.2.10,Win32,60,,,,,,,,,,1,,,,,,,,,,,,,,,,,,,,,,,,,,,,,,,,,,,,,,,,40,alfombra,,,0,0,2.0094,0,39,39,39,1,REAL,FAKE,,,,,,,,,,,,,,,,,,,,,
,,,,,,,5f40de3e899a9b2155b6eabf,6057c54e64b0b4e5c128b4f9,60590a94d85cc79a71fa207b,United States,Northeast,13 or older,no,2021-03-22_17h27.39.078,empathy_intonation_perc,2020.2.10,Win32,60,,,,,,,,,,1,,,,,,,,,,,,,,,,,,,,,,,,,,,,,,,,,,,,,,,,78,frondoso,,,1,1,1.069755,0,40,40,77,1,REAL,FAKE,,,,,,,,,,,,,,,,,,,,,
,,,,,,,5f40de3e899a9b2155b6eabf,6057c54e64b0b4e5c128b4f9,60590a94d85cc79a71fa207b,United States,Northeast,13 or older,no,2021-03-22_17h27.39.078,empathy_intonation_perc,2020.2.10,Win32,60,,,,,,,,,,0,,,,,,,,,,,,,,,,,,,,,,,,,,,,,,,,,,,,,,,,66,hacido,,,1,0,1.100295,0,41,41,65,1,REAL,FAKE,,,,,,,,,,,,,,,,,,,,,
,,,,,,,5f40de3e899a9b2155b6eabf,6057c54e64b0b4e5c128b4f9,60590a94d85cc79a71fa207b,United States,Northeast,13 or older,no,2021-03-22_17h27.39.078,empathy_intonation_perc,2020.2.10,Win32,60,,,,,,,,,,0,,,,,,,,,,,,,,,,,,,,,,,,,,,,,,,,,,,,,,,,29,decar,,,1,0,1.499495,0,42,42,28,1,REAL,FAKE,,,,,,,,,,,,,,,,,,,,,
,,,,,,,5f40de3e899a9b2155b6eabf,6057c54e64b0b4e5c128b4f9,60590a94d85cc79a71fa207b,United States,Northeast,13 or older,no,2021-03-22_17h27.39.078,empathy_intonation_perc,2020.2.10,Win32,60,,,,,,,,,,1,,,,,,,,,,,,,,,,,,,,,,,,,,,,,,,,,,,,,,,,39,torpe,,,0,0,3.707175,0,43,43,38,1,REAL,FAKE,,,,,,,,,,,,,,,,,,,,,
,,,,,,,5f40de3e899a9b2155b6eabf,6057c54e64b0b4e5c128b4f9,60590a94d85cc79a71fa207b,United States,Northeast,13 or older,no,2021-03-22_17h27.39.078,empathy_intonation_perc,2020.2.10,Win32,60,,,,,,,,,,0,,,,,,,,,,,,,,,,,,,,,,,,,,,,,,,,,,,,,,,,87,grodo,,,0,1,2.07271,0,44,44,86,1,REAL,FAKE,,,,,,,,,,,,,,,,,,,,,
,,,,,,,5f40de3e899a9b2155b6eabf,6057c54e64b0b4e5c128b4f9,60590a94d85cc79a71fa207b,United States,Northeast,13 or older,no,2021-03-22_17h27.39.078,empathy_intonation_perc,2020.2.10,Win32,60,,,,,,,,,,1,,,,,,,,,,,,,,,,,,,,,,,,,,,,,,,,,,,,,,,,14,yunque,,,0,0,1.767775,0,45,45,13,1,REAL,FAKE,,,,,,,,,,,,,,,,,,,,,
,,,,,,,5f40de3e899a9b2155b6eabf,6057c54e64b0b4e5c128b4f9,60590a94d85cc79a71fa207b,United States,Northeast,13 or older,no,2021-03-22_17h27.39.078,empathy_intonation_perc,2020.2.10,Win32,60,,,,,,,,,,0,,,,,,,,,,,,,,,,,,,,,,,,,,,,,,,,,,,,,,,,21,capillo,,,1,0,1.168435,0,46,46,20,1,REAL,FAKE,,,,,,,,,,,,,,,,,,,,,
,,,,,,,5f40de3e899a9b2155b6eabf,6057c54e64b0b4e5c128b4f9,60590a94d85cc79a71fa207b,United States,Northeast,13 or older,no,2021-03-22_17h27.39.078,empathy_intonation_perc,2020.2.10,Win32,60,,,,,,,,,,1,,,,,,,,,,,,,,,,,,,,,,,,,,,,,,,,,,,,,,,,5,zapato,,,1,1,0.92695,0,47,47,4,1,REAL,FAKE,,,,,,,,,,,,,,,,,,,,,
,,,,,,,5f40de3e899a9b2155b6eabf,6057c54e64b0b4e5c128b4f9,60590a94d85cc79a71fa207b,United States,Northeast,13 or older,no,2021-03-22_17h27.39.078,empathy_intonation_perc,2020.2.10,Win32,60,,,,,,,,,,0,,,,,,,,,,,,,,,,,,,,,,,,,,,,,,,,,,,,,,,,79,tropaje,,,1,0,1.32683,0,48,48,78,1,REAL,FAKE,,,,,,,,,,,,,,,,,,,,,
,,,,,,,5f40de3e899a9b2155b6eabf,6057c54e64b0b4e5c128b4f9,60590a94d85cc79a71fa207b,United States,Northeast,13 or older,no,2021-03-22_17h27.39.078,empathy_intonation_perc,2020.2.10,Win32,60,,,,,,,,,,1,,,,,,,,,,,,,,,,,,,,,,,,,,,,,,,,,,,,,,,,22,lacayo,,,0,0,0.792965,0,49,49,21,1,REAL,FAKE,,,,,,,,,,,,,,,,,,,,,
,,,,,,,5f40de3e899a9b2155b6eabf,6057c54e64b0b4e5c128b4f9,60590a94d85cc79a71fa207b,United States,Northeast,13 or older,no,2021-03-22_17h27.39.078,empathy_intonation_perc,2020.2.10,Win32,60,,,,,,,,,,1,,,,,,,,,,,,,,,,,,,,,,,,,,,,,,,,,,,,,,,,9,hacha,,,0,0,2.6438,0,50,50,8,1,REAL,FAKE,,,,,,,,,,,,,,,,,,,,,
,,,,,,,5f40de3e899a9b2155b6eabf,6057c54e64b0b4e5c128b4f9,60590a94d85cc79a71fa207b,United States,Northeast,13 or older,no,2021-03-22_17h27.39.078,empathy_intonation_perc,2020.2.10,Win32,60,,,,,,,,,,1,,,,,,,,,,,,,,,,,,,,,,,,,,,,,,,,,,,,,,,,38,estornudar,,,1,1,1.68044,0,51,51,37,1,REAL,FAKE,,,,,,,,,,,,,,,,,,,,,
,,,,,,,5f40de3e899a9b2155b6eabf,6057c54e64b0b4e5c128b4f9,60590a94d85cc79a71fa207b,United States,Northeast,13 or older,no,2021-03-22_17h27.39.078,empathy_intonation_perc,2020.2.10,Win32,60,,,,,,,,,,1,,,,,,,,,,,,,,,,,,,,,,,,,,,,,,,,,,,,,,,,61,seda,,,1,1,0.85185,0,52,52,60,1,REAL,FAKE,,,,,,,,,,,,,,,,,,,,,
,,,,,,,5f40de3e899a9b2155b6eabf,6057c54e64b0b4e5c128b4f9,60590a94d85cc79a71fa207b,United States,Northeast,13 or older,no,2021-03-22_17h27.39.078,empathy_intonation_perc,2020.2.10,Win32,60,,,,,,,,,,1,,,,,,,,,,,,,,,,,,,,,,,,,,,,,,,,,,,,,,,,43,canela,,,0,0,0.94261,0,53,53,42,1,REAL,FAKE,,,,,,,,,,,,,,,,,,,,,
,,,,,,,5f40de3e899a9b2155b6eabf,6057c54e64b0b4e5c128b4f9,60590a94d85cc79a71fa207b,United States,Northeast,13 or older,no,2021-03-22_17h27.39.078,empathy_intonation_perc,2020.2.10,Win32,60,,,,,,,,,,1,,,,,,,,,,,,,,,,,,,,,,,,,,,,,,,,,,,,,,,,13,helar,,,1,1,0.67836,0,54,54,12,1,REAL,FAKE,,,,,,,,,,,,,,,,,,,,,
,,,,,,,5f40de3e899a9b2155b6eabf,6057c54e64b0b4e5c128b4f9,60590a94d85cc79a71fa207b,United States,Northeast,13 or older,no,2021-03-22_17h27.39.078,empathy_intonation_perc,2020.2.10,Win32,60,,,,,,,,,,1,,,,,,,,,,,,,,,,,,,,,,,,,,,,,,,,,,,,,,,,59,besar,,,1,1,1.689955,0,55,55,58,1,REAL,FAKE,,,,,,,,,,,,,,,,,,,,,
,,,,,,,5f40de3e899a9b2155b6eabf,6057c54e64b0b4e5c128b4f9,60590a94d85cc79a71fa207b,United States,Northeast,13 or older,no,2021-03-22_17h27.39.078,empathy_intonation_perc,2020.2.10,Win32,60,,,,,,,,,,1,,,,,,,,,,,,,,,,,,,,,,,,,,,,,,,,,,,,,,,,51,candado,,,1,1,1.54249,0,56,56,50,1,REAL,FAKE,,,,,,,,,,,,,,,,,,,,,
,,,,,,,5f40de3e899a9b2155b6eabf,6057c54e64b0b4e5c128b4f9,60590a94d85cc79a71fa207b,United States,Northeast,13 or older,no,2021-03-22_17h27.39.078,empathy_intonation_perc,2020.2.10,Win32,60,,,,,,,,,,0,,,,,,,,,,,,,,,,,,,,,,,,,,,,,,,,,,,,,,,,47,cartinar,,,0,1,1.59473,0,57,57,46,1,REAL,FAKE,,,,,,,,,,,,,,,,,,,,,
,,,,,,,5f40de3e899a9b2155b6eabf,6057c54e64b0b4e5c128b4f9,60590a94d85cc79a71fa207b,United States,Northeast,13 or older,no,2021-03-22_17h27.39.078,empathy_intonation_perc,2020.2.10,Win32,60,,,,,,,,,,1,,,,,,,,,,,,,,,,,,,,,,,,,,,,,,,,,,,,,,,,76,atar,,,1,1,1.251705,0,58,58,75,1,REAL,FAKE,,,,,,,,,,,,,,,,,,,,,
,,,,,,,5f40de3e899a9b2155b6eabf,6057c54e64b0b4e5c128b4f9,60590a94d85cc79a71fa207b,United States,Northeast,13 or older,no,2021-03-22_17h27.39.078,empathy_intonation_perc,2020.2.10,Win32,60,,,,,,,,,,0,,,,,,,,,,,,,,,,,,,,,,,,,,,,,,,,,,,,,,,,30,alardio,,,0,1,2.531315,0,59,59,29,1,REAL,FAKE,,,,,,,,,,,,,,,,,,,,,
,,,,,,,5f40de3e899a9b2155b6eabf,6057c54e64b0b4e5c128b4f9,60590a94d85cc79a71fa207b,United States,Northeast,13 or older,no,2021-03-22_17h27.39.078,empathy_intonation_perc,2020.2.10,Win32,60,,,,,,,,,,0,,,,,,,,,,,,,,,,,,,,,,,,,,,,,,,,,,,,,,,,35,rompido,,,1,0,1.04666,0,60,60,34,1,REAL,FAKE,,,,,,,,,,,,,,,,,,,,,
,,,,,,,5f40de3e899a9b2155b6eabf,6057c54e64b0b4e5c128b4f9,60590a94d85cc79a71fa207b,United States,Northeast,13 or older,no,2021-03-22_17h27.39.078,empathy_intonation_perc,2020.2.10,Win32,60,,,,,,,,,,1,,,,,,,,,,,,,,,,,,,,,,,,,,,,,,,,,,,,,,,,55,nevar,,,0,0,1.158105,0,61,61,54,1,REAL,FAKE,,,,,,,,,,,,,,,,,,,,,
,,,,,,,5f40de3e899a9b2155b6eabf,6057c54e64b0b4e5c128b4f9,60590a94d85cc79a71fa207b,United States,Northeast,13 or older,no,2021-03-22_17h27.39.078,empathy_intonation_perc,2020.2.10,Win32,60,,,,,,,,,,1,,,,,,,,,,,,,,,,,,,,,,,,,,,,,,,,,,,,,,,,49,ganar,,,1,1,0.964135,0,62,62,48,1,REAL,FAKE,,,,,,,,,,,,,,,,,,,,,
,,,,,,,5f40de3e899a9b2155b6eabf,6057c54e64b0b4e5c128b4f9,60590a94d85cc79a71fa207b,United States,Northeast,13 or older,no,2021-03-22_17h27.39.078,empathy_intonation_perc,2020.2.10,Win32,60,,,,,,,,,,1,,,,,,,,,,,,,,,,,,,,,,,,,,,,,,,,,,,,,,,,75,yacer,,,0,0,0.68106,0,63,63,74,1,REAL,FAKE,,,,,,,,,,,,,,,,,,,,,
,,,,,,,5f40de3e899a9b2155b6eabf,6057c54e64b0b4e5c128b4f9,60590a94d85cc79a71fa207b,United States,Northeast,13 or older,no,2021-03-22_17h27.39.078,empathy_intonation_perc,2020.2.10,Win32,60,,,,,,,,,,0,,,,,,,,,,,,,,,,,,,,,,,,,,,,,,,,,,,,,,,,4,batilln,,,1,0,1.46155,0,64,64,3,1,REAL,FAKE,,,,,,,,,,,,,,,,,,,,,
,,,,,,,5f40de3e899a9b2155b6eabf,6057c54e64b0b4e5c128b4f9,60590a94d85cc79a71fa207b,United States,Northeast,13 or older,no,2021-03-22_17h27.39.078,empathy_intonation_perc,2020.2.10,Win32,60,,,,,,,,,,1,,,,,,,,,,,,,,,,,,,,,,,,,,,,,,,,,,,,,,,,69,engatusar,,,1,1,1.69909,0,65,65,68,1,REAL,FAKE,,,,,,,,,,,,,,,,,,,,,
,,,,,,,5f40de3e899a9b2155b6eabf,6057c54e64b0b4e5c128b4f9,60590a94d85cc79a71fa207b,United States,Northeast,13 or older,no,2021-03-22_17h27.39.078,empathy_intonation_perc,2020.2.10,Win32,60,,,,,,,,,,0,,,,,,,,,,,,,,,,,,,,,,,,,,,,,,,,,,,,,,,,19,brecedad,,,0,1,1.99119,0,66,66,18,1,REAL,FAKE,,,,,,,,,,,,,,,,,,,,,
,,,,,,,5f40de3e899a9b2155b6eabf,6057c54e64b0b4e5c128b4f9,60590a94d85cc79a71fa207b,United States,Northeast,13 or older,no,2021-03-22_17h27.39.078,empathy_intonation_perc,2020.2.10,Win32,60,,,,,,,,,,1,,,,,,,,,,,,,,,,,,,,,,,,,,,,,,,,,,,,,,,,89,prisa,,,1,1,0.73019,0,67,67,88,1,REAL,FAKE,,,,,,,,,,,,,,,,,,,,,
,,,,,,,5f40de3e899a9b2155b6eabf,6057c54e64b0b4e5c128b4f9,60590a94d85cc79a71fa207b,United States,Northeast,13 or older,no,2021-03-22_17h27.39.078,empathy_intonation_perc,2020.2.10,Win32,60,,,,,,,,,,1,,,,,,,,,,,,,,,,,,,,,,,,,,,,,,,,,,,,,,,,81,pozo,,,1,1,1.545215,0,68,68,80,1,REAL,FAKE,,,,,,,,,,,,,,,,,,,,,
,,,,,,,5f40de3e899a9b2155b6eabf,6057c54e64b0b4e5c128b4f9,60590a94d85cc79a71fa207b,United States,Northeast,13 or older,no,2021-03-22_17h27.39.078,empathy_intonation_perc,2020.2.10,Win32,60,,,,,,,,,,1,,,,,,,,,,,,,,,,,,,,,,,,,,,,,,,,,,,,,,,,52,camisa,,,0,0,2.5169,0,69,69,51,1,REAL,FAKE,,,,,,,,,,,,,,,,,,,,,
,,,,,,,5f40de3e899a9b2155b6eabf,6057c54e64b0b4e5c128b4f9,60590a94d85cc79a71fa207b,United States,Northeast,13 or older,no,2021-03-22_17h27.39.078,empathy_intonation_perc,2020.2.10,Win32,60,,,,,,,,,,0,,,,,,,,,,,,,,,,,,,,,,,,,,,,,,,,,,,,,,,,84,escuto,,,0,1,1.25125,0,70,70,83,1,REAL,FAKE,,,,,,,,,,,,,,,,,,,,,
,,,,,,,5f40de3e899a9b2155b6eabf,6057c54e64b0b4e5c128b4f9,60590a94d85cc79a71fa207b,United States,Northeast,13 or older,no,2021-03-22_17h27.39.078,empathy_intonation_perc,2020.2.10,Win32,60,,,,,,,,,,1,,,,,,,,,,,,,,,,,,,,,,,,,,,,,,,,,,,,,,,,88,acantilado,,,1,1,2.08453,0,71,71,87,1,REAL,FAKE,,,,,,,,,,,,,,,,,,,,,
,,,,,,,5f40de3e899a9b2155b6eabf,6057c54e64b0b4e5c128b4f9,60590a94d85cc79a71fa207b,United States,Northeast,13 or older,no,2021-03-22_17h27.39.078,empathy_intonation_perc,2020.2.10,Win32,60,,,,,,,,,,1,,,,,,,,,,,,,,,,,,,,,,,,,,,,,,,,,,,,,,,,44,cuchara,,,1,1,1.82583,0,72,72,43,1,REAL,FAKE,,,,,,,,,,,,,,,,,,,,,
,,,,,,,5f40de3e899a9b2155b6eabf,6057c54e64b0b4e5c128b4f9,60590a94d85cc79a71fa207b,United States,Northeast,13 or older,no,2021-03-22_17h27.39.078,empathy_intonation_perc,2020.2.10,Win32,60,,,,,,,,,,1,,,,,,,,,,,,,,,,,,,,,,,,,,,,,,,,,,,,,,,,73,hervidor,,,1,1,1.4342,0,73,73,72,1,REAL,FAKE,,,,,,,,,,,,,,,,,,,,,
,,,,,,,5f40de3e899a9b2155b6eabf,6057c54e64b0b4e5c128b4f9,60590a94d85cc79a71fa207b,United States,Northeast,13 or older,no,2021-03-22_17h27.39.078,empathy_intonation_perc,2020.2.10,Win32,60,,,,,,,,,,1,,,,,,,,,,,,,,,,,,,,,,,,,,,,,,,,,,,,,,,,11,cenefa,,,1,1,0.50439,0,74,74,10,1,REAL,FAKE,,,,,,,,,,,,,,,,,,,,,
,,,,,,,5f40de3e899a9b2155b6eabf,6057c54e64b0b4e5c128b4f9,60590a94d85cc79a71fa207b,United States,Northeast,13 or older,no,2021-03-22_17h27.39.078,empathy_intonation_perc,2020.2.10,Win32,60,,,,,,,,,,1,,,,,,,,,,,,,,,,,,,,,,,,,,,,,,,,,,,,,,,,37,granuja,,,1,1,0.96899,0,75,75,36,1,REAL,FAKE,,,,,,,,,,,,,,,,,,,,,
,,,,,,,5f40de3e899a9b2155b6eabf,6057c54e64b0b4e5c128b4f9,60590a94d85cc79a71fa207b,United States,Northeast,13 or older,no,2021-03-22_17h27.39.078,empathy_intonation_perc,2020.2.10,Win32,60,,,,,,,,,,1,,,,,,,,,,,,,,,,,,,,,,,,,,,,,,,,,,,,,,,,34,aviso,,,1,1,4.90819,0,76,76,33,1,REAL,FAKE,,,,,,,,,,,,,,,,,,,,,
,,,,,,,5f40de3e899a9b2155b6eabf,6057c54e64b0b4e5c128b4f9,60590a94d85cc79a71fa207b,United States,Northeast,13 or older,no,2021-03-22_17h27.39.078,empathy_intonation_perc,2020.2.10,Win32,60,,,,,,,,,,1,,,,,,,,,,,,,,,,,,,,,,,,,,,,,,,,,,,,,,,,60,matar,,,0,0,1.493625,0,77,77,59,1,REAL,FAKE,,,,,,,,,,,,,,,,,,,,,
,,,,,,,5f40de3e899a9b2155b6eabf,6057c54e64b0b4e5c128b4f9,60590a94d85cc79a71fa207b,United States,Northeast,13 or older,no,2021-03-22_17h27.39.078,empathy_intonation_perc,2020.2.10,Win32,60,,,,,,,,,,0,,,,,,,,,,,,,,,,,,,,,,,,,,,,,,,,,,,,,,,,1,terzo,,,1,0,0.93297,0,78,78,0,1,REAL,FAKE,,,,,,,,,,,,,,,,,,,,,
,,,,,,,5f40de3e899a9b2155b6eabf,6057c54e64b0b4e5c128b4f9,60590a94d85cc79a71fa207b,United States,Northeast,13 or older,no,2021-03-22_17h27.39.078,empathy_intonation_perc,2020.2.10,Win32,60,,,,,,,,,,1,,,,,,,,,,,,,,,,,,,,,,,,,,,,,,,,,,,,,,,,48,ladrn,,,1,1,1.67674,0,79,79,47,1,REAL,FAKE,,,,,,,,,,,,,,,,,,,,,
,,,,,,,5f40de3e899a9b2155b6eabf,6057c54e64b0b4e5c128b4f9,60590a94d85cc79a71fa207b,United States,Northeast,13 or older,no,2021-03-22_17h27.39.078,empathy_intonation_perc,2020.2.10,Win32,60,,,,,,,,,,1,,,,,,,,,,,,,,,,,,,,,,,,,,,,,,,,,,,,,,,,36,loro,,,0,0,1.139845,0,80,80,35,1,REAL,FAKE,,,,,,,,,,,,,,,,,,,,,
,,,,,,,5f40de3e899a9b2155b6eabf,6057c54e64b0b4e5c128b4f9,60590a94d85cc79a71fa207b,United States,Northeast,13 or older,no,2021-03-22_17h27.39.078,empathy_intonation_perc,2020.2.10,Win32,60,,,,,,,,,,1,,,,,,,,,,,,,,,,,,,,,,,,,,,,,,,,,,,,,,,,41,rebuscar,,,1,1,1.635375,0,81,81,40,1,REAL,FAKE,,,,,,,,,,,,,,,,,,,,,
,,,,,,,5f40de3e899a9b2155b6eabf,6057c54e64b0b4e5c128b4f9,60590a94d85cc79a71fa207b,United States,Northeast,13 or older,no,2021-03-22_17h27.39.078,empathy_intonation_perc,2020.2.10,Win32,60,,,,,,,,,,1,,,,,,,,,,,,,,,,,,,,,,,,,,,,,,,,,,,,,,,,45,jilguero,,,0,0,2.39161,0,82,82,44,1,REAL,FAKE,,,,,,,,,,,,,,,,,,,,,
,,,,,,,5f40de3e899a9b2155b6eabf,6057c54e64b0b4e5c128b4f9,60590a94d85cc79a71fa207b,United States,Northeast,13 or older,no,2021-03-22_17h27.39.078,empathy_intonation_perc,2020.2.10,Win32,60,,,,,,,,,,0,,,,,,,,,,,,,,,,,,,,,,,,,,,,,,,,,,,,,,,,82,empirador,,,1,0,1.90942,0,83,83,81,1,REAL,FAKE,,,,,,,,,,,,,,,,,,,,,
,,,,,,,5f40de3e899a9b2155b6eabf,6057c54e64b0b4e5c128b4f9,60590a94d85cc79a71fa207b,United States,Northeast,13 or older,no,2021-03-22_17h27.39.078,empathy_intonation_perc,2020.2.10,Win32,60,,,,,,,,,,0,,,,,,,,,,,,,,,,,,,,,,,,,,,,,,,,,,,,,,,,16,abracer,,,1,0,2.63417,0,84,84,15,1,REAL,FAKE,,,,,,,,,,,,,,,,,,,,,
,,,,,,,5f40de3e899a9b2155b6eabf,6057c54e64b0b4e5c128b4f9,60590a94d85cc79a71fa207b,United States,Northeast,13 or older,no,2021-03-22_17h27.39.078,empathy_intonation_perc,2020.2.10,Win32,60,,,,,,,,,,0,,,,,,,,,,,,,,,,,,,,,,,,,,,,,,,,,,,,,,,,53,vegada,,,0,1,1.27084,0,85,85,52,1,REAL,FAKE,,,,,,,,,,,,,,,,,,,,,
,,,,,,,5f40de3e899a9b2155b6eabf,6057c54e64b0b4e5c128b4f9,60590a94d85cc79a71fa207b,United States,Northeast,13 or older,no,2021-03-22_17h27.39.078,empathy_intonation_perc,2020.2.10,Win32,60,,,,,,,,,,0,,,,,,,,,,,,,,,,,,,,,,,,,,,,,,,,,,,,,,,,10,antar,,,1,0,1.481495,0,86,86,9,1,REAL,FAKE,,,,,,,,,,,,,,,,,,,,,
,,,,,,,5f40de3e899a9b2155b6eabf,6057c54e64b0b4e5c128b4f9,60590a94d85cc79a71fa207b,United States,Northeast,13 or older,no,2021-03-22_17h27.39.078,empathy_intonation_perc,2020.2.10,Win32,60,,,,,,,,,,0,,,,,,,,,,,,,,,,,,,,,,,,,,,,,,,,,,,,,,,,42,cadallo,,,0,1,4.70298,0,87,87,41,1,REAL,FAKE,,,,,,,,,,,,,,,,,,,,,
,,,,,,,5f40de3e899a9b2155b6eabf,6057c54e64b0b4e5c128b4f9,60590a94d85cc79a71fa207b,United States,Northeast,13 or older,no,2021-03-22_17h27.39.078,empathy_intonation_perc,2020.2.10,Win32,60,,,,,,,,,,0,,,,,,,,,,,,,,,,,,,,,,,,,,,,,,,,,,,,,,,,8,cadea,,,0,1,2.649675,0,88,88,7,1,REAL,FAKE,,,,,,,,,,,,,,,,,,,,,
,,,,,,,5f40de3e899a9b2155b6eabf,6057c54e64b0b4e5c128b4f9,60590a94d85cc79a71fa207b,United States,Northeast,13 or older,no,2021-03-22_17h27.39.078,empathy_intonation_perc,2020.2.10,Win32,60,,,,,,,,,,1,,,,,,,,,,,,,,,,,,,,,,,,,,,,,,,,,,,,,,,,3,pulmones,,,0,0,2.11657,0,89,89,2,1,REAL,FAKE,,,,,,,,,,,,,,,,,,,,,
,,,,,,,5f40de3e899a9b2155b6eabf,6057c54e64b0b4e5c128b4f9,60590a94d85cc79a71fa207b,United States,Northeast,13 or older,no,2021-03-22_17h27.39.078,empathy_intonation_perc,2020.2.10,Win32,60,,,,,,,,,,,,,,,,,,,,,,,,,,,,,,,,,,,,,,,,,,,,,,,,,,,,,,,,,,,,,,,,4,1,5.135555,1,0,0,0,0,0,1,,,,,,,,,,,
,,,,,,,5f40de3e899a9b2155b6eabf,6057c54e64b0b4e5c128b4f9,60590a94d85cc79a71fa207b,United States,Northeast,13 or older,no,2021-03-22_17h27.39.078,empathy_intonation_perc,2020.2.10,Win32,60,,,,,,,,,,,,,,,,,,,,1,,,,,,,,,,,,,,,,,,,,,,,,,,,,,,,,,,,,,,,,,,,,,,,,,,,,,,1,0,0,0,0,1,I can easily tell if someone else wants to enter a conversation.,1,0,1,0
,,,,,,,5f40de3e899a9b2155b6eabf,6057c54e64b0b4e5c128b4f9,60590a94d85cc79a71fa207b,United States,Northeast,13 or older,no,2021-03-22_17h27.39.078,empathy_intonation_perc,2020.2.10,Win32,60,,,,,,,,,,,,,,,,,,,,2,,,,,,,,,,,,,,,,,,,,,,,,,,,,,,,,,,,,,,,,,,,,,,,,,,,,,,5,0,1,1,1,1,I prefer animals to humans.,0,1,0,0
,,,,,,,5f40de3e899a9b2155b6eabf,6057c54e64b0b4e5c128b4f9,60590a94d85cc79a71fa207b,United States,Northeast,13 or older,no,2021-03-22_17h27.39.078,empathy_intonation_perc,2020.2.10,Win32,60,,,,,,,,,,,,,,,,,,,,3,,,,,,,,,,,,,,,,,,,,,,,,,,,,,,,,,,,,,,,,,,,,,,,,,,,,,,2,0,2,2,2,1,I try to keep up with the current trends and fashions.,0,1,0,0
,,,,,,,5f40de3e899a9b2155b6eabf,6057c54e64b0b4e5c128b4f9,60590a94d85cc79a71fa207b,United States,Northeast,13 or older,no,2021-03-22_17h27.39.078,empathy_intonation_perc,2020.2.10,Win32,60,,,,,,,,,,,,,,,,,,,,4,,,,,,,,,,,,,,,,,,,,,,,,,,,,,,,,,,,,,,,,,,,,,,,,,,,,,,4,0,3,3,3,1,"I find it difficult to explain to others things that I understand easily, 
  when they dont understand it first time.",1,0,0,1
