instructions_2afc_loop.thisRepN,instructions_2afc_loop.thisTrialN,instructions_2afc_loop.thisN,instructions_2afc_loop.thisIndex,instructions_2afc_loop.ran,instructions_text,continue_text,participant,study_id,session,I am most familiar with Spanish from...*,What part of the US are you from?*,At what age did you begin learning Spanish?*,Are you proficient in any languages other than English/Spanish?*,date,expName,psychopyVersion,OS,frameRate,key_resp_2afc_practice.keys,key_resp_2afc_practice.corr,key_resp_2afc_practice.rt,trials_2afc_practice_loop.thisRepN,trials_2afc_practice_loop.thisTrialN,trials_2afc_practice_loop.thisN,trials_2afc_practice_loop.thisIndex,trials_2afc_practice_loop.ran,path,correct_response,the_col,key_resp_2afc_trial.keys,key_resp_2afc_trial.corr,key_resp_2afc_trial.rt,trials_2afc_loop.thisRepN,trials_2afc_loop.thisTrialN,trials_2afc_loop.thisN,trials_2afc_loop.thisIndex,trials_2afc_loop.ran,item_num,andalusian,argentine,castilian,chilean,cuban,mexican,peruvian,puertorican,key_resp_ac1.keys,key_resp_ac1.corr,key_resp_ac1.rt,ac1_loop.thisRepN,ac1_loop.thisTrialN,ac1_loop.thisN,ac1_loop.thisIndex,ac1_loop.ran,instructions_lextale_loop.thisRepN,instructions_lextale_loop.thisTrialN,instructions_lextale_loop.thisN,instructions_lextale_loop.thisIndex,instructions_lextale_loop.ran,key_resp_lextale_practice.keys,key_resp_lextale_practice.corr,key_resp_lextale_practice.rt,trials_lextale_practice_loop.thisRepN,trials_lextale_practice_loop.thisTrialN,trials_lextale_practice_loop.thisN,trials_lextale_practice_loop.thisIndex,trials_lextale_practice_loop.ran,stim,word,prac_button_real,prac_button_false,key_resp_lextale_trial.keys,key_resp_lextale_trial.corr,key_resp_lextale_trial.rt,trials_lextale_loop.thisRepN,trials_lextale_loop.thisTrialN,trials_lextale_loop.thisN,trials_lextale_loop.thisIndex,trials_lextale_loop.ran,button_real,button_false,key_resp_ac2.keys,key_resp_ac2.corr,key_resp_ac2.rt,check_pass,check_fails,ac2_loop.thisRepN,ac2_loop.thisTrialN,ac2_loop.thisN,ac2_loop.thisIndex,ac2_loop.ran,slider_eq_trial.response,trials_eq_loop.thisRepN,trials_eq_loop.thisTrialN,trials_eq_loop.thisN,trials_eq_loop.thisIndex,trials_eq_loop.ran,item,is_test_item,is_distractor,is_agree_score,is_disagree_score
0,0,0,0,1,"In the following task you are going to hear a series of utterances. 

  You will decide if the utterances sound like questions or not using your keyboard.",(press the spacebar to continue),5f4580ba9ae79f195a9ece38,6057c54e64b0b4e5c128b4f9,60582ddc02c844287b4950aa,United States,Northeast,13 or older,no,2021-03-22_01h45.19.752,empathy_intonation_perc,2020.2.10,MacIntel,60,,,,,,,,,,,,,,,,,,,,,,,,,,,,,,,,,,,,,,,,,,,,,,,,,,,,,,,,,,,,,,,,,,,,,,,,,,,,,,,,,,,,
0,1,1,1,1,"If you believe the utterance is a question, type '1' (for 'yes') and if you do not 
  believe it is a question type '0' (for 'no').

  Let's practice a bit...",(press the spacebar to continue),5f4580ba9ae79f195a9ece38,6057c54e64b0b4e5c128b4f9,60582ddc02c844287b4950aa,United States,Northeast,13 or older,no,2021-03-22_01h45.19.752,empathy_intonation_perc,2020.2.10,MacIntel,60,,,,,,,,,,,,,,,,,,,,,,,,,,,,,,,,,,,,,,,,,,,,,,,,,,,,,,,,,,,,,,,,,,,,,,,,,,,,,,,,,,,,
,,,,,,,5f4580ba9ae79f195a9ece38,6057c54e64b0b4e5c128b4f9,60582ddc02c844287b4950aa,United States,Northeast,13 or older,no,2021-03-22_01h45.19.752,empathy_intonation_perc,2020.2.10,MacIntel,60,1,1,4.401605,0,0,0,0,1,./stim/wavs/castilian_question_filler_Mi-esposo-conoce-al-chico.wav,1,,,,,,,,,,,,,,,,,,,,,,,,,,,,,,,,,,,,,,,,,,,,,,,,,,,,,,,,,,,,,,,,,,,,,,,,,,
,,,,,,,5f4580ba9ae79f195a9ece38,6057c54e64b0b4e5c128b4f9,60582ddc02c844287b4950aa,United States,Northeast,13 or older,no,2021-03-22_01h45.19.752,empathy_intonation_perc,2020.2.10,MacIntel,60,0,1,4.77736,0,1,1,6,1,./stim/wavs/peruvian_statement_filler_El-nino-habla-con-su-madre.wav,0,,,,,,,,,,,,,,,,,,,,,,,,,,,,,,,,,,,,,,,,,,,,,,,,,,,,,,,,,,,,,,,,,,,,,,,,,,
,,,,,,,5f4580ba9ae79f195a9ece38,6057c54e64b0b4e5c128b4f9,60582ddc02c844287b4950aa,United States,Northeast,13 or older,no,2021-03-22_01h45.19.752,empathy_intonation_perc,2020.2.10,MacIntel,60,0,1,2.3504,0,2,2,4,1,./stim/wavs/cuban_statement_filler_Cocinabas-por-la-noche.wav,0,,,,,,,,,,,,,,,,,,,,,,,,,,,,,,,,,,,,,,,,,,,,,,,,,,,,,,,,,,,,,,,,,,,,,,,,,,
,,,,,,,5f4580ba9ae79f195a9ece38,6057c54e64b0b4e5c128b4f9,60582ddc02c844287b4950aa,United States,Northeast,13 or older,no,2021-03-22_01h45.19.752,empathy_intonation_perc,2020.2.10,MacIntel,60,1,0,2.85093,0,3,3,5,1,./stim/wavs/andalusian_statement_filler_Alberto-nunca-se-afeita.wav,0,,,,,,,,,,,,,,,,,,,,,,,,,,,,,,,,,,,,,,,,,,,,,,,,,,,,,,,,,,,,,,,,,,,,,,,,,,
,,,,,,,5f4580ba9ae79f195a9ece38,6057c54e64b0b4e5c128b4f9,60582ddc02c844287b4950aa,United States,Northeast,13 or older,no,2021-03-22_01h45.19.752,empathy_intonation_perc,2020.2.10,MacIntel,60,1,1,2.083025,0,4,4,2,1,./stim/wavs/chilean_question_filler_Mi-padre-cantaba-bien.wav,1,,,,,,,,,,,,,,,,,,,,,,,,,,,,,,,,,,,,,,,,,,,,,,,,,,,,,,,,,,,,,,,,,,,,,,,,,,
,,,,,,,5f4580ba9ae79f195a9ece38,6057c54e64b0b4e5c128b4f9,60582ddc02c844287b4950aa,United States,Northeast,13 or older,no,2021-03-22_01h45.19.752,empathy_intonation_perc,2020.2.10,MacIntel,60,1,1,1.578305,0,5,5,1,1,./stim/wavs/argentine_question_filler_Mi-vecino-habla-mucho.wav,1,,,,,,,,,,,,,,,,,,,,,,,,,,,,,,,,,,,,,,,,,,,,,,,,,,,,,,,,,,,,,,,,,,,,,,,,,,
,,,,,,,5f4580ba9ae79f195a9ece38,6057c54e64b0b4e5c128b4f9,60582ddc02c844287b4950aa,United States,Northeast,13 or older,no,2021-03-22_01h45.19.752,empathy_intonation_perc,2020.2.10,MacIntel,60,0,1,2.75149,0,6,6,7,1,./stim/wavs/puertorican_statement_filler_La-nina-pinta-con-su-amiga.wav,0,,,,,,,,,,,,,,,,,,,,,,,,,,,,,,,,,,,,,,,,,,,,,,,,,,,,,,,,,,,,,,,,,,,,,,,,,,
,,,,,,,5f4580ba9ae79f195a9ece38,6057c54e64b0b4e5c128b4f9,60582ddc02c844287b4950aa,United States,Northeast,13 or older,no,2021-03-22_01h45.19.752,empathy_intonation_perc,2020.2.10,MacIntel,60,1,1,2.325945,0,7,7,3,1,./stim/wavs/mexican_question_filler_Felipe-no-tiene-contrasena.wav,1,,,,,,,,,,,,,,,,,,,,,,,,,,,,,,,,,,,,,,,,,,,,,,,,,,,,,,,,,,,,,,,,,,,,,,,,,,
,,,,,,,5f4580ba9ae79f195a9ece38,6057c54e64b0b4e5c128b4f9,60582ddc02c844287b4950aa,United States,Northeast,13 or older,no,2021-03-22_01h45.19.752,empathy_intonation_perc,2020.2.10,MacIntel,60,,,,,,,,,,0,puertorican,0,1,2.166665,0,0,0,32,1,33,./stim/wavs/andalusian_mismatch_declarative-broad-focus_El-bebe-comia-muy-bien.wav,./stim/wavs/argentine_mismatch_declarative-broad-focus_El-bebe-comia-muy-bien.wav,./stim/wavs/castilian_mismatch_declarative-broad-focus_El-bebe-comia-muy-bien.wav,./stim/wavs/chilean_mismatch_declarative-broad-focus_El-bebe-comia-muy-bien.wav,./stim/wavs/cuban_mismatch_declarative-broad-focus_El-bebe-comia-muy-bien.wav,./stim/wavs/mexican_mismatch_declarative-broad-focus_El-bebe-comia-muy-bien.wav,./stim/wavs/peruvian_mismatch_declarative-broad-focus_El-bebe-comia-muy-bien.wav,./stim/wavs/puertorican_mismatch_declarative-broad-focus_El-bebe-comia-muy-bien.wav,,,,,,,,,,,,,,,,,,,,,,,,,,,,,,,,,,,,,,,,,,,,,,,,,,,,,,,,
,,,,,,,5f4580ba9ae79f195a9ece38,6057c54e64b0b4e5c128b4f9,60582ddc02c844287b4950aa,United States,Northeast,13 or older,no,2021-03-22_01h45.19.752,empathy_intonation_perc,2020.2.10,MacIntel,60,,,,,,,,,,1,mexican,1,1,2.74691,0,1,1,31,1,32,./stim/wavs/andalusian_match_interrogative-total-yn_Marta-abre-el-regalo.wav,./stim/wavs/argentine_match_interrogative-total-yn_Marta-abre-el-regalo.wav,./stim/wavs/castilian_match_interrogative-total-yn_Marta-abre-el-regalo.wav,./stim/wavs/chilean_match_interrogative-total-yn_Marta-abre-el-regalo.wav,./stim/wavs/cuban_match_interrogative-total-yn_Marta-abre-el-regalo.wav,./stim/wavs/mexican_match_interrogative-total-yn_Marta-abre-el-regalo.wav,./stim/wavs/peruvian_match_interrogative-total-yn_Marta-abre-el-regalo.wav,./stim/wavs/puertorican_match_interrogative-total-yn_Marta-abre-el-regalo.wav,,,,,,,,,,,,,,,,,,,,,,,,,,,,,,,,,,,,,,,,,,,,,,,,,,,,,,,,
,,,,,,,5f4580ba9ae79f195a9ece38,6057c54e64b0b4e5c128b4f9,60582ddc02c844287b4950aa,United States,Northeast,13 or older,no,2021-03-22_01h45.19.752,empathy_intonation_perc,2020.2.10,MacIntel,60,,,,,,,,,,0,cuban,0,1,2.211525,0,2,2,5,1,6,./stim/wavs/andalusian_match_declarative-broad-focus_Maria-bebe-el-vino.wav,./stim/wavs/argentine_match_declarative-broad-focus_Maria-bebe-el-vino.wav,./stim/wavs/castilian_match_declarative-broad-focus_Maria-bebe-el-vino.wav,./stim/wavs/chilean_match_declarative-broad-focus_Maria-bebe-el-vino.wav,./stim/wavs/cuban_match_declarative-broad-focus_Maria-bebe-el-vino.wav,./stim/wavs/mexican_match_declarative-broad-focus_Maria-bebe-el-vino.wav,./stim/wavs/peruvian_match_declarative-broad-focus_Maria-bebe-el-vino.wav,./stim/wavs/puertorican_match_declarative-broad-focus_Maria-bebe-el-vino.wav,,,,,,,,,,,,,,,,,,,,,,,,,,,,,,,,,,,,,,,,,,,,,,,,,,,,,,,,
,,,,,,,5f4580ba9ae79f195a9ece38,6057c54e64b0b4e5c128b4f9,60582ddc02c844287b4950aa,United States,Northeast,13 or older,no,2021-03-22_01h45.19.752,empathy_intonation_perc,2020.2.10,MacIntel,60,,,,,,,,,,1,cuban,0,0,2.29777,0,3,3,28,1,29,./stim/wavs/andalusian_match_interrogative-total-yn_Manuela-vende-el-carro.wav,./stim/wavs/argentine_match_interrogative-total-yn_Manuela-vende-el-carro.wav,./stim/wavs/castilian_match_interrogative-total-yn_Manuela-vende-el-carro.wav,./stim/wavs/chilean_match_interrogative-total-yn_Manuela-vende-el-carro.wav,./stim/wavs/cuban_match_interrogative-total-yn_Manuela-vende-el-carro.wav,./stim/wavs/mexican_match_interrogative-total-yn_Manuela-vende-el-carro.wav,./stim/wavs/peruvian_match_interrogative-total-yn_Manuela-vende-el-carro.wav,./stim/wavs/puertorican_match_interrogative-total-yn_Manuela-vende-el-carro.wav,,,,,,,,,,,,,,,,,,,,,,,,,,,,,,,,,,,,,,,,,,,,,,,,,,,,,,,,
,,,,,,,5f4580ba9ae79f195a9ece38,6057c54e64b0b4e5c128b4f9,60582ddc02c844287b4950aa,United States,Northeast,13 or older,no,2021-03-22_01h45.19.752,empathy_intonation_perc,2020.2.10,MacIntel,60,,,,,,,,,,0,puertorican,0,1,2.13349,0,4,4,3,1,4,./stim/wavs/andalusian_match_declarative-broad-focus_Emilio-ama-la-marcha.wav,./stim/wavs/argentine_match_declarative-broad-focus_Emilio-ama-la-marcha.wav,./stim/wavs/castilian_match_declarative-broad-focus_Emilio-ama-la-marcha.wav,./stim/wavs/chilean_match_declarative-broad-focus_Emilio-ama-la-marcha.wav,./stim/wavs/cuban_match_declarative-broad-focus_Emilio-ama-la-marcha.wav,./stim/wavs/mexican_match_declarative-broad-focus_Emilio-ama-la-marcha.wav,./stim/wavs/peruvian_match_declarative-broad-focus_Emilio-ama-la-marcha.wav,./stim/wavs/puertorican_match_declarative-broad-focus_Emilio-ama-la-marcha.wav,,,,,,,,,,,,,,,,,,,,,,,,,,,,,,,,,,,,,,,,,,,,,,,,,,,,,,,,
,,,,,,,5f4580ba9ae79f195a9ece38,6057c54e64b0b4e5c128b4f9,60582ddc02c844287b4950aa,United States,Northeast,13 or older,no,2021-03-22_01h45.19.752,empathy_intonation_perc,2020.2.10,MacIntel,60,,,,,,,,,,1,mexican,1,1,1.975445,0,5,5,62,1,63,./stim/wavs/andalusian_mismatch_interrogative-total-yn_Mi-novio-viene-del-lago.wav,./stim/wavs/argentine_mismatch_interrogative-total-yn_Mi-novio-viene-del-lago.wav,./stim/wavs/castilian_mismatch_interrogative-total-yn_Mi-novio-viene-del-lago.wav,./stim/wavs/chilean_mismatch_interrogative-total-yn_Mi-novio-viene-del-lago.wav,./stim/wavs/cuban_mismatch_interrogative-total-yn_Mi-novio-viene-del-lago.wav,./stim/wavs/mexican_mismatch_interrogative-total-yn_Mi-novio-viene-del-lago.wav,./stim/wavs/peruvian_mismatch_interrogative-total-yn_Mi-novio-viene-del-lago.wav,./stim/wavs/puertorican_mismatch_interrogative-total-yn_Mi-novio-viene-del-lago.wav,,,,,,,,,,,,,,,,,,,,,,,,,,,,,,,,,,,,,,,,,,,,,,,,,,,,,,,,
,,,,,,,5f4580ba9ae79f195a9ece38,6057c54e64b0b4e5c128b4f9,60582ddc02c844287b4950aa,United States,Northeast,13 or older,no,2021-03-22_01h45.19.752,empathy_intonation_perc,2020.2.10,MacIntel,60,,,,,,,,,,0,chilean,0,1,2.56877,0,6,6,14,1,15,./stim/wavs/andalusian_match_declarative-narrow-focus_Mariano-habla-del-tiempo.wav,./stim/wavs/argentine_match_declarative-narrow-focus_Mariano-habla-del-tiempo.wav,./stim/wavs/castilian_match_declarative-narrow-focus_Mariano-habla-del-tiempo.wav,./stim/wavs/chilean_match_declarative-narrow-focus_Mariano-habla-del-tiempo.wav,./stim/wavs/cuban_match_declarative-narrow-focus_Mariano-habla-del-tiempo.wav,./stim/wavs/mexican_match_declarative-narrow-focus_Mariano-habla-del-tiempo.wav,./stim/wavs/peruvian_match_declarative-narrow-focus_Mariano-habla-del-tiempo.wav,./stim/wavs/puertorican_match_declarative-narrow-focus_Mariano-habla-del-tiempo.wav,,,,,,,,,,,,,,,,,,,,,,,,,,,,,,,,,,,,,,,,,,,,,,,,,,,,,,,,
,,,,,,,5f4580ba9ae79f195a9ece38,6057c54e64b0b4e5c128b4f9,60582ddc02c844287b4950aa,United States,Northeast,13 or older,no,2021-03-22_01h45.19.752,empathy_intonation_perc,2020.2.10,MacIntel,60,,,,,,,,,,0,andalusian,0,1,2.12825,0,7,7,9,1,10,./stim/wavs/andalusian_match_declarative-narrow-focus_Daniel-iba-a-Bolivia.wav,./stim/wavs/argentine_match_declarative-narrow-focus_Daniel-iba-a-Bolivia.wav,./stim/wavs/castilian_match_declarative-narrow-focus_Daniel-iba-a-Bolivia.wav,./stim/wavs/chilean_match_declarative-narrow-focus_Daniel-iba-a-Bolivia.wav,./stim/wavs/cuban_match_declarative-narrow-focus_Daniel-iba-a-Bolivia.wav,./stim/wavs/mexican_match_declarative-narrow-focus_Daniel-iba-a-Bolivia.wav,./stim/wavs/peruvian_match_declarative-narrow-focus_Daniel-iba-a-Bolivia.wav,./stim/wavs/puertorican_match_declarative-narrow-focus_Daniel-iba-a-Bolivia.wav,,,,,,,,,,,,,,,,,,,,,,,,,,,,,,,,,,,,,,,,,,,,,,,,,,,,,,,,
,,,,,,,5f4580ba9ae79f195a9ece38,6057c54e64b0b4e5c128b4f9,60582ddc02c844287b4950aa,United States,Northeast,13 or older,no,2021-03-22_01h45.19.752,empathy_intonation_perc,2020.2.10,MacIntel,60,,,,,,,,,,1,castilian,1,1,1.953405,0,8,8,49,1,50,./stim/wavs/andalusian_mismatch_interrogative-partial-wh_Cuando-lavaba-el-plato.wav,./stim/wavs/argentine_mismatch_interrogative-partial-wh_Cuando-lavaba-el-plato.wav,./stim/wavs/castilian_mismatch_interrogative-partial-wh_Cuando-lavaba-el-plato.wav,./stim/wavs/chilean_mismatch_interrogative-partial-wh_Cuando-lavaba-el-plato.wav,./stim/wavs/cuban_mismatch_interrogative-partial-wh_Cuando-lavaba-el-plato.wav,./stim/wavs/mexican_mismatch_interrogative-partial-wh_Cuando-lavaba-el-plato.wav,./stim/wavs/peruvian_mismatch_interrogative-partial-wh_Cuando-lavaba-el-plato.wav,./stim/wavs/puertorican_mismatch_interrogative-partial-wh_Cuando-lavaba-el-plato.wav,,,,,,,,,,,,,,,,,,,,,,,,,,,,,,,,,,,,,,,,,,,,,,,,,,,,,,,,
,,,,,,,5f4580ba9ae79f195a9ece38,6057c54e64b0b4e5c128b4f9,60582ddc02c844287b4950aa,United States,Northeast,13 or older,no,2021-03-22_01h45.19.752,empathy_intonation_perc,2020.2.10,MacIntel,60,,,,,,,,,,1,chilean,1,1,1.8666,0,9,9,57,1,58,./stim/wavs/andalusian_mismatch_interrogative-total-yn_El-hombre-mira-la-luna.wav,./stim/wavs/argentine_mismatch_interrogative-total-yn_El-hombre-mira-la-luna.wav,./stim/wavs/castilian_mismatch_interrogative-total-yn_El-hombre-mira-la-luna.wav,./stim/wavs/chilean_mismatch_interrogative-total-yn_El-hombre-mira-la-luna.wav,./stim/wavs/cuban_mismatch_interrogative-total-yn_El-hombre-mira-la-luna.wav,./stim/wavs/mexican_mismatch_interrogative-total-yn_El-hombre-mira-la-luna.wav,./stim/wavs/peruvian_mismatch_interrogative-total-yn_El-hombre-mira-la-luna.wav,./stim/wavs/puertorican_mismatch_interrogative-total-yn_El-hombre-mira-la-luna.wav,,,,,,,,,,,,,,,,,,,,,,,,,,,,,,,,,,,,,,,,,,,,,,,,,,,,,,,,
,,,,,,,5f4580ba9ae79f195a9ece38,6057c54e64b0b4e5c128b4f9,60582ddc02c844287b4950aa,United States,Northeast,13 or older,no,2021-03-22_01h45.19.752,empathy_intonation_perc,2020.2.10,MacIntel,60,,,,,,,,,,0,peruvian,0,1,2.23001,0,10,10,4,1,5,./stim/wavs/andalusian_match_declarative-broad-focus_Manuela-vende-el-carro.wav,./stim/wavs/argentine_match_declarative-broad-focus_Manuela-vende-el-carro.wav,./stim/wavs/castilian_match_declarative-broad-focus_Manuela-vende-el-carro.wav,./stim/wavs/chilean_match_declarative-broad-focus_Manuela-vende-el-carro.wav,./stim/wavs/cuban_match_declarative-broad-focus_Manuela-vende-el-carro.wav,./stim/wavs/mexican_match_declarative-broad-focus_Manuela-vende-el-carro.wav,./stim/wavs/peruvian_match_declarative-broad-focus_Manuela-vende-el-carro.wav,./stim/wavs/puertorican_match_declarative-broad-focus_Manuela-vende-el-carro.wav,,,,,,,,,,,,,,,,,,,,,,,,,,,,,,,,,,,,,,,,,,,,,,,,,,,,,,,,
,,,,,,,5f4580ba9ae79f195a9ece38,6057c54e64b0b4e5c128b4f9,60582ddc02c844287b4950aa,United States,Northeast,13 or older,no,2021-03-22_01h45.19.752,empathy_intonation_perc,2020.2.10,MacIntel,60,,,,,,,,,,0,chilean,1,0,3.208965,0,11,11,35,1,36,./stim/wavs/andalusian_mismatch_declarative-broad-focus_La-maestra-vive-en-Paris.wav,./stim/wavs/argentine_mismatch_declarative-broad-focus_La-maestra-vive-en-Paris.wav,./stim/wavs/castilian_mismatch_declarative-broad-focus_La-maestra-vive-en-Paris.wav,./stim/wavs/chilean_mismatch_declarative-broad-focus_La-maestra-vive-en-Paris.wav,./stim/wavs/cuban_mismatch_declarative-broad-focus_La-maestra-vive-en-Paris.wav,./stim/wavs/mexican_mismatch_declarative-broad-focus_La-maestra-vive-en-Paris.wav,./stim/wavs/peruvian_mismatch_declarative-broad-focus_La-maestra-vive-en-Paris.wav,./stim/wavs/puertorican_mismatch_declarative-broad-focus_La-maestra-vive-en-Paris.wav,,,,,,,,,,,,,,,,,,,,,,,,,,,,,,,,,,,,,,,,,,,,,,,,,,,,,,,,
,,,,,,,5f4580ba9ae79f195a9ece38,6057c54e64b0b4e5c128b4f9,60582ddc02c844287b4950aa,United States,Northeast,13 or older,no,2021-03-22_01h45.19.752,empathy_intonation_perc,2020.2.10,MacIntel,60,,,,,,,,,,0,chilean,0,1,2.27769,0,12,12,41,1,42,./stim/wavs/andalusian_mismatch_declarative-narrow-focus_El-hombre-mira-la-luna.wav,./stim/wavs/argentine_mismatch_declarative-narrow-focus_El-hombre-mira-la-luna.wav,./stim/wavs/castilian_mismatch_declarative-narrow-focus_El-hombre-mira-la-luna.wav,./stim/wavs/chilean_mismatch_declarative-narrow-focus_El-hombre-mira-la-luna.wav,./stim/wavs/cuban_mismatch_declarative-narrow-focus_El-hombre-mira-la-luna.wav,./stim/wavs/mexican_mismatch_declarative-narrow-focus_El-hombre-mira-la-luna.wav,./stim/wavs/peruvian_mismatch_declarative-narrow-focus_El-hombre-mira-la-luna.wav,./stim/wavs/puertorican_mismatch_declarative-narrow-focus_El-hombre-mira-la-luna.wav,,,,,,,,,,,,,,,,,,,,,,,,,,,,,,,,,,,,,,,,,,,,,,,,,,,,,,,,
,,,,,,,5f4580ba9ae79f195a9ece38,6057c54e64b0b4e5c128b4f9,60582ddc02c844287b4950aa,United States,Northeast,13 or older,no,2021-03-22_01h45.19.752,empathy_intonation_perc,2020.2.10,MacIntel,60,,,,,,,,,,1,mexican,0,0,2.3048,0,13,13,21,1,22,./stim/wavs/andalusian_match_interrogative-partial-wh_Por-que-ama-la-navidad.wav,./stim/wavs/argentine_match_interrogative-partial-wh_Por-que-ama-la-navidad.wav,./stim/wavs/castilian_match_interrogative-partial-wh_Por-que-ama-la-navidad.wav,./stim/wavs/chilean_match_interrogative-partial-wh_Por-que-ama-la-navidad.wav,./stim/wavs/cuban_match_interrogative-partial-wh_Por-que-ama-la-navidad.wav,./stim/wavs/mexican_match_interrogative-partial-wh_Por-que-ama-la-navidad.wav,./stim/wavs/peruvian_match_interrogative-partial-wh_Por-que-ama-la-navidad.wav,./stim/wavs/puertorican_match_interrogative-partial-wh_Por-que-ama-la-navidad.wav,,,,,,,,,,,,,,,,,,,,,,,,,,,,,,,,,,,,,,,,,,,,,,,,,,,,,,,,
,,,,,,,5f4580ba9ae79f195a9ece38,6057c54e64b0b4e5c128b4f9,60582ddc02c844287b4950aa,United States,Northeast,13 or older,no,2021-03-22_01h45.19.752,empathy_intonation_perc,2020.2.10,MacIntel,60,,,,,,,,,,1,argentine,1,1,2.27854,0,14,14,61,1,62,./stim/wavs/andalusian_mismatch_interrogative-total-yn_Mi-madre-come-la-fruta.wav,./stim/wavs/argentine_mismatch_interrogative-total-yn_Mi-madre-come-la-fruta.wav,./stim/wavs/castilian_mismatch_interrogative-total-yn_Mi-madre-come-la-fruta.wav,./stim/wavs/chilean_mismatch_interrogative-total-yn_Mi-madre-come-la-fruta.wav,./stim/wavs/cuban_mismatch_interrogative-total-yn_Mi-madre-come-la-fruta.wav,./stim/wavs/mexican_mismatch_interrogative-total-yn_Mi-madre-come-la-fruta.wav,./stim/wavs/peruvian_mismatch_interrogative-total-yn_Mi-madre-come-la-fruta.wav,./stim/wavs/puertorican_mismatch_interrogative-total-yn_Mi-madre-come-la-fruta.wav,,,,,,,,,,,,,,,,,,,,,,,,,,,,,,,,,,,,,,,,,,,,,,,,,,,,,,,,
,,,,,,,5f4580ba9ae79f195a9ece38,6057c54e64b0b4e5c128b4f9,60582ddc02c844287b4950aa,United States,Northeast,13 or older,no,2021-03-22_01h45.19.752,empathy_intonation_perc,2020.2.10,MacIntel,60,,,,,,,,,,0,puertorican,0,1,2.16481,0,15,15,44,1,45,./stim/wavs/andalusian_mismatch_declarative-narrow-focus_La-nina-lava-el-plato.wav,./stim/wavs/argentine_mismatch_declarative-narrow-focus_La-nina-lava-el-plato.wav,./stim/wavs/castilian_mismatch_declarative-narrow-focus_La-nina-lava-el-plato.wav,./stim/wavs/chilean_mismatch_declarative-narrow-focus_La-nina-lava-el-plato.wav,./stim/wavs/cuban_mismatch_declarative-narrow-focus_La-nina-lava-el-plato.wav,./stim/wavs/mexican_mismatch_declarative-narrow-focus_La-nina-lava-el-plato.wav,./stim/wavs/peruvian_mismatch_declarative-narrow-focus_La-nina-lava-el-plato.wav,./stim/wavs/puertorican_mismatch_declarative-narrow-focus_La-nina-lava-el-plato.wav,,,,,,,,,,,,,,,,,,,,,,,,,,,,,,,,,,,,,,,,,,,,,,,,,,,,,,,,
,,,,,,,5f4580ba9ae79f195a9ece38,6057c54e64b0b4e5c128b4f9,60582ddc02c844287b4950aa,United States,Northeast,13 or older,no,2021-03-22_01h45.19.752,empathy_intonation_perc,2020.2.10,MacIntel,60,,,,,,,,,,1,peruvian,0,0,2.614545,0,16,16,22,1,23,./stim/wavs/andalusian_match_interrogative-partial-wh_Por-que-hablaba-del-agua.wav,./stim/wavs/argentine_match_interrogative-partial-wh_Por-que-hablaba-del-agua.wav,./stim/wavs/castilian_match_interrogative-partial-wh_Por-que-hablaba-del-agua.wav,./stim/wavs/chilean_match_interrogative-partial-wh_Por-que-hablaba-del-agua.wav,./stim/wavs/cuban_match_interrogative-partial-wh_Por-que-hablaba-del-agua.wav,./stim/wavs/mexican_match_interrogative-partial-wh_Por-que-hablaba-del-agua.wav,./stim/wavs/peruvian_match_interrogative-partial-wh_Por-que-hablaba-del-agua.wav,./stim/wavs/puertorican_match_interrogative-partial-wh_Por-que-hablaba-del-agua.wav,,,,,,,,,,,,,,,,,,,,,,,,,,,,,,,,,,,,,,,,,,,,,,,,,,,,,,,,
,,,,,,,5f4580ba9ae79f195a9ece38,6057c54e64b0b4e5c128b4f9,60582ddc02c844287b4950aa,United States,Northeast,13 or older,no,2021-03-22_01h45.19.752,empathy_intonation_perc,2020.2.10,MacIntel,60,,,,,,,,,,1,puertorican,0,0,2.32744,0,17,17,27,1,28,./stim/wavs/andalusian_match_interrogative-total-yn_Emilio-ama-la-marcha.wav,./stim/wavs/argentine_match_interrogative-total-yn_Emilio-ama-la-marcha.wav,./stim/wavs/castilian_match_interrogative-total-yn_Emilio-ama-la-marcha.wav,./stim/wavs/chilean_match_interrogative-total-yn_Emilio-ama-la-marcha.wav,./stim/wavs/cuban_match_interrogative-total-yn_Emilio-ama-la-marcha.wav,./stim/wavs/mexican_match_interrogative-total-yn_Emilio-ama-la-marcha.wav,./stim/wavs/peruvian_match_interrogative-total-yn_Emilio-ama-la-marcha.wav,./stim/wavs/puertorican_match_interrogative-total-yn_Emilio-ama-la-marcha.wav,,,,,,,,,,,,,,,,,,,,,,,,,,,,,,,,,,,,,,,,,,,,,,,,,,,,,,,,
,,,,,,,5f4580ba9ae79f195a9ece38,6057c54e64b0b4e5c128b4f9,60582ddc02c844287b4950aa,United States,Northeast,13 or older,no,2021-03-22_01h45.19.752,empathy_intonation_perc,2020.2.10,MacIntel,60,,,,,,,,,,1,puertorican,1,1,2.85141,0,18,18,29,1,30,./stim/wavs/andalusian_match_interrogative-total-yn_Maria-bebe-el-vino.wav,./stim/wavs/argentine_match_interrogative-total-yn_Maria-bebe-el-vino.wav,./stim/wavs/castilian_match_interrogative-total-yn_Maria-bebe-el-vino.wav,./stim/wavs/chilean_match_interrogative-total-yn_Maria-bebe-el-vino.wav,./stim/wavs/cuban_match_interrogative-total-yn_Maria-bebe-el-vino.wav,./stim/wavs/mexican_match_interrogative-total-yn_Maria-bebe-el-vino.wav,./stim/wavs/peruvian_match_interrogative-total-yn_Maria-bebe-el-vino.wav,./stim/wavs/puertorican_match_interrogative-total-yn_Maria-bebe-el-vino.wav,,,,,,,,,,,,,,,,,,,,,,,,,,,,,,,,,,,,,,,,,,,,,,,,,,,,,,,,
,,,,,,,5f4580ba9ae79f195a9ece38,6057c54e64b0b4e5c128b4f9,60582ddc02c844287b4950aa,United States,Northeast,13 or older,no,2021-03-22_01h45.19.752,empathy_intonation_perc,2020.2.10,MacIntel,60,,,,,,,,,,0,cuban,0,1,2.73638,0,19,19,6,1,7,./stim/wavs/andalusian_match_declarative-broad-focus_Mariano-habla-del-tiempo.wav,./stim/wavs/argentine_match_declarative-broad-focus_Mariano-habla-del-tiempo.wav,./stim/wavs/castilian_match_declarative-broad-focus_Mariano-habla-del-tiempo.wav,./stim/wavs/chilean_match_declarative-broad-focus_Mariano-habla-del-tiempo.wav,./stim/wavs/cuban_match_declarative-broad-focus_Mariano-habla-del-tiempo.wav,./stim/wavs/mexican_match_declarative-broad-focus_Mariano-habla-del-tiempo.wav,./stim/wavs/peruvian_match_declarative-broad-focus_Mariano-habla-del-tiempo.wav,./stim/wavs/puertorican_match_declarative-broad-focus_Mariano-habla-del-tiempo.wav,,,,,,,,,,,,,,,,,,,,,,,,,,,,,,,,,,,,,,,,,,,,,,,,,,,,,,,,
,,,,,,,5f4580ba9ae79f195a9ece38,6057c54e64b0b4e5c128b4f9,60582ddc02c844287b4950aa,United States,Northeast,13 or older,no,2021-03-22_01h45.19.752,empathy_intonation_perc,2020.2.10,MacIntel,60,,,,,,,,,,0,chilean,0,1,2.05761,0,20,20,12,1,13,./stim/wavs/andalusian_match_declarative-narrow-focus_Manuela-vende-el-carro.wav,./stim/wavs/argentine_match_declarative-narrow-focus_Manuela-vende-el-carro.wav,./stim/wavs/castilian_match_declarative-narrow-focus_Manuela-vende-el-carro.wav,./stim/wavs/chilean_match_declarative-narrow-focus_Manuela-vende-el-carro.wav,./stim/wavs/cuban_match_declarative-narrow-focus_Manuela-vende-el-carro.wav,./stim/wavs/mexican_match_declarative-narrow-focus_Manuela-vende-el-carro.wav,./stim/wavs/peruvian_match_declarative-narrow-focus_Manuela-vende-el-carro.wav,./stim/wavs/puertorican_match_declarative-narrow-focus_Manuela-vende-el-carro.wav,,,,,,,,,,,,,,,,,,,,,,,,,,,,,,,,,,,,,,,,,,,,,,,,,,,,,,,,
,,,,,,,5f4580ba9ae79f195a9ece38,6057c54e64b0b4e5c128b4f9,60582ddc02c844287b4950aa,United States,Northeast,13 or older,no,2021-03-22_01h45.19.752,empathy_intonation_perc,2020.2.10,MacIntel,60,,,,,,,,,,0,peruvian,0,1,3.00193,0,21,21,37,1,38,./stim/wavs/andalusian_mismatch_declarative-broad-focus_Mi-madre-come-la-fruta.wav,./stim/wavs/argentine_mismatch_declarative-broad-focus_Mi-madre-come-la-fruta.wav,./stim/wavs/castilian_mismatch_declarative-broad-focus_Mi-madre-come-la-fruta.wav,./stim/wavs/chilean_mismatch_declarative-broad-focus_Mi-madre-come-la-fruta.wav,./stim/wavs/cuban_mismatch_declarative-broad-focus_Mi-madre-come-la-fruta.wav,./stim/wavs/mexican_mismatch_declarative-broad-focus_Mi-madre-come-la-fruta.wav,./stim/wavs/peruvian_mismatch_declarative-broad-focus_Mi-madre-come-la-fruta.wav,./stim/wavs/puertorican_mismatch_declarative-broad-focus_Mi-madre-come-la-fruta.wav,,,,,,,,,,,,,,,,,,,,,,,,,,,,,,,,,,,,,,,,,,,,,,,,,,,,,,,,
,,,,,,,5f4580ba9ae79f195a9ece38,6057c54e64b0b4e5c128b4f9,60582ddc02c844287b4950aa,United States,Northeast,13 or older,no,2021-03-22_01h45.19.752,empathy_intonation_perc,2020.2.10,MacIntel,60,,,,,,,,,,1,cuban,1,1,2.276655,0,22,22,23,1,24,./stim/wavs/andalusian_match_interrogative-partial-wh_Por-que-iba-a-Bolivia.wav,./stim/wavs/argentine_match_interrogative-partial-wh_Por-que-iba-a-Bolivia.wav,./stim/wavs/castilian_match_interrogative-partial-wh_Por-que-iba-a-Bolivia.wav,./stim/wavs/chilean_match_interrogative-partial-wh_Por-que-iba-a-Bolivia.wav,./stim/wavs/cuban_match_interrogative-partial-wh_Por-que-iba-a-Bolivia.wav,./stim/wavs/mexican_match_interrogative-partial-wh_Por-que-iba-a-Bolivia.wav,./stim/wavs/peruvian_match_interrogative-partial-wh_Por-que-iba-a-Bolivia.wav,./stim/wavs/puertorican_match_interrogative-partial-wh_Por-que-iba-a-Bolivia.wav,,,,,,,,,,,,,,,,,,,,,,,,,,,,,,,,,,,,,,,,,,,,,,,,,,,,,,,,
,,,,,,,5f4580ba9ae79f195a9ece38,6057c54e64b0b4e5c128b4f9,60582ddc02c844287b4950aa,United States,Northeast,13 or older,no,2021-03-22_01h45.19.752,empathy_intonation_perc,2020.2.10,MacIntel,60,,,,,,,,,,1,puertorican,0,0,4.233925,0,23,23,48,1,49,./stim/wavs/andalusian_mismatch_interrogative-partial-wh_Cuando-comia-la-fruta.wav,./stim/wavs/argentine_mismatch_interrogative-partial-wh_Cuando-comia-la-fruta.wav,./stim/wavs/castilian_mismatch_interrogative-partial-wh_Cuando-comia-la-fruta.wav,./stim/wavs/chilean_mismatch_interrogative-partial-wh_Cuando-comia-la-fruta.wav,./stim/wavs/cuban_mismatch_interrogative-partial-wh_Cuando-comia-la-fruta.wav,./stim/wavs/mexican_mismatch_interrogative-partial-wh_Cuando-comia-la-fruta.wav,./stim/wavs/peruvian_mismatch_interrogative-partial-wh_Cuando-comia-la-fruta.wav,./stim/wavs/puertorican_mismatch_interrogative-partial-wh_Cuando-comia-la-fruta.wav,,,,,,,,,,,,,,,,,,,,,,,,,,,,,,,,,,,,,,,,,,,,,,,,,,,,,,,,
,,,,,,,5f4580ba9ae79f195a9ece38,6057c54e64b0b4e5c128b4f9,60582ddc02c844287b4950aa,United States,Northeast,13 or older,no,2021-03-22_01h45.19.752,empathy_intonation_perc,2020.2.10,MacIntel,60,,,,,,,,,,1,chilean,1,1,2.49134,0,24,24,58,1,59,./stim/wavs/andalusian_mismatch_interrogative-total-yn_El-nino-oye-el-rio.wav,./stim/wavs/argentine_mismatch_interrogative-total-yn_El-nino-oye-el-rio.wav,./stim/wavs/castilian_mismatch_interrogative-total-yn_El-nino-oye-el-rio.wav,./stim/wavs/chilean_mismatch_interrogative-total-yn_El-nino-oye-el-rio.wav,./stim/wavs/cuban_mismatch_interrogative-total-yn_El-nino-oye-el-rio.wav,./stim/wavs/mexican_mismatch_interrogative-total-yn_El-nino-oye-el-rio.wav,./stim/wavs/peruvian_mismatch_interrogative-total-yn_El-nino-oye-el-rio.wav,./stim/wavs/puertorican_mismatch_interrogative-total-yn_El-nino-oye-el-rio.wav,,,,,,,,,,,,,,,,,,,,,,,,,,,,,,,,,,,,,,,,,,,,,,,,,,,,,,,,
,,,,,,,5f4580ba9ae79f195a9ece38,6057c54e64b0b4e5c128b4f9,60582ddc02c844287b4950aa,United States,Northeast,13 or older,no,2021-03-22_01h45.19.752,empathy_intonation_perc,2020.2.10,MacIntel,60,,,,,,,,,,0,cuban,0,1,1.95306,0,25,25,42,1,43,./stim/wavs/andalusian_mismatch_declarative-narrow-focus_El-nino-oye-el-rio.wav,./stim/wavs/argentine_mismatch_declarative-narrow-focus_El-nino-oye-el-rio.wav,./stim/wavs/castilian_mismatch_declarative-narrow-focus_El-nino-oye-el-rio.wav,./stim/wavs/chilean_mismatch_declarative-narrow-focus_El-nino-oye-el-rio.wav,./stim/wavs/cuban_mismatch_declarative-narrow-focus_El-nino-oye-el-rio.wav,./stim/wavs/mexican_mismatch_declarative-narrow-focus_El-nino-oye-el-rio.wav,./stim/wavs/peruvian_mismatch_declarative-narrow-focus_El-nino-oye-el-rio.wav,./stim/wavs/puertorican_mismatch_declarative-narrow-focus_El-nino-oye-el-rio.wav,,,,,,,,,,,,,,,,,,,,,,,,,,,,,,,,,,,,,,,,,,,,,,,,,,,,,,,,
,,,,,,,5f4580ba9ae79f195a9ece38,6057c54e64b0b4e5c128b4f9,60582ddc02c844287b4950aa,United States,Northeast,13 or older,no,2021-03-22_01h45.19.752,empathy_intonation_perc,2020.2.10,MacIntel,60,,,,,,,,,,1,castilian,1,1,2.525325,0,26,26,54,1,55,./stim/wavs/andalusian_mismatch_interrogative-partial-wh_Por-que-venia-del-lago.wav,./stim/wavs/argentine_mismatch_interrogative-partial-wh_Por-que-venia-del-lago.wav,./stim/wavs/castilian_mismatch_interrogative-partial-wh_Por-que-venia-del-lago.wav,./stim/wavs/chilean_mismatch_interrogative-partial-wh_Por-que-venia-del-lago.wav,./stim/wavs/cuban_mismatch_interrogative-partial-wh_Por-que-venia-del-lago.wav,./stim/wavs/mexican_mismatch_interrogative-partial-wh_Por-que-venia-del-lago.wav,./stim/wavs/peruvian_mismatch_interrogative-partial-wh_Por-que-venia-del-lago.wav,./stim/wavs/puertorican_mismatch_interrogative-partial-wh_Por-que-venia-del-lago.wav,,,,,,,,,,,,,,,,,,,,,,,,,,,,,,,,,,,,,,,,,,,,,,,,,,,,,,,,
,,,,,,,5f4580ba9ae79f195a9ece38,6057c54e64b0b4e5c128b4f9,60582ddc02c844287b4950aa,United States,Northeast,13 or older,no,2021-03-22_01h45.19.752,empathy_intonation_perc,2020.2.10,MacIntel,60,,,,,,,,,,1,argentine,0,0,1.935955,0,27,27,52,1,53,./stim/wavs/andalusian_mismatch_interrogative-partial-wh_Por-que-odiaba-la-lluvia.wav,./stim/wavs/argentine_mismatch_interrogative-partial-wh_Por-que-odiaba-la-lluvia.wav,./stim/wavs/castilian_mismatch_interrogative-partial-wh_Por-que-odiaba-la-lluvia.wav,./stim/wavs/chilean_mismatch_interrogative-partial-wh_Por-que-odiaba-la-lluvia.wav,./stim/wavs/cuban_mismatch_interrogative-partial-wh_Por-que-odiaba-la-lluvia.wav,./stim/wavs/mexican_mismatch_interrogative-partial-wh_Por-que-odiaba-la-lluvia.wav,./stim/wavs/peruvian_mismatch_interrogative-partial-wh_Por-que-odiaba-la-lluvia.wav,./stim/wavs/puertorican_mismatch_interrogative-partial-wh_Por-que-odiaba-la-lluvia.wav,,,,,,,,,,,,,,,,,,,,,,,,,,,,,,,,,,,,,,,,,,,,,,,,,,,,,,,,
,,,,,,,5f4580ba9ae79f195a9ece38,6057c54e64b0b4e5c128b4f9,60582ddc02c844287b4950aa,United States,Northeast,13 or older,no,2021-03-22_01h45.19.752,empathy_intonation_perc,2020.2.10,MacIntel,60,,,,,,,,,,0,mexican,0,1,2.451445,0,28,28,47,1,48,./stim/wavs/andalusian_mismatch_declarative-narrow-focus_Mi-tia-odia-la-lluvia.wav,./stim/wavs/argentine_mismatch_declarative-narrow-focus_Mi-tia-odia-la-lluvia.wav,./stim/wavs/castilian_mismatch_declarative-narrow-focus_Mi-tia-odia-la-lluvia.wav,./stim/wavs/chilean_mismatch_declarative-narrow-focus_Mi-tia-odia-la-lluvia.wav,./stim/wavs/cuban_mismatch_declarative-narrow-focus_Mi-tia-odia-la-lluvia.wav,./stim/wavs/mexican_mismatch_declarative-narrow-focus_Mi-tia-odia-la-lluvia.wav,./stim/wavs/peruvian_mismatch_declarative-narrow-focus_Mi-tia-odia-la-lluvia.wav,./stim/wavs/puertorican_mismatch_declarative-narrow-focus_Mi-tia-odia-la-lluvia.wav,,,,,,,,,,,,,,,,,,,,,,,,,,,,,,,,,,,,,,,,,,,,,,,,,,,,,,,,
,,,,,,,5f4580ba9ae79f195a9ece38,6057c54e64b0b4e5c128b4f9,60582ddc02c844287b4950aa,United States,Northeast,13 or older,no,2021-03-22_01h45.19.752,empathy_intonation_perc,2020.2.10,MacIntel,60,,,,,,,,,,0,cuban,0,1,1.7471,0,29,29,46,1,47,./stim/wavs/andalusian_mismatch_declarative-narrow-focus_Mi-novio-viene-del-lago.wav,./stim/wavs/argentine_mismatch_declarative-narrow-focus_Mi-novio-viene-del-lago.wav,./stim/wavs/castilian_mismatch_declarative-narrow-focus_Mi-novio-viene-del-lago.wav,./stim/wavs/chilean_mismatch_declarative-narrow-focus_Mi-novio-viene-del-lago.wav,./stim/wavs/cuban_mismatch_declarative-narrow-focus_Mi-novio-viene-del-lago.wav,./stim/wavs/mexican_mismatch_declarative-narrow-focus_Mi-novio-viene-del-lago.wav,./stim/wavs/peruvian_mismatch_declarative-narrow-focus_Mi-novio-viene-del-lago.wav,./stim/wavs/puertorican_mismatch_declarative-narrow-focus_Mi-novio-viene-del-lago.wav,,,,,,,,,,,,,,,,,,,,,,,,,,,,,,,,,,,,,,,,,,,,,,,,,,,,,,,,
,,,,,,,5f4580ba9ae79f195a9ece38,6057c54e64b0b4e5c128b4f9,60582ddc02c844287b4950aa,United States,Northeast,13 or older,no,2021-03-22_01h45.19.752,empathy_intonation_perc,2020.2.10,MacIntel,60,,,,,,,,,,0,puertorican,0,1,2.01612,0,30,30,0,1,1,./stim/wavs/andalusian_match_declarative-broad-focus_Ana-lleva-el-abrigo.wav,./stim/wavs/argentine_match_declarative-broad-focus_Ana-lleva-el-abrigo.wav,./stim/wavs/castilian_match_declarative-broad-focus_Ana-lleva-el-abrigo.wav,./stim/wavs/chilean_match_declarative-broad-focus_Ana-lleva-el-abrigo.wav,./stim/wavs/cuban_match_declarative-broad-focus_Ana-lleva-el-abrigo.wav,./stim/wavs/mexican_match_declarative-broad-focus_Ana-lleva-el-abrigo.wav,./stim/wavs/peruvian_match_declarative-broad-focus_Ana-lleva-el-abrigo.wav,./stim/wavs/puertorican_match_declarative-broad-focus_Ana-lleva-el-abrigo.wav,,,,,,,,,,,,,,,,,,,,,,,,,,,,,,,,,,,,,,,,,,,,,,,,,,,,,,,,
,,,,,,,5f4580ba9ae79f195a9ece38,6057c54e64b0b4e5c128b4f9,60582ddc02c844287b4950aa,United States,Northeast,13 or older,no,2021-03-22_01h45.19.752,empathy_intonation_perc,2020.2.10,MacIntel,60,,,,,,,,,,0,castilian,0,1,1.8208,0,31,31,34,1,35,./stim/wavs/andalusian_mismatch_declarative-broad-focus_El-nino-oye-el-rio.wav,./stim/wavs/argentine_mismatch_declarative-broad-focus_El-nino-oye-el-rio.wav,./stim/wavs/castilian_mismatch_declarative-broad-focus_El-nino-oye-el-rio.wav,./stim/wavs/chilean_mismatch_declarative-broad-focus_El-nino-oye-el-rio.wav,./stim/wavs/cuban_mismatch_declarative-broad-focus_El-nino-oye-el-rio.wav,./stim/wavs/mexican_mismatch_declarative-broad-focus_El-nino-oye-el-rio.wav,./stim/wavs/peruvian_mismatch_declarative-broad-focus_El-nino-oye-el-rio.wav,./stim/wavs/puertorican_mismatch_declarative-broad-focus_El-nino-oye-el-rio.wav,,,,,,,,,,,,,,,,,,,,,,,,,,,,,,,,,,,,,,,,,,,,,,,,,,,,,,,,
,,,,,,,5f4580ba9ae79f195a9ece38,6057c54e64b0b4e5c128b4f9,60582ddc02c844287b4950aa,United States,Northeast,13 or older,no,2021-03-22_01h45.19.752,empathy_intonation_perc,2020.2.10,MacIntel,60,,,,,,,,,,1,puertorican,0,0,1.669105,0,32,32,55,1,56,./stim/wavs/andalusian_mismatch_interrogative-partial-wh_Por-que-vivia-en-Paris.wav,./stim/wavs/argentine_mismatch_interrogative-partial-wh_Por-que-vivia-en-Paris.wav,./stim/wavs/castilian_mismatch_interrogative-partial-wh_Por-que-vivia-en-Paris.wav,./stim/wavs/chilean_mismatch_interrogative-partial-wh_Por-que-vivia-en-Paris.wav,./stim/wavs/cuban_mismatch_interrogative-partial-wh_Por-que-vivia-en-Paris.wav,./stim/wavs/mexican_mismatch_interrogative-partial-wh_Por-que-vivia-en-Paris.wav,./stim/wavs/peruvian_mismatch_interrogative-partial-wh_Por-que-vivia-en-Paris.wav,./stim/wavs/puertorican_mismatch_interrogative-partial-wh_Por-que-vivia-en-Paris.wav,,,,,,,,,,,,,,,,,,,,,,,,,,,,,,,,,,,,,,,,,,,,,,,,,,,,,,,,
,,,,,,,5f4580ba9ae79f195a9ece38,6057c54e64b0b4e5c128b4f9,60582ddc02c844287b4950aa,United States,Northeast,13 or older,no,2021-03-22_01h45.19.752,empathy_intonation_perc,2020.2.10,MacIntel,60,,,,,,,,,,0,castilian,0,1,2.125955,0,33,33,36,1,37,./stim/wavs/andalusian_mismatch_declarative-broad-focus_La-nina-lava-el-plato.wav,./stim/wavs/argentine_mismatch_declarative-broad-focus_La-nina-lava-el-plato.wav,./stim/wavs/castilian_mismatch_declarative-broad-focus_La-nina-lava-el-plato.wav,./stim/wavs/chilean_mismatch_declarative-broad-focus_La-nina-lava-el-plato.wav,./stim/wavs/cuban_mismatch_declarative-broad-focus_La-nina-lava-el-plato.wav,./stim/wavs/mexican_mismatch_declarative-broad-focus_La-nina-lava-el-plato.wav,./stim/wavs/peruvian_mismatch_declarative-broad-focus_La-nina-lava-el-plato.wav,./stim/wavs/puertorican_mismatch_declarative-broad-focus_La-nina-lava-el-plato.wav,,,,,,,,,,,,,,,,,,,,,,,,,,,,,,,,,,,,,,,,,,,,,,,,,,,,,,,,
,,,,,,,5f4580ba9ae79f195a9ece38,6057c54e64b0b4e5c128b4f9,60582ddc02c844287b4950aa,United States,Northeast,13 or older,no,2021-03-22_01h45.19.752,empathy_intonation_perc,2020.2.10,MacIntel,60,,,,,,,,,,1,andalusian,1,1,2.379225,0,34,34,60,1,61,./stim/wavs/andalusian_mismatch_interrogative-total-yn_La-nina-lava-el-plato.wav,./stim/wavs/argentine_mismatch_interrogative-total-yn_La-nina-lava-el-plato.wav,./stim/wavs/castilian_mismatch_interrogative-total-yn_La-nina-lava-el-plato.wav,./stim/wavs/chilean_mismatch_interrogative-total-yn_La-nina-lava-el-plato.wav,./stim/wavs/cuban_mismatch_interrogative-total-yn_La-nina-lava-el-plato.wav,./stim/wavs/mexican_mismatch_interrogative-total-yn_La-nina-lava-el-plato.wav,./stim/wavs/peruvian_mismatch_interrogative-total-yn_La-nina-lava-el-plato.wav,./stim/wavs/puertorican_mismatch_interrogative-total-yn_La-nina-lava-el-plato.wav,,,,,,,,,,,,,,,,,,,,,,,,,,,,,,,,,,,,,,,,,,,,,,,,,,,,,,,,
,,,,,,,5f4580ba9ae79f195a9ece38,6057c54e64b0b4e5c128b4f9,60582ddc02c844287b4950aa,United States,Northeast,13 or older,no,2021-03-22_01h45.19.752,empathy_intonation_perc,2020.2.10,MacIntel,60,,,,,,,,,,0,andalusian,1,0,2.1758,0,35,35,10,1,11,./stim/wavs/andalusian_match_declarative-narrow-focus_David-leia-el-libro.wav,./stim/wavs/argentine_match_declarative-narrow-focus_David-leia-el-libro.wav,./stim/wavs/castilian_match_declarative-narrow-focus_David-leia-el-libro.wav,./stim/wavs/chilean_match_declarative-narrow-focus_David-leia-el-libro.wav,./stim/wavs/cuban_match_declarative-narrow-focus_David-leia-el-libro.wav,./stim/wavs/mexican_match_declarative-narrow-focus_David-leia-el-libro.wav,./stim/wavs/peruvian_match_declarative-narrow-focus_David-leia-el-libro.wav,./stim/wavs/puertorican_match_declarative-narrow-focus_David-leia-el-libro.wav,,,,,,,,,,,,,,,,,,,,,,,,,,,,,,,,,,,,,,,,,,,,,,,,,,,,,,,,
,,,,,,,5f4580ba9ae79f195a9ece38,6057c54e64b0b4e5c128b4f9,60582ddc02c844287b4950aa,United States,Northeast,13 or older,no,2021-03-22_01h45.19.752,empathy_intonation_perc,2020.2.10,MacIntel,60,,,,,,,,,,0,puertorican,0,1,3.34131,0,36,36,45,1,46,./stim/wavs/andalusian_mismatch_declarative-narrow-focus_Mi-madre-come-la-fruta.wav,./stim/wavs/argentine_mismatch_declarative-narrow-focus_Mi-madre-come-la-fruta.wav,./stim/wavs/castilian_mismatch_declarative-narrow-focus_Mi-madre-come-la-fruta.wav,./stim/wavs/chilean_mismatch_declarative-narrow-focus_Mi-madre-come-la-fruta.wav,./stim/wavs/cuban_mismatch_declarative-narrow-focus_Mi-madre-come-la-fruta.wav,./stim/wavs/mexican_mismatch_declarative-narrow-focus_Mi-madre-come-la-fruta.wav,./stim/wavs/peruvian_mismatch_declarative-narrow-focus_Mi-madre-come-la-fruta.wav,./stim/wavs/puertorican_mismatch_declarative-narrow-focus_Mi-madre-come-la-fruta.wav,,,,,,,,,,,,,,,,,,,,,,,,,,,,,,,,,,,,,,,,,,,,,,,,,,,,,,,,
,,,,,,,5f4580ba9ae79f195a9ece38,6057c54e64b0b4e5c128b4f9,60582ddc02c844287b4950aa,United States,Northeast,13 or older,no,2021-03-22_01h45.19.752,empathy_intonation_perc,2020.2.10,MacIntel,60,,,,,,,,,,1,argentine,0,0,3.037245,0,37,37,20,1,21,./stim/wavs/andalusian_match_interrogative-partial-wh_Por-que-abre-el-regalo.wav,./stim/wavs/argentine_match_interrogative-partial-wh_Por-que-abre-el-regalo.wav,./stim/wavs/castilian_match_interrogative-partial-wh_Por-que-abre-el-regalo.wav,./stim/wavs/chilean_match_interrogative-partial-wh_Por-que-abre-el-regalo.wav,./stim/wavs/cuban_match_interrogative-partial-wh_Por-que-abre-el-regalo.wav,./stim/wavs/mexican_match_interrogative-partial-wh_Por-que-abre-el-regalo.wav,./stim/wavs/peruvian_match_interrogative-partial-wh_Por-que-abre-el-regalo.wav,./stim/wavs/puertorican_match_interrogative-partial-wh_Por-que-abre-el-regalo.wav,,,,,,,,,,,,,,,,,,,,,,,,,,,,,,,,,,,,,,,,,,,,,,,,,,,,,,,,
,,,,,,,5f4580ba9ae79f195a9ece38,6057c54e64b0b4e5c128b4f9,60582ddc02c844287b4950aa,United States,Northeast,13 or older,no,2021-03-22_01h45.19.752,empathy_intonation_perc,2020.2.10,MacIntel,60,,,,,,,,,,1,puertorican,1,1,2.581475,0,38,38,25,1,26,./stim/wavs/andalusian_match_interrogative-total-yn_Daniel-iba-a-Bolivia.wav,./stim/wavs/argentine_match_interrogative-total-yn_Daniel-iba-a-Bolivia.wav,./stim/wavs/castilian_match_interrogative-total-yn_Daniel-iba-a-Bolivia.wav,./stim/wavs/chilean_match_interrogative-total-yn_Daniel-iba-a-Bolivia.wav,./stim/wavs/cuban_match_interrogative-total-yn_Daniel-iba-a-Bolivia.wav,./stim/wavs/mexican_match_interrogative-total-yn_Daniel-iba-a-Bolivia.wav,./stim/wavs/peruvian_match_interrogative-total-yn_Daniel-iba-a-Bolivia.wav,./stim/wavs/puertorican_match_interrogative-total-yn_Daniel-iba-a-Bolivia.wav,,,,,,,,,,,,,,,,,,,,,,,,,,,,,,,,,,,,,,,,,,,,,,,,,,,,,,,,
,,,,,,,5f4580ba9ae79f195a9ece38,6057c54e64b0b4e5c128b4f9,60582ddc02c844287b4950aa,United States,Northeast,13 or older,no,2021-03-22_01h45.19.752,empathy_intonation_perc,2020.2.10,MacIntel,60,,,,,,,,,,0,peruvian,0,1,2.64631,0,39,39,2,1,3,./stim/wavs/andalusian_match_declarative-broad-focus_David-leia-el-libro.wav,./stim/wavs/argentine_match_declarative-broad-focus_David-leia-el-libro.wav,./stim/wavs/castilian_match_declarative-broad-focus_David-leia-el-libro.wav,./stim/wavs/chilean_match_declarative-broad-focus_David-leia-el-libro.wav,./stim/wavs/cuban_match_declarative-broad-focus_David-leia-el-libro.wav,./stim/wavs/mexican_match_declarative-broad-focus_David-leia-el-libro.wav,./stim/wavs/peruvian_match_declarative-broad-focus_David-leia-el-libro.wav,./stim/wavs/puertorican_match_declarative-broad-focus_David-leia-el-libro.wav,,,,,,,,,,,,,,,,,,,,,,,,,,,,,,,,,,,,,,,,,,,,,,,,,,,,,,,,
,,,,,,,5f4580ba9ae79f195a9ece38,6057c54e64b0b4e5c128b4f9,60582ddc02c844287b4950aa,United States,Northeast,13 or older,no,2021-03-22_01h45.19.752,empathy_intonation_perc,2020.2.10,MacIntel,60,,,,,,,,,,1,cuban,1,1,1.93615,0,40,40,50,1,51,./stim/wavs/andalusian_mismatch_interrogative-partial-wh_Cuando-miraba-la-luna.wav,./stim/wavs/argentine_mismatch_interrogative-partial-wh_Cuando-miraba-la-luna.wav,./stim/wavs/castilian_mismatch_interrogative-partial-wh_Cuando-miraba-la-luna.wav,./stim/wavs/chilean_mismatch_interrogative-partial-wh_Cuando-miraba-la-luna.wav,./stim/wavs/cuban_mismatch_interrogative-partial-wh_Cuando-miraba-la-luna.wav,./stim/wavs/mexican_mismatch_interrogative-partial-wh_Cuando-miraba-la-luna.wav,./stim/wavs/peruvian_mismatch_interrogative-partial-wh_Cuando-miraba-la-luna.wav,./stim/wavs/puertorican_mismatch_interrogative-partial-wh_Cuando-miraba-la-luna.wav,,,,,,,,,,,,,,,,,,,,,,,,,,,,,,,,,,,,,,,,,,,,,,,,,,,,,,,,
,,,,,,,5f4580ba9ae79f195a9ece38,6057c54e64b0b4e5c128b4f9,60582ddc02c844287b4950aa,United States,Northeast,13 or older,no,2021-03-22_01h45.19.752,empathy_intonation_perc,2020.2.10,MacIntel,60,,,,,,,,,,0,puertorican,0,1,1.5882,0,41,41,43,1,44,./stim/wavs/andalusian_mismatch_declarative-narrow-focus_La-maestra-vive-en-Paris.wav,./stim/wavs/argentine_mismatch_declarative-narrow-focus_La-maestra-vive-en-Paris.wav,./stim/wavs/castilian_mismatch_declarative-narrow-focus_La-maestra-vive-en-Paris.wav,./stim/wavs/chilean_mismatch_declarative-narrow-focus_La-maestra-vive-en-Paris.wav,./stim/wavs/cuban_mismatch_declarative-narrow-focus_La-maestra-vive-en-Paris.wav,./stim/wavs/mexican_mismatch_declarative-narrow-focus_La-maestra-vive-en-Paris.wav,./stim/wavs/peruvian_mismatch_declarative-narrow-focus_La-maestra-vive-en-Paris.wav,./stim/wavs/puertorican_mismatch_declarative-narrow-focus_La-maestra-vive-en-Paris.wav,,,,,,,,,,,,,,,,,,,,,,,,,,,,,,,,,,,,,,,,,,,,,,,,,,,,,,,,
,,,,,,,5f4580ba9ae79f195a9ece38,6057c54e64b0b4e5c128b4f9,60582ddc02c844287b4950aa,United States,Northeast,13 or older,no,2021-03-22_01h45.19.752,empathy_intonation_perc,2020.2.10,MacIntel,60,,,,,,,,,,0,puertorican,0,1,2.24789,0,42,42,7,1,8,./stim/wavs/andalusian_match_declarative-broad-focus_Marta-abre-el-regalo.wav,./stim/wavs/argentine_match_declarative-broad-focus_Marta-abre-el-regalo.wav,./stim/wavs/castilian_match_declarative-broad-focus_Marta-abre-el-regalo.wav,./stim/wavs/chilean_match_declarative-broad-focus_Marta-abre-el-regalo.wav,./stim/wavs/cuban_match_declarative-broad-focus_Marta-abre-el-regalo.wav,./stim/wavs/mexican_match_declarative-broad-focus_Marta-abre-el-regalo.wav,./stim/wavs/peruvian_match_declarative-broad-focus_Marta-abre-el-regalo.wav,./stim/wavs/puertorican_match_declarative-broad-focus_Marta-abre-el-regalo.wav,,,,,,,,,,,,,,,,,,,,,,,,,,,,,,,,,,,,,,,,,,,,,,,,,,,,,,,,
,,,,,,,5f4580ba9ae79f195a9ece38,6057c54e64b0b4e5c128b4f9,60582ddc02c844287b4950aa,United States,Northeast,13 or older,no,2021-03-22_01h45.19.752,empathy_intonation_perc,2020.2.10,MacIntel,60,,,,,,,,,,0,peruvian,0,1,1.964525,0,43,43,8,1,9,./stim/wavs/andalusian_match_declarative-narrow-focus_Ana-lleva-el-abrigo.wav,./stim/wavs/argentine_match_declarative-narrow-focus_Ana-lleva-el-abrigo.wav,./stim/wavs/castilian_match_declarative-narrow-focus_Ana-lleva-el-abrigo.wav,./stim/wavs/chilean_match_declarative-narrow-focus_Ana-lleva-el-abrigo.wav,./stim/wavs/cuban_match_declarative-narrow-focus_Ana-lleva-el-abrigo.wav,./stim/wavs/mexican_match_declarative-narrow-focus_Ana-lleva-el-abrigo.wav,./stim/wavs/peruvian_match_declarative-narrow-focus_Ana-lleva-el-abrigo.wav,./stim/wavs/puertorican_match_declarative-narrow-focus_Ana-lleva-el-abrigo.wav,,,,,,,,,,,,,,,,,,,,,,,,,,,,,,,,,,,,,,,,,,,,,,,,,,,,,,,,
,,,,,,,5f4580ba9ae79f195a9ece38,6057c54e64b0b4e5c128b4f9,60582ddc02c844287b4950aa,United States,Northeast,13 or older,no,2021-03-22_01h45.19.752,empathy_intonation_perc,2020.2.10,MacIntel,60,,,,,,,,,,0,cuban,0,1,1.703555,0,44,44,11,1,12,./stim/wavs/andalusian_match_declarative-narrow-focus_Emilio-ama-la-marcha.wav,./stim/wavs/argentine_match_declarative-narrow-focus_Emilio-ama-la-marcha.wav,./stim/wavs/castilian_match_declarative-narrow-focus_Emilio-ama-la-marcha.wav,./stim/wavs/chilean_match_declarative-narrow-focus_Emilio-ama-la-marcha.wav,./stim/wavs/cuban_match_declarative-narrow-focus_Emilio-ama-la-marcha.wav,./stim/wavs/mexican_match_declarative-narrow-focus_Emilio-ama-la-marcha.wav,./stim/wavs/peruvian_match_declarative-narrow-focus_Emilio-ama-la-marcha.wav,./stim/wavs/puertorican_match_declarative-narrow-focus_Emilio-ama-la-marcha.wav,,,,,,,,,,,,,,,,,,,,,,,,,,,,,,,,,,,,,,,,,,,,,,,,,,,,,,,,
,,,,,,,5f4580ba9ae79f195a9ece38,6057c54e64b0b4e5c128b4f9,60582ddc02c844287b4950aa,United States,Northeast,13 or older,no,2021-03-22_01h45.19.752,empathy_intonation_perc,2020.2.10,MacIntel,60,,,,,,,,,,0,peruvian,0,1,2.90229,0,45,45,40,1,41,./stim/wavs/andalusian_mismatch_declarative-narrow-focus_El-bebe-comia-muy-bien.wav,./stim/wavs/argentine_mismatch_declarative-narrow-focus_El-bebe-comia-muy-bien.wav,./stim/wavs/castilian_mismatch_declarative-narrow-focus_El-bebe-comia-muy-bien.wav,./stim/wavs/chilean_mismatch_declarative-narrow-focus_El-bebe-comia-muy-bien.wav,./stim/wavs/cuban_mismatch_declarative-narrow-focus_El-bebe-comia-muy-bien.wav,./stim/wavs/mexican_mismatch_declarative-narrow-focus_El-bebe-comia-muy-bien.wav,./stim/wavs/peruvian_mismatch_declarative-narrow-focus_El-bebe-comia-muy-bien.wav,./stim/wavs/puertorican_mismatch_declarative-narrow-focus_El-bebe-comia-muy-bien.wav,,,,,,,,,,,,,,,,,,,,,,,,,,,,,,,,,,,,,,,,,,,,,,,,,,,,,,,,
,,,,,,,5f4580ba9ae79f195a9ece38,6057c54e64b0b4e5c128b4f9,60582ddc02c844287b4950aa,United States,Northeast,13 or older,no,2021-03-22_01h45.19.752,empathy_intonation_perc,2020.2.10,MacIntel,60,,,,,,,,,,1,cuban,1,1,2.151345,0,46,46,59,1,60,./stim/wavs/andalusian_mismatch_interrogative-total-yn_La-maestra-vive-en-Paris.wav,./stim/wavs/argentine_mismatch_interrogative-total-yn_La-maestra-vive-en-Paris.wav,./stim/wavs/castilian_mismatch_interrogative-total-yn_La-maestra-vive-en-Paris.wav,./stim/wavs/chilean_mismatch_interrogative-total-yn_La-maestra-vive-en-Paris.wav,./stim/wavs/cuban_mismatch_interrogative-total-yn_La-maestra-vive-en-Paris.wav,./stim/wavs/mexican_mismatch_interrogative-total-yn_La-maestra-vive-en-Paris.wav,./stim/wavs/peruvian_mismatch_interrogative-total-yn_La-maestra-vive-en-Paris.wav,./stim/wavs/puertorican_mismatch_interrogative-total-yn_La-maestra-vive-en-Paris.wav,,,,,,,,,,,,,,,,,,,,,,,,,,,,,,,,,,,,,,,,,,,,,,,,,,,,,,,,
,,,,,,,5f4580ba9ae79f195a9ece38,6057c54e64b0b4e5c128b4f9,60582ddc02c844287b4950aa,United States,Northeast,13 or older,no,2021-03-22_01h45.19.752,empathy_intonation_perc,2020.2.10,MacIntel,60,,,,,,,,,,1,puertorican,1,1,2.18197,0,47,47,63,1,64,./stim/wavs/andalusian_mismatch_interrogative-total-yn_Mi-tia-odia-la-lluvia.wav,./stim/wavs/argentine_mismatch_interrogative-total-yn_Mi-tia-odia-la-lluvia.wav,./stim/wavs/castilian_mismatch_interrogative-total-yn_Mi-tia-odia-la-lluvia.wav,./stim/wavs/chilean_mismatch_interrogative-total-yn_Mi-tia-odia-la-lluvia.wav,./stim/wavs/cuban_mismatch_interrogative-total-yn_Mi-tia-odia-la-lluvia.wav,./stim/wavs/mexican_mismatch_interrogative-total-yn_Mi-tia-odia-la-lluvia.wav,./stim/wavs/peruvian_mismatch_interrogative-total-yn_Mi-tia-odia-la-lluvia.wav,./stim/wavs/puertorican_mismatch_interrogative-total-yn_Mi-tia-odia-la-lluvia.wav,,,,,,,,,,,,,,,,,,,,,,,,,,,,,,,,,,,,,,,,,,,,,,,,,,,,,,,,
,,,,,,,5f4580ba9ae79f195a9ece38,6057c54e64b0b4e5c128b4f9,60582ddc02c844287b4950aa,United States,Northeast,13 or older,no,2021-03-22_01h45.19.752,empathy_intonation_perc,2020.2.10,MacIntel,60,,,,,,,,,,1,puertorican,1,1,1.95464,0,48,48,51,1,52,./stim/wavs/andalusian_mismatch_interrogative-partial-wh_Por-que-desayuna-muy-bien.wav,./stim/wavs/argentine_mismatch_interrogative-partial-wh_Por-que-desayuna-muy-bien.wav,./stim/wavs/castilian_mismatch_interrogative-partial-wh_Por-que-desayuna-muy-bien.wav,./stim/wavs/chilean_mismatch_interrogative-partial-wh_Por-que-desayuna-muy-bien.wav,./stim/wavs/cuban_mismatch_interrogative-partial-wh_Por-que-desayuna-muy-bien.wav,./stim/wavs/mexican_mismatch_interrogative-partial-wh_Por-que-desayuna-muy-bien.wav,./stim/wavs/peruvian_mismatch_interrogative-partial-wh_Por-que-desayuna-muy-bien.wav,./stim/wavs/puertorican_mismatch_interrogative-partial-wh_Por-que-desayuna-muy-bien.wav,,,,,,,,,,,,,,,,,,,,,,,,,,,,,,,,,,,,,,,,,,,,,,,,,,,,,,,,
,,,,,,,5f4580ba9ae79f195a9ece38,6057c54e64b0b4e5c128b4f9,60582ddc02c844287b4950aa,United States,Northeast,13 or older,no,2021-03-22_01h45.19.752,empathy_intonation_perc,2020.2.10,MacIntel,60,,,,,,,,,,1,mexican,1,1,1.976205,0,49,49,56,1,57,./stim/wavs/andalusian_mismatch_interrogative-total-yn_El-bebe-comia-muy-bien.wav,./stim/wavs/argentine_mismatch_interrogative-total-yn_El-bebe-comia-muy-bien.wav,./stim/wavs/castilian_mismatch_interrogative-total-yn_El-bebe-comia-muy-bien.wav,./stim/wavs/chilean_mismatch_interrogative-total-yn_El-bebe-comia-muy-bien.wav,./stim/wavs/cuban_mismatch_interrogative-total-yn_El-bebe-comia-muy-bien.wav,./stim/wavs/mexican_mismatch_interrogative-total-yn_El-bebe-comia-muy-bien.wav,./stim/wavs/peruvian_mismatch_interrogative-total-yn_El-bebe-comia-muy-bien.wav,./stim/wavs/puertorican_mismatch_interrogative-total-yn_El-bebe-comia-muy-bien.wav,,,,,,,,,,,,,,,,,,,,,,,,,,,,,,,,,,,,,,,,,,,,,,,,,,,,,,,,
,,,,,,,5f4580ba9ae79f195a9ece38,6057c54e64b0b4e5c128b4f9,60582ddc02c844287b4950aa,United States,Northeast,13 or older,no,2021-03-22_01h45.19.752,empathy_intonation_perc,2020.2.10,MacIntel,60,,,,,,,,,,0,peruvian,0,1,2.89458,0,50,50,33,1,34,./stim/wavs/andalusian_mismatch_declarative-broad-focus_El-hombre-mira-la-luna.wav,./stim/wavs/argentine_mismatch_declarative-broad-focus_El-hombre-mira-la-luna.wav,./stim/wavs/castilian_mismatch_declarative-broad-focus_El-hombre-mira-la-luna.wav,./stim/wavs/chilean_mismatch_declarative-broad-focus_El-hombre-mira-la-luna.wav,./stim/wavs/cuban_mismatch_declarative-broad-focus_El-hombre-mira-la-luna.wav,./stim/wavs/mexican_mismatch_declarative-broad-focus_El-hombre-mira-la-luna.wav,./stim/wavs/peruvian_mismatch_declarative-broad-focus_El-hombre-mira-la-luna.wav,./stim/wavs/puertorican_mismatch_declarative-broad-focus_El-hombre-mira-la-luna.wav,,,,,,,,,,,,,,,,,,,,,,,,,,,,,,,,,,,,,,,,,,,,,,,,,,,,,,,,
,,,,,,,5f4580ba9ae79f195a9ece38,6057c54e64b0b4e5c128b4f9,60582ddc02c844287b4950aa,United States,Northeast,13 or older,no,2021-03-22_01h45.19.752,empathy_intonation_perc,2020.2.10,MacIntel,60,,,,,,,,,,0,cuban,0,1,2.60285,0,51,51,39,1,40,./stim/wavs/andalusian_mismatch_declarative-broad-focus_Mi-tia-odia-la-lluvia.wav,./stim/wavs/argentine_mismatch_declarative-broad-focus_Mi-tia-odia-la-lluvia.wav,./stim/wavs/castilian_mismatch_declarative-broad-focus_Mi-tia-odia-la-lluvia.wav,./stim/wavs/chilean_mismatch_declarative-broad-focus_Mi-tia-odia-la-lluvia.wav,./stim/wavs/cuban_mismatch_declarative-broad-focus_Mi-tia-odia-la-lluvia.wav,./stim/wavs/mexican_mismatch_declarative-broad-focus_Mi-tia-odia-la-lluvia.wav,./stim/wavs/peruvian_mismatch_declarative-broad-focus_Mi-tia-odia-la-lluvia.wav,./stim/wavs/puertorican_mismatch_declarative-broad-focus_Mi-tia-odia-la-lluvia.wav,,,,,,,,,,,,,,,,,,,,,,,,,,,,,,,,,,,,,,,,,,,,,,,,,,,,,,,,
,,,,,,,5f4580ba9ae79f195a9ece38,6057c54e64b0b4e5c128b4f9,60582ddc02c844287b4950aa,United States,Northeast,13 or older,no,2021-03-22_01h45.19.752,empathy_intonation_perc,2020.2.10,MacIntel,60,,,,,,,,,,1,andalusian,1,1,2.229475,0,52,52,30,1,31,./stim/wavs/andalusian_match_interrogative-total-yn_Mariano-habla-del-tiempo.wav,./stim/wavs/argentine_match_interrogative-total-yn_Mariano-habla-del-tiempo.wav,./stim/wavs/castilian_match_interrogative-total-yn_Mariano-habla-del-tiempo.wav,./stim/wavs/chilean_match_interrogative-total-yn_Mariano-habla-del-tiempo.wav,./stim/wavs/cuban_match_interrogative-total-yn_Mariano-habla-del-tiempo.wav,./stim/wavs/mexican_match_interrogative-total-yn_Mariano-habla-del-tiempo.wav,./stim/wavs/peruvian_match_interrogative-total-yn_Mariano-habla-del-tiempo.wav,./stim/wavs/puertorican_match_interrogative-total-yn_Mariano-habla-del-tiempo.wav,,,,,,,,,,,,,,,,,,,,,,,,,,,,,,,,,,,,,,,,,,,,,,,,,,,,,,,,
,,,,,,,5f4580ba9ae79f195a9ece38,6057c54e64b0b4e5c128b4f9,60582ddc02c844287b4950aa,United States,Northeast,13 or older,no,2021-03-22_01h45.19.752,empathy_intonation_perc,2020.2.10,MacIntel,60,,,,,,,,,,0,cuban,0,1,2.791955,0,53,53,15,1,16,./stim/wavs/andalusian_match_declarative-narrow-focus_Marta-abre-el-regalo.wav,./stim/wavs/argentine_match_declarative-narrow-focus_Marta-abre-el-regalo.wav,./stim/wavs/castilian_match_declarative-narrow-focus_Marta-abre-el-regalo.wav,./stim/wavs/chilean_match_declarative-narrow-focus_Marta-abre-el-regalo.wav,./stim/wavs/cuban_match_declarative-narrow-focus_Marta-abre-el-regalo.wav,./stim/wavs/mexican_match_declarative-narrow-focus_Marta-abre-el-regalo.wav,./stim/wavs/peruvian_match_declarative-narrow-focus_Marta-abre-el-regalo.wav,./stim/wavs/puertorican_match_declarative-narrow-focus_Marta-abre-el-regalo.wav,,,,,,,,,,,,,,,,,,,,,,,,,,,,,,,,,,,,,,,,,,,,,,,,,,,,,,,,
,,,,,,,5f4580ba9ae79f195a9ece38,6057c54e64b0b4e5c128b4f9,60582ddc02c844287b4950aa,United States,Northeast,13 or older,no,2021-03-22_01h45.19.752,empathy_intonation_perc,2020.2.10,MacIntel,60,,,,,,,,,,1,peruvian,1,1,2.003115,0,54,54,19,1,20,./stim/wavs/andalusian_match_interrogative-partial-wh_Cuando-vendia-el-carro.wav,./stim/wavs/argentine_match_interrogative-partial-wh_Cuando-vendia-el-carro.wav,./stim/wavs/castilian_match_interrogative-partial-wh_Cuando-vendia-el-carro.wav,./stim/wavs/chilean_match_interrogative-partial-wh_Cuando-vendia-el-carro.wav,./stim/wavs/cuban_match_interrogative-partial-wh_Cuando-vendia-el-carro.wav,./stim/wavs/mexican_match_interrogative-partial-wh_Cuando-vendia-el-carro.wav,./stim/wavs/peruvian_match_interrogative-partial-wh_Cuando-vendia-el-carro.wav,./stim/wavs/puertorican_match_interrogative-partial-wh_Cuando-vendia-el-carro.wav,,,,,,,,,,,,,,,,,,,,,,,,,,,,,,,,,,,,,,,,,,,,,,,,,,,,,,,,
,,,,,,,5f4580ba9ae79f195a9ece38,6057c54e64b0b4e5c128b4f9,60582ddc02c844287b4950aa,United States,Northeast,13 or older,no,2021-03-22_01h45.19.752,empathy_intonation_perc,2020.2.10,MacIntel,60,,,,,,,,,,0,peruvian,0,1,1.86582,0,55,55,13,1,14,./stim/wavs/andalusian_match_declarative-narrow-focus_Maria-bebe-el-vino.wav,./stim/wavs/argentine_match_declarative-narrow-focus_Maria-bebe-el-vino.wav,./stim/wavs/castilian_match_declarative-narrow-focus_Maria-bebe-el-vino.wav,./stim/wavs/chilean_match_declarative-narrow-focus_Maria-bebe-el-vino.wav,./stim/wavs/cuban_match_declarative-narrow-focus_Maria-bebe-el-vino.wav,./stim/wavs/mexican_match_declarative-narrow-focus_Maria-bebe-el-vino.wav,./stim/wavs/peruvian_match_declarative-narrow-focus_Maria-bebe-el-vino.wav,./stim/wavs/puertorican_match_declarative-narrow-focus_Maria-bebe-el-vino.wav,,,,,,,,,,,,,,,,,,,,,,,,,,,,,,,,,,,,,,,,,,,,,,,,,,,,,,,,
,,,,,,,5f4580ba9ae79f195a9ece38,6057c54e64b0b4e5c128b4f9,60582ddc02c844287b4950aa,United States,Northeast,13 or older,no,2021-03-22_01h45.19.752,empathy_intonation_perc,2020.2.10,MacIntel,60,,,,,,,,,,1,andalusian,1,1,1.78962,0,56,56,18,1,19,./stim/wavs/andalusian_match_interrogative-partial-wh_Cuando-lleva-el-abrigo.wav,./stim/wavs/argentine_match_interrogative-partial-wh_Cuando-lleva-el-abrigo.wav,./stim/wavs/castilian_match_interrogative-partial-wh_Cuando-lleva-el-abrigo.wav,./stim/wavs/chilean_match_interrogative-partial-wh_Cuando-lleva-el-abrigo.wav,./stim/wavs/cuban_match_interrogative-partial-wh_Cuando-lleva-el-abrigo.wav,./stim/wavs/mexican_match_interrogative-partial-wh_Cuando-lleva-el-abrigo.wav,./stim/wavs/peruvian_match_interrogative-partial-wh_Cuando-lleva-el-abrigo.wav,./stim/wavs/puertorican_match_interrogative-partial-wh_Cuando-lleva-el-abrigo.wav,,,,,,,,,,,,,,,,,,,,,,,,,,,,,,,,,,,,,,,,,,,,,,,,,,,,,,,,
,,,,,,,5f4580ba9ae79f195a9ece38,6057c54e64b0b4e5c128b4f9,60582ddc02c844287b4950aa,United States,Northeast,13 or older,no,2021-03-22_01h45.19.752,empathy_intonation_perc,2020.2.10,MacIntel,60,,,,,,,,,,1,castilian,1,1,2.12785,0,57,57,17,1,18,./stim/wavs/andalusian_match_interrogative-partial-wh_Cuando-leia-el-libro.wav,./stim/wavs/argentine_match_interrogative-partial-wh_Cuando-leia-el-libro.wav,./stim/wavs/castilian_match_interrogative-partial-wh_Cuando-leia-el-libro.wav,./stim/wavs/chilean_match_interrogative-partial-wh_Cuando-leia-el-libro.wav,./stim/wavs/cuban_match_interrogative-partial-wh_Cuando-leia-el-libro.wav,./stim/wavs/mexican_match_interrogative-partial-wh_Cuando-leia-el-libro.wav,./stim/wavs/peruvian_match_interrogative-partial-wh_Cuando-leia-el-libro.wav,./stim/wavs/puertorican_match_interrogative-partial-wh_Cuando-leia-el-libro.wav,,,,,,,,,,,,,,,,,,,,,,,,,,,,,,,,,,,,,,,,,,,,,,,,,,,,,,,,
,,,,,,,5f4580ba9ae79f195a9ece38,6057c54e64b0b4e5c128b4f9,60582ddc02c844287b4950aa,United States,Northeast,13 or older,no,2021-03-22_01h45.19.752,empathy_intonation_perc,2020.2.10,MacIntel,60,,,,,,,,,,1,peruvian,1,1,2.169915,0,58,58,26,1,27,./stim/wavs/andalusian_match_interrogative-total-yn_David-leia-el-libro.wav,./stim/wavs/argentine_match_interrogative-total-yn_David-leia-el-libro.wav,./stim/wavs/castilian_match_interrogative-total-yn_David-leia-el-libro.wav,./stim/wavs/chilean_match_interrogative-total-yn_David-leia-el-libro.wav,./stim/wavs/cuban_match_interrogative-total-yn_David-leia-el-libro.wav,./stim/wavs/mexican_match_interrogative-total-yn_David-leia-el-libro.wav,./stim/wavs/peruvian_match_interrogative-total-yn_David-leia-el-libro.wav,./stim/wavs/puertorican_match_interrogative-total-yn_David-leia-el-libro.wav,,,,,,,,,,,,,,,,,,,,,,,,,,,,,,,,,,,,,,,,,,,,,,,,,,,,,,,,
,,,,,,,5f4580ba9ae79f195a9ece38,6057c54e64b0b4e5c128b4f9,60582ddc02c844287b4950aa,United States,Northeast,13 or older,no,2021-03-22_01h45.19.752,empathy_intonation_perc,2020.2.10,MacIntel,60,,,,,,,,,,1,castilian,1,1,2.151625,0,59,59,16,1,17,./stim/wavs/andalusian_match_interrogative-partial-wh_Cuando-bebia-el-vino.wav,./stim/wavs/argentine_match_interrogative-partial-wh_Cuando-bebia-el-vino.wav,./stim/wavs/castilian_match_interrogative-partial-wh_Cuando-bebia-el-vino.wav,./stim/wavs/chilean_match_interrogative-partial-wh_Cuando-bebia-el-vino.wav,./stim/wavs/cuban_match_interrogative-partial-wh_Cuando-bebia-el-vino.wav,./stim/wavs/mexican_match_interrogative-partial-wh_Cuando-bebia-el-vino.wav,./stim/wavs/peruvian_match_interrogative-partial-wh_Cuando-bebia-el-vino.wav,./stim/wavs/puertorican_match_interrogative-partial-wh_Cuando-bebia-el-vino.wav,,,,,,,,,,,,,,,,,,,,,,,,,,,,,,,,,,,,,,,,,,,,,,,,,,,,,,,,
,,,,,,,5f4580ba9ae79f195a9ece38,6057c54e64b0b4e5c128b4f9,60582ddc02c844287b4950aa,United States,Northeast,13 or older,no,2021-03-22_01h45.19.752,empathy_intonation_perc,2020.2.10,MacIntel,60,,,,,,,,,,0,mexican,0,1,3.175515,0,60,60,38,1,39,./stim/wavs/andalusian_mismatch_declarative-broad-focus_Mi-novio-viene-del-lago.wav,./stim/wavs/argentine_mismatch_declarative-broad-focus_Mi-novio-viene-del-lago.wav,./stim/wavs/castilian_mismatch_declarative-broad-focus_Mi-novio-viene-del-lago.wav,./stim/wavs/chilean_mismatch_declarative-broad-focus_Mi-novio-viene-del-lago.wav,./stim/wavs/cuban_mismatch_declarative-broad-focus_Mi-novio-viene-del-lago.wav,./stim/wavs/mexican_mismatch_declarative-broad-focus_Mi-novio-viene-del-lago.wav,./stim/wavs/peruvian_mismatch_declarative-broad-focus_Mi-novio-viene-del-lago.wav,./stim/wavs/puertorican_mismatch_declarative-broad-focus_Mi-novio-viene-del-lago.wav,,,,,,,,,,,,,,,,,,,,,,,,,,,,,,,,,,,,,,,,,,,,,,,,,,,,,,,,
,,,,,,,5f4580ba9ae79f195a9ece38,6057c54e64b0b4e5c128b4f9,60582ddc02c844287b4950aa,United States,Northeast,13 or older,no,2021-03-22_01h45.19.752,empathy_intonation_perc,2020.2.10,MacIntel,60,,,,,,,,,,0,castilian,0,1,3.010955,0,61,61,1,1,2,./stim/wavs/andalusian_match_declarative-broad-focus_Daniel-iba-a-Bolivia.wav,./stim/wavs/argentine_match_declarative-broad-focus_Daniel-iba-a-Bolivia.wav,./stim/wavs/castilian_match_declarative-broad-focus_Daniel-iba-a-Bolivia.wav,./stim/wavs/chilean_match_declarative-broad-focus_Daniel-iba-a-Bolivia.wav,./stim/wavs/cuban_match_declarative-broad-focus_Daniel-iba-a-Bolivia.wav,./stim/wavs/mexican_match_declarative-broad-focus_Daniel-iba-a-Bolivia.wav,./stim/wavs/peruvian_match_declarative-broad-focus_Daniel-iba-a-Bolivia.wav,./stim/wavs/puertorican_match_declarative-broad-focus_Daniel-iba-a-Bolivia.wav,,,,,,,,,,,,,,,,,,,,,,,,,,,,,,,,,,,,,,,,,,,,,,,,,,,,,,,,
,,,,,,,5f4580ba9ae79f195a9ece38,6057c54e64b0b4e5c128b4f9,60582ddc02c844287b4950aa,United States,Northeast,13 or older,no,2021-03-22_01h45.19.752,empathy_intonation_perc,2020.2.10,MacIntel,60,,,,,,,,,,1,argentine,0,0,2.46111,0,62,62,53,1,54,./stim/wavs/andalusian_mismatch_interrogative-partial-wh_Por-que-oia-el-rio.wav,./stim/wavs/argentine_mismatch_interrogative-partial-wh_Por-que-oia-el-rio.wav,./stim/wavs/castilian_mismatch_interrogative-partial-wh_Por-que-oia-el-rio.wav,./stim/wavs/chilean_mismatch_interrogative-partial-wh_Por-que-oia-el-rio.wav,./stim/wavs/cuban_mismatch_interrogative-partial-wh_Por-que-oia-el-rio.wav,./stim/wavs/mexican_mismatch_interrogative-partial-wh_Por-que-oia-el-rio.wav,./stim/wavs/peruvian_mismatch_interrogative-partial-wh_Por-que-oia-el-rio.wav,./stim/wavs/puertorican_mismatch_interrogative-partial-wh_Por-que-oia-el-rio.wav,,,,,,,,,,,,,,,,,,,,,,,,,,,,,,,,,,,,,,,,,,,,,,,,,,,,,,,,
,,,,,,,5f4580ba9ae79f195a9ece38,6057c54e64b0b4e5c128b4f9,60582ddc02c844287b4950aa,United States,Northeast,13 or older,no,2021-03-22_01h45.19.752,empathy_intonation_perc,2020.2.10,MacIntel,60,,,,,,,,,,1,chilean,1,1,1.650815,0,63,63,24,1,25,./stim/wavs/andalusian_match_interrogative-total-yn_Ana-lleva-el-abrigo.wav,./stim/wavs/argentine_match_interrogative-total-yn_Ana-lleva-el-abrigo.wav,./stim/wavs/castilian_match_interrogative-total-yn_Ana-lleva-el-abrigo.wav,./stim/wavs/chilean_match_interrogative-total-yn_Ana-lleva-el-abrigo.wav,./stim/wavs/cuban_match_interrogative-total-yn_Ana-lleva-el-abrigo.wav,./stim/wavs/mexican_match_interrogative-total-yn_Ana-lleva-el-abrigo.wav,./stim/wavs/peruvian_match_interrogative-total-yn_Ana-lleva-el-abrigo.wav,./stim/wavs/puertorican_match_interrogative-total-yn_Ana-lleva-el-abrigo.wav,,,,,,,,,,,,,,,,,,,,,,,,,,,,,,,,,,,,,,,,,,,,,,,,,,,,,,,,
,,,,,,,5f4580ba9ae79f195a9ece38,6057c54e64b0b4e5c128b4f9,60582ddc02c844287b4950aa,United States,Northeast,13 or older,no,2021-03-22_01h45.19.752,empathy_intonation_perc,2020.2.10,MacIntel,60,,,,,,,,,,,,,,,,,,,,,,,,,,,,,h,1,20.91979,0,0,0,0,1,,,,,,,,,,,,,,,,,,,,,,,,,,,,,,,,,,,,,,,,,,,,,,,,
,,,,,"Great! Now we will move on. The next task consists of about 60 trials, in each of which you will see a string of letters. 
  
  Your task is to decide whether this is a real Spanish word or not.",(press the spacebar to continue),5f4580ba9ae79f195a9ece38,6057c54e64b0b4e5c128b4f9,60582ddc02c844287b4950aa,United States,Northeast,13 or older,no,2021-03-22_01h45.19.752,empathy_intonation_perc,2020.2.10,MacIntel,60,,,,,,,,,,,,,,,,,,,,,,,,,,,,,,,,,,,,,0,0,0,0,1,,,,,,,,,,,,,,,,,,,,,,,,,,,,,,,,,,,,,,,,,,,
,,,,,"If you think it is an existing Spanish word, you type '1' (for 'REAL'), and if you think it is not an existing Spanish word, you type '0' (for 'FAKE').",(press the spacebar to continue),5f4580ba9ae79f195a9ece38,6057c54e64b0b4e5c128b4f9,60582ddc02c844287b4950aa,United States,Northeast,13 or older,no,2021-03-22_01h45.19.752,empathy_intonation_perc,2020.2.10,MacIntel,60,,,,,,,,,,,,,,,,,,,,,,,,,,,,,,,,,,,,,0,1,1,1,1,,,,,,,,,,,,,,,,,,,,,,,,,,,,,,,,,,,,,,,,,,,
,,,,,"If you are sure that the word exists, even though you dont know its exact meaning, you may still respond '1' (REAL). 
  
  But if you are not sure if it is an existing word, you should respond '0' (FAKE).
  
  Let's do a practice round...",(press the spacebar to continue),5f4580ba9ae79f195a9ece38,6057c54e64b0b4e5c128b4f9,60582ddc02c844287b4950aa,United States,Northeast,13 or older,no,2021-03-22_01h45.19.752,empathy_intonation_perc,2020.2.10,MacIntel,60,,,,,,,,,,,,,,,,,,,,,,,,,,,,,,,,,,,,,0,2,2,2,1,,,,,,,,,,,,,,,,,,,,,,,,,,,,,,,,,,,,,,,,,,,
,,,,,,,5f4580ba9ae79f195a9ece38,6057c54e64b0b4e5c128b4f9,60582ddc02c844287b4950aa,United States,Northeast,13 or older,no,2021-03-22_01h45.19.752,empathy_intonation_perc,2020.2.10,MacIntel,60,,,,,,,,,,0,,,,,,,,,,,,,,,,,,,,,,,,,,,,,,,,1,0,9.99121,0,0,0,0,1,0,depiste,REAL,FAKE,,,,,,,,,,,,,,,,,,,,,,,,,,,,,,,
,,,,,,,5f4580ba9ae79f195a9ece38,6057c54e64b0b4e5c128b4f9,60582ddc02c844287b4950aa,United States,Northeast,13 or older,no,2021-03-22_01h45.19.752,empathy_intonation_perc,2020.2.10,MacIntel,60,,,,,,,,,,1,,,,,,,,,,,,,,,,,,,,,,,,,,,,,,,,1,1,7.0259,0,1,1,1,1,0,s,REAL,FAKE,,,,,,,,,,,,,,,,,,,,,,,,,,,,,,,
,,,,,,,5f4580ba9ae79f195a9ece38,6057c54e64b0b4e5c128b4f9,60582ddc02c844287b4950aa,United States,Northeast,13 or older,no,2021-03-22_01h45.19.752,empathy_intonation_perc,2020.2.10,MacIntel,60,,,,,,,,,,0,,,,,,,,,,,,,,,,,,,,,,,,,,,,,,,,0,1,6.86222,0,2,2,2,1,0,con,REAL,FAKE,,,,,,,,,,,,,,,,,,,,,,,,,,,,,,,
,,,,,,,5f4580ba9ae79f195a9ece38,6057c54e64b0b4e5c128b4f9,60582ddc02c844287b4950aa,United States,Northeast,13 or older,no,2021-03-22_01h45.19.752,empathy_intonation_perc,2020.2.10,MacIntel,60,,,,,,,,,,0,,,,,,,,,,,,,,,,,,,,,,,,,,,,,,,,0,1,2.35038,0,3,3,3,1,0,calpar,REAL,FAKE,,,,,,,,,,,,,,,,,,,,,,,,,,,,,,,
,,,,,,,5f4580ba9ae79f195a9ece38,6057c54e64b0b4e5c128b4f9,60582ddc02c844287b4950aa,United States,Northeast,13 or older,no,2021-03-22_01h45.19.752,empathy_intonation_perc,2020.2.10,MacIntel,60,,,,,,,,,,0,,,,,,,,,,,,,,,,,,,,,,,,,,,,,,,,0,1,13.6322,0,4,4,4,1,0,joten,REAL,FAKE,,,,,,,,,,,,,,,,,,,,,,,,,,,,,,,
,,,,,,,5f4580ba9ae79f195a9ece38,6057c54e64b0b4e5c128b4f9,60582ddc02c844287b4950aa,United States,Northeast,13 or older,no,2021-03-22_01h45.19.752,empathy_intonation_perc,2020.2.10,MacIntel,60,,,,,,,,,,1,,,,,,,,,,,,,,,,,,,,,,,,,,,,,,,,1,1,9.750325,0,5,5,5,1,0,sacapuntas,REAL,FAKE,,,,,,,,,,,,,,,,,,,,,,,,,,,,,,,
,,,,,,,5f4580ba9ae79f195a9ece38,6057c54e64b0b4e5c128b4f9,60582ddc02c844287b4950aa,United States,Northeast,13 or older,no,2021-03-22_01h45.19.752,empathy_intonation_perc,2020.2.10,MacIntel,60,,,,,,,,,,0,,,,,,,,,,,,,,,,,,,,,,,,,,,,,,,,0,1,6.058175,0,6,6,6,1,0,priba,REAL,FAKE,,,,,,,,,,,,,,,,,,,,,,,,,,,,,,,
,,,,,,,5f4580ba9ae79f195a9ece38,6057c54e64b0b4e5c128b4f9,60582ddc02c844287b4950aa,United States,Northeast,13 or older,no,2021-03-22_01h45.19.752,empathy_intonation_perc,2020.2.10,MacIntel,60,,,,,,,,,,0,,,,,,,,,,,,,,,,,,,,,,,,,,,,,,,,0,1,15.402545,0,7,7,7,1,0,pelasula,REAL,FAKE,,,,,,,,,,,,,,,,,,,,,,,,,,,,,,,
,,,,,,,5f4580ba9ae79f195a9ece38,6057c54e64b0b4e5c128b4f9,60582ddc02c844287b4950aa,United States,Northeast,13 or older,no,2021-03-22_01h45.19.752,empathy_intonation_perc,2020.2.10,MacIntel,60,,,,,,,,,,1,,,,,,,,,,,,,,,,,,,,,,,,,,,,,,,,1,1,2.182115,0,8,8,8,1,0,bien,REAL,FAKE,,,,,,,,,,,,,,,,,,,,,,,,,,,,,,,
,,,,,,,5f4580ba9ae79f195a9ece38,6057c54e64b0b4e5c128b4f9,60582ddc02c844287b4950aa,United States,Northeast,13 or older,no,2021-03-22_01h45.19.752,empathy_intonation_perc,2020.2.10,MacIntel,60,,,,,,,,,,1,,,,,,,,,,,,,,,,,,,,,,,,,,,,,,,,1,1,2.80091,0,9,9,9,1,0,casa,REAL,FAKE,,,,,,,,,,,,,,,,,,,,,,,,,,,,,,,
,,,,,,,5f4580ba9ae79f195a9ece38,6057c54e64b0b4e5c128b4f9,60582ddc02c844287b4950aa,United States,Northeast,13 or older,no,2021-03-22_01h45.19.752,empathy_intonation_perc,2020.2.10,MacIntel,60,,,,,,,,,,0,,,,,,,,,,,,,,,,,,,,,,,,,,,,,,,,1,0,4.518905,0,10,10,10,1,0,lejo,REAL,FAKE,,,,,,,,,,,,,,,,,,,,,,,,,,,,,,,
,,,,,,,5f4580ba9ae79f195a9ece38,6057c54e64b0b4e5c128b4f9,60582ddc02c844287b4950aa,United States,Northeast,13 or older,no,2021-03-22_01h45.19.752,empathy_intonation_perc,2020.2.10,MacIntel,60,,,,,,,,,,0,,,,,,,,,,,,,,,,,,,,,,,,,,,,,,,,0,1,14.807395,0,11,11,11,1,0,pretantas,REAL,FAKE,,,,,,,,,,,,,,,,,,,,,,,,,,,,,,,
,,,,,,,5f4580ba9ae79f195a9ece38,6057c54e64b0b4e5c128b4f9,60582ddc02c844287b4950aa,United States,Northeast,13 or older,no,2021-03-22_01h45.19.752,empathy_intonation_perc,2020.2.10,MacIntel,60,,,,,,,,,,0,,,,,,,,,,,,,,,,,,,,,,,,,,,,,,,,,,,,,,,,35,rompido,,,1,0,7.165585,0,0,0,34,1,REAL,FAKE,,,,,,,,,,,,,,,,,,,,,
,,,,,,,5f4580ba9ae79f195a9ece38,6057c54e64b0b4e5c128b4f9,60582ddc02c844287b4950aa,United States,Northeast,13 or older,no,2021-03-22_01h45.19.752,empathy_intonation_perc,2020.2.10,MacIntel,60,,,,,,,,,,1,,,,,,,,,,,,,,,,,,,,,,,,,,,,,,,,,,,,,,,,73,hervidor,,,1,1,6.561845,0,1,1,72,1,REAL,FAKE,,,,,,,,,,,,,,,,,,,,,
,,,,,,,5f4580ba9ae79f195a9ece38,6057c54e64b0b4e5c128b4f9,60582ddc02c844287b4950aa,United States,Northeast,13 or older,no,2021-03-22_01h45.19.752,empathy_intonation_perc,2020.2.10,MacIntel,60,,,,,,,,,,0,,,,,,,,,,,,,,,,,,,,,,,,,,,,,,,,,,,,,,,,72,pemicin,,,0,1,12.872565,0,2,2,71,1,REAL,FAKE,,,,,,,,,,,,,,,,,,,,,
,,,,,,,5f4580ba9ae79f195a9ece38,6057c54e64b0b4e5c128b4f9,60582ddc02c844287b4950aa,United States,Northeast,13 or older,no,2021-03-22_01h45.19.752,empathy_intonation_perc,2020.2.10,MacIntel,60,,,,,,,,,,1,,,,,,,,,,,,,,,,,,,,,,,,,,,,,,,,,,,,,,,,88,acantilado,,,1,1,9.661865,0,3,3,87,1,REAL,FAKE,,,,,,,,,,,,,,,,,,,,,
,,,,,,,5f4580ba9ae79f195a9ece38,6057c54e64b0b4e5c128b4f9,60582ddc02c844287b4950aa,United States,Northeast,13 or older,no,2021-03-22_01h45.19.752,empathy_intonation_perc,2020.2.10,MacIntel,60,,,,,,,,,,1,,,,,,,,,,,,,,,,,,,,,,,,,,,,,,,,,,,,,,,,48,ladrn,,,1,1,12.776445,0,4,4,47,1,REAL,FAKE,,,,,,,,,,,,,,,,,,,,,
,,,,,,,5f4580ba9ae79f195a9ece38,6057c54e64b0b4e5c128b4f9,60582ddc02c844287b4950aa,United States,Northeast,13 or older,no,2021-03-22_01h45.19.752,empathy_intonation_perc,2020.2.10,MacIntel,60,,,,,,,,,,1,,,,,,,,,,,,,,,,,,,,,,,,,,,,,,,,,,,,,,,,39,torpe,,,1,1,8.376345,0,5,5,38,1,REAL,FAKE,,,,,,,,,,,,,,,,,,,,,
,,,,,,,5f4580ba9ae79f195a9ece38,6057c54e64b0b4e5c128b4f9,60582ddc02c844287b4950aa,United States,Northeast,13 or older,no,2021-03-22_01h45.19.752,empathy_intonation_perc,2020.2.10,MacIntel,60,,,,,,,,,,1,,,,,,,,,,,,,,,,,,,,,,,,,,,,,,,,,,,,,,,,57,tacao,,,1,1,14.11997,0,6,6,56,1,REAL,FAKE,,,,,,,,,,,,,,,,,,,,,
,,,,,,,5f4580ba9ae79f195a9ece38,6057c54e64b0b4e5c128b4f9,60582ddc02c844287b4950aa,United States,Northeast,13 or older,no,2021-03-22_01h45.19.752,empathy_intonation_perc,2020.2.10,MacIntel,60,,,,,,,,,,1,,,,,,,,,,,,,,,,,,,,,,,,,,,,,,,,,,,,,,,,38,estornudar,,,1,1,10.651585,0,7,7,37,1,REAL,FAKE,,,,,,,,,,,,,,,,,,,,,
,,,,,,,5f4580ba9ae79f195a9ece38,6057c54e64b0b4e5c128b4f9,60582ddc02c844287b4950aa,United States,Northeast,13 or older,no,2021-03-22_01h45.19.752,empathy_intonation_perc,2020.2.10,MacIntel,60,,,,,,,,,,1,,,,,,,,,,,,,,,,,,,,,,,,,,,,,,,,,,,,,,,,52,camisa,,,1,1,5.79968,0,8,8,51,1,REAL,FAKE,,,,,,,,,,,,,,,,,,,,,
,,,,,,,5f4580ba9ae79f195a9ece38,6057c54e64b0b4e5c128b4f9,60582ddc02c844287b4950aa,United States,Northeast,13 or older,no,2021-03-22_01h45.19.752,empathy_intonation_perc,2020.2.10,MacIntel,60,,,,,,,,,,1,,,,,,,,,,,,,,,,,,,,,,,,,,,,,,,,,,,,,,,,61,seda,,,1,1,8.673725,0,9,9,60,1,REAL,FAKE,,,,,,,,,,,,,,,,,,,,,
,,,,,,,5f4580ba9ae79f195a9ece38,6057c54e64b0b4e5c128b4f9,60582ddc02c844287b4950aa,United States,Northeast,13 or older,no,2021-03-22_01h45.19.752,empathy_intonation_perc,2020.2.10,MacIntel,60,,,,,,,,,,1,,,,,,,,,,,,,,,,,,,,,,,,,,,,,,,,,,,,,,,,6,tergiversar,,,0,0,12.305655,0,10,10,5,1,REAL,FAKE,,,,,,,,,,,,,,,,,,,,,
,,,,,,,5f4580ba9ae79f195a9ece38,6057c54e64b0b4e5c128b4f9,60582ddc02c844287b4950aa,United States,Northeast,13 or older,no,2021-03-22_01h45.19.752,empathy_intonation_perc,2020.2.10,MacIntel,60,,,,,,,,,,1,,,,,,,,,,,,,,,,,,,,,,,,,,,,,,,,,,,,,,,,77,tiburn,,,1,1,8.850675,0,11,11,76,1,REAL,FAKE,,,,,,,,,,,,,,,,,,,,,
,,,,,,,5f4580ba9ae79f195a9ece38,6057c54e64b0b4e5c128b4f9,60582ddc02c844287b4950aa,United States,Northeast,13 or older,no,2021-03-22_01h45.19.752,empathy_intonation_perc,2020.2.10,MacIntel,60,,,,,,,,,,1,,,,,,,,,,,,,,,,,,,,,,,,,,,,,,,,,,,,,,,,54,fomentar,,,1,1,21.19258,0,12,12,53,1,REAL,FAKE,,,,,,,,,,,,,,,,,,,,,
,,,,,,,5f4580ba9ae79f195a9ece38,6057c54e64b0b4e5c128b4f9,60582ddc02c844287b4950aa,United States,Northeast,13 or older,no,2021-03-22_01h45.19.752,empathy_intonation_perc,2020.2.10,MacIntel,60,,,,,,,,,,1,,,,,,,,,,,,,,,,,,,,,,,,,,,,,,,,,,,,,,,,43,canela,,,1,1,8.15007,0,13,13,42,1,REAL,FAKE,,,,,,,,,,,,,,,,,,,,,
,,,,,,,5f4580ba9ae79f195a9ece38,6057c54e64b0b4e5c128b4f9,60582ddc02c844287b4950aa,United States,Northeast,13 or older,no,2021-03-22_01h45.19.752,empathy_intonation_perc,2020.2.10,MacIntel,60,,,,,,,,,,0,,,,,,,,,,,,,,,,,,,,,,,,,,,,,,,,,,,,,,,,32,fatacidad,,,1,0,13.40929,0,14,14,31,1,REAL,FAKE,,,,,,,,,,,,,,,,,,,,,
,,,,,,,5f4580ba9ae79f195a9ece38,6057c54e64b0b4e5c128b4f9,60582ddc02c844287b4950aa,United States,Northeast,13 or older,no,2021-03-22_01h45.19.752,empathy_intonation_perc,2020.2.10,MacIntel,60,,,,,,,,,,0,,,,,,,,,,,,,,,,,,,,,,,,,,,,,,,,,,,,,,,,33,pauca,,,0,1,11.754235,0,15,15,32,1,REAL,FAKE,,,,,,,,,,,,,,,,,,,,,
,,,,,,,5f4580ba9ae79f195a9ece38,6057c54e64b0b4e5c128b4f9,60582ddc02c844287b4950aa,United States,Northeast,13 or older,no,2021-03-22_01h45.19.752,empathy_intonation_perc,2020.2.10,MacIntel,60,,,,,,,,,,1,,,,,,,,,,,,,,,,,,,,,,,,,,,,,,,,,,,,,,,,59,besar,,,1,1,10.511655,0,16,16,58,1,REAL,FAKE,,,,,,,,,,,,,,,,,,,,,
,,,,,,,5f4580ba9ae79f195a9ece38,6057c54e64b0b4e5c128b4f9,60582ddc02c844287b4950aa,United States,Northeast,13 or older,no,2021-03-22_01h45.19.752,empathy_intonation_perc,2020.2.10,MacIntel,60,,,,,,,,,,1,,,,,,,,,,,,,,,,,,,,,,,,,,,,,,,,,,,,,,,,5,zapato,,,1,1,11.67716,0,17,17,4,1,REAL,FAKE,,,,,,,,,,,,,,,,,,,,,
,,,,,,,5f4580ba9ae79f195a9ece38,6057c54e64b0b4e5c128b4f9,60582ddc02c844287b4950aa,United States,Northeast,13 or older,no,2021-03-22_01h45.19.752,empathy_intonation_perc,2020.2.10,MacIntel,60,,,,,,,,,,1,,,,,,,,,,,,,,,,,,,,,,,,,,,,,,,,,,,,,,,,3,pulmones,,,1,1,11.1119,0,18,18,2,1,REAL,FAKE,,,,,,,,,,,,,,,,,,,,,
,,,,,,,5f4580ba9ae79f195a9ece38,6057c54e64b0b4e5c128b4f9,60582ddc02c844287b4950aa,United States,Northeast,13 or older,no,2021-03-22_01h45.19.752,empathy_intonation_perc,2020.2.10,MacIntel,60,,,,,,,,,,1,,,,,,,,,,,,,,,,,,,,,,,,,,,,,,,,,,,,,,,,64,orgulloso,,,1,1,10.350185,0,19,19,63,1,REAL,FAKE,,,,,,,,,,,,,,,,,,,,,
,,,,,,,5f4580ba9ae79f195a9ece38,6057c54e64b0b4e5c128b4f9,60582ddc02c844287b4950aa,United States,Northeast,13 or older,no,2021-03-22_01h45.19.752,empathy_intonation_perc,2020.2.10,MacIntel,60,,,,,,,,,,1,,,,,,,,,,,,,,,,,,,,,,,,,,,,,,,,,,,,,,,,45,jilguero,,,1,1,12.36712,0,20,20,44,1,REAL,FAKE,,,,,,,,,,,,,,,,,,,,,
,,,,,,,5f4580ba9ae79f195a9ece38,6057c54e64b0b4e5c128b4f9,60582ddc02c844287b4950aa,United States,Northeast,13 or older,no,2021-03-22_01h45.19.752,empathy_intonation_perc,2020.2.10,MacIntel,60,,,,,,,,,,0,,,,,,,,,,,,,,,,,,,,,,,,,,,,,,,,,,,,,,,,16,abracer,,,1,0,10.00712,0,21,21,15,1,REAL,FAKE,,,,,,,,,,,,,,,,,,,,,
,,,,,,,5f4580ba9ae79f195a9ece38,6057c54e64b0b4e5c128b4f9,60582ddc02c844287b4950aa,United States,Northeast,13 or older,no,2021-03-22_01h45.19.752,empathy_intonation_perc,2020.2.10,MacIntel,60,,,,,,,,,,1,,,,,,,,,,,,,,,,,,,,,,,,,,,,,,,,,,,,,,,,89,prisa,,,0,0,12.88485,0,22,22,88,1,REAL,FAKE,,,,,,,,,,,,,,,,,,,,,
,,,,,,,5f4580ba9ae79f195a9ece38,6057c54e64b0b4e5c128b4f9,60582ddc02c844287b4950aa,United States,Northeast,13 or older,no,2021-03-22_01h45.19.752,empathy_intonation_perc,2020.2.10,MacIntel,60,,,,,,,,,,1,,,,,,,,,,,,,,,,,,,,,,,,,,,,,,,,,,,,,,,,24,ltigo,,,1,1,8.376715,0,23,23,23,1,REAL,FAKE,,,,,,,,,,,,,,,,,,,,,
,,,,,,,5f4580ba9ae79f195a9ece38,6057c54e64b0b4e5c128b4f9,60582ddc02c844287b4950aa,United States,Northeast,13 or older,no,2021-03-22_01h45.19.752,empathy_intonation_perc,2020.2.10,MacIntel,60,,,,,,,,,,1,,,,,,,,,,,,,,,,,,,,,,,,,,,,,,,,,,,,,,,,41,rebuscar,,,1,1,14.325835,0,24,24,40,1,REAL,FAKE,,,,,,,,,,,,,,,,,,,,,
,,,,,,,5f4580ba9ae79f195a9ece38,6057c54e64b0b4e5c128b4f9,60582ddc02c844287b4950aa,United States,Northeast,13 or older,no,2021-03-22_01h45.19.752,empathy_intonation_perc,2020.2.10,MacIntel,60,,,,,,,,,,1,,,,,,,,,,,,,,,,,,,,,,,,,,,,,,,,,,,,,,,,68,alegre,,,1,1,8.305765,0,25,25,67,1,REAL,FAKE,,,,,,,,,,,,,,,,,,,,,
,,,,,,,5f4580ba9ae79f195a9ece38,6057c54e64b0b4e5c128b4f9,60582ddc02c844287b4950aa,United States,Northeast,13 or older,no,2021-03-22_01h45.19.752,empathy_intonation_perc,2020.2.10,MacIntel,60,,,,,,,,,,1,,,,,,,,,,,,,,,,,,,,,,,,,,,,,,,,,,,,,,,,7,psimo,,,1,1,11.776015,0,26,26,6,1,REAL,FAKE,,,,,,,,,,,,,,,,,,,,,
,,,,,,,5f4580ba9ae79f195a9ece38,6057c54e64b0b4e5c128b4f9,60582ddc02c844287b4950aa,United States,Northeast,13 or older,no,2021-03-22_01h45.19.752,empathy_intonation_perc,2020.2.10,MacIntel,60,,,,,,,,,,1,,,,,,,,,,,,,,,,,,,,,,,,,,,,,,,,,,,,,,,,20,vido,,,0,0,8.930305,0,27,27,19,1,REAL,FAKE,,,,,,,,,,,,,,,,,,,,,
,,,,,,,5f4580ba9ae79f195a9ece38,6057c54e64b0b4e5c128b4f9,60582ddc02c844287b4950aa,United States,Northeast,13 or older,no,2021-03-22_01h45.19.752,empathy_intonation_perc,2020.2.10,MacIntel,60,,,,,,,,,,0,,,,,,,,,,,,,,,,,,,,,,,,,,,,,,,,,,,,,,,,66,hacido,,,1,0,8.95068,0,28,28,65,1,REAL,FAKE,,,,,,,,,,,,,,,,,,,,,
,,,,,,,5f4580ba9ae79f195a9ece38,6057c54e64b0b4e5c128b4f9,60582ddc02c844287b4950aa,United States,Northeast,13 or older,no,2021-03-22_01h45.19.752,empathy_intonation_perc,2020.2.10,MacIntel,60,,,,,,,,,,1,,,,,,,,,,,,,,,,,,,,,,,,,,,,,,,,,,,,,,,,85,lad,,,1,1,2.40987,0,29,29,84,1,REAL,FAKE,,,,,,,,,,,,,,,,,,,,,
,,,,,,,5f4580ba9ae79f195a9ece38,6057c54e64b0b4e5c128b4f9,60582ddc02c844287b4950aa,United States,Northeast,13 or older,no,2021-03-22_01h45.19.752,empathy_intonation_perc,2020.2.10,MacIntel,60,,,,,,,,,,0,,,,,,,,,,,,,,,,,,,,,,,,,,,,,,,,,,,,,,,,63,esposante,,,1,0,11.60269,0,30,30,62,1,REAL,FAKE,,,,,,,,,,,,,,,,,,,,,
,,,,,,,5f4580ba9ae79f195a9ece38,6057c54e64b0b4e5c128b4f9,60582ddc02c844287b4950aa,United States,Northeast,13 or older,no,2021-03-22_01h45.19.752,empathy_intonation_perc,2020.2.10,MacIntel,60,,,,,,,,,,0,,,,,,,,,,,,,,,,,,,,,,,,,,,,,,,,,,,,,,,,47,cartinar,,,0,1,11.63461,0,31,31,46,1,REAL,FAKE,,,,,,,,,,,,,,,,,,,,,
,,,,,,,5f4580ba9ae79f195a9ece38,6057c54e64b0b4e5c128b4f9,60582ddc02c844287b4950aa,United States,Northeast,13 or older,no,2021-03-22_01h45.19.752,empathy_intonation_perc,2020.2.10,MacIntel,60,,,,,,,,,,1,,,,,,,,,,,,,,,,,,,,,,,,,,,,,,,,,,,,,,,,40,alfombra,,,1,1,13.575415,0,32,32,39,1,REAL,FAKE,,,,,,,,,,,,,,,,,,,,,
,,,,,,,5f4580ba9ae79f195a9ece38,6057c54e64b0b4e5c128b4f9,60582ddc02c844287b4950aa,United States,Northeast,13 or older,no,2021-03-22_01h45.19.752,empathy_intonation_perc,2020.2.10,MacIntel,60,,,,,,,,,,0,,,,,,,,,,,,,,,,,,,,,,,,,,,,,,,,,,,,,,,,17,floroso,,,1,0,10.7607,0,33,33,16,1,REAL,FAKE,,,,,,,,,,,,,,,,,,,,,
,,,,,,,5f4580ba9ae79f195a9ece38,6057c54e64b0b4e5c128b4f9,60582ddc02c844287b4950aa,United States,Northeast,13 or older,no,2021-03-22_01h45.19.752,empathy_intonation_perc,2020.2.10,MacIntel,60,,,,,,,,,,1,,,,,,,,,,,,,,,,,,,,,,,,,,,,,,,,,,,,,,,,2,pellizcar,,,1,1,11.16583,0,34,34,1,1,REAL,FAKE,,,,,,,,,,,,,,,,,,,,,
,,,,,,,5f4580ba9ae79f195a9ece38,6057c54e64b0b4e5c128b4f9,60582ddc02c844287b4950aa,United States,Northeast,13 or older,no,2021-03-22_01h45.19.752,empathy_intonation_perc,2020.2.10,MacIntel,60,,,,,,,,,,1,,,,,,,,,,,,,,,,,,,,,,,,,,,,,,,,,,,,,,,,12,asesinato,,,1,1,16.638825,0,35,35,11,1,REAL,FAKE,,,,,,,,,,,,,,,,,,,,,
,,,,,,,5f4580ba9ae79f195a9ece38,6057c54e64b0b4e5c128b4f9,60582ddc02c844287b4950aa,United States,Northeast,13 or older,no,2021-03-22_01h45.19.752,empathy_intonation_perc,2020.2.10,MacIntel,60,,,,,,,,,,1,,,,,,,,,,,,,,,,,,,,,,,,,,,,,,,,,,,,,,,,36,loro,,,0,0,10.06083,0,36,36,35,1,REAL,FAKE,,,,,,,,,,,,,,,,,,,,,
,,,,,,,5f4580ba9ae79f195a9ece38,6057c54e64b0b4e5c128b4f9,60582ddc02c844287b4950aa,United States,Northeast,13 or older,no,2021-03-22_01h45.19.752,empathy_intonation_perc,2020.2.10,MacIntel,60,,,,,,,,,,0,,,,,,,,,,,,,,,,,,,,,,,,,,,,,,,,,,,,,,,,8,cadea,,,0,1,18.75826,0,37,37,7,1,REAL,FAKE,,,,,,,,,,,,,,,,,,,,,
,,,,,,,5f4580ba9ae79f195a9ece38,6057c54e64b0b4e5c128b4f9,60582ddc02c844287b4950aa,United States,Northeast,13 or older,no,2021-03-22_01h45.19.752,empathy_intonation_perc,2020.2.10,MacIntel,60,,,,,,,,,,1,,,,,,,,,,,,,,,,,,,,,,,,,,,,,,,,,,,,,,,,81,pozo,,,1,1,10.360815,0,38,38,80,1,REAL,FAKE,,,,,,,,,,,,,,,,,,,,,
,,,,,,,5f4580ba9ae79f195a9ece38,6057c54e64b0b4e5c128b4f9,60582ddc02c844287b4950aa,United States,Northeast,13 or older,no,2021-03-22_01h45.19.752,empathy_intonation_perc,2020.2.10,MacIntel,60,,,,,,,,,,1,,,,,,,,,,,,,,,,,,,,,,,,,,,,,,,,,,,,,,,,11,cenefa,,,1,1,8.464555,0,39,39,10,1,REAL,FAKE,,,,,,,,,,,,,,,,,,,,,
,,,,,,,5f4580ba9ae79f195a9ece38,6057c54e64b0b4e5c128b4f9,60582ddc02c844287b4950aa,United States,Northeast,13 or older,no,2021-03-22_01h45.19.752,empathy_intonation_perc,2020.2.10,MacIntel,60,,,,,,,,,,0,,,,,,,,,,,,,,,,,,,,,,,,,,,,,,,,,,,,,,,,1,terzo,,,1,0,9.309755,0,40,40,0,1,REAL,FAKE,,,,,,,,,,,,,,,,,,,,,
,,,,,,,5f4580ba9ae79f195a9ece38,6057c54e64b0b4e5c128b4f9,60582ddc02c844287b4950aa,United States,Northeast,13 or older,no,2021-03-22_01h45.19.752,empathy_intonation_perc,2020.2.10,MacIntel,60,,,,,,,,,,1,,,,,,,,,,,,,,,,,,,,,,,,,,,,,,,,,,,,,,,,25,bisagra,,,1,1,10.55937,0,41,41,24,1,REAL,FAKE,,,,,,,,,,,,,,,,,,,,,
,,,,,,,5f4580ba9ae79f195a9ece38,6057c54e64b0b4e5c128b4f9,60582ddc02c844287b4950aa,United States,Northeast,13 or older,no,2021-03-22_01h45.19.752,empathy_intonation_perc,2020.2.10,MacIntel,60,,,,,,,,,,1,,,,,,,,,,,,,,,,,,,,,,,,,,,,,,,,,,,,,,,,22,lacayo,,,1,1,8.218165,0,42,42,21,1,REAL,FAKE,,,,,,,,,,,,,,,,,,,,,
,,,,,,,5f4580ba9ae79f195a9ece38,6057c54e64b0b4e5c128b4f9,60582ddc02c844287b4950aa,United States,Northeast,13 or older,no,2021-03-22_01h45.19.752,empathy_intonation_perc,2020.2.10,MacIntel,60,,,,,,,,,,0,,,,,,,,,,,,,,,,,,,,,,,,,,,,,,,,,,,,,,,,29,decar,,,1,0,8.432575,0,43,43,28,1,REAL,FAKE,,,,,,,,,,,,,,,,,,,,,
,,,,,,,5f4580ba9ae79f195a9ece38,6057c54e64b0b4e5c128b4f9,60582ddc02c844287b4950aa,United States,Northeast,13 or older,no,2021-03-22_01h45.19.752,empathy_intonation_perc,2020.2.10,MacIntel,60,,,,,,,,,,0,,,,,,,,,,,,,,,,,,,,,,,,,,,,,,,,,,,,,,,,21,capillo,,,1,0,11.95005,0,44,44,20,1,REAL,FAKE,,,,,,,,,,,,,,,,,,,,,
,,,,,,,5f4580ba9ae79f195a9ece38,6057c54e64b0b4e5c128b4f9,60582ddc02c844287b4950aa,United States,Northeast,13 or older,no,2021-03-22_01h45.19.752,empathy_intonation_perc,2020.2.10,MacIntel,60,,,,,,,,,,1,,,,,,,,,,,,,,,,,,,,,,,,,,,,,,,,,,,,,,,,69,engatusar,,,1,1,15.59244,0,45,45,68,1,REAL,FAKE,,,,,,,,,,,,,,,,,,,,,
,,,,,,,5f4580ba9ae79f195a9ece38,6057c54e64b0b4e5c128b4f9,60582ddc02c844287b4950aa,United States,Northeast,13 or older,no,2021-03-22_01h45.19.752,empathy_intonation_perc,2020.2.10,MacIntel,60,,,,,,,,,,1,,,,,,,,,,,,,,,,,,,,,,,,,,,,,,,,,,,,,,,,76,atar,,,1,1,12.957995,0,46,46,75,1,REAL,FAKE,,,,,,,,,,,,,,,,,,,,,
,,,,,,,5f4580ba9ae79f195a9ece38,6057c54e64b0b4e5c128b4f9,60582ddc02c844287b4950aa,United States,Northeast,13 or older,no,2021-03-22_01h45.19.752,empathy_intonation_perc,2020.2.10,MacIntel,60,,,,,,,,,,1,,,,,,,,,,,,,,,,,,,,,,,,,,,,,,,,,,,,,,,,78,frondoso,,,1,1,15.233945,0,47,47,77,1,REAL,FAKE,,,,,,,,,,,,,,,,,,,,,
,,,,,,,5f4580ba9ae79f195a9ece38,6057c54e64b0b4e5c128b4f9,60582ddc02c844287b4950aa,United States,Northeast,13 or older,no,2021-03-22_01h45.19.752,empathy_intonation_perc,2020.2.10,MacIntel,60,,,,,,,,,,1,,,,,,,,,,,,,,,,,,,,,,,,,,,,,,,,,,,,,,,,51,candado,,,1,1,13.050505,0,48,48,50,1,REAL,FAKE,,,,,,,,,,,,,,,,,,,,,
,,,,,,,5f4580ba9ae79f195a9ece38,6057c54e64b0b4e5c128b4f9,60582ddc02c844287b4950aa,United States,Northeast,13 or older,no,2021-03-22_01h45.19.752,empathy_intonation_perc,2020.2.10,MacIntel,60,,,,,,,,,,0,,,,,,,,,,,,,,,,,,,,,,,,,,,,,,,,,,,,,,,,58,plaudir,,,0,1,13.326195,0,49,49,57,1,REAL,FAKE,,,,,,,,,,,,,,,,,,,,,
,,,,,,,5f4580ba9ae79f195a9ece38,6057c54e64b0b4e5c128b4f9,60582ddc02c844287b4950aa,United States,Northeast,13 or older,no,2021-03-22_01h45.19.752,empathy_intonation_perc,2020.2.10,MacIntel,60,,,,,,,,,,0,,,,,,,,,,,,,,,,,,,,,,,,,,,,,,,,,,,,,,,,74,cintro,,,0,1,10.83668,0,50,50,73,1,REAL,FAKE,,,,,,,,,,,,,,,,,,,,,
,,,,,,,5f4580ba9ae79f195a9ece38,6057c54e64b0b4e5c128b4f9,60582ddc02c844287b4950aa,United States,Northeast,13 or older,no,2021-03-22_01h45.19.752,empathy_intonation_perc,2020.2.10,MacIntel,60,,,,,,,,,,1,,,,,,,,,,,,,,,,,,,,,,,,,,,,,,,,,,,,,,,,26,secuestro,,,1,1,11.737085,0,51,51,25,1,REAL,FAKE,,,,,,,,,,,,,,,,,,,,,
,,,,,,,5f4580ba9ae79f195a9ece38,6057c54e64b0b4e5c128b4f9,60582ddc02c844287b4950aa,United States,Northeast,13 or older,no,2021-03-22_01h45.19.752,empathy_intonation_perc,2020.2.10,MacIntel,60,,,,,,,,,,1,,,,,,,,,,,,,,,,,,,,,,,,,,,,,,,,,,,,,,,,44,cuchara,,,1,1,11.01496,0,52,52,43,1,REAL,FAKE,,,,,,,,,,,,,,,,,,,,,
,,,,,,,5f4580ba9ae79f195a9ece38,6057c54e64b0b4e5c128b4f9,60582ddc02c844287b4950aa,United States,Northeast,13 or older,no,2021-03-22_01h45.19.752,empathy_intonation_perc,2020.2.10,MacIntel,60,,,,,,,,,,0,,,,,,,,,,,,,,,,,,,,,,,,,,,,,,,,,,,,,,,,27,acutacin,,,1,0,20.41902,0,53,53,26,1,REAL,FAKE,,,,,,,,,,,,,,,,,,,,,
,,,,,,,5f4580ba9ae79f195a9ece38,6057c54e64b0b4e5c128b4f9,60582ddc02c844287b4950aa,United States,Northeast,13 or older,no,2021-03-22_01h45.19.752,empathy_intonation_perc,2020.2.10,MacIntel,60,,,,,,,,,,0,,,,,,,,,,,,,,,,,,,,,,,,,,,,,,,,,,,,,,,,4,batilln,,,0,1,21.151145,0,54,54,3,1,REAL,FAKE,,,,,,,,,,,,,,,,,,,,,
,,,,,,,5f4580ba9ae79f195a9ece38,6057c54e64b0b4e5c128b4f9,60582ddc02c844287b4950aa,United States,Northeast,13 or older,no,2021-03-22_01h45.19.752,empathy_intonation_perc,2020.2.10,MacIntel,60,,,,,,,,,,0,,,,,,,,,,,,,,,,,,,,,,,,,,,,,,,,,,,,,,,,30,alardio,,,1,0,13.60848,0,55,55,29,1,REAL,FAKE,,,,,,,,,,,,,,,,,,,,,
,,,,,,,5f4580ba9ae79f195a9ece38,6057c54e64b0b4e5c128b4f9,60582ddc02c844287b4950aa,United States,Northeast,13 or older,no,2021-03-22_01h45.19.752,empathy_intonation_perc,2020.2.10,MacIntel,60,,,,,,,,,,1,,,,,,,,,,,,,,,,,,,,,,,,,,,,,,,,,,,,,,,,9,hacha,,,1,1,9.292645,0,56,56,8,1,REAL,FAKE,,,,,,,,,,,,,,,,,,,,,
,,,,,,,5f4580ba9ae79f195a9ece38,6057c54e64b0b4e5c128b4f9,60582ddc02c844287b4950aa,United States,Northeast,13 or older,no,2021-03-22_01h45.19.752,empathy_intonation_perc,2020.2.10,MacIntel,60,,,,,,,,,,0,,,,,,,,,,,,,,,,,,,,,,,,,,,,,,,,,,,,,,,,53,vegada,,,0,1,9.75695,0,57,57,52,1,REAL,FAKE,,,,,,,,,,,,,,,,,,,,,
,,,,,,,5f4580ba9ae79f195a9ece38,6057c54e64b0b4e5c128b4f9,60582ddc02c844287b4950aa,United States,Northeast,13 or older,no,2021-03-22_01h45.19.752,empathy_intonation_perc,2020.2.10,MacIntel,60,,,,,,,,,,1,,,,,,,,,,,,,,,,,,,,,,,,,,,,,,,,,,,,,,,,46,martillo,,,1,1,10.398055,0,58,58,45,1,REAL,FAKE,,,,,,,,,,,,,,,,,,,,,
,,,,,,,5f4580ba9ae79f195a9ece38,6057c54e64b0b4e5c128b4f9,60582ddc02c844287b4950aa,United States,Northeast,13 or older,no,2021-03-22_01h45.19.752,empathy_intonation_perc,2020.2.10,MacIntel,60,,,,,,,,,,1,,,,,,,,,,,,,,,,,,,,,,,,,,,,,,,,,,,,,,,,65,bizcocho,,,1,1,14.32789,0,59,59,64,1,REAL,FAKE,,,,,,,,,,,,,,,,,,,,,
,,,,,,,5f4580ba9ae79f195a9ece38,6057c54e64b0b4e5c128b4f9,60582ddc02c844287b4950aa,United States,Northeast,13 or older,no,2021-03-22_01h45.19.752,empathy_intonation_perc,2020.2.10,MacIntel,60,,,,,,,,,,0,,,,,,,,,,,,,,,,,,,,,,,,,,,,,,,,,,,,,,,,70,temblo,,,1,0,12.349995,0,60,60,69,1,REAL,FAKE,,,,,,,,,,,,,,,,,,,,,
,,,,,,,5f4580ba9ae79f195a9ece38,6057c54e64b0b4e5c128b4f9,60582ddc02c844287b4950aa,United States,Northeast,13 or older,no,2021-03-22_01h45.19.752,empathy_intonation_perc,2020.2.10,MacIntel,60,,,,,,,,,,0,,,,,,,,,,,,,,,,,,,,,,,,,,,,,,,,,,,,,,,,82,empirador,,,0,1,12.517435,0,61,61,81,1,REAL,FAKE,,,,,,,,,,,,,,,,,,,,,
,,,,,,,5f4580ba9ae79f195a9ece38,6057c54e64b0b4e5c128b4f9,60582ddc02c844287b4950aa,United States,Northeast,13 or older,no,2021-03-22_01h45.19.752,empathy_intonation_perc,2020.2.10,MacIntel,60,,,,,,,,,,1,,,,,,,,,,,,,,,,,,,,,,,,,,,,,,,,,,,,,,,,56,musgo,,,1,1,9.17302,0,62,62,55,1,REAL,FAKE,,,,,,,,,,,,,,,,,,,,,
,,,,,,,5f4580ba9ae79f195a9ece38,6057c54e64b0b4e5c128b4f9,60582ddc02c844287b4950aa,United States,Northeast,13 or older,no,2021-03-22_01h45.19.752,empathy_intonation_perc,2020.2.10,MacIntel,60,,,,,,,,,,0,,,,,,,,,,,,,,,,,,,,,,,,,,,,,,,,,,,,,,,,18,arsa,,,0,1,13.51453,0,63,63,17,1,REAL,FAKE,,,,,,,,,,,,,,,,,,,,,
,,,,,,,5f4580ba9ae79f195a9ece38,6057c54e64b0b4e5c128b4f9,60582ddc02c844287b4950aa,United States,Northeast,13 or older,no,2021-03-22_01h45.19.752,empathy_intonation_perc,2020.2.10,MacIntel,60,,,,,,,,,,1,,,,,,,,,,,,,,,,,,,,,,,,,,,,,,,,,,,,,,,,83,guante,,,1,1,14.30371,0,64,64,82,1,REAL,FAKE,,,,,,,,,,,,,,,,,,,,,
,,,,,,,5f4580ba9ae79f195a9ece38,6057c54e64b0b4e5c128b4f9,60582ddc02c844287b4950aa,United States,Northeast,13 or older,no,2021-03-22_01h45.19.752,empathy_intonation_perc,2020.2.10,MacIntel,60,,,,,,,,,,1,,,,,,,,,,,,,,,,,,,,,,,,,,,,,,,,,,,,,,,,28,merodear,,,1,1,8.81819,0,65,65,27,1,REAL,FAKE,,,,,,,,,,,,,,,,,,,,,
,,,,,,,5f4580ba9ae79f195a9ece38,6057c54e64b0b4e5c128b4f9,60582ddc02c844287b4950aa,United States,Northeast,13 or older,no,2021-03-22_01h45.19.752,empathy_intonation_perc,2020.2.10,MacIntel,60,,,,,,,,,,1,,,,,,,,,,,,,,,,,,,,,,,,,,,,,,,,,,,,,,,,49,ganar,,,1,1,7.950645,0,66,66,48,1,REAL,FAKE,,,,,,,,,,,,,,,,,,,,,
,,,,,,,5f4580ba9ae79f195a9ece38,6057c54e64b0b4e5c128b4f9,60582ddc02c844287b4950aa,United States,Northeast,13 or older,no,2021-03-22_01h45.19.752,empathy_intonation_perc,2020.2.10,MacIntel,60,,,,,,,,,,1,,,,,,,,,,,,,,,,,,,,,,,,,,,,,,,,,,,,,,,,37,granuja,,,1,1,8.611065,0,67,67,36,1,REAL,FAKE,,,,,,,,,,,,,,,,,,,,,
,,,,,,,5f4580ba9ae79f195a9ece38,6057c54e64b0b4e5c128b4f9,60582ddc02c844287b4950aa,United States,Northeast,13 or older,no,2021-03-22_01h45.19.752,empathy_intonation_perc,2020.2.10,MacIntel,60,,,,,,,,,,0,,,,,,,,,,,,,,,,,,,,,,,,,,,,,,,,,,,,,,,,23,lampera,,,0,1,11.682075,0,68,68,22,1,REAL,FAKE,,,,,,,,,,,,,,,,,,,,,
,,,,,,,5f4580ba9ae79f195a9ece38,6057c54e64b0b4e5c128b4f9,60582ddc02c844287b4950aa,United States,Northeast,13 or older,no,2021-03-22_01h45.19.752,empathy_intonation_perc,2020.2.10,MacIntel,60,,,,,,,,,,1,,,,,,,,,,,,,,,,,,,,,,,,,,,,,,,,,,,,,,,,60,matar,,,1,1,9.11569,0,69,69,59,1,REAL,FAKE,,,,,,,,,,,,,,,,,,,,,
,,,,,,,5f4580ba9ae79f195a9ece38,6057c54e64b0b4e5c128b4f9,60582ddc02c844287b4950aa,United States,Northeast,13 or older,no,2021-03-22_01h45.19.752,empathy_intonation_perc,2020.2.10,MacIntel,60,,,,,,,,,,1,,,,,,,,,,,,,,,,,,,,,,,,,,,,,,,,,,,,,,,,55,nevar,,,1,1,9.25043,0,70,70,54,1,REAL,FAKE,,,,,,,,,,,,,,,,,,,,,
,,,,,,,5f4580ba9ae79f195a9ece38,6057c54e64b0b4e5c128b4f9,60582ddc02c844287b4950aa,United States,Northeast,13 or older,no,2021-03-22_01h45.19.752,empathy_intonation_perc,2020.2.10,MacIntel,60,,,,,,,,,,1,,,,,,,,,,,,,,,,,,,,,,,,,,,,,,,,,,,,,,,,75,yacer,,,1,1,8.01816,0,71,71,74,1,REAL,FAKE,,,,,,,,,,,,,,,,,,,,,
,,,,,,,5f4580ba9ae79f195a9ece38,6057c54e64b0b4e5c128b4f9,60582ddc02c844287b4950aa,United States,Northeast,13 or older,no,2021-03-22_01h45.19.752,empathy_intonation_perc,2020.2.10,MacIntel,60,,,,,,,,,,1,,,,,,,,,,,,,,,,,,,,,,,,,,,,,,,,,,,,,,,,67,cabello,,,1,1,8.041725,0,72,72,66,1,REAL,FAKE,,,,,,,,,,,,,,,,,,,,,
,,,,,,,5f4580ba9ae79f195a9ece38,6057c54e64b0b4e5c128b4f9,60582ddc02c844287b4950aa,United States,Northeast,13 or older,no,2021-03-22_01h45.19.752,empathy_intonation_perc,2020.2.10,MacIntel,60,,,,,,,,,,1,,,,,,,,,,,,,,,,,,,,,,,,,,,,,,,,,,,,,,,,62,flaco,,,1,1,5.807465,0,73,73,61,1,REAL,FAKE,,,,,,,,,,,,,,,,,,,,,
,,,,,,,5f4580ba9ae79f195a9ece38,6057c54e64b0b4e5c128b4f9,60582ddc02c844287b4950aa,United States,Northeast,13 or older,no,2021-03-22_01h45.19.752,empathy_intonation_perc,2020.2.10,MacIntel,60,,,,,,,,,,0,,,,,,,,,,,,,,,,,,,,,,,,,,,,,,,,,,,,,,,,84,escuto,,,0,1,10.77558,0,74,74,83,1,REAL,FAKE,,,,,,,,,,,,,,,,,,,,,
,,,,,,,5f4580ba9ae79f195a9ece38,6057c54e64b0b4e5c128b4f9,60582ddc02c844287b4950aa,United States,Northeast,13 or older,no,2021-03-22_01h45.19.752,empathy_intonation_perc,2020.2.10,MacIntel,60,,,,,,,,,,0,,,,,,,,,,,,,,,,,,,,,,,,,,,,,,,,,,,,,,,,19,brecedad,,,0,1,10.412145,0,75,75,18,1,REAL,FAKE,,,,,,,,,,,,,,,,,,,,,
,,,,,,,5f4580ba9ae79f195a9ece38,6057c54e64b0b4e5c128b4f9,60582ddc02c844287b4950aa,United States,Northeast,13 or older,no,2021-03-22_01h45.19.752,empathy_intonation_perc,2020.2.10,MacIntel,60,,,,,,,,,,0,,,,,,,,,,,,,,,,,,,,,,,,,,,,,,,,,,,,,,,,50,flamida,,,0,1,11.32942,0,76,76,49,1,REAL,FAKE,,,,,,,,,,,,,,,,,,,,,
,,,,,,,5f4580ba9ae79f195a9ece38,6057c54e64b0b4e5c128b4f9,60582ddc02c844287b4950aa,United States,Northeast,13 or older,no,2021-03-22_01h45.19.752,empathy_intonation_perc,2020.2.10,MacIntel,60,,,,,,,,,,1,,,,,,,,,,,,,,,,,,,,,,,,,,,,,,,,,,,,,,,,80,hormiga,,,1,1,6.7004,0,77,77,79,1,REAL,FAKE,,,,,,,,,,,,,,,,,,,,,
,,,,,,,5f4580ba9ae79f195a9ece38,6057c54e64b0b4e5c128b4f9,60582ddc02c844287b4950aa,United States,Northeast,13 or older,no,2021-03-22_01h45.19.752,empathy_intonation_perc,2020.2.10,MacIntel,60,,,,,,,,,,0,,,,,,,,,,,,,,,,,,,,,,,,,,,,,,,,,,,,,,,,42,cadallo,,,0,1,9.34107,0,78,78,41,1,REAL,FAKE,,,,,,,,,,,,,,,,,,,,,
,,,,,,,5f4580ba9ae79f195a9ece38,6057c54e64b0b4e5c128b4f9,60582ddc02c844287b4950aa,United States,Northeast,13 or older,no,2021-03-22_01h45.19.752,empathy_intonation_perc,2020.2.10,MacIntel,60,,,,,,,,,,0,,,,,,,,,,,,,,,,,,,,,,,,,,,,,,,,,,,,,,,,79,tropaje,,,1,0,11.3262,0,79,79,78,1,REAL,FAKE,,,,,,,,,,,,,,,,,,,,,
,,,,,,,5f4580ba9ae79f195a9ece38,6057c54e64b0b4e5c128b4f9,60582ddc02c844287b4950aa,United States,Northeast,13 or older,no,2021-03-22_01h45.19.752,empathy_intonation_perc,2020.2.10,MacIntel,60,,,,,,,,,,1,,,,,,,,,,,,,,,,,,,,,,,,,,,,,,,,,,,,,,,,13,helar,,,1,1,10.345545,0,80,80,12,1,REAL,FAKE,,,,,,,,,,,,,,,,,,,,,
,,,,,,,5f4580ba9ae79f195a9ece38,6057c54e64b0b4e5c128b4f9,60582ddc02c844287b4950aa,United States,Northeast,13 or older,no,2021-03-22_01h45.19.752,empathy_intonation_perc,2020.2.10,MacIntel,60,,,,,,,,,,1,,,,,,,,,,,,,,,,,,,,,,,,,,,,,,,,,,,,,,,,31,pandilla,,,1,1,9.740785,0,81,81,30,1,REAL,FAKE,,,,,,,,,,,,,,,,,,,,,
,,,,,,,5f4580ba9ae79f195a9ece38,6057c54e64b0b4e5c128b4f9,60582ddc02c844287b4950aa,United States,Northeast,13 or older,no,2021-03-22_01h45.19.752,empathy_intonation_perc,2020.2.10,MacIntel,60,,,,,,,,,,1,,,,,,,,,,,,,,,,,,,,,,,,,,,,,,,,,,,,,,,,14,yunque,,,1,1,9.054225,0,82,82,13,1,REAL,FAKE,,,,,,,,,,,,,,,,,,,,,
,,,,,,,5f4580ba9ae79f195a9ece38,6057c54e64b0b4e5c128b4f9,60582ddc02c844287b4950aa,United States,Northeast,13 or older,no,2021-03-22_01h45.19.752,empathy_intonation_perc,2020.2.10,MacIntel,60,,,,,,,,,,1,,,,,,,,,,,,,,,,,,,,,,,,,,,,,,,,,,,,,,,,90,clavel,,,1,1,7.502975,0,83,83,89,1,REAL,FAKE,,,,,,,,,,,,,,,,,,,,,
,,,,,,,5f4580ba9ae79f195a9ece38,6057c54e64b0b4e5c128b4f9,60582ddc02c844287b4950aa,United States,Northeast,13 or older,no,2021-03-22_01h45.19.752,empathy_intonation_perc,2020.2.10,MacIntel,60,,,,,,,,,,1,,,,,,,,,,,,,,,,,,,,,,,,,,,,,,,,,,,,,,,,86,barato,,,1,1,12.950885,0,84,84,85,1,REAL,FAKE,,,,,,,,,,,,,,,,,,,,,
,,,,,,,5f4580ba9ae79f195a9ece38,6057c54e64b0b4e5c128b4f9,60582ddc02c844287b4950aa,United States,Northeast,13 or older,no,2021-03-22_01h45.19.752,empathy_intonation_perc,2020.2.10,MacIntel,60,,,,,,,,,,1,,,,,,,,,,,,,,,,,,,,,,,,,,,,,,,,,,,,,,,,34,aviso,,,1,1,7.380845,0,85,85,33,1,REAL,FAKE,,,,,,,,,,,,,,,,,,,,,
,,,,,,,5f4580ba9ae79f195a9ece38,6057c54e64b0b4e5c128b4f9,60582ddc02c844287b4950aa,United States,Northeast,13 or older,no,2021-03-22_01h45.19.752,empathy_intonation_perc,2020.2.10,MacIntel,60,,,,,,,,,,1,,,,,,,,,,,,,,,,,,,,,,,,,,,,,,,,,,,,,,,,71,polvoriento,,,1,1,20.62717,0,86,86,70,1,REAL,FAKE,,,,,,,,,,,,,,,,,,,,,
,,,,,,,5f4580ba9ae79f195a9ece38,6057c54e64b0b4e5c128b4f9,60582ddc02c844287b4950aa,United States,Northeast,13 or older,no,2021-03-22_01h45.19.752,empathy_intonation_perc,2020.2.10,MacIntel,60,,,,,,,,,,0,,,,,,,,,,,,,,,,,,,,,,,,,,,,,,,,,,,,,,,,10,antar,,,0,1,10.72562,0,87,87,9,1,REAL,FAKE,,,,,,,,,,,,,,,,,,,,,
,,,,,,,5f4580ba9ae79f195a9ece38,6057c54e64b0b4e5c128b4f9,60582ddc02c844287b4950aa,United States,Northeast,13 or older,no,2021-03-22_01h45.19.752,empathy_intonation_perc,2020.2.10,MacIntel,60,,,,,,,,,,1,,,,,,,,,,,,,,,,,,,,,,,,,,,,,,,,,,,,,,,,15,regar,,,1,1,6.85851,0,88,88,14,1,REAL,FAKE,,,,,,,,,,,,,,,,,,,,,
,,,,,,,5f4580ba9ae79f195a9ece38,6057c54e64b0b4e5c128b4f9,60582ddc02c844287b4950aa,United States,Northeast,13 or older,no,2021-03-22_01h45.19.752,empathy_intonation_perc,2020.2.10,MacIntel,60,,,,,,,,,,0,,,,,,,,,,,,,,,,,,,,,,,,,,,,,,,,,,,,,,,,87,grodo,,,0,1,12.33208,0,89,89,86,1,REAL,FAKE,,,,,,,,,,,,,,,,,,,,,
,,,,,,,5f4580ba9ae79f195a9ece38,6057c54e64b0b4e5c128b4f9,60582ddc02c844287b4950aa,United States,Northeast,13 or older,no,2021-03-22_01h45.19.752,empathy_intonation_perc,2020.2.10,MacIntel,60,,,,,,,,,,,,,,,,,,,,,,,,,,,,,,,,,,,,,,,,,,,,,,,,,,,,,,,,,,,,,,,,4,1,4.52489,1,0,0,0,0,0,1,,,,,,,,,,,
,,,,,,,5f4580ba9ae79f195a9ece38,6057c54e64b0b4e5c128b4f9,60582ddc02c844287b4950aa,United States,Northeast,13 or older,no,2021-03-22_01h45.19.752,empathy_intonation_perc,2020.2.10,MacIntel,60,,,,,,,,,,,,,,,,,,,,1,,,,,,,,,,,,,,,,,,,,,,,,,,,,,,,,,,,,,,,,,,,,,,,,,,,,,,2,0,0,0,0,1,I can easily tell if someone else wants to enter a conversation.,1,0,1,0
,,,,,,,5f4580ba9ae79f195a9ece38,6057c54e64b0b4e5c128b4f9,60582ddc02c844287b4950aa,United States,Northeast,13 or older,no,2021-03-22_01h45.19.752,empathy_intonation_perc,2020.2.10,MacIntel,60,,,,,,,,,,,,,,,,,,,,2,,,,,,,,,,,,,,,,,,,,,,,,,,,,,,,,,,,,,,,,,,,,,,,,,,,,,,3,0,1,1,1,1,I prefer animals to humans.,0,1,0,0
