instructions_2afc_loop.thisRepN,instructions_2afc_loop.thisTrialN,instructions_2afc_loop.thisN,instructions_2afc_loop.thisIndex,instructions_2afc_loop.ran,instructions_text,continue_text,participant,study_id,session,I am most familiar with Spanish from...*,What part of the US are you from?*,At what age did you begin learning Spanish?*,Are you proficient in any languages other than English/Spanish?*,date,expName,psychopyVersion,OS,frameRate,key_resp_2afc_practice.keys,key_resp_2afc_practice.corr,key_resp_2afc_practice.rt,trials_2afc_practice_loop.thisRepN,trials_2afc_practice_loop.thisTrialN,trials_2afc_practice_loop.thisN,trials_2afc_practice_loop.thisIndex,trials_2afc_practice_loop.ran,path,correct_response,the_col,key_resp_2afc_trial.keys,key_resp_2afc_trial.corr,key_resp_2afc_trial.rt,trials_2afc_loop.thisRepN,trials_2afc_loop.thisTrialN,trials_2afc_loop.thisN,trials_2afc_loop.thisIndex,trials_2afc_loop.ran,item_num,andalusian,argentine,castilian,chilean,cuban,mexican,peruvian,puertorican,key_resp_ac1.keys,key_resp_ac1.corr,key_resp_ac1.rt,ac1_loop.thisRepN,ac1_loop.thisTrialN,ac1_loop.thisN,ac1_loop.thisIndex,ac1_loop.ran,instructions_lextale_loop.thisRepN,instructions_lextale_loop.thisTrialN,instructions_lextale_loop.thisN,instructions_lextale_loop.thisIndex,instructions_lextale_loop.ran,key_resp_lextale_practice.keys,key_resp_lextale_practice.corr,key_resp_lextale_practice.rt,trials_lextale_practice_loop.thisRepN,trials_lextale_practice_loop.thisTrialN,trials_lextale_practice_loop.thisN,trials_lextale_practice_loop.thisIndex,trials_lextale_practice_loop.ran,stim,word,prac_button_real,prac_button_false,key_resp_lextale_trial.keys,key_resp_lextale_trial.corr,key_resp_lextale_trial.rt,trials_lextale_loop.thisRepN,trials_lextale_loop.thisTrialN,trials_lextale_loop.thisN,trials_lextale_loop.thisIndex,trials_lextale_loop.ran,button_real,button_false,key_resp_ac2.keys,key_resp_ac2.corr,key_resp_ac2.rt,check_pass,check_fails,ac2_loop.thisRepN,ac2_loop.thisTrialN,ac2_loop.thisN,ac2_loop.thisIndex,ac2_loop.ran,slider_eq_trial.response,trials_eq_loop.thisRepN,trials_eq_loop.thisTrialN,trials_eq_loop.thisN,trials_eq_loop.thisIndex,trials_eq_loop.ran,item,is_test_item,is_distractor,is_agree_score,is_disagree_score
0,0,0,0,1,"In the following task you are going to hear a series of utterances. 

  You will decide if the utterances sound like questions or not using your keyboard.",(press the spacebar to continue),5f4cfe26fc6fe994078bedd3,6057c54e64b0b4e5c128b4f9,6057f2b94cc920cd8e13465b,United States,Northeast,13 or older,no,2021-03-22_09h42.16.090,empathy_intonation_perc,2020.2.10,Win32,60,,,,,,,,,,,,,,,,,,,,,,,,,,,,,,,,,,,,,,,,,,,,,,,,,,,,,,,,,,,,,,,,,,,,,,,,,,,,,,,,,,,,
0,1,1,1,1,"If you believe the utterance is a question, type '1' (for 'yes') and if you do not 
  believe it is a question type '0' (for 'no').

  Let's practice a bit...",(press the spacebar to continue),5f4cfe26fc6fe994078bedd3,6057c54e64b0b4e5c128b4f9,6057f2b94cc920cd8e13465b,United States,Northeast,13 or older,no,2021-03-22_09h42.16.090,empathy_intonation_perc,2020.2.10,Win32,60,,,,,,,,,,,,,,,,,,,,,,,,,,,,,,,,,,,,,,,,,,,,,,,,,,,,,,,,,,,,,,,,,,,,,,,,,,,,,,,,,,,,
,,,,,,,5f4cfe26fc6fe994078bedd3,6057c54e64b0b4e5c128b4f9,6057f2b94cc920cd8e13465b,United States,Northeast,13 or older,no,2021-03-22_09h42.16.090,empathy_intonation_perc,2020.2.10,Win32,60,1,1,2.182,0,0,0,3,1,./stim/wavs/mexican_question_filler_Felipe-no-tiene-contrasena.wav,1,,,,,,,,,,,,,,,,,,,,,,,,,,,,,,,,,,,,,,,,,,,,,,,,,,,,,,,,,,,,,,,,,,,,,,,,,,
,,,,,,,5f4cfe26fc6fe994078bedd3,6057c54e64b0b4e5c128b4f9,6057f2b94cc920cd8e13465b,United States,Northeast,13 or older,no,2021-03-22_09h42.16.090,empathy_intonation_perc,2020.2.10,Win32,60,1,1,1.431,0,1,1,1,1,./stim/wavs/argentine_question_filler_Mi-vecino-habla-mucho.wav,1,,,,,,,,,,,,,,,,,,,,,,,,,,,,,,,,,,,,,,,,,,,,,,,,,,,,,,,,,,,,,,,,,,,,,,,,,,
,,,,,,,5f4cfe26fc6fe994078bedd3,6057c54e64b0b4e5c128b4f9,6057f2b94cc920cd8e13465b,United States,Northeast,13 or older,no,2021-03-22_09h42.16.090,empathy_intonation_perc,2020.2.10,Win32,60,0,1,2.238,0,2,2,6,1,./stim/wavs/peruvian_statement_filler_El-nino-habla-con-su-madre.wav,0,,,,,,,,,,,,,,,,,,,,,,,,,,,,,,,,,,,,,,,,,,,,,,,,,,,,,,,,,,,,,,,,,,,,,,,,,,
,,,,,,,5f4cfe26fc6fe994078bedd3,6057c54e64b0b4e5c128b4f9,6057f2b94cc920cd8e13465b,United States,Northeast,13 or older,no,2021-03-22_09h42.16.090,empathy_intonation_perc,2020.2.10,Win32,60,0,1,1.834,0,3,3,5,1,./stim/wavs/andalusian_statement_filler_Alberto-nunca-se-afeita.wav,0,,,,,,,,,,,,,,,,,,,,,,,,,,,,,,,,,,,,,,,,,,,,,,,,,,,,,,,,,,,,,,,,,,,,,,,,,,
,,,,,,,5f4cfe26fc6fe994078bedd3,6057c54e64b0b4e5c128b4f9,6057f2b94cc920cd8e13465b,United States,Northeast,13 or older,no,2021-03-22_09h42.16.090,empathy_intonation_perc,2020.2.10,Win32,60,0,1,2.037,0,4,4,4,1,./stim/wavs/cuban_statement_filler_Cocinabas-por-la-noche.wav,0,,,,,,,,,,,,,,,,,,,,,,,,,,,,,,,,,,,,,,,,,,,,,,,,,,,,,,,,,,,,,,,,,,,,,,,,,,
,,,,,,,5f4cfe26fc6fe994078bedd3,6057c54e64b0b4e5c128b4f9,6057f2b94cc920cd8e13465b,United States,Northeast,13 or older,no,2021-03-22_09h42.16.090,empathy_intonation_perc,2020.2.10,Win32,60,1,0,1.936,0,5,5,7,1,./stim/wavs/puertorican_statement_filler_La-nina-pinta-con-su-amiga.wav,0,,,,,,,,,,,,,,,,,,,,,,,,,,,,,,,,,,,,,,,,,,,,,,,,,,,,,,,,,,,,,,,,,,,,,,,,,,
,,,,,,,5f4cfe26fc6fe994078bedd3,6057c54e64b0b4e5c128b4f9,6057f2b94cc920cd8e13465b,United States,Northeast,13 or older,no,2021-03-22_09h42.16.090,empathy_intonation_perc,2020.2.10,Win32,60,0,0,1.574,0,6,6,2,1,./stim/wavs/chilean_question_filler_Mi-padre-cantaba-bien.wav,1,,,,,,,,,,,,,,,,,,,,,,,,,,,,,,,,,,,,,,,,,,,,,,,,,,,,,,,,,,,,,,,,,,,,,,,,,,
,,,,,,,5f4cfe26fc6fe994078bedd3,6057c54e64b0b4e5c128b4f9,6057f2b94cc920cd8e13465b,United States,Northeast,13 or older,no,2021-03-22_09h42.16.090,empathy_intonation_perc,2020.2.10,Win32,60,1,1,1.758,0,7,7,0,1,./stim/wavs/castilian_question_filler_Mi-esposo-conoce-al-chico.wav,1,,,,,,,,,,,,,,,,,,,,,,,,,,,,,,,,,,,,,,,,,,,,,,,,,,,,,,,,,,,,,,,,,,,,,,,,,,
,,,,,,,5f4cfe26fc6fe994078bedd3,6057c54e64b0b4e5c128b4f9,6057f2b94cc920cd8e13465b,United States,Northeast,13 or older,no,2021-03-22_09h42.16.090,empathy_intonation_perc,2020.2.10,Win32,60,,,,,,,,,,0,castilian,0,1,3.306,0,0,0,14,1,15,./stim/wavs/andalusian_match_declarative-narrow-focus_Mariano-habla-del-tiempo.wav,./stim/wavs/argentine_match_declarative-narrow-focus_Mariano-habla-del-tiempo.wav,./stim/wavs/castilian_match_declarative-narrow-focus_Mariano-habla-del-tiempo.wav,./stim/wavs/chilean_match_declarative-narrow-focus_Mariano-habla-del-tiempo.wav,./stim/wavs/cuban_match_declarative-narrow-focus_Mariano-habla-del-tiempo.wav,./stim/wavs/mexican_match_declarative-narrow-focus_Mariano-habla-del-tiempo.wav,./stim/wavs/peruvian_match_declarative-narrow-focus_Mariano-habla-del-tiempo.wav,./stim/wavs/puertorican_match_declarative-narrow-focus_Mariano-habla-del-tiempo.wav,,,,,,,,,,,,,,,,,,,,,,,,,,,,,,,,,,,,,,,,,,,,,,,,,,,,,,,,
,,,,,,,5f4cfe26fc6fe994078bedd3,6057c54e64b0b4e5c128b4f9,6057f2b94cc920cd8e13465b,United States,Northeast,13 or older,no,2021-03-22_09h42.16.090,empathy_intonation_perc,2020.2.10,Win32,60,,,,,,,,,,0,cuban,0,1,1.862,0,1,1,0,1,1,./stim/wavs/andalusian_match_declarative-broad-focus_Ana-lleva-el-abrigo.wav,./stim/wavs/argentine_match_declarative-broad-focus_Ana-lleva-el-abrigo.wav,./stim/wavs/castilian_match_declarative-broad-focus_Ana-lleva-el-abrigo.wav,./stim/wavs/chilean_match_declarative-broad-focus_Ana-lleva-el-abrigo.wav,./stim/wavs/cuban_match_declarative-broad-focus_Ana-lleva-el-abrigo.wav,./stim/wavs/mexican_match_declarative-broad-focus_Ana-lleva-el-abrigo.wav,./stim/wavs/peruvian_match_declarative-broad-focus_Ana-lleva-el-abrigo.wav,./stim/wavs/puertorican_match_declarative-broad-focus_Ana-lleva-el-abrigo.wav,,,,,,,,,,,,,,,,,,,,,,,,,,,,,,,,,,,,,,,,,,,,,,,,,,,,,,,,
,,,,,,,5f4cfe26fc6fe994078bedd3,6057c54e64b0b4e5c128b4f9,6057f2b94cc920cd8e13465b,United States,Northeast,13 or older,no,2021-03-22_09h42.16.090,empathy_intonation_perc,2020.2.10,Win32,60,,,,,,,,,,1,andalusian,0,0,1.642,0,2,2,53,1,54,./stim/wavs/andalusian_mismatch_interrogative-partial-wh_Por-que-oia-el-rio.wav,./stim/wavs/argentine_mismatch_interrogative-partial-wh_Por-que-oia-el-rio.wav,./stim/wavs/castilian_mismatch_interrogative-partial-wh_Por-que-oia-el-rio.wav,./stim/wavs/chilean_mismatch_interrogative-partial-wh_Por-que-oia-el-rio.wav,./stim/wavs/cuban_mismatch_interrogative-partial-wh_Por-que-oia-el-rio.wav,./stim/wavs/mexican_mismatch_interrogative-partial-wh_Por-que-oia-el-rio.wav,./stim/wavs/peruvian_mismatch_interrogative-partial-wh_Por-que-oia-el-rio.wav,./stim/wavs/puertorican_mismatch_interrogative-partial-wh_Por-que-oia-el-rio.wav,,,,,,,,,,,,,,,,,,,,,,,,,,,,,,,,,,,,,,,,,,,,,,,,,,,,,,,,
,,,,,,,5f4cfe26fc6fe994078bedd3,6057c54e64b0b4e5c128b4f9,6057f2b94cc920cd8e13465b,United States,Northeast,13 or older,no,2021-03-22_09h42.16.090,empathy_intonation_perc,2020.2.10,Win32,60,,,,,,,,,,0,castilian,0,1,1.953,0,3,3,42,1,43,./stim/wavs/andalusian_mismatch_declarative-narrow-focus_El-nino-oye-el-rio.wav,./stim/wavs/argentine_mismatch_declarative-narrow-focus_El-nino-oye-el-rio.wav,./stim/wavs/castilian_mismatch_declarative-narrow-focus_El-nino-oye-el-rio.wav,./stim/wavs/chilean_mismatch_declarative-narrow-focus_El-nino-oye-el-rio.wav,./stim/wavs/cuban_mismatch_declarative-narrow-focus_El-nino-oye-el-rio.wav,./stim/wavs/mexican_mismatch_declarative-narrow-focus_El-nino-oye-el-rio.wav,./stim/wavs/peruvian_mismatch_declarative-narrow-focus_El-nino-oye-el-rio.wav,./stim/wavs/puertorican_mismatch_declarative-narrow-focus_El-nino-oye-el-rio.wav,,,,,,,,,,,,,,,,,,,,,,,,,,,,,,,,,,,,,,,,,,,,,,,,,,,,,,,,
,,,,,,,5f4cfe26fc6fe994078bedd3,6057c54e64b0b4e5c128b4f9,6057f2b94cc920cd8e13465b,United States,Northeast,13 or older,no,2021-03-22_09h42.16.090,empathy_intonation_perc,2020.2.10,Win32,60,,,,,,,,,,1,peruvian,0,0,2.104,0,4,4,48,1,49,./stim/wavs/andalusian_mismatch_interrogative-partial-wh_Cuando-comia-la-fruta.wav,./stim/wavs/argentine_mismatch_interrogative-partial-wh_Cuando-comia-la-fruta.wav,./stim/wavs/castilian_mismatch_interrogative-partial-wh_Cuando-comia-la-fruta.wav,./stim/wavs/chilean_mismatch_interrogative-partial-wh_Cuando-comia-la-fruta.wav,./stim/wavs/cuban_mismatch_interrogative-partial-wh_Cuando-comia-la-fruta.wav,./stim/wavs/mexican_mismatch_interrogative-partial-wh_Cuando-comia-la-fruta.wav,./stim/wavs/peruvian_mismatch_interrogative-partial-wh_Cuando-comia-la-fruta.wav,./stim/wavs/puertorican_mismatch_interrogative-partial-wh_Cuando-comia-la-fruta.wav,,,,,,,,,,,,,,,,,,,,,,,,,,,,,,,,,,,,,,,,,,,,,,,,,,,,,,,,
,,,,,,,5f4cfe26fc6fe994078bedd3,6057c54e64b0b4e5c128b4f9,6057f2b94cc920cd8e13465b,United States,Northeast,13 or older,no,2021-03-22_09h42.16.090,empathy_intonation_perc,2020.2.10,Win32,60,,,,,,,,,,0,argentine,1,0,2.509,0,5,5,2,1,3,./stim/wavs/andalusian_match_declarative-broad-focus_David-leia-el-libro.wav,./stim/wavs/argentine_match_declarative-broad-focus_David-leia-el-libro.wav,./stim/wavs/castilian_match_declarative-broad-focus_David-leia-el-libro.wav,./stim/wavs/chilean_match_declarative-broad-focus_David-leia-el-libro.wav,./stim/wavs/cuban_match_declarative-broad-focus_David-leia-el-libro.wav,./stim/wavs/mexican_match_declarative-broad-focus_David-leia-el-libro.wav,./stim/wavs/peruvian_match_declarative-broad-focus_David-leia-el-libro.wav,./stim/wavs/puertorican_match_declarative-broad-focus_David-leia-el-libro.wav,,,,,,,,,,,,,,,,,,,,,,,,,,,,,,,,,,,,,,,,,,,,,,,,,,,,,,,,
,,,,,,,5f4cfe26fc6fe994078bedd3,6057c54e64b0b4e5c128b4f9,6057f2b94cc920cd8e13465b,United States,Northeast,13 or older,no,2021-03-22_09h42.16.090,empathy_intonation_perc,2020.2.10,Win32,60,,,,,,,,,,1,cuban,0,0,1.67,0,6,6,58,1,59,./stim/wavs/andalusian_mismatch_interrogative-total-yn_El-nino-oye-el-rio.wav,./stim/wavs/argentine_mismatch_interrogative-total-yn_El-nino-oye-el-rio.wav,./stim/wavs/castilian_mismatch_interrogative-total-yn_El-nino-oye-el-rio.wav,./stim/wavs/chilean_mismatch_interrogative-total-yn_El-nino-oye-el-rio.wav,./stim/wavs/cuban_mismatch_interrogative-total-yn_El-nino-oye-el-rio.wav,./stim/wavs/mexican_mismatch_interrogative-total-yn_El-nino-oye-el-rio.wav,./stim/wavs/peruvian_mismatch_interrogative-total-yn_El-nino-oye-el-rio.wav,./stim/wavs/puertorican_mismatch_interrogative-total-yn_El-nino-oye-el-rio.wav,,,,,,,,,,,,,,,,,,,,,,,,,,,,,,,,,,,,,,,,,,,,,,,,,,,,,,,,
,,,,,,,5f4cfe26fc6fe994078bedd3,6057c54e64b0b4e5c128b4f9,6057f2b94cc920cd8e13465b,United States,Northeast,13 or older,no,2021-03-22_09h42.16.090,empathy_intonation_perc,2020.2.10,Win32,60,,,,,,,,,,1,cuban,0,0,1.334,0,7,7,18,1,19,./stim/wavs/andalusian_match_interrogative-partial-wh_Cuando-lleva-el-abrigo.wav,./stim/wavs/argentine_match_interrogative-partial-wh_Cuando-lleva-el-abrigo.wav,./stim/wavs/castilian_match_interrogative-partial-wh_Cuando-lleva-el-abrigo.wav,./stim/wavs/chilean_match_interrogative-partial-wh_Cuando-lleva-el-abrigo.wav,./stim/wavs/cuban_match_interrogative-partial-wh_Cuando-lleva-el-abrigo.wav,./stim/wavs/mexican_match_interrogative-partial-wh_Cuando-lleva-el-abrigo.wav,./stim/wavs/peruvian_match_interrogative-partial-wh_Cuando-lleva-el-abrigo.wav,./stim/wavs/puertorican_match_interrogative-partial-wh_Cuando-lleva-el-abrigo.wav,,,,,,,,,,,,,,,,,,,,,,,,,,,,,,,,,,,,,,,,,,,,,,,,,,,,,,,,
,,,,,,,5f4cfe26fc6fe994078bedd3,6057c54e64b0b4e5c128b4f9,6057f2b94cc920cd8e13465b,United States,Northeast,13 or older,no,2021-03-22_09h42.16.090,empathy_intonation_perc,2020.2.10,Win32,60,,,,,,,,,,0,peruvian,0,1,1.611,0,8,8,15,1,16,./stim/wavs/andalusian_match_declarative-narrow-focus_Marta-abre-el-regalo.wav,./stim/wavs/argentine_match_declarative-narrow-focus_Marta-abre-el-regalo.wav,./stim/wavs/castilian_match_declarative-narrow-focus_Marta-abre-el-regalo.wav,./stim/wavs/chilean_match_declarative-narrow-focus_Marta-abre-el-regalo.wav,./stim/wavs/cuban_match_declarative-narrow-focus_Marta-abre-el-regalo.wav,./stim/wavs/mexican_match_declarative-narrow-focus_Marta-abre-el-regalo.wav,./stim/wavs/peruvian_match_declarative-narrow-focus_Marta-abre-el-regalo.wav,./stim/wavs/puertorican_match_declarative-narrow-focus_Marta-abre-el-regalo.wav,,,,,,,,,,,,,,,,,,,,,,,,,,,,,,,,,,,,,,,,,,,,,,,,,,,,,,,,
,,,,,,,5f4cfe26fc6fe994078bedd3,6057c54e64b0b4e5c128b4f9,6057f2b94cc920cd8e13465b,United States,Northeast,13 or older,no,2021-03-22_09h42.16.090,empathy_intonation_perc,2020.2.10,Win32,60,,,,,,,,,,0,chilean,0,1,2.371,0,9,9,11,1,12,./stim/wavs/andalusian_match_declarative-narrow-focus_Emilio-ama-la-marcha.wav,./stim/wavs/argentine_match_declarative-narrow-focus_Emilio-ama-la-marcha.wav,./stim/wavs/castilian_match_declarative-narrow-focus_Emilio-ama-la-marcha.wav,./stim/wavs/chilean_match_declarative-narrow-focus_Emilio-ama-la-marcha.wav,./stim/wavs/cuban_match_declarative-narrow-focus_Emilio-ama-la-marcha.wav,./stim/wavs/mexican_match_declarative-narrow-focus_Emilio-ama-la-marcha.wav,./stim/wavs/peruvian_match_declarative-narrow-focus_Emilio-ama-la-marcha.wav,./stim/wavs/puertorican_match_declarative-narrow-focus_Emilio-ama-la-marcha.wav,,,,,,,,,,,,,,,,,,,,,,,,,,,,,,,,,,,,,,,,,,,,,,,,,,,,,,,,
,,,,,,,5f4cfe26fc6fe994078bedd3,6057c54e64b0b4e5c128b4f9,6057f2b94cc920cd8e13465b,United States,Northeast,13 or older,no,2021-03-22_09h42.16.090,empathy_intonation_perc,2020.2.10,Win32,60,,,,,,,,,,1,cuban,0,0,1.837,0,10,10,22,1,23,./stim/wavs/andalusian_match_interrogative-partial-wh_Por-que-hablaba-del-agua.wav,./stim/wavs/argentine_match_interrogative-partial-wh_Por-que-hablaba-del-agua.wav,./stim/wavs/castilian_match_interrogative-partial-wh_Por-que-hablaba-del-agua.wav,./stim/wavs/chilean_match_interrogative-partial-wh_Por-que-hablaba-del-agua.wav,./stim/wavs/cuban_match_interrogative-partial-wh_Por-que-hablaba-del-agua.wav,./stim/wavs/mexican_match_interrogative-partial-wh_Por-que-hablaba-del-agua.wav,./stim/wavs/peruvian_match_interrogative-partial-wh_Por-que-hablaba-del-agua.wav,./stim/wavs/puertorican_match_interrogative-partial-wh_Por-que-hablaba-del-agua.wav,,,,,,,,,,,,,,,,,,,,,,,,,,,,,,,,,,,,,,,,,,,,,,,,,,,,,,,,
,,,,,,,5f4cfe26fc6fe994078bedd3,6057c54e64b0b4e5c128b4f9,6057f2b94cc920cd8e13465b,United States,Northeast,13 or older,no,2021-03-22_09h42.16.090,empathy_intonation_perc,2020.2.10,Win32,60,,,,,,,,,,1,andalusian,1,1,3.888,0,11,11,27,1,28,./stim/wavs/andalusian_match_interrogative-total-yn_Emilio-ama-la-marcha.wav,./stim/wavs/argentine_match_interrogative-total-yn_Emilio-ama-la-marcha.wav,./stim/wavs/castilian_match_interrogative-total-yn_Emilio-ama-la-marcha.wav,./stim/wavs/chilean_match_interrogative-total-yn_Emilio-ama-la-marcha.wav,./stim/wavs/cuban_match_interrogative-total-yn_Emilio-ama-la-marcha.wav,./stim/wavs/mexican_match_interrogative-total-yn_Emilio-ama-la-marcha.wav,./stim/wavs/peruvian_match_interrogative-total-yn_Emilio-ama-la-marcha.wav,./stim/wavs/puertorican_match_interrogative-total-yn_Emilio-ama-la-marcha.wav,,,,,,,,,,,,,,,,,,,,,,,,,,,,,,,,,,,,,,,,,,,,,,,,,,,,,,,,
,,,,,,,5f4cfe26fc6fe994078bedd3,6057c54e64b0b4e5c128b4f9,6057f2b94cc920cd8e13465b,United States,Northeast,13 or older,no,2021-03-22_09h42.16.090,empathy_intonation_perc,2020.2.10,Win32,60,,,,,,,,,,0,argentine,0,1,1.668,0,12,12,4,1,5,./stim/wavs/andalusian_match_declarative-broad-focus_Manuela-vende-el-carro.wav,./stim/wavs/argentine_match_declarative-broad-focus_Manuela-vende-el-carro.wav,./stim/wavs/castilian_match_declarative-broad-focus_Manuela-vende-el-carro.wav,./stim/wavs/chilean_match_declarative-broad-focus_Manuela-vende-el-carro.wav,./stim/wavs/cuban_match_declarative-broad-focus_Manuela-vende-el-carro.wav,./stim/wavs/mexican_match_declarative-broad-focus_Manuela-vende-el-carro.wav,./stim/wavs/peruvian_match_declarative-broad-focus_Manuela-vende-el-carro.wav,./stim/wavs/puertorican_match_declarative-broad-focus_Manuela-vende-el-carro.wav,,,,,,,,,,,,,,,,,,,,,,,,,,,,,,,,,,,,,,,,,,,,,,,,,,,,,,,,
,,,,,,,5f4cfe26fc6fe994078bedd3,6057c54e64b0b4e5c128b4f9,6057f2b94cc920cd8e13465b,United States,Northeast,13 or older,no,2021-03-22_09h42.16.090,empathy_intonation_perc,2020.2.10,Win32,60,,,,,,,,,,0,andalusian,0,1,1.663,0,13,13,32,1,33,./stim/wavs/andalusian_mismatch_declarative-broad-focus_El-bebe-comia-muy-bien.wav,./stim/wavs/argentine_mismatch_declarative-broad-focus_El-bebe-comia-muy-bien.wav,./stim/wavs/castilian_mismatch_declarative-broad-focus_El-bebe-comia-muy-bien.wav,./stim/wavs/chilean_mismatch_declarative-broad-focus_El-bebe-comia-muy-bien.wav,./stim/wavs/cuban_mismatch_declarative-broad-focus_El-bebe-comia-muy-bien.wav,./stim/wavs/mexican_mismatch_declarative-broad-focus_El-bebe-comia-muy-bien.wav,./stim/wavs/peruvian_mismatch_declarative-broad-focus_El-bebe-comia-muy-bien.wav,./stim/wavs/puertorican_mismatch_declarative-broad-focus_El-bebe-comia-muy-bien.wav,,,,,,,,,,,,,,,,,,,,,,,,,,,,,,,,,,,,,,,,,,,,,,,,,,,,,,,,
,,,,,,,5f4cfe26fc6fe994078bedd3,6057c54e64b0b4e5c128b4f9,6057f2b94cc920cd8e13465b,United States,Northeast,13 or older,no,2021-03-22_09h42.16.090,empathy_intonation_perc,2020.2.10,Win32,60,,,,,,,,,,1,mexican,0,0,3.44,0,14,14,23,1,24,./stim/wavs/andalusian_match_interrogative-partial-wh_Por-que-iba-a-Bolivia.wav,./stim/wavs/argentine_match_interrogative-partial-wh_Por-que-iba-a-Bolivia.wav,./stim/wavs/castilian_match_interrogative-partial-wh_Por-que-iba-a-Bolivia.wav,./stim/wavs/chilean_match_interrogative-partial-wh_Por-que-iba-a-Bolivia.wav,./stim/wavs/cuban_match_interrogative-partial-wh_Por-que-iba-a-Bolivia.wav,./stim/wavs/mexican_match_interrogative-partial-wh_Por-que-iba-a-Bolivia.wav,./stim/wavs/peruvian_match_interrogative-partial-wh_Por-que-iba-a-Bolivia.wav,./stim/wavs/puertorican_match_interrogative-partial-wh_Por-que-iba-a-Bolivia.wav,,,,,,,,,,,,,,,,,,,,,,,,,,,,,,,,,,,,,,,,,,,,,,,,,,,,,,,,
,,,,,,,5f4cfe26fc6fe994078bedd3,6057c54e64b0b4e5c128b4f9,6057f2b94cc920cd8e13465b,United States,Northeast,13 or older,no,2021-03-22_09h42.16.090,empathy_intonation_perc,2020.2.10,Win32,60,,,,,,,,,,0,chilean,1,0,1.469,0,15,15,8,1,9,./stim/wavs/andalusian_match_declarative-narrow-focus_Ana-lleva-el-abrigo.wav,./stim/wavs/argentine_match_declarative-narrow-focus_Ana-lleva-el-abrigo.wav,./stim/wavs/castilian_match_declarative-narrow-focus_Ana-lleva-el-abrigo.wav,./stim/wavs/chilean_match_declarative-narrow-focus_Ana-lleva-el-abrigo.wav,./stim/wavs/cuban_match_declarative-narrow-focus_Ana-lleva-el-abrigo.wav,./stim/wavs/mexican_match_declarative-narrow-focus_Ana-lleva-el-abrigo.wav,./stim/wavs/peruvian_match_declarative-narrow-focus_Ana-lleva-el-abrigo.wav,./stim/wavs/puertorican_match_declarative-narrow-focus_Ana-lleva-el-abrigo.wav,,,,,,,,,,,,,,,,,,,,,,,,,,,,,,,,,,,,,,,,,,,,,,,,,,,,,,,,
,,,,,,,5f4cfe26fc6fe994078bedd3,6057c54e64b0b4e5c128b4f9,6057f2b94cc920cd8e13465b,United States,Northeast,13 or older,no,2021-03-22_09h42.16.090,empathy_intonation_perc,2020.2.10,Win32,60,,,,,,,,,,0,andalusian,0,1,2.453,0,16,16,40,1,41,./stim/wavs/andalusian_mismatch_declarative-narrow-focus_El-bebe-comia-muy-bien.wav,./stim/wavs/argentine_mismatch_declarative-narrow-focus_El-bebe-comia-muy-bien.wav,./stim/wavs/castilian_mismatch_declarative-narrow-focus_El-bebe-comia-muy-bien.wav,./stim/wavs/chilean_mismatch_declarative-narrow-focus_El-bebe-comia-muy-bien.wav,./stim/wavs/cuban_mismatch_declarative-narrow-focus_El-bebe-comia-muy-bien.wav,./stim/wavs/mexican_mismatch_declarative-narrow-focus_El-bebe-comia-muy-bien.wav,./stim/wavs/peruvian_mismatch_declarative-narrow-focus_El-bebe-comia-muy-bien.wav,./stim/wavs/puertorican_mismatch_declarative-narrow-focus_El-bebe-comia-muy-bien.wav,,,,,,,,,,,,,,,,,,,,,,,,,,,,,,,,,,,,,,,,,,,,,,,,,,,,,,,,
,,,,,,,5f4cfe26fc6fe994078bedd3,6057c54e64b0b4e5c128b4f9,6057f2b94cc920cd8e13465b,United States,Northeast,13 or older,no,2021-03-22_09h42.16.090,empathy_intonation_perc,2020.2.10,Win32,60,,,,,,,,,,0,andalusian,0,1,1.482,0,17,17,34,1,35,./stim/wavs/andalusian_mismatch_declarative-broad-focus_El-nino-oye-el-rio.wav,./stim/wavs/argentine_mismatch_declarative-broad-focus_El-nino-oye-el-rio.wav,./stim/wavs/castilian_mismatch_declarative-broad-focus_El-nino-oye-el-rio.wav,./stim/wavs/chilean_mismatch_declarative-broad-focus_El-nino-oye-el-rio.wav,./stim/wavs/cuban_mismatch_declarative-broad-focus_El-nino-oye-el-rio.wav,./stim/wavs/mexican_mismatch_declarative-broad-focus_El-nino-oye-el-rio.wav,./stim/wavs/peruvian_mismatch_declarative-broad-focus_El-nino-oye-el-rio.wav,./stim/wavs/puertorican_mismatch_declarative-broad-focus_El-nino-oye-el-rio.wav,,,,,,,,,,,,,,,,,,,,,,,,,,,,,,,,,,,,,,,,,,,,,,,,,,,,,,,,
,,,,,,,5f4cfe26fc6fe994078bedd3,6057c54e64b0b4e5c128b4f9,6057f2b94cc920cd8e13465b,United States,Northeast,13 or older,no,2021-03-22_09h42.16.090,empathy_intonation_perc,2020.2.10,Win32,60,,,,,,,,,,1,andalusian,1,1,1.702,0,18,18,61,1,62,./stim/wavs/andalusian_mismatch_interrogative-total-yn_Mi-madre-come-la-fruta.wav,./stim/wavs/argentine_mismatch_interrogative-total-yn_Mi-madre-come-la-fruta.wav,./stim/wavs/castilian_mismatch_interrogative-total-yn_Mi-madre-come-la-fruta.wav,./stim/wavs/chilean_mismatch_interrogative-total-yn_Mi-madre-come-la-fruta.wav,./stim/wavs/cuban_mismatch_interrogative-total-yn_Mi-madre-come-la-fruta.wav,./stim/wavs/mexican_mismatch_interrogative-total-yn_Mi-madre-come-la-fruta.wav,./stim/wavs/peruvian_mismatch_interrogative-total-yn_Mi-madre-come-la-fruta.wav,./stim/wavs/puertorican_mismatch_interrogative-total-yn_Mi-madre-come-la-fruta.wav,,,,,,,,,,,,,,,,,,,,,,,,,,,,,,,,,,,,,,,,,,,,,,,,,,,,,,,,
,,,,,,,5f4cfe26fc6fe994078bedd3,6057c54e64b0b4e5c128b4f9,6057f2b94cc920cd8e13465b,United States,Northeast,13 or older,no,2021-03-22_09h42.16.090,empathy_intonation_perc,2020.2.10,Win32,60,,,,,,,,,,0,cuban,0,1,2.906,0,19,19,35,1,36,./stim/wavs/andalusian_mismatch_declarative-broad-focus_La-maestra-vive-en-Paris.wav,./stim/wavs/argentine_mismatch_declarative-broad-focus_La-maestra-vive-en-Paris.wav,./stim/wavs/castilian_mismatch_declarative-broad-focus_La-maestra-vive-en-Paris.wav,./stim/wavs/chilean_mismatch_declarative-broad-focus_La-maestra-vive-en-Paris.wav,./stim/wavs/cuban_mismatch_declarative-broad-focus_La-maestra-vive-en-Paris.wav,./stim/wavs/mexican_mismatch_declarative-broad-focus_La-maestra-vive-en-Paris.wav,./stim/wavs/peruvian_mismatch_declarative-broad-focus_La-maestra-vive-en-Paris.wav,./stim/wavs/puertorican_mismatch_declarative-broad-focus_La-maestra-vive-en-Paris.wav,,,,,,,,,,,,,,,,,,,,,,,,,,,,,,,,,,,,,,,,,,,,,,,,,,,,,,,,
,,,,,,,5f4cfe26fc6fe994078bedd3,6057c54e64b0b4e5c128b4f9,6057f2b94cc920cd8e13465b,United States,Northeast,13 or older,no,2021-03-22_09h42.16.090,empathy_intonation_perc,2020.2.10,Win32,60,,,,,,,,,,0,castilian,0,1,2.104,0,20,20,43,1,44,./stim/wavs/andalusian_mismatch_declarative-narrow-focus_La-maestra-vive-en-Paris.wav,./stim/wavs/argentine_mismatch_declarative-narrow-focus_La-maestra-vive-en-Paris.wav,./stim/wavs/castilian_mismatch_declarative-narrow-focus_La-maestra-vive-en-Paris.wav,./stim/wavs/chilean_mismatch_declarative-narrow-focus_La-maestra-vive-en-Paris.wav,./stim/wavs/cuban_mismatch_declarative-narrow-focus_La-maestra-vive-en-Paris.wav,./stim/wavs/mexican_mismatch_declarative-narrow-focus_La-maestra-vive-en-Paris.wav,./stim/wavs/peruvian_mismatch_declarative-narrow-focus_La-maestra-vive-en-Paris.wav,./stim/wavs/puertorican_mismatch_declarative-narrow-focus_La-maestra-vive-en-Paris.wav,,,,,,,,,,,,,,,,,,,,,,,,,,,,,,,,,,,,,,,,,,,,,,,,,,,,,,,,
,,,,,,,5f4cfe26fc6fe994078bedd3,6057c54e64b0b4e5c128b4f9,6057f2b94cc920cd8e13465b,United States,Northeast,13 or older,no,2021-03-22_09h42.16.090,empathy_intonation_perc,2020.2.10,Win32,60,,,,,,,,,,0,cuban,0,1,1.586,0,21,21,33,1,34,./stim/wavs/andalusian_mismatch_declarative-broad-focus_El-hombre-mira-la-luna.wav,./stim/wavs/argentine_mismatch_declarative-broad-focus_El-hombre-mira-la-luna.wav,./stim/wavs/castilian_mismatch_declarative-broad-focus_El-hombre-mira-la-luna.wav,./stim/wavs/chilean_mismatch_declarative-broad-focus_El-hombre-mira-la-luna.wav,./stim/wavs/cuban_mismatch_declarative-broad-focus_El-hombre-mira-la-luna.wav,./stim/wavs/mexican_mismatch_declarative-broad-focus_El-hombre-mira-la-luna.wav,./stim/wavs/peruvian_mismatch_declarative-broad-focus_El-hombre-mira-la-luna.wav,./stim/wavs/puertorican_mismatch_declarative-broad-focus_El-hombre-mira-la-luna.wav,,,,,,,,,,,,,,,,,,,,,,,,,,,,,,,,,,,,,,,,,,,,,,,,,,,,,,,,
,,,,,,,5f4cfe26fc6fe994078bedd3,6057c54e64b0b4e5c128b4f9,6057f2b94cc920cd8e13465b,United States,Northeast,13 or older,no,2021-03-22_09h42.16.090,empathy_intonation_perc,2020.2.10,Win32,60,,,,,,,,,,1,chilean,1,1,1.916,0,22,22,56,1,57,./stim/wavs/andalusian_mismatch_interrogative-total-yn_El-bebe-comia-muy-bien.wav,./stim/wavs/argentine_mismatch_interrogative-total-yn_El-bebe-comia-muy-bien.wav,./stim/wavs/castilian_mismatch_interrogative-total-yn_El-bebe-comia-muy-bien.wav,./stim/wavs/chilean_mismatch_interrogative-total-yn_El-bebe-comia-muy-bien.wav,./stim/wavs/cuban_mismatch_interrogative-total-yn_El-bebe-comia-muy-bien.wav,./stim/wavs/mexican_mismatch_interrogative-total-yn_El-bebe-comia-muy-bien.wav,./stim/wavs/peruvian_mismatch_interrogative-total-yn_El-bebe-comia-muy-bien.wav,./stim/wavs/puertorican_mismatch_interrogative-total-yn_El-bebe-comia-muy-bien.wav,,,,,,,,,,,,,,,,,,,,,,,,,,,,,,,,,,,,,,,,,,,,,,,,,,,,,,,,
,,,,,,,5f4cfe26fc6fe994078bedd3,6057c54e64b0b4e5c128b4f9,6057f2b94cc920cd8e13465b,United States,Northeast,13 or older,no,2021-03-22_09h42.16.090,empathy_intonation_perc,2020.2.10,Win32,60,,,,,,,,,,0,argentine,1,0,2.469,0,23,23,46,1,47,./stim/wavs/andalusian_mismatch_declarative-narrow-focus_Mi-novio-viene-del-lago.wav,./stim/wavs/argentine_mismatch_declarative-narrow-focus_Mi-novio-viene-del-lago.wav,./stim/wavs/castilian_mismatch_declarative-narrow-focus_Mi-novio-viene-del-lago.wav,./stim/wavs/chilean_mismatch_declarative-narrow-focus_Mi-novio-viene-del-lago.wav,./stim/wavs/cuban_mismatch_declarative-narrow-focus_Mi-novio-viene-del-lago.wav,./stim/wavs/mexican_mismatch_declarative-narrow-focus_Mi-novio-viene-del-lago.wav,./stim/wavs/peruvian_mismatch_declarative-narrow-focus_Mi-novio-viene-del-lago.wav,./stim/wavs/puertorican_mismatch_declarative-narrow-focus_Mi-novio-viene-del-lago.wav,,,,,,,,,,,,,,,,,,,,,,,,,,,,,,,,,,,,,,,,,,,,,,,,,,,,,,,,
,,,,,,,5f4cfe26fc6fe994078bedd3,6057c54e64b0b4e5c128b4f9,6057f2b94cc920cd8e13465b,United States,Northeast,13 or older,no,2021-03-22_09h42.16.090,empathy_intonation_perc,2020.2.10,Win32,60,,,,,,,,,,1,argentine,1,1,1.716,0,24,24,62,1,63,./stim/wavs/andalusian_mismatch_interrogative-total-yn_Mi-novio-viene-del-lago.wav,./stim/wavs/argentine_mismatch_interrogative-total-yn_Mi-novio-viene-del-lago.wav,./stim/wavs/castilian_mismatch_interrogative-total-yn_Mi-novio-viene-del-lago.wav,./stim/wavs/chilean_mismatch_interrogative-total-yn_Mi-novio-viene-del-lago.wav,./stim/wavs/cuban_mismatch_interrogative-total-yn_Mi-novio-viene-del-lago.wav,./stim/wavs/mexican_mismatch_interrogative-total-yn_Mi-novio-viene-del-lago.wav,./stim/wavs/peruvian_mismatch_interrogative-total-yn_Mi-novio-viene-del-lago.wav,./stim/wavs/puertorican_mismatch_interrogative-total-yn_Mi-novio-viene-del-lago.wav,,,,,,,,,,,,,,,,,,,,,,,,,,,,,,,,,,,,,,,,,,,,,,,,,,,,,,,,
,,,,,,,5f4cfe26fc6fe994078bedd3,6057c54e64b0b4e5c128b4f9,6057f2b94cc920cd8e13465b,United States,Northeast,13 or older,no,2021-03-22_09h42.16.090,empathy_intonation_perc,2020.2.10,Win32,60,,,,,,,,,,1,andalusian,1,1,1.803,0,25,25,60,1,61,./stim/wavs/andalusian_mismatch_interrogative-total-yn_La-nina-lava-el-plato.wav,./stim/wavs/argentine_mismatch_interrogative-total-yn_La-nina-lava-el-plato.wav,./stim/wavs/castilian_mismatch_interrogative-total-yn_La-nina-lava-el-plato.wav,./stim/wavs/chilean_mismatch_interrogative-total-yn_La-nina-lava-el-plato.wav,./stim/wavs/cuban_mismatch_interrogative-total-yn_La-nina-lava-el-plato.wav,./stim/wavs/mexican_mismatch_interrogative-total-yn_La-nina-lava-el-plato.wav,./stim/wavs/peruvian_mismatch_interrogative-total-yn_La-nina-lava-el-plato.wav,./stim/wavs/puertorican_mismatch_interrogative-total-yn_La-nina-lava-el-plato.wav,,,,,,,,,,,,,,,,,,,,,,,,,,,,,,,,,,,,,,,,,,,,,,,,,,,,,,,,
,,,,,,,5f4cfe26fc6fe994078bedd3,6057c54e64b0b4e5c128b4f9,6057f2b94cc920cd8e13465b,United States,Northeast,13 or older,no,2021-03-22_09h42.16.090,empathy_intonation_perc,2020.2.10,Win32,60,,,,,,,,,,0,cuban,0,1,1.951,0,26,26,1,1,2,./stim/wavs/andalusian_match_declarative-broad-focus_Daniel-iba-a-Bolivia.wav,./stim/wavs/argentine_match_declarative-broad-focus_Daniel-iba-a-Bolivia.wav,./stim/wavs/castilian_match_declarative-broad-focus_Daniel-iba-a-Bolivia.wav,./stim/wavs/chilean_match_declarative-broad-focus_Daniel-iba-a-Bolivia.wav,./stim/wavs/cuban_match_declarative-broad-focus_Daniel-iba-a-Bolivia.wav,./stim/wavs/mexican_match_declarative-broad-focus_Daniel-iba-a-Bolivia.wav,./stim/wavs/peruvian_match_declarative-broad-focus_Daniel-iba-a-Bolivia.wav,./stim/wavs/puertorican_match_declarative-broad-focus_Daniel-iba-a-Bolivia.wav,,,,,,,,,,,,,,,,,,,,,,,,,,,,,,,,,,,,,,,,,,,,,,,,,,,,,,,,
,,,,,,,5f4cfe26fc6fe994078bedd3,6057c54e64b0b4e5c128b4f9,6057f2b94cc920cd8e13465b,United States,Northeast,13 or older,no,2021-03-22_09h42.16.090,empathy_intonation_perc,2020.2.10,Win32,60,,,,,,,,,,1,castilian,0,0,4.779,0,27,27,57,1,58,./stim/wavs/andalusian_mismatch_interrogative-total-yn_El-hombre-mira-la-luna.wav,./stim/wavs/argentine_mismatch_interrogative-total-yn_El-hombre-mira-la-luna.wav,./stim/wavs/castilian_mismatch_interrogative-total-yn_El-hombre-mira-la-luna.wav,./stim/wavs/chilean_mismatch_interrogative-total-yn_El-hombre-mira-la-luna.wav,./stim/wavs/cuban_mismatch_interrogative-total-yn_El-hombre-mira-la-luna.wav,./stim/wavs/mexican_mismatch_interrogative-total-yn_El-hombre-mira-la-luna.wav,./stim/wavs/peruvian_mismatch_interrogative-total-yn_El-hombre-mira-la-luna.wav,./stim/wavs/puertorican_mismatch_interrogative-total-yn_El-hombre-mira-la-luna.wav,,,,,,,,,,,,,,,,,,,,,,,,,,,,,,,,,,,,,,,,,,,,,,,,,,,,,,,,
,,,,,,,5f4cfe26fc6fe994078bedd3,6057c54e64b0b4e5c128b4f9,6057f2b94cc920cd8e13465b,United States,Northeast,13 or older,no,2021-03-22_09h42.16.090,empathy_intonation_perc,2020.2.10,Win32,60,,,,,,,,,,1,castilian,1,1,1.993,0,28,28,26,1,27,./stim/wavs/andalusian_match_interrogative-total-yn_David-leia-el-libro.wav,./stim/wavs/argentine_match_interrogative-total-yn_David-leia-el-libro.wav,./stim/wavs/castilian_match_interrogative-total-yn_David-leia-el-libro.wav,./stim/wavs/chilean_match_interrogative-total-yn_David-leia-el-libro.wav,./stim/wavs/cuban_match_interrogative-total-yn_David-leia-el-libro.wav,./stim/wavs/mexican_match_interrogative-total-yn_David-leia-el-libro.wav,./stim/wavs/peruvian_match_interrogative-total-yn_David-leia-el-libro.wav,./stim/wavs/puertorican_match_interrogative-total-yn_David-leia-el-libro.wav,,,,,,,,,,,,,,,,,,,,,,,,,,,,,,,,,,,,,,,,,,,,,,,,,,,,,,,,
,,,,,,,5f4cfe26fc6fe994078bedd3,6057c54e64b0b4e5c128b4f9,6057f2b94cc920cd8e13465b,United States,Northeast,13 or older,no,2021-03-22_09h42.16.090,empathy_intonation_perc,2020.2.10,Win32,60,,,,,,,,,,0,castilian,0,1,1.836,0,29,29,39,1,40,./stim/wavs/andalusian_mismatch_declarative-broad-focus_Mi-tia-odia-la-lluvia.wav,./stim/wavs/argentine_mismatch_declarative-broad-focus_Mi-tia-odia-la-lluvia.wav,./stim/wavs/castilian_mismatch_declarative-broad-focus_Mi-tia-odia-la-lluvia.wav,./stim/wavs/chilean_mismatch_declarative-broad-focus_Mi-tia-odia-la-lluvia.wav,./stim/wavs/cuban_mismatch_declarative-broad-focus_Mi-tia-odia-la-lluvia.wav,./stim/wavs/mexican_mismatch_declarative-broad-focus_Mi-tia-odia-la-lluvia.wav,./stim/wavs/peruvian_mismatch_declarative-broad-focus_Mi-tia-odia-la-lluvia.wav,./stim/wavs/puertorican_mismatch_declarative-broad-focus_Mi-tia-odia-la-lluvia.wav,,,,,,,,,,,,,,,,,,,,,,,,,,,,,,,,,,,,,,,,,,,,,,,,,,,,,,,,
,,,,,,,5f4cfe26fc6fe994078bedd3,6057c54e64b0b4e5c128b4f9,6057f2b94cc920cd8e13465b,United States,Northeast,13 or older,no,2021-03-22_09h42.16.090,empathy_intonation_perc,2020.2.10,Win32,60,,,,,,,,,,1,andalusian,0,0,1.703,0,30,30,29,1,30,./stim/wavs/andalusian_match_interrogative-total-yn_Maria-bebe-el-vino.wav,./stim/wavs/argentine_match_interrogative-total-yn_Maria-bebe-el-vino.wav,./stim/wavs/castilian_match_interrogative-total-yn_Maria-bebe-el-vino.wav,./stim/wavs/chilean_match_interrogative-total-yn_Maria-bebe-el-vino.wav,./stim/wavs/cuban_match_interrogative-total-yn_Maria-bebe-el-vino.wav,./stim/wavs/mexican_match_interrogative-total-yn_Maria-bebe-el-vino.wav,./stim/wavs/peruvian_match_interrogative-total-yn_Maria-bebe-el-vino.wav,./stim/wavs/puertorican_match_interrogative-total-yn_Maria-bebe-el-vino.wav,,,,,,,,,,,,,,,,,,,,,,,,,,,,,,,,,,,,,,,,,,,,,,,,,,,,,,,,
,,,,,,,5f4cfe26fc6fe994078bedd3,6057c54e64b0b4e5c128b4f9,6057f2b94cc920cd8e13465b,United States,Northeast,13 or older,no,2021-03-22_09h42.16.090,empathy_intonation_perc,2020.2.10,Win32,60,,,,,,,,,,0,peruvian,1,0,2.628,0,31,31,37,1,38,./stim/wavs/andalusian_mismatch_declarative-broad-focus_Mi-madre-come-la-fruta.wav,./stim/wavs/argentine_mismatch_declarative-broad-focus_Mi-madre-come-la-fruta.wav,./stim/wavs/castilian_mismatch_declarative-broad-focus_Mi-madre-come-la-fruta.wav,./stim/wavs/chilean_mismatch_declarative-broad-focus_Mi-madre-come-la-fruta.wav,./stim/wavs/cuban_mismatch_declarative-broad-focus_Mi-madre-come-la-fruta.wav,./stim/wavs/mexican_mismatch_declarative-broad-focus_Mi-madre-come-la-fruta.wav,./stim/wavs/peruvian_mismatch_declarative-broad-focus_Mi-madre-come-la-fruta.wav,./stim/wavs/puertorican_mismatch_declarative-broad-focus_Mi-madre-come-la-fruta.wav,,,,,,,,,,,,,,,,,,,,,,,,,,,,,,,,,,,,,,,,,,,,,,,,,,,,,,,,
,,,,,,,5f4cfe26fc6fe994078bedd3,6057c54e64b0b4e5c128b4f9,6057f2b94cc920cd8e13465b,United States,Northeast,13 or older,no,2021-03-22_09h42.16.090,empathy_intonation_perc,2020.2.10,Win32,60,,,,,,,,,,0,peruvian,0,1,1.743,0,32,32,9,1,10,./stim/wavs/andalusian_match_declarative-narrow-focus_Daniel-iba-a-Bolivia.wav,./stim/wavs/argentine_match_declarative-narrow-focus_Daniel-iba-a-Bolivia.wav,./stim/wavs/castilian_match_declarative-narrow-focus_Daniel-iba-a-Bolivia.wav,./stim/wavs/chilean_match_declarative-narrow-focus_Daniel-iba-a-Bolivia.wav,./stim/wavs/cuban_match_declarative-narrow-focus_Daniel-iba-a-Bolivia.wav,./stim/wavs/mexican_match_declarative-narrow-focus_Daniel-iba-a-Bolivia.wav,./stim/wavs/peruvian_match_declarative-narrow-focus_Daniel-iba-a-Bolivia.wav,./stim/wavs/puertorican_match_declarative-narrow-focus_Daniel-iba-a-Bolivia.wav,,,,,,,,,,,,,,,,,,,,,,,,,,,,,,,,,,,,,,,,,,,,,,,,,,,,,,,,
,,,,,,,5f4cfe26fc6fe994078bedd3,6057c54e64b0b4e5c128b4f9,6057f2b94cc920cd8e13465b,United States,Northeast,13 or older,no,2021-03-22_09h42.16.090,empathy_intonation_perc,2020.2.10,Win32,60,,,,,,,,,,0,andalusian,0,1,2.521,0,33,33,10,1,11,./stim/wavs/andalusian_match_declarative-narrow-focus_David-leia-el-libro.wav,./stim/wavs/argentine_match_declarative-narrow-focus_David-leia-el-libro.wav,./stim/wavs/castilian_match_declarative-narrow-focus_David-leia-el-libro.wav,./stim/wavs/chilean_match_declarative-narrow-focus_David-leia-el-libro.wav,./stim/wavs/cuban_match_declarative-narrow-focus_David-leia-el-libro.wav,./stim/wavs/mexican_match_declarative-narrow-focus_David-leia-el-libro.wav,./stim/wavs/peruvian_match_declarative-narrow-focus_David-leia-el-libro.wav,./stim/wavs/puertorican_match_declarative-narrow-focus_David-leia-el-libro.wav,,,,,,,,,,,,,,,,,,,,,,,,,,,,,,,,,,,,,,,,,,,,,,,,,,,,,,,,
,,,,,,,5f4cfe26fc6fe994078bedd3,6057c54e64b0b4e5c128b4f9,6057f2b94cc920cd8e13465b,United States,Northeast,13 or older,no,2021-03-22_09h42.16.090,empathy_intonation_perc,2020.2.10,Win32,60,,,,,,,,,,1,andalusian,1,1,2.519,0,34,34,50,1,51,./stim/wavs/andalusian_mismatch_interrogative-partial-wh_Cuando-miraba-la-luna.wav,./stim/wavs/argentine_mismatch_interrogative-partial-wh_Cuando-miraba-la-luna.wav,./stim/wavs/castilian_mismatch_interrogative-partial-wh_Cuando-miraba-la-luna.wav,./stim/wavs/chilean_mismatch_interrogative-partial-wh_Cuando-miraba-la-luna.wav,./stim/wavs/cuban_mismatch_interrogative-partial-wh_Cuando-miraba-la-luna.wav,./stim/wavs/mexican_mismatch_interrogative-partial-wh_Cuando-miraba-la-luna.wav,./stim/wavs/peruvian_mismatch_interrogative-partial-wh_Cuando-miraba-la-luna.wav,./stim/wavs/puertorican_mismatch_interrogative-partial-wh_Cuando-miraba-la-luna.wav,,,,,,,,,,,,,,,,,,,,,,,,,,,,,,,,,,,,,,,,,,,,,,,,,,,,,,,,
,,,,,,,5f4cfe26fc6fe994078bedd3,6057c54e64b0b4e5c128b4f9,6057f2b94cc920cd8e13465b,United States,Northeast,13 or older,no,2021-03-22_09h42.16.090,empathy_intonation_perc,2020.2.10,Win32,60,,,,,,,,,,1,castilian,1,1,6.175,0,35,35,51,1,52,./stim/wavs/andalusian_mismatch_interrogative-partial-wh_Por-que-desayuna-muy-bien.wav,./stim/wavs/argentine_mismatch_interrogative-partial-wh_Por-que-desayuna-muy-bien.wav,./stim/wavs/castilian_mismatch_interrogative-partial-wh_Por-que-desayuna-muy-bien.wav,./stim/wavs/chilean_mismatch_interrogative-partial-wh_Por-que-desayuna-muy-bien.wav,./stim/wavs/cuban_mismatch_interrogative-partial-wh_Por-que-desayuna-muy-bien.wav,./stim/wavs/mexican_mismatch_interrogative-partial-wh_Por-que-desayuna-muy-bien.wav,./stim/wavs/peruvian_mismatch_interrogative-partial-wh_Por-que-desayuna-muy-bien.wav,./stim/wavs/puertorican_mismatch_interrogative-partial-wh_Por-que-desayuna-muy-bien.wav,,,,,,,,,,,,,,,,,,,,,,,,,,,,,,,,,,,,,,,,,,,,,,,,,,,,,,,,
,,,,,,,5f4cfe26fc6fe994078bedd3,6057c54e64b0b4e5c128b4f9,6057f2b94cc920cd8e13465b,United States,Northeast,13 or older,no,2021-03-22_09h42.16.090,empathy_intonation_perc,2020.2.10,Win32,60,,,,,,,,,,0,cuban,1,0,2.004,0,36,36,47,1,48,./stim/wavs/andalusian_mismatch_declarative-narrow-focus_Mi-tia-odia-la-lluvia.wav,./stim/wavs/argentine_mismatch_declarative-narrow-focus_Mi-tia-odia-la-lluvia.wav,./stim/wavs/castilian_mismatch_declarative-narrow-focus_Mi-tia-odia-la-lluvia.wav,./stim/wavs/chilean_mismatch_declarative-narrow-focus_Mi-tia-odia-la-lluvia.wav,./stim/wavs/cuban_mismatch_declarative-narrow-focus_Mi-tia-odia-la-lluvia.wav,./stim/wavs/mexican_mismatch_declarative-narrow-focus_Mi-tia-odia-la-lluvia.wav,./stim/wavs/peruvian_mismatch_declarative-narrow-focus_Mi-tia-odia-la-lluvia.wav,./stim/wavs/puertorican_mismatch_declarative-narrow-focus_Mi-tia-odia-la-lluvia.wav,,,,,,,,,,,,,,,,,,,,,,,,,,,,,,,,,,,,,,,,,,,,,,,,,,,,,,,,
,,,,,,,5f4cfe26fc6fe994078bedd3,6057c54e64b0b4e5c128b4f9,6057f2b94cc920cd8e13465b,United States,Northeast,13 or older,no,2021-03-22_09h42.16.090,empathy_intonation_perc,2020.2.10,Win32,60,,,,,,,,,,0,chilean,0,1,2.068,0,37,37,45,1,46,./stim/wavs/andalusian_mismatch_declarative-narrow-focus_Mi-madre-come-la-fruta.wav,./stim/wavs/argentine_mismatch_declarative-narrow-focus_Mi-madre-come-la-fruta.wav,./stim/wavs/castilian_mismatch_declarative-narrow-focus_Mi-madre-come-la-fruta.wav,./stim/wavs/chilean_mismatch_declarative-narrow-focus_Mi-madre-come-la-fruta.wav,./stim/wavs/cuban_mismatch_declarative-narrow-focus_Mi-madre-come-la-fruta.wav,./stim/wavs/mexican_mismatch_declarative-narrow-focus_Mi-madre-come-la-fruta.wav,./stim/wavs/peruvian_mismatch_declarative-narrow-focus_Mi-madre-come-la-fruta.wav,./stim/wavs/puertorican_mismatch_declarative-narrow-focus_Mi-madre-come-la-fruta.wav,,,,,,,,,,,,,,,,,,,,,,,,,,,,,,,,,,,,,,,,,,,,,,,,,,,,,,,,
,,,,,,,5f4cfe26fc6fe994078bedd3,6057c54e64b0b4e5c128b4f9,6057f2b94cc920cd8e13465b,United States,Northeast,13 or older,no,2021-03-22_09h42.16.090,empathy_intonation_perc,2020.2.10,Win32,60,,,,,,,,,,0,cuban,0,1,1.522,0,38,38,12,1,13,./stim/wavs/andalusian_match_declarative-narrow-focus_Manuela-vende-el-carro.wav,./stim/wavs/argentine_match_declarative-narrow-focus_Manuela-vende-el-carro.wav,./stim/wavs/castilian_match_declarative-narrow-focus_Manuela-vende-el-carro.wav,./stim/wavs/chilean_match_declarative-narrow-focus_Manuela-vende-el-carro.wav,./stim/wavs/cuban_match_declarative-narrow-focus_Manuela-vende-el-carro.wav,./stim/wavs/mexican_match_declarative-narrow-focus_Manuela-vende-el-carro.wav,./stim/wavs/peruvian_match_declarative-narrow-focus_Manuela-vende-el-carro.wav,./stim/wavs/puertorican_match_declarative-narrow-focus_Manuela-vende-el-carro.wav,,,,,,,,,,,,,,,,,,,,,,,,,,,,,,,,,,,,,,,,,,,,,,,,,,,,,,,,
,,,,,,,5f4cfe26fc6fe994078bedd3,6057c54e64b0b4e5c128b4f9,6057f2b94cc920cd8e13465b,United States,Northeast,13 or older,no,2021-03-22_09h42.16.090,empathy_intonation_perc,2020.2.10,Win32,60,,,,,,,,,,1,peruvian,0,0,2.868,0,39,39,21,1,22,./stim/wavs/andalusian_match_interrogative-partial-wh_Por-que-ama-la-navidad.wav,./stim/wavs/argentine_match_interrogative-partial-wh_Por-que-ama-la-navidad.wav,./stim/wavs/castilian_match_interrogative-partial-wh_Por-que-ama-la-navidad.wav,./stim/wavs/chilean_match_interrogative-partial-wh_Por-que-ama-la-navidad.wav,./stim/wavs/cuban_match_interrogative-partial-wh_Por-que-ama-la-navidad.wav,./stim/wavs/mexican_match_interrogative-partial-wh_Por-que-ama-la-navidad.wav,./stim/wavs/peruvian_match_interrogative-partial-wh_Por-que-ama-la-navidad.wav,./stim/wavs/puertorican_match_interrogative-partial-wh_Por-que-ama-la-navidad.wav,,,,,,,,,,,,,,,,,,,,,,,,,,,,,,,,,,,,,,,,,,,,,,,,,,,,,,,,
,,,,,,,5f4cfe26fc6fe994078bedd3,6057c54e64b0b4e5c128b4f9,6057f2b94cc920cd8e13465b,United States,Northeast,13 or older,no,2021-03-22_09h42.16.090,empathy_intonation_perc,2020.2.10,Win32,60,,,,,,,,,,1,mexican,1,1,1.862,0,40,40,24,1,25,./stim/wavs/andalusian_match_interrogative-total-yn_Ana-lleva-el-abrigo.wav,./stim/wavs/argentine_match_interrogative-total-yn_Ana-lleva-el-abrigo.wav,./stim/wavs/castilian_match_interrogative-total-yn_Ana-lleva-el-abrigo.wav,./stim/wavs/chilean_match_interrogative-total-yn_Ana-lleva-el-abrigo.wav,./stim/wavs/cuban_match_interrogative-total-yn_Ana-lleva-el-abrigo.wav,./stim/wavs/mexican_match_interrogative-total-yn_Ana-lleva-el-abrigo.wav,./stim/wavs/peruvian_match_interrogative-total-yn_Ana-lleva-el-abrigo.wav,./stim/wavs/puertorican_match_interrogative-total-yn_Ana-lleva-el-abrigo.wav,,,,,,,,,,,,,,,,,,,,,,,,,,,,,,,,,,,,,,,,,,,,,,,,,,,,,,,,
,,,,,,,5f4cfe26fc6fe994078bedd3,6057c54e64b0b4e5c128b4f9,6057f2b94cc920cd8e13465b,United States,Northeast,13 or older,no,2021-03-22_09h42.16.090,empathy_intonation_perc,2020.2.10,Win32,60,,,,,,,,,,0,peruvian,0,1,4.501,0,41,41,13,1,14,./stim/wavs/andalusian_match_declarative-narrow-focus_Maria-bebe-el-vino.wav,./stim/wavs/argentine_match_declarative-narrow-focus_Maria-bebe-el-vino.wav,./stim/wavs/castilian_match_declarative-narrow-focus_Maria-bebe-el-vino.wav,./stim/wavs/chilean_match_declarative-narrow-focus_Maria-bebe-el-vino.wav,./stim/wavs/cuban_match_declarative-narrow-focus_Maria-bebe-el-vino.wav,./stim/wavs/mexican_match_declarative-narrow-focus_Maria-bebe-el-vino.wav,./stim/wavs/peruvian_match_declarative-narrow-focus_Maria-bebe-el-vino.wav,./stim/wavs/puertorican_match_declarative-narrow-focus_Maria-bebe-el-vino.wav,,,,,,,,,,,,,,,,,,,,,,,,,,,,,,,,,,,,,,,,,,,,,,,,,,,,,,,,
,,,,,,,5f4cfe26fc6fe994078bedd3,6057c54e64b0b4e5c128b4f9,6057f2b94cc920cd8e13465b,United States,Northeast,13 or older,no,2021-03-22_09h42.16.090,empathy_intonation_perc,2020.2.10,Win32,60,,,,,,,,,,1,argentine,0,0,1.505,0,42,42,16,1,17,./stim/wavs/andalusian_match_interrogative-partial-wh_Cuando-bebia-el-vino.wav,./stim/wavs/argentine_match_interrogative-partial-wh_Cuando-bebia-el-vino.wav,./stim/wavs/castilian_match_interrogative-partial-wh_Cuando-bebia-el-vino.wav,./stim/wavs/chilean_match_interrogative-partial-wh_Cuando-bebia-el-vino.wav,./stim/wavs/cuban_match_interrogative-partial-wh_Cuando-bebia-el-vino.wav,./stim/wavs/mexican_match_interrogative-partial-wh_Cuando-bebia-el-vino.wav,./stim/wavs/peruvian_match_interrogative-partial-wh_Cuando-bebia-el-vino.wav,./stim/wavs/puertorican_match_interrogative-partial-wh_Cuando-bebia-el-vino.wav,,,,,,,,,,,,,,,,,,,,,,,,,,,,,,,,,,,,,,,,,,,,,,,,,,,,,,,,
,,,,,,,5f4cfe26fc6fe994078bedd3,6057c54e64b0b4e5c128b4f9,6057f2b94cc920cd8e13465b,United States,Northeast,13 or older,no,2021-03-22_09h42.16.090,empathy_intonation_perc,2020.2.10,Win32,60,,,,,,,,,,0,chilean,0,1,1.57,0,43,43,7,1,8,./stim/wavs/andalusian_match_declarative-broad-focus_Marta-abre-el-regalo.wav,./stim/wavs/argentine_match_declarative-broad-focus_Marta-abre-el-regalo.wav,./stim/wavs/castilian_match_declarative-broad-focus_Marta-abre-el-regalo.wav,./stim/wavs/chilean_match_declarative-broad-focus_Marta-abre-el-regalo.wav,./stim/wavs/cuban_match_declarative-broad-focus_Marta-abre-el-regalo.wav,./stim/wavs/mexican_match_declarative-broad-focus_Marta-abre-el-regalo.wav,./stim/wavs/peruvian_match_declarative-broad-focus_Marta-abre-el-regalo.wav,./stim/wavs/puertorican_match_declarative-broad-focus_Marta-abre-el-regalo.wav,,,,,,,,,,,,,,,,,,,,,,,,,,,,,,,,,,,,,,,,,,,,,,,,,,,,,,,,
,,,,,,,5f4cfe26fc6fe994078bedd3,6057c54e64b0b4e5c128b4f9,6057f2b94cc920cd8e13465b,United States,Northeast,13 or older,no,2021-03-22_09h42.16.090,empathy_intonation_perc,2020.2.10,Win32,60,,,,,,,,,,0,mexican,0,1,1.613,0,44,44,6,1,7,./stim/wavs/andalusian_match_declarative-broad-focus_Mariano-habla-del-tiempo.wav,./stim/wavs/argentine_match_declarative-broad-focus_Mariano-habla-del-tiempo.wav,./stim/wavs/castilian_match_declarative-broad-focus_Mariano-habla-del-tiempo.wav,./stim/wavs/chilean_match_declarative-broad-focus_Mariano-habla-del-tiempo.wav,./stim/wavs/cuban_match_declarative-broad-focus_Mariano-habla-del-tiempo.wav,./stim/wavs/mexican_match_declarative-broad-focus_Mariano-habla-del-tiempo.wav,./stim/wavs/peruvian_match_declarative-broad-focus_Mariano-habla-del-tiempo.wav,./stim/wavs/puertorican_match_declarative-broad-focus_Mariano-habla-del-tiempo.wav,,,,,,,,,,,,,,,,,,,,,,,,,,,,,,,,,,,,,,,,,,,,,,,,,,,,,,,,
,,,,,,,5f4cfe26fc6fe994078bedd3,6057c54e64b0b4e5c128b4f9,6057f2b94cc920cd8e13465b,United States,Northeast,13 or older,no,2021-03-22_09h42.16.090,empathy_intonation_perc,2020.2.10,Win32,60,,,,,,,,,,1,andalusian,0,0,1.641,0,45,45,20,1,21,./stim/wavs/andalusian_match_interrogative-partial-wh_Por-que-abre-el-regalo.wav,./stim/wavs/argentine_match_interrogative-partial-wh_Por-que-abre-el-regalo.wav,./stim/wavs/castilian_match_interrogative-partial-wh_Por-que-abre-el-regalo.wav,./stim/wavs/chilean_match_interrogative-partial-wh_Por-que-abre-el-regalo.wav,./stim/wavs/cuban_match_interrogative-partial-wh_Por-que-abre-el-regalo.wav,./stim/wavs/mexican_match_interrogative-partial-wh_Por-que-abre-el-regalo.wav,./stim/wavs/peruvian_match_interrogative-partial-wh_Por-que-abre-el-regalo.wav,./stim/wavs/puertorican_match_interrogative-partial-wh_Por-que-abre-el-regalo.wav,,,,,,,,,,,,,,,,,,,,,,,,,,,,,,,,,,,,,,,,,,,,,,,,,,,,,,,,
,,,,,,,5f4cfe26fc6fe994078bedd3,6057c54e64b0b4e5c128b4f9,6057f2b94cc920cd8e13465b,United States,Northeast,13 or older,no,2021-03-22_09h42.16.090,empathy_intonation_perc,2020.2.10,Win32,60,,,,,,,,,,1,cuban,0,0,1.575,0,46,46,25,1,26,./stim/wavs/andalusian_match_interrogative-total-yn_Daniel-iba-a-Bolivia.wav,./stim/wavs/argentine_match_interrogative-total-yn_Daniel-iba-a-Bolivia.wav,./stim/wavs/castilian_match_interrogative-total-yn_Daniel-iba-a-Bolivia.wav,./stim/wavs/chilean_match_interrogative-total-yn_Daniel-iba-a-Bolivia.wav,./stim/wavs/cuban_match_interrogative-total-yn_Daniel-iba-a-Bolivia.wav,./stim/wavs/mexican_match_interrogative-total-yn_Daniel-iba-a-Bolivia.wav,./stim/wavs/peruvian_match_interrogative-total-yn_Daniel-iba-a-Bolivia.wav,./stim/wavs/puertorican_match_interrogative-total-yn_Daniel-iba-a-Bolivia.wav,,,,,,,,,,,,,,,,,,,,,,,,,,,,,,,,,,,,,,,,,,,,,,,,,,,,,,,,
,,,,,,,5f4cfe26fc6fe994078bedd3,6057c54e64b0b4e5c128b4f9,6057f2b94cc920cd8e13465b,United States,Northeast,13 or older,no,2021-03-22_09h42.16.090,empathy_intonation_perc,2020.2.10,Win32,60,,,,,,,,,,1,castilian,1,1,1.938,0,47,47,52,1,53,./stim/wavs/andalusian_mismatch_interrogative-partial-wh_Por-que-odiaba-la-lluvia.wav,./stim/wavs/argentine_mismatch_interrogative-partial-wh_Por-que-odiaba-la-lluvia.wav,./stim/wavs/castilian_mismatch_interrogative-partial-wh_Por-que-odiaba-la-lluvia.wav,./stim/wavs/chilean_mismatch_interrogative-partial-wh_Por-que-odiaba-la-lluvia.wav,./stim/wavs/cuban_mismatch_interrogative-partial-wh_Por-que-odiaba-la-lluvia.wav,./stim/wavs/mexican_mismatch_interrogative-partial-wh_Por-que-odiaba-la-lluvia.wav,./stim/wavs/peruvian_mismatch_interrogative-partial-wh_Por-que-odiaba-la-lluvia.wav,./stim/wavs/puertorican_mismatch_interrogative-partial-wh_Por-que-odiaba-la-lluvia.wav,,,,,,,,,,,,,,,,,,,,,,,,,,,,,,,,,,,,,,,,,,,,,,,,,,,,,,,,
,,,,,,,5f4cfe26fc6fe994078bedd3,6057c54e64b0b4e5c128b4f9,6057f2b94cc920cd8e13465b,United States,Northeast,13 or older,no,2021-03-22_09h42.16.090,empathy_intonation_perc,2020.2.10,Win32,60,,,,,,,,,,1,cuban,0,0,1.857,0,48,48,19,1,20,./stim/wavs/andalusian_match_interrogative-partial-wh_Cuando-vendia-el-carro.wav,./stim/wavs/argentine_match_interrogative-partial-wh_Cuando-vendia-el-carro.wav,./stim/wavs/castilian_match_interrogative-partial-wh_Cuando-vendia-el-carro.wav,./stim/wavs/chilean_match_interrogative-partial-wh_Cuando-vendia-el-carro.wav,./stim/wavs/cuban_match_interrogative-partial-wh_Cuando-vendia-el-carro.wav,./stim/wavs/mexican_match_interrogative-partial-wh_Cuando-vendia-el-carro.wav,./stim/wavs/peruvian_match_interrogative-partial-wh_Cuando-vendia-el-carro.wav,./stim/wavs/puertorican_match_interrogative-partial-wh_Cuando-vendia-el-carro.wav,,,,,,,,,,,,,,,,,,,,,,,,,,,,,,,,,,,,,,,,,,,,,,,,,,,,,,,,
,,,,,,,5f4cfe26fc6fe994078bedd3,6057c54e64b0b4e5c128b4f9,6057f2b94cc920cd8e13465b,United States,Northeast,13 or older,no,2021-03-22_09h42.16.090,empathy_intonation_perc,2020.2.10,Win32,60,,,,,,,,,,1,chilean,0,0,2.092,0,49,49,49,1,50,./stim/wavs/andalusian_mismatch_interrogative-partial-wh_Cuando-lavaba-el-plato.wav,./stim/wavs/argentine_mismatch_interrogative-partial-wh_Cuando-lavaba-el-plato.wav,./stim/wavs/castilian_mismatch_interrogative-partial-wh_Cuando-lavaba-el-plato.wav,./stim/wavs/chilean_mismatch_interrogative-partial-wh_Cuando-lavaba-el-plato.wav,./stim/wavs/cuban_mismatch_interrogative-partial-wh_Cuando-lavaba-el-plato.wav,./stim/wavs/mexican_mismatch_interrogative-partial-wh_Cuando-lavaba-el-plato.wav,./stim/wavs/peruvian_mismatch_interrogative-partial-wh_Cuando-lavaba-el-plato.wav,./stim/wavs/puertorican_mismatch_interrogative-partial-wh_Cuando-lavaba-el-plato.wav,,,,,,,,,,,,,,,,,,,,,,,,,,,,,,,,,,,,,,,,,,,,,,,,,,,,,,,,
,,,,,,,5f4cfe26fc6fe994078bedd3,6057c54e64b0b4e5c128b4f9,6057f2b94cc920cd8e13465b,United States,Northeast,13 or older,no,2021-03-22_09h42.16.090,empathy_intonation_perc,2020.2.10,Win32,60,,,,,,,,,,0,andalusian,1,0,2.272,0,50,50,41,1,42,./stim/wavs/andalusian_mismatch_declarative-narrow-focus_El-hombre-mira-la-luna.wav,./stim/wavs/argentine_mismatch_declarative-narrow-focus_El-hombre-mira-la-luna.wav,./stim/wavs/castilian_mismatch_declarative-narrow-focus_El-hombre-mira-la-luna.wav,./stim/wavs/chilean_mismatch_declarative-narrow-focus_El-hombre-mira-la-luna.wav,./stim/wavs/cuban_mismatch_declarative-narrow-focus_El-hombre-mira-la-luna.wav,./stim/wavs/mexican_mismatch_declarative-narrow-focus_El-hombre-mira-la-luna.wav,./stim/wavs/peruvian_mismatch_declarative-narrow-focus_El-hombre-mira-la-luna.wav,./stim/wavs/puertorican_mismatch_declarative-narrow-focus_El-hombre-mira-la-luna.wav,,,,,,,,,,,,,,,,,,,,,,,,,,,,,,,,,,,,,,,,,,,,,,,,,,,,,,,,
,,,,,,,5f4cfe26fc6fe994078bedd3,6057c54e64b0b4e5c128b4f9,6057f2b94cc920cd8e13465b,United States,Northeast,13 or older,no,2021-03-22_09h42.16.090,empathy_intonation_perc,2020.2.10,Win32,60,,,,,,,,,,1,puertorican,0,0,1.806,0,51,51,17,1,18,./stim/wavs/andalusian_match_interrogative-partial-wh_Cuando-leia-el-libro.wav,./stim/wavs/argentine_match_interrogative-partial-wh_Cuando-leia-el-libro.wav,./stim/wavs/castilian_match_interrogative-partial-wh_Cuando-leia-el-libro.wav,./stim/wavs/chilean_match_interrogative-partial-wh_Cuando-leia-el-libro.wav,./stim/wavs/cuban_match_interrogative-partial-wh_Cuando-leia-el-libro.wav,./stim/wavs/mexican_match_interrogative-partial-wh_Cuando-leia-el-libro.wav,./stim/wavs/peruvian_match_interrogative-partial-wh_Cuando-leia-el-libro.wav,./stim/wavs/puertorican_match_interrogative-partial-wh_Cuando-leia-el-libro.wav,,,,,,,,,,,,,,,,,,,,,,,,,,,,,,,,,,,,,,,,,,,,,,,,,,,,,,,,
,,,,,,,5f4cfe26fc6fe994078bedd3,6057c54e64b0b4e5c128b4f9,6057f2b94cc920cd8e13465b,United States,Northeast,13 or older,no,2021-03-22_09h42.16.090,empathy_intonation_perc,2020.2.10,Win32,60,,,,,,,,,,1,chilean,0,0,2.039,0,52,52,31,1,32,./stim/wavs/andalusian_match_interrogative-total-yn_Marta-abre-el-regalo.wav,./stim/wavs/argentine_match_interrogative-total-yn_Marta-abre-el-regalo.wav,./stim/wavs/castilian_match_interrogative-total-yn_Marta-abre-el-regalo.wav,./stim/wavs/chilean_match_interrogative-total-yn_Marta-abre-el-regalo.wav,./stim/wavs/cuban_match_interrogative-total-yn_Marta-abre-el-regalo.wav,./stim/wavs/mexican_match_interrogative-total-yn_Marta-abre-el-regalo.wav,./stim/wavs/peruvian_match_interrogative-total-yn_Marta-abre-el-regalo.wav,./stim/wavs/puertorican_match_interrogative-total-yn_Marta-abre-el-regalo.wav,,,,,,,,,,,,,,,,,,,,,,,,,,,,,,,,,,,,,,,,,,,,,,,,,,,,,,,,
,,,,,,,5f4cfe26fc6fe994078bedd3,6057c54e64b0b4e5c128b4f9,6057f2b94cc920cd8e13465b,United States,Northeast,13 or older,no,2021-03-22_09h42.16.090,empathy_intonation_perc,2020.2.10,Win32,60,,,,,,,,,,1,peruvian,0,0,2.07,0,53,53,55,1,56,./stim/wavs/andalusian_mismatch_interrogative-partial-wh_Por-que-vivia-en-Paris.wav,./stim/wavs/argentine_mismatch_interrogative-partial-wh_Por-que-vivia-en-Paris.wav,./stim/wavs/castilian_mismatch_interrogative-partial-wh_Por-que-vivia-en-Paris.wav,./stim/wavs/chilean_mismatch_interrogative-partial-wh_Por-que-vivia-en-Paris.wav,./stim/wavs/cuban_mismatch_interrogative-partial-wh_Por-que-vivia-en-Paris.wav,./stim/wavs/mexican_mismatch_interrogative-partial-wh_Por-que-vivia-en-Paris.wav,./stim/wavs/peruvian_mismatch_interrogative-partial-wh_Por-que-vivia-en-Paris.wav,./stim/wavs/puertorican_mismatch_interrogative-partial-wh_Por-que-vivia-en-Paris.wav,,,,,,,,,,,,,,,,,,,,,,,,,,,,,,,,,,,,,,,,,,,,,,,,,,,,,,,,
,,,,,,,5f4cfe26fc6fe994078bedd3,6057c54e64b0b4e5c128b4f9,6057f2b94cc920cd8e13465b,United States,Northeast,13 or older,no,2021-03-22_09h42.16.090,empathy_intonation_perc,2020.2.10,Win32,60,,,,,,,,,,0,chilean,1,0,4.235,0,54,54,38,1,39,./stim/wavs/andalusian_mismatch_declarative-broad-focus_Mi-novio-viene-del-lago.wav,./stim/wavs/argentine_mismatch_declarative-broad-focus_Mi-novio-viene-del-lago.wav,./stim/wavs/castilian_mismatch_declarative-broad-focus_Mi-novio-viene-del-lago.wav,./stim/wavs/chilean_mismatch_declarative-broad-focus_Mi-novio-viene-del-lago.wav,./stim/wavs/cuban_mismatch_declarative-broad-focus_Mi-novio-viene-del-lago.wav,./stim/wavs/mexican_mismatch_declarative-broad-focus_Mi-novio-viene-del-lago.wav,./stim/wavs/peruvian_mismatch_declarative-broad-focus_Mi-novio-viene-del-lago.wav,./stim/wavs/puertorican_mismatch_declarative-broad-focus_Mi-novio-viene-del-lago.wav,,,,,,,,,,,,,,,,,,,,,,,,,,,,,,,,,,,,,,,,,,,,,,,,,,,,,,,,
,,,,,,,5f4cfe26fc6fe994078bedd3,6057c54e64b0b4e5c128b4f9,6057f2b94cc920cd8e13465b,United States,Northeast,13 or older,no,2021-03-22_09h42.16.090,empathy_intonation_perc,2020.2.10,Win32,60,,,,,,,,,,1,peruvian,1,1,2.82,0,55,55,59,1,60,./stim/wavs/andalusian_mismatch_interrogative-total-yn_La-maestra-vive-en-Paris.wav,./stim/wavs/argentine_mismatch_interrogative-total-yn_La-maestra-vive-en-Paris.wav,./stim/wavs/castilian_mismatch_interrogative-total-yn_La-maestra-vive-en-Paris.wav,./stim/wavs/chilean_mismatch_interrogative-total-yn_La-maestra-vive-en-Paris.wav,./stim/wavs/cuban_mismatch_interrogative-total-yn_La-maestra-vive-en-Paris.wav,./stim/wavs/mexican_mismatch_interrogative-total-yn_La-maestra-vive-en-Paris.wav,./stim/wavs/peruvian_mismatch_interrogative-total-yn_La-maestra-vive-en-Paris.wav,./stim/wavs/puertorican_mismatch_interrogative-total-yn_La-maestra-vive-en-Paris.wav,,,,,,,,,,,,,,,,,,,,,,,,,,,,,,,,,,,,,,,,,,,,,,,,,,,,,,,,
,,,,,,,5f4cfe26fc6fe994078bedd3,6057c54e64b0b4e5c128b4f9,6057f2b94cc920cd8e13465b,United States,Northeast,13 or older,no,2021-03-22_09h42.16.090,empathy_intonation_perc,2020.2.10,Win32,60,,,,,,,,,,0,chilean,0,1,1.752,0,56,56,44,1,45,./stim/wavs/andalusian_mismatch_declarative-narrow-focus_La-nina-lava-el-plato.wav,./stim/wavs/argentine_mismatch_declarative-narrow-focus_La-nina-lava-el-plato.wav,./stim/wavs/castilian_mismatch_declarative-narrow-focus_La-nina-lava-el-plato.wav,./stim/wavs/chilean_mismatch_declarative-narrow-focus_La-nina-lava-el-plato.wav,./stim/wavs/cuban_mismatch_declarative-narrow-focus_La-nina-lava-el-plato.wav,./stim/wavs/mexican_mismatch_declarative-narrow-focus_La-nina-lava-el-plato.wav,./stim/wavs/peruvian_mismatch_declarative-narrow-focus_La-nina-lava-el-plato.wav,./stim/wavs/puertorican_mismatch_declarative-narrow-focus_La-nina-lava-el-plato.wav,,,,,,,,,,,,,,,,,,,,,,,,,,,,,,,,,,,,,,,,,,,,,,,,,,,,,,,,
,,,,,,,5f4cfe26fc6fe994078bedd3,6057c54e64b0b4e5c128b4f9,6057f2b94cc920cd8e13465b,United States,Northeast,13 or older,no,2021-03-22_09h42.16.090,empathy_intonation_perc,2020.2.10,Win32,60,,,,,,,,,,1,puertorican,0,0,1.637,0,57,57,63,1,64,./stim/wavs/andalusian_mismatch_interrogative-total-yn_Mi-tia-odia-la-lluvia.wav,./stim/wavs/argentine_mismatch_interrogative-total-yn_Mi-tia-odia-la-lluvia.wav,./stim/wavs/castilian_mismatch_interrogative-total-yn_Mi-tia-odia-la-lluvia.wav,./stim/wavs/chilean_mismatch_interrogative-total-yn_Mi-tia-odia-la-lluvia.wav,./stim/wavs/cuban_mismatch_interrogative-total-yn_Mi-tia-odia-la-lluvia.wav,./stim/wavs/mexican_mismatch_interrogative-total-yn_Mi-tia-odia-la-lluvia.wav,./stim/wavs/peruvian_mismatch_interrogative-total-yn_Mi-tia-odia-la-lluvia.wav,./stim/wavs/puertorican_mismatch_interrogative-total-yn_Mi-tia-odia-la-lluvia.wav,,,,,,,,,,,,,,,,,,,,,,,,,,,,,,,,,,,,,,,,,,,,,,,,,,,,,,,,
,,,,,,,5f4cfe26fc6fe994078bedd3,6057c54e64b0b4e5c128b4f9,6057f2b94cc920cd8e13465b,United States,Northeast,13 or older,no,2021-03-22_09h42.16.090,empathy_intonation_perc,2020.2.10,Win32,60,,,,,,,,,,1,argentine,1,1,1.508,0,58,58,28,1,29,./stim/wavs/andalusian_match_interrogative-total-yn_Manuela-vende-el-carro.wav,./stim/wavs/argentine_match_interrogative-total-yn_Manuela-vende-el-carro.wav,./stim/wavs/castilian_match_interrogative-total-yn_Manuela-vende-el-carro.wav,./stim/wavs/chilean_match_interrogative-total-yn_Manuela-vende-el-carro.wav,./stim/wavs/cuban_match_interrogative-total-yn_Manuela-vende-el-carro.wav,./stim/wavs/mexican_match_interrogative-total-yn_Manuela-vende-el-carro.wav,./stim/wavs/peruvian_match_interrogative-total-yn_Manuela-vende-el-carro.wav,./stim/wavs/puertorican_match_interrogative-total-yn_Manuela-vende-el-carro.wav,,,,,,,,,,,,,,,,,,,,,,,,,,,,,,,,,,,,,,,,,,,,,,,,,,,,,,,,
,,,,,,,5f4cfe26fc6fe994078bedd3,6057c54e64b0b4e5c128b4f9,6057f2b94cc920cd8e13465b,United States,Northeast,13 or older,no,2021-03-22_09h42.16.090,empathy_intonation_perc,2020.2.10,Win32,60,,,,,,,,,,0,puertorican,0,1,1.735,0,59,59,36,1,37,./stim/wavs/andalusian_mismatch_declarative-broad-focus_La-nina-lava-el-plato.wav,./stim/wavs/argentine_mismatch_declarative-broad-focus_La-nina-lava-el-plato.wav,./stim/wavs/castilian_mismatch_declarative-broad-focus_La-nina-lava-el-plato.wav,./stim/wavs/chilean_mismatch_declarative-broad-focus_La-nina-lava-el-plato.wav,./stim/wavs/cuban_mismatch_declarative-broad-focus_La-nina-lava-el-plato.wav,./stim/wavs/mexican_mismatch_declarative-broad-focus_La-nina-lava-el-plato.wav,./stim/wavs/peruvian_mismatch_declarative-broad-focus_La-nina-lava-el-plato.wav,./stim/wavs/puertorican_mismatch_declarative-broad-focus_La-nina-lava-el-plato.wav,,,,,,,,,,,,,,,,,,,,,,,,,,,,,,,,,,,,,,,,,,,,,,,,,,,,,,,,
,,,,,,,5f4cfe26fc6fe994078bedd3,6057c54e64b0b4e5c128b4f9,6057f2b94cc920cd8e13465b,United States,Northeast,13 or older,no,2021-03-22_09h42.16.090,empathy_intonation_perc,2020.2.10,Win32,60,,,,,,,,,,0,mexican,0,1,1.696,0,60,60,5,1,6,./stim/wavs/andalusian_match_declarative-broad-focus_Maria-bebe-el-vino.wav,./stim/wavs/argentine_match_declarative-broad-focus_Maria-bebe-el-vino.wav,./stim/wavs/castilian_match_declarative-broad-focus_Maria-bebe-el-vino.wav,./stim/wavs/chilean_match_declarative-broad-focus_Maria-bebe-el-vino.wav,./stim/wavs/cuban_match_declarative-broad-focus_Maria-bebe-el-vino.wav,./stim/wavs/mexican_match_declarative-broad-focus_Maria-bebe-el-vino.wav,./stim/wavs/peruvian_match_declarative-broad-focus_Maria-bebe-el-vino.wav,./stim/wavs/puertorican_match_declarative-broad-focus_Maria-bebe-el-vino.wav,,,,,,,,,,,,,,,,,,,,,,,,,,,,,,,,,,,,,,,,,,,,,,,,,,,,,,,,
,,,,,,,5f4cfe26fc6fe994078bedd3,6057c54e64b0b4e5c128b4f9,6057f2b94cc920cd8e13465b,United States,Northeast,13 or older,no,2021-03-22_09h42.16.090,empathy_intonation_perc,2020.2.10,Win32,60,,,,,,,,,,0,cuban,0,1,1.642,0,61,61,3,1,4,./stim/wavs/andalusian_match_declarative-broad-focus_Emilio-ama-la-marcha.wav,./stim/wavs/argentine_match_declarative-broad-focus_Emilio-ama-la-marcha.wav,./stim/wavs/castilian_match_declarative-broad-focus_Emilio-ama-la-marcha.wav,./stim/wavs/chilean_match_declarative-broad-focus_Emilio-ama-la-marcha.wav,./stim/wavs/cuban_match_declarative-broad-focus_Emilio-ama-la-marcha.wav,./stim/wavs/mexican_match_declarative-broad-focus_Emilio-ama-la-marcha.wav,./stim/wavs/peruvian_match_declarative-broad-focus_Emilio-ama-la-marcha.wav,./stim/wavs/puertorican_match_declarative-broad-focus_Emilio-ama-la-marcha.wav,,,,,,,,,,,,,,,,,,,,,,,,,,,,,,,,,,,,,,,,,,,,,,,,,,,,,,,,
,,,,,,,5f4cfe26fc6fe994078bedd3,6057c54e64b0b4e5c128b4f9,6057f2b94cc920cd8e13465b,United States,Northeast,13 or older,no,2021-03-22_09h42.16.090,empathy_intonation_perc,2020.2.10,Win32,60,,,,,,,,,,1,argentine,0,0,1.891,0,62,62,54,1,55,./stim/wavs/andalusian_mismatch_interrogative-partial-wh_Por-que-venia-del-lago.wav,./stim/wavs/argentine_mismatch_interrogative-partial-wh_Por-que-venia-del-lago.wav,./stim/wavs/castilian_mismatch_interrogative-partial-wh_Por-que-venia-del-lago.wav,./stim/wavs/chilean_mismatch_interrogative-partial-wh_Por-que-venia-del-lago.wav,./stim/wavs/cuban_mismatch_interrogative-partial-wh_Por-que-venia-del-lago.wav,./stim/wavs/mexican_mismatch_interrogative-partial-wh_Por-que-venia-del-lago.wav,./stim/wavs/peruvian_mismatch_interrogative-partial-wh_Por-que-venia-del-lago.wav,./stim/wavs/puertorican_mismatch_interrogative-partial-wh_Por-que-venia-del-lago.wav,,,,,,,,,,,,,,,,,,,,,,,,,,,,,,,,,,,,,,,,,,,,,,,,,,,,,,,,
,,,,,,,5f4cfe26fc6fe994078bedd3,6057c54e64b0b4e5c128b4f9,6057f2b94cc920cd8e13465b,United States,Northeast,13 or older,no,2021-03-22_09h42.16.090,empathy_intonation_perc,2020.2.10,Win32,60,,,,,,,,,,1,chilean,0,0,2.135,0,63,63,30,1,31,./stim/wavs/andalusian_match_interrogative-total-yn_Mariano-habla-del-tiempo.wav,./stim/wavs/argentine_match_interrogative-total-yn_Mariano-habla-del-tiempo.wav,./stim/wavs/castilian_match_interrogative-total-yn_Mariano-habla-del-tiempo.wav,./stim/wavs/chilean_match_interrogative-total-yn_Mariano-habla-del-tiempo.wav,./stim/wavs/cuban_match_interrogative-total-yn_Mariano-habla-del-tiempo.wav,./stim/wavs/mexican_match_interrogative-total-yn_Mariano-habla-del-tiempo.wav,./stim/wavs/peruvian_match_interrogative-total-yn_Mariano-habla-del-tiempo.wav,./stim/wavs/puertorican_match_interrogative-total-yn_Mariano-habla-del-tiempo.wav,,,,,,,,,,,,,,,,,,,,,,,,,,,,,,,,,,,,,,,,,,,,,,,,,,,,,,,,
,,,,,,,5f4cfe26fc6fe994078bedd3,6057c54e64b0b4e5c128b4f9,6057f2b94cc920cd8e13465b,United States,Northeast,13 or older,no,2021-03-22_09h42.16.090,empathy_intonation_perc,2020.2.10,Win32,60,,,,,,,,,,,,,,,,,,,,,,,,,,,,,h,1,4.16,0,0,0,0,1,,,,,,,,,,,,,,,,,,,,,,,,,,,,,,,,,,,,,,,,,,,,,,,,
,,,,,"Great! Now we will move on. The next task consists of about 60 trials, in each of which you will see a string of letters. 
  
  Your task is to decide whether this is a real Spanish word or not.",(press the spacebar to continue),5f4cfe26fc6fe994078bedd3,6057c54e64b0b4e5c128b4f9,6057f2b94cc920cd8e13465b,United States,Northeast,13 or older,no,2021-03-22_09h42.16.090,empathy_intonation_perc,2020.2.10,Win32,60,,,,,,,,,,,,,,,,,,,,,,,,,,,,,,,,,,,,,0,0,0,0,1,,,,,,,,,,,,,,,,,,,,,,,,,,,,,,,,,,,,,,,,,,,
,,,,,"If you think it is an existing Spanish word, you type '1' (for 'REAL'), and if you think it is not an existing Spanish word, you type '0' (for 'FAKE').",(press the spacebar to continue),5f4cfe26fc6fe994078bedd3,6057c54e64b0b4e5c128b4f9,6057f2b94cc920cd8e13465b,United States,Northeast,13 or older,no,2021-03-22_09h42.16.090,empathy_intonation_perc,2020.2.10,Win32,60,,,,,,,,,,,,,,,,,,,,,,,,,,,,,,,,,,,,,0,1,1,1,1,,,,,,,,,,,,,,,,,,,,,,,,,,,,,,,,,,,,,,,,,,,
,,,,,"If you are sure that the word exists, even though you dont know its exact meaning, you may still respond '1' (REAL). 
  
  But if you are not sure if it is an existing word, you should respond '0' (FAKE).
  
  Let's do a practice round...",(press the spacebar to continue),5f4cfe26fc6fe994078bedd3,6057c54e64b0b4e5c128b4f9,6057f2b94cc920cd8e13465b,United States,Northeast,13 or older,no,2021-03-22_09h42.16.090,empathy_intonation_perc,2020.2.10,Win32,60,,,,,,,,,,,,,,,,,,,,,,,,,,,,,,,,,,,,,0,2,2,2,1,,,,,,,,,,,,,,,,,,,,,,,,,,,,,,,,,,,,,,,,,,,
,,,,,,,5f4cfe26fc6fe994078bedd3,6057c54e64b0b4e5c128b4f9,6057f2b94cc920cd8e13465b,United States,Northeast,13 or older,no,2021-03-22_09h42.16.090,empathy_intonation_perc,2020.2.10,Win32,60,,,,,,,,,,0,,,,,,,,,,,,,,,,,,,,,,,,,,,,,,,,1,0,1.415,0,0,0,0,1,0,depiste,REAL,FAKE,,,,,,,,,,,,,,,,,,,,,,,,,,,,,,,
,,,,,,,5f4cfe26fc6fe994078bedd3,6057c54e64b0b4e5c128b4f9,6057f2b94cc920cd8e13465b,United States,Northeast,13 or older,no,2021-03-22_09h42.16.090,empathy_intonation_perc,2020.2.10,Win32,60,,,,,,,,,,1,,,,,,,,,,,,,,,,,,,,,,,,,,,,,,,,0,0,1.447,0,1,1,1,1,0,s,REAL,FAKE,,,,,,,,,,,,,,,,,,,,,,,,,,,,,,,
,,,,,,,5f4cfe26fc6fe994078bedd3,6057c54e64b0b4e5c128b4f9,6057f2b94cc920cd8e13465b,United States,Northeast,13 or older,no,2021-03-22_09h42.16.090,empathy_intonation_perc,2020.2.10,Win32,60,,,,,,,,,,0,,,,,,,,,,,,,,,,,,,,,,,,,,,,,,,,0,1,0.925,0,2,2,2,1,0,con,REAL,FAKE,,,,,,,,,,,,,,,,,,,,,,,,,,,,,,,
,,,,,,,5f4cfe26fc6fe994078bedd3,6057c54e64b0b4e5c128b4f9,6057f2b94cc920cd8e13465b,United States,Northeast,13 or older,no,2021-03-22_09h42.16.090,empathy_intonation_perc,2020.2.10,Win32,60,,,,,,,,,,0,,,,,,,,,,,,,,,,,,,,,,,,,,,,,,,,0,1,0.956,0,3,3,3,1,0,calpar,REAL,FAKE,,,,,,,,,,,,,,,,,,,,,,,,,,,,,,,
,,,,,,,5f4cfe26fc6fe994078bedd3,6057c54e64b0b4e5c128b4f9,6057f2b94cc920cd8e13465b,United States,Northeast,13 or older,no,2021-03-22_09h42.16.090,empathy_intonation_perc,2020.2.10,Win32,60,,,,,,,,,,0,,,,,,,,,,,,,,,,,,,,,,,,,,,,,,,,1,0,1.751,0,4,4,4,1,0,joten,REAL,FAKE,,,,,,,,,,,,,,,,,,,,,,,,,,,,,,,
,,,,,,,5f4cfe26fc6fe994078bedd3,6057c54e64b0b4e5c128b4f9,6057f2b94cc920cd8e13465b,United States,Northeast,13 or older,no,2021-03-22_09h42.16.090,empathy_intonation_perc,2020.2.10,Win32,60,,,,,,,,,,1,,,,,,,,,,,,,,,,,,,,,,,,,,,,,,,,1,1,0.723,0,5,5,5,1,0,sacapuntas,REAL,FAKE,,,,,,,,,,,,,,,,,,,,,,,,,,,,,,,
,,,,,,,5f4cfe26fc6fe994078bedd3,6057c54e64b0b4e5c128b4f9,6057f2b94cc920cd8e13465b,United States,Northeast,13 or older,no,2021-03-22_09h42.16.090,empathy_intonation_perc,2020.2.10,Win32,60,,,,,,,,,,0,,,,,,,,,,,,,,,,,,,,,,,,,,,,,,,,1,0,0.888,0,6,6,6,1,0,priba,REAL,FAKE,,,,,,,,,,,,,,,,,,,,,,,,,,,,,,,
,,,,,,,5f4cfe26fc6fe994078bedd3,6057c54e64b0b4e5c128b4f9,6057f2b94cc920cd8e13465b,United States,Northeast,13 or older,no,2021-03-22_09h42.16.090,empathy_intonation_perc,2020.2.10,Win32,60,,,,,,,,,,0,,,,,,,,,,,,,,,,,,,,,,,,,,,,,,,,0,1,0.849,0,7,7,7,1,0,pelasula,REAL,FAKE,,,,,,,,,,,,,,,,,,,,,,,,,,,,,,,
,,,,,,,5f4cfe26fc6fe994078bedd3,6057c54e64b0b4e5c128b4f9,6057f2b94cc920cd8e13465b,United States,Northeast,13 or older,no,2021-03-22_09h42.16.090,empathy_intonation_perc,2020.2.10,Win32,60,,,,,,,,,,1,,,,,,,,,,,,,,,,,,,,,,,,,,,,,,,,1,1,0.607,0,8,8,8,1,0,bien,REAL,FAKE,,,,,,,,,,,,,,,,,,,,,,,,,,,,,,,
,,,,,,,5f4cfe26fc6fe994078bedd3,6057c54e64b0b4e5c128b4f9,6057f2b94cc920cd8e13465b,United States,Northeast,13 or older,no,2021-03-22_09h42.16.090,empathy_intonation_perc,2020.2.10,Win32,60,,,,,,,,,,1,,,,,,,,,,,,,,,,,,,,,,,,,,,,,,,,1,1,0.582,0,9,9,9,1,0,casa,REAL,FAKE,,,,,,,,,,,,,,,,,,,,,,,,,,,,,,,
,,,,,,,5f4cfe26fc6fe994078bedd3,6057c54e64b0b4e5c128b4f9,6057f2b94cc920cd8e13465b,United States,Northeast,13 or older,no,2021-03-22_09h42.16.090,empathy_intonation_perc,2020.2.10,Win32,60,,,,,,,,,,0,,,,,,,,,,,,,,,,,,,,,,,,,,,,,,,,0,1,0.683,0,10,10,10,1,0,lejo,REAL,FAKE,,,,,,,,,,,,,,,,,,,,,,,,,,,,,,,
,,,,,,,5f4cfe26fc6fe994078bedd3,6057c54e64b0b4e5c128b4f9,6057f2b94cc920cd8e13465b,United States,Northeast,13 or older,no,2021-03-22_09h42.16.090,empathy_intonation_perc,2020.2.10,Win32,60,,,,,,,,,,0,,,,,,,,,,,,,,,,,,,,,,,,,,,,,,,,0,1,1.115,0,11,11,11,1,0,pretantas,REAL,FAKE,,,,,,,,,,,,,,,,,,,,,,,,,,,,,,,
,,,,,,,5f4cfe26fc6fe994078bedd3,6057c54e64b0b4e5c128b4f9,6057f2b94cc920cd8e13465b,United States,Northeast,13 or older,no,2021-03-22_09h42.16.090,empathy_intonation_perc,2020.2.10,Win32,60,,,,,,,,,,1,,,,,,,,,,,,,,,,,,,,,,,,,,,,,,,,,,,,,,,,26,secuestro,,,1,1,1.016,0,0,0,25,1,REAL,FAKE,,,,,,,,,,,,,,,,,,,,,
,,,,,,,5f4cfe26fc6fe994078bedd3,6057c54e64b0b4e5c128b4f9,6057f2b94cc920cd8e13465b,United States,Northeast,13 or older,no,2021-03-22_09h42.16.090,empathy_intonation_perc,2020.2.10,Win32,60,,,,,,,,,,1,,,,,,,,,,,,,,,,,,,,,,,,,,,,,,,,,,,,,,,,73,hervidor,,,1,1,0.936,0,1,1,72,1,REAL,FAKE,,,,,,,,,,,,,,,,,,,,,
,,,,,,,5f4cfe26fc6fe994078bedd3,6057c54e64b0b4e5c128b4f9,6057f2b94cc920cd8e13465b,United States,Northeast,13 or older,no,2021-03-22_09h42.16.090,empathy_intonation_perc,2020.2.10,Win32,60,,,,,,,,,,1,,,,,,,,,,,,,,,,,,,,,,,,,,,,,,,,,,,,,,,,49,ganar,,,0,0,2.7,0,2,2,48,1,REAL,FAKE,,,,,,,,,,,,,,,,,,,,,
,,,,,,,5f4cfe26fc6fe994078bedd3,6057c54e64b0b4e5c128b4f9,6057f2b94cc920cd8e13465b,United States,Northeast,13 or older,no,2021-03-22_09h42.16.090,empathy_intonation_perc,2020.2.10,Win32,60,,,,,,,,,,1,,,,,,,,,,,,,,,,,,,,,,,,,,,,,,,,,,,,,,,,81,pozo,,,0,0,1.116,0,3,3,80,1,REAL,FAKE,,,,,,,,,,,,,,,,,,,,,
,,,,,,,5f4cfe26fc6fe994078bedd3,6057c54e64b0b4e5c128b4f9,6057f2b94cc920cd8e13465b,United States,Northeast,13 or older,no,2021-03-22_09h42.16.090,empathy_intonation_perc,2020.2.10,Win32,60,,,,,,,,,,1,,,,,,,,,,,,,,,,,,,,,,,,,,,,,,,,,,,,,,,,7,psimo,,,1,1,0.69,0,4,4,6,1,REAL,FAKE,,,,,,,,,,,,,,,,,,,,,
,,,,,,,5f4cfe26fc6fe994078bedd3,6057c54e64b0b4e5c128b4f9,6057f2b94cc920cd8e13465b,United States,Northeast,13 or older,no,2021-03-22_09h42.16.090,empathy_intonation_perc,2020.2.10,Win32,60,,,,,,,,,,0,,,,,,,,,,,,,,,,,,,,,,,,,,,,,,,,,,,,,,,,17,floroso,,,0,1,1.066,0,5,5,16,1,REAL,FAKE,,,,,,,,,,,,,,,,,,,,,
,,,,,,,5f4cfe26fc6fe994078bedd3,6057c54e64b0b4e5c128b4f9,6057f2b94cc920cd8e13465b,United States,Northeast,13 or older,no,2021-03-22_09h42.16.090,empathy_intonation_perc,2020.2.10,Win32,60,,,,,,,,,,1,,,,,,,,,,,,,,,,,,,,,,,,,,,,,,,,,,,,,,,,6,tergiversar,,,1,1,1.197,0,6,6,5,1,REAL,FAKE,,,,,,,,,,,,,,,,,,,,,
,,,,,,,5f4cfe26fc6fe994078bedd3,6057c54e64b0b4e5c128b4f9,6057f2b94cc920cd8e13465b,United States,Northeast,13 or older,no,2021-03-22_09h42.16.090,empathy_intonation_perc,2020.2.10,Win32,60,,,,,,,,,,1,,,,,,,,,,,,,,,,,,,,,,,,,,,,,,,,,,,,,,,,51,candado,,,1,1,0.569,0,7,7,50,1,REAL,FAKE,,,,,,,,,,,,,,,,,,,,,
,,,,,,,5f4cfe26fc6fe994078bedd3,6057c54e64b0b4e5c128b4f9,6057f2b94cc920cd8e13465b,United States,Northeast,13 or older,no,2021-03-22_09h42.16.090,empathy_intonation_perc,2020.2.10,Win32,60,,,,,,,,,,1,,,,,,,,,,,,,,,,,,,,,,,,,,,,,,,,,,,,,,,,11,cenefa,,,0,0,1.101,0,8,8,10,1,REAL,FAKE,,,,,,,,,,,,,,,,,,,,,
,,,,,,,5f4cfe26fc6fe994078bedd3,6057c54e64b0b4e5c128b4f9,6057f2b94cc920cd8e13465b,United States,Northeast,13 or older,no,2021-03-22_09h42.16.090,empathy_intonation_perc,2020.2.10,Win32,60,,,,,,,,,,0,,,,,,,,,,,,,,,,,,,,,,,,,,,,,,,,,,,,,,,,29,decar,,,0,1,0.939,0,9,9,28,1,REAL,FAKE,,,,,,,,,,,,,,,,,,,,,
,,,,,,,5f4cfe26fc6fe994078bedd3,6057c54e64b0b4e5c128b4f9,6057f2b94cc920cd8e13465b,United States,Northeast,13 or older,no,2021-03-22_09h42.16.090,empathy_intonation_perc,2020.2.10,Win32,60,,,,,,,,,,1,,,,,,,,,,,,,,,,,,,,,,,,,,,,,,,,,,,,,,,,62,flaco,,,1,1,1.3,0,10,10,61,1,REAL,FAKE,,,,,,,,,,,,,,,,,,,,,
,,,,,,,5f4cfe26fc6fe994078bedd3,6057c54e64b0b4e5c128b4f9,6057f2b94cc920cd8e13465b,United States,Northeast,13 or older,no,2021-03-22_09h42.16.090,empathy_intonation_perc,2020.2.10,Win32,60,,,,,,,,,,1,,,,,,,,,,,,,,,,,,,,,,,,,,,,,,,,,,,,,,,,20,vido,,,1,1,0.82,0,11,11,19,1,REAL,FAKE,,,,,,,,,,,,,,,,,,,,,
,,,,,,,5f4cfe26fc6fe994078bedd3,6057c54e64b0b4e5c128b4f9,6057f2b94cc920cd8e13465b,United States,Northeast,13 or older,no,2021-03-22_09h42.16.090,empathy_intonation_perc,2020.2.10,Win32,60,,,,,,,,,,0,,,,,,,,,,,,,,,,,,,,,,,,,,,,,,,,,,,,,,,,10,antar,,,0,1,0.57,0,12,12,9,1,REAL,FAKE,,,,,,,,,,,,,,,,,,,,,
,,,,,,,5f4cfe26fc6fe994078bedd3,6057c54e64b0b4e5c128b4f9,6057f2b94cc920cd8e13465b,United States,Northeast,13 or older,no,2021-03-22_09h42.16.090,empathy_intonation_perc,2020.2.10,Win32,60,,,,,,,,,,0,,,,,,,,,,,,,,,,,,,,,,,,,,,,,,,,,,,,,,,,58,plaudir,,,1,0,0.78,0,13,13,57,1,REAL,FAKE,,,,,,,,,,,,,,,,,,,,,
,,,,,,,5f4cfe26fc6fe994078bedd3,6057c54e64b0b4e5c128b4f9,6057f2b94cc920cd8e13465b,United States,Northeast,13 or older,no,2021-03-22_09h42.16.090,empathy_intonation_perc,2020.2.10,Win32,60,,,,,,,,,,0,,,,,,,,,,,,,,,,,,,,,,,,,,,,,,,,,,,,,,,,18,arsa,,,0,1,1.534,0,14,14,17,1,REAL,FAKE,,,,,,,,,,,,,,,,,,,,,
,,,,,,,5f4cfe26fc6fe994078bedd3,6057c54e64b0b4e5c128b4f9,6057f2b94cc920cd8e13465b,United States,Northeast,13 or older,no,2021-03-22_09h42.16.090,empathy_intonation_perc,2020.2.10,Win32,60,,,,,,,,,,1,,,,,,,,,,,,,,,,,,,,,,,,,,,,,,,,,,,,,,,,89,prisa,,,1,1,0.832,0,15,15,88,1,REAL,FAKE,,,,,,,,,,,,,,,,,,,,,
,,,,,,,5f4cfe26fc6fe994078bedd3,6057c54e64b0b4e5c128b4f9,6057f2b94cc920cd8e13465b,United States,Northeast,13 or older,no,2021-03-22_09h42.16.090,empathy_intonation_perc,2020.2.10,Win32,60,,,,,,,,,,0,,,,,,,,,,,,,,,,,,,,,,,,,,,,,,,,,,,,,,,,79,tropaje,,,0,1,1.273,0,16,16,78,1,REAL,FAKE,,,,,,,,,,,,,,,,,,,,,
,,,,,,,5f4cfe26fc6fe994078bedd3,6057c54e64b0b4e5c128b4f9,6057f2b94cc920cd8e13465b,United States,Northeast,13 or older,no,2021-03-22_09h42.16.090,empathy_intonation_perc,2020.2.10,Win32,60,,,,,,,,,,0,,,,,,,,,,,,,,,,,,,,,,,,,,,,,,,,,,,,,,,,30,alardio,,,1,0,1.581,0,17,17,29,1,REAL,FAKE,,,,,,,,,,,,,,,,,,,,,
,,,,,,,5f4cfe26fc6fe994078bedd3,6057c54e64b0b4e5c128b4f9,6057f2b94cc920cd8e13465b,United States,Northeast,13 or older,no,2021-03-22_09h42.16.090,empathy_intonation_perc,2020.2.10,Win32,60,,,,,,,,,,1,,,,,,,,,,,,,,,,,,,,,,,,,,,,,,,,,,,,,,,,54,fomentar,,,0,0,0.672,0,18,18,53,1,REAL,FAKE,,,,,,,,,,,,,,,,,,,,,
,,,,,,,5f4cfe26fc6fe994078bedd3,6057c54e64b0b4e5c128b4f9,6057f2b94cc920cd8e13465b,United States,Northeast,13 or older,no,2021-03-22_09h42.16.090,empathy_intonation_perc,2020.2.10,Win32,60,,,,,,,,,,1,,,,,,,,,,,,,,,,,,,,,,,,,,,,,,,,,,,,,,,,25,bisagra,,,0,0,0.571,0,19,19,24,1,REAL,FAKE,,,,,,,,,,,,,,,,,,,,,
,,,,,,,5f4cfe26fc6fe994078bedd3,6057c54e64b0b4e5c128b4f9,6057f2b94cc920cd8e13465b,United States,Northeast,13 or older,no,2021-03-22_09h42.16.090,empathy_intonation_perc,2020.2.10,Win32,60,,,,,,,,,,0,,,,,,,,,,,,,,,,,,,,,,,,,,,,,,,,,,,,,,,,23,lampera,,,0,1,0.739,0,20,20,22,1,REAL,FAKE,,,,,,,,,,,,,,,,,,,,,
,,,,,,,5f4cfe26fc6fe994078bedd3,6057c54e64b0b4e5c128b4f9,6057f2b94cc920cd8e13465b,United States,Northeast,13 or older,no,2021-03-22_09h42.16.090,empathy_intonation_perc,2020.2.10,Win32,60,,,,,,,,,,1,,,,,,,,,,,,,,,,,,,,,,,,,,,,,,,,,,,,,,,,15,regar,,,0,0,0.737,0,21,21,14,1,REAL,FAKE,,,,,,,,,,,,,,,,,,,,,
,,,,,,,5f4cfe26fc6fe994078bedd3,6057c54e64b0b4e5c128b4f9,6057f2b94cc920cd8e13465b,United States,Northeast,13 or older,no,2021-03-22_09h42.16.090,empathy_intonation_perc,2020.2.10,Win32,60,,,,,,,,,,0,,,,,,,,,,,,,,,,,,,,,,,,,,,,,,,,,,,,,,,,72,pemicin,,,1,0,0.645,0,22,22,71,1,REAL,FAKE,,,,,,,,,,,,,,,,,,,,,
,,,,,,,5f4cfe26fc6fe994078bedd3,6057c54e64b0b4e5c128b4f9,6057f2b94cc920cd8e13465b,United States,Northeast,13 or older,no,2021-03-22_09h42.16.090,empathy_intonation_perc,2020.2.10,Win32,60,,,,,,,,,,0,,,,,,,,,,,,,,,,,,,,,,,,,,,,,,,,,,,,,,,,66,hacido,,,1,0,0.614,0,23,23,65,1,REAL,FAKE,,,,,,,,,,,,,,,,,,,,,
,,,,,,,5f4cfe26fc6fe994078bedd3,6057c54e64b0b4e5c128b4f9,6057f2b94cc920cd8e13465b,United States,Northeast,13 or older,no,2021-03-22_09h42.16.090,empathy_intonation_perc,2020.2.10,Win32,60,,,,,,,,,,1,,,,,,,,,,,,,,,,,,,,,,,,,,,,,,,,,,,,,,,,24,ltigo,,,1,1,0.609,0,24,24,23,1,REAL,FAKE,,,,,,,,,,,,,,,,,,,,,
,,,,,,,5f4cfe26fc6fe994078bedd3,6057c54e64b0b4e5c128b4f9,6057f2b94cc920cd8e13465b,United States,Northeast,13 or older,no,2021-03-22_09h42.16.090,empathy_intonation_perc,2020.2.10,Win32,60,,,,,,,,,,1,,,,,,,,,,,,,,,,,,,,,,,,,,,,,,,,,,,,,,,,69,engatusar,,,1,1,0.662,0,25,25,68,1,REAL,FAKE,,,,,,,,,,,,,,,,,,,,,
,,,,,,,5f4cfe26fc6fe994078bedd3,6057c54e64b0b4e5c128b4f9,6057f2b94cc920cd8e13465b,United States,Northeast,13 or older,no,2021-03-22_09h42.16.090,empathy_intonation_perc,2020.2.10,Win32,60,,,,,,,,,,1,,,,,,,,,,,,,,,,,,,,,,,,,,,,,,,,,,,,,,,,46,martillo,,,1,1,0.649,0,26,26,45,1,REAL,FAKE,,,,,,,,,,,,,,,,,,,,,
,,,,,,,5f4cfe26fc6fe994078bedd3,6057c54e64b0b4e5c128b4f9,6057f2b94cc920cd8e13465b,United States,Northeast,13 or older,no,2021-03-22_09h42.16.090,empathy_intonation_perc,2020.2.10,Win32,60,,,,,,,,,,1,,,,,,,,,,,,,,,,,,,,,,,,,,,,,,,,,,,,,,,,56,musgo,,,0,0,0.747,0,27,27,55,1,REAL,FAKE,,,,,,,,,,,,,,,,,,,,,
,,,,,,,5f4cfe26fc6fe994078bedd3,6057c54e64b0b4e5c128b4f9,6057f2b94cc920cd8e13465b,United States,Northeast,13 or older,no,2021-03-22_09h42.16.090,empathy_intonation_perc,2020.2.10,Win32,60,,,,,,,,,,1,,,,,,,,,,,,,,,,,,,,,,,,,,,,,,,,,,,,,,,,41,rebuscar,,,1,1,1.304,0,28,28,40,1,REAL,FAKE,,,,,,,,,,,,,,,,,,,,,
,,,,,,,5f4cfe26fc6fe994078bedd3,6057c54e64b0b4e5c128b4f9,6057f2b94cc920cd8e13465b,United States,Northeast,13 or older,no,2021-03-22_09h42.16.090,empathy_intonation_perc,2020.2.10,Win32,60,,,,,,,,,,1,,,,,,,,,,,,,,,,,,,,,,,,,,,,,,,,,,,,,,,,34,aviso,,,0,0,1.047,0,29,29,33,1,REAL,FAKE,,,,,,,,,,,,,,,,,,,,,
,,,,,,,5f4cfe26fc6fe994078bedd3,6057c54e64b0b4e5c128b4f9,6057f2b94cc920cd8e13465b,United States,Northeast,13 or older,no,2021-03-22_09h42.16.090,empathy_intonation_perc,2020.2.10,Win32,60,,,,,,,,,,0,,,,,,,,,,,,,,,,,,,,,,,,,,,,,,,,,,,,,,,,74,cintro,,,0,1,0.935,0,30,30,73,1,REAL,FAKE,,,,,,,,,,,,,,,,,,,,,
,,,,,,,5f4cfe26fc6fe994078bedd3,6057c54e64b0b4e5c128b4f9,6057f2b94cc920cd8e13465b,United States,Northeast,13 or older,no,2021-03-22_09h42.16.090,empathy_intonation_perc,2020.2.10,Win32,60,,,,,,,,,,1,,,,,,,,,,,,,,,,,,,,,,,,,,,,,,,,,,,,,,,,90,clavel,,,0,0,1.849,0,31,31,89,1,REAL,FAKE,,,,,,,,,,,,,,,,,,,,,
,,,,,,,5f4cfe26fc6fe994078bedd3,6057c54e64b0b4e5c128b4f9,6057f2b94cc920cd8e13465b,United States,Northeast,13 or older,no,2021-03-22_09h42.16.090,empathy_intonation_perc,2020.2.10,Win32,60,,,,,,,,,,1,,,,,,,,,,,,,,,,,,,,,,,,,,,,,,,,,,,,,,,,52,camisa,,,1,1,0.574,0,32,32,51,1,REAL,FAKE,,,,,,,,,,,,,,,,,,,,,
,,,,,,,5f4cfe26fc6fe994078bedd3,6057c54e64b0b4e5c128b4f9,6057f2b94cc920cd8e13465b,United States,Northeast,13 or older,no,2021-03-22_09h42.16.090,empathy_intonation_perc,2020.2.10,Win32,60,,,,,,,,,,0,,,,,,,,,,,,,,,,,,,,,,,,,,,,,,,,,,,,,,,,4,batilln,,,1,0,0.565,0,33,33,3,1,REAL,FAKE,,,,,,,,,,,,,,,,,,,,,
,,,,,,,5f4cfe26fc6fe994078bedd3,6057c54e64b0b4e5c128b4f9,6057f2b94cc920cd8e13465b,United States,Northeast,13 or older,no,2021-03-22_09h42.16.090,empathy_intonation_perc,2020.2.10,Win32,60,,,,,,,,,,1,,,,,,,,,,,,,,,,,,,,,,,,,,,,,,,,,,,,,,,,65,bizcocho,,,0,0,0.765,0,34,34,64,1,REAL,FAKE,,,,,,,,,,,,,,,,,,,,,
,,,,,,,5f4cfe26fc6fe994078bedd3,6057c54e64b0b4e5c128b4f9,6057f2b94cc920cd8e13465b,United States,Northeast,13 or older,no,2021-03-22_09h42.16.090,empathy_intonation_perc,2020.2.10,Win32,60,,,,,,,,,,1,,,,,,,,,,,,,,,,,,,,,,,,,,,,,,,,,,,,,,,,48,ladrn,,,1,1,0.567,0,35,35,47,1,REAL,FAKE,,,,,,,,,,,,,,,,,,,,,
,,,,,,,5f4cfe26fc6fe994078bedd3,6057c54e64b0b4e5c128b4f9,6057f2b94cc920cd8e13465b,United States,Northeast,13 or older,no,2021-03-22_09h42.16.090,empathy_intonation_perc,2020.2.10,Win32,60,,,,,,,,,,0,,,,,,,,,,,,,,,,,,,,,,,,,,,,,,,,,,,,,,,,47,cartinar,,,0,1,0.681,0,36,36,46,1,REAL,FAKE,,,,,,,,,,,,,,,,,,,,,
,,,,,,,5f4cfe26fc6fe994078bedd3,6057c54e64b0b4e5c128b4f9,6057f2b94cc920cd8e13465b,United States,Northeast,13 or older,no,2021-03-22_09h42.16.090,empathy_intonation_perc,2020.2.10,Win32,60,,,,,,,,,,1,,,,,,,,,,,,,,,,,,,,,,,,,,,,,,,,,,,,,,,,31,pandilla,,,1,1,0.546,0,37,37,30,1,REAL,FAKE,,,,,,,,,,,,,,,,,,,,,
,,,,,,,5f4cfe26fc6fe994078bedd3,6057c54e64b0b4e5c128b4f9,6057f2b94cc920cd8e13465b,United States,Northeast,13 or older,no,2021-03-22_09h42.16.090,empathy_intonation_perc,2020.2.10,Win32,60,,,,,,,,,,0,,,,,,,,,,,,,,,,,,,,,,,,,,,,,,,,,,,,,,,,50,flamida,,,0,1,0.601,0,38,38,49,1,REAL,FAKE,,,,,,,,,,,,,,,,,,,,,
,,,,,,,5f4cfe26fc6fe994078bedd3,6057c54e64b0b4e5c128b4f9,6057f2b94cc920cd8e13465b,United States,Northeast,13 or older,no,2021-03-22_09h42.16.090,empathy_intonation_perc,2020.2.10,Win32,60,,,,,,,,,,1,,,,,,,,,,,,,,,,,,,,,,,,,,,,,,,,,,,,,,,,64,orgulloso,,,1,1,1.681,0,39,39,63,1,REAL,FAKE,,,,,,,,,,,,,,,,,,,,,
,,,,,,,5f4cfe26fc6fe994078bedd3,6057c54e64b0b4e5c128b4f9,6057f2b94cc920cd8e13465b,United States,Northeast,13 or older,no,2021-03-22_09h42.16.090,empathy_intonation_perc,2020.2.10,Win32,60,,,,,,,,,,1,,,,,,,,,,,,,,,,,,,,,,,,,,,,,,,,,,,,,,,,75,yacer,,,0,0,0.597,0,40,40,74,1,REAL,FAKE,,,,,,,,,,,,,,,,,,,,,
,,,,,,,5f4cfe26fc6fe994078bedd3,6057c54e64b0b4e5c128b4f9,6057f2b94cc920cd8e13465b,United States,Northeast,13 or older,no,2021-03-22_09h42.16.090,empathy_intonation_perc,2020.2.10,Win32,60,,,,,,,,,,1,,,,,,,,,,,,,,,,,,,,,,,,,,,,,,,,,,,,,,,,77,tiburn,,,1,1,1.224,0,41,41,76,1,REAL,FAKE,,,,,,,,,,,,,,,,,,,,,
,,,,,,,5f4cfe26fc6fe994078bedd3,6057c54e64b0b4e5c128b4f9,6057f2b94cc920cd8e13465b,United States,Northeast,13 or older,no,2021-03-22_09h42.16.090,empathy_intonation_perc,2020.2.10,Win32,60,,,,,,,,,,1,,,,,,,,,,,,,,,,,,,,,,,,,,,,,,,,,,,,,,,,78,frondoso,,,0,0,1.056,0,42,42,77,1,REAL,FAKE,,,,,,,,,,,,,,,,,,,,,
,,,,,,,5f4cfe26fc6fe994078bedd3,6057c54e64b0b4e5c128b4f9,6057f2b94cc920cd8e13465b,United States,Northeast,13 or older,no,2021-03-22_09h42.16.090,empathy_intonation_perc,2020.2.10,Win32,60,,,,,,,,,,1,,,,,,,,,,,,,,,,,,,,,,,,,,,,,,,,,,,,,,,,86,barato,,,0,0,1.819,0,43,43,85,1,REAL,FAKE,,,,,,,,,,,,,,,,,,,,,
,,,,,,,5f4cfe26fc6fe994078bedd3,6057c54e64b0b4e5c128b4f9,6057f2b94cc920cd8e13465b,United States,Northeast,13 or older,no,2021-03-22_09h42.16.090,empathy_intonation_perc,2020.2.10,Win32,60,,,,,,,,,,0,,,,,,,,,,,,,,,,,,,,,,,,,,,,,,,,,,,,,,,,8,cadea,,,1,0,0.481,0,44,44,7,1,REAL,FAKE,,,,,,,,,,,,,,,,,,,,,
,,,,,,,5f4cfe26fc6fe994078bedd3,6057c54e64b0b4e5c128b4f9,6057f2b94cc920cd8e13465b,United States,Northeast,13 or older,no,2021-03-22_09h42.16.090,empathy_intonation_perc,2020.2.10,Win32,60,,,,,,,,,,1,,,,,,,,,,,,,,,,,,,,,,,,,,,,,,,,,,,,,,,,38,estornudar,,,0,0,0.681,0,45,45,37,1,REAL,FAKE,,,,,,,,,,,,,,,,,,,,,
,,,,,,,5f4cfe26fc6fe994078bedd3,6057c54e64b0b4e5c128b4f9,6057f2b94cc920cd8e13465b,United States,Northeast,13 or older,no,2021-03-22_09h42.16.090,empathy_intonation_perc,2020.2.10,Win32,60,,,,,,,,,,1,,,,,,,,,,,,,,,,,,,,,,,,,,,,,,,,,,,,,,,,13,helar,,,1,1,0.614,0,46,46,12,1,REAL,FAKE,,,,,,,,,,,,,,,,,,,,,
,,,,,,,5f4cfe26fc6fe994078bedd3,6057c54e64b0b4e5c128b4f9,6057f2b94cc920cd8e13465b,United States,Northeast,13 or older,no,2021-03-22_09h42.16.090,empathy_intonation_perc,2020.2.10,Win32,60,,,,,,,,,,0,,,,,,,,,,,,,,,,,,,,,,,,,,,,,,,,,,,,,,,,16,abracer,,,1,0,0.663,0,47,47,15,1,REAL,FAKE,,,,,,,,,,,,,,,,,,,,,
,,,,,,,5f4cfe26fc6fe994078bedd3,6057c54e64b0b4e5c128b4f9,6057f2b94cc920cd8e13465b,United States,Northeast,13 or older,no,2021-03-22_09h42.16.090,empathy_intonation_perc,2020.2.10,Win32,60,,,,,,,,,,0,,,,,,,,,,,,,,,,,,,,,,,,,,,,,,,,,,,,,,,,82,empirador,,,1,0,0.682,0,48,48,81,1,REAL,FAKE,,,,,,,,,,,,,,,,,,,,,
,,,,,,,5f4cfe26fc6fe994078bedd3,6057c54e64b0b4e5c128b4f9,6057f2b94cc920cd8e13465b,United States,Northeast,13 or older,no,2021-03-22_09h42.16.090,empathy_intonation_perc,2020.2.10,Win32,60,,,,,,,,,,1,,,,,,,,,,,,,,,,,,,,,,,,,,,,,,,,,,,,,,,,37,granuja,,,1,1,0.692,0,49,49,36,1,REAL,FAKE,,,,,,,,,,,,,,,,,,,,,
,,,,,,,5f4cfe26fc6fe994078bedd3,6057c54e64b0b4e5c128b4f9,6057f2b94cc920cd8e13465b,United States,Northeast,13 or older,no,2021-03-22_09h42.16.090,empathy_intonation_perc,2020.2.10,Win32,60,,,,,,,,,,1,,,,,,,,,,,,,,,,,,,,,,,,,,,,,,,,,,,,,,,,14,yunque,,,0,0,0.767,0,50,50,13,1,REAL,FAKE,,,,,,,,,,,,,,,,,,,,,
,,,,,,,5f4cfe26fc6fe994078bedd3,6057c54e64b0b4e5c128b4f9,6057f2b94cc920cd8e13465b,United States,Northeast,13 or older,no,2021-03-22_09h42.16.090,empathy_intonation_perc,2020.2.10,Win32,60,,,,,,,,,,1,,,,,,,,,,,,,,,,,,,,,,,,,,,,,,,,,,,,,,,,39,torpe,,,1,1,0.662,0,51,51,38,1,REAL,FAKE,,,,,,,,,,,,,,,,,,,,,
,,,,,,,5f4cfe26fc6fe994078bedd3,6057c54e64b0b4e5c128b4f9,6057f2b94cc920cd8e13465b,United States,Northeast,13 or older,no,2021-03-22_09h42.16.090,empathy_intonation_perc,2020.2.10,Win32,60,,,,,,,,,,1,,,,,,,,,,,,,,,,,,,,,,,,,,,,,,,,,,,,,,,,22,lacayo,,,0,0,0.698,0,52,52,21,1,REAL,FAKE,,,,,,,,,,,,,,,,,,,,,
,,,,,,,5f4cfe26fc6fe994078bedd3,6057c54e64b0b4e5c128b4f9,6057f2b94cc920cd8e13465b,United States,Northeast,13 or older,no,2021-03-22_09h42.16.090,empathy_intonation_perc,2020.2.10,Win32,60,,,,,,,,,,1,,,,,,,,,,,,,,,,,,,,,,,,,,,,,,,,,,,,,,,,67,cabello,,,1,1,0.621,0,53,53,66,1,REAL,FAKE,,,,,,,,,,,,,,,,,,,,,
,,,,,,,5f4cfe26fc6fe994078bedd3,6057c54e64b0b4e5c128b4f9,6057f2b94cc920cd8e13465b,United States,Northeast,13 or older,no,2021-03-22_09h42.16.090,empathy_intonation_perc,2020.2.10,Win32,60,,,,,,,,,,0,,,,,,,,,,,,,,,,,,,,,,,,,,,,,,,,,,,,,,,,19,brecedad,,,0,1,0.618,0,54,54,18,1,REAL,FAKE,,,,,,,,,,,,,,,,,,,,,
,,,,,,,5f4cfe26fc6fe994078bedd3,6057c54e64b0b4e5c128b4f9,6057f2b94cc920cd8e13465b,United States,Northeast,13 or older,no,2021-03-22_09h42.16.090,empathy_intonation_perc,2020.2.10,Win32,60,,,,,,,,,,1,,,,,,,,,,,,,,,,,,,,,,,,,,,,,,,,,,,,,,,,3,pulmones,,,0,0,0.854,0,55,55,2,1,REAL,FAKE,,,,,,,,,,,,,,,,,,,,,
,,,,,,,5f4cfe26fc6fe994078bedd3,6057c54e64b0b4e5c128b4f9,6057f2b94cc920cd8e13465b,United States,Northeast,13 or older,no,2021-03-22_09h42.16.090,empathy_intonation_perc,2020.2.10,Win32,60,,,,,,,,,,0,,,,,,,,,,,,,,,,,,,,,,,,,,,,,,,,,,,,,,,,1,terzo,,,1,0,0.697,0,56,56,0,1,REAL,FAKE,,,,,,,,,,,,,,,,,,,,,
,,,,,,,5f4cfe26fc6fe994078bedd3,6057c54e64b0b4e5c128b4f9,6057f2b94cc920cd8e13465b,United States,Northeast,13 or older,no,2021-03-22_09h42.16.090,empathy_intonation_perc,2020.2.10,Win32,60,,,,,,,,,,1,,,,,,,,,,,,,,,,,,,,,,,,,,,,,,,,,,,,,,,,88,acantilado,,,1,1,1.73,0,57,57,87,1,REAL,FAKE,,,,,,,,,,,,,,,,,,,,,
,,,,,,,5f4cfe26fc6fe994078bedd3,6057c54e64b0b4e5c128b4f9,6057f2b94cc920cd8e13465b,United States,Northeast,13 or older,no,2021-03-22_09h42.16.090,empathy_intonation_perc,2020.2.10,Win32,60,,,,,,,,,,1,,,,,,,,,,,,,,,,,,,,,,,,,,,,,,,,,,,,,,,,57,tacao,,,1,1,0.732,0,58,58,56,1,REAL,FAKE,,,,,,,,,,,,,,,,,,,,,
,,,,,,,5f4cfe26fc6fe994078bedd3,6057c54e64b0b4e5c128b4f9,6057f2b94cc920cd8e13465b,United States,Northeast,13 or older,no,2021-03-22_09h42.16.090,empathy_intonation_perc,2020.2.10,Win32,60,,,,,,,,,,1,,,,,,,,,,,,,,,,,,,,,,,,,,,,,,,,,,,,,,,,28,merodear,,,0,0,0.654,0,59,59,27,1,REAL,FAKE,,,,,,,,,,,,,,,,,,,,,
,,,,,,,5f4cfe26fc6fe994078bedd3,6057c54e64b0b4e5c128b4f9,6057f2b94cc920cd8e13465b,United States,Northeast,13 or older,no,2021-03-22_09h42.16.090,empathy_intonation_perc,2020.2.10,Win32,60,,,,,,,,,,1,,,,,,,,,,,,,,,,,,,,,,,,,,,,,,,,,,,,,,,,40,alfombra,,,1,1,1.412,0,60,60,39,1,REAL,FAKE,,,,,,,,,,,,,,,,,,,,,
,,,,,,,5f4cfe26fc6fe994078bedd3,6057c54e64b0b4e5c128b4f9,6057f2b94cc920cd8e13465b,United States,Northeast,13 or older,no,2021-03-22_09h42.16.090,empathy_intonation_perc,2020.2.10,Win32,60,,,,,,,,,,1,,,,,,,,,,,,,,,,,,,,,,,,,,,,,,,,,,,,,,,,71,polvoriento,,,0,0,0.748,0,61,61,70,1,REAL,FAKE,,,,,,,,,,,,,,,,,,,,,
,,,,,,,5f4cfe26fc6fe994078bedd3,6057c54e64b0b4e5c128b4f9,6057f2b94cc920cd8e13465b,United States,Northeast,13 or older,no,2021-03-22_09h42.16.090,empathy_intonation_perc,2020.2.10,Win32,60,,,,,,,,,,1,,,,,,,,,,,,,,,,,,,,,,,,,,,,,,,,,,,,,,,,85,lad,,,1,1,0.599,0,62,62,84,1,REAL,FAKE,,,,,,,,,,,,,,,,,,,,,
,,,,,,,5f4cfe26fc6fe994078bedd3,6057c54e64b0b4e5c128b4f9,6057f2b94cc920cd8e13465b,United States,Northeast,13 or older,no,2021-03-22_09h42.16.090,empathy_intonation_perc,2020.2.10,Win32,60,,,,,,,,,,1,,,,,,,,,,,,,,,,,,,,,,,,,,,,,,,,,,,,,,,,43,canela,,,0,0,0.907,0,63,63,42,1,REAL,FAKE,,,,,,,,,,,,,,,,,,,,,
,,,,,,,5f4cfe26fc6fe994078bedd3,6057c54e64b0b4e5c128b4f9,6057f2b94cc920cd8e13465b,United States,Northeast,13 or older,no,2021-03-22_09h42.16.090,empathy_intonation_perc,2020.2.10,Win32,60,,,,,,,,,,0,,,,,,,,,,,,,,,,,,,,,,,,,,,,,,,,,,,,,,,,27,acutacin,,,1,0,2.065,0,64,64,26,1,REAL,FAKE,,,,,,,,,,,,,,,,,,,,,
,,,,,,,5f4cfe26fc6fe994078bedd3,6057c54e64b0b4e5c128b4f9,6057f2b94cc920cd8e13465b,United States,Northeast,13 or older,no,2021-03-22_09h42.16.090,empathy_intonation_perc,2020.2.10,Win32,60,,,,,,,,,,1,,,,,,,,,,,,,,,,,,,,,,,,,,,,,,,,,,,,,,,,83,guante,,,1,1,0.85,0,65,65,82,1,REAL,FAKE,,,,,,,,,,,,,,,,,,,,,
,,,,,,,5f4cfe26fc6fe994078bedd3,6057c54e64b0b4e5c128b4f9,6057f2b94cc920cd8e13465b,United States,Northeast,13 or older,no,2021-03-22_09h42.16.090,empathy_intonation_perc,2020.2.10,Win32,60,,,,,,,,,,1,,,,,,,,,,,,,,,,,,,,,,,,,,,,,,,,,,,,,,,,55,nevar,,,0,0,0.642,0,66,66,54,1,REAL,FAKE,,,,,,,,,,,,,,,,,,,,,
,,,,,,,5f4cfe26fc6fe994078bedd3,6057c54e64b0b4e5c128b4f9,6057f2b94cc920cd8e13465b,United States,Northeast,13 or older,no,2021-03-22_09h42.16.090,empathy_intonation_perc,2020.2.10,Win32,60,,,,,,,,,,1,,,,,,,,,,,,,,,,,,,,,,,,,,,,,,,,,,,,,,,,9,hacha,,,0,0,0.614,0,67,67,8,1,REAL,FAKE,,,,,,,,,,,,,,,,,,,,,
,,,,,,,5f4cfe26fc6fe994078bedd3,6057c54e64b0b4e5c128b4f9,6057f2b94cc920cd8e13465b,United States,Northeast,13 or older,no,2021-03-22_09h42.16.090,empathy_intonation_perc,2020.2.10,Win32,60,,,,,,,,,,1,,,,,,,,,,,,,,,,,,,,,,,,,,,,,,,,,,,,,,,,60,matar,,,0,0,0.713,0,68,68,59,1,REAL,FAKE,,,,,,,,,,,,,,,,,,,,,
,,,,,,,5f4cfe26fc6fe994078bedd3,6057c54e64b0b4e5c128b4f9,6057f2b94cc920cd8e13465b,United States,Northeast,13 or older,no,2021-03-22_09h42.16.090,empathy_intonation_perc,2020.2.10,Win32,60,,,,,,,,,,1,,,,,,,,,,,,,,,,,,,,,,,,,,,,,,,,,,,,,,,,44,cuchara,,,1,1,0.733,0,69,69,43,1,REAL,FAKE,,,,,,,,,,,,,,,,,,,,,
,,,,,,,5f4cfe26fc6fe994078bedd3,6057c54e64b0b4e5c128b4f9,6057f2b94cc920cd8e13465b,United States,Northeast,13 or older,no,2021-03-22_09h42.16.090,empathy_intonation_perc,2020.2.10,Win32,60,,,,,,,,,,1,,,,,,,,,,,,,,,,,,,,,,,,,,,,,,,,,,,,,,,,59,besar,,,0,0,0.57,0,70,70,58,1,REAL,FAKE,,,,,,,,,,,,,,,,,,,,,
,,,,,,,5f4cfe26fc6fe994078bedd3,6057c54e64b0b4e5c128b4f9,6057f2b94cc920cd8e13465b,United States,Northeast,13 or older,no,2021-03-22_09h42.16.090,empathy_intonation_perc,2020.2.10,Win32,60,,,,,,,,,,1,,,,,,,,,,,,,,,,,,,,,,,,,,,,,,,,,,,,,,,,76,atar,,,0,0,0.582,0,71,71,75,1,REAL,FAKE,,,,,,,,,,,,,,,,,,,,,
,,,,,,,5f4cfe26fc6fe994078bedd3,6057c54e64b0b4e5c128b4f9,6057f2b94cc920cd8e13465b,United States,Northeast,13 or older,no,2021-03-22_09h42.16.090,empathy_intonation_perc,2020.2.10,Win32,60,,,,,,,,,,0,,,,,,,,,,,,,,,,,,,,,,,,,,,,,,,,,,,,,,,,32,fatacidad,,,1,0,0.631,0,72,72,31,1,REAL,FAKE,,,,,,,,,,,,,,,,,,,,,
,,,,,,,5f4cfe26fc6fe994078bedd3,6057c54e64b0b4e5c128b4f9,6057f2b94cc920cd8e13465b,United States,Northeast,13 or older,no,2021-03-22_09h42.16.090,empathy_intonation_perc,2020.2.10,Win32,60,,,,,,,,,,1,,,,,,,,,,,,,,,,,,,,,,,,,,,,,,,,,,,,,,,,2,pellizcar,,,0,0,0.573,0,73,73,1,1,REAL,FAKE,,,,,,,,,,,,,,,,,,,,,
,,,,,,,5f4cfe26fc6fe994078bedd3,6057c54e64b0b4e5c128b4f9,6057f2b94cc920cd8e13465b,United States,Northeast,13 or older,no,2021-03-22_09h42.16.090,empathy_intonation_perc,2020.2.10,Win32,60,,,,,,,,,,0,,,,,,,,,,,,,,,,,,,,,,,,,,,,,,,,,,,,,,,,53,vegada,,,1,0,0.962,0,74,74,52,1,REAL,FAKE,,,,,,,,,,,,,,,,,,,,,
,,,,,,,5f4cfe26fc6fe994078bedd3,6057c54e64b0b4e5c128b4f9,6057f2b94cc920cd8e13465b,United States,Northeast,13 or older,no,2021-03-22_09h42.16.090,empathy_intonation_perc,2020.2.10,Win32,60,,,,,,,,,,1,,,,,,,,,,,,,,,,,,,,,,,,,,,,,,,,,,,,,,,,5,zapato,,,1,1,1.215,0,75,75,4,1,REAL,FAKE,,,,,,,,,,,,,,,,,,,,,
,,,,,,,5f4cfe26fc6fe994078bedd3,6057c54e64b0b4e5c128b4f9,6057f2b94cc920cd8e13465b,United States,Northeast,13 or older,no,2021-03-22_09h42.16.090,empathy_intonation_perc,2020.2.10,Win32,60,,,,,,,,,,0,,,,,,,,,,,,,,,,,,,,,,,,,,,,,,,,,,,,,,,,33,pauca,,,1,0,0.637,0,76,76,32,1,REAL,FAKE,,,,,,,,,,,,,,,,,,,,,
,,,,,,,5f4cfe26fc6fe994078bedd3,6057c54e64b0b4e5c128b4f9,6057f2b94cc920cd8e13465b,United States,Northeast,13 or older,no,2021-03-22_09h42.16.090,empathy_intonation_perc,2020.2.10,Win32,60,,,,,,,,,,0,,,,,,,,,,,,,,,,,,,,,,,,,,,,,,,,,,,,,,,,70,temblo,,,0,1,0.635,0,77,77,69,1,REAL,FAKE,,,,,,,,,,,,,,,,,,,,,
,,,,,,,5f4cfe26fc6fe994078bedd3,6057c54e64b0b4e5c128b4f9,6057f2b94cc920cd8e13465b,United States,Northeast,13 or older,no,2021-03-22_09h42.16.090,empathy_intonation_perc,2020.2.10,Win32,60,,,,,,,,,,0,,,,,,,,,,,,,,,,,,,,,,,,,,,,,,,,,,,,,,,,87,grodo,,,0,1,0.605,0,78,78,86,1,REAL,FAKE,,,,,,,,,,,,,,,,,,,,,
,,,,,,,5f4cfe26fc6fe994078bedd3,6057c54e64b0b4e5c128b4f9,6057f2b94cc920cd8e13465b,United States,Northeast,13 or older,no,2021-03-22_09h42.16.090,empathy_intonation_perc,2020.2.10,Win32,60,,,,,,,,,,0,,,,,,,,,,,,,,,,,,,,,,,,,,,,,,,,,,,,,,,,84,escuto,,,0,1,0.657,0,79,79,83,1,REAL,FAKE,,,,,,,,,,,,,,,,,,,,,
,,,,,,,5f4cfe26fc6fe994078bedd3,6057c54e64b0b4e5c128b4f9,6057f2b94cc920cd8e13465b,United States,Northeast,13 or older,no,2021-03-22_09h42.16.090,empathy_intonation_perc,2020.2.10,Win32,60,,,,,,,,,,1,,,,,,,,,,,,,,,,,,,,,,,,,,,,,,,,,,,,,,,,61,seda,,,0,0,0.816,0,80,80,60,1,REAL,FAKE,,,,,,,,,,,,,,,,,,,,,
,,,,,,,5f4cfe26fc6fe994078bedd3,6057c54e64b0b4e5c128b4f9,6057f2b94cc920cd8e13465b,United States,Northeast,13 or older,no,2021-03-22_09h42.16.090,empathy_intonation_perc,2020.2.10,Win32,60,,,,,,,,,,1,,,,,,,,,,,,,,,,,,,,,,,,,,,,,,,,,,,,,,,,12,asesinato,,,0,0,1.049,0,81,81,11,1,REAL,FAKE,,,,,,,,,,,,,,,,,,,,,
,,,,,,,5f4cfe26fc6fe994078bedd3,6057c54e64b0b4e5c128b4f9,6057f2b94cc920cd8e13465b,United States,Northeast,13 or older,no,2021-03-22_09h42.16.090,empathy_intonation_perc,2020.2.10,Win32,60,,,,,,,,,,1,,,,,,,,,,,,,,,,,,,,,,,,,,,,,,,,,,,,,,,,80,hormiga,,,1,1,0.87,0,82,82,79,1,REAL,FAKE,,,,,,,,,,,,,,,,,,,,,
,,,,,,,5f4cfe26fc6fe994078bedd3,6057c54e64b0b4e5c128b4f9,6057f2b94cc920cd8e13465b,United States,Northeast,13 or older,no,2021-03-22_09h42.16.090,empathy_intonation_perc,2020.2.10,Win32,60,,,,,,,,,,1,,,,,,,,,,,,,,,,,,,,,,,,,,,,,,,,,,,,,,,,45,jilguero,,,0,0,0.707,0,83,83,44,1,REAL,FAKE,,,,,,,,,,,,,,,,,,,,,
,,,,,,,5f4cfe26fc6fe994078bedd3,6057c54e64b0b4e5c128b4f9,6057f2b94cc920cd8e13465b,United States,Northeast,13 or older,no,2021-03-22_09h42.16.090,empathy_intonation_perc,2020.2.10,Win32,60,,,,,,,,,,0,,,,,,,,,,,,,,,,,,,,,,,,,,,,,,,,,,,,,,,,63,esposante,,,1,0,0.685,0,84,84,62,1,REAL,FAKE,,,,,,,,,,,,,,,,,,,,,
,,,,,,,5f4cfe26fc6fe994078bedd3,6057c54e64b0b4e5c128b4f9,6057f2b94cc920cd8e13465b,United States,Northeast,13 or older,no,2021-03-22_09h42.16.090,empathy_intonation_perc,2020.2.10,Win32,60,,,,,,,,,,0,,,,,,,,,,,,,,,,,,,,,,,,,,,,,,,,,,,,,,,,42,cadallo,,,1,0,0.613,0,85,85,41,1,REAL,FAKE,,,,,,,,,,,,,,,,,,,,,
,,,,,,,5f4cfe26fc6fe994078bedd3,6057c54e64b0b4e5c128b4f9,6057f2b94cc920cd8e13465b,United States,Northeast,13 or older,no,2021-03-22_09h42.16.090,empathy_intonation_perc,2020.2.10,Win32,60,,,,,,,,,,0,,,,,,,,,,,,,,,,,,,,,,,,,,,,,,,,,,,,,,,,21,capillo,,,1,0,0.804,0,86,86,20,1,REAL,FAKE,,,,,,,,,,,,,,,,,,,,,
,,,,,,,5f4cfe26fc6fe994078bedd3,6057c54e64b0b4e5c128b4f9,6057f2b94cc920cd8e13465b,United States,Northeast,13 or older,no,2021-03-22_09h42.16.090,empathy_intonation_perc,2020.2.10,Win32,60,,,,,,,,,,0,,,,,,,,,,,,,,,,,,,,,,,,,,,,,,,,,,,,,,,,35,rompido,,,1,0,0.884,0,87,87,34,1,REAL,FAKE,,,,,,,,,,,,,,,,,,,,,
,,,,,,,5f4cfe26fc6fe994078bedd3,6057c54e64b0b4e5c128b4f9,6057f2b94cc920cd8e13465b,United States,Northeast,13 or older,no,2021-03-22_09h42.16.090,empathy_intonation_perc,2020.2.10,Win32,60,,,,,,,,,,1,,,,,,,,,,,,,,,,,,,,,,,,,,,,,,,,,,,,,,,,36,loro,,,0,0,0.601,0,88,88,35,1,REAL,FAKE,,,,,,,,,,,,,,,,,,,,,
,,,,,,,5f4cfe26fc6fe994078bedd3,6057c54e64b0b4e5c128b4f9,6057f2b94cc920cd8e13465b,United States,Northeast,13 or older,no,2021-03-22_09h42.16.090,empathy_intonation_perc,2020.2.10,Win32,60,,,,,,,,,,1,,,,,,,,,,,,,,,,,,,,,,,,,,,,,,,,,,,,,,,,68,alegre,,,0,0,0.557,0,89,89,67,1,REAL,FAKE,,,,,,,,,,,,,,,,,,,,,
,,,,,,,5f4cfe26fc6fe994078bedd3,6057c54e64b0b4e5c128b4f9,6057f2b94cc920cd8e13465b,United States,Northeast,13 or older,no,2021-03-22_09h42.16.090,empathy_intonation_perc,2020.2.10,Win32,60,,,,,,,,,,,,,,,,,,,,,,,,,,,,,,,,,,,,,,,,,,,,,,,,,,,,,,,,,,,,,,,,4,1,1.493,1,0,0,0,0,0,1,,,,,,,,,,,
,,,,,,,5f4cfe26fc6fe994078bedd3,6057c54e64b0b4e5c128b4f9,6057f2b94cc920cd8e13465b,United States,Northeast,13 or older,no,2021-03-22_09h42.16.090,empathy_intonation_perc,2020.2.10,Win32,60,,,,,,,,,,,,,,,,,,,,1,,,,,,,,,,,,,,,,,,,,,,,,,,,,,,,,,,,,,,,,,,,,,,,,,,,,,,1,0,0,0,0,1,I can easily tell if someone else wants to enter a conversation.,1,0,1,0
,,,,,,,5f4cfe26fc6fe994078bedd3,6057c54e64b0b4e5c128b4f9,6057f2b94cc920cd8e13465b,United States,Northeast,13 or older,no,2021-03-22_09h42.16.090,empathy_intonation_perc,2020.2.10,Win32,60,,,,,,,,,,,,,,,,,,,,2,,,,,,,,,,,,,,,,,,,,,,,,,,,,,,,,,,,,,,,,,,,,,,,,,,,,,,3,0,1,1,1,1,I prefer animals to humans.,0,1,0,0
,,,,,,,5f4cfe26fc6fe994078bedd3,6057c54e64b0b4e5c128b4f9,6057f2b94cc920cd8e13465b,United States,Northeast,13 or older,no,2021-03-22_09h42.16.090,empathy_intonation_perc,2020.2.10,Win32,60,,,,,,,,,,,,,,,,,,,,3,,,,,,,,,,,,,,,,,,,,,,,,,,,,,,,,,,,,,,,,,,,,,,,,,,,,,,1,0,2,2,2,1,I try to keep up with the current trends and fashions.,0,1,0,0
,,,,,,,5f4cfe26fc6fe994078bedd3,6057c54e64b0b4e5c128b4f9,6057f2b94cc920cd8e13465b,United States,Northeast,13 or older,no,2021-03-22_09h42.16.090,empathy_intonation_perc,2020.2.10,Win32,60,,,,,,,,,,,,,,,,,,,,4,,,,,,,,,,,,,,,,,,,,,,,,,,,,,,,,,,,,,,,,,,,,,,,,,,,,,,1,0,3,3,3,1,"I find it difficult to explain to others things that I understand easily, 
  when they dont understand it first time.",1,0,0,1
,,,,,,,5f4cfe26fc6fe994078bedd3,6057c54e64b0b4e5c128b4f9,6057f2b94cc920cd8e13465b,United States,Northeast,13 or older,no,2021-03-22_09h42.16.090,empathy_intonation_perc,2020.2.10,Win32,60,,,,,,,,,,,,,,,,,,,,5,,,,,,,,,,,,,,,,,,,,,,,,,,,,,,,,,,,,,,,,,,,,,,,,,,,,,,1,0,4,4,4,1,I dream most nights.,0,1,0,0
