instructions_2afc_loop.thisRepN,instructions_2afc_loop.thisTrialN,instructions_2afc_loop.thisN,instructions_2afc_loop.thisIndex,instructions_2afc_loop.ran,instructions_text,continue_text,participant,study_id,session,I am most familiar with Spanish from...*,What part of the US are you from?*,At what age did you begin learning Spanish?*,Are you proficient in any languages other than English/Spanish?*,date,expName,psychopyVersion,OS,frameRate,key_resp_2afc_practice.keys,key_resp_2afc_practice.corr,key_resp_2afc_practice.rt,trials_2afc_practice_loop.thisRepN,trials_2afc_practice_loop.thisTrialN,trials_2afc_practice_loop.thisN,trials_2afc_practice_loop.thisIndex,trials_2afc_practice_loop.ran,path,correct_response,the_col,key_resp_2afc_trial.keys,key_resp_2afc_trial.corr,key_resp_2afc_trial.rt,trials_2afc_loop.thisRepN,trials_2afc_loop.thisTrialN,trials_2afc_loop.thisN,trials_2afc_loop.thisIndex,trials_2afc_loop.ran,item_num,andalusian,argentine,castilian,chilean,cuban,mexican,peruvian,puertorican,key_resp_ac1.keys,key_resp_ac1.corr,key_resp_ac1.rt,ac1_loop.thisRepN,ac1_loop.thisTrialN,ac1_loop.thisN,ac1_loop.thisIndex,ac1_loop.ran,instructions_lextale_loop.thisRepN,instructions_lextale_loop.thisTrialN,instructions_lextale_loop.thisN,instructions_lextale_loop.thisIndex,instructions_lextale_loop.ran,key_resp_lextale_practice.keys,key_resp_lextale_practice.corr,key_resp_lextale_practice.rt,trials_lextale_practice_loop.thisRepN,trials_lextale_practice_loop.thisTrialN,trials_lextale_practice_loop.thisN,trials_lextale_practice_loop.thisIndex,trials_lextale_practice_loop.ran,stim,word,prac_button_real,prac_button_false,key_resp_lextale_trial.keys,key_resp_lextale_trial.corr,key_resp_lextale_trial.rt,trials_lextale_loop.thisRepN,trials_lextale_loop.thisTrialN,trials_lextale_loop.thisN,trials_lextale_loop.thisIndex,trials_lextale_loop.ran,button_real,button_false,key_resp_ac2.keys,key_resp_ac2.corr,key_resp_ac2.rt,check_pass,check_fails,ac2_loop.thisRepN,ac2_loop.thisTrialN,ac2_loop.thisN,ac2_loop.thisIndex,ac2_loop.ran,slider_eq_trial.response,trials_eq_loop.thisRepN,trials_eq_loop.thisTrialN,trials_eq_loop.thisN,trials_eq_loop.thisIndex,trials_eq_loop.ran,item,is_test_item,is_distractor,is_agree_score,is_disagree_score
0,0,0,0,1,"In the following task you are going to hear a series of utterances. 

  You will decide if the utterances sound like questions or not using your keyboard.",(press the spacebar to continue),5f53927e3a8bb66b0f07d471,6057c54e64b0b4e5c128b4f9,605ad8d3348c4426becd306d,Spain,Northeast,13 or older,no,2021-03-24_02h49.15.982,empathy_intonation_perc,2020.2.10,Windows,60,,,,,,,,,,,,,,,,,,,,,,,,,,,,,,,,,,,,,,,,,,,,,,,,,,,,,,,,,,,,,,,,,,,,,,,,,,,,,,,,,,,,
0,1,1,1,1,"If you believe the utterance is a question, type '1' (for 'yes') and if you do not 
  believe it is a question type '0' (for 'no').

  Let's practice a bit...",(press the spacebar to continue),5f53927e3a8bb66b0f07d471,6057c54e64b0b4e5c128b4f9,605ad8d3348c4426becd306d,Spain,Northeast,13 or older,no,2021-03-24_02h49.15.982,empathy_intonation_perc,2020.2.10,Windows,60,,,,,,,,,,,,,,,,,,,,,,,,,,,,,,,,,,,,,,,,,,,,,,,,,,,,,,,,,,,,,,,,,,,,,,,,,,,,,,,,,,,,
,,,,,,,5f53927e3a8bb66b0f07d471,6057c54e64b0b4e5c128b4f9,605ad8d3348c4426becd306d,Spain,Northeast,13 or older,no,2021-03-24_02h49.15.982,empathy_intonation_perc,2020.2.10,Windows,60,0,1,2.725025,0,0,0,6,1,./stim/wavs/peruvian_statement_filler_El-nino-habla-con-su-madre.wav,0,,,,,,,,,,,,,,,,,,,,,,,,,,,,,,,,,,,,,,,,,,,,,,,,,,,,,,,,,,,,,,,,,,,,,,,,,,
,,,,,,,5f53927e3a8bb66b0f07d471,6057c54e64b0b4e5c128b4f9,605ad8d3348c4426becd306d,Spain,Northeast,13 or older,no,2021-03-24_02h49.15.982,empathy_intonation_perc,2020.2.10,Windows,60,0,1,2.37923,0,1,1,5,1,./stim/wavs/andalusian_statement_filler_Alberto-nunca-se-afeita.wav,0,,,,,,,,,,,,,,,,,,,,,,,,,,,,,,,,,,,,,,,,,,,,,,,,,,,,,,,,,,,,,,,,,,,,,,,,,,
,,,,,,,5f53927e3a8bb66b0f07d471,6057c54e64b0b4e5c128b4f9,605ad8d3348c4426becd306d,Spain,Northeast,13 or older,no,2021-03-24_02h49.15.982,empathy_intonation_perc,2020.2.10,Windows,60,1,1,1.976535,0,2,2,1,1,./stim/wavs/argentine_question_filler_Mi-vecino-habla-mucho.wav,1,,,,,,,,,,,,,,,,,,,,,,,,,,,,,,,,,,,,,,,,,,,,,,,,,,,,,,,,,,,,,,,,,,,,,,,,,,
,,,,,,,5f53927e3a8bb66b0f07d471,6057c54e64b0b4e5c128b4f9,605ad8d3348c4426becd306d,Spain,Northeast,13 or older,no,2021-03-24_02h49.15.982,empathy_intonation_perc,2020.2.10,Windows,60,1,1,2.35123,0,3,3,0,1,./stim/wavs/castilian_question_filler_Mi-esposo-conoce-al-chico.wav,1,,,,,,,,,,,,,,,,,,,,,,,,,,,,,,,,,,,,,,,,,,,,,,,,,,,,,,,,,,,,,,,,,,,,,,,,,,
,,,,,,,5f53927e3a8bb66b0f07d471,6057c54e64b0b4e5c128b4f9,605ad8d3348c4426becd306d,Spain,Northeast,13 or older,no,2021-03-24_02h49.15.982,empathy_intonation_perc,2020.2.10,Windows,60,1,1,1.95092,0,4,4,2,1,./stim/wavs/chilean_question_filler_Mi-padre-cantaba-bien.wav,1,,,,,,,,,,,,,,,,,,,,,,,,,,,,,,,,,,,,,,,,,,,,,,,,,,,,,,,,,,,,,,,,,,,,,,,,,,
,,,,,,,5f53927e3a8bb66b0f07d471,6057c54e64b0b4e5c128b4f9,605ad8d3348c4426becd306d,Spain,Northeast,13 or older,no,2021-03-24_02h49.15.982,empathy_intonation_perc,2020.2.10,Windows,60,1,1,2.181635,0,5,5,3,1,./stim/wavs/mexican_question_filler_Felipe-no-tiene-contrasena.wav,1,,,,,,,,,,,,,,,,,,,,,,,,,,,,,,,,,,,,,,,,,,,,,,,,,,,,,,,,,,,,,,,,,,,,,,,,,,
,,,,,,,5f53927e3a8bb66b0f07d471,6057c54e64b0b4e5c128b4f9,605ad8d3348c4426becd306d,Spain,Northeast,13 or older,no,2021-03-24_02h49.15.982,empathy_intonation_perc,2020.2.10,Windows,60,0,1,2.35391,0,6,6,7,1,./stim/wavs/puertorican_statement_filler_La-nina-pinta-con-su-amiga.wav,0,,,,,,,,,,,,,,,,,,,,,,,,,,,,,,,,,,,,,,,,,,,,,,,,,,,,,,,,,,,,,,,,,,,,,,,,,,
,,,,,,,5f53927e3a8bb66b0f07d471,6057c54e64b0b4e5c128b4f9,605ad8d3348c4426becd306d,Spain,Northeast,13 or older,no,2021-03-24_02h49.15.982,empathy_intonation_perc,2020.2.10,Windows,60,0,1,2.150415,0,7,7,4,1,./stim/wavs/cuban_statement_filler_Cocinabas-por-la-noche.wav,0,,,,,,,,,,,,,,,,,,,,,,,,,,,,,,,,,,,,,,,,,,,,,,,,,,,,,,,,,,,,,,,,,,,,,,,,,,
,,,,,,,5f53927e3a8bb66b0f07d471,6057c54e64b0b4e5c128b4f9,605ad8d3348c4426becd306d,Spain,Northeast,13 or older,no,2021-03-24_02h49.15.982,empathy_intonation_perc,2020.2.10,Windows,60,,,,,,,,,,1,andalusian,1,1,2.2753,0,0,0,61,1,62,./stim/wavs/andalusian_mismatch_interrogative-total-yn_Mi-madre-come-la-fruta.wav,./stim/wavs/argentine_mismatch_interrogative-total-yn_Mi-madre-come-la-fruta.wav,./stim/wavs/castilian_mismatch_interrogative-total-yn_Mi-madre-come-la-fruta.wav,./stim/wavs/chilean_mismatch_interrogative-total-yn_Mi-madre-come-la-fruta.wav,./stim/wavs/cuban_mismatch_interrogative-total-yn_Mi-madre-come-la-fruta.wav,./stim/wavs/mexican_mismatch_interrogative-total-yn_Mi-madre-come-la-fruta.wav,./stim/wavs/peruvian_mismatch_interrogative-total-yn_Mi-madre-come-la-fruta.wav,./stim/wavs/puertorican_mismatch_interrogative-total-yn_Mi-madre-come-la-fruta.wav,,,,,,,,,,,,,,,,,,,,,,,,,,,,,,,,,,,,,,,,,,,,,,,,,,,,,,,,
,,,,,,,5f53927e3a8bb66b0f07d471,6057c54e64b0b4e5c128b4f9,605ad8d3348c4426becd306d,Spain,Northeast,13 or older,no,2021-03-24_02h49.15.982,empathy_intonation_perc,2020.2.10,Windows,60,,,,,,,,,,0,castilian,0,1,2.764165,0,1,1,6,1,7,./stim/wavs/andalusian_match_declarative-broad-focus_Mariano-habla-del-tiempo.wav,./stim/wavs/argentine_match_declarative-broad-focus_Mariano-habla-del-tiempo.wav,./stim/wavs/castilian_match_declarative-broad-focus_Mariano-habla-del-tiempo.wav,./stim/wavs/chilean_match_declarative-broad-focus_Mariano-habla-del-tiempo.wav,./stim/wavs/cuban_match_declarative-broad-focus_Mariano-habla-del-tiempo.wav,./stim/wavs/mexican_match_declarative-broad-focus_Mariano-habla-del-tiempo.wav,./stim/wavs/peruvian_match_declarative-broad-focus_Mariano-habla-del-tiempo.wav,./stim/wavs/puertorican_match_declarative-broad-focus_Mariano-habla-del-tiempo.wav,,,,,,,,,,,,,,,,,,,,,,,,,,,,,,,,,,,,,,,,,,,,,,,,,,,,,,,,
,,,,,,,5f53927e3a8bb66b0f07d471,6057c54e64b0b4e5c128b4f9,605ad8d3348c4426becd306d,Spain,Northeast,13 or older,no,2021-03-24_02h49.15.982,empathy_intonation_perc,2020.2.10,Windows,60,,,,,,,,,,1,castilian,1,1,1.794365,0,2,2,27,1,28,./stim/wavs/andalusian_match_interrogative-total-yn_Emilio-ama-la-marcha.wav,./stim/wavs/argentine_match_interrogative-total-yn_Emilio-ama-la-marcha.wav,./stim/wavs/castilian_match_interrogative-total-yn_Emilio-ama-la-marcha.wav,./stim/wavs/chilean_match_interrogative-total-yn_Emilio-ama-la-marcha.wav,./stim/wavs/cuban_match_interrogative-total-yn_Emilio-ama-la-marcha.wav,./stim/wavs/mexican_match_interrogative-total-yn_Emilio-ama-la-marcha.wav,./stim/wavs/peruvian_match_interrogative-total-yn_Emilio-ama-la-marcha.wav,./stim/wavs/puertorican_match_interrogative-total-yn_Emilio-ama-la-marcha.wav,,,,,,,,,,,,,,,,,,,,,,,,,,,,,,,,,,,,,,,,,,,,,,,,,,,,,,,,
,,,,,,,5f53927e3a8bb66b0f07d471,6057c54e64b0b4e5c128b4f9,605ad8d3348c4426becd306d,Spain,Northeast,13 or older,no,2021-03-24_02h49.15.982,empathy_intonation_perc,2020.2.10,Windows,60,,,,,,,,,,1,castilian,1,1,2.051455,0,3,3,24,1,25,./stim/wavs/andalusian_match_interrogative-total-yn_Ana-lleva-el-abrigo.wav,./stim/wavs/argentine_match_interrogative-total-yn_Ana-lleva-el-abrigo.wav,./stim/wavs/castilian_match_interrogative-total-yn_Ana-lleva-el-abrigo.wav,./stim/wavs/chilean_match_interrogative-total-yn_Ana-lleva-el-abrigo.wav,./stim/wavs/cuban_match_interrogative-total-yn_Ana-lleva-el-abrigo.wav,./stim/wavs/mexican_match_interrogative-total-yn_Ana-lleva-el-abrigo.wav,./stim/wavs/peruvian_match_interrogative-total-yn_Ana-lleva-el-abrigo.wav,./stim/wavs/puertorican_match_interrogative-total-yn_Ana-lleva-el-abrigo.wav,,,,,,,,,,,,,,,,,,,,,,,,,,,,,,,,,,,,,,,,,,,,,,,,,,,,,,,,
,,,,,,,5f53927e3a8bb66b0f07d471,6057c54e64b0b4e5c128b4f9,605ad8d3348c4426becd306d,Spain,Northeast,13 or older,no,2021-03-24_02h49.15.982,empathy_intonation_perc,2020.2.10,Windows,60,,,,,,,,,,0,puertorican,0,1,1.995615,0,4,4,15,1,16,./stim/wavs/andalusian_match_declarative-narrow-focus_Marta-abre-el-regalo.wav,./stim/wavs/argentine_match_declarative-narrow-focus_Marta-abre-el-regalo.wav,./stim/wavs/castilian_match_declarative-narrow-focus_Marta-abre-el-regalo.wav,./stim/wavs/chilean_match_declarative-narrow-focus_Marta-abre-el-regalo.wav,./stim/wavs/cuban_match_declarative-narrow-focus_Marta-abre-el-regalo.wav,./stim/wavs/mexican_match_declarative-narrow-focus_Marta-abre-el-regalo.wav,./stim/wavs/peruvian_match_declarative-narrow-focus_Marta-abre-el-regalo.wav,./stim/wavs/puertorican_match_declarative-narrow-focus_Marta-abre-el-regalo.wav,,,,,,,,,,,,,,,,,,,,,,,,,,,,,,,,,,,,,,,,,,,,,,,,,,,,,,,,
,,,,,,,5f53927e3a8bb66b0f07d471,6057c54e64b0b4e5c128b4f9,605ad8d3348c4426becd306d,Spain,Northeast,13 or older,no,2021-03-24_02h49.15.982,empathy_intonation_perc,2020.2.10,Windows,60,,,,,,,,,,1,cuban,0,0,2.15159,0,5,5,28,1,29,./stim/wavs/andalusian_match_interrogative-total-yn_Manuela-vende-el-carro.wav,./stim/wavs/argentine_match_interrogative-total-yn_Manuela-vende-el-carro.wav,./stim/wavs/castilian_match_interrogative-total-yn_Manuela-vende-el-carro.wav,./stim/wavs/chilean_match_interrogative-total-yn_Manuela-vende-el-carro.wav,./stim/wavs/cuban_match_interrogative-total-yn_Manuela-vende-el-carro.wav,./stim/wavs/mexican_match_interrogative-total-yn_Manuela-vende-el-carro.wav,./stim/wavs/peruvian_match_interrogative-total-yn_Manuela-vende-el-carro.wav,./stim/wavs/puertorican_match_interrogative-total-yn_Manuela-vende-el-carro.wav,,,,,,,,,,,,,,,,,,,,,,,,,,,,,,,,,,,,,,,,,,,,,,,,,,,,,,,,
,,,,,,,5f53927e3a8bb66b0f07d471,6057c54e64b0b4e5c128b4f9,605ad8d3348c4426becd306d,Spain,Northeast,13 or older,no,2021-03-24_02h49.15.982,empathy_intonation_perc,2020.2.10,Windows,60,,,,,,,,,,0,castilian,0,1,2.184755,0,6,6,33,1,34,./stim/wavs/andalusian_mismatch_declarative-broad-focus_El-hombre-mira-la-luna.wav,./stim/wavs/argentine_mismatch_declarative-broad-focus_El-hombre-mira-la-luna.wav,./stim/wavs/castilian_mismatch_declarative-broad-focus_El-hombre-mira-la-luna.wav,./stim/wavs/chilean_mismatch_declarative-broad-focus_El-hombre-mira-la-luna.wav,./stim/wavs/cuban_mismatch_declarative-broad-focus_El-hombre-mira-la-luna.wav,./stim/wavs/mexican_mismatch_declarative-broad-focus_El-hombre-mira-la-luna.wav,./stim/wavs/peruvian_mismatch_declarative-broad-focus_El-hombre-mira-la-luna.wav,./stim/wavs/puertorican_mismatch_declarative-broad-focus_El-hombre-mira-la-luna.wav,,,,,,,,,,,,,,,,,,,,,,,,,,,,,,,,,,,,,,,,,,,,,,,,,,,,,,,,
,,,,,,,5f53927e3a8bb66b0f07d471,6057c54e64b0b4e5c128b4f9,605ad8d3348c4426becd306d,Spain,Northeast,13 or older,no,2021-03-24_02h49.15.982,empathy_intonation_perc,2020.2.10,Windows,60,,,,,,,,,,0,castilian,0,1,2.027905,0,7,7,8,1,9,./stim/wavs/andalusian_match_declarative-narrow-focus_Ana-lleva-el-abrigo.wav,./stim/wavs/argentine_match_declarative-narrow-focus_Ana-lleva-el-abrigo.wav,./stim/wavs/castilian_match_declarative-narrow-focus_Ana-lleva-el-abrigo.wav,./stim/wavs/chilean_match_declarative-narrow-focus_Ana-lleva-el-abrigo.wav,./stim/wavs/cuban_match_declarative-narrow-focus_Ana-lleva-el-abrigo.wav,./stim/wavs/mexican_match_declarative-narrow-focus_Ana-lleva-el-abrigo.wav,./stim/wavs/peruvian_match_declarative-narrow-focus_Ana-lleva-el-abrigo.wav,./stim/wavs/puertorican_match_declarative-narrow-focus_Ana-lleva-el-abrigo.wav,,,,,,,,,,,,,,,,,,,,,,,,,,,,,,,,,,,,,,,,,,,,,,,,,,,,,,,,
,,,,,,,5f53927e3a8bb66b0f07d471,6057c54e64b0b4e5c128b4f9,605ad8d3348c4426becd306d,Spain,Northeast,13 or older,no,2021-03-24_02h49.15.982,empathy_intonation_perc,2020.2.10,Windows,60,,,,,,,,,,0,puertorican,0,1,1.928625,0,8,8,12,1,13,./stim/wavs/andalusian_match_declarative-narrow-focus_Manuela-vende-el-carro.wav,./stim/wavs/argentine_match_declarative-narrow-focus_Manuela-vende-el-carro.wav,./stim/wavs/castilian_match_declarative-narrow-focus_Manuela-vende-el-carro.wav,./stim/wavs/chilean_match_declarative-narrow-focus_Manuela-vende-el-carro.wav,./stim/wavs/cuban_match_declarative-narrow-focus_Manuela-vende-el-carro.wav,./stim/wavs/mexican_match_declarative-narrow-focus_Manuela-vende-el-carro.wav,./stim/wavs/peruvian_match_declarative-narrow-focus_Manuela-vende-el-carro.wav,./stim/wavs/puertorican_match_declarative-narrow-focus_Manuela-vende-el-carro.wav,,,,,,,,,,,,,,,,,,,,,,,,,,,,,,,,,,,,,,,,,,,,,,,,,,,,,,,,
,,,,,,,5f53927e3a8bb66b0f07d471,6057c54e64b0b4e5c128b4f9,605ad8d3348c4426becd306d,Spain,Northeast,13 or older,no,2021-03-24_02h49.15.982,empathy_intonation_perc,2020.2.10,Windows,60,,,,,,,,,,1,andalusian,1,1,2.008945,0,9,9,55,1,56,./stim/wavs/andalusian_mismatch_interrogative-partial-wh_Por-que-vivia-en-Paris.wav,./stim/wavs/argentine_mismatch_interrogative-partial-wh_Por-que-vivia-en-Paris.wav,./stim/wavs/castilian_mismatch_interrogative-partial-wh_Por-que-vivia-en-Paris.wav,./stim/wavs/chilean_mismatch_interrogative-partial-wh_Por-que-vivia-en-Paris.wav,./stim/wavs/cuban_mismatch_interrogative-partial-wh_Por-que-vivia-en-Paris.wav,./stim/wavs/mexican_mismatch_interrogative-partial-wh_Por-que-vivia-en-Paris.wav,./stim/wavs/peruvian_mismatch_interrogative-partial-wh_Por-que-vivia-en-Paris.wav,./stim/wavs/puertorican_mismatch_interrogative-partial-wh_Por-que-vivia-en-Paris.wav,,,,,,,,,,,,,,,,,,,,,,,,,,,,,,,,,,,,,,,,,,,,,,,,,,,,,,,,
,,,,,,,5f53927e3a8bb66b0f07d471,6057c54e64b0b4e5c128b4f9,605ad8d3348c4426becd306d,Spain,Northeast,13 or older,no,2021-03-24_02h49.15.982,empathy_intonation_perc,2020.2.10,Windows,60,,,,,,,,,,1,peruvian,1,1,2.450015,0,10,10,62,1,63,./stim/wavs/andalusian_mismatch_interrogative-total-yn_Mi-novio-viene-del-lago.wav,./stim/wavs/argentine_mismatch_interrogative-total-yn_Mi-novio-viene-del-lago.wav,./stim/wavs/castilian_mismatch_interrogative-total-yn_Mi-novio-viene-del-lago.wav,./stim/wavs/chilean_mismatch_interrogative-total-yn_Mi-novio-viene-del-lago.wav,./stim/wavs/cuban_mismatch_interrogative-total-yn_Mi-novio-viene-del-lago.wav,./stim/wavs/mexican_mismatch_interrogative-total-yn_Mi-novio-viene-del-lago.wav,./stim/wavs/peruvian_mismatch_interrogative-total-yn_Mi-novio-viene-del-lago.wav,./stim/wavs/puertorican_mismatch_interrogative-total-yn_Mi-novio-viene-del-lago.wav,,,,,,,,,,,,,,,,,,,,,,,,,,,,,,,,,,,,,,,,,,,,,,,,,,,,,,,,
,,,,,,,5f53927e3a8bb66b0f07d471,6057c54e64b0b4e5c128b4f9,605ad8d3348c4426becd306d,Spain,Northeast,13 or older,no,2021-03-24_02h49.15.982,empathy_intonation_perc,2020.2.10,Windows,60,,,,,,,,,,0,chilean,0,1,2.25612,0,11,11,7,1,8,./stim/wavs/andalusian_match_declarative-broad-focus_Marta-abre-el-regalo.wav,./stim/wavs/argentine_match_declarative-broad-focus_Marta-abre-el-regalo.wav,./stim/wavs/castilian_match_declarative-broad-focus_Marta-abre-el-regalo.wav,./stim/wavs/chilean_match_declarative-broad-focus_Marta-abre-el-regalo.wav,./stim/wavs/cuban_match_declarative-broad-focus_Marta-abre-el-regalo.wav,./stim/wavs/mexican_match_declarative-broad-focus_Marta-abre-el-regalo.wav,./stim/wavs/peruvian_match_declarative-broad-focus_Marta-abre-el-regalo.wav,./stim/wavs/puertorican_match_declarative-broad-focus_Marta-abre-el-regalo.wav,,,,,,,,,,,,,,,,,,,,,,,,,,,,,,,,,,,,,,,,,,,,,,,,,,,,,,,,
,,,,,,,5f53927e3a8bb66b0f07d471,6057c54e64b0b4e5c128b4f9,605ad8d3348c4426becd306d,Spain,Northeast,13 or older,no,2021-03-24_02h49.15.982,empathy_intonation_perc,2020.2.10,Windows,60,,,,,,,,,,0,argentine,0,1,2.669285,0,12,12,45,1,46,./stim/wavs/andalusian_mismatch_declarative-narrow-focus_Mi-madre-come-la-fruta.wav,./stim/wavs/argentine_mismatch_declarative-narrow-focus_Mi-madre-come-la-fruta.wav,./stim/wavs/castilian_mismatch_declarative-narrow-focus_Mi-madre-come-la-fruta.wav,./stim/wavs/chilean_mismatch_declarative-narrow-focus_Mi-madre-come-la-fruta.wav,./stim/wavs/cuban_mismatch_declarative-narrow-focus_Mi-madre-come-la-fruta.wav,./stim/wavs/mexican_mismatch_declarative-narrow-focus_Mi-madre-come-la-fruta.wav,./stim/wavs/peruvian_mismatch_declarative-narrow-focus_Mi-madre-come-la-fruta.wav,./stim/wavs/puertorican_mismatch_declarative-narrow-focus_Mi-madre-come-la-fruta.wav,,,,,,,,,,,,,,,,,,,,,,,,,,,,,,,,,,,,,,,,,,,,,,,,,,,,,,,,
,,,,,,,5f53927e3a8bb66b0f07d471,6057c54e64b0b4e5c128b4f9,605ad8d3348c4426becd306d,Spain,Northeast,13 or older,no,2021-03-24_02h49.15.982,empathy_intonation_perc,2020.2.10,Windows,60,,,,,,,,,,0,peruvian,0,1,2.19354,0,13,13,3,1,4,./stim/wavs/andalusian_match_declarative-broad-focus_Emilio-ama-la-marcha.wav,./stim/wavs/argentine_match_declarative-broad-focus_Emilio-ama-la-marcha.wav,./stim/wavs/castilian_match_declarative-broad-focus_Emilio-ama-la-marcha.wav,./stim/wavs/chilean_match_declarative-broad-focus_Emilio-ama-la-marcha.wav,./stim/wavs/cuban_match_declarative-broad-focus_Emilio-ama-la-marcha.wav,./stim/wavs/mexican_match_declarative-broad-focus_Emilio-ama-la-marcha.wav,./stim/wavs/peruvian_match_declarative-broad-focus_Emilio-ama-la-marcha.wav,./stim/wavs/puertorican_match_declarative-broad-focus_Emilio-ama-la-marcha.wav,,,,,,,,,,,,,,,,,,,,,,,,,,,,,,,,,,,,,,,,,,,,,,,,,,,,,,,,
,,,,,,,5f53927e3a8bb66b0f07d471,6057c54e64b0b4e5c128b4f9,605ad8d3348c4426becd306d,Spain,Northeast,13 or older,no,2021-03-24_02h49.15.982,empathy_intonation_perc,2020.2.10,Windows,60,,,,,,,,,,0,andalusian,1,0,2.283715,0,14,14,32,1,33,./stim/wavs/andalusian_mismatch_declarative-broad-focus_El-bebe-comia-muy-bien.wav,./stim/wavs/argentine_mismatch_declarative-broad-focus_El-bebe-comia-muy-bien.wav,./stim/wavs/castilian_mismatch_declarative-broad-focus_El-bebe-comia-muy-bien.wav,./stim/wavs/chilean_mismatch_declarative-broad-focus_El-bebe-comia-muy-bien.wav,./stim/wavs/cuban_mismatch_declarative-broad-focus_El-bebe-comia-muy-bien.wav,./stim/wavs/mexican_mismatch_declarative-broad-focus_El-bebe-comia-muy-bien.wav,./stim/wavs/peruvian_mismatch_declarative-broad-focus_El-bebe-comia-muy-bien.wav,./stim/wavs/puertorican_mismatch_declarative-broad-focus_El-bebe-comia-muy-bien.wav,,,,,,,,,,,,,,,,,,,,,,,,,,,,,,,,,,,,,,,,,,,,,,,,,,,,,,,,
,,,,,,,5f53927e3a8bb66b0f07d471,6057c54e64b0b4e5c128b4f9,605ad8d3348c4426becd306d,Spain,Northeast,13 or older,no,2021-03-24_02h49.15.982,empathy_intonation_perc,2020.2.10,Windows,60,,,,,,,,,,1,castilian,1,1,2.55601,0,15,15,58,1,59,./stim/wavs/andalusian_mismatch_interrogative-total-yn_El-nino-oye-el-rio.wav,./stim/wavs/argentine_mismatch_interrogative-total-yn_El-nino-oye-el-rio.wav,./stim/wavs/castilian_mismatch_interrogative-total-yn_El-nino-oye-el-rio.wav,./stim/wavs/chilean_mismatch_interrogative-total-yn_El-nino-oye-el-rio.wav,./stim/wavs/cuban_mismatch_interrogative-total-yn_El-nino-oye-el-rio.wav,./stim/wavs/mexican_mismatch_interrogative-total-yn_El-nino-oye-el-rio.wav,./stim/wavs/peruvian_mismatch_interrogative-total-yn_El-nino-oye-el-rio.wav,./stim/wavs/puertorican_mismatch_interrogative-total-yn_El-nino-oye-el-rio.wav,,,,,,,,,,,,,,,,,,,,,,,,,,,,,,,,,,,,,,,,,,,,,,,,,,,,,,,,
,,,,,,,5f53927e3a8bb66b0f07d471,6057c54e64b0b4e5c128b4f9,605ad8d3348c4426becd306d,Spain,Northeast,13 or older,no,2021-03-24_02h49.15.982,empathy_intonation_perc,2020.2.10,Windows,60,,,,,,,,,,0,argentine,0,1,2.369855,0,16,16,14,1,15,./stim/wavs/andalusian_match_declarative-narrow-focus_Mariano-habla-del-tiempo.wav,./stim/wavs/argentine_match_declarative-narrow-focus_Mariano-habla-del-tiempo.wav,./stim/wavs/castilian_match_declarative-narrow-focus_Mariano-habla-del-tiempo.wav,./stim/wavs/chilean_match_declarative-narrow-focus_Mariano-habla-del-tiempo.wav,./stim/wavs/cuban_match_declarative-narrow-focus_Mariano-habla-del-tiempo.wav,./stim/wavs/mexican_match_declarative-narrow-focus_Mariano-habla-del-tiempo.wav,./stim/wavs/peruvian_match_declarative-narrow-focus_Mariano-habla-del-tiempo.wav,./stim/wavs/puertorican_match_declarative-narrow-focus_Mariano-habla-del-tiempo.wav,,,,,,,,,,,,,,,,,,,,,,,,,,,,,,,,,,,,,,,,,,,,,,,,,,,,,,,,
,,,,,,,5f53927e3a8bb66b0f07d471,6057c54e64b0b4e5c128b4f9,605ad8d3348c4426becd306d,Spain,Northeast,13 or older,no,2021-03-24_02h49.15.982,empathy_intonation_perc,2020.2.10,Windows,60,,,,,,,,,,0,puertorican,0,1,2.108935,0,17,17,44,1,45,./stim/wavs/andalusian_mismatch_declarative-narrow-focus_La-nina-lava-el-plato.wav,./stim/wavs/argentine_mismatch_declarative-narrow-focus_La-nina-lava-el-plato.wav,./stim/wavs/castilian_mismatch_declarative-narrow-focus_La-nina-lava-el-plato.wav,./stim/wavs/chilean_mismatch_declarative-narrow-focus_La-nina-lava-el-plato.wav,./stim/wavs/cuban_mismatch_declarative-narrow-focus_La-nina-lava-el-plato.wav,./stim/wavs/mexican_mismatch_declarative-narrow-focus_La-nina-lava-el-plato.wav,./stim/wavs/peruvian_mismatch_declarative-narrow-focus_La-nina-lava-el-plato.wav,./stim/wavs/puertorican_mismatch_declarative-narrow-focus_La-nina-lava-el-plato.wav,,,,,,,,,,,,,,,,,,,,,,,,,,,,,,,,,,,,,,,,,,,,,,,,,,,,,,,,
,,,,,,,5f53927e3a8bb66b0f07d471,6057c54e64b0b4e5c128b4f9,605ad8d3348c4426becd306d,Spain,Northeast,13 or older,no,2021-03-24_02h49.15.982,empathy_intonation_perc,2020.2.10,Windows,60,,,,,,,,,,0,puertorican,0,1,2.85755,0,18,18,35,1,36,./stim/wavs/andalusian_mismatch_declarative-broad-focus_La-maestra-vive-en-Paris.wav,./stim/wavs/argentine_mismatch_declarative-broad-focus_La-maestra-vive-en-Paris.wav,./stim/wavs/castilian_mismatch_declarative-broad-focus_La-maestra-vive-en-Paris.wav,./stim/wavs/chilean_mismatch_declarative-broad-focus_La-maestra-vive-en-Paris.wav,./stim/wavs/cuban_mismatch_declarative-broad-focus_La-maestra-vive-en-Paris.wav,./stim/wavs/mexican_mismatch_declarative-broad-focus_La-maestra-vive-en-Paris.wav,./stim/wavs/peruvian_mismatch_declarative-broad-focus_La-maestra-vive-en-Paris.wav,./stim/wavs/puertorican_mismatch_declarative-broad-focus_La-maestra-vive-en-Paris.wav,,,,,,,,,,,,,,,,,,,,,,,,,,,,,,,,,,,,,,,,,,,,,,,,,,,,,,,,
,,,,,,,5f53927e3a8bb66b0f07d471,6057c54e64b0b4e5c128b4f9,605ad8d3348c4426becd306d,Spain,Northeast,13 or older,no,2021-03-24_02h49.15.982,empathy_intonation_perc,2020.2.10,Windows,60,,,,,,,,,,0,chilean,1,0,2.85244,0,19,19,47,1,48,./stim/wavs/andalusian_mismatch_declarative-narrow-focus_Mi-tia-odia-la-lluvia.wav,./stim/wavs/argentine_mismatch_declarative-narrow-focus_Mi-tia-odia-la-lluvia.wav,./stim/wavs/castilian_mismatch_declarative-narrow-focus_Mi-tia-odia-la-lluvia.wav,./stim/wavs/chilean_mismatch_declarative-narrow-focus_Mi-tia-odia-la-lluvia.wav,./stim/wavs/cuban_mismatch_declarative-narrow-focus_Mi-tia-odia-la-lluvia.wav,./stim/wavs/mexican_mismatch_declarative-narrow-focus_Mi-tia-odia-la-lluvia.wav,./stim/wavs/peruvian_mismatch_declarative-narrow-focus_Mi-tia-odia-la-lluvia.wav,./stim/wavs/puertorican_mismatch_declarative-narrow-focus_Mi-tia-odia-la-lluvia.wav,,,,,,,,,,,,,,,,,,,,,,,,,,,,,,,,,,,,,,,,,,,,,,,,,,,,,,,,
,,,,,,,5f53927e3a8bb66b0f07d471,6057c54e64b0b4e5c128b4f9,605ad8d3348c4426becd306d,Spain,Northeast,13 or older,no,2021-03-24_02h49.15.982,empathy_intonation_perc,2020.2.10,Windows,60,,,,,,,,,,1,peruvian,1,1,0.340285,0,20,20,57,1,58,./stim/wavs/andalusian_mismatch_interrogative-total-yn_El-hombre-mira-la-luna.wav,./stim/wavs/argentine_mismatch_interrogative-total-yn_El-hombre-mira-la-luna.wav,./stim/wavs/castilian_mismatch_interrogative-total-yn_El-hombre-mira-la-luna.wav,./stim/wavs/chilean_mismatch_interrogative-total-yn_El-hombre-mira-la-luna.wav,./stim/wavs/cuban_mismatch_interrogative-total-yn_El-hombre-mira-la-luna.wav,./stim/wavs/mexican_mismatch_interrogative-total-yn_El-hombre-mira-la-luna.wav,./stim/wavs/peruvian_mismatch_interrogative-total-yn_El-hombre-mira-la-luna.wav,./stim/wavs/puertorican_mismatch_interrogative-total-yn_El-hombre-mira-la-luna.wav,,,,,,,,,,,,,,,,,,,,,,,,,,,,,,,,,,,,,,,,,,,,,,,,,,,,,,,,
,,,,,,,5f53927e3a8bb66b0f07d471,6057c54e64b0b4e5c128b4f9,605ad8d3348c4426becd306d,Spain,Northeast,13 or older,no,2021-03-24_02h49.15.982,empathy_intonation_perc,2020.2.10,Windows,60,,,,,,,,,,1,peruvian,0,0,2.836295,0,21,21,51,1,52,./stim/wavs/andalusian_mismatch_interrogative-partial-wh_Por-que-desayuna-muy-bien.wav,./stim/wavs/argentine_mismatch_interrogative-partial-wh_Por-que-desayuna-muy-bien.wav,./stim/wavs/castilian_mismatch_interrogative-partial-wh_Por-que-desayuna-muy-bien.wav,./stim/wavs/chilean_mismatch_interrogative-partial-wh_Por-que-desayuna-muy-bien.wav,./stim/wavs/cuban_mismatch_interrogative-partial-wh_Por-que-desayuna-muy-bien.wav,./stim/wavs/mexican_mismatch_interrogative-partial-wh_Por-que-desayuna-muy-bien.wav,./stim/wavs/peruvian_mismatch_interrogative-partial-wh_Por-que-desayuna-muy-bien.wav,./stim/wavs/puertorican_mismatch_interrogative-partial-wh_Por-que-desayuna-muy-bien.wav,,,,,,,,,,,,,,,,,,,,,,,,,,,,,,,,,,,,,,,,,,,,,,,,,,,,,,,,
,,,,,,,5f53927e3a8bb66b0f07d471,6057c54e64b0b4e5c128b4f9,605ad8d3348c4426becd306d,Spain,Northeast,13 or older,no,2021-03-24_02h49.15.982,empathy_intonation_perc,2020.2.10,Windows,60,,,,,,,,,,1,andalusian,0,0,2.526225,0,22,22,53,1,54,./stim/wavs/andalusian_mismatch_interrogative-partial-wh_Por-que-oia-el-rio.wav,./stim/wavs/argentine_mismatch_interrogative-partial-wh_Por-que-oia-el-rio.wav,./stim/wavs/castilian_mismatch_interrogative-partial-wh_Por-que-oia-el-rio.wav,./stim/wavs/chilean_mismatch_interrogative-partial-wh_Por-que-oia-el-rio.wav,./stim/wavs/cuban_mismatch_interrogative-partial-wh_Por-que-oia-el-rio.wav,./stim/wavs/mexican_mismatch_interrogative-partial-wh_Por-que-oia-el-rio.wav,./stim/wavs/peruvian_mismatch_interrogative-partial-wh_Por-que-oia-el-rio.wav,./stim/wavs/puertorican_mismatch_interrogative-partial-wh_Por-que-oia-el-rio.wav,,,,,,,,,,,,,,,,,,,,,,,,,,,,,,,,,,,,,,,,,,,,,,,,,,,,,,,,
,,,,,,,5f53927e3a8bb66b0f07d471,6057c54e64b0b4e5c128b4f9,605ad8d3348c4426becd306d,Spain,Northeast,13 or older,no,2021-03-24_02h49.15.982,empathy_intonation_perc,2020.2.10,Windows,60,,,,,,,,,,1,chilean,1,1,2.256595,0,23,23,19,1,20,./stim/wavs/andalusian_match_interrogative-partial-wh_Cuando-vendia-el-carro.wav,./stim/wavs/argentine_match_interrogative-partial-wh_Cuando-vendia-el-carro.wav,./stim/wavs/castilian_match_interrogative-partial-wh_Cuando-vendia-el-carro.wav,./stim/wavs/chilean_match_interrogative-partial-wh_Cuando-vendia-el-carro.wav,./stim/wavs/cuban_match_interrogative-partial-wh_Cuando-vendia-el-carro.wav,./stim/wavs/mexican_match_interrogative-partial-wh_Cuando-vendia-el-carro.wav,./stim/wavs/peruvian_match_interrogative-partial-wh_Cuando-vendia-el-carro.wav,./stim/wavs/puertorican_match_interrogative-partial-wh_Cuando-vendia-el-carro.wav,,,,,,,,,,,,,,,,,,,,,,,,,,,,,,,,,,,,,,,,,,,,,,,,,,,,,,,,
,,,,,,,5f53927e3a8bb66b0f07d471,6057c54e64b0b4e5c128b4f9,605ad8d3348c4426becd306d,Spain,Northeast,13 or older,no,2021-03-24_02h49.15.982,empathy_intonation_perc,2020.2.10,Windows,60,,,,,,,,,,1,andalusian,0,0,2.87957,0,24,24,54,1,55,./stim/wavs/andalusian_mismatch_interrogative-partial-wh_Por-que-venia-del-lago.wav,./stim/wavs/argentine_mismatch_interrogative-partial-wh_Por-que-venia-del-lago.wav,./stim/wavs/castilian_mismatch_interrogative-partial-wh_Por-que-venia-del-lago.wav,./stim/wavs/chilean_mismatch_interrogative-partial-wh_Por-que-venia-del-lago.wav,./stim/wavs/cuban_mismatch_interrogative-partial-wh_Por-que-venia-del-lago.wav,./stim/wavs/mexican_mismatch_interrogative-partial-wh_Por-que-venia-del-lago.wav,./stim/wavs/peruvian_mismatch_interrogative-partial-wh_Por-que-venia-del-lago.wav,./stim/wavs/puertorican_mismatch_interrogative-partial-wh_Por-que-venia-del-lago.wav,,,,,,,,,,,,,,,,,,,,,,,,,,,,,,,,,,,,,,,,,,,,,,,,,,,,,,,,
,,,,,,,5f53927e3a8bb66b0f07d471,6057c54e64b0b4e5c128b4f9,605ad8d3348c4426becd306d,Spain,Northeast,13 or older,no,2021-03-24_02h49.15.982,empathy_intonation_perc,2020.2.10,Windows,60,,,,,,,,,,1,chilean,1,1,2.15142,0,25,25,60,1,61,./stim/wavs/andalusian_mismatch_interrogative-total-yn_La-nina-lava-el-plato.wav,./stim/wavs/argentine_mismatch_interrogative-total-yn_La-nina-lava-el-plato.wav,./stim/wavs/castilian_mismatch_interrogative-total-yn_La-nina-lava-el-plato.wav,./stim/wavs/chilean_mismatch_interrogative-total-yn_La-nina-lava-el-plato.wav,./stim/wavs/cuban_mismatch_interrogative-total-yn_La-nina-lava-el-plato.wav,./stim/wavs/mexican_mismatch_interrogative-total-yn_La-nina-lava-el-plato.wav,./stim/wavs/peruvian_mismatch_interrogative-total-yn_La-nina-lava-el-plato.wav,./stim/wavs/puertorican_mismatch_interrogative-total-yn_La-nina-lava-el-plato.wav,,,,,,,,,,,,,,,,,,,,,,,,,,,,,,,,,,,,,,,,,,,,,,,,,,,,,,,,
,,,,,,,5f53927e3a8bb66b0f07d471,6057c54e64b0b4e5c128b4f9,605ad8d3348c4426becd306d,Spain,Northeast,13 or older,no,2021-03-24_02h49.15.982,empathy_intonation_perc,2020.2.10,Windows,60,,,,,,,,,,0,cuban,0,1,2.218345,0,26,26,10,1,11,./stim/wavs/andalusian_match_declarative-narrow-focus_David-leia-el-libro.wav,./stim/wavs/argentine_match_declarative-narrow-focus_David-leia-el-libro.wav,./stim/wavs/castilian_match_declarative-narrow-focus_David-leia-el-libro.wav,./stim/wavs/chilean_match_declarative-narrow-focus_David-leia-el-libro.wav,./stim/wavs/cuban_match_declarative-narrow-focus_David-leia-el-libro.wav,./stim/wavs/mexican_match_declarative-narrow-focus_David-leia-el-libro.wav,./stim/wavs/peruvian_match_declarative-narrow-focus_David-leia-el-libro.wav,./stim/wavs/puertorican_match_declarative-narrow-focus_David-leia-el-libro.wav,,,,,,,,,,,,,,,,,,,,,,,,,,,,,,,,,,,,,,,,,,,,,,,,,,,,,,,,
,,,,,,,5f53927e3a8bb66b0f07d471,6057c54e64b0b4e5c128b4f9,605ad8d3348c4426becd306d,Spain,Northeast,13 or older,no,2021-03-24_02h49.15.982,empathy_intonation_perc,2020.2.10,Windows,60,,,,,,,,,,1,argentine,0,0,2.203565,0,27,27,50,1,51,./stim/wavs/andalusian_mismatch_interrogative-partial-wh_Cuando-miraba-la-luna.wav,./stim/wavs/argentine_mismatch_interrogative-partial-wh_Cuando-miraba-la-luna.wav,./stim/wavs/castilian_mismatch_interrogative-partial-wh_Cuando-miraba-la-luna.wav,./stim/wavs/chilean_mismatch_interrogative-partial-wh_Cuando-miraba-la-luna.wav,./stim/wavs/cuban_mismatch_interrogative-partial-wh_Cuando-miraba-la-luna.wav,./stim/wavs/mexican_mismatch_interrogative-partial-wh_Cuando-miraba-la-luna.wav,./stim/wavs/peruvian_mismatch_interrogative-partial-wh_Cuando-miraba-la-luna.wav,./stim/wavs/puertorican_mismatch_interrogative-partial-wh_Cuando-miraba-la-luna.wav,,,,,,,,,,,,,,,,,,,,,,,,,,,,,,,,,,,,,,,,,,,,,,,,,,,,,,,,
,,,,,,,5f53927e3a8bb66b0f07d471,6057c54e64b0b4e5c128b4f9,605ad8d3348c4426becd306d,Spain,Northeast,13 or older,no,2021-03-24_02h49.15.982,empathy_intonation_perc,2020.2.10,Windows,60,,,,,,,,,,1,mexican,1,1,2.38063,0,28,28,29,1,30,./stim/wavs/andalusian_match_interrogative-total-yn_Maria-bebe-el-vino.wav,./stim/wavs/argentine_match_interrogative-total-yn_Maria-bebe-el-vino.wav,./stim/wavs/castilian_match_interrogative-total-yn_Maria-bebe-el-vino.wav,./stim/wavs/chilean_match_interrogative-total-yn_Maria-bebe-el-vino.wav,./stim/wavs/cuban_match_interrogative-total-yn_Maria-bebe-el-vino.wav,./stim/wavs/mexican_match_interrogative-total-yn_Maria-bebe-el-vino.wav,./stim/wavs/peruvian_match_interrogative-total-yn_Maria-bebe-el-vino.wav,./stim/wavs/puertorican_match_interrogative-total-yn_Maria-bebe-el-vino.wav,,,,,,,,,,,,,,,,,,,,,,,,,,,,,,,,,,,,,,,,,,,,,,,,,,,,,,,,
,,,,,,,5f53927e3a8bb66b0f07d471,6057c54e64b0b4e5c128b4f9,605ad8d3348c4426becd306d,Spain,Northeast,13 or older,no,2021-03-24_02h49.15.982,empathy_intonation_perc,2020.2.10,Windows,60,,,,,,,,,,0,argentine,0,1,2.566945,0,29,29,46,1,47,./stim/wavs/andalusian_mismatch_declarative-narrow-focus_Mi-novio-viene-del-lago.wav,./stim/wavs/argentine_mismatch_declarative-narrow-focus_Mi-novio-viene-del-lago.wav,./stim/wavs/castilian_mismatch_declarative-narrow-focus_Mi-novio-viene-del-lago.wav,./stim/wavs/chilean_mismatch_declarative-narrow-focus_Mi-novio-viene-del-lago.wav,./stim/wavs/cuban_mismatch_declarative-narrow-focus_Mi-novio-viene-del-lago.wav,./stim/wavs/mexican_mismatch_declarative-narrow-focus_Mi-novio-viene-del-lago.wav,./stim/wavs/peruvian_mismatch_declarative-narrow-focus_Mi-novio-viene-del-lago.wav,./stim/wavs/puertorican_mismatch_declarative-narrow-focus_Mi-novio-viene-del-lago.wav,,,,,,,,,,,,,,,,,,,,,,,,,,,,,,,,,,,,,,,,,,,,,,,,,,,,,,,,
,,,,,,,5f53927e3a8bb66b0f07d471,6057c54e64b0b4e5c128b4f9,605ad8d3348c4426becd306d,Spain,Northeast,13 or older,no,2021-03-24_02h49.15.982,empathy_intonation_perc,2020.2.10,Windows,60,,,,,,,,,,0,puertorican,0,1,2.215505,0,30,30,11,1,12,./stim/wavs/andalusian_match_declarative-narrow-focus_Emilio-ama-la-marcha.wav,./stim/wavs/argentine_match_declarative-narrow-focus_Emilio-ama-la-marcha.wav,./stim/wavs/castilian_match_declarative-narrow-focus_Emilio-ama-la-marcha.wav,./stim/wavs/chilean_match_declarative-narrow-focus_Emilio-ama-la-marcha.wav,./stim/wavs/cuban_match_declarative-narrow-focus_Emilio-ama-la-marcha.wav,./stim/wavs/mexican_match_declarative-narrow-focus_Emilio-ama-la-marcha.wav,./stim/wavs/peruvian_match_declarative-narrow-focus_Emilio-ama-la-marcha.wav,./stim/wavs/puertorican_match_declarative-narrow-focus_Emilio-ama-la-marcha.wav,,,,,,,,,,,,,,,,,,,,,,,,,,,,,,,,,,,,,,,,,,,,,,,,,,,,,,,,
,,,,,,,5f53927e3a8bb66b0f07d471,6057c54e64b0b4e5c128b4f9,605ad8d3348c4426becd306d,Spain,Northeast,13 or older,no,2021-03-24_02h49.15.982,empathy_intonation_perc,2020.2.10,Windows,60,,,,,,,,,,0,argentine,0,1,2.343795,0,31,31,43,1,44,./stim/wavs/andalusian_mismatch_declarative-narrow-focus_La-maestra-vive-en-Paris.wav,./stim/wavs/argentine_mismatch_declarative-narrow-focus_La-maestra-vive-en-Paris.wav,./stim/wavs/castilian_mismatch_declarative-narrow-focus_La-maestra-vive-en-Paris.wav,./stim/wavs/chilean_mismatch_declarative-narrow-focus_La-maestra-vive-en-Paris.wav,./stim/wavs/cuban_mismatch_declarative-narrow-focus_La-maestra-vive-en-Paris.wav,./stim/wavs/mexican_mismatch_declarative-narrow-focus_La-maestra-vive-en-Paris.wav,./stim/wavs/peruvian_mismatch_declarative-narrow-focus_La-maestra-vive-en-Paris.wav,./stim/wavs/puertorican_mismatch_declarative-narrow-focus_La-maestra-vive-en-Paris.wav,,,,,,,,,,,,,,,,,,,,,,,,,,,,,,,,,,,,,,,,,,,,,,,,,,,,,,,,
,,,,,,,5f53927e3a8bb66b0f07d471,6057c54e64b0b4e5c128b4f9,605ad8d3348c4426becd306d,Spain,Northeast,13 or older,no,2021-03-24_02h49.15.982,empathy_intonation_perc,2020.2.10,Windows,60,,,,,,,,,,0,argentine,0,1,2.283405,0,32,32,1,1,2,./stim/wavs/andalusian_match_declarative-broad-focus_Daniel-iba-a-Bolivia.wav,./stim/wavs/argentine_match_declarative-broad-focus_Daniel-iba-a-Bolivia.wav,./stim/wavs/castilian_match_declarative-broad-focus_Daniel-iba-a-Bolivia.wav,./stim/wavs/chilean_match_declarative-broad-focus_Daniel-iba-a-Bolivia.wav,./stim/wavs/cuban_match_declarative-broad-focus_Daniel-iba-a-Bolivia.wav,./stim/wavs/mexican_match_declarative-broad-focus_Daniel-iba-a-Bolivia.wav,./stim/wavs/peruvian_match_declarative-broad-focus_Daniel-iba-a-Bolivia.wav,./stim/wavs/puertorican_match_declarative-broad-focus_Daniel-iba-a-Bolivia.wav,,,,,,,,,,,,,,,,,,,,,,,,,,,,,,,,,,,,,,,,,,,,,,,,,,,,,,,,
,,,,,,,5f53927e3a8bb66b0f07d471,6057c54e64b0b4e5c128b4f9,605ad8d3348c4426becd306d,Spain,Northeast,13 or older,no,2021-03-24_02h49.15.982,empathy_intonation_perc,2020.2.10,Windows,60,,,,,,,,,,1,andalusian,1,1,2.332395,0,33,33,52,1,53,./stim/wavs/andalusian_mismatch_interrogative-partial-wh_Por-que-odiaba-la-lluvia.wav,./stim/wavs/argentine_mismatch_interrogative-partial-wh_Por-que-odiaba-la-lluvia.wav,./stim/wavs/castilian_mismatch_interrogative-partial-wh_Por-que-odiaba-la-lluvia.wav,./stim/wavs/chilean_mismatch_interrogative-partial-wh_Por-que-odiaba-la-lluvia.wav,./stim/wavs/cuban_mismatch_interrogative-partial-wh_Por-que-odiaba-la-lluvia.wav,./stim/wavs/mexican_mismatch_interrogative-partial-wh_Por-que-odiaba-la-lluvia.wav,./stim/wavs/peruvian_mismatch_interrogative-partial-wh_Por-que-odiaba-la-lluvia.wav,./stim/wavs/puertorican_mismatch_interrogative-partial-wh_Por-que-odiaba-la-lluvia.wav,,,,,,,,,,,,,,,,,,,,,,,,,,,,,,,,,,,,,,,,,,,,,,,,,,,,,,,,
,,,,,,,5f53927e3a8bb66b0f07d471,6057c54e64b0b4e5c128b4f9,605ad8d3348c4426becd306d,Spain,Northeast,13 or older,no,2021-03-24_02h49.15.982,empathy_intonation_perc,2020.2.10,Windows,60,,,,,,,,,,0,mexican,0,1,2.490945,0,34,34,37,1,38,./stim/wavs/andalusian_mismatch_declarative-broad-focus_Mi-madre-come-la-fruta.wav,./stim/wavs/argentine_mismatch_declarative-broad-focus_Mi-madre-come-la-fruta.wav,./stim/wavs/castilian_mismatch_declarative-broad-focus_Mi-madre-come-la-fruta.wav,./stim/wavs/chilean_mismatch_declarative-broad-focus_Mi-madre-come-la-fruta.wav,./stim/wavs/cuban_mismatch_declarative-broad-focus_Mi-madre-come-la-fruta.wav,./stim/wavs/mexican_mismatch_declarative-broad-focus_Mi-madre-come-la-fruta.wav,./stim/wavs/peruvian_mismatch_declarative-broad-focus_Mi-madre-come-la-fruta.wav,./stim/wavs/puertorican_mismatch_declarative-broad-focus_Mi-madre-come-la-fruta.wav,,,,,,,,,,,,,,,,,,,,,,,,,,,,,,,,,,,,,,,,,,,,,,,,,,,,,,,,
,,,,,,,5f53927e3a8bb66b0f07d471,6057c54e64b0b4e5c128b4f9,605ad8d3348c4426becd306d,Spain,Northeast,13 or older,no,2021-03-24_02h49.15.982,empathy_intonation_perc,2020.2.10,Windows,60,,,,,,,,,,1,peruvian,1,1,2.440445,0,35,35,26,1,27,./stim/wavs/andalusian_match_interrogative-total-yn_David-leia-el-libro.wav,./stim/wavs/argentine_match_interrogative-total-yn_David-leia-el-libro.wav,./stim/wavs/castilian_match_interrogative-total-yn_David-leia-el-libro.wav,./stim/wavs/chilean_match_interrogative-total-yn_David-leia-el-libro.wav,./stim/wavs/cuban_match_interrogative-total-yn_David-leia-el-libro.wav,./stim/wavs/mexican_match_interrogative-total-yn_David-leia-el-libro.wav,./stim/wavs/peruvian_match_interrogative-total-yn_David-leia-el-libro.wav,./stim/wavs/puertorican_match_interrogative-total-yn_David-leia-el-libro.wav,,,,,,,,,,,,,,,,,,,,,,,,,,,,,,,,,,,,,,,,,,,,,,,,,,,,,,,,
,,,,,,,5f53927e3a8bb66b0f07d471,6057c54e64b0b4e5c128b4f9,605ad8d3348c4426becd306d,Spain,Northeast,13 or older,no,2021-03-24_02h49.15.982,empathy_intonation_perc,2020.2.10,Windows,60,,,,,,,,,,0,peruvian,0,1,2.29222,0,36,36,5,1,6,./stim/wavs/andalusian_match_declarative-broad-focus_Maria-bebe-el-vino.wav,./stim/wavs/argentine_match_declarative-broad-focus_Maria-bebe-el-vino.wav,./stim/wavs/castilian_match_declarative-broad-focus_Maria-bebe-el-vino.wav,./stim/wavs/chilean_match_declarative-broad-focus_Maria-bebe-el-vino.wav,./stim/wavs/cuban_match_declarative-broad-focus_Maria-bebe-el-vino.wav,./stim/wavs/mexican_match_declarative-broad-focus_Maria-bebe-el-vino.wav,./stim/wavs/peruvian_match_declarative-broad-focus_Maria-bebe-el-vino.wav,./stim/wavs/puertorican_match_declarative-broad-focus_Maria-bebe-el-vino.wav,,,,,,,,,,,,,,,,,,,,,,,,,,,,,,,,,,,,,,,,,,,,,,,,,,,,,,,,
,,,,,,,5f53927e3a8bb66b0f07d471,6057c54e64b0b4e5c128b4f9,605ad8d3348c4426becd306d,Spain,Northeast,13 or older,no,2021-03-24_02h49.15.982,empathy_intonation_perc,2020.2.10,Windows,60,,,,,,,,,,1,mexican,1,1,2.295025,0,37,37,21,1,22,./stim/wavs/andalusian_match_interrogative-partial-wh_Por-que-ama-la-navidad.wav,./stim/wavs/argentine_match_interrogative-partial-wh_Por-que-ama-la-navidad.wav,./stim/wavs/castilian_match_interrogative-partial-wh_Por-que-ama-la-navidad.wav,./stim/wavs/chilean_match_interrogative-partial-wh_Por-que-ama-la-navidad.wav,./stim/wavs/cuban_match_interrogative-partial-wh_Por-que-ama-la-navidad.wav,./stim/wavs/mexican_match_interrogative-partial-wh_Por-que-ama-la-navidad.wav,./stim/wavs/peruvian_match_interrogative-partial-wh_Por-que-ama-la-navidad.wav,./stim/wavs/puertorican_match_interrogative-partial-wh_Por-que-ama-la-navidad.wav,,,,,,,,,,,,,,,,,,,,,,,,,,,,,,,,,,,,,,,,,,,,,,,,,,,,,,,,
,,,,,,,5f53927e3a8bb66b0f07d471,6057c54e64b0b4e5c128b4f9,605ad8d3348c4426becd306d,Spain,Northeast,13 or older,no,2021-03-24_02h49.15.982,empathy_intonation_perc,2020.2.10,Windows,60,,,,,,,,,,0,argentine,0,1,2.08782,0,38,38,41,1,42,./stim/wavs/andalusian_mismatch_declarative-narrow-focus_El-hombre-mira-la-luna.wav,./stim/wavs/argentine_mismatch_declarative-narrow-focus_El-hombre-mira-la-luna.wav,./stim/wavs/castilian_mismatch_declarative-narrow-focus_El-hombre-mira-la-luna.wav,./stim/wavs/chilean_mismatch_declarative-narrow-focus_El-hombre-mira-la-luna.wav,./stim/wavs/cuban_mismatch_declarative-narrow-focus_El-hombre-mira-la-luna.wav,./stim/wavs/mexican_mismatch_declarative-narrow-focus_El-hombre-mira-la-luna.wav,./stim/wavs/peruvian_mismatch_declarative-narrow-focus_El-hombre-mira-la-luna.wav,./stim/wavs/puertorican_mismatch_declarative-narrow-focus_El-hombre-mira-la-luna.wav,,,,,,,,,,,,,,,,,,,,,,,,,,,,,,,,,,,,,,,,,,,,,,,,,,,,,,,,
,,,,,,,5f53927e3a8bb66b0f07d471,6057c54e64b0b4e5c128b4f9,605ad8d3348c4426becd306d,Spain,Northeast,13 or older,no,2021-03-24_02h49.15.982,empathy_intonation_perc,2020.2.10,Windows,60,,,,,,,,,,1,puertorican,0,0,2.028435,0,39,39,23,1,24,./stim/wavs/andalusian_match_interrogative-partial-wh_Por-que-iba-a-Bolivia.wav,./stim/wavs/argentine_match_interrogative-partial-wh_Por-que-iba-a-Bolivia.wav,./stim/wavs/castilian_match_interrogative-partial-wh_Por-que-iba-a-Bolivia.wav,./stim/wavs/chilean_match_interrogative-partial-wh_Por-que-iba-a-Bolivia.wav,./stim/wavs/cuban_match_interrogative-partial-wh_Por-que-iba-a-Bolivia.wav,./stim/wavs/mexican_match_interrogative-partial-wh_Por-que-iba-a-Bolivia.wav,./stim/wavs/peruvian_match_interrogative-partial-wh_Por-que-iba-a-Bolivia.wav,./stim/wavs/puertorican_match_interrogative-partial-wh_Por-que-iba-a-Bolivia.wav,,,,,,,,,,,,,,,,,,,,,,,,,,,,,,,,,,,,,,,,,,,,,,,,,,,,,,,,
,,,,,,,5f53927e3a8bb66b0f07d471,6057c54e64b0b4e5c128b4f9,605ad8d3348c4426becd306d,Spain,Northeast,13 or older,no,2021-03-24_02h49.15.982,empathy_intonation_perc,2020.2.10,Windows,60,,,,,,,,,,1,mexican,1,1,2.141385,0,40,40,49,1,50,./stim/wavs/andalusian_mismatch_interrogative-partial-wh_Cuando-lavaba-el-plato.wav,./stim/wavs/argentine_mismatch_interrogative-partial-wh_Cuando-lavaba-el-plato.wav,./stim/wavs/castilian_mismatch_interrogative-partial-wh_Cuando-lavaba-el-plato.wav,./stim/wavs/chilean_mismatch_interrogative-partial-wh_Cuando-lavaba-el-plato.wav,./stim/wavs/cuban_mismatch_interrogative-partial-wh_Cuando-lavaba-el-plato.wav,./stim/wavs/mexican_mismatch_interrogative-partial-wh_Cuando-lavaba-el-plato.wav,./stim/wavs/peruvian_mismatch_interrogative-partial-wh_Cuando-lavaba-el-plato.wav,./stim/wavs/puertorican_mismatch_interrogative-partial-wh_Cuando-lavaba-el-plato.wav,,,,,,,,,,,,,,,,,,,,,,,,,,,,,,,,,,,,,,,,,,,,,,,,,,,,,,,,
,,,,,,,5f53927e3a8bb66b0f07d471,6057c54e64b0b4e5c128b4f9,605ad8d3348c4426becd306d,Spain,Northeast,13 or older,no,2021-03-24_02h49.15.982,empathy_intonation_perc,2020.2.10,Windows,60,,,,,,,,,,1,cuban,0,0,2.2025,0,41,41,20,1,21,./stim/wavs/andalusian_match_interrogative-partial-wh_Por-que-abre-el-regalo.wav,./stim/wavs/argentine_match_interrogative-partial-wh_Por-que-abre-el-regalo.wav,./stim/wavs/castilian_match_interrogative-partial-wh_Por-que-abre-el-regalo.wav,./stim/wavs/chilean_match_interrogative-partial-wh_Por-que-abre-el-regalo.wav,./stim/wavs/cuban_match_interrogative-partial-wh_Por-que-abre-el-regalo.wav,./stim/wavs/mexican_match_interrogative-partial-wh_Por-que-abre-el-regalo.wav,./stim/wavs/peruvian_match_interrogative-partial-wh_Por-que-abre-el-regalo.wav,./stim/wavs/puertorican_match_interrogative-partial-wh_Por-que-abre-el-regalo.wav,,,,,,,,,,,,,,,,,,,,,,,,,,,,,,,,,,,,,,,,,,,,,,,,,,,,,,,,
,,,,,,,5f53927e3a8bb66b0f07d471,6057c54e64b0b4e5c128b4f9,605ad8d3348c4426becd306d,Spain,Northeast,13 or older,no,2021-03-24_02h49.15.982,empathy_intonation_perc,2020.2.10,Windows,60,,,,,,,,,,0,chilean,0,1,3.00541,0,42,42,42,1,43,./stim/wavs/andalusian_mismatch_declarative-narrow-focus_El-nino-oye-el-rio.wav,./stim/wavs/argentine_mismatch_declarative-narrow-focus_El-nino-oye-el-rio.wav,./stim/wavs/castilian_mismatch_declarative-narrow-focus_El-nino-oye-el-rio.wav,./stim/wavs/chilean_mismatch_declarative-narrow-focus_El-nino-oye-el-rio.wav,./stim/wavs/cuban_mismatch_declarative-narrow-focus_El-nino-oye-el-rio.wav,./stim/wavs/mexican_mismatch_declarative-narrow-focus_El-nino-oye-el-rio.wav,./stim/wavs/peruvian_mismatch_declarative-narrow-focus_El-nino-oye-el-rio.wav,./stim/wavs/puertorican_mismatch_declarative-narrow-focus_El-nino-oye-el-rio.wav,,,,,,,,,,,,,,,,,,,,,,,,,,,,,,,,,,,,,,,,,,,,,,,,,,,,,,,,
,,,,,,,5f53927e3a8bb66b0f07d471,6057c54e64b0b4e5c128b4f9,605ad8d3348c4426becd306d,Spain,Northeast,13 or older,no,2021-03-24_02h49.15.982,empathy_intonation_perc,2020.2.10,Windows,60,,,,,,,,,,1,chilean,1,1,2.258815,0,43,43,56,1,57,./stim/wavs/andalusian_mismatch_interrogative-total-yn_El-bebe-comia-muy-bien.wav,./stim/wavs/argentine_mismatch_interrogative-total-yn_El-bebe-comia-muy-bien.wav,./stim/wavs/castilian_mismatch_interrogative-total-yn_El-bebe-comia-muy-bien.wav,./stim/wavs/chilean_mismatch_interrogative-total-yn_El-bebe-comia-muy-bien.wav,./stim/wavs/cuban_mismatch_interrogative-total-yn_El-bebe-comia-muy-bien.wav,./stim/wavs/mexican_mismatch_interrogative-total-yn_El-bebe-comia-muy-bien.wav,./stim/wavs/peruvian_mismatch_interrogative-total-yn_El-bebe-comia-muy-bien.wav,./stim/wavs/puertorican_mismatch_interrogative-total-yn_El-bebe-comia-muy-bien.wav,,,,,,,,,,,,,,,,,,,,,,,,,,,,,,,,,,,,,,,,,,,,,,,,,,,,,,,,
,,,,,,,5f53927e3a8bb66b0f07d471,6057c54e64b0b4e5c128b4f9,605ad8d3348c4426becd306d,Spain,Northeast,13 or older,no,2021-03-24_02h49.15.982,empathy_intonation_perc,2020.2.10,Windows,60,,,,,,,,,,1,chilean,1,1,1.974485,0,44,44,17,1,18,./stim/wavs/andalusian_match_interrogative-partial-wh_Cuando-leia-el-libro.wav,./stim/wavs/argentine_match_interrogative-partial-wh_Cuando-leia-el-libro.wav,./stim/wavs/castilian_match_interrogative-partial-wh_Cuando-leia-el-libro.wav,./stim/wavs/chilean_match_interrogative-partial-wh_Cuando-leia-el-libro.wav,./stim/wavs/cuban_match_interrogative-partial-wh_Cuando-leia-el-libro.wav,./stim/wavs/mexican_match_interrogative-partial-wh_Cuando-leia-el-libro.wav,./stim/wavs/peruvian_match_interrogative-partial-wh_Cuando-leia-el-libro.wav,./stim/wavs/puertorican_match_interrogative-partial-wh_Cuando-leia-el-libro.wav,,,,,,,,,,,,,,,,,,,,,,,,,,,,,,,,,,,,,,,,,,,,,,,,,,,,,,,,
,,,,,,,5f53927e3a8bb66b0f07d471,6057c54e64b0b4e5c128b4f9,605ad8d3348c4426becd306d,Spain,Northeast,13 or older,no,2021-03-24_02h49.15.982,empathy_intonation_perc,2020.2.10,Windows,60,,,,,,,,,,0,peruvian,0,1,2.150865,0,45,45,38,1,39,./stim/wavs/andalusian_mismatch_declarative-broad-focus_Mi-novio-viene-del-lago.wav,./stim/wavs/argentine_mismatch_declarative-broad-focus_Mi-novio-viene-del-lago.wav,./stim/wavs/castilian_mismatch_declarative-broad-focus_Mi-novio-viene-del-lago.wav,./stim/wavs/chilean_mismatch_declarative-broad-focus_Mi-novio-viene-del-lago.wav,./stim/wavs/cuban_mismatch_declarative-broad-focus_Mi-novio-viene-del-lago.wav,./stim/wavs/mexican_mismatch_declarative-broad-focus_Mi-novio-viene-del-lago.wav,./stim/wavs/peruvian_mismatch_declarative-broad-focus_Mi-novio-viene-del-lago.wav,./stim/wavs/puertorican_mismatch_declarative-broad-focus_Mi-novio-viene-del-lago.wav,,,,,,,,,,,,,,,,,,,,,,,,,,,,,,,,,,,,,,,,,,,,,,,,,,,,,,,,
,,,,,,,5f53927e3a8bb66b0f07d471,6057c54e64b0b4e5c128b4f9,605ad8d3348c4426becd306d,Spain,Northeast,13 or older,no,2021-03-24_02h49.15.982,empathy_intonation_perc,2020.2.10,Windows,60,,,,,,,,,,0,cuban,0,1,2.25553,0,46,46,9,1,10,./stim/wavs/andalusian_match_declarative-narrow-focus_Daniel-iba-a-Bolivia.wav,./stim/wavs/argentine_match_declarative-narrow-focus_Daniel-iba-a-Bolivia.wav,./stim/wavs/castilian_match_declarative-narrow-focus_Daniel-iba-a-Bolivia.wav,./stim/wavs/chilean_match_declarative-narrow-focus_Daniel-iba-a-Bolivia.wav,./stim/wavs/cuban_match_declarative-narrow-focus_Daniel-iba-a-Bolivia.wav,./stim/wavs/mexican_match_declarative-narrow-focus_Daniel-iba-a-Bolivia.wav,./stim/wavs/peruvian_match_declarative-narrow-focus_Daniel-iba-a-Bolivia.wav,./stim/wavs/puertorican_match_declarative-narrow-focus_Daniel-iba-a-Bolivia.wav,,,,,,,,,,,,,,,,,,,,,,,,,,,,,,,,,,,,,,,,,,,,,,,,,,,,,,,,
,,,,,,,5f53927e3a8bb66b0f07d471,6057c54e64b0b4e5c128b4f9,605ad8d3348c4426becd306d,Spain,Northeast,13 or older,no,2021-03-24_02h49.15.982,empathy_intonation_perc,2020.2.10,Windows,60,,,,,,,,,,0,puertorican,1,0,2.054235,0,47,47,4,1,5,./stim/wavs/andalusian_match_declarative-broad-focus_Manuela-vende-el-carro.wav,./stim/wavs/argentine_match_declarative-broad-focus_Manuela-vende-el-carro.wav,./stim/wavs/castilian_match_declarative-broad-focus_Manuela-vende-el-carro.wav,./stim/wavs/chilean_match_declarative-broad-focus_Manuela-vende-el-carro.wav,./stim/wavs/cuban_match_declarative-broad-focus_Manuela-vende-el-carro.wav,./stim/wavs/mexican_match_declarative-broad-focus_Manuela-vende-el-carro.wav,./stim/wavs/peruvian_match_declarative-broad-focus_Manuela-vende-el-carro.wav,./stim/wavs/puertorican_match_declarative-broad-focus_Manuela-vende-el-carro.wav,,,,,,,,,,,,,,,,,,,,,,,,,,,,,,,,,,,,,,,,,,,,,,,,,,,,,,,,
,,,,,,,5f53927e3a8bb66b0f07d471,6057c54e64b0b4e5c128b4f9,605ad8d3348c4426becd306d,Spain,Northeast,13 or older,no,2021-03-24_02h49.15.982,empathy_intonation_perc,2020.2.10,Windows,60,,,,,,,,,,0,peruvian,0,1,2.876725,0,48,48,34,1,35,./stim/wavs/andalusian_mismatch_declarative-broad-focus_El-nino-oye-el-rio.wav,./stim/wavs/argentine_mismatch_declarative-broad-focus_El-nino-oye-el-rio.wav,./stim/wavs/castilian_mismatch_declarative-broad-focus_El-nino-oye-el-rio.wav,./stim/wavs/chilean_mismatch_declarative-broad-focus_El-nino-oye-el-rio.wav,./stim/wavs/cuban_mismatch_declarative-broad-focus_El-nino-oye-el-rio.wav,./stim/wavs/mexican_mismatch_declarative-broad-focus_El-nino-oye-el-rio.wav,./stim/wavs/peruvian_mismatch_declarative-broad-focus_El-nino-oye-el-rio.wav,./stim/wavs/puertorican_mismatch_declarative-broad-focus_El-nino-oye-el-rio.wav,,,,,,,,,,,,,,,,,,,,,,,,,,,,,,,,,,,,,,,,,,,,,,,,,,,,,,,,
,,,,,,,5f53927e3a8bb66b0f07d471,6057c54e64b0b4e5c128b4f9,605ad8d3348c4426becd306d,Spain,Northeast,13 or older,no,2021-03-24_02h49.15.982,empathy_intonation_perc,2020.2.10,Windows,60,,,,,,,,,,0,mexican,0,1,2.20064,0,49,49,0,1,1,./stim/wavs/andalusian_match_declarative-broad-focus_Ana-lleva-el-abrigo.wav,./stim/wavs/argentine_match_declarative-broad-focus_Ana-lleva-el-abrigo.wav,./stim/wavs/castilian_match_declarative-broad-focus_Ana-lleva-el-abrigo.wav,./stim/wavs/chilean_match_declarative-broad-focus_Ana-lleva-el-abrigo.wav,./stim/wavs/cuban_match_declarative-broad-focus_Ana-lleva-el-abrigo.wav,./stim/wavs/mexican_match_declarative-broad-focus_Ana-lleva-el-abrigo.wav,./stim/wavs/peruvian_match_declarative-broad-focus_Ana-lleva-el-abrigo.wav,./stim/wavs/puertorican_match_declarative-broad-focus_Ana-lleva-el-abrigo.wav,,,,,,,,,,,,,,,,,,,,,,,,,,,,,,,,,,,,,,,,,,,,,,,,,,,,,,,,
,,,,,,,5f53927e3a8bb66b0f07d471,6057c54e64b0b4e5c128b4f9,605ad8d3348c4426becd306d,Spain,Northeast,13 or older,no,2021-03-24_02h49.15.982,empathy_intonation_perc,2020.2.10,Windows,60,,,,,,,,,,1,chilean,1,1,2.076495,0,50,50,30,1,31,./stim/wavs/andalusian_match_interrogative-total-yn_Mariano-habla-del-tiempo.wav,./stim/wavs/argentine_match_interrogative-total-yn_Mariano-habla-del-tiempo.wav,./stim/wavs/castilian_match_interrogative-total-yn_Mariano-habla-del-tiempo.wav,./stim/wavs/chilean_match_interrogative-total-yn_Mariano-habla-del-tiempo.wav,./stim/wavs/cuban_match_interrogative-total-yn_Mariano-habla-del-tiempo.wav,./stim/wavs/mexican_match_interrogative-total-yn_Mariano-habla-del-tiempo.wav,./stim/wavs/peruvian_match_interrogative-total-yn_Mariano-habla-del-tiempo.wav,./stim/wavs/puertorican_match_interrogative-total-yn_Mariano-habla-del-tiempo.wav,,,,,,,,,,,,,,,,,,,,,,,,,,,,,,,,,,,,,,,,,,,,,,,,,,,,,,,,
,,,,,,,5f53927e3a8bb66b0f07d471,6057c54e64b0b4e5c128b4f9,605ad8d3348c4426becd306d,Spain,Northeast,13 or older,no,2021-03-24_02h49.15.982,empathy_intonation_perc,2020.2.10,Windows,60,,,,,,,,,,0,castilian,0,1,2.69407,0,51,51,36,1,37,./stim/wavs/andalusian_mismatch_declarative-broad-focus_La-nina-lava-el-plato.wav,./stim/wavs/argentine_mismatch_declarative-broad-focus_La-nina-lava-el-plato.wav,./stim/wavs/castilian_mismatch_declarative-broad-focus_La-nina-lava-el-plato.wav,./stim/wavs/chilean_mismatch_declarative-broad-focus_La-nina-lava-el-plato.wav,./stim/wavs/cuban_mismatch_declarative-broad-focus_La-nina-lava-el-plato.wav,./stim/wavs/mexican_mismatch_declarative-broad-focus_La-nina-lava-el-plato.wav,./stim/wavs/peruvian_mismatch_declarative-broad-focus_La-nina-lava-el-plato.wav,./stim/wavs/puertorican_mismatch_declarative-broad-focus_La-nina-lava-el-plato.wav,,,,,,,,,,,,,,,,,,,,,,,,,,,,,,,,,,,,,,,,,,,,,,,,,,,,,,,,
,,,,,,,5f53927e3a8bb66b0f07d471,6057c54e64b0b4e5c128b4f9,605ad8d3348c4426becd306d,Spain,Northeast,13 or older,no,2021-03-24_02h49.15.982,empathy_intonation_perc,2020.2.10,Windows,60,,,,,,,,,,1,argentine,1,1,3.07364,0,52,52,63,1,64,./stim/wavs/andalusian_mismatch_interrogative-total-yn_Mi-tia-odia-la-lluvia.wav,./stim/wavs/argentine_mismatch_interrogative-total-yn_Mi-tia-odia-la-lluvia.wav,./stim/wavs/castilian_mismatch_interrogative-total-yn_Mi-tia-odia-la-lluvia.wav,./stim/wavs/chilean_mismatch_interrogative-total-yn_Mi-tia-odia-la-lluvia.wav,./stim/wavs/cuban_mismatch_interrogative-total-yn_Mi-tia-odia-la-lluvia.wav,./stim/wavs/mexican_mismatch_interrogative-total-yn_Mi-tia-odia-la-lluvia.wav,./stim/wavs/peruvian_mismatch_interrogative-total-yn_Mi-tia-odia-la-lluvia.wav,./stim/wavs/puertorican_mismatch_interrogative-total-yn_Mi-tia-odia-la-lluvia.wav,,,,,,,,,,,,,,,,,,,,,,,,,,,,,,,,,,,,,,,,,,,,,,,,,,,,,,,,
,,,,,,,5f53927e3a8bb66b0f07d471,6057c54e64b0b4e5c128b4f9,605ad8d3348c4426becd306d,Spain,Northeast,13 or older,no,2021-03-24_02h49.15.982,empathy_intonation_perc,2020.2.10,Windows,60,,,,,,,,,,1,mexican,1,1,2.82589,0,53,53,59,1,60,./stim/wavs/andalusian_mismatch_interrogative-total-yn_La-maestra-vive-en-Paris.wav,./stim/wavs/argentine_mismatch_interrogative-total-yn_La-maestra-vive-en-Paris.wav,./stim/wavs/castilian_mismatch_interrogative-total-yn_La-maestra-vive-en-Paris.wav,./stim/wavs/chilean_mismatch_interrogative-total-yn_La-maestra-vive-en-Paris.wav,./stim/wavs/cuban_mismatch_interrogative-total-yn_La-maestra-vive-en-Paris.wav,./stim/wavs/mexican_mismatch_interrogative-total-yn_La-maestra-vive-en-Paris.wav,./stim/wavs/peruvian_mismatch_interrogative-total-yn_La-maestra-vive-en-Paris.wav,./stim/wavs/puertorican_mismatch_interrogative-total-yn_La-maestra-vive-en-Paris.wav,,,,,,,,,,,,,,,,,,,,,,,,,,,,,,,,,,,,,,,,,,,,,,,,,,,,,,,,
,,,,,,,5f53927e3a8bb66b0f07d471,6057c54e64b0b4e5c128b4f9,605ad8d3348c4426becd306d,Spain,Northeast,13 or older,no,2021-03-24_02h49.15.982,empathy_intonation_perc,2020.2.10,Windows,60,,,,,,,,,,1,puertorican,0,0,2.508165,0,54,54,22,1,23,./stim/wavs/andalusian_match_interrogative-partial-wh_Por-que-hablaba-del-agua.wav,./stim/wavs/argentine_match_interrogative-partial-wh_Por-que-hablaba-del-agua.wav,./stim/wavs/castilian_match_interrogative-partial-wh_Por-que-hablaba-del-agua.wav,./stim/wavs/chilean_match_interrogative-partial-wh_Por-que-hablaba-del-agua.wav,./stim/wavs/cuban_match_interrogative-partial-wh_Por-que-hablaba-del-agua.wav,./stim/wavs/mexican_match_interrogative-partial-wh_Por-que-hablaba-del-agua.wav,./stim/wavs/peruvian_match_interrogative-partial-wh_Por-que-hablaba-del-agua.wav,./stim/wavs/puertorican_match_interrogative-partial-wh_Por-que-hablaba-del-agua.wav,,,,,,,,,,,,,,,,,,,,,,,,,,,,,,,,,,,,,,,,,,,,,,,,,,,,,,,,
,,,,,,,5f53927e3a8bb66b0f07d471,6057c54e64b0b4e5c128b4f9,605ad8d3348c4426becd306d,Spain,Northeast,13 or older,no,2021-03-24_02h49.15.982,empathy_intonation_perc,2020.2.10,Windows,60,,,,,,,,,,0,peruvian,0,1,2.502335,0,55,55,13,1,14,./stim/wavs/andalusian_match_declarative-narrow-focus_Maria-bebe-el-vino.wav,./stim/wavs/argentine_match_declarative-narrow-focus_Maria-bebe-el-vino.wav,./stim/wavs/castilian_match_declarative-narrow-focus_Maria-bebe-el-vino.wav,./stim/wavs/chilean_match_declarative-narrow-focus_Maria-bebe-el-vino.wav,./stim/wavs/cuban_match_declarative-narrow-focus_Maria-bebe-el-vino.wav,./stim/wavs/mexican_match_declarative-narrow-focus_Maria-bebe-el-vino.wav,./stim/wavs/peruvian_match_declarative-narrow-focus_Maria-bebe-el-vino.wav,./stim/wavs/puertorican_match_declarative-narrow-focus_Maria-bebe-el-vino.wav,,,,,,,,,,,,,,,,,,,,,,,,,,,,,,,,,,,,,,,,,,,,,,,,,,,,,,,,
,,,,,,,5f53927e3a8bb66b0f07d471,6057c54e64b0b4e5c128b4f9,605ad8d3348c4426becd306d,Spain,Northeast,13 or older,no,2021-03-24_02h49.15.982,empathy_intonation_perc,2020.2.10,Windows,60,,,,,,,,,,1,peruvian,0,0,2.318125,0,56,56,18,1,19,./stim/wavs/andalusian_match_interrogative-partial-wh_Cuando-lleva-el-abrigo.wav,./stim/wavs/argentine_match_interrogative-partial-wh_Cuando-lleva-el-abrigo.wav,./stim/wavs/castilian_match_interrogative-partial-wh_Cuando-lleva-el-abrigo.wav,./stim/wavs/chilean_match_interrogative-partial-wh_Cuando-lleva-el-abrigo.wav,./stim/wavs/cuban_match_interrogative-partial-wh_Cuando-lleva-el-abrigo.wav,./stim/wavs/mexican_match_interrogative-partial-wh_Cuando-lleva-el-abrigo.wav,./stim/wavs/peruvian_match_interrogative-partial-wh_Cuando-lleva-el-abrigo.wav,./stim/wavs/puertorican_match_interrogative-partial-wh_Cuando-lleva-el-abrigo.wav,,,,,,,,,,,,,,,,,,,,,,,,,,,,,,,,,,,,,,,,,,,,,,,,,,,,,,,,
,,,,,,,5f53927e3a8bb66b0f07d471,6057c54e64b0b4e5c128b4f9,605ad8d3348c4426becd306d,Spain,Northeast,13 or older,no,2021-03-24_02h49.15.982,empathy_intonation_perc,2020.2.10,Windows,60,,,,,,,,,,1,chilean,1,1,1.929045,0,57,57,25,1,26,./stim/wavs/andalusian_match_interrogative-total-yn_Daniel-iba-a-Bolivia.wav,./stim/wavs/argentine_match_interrogative-total-yn_Daniel-iba-a-Bolivia.wav,./stim/wavs/castilian_match_interrogative-total-yn_Daniel-iba-a-Bolivia.wav,./stim/wavs/chilean_match_interrogative-total-yn_Daniel-iba-a-Bolivia.wav,./stim/wavs/cuban_match_interrogative-total-yn_Daniel-iba-a-Bolivia.wav,./stim/wavs/mexican_match_interrogative-total-yn_Daniel-iba-a-Bolivia.wav,./stim/wavs/peruvian_match_interrogative-total-yn_Daniel-iba-a-Bolivia.wav,./stim/wavs/puertorican_match_interrogative-total-yn_Daniel-iba-a-Bolivia.wav,,,,,,,,,,,,,,,,,,,,,,,,,,,,,,,,,,,,,,,,,,,,,,,,,,,,,,,,
,,,,,,,5f53927e3a8bb66b0f07d471,6057c54e64b0b4e5c128b4f9,605ad8d3348c4426becd306d,Spain,Northeast,13 or older,no,2021-03-24_02h49.15.982,empathy_intonation_perc,2020.2.10,Windows,60,,,,,,,,,,1,andalusian,1,1,2.164505,0,58,58,48,1,49,./stim/wavs/andalusian_mismatch_interrogative-partial-wh_Cuando-comia-la-fruta.wav,./stim/wavs/argentine_mismatch_interrogative-partial-wh_Cuando-comia-la-fruta.wav,./stim/wavs/castilian_mismatch_interrogative-partial-wh_Cuando-comia-la-fruta.wav,./stim/wavs/chilean_mismatch_interrogative-partial-wh_Cuando-comia-la-fruta.wav,./stim/wavs/cuban_mismatch_interrogative-partial-wh_Cuando-comia-la-fruta.wav,./stim/wavs/mexican_mismatch_interrogative-partial-wh_Cuando-comia-la-fruta.wav,./stim/wavs/peruvian_mismatch_interrogative-partial-wh_Cuando-comia-la-fruta.wav,./stim/wavs/puertorican_mismatch_interrogative-partial-wh_Cuando-comia-la-fruta.wav,,,,,,,,,,,,,,,,,,,,,,,,,,,,,,,,,,,,,,,,,,,,,,,,,,,,,,,,
,,,,,,,5f53927e3a8bb66b0f07d471,6057c54e64b0b4e5c128b4f9,605ad8d3348c4426becd306d,Spain,Northeast,13 or older,no,2021-03-24_02h49.15.982,empathy_intonation_perc,2020.2.10,Windows,60,,,,,,,,,,0,chilean,1,0,2.0435,0,59,59,40,1,41,./stim/wavs/andalusian_mismatch_declarative-narrow-focus_El-bebe-comia-muy-bien.wav,./stim/wavs/argentine_mismatch_declarative-narrow-focus_El-bebe-comia-muy-bien.wav,./stim/wavs/castilian_mismatch_declarative-narrow-focus_El-bebe-comia-muy-bien.wav,./stim/wavs/chilean_mismatch_declarative-narrow-focus_El-bebe-comia-muy-bien.wav,./stim/wavs/cuban_mismatch_declarative-narrow-focus_El-bebe-comia-muy-bien.wav,./stim/wavs/mexican_mismatch_declarative-narrow-focus_El-bebe-comia-muy-bien.wav,./stim/wavs/peruvian_mismatch_declarative-narrow-focus_El-bebe-comia-muy-bien.wav,./stim/wavs/puertorican_mismatch_declarative-narrow-focus_El-bebe-comia-muy-bien.wav,,,,,,,,,,,,,,,,,,,,,,,,,,,,,,,,,,,,,,,,,,,,,,,,,,,,,,,,
,,,,,,,5f53927e3a8bb66b0f07d471,6057c54e64b0b4e5c128b4f9,605ad8d3348c4426becd306d,Spain,Northeast,13 or older,no,2021-03-24_02h49.15.982,empathy_intonation_perc,2020.2.10,Windows,60,,,,,,,,,,0,puertorican,0,1,1.975895,0,60,60,39,1,40,./stim/wavs/andalusian_mismatch_declarative-broad-focus_Mi-tia-odia-la-lluvia.wav,./stim/wavs/argentine_mismatch_declarative-broad-focus_Mi-tia-odia-la-lluvia.wav,./stim/wavs/castilian_mismatch_declarative-broad-focus_Mi-tia-odia-la-lluvia.wav,./stim/wavs/chilean_mismatch_declarative-broad-focus_Mi-tia-odia-la-lluvia.wav,./stim/wavs/cuban_mismatch_declarative-broad-focus_Mi-tia-odia-la-lluvia.wav,./stim/wavs/mexican_mismatch_declarative-broad-focus_Mi-tia-odia-la-lluvia.wav,./stim/wavs/peruvian_mismatch_declarative-broad-focus_Mi-tia-odia-la-lluvia.wav,./stim/wavs/puertorican_mismatch_declarative-broad-focus_Mi-tia-odia-la-lluvia.wav,,,,,,,,,,,,,,,,,,,,,,,,,,,,,,,,,,,,,,,,,,,,,,,,,,,,,,,,
,,,,,,,5f53927e3a8bb66b0f07d471,6057c54e64b0b4e5c128b4f9,605ad8d3348c4426becd306d,Spain,Northeast,13 or older,no,2021-03-24_02h49.15.982,empathy_intonation_perc,2020.2.10,Windows,60,,,,,,,,,,1,castilian,1,1,2.19831,0,61,61,31,1,32,./stim/wavs/andalusian_match_interrogative-total-yn_Marta-abre-el-regalo.wav,./stim/wavs/argentine_match_interrogative-total-yn_Marta-abre-el-regalo.wav,./stim/wavs/castilian_match_interrogative-total-yn_Marta-abre-el-regalo.wav,./stim/wavs/chilean_match_interrogative-total-yn_Marta-abre-el-regalo.wav,./stim/wavs/cuban_match_interrogative-total-yn_Marta-abre-el-regalo.wav,./stim/wavs/mexican_match_interrogative-total-yn_Marta-abre-el-regalo.wav,./stim/wavs/peruvian_match_interrogative-total-yn_Marta-abre-el-regalo.wav,./stim/wavs/puertorican_match_interrogative-total-yn_Marta-abre-el-regalo.wav,,,,,,,,,,,,,,,,,,,,,,,,,,,,,,,,,,,,,,,,,,,,,,,,,,,,,,,,
,,,,,,,5f53927e3a8bb66b0f07d471,6057c54e64b0b4e5c128b4f9,605ad8d3348c4426becd306d,Spain,Northeast,13 or older,no,2021-03-24_02h49.15.982,empathy_intonation_perc,2020.2.10,Windows,60,,,,,,,,,,1,andalusian,0,0,2.050775,0,62,62,16,1,17,./stim/wavs/andalusian_match_interrogative-partial-wh_Cuando-bebia-el-vino.wav,./stim/wavs/argentine_match_interrogative-partial-wh_Cuando-bebia-el-vino.wav,./stim/wavs/castilian_match_interrogative-partial-wh_Cuando-bebia-el-vino.wav,./stim/wavs/chilean_match_interrogative-partial-wh_Cuando-bebia-el-vino.wav,./stim/wavs/cuban_match_interrogative-partial-wh_Cuando-bebia-el-vino.wav,./stim/wavs/mexican_match_interrogative-partial-wh_Cuando-bebia-el-vino.wav,./stim/wavs/peruvian_match_interrogative-partial-wh_Cuando-bebia-el-vino.wav,./stim/wavs/puertorican_match_interrogative-partial-wh_Cuando-bebia-el-vino.wav,,,,,,,,,,,,,,,,,,,,,,,,,,,,,,,,,,,,,,,,,,,,,,,,,,,,,,,,
,,,,,,,5f53927e3a8bb66b0f07d471,6057c54e64b0b4e5c128b4f9,605ad8d3348c4426becd306d,Spain,Northeast,13 or older,no,2021-03-24_02h49.15.982,empathy_intonation_perc,2020.2.10,Windows,60,,,,,,,,,,0,cuban,0,1,2.25136,0,63,63,2,1,3,./stim/wavs/andalusian_match_declarative-broad-focus_David-leia-el-libro.wav,./stim/wavs/argentine_match_declarative-broad-focus_David-leia-el-libro.wav,./stim/wavs/castilian_match_declarative-broad-focus_David-leia-el-libro.wav,./stim/wavs/chilean_match_declarative-broad-focus_David-leia-el-libro.wav,./stim/wavs/cuban_match_declarative-broad-focus_David-leia-el-libro.wav,./stim/wavs/mexican_match_declarative-broad-focus_David-leia-el-libro.wav,./stim/wavs/peruvian_match_declarative-broad-focus_David-leia-el-libro.wav,./stim/wavs/puertorican_match_declarative-broad-focus_David-leia-el-libro.wav,,,,,,,,,,,,,,,,,,,,,,,,,,,,,,,,,,,,,,,,,,,,,,,,,,,,,,,,
,,,,,,,5f53927e3a8bb66b0f07d471,6057c54e64b0b4e5c128b4f9,605ad8d3348c4426becd306d,Spain,Northeast,13 or older,no,2021-03-24_02h49.15.982,empathy_intonation_perc,2020.2.10,Windows,60,,,,,,,,,,,,,,,,,,,,,,,,,,,,,h,1,8.90072,0,0,0,0,1,,,,,,,,,,,,,,,,,,,,,,,,,,,,,,,,,,,,,,,,,,,,,,,,
,,,,,"Great! Now we will move on. The next task consists of about 60 trials, in each of which you will see a string of letters. 
  
  Your task is to decide whether this is a real Spanish word or not.",(press the spacebar to continue),5f53927e3a8bb66b0f07d471,6057c54e64b0b4e5c128b4f9,605ad8d3348c4426becd306d,Spain,Northeast,13 or older,no,2021-03-24_02h49.15.982,empathy_intonation_perc,2020.2.10,Windows,60,,,,,,,,,,,,,,,,,,,,,,,,,,,,,,,,,,,,,0,0,0,0,1,,,,,,,,,,,,,,,,,,,,,,,,,,,,,,,,,,,,,,,,,,,
,,,,,"If you think it is an existing Spanish word, you type '1' (for 'REAL'), and if you think it is not an existing Spanish word, you type '0' (for 'FAKE').",(press the spacebar to continue),5f53927e3a8bb66b0f07d471,6057c54e64b0b4e5c128b4f9,605ad8d3348c4426becd306d,Spain,Northeast,13 or older,no,2021-03-24_02h49.15.982,empathy_intonation_perc,2020.2.10,Windows,60,,,,,,,,,,,,,,,,,,,,,,,,,,,,,,,,,,,,,0,1,1,1,1,,,,,,,,,,,,,,,,,,,,,,,,,,,,,,,,,,,,,,,,,,,
,,,,,"If you are sure that the word exists, even though you dont know its exact meaning, you may still respond '1' (REAL). 
  
  But if you are not sure if it is an existing word, you should respond '0' (FAKE).
  
  Let's do a practice round...",(press the spacebar to continue),5f53927e3a8bb66b0f07d471,6057c54e64b0b4e5c128b4f9,605ad8d3348c4426becd306d,Spain,Northeast,13 or older,no,2021-03-24_02h49.15.982,empathy_intonation_perc,2020.2.10,Windows,60,,,,,,,,,,,,,,,,,,,,,,,,,,,,,,,,,,,,,0,2,2,2,1,,,,,,,,,,,,,,,,,,,,,,,,,,,,,,,,,,,,,,,,,,,
,,,,,,,5f53927e3a8bb66b0f07d471,6057c54e64b0b4e5c128b4f9,605ad8d3348c4426becd306d,Spain,Northeast,13 or older,no,2021-03-24_02h49.15.982,empathy_intonation_perc,2020.2.10,Windows,60,,,,,,,,,,0,,,,,,,,,,,,,,,,,,,,,,,,,,,,,,,,0,1,3.958185,0,0,0,0,1,0,depiste,REAL,FAKE,,,,,,,,,,,,,,,,,,,,,,,,,,,,,,,
,,,,,,,5f53927e3a8bb66b0f07d471,6057c54e64b0b4e5c128b4f9,605ad8d3348c4426becd306d,Spain,Northeast,13 or older,no,2021-03-24_02h49.15.982,empathy_intonation_perc,2020.2.10,Windows,60,,,,,,,,,,1,,,,,,,,,,,,,,,,,,,,,,,,,,,,,,,,1,1,19.75144,0,1,1,1,1,0,s,REAL,FAKE,,,,,,,,,,,,,,,,,,,,,,,,,,,,,,,
,,,,,,,5f53927e3a8bb66b0f07d471,6057c54e64b0b4e5c128b4f9,605ad8d3348c4426becd306d,Spain,Northeast,13 or older,no,2021-03-24_02h49.15.982,empathy_intonation_perc,2020.2.10,Windows,60,,,,,,,,,,0,,,,,,,,,,,,,,,,,,,,,,,,,,,,,,,,1,0,6.525675,0,2,2,2,1,0,con,REAL,FAKE,,,,,,,,,,,,,,,,,,,,,,,,,,,,,,,
,,,,,,,5f53927e3a8bb66b0f07d471,6057c54e64b0b4e5c128b4f9,605ad8d3348c4426becd306d,Spain,Northeast,13 or older,no,2021-03-24_02h49.15.982,empathy_intonation_perc,2020.2.10,Windows,60,,,,,,,,,,0,,,,,,,,,,,,,,,,,,,,,,,,,,,,,,,,0,1,9.67641,0,3,3,3,1,0,calpar,REAL,FAKE,,,,,,,,,,,,,,,,,,,,,,,,,,,,,,,
,,,,,,,5f53927e3a8bb66b0f07d471,6057c54e64b0b4e5c128b4f9,605ad8d3348c4426becd306d,Spain,Northeast,13 or older,no,2021-03-24_02h49.15.982,empathy_intonation_perc,2020.2.10,Windows,60,,,,,,,,,,0,,,,,,,,,,,,,,,,,,,,,,,,,,,,,,,,0,1,26.809735,0,4,4,4,1,0,joten,REAL,FAKE,,,,,,,,,,,,,,,,,,,,,,,,,,,,,,,
,,,,,,,5f53927e3a8bb66b0f07d471,6057c54e64b0b4e5c128b4f9,605ad8d3348c4426becd306d,Spain,Northeast,13 or older,no,2021-03-24_02h49.15.982,empathy_intonation_perc,2020.2.10,Windows,60,,,,,,,,,,1,,,,,,,,,,,,,,,,,,,,,,,,,,,,,,,,1,1,3.647565,0,5,5,5,1,0,sacapuntas,REAL,FAKE,,,,,,,,,,,,,,,,,,,,,,,,,,,,,,,
,,,,,,,5f53927e3a8bb66b0f07d471,6057c54e64b0b4e5c128b4f9,605ad8d3348c4426becd306d,Spain,Northeast,13 or older,no,2021-03-24_02h49.15.982,empathy_intonation_perc,2020.2.10,Windows,60,,,,,,,,,,0,,,,,,,,,,,,,,,,,,,,,,,,,,,,,,,,0,1,10.025175,0,6,6,6,1,0,priba,REAL,FAKE,,,,,,,,,,,,,,,,,,,,,,,,,,,,,,,
,,,,,,,5f53927e3a8bb66b0f07d471,6057c54e64b0b4e5c128b4f9,605ad8d3348c4426becd306d,Spain,Northeast,13 or older,no,2021-03-24_02h49.15.982,empathy_intonation_perc,2020.2.10,Windows,60,,,,,,,,,,0,,,,,,,,,,,,,,,,,,,,,,,,,,,,,,,,1,0,4.7987,0,7,7,7,1,0,pelasula,REAL,FAKE,,,,,,,,,,,,,,,,,,,,,,,,,,,,,,,
,,,,,,,5f53927e3a8bb66b0f07d471,6057c54e64b0b4e5c128b4f9,605ad8d3348c4426becd306d,Spain,Northeast,13 or older,no,2021-03-24_02h49.15.982,empathy_intonation_perc,2020.2.10,Windows,60,,,,,,,,,,1,,,,,,,,,,,,,,,,,,,,,,,,,,,,,,,,1,1,2.972105,0,8,8,8,1,0,bien,REAL,FAKE,,,,,,,,,,,,,,,,,,,,,,,,,,,,,,,
,,,,,,,5f53927e3a8bb66b0f07d471,6057c54e64b0b4e5c128b4f9,605ad8d3348c4426becd306d,Spain,Northeast,13 or older,no,2021-03-24_02h49.15.982,empathy_intonation_perc,2020.2.10,Windows,60,,,,,,,,,,1,,,,,,,,,,,,,,,,,,,,,,,,,,,,,,,,1,1,2.647095,0,9,9,9,1,0,casa,REAL,FAKE,,,,,,,,,,,,,,,,,,,,,,,,,,,,,,,
,,,,,,,5f53927e3a8bb66b0f07d471,6057c54e64b0b4e5c128b4f9,605ad8d3348c4426becd306d,Spain,Northeast,13 or older,no,2021-03-24_02h49.15.982,empathy_intonation_perc,2020.2.10,Windows,60,,,,,,,,,,0,,,,,,,,,,,,,,,,,,,,,,,,,,,,,,,,1,0,5.82818,0,10,10,10,1,0,lejo,REAL,FAKE,,,,,,,,,,,,,,,,,,,,,,,,,,,,,,,
,,,,,,,5f53927e3a8bb66b0f07d471,6057c54e64b0b4e5c128b4f9,605ad8d3348c4426becd306d,Spain,Northeast,13 or older,no,2021-03-24_02h49.15.982,empathy_intonation_perc,2020.2.10,Windows,60,,,,,,,,,,0,,,,,,,,,,,,,,,,,,,,,,,,,,,,,,,,0,1,11.124515,0,11,11,11,1,0,pretantas,REAL,FAKE,,,,,,,,,,,,,,,,,,,,,,,,,,,,,,,
,,,,,,,5f53927e3a8bb66b0f07d471,6057c54e64b0b4e5c128b4f9,605ad8d3348c4426becd306d,Spain,Northeast,13 or older,no,2021-03-24_02h49.15.982,empathy_intonation_perc,2020.2.10,Windows,60,,,,,,,,,,1,,,,,,,,,,,,,,,,,,,,,,,,,,,,,,,,,,,,,,,,56,musgo,,,1,1,10.64618,0,0,0,55,1,REAL,FAKE,,,,,,,,,,,,,,,,,,,,,
,,,,,,,5f53927e3a8bb66b0f07d471,6057c54e64b0b4e5c128b4f9,605ad8d3348c4426becd306d,Spain,Northeast,13 or older,no,2021-03-24_02h49.15.982,empathy_intonation_perc,2020.2.10,Windows,60,,,,,,,,,,1,,,,,,,,,,,,,,,,,,,,,,,,,,,,,,,,,,,,,,,,40,alfombra,,,1,1,12.86132,0,1,1,39,1,REAL,FAKE,,,,,,,,,,,,,,,,,,,,,
,,,,,,,5f53927e3a8bb66b0f07d471,6057c54e64b0b4e5c128b4f9,605ad8d3348c4426becd306d,Spain,Northeast,13 or older,no,2021-03-24_02h49.15.982,empathy_intonation_perc,2020.2.10,Windows,60,,,,,,,,,,0,,,,,,,,,,,,,,,,,,,,,,,,,,,,,,,,,,,,,,,,58,plaudir,,,1,0,15.371785,0,2,2,57,1,REAL,FAKE,,,,,,,,,,,,,,,,,,,,,
,,,,,,,5f53927e3a8bb66b0f07d471,6057c54e64b0b4e5c128b4f9,605ad8d3348c4426becd306d,Spain,Northeast,13 or older,no,2021-03-24_02h49.15.982,empathy_intonation_perc,2020.2.10,Windows,60,,,,,,,,,,1,,,,,,,,,,,,,,,,,,,,,,,,,,,,,,,,,,,,,,,,45,jilguero,,,1,1,17.221405,0,3,3,44,1,REAL,FAKE,,,,,,,,,,,,,,,,,,,,,
,,,,,,,5f53927e3a8bb66b0f07d471,6057c54e64b0b4e5c128b4f9,605ad8d3348c4426becd306d,Spain,Northeast,13 or older,no,2021-03-24_02h49.15.982,empathy_intonation_perc,2020.2.10,Windows,60,,,,,,,,,,0,,,,,,,,,,,,,,,,,,,,,,,,,,,,,,,,,,,,,,,,35,rompido,,,1,0,17.51124,0,4,4,34,1,REAL,FAKE,,,,,,,,,,,,,,,,,,,,,
,,,,,,,5f53927e3a8bb66b0f07d471,6057c54e64b0b4e5c128b4f9,605ad8d3348c4426becd306d,Spain,Northeast,13 or older,no,2021-03-24_02h49.15.982,empathy_intonation_perc,2020.2.10,Windows,60,,,,,,,,,,1,,,,,,,,,,,,,,,,,,,,,,,,,,,,,,,,,,,,,,,,6,tergiversar,,,1,1,13.29915,0,5,5,5,1,REAL,FAKE,,,,,,,,,,,,,,,,,,,,,
,,,,,,,5f53927e3a8bb66b0f07d471,6057c54e64b0b4e5c128b4f9,605ad8d3348c4426becd306d,Spain,Northeast,13 or older,no,2021-03-24_02h49.15.982,empathy_intonation_perc,2020.2.10,Windows,60,,,,,,,,,,1,,,,,,,,,,,,,,,,,,,,,,,,,,,,,,,,,,,,,,,,44,cuchara,,,1,1,8.97339,0,6,6,43,1,REAL,FAKE,,,,,,,,,,,,,,,,,,,,,
,,,,,,,5f53927e3a8bb66b0f07d471,6057c54e64b0b4e5c128b4f9,605ad8d3348c4426becd306d,Spain,Northeast,13 or older,no,2021-03-24_02h49.15.982,empathy_intonation_perc,2020.2.10,Windows,60,,,,,,,,,,0,,,,,,,,,,,,,,,,,,,,,,,,,,,,,,,,,,,,,,,,17,floroso,,,1,0,3.72028,0,7,7,16,1,REAL,FAKE,,,,,,,,,,,,,,,,,,,,,
,,,,,,,5f53927e3a8bb66b0f07d471,6057c54e64b0b4e5c128b4f9,605ad8d3348c4426becd306d,Spain,Northeast,13 or older,no,2021-03-24_02h49.15.982,empathy_intonation_perc,2020.2.10,Windows,60,,,,,,,,,,0,,,,,,,,,,,,,,,,,,,,,,,,,,,,,,,,,,,,,,,,1,terzo,,,0,1,11.178065,0,8,8,0,1,REAL,FAKE,,,,,,,,,,,,,,,,,,,,,
,,,,,,,5f53927e3a8bb66b0f07d471,6057c54e64b0b4e5c128b4f9,605ad8d3348c4426becd306d,Spain,Northeast,13 or older,no,2021-03-24_02h49.15.982,empathy_intonation_perc,2020.2.10,Windows,60,,,,,,,,,,1,,,,,,,,,,,,,,,,,,,,,,,,,,,,,,,,,,,,,,,,73,hervidor,,,1,1,10.849755,0,9,9,72,1,REAL,FAKE,,,,,,,,,,,,,,,,,,,,,
,,,,,,,5f53927e3a8bb66b0f07d471,6057c54e64b0b4e5c128b4f9,605ad8d3348c4426becd306d,Spain,Northeast,13 or older,no,2021-03-24_02h49.15.982,empathy_intonation_perc,2020.2.10,Windows,60,,,,,,,,,,1,,,,,,,,,,,,,,,,,,,,,,,,,,,,,,,,,,,,,,,,90,clavel,,,1,1,8.739415,0,10,10,89,1,REAL,FAKE,,,,,,,,,,,,,,,,,,,,,
,,,,,,,5f53927e3a8bb66b0f07d471,6057c54e64b0b4e5c128b4f9,605ad8d3348c4426becd306d,Spain,Northeast,13 or older,no,2021-03-24_02h49.15.982,empathy_intonation_perc,2020.2.10,Windows,60,,,,,,,,,,1,,,,,,,,,,,,,,,,,,,,,,,,,,,,,,,,,,,,,,,,68,alegre,,,1,1,8.86255,0,11,11,67,1,REAL,FAKE,,,,,,,,,,,,,,,,,,,,,
,,,,,,,5f53927e3a8bb66b0f07d471,6057c54e64b0b4e5c128b4f9,605ad8d3348c4426becd306d,Spain,Northeast,13 or older,no,2021-03-24_02h49.15.982,empathy_intonation_perc,2020.2.10,Windows,60,,,,,,,,,,1,,,,,,,,,,,,,,,,,,,,,,,,,,,,,,,,,,,,,,,,11,cenefa,,,1,1,7.74397,0,12,12,10,1,REAL,FAKE,,,,,,,,,,,,,,,,,,,,,
,,,,,,,5f53927e3a8bb66b0f07d471,6057c54e64b0b4e5c128b4f9,605ad8d3348c4426becd306d,Spain,Northeast,13 or older,no,2021-03-24_02h49.15.982,empathy_intonation_perc,2020.2.10,Windows,60,,,,,,,,,,0,,,,,,,,,,,,,,,,,,,,,,,,,,,,,,,,,,,,,,,,84,escuto,,,0,1,6.474225,0,13,13,83,1,REAL,FAKE,,,,,,,,,,,,,,,,,,,,,
,,,,,,,5f53927e3a8bb66b0f07d471,6057c54e64b0b4e5c128b4f9,605ad8d3348c4426becd306d,Spain,Northeast,13 or older,no,2021-03-24_02h49.15.982,empathy_intonation_perc,2020.2.10,Windows,60,,,,,,,,,,0,,,,,,,,,,,,,,,,,,,,,,,,,,,,,,,,,,,,,,,,66,hacido,,,1,0,20.134195,0,14,14,65,1,REAL,FAKE,,,,,,,,,,,,,,,,,,,,,
,,,,,,,5f53927e3a8bb66b0f07d471,6057c54e64b0b4e5c128b4f9,605ad8d3348c4426becd306d,Spain,Northeast,13 or older,no,2021-03-24_02h49.15.982,empathy_intonation_perc,2020.2.10,Windows,60,,,,,,,,,,1,,,,,,,,,,,,,,,,,,,,,,,,,,,,,,,,,,,,,,,,57,tacao,,,1,1,10.610515,0,15,15,56,1,REAL,FAKE,,,,,,,,,,,,,,,,,,,,,
,,,,,,,5f53927e3a8bb66b0f07d471,6057c54e64b0b4e5c128b4f9,605ad8d3348c4426becd306d,Spain,Northeast,13 or older,no,2021-03-24_02h49.15.982,empathy_intonation_perc,2020.2.10,Windows,60,,,,,,,,,,1,,,,,,,,,,,,,,,,,,,,,,,,,,,,,,,,,,,,,,,,80,hormiga,,,1,1,11.59877,0,16,16,79,1,REAL,FAKE,,,,,,,,,,,,,,,,,,,,,
,,,,,,,5f53927e3a8bb66b0f07d471,6057c54e64b0b4e5c128b4f9,605ad8d3348c4426becd306d,Spain,Northeast,13 or older,no,2021-03-24_02h49.15.982,empathy_intonation_perc,2020.2.10,Windows,60,,,,,,,,,,0,,,,,,,,,,,,,,,,,,,,,,,,,,,,,,,,,,,,,,,,47,cartinar,,,0,1,8.411295,0,17,17,46,1,REAL,FAKE,,,,,,,,,,,,,,,,,,,,,
,,,,,,,5f53927e3a8bb66b0f07d471,6057c54e64b0b4e5c128b4f9,605ad8d3348c4426becd306d,Spain,Northeast,13 or older,no,2021-03-24_02h49.15.982,empathy_intonation_perc,2020.2.10,Windows,60,,,,,,,,,,0,,,,,,,,,,,,,,,,,,,,,,,,,,,,,,,,,,,,,,,,10,antar,,,0,1,8.35469,0,18,18,9,1,REAL,FAKE,,,,,,,,,,,,,,,,,,,,,
,,,,,,,5f53927e3a8bb66b0f07d471,6057c54e64b0b4e5c128b4f9,605ad8d3348c4426becd306d,Spain,Northeast,13 or older,no,2021-03-24_02h49.15.982,empathy_intonation_perc,2020.2.10,Windows,60,,,,,,,,,,1,,,,,,,,,,,,,,,,,,,,,,,,,,,,,,,,,,,,,,,,3,pulmones,,,1,1,3.67514,0,19,19,2,1,REAL,FAKE,,,,,,,,,,,,,,,,,,,,,
,,,,,,,5f53927e3a8bb66b0f07d471,6057c54e64b0b4e5c128b4f9,605ad8d3348c4426becd306d,Spain,Northeast,13 or older,no,2021-03-24_02h49.15.982,empathy_intonation_perc,2020.2.10,Windows,60,,,,,,,,,,1,,,,,,,,,,,,,,,,,,,,,,,,,,,,,,,,,,,,,,,,37,granuja,,,1,1,13.728525,0,20,20,36,1,REAL,FAKE,,,,,,,,,,,,,,,,,,,,,
,,,,,,,5f53927e3a8bb66b0f07d471,6057c54e64b0b4e5c128b4f9,605ad8d3348c4426becd306d,Spain,Northeast,13 or older,no,2021-03-24_02h49.15.982,empathy_intonation_perc,2020.2.10,Windows,60,,,,,,,,,,1,,,,,,,,,,,,,,,,,,,,,,,,,,,,,,,,,,,,,,,,22,lacayo,,,1,1,15.76099,0,21,21,21,1,REAL,FAKE,,,,,,,,,,,,,,,,,,,,,
,,,,,,,5f53927e3a8bb66b0f07d471,6057c54e64b0b4e5c128b4f9,605ad8d3348c4426becd306d,Spain,Northeast,13 or older,no,2021-03-24_02h49.15.982,empathy_intonation_perc,2020.2.10,Windows,60,,,,,,,,,,1,,,,,,,,,,,,,,,,,,,,,,,,,,,,,,,,,,,,,,,,5,zapato,,,1,1,11.24818,0,22,22,4,1,REAL,FAKE,,,,,,,,,,,,,,,,,,,,,
,,,,,,,5f53927e3a8bb66b0f07d471,6057c54e64b0b4e5c128b4f9,605ad8d3348c4426becd306d,Spain,Northeast,13 or older,no,2021-03-24_02h49.15.982,empathy_intonation_perc,2020.2.10,Windows,60,,,,,,,,,,1,,,,,,,,,,,,,,,,,,,,,,,,,,,,,,,,,,,,,,,,61,seda,,,1,1,5.69705,0,23,23,60,1,REAL,FAKE,,,,,,,,,,,,,,,,,,,,,
,,,,,,,5f53927e3a8bb66b0f07d471,6057c54e64b0b4e5c128b4f9,605ad8d3348c4426becd306d,Spain,Northeast,13 or older,no,2021-03-24_02h49.15.982,empathy_intonation_perc,2020.2.10,Windows,60,,,,,,,,,,1,,,,,,,,,,,,,,,,,,,,,,,,,,,,,,,,,,,,,,,,48,ladrn,,,1,1,8.805725,0,24,24,47,1,REAL,FAKE,,,,,,,,,,,,,,,,,,,,,
,,,,,,,5f53927e3a8bb66b0f07d471,6057c54e64b0b4e5c128b4f9,605ad8d3348c4426becd306d,Spain,Northeast,13 or older,no,2021-03-24_02h49.15.982,empathy_intonation_perc,2020.2.10,Windows,60,,,,,,,,,,1,,,,,,,,,,,,,,,,,,,,,,,,,,,,,,,,,,,,,,,,20,vido,,,1,1,28.549345,0,25,25,19,1,REAL,FAKE,,,,,,,,,,,,,,,,,,,,,
,,,,,,,5f53927e3a8bb66b0f07d471,6057c54e64b0b4e5c128b4f9,605ad8d3348c4426becd306d,Spain,Northeast,13 or older,no,2021-03-24_02h49.15.982,empathy_intonation_perc,2020.2.10,Windows,60,,,,,,,,,,0,,,,,,,,,,,,,,,,,,,,,,,,,,,,,,,,,,,,,,,,72,pemicin,,,1,0,18.48662,0,26,26,71,1,REAL,FAKE,,,,,,,,,,,,,,,,,,,,,
,,,,,,,5f53927e3a8bb66b0f07d471,6057c54e64b0b4e5c128b4f9,605ad8d3348c4426becd306d,Spain,Northeast,13 or older,no,2021-03-24_02h49.15.982,empathy_intonation_perc,2020.2.10,Windows,60,,,,,,,,,,1,,,,,,,,,,,,,,,,,,,,,,,,,,,,,,,,,,,,,,,,77,tiburn,,,1,1,11.434125,0,27,27,76,1,REAL,FAKE,,,,,,,,,,,,,,,,,,,,,
,,,,,,,5f53927e3a8bb66b0f07d471,6057c54e64b0b4e5c128b4f9,605ad8d3348c4426becd306d,Spain,Northeast,13 or older,no,2021-03-24_02h49.15.982,empathy_intonation_perc,2020.2.10,Windows,60,,,,,,,,,,1,,,,,,,,,,,,,,,,,,,,,,,,,,,,,,,,,,,,,,,,59,besar,,,1,1,10.202355,0,28,28,58,1,REAL,FAKE,,,,,,,,,,,,,,,,,,,,,
,,,,,,,5f53927e3a8bb66b0f07d471,6057c54e64b0b4e5c128b4f9,605ad8d3348c4426becd306d,Spain,Northeast,13 or older,no,2021-03-24_02h49.15.982,empathy_intonation_perc,2020.2.10,Windows,60,,,,,,,,,,0,,,,,,,,,,,,,,,,,,,,,,,,,,,,,,,,,,,,,,,,79,tropaje,,,1,0,62.0813,0,29,29,78,1,REAL,FAKE,,,,,,,,,,,,,,,,,,,,,
,,,,,,,5f53927e3a8bb66b0f07d471,6057c54e64b0b4e5c128b4f9,605ad8d3348c4426becd306d,Spain,Northeast,13 or older,no,2021-03-24_02h49.15.982,empathy_intonation_perc,2020.2.10,Windows,60,,,,,,,,,,1,,,,,,,,,,,,,,,,,,,,,,,,,,,,,,,,,,,,,,,,41,rebuscar,,,1,1,21.14429,0,30,30,40,1,REAL,FAKE,,,,,,,,,,,,,,,,,,,,,
,,,,,,,5f53927e3a8bb66b0f07d471,6057c54e64b0b4e5c128b4f9,605ad8d3348c4426becd306d,Spain,Northeast,13 or older,no,2021-03-24_02h49.15.982,empathy_intonation_perc,2020.2.10,Windows,60,,,,,,,,,,1,,,,,,,,,,,,,,,,,,,,,,,,,,,,,,,,,,,,,,,,46,martillo,,,1,1,13.34627,0,31,31,45,1,REAL,FAKE,,,,,,,,,,,,,,,,,,,,,
,,,,,,,5f53927e3a8bb66b0f07d471,6057c54e64b0b4e5c128b4f9,605ad8d3348c4426becd306d,Spain,Northeast,13 or older,no,2021-03-24_02h49.15.982,empathy_intonation_perc,2020.2.10,Windows,60,,,,,,,,,,1,,,,,,,,,,,,,,,,,,,,,,,,,,,,,,,,,,,,,,,,71,polvoriento,,,1,1,11.211875,0,32,32,70,1,REAL,FAKE,,,,,,,,,,,,,,,,,,,,,
,,,,,,,5f53927e3a8bb66b0f07d471,6057c54e64b0b4e5c128b4f9,605ad8d3348c4426becd306d,Spain,Northeast,13 or older,no,2021-03-24_02h49.15.982,empathy_intonation_perc,2020.2.10,Windows,60,,,,,,,,,,0,,,,,,,,,,,,,,,,,,,,,,,,,,,,,,,,,,,,,,,,53,vegada,,,0,1,13.85878,0,33,33,52,1,REAL,FAKE,,,,,,,,,,,,,,,,,,,,,
,,,,,,,5f53927e3a8bb66b0f07d471,6057c54e64b0b4e5c128b4f9,605ad8d3348c4426becd306d,Spain,Northeast,13 or older,no,2021-03-24_02h49.15.982,empathy_intonation_perc,2020.2.10,Windows,60,,,,,,,,,,0,,,,,,,,,,,,,,,,,,,,,,,,,,,,,,,,,,,,,,,,30,alardio,,,1,0,10.47266,0,34,34,29,1,REAL,FAKE,,,,,,,,,,,,,,,,,,,,,
,,,,,,,5f53927e3a8bb66b0f07d471,6057c54e64b0b4e5c128b4f9,605ad8d3348c4426becd306d,Spain,Northeast,13 or older,no,2021-03-24_02h49.15.982,empathy_intonation_perc,2020.2.10,Windows,60,,,,,,,,,,1,,,,,,,,,,,,,,,,,,,,,,,,,,,,,,,,,,,,,,,,62,flaco,,,1,1,9.132205,0,35,35,61,1,REAL,FAKE,,,,,,,,,,,,,,,,,,,,,
,,,,,,,5f53927e3a8bb66b0f07d471,6057c54e64b0b4e5c128b4f9,605ad8d3348c4426becd306d,Spain,Northeast,13 or older,no,2021-03-24_02h49.15.982,empathy_intonation_perc,2020.2.10,Windows,60,,,,,,,,,,1,,,,,,,,,,,,,,,,,,,,,,,,,,,,,,,,,,,,,,,,13,helar,,,1,1,9.39599,0,36,36,12,1,REAL,FAKE,,,,,,,,,,,,,,,,,,,,,
,,,,,,,5f53927e3a8bb66b0f07d471,6057c54e64b0b4e5c128b4f9,605ad8d3348c4426becd306d,Spain,Northeast,13 or older,no,2021-03-24_02h49.15.982,empathy_intonation_perc,2020.2.10,Windows,60,,,,,,,,,,1,,,,,,,,,,,,,,,,,,,,,,,,,,,,,,,,,,,,,,,,81,pozo,,,1,1,11.400875,0,37,37,80,1,REAL,FAKE,,,,,,,,,,,,,,,,,,,,,
,,,,,,,5f53927e3a8bb66b0f07d471,6057c54e64b0b4e5c128b4f9,605ad8d3348c4426becd306d,Spain,Northeast,13 or older,no,2021-03-24_02h49.15.982,empathy_intonation_perc,2020.2.10,Windows,60,,,,,,,,,,1,,,,,,,,,,,,,,,,,,,,,,,,,,,,,,,,,,,,,,,,52,camisa,,,1,1,9.49129,0,38,38,51,1,REAL,FAKE,,,,,,,,,,,,,,,,,,,,,
,,,,,,,5f53927e3a8bb66b0f07d471,6057c54e64b0b4e5c128b4f9,605ad8d3348c4426becd306d,Spain,Northeast,13 or older,no,2021-03-24_02h49.15.982,empathy_intonation_perc,2020.2.10,Windows,60,,,,,,,,,,1,,,,,,,,,,,,,,,,,,,,,,,,,,,,,,,,,,,,,,,,65,bizcocho,,,1,1,10.02626,0,39,39,64,1,REAL,FAKE,,,,,,,,,,,,,,,,,,,,,
,,,,,,,5f53927e3a8bb66b0f07d471,6057c54e64b0b4e5c128b4f9,605ad8d3348c4426becd306d,Spain,Northeast,13 or older,no,2021-03-24_02h49.15.982,empathy_intonation_perc,2020.2.10,Windows,60,,,,,,,,,,1,,,,,,,,,,,,,,,,,,,,,,,,,,,,,,,,,,,,,,,,54,fomentar,,,1,1,9.673025,0,40,40,53,1,REAL,FAKE,,,,,,,,,,,,,,,,,,,,,
,,,,,,,5f53927e3a8bb66b0f07d471,6057c54e64b0b4e5c128b4f9,605ad8d3348c4426becd306d,Spain,Northeast,13 or older,no,2021-03-24_02h49.15.982,empathy_intonation_perc,2020.2.10,Windows,60,,,,,,,,,,1,,,,,,,,,,,,,,,,,,,,,,,,,,,,,,,,,,,,,,,,24,ltigo,,,1,1,9.262905,0,41,41,23,1,REAL,FAKE,,,,,,,,,,,,,,,,,,,,,
,,,,,,,5f53927e3a8bb66b0f07d471,6057c54e64b0b4e5c128b4f9,605ad8d3348c4426becd306d,Spain,Northeast,13 or older,no,2021-03-24_02h49.15.982,empathy_intonation_perc,2020.2.10,Windows,60,,,,,,,,,,0,,,,,,,,,,,,,,,,,,,,,,,,,,,,,,,,,,,,,,,,16,abracer,,,1,0,14.203,0,42,42,15,1,REAL,FAKE,,,,,,,,,,,,,,,,,,,,,
,,,,,,,5f53927e3a8bb66b0f07d471,6057c54e64b0b4e5c128b4f9,605ad8d3348c4426becd306d,Spain,Northeast,13 or older,no,2021-03-24_02h49.15.982,empathy_intonation_perc,2020.2.10,Windows,60,,,,,,,,,,0,,,,,,,,,,,,,,,,,,,,,,,,,,,,,,,,,,,,,,,,29,decar,,,1,0,9.099815,0,43,43,28,1,REAL,FAKE,,,,,,,,,,,,,,,,,,,,,
,,,,,,,5f53927e3a8bb66b0f07d471,6057c54e64b0b4e5c128b4f9,605ad8d3348c4426becd306d,Spain,Northeast,13 or older,no,2021-03-24_02h49.15.982,empathy_intonation_perc,2020.2.10,Windows,60,,,,,,,,,,1,,,,,,,,,,,,,,,,,,,,,,,,,,,,,,,,,,,,,,,,55,nevar,,,1,1,9.8986,0,44,44,54,1,REAL,FAKE,,,,,,,,,,,,,,,,,,,,,
,,,,,,,5f53927e3a8bb66b0f07d471,6057c54e64b0b4e5c128b4f9,605ad8d3348c4426becd306d,Spain,Northeast,13 or older,no,2021-03-24_02h49.15.982,empathy_intonation_perc,2020.2.10,Windows,60,,,,,,,,,,1,,,,,,,,,,,,,,,,,,,,,,,,,,,,,,,,,,,,,,,,64,orgulloso,,,1,1,6.371815,0,45,45,63,1,REAL,FAKE,,,,,,,,,,,,,,,,,,,,,
,,,,,,,5f53927e3a8bb66b0f07d471,6057c54e64b0b4e5c128b4f9,605ad8d3348c4426becd306d,Spain,Northeast,13 or older,no,2021-03-24_02h49.15.982,empathy_intonation_perc,2020.2.10,Windows,60,,,,,,,,,,1,,,,,,,,,,,,,,,,,,,,,,,,,,,,,,,,,,,,,,,,36,loro,,,1,1,6.60756,0,46,46,35,1,REAL,FAKE,,,,,,,,,,,,,,,,,,,,,
,,,,,,,5f53927e3a8bb66b0f07d471,6057c54e64b0b4e5c128b4f9,605ad8d3348c4426becd306d,Spain,Northeast,13 or older,no,2021-03-24_02h49.15.982,empathy_intonation_perc,2020.2.10,Windows,60,,,,,,,,,,1,,,,,,,,,,,,,,,,,,,,,,,,,,,,,,,,,,,,,,,,14,yunque,,,1,1,5.82592,0,47,47,13,1,REAL,FAKE,,,,,,,,,,,,,,,,,,,,,
,,,,,,,5f53927e3a8bb66b0f07d471,6057c54e64b0b4e5c128b4f9,605ad8d3348c4426becd306d,Spain,Northeast,13 or older,no,2021-03-24_02h49.15.982,empathy_intonation_perc,2020.2.10,Windows,60,,,,,,,,,,0,,,,,,,,,,,,,,,,,,,,,,,,,,,,,,,,,,,,,,,,74,cintro,,,0,1,8.64828,0,48,48,73,1,REAL,FAKE,,,,,,,,,,,,,,,,,,,,,
,,,,,,,5f53927e3a8bb66b0f07d471,6057c54e64b0b4e5c128b4f9,605ad8d3348c4426becd306d,Spain,Northeast,13 or older,no,2021-03-24_02h49.15.982,empathy_intonation_perc,2020.2.10,Windows,60,,,,,,,,,,0,,,,,,,,,,,,,,,,,,,,,,,,,,,,,,,,,,,,,,,,21,capillo,,,1,0,30.344835,0,49,49,20,1,REAL,FAKE,,,,,,,,,,,,,,,,,,,,,
,,,,,,,5f53927e3a8bb66b0f07d471,6057c54e64b0b4e5c128b4f9,605ad8d3348c4426becd306d,Spain,Northeast,13 or older,no,2021-03-24_02h49.15.982,empathy_intonation_perc,2020.2.10,Windows,60,,,,,,,,,,0,,,,,,,,,,,,,,,,,,,,,,,,,,,,,,,,,,,,,,,,27,acutacin,,,1,0,15.0047,0,50,50,26,1,REAL,FAKE,,,,,,,,,,,,,,,,,,,,,
,,,,,,,5f53927e3a8bb66b0f07d471,6057c54e64b0b4e5c128b4f9,605ad8d3348c4426becd306d,Spain,Northeast,13 or older,no,2021-03-24_02h49.15.982,empathy_intonation_perc,2020.2.10,Windows,60,,,,,,,,,,1,,,,,,,,,,,,,,,,,,,,,,,,,,,,,,,,,,,,,,,,39,torpe,,,1,1,26.647965,0,51,51,38,1,REAL,FAKE,,,,,,,,,,,,,,,,,,,,,
,,,,,,,5f53927e3a8bb66b0f07d471,6057c54e64b0b4e5c128b4f9,605ad8d3348c4426becd306d,Spain,Northeast,13 or older,no,2021-03-24_02h49.15.982,empathy_intonation_perc,2020.2.10,Windows,60,,,,,,,,,,1,,,,,,,,,,,,,,,,,,,,,,,,,,,,,,,,,,,,,,,,78,frondoso,,,1,1,11.878865,0,52,52,77,1,REAL,FAKE,,,,,,,,,,,,,,,,,,,,,
,,,,,,,5f53927e3a8bb66b0f07d471,6057c54e64b0b4e5c128b4f9,605ad8d3348c4426becd306d,Spain,Northeast,13 or older,no,2021-03-24_02h49.15.982,empathy_intonation_perc,2020.2.10,Windows,60,,,,,,,,,,1,,,,,,,,,,,,,,,,,,,,,,,,,,,,,,,,,,,,,,,,43,canela,,,1,1,10.395225,0,53,53,42,1,REAL,FAKE,,,,,,,,,,,,,,,,,,,,,
,,,,,,,5f53927e3a8bb66b0f07d471,6057c54e64b0b4e5c128b4f9,605ad8d3348c4426becd306d,Spain,Northeast,13 or older,no,2021-03-24_02h49.15.982,empathy_intonation_perc,2020.2.10,Windows,60,,,,,,,,,,1,,,,,,,,,,,,,,,,,,,,,,,,,,,,,,,,,,,,,,,,89,prisa,,,1,1,8.34986,0,54,54,88,1,REAL,FAKE,,,,,,,,,,,,,,,,,,,,,
,,,,,,,5f53927e3a8bb66b0f07d471,6057c54e64b0b4e5c128b4f9,605ad8d3348c4426becd306d,Spain,Northeast,13 or older,no,2021-03-24_02h49.15.982,empathy_intonation_perc,2020.2.10,Windows,60,,,,,,,,,,1,,,,,,,,,,,,,,,,,,,,,,,,,,,,,,,,,,,,,,,,25,bisagra,,,1,1,7.84906,0,55,55,24,1,REAL,FAKE,,,,,,,,,,,,,,,,,,,,,
,,,,,,,5f53927e3a8bb66b0f07d471,6057c54e64b0b4e5c128b4f9,605ad8d3348c4426becd306d,Spain,Northeast,13 or older,no,2021-03-24_02h49.15.982,empathy_intonation_perc,2020.2.10,Windows,60,,,,,,,,,,1,,,,,,,,,,,,,,,,,,,,,,,,,,,,,,,,,,,,,,,,75,yacer,,,1,1,9.5888,0,56,56,74,1,REAL,FAKE,,,,,,,,,,,,,,,,,,,,,
,,,,,,,5f53927e3a8bb66b0f07d471,6057c54e64b0b4e5c128b4f9,605ad8d3348c4426becd306d,Spain,Northeast,13 or older,no,2021-03-24_02h49.15.982,empathy_intonation_perc,2020.2.10,Windows,60,,,,,,,,,,1,,,,,,,,,,,,,,,,,,,,,,,,,,,,,,,,,,,,,,,,9,hacha,,,1,1,9.344585,0,57,57,8,1,REAL,FAKE,,,,,,,,,,,,,,,,,,,,,
,,,,,,,5f53927e3a8bb66b0f07d471,6057c54e64b0b4e5c128b4f9,605ad8d3348c4426becd306d,Spain,Northeast,13 or older,no,2021-03-24_02h49.15.982,empathy_intonation_perc,2020.2.10,Windows,60,,,,,,,,,,1,,,,,,,,,,,,,,,,,,,,,,,,,,,,,,,,,,,,,,,,38,estornudar,,,1,1,15.92242,0,58,58,37,1,REAL,FAKE,,,,,,,,,,,,,,,,,,,,,
,,,,,,,5f53927e3a8bb66b0f07d471,6057c54e64b0b4e5c128b4f9,605ad8d3348c4426becd306d,Spain,Northeast,13 or older,no,2021-03-24_02h49.15.982,empathy_intonation_perc,2020.2.10,Windows,60,,,,,,,,,,0,,,,,,,,,,,,,,,,,,,,,,,,,,,,,,,,,,,,,,,,19,brecedad,,,1,0,8.231845,0,59,59,18,1,REAL,FAKE,,,,,,,,,,,,,,,,,,,,,
,,,,,,,5f53927e3a8bb66b0f07d471,6057c54e64b0b4e5c128b4f9,605ad8d3348c4426becd306d,Spain,Northeast,13 or older,no,2021-03-24_02h49.15.982,empathy_intonation_perc,2020.2.10,Windows,60,,,,,,,,,,0,,,,,,,,,,,,,,,,,,,,,,,,,,,,,,,,,,,,,,,,33,pauca,,,0,1,13.023695,0,60,60,32,1,REAL,FAKE,,,,,,,,,,,,,,,,,,,,,
,,,,,,,5f53927e3a8bb66b0f07d471,6057c54e64b0b4e5c128b4f9,605ad8d3348c4426becd306d,Spain,Northeast,13 or older,no,2021-03-24_02h49.15.982,empathy_intonation_perc,2020.2.10,Windows,60,,,,,,,,,,1,,,,,,,,,,,,,,,,,,,,,,,,,,,,,,,,,,,,,,,,49,ganar,,,1,1,16.2069,0,61,61,48,1,REAL,FAKE,,,,,,,,,,,,,,,,,,,,,
,,,,,,,5f53927e3a8bb66b0f07d471,6057c54e64b0b4e5c128b4f9,605ad8d3348c4426becd306d,Spain,Northeast,13 or older,no,2021-03-24_02h49.15.982,empathy_intonation_perc,2020.2.10,Windows,60,,,,,,,,,,1,,,,,,,,,,,,,,,,,,,,,,,,,,,,,,,,,,,,,,,,88,acantilado,,,1,1,18.1413,0,62,62,87,1,REAL,FAKE,,,,,,,,,,,,,,,,,,,,,
,,,,,,,5f53927e3a8bb66b0f07d471,6057c54e64b0b4e5c128b4f9,605ad8d3348c4426becd306d,Spain,Northeast,13 or older,no,2021-03-24_02h49.15.982,empathy_intonation_perc,2020.2.10,Windows,60,,,,,,,,,,0,,,,,,,,,,,,,,,,,,,,,,,,,,,,,,,,,,,,,,,,82,empirador,,,0,1,11.400445,0,63,63,81,1,REAL,FAKE,,,,,,,,,,,,,,,,,,,,,
,,,,,,,5f53927e3a8bb66b0f07d471,6057c54e64b0b4e5c128b4f9,605ad8d3348c4426becd306d,Spain,Northeast,13 or older,no,2021-03-24_02h49.15.982,empathy_intonation_perc,2020.2.10,Windows,60,,,,,,,,,,1,,,,,,,,,,,,,,,,,,,,,,,,,,,,,,,,,,,,,,,,28,merodear,,,1,1,7.950275,0,64,64,27,1,REAL,FAKE,,,,,,,,,,,,,,,,,,,,,
,,,,,,,5f53927e3a8bb66b0f07d471,6057c54e64b0b4e5c128b4f9,605ad8d3348c4426becd306d,Spain,Northeast,13 or older,no,2021-03-24_02h49.15.982,empathy_intonation_perc,2020.2.10,Windows,60,,,,,,,,,,0,,,,,,,,,,,,,,,,,,,,,,,,,,,,,,,,,,,,,,,,50,flamida,,,1,0,10.123635,0,65,65,49,1,REAL,FAKE,,,,,,,,,,,,,,,,,,,,,
,,,,,,,5f53927e3a8bb66b0f07d471,6057c54e64b0b4e5c128b4f9,605ad8d3348c4426becd306d,Spain,Northeast,13 or older,no,2021-03-24_02h49.15.982,empathy_intonation_perc,2020.2.10,Windows,60,,,,,,,,,,0,,,,,,,,,,,,,,,,,,,,,,,,,,,,,,,,,,,,,,,,70,temblo,,,1,0,9.27931,0,66,66,69,1,REAL,FAKE,,,,,,,,,,,,,,,,,,,,,
,,,,,,,5f53927e3a8bb66b0f07d471,6057c54e64b0b4e5c128b4f9,605ad8d3348c4426becd306d,Spain,Northeast,13 or older,no,2021-03-24_02h49.15.982,empathy_intonation_perc,2020.2.10,Windows,60,,,,,,,,,,0,,,,,,,,,,,,,,,,,,,,,,,,,,,,,,,,,,,,,,,,4,batilln,,,0,1,11.97298,0,67,67,3,1,REAL,FAKE,,,,,,,,,,,,,,,,,,,,,
,,,,,,,5f53927e3a8bb66b0f07d471,6057c54e64b0b4e5c128b4f9,605ad8d3348c4426becd306d,Spain,Northeast,13 or older,no,2021-03-24_02h49.15.982,empathy_intonation_perc,2020.2.10,Windows,60,,,,,,,,,,1,,,,,,,,,,,,,,,,,,,,,,,,,,,,,,,,,,,,,,,,51,candado,,,1,1,9.21721,0,68,68,50,1,REAL,FAKE,,,,,,,,,,,,,,,,,,,,,
,,,,,,,5f53927e3a8bb66b0f07d471,6057c54e64b0b4e5c128b4f9,605ad8d3348c4426becd306d,Spain,Northeast,13 or older,no,2021-03-24_02h49.15.982,empathy_intonation_perc,2020.2.10,Windows,60,,,,,,,,,,0,,,,,,,,,,,,,,,,,,,,,,,,,,,,,,,,,,,,,,,,8,cadea,,,1,0,9.92565,0,69,69,7,1,REAL,FAKE,,,,,,,,,,,,,,,,,,,,,
,,,,,,,5f53927e3a8bb66b0f07d471,6057c54e64b0b4e5c128b4f9,605ad8d3348c4426becd306d,Spain,Northeast,13 or older,no,2021-03-24_02h49.15.982,empathy_intonation_perc,2020.2.10,Windows,60,,,,,,,,,,1,,,,,,,,,,,,,,,,,,,,,,,,,,,,,,,,,,,,,,,,26,secuestro,,,1,1,9.74959,0,70,70,25,1,REAL,FAKE,,,,,,,,,,,,,,,,,,,,,
,,,,,,,5f53927e3a8bb66b0f07d471,6057c54e64b0b4e5c128b4f9,605ad8d3348c4426becd306d,Spain,Northeast,13 or older,no,2021-03-24_02h49.15.982,empathy_intonation_perc,2020.2.10,Windows,60,,,,,,,,,,1,,,,,,,,,,,,,,,,,,,,,,,,,,,,,,,,,,,,,,,,86,barato,,,1,1,20.17501,0,71,71,85,1,REAL,FAKE,,,,,,,,,,,,,,,,,,,,,
,,,,,,,5f53927e3a8bb66b0f07d471,6057c54e64b0b4e5c128b4f9,605ad8d3348c4426becd306d,Spain,Northeast,13 or older,no,2021-03-24_02h49.15.982,empathy_intonation_perc,2020.2.10,Windows,60,,,,,,,,,,1,,,,,,,,,,,,,,,,,,,,,,,,,,,,,,,,,,,,,,,,12,asesinato,,,1,1,80.25643,0,72,72,11,1,REAL,FAKE,,,,,,,,,,,,,,,,,,,,,
,,,,,,,5f53927e3a8bb66b0f07d471,6057c54e64b0b4e5c128b4f9,605ad8d3348c4426becd306d,Spain,Northeast,13 or older,no,2021-03-24_02h49.15.982,empathy_intonation_perc,2020.2.10,Windows,60,,,,,,,,,,0,,,,,,,,,,,,,,,,,,,,,,,,,,,,,,,,,,,,,,,,87,grodo,,,0,1,23.57516,0,73,73,86,1,REAL,FAKE,,,,,,,,,,,,,,,,,,,,,
,,,,,,,5f53927e3a8bb66b0f07d471,6057c54e64b0b4e5c128b4f9,605ad8d3348c4426becd306d,Spain,Northeast,13 or older,no,2021-03-24_02h49.15.982,empathy_intonation_perc,2020.2.10,Windows,60,,,,,,,,,,1,,,,,,,,,,,,,,,,,,,,,,,,,,,,,,,,,,,,,,,,2,pellizcar,,,1,1,129.39206,0,74,74,1,1,REAL,FAKE,,,,,,,,,,,,,,,,,,,,,
,,,,,,,5f53927e3a8bb66b0f07d471,6057c54e64b0b4e5c128b4f9,605ad8d3348c4426becd306d,Spain,Northeast,13 or older,no,2021-03-24_02h49.15.982,empathy_intonation_perc,2020.2.10,Windows,60,,,,,,,,,,0,,,,,,,,,,,,,,,,,,,,,,,,,,,,,,,,,,,,,,,,18,arsa,,,0,1,11.131915,0,75,75,17,1,REAL,FAKE,,,,,,,,,,,,,,,,,,,,,
,,,,,,,5f53927e3a8bb66b0f07d471,6057c54e64b0b4e5c128b4f9,605ad8d3348c4426becd306d,Spain,Northeast,13 or older,no,2021-03-24_02h49.15.982,empathy_intonation_perc,2020.2.10,Windows,60,,,,,,,,,,0,,,,,,,,,,,,,,,,,,,,,,,,,,,,,,,,,,,,,,,,23,lampera,,,0,1,10.209965,0,76,76,22,1,REAL,FAKE,,,,,,,,,,,,,,,,,,,,,
,,,,,,,5f53927e3a8bb66b0f07d471,6057c54e64b0b4e5c128b4f9,605ad8d3348c4426becd306d,Spain,Northeast,13 or older,no,2021-03-24_02h49.15.982,empathy_intonation_perc,2020.2.10,Windows,60,,,,,,,,,,0,,,,,,,,,,,,,,,,,,,,,,,,,,,,,,,,,,,,,,,,32,fatacidad,,,1,0,19.651205,0,77,77,31,1,REAL,FAKE,,,,,,,,,,,,,,,,,,,,,
,,,,,,,5f53927e3a8bb66b0f07d471,6057c54e64b0b4e5c128b4f9,605ad8d3348c4426becd306d,Spain,Northeast,13 or older,no,2021-03-24_02h49.15.982,empathy_intonation_perc,2020.2.10,Windows,60,,,,,,,,,,1,,,,,,,,,,,,,,,,,,,,,,,,,,,,,,,,,,,,,,,,34,aviso,,,1,1,34.151965,0,78,78,33,1,REAL,FAKE,,,,,,,,,,,,,,,,,,,,,
,,,,,,,5f53927e3a8bb66b0f07d471,6057c54e64b0b4e5c128b4f9,605ad8d3348c4426becd306d,Spain,Northeast,13 or older,no,2021-03-24_02h49.15.982,empathy_intonation_perc,2020.2.10,Windows,60,,,,,,,,,,1,,,,,,,,,,,,,,,,,,,,,,,,,,,,,,,,,,,,,,,,67,cabello,,,1,1,16.129745,0,79,79,66,1,REAL,FAKE,,,,,,,,,,,,,,,,,,,,,
,,,,,,,5f53927e3a8bb66b0f07d471,6057c54e64b0b4e5c128b4f9,605ad8d3348c4426becd306d,Spain,Northeast,13 or older,no,2021-03-24_02h49.15.982,empathy_intonation_perc,2020.2.10,Windows,60,,,,,,,,,,1,,,,,,,,,,,,,,,,,,,,,,,,,,,,,,,,,,,,,,,,7,psimo,,,1,1,12.347995,0,80,80,6,1,REAL,FAKE,,,,,,,,,,,,,,,,,,,,,
,,,,,,,5f53927e3a8bb66b0f07d471,6057c54e64b0b4e5c128b4f9,605ad8d3348c4426becd306d,Spain,Northeast,13 or older,no,2021-03-24_02h49.15.982,empathy_intonation_perc,2020.2.10,Windows,60,,,,,,,,,,1,,,,,,,,,,,,,,,,,,,,,,,,,,,,,,,,,,,,,,,,60,matar,,,1,1,15.58057,0,81,81,59,1,REAL,FAKE,,,,,,,,,,,,,,,,,,,,,
,,,,,,,5f53927e3a8bb66b0f07d471,6057c54e64b0b4e5c128b4f9,605ad8d3348c4426becd306d,Spain,Northeast,13 or older,no,2021-03-24_02h49.15.982,empathy_intonation_perc,2020.2.10,Windows,60,,,,,,,,,,1,,,,,,,,,,,,,,,,,,,,,,,,,,,,,,,,,,,,,,,,31,pandilla,,,1,1,11.25503,0,82,82,30,1,REAL,FAKE,,,,,,,,,,,,,,,,,,,,,
,,,,,,,5f53927e3a8bb66b0f07d471,6057c54e64b0b4e5c128b4f9,605ad8d3348c4426becd306d,Spain,Northeast,13 or older,no,2021-03-24_02h49.15.982,empathy_intonation_perc,2020.2.10,Windows,60,,,,,,,,,,0,,,,,,,,,,,,,,,,,,,,,,,,,,,,,,,,,,,,,,,,63,esposante,,,1,0,21.85263,0,83,83,62,1,REAL,FAKE,,,,,,,,,,,,,,,,,,,,,
,,,,,,,5f53927e3a8bb66b0f07d471,6057c54e64b0b4e5c128b4f9,605ad8d3348c4426becd306d,Spain,Northeast,13 or older,no,2021-03-24_02h49.15.982,empathy_intonation_perc,2020.2.10,Windows,60,,,,,,,,,,1,,,,,,,,,,,,,,,,,,,,,,,,,,,,,,,,,,,,,,,,76,atar,,,1,1,10.22857,0,84,84,75,1,REAL,FAKE,,,,,,,,,,,,,,,,,,,,,
,,,,,,,5f53927e3a8bb66b0f07d471,6057c54e64b0b4e5c128b4f9,605ad8d3348c4426becd306d,Spain,Northeast,13 or older,no,2021-03-24_02h49.15.982,empathy_intonation_perc,2020.2.10,Windows,60,,,,,,,,,,1,,,,,,,,,,,,,,,,,,,,,,,,,,,,,,,,,,,,,,,,83,guante,,,1,1,7.727145,0,85,85,82,1,REAL,FAKE,,,,,,,,,,,,,,,,,,,,,
,,,,,,,5f53927e3a8bb66b0f07d471,6057c54e64b0b4e5c128b4f9,605ad8d3348c4426becd306d,Spain,Northeast,13 or older,no,2021-03-24_02h49.15.982,empathy_intonation_perc,2020.2.10,Windows,60,,,,,,,,,,1,,,,,,,,,,,,,,,,,,,,,,,,,,,,,,,,,,,,,,,,69,engatusar,,,1,1,14.377655,0,86,86,68,1,REAL,FAKE,,,,,,,,,,,,,,,,,,,,,
,,,,,,,5f53927e3a8bb66b0f07d471,6057c54e64b0b4e5c128b4f9,605ad8d3348c4426becd306d,Spain,Northeast,13 or older,no,2021-03-24_02h49.15.982,empathy_intonation_perc,2020.2.10,Windows,60,,,,,,,,,,1,,,,,,,,,,,,,,,,,,,,,,,,,,,,,,,,,,,,,,,,15,regar,,,1,1,14.600295,0,87,87,14,1,REAL,FAKE,,,,,,,,,,,,,,,,,,,,,
,,,,,,,5f53927e3a8bb66b0f07d471,6057c54e64b0b4e5c128b4f9,605ad8d3348c4426becd306d,Spain,Northeast,13 or older,no,2021-03-24_02h49.15.982,empathy_intonation_perc,2020.2.10,Windows,60,,,,,,,,,,1,,,,,,,,,,,,,,,,,,,,,,,,,,,,,,,,,,,,,,,,85,lad,,,1,1,12.398265,0,88,88,84,1,REAL,FAKE,,,,,,,,,,,,,,,,,,,,,
,,,,,,,5f53927e3a8bb66b0f07d471,6057c54e64b0b4e5c128b4f9,605ad8d3348c4426becd306d,Spain,Northeast,13 or older,no,2021-03-24_02h49.15.982,empathy_intonation_perc,2020.2.10,Windows,60,,,,,,,,,,0,,,,,,,,,,,,,,,,,,,,,,,,,,,,,,,,,,,,,,,,42,cadallo,,,1,0,11.55384,0,89,89,41,1,REAL,FAKE,,,,,,,,,,,,,,,,,,,,,
,,,,,,,5f53927e3a8bb66b0f07d471,6057c54e64b0b4e5c128b4f9,605ad8d3348c4426becd306d,Spain,Northeast,13 or older,no,2021-03-24_02h49.15.982,empathy_intonation_perc,2020.2.10,Windows,60,,,,,,,,,,,,,,,,,,,,,,,,,,,,,,,,,,,,,,,,,,,,,,,,,,,,,,,,,,,,,,,,4,1,3.757595,1,0,0,0,0,0,1,,,,,,,,,,,
,,,,,,,5f53927e3a8bb66b0f07d471,6057c54e64b0b4e5c128b4f9,605ad8d3348c4426becd306d,Spain,Northeast,13 or older,no,2021-03-24_02h49.15.982,empathy_intonation_perc,2020.2.10,Windows,60,,,,,,,,,,,,,,,,,,,,1,,,,,,,,,,,,,,,,,,,,,,,,,,,,,,,,,,,,,,,,,,,,,,,,,,,,,,3,0,0,0,0,1,I can easily tell if someone else wants to enter a conversation.,1,0,1,0
,,,,,,,5f53927e3a8bb66b0f07d471,6057c54e64b0b4e5c128b4f9,605ad8d3348c4426becd306d,Spain,Northeast,13 or older,no,2021-03-24_02h49.15.982,empathy_intonation_perc,2020.2.10,Windows,60,,,,,,,,,,,,,,,,,,,,2,,,,,,,,,,,,,,,,,,,,,,,,,,,,,,,,,,,,,,,,,,,,,,,,,,,,,,3,0,1,1,1,1,I prefer animals to humans.,0,1,0,0
,,,,,,,5f53927e3a8bb66b0f07d471,6057c54e64b0b4e5c128b4f9,605ad8d3348c4426becd306d,Spain,Northeast,13 or older,no,2021-03-24_02h49.15.982,empathy_intonation_perc,2020.2.10,Windows,60,,,,,,,,,,,,,,,,,,,,3,,,,,,,,,,,,,,,,,,,,,,,,,,,,,,,,,,,,,,,,,,,,,,,,,,,,,,2,0,2,2,2,1,I try to keep up with the current trends and fashions.,0,1,0,0
,,,,,,,5f53927e3a8bb66b0f07d471,6057c54e64b0b4e5c128b4f9,605ad8d3348c4426becd306d,Spain,Northeast,13 or older,no,2021-03-24_02h49.15.982,empathy_intonation_perc,2020.2.10,Windows,60,,,,,,,,,,,,,,,,,,,,4,,,,,,,,,,,,,,,,,,,,,,,,,,,,,,,,,,,,,,,,,,,,,,,,,,,,,,4,0,3,3,3,1,"I find it difficult to explain to others things that I understand easily, 
  when they dont understand it first time.",1,0,0,1
,,,,,,,5f53927e3a8bb66b0f07d471,6057c54e64b0b4e5c128b4f9,605ad8d3348c4426becd306d,Spain,Northeast,13 or older,no,2021-03-24_02h49.15.982,empathy_intonation_perc,2020.2.10,Windows,60,,,,,,,,,,,,,,,,,,,,5,,,,,,,,,,,,,,,,,,,,,,,,,,,,,,,,,,,,,,,,,,,,,,,,,,,,,,2,0,4,4,4,1,I dream most nights.,0,1,0,0
,,,,,,,5f53927e3a8bb66b0f07d471,6057c54e64b0b4e5c128b4f9,605ad8d3348c4426becd306d,Spain,Northeast,13 or older,no,2021-03-24_02h49.15.982,empathy_intonation_perc,2020.2.10,Windows,60,,,,,,,,,,,,,,,,,,,,6,,,,,,,,,,,,,,,,,,,,,,,,,,,,,,,,,,,,,,,,,,,,,,,,,,,,,,1,0,5,5,5,1,I really enjoy caring for other people.,1,0,1,0
,,,,,,,5f53927e3a8bb66b0f07d471,6057c54e64b0b4e5c128b4f9,605ad8d3348c4426becd306d,Spain,Northeast,13 or older,no,2021-03-24_02h49.15.982,empathy_intonation_perc,2020.2.10,Windows,60,,,,,,,,,,,,,,,,,,,,7,,,,,,,,,,,,,,,,,,,,,,,,,,,,,,,,,,,,,,,,,,,,,,,,,,,,,,2,0,6,6,6,1,I try to solve my own problems rather than discussing them with others.,0,1,0,0
