instructions_2afc_loop.thisRepN,instructions_2afc_loop.thisTrialN,instructions_2afc_loop.thisN,instructions_2afc_loop.thisIndex,instructions_2afc_loop.ran,instructions_text,continue_text,participant,study_id,session,I am most familiar with Spanish from...*,What part of the US are you from?*,At what age did you begin learning Spanish?*,Are you proficient in any languages other than English/Spanish?*,date,expName,psychopyVersion,OS,frameRate,key_resp_2afc_practice.keys,key_resp_2afc_practice.corr,key_resp_2afc_practice.rt,trials_2afc_practice_loop.thisRepN,trials_2afc_practice_loop.thisTrialN,trials_2afc_practice_loop.thisN,trials_2afc_practice_loop.thisIndex,trials_2afc_practice_loop.ran,path,correct_response,the_col,key_resp_2afc_trial.keys,key_resp_2afc_trial.corr,key_resp_2afc_trial.rt,trials_2afc_loop.thisRepN,trials_2afc_loop.thisTrialN,trials_2afc_loop.thisN,trials_2afc_loop.thisIndex,trials_2afc_loop.ran,item_num,andalusian,argentine,castilian,chilean,cuban,mexican,peruvian,puertorican,key_resp_ac1.keys,key_resp_ac1.corr,key_resp_ac1.rt,ac1_loop.thisRepN,ac1_loop.thisTrialN,ac1_loop.thisN,ac1_loop.thisIndex,ac1_loop.ran,instructions_lextale_loop.thisRepN,instructions_lextale_loop.thisTrialN,instructions_lextale_loop.thisN,instructions_lextale_loop.thisIndex,instructions_lextale_loop.ran,key_resp_lextale_practice.keys,key_resp_lextale_practice.corr,key_resp_lextale_practice.rt,trials_lextale_practice_loop.thisRepN,trials_lextale_practice_loop.thisTrialN,trials_lextale_practice_loop.thisN,trials_lextale_practice_loop.thisIndex,trials_lextale_practice_loop.ran,stim,word,prac_button_real,prac_button_false,key_resp_lextale_trial.keys,key_resp_lextale_trial.corr,key_resp_lextale_trial.rt,trials_lextale_loop.thisRepN,trials_lextale_loop.thisTrialN,trials_lextale_loop.thisN,trials_lextale_loop.thisIndex,trials_lextale_loop.ran,button_real,button_false,key_resp_ac2.keys,key_resp_ac2.corr,key_resp_ac2.rt,check_pass,check_fails,ac2_loop.thisRepN,ac2_loop.thisTrialN,ac2_loop.thisN,ac2_loop.thisIndex,ac2_loop.ran,slider_eq_trial.response,trials_eq_loop.thisRepN,trials_eq_loop.thisTrialN,trials_eq_loop.thisN,trials_eq_loop.thisIndex,trials_eq_loop.ran,item,is_test_item,is_distractor,is_agree_score,is_disagree_score
0,0,0,0,1,"In the following task you are going to hear a series of utterances. 

  You will decide if the utterances sound like questions or not using your keyboard.",(press the spacebar to continue),5f6bc8e8a9a9b4134c8719b4,6057c54e64b0b4e5c128b4f9,605846052b4e5756397443fe,United States,Northeast,13 or older,no,2021-03-22_03h59.56.982,empathy_intonation_perc,2020.2.10,Win32,60,,,,,,,,,,,,,,,,,,,,,,,,,,,,,,,,,,,,,,,,,,,,,,,,,,,,,,,,,,,,,,,,,,,,,,,,,,,,,,,,,,,,
0,1,1,1,1,"If you believe the utterance is a question, type '1' (for 'yes') and if you do not 
  believe it is a question type '0' (for 'no').

  Let's practice a bit...",(press the spacebar to continue),5f6bc8e8a9a9b4134c8719b4,6057c54e64b0b4e5c128b4f9,605846052b4e5756397443fe,United States,Northeast,13 or older,no,2021-03-22_03h59.56.982,empathy_intonation_perc,2020.2.10,Win32,60,,,,,,,,,,,,,,,,,,,,,,,,,,,,,,,,,,,,,,,,,,,,,,,,,,,,,,,,,,,,,,,,,,,,,,,,,,,,,,,,,,,,
,,,,,,,5f6bc8e8a9a9b4134c8719b4,6057c54e64b0b4e5c128b4f9,605846052b4e5756397443fe,United States,Northeast,13 or older,no,2021-03-22_03h59.56.982,empathy_intonation_perc,2020.2.10,Win32,60,0,1,2.956495,0,0,0,5,1,./stim/wavs/andalusian_statement_filler_Alberto-nunca-se-afeita.wav,0,,,,,,,,,,,,,,,,,,,,,,,,,,,,,,,,,,,,,,,,,,,,,,,,,,,,,,,,,,,,,,,,,,,,,,,,,,
,,,,,,,5f6bc8e8a9a9b4134c8719b4,6057c54e64b0b4e5c128b4f9,605846052b4e5756397443fe,United States,Northeast,13 or older,no,2021-03-22_03h59.56.982,empathy_intonation_perc,2020.2.10,Win32,60,0,1,2.051385,0,1,1,4,1,./stim/wavs/cuban_statement_filler_Cocinabas-por-la-noche.wav,0,,,,,,,,,,,,,,,,,,,,,,,,,,,,,,,,,,,,,,,,,,,,,,,,,,,,,,,,,,,,,,,,,,,,,,,,,,
,,,,,,,5f6bc8e8a9a9b4134c8719b4,6057c54e64b0b4e5c128b4f9,605846052b4e5756397443fe,United States,Northeast,13 or older,no,2021-03-22_03h59.56.982,empathy_intonation_perc,2020.2.10,Win32,60,1,1,1.70756,0,2,2,3,1,./stim/wavs/mexican_question_filler_Felipe-no-tiene-contrasena.wav,1,,,,,,,,,,,,,,,,,,,,,,,,,,,,,,,,,,,,,,,,,,,,,,,,,,,,,,,,,,,,,,,,,,,,,,,,,,
,,,,,,,5f6bc8e8a9a9b4134c8719b4,6057c54e64b0b4e5c128b4f9,605846052b4e5756397443fe,United States,Northeast,13 or older,no,2021-03-22_03h59.56.982,empathy_intonation_perc,2020.2.10,Win32,60,1,1,2.113805,0,3,3,0,1,./stim/wavs/castilian_question_filler_Mi-esposo-conoce-al-chico.wav,1,,,,,,,,,,,,,,,,,,,,,,,,,,,,,,,,,,,,,,,,,,,,,,,,,,,,,,,,,,,,,,,,,,,,,,,,,,
,,,,,,,5f6bc8e8a9a9b4134c8719b4,6057c54e64b0b4e5c128b4f9,605846052b4e5756397443fe,United States,Northeast,13 or older,no,2021-03-22_03h59.56.982,empathy_intonation_perc,2020.2.10,Win32,60,0,1,1.744185,0,4,4,7,1,./stim/wavs/puertorican_statement_filler_La-nina-pinta-con-su-amiga.wav,0,,,,,,,,,,,,,,,,,,,,,,,,,,,,,,,,,,,,,,,,,,,,,,,,,,,,,,,,,,,,,,,,,,,,,,,,,,
,,,,,,,5f6bc8e8a9a9b4134c8719b4,6057c54e64b0b4e5c128b4f9,605846052b4e5756397443fe,United States,Northeast,13 or older,no,2021-03-22_03h59.56.982,empathy_intonation_perc,2020.2.10,Win32,60,1,1,1.68591,0,5,5,2,1,./stim/wavs/chilean_question_filler_Mi-padre-cantaba-bien.wav,1,,,,,,,,,,,,,,,,,,,,,,,,,,,,,,,,,,,,,,,,,,,,,,,,,,,,,,,,,,,,,,,,,,,,,,,,,,
,,,,,,,5f6bc8e8a9a9b4134c8719b4,6057c54e64b0b4e5c128b4f9,605846052b4e5756397443fe,United States,Northeast,13 or older,no,2021-03-22_03h59.56.982,empathy_intonation_perc,2020.2.10,Win32,60,1,1,1.394805,0,6,6,1,1,./stim/wavs/argentine_question_filler_Mi-vecino-habla-mucho.wav,1,,,,,,,,,,,,,,,,,,,,,,,,,,,,,,,,,,,,,,,,,,,,,,,,,,,,,,,,,,,,,,,,,,,,,,,,,,
,,,,,,,5f6bc8e8a9a9b4134c8719b4,6057c54e64b0b4e5c128b4f9,605846052b4e5756397443fe,United States,Northeast,13 or older,no,2021-03-22_03h59.56.982,empathy_intonation_perc,2020.2.10,Win32,60,0,1,2.180175,0,7,7,6,1,./stim/wavs/peruvian_statement_filler_El-nino-habla-con-su-madre.wav,0,,,,,,,,,,,,,,,,,,,,,,,,,,,,,,,,,,,,,,,,,,,,,,,,,,,,,,,,,,,,,,,,,,,,,,,,,,
,,,,,,,5f6bc8e8a9a9b4134c8719b4,6057c54e64b0b4e5c128b4f9,605846052b4e5756397443fe,United States,Northeast,13 or older,no,2021-03-22_03h59.56.982,empathy_intonation_perc,2020.2.10,Win32,60,,,,,,,,,,0,andalusian,0,1,1.47162,0,0,0,13,1,14,./stim/wavs/andalusian_match_declarative-narrow-focus_Maria-bebe-el-vino.wav,./stim/wavs/argentine_match_declarative-narrow-focus_Maria-bebe-el-vino.wav,./stim/wavs/castilian_match_declarative-narrow-focus_Maria-bebe-el-vino.wav,./stim/wavs/chilean_match_declarative-narrow-focus_Maria-bebe-el-vino.wav,./stim/wavs/cuban_match_declarative-narrow-focus_Maria-bebe-el-vino.wav,./stim/wavs/mexican_match_declarative-narrow-focus_Maria-bebe-el-vino.wav,./stim/wavs/peruvian_match_declarative-narrow-focus_Maria-bebe-el-vino.wav,./stim/wavs/puertorican_match_declarative-narrow-focus_Maria-bebe-el-vino.wav,,,,,,,,,,,,,,,,,,,,,,,,,,,,,,,,,,,,,,,,,,,,,,,,,,,,,,,,
,,,,,,,5f6bc8e8a9a9b4134c8719b4,6057c54e64b0b4e5c128b4f9,605846052b4e5756397443fe,United States,Northeast,13 or older,no,2021-03-22_03h59.56.982,empathy_intonation_perc,2020.2.10,Win32,60,,,,,,,,,,1,argentine,0,0,1.668325,0,1,1,49,1,50,./stim/wavs/andalusian_mismatch_interrogative-partial-wh_Cuando-lavaba-el-plato.wav,./stim/wavs/argentine_mismatch_interrogative-partial-wh_Cuando-lavaba-el-plato.wav,./stim/wavs/castilian_mismatch_interrogative-partial-wh_Cuando-lavaba-el-plato.wav,./stim/wavs/chilean_mismatch_interrogative-partial-wh_Cuando-lavaba-el-plato.wav,./stim/wavs/cuban_mismatch_interrogative-partial-wh_Cuando-lavaba-el-plato.wav,./stim/wavs/mexican_mismatch_interrogative-partial-wh_Cuando-lavaba-el-plato.wav,./stim/wavs/peruvian_mismatch_interrogative-partial-wh_Cuando-lavaba-el-plato.wav,./stim/wavs/puertorican_mismatch_interrogative-partial-wh_Cuando-lavaba-el-plato.wav,,,,,,,,,,,,,,,,,,,,,,,,,,,,,,,,,,,,,,,,,,,,,,,,,,,,,,,,
,,,,,,,5f6bc8e8a9a9b4134c8719b4,6057c54e64b0b4e5c128b4f9,605846052b4e5756397443fe,United States,Northeast,13 or older,no,2021-03-22_03h59.56.982,empathy_intonation_perc,2020.2.10,Win32,60,,,,,,,,,,0,castilian,0,1,2.070485,0,2,2,14,1,15,./stim/wavs/andalusian_match_declarative-narrow-focus_Mariano-habla-del-tiempo.wav,./stim/wavs/argentine_match_declarative-narrow-focus_Mariano-habla-del-tiempo.wav,./stim/wavs/castilian_match_declarative-narrow-focus_Mariano-habla-del-tiempo.wav,./stim/wavs/chilean_match_declarative-narrow-focus_Mariano-habla-del-tiempo.wav,./stim/wavs/cuban_match_declarative-narrow-focus_Mariano-habla-del-tiempo.wav,./stim/wavs/mexican_match_declarative-narrow-focus_Mariano-habla-del-tiempo.wav,./stim/wavs/peruvian_match_declarative-narrow-focus_Mariano-habla-del-tiempo.wav,./stim/wavs/puertorican_match_declarative-narrow-focus_Mariano-habla-del-tiempo.wav,,,,,,,,,,,,,,,,,,,,,,,,,,,,,,,,,,,,,,,,,,,,,,,,,,,,,,,,
,,,,,,,5f6bc8e8a9a9b4134c8719b4,6057c54e64b0b4e5c128b4f9,605846052b4e5756397443fe,United States,Northeast,13 or older,no,2021-03-22_03h59.56.982,empathy_intonation_perc,2020.2.10,Win32,60,,,,,,,,,,1,andalusian,1,1,1.50208,0,3,3,26,1,27,./stim/wavs/andalusian_match_interrogative-total-yn_David-leia-el-libro.wav,./stim/wavs/argentine_match_interrogative-total-yn_David-leia-el-libro.wav,./stim/wavs/castilian_match_interrogative-total-yn_David-leia-el-libro.wav,./stim/wavs/chilean_match_interrogative-total-yn_David-leia-el-libro.wav,./stim/wavs/cuban_match_interrogative-total-yn_David-leia-el-libro.wav,./stim/wavs/mexican_match_interrogative-total-yn_David-leia-el-libro.wav,./stim/wavs/peruvian_match_interrogative-total-yn_David-leia-el-libro.wav,./stim/wavs/puertorican_match_interrogative-total-yn_David-leia-el-libro.wav,,,,,,,,,,,,,,,,,,,,,,,,,,,,,,,,,,,,,,,,,,,,,,,,,,,,,,,,
,,,,,,,5f6bc8e8a9a9b4134c8719b4,6057c54e64b0b4e5c128b4f9,605846052b4e5756397443fe,United States,Northeast,13 or older,no,2021-03-22_03h59.56.982,empathy_intonation_perc,2020.2.10,Win32,60,,,,,,,,,,1,puertorican,0,0,1.74722,0,4,4,27,1,28,./stim/wavs/andalusian_match_interrogative-total-yn_Emilio-ama-la-marcha.wav,./stim/wavs/argentine_match_interrogative-total-yn_Emilio-ama-la-marcha.wav,./stim/wavs/castilian_match_interrogative-total-yn_Emilio-ama-la-marcha.wav,./stim/wavs/chilean_match_interrogative-total-yn_Emilio-ama-la-marcha.wav,./stim/wavs/cuban_match_interrogative-total-yn_Emilio-ama-la-marcha.wav,./stim/wavs/mexican_match_interrogative-total-yn_Emilio-ama-la-marcha.wav,./stim/wavs/peruvian_match_interrogative-total-yn_Emilio-ama-la-marcha.wav,./stim/wavs/puertorican_match_interrogative-total-yn_Emilio-ama-la-marcha.wav,,,,,,,,,,,,,,,,,,,,,,,,,,,,,,,,,,,,,,,,,,,,,,,,,,,,,,,,
,,,,,,,5f6bc8e8a9a9b4134c8719b4,6057c54e64b0b4e5c128b4f9,605846052b4e5756397443fe,United States,Northeast,13 or older,no,2021-03-22_03h59.56.982,empathy_intonation_perc,2020.2.10,Win32,60,,,,,,,,,,1,andalusian,1,1,1.428725,0,5,5,25,1,26,./stim/wavs/andalusian_match_interrogative-total-yn_Daniel-iba-a-Bolivia.wav,./stim/wavs/argentine_match_interrogative-total-yn_Daniel-iba-a-Bolivia.wav,./stim/wavs/castilian_match_interrogative-total-yn_Daniel-iba-a-Bolivia.wav,./stim/wavs/chilean_match_interrogative-total-yn_Daniel-iba-a-Bolivia.wav,./stim/wavs/cuban_match_interrogative-total-yn_Daniel-iba-a-Bolivia.wav,./stim/wavs/mexican_match_interrogative-total-yn_Daniel-iba-a-Bolivia.wav,./stim/wavs/peruvian_match_interrogative-total-yn_Daniel-iba-a-Bolivia.wav,./stim/wavs/puertorican_match_interrogative-total-yn_Daniel-iba-a-Bolivia.wav,,,,,,,,,,,,,,,,,,,,,,,,,,,,,,,,,,,,,,,,,,,,,,,,,,,,,,,,
,,,,,,,5f6bc8e8a9a9b4134c8719b4,6057c54e64b0b4e5c128b4f9,605846052b4e5756397443fe,United States,Northeast,13 or older,no,2021-03-22_03h59.56.982,empathy_intonation_perc,2020.2.10,Win32,60,,,,,,,,,,0,castilian,0,1,1.70173,0,6,6,7,1,8,./stim/wavs/andalusian_match_declarative-broad-focus_Marta-abre-el-regalo.wav,./stim/wavs/argentine_match_declarative-broad-focus_Marta-abre-el-regalo.wav,./stim/wavs/castilian_match_declarative-broad-focus_Marta-abre-el-regalo.wav,./stim/wavs/chilean_match_declarative-broad-focus_Marta-abre-el-regalo.wav,./stim/wavs/cuban_match_declarative-broad-focus_Marta-abre-el-regalo.wav,./stim/wavs/mexican_match_declarative-broad-focus_Marta-abre-el-regalo.wav,./stim/wavs/peruvian_match_declarative-broad-focus_Marta-abre-el-regalo.wav,./stim/wavs/puertorican_match_declarative-broad-focus_Marta-abre-el-regalo.wav,,,,,,,,,,,,,,,,,,,,,,,,,,,,,,,,,,,,,,,,,,,,,,,,,,,,,,,,
,,,,,,,5f6bc8e8a9a9b4134c8719b4,6057c54e64b0b4e5c128b4f9,605846052b4e5756397443fe,United States,Northeast,13 or older,no,2021-03-22_03h59.56.982,empathy_intonation_perc,2020.2.10,Win32,60,,,,,,,,,,0,andalusian,0,1,1.81959,0,7,7,4,1,5,./stim/wavs/andalusian_match_declarative-broad-focus_Manuela-vende-el-carro.wav,./stim/wavs/argentine_match_declarative-broad-focus_Manuela-vende-el-carro.wav,./stim/wavs/castilian_match_declarative-broad-focus_Manuela-vende-el-carro.wav,./stim/wavs/chilean_match_declarative-broad-focus_Manuela-vende-el-carro.wav,./stim/wavs/cuban_match_declarative-broad-focus_Manuela-vende-el-carro.wav,./stim/wavs/mexican_match_declarative-broad-focus_Manuela-vende-el-carro.wav,./stim/wavs/peruvian_match_declarative-broad-focus_Manuela-vende-el-carro.wav,./stim/wavs/puertorican_match_declarative-broad-focus_Manuela-vende-el-carro.wav,,,,,,,,,,,,,,,,,,,,,,,,,,,,,,,,,,,,,,,,,,,,,,,,,,,,,,,,
,,,,,,,5f6bc8e8a9a9b4134c8719b4,6057c54e64b0b4e5c128b4f9,605846052b4e5756397443fe,United States,Northeast,13 or older,no,2021-03-22_03h59.56.982,empathy_intonation_perc,2020.2.10,Win32,60,,,,,,,,,,0,peruvian,0,1,1.78331,0,8,8,33,1,34,./stim/wavs/andalusian_mismatch_declarative-broad-focus_El-hombre-mira-la-luna.wav,./stim/wavs/argentine_mismatch_declarative-broad-focus_El-hombre-mira-la-luna.wav,./stim/wavs/castilian_mismatch_declarative-broad-focus_El-hombre-mira-la-luna.wav,./stim/wavs/chilean_mismatch_declarative-broad-focus_El-hombre-mira-la-luna.wav,./stim/wavs/cuban_mismatch_declarative-broad-focus_El-hombre-mira-la-luna.wav,./stim/wavs/mexican_mismatch_declarative-broad-focus_El-hombre-mira-la-luna.wav,./stim/wavs/peruvian_mismatch_declarative-broad-focus_El-hombre-mira-la-luna.wav,./stim/wavs/puertorican_mismatch_declarative-broad-focus_El-hombre-mira-la-luna.wav,,,,,,,,,,,,,,,,,,,,,,,,,,,,,,,,,,,,,,,,,,,,,,,,,,,,,,,,
,,,,,,,5f6bc8e8a9a9b4134c8719b4,6057c54e64b0b4e5c128b4f9,605846052b4e5756397443fe,United States,Northeast,13 or older,no,2021-03-22_03h59.56.982,empathy_intonation_perc,2020.2.10,Win32,60,,,,,,,,,,0,peruvian,0,1,1.819035,0,9,9,44,1,45,./stim/wavs/andalusian_mismatch_declarative-narrow-focus_La-nina-lava-el-plato.wav,./stim/wavs/argentine_mismatch_declarative-narrow-focus_La-nina-lava-el-plato.wav,./stim/wavs/castilian_mismatch_declarative-narrow-focus_La-nina-lava-el-plato.wav,./stim/wavs/chilean_mismatch_declarative-narrow-focus_La-nina-lava-el-plato.wav,./stim/wavs/cuban_mismatch_declarative-narrow-focus_La-nina-lava-el-plato.wav,./stim/wavs/mexican_mismatch_declarative-narrow-focus_La-nina-lava-el-plato.wav,./stim/wavs/peruvian_mismatch_declarative-narrow-focus_La-nina-lava-el-plato.wav,./stim/wavs/puertorican_mismatch_declarative-narrow-focus_La-nina-lava-el-plato.wav,,,,,,,,,,,,,,,,,,,,,,,,,,,,,,,,,,,,,,,,,,,,,,,,,,,,,,,,
,,,,,,,5f6bc8e8a9a9b4134c8719b4,6057c54e64b0b4e5c128b4f9,605846052b4e5756397443fe,United States,Northeast,13 or older,no,2021-03-22_03h59.56.982,empathy_intonation_perc,2020.2.10,Win32,60,,,,,,,,,,1,cuban,0,0,1.789065,0,10,10,56,1,57,./stim/wavs/andalusian_mismatch_interrogative-total-yn_El-bebe-comia-muy-bien.wav,./stim/wavs/argentine_mismatch_interrogative-total-yn_El-bebe-comia-muy-bien.wav,./stim/wavs/castilian_mismatch_interrogative-total-yn_El-bebe-comia-muy-bien.wav,./stim/wavs/chilean_mismatch_interrogative-total-yn_El-bebe-comia-muy-bien.wav,./stim/wavs/cuban_mismatch_interrogative-total-yn_El-bebe-comia-muy-bien.wav,./stim/wavs/mexican_mismatch_interrogative-total-yn_El-bebe-comia-muy-bien.wav,./stim/wavs/peruvian_mismatch_interrogative-total-yn_El-bebe-comia-muy-bien.wav,./stim/wavs/puertorican_mismatch_interrogative-total-yn_El-bebe-comia-muy-bien.wav,,,,,,,,,,,,,,,,,,,,,,,,,,,,,,,,,,,,,,,,,,,,,,,,,,,,,,,,
,,,,,,,5f6bc8e8a9a9b4134c8719b4,6057c54e64b0b4e5c128b4f9,605846052b4e5756397443fe,United States,Northeast,13 or older,no,2021-03-22_03h59.56.982,empathy_intonation_perc,2020.2.10,Win32,60,,,,,,,,,,1,castilian,1,1,1.5263,0,11,11,22,1,23,./stim/wavs/andalusian_match_interrogative-partial-wh_Por-que-hablaba-del-agua.wav,./stim/wavs/argentine_match_interrogative-partial-wh_Por-que-hablaba-del-agua.wav,./stim/wavs/castilian_match_interrogative-partial-wh_Por-que-hablaba-del-agua.wav,./stim/wavs/chilean_match_interrogative-partial-wh_Por-que-hablaba-del-agua.wav,./stim/wavs/cuban_match_interrogative-partial-wh_Por-que-hablaba-del-agua.wav,./stim/wavs/mexican_match_interrogative-partial-wh_Por-que-hablaba-del-agua.wav,./stim/wavs/peruvian_match_interrogative-partial-wh_Por-que-hablaba-del-agua.wav,./stim/wavs/puertorican_match_interrogative-partial-wh_Por-que-hablaba-del-agua.wav,,,,,,,,,,,,,,,,,,,,,,,,,,,,,,,,,,,,,,,,,,,,,,,,,,,,,,,,
,,,,,,,5f6bc8e8a9a9b4134c8719b4,6057c54e64b0b4e5c128b4f9,605846052b4e5756397443fe,United States,Northeast,13 or older,no,2021-03-22_03h59.56.982,empathy_intonation_perc,2020.2.10,Win32,60,,,,,,,,,,1,andalusian,1,1,1.63614,0,12,12,59,1,60,./stim/wavs/andalusian_mismatch_interrogative-total-yn_La-maestra-vive-en-Paris.wav,./stim/wavs/argentine_mismatch_interrogative-total-yn_La-maestra-vive-en-Paris.wav,./stim/wavs/castilian_mismatch_interrogative-total-yn_La-maestra-vive-en-Paris.wav,./stim/wavs/chilean_mismatch_interrogative-total-yn_La-maestra-vive-en-Paris.wav,./stim/wavs/cuban_mismatch_interrogative-total-yn_La-maestra-vive-en-Paris.wav,./stim/wavs/mexican_mismatch_interrogative-total-yn_La-maestra-vive-en-Paris.wav,./stim/wavs/peruvian_mismatch_interrogative-total-yn_La-maestra-vive-en-Paris.wav,./stim/wavs/puertorican_mismatch_interrogative-total-yn_La-maestra-vive-en-Paris.wav,,,,,,,,,,,,,,,,,,,,,,,,,,,,,,,,,,,,,,,,,,,,,,,,,,,,,,,,
,,,,,,,5f6bc8e8a9a9b4134c8719b4,6057c54e64b0b4e5c128b4f9,605846052b4e5756397443fe,United States,Northeast,13 or older,no,2021-03-22_03h59.56.982,empathy_intonation_perc,2020.2.10,Win32,60,,,,,,,,,,0,puertorican,0,1,1.53095,0,13,13,10,1,11,./stim/wavs/andalusian_match_declarative-narrow-focus_David-leia-el-libro.wav,./stim/wavs/argentine_match_declarative-narrow-focus_David-leia-el-libro.wav,./stim/wavs/castilian_match_declarative-narrow-focus_David-leia-el-libro.wav,./stim/wavs/chilean_match_declarative-narrow-focus_David-leia-el-libro.wav,./stim/wavs/cuban_match_declarative-narrow-focus_David-leia-el-libro.wav,./stim/wavs/mexican_match_declarative-narrow-focus_David-leia-el-libro.wav,./stim/wavs/peruvian_match_declarative-narrow-focus_David-leia-el-libro.wav,./stim/wavs/puertorican_match_declarative-narrow-focus_David-leia-el-libro.wav,,,,,,,,,,,,,,,,,,,,,,,,,,,,,,,,,,,,,,,,,,,,,,,,,,,,,,,,
,,,,,,,5f6bc8e8a9a9b4134c8719b4,6057c54e64b0b4e5c128b4f9,605846052b4e5756397443fe,United States,Northeast,13 or older,no,2021-03-22_03h59.56.982,empathy_intonation_perc,2020.2.10,Win32,60,,,,,,,,,,1,puertorican,0,0,1.482765,0,14,14,21,1,22,./stim/wavs/andalusian_match_interrogative-partial-wh_Por-que-ama-la-navidad.wav,./stim/wavs/argentine_match_interrogative-partial-wh_Por-que-ama-la-navidad.wav,./stim/wavs/castilian_match_interrogative-partial-wh_Por-que-ama-la-navidad.wav,./stim/wavs/chilean_match_interrogative-partial-wh_Por-que-ama-la-navidad.wav,./stim/wavs/cuban_match_interrogative-partial-wh_Por-que-ama-la-navidad.wav,./stim/wavs/mexican_match_interrogative-partial-wh_Por-que-ama-la-navidad.wav,./stim/wavs/peruvian_match_interrogative-partial-wh_Por-que-ama-la-navidad.wav,./stim/wavs/puertorican_match_interrogative-partial-wh_Por-que-ama-la-navidad.wav,,,,,,,,,,,,,,,,,,,,,,,,,,,,,,,,,,,,,,,,,,,,,,,,,,,,,,,,
,,,,,,,5f6bc8e8a9a9b4134c8719b4,6057c54e64b0b4e5c128b4f9,605846052b4e5756397443fe,United States,Northeast,13 or older,no,2021-03-22_03h59.56.982,empathy_intonation_perc,2020.2.10,Win32,60,,,,,,,,,,1,puertorican,0,0,1.55396,0,15,15,51,1,52,./stim/wavs/andalusian_mismatch_interrogative-partial-wh_Por-que-desayuna-muy-bien.wav,./stim/wavs/argentine_mismatch_interrogative-partial-wh_Por-que-desayuna-muy-bien.wav,./stim/wavs/castilian_mismatch_interrogative-partial-wh_Por-que-desayuna-muy-bien.wav,./stim/wavs/chilean_mismatch_interrogative-partial-wh_Por-que-desayuna-muy-bien.wav,./stim/wavs/cuban_mismatch_interrogative-partial-wh_Por-que-desayuna-muy-bien.wav,./stim/wavs/mexican_mismatch_interrogative-partial-wh_Por-que-desayuna-muy-bien.wav,./stim/wavs/peruvian_mismatch_interrogative-partial-wh_Por-que-desayuna-muy-bien.wav,./stim/wavs/puertorican_mismatch_interrogative-partial-wh_Por-que-desayuna-muy-bien.wav,,,,,,,,,,,,,,,,,,,,,,,,,,,,,,,,,,,,,,,,,,,,,,,,,,,,,,,,
,,,,,,,5f6bc8e8a9a9b4134c8719b4,6057c54e64b0b4e5c128b4f9,605846052b4e5756397443fe,United States,Northeast,13 or older,no,2021-03-22_03h59.56.982,empathy_intonation_perc,2020.2.10,Win32,60,,,,,,,,,,1,chilean,1,1,1.635955,0,16,16,55,1,56,./stim/wavs/andalusian_mismatch_interrogative-partial-wh_Por-que-vivia-en-Paris.wav,./stim/wavs/argentine_mismatch_interrogative-partial-wh_Por-que-vivia-en-Paris.wav,./stim/wavs/castilian_mismatch_interrogative-partial-wh_Por-que-vivia-en-Paris.wav,./stim/wavs/chilean_mismatch_interrogative-partial-wh_Por-que-vivia-en-Paris.wav,./stim/wavs/cuban_mismatch_interrogative-partial-wh_Por-que-vivia-en-Paris.wav,./stim/wavs/mexican_mismatch_interrogative-partial-wh_Por-que-vivia-en-Paris.wav,./stim/wavs/peruvian_mismatch_interrogative-partial-wh_Por-que-vivia-en-Paris.wav,./stim/wavs/puertorican_mismatch_interrogative-partial-wh_Por-que-vivia-en-Paris.wav,,,,,,,,,,,,,,,,,,,,,,,,,,,,,,,,,,,,,,,,,,,,,,,,,,,,,,,,
,,,,,,,5f6bc8e8a9a9b4134c8719b4,6057c54e64b0b4e5c128b4f9,605846052b4e5756397443fe,United States,Northeast,13 or older,no,2021-03-22_03h59.56.982,empathy_intonation_perc,2020.2.10,Win32,60,,,,,,,,,,0,andalusian,0,1,1.88817,0,17,17,0,1,1,./stim/wavs/andalusian_match_declarative-broad-focus_Ana-lleva-el-abrigo.wav,./stim/wavs/argentine_match_declarative-broad-focus_Ana-lleva-el-abrigo.wav,./stim/wavs/castilian_match_declarative-broad-focus_Ana-lleva-el-abrigo.wav,./stim/wavs/chilean_match_declarative-broad-focus_Ana-lleva-el-abrigo.wav,./stim/wavs/cuban_match_declarative-broad-focus_Ana-lleva-el-abrigo.wav,./stim/wavs/mexican_match_declarative-broad-focus_Ana-lleva-el-abrigo.wav,./stim/wavs/peruvian_match_declarative-broad-focus_Ana-lleva-el-abrigo.wav,./stim/wavs/puertorican_match_declarative-broad-focus_Ana-lleva-el-abrigo.wav,,,,,,,,,,,,,,,,,,,,,,,,,,,,,,,,,,,,,,,,,,,,,,,,,,,,,,,,
,,,,,,,5f6bc8e8a9a9b4134c8719b4,6057c54e64b0b4e5c128b4f9,605846052b4e5756397443fe,United States,Northeast,13 or older,no,2021-03-22_03h59.56.982,empathy_intonation_perc,2020.2.10,Win32,60,,,,,,,,,,1,argentine,0,0,1.89133,0,18,18,28,1,29,./stim/wavs/andalusian_match_interrogative-total-yn_Manuela-vende-el-carro.wav,./stim/wavs/argentine_match_interrogative-total-yn_Manuela-vende-el-carro.wav,./stim/wavs/castilian_match_interrogative-total-yn_Manuela-vende-el-carro.wav,./stim/wavs/chilean_match_interrogative-total-yn_Manuela-vende-el-carro.wav,./stim/wavs/cuban_match_interrogative-total-yn_Manuela-vende-el-carro.wav,./stim/wavs/mexican_match_interrogative-total-yn_Manuela-vende-el-carro.wav,./stim/wavs/peruvian_match_interrogative-total-yn_Manuela-vende-el-carro.wav,./stim/wavs/puertorican_match_interrogative-total-yn_Manuela-vende-el-carro.wav,,,,,,,,,,,,,,,,,,,,,,,,,,,,,,,,,,,,,,,,,,,,,,,,,,,,,,,,
,,,,,,,5f6bc8e8a9a9b4134c8719b4,6057c54e64b0b4e5c128b4f9,605846052b4e5756397443fe,United States,Northeast,13 or older,no,2021-03-22_03h59.56.982,empathy_intonation_perc,2020.2.10,Win32,60,,,,,,,,,,1,mexican,0,0,1.817755,0,19,19,20,1,21,./stim/wavs/andalusian_match_interrogative-partial-wh_Por-que-abre-el-regalo.wav,./stim/wavs/argentine_match_interrogative-partial-wh_Por-que-abre-el-regalo.wav,./stim/wavs/castilian_match_interrogative-partial-wh_Por-que-abre-el-regalo.wav,./stim/wavs/chilean_match_interrogative-partial-wh_Por-que-abre-el-regalo.wav,./stim/wavs/cuban_match_interrogative-partial-wh_Por-que-abre-el-regalo.wav,./stim/wavs/mexican_match_interrogative-partial-wh_Por-que-abre-el-regalo.wav,./stim/wavs/peruvian_match_interrogative-partial-wh_Por-que-abre-el-regalo.wav,./stim/wavs/puertorican_match_interrogative-partial-wh_Por-que-abre-el-regalo.wav,,,,,,,,,,,,,,,,,,,,,,,,,,,,,,,,,,,,,,,,,,,,,,,,,,,,,,,,
,,,,,,,5f6bc8e8a9a9b4134c8719b4,6057c54e64b0b4e5c128b4f9,605846052b4e5756397443fe,United States,Northeast,13 or older,no,2021-03-22_03h59.56.982,empathy_intonation_perc,2020.2.10,Win32,60,,,,,,,,,,1,puertorican,0,0,1.566225,0,20,20,61,1,62,./stim/wavs/andalusian_mismatch_interrogative-total-yn_Mi-madre-come-la-fruta.wav,./stim/wavs/argentine_mismatch_interrogative-total-yn_Mi-madre-come-la-fruta.wav,./stim/wavs/castilian_mismatch_interrogative-total-yn_Mi-madre-come-la-fruta.wav,./stim/wavs/chilean_mismatch_interrogative-total-yn_Mi-madre-come-la-fruta.wav,./stim/wavs/cuban_mismatch_interrogative-total-yn_Mi-madre-come-la-fruta.wav,./stim/wavs/mexican_mismatch_interrogative-total-yn_Mi-madre-come-la-fruta.wav,./stim/wavs/peruvian_mismatch_interrogative-total-yn_Mi-madre-come-la-fruta.wav,./stim/wavs/puertorican_mismatch_interrogative-total-yn_Mi-madre-come-la-fruta.wav,,,,,,,,,,,,,,,,,,,,,,,,,,,,,,,,,,,,,,,,,,,,,,,,,,,,,,,,
,,,,,,,5f6bc8e8a9a9b4134c8719b4,6057c54e64b0b4e5c128b4f9,605846052b4e5756397443fe,United States,Northeast,13 or older,no,2021-03-22_03h59.56.982,empathy_intonation_perc,2020.2.10,Win32,60,,,,,,,,,,0,peruvian,0,1,1.60108,0,21,21,5,1,6,./stim/wavs/andalusian_match_declarative-broad-focus_Maria-bebe-el-vino.wav,./stim/wavs/argentine_match_declarative-broad-focus_Maria-bebe-el-vino.wav,./stim/wavs/castilian_match_declarative-broad-focus_Maria-bebe-el-vino.wav,./stim/wavs/chilean_match_declarative-broad-focus_Maria-bebe-el-vino.wav,./stim/wavs/cuban_match_declarative-broad-focus_Maria-bebe-el-vino.wav,./stim/wavs/mexican_match_declarative-broad-focus_Maria-bebe-el-vino.wav,./stim/wavs/peruvian_match_declarative-broad-focus_Maria-bebe-el-vino.wav,./stim/wavs/puertorican_match_declarative-broad-focus_Maria-bebe-el-vino.wav,,,,,,,,,,,,,,,,,,,,,,,,,,,,,,,,,,,,,,,,,,,,,,,,,,,,,,,,
,,,,,,,5f6bc8e8a9a9b4134c8719b4,6057c54e64b0b4e5c128b4f9,605846052b4e5756397443fe,United States,Northeast,13 or older,no,2021-03-22_03h59.56.982,empathy_intonation_perc,2020.2.10,Win32,60,,,,,,,,,,0,peruvian,0,1,1.60762,0,22,22,2,1,3,./stim/wavs/andalusian_match_declarative-broad-focus_David-leia-el-libro.wav,./stim/wavs/argentine_match_declarative-broad-focus_David-leia-el-libro.wav,./stim/wavs/castilian_match_declarative-broad-focus_David-leia-el-libro.wav,./stim/wavs/chilean_match_declarative-broad-focus_David-leia-el-libro.wav,./stim/wavs/cuban_match_declarative-broad-focus_David-leia-el-libro.wav,./stim/wavs/mexican_match_declarative-broad-focus_David-leia-el-libro.wav,./stim/wavs/peruvian_match_declarative-broad-focus_David-leia-el-libro.wav,./stim/wavs/puertorican_match_declarative-broad-focus_David-leia-el-libro.wav,,,,,,,,,,,,,,,,,,,,,,,,,,,,,,,,,,,,,,,,,,,,,,,,,,,,,,,,
,,,,,,,5f6bc8e8a9a9b4134c8719b4,6057c54e64b0b4e5c128b4f9,605846052b4e5756397443fe,United States,Northeast,13 or older,no,2021-03-22_03h59.56.982,empathy_intonation_perc,2020.2.10,Win32,60,,,,,,,,,,0,mexican,0,1,1.586535,0,23,23,3,1,4,./stim/wavs/andalusian_match_declarative-broad-focus_Emilio-ama-la-marcha.wav,./stim/wavs/argentine_match_declarative-broad-focus_Emilio-ama-la-marcha.wav,./stim/wavs/castilian_match_declarative-broad-focus_Emilio-ama-la-marcha.wav,./stim/wavs/chilean_match_declarative-broad-focus_Emilio-ama-la-marcha.wav,./stim/wavs/cuban_match_declarative-broad-focus_Emilio-ama-la-marcha.wav,./stim/wavs/mexican_match_declarative-broad-focus_Emilio-ama-la-marcha.wav,./stim/wavs/peruvian_match_declarative-broad-focus_Emilio-ama-la-marcha.wav,./stim/wavs/puertorican_match_declarative-broad-focus_Emilio-ama-la-marcha.wav,,,,,,,,,,,,,,,,,,,,,,,,,,,,,,,,,,,,,,,,,,,,,,,,,,,,,,,,
,,,,,,,5f6bc8e8a9a9b4134c8719b4,6057c54e64b0b4e5c128b4f9,605846052b4e5756397443fe,United States,Northeast,13 or older,no,2021-03-22_03h59.56.982,empathy_intonation_perc,2020.2.10,Win32,60,,,,,,,,,,1,peruvian,1,1,1.662015,0,24,24,29,1,30,./stim/wavs/andalusian_match_interrogative-total-yn_Maria-bebe-el-vino.wav,./stim/wavs/argentine_match_interrogative-total-yn_Maria-bebe-el-vino.wav,./stim/wavs/castilian_match_interrogative-total-yn_Maria-bebe-el-vino.wav,./stim/wavs/chilean_match_interrogative-total-yn_Maria-bebe-el-vino.wav,./stim/wavs/cuban_match_interrogative-total-yn_Maria-bebe-el-vino.wav,./stim/wavs/mexican_match_interrogative-total-yn_Maria-bebe-el-vino.wav,./stim/wavs/peruvian_match_interrogative-total-yn_Maria-bebe-el-vino.wav,./stim/wavs/puertorican_match_interrogative-total-yn_Maria-bebe-el-vino.wav,,,,,,,,,,,,,,,,,,,,,,,,,,,,,,,,,,,,,,,,,,,,,,,,,,,,,,,,
,,,,,,,5f6bc8e8a9a9b4134c8719b4,6057c54e64b0b4e5c128b4f9,605846052b4e5756397443fe,United States,Northeast,13 or older,no,2021-03-22_03h59.56.982,empathy_intonation_perc,2020.2.10,Win32,60,,,,,,,,,,0,chilean,0,1,1.50841,0,25,25,41,1,42,./stim/wavs/andalusian_mismatch_declarative-narrow-focus_El-hombre-mira-la-luna.wav,./stim/wavs/argentine_mismatch_declarative-narrow-focus_El-hombre-mira-la-luna.wav,./stim/wavs/castilian_mismatch_declarative-narrow-focus_El-hombre-mira-la-luna.wav,./stim/wavs/chilean_mismatch_declarative-narrow-focus_El-hombre-mira-la-luna.wav,./stim/wavs/cuban_mismatch_declarative-narrow-focus_El-hombre-mira-la-luna.wav,./stim/wavs/mexican_mismatch_declarative-narrow-focus_El-hombre-mira-la-luna.wav,./stim/wavs/peruvian_mismatch_declarative-narrow-focus_El-hombre-mira-la-luna.wav,./stim/wavs/puertorican_mismatch_declarative-narrow-focus_El-hombre-mira-la-luna.wav,,,,,,,,,,,,,,,,,,,,,,,,,,,,,,,,,,,,,,,,,,,,,,,,,,,,,,,,
,,,,,,,5f6bc8e8a9a9b4134c8719b4,6057c54e64b0b4e5c128b4f9,605846052b4e5756397443fe,United States,Northeast,13 or older,no,2021-03-22_03h59.56.982,empathy_intonation_perc,2020.2.10,Win32,60,,,,,,,,,,0,andalusian,0,1,1.635805,0,26,26,45,1,46,./stim/wavs/andalusian_mismatch_declarative-narrow-focus_Mi-madre-come-la-fruta.wav,./stim/wavs/argentine_mismatch_declarative-narrow-focus_Mi-madre-come-la-fruta.wav,./stim/wavs/castilian_mismatch_declarative-narrow-focus_Mi-madre-come-la-fruta.wav,./stim/wavs/chilean_mismatch_declarative-narrow-focus_Mi-madre-come-la-fruta.wav,./stim/wavs/cuban_mismatch_declarative-narrow-focus_Mi-madre-come-la-fruta.wav,./stim/wavs/mexican_mismatch_declarative-narrow-focus_Mi-madre-come-la-fruta.wav,./stim/wavs/peruvian_mismatch_declarative-narrow-focus_Mi-madre-come-la-fruta.wav,./stim/wavs/puertorican_mismatch_declarative-narrow-focus_Mi-madre-come-la-fruta.wav,,,,,,,,,,,,,,,,,,,,,,,,,,,,,,,,,,,,,,,,,,,,,,,,,,,,,,,,
,,,,,,,5f6bc8e8a9a9b4134c8719b4,6057c54e64b0b4e5c128b4f9,605846052b4e5756397443fe,United States,Northeast,13 or older,no,2021-03-22_03h59.56.982,empathy_intonation_perc,2020.2.10,Win32,60,,,,,,,,,,1,cuban,0,0,1.654135,0,27,27,60,1,61,./stim/wavs/andalusian_mismatch_interrogative-total-yn_La-nina-lava-el-plato.wav,./stim/wavs/argentine_mismatch_interrogative-total-yn_La-nina-lava-el-plato.wav,./stim/wavs/castilian_mismatch_interrogative-total-yn_La-nina-lava-el-plato.wav,./stim/wavs/chilean_mismatch_interrogative-total-yn_La-nina-lava-el-plato.wav,./stim/wavs/cuban_mismatch_interrogative-total-yn_La-nina-lava-el-plato.wav,./stim/wavs/mexican_mismatch_interrogative-total-yn_La-nina-lava-el-plato.wav,./stim/wavs/peruvian_mismatch_interrogative-total-yn_La-nina-lava-el-plato.wav,./stim/wavs/puertorican_mismatch_interrogative-total-yn_La-nina-lava-el-plato.wav,,,,,,,,,,,,,,,,,,,,,,,,,,,,,,,,,,,,,,,,,,,,,,,,,,,,,,,,
,,,,,,,5f6bc8e8a9a9b4134c8719b4,6057c54e64b0b4e5c128b4f9,605846052b4e5756397443fe,United States,Northeast,13 or older,no,2021-03-22_03h59.56.982,empathy_intonation_perc,2020.2.10,Win32,60,,,,,,,,,,1,castilian,1,1,1.55659,0,28,28,16,1,17,./stim/wavs/andalusian_match_interrogative-partial-wh_Cuando-bebia-el-vino.wav,./stim/wavs/argentine_match_interrogative-partial-wh_Cuando-bebia-el-vino.wav,./stim/wavs/castilian_match_interrogative-partial-wh_Cuando-bebia-el-vino.wav,./stim/wavs/chilean_match_interrogative-partial-wh_Cuando-bebia-el-vino.wav,./stim/wavs/cuban_match_interrogative-partial-wh_Cuando-bebia-el-vino.wav,./stim/wavs/mexican_match_interrogative-partial-wh_Cuando-bebia-el-vino.wav,./stim/wavs/peruvian_match_interrogative-partial-wh_Cuando-bebia-el-vino.wav,./stim/wavs/puertorican_match_interrogative-partial-wh_Cuando-bebia-el-vino.wav,,,,,,,,,,,,,,,,,,,,,,,,,,,,,,,,,,,,,,,,,,,,,,,,,,,,,,,,
,,,,,,,5f6bc8e8a9a9b4134c8719b4,6057c54e64b0b4e5c128b4f9,605846052b4e5756397443fe,United States,Northeast,13 or older,no,2021-03-22_03h59.56.982,empathy_intonation_perc,2020.2.10,Win32,60,,,,,,,,,,0,argentine,0,1,1.634965,0,29,29,35,1,36,./stim/wavs/andalusian_mismatch_declarative-broad-focus_La-maestra-vive-en-Paris.wav,./stim/wavs/argentine_mismatch_declarative-broad-focus_La-maestra-vive-en-Paris.wav,./stim/wavs/castilian_mismatch_declarative-broad-focus_La-maestra-vive-en-Paris.wav,./stim/wavs/chilean_mismatch_declarative-broad-focus_La-maestra-vive-en-Paris.wav,./stim/wavs/cuban_mismatch_declarative-broad-focus_La-maestra-vive-en-Paris.wav,./stim/wavs/mexican_mismatch_declarative-broad-focus_La-maestra-vive-en-Paris.wav,./stim/wavs/peruvian_mismatch_declarative-broad-focus_La-maestra-vive-en-Paris.wav,./stim/wavs/puertorican_mismatch_declarative-broad-focus_La-maestra-vive-en-Paris.wav,,,,,,,,,,,,,,,,,,,,,,,,,,,,,,,,,,,,,,,,,,,,,,,,,,,,,,,,
,,,,,,,5f6bc8e8a9a9b4134c8719b4,6057c54e64b0b4e5c128b4f9,605846052b4e5756397443fe,United States,Northeast,13 or older,no,2021-03-22_03h59.56.982,empathy_intonation_perc,2020.2.10,Win32,60,,,,,,,,,,1,mexican,1,1,2.17531,0,30,30,19,1,20,./stim/wavs/andalusian_match_interrogative-partial-wh_Cuando-vendia-el-carro.wav,./stim/wavs/argentine_match_interrogative-partial-wh_Cuando-vendia-el-carro.wav,./stim/wavs/castilian_match_interrogative-partial-wh_Cuando-vendia-el-carro.wav,./stim/wavs/chilean_match_interrogative-partial-wh_Cuando-vendia-el-carro.wav,./stim/wavs/cuban_match_interrogative-partial-wh_Cuando-vendia-el-carro.wav,./stim/wavs/mexican_match_interrogative-partial-wh_Cuando-vendia-el-carro.wav,./stim/wavs/peruvian_match_interrogative-partial-wh_Cuando-vendia-el-carro.wav,./stim/wavs/puertorican_match_interrogative-partial-wh_Cuando-vendia-el-carro.wav,,,,,,,,,,,,,,,,,,,,,,,,,,,,,,,,,,,,,,,,,,,,,,,,,,,,,,,,
,,,,,,,5f6bc8e8a9a9b4134c8719b4,6057c54e64b0b4e5c128b4f9,605846052b4e5756397443fe,United States,Northeast,13 or older,no,2021-03-22_03h59.56.982,empathy_intonation_perc,2020.2.10,Win32,60,,,,,,,,,,0,castilian,0,1,1.65934,0,31,31,42,1,43,./stim/wavs/andalusian_mismatch_declarative-narrow-focus_El-nino-oye-el-rio.wav,./stim/wavs/argentine_mismatch_declarative-narrow-focus_El-nino-oye-el-rio.wav,./stim/wavs/castilian_mismatch_declarative-narrow-focus_El-nino-oye-el-rio.wav,./stim/wavs/chilean_mismatch_declarative-narrow-focus_El-nino-oye-el-rio.wav,./stim/wavs/cuban_mismatch_declarative-narrow-focus_El-nino-oye-el-rio.wav,./stim/wavs/mexican_mismatch_declarative-narrow-focus_El-nino-oye-el-rio.wav,./stim/wavs/peruvian_mismatch_declarative-narrow-focus_El-nino-oye-el-rio.wav,./stim/wavs/puertorican_mismatch_declarative-narrow-focus_El-nino-oye-el-rio.wav,,,,,,,,,,,,,,,,,,,,,,,,,,,,,,,,,,,,,,,,,,,,,,,,,,,,,,,,
,,,,,,,5f6bc8e8a9a9b4134c8719b4,6057c54e64b0b4e5c128b4f9,605846052b4e5756397443fe,United States,Northeast,13 or older,no,2021-03-22_03h59.56.982,empathy_intonation_perc,2020.2.10,Win32,60,,,,,,,,,,1,argentine,0,0,1.43059,0,32,32,18,1,19,./stim/wavs/andalusian_match_interrogative-partial-wh_Cuando-lleva-el-abrigo.wav,./stim/wavs/argentine_match_interrogative-partial-wh_Cuando-lleva-el-abrigo.wav,./stim/wavs/castilian_match_interrogative-partial-wh_Cuando-lleva-el-abrigo.wav,./stim/wavs/chilean_match_interrogative-partial-wh_Cuando-lleva-el-abrigo.wav,./stim/wavs/cuban_match_interrogative-partial-wh_Cuando-lleva-el-abrigo.wav,./stim/wavs/mexican_match_interrogative-partial-wh_Cuando-lleva-el-abrigo.wav,./stim/wavs/peruvian_match_interrogative-partial-wh_Cuando-lleva-el-abrigo.wav,./stim/wavs/puertorican_match_interrogative-partial-wh_Cuando-lleva-el-abrigo.wav,,,,,,,,,,,,,,,,,,,,,,,,,,,,,,,,,,,,,,,,,,,,,,,,,,,,,,,,
,,,,,,,5f6bc8e8a9a9b4134c8719b4,6057c54e64b0b4e5c128b4f9,605846052b4e5756397443fe,United States,Northeast,13 or older,no,2021-03-22_03h59.56.982,empathy_intonation_perc,2020.2.10,Win32,60,,,,,,,,,,1,peruvian,1,1,1.50861,0,33,33,57,1,58,./stim/wavs/andalusian_mismatch_interrogative-total-yn_El-hombre-mira-la-luna.wav,./stim/wavs/argentine_mismatch_interrogative-total-yn_El-hombre-mira-la-luna.wav,./stim/wavs/castilian_mismatch_interrogative-total-yn_El-hombre-mira-la-luna.wav,./stim/wavs/chilean_mismatch_interrogative-total-yn_El-hombre-mira-la-luna.wav,./stim/wavs/cuban_mismatch_interrogative-total-yn_El-hombre-mira-la-luna.wav,./stim/wavs/mexican_mismatch_interrogative-total-yn_El-hombre-mira-la-luna.wav,./stim/wavs/peruvian_mismatch_interrogative-total-yn_El-hombre-mira-la-luna.wav,./stim/wavs/puertorican_mismatch_interrogative-total-yn_El-hombre-mira-la-luna.wav,,,,,,,,,,,,,,,,,,,,,,,,,,,,,,,,,,,,,,,,,,,,,,,,,,,,,,,,
,,,,,,,5f6bc8e8a9a9b4134c8719b4,6057c54e64b0b4e5c128b4f9,605846052b4e5756397443fe,United States,Northeast,13 or older,no,2021-03-22_03h59.56.982,empathy_intonation_perc,2020.2.10,Win32,60,,,,,,,,,,0,puertorican,0,1,3.851725,0,34,34,11,1,12,./stim/wavs/andalusian_match_declarative-narrow-focus_Emilio-ama-la-marcha.wav,./stim/wavs/argentine_match_declarative-narrow-focus_Emilio-ama-la-marcha.wav,./stim/wavs/castilian_match_declarative-narrow-focus_Emilio-ama-la-marcha.wav,./stim/wavs/chilean_match_declarative-narrow-focus_Emilio-ama-la-marcha.wav,./stim/wavs/cuban_match_declarative-narrow-focus_Emilio-ama-la-marcha.wav,./stim/wavs/mexican_match_declarative-narrow-focus_Emilio-ama-la-marcha.wav,./stim/wavs/peruvian_match_declarative-narrow-focus_Emilio-ama-la-marcha.wav,./stim/wavs/puertorican_match_declarative-narrow-focus_Emilio-ama-la-marcha.wav,,,,,,,,,,,,,,,,,,,,,,,,,,,,,,,,,,,,,,,,,,,,,,,,,,,,,,,,
,,,,,,,5f6bc8e8a9a9b4134c8719b4,6057c54e64b0b4e5c128b4f9,605846052b4e5756397443fe,United States,Northeast,13 or older,no,2021-03-22_03h59.56.982,empathy_intonation_perc,2020.2.10,Win32,60,,,,,,,,,,1,peruvian,0,0,3.261125,0,35,35,54,1,55,./stim/wavs/andalusian_mismatch_interrogative-partial-wh_Por-que-venia-del-lago.wav,./stim/wavs/argentine_mismatch_interrogative-partial-wh_Por-que-venia-del-lago.wav,./stim/wavs/castilian_mismatch_interrogative-partial-wh_Por-que-venia-del-lago.wav,./stim/wavs/chilean_mismatch_interrogative-partial-wh_Por-que-venia-del-lago.wav,./stim/wavs/cuban_mismatch_interrogative-partial-wh_Por-que-venia-del-lago.wav,./stim/wavs/mexican_mismatch_interrogative-partial-wh_Por-que-venia-del-lago.wav,./stim/wavs/peruvian_mismatch_interrogative-partial-wh_Por-que-venia-del-lago.wav,./stim/wavs/puertorican_mismatch_interrogative-partial-wh_Por-que-venia-del-lago.wav,,,,,,,,,,,,,,,,,,,,,,,,,,,,,,,,,,,,,,,,,,,,,,,,,,,,,,,,
,,,,,,,5f6bc8e8a9a9b4134c8719b4,6057c54e64b0b4e5c128b4f9,605846052b4e5756397443fe,United States,Northeast,13 or older,no,2021-03-22_03h59.56.982,empathy_intonation_perc,2020.2.10,Win32,60,,,,,,,,,,1,chilean,1,1,2.29231,0,36,36,58,1,59,./stim/wavs/andalusian_mismatch_interrogative-total-yn_El-nino-oye-el-rio.wav,./stim/wavs/argentine_mismatch_interrogative-total-yn_El-nino-oye-el-rio.wav,./stim/wavs/castilian_mismatch_interrogative-total-yn_El-nino-oye-el-rio.wav,./stim/wavs/chilean_mismatch_interrogative-total-yn_El-nino-oye-el-rio.wav,./stim/wavs/cuban_mismatch_interrogative-total-yn_El-nino-oye-el-rio.wav,./stim/wavs/mexican_mismatch_interrogative-total-yn_El-nino-oye-el-rio.wav,./stim/wavs/peruvian_mismatch_interrogative-total-yn_El-nino-oye-el-rio.wav,./stim/wavs/puertorican_mismatch_interrogative-total-yn_El-nino-oye-el-rio.wav,,,,,,,,,,,,,,,,,,,,,,,,,,,,,,,,,,,,,,,,,,,,,,,,,,,,,,,,
,,,,,,,5f6bc8e8a9a9b4134c8719b4,6057c54e64b0b4e5c128b4f9,605846052b4e5756397443fe,United States,Northeast,13 or older,no,2021-03-22_03h59.56.982,empathy_intonation_perc,2020.2.10,Win32,60,,,,,,,,,,0,mexican,0,1,2.12772,0,37,37,8,1,9,./stim/wavs/andalusian_match_declarative-narrow-focus_Ana-lleva-el-abrigo.wav,./stim/wavs/argentine_match_declarative-narrow-focus_Ana-lleva-el-abrigo.wav,./stim/wavs/castilian_match_declarative-narrow-focus_Ana-lleva-el-abrigo.wav,./stim/wavs/chilean_match_declarative-narrow-focus_Ana-lleva-el-abrigo.wav,./stim/wavs/cuban_match_declarative-narrow-focus_Ana-lleva-el-abrigo.wav,./stim/wavs/mexican_match_declarative-narrow-focus_Ana-lleva-el-abrigo.wav,./stim/wavs/peruvian_match_declarative-narrow-focus_Ana-lleva-el-abrigo.wav,./stim/wavs/puertorican_match_declarative-narrow-focus_Ana-lleva-el-abrigo.wav,,,,,,,,,,,,,,,,,,,,,,,,,,,,,,,,,,,,,,,,,,,,,,,,,,,,,,,,
,,,,,,,5f6bc8e8a9a9b4134c8719b4,6057c54e64b0b4e5c128b4f9,605846052b4e5756397443fe,United States,Northeast,13 or older,no,2021-03-22_03h59.56.982,empathy_intonation_perc,2020.2.10,Win32,60,,,,,,,,,,0,argentine,0,1,2.46377,0,38,38,6,1,7,./stim/wavs/andalusian_match_declarative-broad-focus_Mariano-habla-del-tiempo.wav,./stim/wavs/argentine_match_declarative-broad-focus_Mariano-habla-del-tiempo.wav,./stim/wavs/castilian_match_declarative-broad-focus_Mariano-habla-del-tiempo.wav,./stim/wavs/chilean_match_declarative-broad-focus_Mariano-habla-del-tiempo.wav,./stim/wavs/cuban_match_declarative-broad-focus_Mariano-habla-del-tiempo.wav,./stim/wavs/mexican_match_declarative-broad-focus_Mariano-habla-del-tiempo.wav,./stim/wavs/peruvian_match_declarative-broad-focus_Mariano-habla-del-tiempo.wav,./stim/wavs/puertorican_match_declarative-broad-focus_Mariano-habla-del-tiempo.wav,,,,,,,,,,,,,,,,,,,,,,,,,,,,,,,,,,,,,,,,,,,,,,,,,,,,,,,,
,,,,,,,5f6bc8e8a9a9b4134c8719b4,6057c54e64b0b4e5c128b4f9,605846052b4e5756397443fe,United States,Northeast,13 or older,no,2021-03-22_03h59.56.982,empathy_intonation_perc,2020.2.10,Win32,60,,,,,,,,,,0,puertorican,0,1,4.14971,0,39,39,36,1,37,./stim/wavs/andalusian_mismatch_declarative-broad-focus_La-nina-lava-el-plato.wav,./stim/wavs/argentine_mismatch_declarative-broad-focus_La-nina-lava-el-plato.wav,./stim/wavs/castilian_mismatch_declarative-broad-focus_La-nina-lava-el-plato.wav,./stim/wavs/chilean_mismatch_declarative-broad-focus_La-nina-lava-el-plato.wav,./stim/wavs/cuban_mismatch_declarative-broad-focus_La-nina-lava-el-plato.wav,./stim/wavs/mexican_mismatch_declarative-broad-focus_La-nina-lava-el-plato.wav,./stim/wavs/peruvian_mismatch_declarative-broad-focus_La-nina-lava-el-plato.wav,./stim/wavs/puertorican_mismatch_declarative-broad-focus_La-nina-lava-el-plato.wav,,,,,,,,,,,,,,,,,,,,,,,,,,,,,,,,,,,,,,,,,,,,,,,,,,,,,,,,
,,,,,,,5f6bc8e8a9a9b4134c8719b4,6057c54e64b0b4e5c128b4f9,605846052b4e5756397443fe,United States,Northeast,13 or older,no,2021-03-22_03h59.56.982,empathy_intonation_perc,2020.2.10,Win32,60,,,,,,,,,,1,puertorican,0,0,1.913535,0,40,40,50,1,51,./stim/wavs/andalusian_mismatch_interrogative-partial-wh_Cuando-miraba-la-luna.wav,./stim/wavs/argentine_mismatch_interrogative-partial-wh_Cuando-miraba-la-luna.wav,./stim/wavs/castilian_mismatch_interrogative-partial-wh_Cuando-miraba-la-luna.wav,./stim/wavs/chilean_mismatch_interrogative-partial-wh_Cuando-miraba-la-luna.wav,./stim/wavs/cuban_mismatch_interrogative-partial-wh_Cuando-miraba-la-luna.wav,./stim/wavs/mexican_mismatch_interrogative-partial-wh_Cuando-miraba-la-luna.wav,./stim/wavs/peruvian_mismatch_interrogative-partial-wh_Cuando-miraba-la-luna.wav,./stim/wavs/puertorican_mismatch_interrogative-partial-wh_Cuando-miraba-la-luna.wav,,,,,,,,,,,,,,,,,,,,,,,,,,,,,,,,,,,,,,,,,,,,,,,,,,,,,,,,
,,,,,,,5f6bc8e8a9a9b4134c8719b4,6057c54e64b0b4e5c128b4f9,605846052b4e5756397443fe,United States,Northeast,13 or older,no,2021-03-22_03h59.56.982,empathy_intonation_perc,2020.2.10,Win32,60,,,,,,,,,,1,chilean,1,1,3.57575,0,41,41,23,1,24,./stim/wavs/andalusian_match_interrogative-partial-wh_Por-que-iba-a-Bolivia.wav,./stim/wavs/argentine_match_interrogative-partial-wh_Por-que-iba-a-Bolivia.wav,./stim/wavs/castilian_match_interrogative-partial-wh_Por-que-iba-a-Bolivia.wav,./stim/wavs/chilean_match_interrogative-partial-wh_Por-que-iba-a-Bolivia.wav,./stim/wavs/cuban_match_interrogative-partial-wh_Por-que-iba-a-Bolivia.wav,./stim/wavs/mexican_match_interrogative-partial-wh_Por-que-iba-a-Bolivia.wav,./stim/wavs/peruvian_match_interrogative-partial-wh_Por-que-iba-a-Bolivia.wav,./stim/wavs/puertorican_match_interrogative-partial-wh_Por-que-iba-a-Bolivia.wav,,,,,,,,,,,,,,,,,,,,,,,,,,,,,,,,,,,,,,,,,,,,,,,,,,,,,,,,
,,,,,,,5f6bc8e8a9a9b4134c8719b4,6057c54e64b0b4e5c128b4f9,605846052b4e5756397443fe,United States,Northeast,13 or older,no,2021-03-22_03h59.56.982,empathy_intonation_perc,2020.2.10,Win32,60,,,,,,,,,,1,castilian,1,1,2.40839,0,42,42,24,1,25,./stim/wavs/andalusian_match_interrogative-total-yn_Ana-lleva-el-abrigo.wav,./stim/wavs/argentine_match_interrogative-total-yn_Ana-lleva-el-abrigo.wav,./stim/wavs/castilian_match_interrogative-total-yn_Ana-lleva-el-abrigo.wav,./stim/wavs/chilean_match_interrogative-total-yn_Ana-lleva-el-abrigo.wav,./stim/wavs/cuban_match_interrogative-total-yn_Ana-lleva-el-abrigo.wav,./stim/wavs/mexican_match_interrogative-total-yn_Ana-lleva-el-abrigo.wav,./stim/wavs/peruvian_match_interrogative-total-yn_Ana-lleva-el-abrigo.wav,./stim/wavs/puertorican_match_interrogative-total-yn_Ana-lleva-el-abrigo.wav,,,,,,,,,,,,,,,,,,,,,,,,,,,,,,,,,,,,,,,,,,,,,,,,,,,,,,,,
,,,,,,,5f6bc8e8a9a9b4134c8719b4,6057c54e64b0b4e5c128b4f9,605846052b4e5756397443fe,United States,Northeast,13 or older,no,2021-03-22_03h59.56.982,empathy_intonation_perc,2020.2.10,Win32,60,,,,,,,,,,0,andalusian,1,0,4.732955,0,43,43,46,1,47,./stim/wavs/andalusian_mismatch_declarative-narrow-focus_Mi-novio-viene-del-lago.wav,./stim/wavs/argentine_mismatch_declarative-narrow-focus_Mi-novio-viene-del-lago.wav,./stim/wavs/castilian_mismatch_declarative-narrow-focus_Mi-novio-viene-del-lago.wav,./stim/wavs/chilean_mismatch_declarative-narrow-focus_Mi-novio-viene-del-lago.wav,./stim/wavs/cuban_mismatch_declarative-narrow-focus_Mi-novio-viene-del-lago.wav,./stim/wavs/mexican_mismatch_declarative-narrow-focus_Mi-novio-viene-del-lago.wav,./stim/wavs/peruvian_mismatch_declarative-narrow-focus_Mi-novio-viene-del-lago.wav,./stim/wavs/puertorican_mismatch_declarative-narrow-focus_Mi-novio-viene-del-lago.wav,,,,,,,,,,,,,,,,,,,,,,,,,,,,,,,,,,,,,,,,,,,,,,,,,,,,,,,,
,,,,,,,5f6bc8e8a9a9b4134c8719b4,6057c54e64b0b4e5c128b4f9,605846052b4e5756397443fe,United States,Northeast,13 or older,no,2021-03-22_03h59.56.982,empathy_intonation_perc,2020.2.10,Win32,60,,,,,,,,,,0,mexican,0,1,1.773075,0,44,44,40,1,41,./stim/wavs/andalusian_mismatch_declarative-narrow-focus_El-bebe-comia-muy-bien.wav,./stim/wavs/argentine_mismatch_declarative-narrow-focus_El-bebe-comia-muy-bien.wav,./stim/wavs/castilian_mismatch_declarative-narrow-focus_El-bebe-comia-muy-bien.wav,./stim/wavs/chilean_mismatch_declarative-narrow-focus_El-bebe-comia-muy-bien.wav,./stim/wavs/cuban_mismatch_declarative-narrow-focus_El-bebe-comia-muy-bien.wav,./stim/wavs/mexican_mismatch_declarative-narrow-focus_El-bebe-comia-muy-bien.wav,./stim/wavs/peruvian_mismatch_declarative-narrow-focus_El-bebe-comia-muy-bien.wav,./stim/wavs/puertorican_mismatch_declarative-narrow-focus_El-bebe-comia-muy-bien.wav,,,,,,,,,,,,,,,,,,,,,,,,,,,,,,,,,,,,,,,,,,,,,,,,,,,,,,,,
,,,,,,,5f6bc8e8a9a9b4134c8719b4,6057c54e64b0b4e5c128b4f9,605846052b4e5756397443fe,United States,Northeast,13 or older,no,2021-03-22_03h59.56.982,empathy_intonation_perc,2020.2.10,Win32,60,,,,,,,,,,0,andalusian,0,1,2.24513,0,45,45,34,1,35,./stim/wavs/andalusian_mismatch_declarative-broad-focus_El-nino-oye-el-rio.wav,./stim/wavs/argentine_mismatch_declarative-broad-focus_El-nino-oye-el-rio.wav,./stim/wavs/castilian_mismatch_declarative-broad-focus_El-nino-oye-el-rio.wav,./stim/wavs/chilean_mismatch_declarative-broad-focus_El-nino-oye-el-rio.wav,./stim/wavs/cuban_mismatch_declarative-broad-focus_El-nino-oye-el-rio.wav,./stim/wavs/mexican_mismatch_declarative-broad-focus_El-nino-oye-el-rio.wav,./stim/wavs/peruvian_mismatch_declarative-broad-focus_El-nino-oye-el-rio.wav,./stim/wavs/puertorican_mismatch_declarative-broad-focus_El-nino-oye-el-rio.wav,,,,,,,,,,,,,,,,,,,,,,,,,,,,,,,,,,,,,,,,,,,,,,,,,,,,,,,,
,,,,,,,5f6bc8e8a9a9b4134c8719b4,6057c54e64b0b4e5c128b4f9,605846052b4e5756397443fe,United States,Northeast,13 or older,no,2021-03-22_03h59.56.982,empathy_intonation_perc,2020.2.10,Win32,60,,,,,,,,,,0,castilian,0,1,2.8031,0,46,46,43,1,44,./stim/wavs/andalusian_mismatch_declarative-narrow-focus_La-maestra-vive-en-Paris.wav,./stim/wavs/argentine_mismatch_declarative-narrow-focus_La-maestra-vive-en-Paris.wav,./stim/wavs/castilian_mismatch_declarative-narrow-focus_La-maestra-vive-en-Paris.wav,./stim/wavs/chilean_mismatch_declarative-narrow-focus_La-maestra-vive-en-Paris.wav,./stim/wavs/cuban_mismatch_declarative-narrow-focus_La-maestra-vive-en-Paris.wav,./stim/wavs/mexican_mismatch_declarative-narrow-focus_La-maestra-vive-en-Paris.wav,./stim/wavs/peruvian_mismatch_declarative-narrow-focus_La-maestra-vive-en-Paris.wav,./stim/wavs/puertorican_mismatch_declarative-narrow-focus_La-maestra-vive-en-Paris.wav,,,,,,,,,,,,,,,,,,,,,,,,,,,,,,,,,,,,,,,,,,,,,,,,,,,,,,,,
,,,,,,,5f6bc8e8a9a9b4134c8719b4,6057c54e64b0b4e5c128b4f9,605846052b4e5756397443fe,United States,Northeast,13 or older,no,2021-03-22_03h59.56.982,empathy_intonation_perc,2020.2.10,Win32,60,,,,,,,,,,0,andalusian,0,1,2.09428,0,47,47,38,1,39,./stim/wavs/andalusian_mismatch_declarative-broad-focus_Mi-novio-viene-del-lago.wav,./stim/wavs/argentine_mismatch_declarative-broad-focus_Mi-novio-viene-del-lago.wav,./stim/wavs/castilian_mismatch_declarative-broad-focus_Mi-novio-viene-del-lago.wav,./stim/wavs/chilean_mismatch_declarative-broad-focus_Mi-novio-viene-del-lago.wav,./stim/wavs/cuban_mismatch_declarative-broad-focus_Mi-novio-viene-del-lago.wav,./stim/wavs/mexican_mismatch_declarative-broad-focus_Mi-novio-viene-del-lago.wav,./stim/wavs/peruvian_mismatch_declarative-broad-focus_Mi-novio-viene-del-lago.wav,./stim/wavs/puertorican_mismatch_declarative-broad-focus_Mi-novio-viene-del-lago.wav,,,,,,,,,,,,,,,,,,,,,,,,,,,,,,,,,,,,,,,,,,,,,,,,,,,,,,,,
,,,,,,,5f6bc8e8a9a9b4134c8719b4,6057c54e64b0b4e5c128b4f9,605846052b4e5756397443fe,United States,Northeast,13 or older,no,2021-03-22_03h59.56.982,empathy_intonation_perc,2020.2.10,Win32,60,,,,,,,,,,0,cuban,0,1,2.128905,0,48,48,47,1,48,./stim/wavs/andalusian_mismatch_declarative-narrow-focus_Mi-tia-odia-la-lluvia.wav,./stim/wavs/argentine_mismatch_declarative-narrow-focus_Mi-tia-odia-la-lluvia.wav,./stim/wavs/castilian_mismatch_declarative-narrow-focus_Mi-tia-odia-la-lluvia.wav,./stim/wavs/chilean_mismatch_declarative-narrow-focus_Mi-tia-odia-la-lluvia.wav,./stim/wavs/cuban_mismatch_declarative-narrow-focus_Mi-tia-odia-la-lluvia.wav,./stim/wavs/mexican_mismatch_declarative-narrow-focus_Mi-tia-odia-la-lluvia.wav,./stim/wavs/peruvian_mismatch_declarative-narrow-focus_Mi-tia-odia-la-lluvia.wav,./stim/wavs/puertorican_mismatch_declarative-narrow-focus_Mi-tia-odia-la-lluvia.wav,,,,,,,,,,,,,,,,,,,,,,,,,,,,,,,,,,,,,,,,,,,,,,,,,,,,,,,,
,,,,,,,5f6bc8e8a9a9b4134c8719b4,6057c54e64b0b4e5c128b4f9,605846052b4e5756397443fe,United States,Northeast,13 or older,no,2021-03-22_03h59.56.982,empathy_intonation_perc,2020.2.10,Win32,60,,,,,,,,,,1,castilian,1,1,3.68893,0,49,49,31,1,32,./stim/wavs/andalusian_match_interrogative-total-yn_Marta-abre-el-regalo.wav,./stim/wavs/argentine_match_interrogative-total-yn_Marta-abre-el-regalo.wav,./stim/wavs/castilian_match_interrogative-total-yn_Marta-abre-el-regalo.wav,./stim/wavs/chilean_match_interrogative-total-yn_Marta-abre-el-regalo.wav,./stim/wavs/cuban_match_interrogative-total-yn_Marta-abre-el-regalo.wav,./stim/wavs/mexican_match_interrogative-total-yn_Marta-abre-el-regalo.wav,./stim/wavs/peruvian_match_interrogative-total-yn_Marta-abre-el-regalo.wav,./stim/wavs/puertorican_match_interrogative-total-yn_Marta-abre-el-regalo.wav,,,,,,,,,,,,,,,,,,,,,,,,,,,,,,,,,,,,,,,,,,,,,,,,,,,,,,,,
,,,,,,,5f6bc8e8a9a9b4134c8719b4,6057c54e64b0b4e5c128b4f9,605846052b4e5756397443fe,United States,Northeast,13 or older,no,2021-03-22_03h59.56.982,empathy_intonation_perc,2020.2.10,Win32,60,,,,,,,,,,0,argentine,0,1,4.58909,0,50,50,12,1,13,./stim/wavs/andalusian_match_declarative-narrow-focus_Manuela-vende-el-carro.wav,./stim/wavs/argentine_match_declarative-narrow-focus_Manuela-vende-el-carro.wav,./stim/wavs/castilian_match_declarative-narrow-focus_Manuela-vende-el-carro.wav,./stim/wavs/chilean_match_declarative-narrow-focus_Manuela-vende-el-carro.wav,./stim/wavs/cuban_match_declarative-narrow-focus_Manuela-vende-el-carro.wav,./stim/wavs/mexican_match_declarative-narrow-focus_Manuela-vende-el-carro.wav,./stim/wavs/peruvian_match_declarative-narrow-focus_Manuela-vende-el-carro.wav,./stim/wavs/puertorican_match_declarative-narrow-focus_Manuela-vende-el-carro.wav,,,,,,,,,,,,,,,,,,,,,,,,,,,,,,,,,,,,,,,,,,,,,,,,,,,,,,,,
,,,,,,,5f6bc8e8a9a9b4134c8719b4,6057c54e64b0b4e5c128b4f9,605846052b4e5756397443fe,United States,Northeast,13 or older,no,2021-03-22_03h59.56.982,empathy_intonation_perc,2020.2.10,Win32,60,,,,,,,,,,0,mexican,0,1,2.65361,0,51,51,15,1,16,./stim/wavs/andalusian_match_declarative-narrow-focus_Marta-abre-el-regalo.wav,./stim/wavs/argentine_match_declarative-narrow-focus_Marta-abre-el-regalo.wav,./stim/wavs/castilian_match_declarative-narrow-focus_Marta-abre-el-regalo.wav,./stim/wavs/chilean_match_declarative-narrow-focus_Marta-abre-el-regalo.wav,./stim/wavs/cuban_match_declarative-narrow-focus_Marta-abre-el-regalo.wav,./stim/wavs/mexican_match_declarative-narrow-focus_Marta-abre-el-regalo.wav,./stim/wavs/peruvian_match_declarative-narrow-focus_Marta-abre-el-regalo.wav,./stim/wavs/puertorican_match_declarative-narrow-focus_Marta-abre-el-regalo.wav,,,,,,,,,,,,,,,,,,,,,,,,,,,,,,,,,,,,,,,,,,,,,,,,,,,,,,,,
,,,,,,,5f6bc8e8a9a9b4134c8719b4,6057c54e64b0b4e5c128b4f9,605846052b4e5756397443fe,United States,Northeast,13 or older,no,2021-03-22_03h59.56.982,empathy_intonation_perc,2020.2.10,Win32,60,,,,,,,,,,1,andalusian,0,0,4.196975,0,52,52,52,1,53,./stim/wavs/andalusian_mismatch_interrogative-partial-wh_Por-que-odiaba-la-lluvia.wav,./stim/wavs/argentine_mismatch_interrogative-partial-wh_Por-que-odiaba-la-lluvia.wav,./stim/wavs/castilian_mismatch_interrogative-partial-wh_Por-que-odiaba-la-lluvia.wav,./stim/wavs/chilean_mismatch_interrogative-partial-wh_Por-que-odiaba-la-lluvia.wav,./stim/wavs/cuban_mismatch_interrogative-partial-wh_Por-que-odiaba-la-lluvia.wav,./stim/wavs/mexican_mismatch_interrogative-partial-wh_Por-que-odiaba-la-lluvia.wav,./stim/wavs/peruvian_mismatch_interrogative-partial-wh_Por-que-odiaba-la-lluvia.wav,./stim/wavs/puertorican_mismatch_interrogative-partial-wh_Por-que-odiaba-la-lluvia.wav,,,,,,,,,,,,,,,,,,,,,,,,,,,,,,,,,,,,,,,,,,,,,,,,,,,,,,,,
,,,,,,,5f6bc8e8a9a9b4134c8719b4,6057c54e64b0b4e5c128b4f9,605846052b4e5756397443fe,United States,Northeast,13 or older,no,2021-03-22_03h59.56.982,empathy_intonation_perc,2020.2.10,Win32,60,,,,,,,,,,0,puertorican,0,1,2.66881,0,53,53,37,1,38,./stim/wavs/andalusian_mismatch_declarative-broad-focus_Mi-madre-come-la-fruta.wav,./stim/wavs/argentine_mismatch_declarative-broad-focus_Mi-madre-come-la-fruta.wav,./stim/wavs/castilian_mismatch_declarative-broad-focus_Mi-madre-come-la-fruta.wav,./stim/wavs/chilean_mismatch_declarative-broad-focus_Mi-madre-come-la-fruta.wav,./stim/wavs/cuban_mismatch_declarative-broad-focus_Mi-madre-come-la-fruta.wav,./stim/wavs/mexican_mismatch_declarative-broad-focus_Mi-madre-come-la-fruta.wav,./stim/wavs/peruvian_mismatch_declarative-broad-focus_Mi-madre-come-la-fruta.wav,./stim/wavs/puertorican_mismatch_declarative-broad-focus_Mi-madre-come-la-fruta.wav,,,,,,,,,,,,,,,,,,,,,,,,,,,,,,,,,,,,,,,,,,,,,,,,,,,,,,,,
,,,,,,,5f6bc8e8a9a9b4134c8719b4,6057c54e64b0b4e5c128b4f9,605846052b4e5756397443fe,United States,Northeast,13 or older,no,2021-03-22_03h59.56.982,empathy_intonation_perc,2020.2.10,Win32,60,,,,,,,,,,0,chilean,0,1,2.275505,0,54,54,1,1,2,./stim/wavs/andalusian_match_declarative-broad-focus_Daniel-iba-a-Bolivia.wav,./stim/wavs/argentine_match_declarative-broad-focus_Daniel-iba-a-Bolivia.wav,./stim/wavs/castilian_match_declarative-broad-focus_Daniel-iba-a-Bolivia.wav,./stim/wavs/chilean_match_declarative-broad-focus_Daniel-iba-a-Bolivia.wav,./stim/wavs/cuban_match_declarative-broad-focus_Daniel-iba-a-Bolivia.wav,./stim/wavs/mexican_match_declarative-broad-focus_Daniel-iba-a-Bolivia.wav,./stim/wavs/peruvian_match_declarative-broad-focus_Daniel-iba-a-Bolivia.wav,./stim/wavs/puertorican_match_declarative-broad-focus_Daniel-iba-a-Bolivia.wav,,,,,,,,,,,,,,,,,,,,,,,,,,,,,,,,,,,,,,,,,,,,,,,,,,,,,,,,
,,,,,,,5f6bc8e8a9a9b4134c8719b4,6057c54e64b0b4e5c128b4f9,605846052b4e5756397443fe,United States,Northeast,13 or older,no,2021-03-22_03h59.56.982,empathy_intonation_perc,2020.2.10,Win32,60,,,,,,,,,,0,mexican,0,1,2.993895,0,55,55,39,1,40,./stim/wavs/andalusian_mismatch_declarative-broad-focus_Mi-tia-odia-la-lluvia.wav,./stim/wavs/argentine_mismatch_declarative-broad-focus_Mi-tia-odia-la-lluvia.wav,./stim/wavs/castilian_mismatch_declarative-broad-focus_Mi-tia-odia-la-lluvia.wav,./stim/wavs/chilean_mismatch_declarative-broad-focus_Mi-tia-odia-la-lluvia.wav,./stim/wavs/cuban_mismatch_declarative-broad-focus_Mi-tia-odia-la-lluvia.wav,./stim/wavs/mexican_mismatch_declarative-broad-focus_Mi-tia-odia-la-lluvia.wav,./stim/wavs/peruvian_mismatch_declarative-broad-focus_Mi-tia-odia-la-lluvia.wav,./stim/wavs/puertorican_mismatch_declarative-broad-focus_Mi-tia-odia-la-lluvia.wav,,,,,,,,,,,,,,,,,,,,,,,,,,,,,,,,,,,,,,,,,,,,,,,,,,,,,,,,
,,,,,,,5f6bc8e8a9a9b4134c8719b4,6057c54e64b0b4e5c128b4f9,605846052b4e5756397443fe,United States,Northeast,13 or older,no,2021-03-22_03h59.56.982,empathy_intonation_perc,2020.2.10,Win32,60,,,,,,,,,,0,puertorican,0,1,2.630985,0,56,56,32,1,33,./stim/wavs/andalusian_mismatch_declarative-broad-focus_El-bebe-comia-muy-bien.wav,./stim/wavs/argentine_mismatch_declarative-broad-focus_El-bebe-comia-muy-bien.wav,./stim/wavs/castilian_mismatch_declarative-broad-focus_El-bebe-comia-muy-bien.wav,./stim/wavs/chilean_mismatch_declarative-broad-focus_El-bebe-comia-muy-bien.wav,./stim/wavs/cuban_mismatch_declarative-broad-focus_El-bebe-comia-muy-bien.wav,./stim/wavs/mexican_mismatch_declarative-broad-focus_El-bebe-comia-muy-bien.wav,./stim/wavs/peruvian_mismatch_declarative-broad-focus_El-bebe-comia-muy-bien.wav,./stim/wavs/puertorican_mismatch_declarative-broad-focus_El-bebe-comia-muy-bien.wav,,,,,,,,,,,,,,,,,,,,,,,,,,,,,,,,,,,,,,,,,,,,,,,,,,,,,,,,
,,,,,,,5f6bc8e8a9a9b4134c8719b4,6057c54e64b0b4e5c128b4f9,605846052b4e5756397443fe,United States,Northeast,13 or older,no,2021-03-22_03h59.56.982,empathy_intonation_perc,2020.2.10,Win32,60,,,,,,,,,,0,chilean,0,1,2.395625,0,57,57,9,1,10,./stim/wavs/andalusian_match_declarative-narrow-focus_Daniel-iba-a-Bolivia.wav,./stim/wavs/argentine_match_declarative-narrow-focus_Daniel-iba-a-Bolivia.wav,./stim/wavs/castilian_match_declarative-narrow-focus_Daniel-iba-a-Bolivia.wav,./stim/wavs/chilean_match_declarative-narrow-focus_Daniel-iba-a-Bolivia.wav,./stim/wavs/cuban_match_declarative-narrow-focus_Daniel-iba-a-Bolivia.wav,./stim/wavs/mexican_match_declarative-narrow-focus_Daniel-iba-a-Bolivia.wav,./stim/wavs/peruvian_match_declarative-narrow-focus_Daniel-iba-a-Bolivia.wav,./stim/wavs/puertorican_match_declarative-narrow-focus_Daniel-iba-a-Bolivia.wav,,,,,,,,,,,,,,,,,,,,,,,,,,,,,,,,,,,,,,,,,,,,,,,,,,,,,,,,
,,,,,,,5f6bc8e8a9a9b4134c8719b4,6057c54e64b0b4e5c128b4f9,605846052b4e5756397443fe,United States,Northeast,13 or older,no,2021-03-22_03h59.56.982,empathy_intonation_perc,2020.2.10,Win32,60,,,,,,,,,,1,peruvian,0,0,2.68515,0,58,58,17,1,18,./stim/wavs/andalusian_match_interrogative-partial-wh_Cuando-leia-el-libro.wav,./stim/wavs/argentine_match_interrogative-partial-wh_Cuando-leia-el-libro.wav,./stim/wavs/castilian_match_interrogative-partial-wh_Cuando-leia-el-libro.wav,./stim/wavs/chilean_match_interrogative-partial-wh_Cuando-leia-el-libro.wav,./stim/wavs/cuban_match_interrogative-partial-wh_Cuando-leia-el-libro.wav,./stim/wavs/mexican_match_interrogative-partial-wh_Cuando-leia-el-libro.wav,./stim/wavs/peruvian_match_interrogative-partial-wh_Cuando-leia-el-libro.wav,./stim/wavs/puertorican_match_interrogative-partial-wh_Cuando-leia-el-libro.wav,,,,,,,,,,,,,,,,,,,,,,,,,,,,,,,,,,,,,,,,,,,,,,,,,,,,,,,,
,,,,,,,5f6bc8e8a9a9b4134c8719b4,6057c54e64b0b4e5c128b4f9,605846052b4e5756397443fe,United States,Northeast,13 or older,no,2021-03-22_03h59.56.982,empathy_intonation_perc,2020.2.10,Win32,60,,,,,,,,,,1,andalusian,1,1,2.354275,0,59,59,48,1,49,./stim/wavs/andalusian_mismatch_interrogative-partial-wh_Cuando-comia-la-fruta.wav,./stim/wavs/argentine_mismatch_interrogative-partial-wh_Cuando-comia-la-fruta.wav,./stim/wavs/castilian_mismatch_interrogative-partial-wh_Cuando-comia-la-fruta.wav,./stim/wavs/chilean_mismatch_interrogative-partial-wh_Cuando-comia-la-fruta.wav,./stim/wavs/cuban_mismatch_interrogative-partial-wh_Cuando-comia-la-fruta.wav,./stim/wavs/mexican_mismatch_interrogative-partial-wh_Cuando-comia-la-fruta.wav,./stim/wavs/peruvian_mismatch_interrogative-partial-wh_Cuando-comia-la-fruta.wav,./stim/wavs/puertorican_mismatch_interrogative-partial-wh_Cuando-comia-la-fruta.wav,,,,,,,,,,,,,,,,,,,,,,,,,,,,,,,,,,,,,,,,,,,,,,,,,,,,,,,,
,,,,,,,5f6bc8e8a9a9b4134c8719b4,6057c54e64b0b4e5c128b4f9,605846052b4e5756397443fe,United States,Northeast,13 or older,no,2021-03-22_03h59.56.982,empathy_intonation_perc,2020.2.10,Win32,60,,,,,,,,,,1,cuban,0,0,5.342285,0,60,60,30,1,31,./stim/wavs/andalusian_match_interrogative-total-yn_Mariano-habla-del-tiempo.wav,./stim/wavs/argentine_match_interrogative-total-yn_Mariano-habla-del-tiempo.wav,./stim/wavs/castilian_match_interrogative-total-yn_Mariano-habla-del-tiempo.wav,./stim/wavs/chilean_match_interrogative-total-yn_Mariano-habla-del-tiempo.wav,./stim/wavs/cuban_match_interrogative-total-yn_Mariano-habla-del-tiempo.wav,./stim/wavs/mexican_match_interrogative-total-yn_Mariano-habla-del-tiempo.wav,./stim/wavs/peruvian_match_interrogative-total-yn_Mariano-habla-del-tiempo.wav,./stim/wavs/puertorican_match_interrogative-total-yn_Mariano-habla-del-tiempo.wav,,,,,,,,,,,,,,,,,,,,,,,,,,,,,,,,,,,,,,,,,,,,,,,,,,,,,,,,
,,,,,,,5f6bc8e8a9a9b4134c8719b4,6057c54e64b0b4e5c128b4f9,605846052b4e5756397443fe,United States,Northeast,13 or older,no,2021-03-22_03h59.56.982,empathy_intonation_perc,2020.2.10,Win32,60,,,,,,,,,,1,argentine,1,1,2.776275,0,61,61,53,1,54,./stim/wavs/andalusian_mismatch_interrogative-partial-wh_Por-que-oia-el-rio.wav,./stim/wavs/argentine_mismatch_interrogative-partial-wh_Por-que-oia-el-rio.wav,./stim/wavs/castilian_mismatch_interrogative-partial-wh_Por-que-oia-el-rio.wav,./stim/wavs/chilean_mismatch_interrogative-partial-wh_Por-que-oia-el-rio.wav,./stim/wavs/cuban_mismatch_interrogative-partial-wh_Por-que-oia-el-rio.wav,./stim/wavs/mexican_mismatch_interrogative-partial-wh_Por-que-oia-el-rio.wav,./stim/wavs/peruvian_mismatch_interrogative-partial-wh_Por-que-oia-el-rio.wav,./stim/wavs/puertorican_mismatch_interrogative-partial-wh_Por-que-oia-el-rio.wav,,,,,,,,,,,,,,,,,,,,,,,,,,,,,,,,,,,,,,,,,,,,,,,,,,,,,,,,
,,,,,,,5f6bc8e8a9a9b4134c8719b4,6057c54e64b0b4e5c128b4f9,605846052b4e5756397443fe,United States,Northeast,13 or older,no,2021-03-22_03h59.56.982,empathy_intonation_perc,2020.2.10,Win32,60,,,,,,,,,,1,mexican,1,1,1.79444,0,62,62,63,1,64,./stim/wavs/andalusian_mismatch_interrogative-total-yn_Mi-tia-odia-la-lluvia.wav,./stim/wavs/argentine_mismatch_interrogative-total-yn_Mi-tia-odia-la-lluvia.wav,./stim/wavs/castilian_mismatch_interrogative-total-yn_Mi-tia-odia-la-lluvia.wav,./stim/wavs/chilean_mismatch_interrogative-total-yn_Mi-tia-odia-la-lluvia.wav,./stim/wavs/cuban_mismatch_interrogative-total-yn_Mi-tia-odia-la-lluvia.wav,./stim/wavs/mexican_mismatch_interrogative-total-yn_Mi-tia-odia-la-lluvia.wav,./stim/wavs/peruvian_mismatch_interrogative-total-yn_Mi-tia-odia-la-lluvia.wav,./stim/wavs/puertorican_mismatch_interrogative-total-yn_Mi-tia-odia-la-lluvia.wav,,,,,,,,,,,,,,,,,,,,,,,,,,,,,,,,,,,,,,,,,,,,,,,,,,,,,,,,
,,,,,,,5f6bc8e8a9a9b4134c8719b4,6057c54e64b0b4e5c128b4f9,605846052b4e5756397443fe,United States,Northeast,13 or older,no,2021-03-22_03h59.56.982,empathy_intonation_perc,2020.2.10,Win32,60,,,,,,,,,,1,peruvian,1,1,1.948645,0,63,63,62,1,63,./stim/wavs/andalusian_mismatch_interrogative-total-yn_Mi-novio-viene-del-lago.wav,./stim/wavs/argentine_mismatch_interrogative-total-yn_Mi-novio-viene-del-lago.wav,./stim/wavs/castilian_mismatch_interrogative-total-yn_Mi-novio-viene-del-lago.wav,./stim/wavs/chilean_mismatch_interrogative-total-yn_Mi-novio-viene-del-lago.wav,./stim/wavs/cuban_mismatch_interrogative-total-yn_Mi-novio-viene-del-lago.wav,./stim/wavs/mexican_mismatch_interrogative-total-yn_Mi-novio-viene-del-lago.wav,./stim/wavs/peruvian_mismatch_interrogative-total-yn_Mi-novio-viene-del-lago.wav,./stim/wavs/puertorican_mismatch_interrogative-total-yn_Mi-novio-viene-del-lago.wav,,,,,,,,,,,,,,,,,,,,,,,,,,,,,,,,,,,,,,,,,,,,,,,,,,,,,,,,
,,,,,,,5f6bc8e8a9a9b4134c8719b4,6057c54e64b0b4e5c128b4f9,605846052b4e5756397443fe,United States,Northeast,13 or older,no,2021-03-22_03h59.56.982,empathy_intonation_perc,2020.2.10,Win32,60,,,,,,,,,,,,,,,,,,,,,,,,,,,,,h,1,5.9563,0,0,0,0,1,,,,,,,,,,,,,,,,,,,,,,,,,,,,,,,,,,,,,,,,,,,,,,,,
,,,,,"Great! Now we will move on. The next task consists of about 60 trials, in each of which you will see a string of letters. 
  
  Your task is to decide whether this is a real Spanish word or not.",(press the spacebar to continue),5f6bc8e8a9a9b4134c8719b4,6057c54e64b0b4e5c128b4f9,605846052b4e5756397443fe,United States,Northeast,13 or older,no,2021-03-22_03h59.56.982,empathy_intonation_perc,2020.2.10,Win32,60,,,,,,,,,,,,,,,,,,,,,,,,,,,,,,,,,,,,,0,0,0,0,1,,,,,,,,,,,,,,,,,,,,,,,,,,,,,,,,,,,,,,,,,,,
,,,,,"If you think it is an existing Spanish word, you type '1' (for 'REAL'), and if you think it is not an existing Spanish word, you type '0' (for 'FAKE').",(press the spacebar to continue),5f6bc8e8a9a9b4134c8719b4,6057c54e64b0b4e5c128b4f9,605846052b4e5756397443fe,United States,Northeast,13 or older,no,2021-03-22_03h59.56.982,empathy_intonation_perc,2020.2.10,Win32,60,,,,,,,,,,,,,,,,,,,,,,,,,,,,,,,,,,,,,0,1,1,1,1,,,,,,,,,,,,,,,,,,,,,,,,,,,,,,,,,,,,,,,,,,,
,,,,,"If you are sure that the word exists, even though you dont know its exact meaning, you may still respond '1' (REAL). 
  
  But if you are not sure if it is an existing word, you should respond '0' (FAKE).
  
  Let's do a practice round...",(press the spacebar to continue),5f6bc8e8a9a9b4134c8719b4,6057c54e64b0b4e5c128b4f9,605846052b4e5756397443fe,United States,Northeast,13 or older,no,2021-03-22_03h59.56.982,empathy_intonation_perc,2020.2.10,Win32,60,,,,,,,,,,,,,,,,,,,,,,,,,,,,,,,,,,,,,0,2,2,2,1,,,,,,,,,,,,,,,,,,,,,,,,,,,,,,,,,,,,,,,,,,,
,,,,,,,5f6bc8e8a9a9b4134c8719b4,6057c54e64b0b4e5c128b4f9,605846052b4e5756397443fe,United States,Northeast,13 or older,no,2021-03-22_03h59.56.982,empathy_intonation_perc,2020.2.10,Win32,60,,,,,,,,,,0,,,,,,,,,,,,,,,,,,,,,,,,,,,,,,,,0,1,1.577895,0,0,0,0,1,0,depiste,REAL,FAKE,,,,,,,,,,,,,,,,,,,,,,,,,,,,,,,
,,,,,,,5f6bc8e8a9a9b4134c8719b4,6057c54e64b0b4e5c128b4f9,605846052b4e5756397443fe,United States,Northeast,13 or older,no,2021-03-22_03h59.56.982,empathy_intonation_perc,2020.2.10,Win32,60,,,,,,,,,,1,,,,,,,,,,,,,,,,,,,,,,,,,,,,,,,,1,1,0.84623,0,1,1,1,1,0,s,REAL,FAKE,,,,,,,,,,,,,,,,,,,,,,,,,,,,,,,
,,,,,,,5f6bc8e8a9a9b4134c8719b4,6057c54e64b0b4e5c128b4f9,605846052b4e5756397443fe,United States,Northeast,13 or older,no,2021-03-22_03h59.56.982,empathy_intonation_perc,2020.2.10,Win32,60,,,,,,,,,,0,,,,,,,,,,,,,,,,,,,,,,,,,,,,,,,,0,1,2.65236,0,2,2,2,1,0,con,REAL,FAKE,,,,,,,,,,,,,,,,,,,,,,,,,,,,,,,
,,,,,,,5f6bc8e8a9a9b4134c8719b4,6057c54e64b0b4e5c128b4f9,605846052b4e5756397443fe,United States,Northeast,13 or older,no,2021-03-22_03h59.56.982,empathy_intonation_perc,2020.2.10,Win32,60,,,,,,,,,,0,,,,,,,,,,,,,,,,,,,,,,,,,,,,,,,,0,1,2.07802,0,3,3,3,1,0,calpar,REAL,FAKE,,,,,,,,,,,,,,,,,,,,,,,,,,,,,,,
,,,,,,,5f6bc8e8a9a9b4134c8719b4,6057c54e64b0b4e5c128b4f9,605846052b4e5756397443fe,United States,Northeast,13 or older,no,2021-03-22_03h59.56.982,empathy_intonation_perc,2020.2.10,Win32,60,,,,,,,,,,0,,,,,,,,,,,,,,,,,,,,,,,,,,,,,,,,1,0,1.29679,0,4,4,4,1,0,joten,REAL,FAKE,,,,,,,,,,,,,,,,,,,,,,,,,,,,,,,
,,,,,,,5f6bc8e8a9a9b4134c8719b4,6057c54e64b0b4e5c128b4f9,605846052b4e5756397443fe,United States,Northeast,13 or older,no,2021-03-22_03h59.56.982,empathy_intonation_perc,2020.2.10,Win32,60,,,,,,,,,,1,,,,,,,,,,,,,,,,,,,,,,,,,,,,,,,,1,1,1.068065,0,5,5,5,1,0,sacapuntas,REAL,FAKE,,,,,,,,,,,,,,,,,,,,,,,,,,,,,,,
,,,,,,,5f6bc8e8a9a9b4134c8719b4,6057c54e64b0b4e5c128b4f9,605846052b4e5756397443fe,United States,Northeast,13 or older,no,2021-03-22_03h59.56.982,empathy_intonation_perc,2020.2.10,Win32,60,,,,,,,,,,0,,,,,,,,,,,,,,,,,,,,,,,,,,,,,,,,1,0,1.96985,0,6,6,6,1,0,priba,REAL,FAKE,,,,,,,,,,,,,,,,,,,,,,,,,,,,,,,
,,,,,,,5f6bc8e8a9a9b4134c8719b4,6057c54e64b0b4e5c128b4f9,605846052b4e5756397443fe,United States,Northeast,13 or older,no,2021-03-22_03h59.56.982,empathy_intonation_perc,2020.2.10,Win32,60,,,,,,,,,,0,,,,,,,,,,,,,,,,,,,,,,,,,,,,,,,,1,0,2.0844,0,7,7,7,1,0,pelasula,REAL,FAKE,,,,,,,,,,,,,,,,,,,,,,,,,,,,,,,
,,,,,,,5f6bc8e8a9a9b4134c8719b4,6057c54e64b0b4e5c128b4f9,605846052b4e5756397443fe,United States,Northeast,13 or older,no,2021-03-22_03h59.56.982,empathy_intonation_perc,2020.2.10,Win32,60,,,,,,,,,,1,,,,,,,,,,,,,,,,,,,,,,,,,,,,,,,,1,1,1.4069,0,8,8,8,1,0,bien,REAL,FAKE,,,,,,,,,,,,,,,,,,,,,,,,,,,,,,,
,,,,,,,5f6bc8e8a9a9b4134c8719b4,6057c54e64b0b4e5c128b4f9,605846052b4e5756397443fe,United States,Northeast,13 or older,no,2021-03-22_03h59.56.982,empathy_intonation_perc,2020.2.10,Win32,60,,,,,,,,,,1,,,,,,,,,,,,,,,,,,,,,,,,,,,,,,,,1,1,4.47472,0,9,9,9,1,0,casa,REAL,FAKE,,,,,,,,,,,,,,,,,,,,,,,,,,,,,,,
,,,,,,,5f6bc8e8a9a9b4134c8719b4,6057c54e64b0b4e5c128b4f9,605846052b4e5756397443fe,United States,Northeast,13 or older,no,2021-03-22_03h59.56.982,empathy_intonation_perc,2020.2.10,Win32,60,,,,,,,,,,0,,,,,,,,,,,,,,,,,,,,,,,,,,,,,,,,0,1,1.65725,0,10,10,10,1,0,lejo,REAL,FAKE,,,,,,,,,,,,,,,,,,,,,,,,,,,,,,,
,,,,,,,5f6bc8e8a9a9b4134c8719b4,6057c54e64b0b4e5c128b4f9,605846052b4e5756397443fe,United States,Northeast,13 or older,no,2021-03-22_03h59.56.982,empathy_intonation_perc,2020.2.10,Win32,60,,,,,,,,,,0,,,,,,,,,,,,,,,,,,,,,,,,,,,,,,,,0,1,1.099535,0,11,11,11,1,0,pretantas,REAL,FAKE,,,,,,,,,,,,,,,,,,,,,,,,,,,,,,,
,,,,,,,5f6bc8e8a9a9b4134c8719b4,6057c54e64b0b4e5c128b4f9,605846052b4e5756397443fe,United States,Northeast,13 or older,no,2021-03-22_03h59.56.982,empathy_intonation_perc,2020.2.10,Win32,60,,,,,,,,,,0,,,,,,,,,,,,,,,,,,,,,,,,,,,,,,,,,,,,,,,,21,capillo,,,1,0,2.219245,0,0,0,20,1,REAL,FAKE,,,,,,,,,,,,,,,,,,,,,
,,,,,,,5f6bc8e8a9a9b4134c8719b4,6057c54e64b0b4e5c128b4f9,605846052b4e5756397443fe,United States,Northeast,13 or older,no,2021-03-22_03h59.56.982,empathy_intonation_perc,2020.2.10,Win32,60,,,,,,,,,,1,,,,,,,,,,,,,,,,,,,,,,,,,,,,,,,,,,,,,,,,60,matar,,,1,1,0.857705,0,1,1,59,1,REAL,FAKE,,,,,,,,,,,,,,,,,,,,,
,,,,,,,5f6bc8e8a9a9b4134c8719b4,6057c54e64b0b4e5c128b4f9,605846052b4e5756397443fe,United States,Northeast,13 or older,no,2021-03-22_03h59.56.982,empathy_intonation_perc,2020.2.10,Win32,60,,,,,,,,,,0,,,,,,,,,,,,,,,,,,,,,,,,,,,,,,,,,,,,,,,,32,fatacidad,,,0,1,1.17521,0,2,2,31,1,REAL,FAKE,,,,,,,,,,,,,,,,,,,,,
,,,,,,,5f6bc8e8a9a9b4134c8719b4,6057c54e64b0b4e5c128b4f9,605846052b4e5756397443fe,United States,Northeast,13 or older,no,2021-03-22_03h59.56.982,empathy_intonation_perc,2020.2.10,Win32,60,,,,,,,,,,0,,,,,,,,,,,,,,,,,,,,,,,,,,,,,,,,,,,,,,,,30,alardio,,,1,0,0.85182,0,3,3,29,1,REAL,FAKE,,,,,,,,,,,,,,,,,,,,,
,,,,,,,5f6bc8e8a9a9b4134c8719b4,6057c54e64b0b4e5c128b4f9,605846052b4e5756397443fe,United States,Northeast,13 or older,no,2021-03-22_03h59.56.982,empathy_intonation_perc,2020.2.10,Win32,60,,,,,,,,,,0,,,,,,,,,,,,,,,,,,,,,,,,,,,,,,,,,,,,,,,,70,temblo,,,1,0,1.291265,0,4,4,69,1,REAL,FAKE,,,,,,,,,,,,,,,,,,,,,
,,,,,,,5f6bc8e8a9a9b4134c8719b4,6057c54e64b0b4e5c128b4f9,605846052b4e5756397443fe,United States,Northeast,13 or older,no,2021-03-22_03h59.56.982,empathy_intonation_perc,2020.2.10,Win32,60,,,,,,,,,,1,,,,,,,,,,,,,,,,,,,,,,,,,,,,,,,,,,,,,,,,13,helar,,,1,1,1.255935,0,5,5,12,1,REAL,FAKE,,,,,,,,,,,,,,,,,,,,,
,,,,,,,5f6bc8e8a9a9b4134c8719b4,6057c54e64b0b4e5c128b4f9,605846052b4e5756397443fe,United States,Northeast,13 or older,no,2021-03-22_03h59.56.982,empathy_intonation_perc,2020.2.10,Win32,60,,,,,,,,,,1,,,,,,,,,,,,,,,,,,,,,,,,,,,,,,,,,,,,,,,,67,cabello,,,1,1,1.096165,0,6,6,66,1,REAL,FAKE,,,,,,,,,,,,,,,,,,,,,
,,,,,,,5f6bc8e8a9a9b4134c8719b4,6057c54e64b0b4e5c128b4f9,605846052b4e5756397443fe,United States,Northeast,13 or older,no,2021-03-22_03h59.56.982,empathy_intonation_perc,2020.2.10,Win32,60,,,,,,,,,,0,,,,,,,,,,,,,,,,,,,,,,,,,,,,,,,,,,,,,,,,58,plaudir,,,0,1,0.65284,0,7,7,57,1,REAL,FAKE,,,,,,,,,,,,,,,,,,,,,
,,,,,,,5f6bc8e8a9a9b4134c8719b4,6057c54e64b0b4e5c128b4f9,605846052b4e5756397443fe,United States,Northeast,13 or older,no,2021-03-22_03h59.56.982,empathy_intonation_perc,2020.2.10,Win32,60,,,,,,,,,,0,,,,,,,,,,,,,,,,,,,,,,,,,,,,,,,,,,,,,,,,42,cadallo,,,1,0,2.337535,0,8,8,41,1,REAL,FAKE,,,,,,,,,,,,,,,,,,,,,
,,,,,,,5f6bc8e8a9a9b4134c8719b4,6057c54e64b0b4e5c128b4f9,605846052b4e5756397443fe,United States,Northeast,13 or older,no,2021-03-22_03h59.56.982,empathy_intonation_perc,2020.2.10,Win32,60,,,,,,,,,,1,,,,,,,,,,,,,,,,,,,,,,,,,,,,,,,,,,,,,,,,77,tiburn,,,0,0,0.72905,0,9,9,76,1,REAL,FAKE,,,,,,,,,,,,,,,,,,,,,
,,,,,,,5f6bc8e8a9a9b4134c8719b4,6057c54e64b0b4e5c128b4f9,605846052b4e5756397443fe,United States,Northeast,13 or older,no,2021-03-22_03h59.56.982,empathy_intonation_perc,2020.2.10,Win32,60,,,,,,,,,,0,,,,,,,,,,,,,,,,,,,,,,,,,,,,,,,,,,,,,,,,84,escuto,,,1,0,1.30037,0,10,10,83,1,REAL,FAKE,,,,,,,,,,,,,,,,,,,,,
,,,,,,,5f6bc8e8a9a9b4134c8719b4,6057c54e64b0b4e5c128b4f9,605846052b4e5756397443fe,United States,Northeast,13 or older,no,2021-03-22_03h59.56.982,empathy_intonation_perc,2020.2.10,Win32,60,,,,,,,,,,0,,,,,,,,,,,,,,,,,,,,,,,,,,,,,,,,,,,,,,,,47,cartinar,,,1,0,1.140605,0,11,11,46,1,REAL,FAKE,,,,,,,,,,,,,,,,,,,,,
,,,,,,,5f6bc8e8a9a9b4134c8719b4,6057c54e64b0b4e5c128b4f9,605846052b4e5756397443fe,United States,Northeast,13 or older,no,2021-03-22_03h59.56.982,empathy_intonation_perc,2020.2.10,Win32,60,,,,,,,,,,1,,,,,,,,,,,,,,,,,,,,,,,,,,,,,,,,,,,,,,,,41,rebuscar,,,0,0,1.027035,0,12,12,40,1,REAL,FAKE,,,,,,,,,,,,,,,,,,,,,
,,,,,,,5f6bc8e8a9a9b4134c8719b4,6057c54e64b0b4e5c128b4f9,605846052b4e5756397443fe,United States,Northeast,13 or older,no,2021-03-22_03h59.56.982,empathy_intonation_perc,2020.2.10,Win32,60,,,,,,,,,,0,,,,,,,,,,,,,,,,,,,,,,,,,,,,,,,,,,,,,,,,82,empirador,,,0,1,1.871185,0,13,13,81,1,REAL,FAKE,,,,,,,,,,,,,,,,,,,,,
,,,,,,,5f6bc8e8a9a9b4134c8719b4,6057c54e64b0b4e5c128b4f9,605846052b4e5756397443fe,United States,Northeast,13 or older,no,2021-03-22_03h59.56.982,empathy_intonation_perc,2020.2.10,Win32,60,,,,,,,,,,1,,,,,,,,,,,,,,,,,,,,,,,,,,,,,,,,,,,,,,,,48,ladrn,,,0,0,1.215425,0,14,14,47,1,REAL,FAKE,,,,,,,,,,,,,,,,,,,,,
,,,,,,,5f6bc8e8a9a9b4134c8719b4,6057c54e64b0b4e5c128b4f9,605846052b4e5756397443fe,United States,Northeast,13 or older,no,2021-03-22_03h59.56.982,empathy_intonation_perc,2020.2.10,Win32,60,,,,,,,,,,1,,,,,,,,,,,,,,,,,,,,,,,,,,,,,,,,,,,,,,,,39,torpe,,,1,1,0.821605,0,15,15,38,1,REAL,FAKE,,,,,,,,,,,,,,,,,,,,,
,,,,,,,5f6bc8e8a9a9b4134c8719b4,6057c54e64b0b4e5c128b4f9,605846052b4e5756397443fe,United States,Northeast,13 or older,no,2021-03-22_03h59.56.982,empathy_intonation_perc,2020.2.10,Win32,60,,,,,,,,,,1,,,,,,,,,,,,,,,,,,,,,,,,,,,,,,,,,,,,,,,,69,engatusar,,,0,0,1.48085,0,16,16,68,1,REAL,FAKE,,,,,,,,,,,,,,,,,,,,,
,,,,,,,5f6bc8e8a9a9b4134c8719b4,6057c54e64b0b4e5c128b4f9,605846052b4e5756397443fe,United States,Northeast,13 or older,no,2021-03-22_03h59.56.982,empathy_intonation_perc,2020.2.10,Win32,60,,,,,,,,,,0,,,,,,,,,,,,,,,,,,,,,,,,,,,,,,,,,,,,,,,,74,cintro,,,1,0,0.954075,0,17,17,73,1,REAL,FAKE,,,,,,,,,,,,,,,,,,,,,
,,,,,,,5f6bc8e8a9a9b4134c8719b4,6057c54e64b0b4e5c128b4f9,605846052b4e5756397443fe,United States,Northeast,13 or older,no,2021-03-22_03h59.56.982,empathy_intonation_perc,2020.2.10,Win32,60,,,,,,,,,,1,,,,,,,,,,,,,,,,,,,,,,,,,,,,,,,,,,,,,,,,83,guante,,,0,0,1.053545,0,18,18,82,1,REAL,FAKE,,,,,,,,,,,,,,,,,,,,,
,,,,,,,5f6bc8e8a9a9b4134c8719b4,6057c54e64b0b4e5c128b4f9,605846052b4e5756397443fe,United States,Northeast,13 or older,no,2021-03-22_03h59.56.982,empathy_intonation_perc,2020.2.10,Win32,60,,,,,,,,,,1,,,,,,,,,,,,,,,,,,,,,,,,,,,,,,,,,,,,,,,,22,lacayo,,,0,0,0.903535,0,19,19,21,1,REAL,FAKE,,,,,,,,,,,,,,,,,,,,,
,,,,,,,5f6bc8e8a9a9b4134c8719b4,6057c54e64b0b4e5c128b4f9,605846052b4e5756397443fe,United States,Northeast,13 or older,no,2021-03-22_03h59.56.982,empathy_intonation_perc,2020.2.10,Win32,60,,,,,,,,,,1,,,,,,,,,,,,,,,,,,,,,,,,,,,,,,,,,,,,,,,,11,cenefa,,,0,0,1.330145,0,20,20,10,1,REAL,FAKE,,,,,,,,,,,,,,,,,,,,,
,,,,,,,5f6bc8e8a9a9b4134c8719b4,6057c54e64b0b4e5c128b4f9,605846052b4e5756397443fe,United States,Northeast,13 or older,no,2021-03-22_03h59.56.982,empathy_intonation_perc,2020.2.10,Win32,60,,,,,,,,,,1,,,,,,,,,,,,,,,,,,,,,,,,,,,,,,,,,,,,,,,,80,hormiga,,,0,0,1.076455,0,21,21,79,1,REAL,FAKE,,,,,,,,,,,,,,,,,,,,,
,,,,,,,5f6bc8e8a9a9b4134c8719b4,6057c54e64b0b4e5c128b4f9,605846052b4e5756397443fe,United States,Northeast,13 or older,no,2021-03-22_03h59.56.982,empathy_intonation_perc,2020.2.10,Win32,60,,,,,,,,,,0,,,,,,,,,,,,,,,,,,,,,,,,,,,,,,,,,,,,,,,,16,abracer,,,0,1,0.97943,0,22,22,15,1,REAL,FAKE,,,,,,,,,,,,,,,,,,,,,
,,,,,,,5f6bc8e8a9a9b4134c8719b4,6057c54e64b0b4e5c128b4f9,605846052b4e5756397443fe,United States,Northeast,13 or older,no,2021-03-22_03h59.56.982,empathy_intonation_perc,2020.2.10,Win32,60,,,,,,,,,,0,,,,,,,,,,,,,,,,,,,,,,,,,,,,,,,,,,,,,,,,17,floroso,,,1,0,1.17971,0,23,23,16,1,REAL,FAKE,,,,,,,,,,,,,,,,,,,,,
,,,,,,,5f6bc8e8a9a9b4134c8719b4,6057c54e64b0b4e5c128b4f9,605846052b4e5756397443fe,United States,Northeast,13 or older,no,2021-03-22_03h59.56.982,empathy_intonation_perc,2020.2.10,Win32,60,,,,,,,,,,1,,,,,,,,,,,,,,,,,,,,,,,,,,,,,,,,,,,,,,,,81,pozo,,,0,0,0.84638,0,24,24,80,1,REAL,FAKE,,,,,,,,,,,,,,,,,,,,,
,,,,,,,5f6bc8e8a9a9b4134c8719b4,6057c54e64b0b4e5c128b4f9,605846052b4e5756397443fe,United States,Northeast,13 or older,no,2021-03-22_03h59.56.982,empathy_intonation_perc,2020.2.10,Win32,60,,,,,,,,,,1,,,,,,,,,,,,,,,,,,,,,,,,,,,,,,,,,,,,,,,,54,fomentar,,,0,0,1.176475,0,25,25,53,1,REAL,FAKE,,,,,,,,,,,,,,,,,,,,,
,,,,,,,5f6bc8e8a9a9b4134c8719b4,6057c54e64b0b4e5c128b4f9,605846052b4e5756397443fe,United States,Northeast,13 or older,no,2021-03-22_03h59.56.982,empathy_intonation_perc,2020.2.10,Win32,60,,,,,,,,,,0,,,,,,,,,,,,,,,,,,,,,,,,,,,,,,,,,,,,,,,,27,acutacin,,,1,0,1.02533,0,26,26,26,1,REAL,FAKE,,,,,,,,,,,,,,,,,,,,,
,,,,,,,5f6bc8e8a9a9b4134c8719b4,6057c54e64b0b4e5c128b4f9,605846052b4e5756397443fe,United States,Northeast,13 or older,no,2021-03-22_03h59.56.982,empathy_intonation_perc,2020.2.10,Win32,60,,,,,,,,,,1,,,,,,,,,,,,,,,,,,,,,,,,,,,,,,,,,,,,,,,,44,cuchara,,,0,0,1.29722,0,27,27,43,1,REAL,FAKE,,,,,,,,,,,,,,,,,,,,,
,,,,,,,5f6bc8e8a9a9b4134c8719b4,6057c54e64b0b4e5c128b4f9,605846052b4e5756397443fe,United States,Northeast,13 or older,no,2021-03-22_03h59.56.982,empathy_intonation_perc,2020.2.10,Win32,60,,,,,,,,,,1,,,,,,,,,,,,,,,,,,,,,,,,,,,,,,,,,,,,,,,,86,barato,,,0,0,0.803,0,28,28,85,1,REAL,FAKE,,,,,,,,,,,,,,,,,,,,,
,,,,,,,5f6bc8e8a9a9b4134c8719b4,6057c54e64b0b4e5c128b4f9,605846052b4e5756397443fe,United States,Northeast,13 or older,no,2021-03-22_03h59.56.982,empathy_intonation_perc,2020.2.10,Win32,60,,,,,,,,,,1,,,,,,,,,,,,,,,,,,,,,,,,,,,,,,,,,,,,,,,,37,granuja,,,1,1,1.260705,0,29,29,36,1,REAL,FAKE,,,,,,,,,,,,,,,,,,,,,
,,,,,,,5f6bc8e8a9a9b4134c8719b4,6057c54e64b0b4e5c128b4f9,605846052b4e5756397443fe,United States,Northeast,13 or older,no,2021-03-22_03h59.56.982,empathy_intonation_perc,2020.2.10,Win32,60,,,,,,,,,,0,,,,,,,,,,,,,,,,,,,,,,,,,,,,,,,,,,,,,,,,10,antar,,,0,1,0.75444,0,30,30,9,1,REAL,FAKE,,,,,,,,,,,,,,,,,,,,,
,,,,,,,5f6bc8e8a9a9b4134c8719b4,6057c54e64b0b4e5c128b4f9,605846052b4e5756397443fe,United States,Northeast,13 or older,no,2021-03-22_03h59.56.982,empathy_intonation_perc,2020.2.10,Win32,60,,,,,,,,,,0,,,,,,,,,,,,,,,,,,,,,,,,,,,,,,,,,,,,,,,,19,brecedad,,,0,1,0.94953,0,31,31,18,1,REAL,FAKE,,,,,,,,,,,,,,,,,,,,,
,,,,,,,5f6bc8e8a9a9b4134c8719b4,6057c54e64b0b4e5c128b4f9,605846052b4e5756397443fe,United States,Northeast,13 or older,no,2021-03-22_03h59.56.982,empathy_intonation_perc,2020.2.10,Win32,60,,,,,,,,,,0,,,,,,,,,,,,,,,,,,,,,,,,,,,,,,,,,,,,,,,,4,batilln,,,0,1,1.289085,0,32,32,3,1,REAL,FAKE,,,,,,,,,,,,,,,,,,,,,
,,,,,,,5f6bc8e8a9a9b4134c8719b4,6057c54e64b0b4e5c128b4f9,605846052b4e5756397443fe,United States,Northeast,13 or older,no,2021-03-22_03h59.56.982,empathy_intonation_perc,2020.2.10,Win32,60,,,,,,,,,,1,,,,,,,,,,,,,,,,,,,,,,,,,,,,,,,,,,,,,,,,71,polvoriento,,,1,1,1.428215,0,33,33,70,1,REAL,FAKE,,,,,,,,,,,,,,,,,,,,,
,,,,,,,5f6bc8e8a9a9b4134c8719b4,6057c54e64b0b4e5c128b4f9,605846052b4e5756397443fe,United States,Northeast,13 or older,no,2021-03-22_03h59.56.982,empathy_intonation_perc,2020.2.10,Win32,60,,,,,,,,,,1,,,,,,,,,,,,,,,,,,,,,,,,,,,,,,,,,,,,,,,,46,martillo,,,1,1,0.940315,0,34,34,45,1,REAL,FAKE,,,,,,,,,,,,,,,,,,,,,
,,,,,,,5f6bc8e8a9a9b4134c8719b4,6057c54e64b0b4e5c128b4f9,605846052b4e5756397443fe,United States,Northeast,13 or older,no,2021-03-22_03h59.56.982,empathy_intonation_perc,2020.2.10,Win32,60,,,,,,,,,,1,,,,,,,,,,,,,,,,,,,,,,,,,,,,,,,,,,,,,,,,49,ganar,,,0,0,0.65842,0,35,35,48,1,REAL,FAKE,,,,,,,,,,,,,,,,,,,,,
,,,,,,,5f6bc8e8a9a9b4134c8719b4,6057c54e64b0b4e5c128b4f9,605846052b4e5756397443fe,United States,Northeast,13 or older,no,2021-03-22_03h59.56.982,empathy_intonation_perc,2020.2.10,Win32,60,,,,,,,,,,1,,,,,,,,,,,,,,,,,,,,,,,,,,,,,,,,,,,,,,,,90,clavel,,,0,0,0.69176,0,36,36,89,1,REAL,FAKE,,,,,,,,,,,,,,,,,,,,,
,,,,,,,5f6bc8e8a9a9b4134c8719b4,6057c54e64b0b4e5c128b4f9,605846052b4e5756397443fe,United States,Northeast,13 or older,no,2021-03-22_03h59.56.982,empathy_intonation_perc,2020.2.10,Win32,60,,,,,,,,,,0,,,,,,,,,,,,,,,,,,,,,,,,,,,,,,,,,,,,,,,,35,rompido,,,0,1,0.89905,0,37,37,34,1,REAL,FAKE,,,,,,,,,,,,,,,,,,,,,
,,,,,,,5f6bc8e8a9a9b4134c8719b4,6057c54e64b0b4e5c128b4f9,605846052b4e5756397443fe,United States,Northeast,13 or older,no,2021-03-22_03h59.56.982,empathy_intonation_perc,2020.2.10,Win32,60,,,,,,,,,,1,,,,,,,,,,,,,,,,,,,,,,,,,,,,,,,,,,,,,,,,9,hacha,,,0,0,0.707805,0,38,38,8,1,REAL,FAKE,,,,,,,,,,,,,,,,,,,,,
,,,,,,,5f6bc8e8a9a9b4134c8719b4,6057c54e64b0b4e5c128b4f9,605846052b4e5756397443fe,United States,Northeast,13 or older,no,2021-03-22_03h59.56.982,empathy_intonation_perc,2020.2.10,Win32,60,,,,,,,,,,1,,,,,,,,,,,,,,,,,,,,,,,,,,,,,,,,,,,,,,,,43,canela,,,1,1,1.323265,0,39,39,42,1,REAL,FAKE,,,,,,,,,,,,,,,,,,,,,
,,,,,,,5f6bc8e8a9a9b4134c8719b4,6057c54e64b0b4e5c128b4f9,605846052b4e5756397443fe,United States,Northeast,13 or older,no,2021-03-22_03h59.56.982,empathy_intonation_perc,2020.2.10,Win32,60,,,,,,,,,,1,,,,,,,,,,,,,,,,,,,,,,,,,,,,,,,,,,,,,,,,88,acantilado,,,1,1,2.416965,0,40,40,87,1,REAL,FAKE,,,,,,,,,,,,,,,,,,,,,
,,,,,,,5f6bc8e8a9a9b4134c8719b4,6057c54e64b0b4e5c128b4f9,605846052b4e5756397443fe,United States,Northeast,13 or older,no,2021-03-22_03h59.56.982,empathy_intonation_perc,2020.2.10,Win32,60,,,,,,,,,,1,,,,,,,,,,,,,,,,,,,,,,,,,,,,,,,,,,,,,,,,26,secuestro,,,1,1,1.233085,0,41,41,25,1,REAL,FAKE,,,,,,,,,,,,,,,,,,,,,
,,,,,,,5f6bc8e8a9a9b4134c8719b4,6057c54e64b0b4e5c128b4f9,605846052b4e5756397443fe,United States,Northeast,13 or older,no,2021-03-22_03h59.56.982,empathy_intonation_perc,2020.2.10,Win32,60,,,,,,,,,,0,,,,,,,,,,,,,,,,,,,,,,,,,,,,,,,,,,,,,,,,63,esposante,,,1,0,2.30913,0,42,42,62,1,REAL,FAKE,,,,,,,,,,,,,,,,,,,,,
,,,,,,,5f6bc8e8a9a9b4134c8719b4,6057c54e64b0b4e5c128b4f9,605846052b4e5756397443fe,United States,Northeast,13 or older,no,2021-03-22_03h59.56.982,empathy_intonation_perc,2020.2.10,Win32,60,,,,,,,,,,1,,,,,,,,,,,,,,,,,,,,,,,,,,,,,,,,,,,,,,,,73,hervidor,,,0,0,0.83186,0,43,43,72,1,REAL,FAKE,,,,,,,,,,,,,,,,,,,,,
,,,,,,,5f6bc8e8a9a9b4134c8719b4,6057c54e64b0b4e5c128b4f9,605846052b4e5756397443fe,United States,Northeast,13 or older,no,2021-03-22_03h59.56.982,empathy_intonation_perc,2020.2.10,Win32,60,,,,,,,,,,1,,,,,,,,,,,,,,,,,,,,,,,,,,,,,,,,,,,,,,,,76,atar,,,0,0,0.637725,0,44,44,75,1,REAL,FAKE,,,,,,,,,,,,,,,,,,,,,
,,,,,,,5f6bc8e8a9a9b4134c8719b4,6057c54e64b0b4e5c128b4f9,605846052b4e5756397443fe,United States,Northeast,13 or older,no,2021-03-22_03h59.56.982,empathy_intonation_perc,2020.2.10,Win32,60,,,,,,,,,,1,,,,,,,,,,,,,,,,,,,,,,,,,,,,,,,,,,,,,,,,51,candado,,,0,0,1.20032,0,45,45,50,1,REAL,FAKE,,,,,,,,,,,,,,,,,,,,,
,,,,,,,5f6bc8e8a9a9b4134c8719b4,6057c54e64b0b4e5c128b4f9,605846052b4e5756397443fe,United States,Northeast,13 or older,no,2021-03-22_03h59.56.982,empathy_intonation_perc,2020.2.10,Win32,60,,,,,,,,,,1,,,,,,,,,,,,,,,,,,,,,,,,,,,,,,,,,,,,,,,,2,pellizcar,,,0,0,1.077945,0,46,46,1,1,REAL,FAKE,,,,,,,,,,,,,,,,,,,,,
,,,,,,,5f6bc8e8a9a9b4134c8719b4,6057c54e64b0b4e5c128b4f9,605846052b4e5756397443fe,United States,Northeast,13 or older,no,2021-03-22_03h59.56.982,empathy_intonation_perc,2020.2.10,Win32,60,,,,,,,,,,0,,,,,,,,,,,,,,,,,,,,,,,,,,,,,,,,,,,,,,,,87,grodo,,,0,1,0.888215,0,47,47,86,1,REAL,FAKE,,,,,,,,,,,,,,,,,,,,,
,,,,,,,5f6bc8e8a9a9b4134c8719b4,6057c54e64b0b4e5c128b4f9,605846052b4e5756397443fe,United States,Northeast,13 or older,no,2021-03-22_03h59.56.982,empathy_intonation_perc,2020.2.10,Win32,60,,,,,,,,,,1,,,,,,,,,,,,,,,,,,,,,,,,,,,,,,,,,,,,,,,,3,pulmones,,,1,1,1.139625,0,48,48,2,1,REAL,FAKE,,,,,,,,,,,,,,,,,,,,,
,,,,,,,5f6bc8e8a9a9b4134c8719b4,6057c54e64b0b4e5c128b4f9,605846052b4e5756397443fe,United States,Northeast,13 or older,no,2021-03-22_03h59.56.982,empathy_intonation_perc,2020.2.10,Win32,60,,,,,,,,,,0,,,,,,,,,,,,,,,,,,,,,,,,,,,,,,,,,,,,,,,,72,pemicin,,,1,0,1.23836,0,49,49,71,1,REAL,FAKE,,,,,,,,,,,,,,,,,,,,,
,,,,,,,5f6bc8e8a9a9b4134c8719b4,6057c54e64b0b4e5c128b4f9,605846052b4e5756397443fe,United States,Northeast,13 or older,no,2021-03-22_03h59.56.982,empathy_intonation_perc,2020.2.10,Win32,60,,,,,,,,,,1,,,,,,,,,,,,,,,,,,,,,,,,,,,,,,,,,,,,,,,,31,pandilla,,,0,0,0.91945,0,50,50,30,1,REAL,FAKE,,,,,,,,,,,,,,,,,,,,,
,,,,,,,5f6bc8e8a9a9b4134c8719b4,6057c54e64b0b4e5c128b4f9,605846052b4e5756397443fe,United States,Northeast,13 or older,no,2021-03-22_03h59.56.982,empathy_intonation_perc,2020.2.10,Win32,60,,,,,,,,,,0,,,,,,,,,,,,,,,,,,,,,,,,,,,,,,,,,,,,,,,,66,hacido,,,0,1,1.01665,0,51,51,65,1,REAL,FAKE,,,,,,,,,,,,,,,,,,,,,
,,,,,,,5f6bc8e8a9a9b4134c8719b4,6057c54e64b0b4e5c128b4f9,605846052b4e5756397443fe,United States,Northeast,13 or older,no,2021-03-22_03h59.56.982,empathy_intonation_perc,2020.2.10,Win32,60,,,,,,,,,,1,,,,,,,,,,,,,,,,,,,,,,,,,,,,,,,,,,,,,,,,36,loro,,,0,0,1.677505,0,52,52,35,1,REAL,FAKE,,,,,,,,,,,,,,,,,,,,,
,,,,,,,5f6bc8e8a9a9b4134c8719b4,6057c54e64b0b4e5c128b4f9,605846052b4e5756397443fe,United States,Northeast,13 or older,no,2021-03-22_03h59.56.982,empathy_intonation_perc,2020.2.10,Win32,60,,,,,,,,,,1,,,,,,,,,,,,,,,,,,,,,,,,,,,,,,,,,,,,,,,,68,alegre,,,0,0,1.321405,0,53,53,67,1,REAL,FAKE,,,,,,,,,,,,,,,,,,,,,
,,,,,,,5f6bc8e8a9a9b4134c8719b4,6057c54e64b0b4e5c128b4f9,605846052b4e5756397443fe,United States,Northeast,13 or older,no,2021-03-22_03h59.56.982,empathy_intonation_perc,2020.2.10,Win32,60,,,,,,,,,,0,,,,,,,,,,,,,,,,,,,,,,,,,,,,,,,,,,,,,,,,23,lampera,,,0,1,0.95132,0,54,54,22,1,REAL,FAKE,,,,,,,,,,,,,,,,,,,,,
,,,,,,,5f6bc8e8a9a9b4134c8719b4,6057c54e64b0b4e5c128b4f9,605846052b4e5756397443fe,United States,Northeast,13 or older,no,2021-03-22_03h59.56.982,empathy_intonation_perc,2020.2.10,Win32,60,,,,,,,,,,0,,,,,,,,,,,,,,,,,,,,,,,,,,,,,,,,,,,,,,,,79,tropaje,,,0,1,2.737845,0,55,55,78,1,REAL,FAKE,,,,,,,,,,,,,,,,,,,,,
,,,,,,,5f6bc8e8a9a9b4134c8719b4,6057c54e64b0b4e5c128b4f9,605846052b4e5756397443fe,United States,Northeast,13 or older,no,2021-03-22_03h59.56.982,empathy_intonation_perc,2020.2.10,Win32,60,,,,,,,,,,1,,,,,,,,,,,,,,,,,,,,,,,,,,,,,,,,,,,,,,,,52,camisa,,,1,1,0.90945,0,56,56,51,1,REAL,FAKE,,,,,,,,,,,,,,,,,,,,,
,,,,,,,5f6bc8e8a9a9b4134c8719b4,6057c54e64b0b4e5c128b4f9,605846052b4e5756397443fe,United States,Northeast,13 or older,no,2021-03-22_03h59.56.982,empathy_intonation_perc,2020.2.10,Win32,60,,,,,,,,,,1,,,,,,,,,,,,,,,,,,,,,,,,,,,,,,,,,,,,,,,,20,vido,,,1,1,1.891515,0,57,57,19,1,REAL,FAKE,,,,,,,,,,,,,,,,,,,,,
,,,,,,,5f6bc8e8a9a9b4134c8719b4,6057c54e64b0b4e5c128b4f9,605846052b4e5756397443fe,United States,Northeast,13 or older,no,2021-03-22_03h59.56.982,empathy_intonation_perc,2020.2.10,Win32,60,,,,,,,,,,1,,,,,,,,,,,,,,,,,,,,,,,,,,,,,,,,,,,,,,,,12,asesinato,,,0,0,1.720375,0,58,58,11,1,REAL,FAKE,,,,,,,,,,,,,,,,,,,,,
,,,,,,,5f6bc8e8a9a9b4134c8719b4,6057c54e64b0b4e5c128b4f9,605846052b4e5756397443fe,United States,Northeast,13 or older,no,2021-03-22_03h59.56.982,empathy_intonation_perc,2020.2.10,Win32,60,,,,,,,,,,0,,,,,,,,,,,,,,,,,,,,,,,,,,,,,,,,,,,,,,,,29,decar,,,0,1,3.208455,0,59,59,28,1,REAL,FAKE,,,,,,,,,,,,,,,,,,,,,
,,,,,,,5f6bc8e8a9a9b4134c8719b4,6057c54e64b0b4e5c128b4f9,605846052b4e5756397443fe,United States,Northeast,13 or older,no,2021-03-22_03h59.56.982,empathy_intonation_perc,2020.2.10,Win32,60,,,,,,,,,,1,,,,,,,,,,,,,,,,,,,,,,,,,,,,,,,,,,,,,,,,7,psimo,,,1,1,2.361185,0,60,60,6,1,REAL,FAKE,,,,,,,,,,,,,,,,,,,,,
,,,,,,,5f6bc8e8a9a9b4134c8719b4,6057c54e64b0b4e5c128b4f9,605846052b4e5756397443fe,United States,Northeast,13 or older,no,2021-03-22_03h59.56.982,empathy_intonation_perc,2020.2.10,Win32,60,,,,,,,,,,0,,,,,,,,,,,,,,,,,,,,,,,,,,,,,,,,,,,,,,,,50,flamida,,,0,1,0.85867,0,61,61,49,1,REAL,FAKE,,,,,,,,,,,,,,,,,,,,,
,,,,,,,5f6bc8e8a9a9b4134c8719b4,6057c54e64b0b4e5c128b4f9,605846052b4e5756397443fe,United States,Northeast,13 or older,no,2021-03-22_03h59.56.982,empathy_intonation_perc,2020.2.10,Win32,60,,,,,,,,,,1,,,,,,,,,,,,,,,,,,,,,,,,,,,,,,,,,,,,,,,,34,aviso,,,0,0,1.73913,0,62,62,33,1,REAL,FAKE,,,,,,,,,,,,,,,,,,,,,
,,,,,,,5f6bc8e8a9a9b4134c8719b4,6057c54e64b0b4e5c128b4f9,605846052b4e5756397443fe,United States,Northeast,13 or older,no,2021-03-22_03h59.56.982,empathy_intonation_perc,2020.2.10,Win32,60,,,,,,,,,,1,,,,,,,,,,,,,,,,,,,,,,,,,,,,,,,,,,,,,,,,89,prisa,,,0,0,1.21088,0,63,63,88,1,REAL,FAKE,,,,,,,,,,,,,,,,,,,,,
,,,,,,,5f6bc8e8a9a9b4134c8719b4,6057c54e64b0b4e5c128b4f9,605846052b4e5756397443fe,United States,Northeast,13 or older,no,2021-03-22_03h59.56.982,empathy_intonation_perc,2020.2.10,Win32,60,,,,,,,,,,1,,,,,,,,,,,,,,,,,,,,,,,,,,,,,,,,,,,,,,,,28,merodear,,,0,0,1.320305,0,64,64,27,1,REAL,FAKE,,,,,,,,,,,,,,,,,,,,,
,,,,,,,5f6bc8e8a9a9b4134c8719b4,6057c54e64b0b4e5c128b4f9,605846052b4e5756397443fe,United States,Northeast,13 or older,no,2021-03-22_03h59.56.982,empathy_intonation_perc,2020.2.10,Win32,60,,,,,,,,,,1,,,,,,,,,,,,,,,,,,,,,,,,,,,,,,,,,,,,,,,,25,bisagra,,,0,0,0.851355,0,65,65,24,1,REAL,FAKE,,,,,,,,,,,,,,,,,,,,,
,,,,,,,5f6bc8e8a9a9b4134c8719b4,6057c54e64b0b4e5c128b4f9,605846052b4e5756397443fe,United States,Northeast,13 or older,no,2021-03-22_03h59.56.982,empathy_intonation_perc,2020.2.10,Win32,60,,,,,,,,,,1,,,,,,,,,,,,,,,,,,,,,,,,,,,,,,,,,,,,,,,,62,flaco,,,0,0,1.173115,0,66,66,61,1,REAL,FAKE,,,,,,,,,,,,,,,,,,,,,
,,,,,,,5f6bc8e8a9a9b4134c8719b4,6057c54e64b0b4e5c128b4f9,605846052b4e5756397443fe,United States,Northeast,13 or older,no,2021-03-22_03h59.56.982,empathy_intonation_perc,2020.2.10,Win32,60,,,,,,,,,,1,,,,,,,,,,,,,,,,,,,,,,,,,,,,,,,,,,,,,,,,24,ltigo,,,1,1,0.747465,0,67,67,23,1,REAL,FAKE,,,,,,,,,,,,,,,,,,,,,
,,,,,,,5f6bc8e8a9a9b4134c8719b4,6057c54e64b0b4e5c128b4f9,605846052b4e5756397443fe,United States,Northeast,13 or older,no,2021-03-22_03h59.56.982,empathy_intonation_perc,2020.2.10,Win32,60,,,,,,,,,,0,,,,,,,,,,,,,,,,,,,,,,,,,,,,,,,,,,,,,,,,8,cadea,,,1,0,1.37984,0,68,68,7,1,REAL,FAKE,,,,,,,,,,,,,,,,,,,,,
,,,,,,,5f6bc8e8a9a9b4134c8719b4,6057c54e64b0b4e5c128b4f9,605846052b4e5756397443fe,United States,Northeast,13 or older,no,2021-03-22_03h59.56.982,empathy_intonation_perc,2020.2.10,Win32,60,,,,,,,,,,1,,,,,,,,,,,,,,,,,,,,,,,,,,,,,,,,,,,,,,,,5,zapato,,,0,0,0.69077,0,69,69,4,1,REAL,FAKE,,,,,,,,,,,,,,,,,,,,,
,,,,,,,5f6bc8e8a9a9b4134c8719b4,6057c54e64b0b4e5c128b4f9,605846052b4e5756397443fe,United States,Northeast,13 or older,no,2021-03-22_03h59.56.982,empathy_intonation_perc,2020.2.10,Win32,60,,,,,,,,,,1,,,,,,,,,,,,,,,,,,,,,,,,,,,,,,,,,,,,,,,,65,bizcocho,,,0,0,1.114335,0,70,70,64,1,REAL,FAKE,,,,,,,,,,,,,,,,,,,,,
,,,,,,,5f6bc8e8a9a9b4134c8719b4,6057c54e64b0b4e5c128b4f9,605846052b4e5756397443fe,United States,Northeast,13 or older,no,2021-03-22_03h59.56.982,empathy_intonation_perc,2020.2.10,Win32,60,,,,,,,,,,1,,,,,,,,,,,,,,,,,,,,,,,,,,,,,,,,,,,,,,,,45,jilguero,,,0,0,0.9915,0,71,71,44,1,REAL,FAKE,,,,,,,,,,,,,,,,,,,,,
,,,,,,,5f6bc8e8a9a9b4134c8719b4,6057c54e64b0b4e5c128b4f9,605846052b4e5756397443fe,United States,Northeast,13 or older,no,2021-03-22_03h59.56.982,empathy_intonation_perc,2020.2.10,Win32,60,,,,,,,,,,1,,,,,,,,,,,,,,,,,,,,,,,,,,,,,,,,,,,,,,,,59,besar,,,0,0,1.037005,0,72,72,58,1,REAL,FAKE,,,,,,,,,,,,,,,,,,,,,
,,,,,,,5f6bc8e8a9a9b4134c8719b4,6057c54e64b0b4e5c128b4f9,605846052b4e5756397443fe,United States,Northeast,13 or older,no,2021-03-22_03h59.56.982,empathy_intonation_perc,2020.2.10,Win32,60,,,,,,,,,,1,,,,,,,,,,,,,,,,,,,,,,,,,,,,,,,,,,,,,,,,85,lad,,,1,1,0.72252,0,73,73,84,1,REAL,FAKE,,,,,,,,,,,,,,,,,,,,,
,,,,,,,5f6bc8e8a9a9b4134c8719b4,6057c54e64b0b4e5c128b4f9,605846052b4e5756397443fe,United States,Northeast,13 or older,no,2021-03-22_03h59.56.982,empathy_intonation_perc,2020.2.10,Win32,60,,,,,,,,,,1,,,,,,,,,,,,,,,,,,,,,,,,,,,,,,,,,,,,,,,,55,nevar,,,0,0,1.47761,0,74,74,54,1,REAL,FAKE,,,,,,,,,,,,,,,,,,,,,
,,,,,,,5f6bc8e8a9a9b4134c8719b4,6057c54e64b0b4e5c128b4f9,605846052b4e5756397443fe,United States,Northeast,13 or older,no,2021-03-22_03h59.56.982,empathy_intonation_perc,2020.2.10,Win32,60,,,,,,,,,,1,,,,,,,,,,,,,,,,,,,,,,,,,,,,,,,,,,,,,,,,40,alfombra,,,0,0,1.1947,0,75,75,39,1,REAL,FAKE,,,,,,,,,,,,,,,,,,,,,
,,,,,,,5f6bc8e8a9a9b4134c8719b4,6057c54e64b0b4e5c128b4f9,605846052b4e5756397443fe,United States,Northeast,13 or older,no,2021-03-22_03h59.56.982,empathy_intonation_perc,2020.2.10,Win32,60,,,,,,,,,,1,,,,,,,,,,,,,,,,,,,,,,,,,,,,,,,,,,,,,,,,38,estornudar,,,0,0,1.27119,0,76,76,37,1,REAL,FAKE,,,,,,,,,,,,,,,,,,,,,
,,,,,,,5f6bc8e8a9a9b4134c8719b4,6057c54e64b0b4e5c128b4f9,605846052b4e5756397443fe,United States,Northeast,13 or older,no,2021-03-22_03h59.56.982,empathy_intonation_perc,2020.2.10,Win32,60,,,,,,,,,,1,,,,,,,,,,,,,,,,,,,,,,,,,,,,,,,,,,,,,,,,57,tacao,,,1,1,0.961365,0,77,77,56,1,REAL,FAKE,,,,,,,,,,,,,,,,,,,,,
,,,,,,,5f6bc8e8a9a9b4134c8719b4,6057c54e64b0b4e5c128b4f9,605846052b4e5756397443fe,United States,Northeast,13 or older,no,2021-03-22_03h59.56.982,empathy_intonation_perc,2020.2.10,Win32,60,,,,,,,,,,1,,,,,,,,,,,,,,,,,,,,,,,,,,,,,,,,,,,,,,,,64,orgulloso,,,0,0,0.87475,0,78,78,63,1,REAL,FAKE,,,,,,,,,,,,,,,,,,,,,
,,,,,,,5f6bc8e8a9a9b4134c8719b4,6057c54e64b0b4e5c128b4f9,605846052b4e5756397443fe,United States,Northeast,13 or older,no,2021-03-22_03h59.56.982,empathy_intonation_perc,2020.2.10,Win32,60,,,,,,,,,,1,,,,,,,,,,,,,,,,,,,,,,,,,,,,,,,,,,,,,,,,15,regar,,,0,0,1.64395,0,79,79,14,1,REAL,FAKE,,,,,,,,,,,,,,,,,,,,,
,,,,,,,5f6bc8e8a9a9b4134c8719b4,6057c54e64b0b4e5c128b4f9,605846052b4e5756397443fe,United States,Northeast,13 or older,no,2021-03-22_03h59.56.982,empathy_intonation_perc,2020.2.10,Win32,60,,,,,,,,,,1,,,,,,,,,,,,,,,,,,,,,,,,,,,,,,,,,,,,,,,,56,musgo,,,0,0,2.71501,0,80,80,55,1,REAL,FAKE,,,,,,,,,,,,,,,,,,,,,
,,,,,,,5f6bc8e8a9a9b4134c8719b4,6057c54e64b0b4e5c128b4f9,605846052b4e5756397443fe,United States,Northeast,13 or older,no,2021-03-22_03h59.56.982,empathy_intonation_perc,2020.2.10,Win32,60,,,,,,,,,,1,,,,,,,,,,,,,,,,,,,,,,,,,,,,,,,,,,,,,,,,6,tergiversar,,,0,0,1.514685,0,81,81,5,1,REAL,FAKE,,,,,,,,,,,,,,,,,,,,,
,,,,,,,5f6bc8e8a9a9b4134c8719b4,6057c54e64b0b4e5c128b4f9,605846052b4e5756397443fe,United States,Northeast,13 or older,no,2021-03-22_03h59.56.982,empathy_intonation_perc,2020.2.10,Win32,60,,,,,,,,,,0,,,,,,,,,,,,,,,,,,,,,,,,,,,,,,,,,,,,,,,,33,pauca,,,0,1,7.155105,0,82,82,32,1,REAL,FAKE,,,,,,,,,,,,,,,,,,,,,
,,,,,,,5f6bc8e8a9a9b4134c8719b4,6057c54e64b0b4e5c128b4f9,605846052b4e5756397443fe,United States,Northeast,13 or older,no,2021-03-22_03h59.56.982,empathy_intonation_perc,2020.2.10,Win32,60,,,,,,,,,,0,,,,,,,,,,,,,,,,,,,,,,,,,,,,,,,,,,,,,,,,53,vegada,,,0,1,9.51605,0,83,83,52,1,REAL,FAKE,,,,,,,,,,,,,,,,,,,,,
,,,,,,,5f6bc8e8a9a9b4134c8719b4,6057c54e64b0b4e5c128b4f9,605846052b4e5756397443fe,United States,Northeast,13 or older,no,2021-03-22_03h59.56.982,empathy_intonation_perc,2020.2.10,Win32,60,,,,,,,,,,1,,,,,,,,,,,,,,,,,,,,,,,,,,,,,,,,,,,,,,,,61,seda,,,1,1,9.250385,0,84,84,60,1,REAL,FAKE,,,,,,,,,,,,,,,,,,,,,
,,,,,,,5f6bc8e8a9a9b4134c8719b4,6057c54e64b0b4e5c128b4f9,605846052b4e5756397443fe,United States,Northeast,13 or older,no,2021-03-22_03h59.56.982,empathy_intonation_perc,2020.2.10,Win32,60,,,,,,,,,,1,,,,,,,,,,,,,,,,,,,,,,,,,,,,,,,,,,,,,,,,78,frondoso,,,0,0,6.612345,0,85,85,77,1,REAL,FAKE,,,,,,,,,,,,,,,,,,,,,
,,,,,,,5f6bc8e8a9a9b4134c8719b4,6057c54e64b0b4e5c128b4f9,605846052b4e5756397443fe,United States,Northeast,13 or older,no,2021-03-22_03h59.56.982,empathy_intonation_perc,2020.2.10,Win32,60,,,,,,,,,,0,,,,,,,,,,,,,,,,,,,,,,,,,,,,,,,,,,,,,,,,1,terzo,,,0,1,2.25417,0,86,86,0,1,REAL,FAKE,,,,,,,,,,,,,,,,,,,,,
,,,,,,,5f6bc8e8a9a9b4134c8719b4,6057c54e64b0b4e5c128b4f9,605846052b4e5756397443fe,United States,Northeast,13 or older,no,2021-03-22_03h59.56.982,empathy_intonation_perc,2020.2.10,Win32,60,,,,,,,,,,1,,,,,,,,,,,,,,,,,,,,,,,,,,,,,,,,,,,,,,,,75,yacer,,,1,1,8.46469,0,87,87,74,1,REAL,FAKE,,,,,,,,,,,,,,,,,,,,,
,,,,,,,5f6bc8e8a9a9b4134c8719b4,6057c54e64b0b4e5c128b4f9,605846052b4e5756397443fe,United States,Northeast,13 or older,no,2021-03-22_03h59.56.982,empathy_intonation_perc,2020.2.10,Win32,60,,,,,,,,,,1,,,,,,,,,,,,,,,,,,,,,,,,,,,,,,,,,,,,,,,,14,yunque,,,1,1,1.90406,0,88,88,13,1,REAL,FAKE,,,,,,,,,,,,,,,,,,,,,
,,,,,,,5f6bc8e8a9a9b4134c8719b4,6057c54e64b0b4e5c128b4f9,605846052b4e5756397443fe,United States,Northeast,13 or older,no,2021-03-22_03h59.56.982,empathy_intonation_perc,2020.2.10,Win32,60,,,,,,,,,,0,,,,,,,,,,,,,,,,,,,,,,,,,,,,,,,,,,,,,,,,18,arsa,,,0,1,8.8248,0,89,89,17,1,REAL,FAKE,,,,,,,,,,,,,,,,,,,,,
,,,,,,,5f6bc8e8a9a9b4134c8719b4,6057c54e64b0b4e5c128b4f9,605846052b4e5756397443fe,United States,Northeast,13 or older,no,2021-03-22_03h59.56.982,empathy_intonation_perc,2020.2.10,Win32,60,,,,,,,,,,,,,,,,,,,,,,,,,,,,,,,,,,,,,,,,,,,,,,,,,,,,,,,,,,,,,,,,4,1,1.7296,1,0,0,0,0,0,1,,,,,,,,,,,
,,,,,,,5f6bc8e8a9a9b4134c8719b4,6057c54e64b0b4e5c128b4f9,605846052b4e5756397443fe,United States,Northeast,13 or older,no,2021-03-22_03h59.56.982,empathy_intonation_perc,2020.2.10,Win32,60,,,,,,,,,,,,,,,,,,,,1,,,,,,,,,,,,,,,,,,,,,,,,,,,,,,,,,,,,,,,,,,,,,,,,,,,,,,2,0,0,0,0,1,I can easily tell if someone else wants to enter a conversation.,1,0,1,0
,,,,,,,5f6bc8e8a9a9b4134c8719b4,6057c54e64b0b4e5c128b4f9,605846052b4e5756397443fe,United States,Northeast,13 or older,no,2021-03-22_03h59.56.982,empathy_intonation_perc,2020.2.10,Win32,60,,,,,,,,,,,,,,,,,,,,2,,,,,,,,,,,,,,,,,,,,,,,,,,,,,,,,,,,,,,,,,,,,,,,,,,,,,,4,0,1,1,1,1,I prefer animals to humans.,0,1,0,0
,,,,,,,5f6bc8e8a9a9b4134c8719b4,6057c54e64b0b4e5c128b4f9,605846052b4e5756397443fe,United States,Northeast,13 or older,no,2021-03-22_03h59.56.982,empathy_intonation_perc,2020.2.10,Win32,60,,,,,,,,,,,,,,,,,,,,3,,,,,,,,,,,,,,,,,,,,,,,,,,,,,,,,,,,,,,,,,,,,,,,,,,,,,,2,0,2,2,2,1,I try to keep up with the current trends and fashions.,0,1,0,0
,,,,,,,5f6bc8e8a9a9b4134c8719b4,6057c54e64b0b4e5c128b4f9,605846052b4e5756397443fe,United States,Northeast,13 or older,no,2021-03-22_03h59.56.982,empathy_intonation_perc,2020.2.10,Win32,60,,,,,,,,,,,,,,,,,,,,4,,,,,,,,,,,,,,,,,,,,,,,,,,,,,,,,,,,,,,,,,,,,,,,,,,,,,,1,0,3,3,3,1,"I find it difficult to explain to others things that I understand easily, 
  when they dont understand it first time.",1,0,0,1
