instructions_2afc_loop.thisRepN,instructions_2afc_loop.thisTrialN,instructions_2afc_loop.thisN,instructions_2afc_loop.thisIndex,instructions_2afc_loop.ran,instructions_text,continue_text,participant,study_id,session,I am most familiar with Spanish from...*,What part of the US are you from?*,At what age did you begin learning Spanish?*,Are you proficient in any languages other than English/Spanish?*,date,expName,psychopyVersion,OS,frameRate,key_resp_2afc_practice.keys,key_resp_2afc_practice.corr,key_resp_2afc_practice.rt,trials_2afc_practice_loop.thisRepN,trials_2afc_practice_loop.thisTrialN,trials_2afc_practice_loop.thisN,trials_2afc_practice_loop.thisIndex,trials_2afc_practice_loop.ran,path,correct_response,the_col,key_resp_2afc_trial.keys,key_resp_2afc_trial.corr,key_resp_2afc_trial.rt,trials_2afc_loop.thisRepN,trials_2afc_loop.thisTrialN,trials_2afc_loop.thisN,trials_2afc_loop.thisIndex,trials_2afc_loop.ran,item_num,andalusian,argentine,castilian,chilean,cuban,mexican,peruvian,puertorican,key_resp_ac1.keys,key_resp_ac1.corr,key_resp_ac1.rt,ac1_loop.thisRepN,ac1_loop.thisTrialN,ac1_loop.thisN,ac1_loop.thisIndex,ac1_loop.ran,instructions_lextale_loop.thisRepN,instructions_lextale_loop.thisTrialN,instructions_lextale_loop.thisN,instructions_lextale_loop.thisIndex,instructions_lextale_loop.ran,key_resp_lextale_practice.keys,key_resp_lextale_practice.corr,key_resp_lextale_practice.rt,trials_lextale_practice_loop.thisRepN,trials_lextale_practice_loop.thisTrialN,trials_lextale_practice_loop.thisN,trials_lextale_practice_loop.thisIndex,trials_lextale_practice_loop.ran,stim,word,prac_button_real,prac_button_false,key_resp_lextale_trial.keys,key_resp_lextale_trial.corr,key_resp_lextale_trial.rt,trials_lextale_loop.thisRepN,trials_lextale_loop.thisTrialN,trials_lextale_loop.thisN,trials_lextale_loop.thisIndex,trials_lextale_loop.ran,button_real,button_false,key_resp_ac2.keys,key_resp_ac2.corr,key_resp_ac2.rt,check_pass,check_fails,ac2_loop.thisRepN,ac2_loop.thisTrialN,ac2_loop.thisN,ac2_loop.thisIndex,ac2_loop.ran,slider_eq_trial.response,trials_eq_loop.thisRepN,trials_eq_loop.thisTrialN,trials_eq_loop.thisN,trials_eq_loop.thisIndex,trials_eq_loop.ran,item,is_test_item,is_distractor,is_agree_score,is_disagree_score
0,0,0,0,1,"In the following task you are going to hear a series of utterances. 

  You will decide if the utterances sound like questions or not using your keyboard.",(press the spacebar to continue),5f7058deeb83ab60bb836eae,605b45a4d25f287719a41696,605ba6b52a6861ae6e923e2a,Spain,Midwest,13 or older,no,2021-03-24_15h53.26.365,empathy_intonation_perc,2020.2.10,MacIntel,60,,,,,,,,,,,,,,,,,,,,,,,,,,,,,,,,,,,,,,,,,,,,,,,,,,,,,,,,,,,,,,,,,,,,,,,,,,,,,,,,,,,,
0,1,1,1,1,"If you believe the utterance is a question, type '1' (for 'yes') and if you do not 
  believe it is a question type '0' (for 'no').

  Let's practice a bit...",(press the spacebar to continue),5f7058deeb83ab60bb836eae,605b45a4d25f287719a41696,605ba6b52a6861ae6e923e2a,Spain,Midwest,13 or older,no,2021-03-24_15h53.26.365,empathy_intonation_perc,2020.2.10,MacIntel,60,,,,,,,,,,,,,,,,,,,,,,,,,,,,,,,,,,,,,,,,,,,,,,,,,,,,,,,,,,,,,,,,,,,,,,,,,,,,,,,,,,,,
,,,,,,,5f7058deeb83ab60bb836eae,605b45a4d25f287719a41696,605ba6b52a6861ae6e923e2a,Spain,Midwest,13 or older,no,2021-03-24_15h53.26.365,empathy_intonation_perc,2020.2.10,MacIntel,60,1,1,1.532765,0,0,0,2,1,./stim/wavs/chilean_question_filler_Mi-padre-cantaba-bien.wav,1,,,,,,,,,,,,,,,,,,,,,,,,,,,,,,,,,,,,,,,,,,,,,,,,,,,,,,,,,,,,,,,,,,,,,,,,,,
,,,,,,,5f7058deeb83ab60bb836eae,605b45a4d25f287719a41696,605ba6b52a6861ae6e923e2a,Spain,Midwest,13 or older,no,2021-03-24_15h53.26.365,empathy_intonation_perc,2020.2.10,MacIntel,60,0,1,2.150805,0,1,1,6,1,./stim/wavs/peruvian_statement_filler_El-nino-habla-con-su-madre.wav,0,,,,,,,,,,,,,,,,,,,,,,,,,,,,,,,,,,,,,,,,,,,,,,,,,,,,,,,,,,,,,,,,,,,,,,,,,,
,,,,,,,5f7058deeb83ab60bb836eae,605b45a4d25f287719a41696,605ba6b52a6861ae6e923e2a,Spain,Midwest,13 or older,no,2021-03-24_15h53.26.365,empathy_intonation_perc,2020.2.10,MacIntel,60,1,1,1.43245,0,2,2,1,1,./stim/wavs/argentine_question_filler_Mi-vecino-habla-mucho.wav,1,,,,,,,,,,,,,,,,,,,,,,,,,,,,,,,,,,,,,,,,,,,,,,,,,,,,,,,,,,,,,,,,,,,,,,,,,,
,,,,,,,5f7058deeb83ab60bb836eae,605b45a4d25f287719a41696,605ba6b52a6861ae6e923e2a,Spain,Midwest,13 or older,no,2021-03-24_15h53.26.365,empathy_intonation_perc,2020.2.10,MacIntel,60,0,1,1.583165,0,3,3,4,1,./stim/wavs/cuban_statement_filler_Cocinabas-por-la-noche.wav,0,,,,,,,,,,,,,,,,,,,,,,,,,,,,,,,,,,,,,,,,,,,,,,,,,,,,,,,,,,,,,,,,,,,,,,,,,,
,,,,,,,5f7058deeb83ab60bb836eae,605b45a4d25f287719a41696,605ba6b52a6861ae6e923e2a,Spain,Midwest,13 or older,no,2021-03-24_15h53.26.365,empathy_intonation_perc,2020.2.10,MacIntel,60,1,1,2.26701,0,4,4,0,1,./stim/wavs/castilian_question_filler_Mi-esposo-conoce-al-chico.wav,1,,,,,,,,,,,,,,,,,,,,,,,,,,,,,,,,,,,,,,,,,,,,,,,,,,,,,,,,,,,,,,,,,,,,,,,,,,
,,,,,,,5f7058deeb83ab60bb836eae,605b45a4d25f287719a41696,605ba6b52a6861ae6e923e2a,Spain,Midwest,13 or older,no,2021-03-24_15h53.26.365,empathy_intonation_perc,2020.2.10,MacIntel,60,0,1,1.64916,0,5,5,5,1,./stim/wavs/andalusian_statement_filler_Alberto-nunca-se-afeita.wav,0,,,,,,,,,,,,,,,,,,,,,,,,,,,,,,,,,,,,,,,,,,,,,,,,,,,,,,,,,,,,,,,,,,,,,,,,,,
,,,,,,,5f7058deeb83ab60bb836eae,605b45a4d25f287719a41696,605ba6b52a6861ae6e923e2a,Spain,Midwest,13 or older,no,2021-03-24_15h53.26.365,empathy_intonation_perc,2020.2.10,MacIntel,60,0,1,1.667365,0,6,6,7,1,./stim/wavs/puertorican_statement_filler_La-nina-pinta-con-su-amiga.wav,0,,,,,,,,,,,,,,,,,,,,,,,,,,,,,,,,,,,,,,,,,,,,,,,,,,,,,,,,,,,,,,,,,,,,,,,,,,
,,,,,,,5f7058deeb83ab60bb836eae,605b45a4d25f287719a41696,605ba6b52a6861ae6e923e2a,Spain,Midwest,13 or older,no,2021-03-24_15h53.26.365,empathy_intonation_perc,2020.2.10,MacIntel,60,1,1,1.55143,0,7,7,3,1,./stim/wavs/mexican_question_filler_Felipe-no-tiene-contrasena.wav,1,,,,,,,,,,,,,,,,,,,,,,,,,,,,,,,,,,,,,,,,,,,,,,,,,,,,,,,,,,,,,,,,,,,,,,,,,,
,,,,,,,5f7058deeb83ab60bb836eae,605b45a4d25f287719a41696,605ba6b52a6861ae6e923e2a,Spain,Midwest,13 or older,no,2021-03-24_15h53.26.365,empathy_intonation_perc,2020.2.10,MacIntel,60,,,,,,,,,,1,castilian,1,1,1.46754,0,0,0,49,1,50,./stim/wavs/andalusian_mismatch_interrogative-partial-wh_Cuando-lavaba-el-plato.wav,./stim/wavs/argentine_mismatch_interrogative-partial-wh_Cuando-lavaba-el-plato.wav,./stim/wavs/castilian_mismatch_interrogative-partial-wh_Cuando-lavaba-el-plato.wav,./stim/wavs/chilean_mismatch_interrogative-partial-wh_Cuando-lavaba-el-plato.wav,./stim/wavs/cuban_mismatch_interrogative-partial-wh_Cuando-lavaba-el-plato.wav,./stim/wavs/mexican_mismatch_interrogative-partial-wh_Cuando-lavaba-el-plato.wav,./stim/wavs/peruvian_mismatch_interrogative-partial-wh_Cuando-lavaba-el-plato.wav,./stim/wavs/puertorican_mismatch_interrogative-partial-wh_Cuando-lavaba-el-plato.wav,,,,,,,,,,,,,,,,,,,,,,,,,,,,,,,,,,,,,,,,,,,,,,,,,,,,,,,,
,,,,,,,5f7058deeb83ab60bb836eae,605b45a4d25f287719a41696,605ba6b52a6861ae6e923e2a,Spain,Midwest,13 or older,no,2021-03-24_15h53.26.365,empathy_intonation_perc,2020.2.10,MacIntel,60,,,,,,,,,,1,puertorican,0,0,1.4345,0,1,1,56,1,57,./stim/wavs/andalusian_mismatch_interrogative-total-yn_El-bebe-comia-muy-bien.wav,./stim/wavs/argentine_mismatch_interrogative-total-yn_El-bebe-comia-muy-bien.wav,./stim/wavs/castilian_mismatch_interrogative-total-yn_El-bebe-comia-muy-bien.wav,./stim/wavs/chilean_mismatch_interrogative-total-yn_El-bebe-comia-muy-bien.wav,./stim/wavs/cuban_mismatch_interrogative-total-yn_El-bebe-comia-muy-bien.wav,./stim/wavs/mexican_mismatch_interrogative-total-yn_El-bebe-comia-muy-bien.wav,./stim/wavs/peruvian_mismatch_interrogative-total-yn_El-bebe-comia-muy-bien.wav,./stim/wavs/puertorican_mismatch_interrogative-total-yn_El-bebe-comia-muy-bien.wav,,,,,,,,,,,,,,,,,,,,,,,,,,,,,,,,,,,,,,,,,,,,,,,,,,,,,,,,
,,,,,,,5f7058deeb83ab60bb836eae,605b45a4d25f287719a41696,605ba6b52a6861ae6e923e2a,Spain,Midwest,13 or older,no,2021-03-24_15h53.26.365,empathy_intonation_perc,2020.2.10,MacIntel,60,,,,,,,,,,0,castilian,0,1,1.61581,0,2,2,40,1,41,./stim/wavs/andalusian_mismatch_declarative-narrow-focus_El-bebe-comia-muy-bien.wav,./stim/wavs/argentine_mismatch_declarative-narrow-focus_El-bebe-comia-muy-bien.wav,./stim/wavs/castilian_mismatch_declarative-narrow-focus_El-bebe-comia-muy-bien.wav,./stim/wavs/chilean_mismatch_declarative-narrow-focus_El-bebe-comia-muy-bien.wav,./stim/wavs/cuban_mismatch_declarative-narrow-focus_El-bebe-comia-muy-bien.wav,./stim/wavs/mexican_mismatch_declarative-narrow-focus_El-bebe-comia-muy-bien.wav,./stim/wavs/peruvian_mismatch_declarative-narrow-focus_El-bebe-comia-muy-bien.wav,./stim/wavs/puertorican_mismatch_declarative-narrow-focus_El-bebe-comia-muy-bien.wav,,,,,,,,,,,,,,,,,,,,,,,,,,,,,,,,,,,,,,,,,,,,,,,,,,,,,,,,
,,,,,,,5f7058deeb83ab60bb836eae,605b45a4d25f287719a41696,605ba6b52a6861ae6e923e2a,Spain,Midwest,13 or older,no,2021-03-24_15h53.26.365,empathy_intonation_perc,2020.2.10,MacIntel,60,,,,,,,,,,0,mexican,0,1,1.301485,0,3,3,10,1,11,./stim/wavs/andalusian_match_declarative-narrow-focus_David-leia-el-libro.wav,./stim/wavs/argentine_match_declarative-narrow-focus_David-leia-el-libro.wav,./stim/wavs/castilian_match_declarative-narrow-focus_David-leia-el-libro.wav,./stim/wavs/chilean_match_declarative-narrow-focus_David-leia-el-libro.wav,./stim/wavs/cuban_match_declarative-narrow-focus_David-leia-el-libro.wav,./stim/wavs/mexican_match_declarative-narrow-focus_David-leia-el-libro.wav,./stim/wavs/peruvian_match_declarative-narrow-focus_David-leia-el-libro.wav,./stim/wavs/puertorican_match_declarative-narrow-focus_David-leia-el-libro.wav,,,,,,,,,,,,,,,,,,,,,,,,,,,,,,,,,,,,,,,,,,,,,,,,,,,,,,,,
,,,,,,,5f7058deeb83ab60bb836eae,605b45a4d25f287719a41696,605ba6b52a6861ae6e923e2a,Spain,Midwest,13 or older,no,2021-03-24_15h53.26.365,empathy_intonation_perc,2020.2.10,MacIntel,60,,,,,,,,,,1,cuban,0,0,1.44986,0,4,4,26,1,27,./stim/wavs/andalusian_match_interrogative-total-yn_David-leia-el-libro.wav,./stim/wavs/argentine_match_interrogative-total-yn_David-leia-el-libro.wav,./stim/wavs/castilian_match_interrogative-total-yn_David-leia-el-libro.wav,./stim/wavs/chilean_match_interrogative-total-yn_David-leia-el-libro.wav,./stim/wavs/cuban_match_interrogative-total-yn_David-leia-el-libro.wav,./stim/wavs/mexican_match_interrogative-total-yn_David-leia-el-libro.wav,./stim/wavs/peruvian_match_interrogative-total-yn_David-leia-el-libro.wav,./stim/wavs/puertorican_match_interrogative-total-yn_David-leia-el-libro.wav,,,,,,,,,,,,,,,,,,,,,,,,,,,,,,,,,,,,,,,,,,,,,,,,,,,,,,,,
,,,,,,,5f7058deeb83ab60bb836eae,605b45a4d25f287719a41696,605ba6b52a6861ae6e923e2a,Spain,Midwest,13 or older,no,2021-03-24_15h53.26.365,empathy_intonation_perc,2020.2.10,MacIntel,60,,,,,,,,,,1,mexican,1,1,1.41642,0,5,5,18,1,19,./stim/wavs/andalusian_match_interrogative-partial-wh_Cuando-lleva-el-abrigo.wav,./stim/wavs/argentine_match_interrogative-partial-wh_Cuando-lleva-el-abrigo.wav,./stim/wavs/castilian_match_interrogative-partial-wh_Cuando-lleva-el-abrigo.wav,./stim/wavs/chilean_match_interrogative-partial-wh_Cuando-lleva-el-abrigo.wav,./stim/wavs/cuban_match_interrogative-partial-wh_Cuando-lleva-el-abrigo.wav,./stim/wavs/mexican_match_interrogative-partial-wh_Cuando-lleva-el-abrigo.wav,./stim/wavs/peruvian_match_interrogative-partial-wh_Cuando-lleva-el-abrigo.wav,./stim/wavs/puertorican_match_interrogative-partial-wh_Cuando-lleva-el-abrigo.wav,,,,,,,,,,,,,,,,,,,,,,,,,,,,,,,,,,,,,,,,,,,,,,,,,,,,,,,,
,,,,,,,5f7058deeb83ab60bb836eae,605b45a4d25f287719a41696,605ba6b52a6861ae6e923e2a,Spain,Midwest,13 or older,no,2021-03-24_15h53.26.365,empathy_intonation_perc,2020.2.10,MacIntel,60,,,,,,,,,,1,cuban,0,0,1.516935,0,6,6,61,1,62,./stim/wavs/andalusian_mismatch_interrogative-total-yn_Mi-madre-come-la-fruta.wav,./stim/wavs/argentine_mismatch_interrogative-total-yn_Mi-madre-come-la-fruta.wav,./stim/wavs/castilian_mismatch_interrogative-total-yn_Mi-madre-come-la-fruta.wav,./stim/wavs/chilean_mismatch_interrogative-total-yn_Mi-madre-come-la-fruta.wav,./stim/wavs/cuban_mismatch_interrogative-total-yn_Mi-madre-come-la-fruta.wav,./stim/wavs/mexican_mismatch_interrogative-total-yn_Mi-madre-come-la-fruta.wav,./stim/wavs/peruvian_mismatch_interrogative-total-yn_Mi-madre-come-la-fruta.wav,./stim/wavs/puertorican_mismatch_interrogative-total-yn_Mi-madre-come-la-fruta.wav,,,,,,,,,,,,,,,,,,,,,,,,,,,,,,,,,,,,,,,,,,,,,,,,,,,,,,,,
,,,,,,,5f7058deeb83ab60bb836eae,605b45a4d25f287719a41696,605ba6b52a6861ae6e923e2a,Spain,Midwest,13 or older,no,2021-03-24_15h53.26.365,empathy_intonation_perc,2020.2.10,MacIntel,60,,,,,,,,,,0,andalusian,0,1,1.51811,0,7,7,37,1,38,./stim/wavs/andalusian_mismatch_declarative-broad-focus_Mi-madre-come-la-fruta.wav,./stim/wavs/argentine_mismatch_declarative-broad-focus_Mi-madre-come-la-fruta.wav,./stim/wavs/castilian_mismatch_declarative-broad-focus_Mi-madre-come-la-fruta.wav,./stim/wavs/chilean_mismatch_declarative-broad-focus_Mi-madre-come-la-fruta.wav,./stim/wavs/cuban_mismatch_declarative-broad-focus_Mi-madre-come-la-fruta.wav,./stim/wavs/mexican_mismatch_declarative-broad-focus_Mi-madre-come-la-fruta.wav,./stim/wavs/peruvian_mismatch_declarative-broad-focus_Mi-madre-come-la-fruta.wav,./stim/wavs/puertorican_mismatch_declarative-broad-focus_Mi-madre-come-la-fruta.wav,,,,,,,,,,,,,,,,,,,,,,,,,,,,,,,,,,,,,,,,,,,,,,,,,,,,,,,,
,,,,,,,5f7058deeb83ab60bb836eae,605b45a4d25f287719a41696,605ba6b52a6861ae6e923e2a,Spain,Midwest,13 or older,no,2021-03-24_15h53.26.365,empathy_intonation_perc,2020.2.10,MacIntel,60,,,,,,,,,,0,argentine,0,1,1.566455,0,8,8,2,1,3,./stim/wavs/andalusian_match_declarative-broad-focus_David-leia-el-libro.wav,./stim/wavs/argentine_match_declarative-broad-focus_David-leia-el-libro.wav,./stim/wavs/castilian_match_declarative-broad-focus_David-leia-el-libro.wav,./stim/wavs/chilean_match_declarative-broad-focus_David-leia-el-libro.wav,./stim/wavs/cuban_match_declarative-broad-focus_David-leia-el-libro.wav,./stim/wavs/mexican_match_declarative-broad-focus_David-leia-el-libro.wav,./stim/wavs/peruvian_match_declarative-broad-focus_David-leia-el-libro.wav,./stim/wavs/puertorican_match_declarative-broad-focus_David-leia-el-libro.wav,,,,,,,,,,,,,,,,,,,,,,,,,,,,,,,,,,,,,,,,,,,,,,,,,,,,,,,,
,,,,,,,5f7058deeb83ab60bb836eae,605b45a4d25f287719a41696,605ba6b52a6861ae6e923e2a,Spain,Midwest,13 or older,no,2021-03-24_15h53.26.365,empathy_intonation_perc,2020.2.10,MacIntel,60,,,,,,,,,,0,andalusian,0,1,1.91634,0,9,9,1,1,2,./stim/wavs/andalusian_match_declarative-broad-focus_Daniel-iba-a-Bolivia.wav,./stim/wavs/argentine_match_declarative-broad-focus_Daniel-iba-a-Bolivia.wav,./stim/wavs/castilian_match_declarative-broad-focus_Daniel-iba-a-Bolivia.wav,./stim/wavs/chilean_match_declarative-broad-focus_Daniel-iba-a-Bolivia.wav,./stim/wavs/cuban_match_declarative-broad-focus_Daniel-iba-a-Bolivia.wav,./stim/wavs/mexican_match_declarative-broad-focus_Daniel-iba-a-Bolivia.wav,./stim/wavs/peruvian_match_declarative-broad-focus_Daniel-iba-a-Bolivia.wav,./stim/wavs/puertorican_match_declarative-broad-focus_Daniel-iba-a-Bolivia.wav,,,,,,,,,,,,,,,,,,,,,,,,,,,,,,,,,,,,,,,,,,,,,,,,,,,,,,,,
,,,,,,,5f7058deeb83ab60bb836eae,605b45a4d25f287719a41696,605ba6b52a6861ae6e923e2a,Spain,Midwest,13 or older,no,2021-03-24_15h53.26.365,empathy_intonation_perc,2020.2.10,MacIntel,60,,,,,,,,,,1,mexican,1,1,1.583785,0,10,10,63,1,64,./stim/wavs/andalusian_mismatch_interrogative-total-yn_Mi-tia-odia-la-lluvia.wav,./stim/wavs/argentine_mismatch_interrogative-total-yn_Mi-tia-odia-la-lluvia.wav,./stim/wavs/castilian_mismatch_interrogative-total-yn_Mi-tia-odia-la-lluvia.wav,./stim/wavs/chilean_mismatch_interrogative-total-yn_Mi-tia-odia-la-lluvia.wav,./stim/wavs/cuban_mismatch_interrogative-total-yn_Mi-tia-odia-la-lluvia.wav,./stim/wavs/mexican_mismatch_interrogative-total-yn_Mi-tia-odia-la-lluvia.wav,./stim/wavs/peruvian_mismatch_interrogative-total-yn_Mi-tia-odia-la-lluvia.wav,./stim/wavs/puertorican_mismatch_interrogative-total-yn_Mi-tia-odia-la-lluvia.wav,,,,,,,,,,,,,,,,,,,,,,,,,,,,,,,,,,,,,,,,,,,,,,,,,,,,,,,,
,,,,,,,5f7058deeb83ab60bb836eae,605b45a4d25f287719a41696,605ba6b52a6861ae6e923e2a,Spain,Midwest,13 or older,no,2021-03-24_15h53.26.365,empathy_intonation_perc,2020.2.10,MacIntel,60,,,,,,,,,,0,mexican,0,1,1.55144,0,11,11,35,1,36,./stim/wavs/andalusian_mismatch_declarative-broad-focus_La-maestra-vive-en-Paris.wav,./stim/wavs/argentine_mismatch_declarative-broad-focus_La-maestra-vive-en-Paris.wav,./stim/wavs/castilian_mismatch_declarative-broad-focus_La-maestra-vive-en-Paris.wav,./stim/wavs/chilean_mismatch_declarative-broad-focus_La-maestra-vive-en-Paris.wav,./stim/wavs/cuban_mismatch_declarative-broad-focus_La-maestra-vive-en-Paris.wav,./stim/wavs/mexican_mismatch_declarative-broad-focus_La-maestra-vive-en-Paris.wav,./stim/wavs/peruvian_mismatch_declarative-broad-focus_La-maestra-vive-en-Paris.wav,./stim/wavs/puertorican_mismatch_declarative-broad-focus_La-maestra-vive-en-Paris.wav,,,,,,,,,,,,,,,,,,,,,,,,,,,,,,,,,,,,,,,,,,,,,,,,,,,,,,,,
,,,,,,,5f7058deeb83ab60bb836eae,605b45a4d25f287719a41696,605ba6b52a6861ae6e923e2a,Spain,Midwest,13 or older,no,2021-03-24_15h53.26.365,empathy_intonation_perc,2020.2.10,MacIntel,60,,,,,,,,,,0,peruvian,0,1,1.40045,0,12,12,0,1,1,./stim/wavs/andalusian_match_declarative-broad-focus_Ana-lleva-el-abrigo.wav,./stim/wavs/argentine_match_declarative-broad-focus_Ana-lleva-el-abrigo.wav,./stim/wavs/castilian_match_declarative-broad-focus_Ana-lleva-el-abrigo.wav,./stim/wavs/chilean_match_declarative-broad-focus_Ana-lleva-el-abrigo.wav,./stim/wavs/cuban_match_declarative-broad-focus_Ana-lleva-el-abrigo.wav,./stim/wavs/mexican_match_declarative-broad-focus_Ana-lleva-el-abrigo.wav,./stim/wavs/peruvian_match_declarative-broad-focus_Ana-lleva-el-abrigo.wav,./stim/wavs/puertorican_match_declarative-broad-focus_Ana-lleva-el-abrigo.wav,,,,,,,,,,,,,,,,,,,,,,,,,,,,,,,,,,,,,,,,,,,,,,,,,,,,,,,,
,,,,,,,5f7058deeb83ab60bb836eae,605b45a4d25f287719a41696,605ba6b52a6861ae6e923e2a,Spain,Midwest,13 or older,no,2021-03-24_15h53.26.365,empathy_intonation_perc,2020.2.10,MacIntel,60,,,,,,,,,,0,chilean,0,1,1.805415,0,13,13,14,1,15,./stim/wavs/andalusian_match_declarative-narrow-focus_Mariano-habla-del-tiempo.wav,./stim/wavs/argentine_match_declarative-narrow-focus_Mariano-habla-del-tiempo.wav,./stim/wavs/castilian_match_declarative-narrow-focus_Mariano-habla-del-tiempo.wav,./stim/wavs/chilean_match_declarative-narrow-focus_Mariano-habla-del-tiempo.wav,./stim/wavs/cuban_match_declarative-narrow-focus_Mariano-habla-del-tiempo.wav,./stim/wavs/mexican_match_declarative-narrow-focus_Mariano-habla-del-tiempo.wav,./stim/wavs/peruvian_match_declarative-narrow-focus_Mariano-habla-del-tiempo.wav,./stim/wavs/puertorican_match_declarative-narrow-focus_Mariano-habla-del-tiempo.wav,,,,,,,,,,,,,,,,,,,,,,,,,,,,,,,,,,,,,,,,,,,,,,,,,,,,,,,,
,,,,,,,5f7058deeb83ab60bb836eae,605b45a4d25f287719a41696,605ba6b52a6861ae6e923e2a,Spain,Midwest,13 or older,no,2021-03-24_15h53.26.365,empathy_intonation_perc,2020.2.10,MacIntel,60,,,,,,,,,,0,chilean,0,1,1.366355,0,14,14,41,1,42,./stim/wavs/andalusian_mismatch_declarative-narrow-focus_El-hombre-mira-la-luna.wav,./stim/wavs/argentine_mismatch_declarative-narrow-focus_El-hombre-mira-la-luna.wav,./stim/wavs/castilian_mismatch_declarative-narrow-focus_El-hombre-mira-la-luna.wav,./stim/wavs/chilean_mismatch_declarative-narrow-focus_El-hombre-mira-la-luna.wav,./stim/wavs/cuban_mismatch_declarative-narrow-focus_El-hombre-mira-la-luna.wav,./stim/wavs/mexican_mismatch_declarative-narrow-focus_El-hombre-mira-la-luna.wav,./stim/wavs/peruvian_mismatch_declarative-narrow-focus_El-hombre-mira-la-luna.wav,./stim/wavs/puertorican_mismatch_declarative-narrow-focus_El-hombre-mira-la-luna.wav,,,,,,,,,,,,,,,,,,,,,,,,,,,,,,,,,,,,,,,,,,,,,,,,,,,,,,,,
,,,,,,,5f7058deeb83ab60bb836eae,605b45a4d25f287719a41696,605ba6b52a6861ae6e923e2a,Spain,Midwest,13 or older,no,2021-03-24_15h53.26.365,empathy_intonation_perc,2020.2.10,MacIntel,60,,,,,,,,,,0,castilian,0,1,1.66633,0,15,15,32,1,33,./stim/wavs/andalusian_mismatch_declarative-broad-focus_El-bebe-comia-muy-bien.wav,./stim/wavs/argentine_mismatch_declarative-broad-focus_El-bebe-comia-muy-bien.wav,./stim/wavs/castilian_mismatch_declarative-broad-focus_El-bebe-comia-muy-bien.wav,./stim/wavs/chilean_mismatch_declarative-broad-focus_El-bebe-comia-muy-bien.wav,./stim/wavs/cuban_mismatch_declarative-broad-focus_El-bebe-comia-muy-bien.wav,./stim/wavs/mexican_mismatch_declarative-broad-focus_El-bebe-comia-muy-bien.wav,./stim/wavs/peruvian_mismatch_declarative-broad-focus_El-bebe-comia-muy-bien.wav,./stim/wavs/puertorican_mismatch_declarative-broad-focus_El-bebe-comia-muy-bien.wav,,,,,,,,,,,,,,,,,,,,,,,,,,,,,,,,,,,,,,,,,,,,,,,,,,,,,,,,
,,,,,,,5f7058deeb83ab60bb836eae,605b45a4d25f287719a41696,605ba6b52a6861ae6e923e2a,Spain,Midwest,13 or older,no,2021-03-24_15h53.26.365,empathy_intonation_perc,2020.2.10,MacIntel,60,,,,,,,,,,1,andalusian,1,1,1.36784,0,16,16,24,1,25,./stim/wavs/andalusian_match_interrogative-total-yn_Ana-lleva-el-abrigo.wav,./stim/wavs/argentine_match_interrogative-total-yn_Ana-lleva-el-abrigo.wav,./stim/wavs/castilian_match_interrogative-total-yn_Ana-lleva-el-abrigo.wav,./stim/wavs/chilean_match_interrogative-total-yn_Ana-lleva-el-abrigo.wav,./stim/wavs/cuban_match_interrogative-total-yn_Ana-lleva-el-abrigo.wav,./stim/wavs/mexican_match_interrogative-total-yn_Ana-lleva-el-abrigo.wav,./stim/wavs/peruvian_match_interrogative-total-yn_Ana-lleva-el-abrigo.wav,./stim/wavs/puertorican_match_interrogative-total-yn_Ana-lleva-el-abrigo.wav,,,,,,,,,,,,,,,,,,,,,,,,,,,,,,,,,,,,,,,,,,,,,,,,,,,,,,,,
,,,,,,,5f7058deeb83ab60bb836eae,605b45a4d25f287719a41696,605ba6b52a6861ae6e923e2a,Spain,Midwest,13 or older,no,2021-03-24_15h53.26.365,empathy_intonation_perc,2020.2.10,MacIntel,60,,,,,,,,,,0,andalusian,0,1,1.532135,0,17,17,39,1,40,./stim/wavs/andalusian_mismatch_declarative-broad-focus_Mi-tia-odia-la-lluvia.wav,./stim/wavs/argentine_mismatch_declarative-broad-focus_Mi-tia-odia-la-lluvia.wav,./stim/wavs/castilian_mismatch_declarative-broad-focus_Mi-tia-odia-la-lluvia.wav,./stim/wavs/chilean_mismatch_declarative-broad-focus_Mi-tia-odia-la-lluvia.wav,./stim/wavs/cuban_mismatch_declarative-broad-focus_Mi-tia-odia-la-lluvia.wav,./stim/wavs/mexican_mismatch_declarative-broad-focus_Mi-tia-odia-la-lluvia.wav,./stim/wavs/peruvian_mismatch_declarative-broad-focus_Mi-tia-odia-la-lluvia.wav,./stim/wavs/puertorican_mismatch_declarative-broad-focus_Mi-tia-odia-la-lluvia.wav,,,,,,,,,,,,,,,,,,,,,,,,,,,,,,,,,,,,,,,,,,,,,,,,,,,,,,,,
,,,,,,,5f7058deeb83ab60bb836eae,605b45a4d25f287719a41696,605ba6b52a6861ae6e923e2a,Spain,Midwest,13 or older,no,2021-03-24_15h53.26.365,empathy_intonation_perc,2020.2.10,MacIntel,60,,,,,,,,,,1,puertorican,0,0,1.567235,0,18,18,58,1,59,./stim/wavs/andalusian_mismatch_interrogative-total-yn_El-nino-oye-el-rio.wav,./stim/wavs/argentine_mismatch_interrogative-total-yn_El-nino-oye-el-rio.wav,./stim/wavs/castilian_mismatch_interrogative-total-yn_El-nino-oye-el-rio.wav,./stim/wavs/chilean_mismatch_interrogative-total-yn_El-nino-oye-el-rio.wav,./stim/wavs/cuban_mismatch_interrogative-total-yn_El-nino-oye-el-rio.wav,./stim/wavs/mexican_mismatch_interrogative-total-yn_El-nino-oye-el-rio.wav,./stim/wavs/peruvian_mismatch_interrogative-total-yn_El-nino-oye-el-rio.wav,./stim/wavs/puertorican_mismatch_interrogative-total-yn_El-nino-oye-el-rio.wav,,,,,,,,,,,,,,,,,,,,,,,,,,,,,,,,,,,,,,,,,,,,,,,,,,,,,,,,
,,,,,,,5f7058deeb83ab60bb836eae,605b45a4d25f287719a41696,605ba6b52a6861ae6e923e2a,Spain,Midwest,13 or older,no,2021-03-24_15h53.26.365,empathy_intonation_perc,2020.2.10,MacIntel,60,,,,,,,,,,1,peruvian,1,1,1.716235,0,19,19,23,1,24,./stim/wavs/andalusian_match_interrogative-partial-wh_Por-que-iba-a-Bolivia.wav,./stim/wavs/argentine_match_interrogative-partial-wh_Por-que-iba-a-Bolivia.wav,./stim/wavs/castilian_match_interrogative-partial-wh_Por-que-iba-a-Bolivia.wav,./stim/wavs/chilean_match_interrogative-partial-wh_Por-que-iba-a-Bolivia.wav,./stim/wavs/cuban_match_interrogative-partial-wh_Por-que-iba-a-Bolivia.wav,./stim/wavs/mexican_match_interrogative-partial-wh_Por-que-iba-a-Bolivia.wav,./stim/wavs/peruvian_match_interrogative-partial-wh_Por-que-iba-a-Bolivia.wav,./stim/wavs/puertorican_match_interrogative-partial-wh_Por-que-iba-a-Bolivia.wav,,,,,,,,,,,,,,,,,,,,,,,,,,,,,,,,,,,,,,,,,,,,,,,,,,,,,,,,
,,,,,,,5f7058deeb83ab60bb836eae,605b45a4d25f287719a41696,605ba6b52a6861ae6e923e2a,Spain,Midwest,13 or older,no,2021-03-24_15h53.26.365,empathy_intonation_perc,2020.2.10,MacIntel,60,,,,,,,,,,0,castilian,0,1,1.716185,0,20,20,7,1,8,./stim/wavs/andalusian_match_declarative-broad-focus_Marta-abre-el-regalo.wav,./stim/wavs/argentine_match_declarative-broad-focus_Marta-abre-el-regalo.wav,./stim/wavs/castilian_match_declarative-broad-focus_Marta-abre-el-regalo.wav,./stim/wavs/chilean_match_declarative-broad-focus_Marta-abre-el-regalo.wav,./stim/wavs/cuban_match_declarative-broad-focus_Marta-abre-el-regalo.wav,./stim/wavs/mexican_match_declarative-broad-focus_Marta-abre-el-regalo.wav,./stim/wavs/peruvian_match_declarative-broad-focus_Marta-abre-el-regalo.wav,./stim/wavs/puertorican_match_declarative-broad-focus_Marta-abre-el-regalo.wav,,,,,,,,,,,,,,,,,,,,,,,,,,,,,,,,,,,,,,,,,,,,,,,,,,,,,,,,
,,,,,,,5f7058deeb83ab60bb836eae,605b45a4d25f287719a41696,605ba6b52a6861ae6e923e2a,Spain,Midwest,13 or older,no,2021-03-24_15h53.26.365,empathy_intonation_perc,2020.2.10,MacIntel,60,,,,,,,,,,0,peruvian,0,1,1.40095,0,21,21,9,1,10,./stim/wavs/andalusian_match_declarative-narrow-focus_Daniel-iba-a-Bolivia.wav,./stim/wavs/argentine_match_declarative-narrow-focus_Daniel-iba-a-Bolivia.wav,./stim/wavs/castilian_match_declarative-narrow-focus_Daniel-iba-a-Bolivia.wav,./stim/wavs/chilean_match_declarative-narrow-focus_Daniel-iba-a-Bolivia.wav,./stim/wavs/cuban_match_declarative-narrow-focus_Daniel-iba-a-Bolivia.wav,./stim/wavs/mexican_match_declarative-narrow-focus_Daniel-iba-a-Bolivia.wav,./stim/wavs/peruvian_match_declarative-narrow-focus_Daniel-iba-a-Bolivia.wav,./stim/wavs/puertorican_match_declarative-narrow-focus_Daniel-iba-a-Bolivia.wav,,,,,,,,,,,,,,,,,,,,,,,,,,,,,,,,,,,,,,,,,,,,,,,,,,,,,,,,
,,,,,,,5f7058deeb83ab60bb836eae,605b45a4d25f287719a41696,605ba6b52a6861ae6e923e2a,Spain,Midwest,13 or older,no,2021-03-24_15h53.26.365,empathy_intonation_perc,2020.2.10,MacIntel,60,,,,,,,,,,0,cuban,0,1,1.50255,0,22,22,3,1,4,./stim/wavs/andalusian_match_declarative-broad-focus_Emilio-ama-la-marcha.wav,./stim/wavs/argentine_match_declarative-broad-focus_Emilio-ama-la-marcha.wav,./stim/wavs/castilian_match_declarative-broad-focus_Emilio-ama-la-marcha.wav,./stim/wavs/chilean_match_declarative-broad-focus_Emilio-ama-la-marcha.wav,./stim/wavs/cuban_match_declarative-broad-focus_Emilio-ama-la-marcha.wav,./stim/wavs/mexican_match_declarative-broad-focus_Emilio-ama-la-marcha.wav,./stim/wavs/peruvian_match_declarative-broad-focus_Emilio-ama-la-marcha.wav,./stim/wavs/puertorican_match_declarative-broad-focus_Emilio-ama-la-marcha.wav,,,,,,,,,,,,,,,,,,,,,,,,,,,,,,,,,,,,,,,,,,,,,,,,,,,,,,,,
,,,,,,,5f7058deeb83ab60bb836eae,605b45a4d25f287719a41696,605ba6b52a6861ae6e923e2a,Spain,Midwest,13 or older,no,2021-03-24_15h53.26.365,empathy_intonation_perc,2020.2.10,MacIntel,60,,,,,,,,,,0,mexican,0,1,1.283995,0,23,23,34,1,35,./stim/wavs/andalusian_mismatch_declarative-broad-focus_El-nino-oye-el-rio.wav,./stim/wavs/argentine_mismatch_declarative-broad-focus_El-nino-oye-el-rio.wav,./stim/wavs/castilian_mismatch_declarative-broad-focus_El-nino-oye-el-rio.wav,./stim/wavs/chilean_mismatch_declarative-broad-focus_El-nino-oye-el-rio.wav,./stim/wavs/cuban_mismatch_declarative-broad-focus_El-nino-oye-el-rio.wav,./stim/wavs/mexican_mismatch_declarative-broad-focus_El-nino-oye-el-rio.wav,./stim/wavs/peruvian_mismatch_declarative-broad-focus_El-nino-oye-el-rio.wav,./stim/wavs/puertorican_mismatch_declarative-broad-focus_El-nino-oye-el-rio.wav,,,,,,,,,,,,,,,,,,,,,,,,,,,,,,,,,,,,,,,,,,,,,,,,,,,,,,,,
,,,,,,,5f7058deeb83ab60bb836eae,605b45a4d25f287719a41696,605ba6b52a6861ae6e923e2a,Spain,Midwest,13 or older,no,2021-03-24_15h53.26.365,empathy_intonation_perc,2020.2.10,MacIntel,60,,,,,,,,,,1,argentine,0,0,1.44664,0,24,24,52,1,53,./stim/wavs/andalusian_mismatch_interrogative-partial-wh_Por-que-odiaba-la-lluvia.wav,./stim/wavs/argentine_mismatch_interrogative-partial-wh_Por-que-odiaba-la-lluvia.wav,./stim/wavs/castilian_mismatch_interrogative-partial-wh_Por-que-odiaba-la-lluvia.wav,./stim/wavs/chilean_mismatch_interrogative-partial-wh_Por-que-odiaba-la-lluvia.wav,./stim/wavs/cuban_mismatch_interrogative-partial-wh_Por-que-odiaba-la-lluvia.wav,./stim/wavs/mexican_mismatch_interrogative-partial-wh_Por-que-odiaba-la-lluvia.wav,./stim/wavs/peruvian_mismatch_interrogative-partial-wh_Por-que-odiaba-la-lluvia.wav,./stim/wavs/puertorican_mismatch_interrogative-partial-wh_Por-que-odiaba-la-lluvia.wav,,,,,,,,,,,,,,,,,,,,,,,,,,,,,,,,,,,,,,,,,,,,,,,,,,,,,,,,
,,,,,,,5f7058deeb83ab60bb836eae,605b45a4d25f287719a41696,605ba6b52a6861ae6e923e2a,Spain,Midwest,13 or older,no,2021-03-24_15h53.26.365,empathy_intonation_perc,2020.2.10,MacIntel,60,,,,,,,,,,1,puertorican,1,1,1.305175,0,25,25,19,1,20,./stim/wavs/andalusian_match_interrogative-partial-wh_Cuando-vendia-el-carro.wav,./stim/wavs/argentine_match_interrogative-partial-wh_Cuando-vendia-el-carro.wav,./stim/wavs/castilian_match_interrogative-partial-wh_Cuando-vendia-el-carro.wav,./stim/wavs/chilean_match_interrogative-partial-wh_Cuando-vendia-el-carro.wav,./stim/wavs/cuban_match_interrogative-partial-wh_Cuando-vendia-el-carro.wav,./stim/wavs/mexican_match_interrogative-partial-wh_Cuando-vendia-el-carro.wav,./stim/wavs/peruvian_match_interrogative-partial-wh_Cuando-vendia-el-carro.wav,./stim/wavs/puertorican_match_interrogative-partial-wh_Cuando-vendia-el-carro.wav,,,,,,,,,,,,,,,,,,,,,,,,,,,,,,,,,,,,,,,,,,,,,,,,,,,,,,,,
,,,,,,,5f7058deeb83ab60bb836eae,605b45a4d25f287719a41696,605ba6b52a6861ae6e923e2a,Spain,Midwest,13 or older,no,2021-03-24_15h53.26.365,empathy_intonation_perc,2020.2.10,MacIntel,60,,,,,,,,,,0,chilean,0,1,1.383535,0,26,26,43,1,44,./stim/wavs/andalusian_mismatch_declarative-narrow-focus_La-maestra-vive-en-Paris.wav,./stim/wavs/argentine_mismatch_declarative-narrow-focus_La-maestra-vive-en-Paris.wav,./stim/wavs/castilian_mismatch_declarative-narrow-focus_La-maestra-vive-en-Paris.wav,./stim/wavs/chilean_mismatch_declarative-narrow-focus_La-maestra-vive-en-Paris.wav,./stim/wavs/cuban_mismatch_declarative-narrow-focus_La-maestra-vive-en-Paris.wav,./stim/wavs/mexican_mismatch_declarative-narrow-focus_La-maestra-vive-en-Paris.wav,./stim/wavs/peruvian_mismatch_declarative-narrow-focus_La-maestra-vive-en-Paris.wav,./stim/wavs/puertorican_mismatch_declarative-narrow-focus_La-maestra-vive-en-Paris.wav,,,,,,,,,,,,,,,,,,,,,,,,,,,,,,,,,,,,,,,,,,,,,,,,,,,,,,,,
,,,,,,,5f7058deeb83ab60bb836eae,605b45a4d25f287719a41696,605ba6b52a6861ae6e923e2a,Spain,Midwest,13 or older,no,2021-03-24_15h53.26.365,empathy_intonation_perc,2020.2.10,MacIntel,60,,,,,,,,,,1,cuban,0,0,1.58512,0,27,27,59,1,60,./stim/wavs/andalusian_mismatch_interrogative-total-yn_La-maestra-vive-en-Paris.wav,./stim/wavs/argentine_mismatch_interrogative-total-yn_La-maestra-vive-en-Paris.wav,./stim/wavs/castilian_mismatch_interrogative-total-yn_La-maestra-vive-en-Paris.wav,./stim/wavs/chilean_mismatch_interrogative-total-yn_La-maestra-vive-en-Paris.wav,./stim/wavs/cuban_mismatch_interrogative-total-yn_La-maestra-vive-en-Paris.wav,./stim/wavs/mexican_mismatch_interrogative-total-yn_La-maestra-vive-en-Paris.wav,./stim/wavs/peruvian_mismatch_interrogative-total-yn_La-maestra-vive-en-Paris.wav,./stim/wavs/puertorican_mismatch_interrogative-total-yn_La-maestra-vive-en-Paris.wav,,,,,,,,,,,,,,,,,,,,,,,,,,,,,,,,,,,,,,,,,,,,,,,,,,,,,,,,
,,,,,,,5f7058deeb83ab60bb836eae,605b45a4d25f287719a41696,605ba6b52a6861ae6e923e2a,Spain,Midwest,13 or older,no,2021-03-24_15h53.26.365,empathy_intonation_perc,2020.2.10,MacIntel,60,,,,,,,,,,1,cuban,0,0,1.40148,0,28,28,31,1,32,./stim/wavs/andalusian_match_interrogative-total-yn_Marta-abre-el-regalo.wav,./stim/wavs/argentine_match_interrogative-total-yn_Marta-abre-el-regalo.wav,./stim/wavs/castilian_match_interrogative-total-yn_Marta-abre-el-regalo.wav,./stim/wavs/chilean_match_interrogative-total-yn_Marta-abre-el-regalo.wav,./stim/wavs/cuban_match_interrogative-total-yn_Marta-abre-el-regalo.wav,./stim/wavs/mexican_match_interrogative-total-yn_Marta-abre-el-regalo.wav,./stim/wavs/peruvian_match_interrogative-total-yn_Marta-abre-el-regalo.wav,./stim/wavs/puertorican_match_interrogative-total-yn_Marta-abre-el-regalo.wav,,,,,,,,,,,,,,,,,,,,,,,,,,,,,,,,,,,,,,,,,,,,,,,,,,,,,,,,
,,,,,,,5f7058deeb83ab60bb836eae,605b45a4d25f287719a41696,605ba6b52a6861ae6e923e2a,Spain,Midwest,13 or older,no,2021-03-24_15h53.26.365,empathy_intonation_perc,2020.2.10,MacIntel,60,,,,,,,,,,0,chilean,0,1,1.354215,0,29,29,36,1,37,./stim/wavs/andalusian_mismatch_declarative-broad-focus_La-nina-lava-el-plato.wav,./stim/wavs/argentine_mismatch_declarative-broad-focus_La-nina-lava-el-plato.wav,./stim/wavs/castilian_mismatch_declarative-broad-focus_La-nina-lava-el-plato.wav,./stim/wavs/chilean_mismatch_declarative-broad-focus_La-nina-lava-el-plato.wav,./stim/wavs/cuban_mismatch_declarative-broad-focus_La-nina-lava-el-plato.wav,./stim/wavs/mexican_mismatch_declarative-broad-focus_La-nina-lava-el-plato.wav,./stim/wavs/peruvian_mismatch_declarative-broad-focus_La-nina-lava-el-plato.wav,./stim/wavs/puertorican_mismatch_declarative-broad-focus_La-nina-lava-el-plato.wav,,,,,,,,,,,,,,,,,,,,,,,,,,,,,,,,,,,,,,,,,,,,,,,,,,,,,,,,
,,,,,,,5f7058deeb83ab60bb836eae,605b45a4d25f287719a41696,605ba6b52a6861ae6e923e2a,Spain,Midwest,13 or older,no,2021-03-24_15h53.26.365,empathy_intonation_perc,2020.2.10,MacIntel,60,,,,,,,,,,0,andalusian,0,1,1.552095,0,30,30,4,1,5,./stim/wavs/andalusian_match_declarative-broad-focus_Manuela-vende-el-carro.wav,./stim/wavs/argentine_match_declarative-broad-focus_Manuela-vende-el-carro.wav,./stim/wavs/castilian_match_declarative-broad-focus_Manuela-vende-el-carro.wav,./stim/wavs/chilean_match_declarative-broad-focus_Manuela-vende-el-carro.wav,./stim/wavs/cuban_match_declarative-broad-focus_Manuela-vende-el-carro.wav,./stim/wavs/mexican_match_declarative-broad-focus_Manuela-vende-el-carro.wav,./stim/wavs/peruvian_match_declarative-broad-focus_Manuela-vende-el-carro.wav,./stim/wavs/puertorican_match_declarative-broad-focus_Manuela-vende-el-carro.wav,,,,,,,,,,,,,,,,,,,,,,,,,,,,,,,,,,,,,,,,,,,,,,,,,,,,,,,,
,,,,,,,5f7058deeb83ab60bb836eae,605b45a4d25f287719a41696,605ba6b52a6861ae6e923e2a,Spain,Midwest,13 or older,no,2021-03-24_15h53.26.365,empathy_intonation_perc,2020.2.10,MacIntel,60,,,,,,,,,,0,puertorican,0,1,1.483395,0,31,31,33,1,34,./stim/wavs/andalusian_mismatch_declarative-broad-focus_El-hombre-mira-la-luna.wav,./stim/wavs/argentine_mismatch_declarative-broad-focus_El-hombre-mira-la-luna.wav,./stim/wavs/castilian_mismatch_declarative-broad-focus_El-hombre-mira-la-luna.wav,./stim/wavs/chilean_mismatch_declarative-broad-focus_El-hombre-mira-la-luna.wav,./stim/wavs/cuban_mismatch_declarative-broad-focus_El-hombre-mira-la-luna.wav,./stim/wavs/mexican_mismatch_declarative-broad-focus_El-hombre-mira-la-luna.wav,./stim/wavs/peruvian_mismatch_declarative-broad-focus_El-hombre-mira-la-luna.wav,./stim/wavs/puertorican_mismatch_declarative-broad-focus_El-hombre-mira-la-luna.wav,,,,,,,,,,,,,,,,,,,,,,,,,,,,,,,,,,,,,,,,,,,,,,,,,,,,,,,,
,,,,,,,5f7058deeb83ab60bb836eae,605b45a4d25f287719a41696,605ba6b52a6861ae6e923e2a,Spain,Midwest,13 or older,no,2021-03-24_15h53.26.365,empathy_intonation_perc,2020.2.10,MacIntel,60,,,,,,,,,,0,castilian,0,1,1.51653,0,32,32,46,1,47,./stim/wavs/andalusian_mismatch_declarative-narrow-focus_Mi-novio-viene-del-lago.wav,./stim/wavs/argentine_mismatch_declarative-narrow-focus_Mi-novio-viene-del-lago.wav,./stim/wavs/castilian_mismatch_declarative-narrow-focus_Mi-novio-viene-del-lago.wav,./stim/wavs/chilean_mismatch_declarative-narrow-focus_Mi-novio-viene-del-lago.wav,./stim/wavs/cuban_mismatch_declarative-narrow-focus_Mi-novio-viene-del-lago.wav,./stim/wavs/mexican_mismatch_declarative-narrow-focus_Mi-novio-viene-del-lago.wav,./stim/wavs/peruvian_mismatch_declarative-narrow-focus_Mi-novio-viene-del-lago.wav,./stim/wavs/puertorican_mismatch_declarative-narrow-focus_Mi-novio-viene-del-lago.wav,,,,,,,,,,,,,,,,,,,,,,,,,,,,,,,,,,,,,,,,,,,,,,,,,,,,,,,,
,,,,,,,5f7058deeb83ab60bb836eae,605b45a4d25f287719a41696,605ba6b52a6861ae6e923e2a,Spain,Midwest,13 or older,no,2021-03-24_15h53.26.365,empathy_intonation_perc,2020.2.10,MacIntel,60,,,,,,,,,,1,argentine,0,0,1.91222,0,33,33,25,1,26,./stim/wavs/andalusian_match_interrogative-total-yn_Daniel-iba-a-Bolivia.wav,./stim/wavs/argentine_match_interrogative-total-yn_Daniel-iba-a-Bolivia.wav,./stim/wavs/castilian_match_interrogative-total-yn_Daniel-iba-a-Bolivia.wav,./stim/wavs/chilean_match_interrogative-total-yn_Daniel-iba-a-Bolivia.wav,./stim/wavs/cuban_match_interrogative-total-yn_Daniel-iba-a-Bolivia.wav,./stim/wavs/mexican_match_interrogative-total-yn_Daniel-iba-a-Bolivia.wav,./stim/wavs/peruvian_match_interrogative-total-yn_Daniel-iba-a-Bolivia.wav,./stim/wavs/puertorican_match_interrogative-total-yn_Daniel-iba-a-Bolivia.wav,,,,,,,,,,,,,,,,,,,,,,,,,,,,,,,,,,,,,,,,,,,,,,,,,,,,,,,,
,,,,,,,5f7058deeb83ab60bb836eae,605b45a4d25f287719a41696,605ba6b52a6861ae6e923e2a,Spain,Midwest,13 or older,no,2021-03-24_15h53.26.365,empathy_intonation_perc,2020.2.10,MacIntel,60,,,,,,,,,,1,peruvian,0,0,1.73818,0,34,34,21,1,22,./stim/wavs/andalusian_match_interrogative-partial-wh_Por-que-ama-la-navidad.wav,./stim/wavs/argentine_match_interrogative-partial-wh_Por-que-ama-la-navidad.wav,./stim/wavs/castilian_match_interrogative-partial-wh_Por-que-ama-la-navidad.wav,./stim/wavs/chilean_match_interrogative-partial-wh_Por-que-ama-la-navidad.wav,./stim/wavs/cuban_match_interrogative-partial-wh_Por-que-ama-la-navidad.wav,./stim/wavs/mexican_match_interrogative-partial-wh_Por-que-ama-la-navidad.wav,./stim/wavs/peruvian_match_interrogative-partial-wh_Por-que-ama-la-navidad.wav,./stim/wavs/puertorican_match_interrogative-partial-wh_Por-que-ama-la-navidad.wav,,,,,,,,,,,,,,,,,,,,,,,,,,,,,,,,,,,,,,,,,,,,,,,,,,,,,,,,
,,,,,,,5f7058deeb83ab60bb836eae,605b45a4d25f287719a41696,605ba6b52a6861ae6e923e2a,Spain,Midwest,13 or older,no,2021-03-24_15h53.26.365,empathy_intonation_perc,2020.2.10,MacIntel,60,,,,,,,,,,1,mexican,1,1,1.655055,0,35,35,50,1,51,./stim/wavs/andalusian_mismatch_interrogative-partial-wh_Cuando-miraba-la-luna.wav,./stim/wavs/argentine_mismatch_interrogative-partial-wh_Cuando-miraba-la-luna.wav,./stim/wavs/castilian_mismatch_interrogative-partial-wh_Cuando-miraba-la-luna.wav,./stim/wavs/chilean_mismatch_interrogative-partial-wh_Cuando-miraba-la-luna.wav,./stim/wavs/cuban_mismatch_interrogative-partial-wh_Cuando-miraba-la-luna.wav,./stim/wavs/mexican_mismatch_interrogative-partial-wh_Cuando-miraba-la-luna.wav,./stim/wavs/peruvian_mismatch_interrogative-partial-wh_Cuando-miraba-la-luna.wav,./stim/wavs/puertorican_mismatch_interrogative-partial-wh_Cuando-miraba-la-luna.wav,,,,,,,,,,,,,,,,,,,,,,,,,,,,,,,,,,,,,,,,,,,,,,,,,,,,,,,,
,,,,,,,5f7058deeb83ab60bb836eae,605b45a4d25f287719a41696,605ba6b52a6861ae6e923e2a,Spain,Midwest,13 or older,no,2021-03-24_15h53.26.365,empathy_intonation_perc,2020.2.10,MacIntel,60,,,,,,,,,,1,cuban,0,0,1.87211,0,36,36,22,1,23,./stim/wavs/andalusian_match_interrogative-partial-wh_Por-que-hablaba-del-agua.wav,./stim/wavs/argentine_match_interrogative-partial-wh_Por-que-hablaba-del-agua.wav,./stim/wavs/castilian_match_interrogative-partial-wh_Por-que-hablaba-del-agua.wav,./stim/wavs/chilean_match_interrogative-partial-wh_Por-que-hablaba-del-agua.wav,./stim/wavs/cuban_match_interrogative-partial-wh_Por-que-hablaba-del-agua.wav,./stim/wavs/mexican_match_interrogative-partial-wh_Por-que-hablaba-del-agua.wav,./stim/wavs/peruvian_match_interrogative-partial-wh_Por-que-hablaba-del-agua.wav,./stim/wavs/puertorican_match_interrogative-partial-wh_Por-que-hablaba-del-agua.wav,,,,,,,,,,,,,,,,,,,,,,,,,,,,,,,,,,,,,,,,,,,,,,,,,,,,,,,,
,,,,,,,5f7058deeb83ab60bb836eae,605b45a4d25f287719a41696,605ba6b52a6861ae6e923e2a,Spain,Midwest,13 or older,no,2021-03-24_15h53.26.365,empathy_intonation_perc,2020.2.10,MacIntel,60,,,,,,,,,,0,andalusian,0,1,1.3793,0,37,37,8,1,9,./stim/wavs/andalusian_match_declarative-narrow-focus_Ana-lleva-el-abrigo.wav,./stim/wavs/argentine_match_declarative-narrow-focus_Ana-lleva-el-abrigo.wav,./stim/wavs/castilian_match_declarative-narrow-focus_Ana-lleva-el-abrigo.wav,./stim/wavs/chilean_match_declarative-narrow-focus_Ana-lleva-el-abrigo.wav,./stim/wavs/cuban_match_declarative-narrow-focus_Ana-lleva-el-abrigo.wav,./stim/wavs/mexican_match_declarative-narrow-focus_Ana-lleva-el-abrigo.wav,./stim/wavs/peruvian_match_declarative-narrow-focus_Ana-lleva-el-abrigo.wav,./stim/wavs/puertorican_match_declarative-narrow-focus_Ana-lleva-el-abrigo.wav,,,,,,,,,,,,,,,,,,,,,,,,,,,,,,,,,,,,,,,,,,,,,,,,,,,,,,,,
,,,,,,,5f7058deeb83ab60bb836eae,605b45a4d25f287719a41696,605ba6b52a6861ae6e923e2a,Spain,Midwest,13 or older,no,2021-03-24_15h53.26.365,empathy_intonation_perc,2020.2.10,MacIntel,60,,,,,,,,,,1,chilean,1,1,1.81758,0,38,38,57,1,58,./stim/wavs/andalusian_mismatch_interrogative-total-yn_El-hombre-mira-la-luna.wav,./stim/wavs/argentine_mismatch_interrogative-total-yn_El-hombre-mira-la-luna.wav,./stim/wavs/castilian_mismatch_interrogative-total-yn_El-hombre-mira-la-luna.wav,./stim/wavs/chilean_mismatch_interrogative-total-yn_El-hombre-mira-la-luna.wav,./stim/wavs/cuban_mismatch_interrogative-total-yn_El-hombre-mira-la-luna.wav,./stim/wavs/mexican_mismatch_interrogative-total-yn_El-hombre-mira-la-luna.wav,./stim/wavs/peruvian_mismatch_interrogative-total-yn_El-hombre-mira-la-luna.wav,./stim/wavs/puertorican_mismatch_interrogative-total-yn_El-hombre-mira-la-luna.wav,,,,,,,,,,,,,,,,,,,,,,,,,,,,,,,,,,,,,,,,,,,,,,,,,,,,,,,,
,,,,,,,5f7058deeb83ab60bb836eae,605b45a4d25f287719a41696,605ba6b52a6861ae6e923e2a,Spain,Midwest,13 or older,no,2021-03-24_15h53.26.365,empathy_intonation_perc,2020.2.10,MacIntel,60,,,,,,,,,,1,andalusian,0,0,1.48428,0,39,39,54,1,55,./stim/wavs/andalusian_mismatch_interrogative-partial-wh_Por-que-venia-del-lago.wav,./stim/wavs/argentine_mismatch_interrogative-partial-wh_Por-que-venia-del-lago.wav,./stim/wavs/castilian_mismatch_interrogative-partial-wh_Por-que-venia-del-lago.wav,./stim/wavs/chilean_mismatch_interrogative-partial-wh_Por-que-venia-del-lago.wav,./stim/wavs/cuban_mismatch_interrogative-partial-wh_Por-que-venia-del-lago.wav,./stim/wavs/mexican_mismatch_interrogative-partial-wh_Por-que-venia-del-lago.wav,./stim/wavs/peruvian_mismatch_interrogative-partial-wh_Por-que-venia-del-lago.wav,./stim/wavs/puertorican_mismatch_interrogative-partial-wh_Por-que-venia-del-lago.wav,,,,,,,,,,,,,,,,,,,,,,,,,,,,,,,,,,,,,,,,,,,,,,,,,,,,,,,,
,,,,,,,5f7058deeb83ab60bb836eae,605b45a4d25f287719a41696,605ba6b52a6861ae6e923e2a,Spain,Midwest,13 or older,no,2021-03-24_15h53.26.365,empathy_intonation_perc,2020.2.10,MacIntel,60,,,,,,,,,,0,andalusian,0,1,1.28664,0,40,40,42,1,43,./stim/wavs/andalusian_mismatch_declarative-narrow-focus_El-nino-oye-el-rio.wav,./stim/wavs/argentine_mismatch_declarative-narrow-focus_El-nino-oye-el-rio.wav,./stim/wavs/castilian_mismatch_declarative-narrow-focus_El-nino-oye-el-rio.wav,./stim/wavs/chilean_mismatch_declarative-narrow-focus_El-nino-oye-el-rio.wav,./stim/wavs/cuban_mismatch_declarative-narrow-focus_El-nino-oye-el-rio.wav,./stim/wavs/mexican_mismatch_declarative-narrow-focus_El-nino-oye-el-rio.wav,./stim/wavs/peruvian_mismatch_declarative-narrow-focus_El-nino-oye-el-rio.wav,./stim/wavs/puertorican_mismatch_declarative-narrow-focus_El-nino-oye-el-rio.wav,,,,,,,,,,,,,,,,,,,,,,,,,,,,,,,,,,,,,,,,,,,,,,,,,,,,,,,,
,,,,,,,5f7058deeb83ab60bb836eae,605b45a4d25f287719a41696,605ba6b52a6861ae6e923e2a,Spain,Midwest,13 or older,no,2021-03-24_15h53.26.365,empathy_intonation_perc,2020.2.10,MacIntel,60,,,,,,,,,,0,puertorican,0,1,1.467165,0,41,41,13,1,14,./stim/wavs/andalusian_match_declarative-narrow-focus_Maria-bebe-el-vino.wav,./stim/wavs/argentine_match_declarative-narrow-focus_Maria-bebe-el-vino.wav,./stim/wavs/castilian_match_declarative-narrow-focus_Maria-bebe-el-vino.wav,./stim/wavs/chilean_match_declarative-narrow-focus_Maria-bebe-el-vino.wav,./stim/wavs/cuban_match_declarative-narrow-focus_Maria-bebe-el-vino.wav,./stim/wavs/mexican_match_declarative-narrow-focus_Maria-bebe-el-vino.wav,./stim/wavs/peruvian_match_declarative-narrow-focus_Maria-bebe-el-vino.wav,./stim/wavs/puertorican_match_declarative-narrow-focus_Maria-bebe-el-vino.wav,,,,,,,,,,,,,,,,,,,,,,,,,,,,,,,,,,,,,,,,,,,,,,,,,,,,,,,,
,,,,,,,5f7058deeb83ab60bb836eae,605b45a4d25f287719a41696,605ba6b52a6861ae6e923e2a,Spain,Midwest,13 or older,no,2021-03-24_15h53.26.365,empathy_intonation_perc,2020.2.10,MacIntel,60,,,,,,,,,,0,mexican,0,1,1.378945,0,42,42,47,1,48,./stim/wavs/andalusian_mismatch_declarative-narrow-focus_Mi-tia-odia-la-lluvia.wav,./stim/wavs/argentine_mismatch_declarative-narrow-focus_Mi-tia-odia-la-lluvia.wav,./stim/wavs/castilian_mismatch_declarative-narrow-focus_Mi-tia-odia-la-lluvia.wav,./stim/wavs/chilean_mismatch_declarative-narrow-focus_Mi-tia-odia-la-lluvia.wav,./stim/wavs/cuban_mismatch_declarative-narrow-focus_Mi-tia-odia-la-lluvia.wav,./stim/wavs/mexican_mismatch_declarative-narrow-focus_Mi-tia-odia-la-lluvia.wav,./stim/wavs/peruvian_mismatch_declarative-narrow-focus_Mi-tia-odia-la-lluvia.wav,./stim/wavs/puertorican_mismatch_declarative-narrow-focus_Mi-tia-odia-la-lluvia.wav,,,,,,,,,,,,,,,,,,,,,,,,,,,,,,,,,,,,,,,,,,,,,,,,,,,,,,,,
,,,,,,,5f7058deeb83ab60bb836eae,605b45a4d25f287719a41696,605ba6b52a6861ae6e923e2a,Spain,Midwest,13 or older,no,2021-03-24_15h53.26.365,empathy_intonation_perc,2020.2.10,MacIntel,60,,,,,,,,,,1,puertorican,0,0,1.49995,0,43,43,62,1,63,./stim/wavs/andalusian_mismatch_interrogative-total-yn_Mi-novio-viene-del-lago.wav,./stim/wavs/argentine_mismatch_interrogative-total-yn_Mi-novio-viene-del-lago.wav,./stim/wavs/castilian_mismatch_interrogative-total-yn_Mi-novio-viene-del-lago.wav,./stim/wavs/chilean_mismatch_interrogative-total-yn_Mi-novio-viene-del-lago.wav,./stim/wavs/cuban_mismatch_interrogative-total-yn_Mi-novio-viene-del-lago.wav,./stim/wavs/mexican_mismatch_interrogative-total-yn_Mi-novio-viene-del-lago.wav,./stim/wavs/peruvian_mismatch_interrogative-total-yn_Mi-novio-viene-del-lago.wav,./stim/wavs/puertorican_mismatch_interrogative-total-yn_Mi-novio-viene-del-lago.wav,,,,,,,,,,,,,,,,,,,,,,,,,,,,,,,,,,,,,,,,,,,,,,,,,,,,,,,,
,,,,,,,5f7058deeb83ab60bb836eae,605b45a4d25f287719a41696,605ba6b52a6861ae6e923e2a,Spain,Midwest,13 or older,no,2021-03-24_15h53.26.365,empathy_intonation_perc,2020.2.10,MacIntel,60,,,,,,,,,,1,andalusian,0,0,1.58323,0,44,44,51,1,52,./stim/wavs/andalusian_mismatch_interrogative-partial-wh_Por-que-desayuna-muy-bien.wav,./stim/wavs/argentine_mismatch_interrogative-partial-wh_Por-que-desayuna-muy-bien.wav,./stim/wavs/castilian_mismatch_interrogative-partial-wh_Por-que-desayuna-muy-bien.wav,./stim/wavs/chilean_mismatch_interrogative-partial-wh_Por-que-desayuna-muy-bien.wav,./stim/wavs/cuban_mismatch_interrogative-partial-wh_Por-que-desayuna-muy-bien.wav,./stim/wavs/mexican_mismatch_interrogative-partial-wh_Por-que-desayuna-muy-bien.wav,./stim/wavs/peruvian_mismatch_interrogative-partial-wh_Por-que-desayuna-muy-bien.wav,./stim/wavs/puertorican_mismatch_interrogative-partial-wh_Por-que-desayuna-muy-bien.wav,,,,,,,,,,,,,,,,,,,,,,,,,,,,,,,,,,,,,,,,,,,,,,,,,,,,,,,,
,,,,,,,5f7058deeb83ab60bb836eae,605b45a4d25f287719a41696,605ba6b52a6861ae6e923e2a,Spain,Midwest,13 or older,no,2021-03-24_15h53.26.365,empathy_intonation_perc,2020.2.10,MacIntel,60,,,,,,,,,,0,mexican,0,1,1.334645,0,45,45,38,1,39,./stim/wavs/andalusian_mismatch_declarative-broad-focus_Mi-novio-viene-del-lago.wav,./stim/wavs/argentine_mismatch_declarative-broad-focus_Mi-novio-viene-del-lago.wav,./stim/wavs/castilian_mismatch_declarative-broad-focus_Mi-novio-viene-del-lago.wav,./stim/wavs/chilean_mismatch_declarative-broad-focus_Mi-novio-viene-del-lago.wav,./stim/wavs/cuban_mismatch_declarative-broad-focus_Mi-novio-viene-del-lago.wav,./stim/wavs/mexican_mismatch_declarative-broad-focus_Mi-novio-viene-del-lago.wav,./stim/wavs/peruvian_mismatch_declarative-broad-focus_Mi-novio-viene-del-lago.wav,./stim/wavs/puertorican_mismatch_declarative-broad-focus_Mi-novio-viene-del-lago.wav,,,,,,,,,,,,,,,,,,,,,,,,,,,,,,,,,,,,,,,,,,,,,,,,,,,,,,,,
,,,,,,,5f7058deeb83ab60bb836eae,605b45a4d25f287719a41696,605ba6b52a6861ae6e923e2a,Spain,Midwest,13 or older,no,2021-03-24_15h53.26.365,empathy_intonation_perc,2020.2.10,MacIntel,60,,,,,,,,,,1,castilian,1,1,1.48831,0,46,46,48,1,49,./stim/wavs/andalusian_mismatch_interrogative-partial-wh_Cuando-comia-la-fruta.wav,./stim/wavs/argentine_mismatch_interrogative-partial-wh_Cuando-comia-la-fruta.wav,./stim/wavs/castilian_mismatch_interrogative-partial-wh_Cuando-comia-la-fruta.wav,./stim/wavs/chilean_mismatch_interrogative-partial-wh_Cuando-comia-la-fruta.wav,./stim/wavs/cuban_mismatch_interrogative-partial-wh_Cuando-comia-la-fruta.wav,./stim/wavs/mexican_mismatch_interrogative-partial-wh_Cuando-comia-la-fruta.wav,./stim/wavs/peruvian_mismatch_interrogative-partial-wh_Cuando-comia-la-fruta.wav,./stim/wavs/puertorican_mismatch_interrogative-partial-wh_Cuando-comia-la-fruta.wav,,,,,,,,,,,,,,,,,,,,,,,,,,,,,,,,,,,,,,,,,,,,,,,,,,,,,,,,
,,,,,,,5f7058deeb83ab60bb836eae,605b45a4d25f287719a41696,605ba6b52a6861ae6e923e2a,Spain,Midwest,13 or older,no,2021-03-24_15h53.26.365,empathy_intonation_perc,2020.2.10,MacIntel,60,,,,,,,,,,1,puertorican,1,1,1.21698,0,47,47,17,1,18,./stim/wavs/andalusian_match_interrogative-partial-wh_Cuando-leia-el-libro.wav,./stim/wavs/argentine_match_interrogative-partial-wh_Cuando-leia-el-libro.wav,./stim/wavs/castilian_match_interrogative-partial-wh_Cuando-leia-el-libro.wav,./stim/wavs/chilean_match_interrogative-partial-wh_Cuando-leia-el-libro.wav,./stim/wavs/cuban_match_interrogative-partial-wh_Cuando-leia-el-libro.wav,./stim/wavs/mexican_match_interrogative-partial-wh_Cuando-leia-el-libro.wav,./stim/wavs/peruvian_match_interrogative-partial-wh_Cuando-leia-el-libro.wav,./stim/wavs/puertorican_match_interrogative-partial-wh_Cuando-leia-el-libro.wav,,,,,,,,,,,,,,,,,,,,,,,,,,,,,,,,,,,,,,,,,,,,,,,,,,,,,,,,
,,,,,,,5f7058deeb83ab60bb836eae,605b45a4d25f287719a41696,605ba6b52a6861ae6e923e2a,Spain,Midwest,13 or older,no,2021-03-24_15h53.26.365,empathy_intonation_perc,2020.2.10,MacIntel,60,,,,,,,,,,1,puertorican,0,0,1.362825,0,48,48,28,1,29,./stim/wavs/andalusian_match_interrogative-total-yn_Manuela-vende-el-carro.wav,./stim/wavs/argentine_match_interrogative-total-yn_Manuela-vende-el-carro.wav,./stim/wavs/castilian_match_interrogative-total-yn_Manuela-vende-el-carro.wav,./stim/wavs/chilean_match_interrogative-total-yn_Manuela-vende-el-carro.wav,./stim/wavs/cuban_match_interrogative-total-yn_Manuela-vende-el-carro.wav,./stim/wavs/mexican_match_interrogative-total-yn_Manuela-vende-el-carro.wav,./stim/wavs/peruvian_match_interrogative-total-yn_Manuela-vende-el-carro.wav,./stim/wavs/puertorican_match_interrogative-total-yn_Manuela-vende-el-carro.wav,,,,,,,,,,,,,,,,,,,,,,,,,,,,,,,,,,,,,,,,,,,,,,,,,,,,,,,,
,,,,,,,5f7058deeb83ab60bb836eae,605b45a4d25f287719a41696,605ba6b52a6861ae6e923e2a,Spain,Midwest,13 or older,no,2021-03-24_15h53.26.365,empathy_intonation_perc,2020.2.10,MacIntel,60,,,,,,,,,,1,argentine,1,1,1.318085,0,49,49,53,1,54,./stim/wavs/andalusian_mismatch_interrogative-partial-wh_Por-que-oia-el-rio.wav,./stim/wavs/argentine_mismatch_interrogative-partial-wh_Por-que-oia-el-rio.wav,./stim/wavs/castilian_mismatch_interrogative-partial-wh_Por-que-oia-el-rio.wav,./stim/wavs/chilean_mismatch_interrogative-partial-wh_Por-que-oia-el-rio.wav,./stim/wavs/cuban_mismatch_interrogative-partial-wh_Por-que-oia-el-rio.wav,./stim/wavs/mexican_mismatch_interrogative-partial-wh_Por-que-oia-el-rio.wav,./stim/wavs/peruvian_mismatch_interrogative-partial-wh_Por-que-oia-el-rio.wav,./stim/wavs/puertorican_mismatch_interrogative-partial-wh_Por-que-oia-el-rio.wav,,,,,,,,,,,,,,,,,,,,,,,,,,,,,,,,,,,,,,,,,,,,,,,,,,,,,,,,
,,,,,,,5f7058deeb83ab60bb836eae,605b45a4d25f287719a41696,605ba6b52a6861ae6e923e2a,Spain,Midwest,13 or older,no,2021-03-24_15h53.26.365,empathy_intonation_perc,2020.2.10,MacIntel,60,,,,,,,,,,0,puertorican,0,1,1.23214,0,50,50,44,1,45,./stim/wavs/andalusian_mismatch_declarative-narrow-focus_La-nina-lava-el-plato.wav,./stim/wavs/argentine_mismatch_declarative-narrow-focus_La-nina-lava-el-plato.wav,./stim/wavs/castilian_mismatch_declarative-narrow-focus_La-nina-lava-el-plato.wav,./stim/wavs/chilean_mismatch_declarative-narrow-focus_La-nina-lava-el-plato.wav,./stim/wavs/cuban_mismatch_declarative-narrow-focus_La-nina-lava-el-plato.wav,./stim/wavs/mexican_mismatch_declarative-narrow-focus_La-nina-lava-el-plato.wav,./stim/wavs/peruvian_mismatch_declarative-narrow-focus_La-nina-lava-el-plato.wav,./stim/wavs/puertorican_mismatch_declarative-narrow-focus_La-nina-lava-el-plato.wav,,,,,,,,,,,,,,,,,,,,,,,,,,,,,,,,,,,,,,,,,,,,,,,,,,,,,,,,
,,,,,,,5f7058deeb83ab60bb836eae,605b45a4d25f287719a41696,605ba6b52a6861ae6e923e2a,Spain,Midwest,13 or older,no,2021-03-24_15h53.26.365,empathy_intonation_perc,2020.2.10,MacIntel,60,,,,,,,,,,0,peruvian,0,1,1.56815,0,51,51,11,1,12,./stim/wavs/andalusian_match_declarative-narrow-focus_Emilio-ama-la-marcha.wav,./stim/wavs/argentine_match_declarative-narrow-focus_Emilio-ama-la-marcha.wav,./stim/wavs/castilian_match_declarative-narrow-focus_Emilio-ama-la-marcha.wav,./stim/wavs/chilean_match_declarative-narrow-focus_Emilio-ama-la-marcha.wav,./stim/wavs/cuban_match_declarative-narrow-focus_Emilio-ama-la-marcha.wav,./stim/wavs/mexican_match_declarative-narrow-focus_Emilio-ama-la-marcha.wav,./stim/wavs/peruvian_match_declarative-narrow-focus_Emilio-ama-la-marcha.wav,./stim/wavs/puertorican_match_declarative-narrow-focus_Emilio-ama-la-marcha.wav,,,,,,,,,,,,,,,,,,,,,,,,,,,,,,,,,,,,,,,,,,,,,,,,,,,,,,,,
,,,,,,,5f7058deeb83ab60bb836eae,605b45a4d25f287719a41696,605ba6b52a6861ae6e923e2a,Spain,Midwest,13 or older,no,2021-03-24_15h53.26.365,empathy_intonation_perc,2020.2.10,MacIntel,60,,,,,,,,,,1,mexican,1,1,1.42921,0,52,52,55,1,56,./stim/wavs/andalusian_mismatch_interrogative-partial-wh_Por-que-vivia-en-Paris.wav,./stim/wavs/argentine_mismatch_interrogative-partial-wh_Por-que-vivia-en-Paris.wav,./stim/wavs/castilian_mismatch_interrogative-partial-wh_Por-que-vivia-en-Paris.wav,./stim/wavs/chilean_mismatch_interrogative-partial-wh_Por-que-vivia-en-Paris.wav,./stim/wavs/cuban_mismatch_interrogative-partial-wh_Por-que-vivia-en-Paris.wav,./stim/wavs/mexican_mismatch_interrogative-partial-wh_Por-que-vivia-en-Paris.wav,./stim/wavs/peruvian_mismatch_interrogative-partial-wh_Por-que-vivia-en-Paris.wav,./stim/wavs/puertorican_mismatch_interrogative-partial-wh_Por-que-vivia-en-Paris.wav,,,,,,,,,,,,,,,,,,,,,,,,,,,,,,,,,,,,,,,,,,,,,,,,,,,,,,,,
,,,,,,,5f7058deeb83ab60bb836eae,605b45a4d25f287719a41696,605ba6b52a6861ae6e923e2a,Spain,Midwest,13 or older,no,2021-03-24_15h53.26.365,empathy_intonation_perc,2020.2.10,MacIntel,60,,,,,,,,,,0,mexican,0,1,1.335095,0,53,53,45,1,46,./stim/wavs/andalusian_mismatch_declarative-narrow-focus_Mi-madre-come-la-fruta.wav,./stim/wavs/argentine_mismatch_declarative-narrow-focus_Mi-madre-come-la-fruta.wav,./stim/wavs/castilian_mismatch_declarative-narrow-focus_Mi-madre-come-la-fruta.wav,./stim/wavs/chilean_mismatch_declarative-narrow-focus_Mi-madre-come-la-fruta.wav,./stim/wavs/cuban_mismatch_declarative-narrow-focus_Mi-madre-come-la-fruta.wav,./stim/wavs/mexican_mismatch_declarative-narrow-focus_Mi-madre-come-la-fruta.wav,./stim/wavs/peruvian_mismatch_declarative-narrow-focus_Mi-madre-come-la-fruta.wav,./stim/wavs/puertorican_mismatch_declarative-narrow-focus_Mi-madre-come-la-fruta.wav,,,,,,,,,,,,,,,,,,,,,,,,,,,,,,,,,,,,,,,,,,,,,,,,,,,,,,,,
,,,,,,,5f7058deeb83ab60bb836eae,605b45a4d25f287719a41696,605ba6b52a6861ae6e923e2a,Spain,Midwest,13 or older,no,2021-03-24_15h53.26.365,empathy_intonation_perc,2020.2.10,MacIntel,60,,,,,,,,,,0,cuban,0,1,1.1491,0,54,54,15,1,16,./stim/wavs/andalusian_match_declarative-narrow-focus_Marta-abre-el-regalo.wav,./stim/wavs/argentine_match_declarative-narrow-focus_Marta-abre-el-regalo.wav,./stim/wavs/castilian_match_declarative-narrow-focus_Marta-abre-el-regalo.wav,./stim/wavs/chilean_match_declarative-narrow-focus_Marta-abre-el-regalo.wav,./stim/wavs/cuban_match_declarative-narrow-focus_Marta-abre-el-regalo.wav,./stim/wavs/mexican_match_declarative-narrow-focus_Marta-abre-el-regalo.wav,./stim/wavs/peruvian_match_declarative-narrow-focus_Marta-abre-el-regalo.wav,./stim/wavs/puertorican_match_declarative-narrow-focus_Marta-abre-el-regalo.wav,,,,,,,,,,,,,,,,,,,,,,,,,,,,,,,,,,,,,,,,,,,,,,,,,,,,,,,,
,,,,,,,5f7058deeb83ab60bb836eae,605b45a4d25f287719a41696,605ba6b52a6861ae6e923e2a,Spain,Midwest,13 or older,no,2021-03-24_15h53.26.365,empathy_intonation_perc,2020.2.10,MacIntel,60,,,,,,,,,,1,puertorican,1,1,1.20092,0,55,55,16,1,17,./stim/wavs/andalusian_match_interrogative-partial-wh_Cuando-bebia-el-vino.wav,./stim/wavs/argentine_match_interrogative-partial-wh_Cuando-bebia-el-vino.wav,./stim/wavs/castilian_match_interrogative-partial-wh_Cuando-bebia-el-vino.wav,./stim/wavs/chilean_match_interrogative-partial-wh_Cuando-bebia-el-vino.wav,./stim/wavs/cuban_match_interrogative-partial-wh_Cuando-bebia-el-vino.wav,./stim/wavs/mexican_match_interrogative-partial-wh_Cuando-bebia-el-vino.wav,./stim/wavs/peruvian_match_interrogative-partial-wh_Cuando-bebia-el-vino.wav,./stim/wavs/puertorican_match_interrogative-partial-wh_Cuando-bebia-el-vino.wav,,,,,,,,,,,,,,,,,,,,,,,,,,,,,,,,,,,,,,,,,,,,,,,,,,,,,,,,
,,,,,,,5f7058deeb83ab60bb836eae,605b45a4d25f287719a41696,605ba6b52a6861ae6e923e2a,Spain,Midwest,13 or older,no,2021-03-24_15h53.26.365,empathy_intonation_perc,2020.2.10,MacIntel,60,,,,,,,,,,1,argentine,0,0,1.498445,0,56,56,60,1,61,./stim/wavs/andalusian_mismatch_interrogative-total-yn_La-nina-lava-el-plato.wav,./stim/wavs/argentine_mismatch_interrogative-total-yn_La-nina-lava-el-plato.wav,./stim/wavs/castilian_mismatch_interrogative-total-yn_La-nina-lava-el-plato.wav,./stim/wavs/chilean_mismatch_interrogative-total-yn_La-nina-lava-el-plato.wav,./stim/wavs/cuban_mismatch_interrogative-total-yn_La-nina-lava-el-plato.wav,./stim/wavs/mexican_mismatch_interrogative-total-yn_La-nina-lava-el-plato.wav,./stim/wavs/peruvian_mismatch_interrogative-total-yn_La-nina-lava-el-plato.wav,./stim/wavs/puertorican_mismatch_interrogative-total-yn_La-nina-lava-el-plato.wav,,,,,,,,,,,,,,,,,,,,,,,,,,,,,,,,,,,,,,,,,,,,,,,,,,,,,,,,
,,,,,,,5f7058deeb83ab60bb836eae,605b45a4d25f287719a41696,605ba6b52a6861ae6e923e2a,Spain,Midwest,13 or older,no,2021-03-24_15h53.26.365,empathy_intonation_perc,2020.2.10,MacIntel,60,,,,,,,,,,1,peruvian,0,0,1.63384,0,57,57,29,1,30,./stim/wavs/andalusian_match_interrogative-total-yn_Maria-bebe-el-vino.wav,./stim/wavs/argentine_match_interrogative-total-yn_Maria-bebe-el-vino.wav,./stim/wavs/castilian_match_interrogative-total-yn_Maria-bebe-el-vino.wav,./stim/wavs/chilean_match_interrogative-total-yn_Maria-bebe-el-vino.wav,./stim/wavs/cuban_match_interrogative-total-yn_Maria-bebe-el-vino.wav,./stim/wavs/mexican_match_interrogative-total-yn_Maria-bebe-el-vino.wav,./stim/wavs/peruvian_match_interrogative-total-yn_Maria-bebe-el-vino.wav,./stim/wavs/puertorican_match_interrogative-total-yn_Maria-bebe-el-vino.wav,,,,,,,,,,,,,,,,,,,,,,,,,,,,,,,,,,,,,,,,,,,,,,,,,,,,,,,,
,,,,,,,5f7058deeb83ab60bb836eae,605b45a4d25f287719a41696,605ba6b52a6861ae6e923e2a,Spain,Midwest,13 or older,no,2021-03-24_15h53.26.365,empathy_intonation_perc,2020.2.10,MacIntel,60,,,,,,,,,,1,andalusian,1,1,1.503165,0,58,58,27,1,28,./stim/wavs/andalusian_match_interrogative-total-yn_Emilio-ama-la-marcha.wav,./stim/wavs/argentine_match_interrogative-total-yn_Emilio-ama-la-marcha.wav,./stim/wavs/castilian_match_interrogative-total-yn_Emilio-ama-la-marcha.wav,./stim/wavs/chilean_match_interrogative-total-yn_Emilio-ama-la-marcha.wav,./stim/wavs/cuban_match_interrogative-total-yn_Emilio-ama-la-marcha.wav,./stim/wavs/mexican_match_interrogative-total-yn_Emilio-ama-la-marcha.wav,./stim/wavs/peruvian_match_interrogative-total-yn_Emilio-ama-la-marcha.wav,./stim/wavs/puertorican_match_interrogative-total-yn_Emilio-ama-la-marcha.wav,,,,,,,,,,,,,,,,,,,,,,,,,,,,,,,,,,,,,,,,,,,,,,,,,,,,,,,,
,,,,,,,5f7058deeb83ab60bb836eae,605b45a4d25f287719a41696,605ba6b52a6861ae6e923e2a,Spain,Midwest,13 or older,no,2021-03-24_15h53.26.365,empathy_intonation_perc,2020.2.10,MacIntel,60,,,,,,,,,,0,cuban,0,1,1.6389,0,59,59,6,1,7,./stim/wavs/andalusian_match_declarative-broad-focus_Mariano-habla-del-tiempo.wav,./stim/wavs/argentine_match_declarative-broad-focus_Mariano-habla-del-tiempo.wav,./stim/wavs/castilian_match_declarative-broad-focus_Mariano-habla-del-tiempo.wav,./stim/wavs/chilean_match_declarative-broad-focus_Mariano-habla-del-tiempo.wav,./stim/wavs/cuban_match_declarative-broad-focus_Mariano-habla-del-tiempo.wav,./stim/wavs/mexican_match_declarative-broad-focus_Mariano-habla-del-tiempo.wav,./stim/wavs/peruvian_match_declarative-broad-focus_Mariano-habla-del-tiempo.wav,./stim/wavs/puertorican_match_declarative-broad-focus_Mariano-habla-del-tiempo.wav,,,,,,,,,,,,,,,,,,,,,,,,,,,,,,,,,,,,,,,,,,,,,,,,,,,,,,,,
,,,,,,,5f7058deeb83ab60bb836eae,605b45a4d25f287719a41696,605ba6b52a6861ae6e923e2a,Spain,Midwest,13 or older,no,2021-03-24_15h53.26.365,empathy_intonation_perc,2020.2.10,MacIntel,60,,,,,,,,,,0,puertorican,0,1,1.76987,0,60,60,5,1,6,./stim/wavs/andalusian_match_declarative-broad-focus_Maria-bebe-el-vino.wav,./stim/wavs/argentine_match_declarative-broad-focus_Maria-bebe-el-vino.wav,./stim/wavs/castilian_match_declarative-broad-focus_Maria-bebe-el-vino.wav,./stim/wavs/chilean_match_declarative-broad-focus_Maria-bebe-el-vino.wav,./stim/wavs/cuban_match_declarative-broad-focus_Maria-bebe-el-vino.wav,./stim/wavs/mexican_match_declarative-broad-focus_Maria-bebe-el-vino.wav,./stim/wavs/peruvian_match_declarative-broad-focus_Maria-bebe-el-vino.wav,./stim/wavs/puertorican_match_declarative-broad-focus_Maria-bebe-el-vino.wav,,,,,,,,,,,,,,,,,,,,,,,,,,,,,,,,,,,,,,,,,,,,,,,,,,,,,,,,
,,,,,,,5f7058deeb83ab60bb836eae,605b45a4d25f287719a41696,605ba6b52a6861ae6e923e2a,Spain,Midwest,13 or older,no,2021-03-24_15h53.26.365,empathy_intonation_perc,2020.2.10,MacIntel,60,,,,,,,,,,0,castilian,0,1,1.5367,0,61,61,12,1,13,./stim/wavs/andalusian_match_declarative-narrow-focus_Manuela-vende-el-carro.wav,./stim/wavs/argentine_match_declarative-narrow-focus_Manuela-vende-el-carro.wav,./stim/wavs/castilian_match_declarative-narrow-focus_Manuela-vende-el-carro.wav,./stim/wavs/chilean_match_declarative-narrow-focus_Manuela-vende-el-carro.wav,./stim/wavs/cuban_match_declarative-narrow-focus_Manuela-vende-el-carro.wav,./stim/wavs/mexican_match_declarative-narrow-focus_Manuela-vende-el-carro.wav,./stim/wavs/peruvian_match_declarative-narrow-focus_Manuela-vende-el-carro.wav,./stim/wavs/puertorican_match_declarative-narrow-focus_Manuela-vende-el-carro.wav,,,,,,,,,,,,,,,,,,,,,,,,,,,,,,,,,,,,,,,,,,,,,,,,,,,,,,,,
,,,,,,,5f7058deeb83ab60bb836eae,605b45a4d25f287719a41696,605ba6b52a6861ae6e923e2a,Spain,Midwest,13 or older,no,2021-03-24_15h53.26.365,empathy_intonation_perc,2020.2.10,MacIntel,60,,,,,,,,,,1,cuban,1,1,1.300675,0,62,62,20,1,21,./stim/wavs/andalusian_match_interrogative-partial-wh_Por-que-abre-el-regalo.wav,./stim/wavs/argentine_match_interrogative-partial-wh_Por-que-abre-el-regalo.wav,./stim/wavs/castilian_match_interrogative-partial-wh_Por-que-abre-el-regalo.wav,./stim/wavs/chilean_match_interrogative-partial-wh_Por-que-abre-el-regalo.wav,./stim/wavs/cuban_match_interrogative-partial-wh_Por-que-abre-el-regalo.wav,./stim/wavs/mexican_match_interrogative-partial-wh_Por-que-abre-el-regalo.wav,./stim/wavs/peruvian_match_interrogative-partial-wh_Por-que-abre-el-regalo.wav,./stim/wavs/puertorican_match_interrogative-partial-wh_Por-que-abre-el-regalo.wav,,,,,,,,,,,,,,,,,,,,,,,,,,,,,,,,,,,,,,,,,,,,,,,,,,,,,,,,
,,,,,,,5f7058deeb83ab60bb836eae,605b45a4d25f287719a41696,605ba6b52a6861ae6e923e2a,Spain,Midwest,13 or older,no,2021-03-24_15h53.26.365,empathy_intonation_perc,2020.2.10,MacIntel,60,,,,,,,,,,1,andalusian,1,1,1.58952,0,63,63,30,1,31,./stim/wavs/andalusian_match_interrogative-total-yn_Mariano-habla-del-tiempo.wav,./stim/wavs/argentine_match_interrogative-total-yn_Mariano-habla-del-tiempo.wav,./stim/wavs/castilian_match_interrogative-total-yn_Mariano-habla-del-tiempo.wav,./stim/wavs/chilean_match_interrogative-total-yn_Mariano-habla-del-tiempo.wav,./stim/wavs/cuban_match_interrogative-total-yn_Mariano-habla-del-tiempo.wav,./stim/wavs/mexican_match_interrogative-total-yn_Mariano-habla-del-tiempo.wav,./stim/wavs/peruvian_match_interrogative-total-yn_Mariano-habla-del-tiempo.wav,./stim/wavs/puertorican_match_interrogative-total-yn_Mariano-habla-del-tiempo.wav,,,,,,,,,,,,,,,,,,,,,,,,,,,,,,,,,,,,,,,,,,,,,,,,,,,,,,,,
,,,,,,,5f7058deeb83ab60bb836eae,605b45a4d25f287719a41696,605ba6b52a6861ae6e923e2a,Spain,Midwest,13 or older,no,2021-03-24_15h53.26.365,empathy_intonation_perc,2020.2.10,MacIntel,60,,,,,,,,,,,,,,,,,,,,,,,,,,,,,h,1,3.64902,0,0,0,0,1,,,,,,,,,,,,,,,,,,,,,,,,,,,,,,,,,,,,,,,,,,,,,,,,
,,,,,"Great! Now we will move on. The next task consists of about 60 trials, in each of which you will see a string of letters. 
  
  Your task is to decide whether this is a real Spanish word or not.",(press the spacebar to continue),5f7058deeb83ab60bb836eae,605b45a4d25f287719a41696,605ba6b52a6861ae6e923e2a,Spain,Midwest,13 or older,no,2021-03-24_15h53.26.365,empathy_intonation_perc,2020.2.10,MacIntel,60,,,,,,,,,,,,,,,,,,,,,,,,,,,,,,,,,,,,,0,0,0,0,1,,,,,,,,,,,,,,,,,,,,,,,,,,,,,,,,,,,,,,,,,,,
,,,,,"If you think it is an existing Spanish word, you type '1' (for 'REAL'), and if you think it is not an existing Spanish word, you type '0' (for 'FAKE').",(press the spacebar to continue),5f7058deeb83ab60bb836eae,605b45a4d25f287719a41696,605ba6b52a6861ae6e923e2a,Spain,Midwest,13 or older,no,2021-03-24_15h53.26.365,empathy_intonation_perc,2020.2.10,MacIntel,60,,,,,,,,,,,,,,,,,,,,,,,,,,,,,,,,,,,,,0,1,1,1,1,,,,,,,,,,,,,,,,,,,,,,,,,,,,,,,,,,,,,,,,,,,
,,,,,"If you are sure that the word exists, even though you dont know its exact meaning, you may still respond '1' (REAL). 
  
  But if you are not sure if it is an existing word, you should respond '0' (FAKE).
  
  Let's do a practice round...",(press the spacebar to continue),5f7058deeb83ab60bb836eae,605b45a4d25f287719a41696,605ba6b52a6861ae6e923e2a,Spain,Midwest,13 or older,no,2021-03-24_15h53.26.365,empathy_intonation_perc,2020.2.10,MacIntel,60,,,,,,,,,,,,,,,,,,,,,,,,,,,,,,,,,,,,,0,2,2,2,1,,,,,,,,,,,,,,,,,,,,,,,,,,,,,,,,,,,,,,,,,,,
,,,,,,,5f7058deeb83ab60bb836eae,605b45a4d25f287719a41696,605ba6b52a6861ae6e923e2a,Spain,Midwest,13 or older,no,2021-03-24_15h53.26.365,empathy_intonation_perc,2020.2.10,MacIntel,60,,,,,,,,,,0,,,,,,,,,,,,,,,,,,,,,,,,,,,,,,,,0,1,1.82821,0,0,0,0,1,0,depiste,REAL,FAKE,,,,,,,,,,,,,,,,,,,,,,,,,,,,,,,
,,,,,,,5f7058deeb83ab60bb836eae,605b45a4d25f287719a41696,605ba6b52a6861ae6e923e2a,Spain,Midwest,13 or older,no,2021-03-24_15h53.26.365,empathy_intonation_perc,2020.2.10,MacIntel,60,,,,,,,,,,1,,,,,,,,,,,,,,,,,,,,,,,,,,,,,,,,1,1,0.549235,0,1,1,1,1,0,s,REAL,FAKE,,,,,,,,,,,,,,,,,,,,,,,,,,,,,,,
,,,,,,,5f7058deeb83ab60bb836eae,605b45a4d25f287719a41696,605ba6b52a6861ae6e923e2a,Spain,Midwest,13 or older,no,2021-03-24_15h53.26.365,empathy_intonation_perc,2020.2.10,MacIntel,60,,,,,,,,,,0,,,,,,,,,,,,,,,,,,,,,,,,,,,,,,,,0,1,0.84974,0,2,2,2,1,0,con,REAL,FAKE,,,,,,,,,,,,,,,,,,,,,,,,,,,,,,,
,,,,,,,5f7058deeb83ab60bb836eae,605b45a4d25f287719a41696,605ba6b52a6861ae6e923e2a,Spain,Midwest,13 or older,no,2021-03-24_15h53.26.365,empathy_intonation_perc,2020.2.10,MacIntel,60,,,,,,,,,,0,,,,,,,,,,,,,,,,,,,,,,,,,,,,,,,,1,0,0.699645,0,3,3,3,1,0,calpar,REAL,FAKE,,,,,,,,,,,,,,,,,,,,,,,,,,,,,,,
,,,,,,,5f7058deeb83ab60bb836eae,605b45a4d25f287719a41696,605ba6b52a6861ae6e923e2a,Spain,Midwest,13 or older,no,2021-03-24_15h53.26.365,empathy_intonation_perc,2020.2.10,MacIntel,60,,,,,,,,,,0,,,,,,,,,,,,,,,,,,,,,,,,,,,,,,,,0,1,0.5617,0,4,4,4,1,0,joten,REAL,FAKE,,,,,,,,,,,,,,,,,,,,,,,,,,,,,,,
,,,,,,,5f7058deeb83ab60bb836eae,605b45a4d25f287719a41696,605ba6b52a6861ae6e923e2a,Spain,Midwest,13 or older,no,2021-03-24_15h53.26.365,empathy_intonation_perc,2020.2.10,MacIntel,60,,,,,,,,,,1,,,,,,,,,,,,,,,,,,,,,,,,,,,,,,,,1,1,0.718385,0,5,5,5,1,0,sacapuntas,REAL,FAKE,,,,,,,,,,,,,,,,,,,,,,,,,,,,,,,
,,,,,,,5f7058deeb83ab60bb836eae,605b45a4d25f287719a41696,605ba6b52a6861ae6e923e2a,Spain,Midwest,13 or older,no,2021-03-24_15h53.26.365,empathy_intonation_perc,2020.2.10,MacIntel,60,,,,,,,,,,0,,,,,,,,,,,,,,,,,,,,,,,,,,,,,,,,0,1,0.533065,0,6,6,6,1,0,priba,REAL,FAKE,,,,,,,,,,,,,,,,,,,,,,,,,,,,,,,
,,,,,,,5f7058deeb83ab60bb836eae,605b45a4d25f287719a41696,605ba6b52a6861ae6e923e2a,Spain,Midwest,13 or older,no,2021-03-24_15h53.26.365,empathy_intonation_perc,2020.2.10,MacIntel,60,,,,,,,,,,0,,,,,,,,,,,,,,,,,,,,,,,,,,,,,,,,0,1,0.74943,0,7,7,7,1,0,pelasula,REAL,FAKE,,,,,,,,,,,,,,,,,,,,,,,,,,,,,,,
,,,,,,,5f7058deeb83ab60bb836eae,605b45a4d25f287719a41696,605ba6b52a6861ae6e923e2a,Spain,Midwest,13 or older,no,2021-03-24_15h53.26.365,empathy_intonation_perc,2020.2.10,MacIntel,60,,,,,,,,,,1,,,,,,,,,,,,,,,,,,,,,,,,,,,,,,,,1,1,0.582465,0,8,8,8,1,0,bien,REAL,FAKE,,,,,,,,,,,,,,,,,,,,,,,,,,,,,,,
,,,,,,,5f7058deeb83ab60bb836eae,605b45a4d25f287719a41696,605ba6b52a6861ae6e923e2a,Spain,Midwest,13 or older,no,2021-03-24_15h53.26.365,empathy_intonation_perc,2020.2.10,MacIntel,60,,,,,,,,,,1,,,,,,,,,,,,,,,,,,,,,,,,,,,,,,,,1,1,0.64998,0,9,9,9,1,0,casa,REAL,FAKE,,,,,,,,,,,,,,,,,,,,,,,,,,,,,,,
,,,,,,,5f7058deeb83ab60bb836eae,605b45a4d25f287719a41696,605ba6b52a6861ae6e923e2a,Spain,Midwest,13 or older,no,2021-03-24_15h53.26.365,empathy_intonation_perc,2020.2.10,MacIntel,60,,,,,,,,,,0,,,,,,,,,,,,,,,,,,,,,,,,,,,,,,,,0,1,0.48546,0,10,10,10,1,0,lejo,REAL,FAKE,,,,,,,,,,,,,,,,,,,,,,,,,,,,,,,
,,,,,,,5f7058deeb83ab60bb836eae,605b45a4d25f287719a41696,605ba6b52a6861ae6e923e2a,Spain,Midwest,13 or older,no,2021-03-24_15h53.26.365,empathy_intonation_perc,2020.2.10,MacIntel,60,,,,,,,,,,0,,,,,,,,,,,,,,,,,,,,,,,,,,,,,,,,0,1,0.90038,0,11,11,11,1,0,pretantas,REAL,FAKE,,,,,,,,,,,,,,,,,,,,,,,,,,,,,,,
,,,,,,,5f7058deeb83ab60bb836eae,605b45a4d25f287719a41696,605ba6b52a6861ae6e923e2a,Spain,Midwest,13 or older,no,2021-03-24_15h53.26.365,empathy_intonation_perc,2020.2.10,MacIntel,60,,,,,,,,,,0,,,,,,,,,,,,,,,,,,,,,,,,,,,,,,,,,,,,,,,,17,floroso,,,0,1,0.782685,0,0,0,16,1,REAL,FAKE,,,,,,,,,,,,,,,,,,,,,
,,,,,,,5f7058deeb83ab60bb836eae,605b45a4d25f287719a41696,605ba6b52a6861ae6e923e2a,Spain,Midwest,13 or older,no,2021-03-24_15h53.26.365,empathy_intonation_perc,2020.2.10,MacIntel,60,,,,,,,,,,1,,,,,,,,,,,,,,,,,,,,,,,,,,,,,,,,,,,,,,,,11,cenefa,,,0,0,0.64854,0,1,1,10,1,REAL,FAKE,,,,,,,,,,,,,,,,,,,,,
,,,,,,,5f7058deeb83ab60bb836eae,605b45a4d25f287719a41696,605ba6b52a6861ae6e923e2a,Spain,Midwest,13 or older,no,2021-03-24_15h53.26.365,empathy_intonation_perc,2020.2.10,MacIntel,60,,,,,,,,,,1,,,,,,,,,,,,,,,,,,,,,,,,,,,,,,,,,,,,,,,,85,lad,,,0,0,0.616495,0,2,2,84,1,REAL,FAKE,,,,,,,,,,,,,,,,,,,,,
,,,,,,,5f7058deeb83ab60bb836eae,605b45a4d25f287719a41696,605ba6b52a6861ae6e923e2a,Spain,Midwest,13 or older,no,2021-03-24_15h53.26.365,empathy_intonation_perc,2020.2.10,MacIntel,60,,,,,,,,,,0,,,,,,,,,,,,,,,,,,,,,,,,,,,,,,,,,,,,,,,,50,flamida,,,1,0,1.352055,0,3,3,49,1,REAL,FAKE,,,,,,,,,,,,,,,,,,,,,
,,,,,,,5f7058deeb83ab60bb836eae,605b45a4d25f287719a41696,605ba6b52a6861ae6e923e2a,Spain,Midwest,13 or older,no,2021-03-24_15h53.26.365,empathy_intonation_perc,2020.2.10,MacIntel,60,,,,,,,,,,0,,,,,,,,,,,,,,,,,,,,,,,,,,,,,,,,,,,,,,,,27,acutacin,,,0,1,1.498895,0,4,4,26,1,REAL,FAKE,,,,,,,,,,,,,,,,,,,,,
,,,,,,,5f7058deeb83ab60bb836eae,605b45a4d25f287719a41696,605ba6b52a6861ae6e923e2a,Spain,Midwest,13 or older,no,2021-03-24_15h53.26.365,empathy_intonation_perc,2020.2.10,MacIntel,60,,,,,,,,,,1,,,,,,,,,,,,,,,,,,,,,,,,,,,,,,,,,,,,,,,,49,ganar,,,1,1,0.73326,0,5,5,48,1,REAL,FAKE,,,,,,,,,,,,,,,,,,,,,
,,,,,,,5f7058deeb83ab60bb836eae,605b45a4d25f287719a41696,605ba6b52a6861ae6e923e2a,Spain,Midwest,13 or older,no,2021-03-24_15h53.26.365,empathy_intonation_perc,2020.2.10,MacIntel,60,,,,,,,,,,1,,,,,,,,,,,,,,,,,,,,,,,,,,,,,,,,,,,,,,,,9,hacha,,,0,0,1.05113,0,6,6,8,1,REAL,FAKE,,,,,,,,,,,,,,,,,,,,,
,,,,,,,5f7058deeb83ab60bb836eae,605b45a4d25f287719a41696,605ba6b52a6861ae6e923e2a,Spain,Midwest,13 or older,no,2021-03-24_15h53.26.365,empathy_intonation_perc,2020.2.10,MacIntel,60,,,,,,,,,,1,,,,,,,,,,,,,,,,,,,,,,,,,,,,,,,,,,,,,,,,57,tacao,,,0,0,0.65099,0,7,7,56,1,REAL,FAKE,,,,,,,,,,,,,,,,,,,,,
,,,,,,,5f7058deeb83ab60bb836eae,605b45a4d25f287719a41696,605ba6b52a6861ae6e923e2a,Spain,Midwest,13 or older,no,2021-03-24_15h53.26.365,empathy_intonation_perc,2020.2.10,MacIntel,60,,,,,,,,,,1,,,,,,,,,,,,,,,,,,,,,,,,,,,,,,,,,,,,,,,,61,seda,,,0,0,0.602475,0,8,8,60,1,REAL,FAKE,,,,,,,,,,,,,,,,,,,,,
,,,,,,,5f7058deeb83ab60bb836eae,605b45a4d25f287719a41696,605ba6b52a6861ae6e923e2a,Spain,Midwest,13 or older,no,2021-03-24_15h53.26.365,empathy_intonation_perc,2020.2.10,MacIntel,60,,,,,,,,,,1,,,,,,,,,,,,,,,,,,,,,,,,,,,,,,,,,,,,,,,,52,camisa,,,1,1,0.567185,0,9,9,51,1,REAL,FAKE,,,,,,,,,,,,,,,,,,,,,
,,,,,,,5f7058deeb83ab60bb836eae,605b45a4d25f287719a41696,605ba6b52a6861ae6e923e2a,Spain,Midwest,13 or older,no,2021-03-24_15h53.26.365,empathy_intonation_perc,2020.2.10,MacIntel,60,,,,,,,,,,1,,,,,,,,,,,,,,,,,,,,,,,,,,,,,,,,,,,,,,,,86,barato,,,0,0,1.19935,0,10,10,85,1,REAL,FAKE,,,,,,,,,,,,,,,,,,,,,
,,,,,,,5f7058deeb83ab60bb836eae,605b45a4d25f287719a41696,605ba6b52a6861ae6e923e2a,Spain,Midwest,13 or older,no,2021-03-24_15h53.26.365,empathy_intonation_perc,2020.2.10,MacIntel,60,,,,,,,,,,1,,,,,,,,,,,,,,,,,,,,,,,,,,,,,,,,,,,,,,,,34,aviso,,,0,0,0.53252,0,11,11,33,1,REAL,FAKE,,,,,,,,,,,,,,,,,,,,,
,,,,,,,5f7058deeb83ab60bb836eae,605b45a4d25f287719a41696,605ba6b52a6861ae6e923e2a,Spain,Midwest,13 or older,no,2021-03-24_15h53.26.365,empathy_intonation_perc,2020.2.10,MacIntel,60,,,,,,,,,,0,,,,,,,,,,,,,,,,,,,,,,,,,,,,,,,,,,,,,,,,72,pemicin,,,0,1,0.699075,0,12,12,71,1,REAL,FAKE,,,,,,,,,,,,,,,,,,,,,
,,,,,,,5f7058deeb83ab60bb836eae,605b45a4d25f287719a41696,605ba6b52a6861ae6e923e2a,Spain,Midwest,13 or older,no,2021-03-24_15h53.26.365,empathy_intonation_perc,2020.2.10,MacIntel,60,,,,,,,,,,1,,,,,,,,,,,,,,,,,,,,,,,,,,,,,,,,,,,,,,,,64,orgulloso,,,1,1,0.833235,0,13,13,63,1,REAL,FAKE,,,,,,,,,,,,,,,,,,,,,
,,,,,,,5f7058deeb83ab60bb836eae,605b45a4d25f287719a41696,605ba6b52a6861ae6e923e2a,Spain,Midwest,13 or older,no,2021-03-24_15h53.26.365,empathy_intonation_perc,2020.2.10,MacIntel,60,,,,,,,,,,1,,,,,,,,,,,,,,,,,,,,,,,,,,,,,,,,,,,,,,,,68,alegre,,,1,1,0.684665,0,14,14,67,1,REAL,FAKE,,,,,,,,,,,,,,,,,,,,,
,,,,,,,5f7058deeb83ab60bb836eae,605b45a4d25f287719a41696,605ba6b52a6861ae6e923e2a,Spain,Midwest,13 or older,no,2021-03-24_15h53.26.365,empathy_intonation_perc,2020.2.10,MacIntel,60,,,,,,,,,,1,,,,,,,,,,,,,,,,,,,,,,,,,,,,,,,,,,,,,,,,24,ltigo,,,0,0,0.54995,0,15,15,23,1,REAL,FAKE,,,,,,,,,,,,,,,,,,,,,
,,,,,,,5f7058deeb83ab60bb836eae,605b45a4d25f287719a41696,605ba6b52a6861ae6e923e2a,Spain,Midwest,13 or older,no,2021-03-24_15h53.26.365,empathy_intonation_perc,2020.2.10,MacIntel,60,,,,,,,,,,0,,,,,,,,,,,,,,,,,,,,,,,,,,,,,,,,,,,,,,,,18,arsa,,,0,1,0.53306,0,16,16,17,1,REAL,FAKE,,,,,,,,,,,,,,,,,,,,,
,,,,,,,5f7058deeb83ab60bb836eae,605b45a4d25f287719a41696,605ba6b52a6861ae6e923e2a,Spain,Midwest,13 or older,no,2021-03-24_15h53.26.365,empathy_intonation_perc,2020.2.10,MacIntel,60,,,,,,,,,,0,,,,,,,,,,,,,,,,,,,,,,,,,,,,,,,,,,,,,,,,70,temblo,,,0,1,0.716975,0,17,17,69,1,REAL,FAKE,,,,,,,,,,,,,,,,,,,,,
,,,,,,,5f7058deeb83ab60bb836eae,605b45a4d25f287719a41696,605ba6b52a6861ae6e923e2a,Spain,Midwest,13 or older,no,2021-03-24_15h53.26.365,empathy_intonation_perc,2020.2.10,MacIntel,60,,,,,,,,,,0,,,,,,,,,,,,,,,,,,,,,,,,,,,,,,,,,,,,,,,,84,escuto,,,0,1,0.51664,0,18,18,83,1,REAL,FAKE,,,,,,,,,,,,,,,,,,,,,
,,,,,,,5f7058deeb83ab60bb836eae,605b45a4d25f287719a41696,605ba6b52a6861ae6e923e2a,Spain,Midwest,13 or older,no,2021-03-24_15h53.26.365,empathy_intonation_perc,2020.2.10,MacIntel,60,,,,,,,,,,1,,,,,,,,,,,,,,,,,,,,,,,,,,,,,,,,,,,,,,,,39,torpe,,,0,0,0.550215,0,19,19,38,1,REAL,FAKE,,,,,,,,,,,,,,,,,,,,,
,,,,,,,5f7058deeb83ab60bb836eae,605b45a4d25f287719a41696,605ba6b52a6861ae6e923e2a,Spain,Midwest,13 or older,no,2021-03-24_15h53.26.365,empathy_intonation_perc,2020.2.10,MacIntel,60,,,,,,,,,,1,,,,,,,,,,,,,,,,,,,,,,,,,,,,,,,,,,,,,,,,48,ladrn,,,1,1,0.71652,0,20,20,47,1,REAL,FAKE,,,,,,,,,,,,,,,,,,,,,
,,,,,,,5f7058deeb83ab60bb836eae,605b45a4d25f287719a41696,605ba6b52a6861ae6e923e2a,Spain,Midwest,13 or older,no,2021-03-24_15h53.26.365,empathy_intonation_perc,2020.2.10,MacIntel,60,,,,,,,,,,0,,,,,,,,,,,,,,,,,,,,,,,,,,,,,,,,,,,,,,,,16,abracer,,,0,1,0.816855,0,21,21,15,1,REAL,FAKE,,,,,,,,,,,,,,,,,,,,,
,,,,,,,5f7058deeb83ab60bb836eae,605b45a4d25f287719a41696,605ba6b52a6861ae6e923e2a,Spain,Midwest,13 or older,no,2021-03-24_15h53.26.365,empathy_intonation_perc,2020.2.10,MacIntel,60,,,,,,,,,,0,,,,,,,,,,,,,,,,,,,,,,,,,,,,,,,,,,,,,,,,8,cadea,,,0,1,0.8163,0,22,22,7,1,REAL,FAKE,,,,,,,,,,,,,,,,,,,,,
,,,,,,,5f7058deeb83ab60bb836eae,605b45a4d25f287719a41696,605ba6b52a6861ae6e923e2a,Spain,Midwest,13 or older,no,2021-03-24_15h53.26.365,empathy_intonation_perc,2020.2.10,MacIntel,60,,,,,,,,,,1,,,,,,,,,,,,,,,,,,,,,,,,,,,,,,,,,,,,,,,,54,fomentar,,,0,0,0.7331,0,23,23,53,1,REAL,FAKE,,,,,,,,,,,,,,,,,,,,,
,,,,,,,5f7058deeb83ab60bb836eae,605b45a4d25f287719a41696,605ba6b52a6861ae6e923e2a,Spain,Midwest,13 or older,no,2021-03-24_15h53.26.365,empathy_intonation_perc,2020.2.10,MacIntel,60,,,,,,,,,,1,,,,,,,,,,,,,,,,,,,,,,,,,,,,,,,,,,,,,,,,6,tergiversar,,,0,0,0.66289,0,24,24,5,1,REAL,FAKE,,,,,,,,,,,,,,,,,,,,,
,,,,,,,5f7058deeb83ab60bb836eae,605b45a4d25f287719a41696,605ba6b52a6861ae6e923e2a,Spain,Midwest,13 or older,no,2021-03-24_15h53.26.365,empathy_intonation_perc,2020.2.10,MacIntel,60,,,,,,,,,,0,,,,,,,,,,,,,,,,,,,,,,,,,,,,,,,,,,,,,,,,29,decar,,,0,1,0.633575,0,25,25,28,1,REAL,FAKE,,,,,,,,,,,,,,,,,,,,,
,,,,,,,5f7058deeb83ab60bb836eae,605b45a4d25f287719a41696,605ba6b52a6861ae6e923e2a,Spain,Midwest,13 or older,no,2021-03-24_15h53.26.365,empathy_intonation_perc,2020.2.10,MacIntel,60,,,,,,,,,,1,,,,,,,,,,,,,,,,,,,,,,,,,,,,,,,,,,,,,,,,59,besar,,,1,1,0.62865,0,26,26,58,1,REAL,FAKE,,,,,,,,,,,,,,,,,,,,,
,,,,,,,5f7058deeb83ab60bb836eae,605b45a4d25f287719a41696,605ba6b52a6861ae6e923e2a,Spain,Midwest,13 or older,no,2021-03-24_15h53.26.365,empathy_intonation_perc,2020.2.10,MacIntel,60,,,,,,,,,,1,,,,,,,,,,,,,,,,,,,,,,,,,,,,,,,,,,,,,,,,90,clavel,,,0,0,0.650485,0,27,27,89,1,REAL,FAKE,,,,,,,,,,,,,,,,,,,,,
,,,,,,,5f7058deeb83ab60bb836eae,605b45a4d25f287719a41696,605ba6b52a6861ae6e923e2a,Spain,Midwest,13 or older,no,2021-03-24_15h53.26.365,empathy_intonation_perc,2020.2.10,MacIntel,60,,,,,,,,,,1,,,,,,,,,,,,,,,,,,,,,,,,,,,,,,,,,,,,,,,,81,pozo,,,0,0,0.60016,0,28,28,80,1,REAL,FAKE,,,,,,,,,,,,,,,,,,,,,
,,,,,,,5f7058deeb83ab60bb836eae,605b45a4d25f287719a41696,605ba6b52a6861ae6e923e2a,Spain,Midwest,13 or older,no,2021-03-24_15h53.26.365,empathy_intonation_perc,2020.2.10,MacIntel,60,,,,,,,,,,1,,,,,,,,,,,,,,,,,,,,,,,,,,,,,,,,,,,,,,,,62,flaco,,,0,0,0.79871,0,29,29,61,1,REAL,FAKE,,,,,,,,,,,,,,,,,,,,,
,,,,,,,5f7058deeb83ab60bb836eae,605b45a4d25f287719a41696,605ba6b52a6861ae6e923e2a,Spain,Midwest,13 or older,no,2021-03-24_15h53.26.365,empathy_intonation_perc,2020.2.10,MacIntel,60,,,,,,,,,,1,,,,,,,,,,,,,,,,,,,,,,,,,,,,,,,,,,,,,,,,12,asesinato,,,0,0,0.58383,0,30,30,11,1,REAL,FAKE,,,,,,,,,,,,,,,,,,,,,
,,,,,,,5f7058deeb83ab60bb836eae,605b45a4d25f287719a41696,605ba6b52a6861ae6e923e2a,Spain,Midwest,13 or older,no,2021-03-24_15h53.26.365,empathy_intonation_perc,2020.2.10,MacIntel,60,,,,,,,,,,1,,,,,,,,,,,,,,,,,,,,,,,,,,,,,,,,,,,,,,,,15,regar,,,0,0,1.00072,0,31,31,14,1,REAL,FAKE,,,,,,,,,,,,,,,,,,,,,
,,,,,,,5f7058deeb83ab60bb836eae,605b45a4d25f287719a41696,605ba6b52a6861ae6e923e2a,Spain,Midwest,13 or older,no,2021-03-24_15h53.26.365,empathy_intonation_perc,2020.2.10,MacIntel,60,,,,,,,,,,1,,,,,,,,,,,,,,,,,,,,,,,,,,,,,,,,,,,,,,,,76,atar,,,0,0,0.632505,0,32,32,75,1,REAL,FAKE,,,,,,,,,,,,,,,,,,,,,
,,,,,,,5f7058deeb83ab60bb836eae,605b45a4d25f287719a41696,605ba6b52a6861ae6e923e2a,Spain,Midwest,13 or older,no,2021-03-24_15h53.26.365,empathy_intonation_perc,2020.2.10,MacIntel,60,,,,,,,,,,1,,,,,,,,,,,,,,,,,,,,,,,,,,,,,,,,,,,,,,,,3,pulmones,,,0,0,0.750055,0,33,33,2,1,REAL,FAKE,,,,,,,,,,,,,,,,,,,,,
,,,,,,,5f7058deeb83ab60bb836eae,605b45a4d25f287719a41696,605ba6b52a6861ae6e923e2a,Spain,Midwest,13 or older,no,2021-03-24_15h53.26.365,empathy_intonation_perc,2020.2.10,MacIntel,60,,,,,,,,,,1,,,,,,,,,,,,,,,,,,,,,,,,,,,,,,,,,,,,,,,,38,estornudar,,,0,0,0.728745,0,34,34,37,1,REAL,FAKE,,,,,,,,,,,,,,,,,,,,,
,,,,,,,5f7058deeb83ab60bb836eae,605b45a4d25f287719a41696,605ba6b52a6861ae6e923e2a,Spain,Midwest,13 or older,no,2021-03-24_15h53.26.365,empathy_intonation_perc,2020.2.10,MacIntel,60,,,,,,,,,,1,,,,,,,,,,,,,,,,,,,,,,,,,,,,,,,,,,,,,,,,40,alfombra,,,0,0,0.682575,0,35,35,39,1,REAL,FAKE,,,,,,,,,,,,,,,,,,,,,
,,,,,,,5f7058deeb83ab60bb836eae,605b45a4d25f287719a41696,605ba6b52a6861ae6e923e2a,Spain,Midwest,13 or older,no,2021-03-24_15h53.26.365,empathy_intonation_perc,2020.2.10,MacIntel,60,,,,,,,,,,0,,,,,,,,,,,,,,,,,,,,,,,,,,,,,,,,,,,,,,,,10,antar,,,0,1,1.377965,0,36,36,9,1,REAL,FAKE,,,,,,,,,,,,,,,,,,,,,
,,,,,,,5f7058deeb83ab60bb836eae,605b45a4d25f287719a41696,605ba6b52a6861ae6e923e2a,Spain,Midwest,13 or older,no,2021-03-24_15h53.26.365,empathy_intonation_perc,2020.2.10,MacIntel,60,,,,,,,,,,1,,,,,,,,,,,,,,,,,,,,,,,,,,,,,,,,,,,,,,,,20,vido,,,0,0,0.683395,0,37,37,19,1,REAL,FAKE,,,,,,,,,,,,,,,,,,,,,
,,,,,,,5f7058deeb83ab60bb836eae,605b45a4d25f287719a41696,605ba6b52a6861ae6e923e2a,Spain,Midwest,13 or older,no,2021-03-24_15h53.26.365,empathy_intonation_perc,2020.2.10,MacIntel,60,,,,,,,,,,1,,,,,,,,,,,,,,,,,,,,,,,,,,,,,,,,,,,,,,,,83,guante,,,0,0,0.616435,0,38,38,82,1,REAL,FAKE,,,,,,,,,,,,,,,,,,,,,
,,,,,,,5f7058deeb83ab60bb836eae,605b45a4d25f287719a41696,605ba6b52a6861ae6e923e2a,Spain,Midwest,13 or older,no,2021-03-24_15h53.26.365,empathy_intonation_perc,2020.2.10,MacIntel,60,,,,,,,,,,1,,,,,,,,,,,,,,,,,,,,,,,,,,,,,,,,,,,,,,,,22,lacayo,,,0,0,0.550205,0,39,39,21,1,REAL,FAKE,,,,,,,,,,,,,,,,,,,,,
,,,,,,,5f7058deeb83ab60bb836eae,605b45a4d25f287719a41696,605ba6b52a6861ae6e923e2a,Spain,Midwest,13 or older,no,2021-03-24_15h53.26.365,empathy_intonation_perc,2020.2.10,MacIntel,60,,,,,,,,,,1,,,,,,,,,,,,,,,,,,,,,,,,,,,,,,,,,,,,,,,,71,polvoriento,,,0,0,0.615865,0,40,40,70,1,REAL,FAKE,,,,,,,,,,,,,,,,,,,,,
,,,,,,,5f7058deeb83ab60bb836eae,605b45a4d25f287719a41696,605ba6b52a6861ae6e923e2a,Spain,Midwest,13 or older,no,2021-03-24_15h53.26.365,empathy_intonation_perc,2020.2.10,MacIntel,60,,,,,,,,,,1,,,,,,,,,,,,,,,,,,,,,,,,,,,,,,,,,,,,,,,,73,hervidor,,,0,0,0.800725,0,41,41,72,1,REAL,FAKE,,,,,,,,,,,,,,,,,,,,,
,,,,,,,5f7058deeb83ab60bb836eae,605b45a4d25f287719a41696,605ba6b52a6861ae6e923e2a,Spain,Midwest,13 or older,no,2021-03-24_15h53.26.365,empathy_intonation_perc,2020.2.10,MacIntel,60,,,,,,,,,,0,,,,,,,,,,,,,,,,,,,,,,,,,,,,,,,,,,,,,,,,87,grodo,,,0,1,0.566025,0,42,42,86,1,REAL,FAKE,,,,,,,,,,,,,,,,,,,,,
,,,,,,,5f7058deeb83ab60bb836eae,605b45a4d25f287719a41696,605ba6b52a6861ae6e923e2a,Spain,Midwest,13 or older,no,2021-03-24_15h53.26.365,empathy_intonation_perc,2020.2.10,MacIntel,60,,,,,,,,,,1,,,,,,,,,,,,,,,,,,,,,,,,,,,,,,,,,,,,,,,,60,matar,,,1,1,0.645235,0,43,43,59,1,REAL,FAKE,,,,,,,,,,,,,,,,,,,,,
,,,,,,,5f7058deeb83ab60bb836eae,605b45a4d25f287719a41696,605ba6b52a6861ae6e923e2a,Spain,Midwest,13 or older,no,2021-03-24_15h53.26.365,empathy_intonation_perc,2020.2.10,MacIntel,60,,,,,,,,,,0,,,,,,,,,,,,,,,,,,,,,,,,,,,,,,,,,,,,,,,,30,alardio,,,0,1,0.699975,0,44,44,29,1,REAL,FAKE,,,,,,,,,,,,,,,,,,,,,
,,,,,,,5f7058deeb83ab60bb836eae,605b45a4d25f287719a41696,605ba6b52a6861ae6e923e2a,Spain,Midwest,13 or older,no,2021-03-24_15h53.26.365,empathy_intonation_perc,2020.2.10,MacIntel,60,,,,,,,,,,1,,,,,,,,,,,,,,,,,,,,,,,,,,,,,,,,,,,,,,,,26,secuestro,,,0,0,0.561785,0,45,45,25,1,REAL,FAKE,,,,,,,,,,,,,,,,,,,,,
,,,,,,,5f7058deeb83ab60bb836eae,605b45a4d25f287719a41696,605ba6b52a6861ae6e923e2a,Spain,Midwest,13 or older,no,2021-03-24_15h53.26.365,empathy_intonation_perc,2020.2.10,MacIntel,60,,,,,,,,,,0,,,,,,,,,,,,,,,,,,,,,,,,,,,,,,,,,,,,,,,,33,pauca,,,0,1,1.200055,0,46,46,32,1,REAL,FAKE,,,,,,,,,,,,,,,,,,,,,
,,,,,,,5f7058deeb83ab60bb836eae,605b45a4d25f287719a41696,605ba6b52a6861ae6e923e2a,Spain,Midwest,13 or older,no,2021-03-24_15h53.26.365,empathy_intonation_perc,2020.2.10,MacIntel,60,,,,,,,,,,1,,,,,,,,,,,,,,,,,,,,,,,,,,,,,,,,,,,,,,,,55,nevar,,,0,0,0.78349,0,47,47,54,1,REAL,FAKE,,,,,,,,,,,,,,,,,,,,,
,,,,,,,5f7058deeb83ab60bb836eae,605b45a4d25f287719a41696,605ba6b52a6861ae6e923e2a,Spain,Midwest,13 or older,no,2021-03-24_15h53.26.365,empathy_intonation_perc,2020.2.10,MacIntel,60,,,,,,,,,,0,,,,,,,,,,,,,,,,,,,,,,,,,,,,,,,,,,,,,,,,66,hacido,,,0,1,0.532785,0,48,48,65,1,REAL,FAKE,,,,,,,,,,,,,,,,,,,,,
,,,,,,,5f7058deeb83ab60bb836eae,605b45a4d25f287719a41696,605ba6b52a6861ae6e923e2a,Spain,Midwest,13 or older,no,2021-03-24_15h53.26.365,empathy_intonation_perc,2020.2.10,MacIntel,60,,,,,,,,,,1,,,,,,,,,,,,,,,,,,,,,,,,,,,,,,,,,,,,,,,,37,granuja,,,0,0,0.682355,0,49,49,36,1,REAL,FAKE,,,,,,,,,,,,,,,,,,,,,
,,,,,,,5f7058deeb83ab60bb836eae,605b45a4d25f287719a41696,605ba6b52a6861ae6e923e2a,Spain,Midwest,13 or older,no,2021-03-24_15h53.26.365,empathy_intonation_perc,2020.2.10,MacIntel,60,,,,,,,,,,1,,,,,,,,,,,,,,,,,,,,,,,,,,,,,,,,,,,,,,,,28,merodear,,,0,0,0.77958,0,50,50,27,1,REAL,FAKE,,,,,,,,,,,,,,,,,,,,,
,,,,,,,5f7058deeb83ab60bb836eae,605b45a4d25f287719a41696,605ba6b52a6861ae6e923e2a,Spain,Midwest,13 or older,no,2021-03-24_15h53.26.365,empathy_intonation_perc,2020.2.10,MacIntel,60,,,,,,,,,,1,,,,,,,,,,,,,,,,,,,,,,,,,,,,,,,,,,,,,,,,14,yunque,,,0,0,0.599785,0,51,51,13,1,REAL,FAKE,,,,,,,,,,,,,,,,,,,,,
,,,,,,,5f7058deeb83ab60bb836eae,605b45a4d25f287719a41696,605ba6b52a6861ae6e923e2a,Spain,Midwest,13 or older,no,2021-03-24_15h53.26.365,empathy_intonation_perc,2020.2.10,MacIntel,60,,,,,,,,,,1,,,,,,,,,,,,,,,,,,,,,,,,,,,,,,,,,,,,,,,,89,prisa,,,1,1,0.8833,0,52,52,88,1,REAL,FAKE,,,,,,,,,,,,,,,,,,,,,
,,,,,,,5f7058deeb83ab60bb836eae,605b45a4d25f287719a41696,605ba6b52a6861ae6e923e2a,Spain,Midwest,13 or older,no,2021-03-24_15h53.26.365,empathy_intonation_perc,2020.2.10,MacIntel,60,,,,,,,,,,1,,,,,,,,,,,,,,,,,,,,,,,,,,,,,,,,,,,,,,,,41,rebuscar,,,0,0,0.53506,0,53,53,40,1,REAL,FAKE,,,,,,,,,,,,,,,,,,,,,
,,,,,,,5f7058deeb83ab60bb836eae,605b45a4d25f287719a41696,605ba6b52a6861ae6e923e2a,Spain,Midwest,13 or older,no,2021-03-24_15h53.26.365,empathy_intonation_perc,2020.2.10,MacIntel,60,,,,,,,,,,0,,,,,,,,,,,,,,,,,,,,,,,,,,,,,,,,,,,,,,,,63,esposante,,,0,1,0.69995,0,54,54,62,1,REAL,FAKE,,,,,,,,,,,,,,,,,,,,,
,,,,,,,5f7058deeb83ab60bb836eae,605b45a4d25f287719a41696,605ba6b52a6861ae6e923e2a,Spain,Midwest,13 or older,no,2021-03-24_15h53.26.365,empathy_intonation_perc,2020.2.10,MacIntel,60,,,,,,,,,,0,,,,,,,,,,,,,,,,,,,,,,,,,,,,,,,,,,,,,,,,47,cartinar,,,0,1,0.70143,0,55,55,46,1,REAL,FAKE,,,,,,,,,,,,,,,,,,,,,
,,,,,,,5f7058deeb83ab60bb836eae,605b45a4d25f287719a41696,605ba6b52a6861ae6e923e2a,Spain,Midwest,13 or older,no,2021-03-24_15h53.26.365,empathy_intonation_perc,2020.2.10,MacIntel,60,,,,,,,,,,0,,,,,,,,,,,,,,,,,,,,,,,,,,,,,,,,,,,,,,,,1,terzo,,,0,1,0.48595,0,56,56,0,1,REAL,FAKE,,,,,,,,,,,,,,,,,,,,,
,,,,,,,5f7058deeb83ab60bb836eae,605b45a4d25f287719a41696,605ba6b52a6861ae6e923e2a,Spain,Midwest,13 or older,no,2021-03-24_15h53.26.365,empathy_intonation_perc,2020.2.10,MacIntel,60,,,,,,,,,,0,,,,,,,,,,,,,,,,,,,,,,,,,,,,,,,,,,,,,,,,42,cadallo,,,0,1,0.6178,0,57,57,41,1,REAL,FAKE,,,,,,,,,,,,,,,,,,,,,
,,,,,,,5f7058deeb83ab60bb836eae,605b45a4d25f287719a41696,605ba6b52a6861ae6e923e2a,Spain,Midwest,13 or older,no,2021-03-24_15h53.26.365,empathy_intonation_perc,2020.2.10,MacIntel,60,,,,,,,,,,1,,,,,,,,,,,,,,,,,,,,,,,,,,,,,,,,,,,,,,,,56,musgo,,,0,0,0.549305,0,58,58,55,1,REAL,FAKE,,,,,,,,,,,,,,,,,,,,,
,,,,,,,5f7058deeb83ab60bb836eae,605b45a4d25f287719a41696,605ba6b52a6861ae6e923e2a,Spain,Midwest,13 or older,no,2021-03-24_15h53.26.365,empathy_intonation_perc,2020.2.10,MacIntel,60,,,,,,,,,,0,,,,,,,,,,,,,,,,,,,,,,,,,,,,,,,,,,,,,,,,4,batilln,,,0,1,0.866915,0,59,59,3,1,REAL,FAKE,,,,,,,,,,,,,,,,,,,,,
,,,,,,,5f7058deeb83ab60bb836eae,605b45a4d25f287719a41696,605ba6b52a6861ae6e923e2a,Spain,Midwest,13 or older,no,2021-03-24_15h53.26.365,empathy_intonation_perc,2020.2.10,MacIntel,60,,,,,,,,,,1,,,,,,,,,,,,,,,,,,,,,,,,,,,,,,,,,,,,,,,,75,yacer,,,0,0,0.683765,0,60,60,74,1,REAL,FAKE,,,,,,,,,,,,,,,,,,,,,
,,,,,,,5f7058deeb83ab60bb836eae,605b45a4d25f287719a41696,605ba6b52a6861ae6e923e2a,Spain,Midwest,13 or older,no,2021-03-24_15h53.26.365,empathy_intonation_perc,2020.2.10,MacIntel,60,,,,,,,,,,0,,,,,,,,,,,,,,,,,,,,,,,,,,,,,,,,,,,,,,,,35,rompido,,,1,0,1.7167,0,61,61,34,1,REAL,FAKE,,,,,,,,,,,,,,,,,,,,,
,,,,,,,5f7058deeb83ab60bb836eae,605b45a4d25f287719a41696,605ba6b52a6861ae6e923e2a,Spain,Midwest,13 or older,no,2021-03-24_15h53.26.365,empathy_intonation_perc,2020.2.10,MacIntel,60,,,,,,,,,,1,,,,,,,,,,,,,,,,,,,,,,,,,,,,,,,,,,,,,,,,44,cuchara,,,1,1,0.73329,0,62,62,43,1,REAL,FAKE,,,,,,,,,,,,,,,,,,,,,
,,,,,,,5f7058deeb83ab60bb836eae,605b45a4d25f287719a41696,605ba6b52a6861ae6e923e2a,Spain,Midwest,13 or older,no,2021-03-24_15h53.26.365,empathy_intonation_perc,2020.2.10,MacIntel,60,,,,,,,,,,1,,,,,,,,,,,,,,,,,,,,,,,,,,,,,,,,,,,,,,,,78,frondoso,,,0,0,0.515795,0,63,63,77,1,REAL,FAKE,,,,,,,,,,,,,,,,,,,,,
,,,,,,,5f7058deeb83ab60bb836eae,605b45a4d25f287719a41696,605ba6b52a6861ae6e923e2a,Spain,Midwest,13 or older,no,2021-03-24_15h53.26.365,empathy_intonation_perc,2020.2.10,MacIntel,60,,,,,,,,,,1,,,,,,,,,,,,,,,,,,,,,,,,,,,,,,,,,,,,,,,,69,engatusar,,,0,0,0.69981,0,64,64,68,1,REAL,FAKE,,,,,,,,,,,,,,,,,,,,,
,,,,,,,5f7058deeb83ab60bb836eae,605b45a4d25f287719a41696,605ba6b52a6861ae6e923e2a,Spain,Midwest,13 or older,no,2021-03-24_15h53.26.365,empathy_intonation_perc,2020.2.10,MacIntel,60,,,,,,,,,,1,,,,,,,,,,,,,,,,,,,,,,,,,,,,,,,,,,,,,,,,88,acantilado,,,0,0,0.515695,0,65,65,87,1,REAL,FAKE,,,,,,,,,,,,,,,,,,,,,
,,,,,,,5f7058deeb83ab60bb836eae,605b45a4d25f287719a41696,605ba6b52a6861ae6e923e2a,Spain,Midwest,13 or older,no,2021-03-24_15h53.26.365,empathy_intonation_perc,2020.2.10,MacIntel,60,,,,,,,,,,0,,,,,,,,,,,,,,,,,,,,,,,,,,,,,,,,,,,,,,,,23,lampera,,,0,1,1.69936,0,66,66,22,1,REAL,FAKE,,,,,,,,,,,,,,,,,,,,,
,,,,,,,5f7058deeb83ab60bb836eae,605b45a4d25f287719a41696,605ba6b52a6861ae6e923e2a,Spain,Midwest,13 or older,no,2021-03-24_15h53.26.365,empathy_intonation_perc,2020.2.10,MacIntel,60,,,,,,,,,,1,,,,,,,,,,,,,,,,,,,,,,,,,,,,,,,,,,,,,,,,77,tiburn,,,0,0,0.66585,0,67,67,76,1,REAL,FAKE,,,,,,,,,,,,,,,,,,,,,
,,,,,,,5f7058deeb83ab60bb836eae,605b45a4d25f287719a41696,605ba6b52a6861ae6e923e2a,Spain,Midwest,13 or older,no,2021-03-24_15h53.26.365,empathy_intonation_perc,2020.2.10,MacIntel,60,,,,,,,,,,1,,,,,,,,,,,,,,,,,,,,,,,,,,,,,,,,,,,,,,,,80,hormiga,,,1,1,2.18561,0,68,68,79,1,REAL,FAKE,,,,,,,,,,,,,,,,,,,,,
,,,,,,,5f7058deeb83ab60bb836eae,605b45a4d25f287719a41696,605ba6b52a6861ae6e923e2a,Spain,Midwest,13 or older,no,2021-03-24_15h53.26.365,empathy_intonation_perc,2020.2.10,MacIntel,60,,,,,,,,,,0,,,,,,,,,,,,,,,,,,,,,,,,,,,,,,,,,,,,,,,,19,brecedad,,,0,1,0.582605,0,69,69,18,1,REAL,FAKE,,,,,,,,,,,,,,,,,,,,,
,,,,,,,5f7058deeb83ab60bb836eae,605b45a4d25f287719a41696,605ba6b52a6861ae6e923e2a,Spain,Midwest,13 or older,no,2021-03-24_15h53.26.365,empathy_intonation_perc,2020.2.10,MacIntel,60,,,,,,,,,,0,,,,,,,,,,,,,,,,,,,,,,,,,,,,,,,,,,,,,,,,74,cintro,,,0,1,0.500425,0,70,70,73,1,REAL,FAKE,,,,,,,,,,,,,,,,,,,,,
,,,,,,,5f7058deeb83ab60bb836eae,605b45a4d25f287719a41696,605ba6b52a6861ae6e923e2a,Spain,Midwest,13 or older,no,2021-03-24_15h53.26.365,empathy_intonation_perc,2020.2.10,MacIntel,60,,,,,,,,,,0,,,,,,,,,,,,,,,,,,,,,,,,,,,,,,,,,,,,,,,,32,fatacidad,,,0,1,0.851615,0,71,71,31,1,REAL,FAKE,,,,,,,,,,,,,,,,,,,,,
,,,,,,,5f7058deeb83ab60bb836eae,605b45a4d25f287719a41696,605ba6b52a6861ae6e923e2a,Spain,Midwest,13 or older,no,2021-03-24_15h53.26.365,empathy_intonation_perc,2020.2.10,MacIntel,60,,,,,,,,,,0,,,,,,,,,,,,,,,,,,,,,,,,,,,,,,,,,,,,,,,,82,empirador,,,0,1,0.735375,0,72,72,81,1,REAL,FAKE,,,,,,,,,,,,,,,,,,,,,
,,,,,,,5f7058deeb83ab60bb836eae,605b45a4d25f287719a41696,605ba6b52a6861ae6e923e2a,Spain,Midwest,13 or older,no,2021-03-24_15h53.26.365,empathy_intonation_perc,2020.2.10,MacIntel,60,,,,,,,,,,1,,,,,,,,,,,,,,,,,,,,,,,,,,,,,,,,,,,,,,,,25,bisagra,,,0,0,0.48442,0,73,73,24,1,REAL,FAKE,,,,,,,,,,,,,,,,,,,,,
,,,,,,,5f7058deeb83ab60bb836eae,605b45a4d25f287719a41696,605ba6b52a6861ae6e923e2a,Spain,Midwest,13 or older,no,2021-03-24_15h53.26.365,empathy_intonation_perc,2020.2.10,MacIntel,60,,,,,,,,,,1,,,,,,,,,,,,,,,,,,,,,,,,,,,,,,,,,,,,,,,,46,martillo,,,0,0,0.53355,0,74,74,45,1,REAL,FAKE,,,,,,,,,,,,,,,,,,,,,
,,,,,,,5f7058deeb83ab60bb836eae,605b45a4d25f287719a41696,605ba6b52a6861ae6e923e2a,Spain,Midwest,13 or older,no,2021-03-24_15h53.26.365,empathy_intonation_perc,2020.2.10,MacIntel,60,,,,,,,,,,0,,,,,,,,,,,,,,,,,,,,,,,,,,,,,,,,,,,,,,,,21,capillo,,,0,1,0.579075,0,75,75,20,1,REAL,FAKE,,,,,,,,,,,,,,,,,,,,,
,,,,,,,5f7058deeb83ab60bb836eae,605b45a4d25f287719a41696,605ba6b52a6861ae6e923e2a,Spain,Midwest,13 or older,no,2021-03-24_15h53.26.365,empathy_intonation_perc,2020.2.10,MacIntel,60,,,,,,,,,,1,,,,,,,,,,,,,,,,,,,,,,,,,,,,,,,,,,,,,,,,45,jilguero,,,0,0,0.58277,0,76,76,44,1,REAL,FAKE,,,,,,,,,,,,,,,,,,,,,
,,,,,,,5f7058deeb83ab60bb836eae,605b45a4d25f287719a41696,605ba6b52a6861ae6e923e2a,Spain,Midwest,13 or older,no,2021-03-24_15h53.26.365,empathy_intonation_perc,2020.2.10,MacIntel,60,,,,,,,,,,1,,,,,,,,,,,,,,,,,,,,,,,,,,,,,,,,,,,,,,,,51,candado,,,0,0,0.548955,0,77,77,50,1,REAL,FAKE,,,,,,,,,,,,,,,,,,,,,
,,,,,,,5f7058deeb83ab60bb836eae,605b45a4d25f287719a41696,605ba6b52a6861ae6e923e2a,Spain,Midwest,13 or older,no,2021-03-24_15h53.26.365,empathy_intonation_perc,2020.2.10,MacIntel,60,,,,,,,,,,1,,,,,,,,,,,,,,,,,,,,,,,,,,,,,,,,,,,,,,,,5,zapato,,,1,1,1.033255,0,78,78,4,1,REAL,FAKE,,,,,,,,,,,,,,,,,,,,,
,,,,,,,5f7058deeb83ab60bb836eae,605b45a4d25f287719a41696,605ba6b52a6861ae6e923e2a,Spain,Midwest,13 or older,no,2021-03-24_15h53.26.365,empathy_intonation_perc,2020.2.10,MacIntel,60,,,,,,,,,,0,,,,,,,,,,,,,,,,,,,,,,,,,,,,,,,,,,,,,,,,53,vegada,,,0,1,0.601615,0,79,79,52,1,REAL,FAKE,,,,,,,,,,,,,,,,,,,,,
,,,,,,,5f7058deeb83ab60bb836eae,605b45a4d25f287719a41696,605ba6b52a6861ae6e923e2a,Spain,Midwest,13 or older,no,2021-03-24_15h53.26.365,empathy_intonation_perc,2020.2.10,MacIntel,60,,,,,,,,,,1,,,,,,,,,,,,,,,,,,,,,,,,,,,,,,,,,,,,,,,,13,helar,,,0,0,0.516645,0,80,80,12,1,REAL,FAKE,,,,,,,,,,,,,,,,,,,,,
,,,,,,,5f7058deeb83ab60bb836eae,605b45a4d25f287719a41696,605ba6b52a6861ae6e923e2a,Spain,Midwest,13 or older,no,2021-03-24_15h53.26.365,empathy_intonation_perc,2020.2.10,MacIntel,60,,,,,,,,,,0,,,,,,,,,,,,,,,,,,,,,,,,,,,,,,,,,,,,,,,,58,plaudir,,,0,1,1.08228,0,81,81,57,1,REAL,FAKE,,,,,,,,,,,,,,,,,,,,,
,,,,,,,5f7058deeb83ab60bb836eae,605b45a4d25f287719a41696,605ba6b52a6861ae6e923e2a,Spain,Midwest,13 or older,no,2021-03-24_15h53.26.365,empathy_intonation_perc,2020.2.10,MacIntel,60,,,,,,,,,,1,,,,,,,,,,,,,,,,,,,,,,,,,,,,,,,,,,,,,,,,36,loro,,,0,0,0.499295,0,82,82,35,1,REAL,FAKE,,,,,,,,,,,,,,,,,,,,,
,,,,,,,5f7058deeb83ab60bb836eae,605b45a4d25f287719a41696,605ba6b52a6861ae6e923e2a,Spain,Midwest,13 or older,no,2021-03-24_15h53.26.365,empathy_intonation_perc,2020.2.10,MacIntel,60,,,,,,,,,,1,,,,,,,,,,,,,,,,,,,,,,,,,,,,,,,,,,,,,,,,7,psimo,,,0,0,0.61693,0,83,83,6,1,REAL,FAKE,,,,,,,,,,,,,,,,,,,,,
,,,,,,,5f7058deeb83ab60bb836eae,605b45a4d25f287719a41696,605ba6b52a6861ae6e923e2a,Spain,Midwest,13 or older,no,2021-03-24_15h53.26.365,empathy_intonation_perc,2020.2.10,MacIntel,60,,,,,,,,,,0,,,,,,,,,,,,,,,,,,,,,,,,,,,,,,,,,,,,,,,,79,tropaje,,,0,1,0.44978,0,84,84,78,1,REAL,FAKE,,,,,,,,,,,,,,,,,,,,,
,,,,,,,5f7058deeb83ab60bb836eae,605b45a4d25f287719a41696,605ba6b52a6861ae6e923e2a,Spain,Midwest,13 or older,no,2021-03-24_15h53.26.365,empathy_intonation_perc,2020.2.10,MacIntel,60,,,,,,,,,,1,,,,,,,,,,,,,,,,,,,,,,,,,,,,,,,,,,,,,,,,31,pandilla,,,0,0,0.66754,0,85,85,30,1,REAL,FAKE,,,,,,,,,,,,,,,,,,,,,
,,,,,,,5f7058deeb83ab60bb836eae,605b45a4d25f287719a41696,605ba6b52a6861ae6e923e2a,Spain,Midwest,13 or older,no,2021-03-24_15h53.26.365,empathy_intonation_perc,2020.2.10,MacIntel,60,,,,,,,,,,1,,,,,,,,,,,,,,,,,,,,,,,,,,,,,,,,,,,,,,,,67,cabello,,,1,1,0.568195,0,86,86,66,1,REAL,FAKE,,,,,,,,,,,,,,,,,,,,,
,,,,,,,5f7058deeb83ab60bb836eae,605b45a4d25f287719a41696,605ba6b52a6861ae6e923e2a,Spain,Midwest,13 or older,no,2021-03-24_15h53.26.365,empathy_intonation_perc,2020.2.10,MacIntel,60,,,,,,,,,,1,,,,,,,,,,,,,,,,,,,,,,,,,,,,,,,,,,,,,,,,43,canela,,,0,0,0.50072,0,87,87,42,1,REAL,FAKE,,,,,,,,,,,,,,,,,,,,,
,,,,,,,5f7058deeb83ab60bb836eae,605b45a4d25f287719a41696,605ba6b52a6861ae6e923e2a,Spain,Midwest,13 or older,no,2021-03-24_15h53.26.365,empathy_intonation_perc,2020.2.10,MacIntel,60,,,,,,,,,,1,,,,,,,,,,,,,,,,,,,,,,,,,,,,,,,,,,,,,,,,65,bizcocho,,,0,0,0.41682,0,88,88,64,1,REAL,FAKE,,,,,,,,,,,,,,,,,,,,,
,,,,,,,5f7058deeb83ab60bb836eae,605b45a4d25f287719a41696,605ba6b52a6861ae6e923e2a,Spain,Midwest,13 or older,no,2021-03-24_15h53.26.365,empathy_intonation_perc,2020.2.10,MacIntel,60,,,,,,,,,,1,,,,,,,,,,,,,,,,,,,,,,,,,,,,,,,,,,,,,,,,2,pellizcar,,,0,0,0.58213,0,89,89,1,1,REAL,FAKE,,,,,,,,,,,,,,,,,,,,,
,,,,,,,5f7058deeb83ab60bb836eae,605b45a4d25f287719a41696,605ba6b52a6861ae6e923e2a,Spain,Midwest,13 or older,no,2021-03-24_15h53.26.365,empathy_intonation_perc,2020.2.10,MacIntel,60,,,,,,,,,,,,,,,,,,,,,,,,,,,,,,,,,,,,,,,,,,,,,,,,,,,,,,,,,,,,,,,,4,1,1.181575,1,0,0,0,0,0,1,,,,,,,,,,,
,,,,,,,5f7058deeb83ab60bb836eae,605b45a4d25f287719a41696,605ba6b52a6861ae6e923e2a,Spain,Midwest,13 or older,no,2021-03-24_15h53.26.365,empathy_intonation_perc,2020.2.10,MacIntel,60,,,,,,,,,,,,,,,,,,,,1,,,,,,,,,,,,,,,,,,,,,,,,,,,,,,,,,,,,,,,,,,,,,,,,,,,,,,2,0,0,0,0,1,I can easily tell if someone else wants to enter a conversation.,1,0,1,0
,,,,,,,5f7058deeb83ab60bb836eae,605b45a4d25f287719a41696,605ba6b52a6861ae6e923e2a,Spain,Midwest,13 or older,no,2021-03-24_15h53.26.365,empathy_intonation_perc,2020.2.10,MacIntel,60,,,,,,,,,,,,,,,,,,,,2,,,,,,,,,,,,,,,,,,,,,,,,,,,,,,,,,,,,,,,,,,,,,,,,,,,,,,1,0,1,1,1,1,I prefer animals to humans.,0,1,0,0
,,,,,,,5f7058deeb83ab60bb836eae,605b45a4d25f287719a41696,605ba6b52a6861ae6e923e2a,Spain,Midwest,13 or older,no,2021-03-24_15h53.26.365,empathy_intonation_perc,2020.2.10,MacIntel,60,,,,,,,,,,,,,,,,,,,,3,,,,,,,,,,,,,,,,,,,,,,,,,,,,,,,,,,,,,,,,,,,,,,,,,,,,,,3,0,2,2,2,1,I try to keep up with the current trends and fashions.,0,1,0,0
,,,,,,,5f7058deeb83ab60bb836eae,605b45a4d25f287719a41696,605ba6b52a6861ae6e923e2a,Spain,Midwest,13 or older,no,2021-03-24_15h53.26.365,empathy_intonation_perc,2020.2.10,MacIntel,60,,,,,,,,,,,,,,,,,,,,4,,,,,,,,,,,,,,,,,,,,,,,,,,,,,,,,,,,,,,,,,,,,,,,,,,,,,,2,0,3,3,3,1,"I find it difficult to explain to others things that I understand easily, 
  when they dont understand it first time.",1,0,0,1
,,,,,,,5f7058deeb83ab60bb836eae,605b45a4d25f287719a41696,605ba6b52a6861ae6e923e2a,Spain,Midwest,13 or older,no,2021-03-24_15h53.26.365,empathy_intonation_perc,2020.2.10,MacIntel,60,,,,,,,,,,,,,,,,,,,,5,,,,,,,,,,,,,,,,,,,,,,,,,,,,,,,,,,,,,,,,,,,,,,,,,,,,,,2,0,4,4,4,1,I dream most nights.,0,1,0,0
,,,,,,,5f7058deeb83ab60bb836eae,605b45a4d25f287719a41696,605ba6b52a6861ae6e923e2a,Spain,Midwest,13 or older,no,2021-03-24_15h53.26.365,empathy_intonation_perc,2020.2.10,MacIntel,60,,,,,,,,,,,,,,,,,,,,6,,,,,,,,,,,,,,,,,,,,,,,,,,,,,,,,,,,,,,,,,,,,,,,,,,,,,,5,0,5,5,5,1,I really enjoy caring for other people.,1,0,1,0
,,,,,,,5f7058deeb83ab60bb836eae,605b45a4d25f287719a41696,605ba6b52a6861ae6e923e2a,Spain,Midwest,13 or older,no,2021-03-24_15h53.26.365,empathy_intonation_perc,2020.2.10,MacIntel,60,,,,,,,,,,,,,,,,,,,,7,,,,,,,,,,,,,,,,,,,,,,,,,,,,,,,,,,,,,,,,,,,,,,,,,,,,,,3,0,6,6,6,1,I try to solve my own problems rather than discussing them with others.,0,1,0,0
,,,,,,,5f7058deeb83ab60bb836eae,605b45a4d25f287719a41696,605ba6b52a6861ae6e923e2a,Spain,Midwest,13 or older,no,2021-03-24_15h53.26.365,empathy_intonation_perc,2020.2.10,MacIntel,60,,,,,,,,,,,,,,,,,,,,8,,,,,,,,,,,,,,,,,,,,,,,,,,,,,,,,,,,,,,,,,,,,,,,,,,,,,,4,0,7,7,7,1,I find it hard to know what to do in a social situation.,1,0,0,1
