instructions_2afc_loop.thisRepN,instructions_2afc_loop.thisTrialN,instructions_2afc_loop.thisN,instructions_2afc_loop.thisIndex,instructions_2afc_loop.ran,instructions_text,continue_text,participant,study_id,session,I am most familiar with Spanish from...*,What part of the US are you from?*,At what age did you begin learning Spanish?*,Are you proficient in any languages other than English/Spanish?*,date,expName,psychopyVersion,OS,frameRate,key_resp_2afc_practice.keys,key_resp_2afc_practice.corr,key_resp_2afc_practice.rt,trials_2afc_practice_loop.thisRepN,trials_2afc_practice_loop.thisTrialN,trials_2afc_practice_loop.thisN,trials_2afc_practice_loop.thisIndex,trials_2afc_practice_loop.ran,path,correct_response,the_col,key_resp_2afc_trial.keys,key_resp_2afc_trial.corr,key_resp_2afc_trial.rt,trials_2afc_loop.thisRepN,trials_2afc_loop.thisTrialN,trials_2afc_loop.thisN,trials_2afc_loop.thisIndex,trials_2afc_loop.ran,item_num,andalusian,argentine,castilian,chilean,cuban,mexican,peruvian,puertorican,key_resp_ac1.keys,key_resp_ac1.corr,key_resp_ac1.rt,ac1_loop.thisRepN,ac1_loop.thisTrialN,ac1_loop.thisN,ac1_loop.thisIndex,ac1_loop.ran,instructions_lextale_loop.thisRepN,instructions_lextale_loop.thisTrialN,instructions_lextale_loop.thisN,instructions_lextale_loop.thisIndex,instructions_lextale_loop.ran,key_resp_lextale_practice.keys,key_resp_lextale_practice.corr,key_resp_lextale_practice.rt,trials_lextale_practice_loop.thisRepN,trials_lextale_practice_loop.thisTrialN,trials_lextale_practice_loop.thisN,trials_lextale_practice_loop.thisIndex,trials_lextale_practice_loop.ran,stim,word,prac_button_real,prac_button_false,key_resp_lextale_trial.keys,key_resp_lextale_trial.corr,key_resp_lextale_trial.rt,trials_lextale_loop.thisRepN,trials_lextale_loop.thisTrialN,trials_lextale_loop.thisN,trials_lextale_loop.thisIndex,trials_lextale_loop.ran,button_real,button_false,key_resp_ac2.keys,key_resp_ac2.corr,key_resp_ac2.rt,check_pass,check_fails,ac2_loop.thisRepN,ac2_loop.thisTrialN,ac2_loop.thisN,ac2_loop.thisIndex,ac2_loop.ran,slider_eq_trial.response,trials_eq_loop.thisRepN,trials_eq_loop.thisTrialN,trials_eq_loop.thisN,trials_eq_loop.thisIndex,trials_eq_loop.ran,item,is_test_item,is_distractor,is_agree_score,is_disagree_score
0,0,0,0,1,"In the following task you are going to hear a series of utterances. 

  You will decide if the utterances sound like questions or not using your keyboard.",(press the spacebar to continue),5f80bc44efa2c013099af460,605b45a4d25f287719a41696,605b86b904ba874e7f1ac081,Spain,Midwest,13 or older,no,2021-03-24_13h37.33.680,empathy_intonation_perc,2020.2.10,Win32,60,,,,,,,,,,,,,,,,,,,,,,,,,,,,,,,,,,,,,,,,,,,,,,,,,,,,,,,,,,,,,,,,,,,,,,,,,,,,,,,,,,,,
0,1,1,1,1,"If you believe the utterance is a question, type '1' (for 'yes') and if you do not 
  believe it is a question type '0' (for 'no').

  Let's practice a bit...",(press the spacebar to continue),5f80bc44efa2c013099af460,605b45a4d25f287719a41696,605b86b904ba874e7f1ac081,Spain,Midwest,13 or older,no,2021-03-24_13h37.33.680,empathy_intonation_perc,2020.2.10,Win32,60,,,,,,,,,,,,,,,,,,,,,,,,,,,,,,,,,,,,,,,,,,,,,,,,,,,,,,,,,,,,,,,,,,,,,,,,,,,,,,,,,,,,
,,,,,,,5f80bc44efa2c013099af460,605b45a4d25f287719a41696,605b86b904ba874e7f1ac081,Spain,Midwest,13 or older,no,2021-03-24_13h37.33.680,empathy_intonation_perc,2020.2.10,Win32,60,0,1,6.139695,0,0,0,5,1,./stim/wavs/andalusian_statement_filler_Alberto-nunca-se-afeita.wav,0,,,,,,,,,,,,,,,,,,,,,,,,,,,,,,,,,,,,,,,,,,,,,,,,,,,,,,,,,,,,,,,,,,,,,,,,,,
,,,,,,,5f80bc44efa2c013099af460,605b45a4d25f287719a41696,605b86b904ba874e7f1ac081,Spain,Midwest,13 or older,no,2021-03-24_13h37.33.680,empathy_intonation_perc,2020.2.10,Win32,60,0,0,2.67023,0,1,1,2,1,./stim/wavs/chilean_question_filler_Mi-padre-cantaba-bien.wav,1,,,,,,,,,,,,,,,,,,,,,,,,,,,,,,,,,,,,,,,,,,,,,,,,,,,,,,,,,,,,,,,,,,,,,,,,,,
,,,,,,,5f80bc44efa2c013099af460,605b45a4d25f287719a41696,605b86b904ba874e7f1ac081,Spain,Midwest,13 or older,no,2021-03-24_13h37.33.680,empathy_intonation_perc,2020.2.10,Win32,60,0,1,2.18753,0,2,2,4,1,./stim/wavs/cuban_statement_filler_Cocinabas-por-la-noche.wav,0,,,,,,,,,,,,,,,,,,,,,,,,,,,,,,,,,,,,,,,,,,,,,,,,,,,,,,,,,,,,,,,,,,,,,,,,,,
,,,,,,,5f80bc44efa2c013099af460,605b45a4d25f287719a41696,605b86b904ba874e7f1ac081,Spain,Midwest,13 or older,no,2021-03-24_13h37.33.680,empathy_intonation_perc,2020.2.10,Win32,60,1,1,2.618295,0,3,3,1,1,./stim/wavs/argentine_question_filler_Mi-vecino-habla-mucho.wav,1,,,,,,,,,,,,,,,,,,,,,,,,,,,,,,,,,,,,,,,,,,,,,,,,,,,,,,,,,,,,,,,,,,,,,,,,,,
,,,,,,,5f80bc44efa2c013099af460,605b45a4d25f287719a41696,605b86b904ba874e7f1ac081,Spain,Midwest,13 or older,no,2021-03-24_13h37.33.680,empathy_intonation_perc,2020.2.10,Win32,60,1,1,1.97051,0,4,4,3,1,./stim/wavs/mexican_question_filler_Felipe-no-tiene-contrasena.wav,1,,,,,,,,,,,,,,,,,,,,,,,,,,,,,,,,,,,,,,,,,,,,,,,,,,,,,,,,,,,,,,,,,,,,,,,,,,
,,,,,,,5f80bc44efa2c013099af460,605b45a4d25f287719a41696,605b86b904ba874e7f1ac081,Spain,Midwest,13 or older,no,2021-03-24_13h37.33.680,empathy_intonation_perc,2020.2.10,Win32,60,1,1,5.952655,0,5,5,0,1,./stim/wavs/castilian_question_filler_Mi-esposo-conoce-al-chico.wav,1,,,,,,,,,,,,,,,,,,,,,,,,,,,,,,,,,,,,,,,,,,,,,,,,,,,,,,,,,,,,,,,,,,,,,,,,,,
,,,,,,,5f80bc44efa2c013099af460,605b45a4d25f287719a41696,605b86b904ba874e7f1ac081,Spain,Midwest,13 or older,no,2021-03-24_13h37.33.680,empathy_intonation_perc,2020.2.10,Win32,60,0,1,2.071075,0,6,6,7,1,./stim/wavs/puertorican_statement_filler_La-nina-pinta-con-su-amiga.wav,0,,,,,,,,,,,,,,,,,,,,,,,,,,,,,,,,,,,,,,,,,,,,,,,,,,,,,,,,,,,,,,,,,,,,,,,,,,
,,,,,,,5f80bc44efa2c013099af460,605b45a4d25f287719a41696,605b86b904ba874e7f1ac081,Spain,Midwest,13 or older,no,2021-03-24_13h37.33.680,empathy_intonation_perc,2020.2.10,Win32,60,0,1,3.607095,0,7,7,6,1,./stim/wavs/peruvian_statement_filler_El-nino-habla-con-su-madre.wav,0,,,,,,,,,,,,,,,,,,,,,,,,,,,,,,,,,,,,,,,,,,,,,,,,,,,,,,,,,,,,,,,,,,,,,,,,,,
,,,,,,,5f80bc44efa2c013099af460,605b45a4d25f287719a41696,605b86b904ba874e7f1ac081,Spain,Midwest,13 or older,no,2021-03-24_13h37.33.680,empathy_intonation_perc,2020.2.10,Win32,60,,,,,,,,,,0,andalusian,0,1,2.10444,0,0,0,35,1,36,./stim/wavs/andalusian_mismatch_declarative-broad-focus_La-maestra-vive-en-Paris.wav,./stim/wavs/argentine_mismatch_declarative-broad-focus_La-maestra-vive-en-Paris.wav,./stim/wavs/castilian_mismatch_declarative-broad-focus_La-maestra-vive-en-Paris.wav,./stim/wavs/chilean_mismatch_declarative-broad-focus_La-maestra-vive-en-Paris.wav,./stim/wavs/cuban_mismatch_declarative-broad-focus_La-maestra-vive-en-Paris.wav,./stim/wavs/mexican_mismatch_declarative-broad-focus_La-maestra-vive-en-Paris.wav,./stim/wavs/peruvian_mismatch_declarative-broad-focus_La-maestra-vive-en-Paris.wav,./stim/wavs/puertorican_mismatch_declarative-broad-focus_La-maestra-vive-en-Paris.wav,,,,,,,,,,,,,,,,,,,,,,,,,,,,,,,,,,,,,,,,,,,,,,,,,,,,,,,,
,,,,,,,5f80bc44efa2c013099af460,605b45a4d25f287719a41696,605b86b904ba874e7f1ac081,Spain,Midwest,13 or older,no,2021-03-24_13h37.33.680,empathy_intonation_perc,2020.2.10,Win32,60,,,,,,,,,,0,puertorican,0,1,1.808885,0,1,1,15,1,16,./stim/wavs/andalusian_match_declarative-narrow-focus_Marta-abre-el-regalo.wav,./stim/wavs/argentine_match_declarative-narrow-focus_Marta-abre-el-regalo.wav,./stim/wavs/castilian_match_declarative-narrow-focus_Marta-abre-el-regalo.wav,./stim/wavs/chilean_match_declarative-narrow-focus_Marta-abre-el-regalo.wav,./stim/wavs/cuban_match_declarative-narrow-focus_Marta-abre-el-regalo.wav,./stim/wavs/mexican_match_declarative-narrow-focus_Marta-abre-el-regalo.wav,./stim/wavs/peruvian_match_declarative-narrow-focus_Marta-abre-el-regalo.wav,./stim/wavs/puertorican_match_declarative-narrow-focus_Marta-abre-el-regalo.wav,,,,,,,,,,,,,,,,,,,,,,,,,,,,,,,,,,,,,,,,,,,,,,,,,,,,,,,,
,,,,,,,5f80bc44efa2c013099af460,605b45a4d25f287719a41696,605b86b904ba874e7f1ac081,Spain,Midwest,13 or older,no,2021-03-24_13h37.33.680,empathy_intonation_perc,2020.2.10,Win32,60,,,,,,,,,,0,andalusian,0,1,2.440075,0,2,2,13,1,14,./stim/wavs/andalusian_match_declarative-narrow-focus_Maria-bebe-el-vino.wav,./stim/wavs/argentine_match_declarative-narrow-focus_Maria-bebe-el-vino.wav,./stim/wavs/castilian_match_declarative-narrow-focus_Maria-bebe-el-vino.wav,./stim/wavs/chilean_match_declarative-narrow-focus_Maria-bebe-el-vino.wav,./stim/wavs/cuban_match_declarative-narrow-focus_Maria-bebe-el-vino.wav,./stim/wavs/mexican_match_declarative-narrow-focus_Maria-bebe-el-vino.wav,./stim/wavs/peruvian_match_declarative-narrow-focus_Maria-bebe-el-vino.wav,./stim/wavs/puertorican_match_declarative-narrow-focus_Maria-bebe-el-vino.wav,,,,,,,,,,,,,,,,,,,,,,,,,,,,,,,,,,,,,,,,,,,,,,,,,,,,,,,,
,,,,,,,5f80bc44efa2c013099af460,605b45a4d25f287719a41696,605b86b904ba874e7f1ac081,Spain,Midwest,13 or older,no,2021-03-24_13h37.33.680,empathy_intonation_perc,2020.2.10,Win32,60,,,,,,,,,,1,argentine,1,1,2.818,0,3,3,19,1,20,./stim/wavs/andalusian_match_interrogative-partial-wh_Cuando-vendia-el-carro.wav,./stim/wavs/argentine_match_interrogative-partial-wh_Cuando-vendia-el-carro.wav,./stim/wavs/castilian_match_interrogative-partial-wh_Cuando-vendia-el-carro.wav,./stim/wavs/chilean_match_interrogative-partial-wh_Cuando-vendia-el-carro.wav,./stim/wavs/cuban_match_interrogative-partial-wh_Cuando-vendia-el-carro.wav,./stim/wavs/mexican_match_interrogative-partial-wh_Cuando-vendia-el-carro.wav,./stim/wavs/peruvian_match_interrogative-partial-wh_Cuando-vendia-el-carro.wav,./stim/wavs/puertorican_match_interrogative-partial-wh_Cuando-vendia-el-carro.wav,,,,,,,,,,,,,,,,,,,,,,,,,,,,,,,,,,,,,,,,,,,,,,,,,,,,,,,,
,,,,,,,5f80bc44efa2c013099af460,605b45a4d25f287719a41696,605b86b904ba874e7f1ac081,Spain,Midwest,13 or older,no,2021-03-24_13h37.33.680,empathy_intonation_perc,2020.2.10,Win32,60,,,,,,,,,,1,peruvian,1,1,1.93601,0,4,4,48,1,49,./stim/wavs/andalusian_mismatch_interrogative-partial-wh_Cuando-comia-la-fruta.wav,./stim/wavs/argentine_mismatch_interrogative-partial-wh_Cuando-comia-la-fruta.wav,./stim/wavs/castilian_mismatch_interrogative-partial-wh_Cuando-comia-la-fruta.wav,./stim/wavs/chilean_mismatch_interrogative-partial-wh_Cuando-comia-la-fruta.wav,./stim/wavs/cuban_mismatch_interrogative-partial-wh_Cuando-comia-la-fruta.wav,./stim/wavs/mexican_mismatch_interrogative-partial-wh_Cuando-comia-la-fruta.wav,./stim/wavs/peruvian_mismatch_interrogative-partial-wh_Cuando-comia-la-fruta.wav,./stim/wavs/puertorican_mismatch_interrogative-partial-wh_Cuando-comia-la-fruta.wav,,,,,,,,,,,,,,,,,,,,,,,,,,,,,,,,,,,,,,,,,,,,,,,,,,,,,,,,
,,,,,,,5f80bc44efa2c013099af460,605b45a4d25f287719a41696,605b86b904ba874e7f1ac081,Spain,Midwest,13 or older,no,2021-03-24_13h37.33.680,empathy_intonation_perc,2020.2.10,Win32,60,,,,,,,,,,1,argentine,0,0,1.7793,0,5,5,61,1,62,./stim/wavs/andalusian_mismatch_interrogative-total-yn_Mi-madre-come-la-fruta.wav,./stim/wavs/argentine_mismatch_interrogative-total-yn_Mi-madre-come-la-fruta.wav,./stim/wavs/castilian_mismatch_interrogative-total-yn_Mi-madre-come-la-fruta.wav,./stim/wavs/chilean_mismatch_interrogative-total-yn_Mi-madre-come-la-fruta.wav,./stim/wavs/cuban_mismatch_interrogative-total-yn_Mi-madre-come-la-fruta.wav,./stim/wavs/mexican_mismatch_interrogative-total-yn_Mi-madre-come-la-fruta.wav,./stim/wavs/peruvian_mismatch_interrogative-total-yn_Mi-madre-come-la-fruta.wav,./stim/wavs/puertorican_mismatch_interrogative-total-yn_Mi-madre-come-la-fruta.wav,,,,,,,,,,,,,,,,,,,,,,,,,,,,,,,,,,,,,,,,,,,,,,,,,,,,,,,,
,,,,,,,5f80bc44efa2c013099af460,605b45a4d25f287719a41696,605b86b904ba874e7f1ac081,Spain,Midwest,13 or older,no,2021-03-24_13h37.33.680,empathy_intonation_perc,2020.2.10,Win32,60,,,,,,,,,,0,puertorican,0,1,2.11785,0,6,6,6,1,7,./stim/wavs/andalusian_match_declarative-broad-focus_Mariano-habla-del-tiempo.wav,./stim/wavs/argentine_match_declarative-broad-focus_Mariano-habla-del-tiempo.wav,./stim/wavs/castilian_match_declarative-broad-focus_Mariano-habla-del-tiempo.wav,./stim/wavs/chilean_match_declarative-broad-focus_Mariano-habla-del-tiempo.wav,./stim/wavs/cuban_match_declarative-broad-focus_Mariano-habla-del-tiempo.wav,./stim/wavs/mexican_match_declarative-broad-focus_Mariano-habla-del-tiempo.wav,./stim/wavs/peruvian_match_declarative-broad-focus_Mariano-habla-del-tiempo.wav,./stim/wavs/puertorican_match_declarative-broad-focus_Mariano-habla-del-tiempo.wav,,,,,,,,,,,,,,,,,,,,,,,,,,,,,,,,,,,,,,,,,,,,,,,,,,,,,,,,
,,,,,,,5f80bc44efa2c013099af460,605b45a4d25f287719a41696,605b86b904ba874e7f1ac081,Spain,Midwest,13 or older,no,2021-03-24_13h37.33.680,empathy_intonation_perc,2020.2.10,Win32,60,,,,,,,,,,0,andalusian,0,1,2.269065,0,7,7,45,1,46,./stim/wavs/andalusian_mismatch_declarative-narrow-focus_Mi-madre-come-la-fruta.wav,./stim/wavs/argentine_mismatch_declarative-narrow-focus_Mi-madre-come-la-fruta.wav,./stim/wavs/castilian_mismatch_declarative-narrow-focus_Mi-madre-come-la-fruta.wav,./stim/wavs/chilean_mismatch_declarative-narrow-focus_Mi-madre-come-la-fruta.wav,./stim/wavs/cuban_mismatch_declarative-narrow-focus_Mi-madre-come-la-fruta.wav,./stim/wavs/mexican_mismatch_declarative-narrow-focus_Mi-madre-come-la-fruta.wav,./stim/wavs/peruvian_mismatch_declarative-narrow-focus_Mi-madre-come-la-fruta.wav,./stim/wavs/puertorican_mismatch_declarative-narrow-focus_Mi-madre-come-la-fruta.wav,,,,,,,,,,,,,,,,,,,,,,,,,,,,,,,,,,,,,,,,,,,,,,,,,,,,,,,,
,,,,,,,5f80bc44efa2c013099af460,605b45a4d25f287719a41696,605b86b904ba874e7f1ac081,Spain,Midwest,13 or older,no,2021-03-24_13h37.33.680,empathy_intonation_perc,2020.2.10,Win32,60,,,,,,,,,,0,argentine,0,1,2.1104,0,8,8,11,1,12,./stim/wavs/andalusian_match_declarative-narrow-focus_Emilio-ama-la-marcha.wav,./stim/wavs/argentine_match_declarative-narrow-focus_Emilio-ama-la-marcha.wav,./stim/wavs/castilian_match_declarative-narrow-focus_Emilio-ama-la-marcha.wav,./stim/wavs/chilean_match_declarative-narrow-focus_Emilio-ama-la-marcha.wav,./stim/wavs/cuban_match_declarative-narrow-focus_Emilio-ama-la-marcha.wav,./stim/wavs/mexican_match_declarative-narrow-focus_Emilio-ama-la-marcha.wav,./stim/wavs/peruvian_match_declarative-narrow-focus_Emilio-ama-la-marcha.wav,./stim/wavs/puertorican_match_declarative-narrow-focus_Emilio-ama-la-marcha.wav,,,,,,,,,,,,,,,,,,,,,,,,,,,,,,,,,,,,,,,,,,,,,,,,,,,,,,,,
,,,,,,,5f80bc44efa2c013099af460,605b45a4d25f287719a41696,605b86b904ba874e7f1ac081,Spain,Midwest,13 or older,no,2021-03-24_13h37.33.680,empathy_intonation_perc,2020.2.10,Win32,60,,,,,,,,,,0,mexican,0,1,3.274815,0,9,9,4,1,5,./stim/wavs/andalusian_match_declarative-broad-focus_Manuela-vende-el-carro.wav,./stim/wavs/argentine_match_declarative-broad-focus_Manuela-vende-el-carro.wav,./stim/wavs/castilian_match_declarative-broad-focus_Manuela-vende-el-carro.wav,./stim/wavs/chilean_match_declarative-broad-focus_Manuela-vende-el-carro.wav,./stim/wavs/cuban_match_declarative-broad-focus_Manuela-vende-el-carro.wav,./stim/wavs/mexican_match_declarative-broad-focus_Manuela-vende-el-carro.wav,./stim/wavs/peruvian_match_declarative-broad-focus_Manuela-vende-el-carro.wav,./stim/wavs/puertorican_match_declarative-broad-focus_Manuela-vende-el-carro.wav,,,,,,,,,,,,,,,,,,,,,,,,,,,,,,,,,,,,,,,,,,,,,,,,,,,,,,,,
,,,,,,,5f80bc44efa2c013099af460,605b45a4d25f287719a41696,605b86b904ba874e7f1ac081,Spain,Midwest,13 or older,no,2021-03-24_13h37.33.680,empathy_intonation_perc,2020.2.10,Win32,60,,,,,,,,,,1,chilean,1,1,1.87121,0,10,10,63,1,64,./stim/wavs/andalusian_mismatch_interrogative-total-yn_Mi-tia-odia-la-lluvia.wav,./stim/wavs/argentine_mismatch_interrogative-total-yn_Mi-tia-odia-la-lluvia.wav,./stim/wavs/castilian_mismatch_interrogative-total-yn_Mi-tia-odia-la-lluvia.wav,./stim/wavs/chilean_mismatch_interrogative-total-yn_Mi-tia-odia-la-lluvia.wav,./stim/wavs/cuban_mismatch_interrogative-total-yn_Mi-tia-odia-la-lluvia.wav,./stim/wavs/mexican_mismatch_interrogative-total-yn_Mi-tia-odia-la-lluvia.wav,./stim/wavs/peruvian_mismatch_interrogative-total-yn_Mi-tia-odia-la-lluvia.wav,./stim/wavs/puertorican_mismatch_interrogative-total-yn_Mi-tia-odia-la-lluvia.wav,,,,,,,,,,,,,,,,,,,,,,,,,,,,,,,,,,,,,,,,,,,,,,,,,,,,,,,,
,,,,,,,5f80bc44efa2c013099af460,605b45a4d25f287719a41696,605b86b904ba874e7f1ac081,Spain,Midwest,13 or older,no,2021-03-24_13h37.33.680,empathy_intonation_perc,2020.2.10,Win32,60,,,,,,,,,,1,puertorican,1,1,2.066005,0,11,11,23,1,24,./stim/wavs/andalusian_match_interrogative-partial-wh_Por-que-iba-a-Bolivia.wav,./stim/wavs/argentine_match_interrogative-partial-wh_Por-que-iba-a-Bolivia.wav,./stim/wavs/castilian_match_interrogative-partial-wh_Por-que-iba-a-Bolivia.wav,./stim/wavs/chilean_match_interrogative-partial-wh_Por-que-iba-a-Bolivia.wav,./stim/wavs/cuban_match_interrogative-partial-wh_Por-que-iba-a-Bolivia.wav,./stim/wavs/mexican_match_interrogative-partial-wh_Por-que-iba-a-Bolivia.wav,./stim/wavs/peruvian_match_interrogative-partial-wh_Por-que-iba-a-Bolivia.wav,./stim/wavs/puertorican_match_interrogative-partial-wh_Por-que-iba-a-Bolivia.wav,,,,,,,,,,,,,,,,,,,,,,,,,,,,,,,,,,,,,,,,,,,,,,,,,,,,,,,,
,,,,,,,5f80bc44efa2c013099af460,605b45a4d25f287719a41696,605b86b904ba874e7f1ac081,Spain,Midwest,13 or older,no,2021-03-24_13h37.33.680,empathy_intonation_perc,2020.2.10,Win32,60,,,,,,,,,,0,argentine,0,1,2.155625,0,12,12,7,1,8,./stim/wavs/andalusian_match_declarative-broad-focus_Marta-abre-el-regalo.wav,./stim/wavs/argentine_match_declarative-broad-focus_Marta-abre-el-regalo.wav,./stim/wavs/castilian_match_declarative-broad-focus_Marta-abre-el-regalo.wav,./stim/wavs/chilean_match_declarative-broad-focus_Marta-abre-el-regalo.wav,./stim/wavs/cuban_match_declarative-broad-focus_Marta-abre-el-regalo.wav,./stim/wavs/mexican_match_declarative-broad-focus_Marta-abre-el-regalo.wav,./stim/wavs/peruvian_match_declarative-broad-focus_Marta-abre-el-regalo.wav,./stim/wavs/puertorican_match_declarative-broad-focus_Marta-abre-el-regalo.wav,,,,,,,,,,,,,,,,,,,,,,,,,,,,,,,,,,,,,,,,,,,,,,,,,,,,,,,,
,,,,,,,5f80bc44efa2c013099af460,605b45a4d25f287719a41696,605b86b904ba874e7f1ac081,Spain,Midwest,13 or older,no,2021-03-24_13h37.33.680,empathy_intonation_perc,2020.2.10,Win32,60,,,,,,,,,,0,chilean,0,1,1.751535,0,13,13,37,1,38,./stim/wavs/andalusian_mismatch_declarative-broad-focus_Mi-madre-come-la-fruta.wav,./stim/wavs/argentine_mismatch_declarative-broad-focus_Mi-madre-come-la-fruta.wav,./stim/wavs/castilian_mismatch_declarative-broad-focus_Mi-madre-come-la-fruta.wav,./stim/wavs/chilean_mismatch_declarative-broad-focus_Mi-madre-come-la-fruta.wav,./stim/wavs/cuban_mismatch_declarative-broad-focus_Mi-madre-come-la-fruta.wav,./stim/wavs/mexican_mismatch_declarative-broad-focus_Mi-madre-come-la-fruta.wav,./stim/wavs/peruvian_mismatch_declarative-broad-focus_Mi-madre-come-la-fruta.wav,./stim/wavs/puertorican_mismatch_declarative-broad-focus_Mi-madre-come-la-fruta.wav,,,,,,,,,,,,,,,,,,,,,,,,,,,,,,,,,,,,,,,,,,,,,,,,,,,,,,,,
,,,,,,,5f80bc44efa2c013099af460,605b45a4d25f287719a41696,605b86b904ba874e7f1ac081,Spain,Midwest,13 or older,no,2021-03-24_13h37.33.680,empathy_intonation_perc,2020.2.10,Win32,60,,,,,,,,,,1,peruvian,1,1,3.820875,0,14,14,56,1,57,./stim/wavs/andalusian_mismatch_interrogative-total-yn_El-bebe-comia-muy-bien.wav,./stim/wavs/argentine_mismatch_interrogative-total-yn_El-bebe-comia-muy-bien.wav,./stim/wavs/castilian_mismatch_interrogative-total-yn_El-bebe-comia-muy-bien.wav,./stim/wavs/chilean_mismatch_interrogative-total-yn_El-bebe-comia-muy-bien.wav,./stim/wavs/cuban_mismatch_interrogative-total-yn_El-bebe-comia-muy-bien.wav,./stim/wavs/mexican_mismatch_interrogative-total-yn_El-bebe-comia-muy-bien.wav,./stim/wavs/peruvian_mismatch_interrogative-total-yn_El-bebe-comia-muy-bien.wav,./stim/wavs/puertorican_mismatch_interrogative-total-yn_El-bebe-comia-muy-bien.wav,,,,,,,,,,,,,,,,,,,,,,,,,,,,,,,,,,,,,,,,,,,,,,,,,,,,,,,,
,,,,,,,5f80bc44efa2c013099af460,605b45a4d25f287719a41696,605b86b904ba874e7f1ac081,Spain,Midwest,13 or older,no,2021-03-24_13h37.33.680,empathy_intonation_perc,2020.2.10,Win32,60,,,,,,,,,,1,mexican,1,1,1.940905,0,15,15,20,1,21,./stim/wavs/andalusian_match_interrogative-partial-wh_Por-que-abre-el-regalo.wav,./stim/wavs/argentine_match_interrogative-partial-wh_Por-que-abre-el-regalo.wav,./stim/wavs/castilian_match_interrogative-partial-wh_Por-que-abre-el-regalo.wav,./stim/wavs/chilean_match_interrogative-partial-wh_Por-que-abre-el-regalo.wav,./stim/wavs/cuban_match_interrogative-partial-wh_Por-que-abre-el-regalo.wav,./stim/wavs/mexican_match_interrogative-partial-wh_Por-que-abre-el-regalo.wav,./stim/wavs/peruvian_match_interrogative-partial-wh_Por-que-abre-el-regalo.wav,./stim/wavs/puertorican_match_interrogative-partial-wh_Por-que-abre-el-regalo.wav,,,,,,,,,,,,,,,,,,,,,,,,,,,,,,,,,,,,,,,,,,,,,,,,,,,,,,,,
,,,,,,,5f80bc44efa2c013099af460,605b45a4d25f287719a41696,605b86b904ba874e7f1ac081,Spain,Midwest,13 or older,no,2021-03-24_13h37.33.680,empathy_intonation_perc,2020.2.10,Win32,60,,,,,,,,,,1,andalusian,1,1,1.53877,0,16,16,55,1,56,./stim/wavs/andalusian_mismatch_interrogative-partial-wh_Por-que-vivia-en-Paris.wav,./stim/wavs/argentine_mismatch_interrogative-partial-wh_Por-que-vivia-en-Paris.wav,./stim/wavs/castilian_mismatch_interrogative-partial-wh_Por-que-vivia-en-Paris.wav,./stim/wavs/chilean_mismatch_interrogative-partial-wh_Por-que-vivia-en-Paris.wav,./stim/wavs/cuban_mismatch_interrogative-partial-wh_Por-que-vivia-en-Paris.wav,./stim/wavs/mexican_mismatch_interrogative-partial-wh_Por-que-vivia-en-Paris.wav,./stim/wavs/peruvian_mismatch_interrogative-partial-wh_Por-que-vivia-en-Paris.wav,./stim/wavs/puertorican_mismatch_interrogative-partial-wh_Por-que-vivia-en-Paris.wav,,,,,,,,,,,,,,,,,,,,,,,,,,,,,,,,,,,,,,,,,,,,,,,,,,,,,,,,
,,,,,,,5f80bc44efa2c013099af460,605b45a4d25f287719a41696,605b86b904ba874e7f1ac081,Spain,Midwest,13 or older,no,2021-03-24_13h37.33.680,empathy_intonation_perc,2020.2.10,Win32,60,,,,,,,,,,0,argentine,0,1,2.21998,0,17,17,43,1,44,./stim/wavs/andalusian_mismatch_declarative-narrow-focus_La-maestra-vive-en-Paris.wav,./stim/wavs/argentine_mismatch_declarative-narrow-focus_La-maestra-vive-en-Paris.wav,./stim/wavs/castilian_mismatch_declarative-narrow-focus_La-maestra-vive-en-Paris.wav,./stim/wavs/chilean_mismatch_declarative-narrow-focus_La-maestra-vive-en-Paris.wav,./stim/wavs/cuban_mismatch_declarative-narrow-focus_La-maestra-vive-en-Paris.wav,./stim/wavs/mexican_mismatch_declarative-narrow-focus_La-maestra-vive-en-Paris.wav,./stim/wavs/peruvian_mismatch_declarative-narrow-focus_La-maestra-vive-en-Paris.wav,./stim/wavs/puertorican_mismatch_declarative-narrow-focus_La-maestra-vive-en-Paris.wav,,,,,,,,,,,,,,,,,,,,,,,,,,,,,,,,,,,,,,,,,,,,,,,,,,,,,,,,
,,,,,,,5f80bc44efa2c013099af460,605b45a4d25f287719a41696,605b86b904ba874e7f1ac081,Spain,Midwest,13 or older,no,2021-03-24_13h37.33.680,empathy_intonation_perc,2020.2.10,Win32,60,,,,,,,,,,1,cuban,0,0,1.90485,0,18,18,60,1,61,./stim/wavs/andalusian_mismatch_interrogative-total-yn_La-nina-lava-el-plato.wav,./stim/wavs/argentine_mismatch_interrogative-total-yn_La-nina-lava-el-plato.wav,./stim/wavs/castilian_mismatch_interrogative-total-yn_La-nina-lava-el-plato.wav,./stim/wavs/chilean_mismatch_interrogative-total-yn_La-nina-lava-el-plato.wav,./stim/wavs/cuban_mismatch_interrogative-total-yn_La-nina-lava-el-plato.wav,./stim/wavs/mexican_mismatch_interrogative-total-yn_La-nina-lava-el-plato.wav,./stim/wavs/peruvian_mismatch_interrogative-total-yn_La-nina-lava-el-plato.wav,./stim/wavs/puertorican_mismatch_interrogative-total-yn_La-nina-lava-el-plato.wav,,,,,,,,,,,,,,,,,,,,,,,,,,,,,,,,,,,,,,,,,,,,,,,,,,,,,,,,
,,,,,,,5f80bc44efa2c013099af460,605b45a4d25f287719a41696,605b86b904ba874e7f1ac081,Spain,Midwest,13 or older,no,2021-03-24_13h37.33.680,empathy_intonation_perc,2020.2.10,Win32,60,,,,,,,,,,1,cuban,0,0,1.70347,0,19,19,27,1,28,./stim/wavs/andalusian_match_interrogative-total-yn_Emilio-ama-la-marcha.wav,./stim/wavs/argentine_match_interrogative-total-yn_Emilio-ama-la-marcha.wav,./stim/wavs/castilian_match_interrogative-total-yn_Emilio-ama-la-marcha.wav,./stim/wavs/chilean_match_interrogative-total-yn_Emilio-ama-la-marcha.wav,./stim/wavs/cuban_match_interrogative-total-yn_Emilio-ama-la-marcha.wav,./stim/wavs/mexican_match_interrogative-total-yn_Emilio-ama-la-marcha.wav,./stim/wavs/peruvian_match_interrogative-total-yn_Emilio-ama-la-marcha.wav,./stim/wavs/puertorican_match_interrogative-total-yn_Emilio-ama-la-marcha.wav,,,,,,,,,,,,,,,,,,,,,,,,,,,,,,,,,,,,,,,,,,,,,,,,,,,,,,,,
,,,,,,,5f80bc44efa2c013099af460,605b45a4d25f287719a41696,605b86b904ba874e7f1ac081,Spain,Midwest,13 or older,no,2021-03-24_13h37.33.680,empathy_intonation_perc,2020.2.10,Win32,60,,,,,,,,,,0,mexican,0,1,2.030115,0,20,20,12,1,13,./stim/wavs/andalusian_match_declarative-narrow-focus_Manuela-vende-el-carro.wav,./stim/wavs/argentine_match_declarative-narrow-focus_Manuela-vende-el-carro.wav,./stim/wavs/castilian_match_declarative-narrow-focus_Manuela-vende-el-carro.wav,./stim/wavs/chilean_match_declarative-narrow-focus_Manuela-vende-el-carro.wav,./stim/wavs/cuban_match_declarative-narrow-focus_Manuela-vende-el-carro.wav,./stim/wavs/mexican_match_declarative-narrow-focus_Manuela-vende-el-carro.wav,./stim/wavs/peruvian_match_declarative-narrow-focus_Manuela-vende-el-carro.wav,./stim/wavs/puertorican_match_declarative-narrow-focus_Manuela-vende-el-carro.wav,,,,,,,,,,,,,,,,,,,,,,,,,,,,,,,,,,,,,,,,,,,,,,,,,,,,,,,,
,,,,,,,5f80bc44efa2c013099af460,605b45a4d25f287719a41696,605b86b904ba874e7f1ac081,Spain,Midwest,13 or older,no,2021-03-24_13h37.33.680,empathy_intonation_perc,2020.2.10,Win32,60,,,,,,,,,,0,cuban,0,1,2.05449,0,21,21,10,1,11,./stim/wavs/andalusian_match_declarative-narrow-focus_David-leia-el-libro.wav,./stim/wavs/argentine_match_declarative-narrow-focus_David-leia-el-libro.wav,./stim/wavs/castilian_match_declarative-narrow-focus_David-leia-el-libro.wav,./stim/wavs/chilean_match_declarative-narrow-focus_David-leia-el-libro.wav,./stim/wavs/cuban_match_declarative-narrow-focus_David-leia-el-libro.wav,./stim/wavs/mexican_match_declarative-narrow-focus_David-leia-el-libro.wav,./stim/wavs/peruvian_match_declarative-narrow-focus_David-leia-el-libro.wav,./stim/wavs/puertorican_match_declarative-narrow-focus_David-leia-el-libro.wav,,,,,,,,,,,,,,,,,,,,,,,,,,,,,,,,,,,,,,,,,,,,,,,,,,,,,,,,
,,,,,,,5f80bc44efa2c013099af460,605b45a4d25f287719a41696,605b86b904ba874e7f1ac081,Spain,Midwest,13 or older,no,2021-03-24_13h37.33.680,empathy_intonation_perc,2020.2.10,Win32,60,,,,,,,,,,1,chilean,1,1,1.82153,0,22,22,53,1,54,./stim/wavs/andalusian_mismatch_interrogative-partial-wh_Por-que-oia-el-rio.wav,./stim/wavs/argentine_mismatch_interrogative-partial-wh_Por-que-oia-el-rio.wav,./stim/wavs/castilian_mismatch_interrogative-partial-wh_Por-que-oia-el-rio.wav,./stim/wavs/chilean_mismatch_interrogative-partial-wh_Por-que-oia-el-rio.wav,./stim/wavs/cuban_mismatch_interrogative-partial-wh_Por-que-oia-el-rio.wav,./stim/wavs/mexican_mismatch_interrogative-partial-wh_Por-que-oia-el-rio.wav,./stim/wavs/peruvian_mismatch_interrogative-partial-wh_Por-que-oia-el-rio.wav,./stim/wavs/puertorican_mismatch_interrogative-partial-wh_Por-que-oia-el-rio.wav,,,,,,,,,,,,,,,,,,,,,,,,,,,,,,,,,,,,,,,,,,,,,,,,,,,,,,,,
,,,,,,,5f80bc44efa2c013099af460,605b45a4d25f287719a41696,605b86b904ba874e7f1ac081,Spain,Midwest,13 or older,no,2021-03-24_13h37.33.680,empathy_intonation_perc,2020.2.10,Win32,60,,,,,,,,,,0,chilean,0,1,1.88648,0,23,23,41,1,42,./stim/wavs/andalusian_mismatch_declarative-narrow-focus_El-hombre-mira-la-luna.wav,./stim/wavs/argentine_mismatch_declarative-narrow-focus_El-hombre-mira-la-luna.wav,./stim/wavs/castilian_mismatch_declarative-narrow-focus_El-hombre-mira-la-luna.wav,./stim/wavs/chilean_mismatch_declarative-narrow-focus_El-hombre-mira-la-luna.wav,./stim/wavs/cuban_mismatch_declarative-narrow-focus_El-hombre-mira-la-luna.wav,./stim/wavs/mexican_mismatch_declarative-narrow-focus_El-hombre-mira-la-luna.wav,./stim/wavs/peruvian_mismatch_declarative-narrow-focus_El-hombre-mira-la-luna.wav,./stim/wavs/puertorican_mismatch_declarative-narrow-focus_El-hombre-mira-la-luna.wav,,,,,,,,,,,,,,,,,,,,,,,,,,,,,,,,,,,,,,,,,,,,,,,,,,,,,,,,
,,,,,,,5f80bc44efa2c013099af460,605b45a4d25f287719a41696,605b86b904ba874e7f1ac081,Spain,Midwest,13 or older,no,2021-03-24_13h37.33.680,empathy_intonation_perc,2020.2.10,Win32,60,,,,,,,,,,0,peruvian,0,1,2.021985,0,24,24,14,1,15,./stim/wavs/andalusian_match_declarative-narrow-focus_Mariano-habla-del-tiempo.wav,./stim/wavs/argentine_match_declarative-narrow-focus_Mariano-habla-del-tiempo.wav,./stim/wavs/castilian_match_declarative-narrow-focus_Mariano-habla-del-tiempo.wav,./stim/wavs/chilean_match_declarative-narrow-focus_Mariano-habla-del-tiempo.wav,./stim/wavs/cuban_match_declarative-narrow-focus_Mariano-habla-del-tiempo.wav,./stim/wavs/mexican_match_declarative-narrow-focus_Mariano-habla-del-tiempo.wav,./stim/wavs/peruvian_match_declarative-narrow-focus_Mariano-habla-del-tiempo.wav,./stim/wavs/puertorican_match_declarative-narrow-focus_Mariano-habla-del-tiempo.wav,,,,,,,,,,,,,,,,,,,,,,,,,,,,,,,,,,,,,,,,,,,,,,,,,,,,,,,,
,,,,,,,5f80bc44efa2c013099af460,605b45a4d25f287719a41696,605b86b904ba874e7f1ac081,Spain,Midwest,13 or older,no,2021-03-24_13h37.33.680,empathy_intonation_perc,2020.2.10,Win32,60,,,,,,,,,,1,castilian,1,1,2.051335,0,25,25,26,1,27,./stim/wavs/andalusian_match_interrogative-total-yn_David-leia-el-libro.wav,./stim/wavs/argentine_match_interrogative-total-yn_David-leia-el-libro.wav,./stim/wavs/castilian_match_interrogative-total-yn_David-leia-el-libro.wav,./stim/wavs/chilean_match_interrogative-total-yn_David-leia-el-libro.wav,./stim/wavs/cuban_match_interrogative-total-yn_David-leia-el-libro.wav,./stim/wavs/mexican_match_interrogative-total-yn_David-leia-el-libro.wav,./stim/wavs/peruvian_match_interrogative-total-yn_David-leia-el-libro.wav,./stim/wavs/puertorican_match_interrogative-total-yn_David-leia-el-libro.wav,,,,,,,,,,,,,,,,,,,,,,,,,,,,,,,,,,,,,,,,,,,,,,,,,,,,,,,,
,,,,,,,5f80bc44efa2c013099af460,605b45a4d25f287719a41696,605b86b904ba874e7f1ac081,Spain,Midwest,13 or older,no,2021-03-24_13h37.33.680,empathy_intonation_perc,2020.2.10,Win32,60,,,,,,,,,,1,cuban,0,0,1.80184,0,26,26,28,1,29,./stim/wavs/andalusian_match_interrogative-total-yn_Manuela-vende-el-carro.wav,./stim/wavs/argentine_match_interrogative-total-yn_Manuela-vende-el-carro.wav,./stim/wavs/castilian_match_interrogative-total-yn_Manuela-vende-el-carro.wav,./stim/wavs/chilean_match_interrogative-total-yn_Manuela-vende-el-carro.wav,./stim/wavs/cuban_match_interrogative-total-yn_Manuela-vende-el-carro.wav,./stim/wavs/mexican_match_interrogative-total-yn_Manuela-vende-el-carro.wav,./stim/wavs/peruvian_match_interrogative-total-yn_Manuela-vende-el-carro.wav,./stim/wavs/puertorican_match_interrogative-total-yn_Manuela-vende-el-carro.wav,,,,,,,,,,,,,,,,,,,,,,,,,,,,,,,,,,,,,,,,,,,,,,,,,,,,,,,,
,,,,,,,5f80bc44efa2c013099af460,605b45a4d25f287719a41696,605b86b904ba874e7f1ac081,Spain,Midwest,13 or older,no,2021-03-24_13h37.33.680,empathy_intonation_perc,2020.2.10,Win32,60,,,,,,,,,,1,andalusian,1,1,2.230235,0,27,27,59,1,60,./stim/wavs/andalusian_mismatch_interrogative-total-yn_La-maestra-vive-en-Paris.wav,./stim/wavs/argentine_mismatch_interrogative-total-yn_La-maestra-vive-en-Paris.wav,./stim/wavs/castilian_mismatch_interrogative-total-yn_La-maestra-vive-en-Paris.wav,./stim/wavs/chilean_mismatch_interrogative-total-yn_La-maestra-vive-en-Paris.wav,./stim/wavs/cuban_mismatch_interrogative-total-yn_La-maestra-vive-en-Paris.wav,./stim/wavs/mexican_mismatch_interrogative-total-yn_La-maestra-vive-en-Paris.wav,./stim/wavs/peruvian_mismatch_interrogative-total-yn_La-maestra-vive-en-Paris.wav,./stim/wavs/puertorican_mismatch_interrogative-total-yn_La-maestra-vive-en-Paris.wav,,,,,,,,,,,,,,,,,,,,,,,,,,,,,,,,,,,,,,,,,,,,,,,,,,,,,,,,
,,,,,,,5f80bc44efa2c013099af460,605b45a4d25f287719a41696,605b86b904ba874e7f1ac081,Spain,Midwest,13 or older,no,2021-03-24_13h37.33.680,empathy_intonation_perc,2020.2.10,Win32,60,,,,,,,,,,1,puertorican,1,1,4.07175,0,28,28,52,1,53,./stim/wavs/andalusian_mismatch_interrogative-partial-wh_Por-que-odiaba-la-lluvia.wav,./stim/wavs/argentine_mismatch_interrogative-partial-wh_Por-que-odiaba-la-lluvia.wav,./stim/wavs/castilian_mismatch_interrogative-partial-wh_Por-que-odiaba-la-lluvia.wav,./stim/wavs/chilean_mismatch_interrogative-partial-wh_Por-que-odiaba-la-lluvia.wav,./stim/wavs/cuban_mismatch_interrogative-partial-wh_Por-que-odiaba-la-lluvia.wav,./stim/wavs/mexican_mismatch_interrogative-partial-wh_Por-que-odiaba-la-lluvia.wav,./stim/wavs/peruvian_mismatch_interrogative-partial-wh_Por-que-odiaba-la-lluvia.wav,./stim/wavs/puertorican_mismatch_interrogative-partial-wh_Por-que-odiaba-la-lluvia.wav,,,,,,,,,,,,,,,,,,,,,,,,,,,,,,,,,,,,,,,,,,,,,,,,,,,,,,,,
,,,,,,,5f80bc44efa2c013099af460,605b45a4d25f287719a41696,605b86b904ba874e7f1ac081,Spain,Midwest,13 or older,no,2021-03-24_13h37.33.680,empathy_intonation_perc,2020.2.10,Win32,60,,,,,,,,,,0,mexican,0,1,3.78781,0,29,29,47,1,48,./stim/wavs/andalusian_mismatch_declarative-narrow-focus_Mi-tia-odia-la-lluvia.wav,./stim/wavs/argentine_mismatch_declarative-narrow-focus_Mi-tia-odia-la-lluvia.wav,./stim/wavs/castilian_mismatch_declarative-narrow-focus_Mi-tia-odia-la-lluvia.wav,./stim/wavs/chilean_mismatch_declarative-narrow-focus_Mi-tia-odia-la-lluvia.wav,./stim/wavs/cuban_mismatch_declarative-narrow-focus_Mi-tia-odia-la-lluvia.wav,./stim/wavs/mexican_mismatch_declarative-narrow-focus_Mi-tia-odia-la-lluvia.wav,./stim/wavs/peruvian_mismatch_declarative-narrow-focus_Mi-tia-odia-la-lluvia.wav,./stim/wavs/puertorican_mismatch_declarative-narrow-focus_Mi-tia-odia-la-lluvia.wav,,,,,,,,,,,,,,,,,,,,,,,,,,,,,,,,,,,,,,,,,,,,,,,,,,,,,,,,
,,,,,,,5f80bc44efa2c013099af460,605b45a4d25f287719a41696,605b86b904ba874e7f1ac081,Spain,Midwest,13 or older,no,2021-03-24_13h37.33.680,empathy_intonation_perc,2020.2.10,Win32,60,,,,,,,,,,1,mexican,1,1,1.734945,0,30,30,18,1,19,./stim/wavs/andalusian_match_interrogative-partial-wh_Cuando-lleva-el-abrigo.wav,./stim/wavs/argentine_match_interrogative-partial-wh_Cuando-lleva-el-abrigo.wav,./stim/wavs/castilian_match_interrogative-partial-wh_Cuando-lleva-el-abrigo.wav,./stim/wavs/chilean_match_interrogative-partial-wh_Cuando-lleva-el-abrigo.wav,./stim/wavs/cuban_match_interrogative-partial-wh_Cuando-lleva-el-abrigo.wav,./stim/wavs/mexican_match_interrogative-partial-wh_Cuando-lleva-el-abrigo.wav,./stim/wavs/peruvian_match_interrogative-partial-wh_Cuando-lleva-el-abrigo.wav,./stim/wavs/puertorican_match_interrogative-partial-wh_Cuando-lleva-el-abrigo.wav,,,,,,,,,,,,,,,,,,,,,,,,,,,,,,,,,,,,,,,,,,,,,,,,,,,,,,,,
,,,,,,,5f80bc44efa2c013099af460,605b45a4d25f287719a41696,605b86b904ba874e7f1ac081,Spain,Midwest,13 or older,no,2021-03-24_13h37.33.680,empathy_intonation_perc,2020.2.10,Win32,60,,,,,,,,,,0,argentine,0,1,1.470935,0,31,31,5,1,6,./stim/wavs/andalusian_match_declarative-broad-focus_Maria-bebe-el-vino.wav,./stim/wavs/argentine_match_declarative-broad-focus_Maria-bebe-el-vino.wav,./stim/wavs/castilian_match_declarative-broad-focus_Maria-bebe-el-vino.wav,./stim/wavs/chilean_match_declarative-broad-focus_Maria-bebe-el-vino.wav,./stim/wavs/cuban_match_declarative-broad-focus_Maria-bebe-el-vino.wav,./stim/wavs/mexican_match_declarative-broad-focus_Maria-bebe-el-vino.wav,./stim/wavs/peruvian_match_declarative-broad-focus_Maria-bebe-el-vino.wav,./stim/wavs/puertorican_match_declarative-broad-focus_Maria-bebe-el-vino.wav,,,,,,,,,,,,,,,,,,,,,,,,,,,,,,,,,,,,,,,,,,,,,,,,,,,,,,,,
,,,,,,,5f80bc44efa2c013099af460,605b45a4d25f287719a41696,605b86b904ba874e7f1ac081,Spain,Midwest,13 or older,no,2021-03-24_13h37.33.680,empathy_intonation_perc,2020.2.10,Win32,60,,,,,,,,,,1,castilian,1,1,3.44762,0,32,32,62,1,63,./stim/wavs/andalusian_mismatch_interrogative-total-yn_Mi-novio-viene-del-lago.wav,./stim/wavs/argentine_mismatch_interrogative-total-yn_Mi-novio-viene-del-lago.wav,./stim/wavs/castilian_mismatch_interrogative-total-yn_Mi-novio-viene-del-lago.wav,./stim/wavs/chilean_mismatch_interrogative-total-yn_Mi-novio-viene-del-lago.wav,./stim/wavs/cuban_mismatch_interrogative-total-yn_Mi-novio-viene-del-lago.wav,./stim/wavs/mexican_mismatch_interrogative-total-yn_Mi-novio-viene-del-lago.wav,./stim/wavs/peruvian_mismatch_interrogative-total-yn_Mi-novio-viene-del-lago.wav,./stim/wavs/puertorican_mismatch_interrogative-total-yn_Mi-novio-viene-del-lago.wav,,,,,,,,,,,,,,,,,,,,,,,,,,,,,,,,,,,,,,,,,,,,,,,,,,,,,,,,
,,,,,,,5f80bc44efa2c013099af460,605b45a4d25f287719a41696,605b86b904ba874e7f1ac081,Spain,Midwest,13 or older,no,2021-03-24_13h37.33.680,empathy_intonation_perc,2020.2.10,Win32,60,,,,,,,,,,1,cuban,0,0,2.38563,0,33,33,51,1,52,./stim/wavs/andalusian_mismatch_interrogative-partial-wh_Por-que-desayuna-muy-bien.wav,./stim/wavs/argentine_mismatch_interrogative-partial-wh_Por-que-desayuna-muy-bien.wav,./stim/wavs/castilian_mismatch_interrogative-partial-wh_Por-que-desayuna-muy-bien.wav,./stim/wavs/chilean_mismatch_interrogative-partial-wh_Por-que-desayuna-muy-bien.wav,./stim/wavs/cuban_mismatch_interrogative-partial-wh_Por-que-desayuna-muy-bien.wav,./stim/wavs/mexican_mismatch_interrogative-partial-wh_Por-que-desayuna-muy-bien.wav,./stim/wavs/peruvian_mismatch_interrogative-partial-wh_Por-que-desayuna-muy-bien.wav,./stim/wavs/puertorican_mismatch_interrogative-partial-wh_Por-que-desayuna-muy-bien.wav,,,,,,,,,,,,,,,,,,,,,,,,,,,,,,,,,,,,,,,,,,,,,,,,,,,,,,,,
,,,,,,,5f80bc44efa2c013099af460,605b45a4d25f287719a41696,605b86b904ba874e7f1ac081,Spain,Midwest,13 or older,no,2021-03-24_13h37.33.680,empathy_intonation_perc,2020.2.10,Win32,60,,,,,,,,,,1,andalusian,0,0,2.67535,0,34,34,30,1,31,./stim/wavs/andalusian_match_interrogative-total-yn_Mariano-habla-del-tiempo.wav,./stim/wavs/argentine_match_interrogative-total-yn_Mariano-habla-del-tiempo.wav,./stim/wavs/castilian_match_interrogative-total-yn_Mariano-habla-del-tiempo.wav,./stim/wavs/chilean_match_interrogative-total-yn_Mariano-habla-del-tiempo.wav,./stim/wavs/cuban_match_interrogative-total-yn_Mariano-habla-del-tiempo.wav,./stim/wavs/mexican_match_interrogative-total-yn_Mariano-habla-del-tiempo.wav,./stim/wavs/peruvian_match_interrogative-total-yn_Mariano-habla-del-tiempo.wav,./stim/wavs/puertorican_match_interrogative-total-yn_Mariano-habla-del-tiempo.wav,,,,,,,,,,,,,,,,,,,,,,,,,,,,,,,,,,,,,,,,,,,,,,,,,,,,,,,,
,,,,,,,5f80bc44efa2c013099af460,605b45a4d25f287719a41696,605b86b904ba874e7f1ac081,Spain,Midwest,13 or older,no,2021-03-24_13h37.33.680,empathy_intonation_perc,2020.2.10,Win32,60,,,,,,,,,,0,peruvian,0,1,2.48577,0,35,35,3,1,4,./stim/wavs/andalusian_match_declarative-broad-focus_Emilio-ama-la-marcha.wav,./stim/wavs/argentine_match_declarative-broad-focus_Emilio-ama-la-marcha.wav,./stim/wavs/castilian_match_declarative-broad-focus_Emilio-ama-la-marcha.wav,./stim/wavs/chilean_match_declarative-broad-focus_Emilio-ama-la-marcha.wav,./stim/wavs/cuban_match_declarative-broad-focus_Emilio-ama-la-marcha.wav,./stim/wavs/mexican_match_declarative-broad-focus_Emilio-ama-la-marcha.wav,./stim/wavs/peruvian_match_declarative-broad-focus_Emilio-ama-la-marcha.wav,./stim/wavs/puertorican_match_declarative-broad-focus_Emilio-ama-la-marcha.wav,,,,,,,,,,,,,,,,,,,,,,,,,,,,,,,,,,,,,,,,,,,,,,,,,,,,,,,,
,,,,,,,5f80bc44efa2c013099af460,605b45a4d25f287719a41696,605b86b904ba874e7f1ac081,Spain,Midwest,13 or older,no,2021-03-24_13h37.33.680,empathy_intonation_perc,2020.2.10,Win32,60,,,,,,,,,,0,puertorican,0,1,1.72215,0,36,36,2,1,3,./stim/wavs/andalusian_match_declarative-broad-focus_David-leia-el-libro.wav,./stim/wavs/argentine_match_declarative-broad-focus_David-leia-el-libro.wav,./stim/wavs/castilian_match_declarative-broad-focus_David-leia-el-libro.wav,./stim/wavs/chilean_match_declarative-broad-focus_David-leia-el-libro.wav,./stim/wavs/cuban_match_declarative-broad-focus_David-leia-el-libro.wav,./stim/wavs/mexican_match_declarative-broad-focus_David-leia-el-libro.wav,./stim/wavs/peruvian_match_declarative-broad-focus_David-leia-el-libro.wav,./stim/wavs/puertorican_match_declarative-broad-focus_David-leia-el-libro.wav,,,,,,,,,,,,,,,,,,,,,,,,,,,,,,,,,,,,,,,,,,,,,,,,,,,,,,,,
,,,,,,,5f80bc44efa2c013099af460,605b45a4d25f287719a41696,605b86b904ba874e7f1ac081,Spain,Midwest,13 or older,no,2021-03-24_13h37.33.680,empathy_intonation_perc,2020.2.10,Win32,60,,,,,,,,,,1,mexican,1,1,1.50332,0,37,37,50,1,51,./stim/wavs/andalusian_mismatch_interrogative-partial-wh_Cuando-miraba-la-luna.wav,./stim/wavs/argentine_mismatch_interrogative-partial-wh_Cuando-miraba-la-luna.wav,./stim/wavs/castilian_mismatch_interrogative-partial-wh_Cuando-miraba-la-luna.wav,./stim/wavs/chilean_mismatch_interrogative-partial-wh_Cuando-miraba-la-luna.wav,./stim/wavs/cuban_mismatch_interrogative-partial-wh_Cuando-miraba-la-luna.wav,./stim/wavs/mexican_mismatch_interrogative-partial-wh_Cuando-miraba-la-luna.wav,./stim/wavs/peruvian_mismatch_interrogative-partial-wh_Cuando-miraba-la-luna.wav,./stim/wavs/puertorican_mismatch_interrogative-partial-wh_Cuando-miraba-la-luna.wav,,,,,,,,,,,,,,,,,,,,,,,,,,,,,,,,,,,,,,,,,,,,,,,,,,,,,,,,
,,,,,,,5f80bc44efa2c013099af460,605b45a4d25f287719a41696,605b86b904ba874e7f1ac081,Spain,Midwest,13 or older,no,2021-03-24_13h37.33.680,empathy_intonation_perc,2020.2.10,Win32,60,,,,,,,,,,0,mexican,0,1,1.92613,0,38,38,44,1,45,./stim/wavs/andalusian_mismatch_declarative-narrow-focus_La-nina-lava-el-plato.wav,./stim/wavs/argentine_mismatch_declarative-narrow-focus_La-nina-lava-el-plato.wav,./stim/wavs/castilian_mismatch_declarative-narrow-focus_La-nina-lava-el-plato.wav,./stim/wavs/chilean_mismatch_declarative-narrow-focus_La-nina-lava-el-plato.wav,./stim/wavs/cuban_mismatch_declarative-narrow-focus_La-nina-lava-el-plato.wav,./stim/wavs/mexican_mismatch_declarative-narrow-focus_La-nina-lava-el-plato.wav,./stim/wavs/peruvian_mismatch_declarative-narrow-focus_La-nina-lava-el-plato.wav,./stim/wavs/puertorican_mismatch_declarative-narrow-focus_La-nina-lava-el-plato.wav,,,,,,,,,,,,,,,,,,,,,,,,,,,,,,,,,,,,,,,,,,,,,,,,,,,,,,,,
,,,,,,,5f80bc44efa2c013099af460,605b45a4d25f287719a41696,605b86b904ba874e7f1ac081,Spain,Midwest,13 or older,no,2021-03-24_13h37.33.680,empathy_intonation_perc,2020.2.10,Win32,60,,,,,,,,,,0,peruvian,0,1,1.707405,0,39,39,8,1,9,./stim/wavs/andalusian_match_declarative-narrow-focus_Ana-lleva-el-abrigo.wav,./stim/wavs/argentine_match_declarative-narrow-focus_Ana-lleva-el-abrigo.wav,./stim/wavs/castilian_match_declarative-narrow-focus_Ana-lleva-el-abrigo.wav,./stim/wavs/chilean_match_declarative-narrow-focus_Ana-lleva-el-abrigo.wav,./stim/wavs/cuban_match_declarative-narrow-focus_Ana-lleva-el-abrigo.wav,./stim/wavs/mexican_match_declarative-narrow-focus_Ana-lleva-el-abrigo.wav,./stim/wavs/peruvian_match_declarative-narrow-focus_Ana-lleva-el-abrigo.wav,./stim/wavs/puertorican_match_declarative-narrow-focus_Ana-lleva-el-abrigo.wav,,,,,,,,,,,,,,,,,,,,,,,,,,,,,,,,,,,,,,,,,,,,,,,,,,,,,,,,
,,,,,,,5f80bc44efa2c013099af460,605b45a4d25f287719a41696,605b86b904ba874e7f1ac081,Spain,Midwest,13 or older,no,2021-03-24_13h37.33.680,empathy_intonation_perc,2020.2.10,Win32,60,,,,,,,,,,1,andalusian,1,1,1.920315,0,40,40,16,1,17,./stim/wavs/andalusian_match_interrogative-partial-wh_Cuando-bebia-el-vino.wav,./stim/wavs/argentine_match_interrogative-partial-wh_Cuando-bebia-el-vino.wav,./stim/wavs/castilian_match_interrogative-partial-wh_Cuando-bebia-el-vino.wav,./stim/wavs/chilean_match_interrogative-partial-wh_Cuando-bebia-el-vino.wav,./stim/wavs/cuban_match_interrogative-partial-wh_Cuando-bebia-el-vino.wav,./stim/wavs/mexican_match_interrogative-partial-wh_Cuando-bebia-el-vino.wav,./stim/wavs/peruvian_match_interrogative-partial-wh_Cuando-bebia-el-vino.wav,./stim/wavs/puertorican_match_interrogative-partial-wh_Cuando-bebia-el-vino.wav,,,,,,,,,,,,,,,,,,,,,,,,,,,,,,,,,,,,,,,,,,,,,,,,,,,,,,,,
,,,,,,,5f80bc44efa2c013099af460,605b45a4d25f287719a41696,605b86b904ba874e7f1ac081,Spain,Midwest,13 or older,no,2021-03-24_13h37.33.680,empathy_intonation_perc,2020.2.10,Win32,60,,,,,,,,,,1,castilian,1,1,1.72819,0,41,41,17,1,18,./stim/wavs/andalusian_match_interrogative-partial-wh_Cuando-leia-el-libro.wav,./stim/wavs/argentine_match_interrogative-partial-wh_Cuando-leia-el-libro.wav,./stim/wavs/castilian_match_interrogative-partial-wh_Cuando-leia-el-libro.wav,./stim/wavs/chilean_match_interrogative-partial-wh_Cuando-leia-el-libro.wav,./stim/wavs/cuban_match_interrogative-partial-wh_Cuando-leia-el-libro.wav,./stim/wavs/mexican_match_interrogative-partial-wh_Cuando-leia-el-libro.wav,./stim/wavs/peruvian_match_interrogative-partial-wh_Cuando-leia-el-libro.wav,./stim/wavs/puertorican_match_interrogative-partial-wh_Cuando-leia-el-libro.wav,,,,,,,,,,,,,,,,,,,,,,,,,,,,,,,,,,,,,,,,,,,,,,,,,,,,,,,,
,,,,,,,5f80bc44efa2c013099af460,605b45a4d25f287719a41696,605b86b904ba874e7f1ac081,Spain,Midwest,13 or older,no,2021-03-24_13h37.33.680,empathy_intonation_perc,2020.2.10,Win32,60,,,,,,,,,,1,mexican,0,0,2.20217,0,42,42,21,1,22,./stim/wavs/andalusian_match_interrogative-partial-wh_Por-que-ama-la-navidad.wav,./stim/wavs/argentine_match_interrogative-partial-wh_Por-que-ama-la-navidad.wav,./stim/wavs/castilian_match_interrogative-partial-wh_Por-que-ama-la-navidad.wav,./stim/wavs/chilean_match_interrogative-partial-wh_Por-que-ama-la-navidad.wav,./stim/wavs/cuban_match_interrogative-partial-wh_Por-que-ama-la-navidad.wav,./stim/wavs/mexican_match_interrogative-partial-wh_Por-que-ama-la-navidad.wav,./stim/wavs/peruvian_match_interrogative-partial-wh_Por-que-ama-la-navidad.wav,./stim/wavs/puertorican_match_interrogative-partial-wh_Por-que-ama-la-navidad.wav,,,,,,,,,,,,,,,,,,,,,,,,,,,,,,,,,,,,,,,,,,,,,,,,,,,,,,,,
,,,,,,,5f80bc44efa2c013099af460,605b45a4d25f287719a41696,605b86b904ba874e7f1ac081,Spain,Midwest,13 or older,no,2021-03-24_13h37.33.680,empathy_intonation_perc,2020.2.10,Win32,60,,,,,,,,,,0,chilean,0,1,2.01825,0,43,43,34,1,35,./stim/wavs/andalusian_mismatch_declarative-broad-focus_El-nino-oye-el-rio.wav,./stim/wavs/argentine_mismatch_declarative-broad-focus_El-nino-oye-el-rio.wav,./stim/wavs/castilian_mismatch_declarative-broad-focus_El-nino-oye-el-rio.wav,./stim/wavs/chilean_mismatch_declarative-broad-focus_El-nino-oye-el-rio.wav,./stim/wavs/cuban_mismatch_declarative-broad-focus_El-nino-oye-el-rio.wav,./stim/wavs/mexican_mismatch_declarative-broad-focus_El-nino-oye-el-rio.wav,./stim/wavs/peruvian_mismatch_declarative-broad-focus_El-nino-oye-el-rio.wav,./stim/wavs/puertorican_mismatch_declarative-broad-focus_El-nino-oye-el-rio.wav,,,,,,,,,,,,,,,,,,,,,,,,,,,,,,,,,,,,,,,,,,,,,,,,,,,,,,,,
,,,,,,,5f80bc44efa2c013099af460,605b45a4d25f287719a41696,605b86b904ba874e7f1ac081,Spain,Midwest,13 or older,no,2021-03-24_13h37.33.680,empathy_intonation_perc,2020.2.10,Win32,60,,,,,,,,,,0,castilian,0,1,2.13572,0,44,44,9,1,10,./stim/wavs/andalusian_match_declarative-narrow-focus_Daniel-iba-a-Bolivia.wav,./stim/wavs/argentine_match_declarative-narrow-focus_Daniel-iba-a-Bolivia.wav,./stim/wavs/castilian_match_declarative-narrow-focus_Daniel-iba-a-Bolivia.wav,./stim/wavs/chilean_match_declarative-narrow-focus_Daniel-iba-a-Bolivia.wav,./stim/wavs/cuban_match_declarative-narrow-focus_Daniel-iba-a-Bolivia.wav,./stim/wavs/mexican_match_declarative-narrow-focus_Daniel-iba-a-Bolivia.wav,./stim/wavs/peruvian_match_declarative-narrow-focus_Daniel-iba-a-Bolivia.wav,./stim/wavs/puertorican_match_declarative-narrow-focus_Daniel-iba-a-Bolivia.wav,,,,,,,,,,,,,,,,,,,,,,,,,,,,,,,,,,,,,,,,,,,,,,,,,,,,,,,,
,,,,,,,5f80bc44efa2c013099af460,605b45a4d25f287719a41696,605b86b904ba874e7f1ac081,Spain,Midwest,13 or older,no,2021-03-24_13h37.33.680,empathy_intonation_perc,2020.2.10,Win32,60,,,,,,,,,,0,mexican,0,1,1.717245,0,45,45,42,1,43,./stim/wavs/andalusian_mismatch_declarative-narrow-focus_El-nino-oye-el-rio.wav,./stim/wavs/argentine_mismatch_declarative-narrow-focus_El-nino-oye-el-rio.wav,./stim/wavs/castilian_mismatch_declarative-narrow-focus_El-nino-oye-el-rio.wav,./stim/wavs/chilean_mismatch_declarative-narrow-focus_El-nino-oye-el-rio.wav,./stim/wavs/cuban_mismatch_declarative-narrow-focus_El-nino-oye-el-rio.wav,./stim/wavs/mexican_mismatch_declarative-narrow-focus_El-nino-oye-el-rio.wav,./stim/wavs/peruvian_mismatch_declarative-narrow-focus_El-nino-oye-el-rio.wav,./stim/wavs/puertorican_mismatch_declarative-narrow-focus_El-nino-oye-el-rio.wav,,,,,,,,,,,,,,,,,,,,,,,,,,,,,,,,,,,,,,,,,,,,,,,,,,,,,,,,
,,,,,,,5f80bc44efa2c013099af460,605b45a4d25f287719a41696,605b86b904ba874e7f1ac081,Spain,Midwest,13 or older,no,2021-03-24_13h37.33.680,empathy_intonation_perc,2020.2.10,Win32,60,,,,,,,,,,0,andalusian,0,1,2.342245,0,46,46,40,1,41,./stim/wavs/andalusian_mismatch_declarative-narrow-focus_El-bebe-comia-muy-bien.wav,./stim/wavs/argentine_mismatch_declarative-narrow-focus_El-bebe-comia-muy-bien.wav,./stim/wavs/castilian_mismatch_declarative-narrow-focus_El-bebe-comia-muy-bien.wav,./stim/wavs/chilean_mismatch_declarative-narrow-focus_El-bebe-comia-muy-bien.wav,./stim/wavs/cuban_mismatch_declarative-narrow-focus_El-bebe-comia-muy-bien.wav,./stim/wavs/mexican_mismatch_declarative-narrow-focus_El-bebe-comia-muy-bien.wav,./stim/wavs/peruvian_mismatch_declarative-narrow-focus_El-bebe-comia-muy-bien.wav,./stim/wavs/puertorican_mismatch_declarative-narrow-focus_El-bebe-comia-muy-bien.wav,,,,,,,,,,,,,,,,,,,,,,,,,,,,,,,,,,,,,,,,,,,,,,,,,,,,,,,,
,,,,,,,5f80bc44efa2c013099af460,605b45a4d25f287719a41696,605b86b904ba874e7f1ac081,Spain,Midwest,13 or older,no,2021-03-24_13h37.33.680,empathy_intonation_perc,2020.2.10,Win32,60,,,,,,,,,,1,andalusian,1,1,1.61119,0,47,47,54,1,55,./stim/wavs/andalusian_mismatch_interrogative-partial-wh_Por-que-venia-del-lago.wav,./stim/wavs/argentine_mismatch_interrogative-partial-wh_Por-que-venia-del-lago.wav,./stim/wavs/castilian_mismatch_interrogative-partial-wh_Por-que-venia-del-lago.wav,./stim/wavs/chilean_mismatch_interrogative-partial-wh_Por-que-venia-del-lago.wav,./stim/wavs/cuban_mismatch_interrogative-partial-wh_Por-que-venia-del-lago.wav,./stim/wavs/mexican_mismatch_interrogative-partial-wh_Por-que-venia-del-lago.wav,./stim/wavs/peruvian_mismatch_interrogative-partial-wh_Por-que-venia-del-lago.wav,./stim/wavs/puertorican_mismatch_interrogative-partial-wh_Por-que-venia-del-lago.wav,,,,,,,,,,,,,,,,,,,,,,,,,,,,,,,,,,,,,,,,,,,,,,,,,,,,,,,,
,,,,,,,5f80bc44efa2c013099af460,605b45a4d25f287719a41696,605b86b904ba874e7f1ac081,Spain,Midwest,13 or older,no,2021-03-24_13h37.33.680,empathy_intonation_perc,2020.2.10,Win32,60,,,,,,,,,,1,chilean,1,1,1.518535,0,48,48,49,1,50,./stim/wavs/andalusian_mismatch_interrogative-partial-wh_Cuando-lavaba-el-plato.wav,./stim/wavs/argentine_mismatch_interrogative-partial-wh_Cuando-lavaba-el-plato.wav,./stim/wavs/castilian_mismatch_interrogative-partial-wh_Cuando-lavaba-el-plato.wav,./stim/wavs/chilean_mismatch_interrogative-partial-wh_Cuando-lavaba-el-plato.wav,./stim/wavs/cuban_mismatch_interrogative-partial-wh_Cuando-lavaba-el-plato.wav,./stim/wavs/mexican_mismatch_interrogative-partial-wh_Cuando-lavaba-el-plato.wav,./stim/wavs/peruvian_mismatch_interrogative-partial-wh_Cuando-lavaba-el-plato.wav,./stim/wavs/puertorican_mismatch_interrogative-partial-wh_Cuando-lavaba-el-plato.wav,,,,,,,,,,,,,,,,,,,,,,,,,,,,,,,,,,,,,,,,,,,,,,,,,,,,,,,,
,,,,,,,5f80bc44efa2c013099af460,605b45a4d25f287719a41696,605b86b904ba874e7f1ac081,Spain,Midwest,13 or older,no,2021-03-24_13h37.33.680,empathy_intonation_perc,2020.2.10,Win32,60,,,,,,,,,,0,castilian,0,1,1.720075,0,49,49,46,1,47,./stim/wavs/andalusian_mismatch_declarative-narrow-focus_Mi-novio-viene-del-lago.wav,./stim/wavs/argentine_mismatch_declarative-narrow-focus_Mi-novio-viene-del-lago.wav,./stim/wavs/castilian_mismatch_declarative-narrow-focus_Mi-novio-viene-del-lago.wav,./stim/wavs/chilean_mismatch_declarative-narrow-focus_Mi-novio-viene-del-lago.wav,./stim/wavs/cuban_mismatch_declarative-narrow-focus_Mi-novio-viene-del-lago.wav,./stim/wavs/mexican_mismatch_declarative-narrow-focus_Mi-novio-viene-del-lago.wav,./stim/wavs/peruvian_mismatch_declarative-narrow-focus_Mi-novio-viene-del-lago.wav,./stim/wavs/puertorican_mismatch_declarative-narrow-focus_Mi-novio-viene-del-lago.wav,,,,,,,,,,,,,,,,,,,,,,,,,,,,,,,,,,,,,,,,,,,,,,,,,,,,,,,,
,,,,,,,5f80bc44efa2c013099af460,605b45a4d25f287719a41696,605b86b904ba874e7f1ac081,Spain,Midwest,13 or older,no,2021-03-24_13h37.33.680,empathy_intonation_perc,2020.2.10,Win32,60,,,,,,,,,,0,peruvian,0,1,1.852675,0,50,50,36,1,37,./stim/wavs/andalusian_mismatch_declarative-broad-focus_La-nina-lava-el-plato.wav,./stim/wavs/argentine_mismatch_declarative-broad-focus_La-nina-lava-el-plato.wav,./stim/wavs/castilian_mismatch_declarative-broad-focus_La-nina-lava-el-plato.wav,./stim/wavs/chilean_mismatch_declarative-broad-focus_La-nina-lava-el-plato.wav,./stim/wavs/cuban_mismatch_declarative-broad-focus_La-nina-lava-el-plato.wav,./stim/wavs/mexican_mismatch_declarative-broad-focus_La-nina-lava-el-plato.wav,./stim/wavs/peruvian_mismatch_declarative-broad-focus_La-nina-lava-el-plato.wav,./stim/wavs/puertorican_mismatch_declarative-broad-focus_La-nina-lava-el-plato.wav,,,,,,,,,,,,,,,,,,,,,,,,,,,,,,,,,,,,,,,,,,,,,,,,,,,,,,,,
,,,,,,,5f80bc44efa2c013099af460,605b45a4d25f287719a41696,605b86b904ba874e7f1ac081,Spain,Midwest,13 or older,no,2021-03-24_13h37.33.680,empathy_intonation_perc,2020.2.10,Win32,60,,,,,,,,,,0,castilian,0,1,3.057995,0,51,51,32,1,33,./stim/wavs/andalusian_mismatch_declarative-broad-focus_El-bebe-comia-muy-bien.wav,./stim/wavs/argentine_mismatch_declarative-broad-focus_El-bebe-comia-muy-bien.wav,./stim/wavs/castilian_mismatch_declarative-broad-focus_El-bebe-comia-muy-bien.wav,./stim/wavs/chilean_mismatch_declarative-broad-focus_El-bebe-comia-muy-bien.wav,./stim/wavs/cuban_mismatch_declarative-broad-focus_El-bebe-comia-muy-bien.wav,./stim/wavs/mexican_mismatch_declarative-broad-focus_El-bebe-comia-muy-bien.wav,./stim/wavs/peruvian_mismatch_declarative-broad-focus_El-bebe-comia-muy-bien.wav,./stim/wavs/puertorican_mismatch_declarative-broad-focus_El-bebe-comia-muy-bien.wav,,,,,,,,,,,,,,,,,,,,,,,,,,,,,,,,,,,,,,,,,,,,,,,,,,,,,,,,
,,,,,,,5f80bc44efa2c013099af460,605b45a4d25f287719a41696,605b86b904ba874e7f1ac081,Spain,Midwest,13 or older,no,2021-03-24_13h37.33.680,empathy_intonation_perc,2020.2.10,Win32,60,,,,,,,,,,1,chilean,1,1,1.74554,0,52,52,22,1,23,./stim/wavs/andalusian_match_interrogative-partial-wh_Por-que-hablaba-del-agua.wav,./stim/wavs/argentine_match_interrogative-partial-wh_Por-que-hablaba-del-agua.wav,./stim/wavs/castilian_match_interrogative-partial-wh_Por-que-hablaba-del-agua.wav,./stim/wavs/chilean_match_interrogative-partial-wh_Por-que-hablaba-del-agua.wav,./stim/wavs/cuban_match_interrogative-partial-wh_Por-que-hablaba-del-agua.wav,./stim/wavs/mexican_match_interrogative-partial-wh_Por-que-hablaba-del-agua.wav,./stim/wavs/peruvian_match_interrogative-partial-wh_Por-que-hablaba-del-agua.wav,./stim/wavs/puertorican_match_interrogative-partial-wh_Por-que-hablaba-del-agua.wav,,,,,,,,,,,,,,,,,,,,,,,,,,,,,,,,,,,,,,,,,,,,,,,,,,,,,,,,
,,,,,,,5f80bc44efa2c013099af460,605b45a4d25f287719a41696,605b86b904ba874e7f1ac081,Spain,Midwest,13 or older,no,2021-03-24_13h37.33.680,empathy_intonation_perc,2020.2.10,Win32,60,,,,,,,,,,1,cuban,0,0,1.39103,0,53,53,57,1,58,./stim/wavs/andalusian_mismatch_interrogative-total-yn_El-hombre-mira-la-luna.wav,./stim/wavs/argentine_mismatch_interrogative-total-yn_El-hombre-mira-la-luna.wav,./stim/wavs/castilian_mismatch_interrogative-total-yn_El-hombre-mira-la-luna.wav,./stim/wavs/chilean_mismatch_interrogative-total-yn_El-hombre-mira-la-luna.wav,./stim/wavs/cuban_mismatch_interrogative-total-yn_El-hombre-mira-la-luna.wav,./stim/wavs/mexican_mismatch_interrogative-total-yn_El-hombre-mira-la-luna.wav,./stim/wavs/peruvian_mismatch_interrogative-total-yn_El-hombre-mira-la-luna.wav,./stim/wavs/puertorican_mismatch_interrogative-total-yn_El-hombre-mira-la-luna.wav,,,,,,,,,,,,,,,,,,,,,,,,,,,,,,,,,,,,,,,,,,,,,,,,,,,,,,,,
,,,,,,,5f80bc44efa2c013099af460,605b45a4d25f287719a41696,605b86b904ba874e7f1ac081,Spain,Midwest,13 or older,no,2021-03-24_13h37.33.680,empathy_intonation_perc,2020.2.10,Win32,60,,,,,,,,,,0,andalusian,0,1,2.362295,0,54,54,1,1,2,./stim/wavs/andalusian_match_declarative-broad-focus_Daniel-iba-a-Bolivia.wav,./stim/wavs/argentine_match_declarative-broad-focus_Daniel-iba-a-Bolivia.wav,./stim/wavs/castilian_match_declarative-broad-focus_Daniel-iba-a-Bolivia.wav,./stim/wavs/chilean_match_declarative-broad-focus_Daniel-iba-a-Bolivia.wav,./stim/wavs/cuban_match_declarative-broad-focus_Daniel-iba-a-Bolivia.wav,./stim/wavs/mexican_match_declarative-broad-focus_Daniel-iba-a-Bolivia.wav,./stim/wavs/peruvian_match_declarative-broad-focus_Daniel-iba-a-Bolivia.wav,./stim/wavs/puertorican_match_declarative-broad-focus_Daniel-iba-a-Bolivia.wav,,,,,,,,,,,,,,,,,,,,,,,,,,,,,,,,,,,,,,,,,,,,,,,,,,,,,,,,
,,,,,,,5f80bc44efa2c013099af460,605b45a4d25f287719a41696,605b86b904ba874e7f1ac081,Spain,Midwest,13 or older,no,2021-03-24_13h37.33.680,empathy_intonation_perc,2020.2.10,Win32,60,,,,,,,,,,1,peruvian,1,1,2.158315,0,55,55,29,1,30,./stim/wavs/andalusian_match_interrogative-total-yn_Maria-bebe-el-vino.wav,./stim/wavs/argentine_match_interrogative-total-yn_Maria-bebe-el-vino.wav,./stim/wavs/castilian_match_interrogative-total-yn_Maria-bebe-el-vino.wav,./stim/wavs/chilean_match_interrogative-total-yn_Maria-bebe-el-vino.wav,./stim/wavs/cuban_match_interrogative-total-yn_Maria-bebe-el-vino.wav,./stim/wavs/mexican_match_interrogative-total-yn_Maria-bebe-el-vino.wav,./stim/wavs/peruvian_match_interrogative-total-yn_Maria-bebe-el-vino.wav,./stim/wavs/puertorican_match_interrogative-total-yn_Maria-bebe-el-vino.wav,,,,,,,,,,,,,,,,,,,,,,,,,,,,,,,,,,,,,,,,,,,,,,,,,,,,,,,,
,,,,,,,5f80bc44efa2c013099af460,605b45a4d25f287719a41696,605b86b904ba874e7f1ac081,Spain,Midwest,13 or older,no,2021-03-24_13h37.33.680,empathy_intonation_perc,2020.2.10,Win32,60,,,,,,,,,,0,argentine,0,1,2.48844,0,56,56,33,1,34,./stim/wavs/andalusian_mismatch_declarative-broad-focus_El-hombre-mira-la-luna.wav,./stim/wavs/argentine_mismatch_declarative-broad-focus_El-hombre-mira-la-luna.wav,./stim/wavs/castilian_mismatch_declarative-broad-focus_El-hombre-mira-la-luna.wav,./stim/wavs/chilean_mismatch_declarative-broad-focus_El-hombre-mira-la-luna.wav,./stim/wavs/cuban_mismatch_declarative-broad-focus_El-hombre-mira-la-luna.wav,./stim/wavs/mexican_mismatch_declarative-broad-focus_El-hombre-mira-la-luna.wav,./stim/wavs/peruvian_mismatch_declarative-broad-focus_El-hombre-mira-la-luna.wav,./stim/wavs/puertorican_mismatch_declarative-broad-focus_El-hombre-mira-la-luna.wav,,,,,,,,,,,,,,,,,,,,,,,,,,,,,,,,,,,,,,,,,,,,,,,,,,,,,,,,
,,,,,,,5f80bc44efa2c013099af460,605b45a4d25f287719a41696,605b86b904ba874e7f1ac081,Spain,Midwest,13 or older,no,2021-03-24_13h37.33.680,empathy_intonation_perc,2020.2.10,Win32,60,,,,,,,,,,1,andalusian,1,1,1.937835,0,57,57,31,1,32,./stim/wavs/andalusian_match_interrogative-total-yn_Marta-abre-el-regalo.wav,./stim/wavs/argentine_match_interrogative-total-yn_Marta-abre-el-regalo.wav,./stim/wavs/castilian_match_interrogative-total-yn_Marta-abre-el-regalo.wav,./stim/wavs/chilean_match_interrogative-total-yn_Marta-abre-el-regalo.wav,./stim/wavs/cuban_match_interrogative-total-yn_Marta-abre-el-regalo.wav,./stim/wavs/mexican_match_interrogative-total-yn_Marta-abre-el-regalo.wav,./stim/wavs/peruvian_match_interrogative-total-yn_Marta-abre-el-regalo.wav,./stim/wavs/puertorican_match_interrogative-total-yn_Marta-abre-el-regalo.wav,,,,,,,,,,,,,,,,,,,,,,,,,,,,,,,,,,,,,,,,,,,,,,,,,,,,,,,,
,,,,,,,5f80bc44efa2c013099af460,605b45a4d25f287719a41696,605b86b904ba874e7f1ac081,Spain,Midwest,13 or older,no,2021-03-24_13h37.33.680,empathy_intonation_perc,2020.2.10,Win32,60,,,,,,,,,,1,puertorican,0,0,1.94292,0,58,58,25,1,26,./stim/wavs/andalusian_match_interrogative-total-yn_Daniel-iba-a-Bolivia.wav,./stim/wavs/argentine_match_interrogative-total-yn_Daniel-iba-a-Bolivia.wav,./stim/wavs/castilian_match_interrogative-total-yn_Daniel-iba-a-Bolivia.wav,./stim/wavs/chilean_match_interrogative-total-yn_Daniel-iba-a-Bolivia.wav,./stim/wavs/cuban_match_interrogative-total-yn_Daniel-iba-a-Bolivia.wav,./stim/wavs/mexican_match_interrogative-total-yn_Daniel-iba-a-Bolivia.wav,./stim/wavs/peruvian_match_interrogative-total-yn_Daniel-iba-a-Bolivia.wav,./stim/wavs/puertorican_match_interrogative-total-yn_Daniel-iba-a-Bolivia.wav,,,,,,,,,,,,,,,,,,,,,,,,,,,,,,,,,,,,,,,,,,,,,,,,,,,,,,,,
,,,,,,,5f80bc44efa2c013099af460,605b45a4d25f287719a41696,605b86b904ba874e7f1ac081,Spain,Midwest,13 or older,no,2021-03-24_13h37.33.680,empathy_intonation_perc,2020.2.10,Win32,60,,,,,,,,,,0,andalusian,0,1,1.70208,0,59,59,0,1,1,./stim/wavs/andalusian_match_declarative-broad-focus_Ana-lleva-el-abrigo.wav,./stim/wavs/argentine_match_declarative-broad-focus_Ana-lleva-el-abrigo.wav,./stim/wavs/castilian_match_declarative-broad-focus_Ana-lleva-el-abrigo.wav,./stim/wavs/chilean_match_declarative-broad-focus_Ana-lleva-el-abrigo.wav,./stim/wavs/cuban_match_declarative-broad-focus_Ana-lleva-el-abrigo.wav,./stim/wavs/mexican_match_declarative-broad-focus_Ana-lleva-el-abrigo.wav,./stim/wavs/peruvian_match_declarative-broad-focus_Ana-lleva-el-abrigo.wav,./stim/wavs/puertorican_match_declarative-broad-focus_Ana-lleva-el-abrigo.wav,,,,,,,,,,,,,,,,,,,,,,,,,,,,,,,,,,,,,,,,,,,,,,,,,,,,,,,,
,,,,,,,5f80bc44efa2c013099af460,605b45a4d25f287719a41696,605b86b904ba874e7f1ac081,Spain,Midwest,13 or older,no,2021-03-24_13h37.33.680,empathy_intonation_perc,2020.2.10,Win32,60,,,,,,,,,,1,cuban,0,0,1.30647,0,60,60,24,1,25,./stim/wavs/andalusian_match_interrogative-total-yn_Ana-lleva-el-abrigo.wav,./stim/wavs/argentine_match_interrogative-total-yn_Ana-lleva-el-abrigo.wav,./stim/wavs/castilian_match_interrogative-total-yn_Ana-lleva-el-abrigo.wav,./stim/wavs/chilean_match_interrogative-total-yn_Ana-lleva-el-abrigo.wav,./stim/wavs/cuban_match_interrogative-total-yn_Ana-lleva-el-abrigo.wav,./stim/wavs/mexican_match_interrogative-total-yn_Ana-lleva-el-abrigo.wav,./stim/wavs/peruvian_match_interrogative-total-yn_Ana-lleva-el-abrigo.wav,./stim/wavs/puertorican_match_interrogative-total-yn_Ana-lleva-el-abrigo.wav,,,,,,,,,,,,,,,,,,,,,,,,,,,,,,,,,,,,,,,,,,,,,,,,,,,,,,,,
,,,,,,,5f80bc44efa2c013099af460,605b45a4d25f287719a41696,605b86b904ba874e7f1ac081,Spain,Midwest,13 or older,no,2021-03-24_13h37.33.680,empathy_intonation_perc,2020.2.10,Win32,60,,,,,,,,,,1,puertorican,0,0,1.61786,0,61,61,58,1,59,./stim/wavs/andalusian_mismatch_interrogative-total-yn_El-nino-oye-el-rio.wav,./stim/wavs/argentine_mismatch_interrogative-total-yn_El-nino-oye-el-rio.wav,./stim/wavs/castilian_mismatch_interrogative-total-yn_El-nino-oye-el-rio.wav,./stim/wavs/chilean_mismatch_interrogative-total-yn_El-nino-oye-el-rio.wav,./stim/wavs/cuban_mismatch_interrogative-total-yn_El-nino-oye-el-rio.wav,./stim/wavs/mexican_mismatch_interrogative-total-yn_El-nino-oye-el-rio.wav,./stim/wavs/peruvian_mismatch_interrogative-total-yn_El-nino-oye-el-rio.wav,./stim/wavs/puertorican_mismatch_interrogative-total-yn_El-nino-oye-el-rio.wav,,,,,,,,,,,,,,,,,,,,,,,,,,,,,,,,,,,,,,,,,,,,,,,,,,,,,,,,
,,,,,,,5f80bc44efa2c013099af460,605b45a4d25f287719a41696,605b86b904ba874e7f1ac081,Spain,Midwest,13 or older,no,2021-03-24_13h37.33.680,empathy_intonation_perc,2020.2.10,Win32,60,,,,,,,,,,0,peruvian,0,1,1.874675,0,62,62,38,1,39,./stim/wavs/andalusian_mismatch_declarative-broad-focus_Mi-novio-viene-del-lago.wav,./stim/wavs/argentine_mismatch_declarative-broad-focus_Mi-novio-viene-del-lago.wav,./stim/wavs/castilian_mismatch_declarative-broad-focus_Mi-novio-viene-del-lago.wav,./stim/wavs/chilean_mismatch_declarative-broad-focus_Mi-novio-viene-del-lago.wav,./stim/wavs/cuban_mismatch_declarative-broad-focus_Mi-novio-viene-del-lago.wav,./stim/wavs/mexican_mismatch_declarative-broad-focus_Mi-novio-viene-del-lago.wav,./stim/wavs/peruvian_mismatch_declarative-broad-focus_Mi-novio-viene-del-lago.wav,./stim/wavs/puertorican_mismatch_declarative-broad-focus_Mi-novio-viene-del-lago.wav,,,,,,,,,,,,,,,,,,,,,,,,,,,,,,,,,,,,,,,,,,,,,,,,,,,,,,,,
,,,,,,,5f80bc44efa2c013099af460,605b45a4d25f287719a41696,605b86b904ba874e7f1ac081,Spain,Midwest,13 or older,no,2021-03-24_13h37.33.680,empathy_intonation_perc,2020.2.10,Win32,60,,,,,,,,,,0,cuban,0,1,2.93872,0,63,63,39,1,40,./stim/wavs/andalusian_mismatch_declarative-broad-focus_Mi-tia-odia-la-lluvia.wav,./stim/wavs/argentine_mismatch_declarative-broad-focus_Mi-tia-odia-la-lluvia.wav,./stim/wavs/castilian_mismatch_declarative-broad-focus_Mi-tia-odia-la-lluvia.wav,./stim/wavs/chilean_mismatch_declarative-broad-focus_Mi-tia-odia-la-lluvia.wav,./stim/wavs/cuban_mismatch_declarative-broad-focus_Mi-tia-odia-la-lluvia.wav,./stim/wavs/mexican_mismatch_declarative-broad-focus_Mi-tia-odia-la-lluvia.wav,./stim/wavs/peruvian_mismatch_declarative-broad-focus_Mi-tia-odia-la-lluvia.wav,./stim/wavs/puertorican_mismatch_declarative-broad-focus_Mi-tia-odia-la-lluvia.wav,,,,,,,,,,,,,,,,,,,,,,,,,,,,,,,,,,,,,,,,,,,,,,,,,,,,,,,,
,,,,,,,5f80bc44efa2c013099af460,605b45a4d25f287719a41696,605b86b904ba874e7f1ac081,Spain,Midwest,13 or older,no,2021-03-24_13h37.33.680,empathy_intonation_perc,2020.2.10,Win32,60,,,,,,,,,,,,,,,,,,,,,,,,,,,,,h,1,6.077045,0,0,0,0,1,,,,,,,,,,,,,,,,,,,,,,,,,,,,,,,,,,,,,,,,,,,,,,,,
,,,,,"Great! Now we will move on. The next task consists of about 60 trials, in each of which you will see a string of letters. 
  
  Your task is to decide whether this is a real Spanish word or not.",(press the spacebar to continue),5f80bc44efa2c013099af460,605b45a4d25f287719a41696,605b86b904ba874e7f1ac081,Spain,Midwest,13 or older,no,2021-03-24_13h37.33.680,empathy_intonation_perc,2020.2.10,Win32,60,,,,,,,,,,,,,,,,,,,,,,,,,,,,,,,,,,,,,0,0,0,0,1,,,,,,,,,,,,,,,,,,,,,,,,,,,,,,,,,,,,,,,,,,,
,,,,,"If you think it is an existing Spanish word, you type '1' (for 'REAL'), and if you think it is not an existing Spanish word, you type '0' (for 'FAKE').",(press the spacebar to continue),5f80bc44efa2c013099af460,605b45a4d25f287719a41696,605b86b904ba874e7f1ac081,Spain,Midwest,13 or older,no,2021-03-24_13h37.33.680,empathy_intonation_perc,2020.2.10,Win32,60,,,,,,,,,,,,,,,,,,,,,,,,,,,,,,,,,,,,,0,1,1,1,1,,,,,,,,,,,,,,,,,,,,,,,,,,,,,,,,,,,,,,,,,,,
,,,,,"If you are sure that the word exists, even though you dont know its exact meaning, you may still respond '1' (REAL). 
  
  But if you are not sure if it is an existing word, you should respond '0' (FAKE).
  
  Let's do a practice round...",(press the spacebar to continue),5f80bc44efa2c013099af460,605b45a4d25f287719a41696,605b86b904ba874e7f1ac081,Spain,Midwest,13 or older,no,2021-03-24_13h37.33.680,empathy_intonation_perc,2020.2.10,Win32,60,,,,,,,,,,,,,,,,,,,,,,,,,,,,,,,,,,,,,0,2,2,2,1,,,,,,,,,,,,,,,,,,,,,,,,,,,,,,,,,,,,,,,,,,,
,,,,,,,5f80bc44efa2c013099af460,605b45a4d25f287719a41696,605b86b904ba874e7f1ac081,Spain,Midwest,13 or older,no,2021-03-24_13h37.33.680,empathy_intonation_perc,2020.2.10,Win32,60,,,,,,,,,,0,,,,,,,,,,,,,,,,,,,,,,,,,,,,,,,,0,1,1.710225,0,0,0,0,1,0,depiste,REAL,FAKE,,,,,,,,,,,,,,,,,,,,,,,,,,,,,,,
,,,,,,,5f80bc44efa2c013099af460,605b45a4d25f287719a41696,605b86b904ba874e7f1ac081,Spain,Midwest,13 or older,no,2021-03-24_13h37.33.680,empathy_intonation_perc,2020.2.10,Win32,60,,,,,,,,,,1,,,,,,,,,,,,,,,,,,,,,,,,,,,,,,,,1,1,0.90071,0,1,1,1,1,0,s,REAL,FAKE,,,,,,,,,,,,,,,,,,,,,,,,,,,,,,,
,,,,,,,5f80bc44efa2c013099af460,605b45a4d25f287719a41696,605b86b904ba874e7f1ac081,Spain,Midwest,13 or older,no,2021-03-24_13h37.33.680,empathy_intonation_perc,2020.2.10,Win32,60,,,,,,,,,,0,,,,,,,,,,,,,,,,,,,,,,,,,,,,,,,,1,0,0.92881,0,2,2,2,1,0,con,REAL,FAKE,,,,,,,,,,,,,,,,,,,,,,,,,,,,,,,
,,,,,,,5f80bc44efa2c013099af460,605b45a4d25f287719a41696,605b86b904ba874e7f1ac081,Spain,Midwest,13 or older,no,2021-03-24_13h37.33.680,empathy_intonation_perc,2020.2.10,Win32,60,,,,,,,,,,0,,,,,,,,,,,,,,,,,,,,,,,,,,,,,,,,0,1,1.317425,0,3,3,3,1,0,calpar,REAL,FAKE,,,,,,,,,,,,,,,,,,,,,,,,,,,,,,,
,,,,,,,5f80bc44efa2c013099af460,605b45a4d25f287719a41696,605b86b904ba874e7f1ac081,Spain,Midwest,13 or older,no,2021-03-24_13h37.33.680,empathy_intonation_perc,2020.2.10,Win32,60,,,,,,,,,,0,,,,,,,,,,,,,,,,,,,,,,,,,,,,,,,,0,1,0.99605,0,4,4,4,1,0,joten,REAL,FAKE,,,,,,,,,,,,,,,,,,,,,,,,,,,,,,,
,,,,,,,5f80bc44efa2c013099af460,605b45a4d25f287719a41696,605b86b904ba874e7f1ac081,Spain,Midwest,13 or older,no,2021-03-24_13h37.33.680,empathy_intonation_perc,2020.2.10,Win32,60,,,,,,,,,,1,,,,,,,,,,,,,,,,,,,,,,,,,,,,,,,,1,1,1.831245,0,5,5,5,1,0,sacapuntas,REAL,FAKE,,,,,,,,,,,,,,,,,,,,,,,,,,,,,,,
,,,,,,,5f80bc44efa2c013099af460,605b45a4d25f287719a41696,605b86b904ba874e7f1ac081,Spain,Midwest,13 or older,no,2021-03-24_13h37.33.680,empathy_intonation_perc,2020.2.10,Win32,60,,,,,,,,,,0,,,,,,,,,,,,,,,,,,,,,,,,,,,,,,,,1,0,0.965045,0,6,6,6,1,0,priba,REAL,FAKE,,,,,,,,,,,,,,,,,,,,,,,,,,,,,,,
,,,,,,,5f80bc44efa2c013099af460,605b45a4d25f287719a41696,605b86b904ba874e7f1ac081,Spain,Midwest,13 or older,no,2021-03-24_13h37.33.680,empathy_intonation_perc,2020.2.10,Win32,60,,,,,,,,,,0,,,,,,,,,,,,,,,,,,,,,,,,,,,,,,,,0,1,1.8089,0,7,7,7,1,0,pelasula,REAL,FAKE,,,,,,,,,,,,,,,,,,,,,,,,,,,,,,,
,,,,,,,5f80bc44efa2c013099af460,605b45a4d25f287719a41696,605b86b904ba874e7f1ac081,Spain,Midwest,13 or older,no,2021-03-24_13h37.33.680,empathy_intonation_perc,2020.2.10,Win32,60,,,,,,,,,,1,,,,,,,,,,,,,,,,,,,,,,,,,,,,,,,,1,1,1.022375,0,8,8,8,1,0,bien,REAL,FAKE,,,,,,,,,,,,,,,,,,,,,,,,,,,,,,,
,,,,,,,5f80bc44efa2c013099af460,605b45a4d25f287719a41696,605b86b904ba874e7f1ac081,Spain,Midwest,13 or older,no,2021-03-24_13h37.33.680,empathy_intonation_perc,2020.2.10,Win32,60,,,,,,,,,,1,,,,,,,,,,,,,,,,,,,,,,,,,,,,,,,,1,1,0.63394,0,9,9,9,1,0,casa,REAL,FAKE,,,,,,,,,,,,,,,,,,,,,,,,,,,,,,,
,,,,,,,5f80bc44efa2c013099af460,605b45a4d25f287719a41696,605b86b904ba874e7f1ac081,Spain,Midwest,13 or older,no,2021-03-24_13h37.33.680,empathy_intonation_perc,2020.2.10,Win32,60,,,,,,,,,,0,,,,,,,,,,,,,,,,,,,,,,,,,,,,,,,,1,0,0.70364,0,10,10,10,1,0,lejo,REAL,FAKE,,,,,,,,,,,,,,,,,,,,,,,,,,,,,,,
,,,,,,,5f80bc44efa2c013099af460,605b45a4d25f287719a41696,605b86b904ba874e7f1ac081,Spain,Midwest,13 or older,no,2021-03-24_13h37.33.680,empathy_intonation_perc,2020.2.10,Win32,60,,,,,,,,,,0,,,,,,,,,,,,,,,,,,,,,,,,,,,,,,,,0,1,1.98417,0,11,11,11,1,0,pretantas,REAL,FAKE,,,,,,,,,,,,,,,,,,,,,,,,,,,,,,,
,,,,,,,5f80bc44efa2c013099af460,605b45a4d25f287719a41696,605b86b904ba874e7f1ac081,Spain,Midwest,13 or older,no,2021-03-24_13h37.33.680,empathy_intonation_perc,2020.2.10,Win32,60,,,,,,,,,,1,,,,,,,,,,,,,,,,,,,,,,,,,,,,,,,,,,,,,,,,46,martillo,,,0,0,1.697065,0,0,0,45,1,REAL,FAKE,,,,,,,,,,,,,,,,,,,,,
,,,,,,,5f80bc44efa2c013099af460,605b45a4d25f287719a41696,605b86b904ba874e7f1ac081,Spain,Midwest,13 or older,no,2021-03-24_13h37.33.680,empathy_intonation_perc,2020.2.10,Win32,60,,,,,,,,,,0,,,,,,,,,,,,,,,,,,,,,,,,,,,,,,,,,,,,,,,,66,hacido,,,1,0,2.047925,0,1,1,65,1,REAL,FAKE,,,,,,,,,,,,,,,,,,,,,
,,,,,,,5f80bc44efa2c013099af460,605b45a4d25f287719a41696,605b86b904ba874e7f1ac081,Spain,Midwest,13 or older,no,2021-03-24_13h37.33.680,empathy_intonation_perc,2020.2.10,Win32,60,,,,,,,,,,1,,,,,,,,,,,,,,,,,,,,,,,,,,,,,,,,,,,,,,,,20,vido,,,1,1,0.966705,0,2,2,19,1,REAL,FAKE,,,,,,,,,,,,,,,,,,,,,
,,,,,,,5f80bc44efa2c013099af460,605b45a4d25f287719a41696,605b86b904ba874e7f1ac081,Spain,Midwest,13 or older,no,2021-03-24_13h37.33.680,empathy_intonation_perc,2020.2.10,Win32,60,,,,,,,,,,0,,,,,,,,,,,,,,,,,,,,,,,,,,,,,,,,,,,,,,,,8,cadea,,,0,1,1.330815,0,3,3,7,1,REAL,FAKE,,,,,,,,,,,,,,,,,,,,,
,,,,,,,5f80bc44efa2c013099af460,605b45a4d25f287719a41696,605b86b904ba874e7f1ac081,Spain,Midwest,13 or older,no,2021-03-24_13h37.33.680,empathy_intonation_perc,2020.2.10,Win32,60,,,,,,,,,,0,,,,,,,,,,,,,,,,,,,,,,,,,,,,,,,,,,,,,,,,32,fatacidad,,,0,1,1.14752,0,4,4,31,1,REAL,FAKE,,,,,,,,,,,,,,,,,,,,,
,,,,,,,5f80bc44efa2c013099af460,605b45a4d25f287719a41696,605b86b904ba874e7f1ac081,Spain,Midwest,13 or older,no,2021-03-24_13h37.33.680,empathy_intonation_perc,2020.2.10,Win32,60,,,,,,,,,,1,,,,,,,,,,,,,,,,,,,,,,,,,,,,,,,,,,,,,,,,55,nevar,,,0,0,1.94701,0,5,5,54,1,REAL,FAKE,,,,,,,,,,,,,,,,,,,,,
,,,,,,,5f80bc44efa2c013099af460,605b45a4d25f287719a41696,605b86b904ba874e7f1ac081,Spain,Midwest,13 or older,no,2021-03-24_13h37.33.680,empathy_intonation_perc,2020.2.10,Win32,60,,,,,,,,,,0,,,,,,,,,,,,,,,,,,,,,,,,,,,,,,,,,,,,,,,,74,cintro,,,0,1,1.299175,0,6,6,73,1,REAL,FAKE,,,,,,,,,,,,,,,,,,,,,
,,,,,,,5f80bc44efa2c013099af460,605b45a4d25f287719a41696,605b86b904ba874e7f1ac081,Spain,Midwest,13 or older,no,2021-03-24_13h37.33.680,empathy_intonation_perc,2020.2.10,Win32,60,,,,,,,,,,0,,,,,,,,,,,,,,,,,,,,,,,,,,,,,,,,,,,,,,,,17,floroso,,,0,1,1.046495,0,7,7,16,1,REAL,FAKE,,,,,,,,,,,,,,,,,,,,,
,,,,,,,5f80bc44efa2c013099af460,605b45a4d25f287719a41696,605b86b904ba874e7f1ac081,Spain,Midwest,13 or older,no,2021-03-24_13h37.33.680,empathy_intonation_perc,2020.2.10,Win32,60,,,,,,,,,,0,,,,,,,,,,,,,,,,,,,,,,,,,,,,,,,,,,,,,,,,1,terzo,,,0,1,1.313465,0,8,8,0,1,REAL,FAKE,,,,,,,,,,,,,,,,,,,,,
,,,,,,,5f80bc44efa2c013099af460,605b45a4d25f287719a41696,605b86b904ba874e7f1ac081,Spain,Midwest,13 or older,no,2021-03-24_13h37.33.680,empathy_intonation_perc,2020.2.10,Win32,60,,,,,,,,,,0,,,,,,,,,,,,,,,,,,,,,,,,,,,,,,,,,,,,,,,,82,empirador,,,1,0,1.830905,0,9,9,81,1,REAL,FAKE,,,,,,,,,,,,,,,,,,,,,
,,,,,,,5f80bc44efa2c013099af460,605b45a4d25f287719a41696,605b86b904ba874e7f1ac081,Spain,Midwest,13 or older,no,2021-03-24_13h37.33.680,empathy_intonation_perc,2020.2.10,Win32,60,,,,,,,,,,1,,,,,,,,,,,,,,,,,,,,,,,,,,,,,,,,,,,,,,,,61,seda,,,0,0,1.03022,0,10,10,60,1,REAL,FAKE,,,,,,,,,,,,,,,,,,,,,
,,,,,,,5f80bc44efa2c013099af460,605b45a4d25f287719a41696,605b86b904ba874e7f1ac081,Spain,Midwest,13 or older,no,2021-03-24_13h37.33.680,empathy_intonation_perc,2020.2.10,Win32,60,,,,,,,,,,1,,,,,,,,,,,,,,,,,,,,,,,,,,,,,,,,,,,,,,,,73,hervidor,,,0,0,0.88229,0,11,11,72,1,REAL,FAKE,,,,,,,,,,,,,,,,,,,,,
,,,,,,,5f80bc44efa2c013099af460,605b45a4d25f287719a41696,605b86b904ba874e7f1ac081,Spain,Midwest,13 or older,no,2021-03-24_13h37.33.680,empathy_intonation_perc,2020.2.10,Win32,60,,,,,,,,,,0,,,,,,,,,,,,,,,,,,,,,,,,,,,,,,,,,,,,,,,,47,cartinar,,,0,1,1.15148,0,12,12,46,1,REAL,FAKE,,,,,,,,,,,,,,,,,,,,,
,,,,,,,5f80bc44efa2c013099af460,605b45a4d25f287719a41696,605b86b904ba874e7f1ac081,Spain,Midwest,13 or older,no,2021-03-24_13h37.33.680,empathy_intonation_perc,2020.2.10,Win32,60,,,,,,,,,,1,,,,,,,,,,,,,,,,,,,,,,,,,,,,,,,,,,,,,,,,43,canela,,,0,0,0.95235,0,13,13,42,1,REAL,FAKE,,,,,,,,,,,,,,,,,,,,,
,,,,,,,5f80bc44efa2c013099af460,605b45a4d25f287719a41696,605b86b904ba874e7f1ac081,Spain,Midwest,13 or older,no,2021-03-24_13h37.33.680,empathy_intonation_perc,2020.2.10,Win32,60,,,,,,,,,,0,,,,,,,,,,,,,,,,,,,,,,,,,,,,,,,,,,,,,,,,63,esposante,,,0,1,1.161225,0,14,14,62,1,REAL,FAKE,,,,,,,,,,,,,,,,,,,,,
,,,,,,,5f80bc44efa2c013099af460,605b45a4d25f287719a41696,605b86b904ba874e7f1ac081,Spain,Midwest,13 or older,no,2021-03-24_13h37.33.680,empathy_intonation_perc,2020.2.10,Win32,60,,,,,,,,,,0,,,,,,,,,,,,,,,,,,,,,,,,,,,,,,,,,,,,,,,,35,rompido,,,0,1,1.135645,0,15,15,34,1,REAL,FAKE,,,,,,,,,,,,,,,,,,,,,
,,,,,,,5f80bc44efa2c013099af460,605b45a4d25f287719a41696,605b86b904ba874e7f1ac081,Spain,Midwest,13 or older,no,2021-03-24_13h37.33.680,empathy_intonation_perc,2020.2.10,Win32,60,,,,,,,,,,1,,,,,,,,,,,,,,,,,,,,,,,,,,,,,,,,,,,,,,,,40,alfombra,,,1,1,0.93718,0,16,16,39,1,REAL,FAKE,,,,,,,,,,,,,,,,,,,,,
,,,,,,,5f80bc44efa2c013099af460,605b45a4d25f287719a41696,605b86b904ba874e7f1ac081,Spain,Midwest,13 or older,no,2021-03-24_13h37.33.680,empathy_intonation_perc,2020.2.10,Win32,60,,,,,,,,,,0,,,,,,,,,,,,,,,,,,,,,,,,,,,,,,,,,,,,,,,,72,pemicin,,,0,1,1.07184,0,17,17,71,1,REAL,FAKE,,,,,,,,,,,,,,,,,,,,,
,,,,,,,5f80bc44efa2c013099af460,605b45a4d25f287719a41696,605b86b904ba874e7f1ac081,Spain,Midwest,13 or older,no,2021-03-24_13h37.33.680,empathy_intonation_perc,2020.2.10,Win32,60,,,,,,,,,,0,,,,,,,,,,,,,,,,,,,,,,,,,,,,,,,,,,,,,,,,84,escuto,,,1,0,0.8632,0,18,18,83,1,REAL,FAKE,,,,,,,,,,,,,,,,,,,,,
,,,,,,,5f80bc44efa2c013099af460,605b45a4d25f287719a41696,605b86b904ba874e7f1ac081,Spain,Midwest,13 or older,no,2021-03-24_13h37.33.680,empathy_intonation_perc,2020.2.10,Win32,60,,,,,,,,,,0,,,,,,,,,,,,,,,,,,,,,,,,,,,,,,,,,,,,,,,,50,flamida,,,0,1,1.84787,0,19,19,49,1,REAL,FAKE,,,,,,,,,,,,,,,,,,,,,
,,,,,,,5f80bc44efa2c013099af460,605b45a4d25f287719a41696,605b86b904ba874e7f1ac081,Spain,Midwest,13 or older,no,2021-03-24_13h37.33.680,empathy_intonation_perc,2020.2.10,Win32,60,,,,,,,,,,0,,,,,,,,,,,,,,,,,,,,,,,,,,,,,,,,,,,,,,,,70,temblo,,,0,1,1.07481,0,20,20,69,1,REAL,FAKE,,,,,,,,,,,,,,,,,,,,,
,,,,,,,5f80bc44efa2c013099af460,605b45a4d25f287719a41696,605b86b904ba874e7f1ac081,Spain,Midwest,13 or older,no,2021-03-24_13h37.33.680,empathy_intonation_perc,2020.2.10,Win32,60,,,,,,,,,,1,,,,,,,,,,,,,,,,,,,,,,,,,,,,,,,,,,,,,,,,80,hormiga,,,0,0,1.278345,0,21,21,79,1,REAL,FAKE,,,,,,,,,,,,,,,,,,,,,
,,,,,,,5f80bc44efa2c013099af460,605b45a4d25f287719a41696,605b86b904ba874e7f1ac081,Spain,Midwest,13 or older,no,2021-03-24_13h37.33.680,empathy_intonation_perc,2020.2.10,Win32,60,,,,,,,,,,1,,,,,,,,,,,,,,,,,,,,,,,,,,,,,,,,,,,,,,,,5,zapato,,,1,1,0.797955,0,22,22,4,1,REAL,FAKE,,,,,,,,,,,,,,,,,,,,,
,,,,,,,5f80bc44efa2c013099af460,605b45a4d25f287719a41696,605b86b904ba874e7f1ac081,Spain,Midwest,13 or older,no,2021-03-24_13h37.33.680,empathy_intonation_perc,2020.2.10,Win32,60,,,,,,,,,,1,,,,,,,,,,,,,,,,,,,,,,,,,,,,,,,,,,,,,,,,88,acantilado,,,0,0,1.362295,0,23,23,87,1,REAL,FAKE,,,,,,,,,,,,,,,,,,,,,
,,,,,,,5f80bc44efa2c013099af460,605b45a4d25f287719a41696,605b86b904ba874e7f1ac081,Spain,Midwest,13 or older,no,2021-03-24_13h37.33.680,empathy_intonation_perc,2020.2.10,Win32,60,,,,,,,,,,1,,,,,,,,,,,,,,,,,,,,,,,,,,,,,,,,,,,,,,,,69,engatusar,,,0,0,1.638315,0,24,24,68,1,REAL,FAKE,,,,,,,,,,,,,,,,,,,,,
,,,,,,,5f80bc44efa2c013099af460,605b45a4d25f287719a41696,605b86b904ba874e7f1ac081,Spain,Midwest,13 or older,no,2021-03-24_13h37.33.680,empathy_intonation_perc,2020.2.10,Win32,60,,,,,,,,,,1,,,,,,,,,,,,,,,,,,,,,,,,,,,,,,,,,,,,,,,,65,bizcocho,,,0,0,0.83026,0,25,25,64,1,REAL,FAKE,,,,,,,,,,,,,,,,,,,,,
,,,,,,,5f80bc44efa2c013099af460,605b45a4d25f287719a41696,605b86b904ba874e7f1ac081,Spain,Midwest,13 or older,no,2021-03-24_13h37.33.680,empathy_intonation_perc,2020.2.10,Win32,60,,,,,,,,,,1,,,,,,,,,,,,,,,,,,,,,,,,,,,,,,,,,,,,,,,,52,camisa,,,1,1,0.81659,0,26,26,51,1,REAL,FAKE,,,,,,,,,,,,,,,,,,,,,
,,,,,,,5f80bc44efa2c013099af460,605b45a4d25f287719a41696,605b86b904ba874e7f1ac081,Spain,Midwest,13 or older,no,2021-03-24_13h37.33.680,empathy_intonation_perc,2020.2.10,Win32,60,,,,,,,,,,0,,,,,,,,,,,,,,,,,,,,,,,,,,,,,,,,,,,,,,,,87,grodo,,,0,1,0.9799,0,27,27,86,1,REAL,FAKE,,,,,,,,,,,,,,,,,,,,,
,,,,,,,5f80bc44efa2c013099af460,605b45a4d25f287719a41696,605b86b904ba874e7f1ac081,Spain,Midwest,13 or older,no,2021-03-24_13h37.33.680,empathy_intonation_perc,2020.2.10,Win32,60,,,,,,,,,,1,,,,,,,,,,,,,,,,,,,,,,,,,,,,,,,,,,,,,,,,45,jilguero,,,0,0,0.919245,0,28,28,44,1,REAL,FAKE,,,,,,,,,,,,,,,,,,,,,
,,,,,,,5f80bc44efa2c013099af460,605b45a4d25f287719a41696,605b86b904ba874e7f1ac081,Spain,Midwest,13 or older,no,2021-03-24_13h37.33.680,empathy_intonation_perc,2020.2.10,Win32,60,,,,,,,,,,1,,,,,,,,,,,,,,,,,,,,,,,,,,,,,,,,,,,,,,,,9,hacha,,,0,0,1.544255,0,29,29,8,1,REAL,FAKE,,,,,,,,,,,,,,,,,,,,,
,,,,,,,5f80bc44efa2c013099af460,605b45a4d25f287719a41696,605b86b904ba874e7f1ac081,Spain,Midwest,13 or older,no,2021-03-24_13h37.33.680,empathy_intonation_perc,2020.2.10,Win32,60,,,,,,,,,,1,,,,,,,,,,,,,,,,,,,,,,,,,,,,,,,,,,,,,,,,15,regar,,,1,1,0.84925,0,30,30,14,1,REAL,FAKE,,,,,,,,,,,,,,,,,,,,,
,,,,,,,5f80bc44efa2c013099af460,605b45a4d25f287719a41696,605b86b904ba874e7f1ac081,Spain,Midwest,13 or older,no,2021-03-24_13h37.33.680,empathy_intonation_perc,2020.2.10,Win32,60,,,,,,,,,,1,,,,,,,,,,,,,,,,,,,,,,,,,,,,,,,,,,,,,,,,49,ganar,,,1,1,0.761565,0,31,31,48,1,REAL,FAKE,,,,,,,,,,,,,,,,,,,,,
,,,,,,,5f80bc44efa2c013099af460,605b45a4d25f287719a41696,605b86b904ba874e7f1ac081,Spain,Midwest,13 or older,no,2021-03-24_13h37.33.680,empathy_intonation_perc,2020.2.10,Win32,60,,,,,,,,,,1,,,,,,,,,,,,,,,,,,,,,,,,,,,,,,,,,,,,,,,,59,besar,,,1,1,2.096665,0,32,32,58,1,REAL,FAKE,,,,,,,,,,,,,,,,,,,,,
,,,,,,,5f80bc44efa2c013099af460,605b45a4d25f287719a41696,605b86b904ba874e7f1ac081,Spain,Midwest,13 or older,no,2021-03-24_13h37.33.680,empathy_intonation_perc,2020.2.10,Win32,60,,,,,,,,,,1,,,,,,,,,,,,,,,,,,,,,,,,,,,,,,,,,,,,,,,,56,musgo,,,0,0,0.7546,0,33,33,55,1,REAL,FAKE,,,,,,,,,,,,,,,,,,,,,
,,,,,,,5f80bc44efa2c013099af460,605b45a4d25f287719a41696,605b86b904ba874e7f1ac081,Spain,Midwest,13 or older,no,2021-03-24_13h37.33.680,empathy_intonation_perc,2020.2.10,Win32,60,,,,,,,,,,1,,,,,,,,,,,,,,,,,,,,,,,,,,,,,,,,,,,,,,,,64,orgulloso,,,0,0,0.694945,0,34,34,63,1,REAL,FAKE,,,,,,,,,,,,,,,,,,,,,
,,,,,,,5f80bc44efa2c013099af460,605b45a4d25f287719a41696,605b86b904ba874e7f1ac081,Spain,Midwest,13 or older,no,2021-03-24_13h37.33.680,empathy_intonation_perc,2020.2.10,Win32,60,,,,,,,,,,1,,,,,,,,,,,,,,,,,,,,,,,,,,,,,,,,,,,,,,,,28,merodear,,,0,0,0.869915,0,35,35,27,1,REAL,FAKE,,,,,,,,,,,,,,,,,,,,,
,,,,,,,5f80bc44efa2c013099af460,605b45a4d25f287719a41696,605b86b904ba874e7f1ac081,Spain,Midwest,13 or older,no,2021-03-24_13h37.33.680,empathy_intonation_perc,2020.2.10,Win32,60,,,,,,,,,,1,,,,,,,,,,,,,,,,,,,,,,,,,,,,,,,,,,,,,,,,38,estornudar,,,0,0,0.86239,0,36,36,37,1,REAL,FAKE,,,,,,,,,,,,,,,,,,,,,
,,,,,,,5f80bc44efa2c013099af460,605b45a4d25f287719a41696,605b86b904ba874e7f1ac081,Spain,Midwest,13 or older,no,2021-03-24_13h37.33.680,empathy_intonation_perc,2020.2.10,Win32,60,,,,,,,,,,0,,,,,,,,,,,,,,,,,,,,,,,,,,,,,,,,,,,,,,,,79,tropaje,,,0,1,1.147715,0,37,37,78,1,REAL,FAKE,,,,,,,,,,,,,,,,,,,,,
,,,,,,,5f80bc44efa2c013099af460,605b45a4d25f287719a41696,605b86b904ba874e7f1ac081,Spain,Midwest,13 or older,no,2021-03-24_13h37.33.680,empathy_intonation_perc,2020.2.10,Win32,60,,,,,,,,,,1,,,,,,,,,,,,,,,,,,,,,,,,,,,,,,,,,,,,,,,,75,yacer,,,0,0,0.84754,0,38,38,74,1,REAL,FAKE,,,,,,,,,,,,,,,,,,,,,
,,,,,,,5f80bc44efa2c013099af460,605b45a4d25f287719a41696,605b86b904ba874e7f1ac081,Spain,Midwest,13 or older,no,2021-03-24_13h37.33.680,empathy_intonation_perc,2020.2.10,Win32,60,,,,,,,,,,1,,,,,,,,,,,,,,,,,,,,,,,,,,,,,,,,,,,,,,,,81,pozo,,,0,0,1.220415,0,39,39,80,1,REAL,FAKE,,,,,,,,,,,,,,,,,,,,,
,,,,,,,5f80bc44efa2c013099af460,605b45a4d25f287719a41696,605b86b904ba874e7f1ac081,Spain,Midwest,13 or older,no,2021-03-24_13h37.33.680,empathy_intonation_perc,2020.2.10,Win32,60,,,,,,,,,,1,,,,,,,,,,,,,,,,,,,,,,,,,,,,,,,,,,,,,,,,86,barato,,,1,1,0.795095,0,40,40,85,1,REAL,FAKE,,,,,,,,,,,,,,,,,,,,,
,,,,,,,5f80bc44efa2c013099af460,605b45a4d25f287719a41696,605b86b904ba874e7f1ac081,Spain,Midwest,13 or older,no,2021-03-24_13h37.33.680,empathy_intonation_perc,2020.2.10,Win32,60,,,,,,,,,,1,,,,,,,,,,,,,,,,,,,,,,,,,,,,,,,,,,,,,,,,39,torpe,,,0,0,1.018015,0,41,41,38,1,REAL,FAKE,,,,,,,,,,,,,,,,,,,,,
,,,,,,,5f80bc44efa2c013099af460,605b45a4d25f287719a41696,605b86b904ba874e7f1ac081,Spain,Midwest,13 or older,no,2021-03-24_13h37.33.680,empathy_intonation_perc,2020.2.10,Win32,60,,,,,,,,,,1,,,,,,,,,,,,,,,,,,,,,,,,,,,,,,,,,,,,,,,,2,pellizcar,,,0,0,0.79434,0,42,42,1,1,REAL,FAKE,,,,,,,,,,,,,,,,,,,,,
,,,,,,,5f80bc44efa2c013099af460,605b45a4d25f287719a41696,605b86b904ba874e7f1ac081,Spain,Midwest,13 or older,no,2021-03-24_13h37.33.680,empathy_intonation_perc,2020.2.10,Win32,60,,,,,,,,,,1,,,,,,,,,,,,,,,,,,,,,,,,,,,,,,,,,,,,,,,,13,helar,,,0,0,0.996665,0,43,43,12,1,REAL,FAKE,,,,,,,,,,,,,,,,,,,,,
,,,,,,,5f80bc44efa2c013099af460,605b45a4d25f287719a41696,605b86b904ba874e7f1ac081,Spain,Midwest,13 or older,no,2021-03-24_13h37.33.680,empathy_intonation_perc,2020.2.10,Win32,60,,,,,,,,,,1,,,,,,,,,,,,,,,,,,,,,,,,,,,,,,,,,,,,,,,,83,guante,,,1,1,1.19874,0,44,44,82,1,REAL,FAKE,,,,,,,,,,,,,,,,,,,,,
,,,,,,,5f80bc44efa2c013099af460,605b45a4d25f287719a41696,605b86b904ba874e7f1ac081,Spain,Midwest,13 or older,no,2021-03-24_13h37.33.680,empathy_intonation_perc,2020.2.10,Win32,60,,,,,,,,,,1,,,,,,,,,,,,,,,,,,,,,,,,,,,,,,,,,,,,,,,,3,pulmones,,,0,0,1.41442,0,45,45,2,1,REAL,FAKE,,,,,,,,,,,,,,,,,,,,,
,,,,,,,5f80bc44efa2c013099af460,605b45a4d25f287719a41696,605b86b904ba874e7f1ac081,Spain,Midwest,13 or older,no,2021-03-24_13h37.33.680,empathy_intonation_perc,2020.2.10,Win32,60,,,,,,,,,,1,,,,,,,,,,,,,,,,,,,,,,,,,,,,,,,,,,,,,,,,76,atar,,,1,1,1.51771,0,46,46,75,1,REAL,FAKE,,,,,,,,,,,,,,,,,,,,,
,,,,,,,5f80bc44efa2c013099af460,605b45a4d25f287719a41696,605b86b904ba874e7f1ac081,Spain,Midwest,13 or older,no,2021-03-24_13h37.33.680,empathy_intonation_perc,2020.2.10,Win32,60,,,,,,,,,,1,,,,,,,,,,,,,,,,,,,,,,,,,,,,,,,,,,,,,,,,26,secuestro,,,1,1,1.11453,0,47,47,25,1,REAL,FAKE,,,,,,,,,,,,,,,,,,,,,
,,,,,,,5f80bc44efa2c013099af460,605b45a4d25f287719a41696,605b86b904ba874e7f1ac081,Spain,Midwest,13 or older,no,2021-03-24_13h37.33.680,empathy_intonation_perc,2020.2.10,Win32,60,,,,,,,,,,0,,,,,,,,,,,,,,,,,,,,,,,,,,,,,,,,,,,,,,,,18,arsa,,,0,1,1.046855,0,48,48,17,1,REAL,FAKE,,,,,,,,,,,,,,,,,,,,,
,,,,,,,5f80bc44efa2c013099af460,605b45a4d25f287719a41696,605b86b904ba874e7f1ac081,Spain,Midwest,13 or older,no,2021-03-24_13h37.33.680,empathy_intonation_perc,2020.2.10,Win32,60,,,,,,,,,,1,,,,,,,,,,,,,,,,,,,,,,,,,,,,,,,,,,,,,,,,22,lacayo,,,0,0,0.7296,0,49,49,21,1,REAL,FAKE,,,,,,,,,,,,,,,,,,,,,
,,,,,,,5f80bc44efa2c013099af460,605b45a4d25f287719a41696,605b86b904ba874e7f1ac081,Spain,Midwest,13 or older,no,2021-03-24_13h37.33.680,empathy_intonation_perc,2020.2.10,Win32,60,,,,,,,,,,0,,,,,,,,,,,,,,,,,,,,,,,,,,,,,,,,,,,,,,,,21,capillo,,,1,0,1.15561,0,50,50,20,1,REAL,FAKE,,,,,,,,,,,,,,,,,,,,,
,,,,,,,5f80bc44efa2c013099af460,605b45a4d25f287719a41696,605b86b904ba874e7f1ac081,Spain,Midwest,13 or older,no,2021-03-24_13h37.33.680,empathy_intonation_perc,2020.2.10,Win32,60,,,,,,,,,,1,,,,,,,,,,,,,,,,,,,,,,,,,,,,,,,,,,,,,,,,60,matar,,,0,0,0.83352,0,51,51,59,1,REAL,FAKE,,,,,,,,,,,,,,,,,,,,,
,,,,,,,5f80bc44efa2c013099af460,605b45a4d25f287719a41696,605b86b904ba874e7f1ac081,Spain,Midwest,13 or older,no,2021-03-24_13h37.33.680,empathy_intonation_perc,2020.2.10,Win32,60,,,,,,,,,,1,,,,,,,,,,,,,,,,,,,,,,,,,,,,,,,,,,,,,,,,85,lad,,,0,0,0.898145,0,52,52,84,1,REAL,FAKE,,,,,,,,,,,,,,,,,,,,,
,,,,,,,5f80bc44efa2c013099af460,605b45a4d25f287719a41696,605b86b904ba874e7f1ac081,Spain,Midwest,13 or older,no,2021-03-24_13h37.33.680,empathy_intonation_perc,2020.2.10,Win32,60,,,,,,,,,,1,,,,,,,,,,,,,,,,,,,,,,,,,,,,,,,,,,,,,,,,7,psimo,,,0,0,1.31493,0,53,53,6,1,REAL,FAKE,,,,,,,,,,,,,,,,,,,,,
,,,,,,,5f80bc44efa2c013099af460,605b45a4d25f287719a41696,605b86b904ba874e7f1ac081,Spain,Midwest,13 or older,no,2021-03-24_13h37.33.680,empathy_intonation_perc,2020.2.10,Win32,60,,,,,,,,,,0,,,,,,,,,,,,,,,,,,,,,,,,,,,,,,,,,,,,,,,,23,lampera,,,0,1,0.720595,0,54,54,22,1,REAL,FAKE,,,,,,,,,,,,,,,,,,,,,
,,,,,,,5f80bc44efa2c013099af460,605b45a4d25f287719a41696,605b86b904ba874e7f1ac081,Spain,Midwest,13 or older,no,2021-03-24_13h37.33.680,empathy_intonation_perc,2020.2.10,Win32,60,,,,,,,,,,0,,,,,,,,,,,,,,,,,,,,,,,,,,,,,,,,,,,,,,,,33,pauca,,,0,1,0.6028,0,55,55,32,1,REAL,FAKE,,,,,,,,,,,,,,,,,,,,,
,,,,,,,5f80bc44efa2c013099af460,605b45a4d25f287719a41696,605b86b904ba874e7f1ac081,Spain,Midwest,13 or older,no,2021-03-24_13h37.33.680,empathy_intonation_perc,2020.2.10,Win32,60,,,,,,,,,,0,,,,,,,,,,,,,,,,,,,,,,,,,,,,,,,,,,,,,,,,27,acutacin,,,0,1,1.1319,0,56,56,26,1,REAL,FAKE,,,,,,,,,,,,,,,,,,,,,
,,,,,,,5f80bc44efa2c013099af460,605b45a4d25f287719a41696,605b86b904ba874e7f1ac081,Spain,Midwest,13 or older,no,2021-03-24_13h37.33.680,empathy_intonation_perc,2020.2.10,Win32,60,,,,,,,,,,1,,,,,,,,,,,,,,,,,,,,,,,,,,,,,,,,,,,,,,,,31,pandilla,,,0,0,1.598055,0,57,57,30,1,REAL,FAKE,,,,,,,,,,,,,,,,,,,,,
,,,,,,,5f80bc44efa2c013099af460,605b45a4d25f287719a41696,605b86b904ba874e7f1ac081,Spain,Midwest,13 or older,no,2021-03-24_13h37.33.680,empathy_intonation_perc,2020.2.10,Win32,60,,,,,,,,,,1,,,,,,,,,,,,,,,,,,,,,,,,,,,,,,,,,,,,,,,,71,polvoriento,,,0,0,0.815095,0,58,58,70,1,REAL,FAKE,,,,,,,,,,,,,,,,,,,,,
,,,,,,,5f80bc44efa2c013099af460,605b45a4d25f287719a41696,605b86b904ba874e7f1ac081,Spain,Midwest,13 or older,no,2021-03-24_13h37.33.680,empathy_intonation_perc,2020.2.10,Win32,60,,,,,,,,,,0,,,,,,,,,,,,,,,,,,,,,,,,,,,,,,,,,,,,,,,,16,abracer,,,0,1,1.48755,0,59,59,15,1,REAL,FAKE,,,,,,,,,,,,,,,,,,,,,
,,,,,,,5f80bc44efa2c013099af460,605b45a4d25f287719a41696,605b86b904ba874e7f1ac081,Spain,Midwest,13 or older,no,2021-03-24_13h37.33.680,empathy_intonation_perc,2020.2.10,Win32,60,,,,,,,,,,1,,,,,,,,,,,,,,,,,,,,,,,,,,,,,,,,,,,,,,,,51,candado,,,0,0,1.07549,0,60,60,50,1,REAL,FAKE,,,,,,,,,,,,,,,,,,,,,
,,,,,,,5f80bc44efa2c013099af460,605b45a4d25f287719a41696,605b86b904ba874e7f1ac081,Spain,Midwest,13 or older,no,2021-03-24_13h37.33.680,empathy_intonation_perc,2020.2.10,Win32,60,,,,,,,,,,1,,,,,,,,,,,,,,,,,,,,,,,,,,,,,,,,,,,,,,,,48,ladrn,,,1,1,0.95288,0,61,61,47,1,REAL,FAKE,,,,,,,,,,,,,,,,,,,,,
,,,,,,,5f80bc44efa2c013099af460,605b45a4d25f287719a41696,605b86b904ba874e7f1ac081,Spain,Midwest,13 or older,no,2021-03-24_13h37.33.680,empathy_intonation_perc,2020.2.10,Win32,60,,,,,,,,,,1,,,,,,,,,,,,,,,,,,,,,,,,,,,,,,,,,,,,,,,,34,aviso,,,0,0,0.959315,0,62,62,33,1,REAL,FAKE,,,,,,,,,,,,,,,,,,,,,
,,,,,,,5f80bc44efa2c013099af460,605b45a4d25f287719a41696,605b86b904ba874e7f1ac081,Spain,Midwest,13 or older,no,2021-03-24_13h37.33.680,empathy_intonation_perc,2020.2.10,Win32,60,,,,,,,,,,0,,,,,,,,,,,,,,,,,,,,,,,,,,,,,,,,,,,,,,,,10,antar,,,0,1,1.098195,0,63,63,9,1,REAL,FAKE,,,,,,,,,,,,,,,,,,,,,
,,,,,,,5f80bc44efa2c013099af460,605b45a4d25f287719a41696,605b86b904ba874e7f1ac081,Spain,Midwest,13 or older,no,2021-03-24_13h37.33.680,empathy_intonation_perc,2020.2.10,Win32,60,,,,,,,,,,0,,,,,,,,,,,,,,,,,,,,,,,,,,,,,,,,,,,,,,,,29,decar,,,1,0,1.13593,0,64,64,28,1,REAL,FAKE,,,,,,,,,,,,,,,,,,,,,
,,,,,,,5f80bc44efa2c013099af460,605b45a4d25f287719a41696,605b86b904ba874e7f1ac081,Spain,Midwest,13 or older,no,2021-03-24_13h37.33.680,empathy_intonation_perc,2020.2.10,Win32,60,,,,,,,,,,0,,,,,,,,,,,,,,,,,,,,,,,,,,,,,,,,,,,,,,,,58,plaudir,,,0,1,1.498805,0,65,65,57,1,REAL,FAKE,,,,,,,,,,,,,,,,,,,,,
,,,,,,,5f80bc44efa2c013099af460,605b45a4d25f287719a41696,605b86b904ba874e7f1ac081,Spain,Midwest,13 or older,no,2021-03-24_13h37.33.680,empathy_intonation_perc,2020.2.10,Win32,60,,,,,,,,,,1,,,,,,,,,,,,,,,,,,,,,,,,,,,,,,,,,,,,,,,,67,cabello,,,1,1,0.882475,0,66,66,66,1,REAL,FAKE,,,,,,,,,,,,,,,,,,,,,
,,,,,,,5f80bc44efa2c013099af460,605b45a4d25f287719a41696,605b86b904ba874e7f1ac081,Spain,Midwest,13 or older,no,2021-03-24_13h37.33.680,empathy_intonation_perc,2020.2.10,Win32,60,,,,,,,,,,0,,,,,,,,,,,,,,,,,,,,,,,,,,,,,,,,,,,,,,,,42,cadallo,,,0,1,0.947295,0,67,67,41,1,REAL,FAKE,,,,,,,,,,,,,,,,,,,,,
,,,,,,,5f80bc44efa2c013099af460,605b45a4d25f287719a41696,605b86b904ba874e7f1ac081,Spain,Midwest,13 or older,no,2021-03-24_13h37.33.680,empathy_intonation_perc,2020.2.10,Win32,60,,,,,,,,,,1,,,,,,,,,,,,,,,,,,,,,,,,,,,,,,,,,,,,,,,,44,cuchara,,,1,1,1.16667,0,68,68,43,1,REAL,FAKE,,,,,,,,,,,,,,,,,,,,,
,,,,,,,5f80bc44efa2c013099af460,605b45a4d25f287719a41696,605b86b904ba874e7f1ac081,Spain,Midwest,13 or older,no,2021-03-24_13h37.33.680,empathy_intonation_perc,2020.2.10,Win32,60,,,,,,,,,,1,,,,,,,,,,,,,,,,,,,,,,,,,,,,,,,,,,,,,,,,12,asesinato,,,0,0,0.8622,0,69,69,11,1,REAL,FAKE,,,,,,,,,,,,,,,,,,,,,
,,,,,,,5f80bc44efa2c013099af460,605b45a4d25f287719a41696,605b86b904ba874e7f1ac081,Spain,Midwest,13 or older,no,2021-03-24_13h37.33.680,empathy_intonation_perc,2020.2.10,Win32,60,,,,,,,,,,1,,,,,,,,,,,,,,,,,,,,,,,,,,,,,,,,,,,,,,,,24,ltigo,,,0,0,1.097965,0,70,70,23,1,REAL,FAKE,,,,,,,,,,,,,,,,,,,,,
,,,,,,,5f80bc44efa2c013099af460,605b45a4d25f287719a41696,605b86b904ba874e7f1ac081,Spain,Midwest,13 or older,no,2021-03-24_13h37.33.680,empathy_intonation_perc,2020.2.10,Win32,60,,,,,,,,,,0,,,,,,,,,,,,,,,,,,,,,,,,,,,,,,,,,,,,,,,,19,brecedad,,,0,1,0.8299,0,71,71,18,1,REAL,FAKE,,,,,,,,,,,,,,,,,,,,,
,,,,,,,5f80bc44efa2c013099af460,605b45a4d25f287719a41696,605b86b904ba874e7f1ac081,Spain,Midwest,13 or older,no,2021-03-24_13h37.33.680,empathy_intonation_perc,2020.2.10,Win32,60,,,,,,,,,,1,,,,,,,,,,,,,,,,,,,,,,,,,,,,,,,,,,,,,,,,11,cenefa,,,0,0,0.71389,0,72,72,10,1,REAL,FAKE,,,,,,,,,,,,,,,,,,,,,
,,,,,,,5f80bc44efa2c013099af460,605b45a4d25f287719a41696,605b86b904ba874e7f1ac081,Spain,Midwest,13 or older,no,2021-03-24_13h37.33.680,empathy_intonation_perc,2020.2.10,Win32,60,,,,,,,,,,1,,,,,,,,,,,,,,,,,,,,,,,,,,,,,,,,,,,,,,,,90,clavel,,,0,0,1.104065,0,73,73,89,1,REAL,FAKE,,,,,,,,,,,,,,,,,,,,,
,,,,,,,5f80bc44efa2c013099af460,605b45a4d25f287719a41696,605b86b904ba874e7f1ac081,Spain,Midwest,13 or older,no,2021-03-24_13h37.33.680,empathy_intonation_perc,2020.2.10,Win32,60,,,,,,,,,,1,,,,,,,,,,,,,,,,,,,,,,,,,,,,,,,,,,,,,,,,37,granuja,,,0,0,1.04989,0,74,74,36,1,REAL,FAKE,,,,,,,,,,,,,,,,,,,,,
,,,,,,,5f80bc44efa2c013099af460,605b45a4d25f287719a41696,605b86b904ba874e7f1ac081,Spain,Midwest,13 or older,no,2021-03-24_13h37.33.680,empathy_intonation_perc,2020.2.10,Win32,60,,,,,,,,,,1,,,,,,,,,,,,,,,,,,,,,,,,,,,,,,,,,,,,,,,,6,tergiversar,,,0,0,0.75204,0,75,75,5,1,REAL,FAKE,,,,,,,,,,,,,,,,,,,,,
,,,,,,,5f80bc44efa2c013099af460,605b45a4d25f287719a41696,605b86b904ba874e7f1ac081,Spain,Midwest,13 or older,no,2021-03-24_13h37.33.680,empathy_intonation_perc,2020.2.10,Win32,60,,,,,,,,,,1,,,,,,,,,,,,,,,,,,,,,,,,,,,,,,,,,,,,,,,,57,tacao,,,1,1,1.899245,0,76,76,56,1,REAL,FAKE,,,,,,,,,,,,,,,,,,,,,
,,,,,,,5f80bc44efa2c013099af460,605b45a4d25f287719a41696,605b86b904ba874e7f1ac081,Spain,Midwest,13 or older,no,2021-03-24_13h37.33.680,empathy_intonation_perc,2020.2.10,Win32,60,,,,,,,,,,1,,,,,,,,,,,,,,,,,,,,,,,,,,,,,,,,,,,,,,,,14,yunque,,,0,0,0.66795,0,77,77,13,1,REAL,FAKE,,,,,,,,,,,,,,,,,,,,,
,,,,,,,5f80bc44efa2c013099af460,605b45a4d25f287719a41696,605b86b904ba874e7f1ac081,Spain,Midwest,13 or older,no,2021-03-24_13h37.33.680,empathy_intonation_perc,2020.2.10,Win32,60,,,,,,,,,,1,,,,,,,,,,,,,,,,,,,,,,,,,,,,,,,,,,,,,,,,68,alegre,,,0,0,1.29661,0,78,78,67,1,REAL,FAKE,,,,,,,,,,,,,,,,,,,,,
,,,,,,,5f80bc44efa2c013099af460,605b45a4d25f287719a41696,605b86b904ba874e7f1ac081,Spain,Midwest,13 or older,no,2021-03-24_13h37.33.680,empathy_intonation_perc,2020.2.10,Win32,60,,,,,,,,,,1,,,,,,,,,,,,,,,,,,,,,,,,,,,,,,,,,,,,,,,,78,frondoso,,,0,0,0.63955,0,79,79,77,1,REAL,FAKE,,,,,,,,,,,,,,,,,,,,,
,,,,,,,5f80bc44efa2c013099af460,605b45a4d25f287719a41696,605b86b904ba874e7f1ac081,Spain,Midwest,13 or older,no,2021-03-24_13h37.33.680,empathy_intonation_perc,2020.2.10,Win32,60,,,,,,,,,,1,,,,,,,,,,,,,,,,,,,,,,,,,,,,,,,,,,,,,,,,25,bisagra,,,0,0,0.738265,0,80,80,24,1,REAL,FAKE,,,,,,,,,,,,,,,,,,,,,
,,,,,,,5f80bc44efa2c013099af460,605b45a4d25f287719a41696,605b86b904ba874e7f1ac081,Spain,Midwest,13 or older,no,2021-03-24_13h37.33.680,empathy_intonation_perc,2020.2.10,Win32,60,,,,,,,,,,0,,,,,,,,,,,,,,,,,,,,,,,,,,,,,,,,,,,,,,,,4,batilln,,,0,1,0.88157,0,81,81,3,1,REAL,FAKE,,,,,,,,,,,,,,,,,,,,,
,,,,,,,5f80bc44efa2c013099af460,605b45a4d25f287719a41696,605b86b904ba874e7f1ac081,Spain,Midwest,13 or older,no,2021-03-24_13h37.33.680,empathy_intonation_perc,2020.2.10,Win32,60,,,,,,,,,,1,,,,,,,,,,,,,,,,,,,,,,,,,,,,,,,,,,,,,,,,62,flaco,,,0,0,1.198365,0,82,82,61,1,REAL,FAKE,,,,,,,,,,,,,,,,,,,,,
,,,,,,,5f80bc44efa2c013099af460,605b45a4d25f287719a41696,605b86b904ba874e7f1ac081,Spain,Midwest,13 or older,no,2021-03-24_13h37.33.680,empathy_intonation_perc,2020.2.10,Win32,60,,,,,,,,,,0,,,,,,,,,,,,,,,,,,,,,,,,,,,,,,,,,,,,,,,,30,alardio,,,0,1,0.764755,0,83,83,29,1,REAL,FAKE,,,,,,,,,,,,,,,,,,,,,
,,,,,,,5f80bc44efa2c013099af460,605b45a4d25f287719a41696,605b86b904ba874e7f1ac081,Spain,Midwest,13 or older,no,2021-03-24_13h37.33.680,empathy_intonation_perc,2020.2.10,Win32,60,,,,,,,,,,1,,,,,,,,,,,,,,,,,,,,,,,,,,,,,,,,,,,,,,,,36,loro,,,0,0,0.964465,0,84,84,35,1,REAL,FAKE,,,,,,,,,,,,,,,,,,,,,
,,,,,,,5f80bc44efa2c013099af460,605b45a4d25f287719a41696,605b86b904ba874e7f1ac081,Spain,Midwest,13 or older,no,2021-03-24_13h37.33.680,empathy_intonation_perc,2020.2.10,Win32,60,,,,,,,,,,1,,,,,,,,,,,,,,,,,,,,,,,,,,,,,,,,,,,,,,,,41,rebuscar,,,0,0,0.832905,0,85,85,40,1,REAL,FAKE,,,,,,,,,,,,,,,,,,,,,
,,,,,,,5f80bc44efa2c013099af460,605b45a4d25f287719a41696,605b86b904ba874e7f1ac081,Spain,Midwest,13 or older,no,2021-03-24_13h37.33.680,empathy_intonation_perc,2020.2.10,Win32,60,,,,,,,,,,1,,,,,,,,,,,,,,,,,,,,,,,,,,,,,,,,,,,,,,,,89,prisa,,,0,0,1.03241,0,86,86,88,1,REAL,FAKE,,,,,,,,,,,,,,,,,,,,,
,,,,,,,5f80bc44efa2c013099af460,605b45a4d25f287719a41696,605b86b904ba874e7f1ac081,Spain,Midwest,13 or older,no,2021-03-24_13h37.33.680,empathy_intonation_perc,2020.2.10,Win32,60,,,,,,,,,,0,,,,,,,,,,,,,,,,,,,,,,,,,,,,,,,,,,,,,,,,53,vegada,,,0,1,0.939205,0,87,87,52,1,REAL,FAKE,,,,,,,,,,,,,,,,,,,,,
,,,,,,,5f80bc44efa2c013099af460,605b45a4d25f287719a41696,605b86b904ba874e7f1ac081,Spain,Midwest,13 or older,no,2021-03-24_13h37.33.680,empathy_intonation_perc,2020.2.10,Win32,60,,,,,,,,,,1,,,,,,,,,,,,,,,,,,,,,,,,,,,,,,,,,,,,,,,,54,fomentar,,,0,0,1.08194,0,88,88,53,1,REAL,FAKE,,,,,,,,,,,,,,,,,,,,,
,,,,,,,5f80bc44efa2c013099af460,605b45a4d25f287719a41696,605b86b904ba874e7f1ac081,Spain,Midwest,13 or older,no,2021-03-24_13h37.33.680,empathy_intonation_perc,2020.2.10,Win32,60,,,,,,,,,,1,,,,,,,,,,,,,,,,,,,,,,,,,,,,,,,,,,,,,,,,77,tiburn,,,0,0,0.99996,0,89,89,76,1,REAL,FAKE,,,,,,,,,,,,,,,,,,,,,
,,,,,,,5f80bc44efa2c013099af460,605b45a4d25f287719a41696,605b86b904ba874e7f1ac081,Spain,Midwest,13 or older,no,2021-03-24_13h37.33.680,empathy_intonation_perc,2020.2.10,Win32,60,,,,,,,,,,,,,,,,,,,,,,,,,,,,,,,,,,,,,,,,,,,,,,,,,,,,,,,,,,,,,,,,4,1,2.221885,1,0,0,0,0,0,1,,,,,,,,,,,
,,,,,,,5f80bc44efa2c013099af460,605b45a4d25f287719a41696,605b86b904ba874e7f1ac081,Spain,Midwest,13 or older,no,2021-03-24_13h37.33.680,empathy_intonation_perc,2020.2.10,Win32,60,,,,,,,,,,,,,,,,,,,,1,,,,,,,,,,,,,,,,,,,,,,,,,,,,,,,,,,,,,,,,,,,,,,,,,,,,,,3,0,0,0,0,1,I can easily tell if someone else wants to enter a conversation.,1,0,1,0
,,,,,,,5f80bc44efa2c013099af460,605b45a4d25f287719a41696,605b86b904ba874e7f1ac081,Spain,Midwest,13 or older,no,2021-03-24_13h37.33.680,empathy_intonation_perc,2020.2.10,Win32,60,,,,,,,,,,,,,,,,,,,,2,,,,,,,,,,,,,,,,,,,,,,,,,,,,,,,,,,,,,,,,,,,,,,,,,,,,,,4,0,1,1,1,1,I prefer animals to humans.,0,1,0,0
,,,,,,,5f80bc44efa2c013099af460,605b45a4d25f287719a41696,605b86b904ba874e7f1ac081,Spain,Midwest,13 or older,no,2021-03-24_13h37.33.680,empathy_intonation_perc,2020.2.10,Win32,60,,,,,,,,,,,,,,,,,,,,3,,,,,,,,,,,,,,,,,,,,,,,,,,,,,,,,,,,,,,,,,,,,,,,,,,,,,,5,0,2,2,2,1,I try to keep up with the current trends and fashions.,0,1,0,0
,,,,,,,5f80bc44efa2c013099af460,605b45a4d25f287719a41696,605b86b904ba874e7f1ac081,Spain,Midwest,13 or older,no,2021-03-24_13h37.33.680,empathy_intonation_perc,2020.2.10,Win32,60,,,,,,,,,,,,,,,,,,,,4,,,,,,,,,,,,,,,,,,,,,,,,,,,,,,,,,,,,,,,,,,,,,,,,,,,,,,3,0,3,3,3,1,"I find it difficult to explain to others things that I understand easily, 
  when they dont understand it first time.",1,0,0,1
,,,,,,,5f80bc44efa2c013099af460,605b45a4d25f287719a41696,605b86b904ba874e7f1ac081,Spain,Midwest,13 or older,no,2021-03-24_13h37.33.680,empathy_intonation_perc,2020.2.10,Win32,60,,,,,,,,,,,,,,,,,,,,5,,,,,,,,,,,,,,,,,,,,,,,,,,,,,,,,,,,,,,,,,,,,,,,,,,,,,,3,0,4,4,4,1,I dream most nights.,0,1,0,0
,,,,,,,5f80bc44efa2c013099af460,605b45a4d25f287719a41696,605b86b904ba874e7f1ac081,Spain,Midwest,13 or older,no,2021-03-24_13h37.33.680,empathy_intonation_perc,2020.2.10,Win32,60,,,,,,,,,,,,,,,,,,,,6,,,,,,,,,,,,,,,,,,,,,,,,,,,,,,,,,,,,,,,,,,,,,,,,,,,,,,5,0,5,5,5,1,I really enjoy caring for other people.,1,0,1,0
,,,,,,,5f80bc44efa2c013099af460,605b45a4d25f287719a41696,605b86b904ba874e7f1ac081,Spain,Midwest,13 or older,no,2021-03-24_13h37.33.680,empathy_intonation_perc,2020.2.10,Win32,60,,,,,,,,,,,,,,,,,,,,7,,,,,,,,,,,,,,,,,,,,,,,,,,,,,,,,,,,,,,,,,,,,,,,,,,,,,,1,0,6,6,6,1,I try to solve my own problems rather than discussing them with others.,0,1,0,0
,,,,,,,5f80bc44efa2c013099af460,605b45a4d25f287719a41696,605b86b904ba874e7f1ac081,Spain,Midwest,13 or older,no,2021-03-24_13h37.33.680,empathy_intonation_perc,2020.2.10,Win32,60,,,,,,,,,,,,,,,,,,,,8,,,,,,,,,,,,,,,,,,,,,,,,,,,,,,,,,,,,,,,,,,,,,,,,,,,,,,1,0,7,7,7,1,I find it hard to know what to do in a social situation.,1,0,0,1
,,,,,,,5f80bc44efa2c013099af460,605b45a4d25f287719a41696,605b86b904ba874e7f1ac081,Spain,Midwest,13 or older,no,2021-03-24_13h37.33.680,empathy_intonation_perc,2020.2.10,Win32,60,,,,,,,,,,,,,,,,,,,,9,,,,,,,,,,,,,,,,,,,,,,,,,,,,,,,,,,,,,,,,,,,,,,,,,,,,,,1,0,8,8,8,1,I am at my best first thing in the morning.,0,1,0,0
