instructions_2afc_loop.thisRepN,instructions_2afc_loop.thisTrialN,instructions_2afc_loop.thisN,instructions_2afc_loop.thisIndex,instructions_2afc_loop.ran,instructions_text,continue_text,participant,study_id,session,I am most familiar with Spanish from...*,What part of the US are you from?*,At what age did you begin learning Spanish?*,Are you proficient in any languages other than English/Spanish?*,date,expName,psychopyVersion,OS,frameRate,key_resp_2afc_practice.keys,key_resp_2afc_practice.corr,key_resp_2afc_practice.rt,trials_2afc_practice_loop.thisRepN,trials_2afc_practice_loop.thisTrialN,trials_2afc_practice_loop.thisN,trials_2afc_practice_loop.thisIndex,trials_2afc_practice_loop.ran,path,correct_response,the_col,key_resp_2afc_trial.keys,key_resp_2afc_trial.corr,key_resp_2afc_trial.rt,trials_2afc_loop.thisRepN,trials_2afc_loop.thisTrialN,trials_2afc_loop.thisN,trials_2afc_loop.thisIndex,trials_2afc_loop.ran,item_num,andalusian,argentine,castilian,chilean,cuban,mexican,peruvian,puertorican,key_resp_ac1.keys,key_resp_ac1.corr,key_resp_ac1.rt,ac1_loop.thisRepN,ac1_loop.thisTrialN,ac1_loop.thisN,ac1_loop.thisIndex,ac1_loop.ran,instructions_lextale_loop.thisRepN,instructions_lextale_loop.thisTrialN,instructions_lextale_loop.thisN,instructions_lextale_loop.thisIndex,instructions_lextale_loop.ran,key_resp_lextale_practice.keys,key_resp_lextale_practice.corr,key_resp_lextale_practice.rt,trials_lextale_practice_loop.thisRepN,trials_lextale_practice_loop.thisTrialN,trials_lextale_practice_loop.thisN,trials_lextale_practice_loop.thisIndex,trials_lextale_practice_loop.ran,stim,word,prac_button_real,prac_button_false,key_resp_lextale_trial.keys,key_resp_lextale_trial.corr,key_resp_lextale_trial.rt,trials_lextale_loop.thisRepN,trials_lextale_loop.thisTrialN,trials_lextale_loop.thisN,trials_lextale_loop.thisIndex,trials_lextale_loop.ran,button_real,button_false,key_resp_ac2.keys,key_resp_ac2.corr,key_resp_ac2.rt,check_pass,check_fails,ac2_loop.thisRepN,ac2_loop.thisTrialN,ac2_loop.thisN,ac2_loop.thisIndex,ac2_loop.ran,slider_eq_trial.response,trials_eq_loop.thisRepN,trials_eq_loop.thisTrialN,trials_eq_loop.thisN,trials_eq_loop.thisIndex,trials_eq_loop.ran,item,is_test_item,is_distractor,is_agree_score,is_disagree_score
0,0,0,0,1,"In the following task you are going to hear a series of utterances. 

  You will decide if the utterances sound like questions or not using your keyboard.",(press the spacebar to continue),5f865e9ac5be471b63865294,605b45a4d25f287719a41696,605be6ef4a11ffaba3d7c3e5,United States,East coast,13 or older,no,2021-03-24_21h37.02.662,empathy_intonation_perc,2020.2.10,Win32,60,,,,,,,,,,,,,,,,,,,,,,,,,,,,,,,,,,,,,,,,,,,,,,,,,,,,,,,,,,,,,,,,,,,,,,,,,,,,,,,,,,,,
0,1,1,1,1,"If you believe the utterance is a question, type '1' (for 'yes') and if you do not 
  believe it is a question type '0' (for 'no').

  Let's practice a bit...",(press the spacebar to continue),5f865e9ac5be471b63865294,605b45a4d25f287719a41696,605be6ef4a11ffaba3d7c3e5,United States,East coast,13 or older,no,2021-03-24_21h37.02.662,empathy_intonation_perc,2020.2.10,Win32,60,,,,,,,,,,,,,,,,,,,,,,,,,,,,,,,,,,,,,,,,,,,,,,,,,,,,,,,,,,,,,,,,,,,,,,,,,,,,,,,,,,,,
,,,,,,,5f865e9ac5be471b63865294,605b45a4d25f287719a41696,605be6ef4a11ffaba3d7c3e5,United States,East coast,13 or older,no,2021-03-24_21h37.02.662,empathy_intonation_perc,2020.2.10,Win32,60,1,1,5.82003,0,0,0,3,1,./stim/wavs/mexican_question_filler_Felipe-no-tiene-contrasena.wav,1,,,,,,,,,,,,,,,,,,,,,,,,,,,,,,,,,,,,,,,,,,,,,,,,,,,,,,,,,,,,,,,,,,,,,,,,,,
,,,,,,,5f865e9ac5be471b63865294,605b45a4d25f287719a41696,605be6ef4a11ffaba3d7c3e5,United States,East coast,13 or older,no,2021-03-24_21h37.02.662,empathy_intonation_perc,2020.2.10,Win32,60,0,1,8.34787,0,1,1,6,1,./stim/wavs/peruvian_statement_filler_El-nino-habla-con-su-madre.wav,0,,,,,,,,,,,,,,,,,,,,,,,,,,,,,,,,,,,,,,,,,,,,,,,,,,,,,,,,,,,,,,,,,,,,,,,,,,
,,,,,,,5f865e9ac5be471b63865294,605b45a4d25f287719a41696,605be6ef4a11ffaba3d7c3e5,United States,East coast,13 or older,no,2021-03-24_21h37.02.662,empathy_intonation_perc,2020.2.10,Win32,60,1,0,5.93805,0,2,2,4,1,./stim/wavs/cuban_statement_filler_Cocinabas-por-la-noche.wav,0,,,,,,,,,,,,,,,,,,,,,,,,,,,,,,,,,,,,,,,,,,,,,,,,,,,,,,,,,,,,,,,,,,,,,,,,,,
,,,,,,,5f865e9ac5be471b63865294,605b45a4d25f287719a41696,605be6ef4a11ffaba3d7c3e5,United States,East coast,13 or older,no,2021-03-24_21h37.02.662,empathy_intonation_perc,2020.2.10,Win32,60,0,1,4.42612,0,3,3,7,1,./stim/wavs/puertorican_statement_filler_La-nina-pinta-con-su-amiga.wav,0,,,,,,,,,,,,,,,,,,,,,,,,,,,,,,,,,,,,,,,,,,,,,,,,,,,,,,,,,,,,,,,,,,,,,,,,,,
,,,,,,,5f865e9ac5be471b63865294,605b45a4d25f287719a41696,605be6ef4a11ffaba3d7c3e5,United States,East coast,13 or older,no,2021-03-24_21h37.02.662,empathy_intonation_perc,2020.2.10,Win32,60,1,1,3.70363,0,4,4,0,1,./stim/wavs/castilian_question_filler_Mi-esposo-conoce-al-chico.wav,1,,,,,,,,,,,,,,,,,,,,,,,,,,,,,,,,,,,,,,,,,,,,,,,,,,,,,,,,,,,,,,,,,,,,,,,,,,
,,,,,,,5f865e9ac5be471b63865294,605b45a4d25f287719a41696,605be6ef4a11ffaba3d7c3e5,United States,East coast,13 or older,no,2021-03-24_21h37.02.662,empathy_intonation_perc,2020.2.10,Win32,60,0,0,1.810185,0,5,5,1,1,./stim/wavs/argentine_question_filler_Mi-vecino-habla-mucho.wav,1,,,,,,,,,,,,,,,,,,,,,,,,,,,,,,,,,,,,,,,,,,,,,,,,,,,,,,,,,,,,,,,,,,,,,,,,,,
,,,,,,,5f865e9ac5be471b63865294,605b45a4d25f287719a41696,605be6ef4a11ffaba3d7c3e5,United States,East coast,13 or older,no,2021-03-24_21h37.02.662,empathy_intonation_perc,2020.2.10,Win32,60,0,1,1.67969,0,6,6,5,1,./stim/wavs/andalusian_statement_filler_Alberto-nunca-se-afeita.wav,0,,,,,,,,,,,,,,,,,,,,,,,,,,,,,,,,,,,,,,,,,,,,,,,,,,,,,,,,,,,,,,,,,,,,,,,,,,
,,,,,,,5f865e9ac5be471b63865294,605b45a4d25f287719a41696,605be6ef4a11ffaba3d7c3e5,United States,East coast,13 or older,no,2021-03-24_21h37.02.662,empathy_intonation_perc,2020.2.10,Win32,60,0,0,1.781265,0,7,7,2,1,./stim/wavs/chilean_question_filler_Mi-padre-cantaba-bien.wav,1,,,,,,,,,,,,,,,,,,,,,,,,,,,,,,,,,,,,,,,,,,,,,,,,,,,,,,,,,,,,,,,,,,,,,,,,,,
,,,,,,,5f865e9ac5be471b63865294,605b45a4d25f287719a41696,605be6ef4a11ffaba3d7c3e5,United States,East coast,13 or older,no,2021-03-24_21h37.02.662,empathy_intonation_perc,2020.2.10,Win32,60,,,,,,,,,,0,mexican,1,0,1.306735,0,0,0,4,1,5,./stim/wavs/andalusian_match_declarative-broad-focus_Manuela-vende-el-carro.wav,./stim/wavs/argentine_match_declarative-broad-focus_Manuela-vende-el-carro.wav,./stim/wavs/castilian_match_declarative-broad-focus_Manuela-vende-el-carro.wav,./stim/wavs/chilean_match_declarative-broad-focus_Manuela-vende-el-carro.wav,./stim/wavs/cuban_match_declarative-broad-focus_Manuela-vende-el-carro.wav,./stim/wavs/mexican_match_declarative-broad-focus_Manuela-vende-el-carro.wav,./stim/wavs/peruvian_match_declarative-broad-focus_Manuela-vende-el-carro.wav,./stim/wavs/puertorican_match_declarative-broad-focus_Manuela-vende-el-carro.wav,,,,,,,,,,,,,,,,,,,,,,,,,,,,,,,,,,,,,,,,,,,,,,,,,,,,,,,,
,,,,,,,5f865e9ac5be471b63865294,605b45a4d25f287719a41696,605be6ef4a11ffaba3d7c3e5,United States,East coast,13 or older,no,2021-03-24_21h37.02.662,empathy_intonation_perc,2020.2.10,Win32,60,,,,,,,,,,0,chilean,0,1,1.83189,0,1,1,14,1,15,./stim/wavs/andalusian_match_declarative-narrow-focus_Mariano-habla-del-tiempo.wav,./stim/wavs/argentine_match_declarative-narrow-focus_Mariano-habla-del-tiempo.wav,./stim/wavs/castilian_match_declarative-narrow-focus_Mariano-habla-del-tiempo.wav,./stim/wavs/chilean_match_declarative-narrow-focus_Mariano-habla-del-tiempo.wav,./stim/wavs/cuban_match_declarative-narrow-focus_Mariano-habla-del-tiempo.wav,./stim/wavs/mexican_match_declarative-narrow-focus_Mariano-habla-del-tiempo.wav,./stim/wavs/peruvian_match_declarative-narrow-focus_Mariano-habla-del-tiempo.wav,./stim/wavs/puertorican_match_declarative-narrow-focus_Mariano-habla-del-tiempo.wav,,,,,,,,,,,,,,,,,,,,,,,,,,,,,,,,,,,,,,,,,,,,,,,,,,,,,,,,
,,,,,,,5f865e9ac5be471b63865294,605b45a4d25f287719a41696,605be6ef4a11ffaba3d7c3e5,United States,East coast,13 or older,no,2021-03-24_21h37.02.662,empathy_intonation_perc,2020.2.10,Win32,60,,,,,,,,,,0,mexican,0,1,1.268265,0,2,2,10,1,11,./stim/wavs/andalusian_match_declarative-narrow-focus_David-leia-el-libro.wav,./stim/wavs/argentine_match_declarative-narrow-focus_David-leia-el-libro.wav,./stim/wavs/castilian_match_declarative-narrow-focus_David-leia-el-libro.wav,./stim/wavs/chilean_match_declarative-narrow-focus_David-leia-el-libro.wav,./stim/wavs/cuban_match_declarative-narrow-focus_David-leia-el-libro.wav,./stim/wavs/mexican_match_declarative-narrow-focus_David-leia-el-libro.wav,./stim/wavs/peruvian_match_declarative-narrow-focus_David-leia-el-libro.wav,./stim/wavs/puertorican_match_declarative-narrow-focus_David-leia-el-libro.wav,,,,,,,,,,,,,,,,,,,,,,,,,,,,,,,,,,,,,,,,,,,,,,,,,,,,,,,,
,,,,,,,5f865e9ac5be471b63865294,605b45a4d25f287719a41696,605be6ef4a11ffaba3d7c3e5,United States,East coast,13 or older,no,2021-03-24_21h37.02.662,empathy_intonation_perc,2020.2.10,Win32,60,,,,,,,,,,0,cuban,0,1,1.577045,0,3,3,11,1,12,./stim/wavs/andalusian_match_declarative-narrow-focus_Emilio-ama-la-marcha.wav,./stim/wavs/argentine_match_declarative-narrow-focus_Emilio-ama-la-marcha.wav,./stim/wavs/castilian_match_declarative-narrow-focus_Emilio-ama-la-marcha.wav,./stim/wavs/chilean_match_declarative-narrow-focus_Emilio-ama-la-marcha.wav,./stim/wavs/cuban_match_declarative-narrow-focus_Emilio-ama-la-marcha.wav,./stim/wavs/mexican_match_declarative-narrow-focus_Emilio-ama-la-marcha.wav,./stim/wavs/peruvian_match_declarative-narrow-focus_Emilio-ama-la-marcha.wav,./stim/wavs/puertorican_match_declarative-narrow-focus_Emilio-ama-la-marcha.wav,,,,,,,,,,,,,,,,,,,,,,,,,,,,,,,,,,,,,,,,,,,,,,,,,,,,,,,,
,,,,,,,5f865e9ac5be471b63865294,605b45a4d25f287719a41696,605be6ef4a11ffaba3d7c3e5,United States,East coast,13 or older,no,2021-03-24_21h37.02.662,empathy_intonation_perc,2020.2.10,Win32,60,,,,,,,,,,1,andalusian,1,1,1.546465,0,4,4,61,1,62,./stim/wavs/andalusian_mismatch_interrogative-total-yn_Mi-madre-come-la-fruta.wav,./stim/wavs/argentine_mismatch_interrogative-total-yn_Mi-madre-come-la-fruta.wav,./stim/wavs/castilian_mismatch_interrogative-total-yn_Mi-madre-come-la-fruta.wav,./stim/wavs/chilean_mismatch_interrogative-total-yn_Mi-madre-come-la-fruta.wav,./stim/wavs/cuban_mismatch_interrogative-total-yn_Mi-madre-come-la-fruta.wav,./stim/wavs/mexican_mismatch_interrogative-total-yn_Mi-madre-come-la-fruta.wav,./stim/wavs/peruvian_mismatch_interrogative-total-yn_Mi-madre-come-la-fruta.wav,./stim/wavs/puertorican_mismatch_interrogative-total-yn_Mi-madre-come-la-fruta.wav,,,,,,,,,,,,,,,,,,,,,,,,,,,,,,,,,,,,,,,,,,,,,,,,,,,,,,,,
,,,,,,,5f865e9ac5be471b63865294,605b45a4d25f287719a41696,605be6ef4a11ffaba3d7c3e5,United States,East coast,13 or older,no,2021-03-24_21h37.02.662,empathy_intonation_perc,2020.2.10,Win32,60,,,,,,,,,,0,castilian,1,0,1.71488,0,5,5,1,1,2,./stim/wavs/andalusian_match_declarative-broad-focus_Daniel-iba-a-Bolivia.wav,./stim/wavs/argentine_match_declarative-broad-focus_Daniel-iba-a-Bolivia.wav,./stim/wavs/castilian_match_declarative-broad-focus_Daniel-iba-a-Bolivia.wav,./stim/wavs/chilean_match_declarative-broad-focus_Daniel-iba-a-Bolivia.wav,./stim/wavs/cuban_match_declarative-broad-focus_Daniel-iba-a-Bolivia.wav,./stim/wavs/mexican_match_declarative-broad-focus_Daniel-iba-a-Bolivia.wav,./stim/wavs/peruvian_match_declarative-broad-focus_Daniel-iba-a-Bolivia.wav,./stim/wavs/puertorican_match_declarative-broad-focus_Daniel-iba-a-Bolivia.wav,,,,,,,,,,,,,,,,,,,,,,,,,,,,,,,,,,,,,,,,,,,,,,,,,,,,,,,,
,,,,,,,5f865e9ac5be471b63865294,605b45a4d25f287719a41696,605be6ef4a11ffaba3d7c3e5,United States,East coast,13 or older,no,2021-03-24_21h37.02.662,empathy_intonation_perc,2020.2.10,Win32,60,,,,,,,,,,1,puertorican,0,0,1.762515,0,6,6,17,1,18,./stim/wavs/andalusian_match_interrogative-partial-wh_Cuando-leia-el-libro.wav,./stim/wavs/argentine_match_interrogative-partial-wh_Cuando-leia-el-libro.wav,./stim/wavs/castilian_match_interrogative-partial-wh_Cuando-leia-el-libro.wav,./stim/wavs/chilean_match_interrogative-partial-wh_Cuando-leia-el-libro.wav,./stim/wavs/cuban_match_interrogative-partial-wh_Cuando-leia-el-libro.wav,./stim/wavs/mexican_match_interrogative-partial-wh_Cuando-leia-el-libro.wav,./stim/wavs/peruvian_match_interrogative-partial-wh_Cuando-leia-el-libro.wav,./stim/wavs/puertorican_match_interrogative-partial-wh_Cuando-leia-el-libro.wav,,,,,,,,,,,,,,,,,,,,,,,,,,,,,,,,,,,,,,,,,,,,,,,,,,,,,,,,
,,,,,,,5f865e9ac5be471b63865294,605b45a4d25f287719a41696,605be6ef4a11ffaba3d7c3e5,United States,East coast,13 or older,no,2021-03-24_21h37.02.662,empathy_intonation_perc,2020.2.10,Win32,60,,,,,,,,,,0,mexican,0,1,1.728995,0,7,7,13,1,14,./stim/wavs/andalusian_match_declarative-narrow-focus_Maria-bebe-el-vino.wav,./stim/wavs/argentine_match_declarative-narrow-focus_Maria-bebe-el-vino.wav,./stim/wavs/castilian_match_declarative-narrow-focus_Maria-bebe-el-vino.wav,./stim/wavs/chilean_match_declarative-narrow-focus_Maria-bebe-el-vino.wav,./stim/wavs/cuban_match_declarative-narrow-focus_Maria-bebe-el-vino.wav,./stim/wavs/mexican_match_declarative-narrow-focus_Maria-bebe-el-vino.wav,./stim/wavs/peruvian_match_declarative-narrow-focus_Maria-bebe-el-vino.wav,./stim/wavs/puertorican_match_declarative-narrow-focus_Maria-bebe-el-vino.wav,,,,,,,,,,,,,,,,,,,,,,,,,,,,,,,,,,,,,,,,,,,,,,,,,,,,,,,,
,,,,,,,5f865e9ac5be471b63865294,605b45a4d25f287719a41696,605be6ef4a11ffaba3d7c3e5,United States,East coast,13 or older,no,2021-03-24_21h37.02.662,empathy_intonation_perc,2020.2.10,Win32,60,,,,,,,,,,1,castilian,1,1,1.474945,0,8,8,24,1,25,./stim/wavs/andalusian_match_interrogative-total-yn_Ana-lleva-el-abrigo.wav,./stim/wavs/argentine_match_interrogative-total-yn_Ana-lleva-el-abrigo.wav,./stim/wavs/castilian_match_interrogative-total-yn_Ana-lleva-el-abrigo.wav,./stim/wavs/chilean_match_interrogative-total-yn_Ana-lleva-el-abrigo.wav,./stim/wavs/cuban_match_interrogative-total-yn_Ana-lleva-el-abrigo.wav,./stim/wavs/mexican_match_interrogative-total-yn_Ana-lleva-el-abrigo.wav,./stim/wavs/peruvian_match_interrogative-total-yn_Ana-lleva-el-abrigo.wav,./stim/wavs/puertorican_match_interrogative-total-yn_Ana-lleva-el-abrigo.wav,,,,,,,,,,,,,,,,,,,,,,,,,,,,,,,,,,,,,,,,,,,,,,,,,,,,,,,,
,,,,,,,5f865e9ac5be471b63865294,605b45a4d25f287719a41696,605be6ef4a11ffaba3d7c3e5,United States,East coast,13 or older,no,2021-03-24_21h37.02.662,empathy_intonation_perc,2020.2.10,Win32,60,,,,,,,,,,1,argentine,1,1,2.24813,0,9,9,53,1,54,./stim/wavs/andalusian_mismatch_interrogative-partial-wh_Por-que-oia-el-rio.wav,./stim/wavs/argentine_mismatch_interrogative-partial-wh_Por-que-oia-el-rio.wav,./stim/wavs/castilian_mismatch_interrogative-partial-wh_Por-que-oia-el-rio.wav,./stim/wavs/chilean_mismatch_interrogative-partial-wh_Por-que-oia-el-rio.wav,./stim/wavs/cuban_mismatch_interrogative-partial-wh_Por-que-oia-el-rio.wav,./stim/wavs/mexican_mismatch_interrogative-partial-wh_Por-que-oia-el-rio.wav,./stim/wavs/peruvian_mismatch_interrogative-partial-wh_Por-que-oia-el-rio.wav,./stim/wavs/puertorican_mismatch_interrogative-partial-wh_Por-que-oia-el-rio.wav,,,,,,,,,,,,,,,,,,,,,,,,,,,,,,,,,,,,,,,,,,,,,,,,,,,,,,,,
,,,,,,,5f865e9ac5be471b63865294,605b45a4d25f287719a41696,605be6ef4a11ffaba3d7c3e5,United States,East coast,13 or older,no,2021-03-24_21h37.02.662,empathy_intonation_perc,2020.2.10,Win32,60,,,,,,,,,,1,peruvian,0,0,1.89578,0,10,10,29,1,30,./stim/wavs/andalusian_match_interrogative-total-yn_Maria-bebe-el-vino.wav,./stim/wavs/argentine_match_interrogative-total-yn_Maria-bebe-el-vino.wav,./stim/wavs/castilian_match_interrogative-total-yn_Maria-bebe-el-vino.wav,./stim/wavs/chilean_match_interrogative-total-yn_Maria-bebe-el-vino.wav,./stim/wavs/cuban_match_interrogative-total-yn_Maria-bebe-el-vino.wav,./stim/wavs/mexican_match_interrogative-total-yn_Maria-bebe-el-vino.wav,./stim/wavs/peruvian_match_interrogative-total-yn_Maria-bebe-el-vino.wav,./stim/wavs/puertorican_match_interrogative-total-yn_Maria-bebe-el-vino.wav,,,,,,,,,,,,,,,,,,,,,,,,,,,,,,,,,,,,,,,,,,,,,,,,,,,,,,,,
,,,,,,,5f865e9ac5be471b63865294,605b45a4d25f287719a41696,605be6ef4a11ffaba3d7c3e5,United States,East coast,13 or older,no,2021-03-24_21h37.02.662,empathy_intonation_perc,2020.2.10,Win32,60,,,,,,,,,,0,argentine,0,1,1.46145,0,11,11,47,1,48,./stim/wavs/andalusian_mismatch_declarative-narrow-focus_Mi-tia-odia-la-lluvia.wav,./stim/wavs/argentine_mismatch_declarative-narrow-focus_Mi-tia-odia-la-lluvia.wav,./stim/wavs/castilian_mismatch_declarative-narrow-focus_Mi-tia-odia-la-lluvia.wav,./stim/wavs/chilean_mismatch_declarative-narrow-focus_Mi-tia-odia-la-lluvia.wav,./stim/wavs/cuban_mismatch_declarative-narrow-focus_Mi-tia-odia-la-lluvia.wav,./stim/wavs/mexican_mismatch_declarative-narrow-focus_Mi-tia-odia-la-lluvia.wav,./stim/wavs/peruvian_mismatch_declarative-narrow-focus_Mi-tia-odia-la-lluvia.wav,./stim/wavs/puertorican_mismatch_declarative-narrow-focus_Mi-tia-odia-la-lluvia.wav,,,,,,,,,,,,,,,,,,,,,,,,,,,,,,,,,,,,,,,,,,,,,,,,,,,,,,,,
,,,,,,,5f865e9ac5be471b63865294,605b45a4d25f287719a41696,605be6ef4a11ffaba3d7c3e5,United States,East coast,13 or older,no,2021-03-24_21h37.02.662,empathy_intonation_perc,2020.2.10,Win32,60,,,,,,,,,,0,castilian,0,1,1.646305,0,12,12,6,1,7,./stim/wavs/andalusian_match_declarative-broad-focus_Mariano-habla-del-tiempo.wav,./stim/wavs/argentine_match_declarative-broad-focus_Mariano-habla-del-tiempo.wav,./stim/wavs/castilian_match_declarative-broad-focus_Mariano-habla-del-tiempo.wav,./stim/wavs/chilean_match_declarative-broad-focus_Mariano-habla-del-tiempo.wav,./stim/wavs/cuban_match_declarative-broad-focus_Mariano-habla-del-tiempo.wav,./stim/wavs/mexican_match_declarative-broad-focus_Mariano-habla-del-tiempo.wav,./stim/wavs/peruvian_match_declarative-broad-focus_Mariano-habla-del-tiempo.wav,./stim/wavs/puertorican_match_declarative-broad-focus_Mariano-habla-del-tiempo.wav,,,,,,,,,,,,,,,,,,,,,,,,,,,,,,,,,,,,,,,,,,,,,,,,,,,,,,,,
,,,,,,,5f865e9ac5be471b63865294,605b45a4d25f287719a41696,605be6ef4a11ffaba3d7c3e5,United States,East coast,13 or older,no,2021-03-24_21h37.02.662,empathy_intonation_perc,2020.2.10,Win32,60,,,,,,,,,,1,chilean,1,1,1.24121,0,13,13,51,1,52,./stim/wavs/andalusian_mismatch_interrogative-partial-wh_Por-que-desayuna-muy-bien.wav,./stim/wavs/argentine_mismatch_interrogative-partial-wh_Por-que-desayuna-muy-bien.wav,./stim/wavs/castilian_mismatch_interrogative-partial-wh_Por-que-desayuna-muy-bien.wav,./stim/wavs/chilean_mismatch_interrogative-partial-wh_Por-que-desayuna-muy-bien.wav,./stim/wavs/cuban_mismatch_interrogative-partial-wh_Por-que-desayuna-muy-bien.wav,./stim/wavs/mexican_mismatch_interrogative-partial-wh_Por-que-desayuna-muy-bien.wav,./stim/wavs/peruvian_mismatch_interrogative-partial-wh_Por-que-desayuna-muy-bien.wav,./stim/wavs/puertorican_mismatch_interrogative-partial-wh_Por-que-desayuna-muy-bien.wav,,,,,,,,,,,,,,,,,,,,,,,,,,,,,,,,,,,,,,,,,,,,,,,,,,,,,,,,
,,,,,,,5f865e9ac5be471b63865294,605b45a4d25f287719a41696,605be6ef4a11ffaba3d7c3e5,United States,East coast,13 or older,no,2021-03-24_21h37.02.662,empathy_intonation_perc,2020.2.10,Win32,60,,,,,,,,,,1,peruvian,0,0,1.529635,0,14,14,59,1,60,./stim/wavs/andalusian_mismatch_interrogative-total-yn_La-maestra-vive-en-Paris.wav,./stim/wavs/argentine_mismatch_interrogative-total-yn_La-maestra-vive-en-Paris.wav,./stim/wavs/castilian_mismatch_interrogative-total-yn_La-maestra-vive-en-Paris.wav,./stim/wavs/chilean_mismatch_interrogative-total-yn_La-maestra-vive-en-Paris.wav,./stim/wavs/cuban_mismatch_interrogative-total-yn_La-maestra-vive-en-Paris.wav,./stim/wavs/mexican_mismatch_interrogative-total-yn_La-maestra-vive-en-Paris.wav,./stim/wavs/peruvian_mismatch_interrogative-total-yn_La-maestra-vive-en-Paris.wav,./stim/wavs/puertorican_mismatch_interrogative-total-yn_La-maestra-vive-en-Paris.wav,,,,,,,,,,,,,,,,,,,,,,,,,,,,,,,,,,,,,,,,,,,,,,,,,,,,,,,,
,,,,,,,5f865e9ac5be471b63865294,605b45a4d25f287719a41696,605be6ef4a11ffaba3d7c3e5,United States,East coast,13 or older,no,2021-03-24_21h37.02.662,empathy_intonation_perc,2020.2.10,Win32,60,,,,,,,,,,0,argentine,0,1,1.50701,0,15,15,9,1,10,./stim/wavs/andalusian_match_declarative-narrow-focus_Daniel-iba-a-Bolivia.wav,./stim/wavs/argentine_match_declarative-narrow-focus_Daniel-iba-a-Bolivia.wav,./stim/wavs/castilian_match_declarative-narrow-focus_Daniel-iba-a-Bolivia.wav,./stim/wavs/chilean_match_declarative-narrow-focus_Daniel-iba-a-Bolivia.wav,./stim/wavs/cuban_match_declarative-narrow-focus_Daniel-iba-a-Bolivia.wav,./stim/wavs/mexican_match_declarative-narrow-focus_Daniel-iba-a-Bolivia.wav,./stim/wavs/peruvian_match_declarative-narrow-focus_Daniel-iba-a-Bolivia.wav,./stim/wavs/puertorican_match_declarative-narrow-focus_Daniel-iba-a-Bolivia.wav,,,,,,,,,,,,,,,,,,,,,,,,,,,,,,,,,,,,,,,,,,,,,,,,,,,,,,,,
,,,,,,,5f865e9ac5be471b63865294,605b45a4d25f287719a41696,605be6ef4a11ffaba3d7c3e5,United States,East coast,13 or older,no,2021-03-24_21h37.02.662,empathy_intonation_perc,2020.2.10,Win32,60,,,,,,,,,,0,mexican,0,1,1.475845,0,16,16,12,1,13,./stim/wavs/andalusian_match_declarative-narrow-focus_Manuela-vende-el-carro.wav,./stim/wavs/argentine_match_declarative-narrow-focus_Manuela-vende-el-carro.wav,./stim/wavs/castilian_match_declarative-narrow-focus_Manuela-vende-el-carro.wav,./stim/wavs/chilean_match_declarative-narrow-focus_Manuela-vende-el-carro.wav,./stim/wavs/cuban_match_declarative-narrow-focus_Manuela-vende-el-carro.wav,./stim/wavs/mexican_match_declarative-narrow-focus_Manuela-vende-el-carro.wav,./stim/wavs/peruvian_match_declarative-narrow-focus_Manuela-vende-el-carro.wav,./stim/wavs/puertorican_match_declarative-narrow-focus_Manuela-vende-el-carro.wav,,,,,,,,,,,,,,,,,,,,,,,,,,,,,,,,,,,,,,,,,,,,,,,,,,,,,,,,
,,,,,,,5f865e9ac5be471b63865294,605b45a4d25f287719a41696,605be6ef4a11ffaba3d7c3e5,United States,East coast,13 or older,no,2021-03-24_21h37.02.662,empathy_intonation_perc,2020.2.10,Win32,60,,,,,,,,,,1,cuban,1,1,1.20709,0,17,17,28,1,29,./stim/wavs/andalusian_match_interrogative-total-yn_Manuela-vende-el-carro.wav,./stim/wavs/argentine_match_interrogative-total-yn_Manuela-vende-el-carro.wav,./stim/wavs/castilian_match_interrogative-total-yn_Manuela-vende-el-carro.wav,./stim/wavs/chilean_match_interrogative-total-yn_Manuela-vende-el-carro.wav,./stim/wavs/cuban_match_interrogative-total-yn_Manuela-vende-el-carro.wav,./stim/wavs/mexican_match_interrogative-total-yn_Manuela-vende-el-carro.wav,./stim/wavs/peruvian_match_interrogative-total-yn_Manuela-vende-el-carro.wav,./stim/wavs/puertorican_match_interrogative-total-yn_Manuela-vende-el-carro.wav,,,,,,,,,,,,,,,,,,,,,,,,,,,,,,,,,,,,,,,,,,,,,,,,,,,,,,,,
,,,,,,,5f865e9ac5be471b63865294,605b45a4d25f287719a41696,605be6ef4a11ffaba3d7c3e5,United States,East coast,13 or older,no,2021-03-24_21h37.02.662,empathy_intonation_perc,2020.2.10,Win32,60,,,,,,,,,,1,mexican,1,1,1.472885,0,18,18,18,1,19,./stim/wavs/andalusian_match_interrogative-partial-wh_Cuando-lleva-el-abrigo.wav,./stim/wavs/argentine_match_interrogative-partial-wh_Cuando-lleva-el-abrigo.wav,./stim/wavs/castilian_match_interrogative-partial-wh_Cuando-lleva-el-abrigo.wav,./stim/wavs/chilean_match_interrogative-partial-wh_Cuando-lleva-el-abrigo.wav,./stim/wavs/cuban_match_interrogative-partial-wh_Cuando-lleva-el-abrigo.wav,./stim/wavs/mexican_match_interrogative-partial-wh_Cuando-lleva-el-abrigo.wav,./stim/wavs/peruvian_match_interrogative-partial-wh_Cuando-lleva-el-abrigo.wav,./stim/wavs/puertorican_match_interrogative-partial-wh_Cuando-lleva-el-abrigo.wav,,,,,,,,,,,,,,,,,,,,,,,,,,,,,,,,,,,,,,,,,,,,,,,,,,,,,,,,
,,,,,,,5f865e9ac5be471b63865294,605b45a4d25f287719a41696,605be6ef4a11ffaba3d7c3e5,United States,East coast,13 or older,no,2021-03-24_21h37.02.662,empathy_intonation_perc,2020.2.10,Win32,60,,,,,,,,,,1,chilean,1,1,1.390255,0,19,19,26,1,27,./stim/wavs/andalusian_match_interrogative-total-yn_David-leia-el-libro.wav,./stim/wavs/argentine_match_interrogative-total-yn_David-leia-el-libro.wav,./stim/wavs/castilian_match_interrogative-total-yn_David-leia-el-libro.wav,./stim/wavs/chilean_match_interrogative-total-yn_David-leia-el-libro.wav,./stim/wavs/cuban_match_interrogative-total-yn_David-leia-el-libro.wav,./stim/wavs/mexican_match_interrogative-total-yn_David-leia-el-libro.wav,./stim/wavs/peruvian_match_interrogative-total-yn_David-leia-el-libro.wav,./stim/wavs/puertorican_match_interrogative-total-yn_David-leia-el-libro.wav,,,,,,,,,,,,,,,,,,,,,,,,,,,,,,,,,,,,,,,,,,,,,,,,,,,,,,,,
,,,,,,,5f865e9ac5be471b63865294,605b45a4d25f287719a41696,605be6ef4a11ffaba3d7c3e5,United States,East coast,13 or older,no,2021-03-24_21h37.02.662,empathy_intonation_perc,2020.2.10,Win32,60,,,,,,,,,,0,peruvian,0,1,1.461045,0,20,20,37,1,38,./stim/wavs/andalusian_mismatch_declarative-broad-focus_Mi-madre-come-la-fruta.wav,./stim/wavs/argentine_mismatch_declarative-broad-focus_Mi-madre-come-la-fruta.wav,./stim/wavs/castilian_mismatch_declarative-broad-focus_Mi-madre-come-la-fruta.wav,./stim/wavs/chilean_mismatch_declarative-broad-focus_Mi-madre-come-la-fruta.wav,./stim/wavs/cuban_mismatch_declarative-broad-focus_Mi-madre-come-la-fruta.wav,./stim/wavs/mexican_mismatch_declarative-broad-focus_Mi-madre-come-la-fruta.wav,./stim/wavs/peruvian_mismatch_declarative-broad-focus_Mi-madre-come-la-fruta.wav,./stim/wavs/puertorican_mismatch_declarative-broad-focus_Mi-madre-come-la-fruta.wav,,,,,,,,,,,,,,,,,,,,,,,,,,,,,,,,,,,,,,,,,,,,,,,,,,,,,,,,
,,,,,,,5f865e9ac5be471b63865294,605b45a4d25f287719a41696,605be6ef4a11ffaba3d7c3e5,United States,East coast,13 or older,no,2021-03-24_21h37.02.662,empathy_intonation_perc,2020.2.10,Win32,60,,,,,,,,,,0,mexican,0,1,1.608715,0,21,21,44,1,45,./stim/wavs/andalusian_mismatch_declarative-narrow-focus_La-nina-lava-el-plato.wav,./stim/wavs/argentine_mismatch_declarative-narrow-focus_La-nina-lava-el-plato.wav,./stim/wavs/castilian_mismatch_declarative-narrow-focus_La-nina-lava-el-plato.wav,./stim/wavs/chilean_mismatch_declarative-narrow-focus_La-nina-lava-el-plato.wav,./stim/wavs/cuban_mismatch_declarative-narrow-focus_La-nina-lava-el-plato.wav,./stim/wavs/mexican_mismatch_declarative-narrow-focus_La-nina-lava-el-plato.wav,./stim/wavs/peruvian_mismatch_declarative-narrow-focus_La-nina-lava-el-plato.wav,./stim/wavs/puertorican_mismatch_declarative-narrow-focus_La-nina-lava-el-plato.wav,,,,,,,,,,,,,,,,,,,,,,,,,,,,,,,,,,,,,,,,,,,,,,,,,,,,,,,,
,,,,,,,5f865e9ac5be471b63865294,605b45a4d25f287719a41696,605be6ef4a11ffaba3d7c3e5,United States,East coast,13 or older,no,2021-03-24_21h37.02.662,empathy_intonation_perc,2020.2.10,Win32,60,,,,,,,,,,0,chilean,1,0,1.238685,0,22,22,45,1,46,./stim/wavs/andalusian_mismatch_declarative-narrow-focus_Mi-madre-come-la-fruta.wav,./stim/wavs/argentine_mismatch_declarative-narrow-focus_Mi-madre-come-la-fruta.wav,./stim/wavs/castilian_mismatch_declarative-narrow-focus_Mi-madre-come-la-fruta.wav,./stim/wavs/chilean_mismatch_declarative-narrow-focus_Mi-madre-come-la-fruta.wav,./stim/wavs/cuban_mismatch_declarative-narrow-focus_Mi-madre-come-la-fruta.wav,./stim/wavs/mexican_mismatch_declarative-narrow-focus_Mi-madre-come-la-fruta.wav,./stim/wavs/peruvian_mismatch_declarative-narrow-focus_Mi-madre-come-la-fruta.wav,./stim/wavs/puertorican_mismatch_declarative-narrow-focus_Mi-madre-come-la-fruta.wav,,,,,,,,,,,,,,,,,,,,,,,,,,,,,,,,,,,,,,,,,,,,,,,,,,,,,,,,
,,,,,,,5f865e9ac5be471b63865294,605b45a4d25f287719a41696,605be6ef4a11ffaba3d7c3e5,United States,East coast,13 or older,no,2021-03-24_21h37.02.662,empathy_intonation_perc,2020.2.10,Win32,60,,,,,,,,,,1,argentine,0,0,1.430825,0,23,23,60,1,61,./stim/wavs/andalusian_mismatch_interrogative-total-yn_La-nina-lava-el-plato.wav,./stim/wavs/argentine_mismatch_interrogative-total-yn_La-nina-lava-el-plato.wav,./stim/wavs/castilian_mismatch_interrogative-total-yn_La-nina-lava-el-plato.wav,./stim/wavs/chilean_mismatch_interrogative-total-yn_La-nina-lava-el-plato.wav,./stim/wavs/cuban_mismatch_interrogative-total-yn_La-nina-lava-el-plato.wav,./stim/wavs/mexican_mismatch_interrogative-total-yn_La-nina-lava-el-plato.wav,./stim/wavs/peruvian_mismatch_interrogative-total-yn_La-nina-lava-el-plato.wav,./stim/wavs/puertorican_mismatch_interrogative-total-yn_La-nina-lava-el-plato.wav,,,,,,,,,,,,,,,,,,,,,,,,,,,,,,,,,,,,,,,,,,,,,,,,,,,,,,,,
,,,,,,,5f865e9ac5be471b63865294,605b45a4d25f287719a41696,605be6ef4a11ffaba3d7c3e5,United States,East coast,13 or older,no,2021-03-24_21h37.02.662,empathy_intonation_perc,2020.2.10,Win32,60,,,,,,,,,,0,castilian,0,1,1.57611,0,24,24,42,1,43,./stim/wavs/andalusian_mismatch_declarative-narrow-focus_El-nino-oye-el-rio.wav,./stim/wavs/argentine_mismatch_declarative-narrow-focus_El-nino-oye-el-rio.wav,./stim/wavs/castilian_mismatch_declarative-narrow-focus_El-nino-oye-el-rio.wav,./stim/wavs/chilean_mismatch_declarative-narrow-focus_El-nino-oye-el-rio.wav,./stim/wavs/cuban_mismatch_declarative-narrow-focus_El-nino-oye-el-rio.wav,./stim/wavs/mexican_mismatch_declarative-narrow-focus_El-nino-oye-el-rio.wav,./stim/wavs/peruvian_mismatch_declarative-narrow-focus_El-nino-oye-el-rio.wav,./stim/wavs/puertorican_mismatch_declarative-narrow-focus_El-nino-oye-el-rio.wav,,,,,,,,,,,,,,,,,,,,,,,,,,,,,,,,,,,,,,,,,,,,,,,,,,,,,,,,
,,,,,,,5f865e9ac5be471b63865294,605b45a4d25f287719a41696,605be6ef4a11ffaba3d7c3e5,United States,East coast,13 or older,no,2021-03-24_21h37.02.662,empathy_intonation_perc,2020.2.10,Win32,60,,,,,,,,,,0,argentine,0,1,1.16299,0,25,25,43,1,44,./stim/wavs/andalusian_mismatch_declarative-narrow-focus_La-maestra-vive-en-Paris.wav,./stim/wavs/argentine_mismatch_declarative-narrow-focus_La-maestra-vive-en-Paris.wav,./stim/wavs/castilian_mismatch_declarative-narrow-focus_La-maestra-vive-en-Paris.wav,./stim/wavs/chilean_mismatch_declarative-narrow-focus_La-maestra-vive-en-Paris.wav,./stim/wavs/cuban_mismatch_declarative-narrow-focus_La-maestra-vive-en-Paris.wav,./stim/wavs/mexican_mismatch_declarative-narrow-focus_La-maestra-vive-en-Paris.wav,./stim/wavs/peruvian_mismatch_declarative-narrow-focus_La-maestra-vive-en-Paris.wav,./stim/wavs/puertorican_mismatch_declarative-narrow-focus_La-maestra-vive-en-Paris.wav,,,,,,,,,,,,,,,,,,,,,,,,,,,,,,,,,,,,,,,,,,,,,,,,,,,,,,,,
,,,,,,,5f865e9ac5be471b63865294,605b45a4d25f287719a41696,605be6ef4a11ffaba3d7c3e5,United States,East coast,13 or older,no,2021-03-24_21h37.02.662,empathy_intonation_perc,2020.2.10,Win32,60,,,,,,,,,,0,chilean,0,1,1.073485,0,26,26,39,1,40,./stim/wavs/andalusian_mismatch_declarative-broad-focus_Mi-tia-odia-la-lluvia.wav,./stim/wavs/argentine_mismatch_declarative-broad-focus_Mi-tia-odia-la-lluvia.wav,./stim/wavs/castilian_mismatch_declarative-broad-focus_Mi-tia-odia-la-lluvia.wav,./stim/wavs/chilean_mismatch_declarative-broad-focus_Mi-tia-odia-la-lluvia.wav,./stim/wavs/cuban_mismatch_declarative-broad-focus_Mi-tia-odia-la-lluvia.wav,./stim/wavs/mexican_mismatch_declarative-broad-focus_Mi-tia-odia-la-lluvia.wav,./stim/wavs/peruvian_mismatch_declarative-broad-focus_Mi-tia-odia-la-lluvia.wav,./stim/wavs/puertorican_mismatch_declarative-broad-focus_Mi-tia-odia-la-lluvia.wav,,,,,,,,,,,,,,,,,,,,,,,,,,,,,,,,,,,,,,,,,,,,,,,,,,,,,,,,
,,,,,,,5f865e9ac5be471b63865294,605b45a4d25f287719a41696,605be6ef4a11ffaba3d7c3e5,United States,East coast,13 or older,no,2021-03-24_21h37.02.662,empathy_intonation_perc,2020.2.10,Win32,60,,,,,,,,,,0,peruvian,0,1,1.4223,0,27,27,2,1,3,./stim/wavs/andalusian_match_declarative-broad-focus_David-leia-el-libro.wav,./stim/wavs/argentine_match_declarative-broad-focus_David-leia-el-libro.wav,./stim/wavs/castilian_match_declarative-broad-focus_David-leia-el-libro.wav,./stim/wavs/chilean_match_declarative-broad-focus_David-leia-el-libro.wav,./stim/wavs/cuban_match_declarative-broad-focus_David-leia-el-libro.wav,./stim/wavs/mexican_match_declarative-broad-focus_David-leia-el-libro.wav,./stim/wavs/peruvian_match_declarative-broad-focus_David-leia-el-libro.wav,./stim/wavs/puertorican_match_declarative-broad-focus_David-leia-el-libro.wav,,,,,,,,,,,,,,,,,,,,,,,,,,,,,,,,,,,,,,,,,,,,,,,,,,,,,,,,
,,,,,,,5f865e9ac5be471b63865294,605b45a4d25f287719a41696,605be6ef4a11ffaba3d7c3e5,United States,East coast,13 or older,no,2021-03-24_21h37.02.662,empathy_intonation_perc,2020.2.10,Win32,60,,,,,,,,,,1,peruvian,1,1,0.942305,0,28,28,20,1,21,./stim/wavs/andalusian_match_interrogative-partial-wh_Por-que-abre-el-regalo.wav,./stim/wavs/argentine_match_interrogative-partial-wh_Por-que-abre-el-regalo.wav,./stim/wavs/castilian_match_interrogative-partial-wh_Por-que-abre-el-regalo.wav,./stim/wavs/chilean_match_interrogative-partial-wh_Por-que-abre-el-regalo.wav,./stim/wavs/cuban_match_interrogative-partial-wh_Por-que-abre-el-regalo.wav,./stim/wavs/mexican_match_interrogative-partial-wh_Por-que-abre-el-regalo.wav,./stim/wavs/peruvian_match_interrogative-partial-wh_Por-que-abre-el-regalo.wav,./stim/wavs/puertorican_match_interrogative-partial-wh_Por-que-abre-el-regalo.wav,,,,,,,,,,,,,,,,,,,,,,,,,,,,,,,,,,,,,,,,,,,,,,,,,,,,,,,,
,,,,,,,5f865e9ac5be471b63865294,605b45a4d25f287719a41696,605be6ef4a11ffaba3d7c3e5,United States,East coast,13 or older,no,2021-03-24_21h37.02.662,empathy_intonation_perc,2020.2.10,Win32,60,,,,,,,,,,1,andalusian,0,0,1.362375,0,29,29,63,1,64,./stim/wavs/andalusian_mismatch_interrogative-total-yn_Mi-tia-odia-la-lluvia.wav,./stim/wavs/argentine_mismatch_interrogative-total-yn_Mi-tia-odia-la-lluvia.wav,./stim/wavs/castilian_mismatch_interrogative-total-yn_Mi-tia-odia-la-lluvia.wav,./stim/wavs/chilean_mismatch_interrogative-total-yn_Mi-tia-odia-la-lluvia.wav,./stim/wavs/cuban_mismatch_interrogative-total-yn_Mi-tia-odia-la-lluvia.wav,./stim/wavs/mexican_mismatch_interrogative-total-yn_Mi-tia-odia-la-lluvia.wav,./stim/wavs/peruvian_mismatch_interrogative-total-yn_Mi-tia-odia-la-lluvia.wav,./stim/wavs/puertorican_mismatch_interrogative-total-yn_Mi-tia-odia-la-lluvia.wav,,,,,,,,,,,,,,,,,,,,,,,,,,,,,,,,,,,,,,,,,,,,,,,,,,,,,,,,
,,,,,,,5f865e9ac5be471b63865294,605b45a4d25f287719a41696,605be6ef4a11ffaba3d7c3e5,United States,East coast,13 or older,no,2021-03-24_21h37.02.662,empathy_intonation_perc,2020.2.10,Win32,60,,,,,,,,,,0,chilean,0,1,1.10952,0,30,30,34,1,35,./stim/wavs/andalusian_mismatch_declarative-broad-focus_El-nino-oye-el-rio.wav,./stim/wavs/argentine_mismatch_declarative-broad-focus_El-nino-oye-el-rio.wav,./stim/wavs/castilian_mismatch_declarative-broad-focus_El-nino-oye-el-rio.wav,./stim/wavs/chilean_mismatch_declarative-broad-focus_El-nino-oye-el-rio.wav,./stim/wavs/cuban_mismatch_declarative-broad-focus_El-nino-oye-el-rio.wav,./stim/wavs/mexican_mismatch_declarative-broad-focus_El-nino-oye-el-rio.wav,./stim/wavs/peruvian_mismatch_declarative-broad-focus_El-nino-oye-el-rio.wav,./stim/wavs/puertorican_mismatch_declarative-broad-focus_El-nino-oye-el-rio.wav,,,,,,,,,,,,,,,,,,,,,,,,,,,,,,,,,,,,,,,,,,,,,,,,,,,,,,,,
,,,,,,,5f865e9ac5be471b63865294,605b45a4d25f287719a41696,605be6ef4a11ffaba3d7c3e5,United States,East coast,13 or older,no,2021-03-24_21h37.02.662,empathy_intonation_perc,2020.2.10,Win32,60,,,,,,,,,,0,puertorican,0,1,1.072535,0,31,31,7,1,8,./stim/wavs/andalusian_match_declarative-broad-focus_Marta-abre-el-regalo.wav,./stim/wavs/argentine_match_declarative-broad-focus_Marta-abre-el-regalo.wav,./stim/wavs/castilian_match_declarative-broad-focus_Marta-abre-el-regalo.wav,./stim/wavs/chilean_match_declarative-broad-focus_Marta-abre-el-regalo.wav,./stim/wavs/cuban_match_declarative-broad-focus_Marta-abre-el-regalo.wav,./stim/wavs/mexican_match_declarative-broad-focus_Marta-abre-el-regalo.wav,./stim/wavs/peruvian_match_declarative-broad-focus_Marta-abre-el-regalo.wav,./stim/wavs/puertorican_match_declarative-broad-focus_Marta-abre-el-regalo.wav,,,,,,,,,,,,,,,,,,,,,,,,,,,,,,,,,,,,,,,,,,,,,,,,,,,,,,,,
,,,,,,,5f865e9ac5be471b63865294,605b45a4d25f287719a41696,605be6ef4a11ffaba3d7c3e5,United States,East coast,13 or older,no,2021-03-24_21h37.02.662,empathy_intonation_perc,2020.2.10,Win32,60,,,,,,,,,,0,peruvian,1,0,1.0897,0,32,32,8,1,9,./stim/wavs/andalusian_match_declarative-narrow-focus_Ana-lleva-el-abrigo.wav,./stim/wavs/argentine_match_declarative-narrow-focus_Ana-lleva-el-abrigo.wav,./stim/wavs/castilian_match_declarative-narrow-focus_Ana-lleva-el-abrigo.wav,./stim/wavs/chilean_match_declarative-narrow-focus_Ana-lleva-el-abrigo.wav,./stim/wavs/cuban_match_declarative-narrow-focus_Ana-lleva-el-abrigo.wav,./stim/wavs/mexican_match_declarative-narrow-focus_Ana-lleva-el-abrigo.wav,./stim/wavs/peruvian_match_declarative-narrow-focus_Ana-lleva-el-abrigo.wav,./stim/wavs/puertorican_match_declarative-narrow-focus_Ana-lleva-el-abrigo.wav,,,,,,,,,,,,,,,,,,,,,,,,,,,,,,,,,,,,,,,,,,,,,,,,,,,,,,,,
,,,,,,,5f865e9ac5be471b63865294,605b45a4d25f287719a41696,605be6ef4a11ffaba3d7c3e5,United States,East coast,13 or older,no,2021-03-24_21h37.02.662,empathy_intonation_perc,2020.2.10,Win32,60,,,,,,,,,,0,castilian,0,1,1.32451,0,33,33,15,1,16,./stim/wavs/andalusian_match_declarative-narrow-focus_Marta-abre-el-regalo.wav,./stim/wavs/argentine_match_declarative-narrow-focus_Marta-abre-el-regalo.wav,./stim/wavs/castilian_match_declarative-narrow-focus_Marta-abre-el-regalo.wav,./stim/wavs/chilean_match_declarative-narrow-focus_Marta-abre-el-regalo.wav,./stim/wavs/cuban_match_declarative-narrow-focus_Marta-abre-el-regalo.wav,./stim/wavs/mexican_match_declarative-narrow-focus_Marta-abre-el-regalo.wav,./stim/wavs/peruvian_match_declarative-narrow-focus_Marta-abre-el-regalo.wav,./stim/wavs/puertorican_match_declarative-narrow-focus_Marta-abre-el-regalo.wav,,,,,,,,,,,,,,,,,,,,,,,,,,,,,,,,,,,,,,,,,,,,,,,,,,,,,,,,
,,,,,,,5f865e9ac5be471b63865294,605b45a4d25f287719a41696,605be6ef4a11ffaba3d7c3e5,United States,East coast,13 or older,no,2021-03-24_21h37.02.662,empathy_intonation_perc,2020.2.10,Win32,60,,,,,,,,,,0,mexican,0,1,0.556445,0,34,34,40,1,41,./stim/wavs/andalusian_mismatch_declarative-narrow-focus_El-bebe-comia-muy-bien.wav,./stim/wavs/argentine_mismatch_declarative-narrow-focus_El-bebe-comia-muy-bien.wav,./stim/wavs/castilian_mismatch_declarative-narrow-focus_El-bebe-comia-muy-bien.wav,./stim/wavs/chilean_mismatch_declarative-narrow-focus_El-bebe-comia-muy-bien.wav,./stim/wavs/cuban_mismatch_declarative-narrow-focus_El-bebe-comia-muy-bien.wav,./stim/wavs/mexican_mismatch_declarative-narrow-focus_El-bebe-comia-muy-bien.wav,./stim/wavs/peruvian_mismatch_declarative-narrow-focus_El-bebe-comia-muy-bien.wav,./stim/wavs/puertorican_mismatch_declarative-narrow-focus_El-bebe-comia-muy-bien.wav,,,,,,,,,,,,,,,,,,,,,,,,,,,,,,,,,,,,,,,,,,,,,,,,,,,,,,,,
,,,,,,,5f865e9ac5be471b63865294,605b45a4d25f287719a41696,605be6ef4a11ffaba3d7c3e5,United States,East coast,13 or older,no,2021-03-24_21h37.02.662,empathy_intonation_perc,2020.2.10,Win32,60,,,,,,,,,,0,chilean,0,1,0.67259,0,35,35,46,1,47,./stim/wavs/andalusian_mismatch_declarative-narrow-focus_Mi-novio-viene-del-lago.wav,./stim/wavs/argentine_mismatch_declarative-narrow-focus_Mi-novio-viene-del-lago.wav,./stim/wavs/castilian_mismatch_declarative-narrow-focus_Mi-novio-viene-del-lago.wav,./stim/wavs/chilean_mismatch_declarative-narrow-focus_Mi-novio-viene-del-lago.wav,./stim/wavs/cuban_mismatch_declarative-narrow-focus_Mi-novio-viene-del-lago.wav,./stim/wavs/mexican_mismatch_declarative-narrow-focus_Mi-novio-viene-del-lago.wav,./stim/wavs/peruvian_mismatch_declarative-narrow-focus_Mi-novio-viene-del-lago.wav,./stim/wavs/puertorican_mismatch_declarative-narrow-focus_Mi-novio-viene-del-lago.wav,,,,,,,,,,,,,,,,,,,,,,,,,,,,,,,,,,,,,,,,,,,,,,,,,,,,,,,,
,,,,,,,5f865e9ac5be471b63865294,605b45a4d25f287719a41696,605be6ef4a11ffaba3d7c3e5,United States,East coast,13 or older,no,2021-03-24_21h37.02.662,empathy_intonation_perc,2020.2.10,Win32,60,,,,,,,,,,0,chilean,0,1,20.83158,0,36,36,35,1,36,./stim/wavs/andalusian_mismatch_declarative-broad-focus_La-maestra-vive-en-Paris.wav,./stim/wavs/argentine_mismatch_declarative-broad-focus_La-maestra-vive-en-Paris.wav,./stim/wavs/castilian_mismatch_declarative-broad-focus_La-maestra-vive-en-Paris.wav,./stim/wavs/chilean_mismatch_declarative-broad-focus_La-maestra-vive-en-Paris.wav,./stim/wavs/cuban_mismatch_declarative-broad-focus_La-maestra-vive-en-Paris.wav,./stim/wavs/mexican_mismatch_declarative-broad-focus_La-maestra-vive-en-Paris.wav,./stim/wavs/peruvian_mismatch_declarative-broad-focus_La-maestra-vive-en-Paris.wav,./stim/wavs/puertorican_mismatch_declarative-broad-focus_La-maestra-vive-en-Paris.wav,,,,,,,,,,,,,,,,,,,,,,,,,,,,,,,,,,,,,,,,,,,,,,,,,,,,,,,,
,,,,,,,5f865e9ac5be471b63865294,605b45a4d25f287719a41696,605be6ef4a11ffaba3d7c3e5,United States,East coast,13 or older,no,2021-03-24_21h37.02.662,empathy_intonation_perc,2020.2.10,Win32,60,,,,,,,,,,1,puertorican,1,1,1.51014,0,37,37,50,1,51,./stim/wavs/andalusian_mismatch_interrogative-partial-wh_Cuando-miraba-la-luna.wav,./stim/wavs/argentine_mismatch_interrogative-partial-wh_Cuando-miraba-la-luna.wav,./stim/wavs/castilian_mismatch_interrogative-partial-wh_Cuando-miraba-la-luna.wav,./stim/wavs/chilean_mismatch_interrogative-partial-wh_Cuando-miraba-la-luna.wav,./stim/wavs/cuban_mismatch_interrogative-partial-wh_Cuando-miraba-la-luna.wav,./stim/wavs/mexican_mismatch_interrogative-partial-wh_Cuando-miraba-la-luna.wav,./stim/wavs/peruvian_mismatch_interrogative-partial-wh_Cuando-miraba-la-luna.wav,./stim/wavs/puertorican_mismatch_interrogative-partial-wh_Cuando-miraba-la-luna.wav,,,,,,,,,,,,,,,,,,,,,,,,,,,,,,,,,,,,,,,,,,,,,,,,,,,,,,,,
,,,,,,,5f865e9ac5be471b63865294,605b45a4d25f287719a41696,605be6ef4a11ffaba3d7c3e5,United States,East coast,13 or older,no,2021-03-24_21h37.02.662,empathy_intonation_perc,2020.2.10,Win32,60,,,,,,,,,,1,andalusian,1,1,0.87216,0,38,38,55,1,56,./stim/wavs/andalusian_mismatch_interrogative-partial-wh_Por-que-vivia-en-Paris.wav,./stim/wavs/argentine_mismatch_interrogative-partial-wh_Por-que-vivia-en-Paris.wav,./stim/wavs/castilian_mismatch_interrogative-partial-wh_Por-que-vivia-en-Paris.wav,./stim/wavs/chilean_mismatch_interrogative-partial-wh_Por-que-vivia-en-Paris.wav,./stim/wavs/cuban_mismatch_interrogative-partial-wh_Por-que-vivia-en-Paris.wav,./stim/wavs/mexican_mismatch_interrogative-partial-wh_Por-que-vivia-en-Paris.wav,./stim/wavs/peruvian_mismatch_interrogative-partial-wh_Por-que-vivia-en-Paris.wav,./stim/wavs/puertorican_mismatch_interrogative-partial-wh_Por-que-vivia-en-Paris.wav,,,,,,,,,,,,,,,,,,,,,,,,,,,,,,,,,,,,,,,,,,,,,,,,,,,,,,,,
,,,,,,,5f865e9ac5be471b63865294,605b45a4d25f287719a41696,605be6ef4a11ffaba3d7c3e5,United States,East coast,13 or older,no,2021-03-24_21h37.02.662,empathy_intonation_perc,2020.2.10,Win32,60,,,,,,,,,,1,puertorican,1,1,1.475005,0,39,39,31,1,32,./stim/wavs/andalusian_match_interrogative-total-yn_Marta-abre-el-regalo.wav,./stim/wavs/argentine_match_interrogative-total-yn_Marta-abre-el-regalo.wav,./stim/wavs/castilian_match_interrogative-total-yn_Marta-abre-el-regalo.wav,./stim/wavs/chilean_match_interrogative-total-yn_Marta-abre-el-regalo.wav,./stim/wavs/cuban_match_interrogative-total-yn_Marta-abre-el-regalo.wav,./stim/wavs/mexican_match_interrogative-total-yn_Marta-abre-el-regalo.wav,./stim/wavs/peruvian_match_interrogative-total-yn_Marta-abre-el-regalo.wav,./stim/wavs/puertorican_match_interrogative-total-yn_Marta-abre-el-regalo.wav,,,,,,,,,,,,,,,,,,,,,,,,,,,,,,,,,,,,,,,,,,,,,,,,,,,,,,,,
,,,,,,,5f865e9ac5be471b63865294,605b45a4d25f287719a41696,605be6ef4a11ffaba3d7c3e5,United States,East coast,13 or older,no,2021-03-24_21h37.02.662,empathy_intonation_perc,2020.2.10,Win32,60,,,,,,,,,,1,peruvian,1,1,0.95869,0,40,40,22,1,23,./stim/wavs/andalusian_match_interrogative-partial-wh_Por-que-hablaba-del-agua.wav,./stim/wavs/argentine_match_interrogative-partial-wh_Por-que-hablaba-del-agua.wav,./stim/wavs/castilian_match_interrogative-partial-wh_Por-que-hablaba-del-agua.wav,./stim/wavs/chilean_match_interrogative-partial-wh_Por-que-hablaba-del-agua.wav,./stim/wavs/cuban_match_interrogative-partial-wh_Por-que-hablaba-del-agua.wav,./stim/wavs/mexican_match_interrogative-partial-wh_Por-que-hablaba-del-agua.wav,./stim/wavs/peruvian_match_interrogative-partial-wh_Por-que-hablaba-del-agua.wav,./stim/wavs/puertorican_match_interrogative-partial-wh_Por-que-hablaba-del-agua.wav,,,,,,,,,,,,,,,,,,,,,,,,,,,,,,,,,,,,,,,,,,,,,,,,,,,,,,,,
,,,,,,,5f865e9ac5be471b63865294,605b45a4d25f287719a41696,605be6ef4a11ffaba3d7c3e5,United States,East coast,13 or older,no,2021-03-24_21h37.02.662,empathy_intonation_perc,2020.2.10,Win32,60,,,,,,,,,,1,cuban,0,0,1.4319,0,41,41,56,1,57,./stim/wavs/andalusian_mismatch_interrogative-total-yn_El-bebe-comia-muy-bien.wav,./stim/wavs/argentine_mismatch_interrogative-total-yn_El-bebe-comia-muy-bien.wav,./stim/wavs/castilian_mismatch_interrogative-total-yn_El-bebe-comia-muy-bien.wav,./stim/wavs/chilean_mismatch_interrogative-total-yn_El-bebe-comia-muy-bien.wav,./stim/wavs/cuban_mismatch_interrogative-total-yn_El-bebe-comia-muy-bien.wav,./stim/wavs/mexican_mismatch_interrogative-total-yn_El-bebe-comia-muy-bien.wav,./stim/wavs/peruvian_mismatch_interrogative-total-yn_El-bebe-comia-muy-bien.wav,./stim/wavs/puertorican_mismatch_interrogative-total-yn_El-bebe-comia-muy-bien.wav,,,,,,,,,,,,,,,,,,,,,,,,,,,,,,,,,,,,,,,,,,,,,,,,,,,,,,,,
,,,,,,,5f865e9ac5be471b63865294,605b45a4d25f287719a41696,605be6ef4a11ffaba3d7c3e5,United States,East coast,13 or older,no,2021-03-24_21h37.02.662,empathy_intonation_perc,2020.2.10,Win32,60,,,,,,,,,,1,puertorican,0,0,1.055705,0,42,42,58,1,59,./stim/wavs/andalusian_mismatch_interrogative-total-yn_El-nino-oye-el-rio.wav,./stim/wavs/argentine_mismatch_interrogative-total-yn_El-nino-oye-el-rio.wav,./stim/wavs/castilian_mismatch_interrogative-total-yn_El-nino-oye-el-rio.wav,./stim/wavs/chilean_mismatch_interrogative-total-yn_El-nino-oye-el-rio.wav,./stim/wavs/cuban_mismatch_interrogative-total-yn_El-nino-oye-el-rio.wav,./stim/wavs/mexican_mismatch_interrogative-total-yn_El-nino-oye-el-rio.wav,./stim/wavs/peruvian_mismatch_interrogative-total-yn_El-nino-oye-el-rio.wav,./stim/wavs/puertorican_mismatch_interrogative-total-yn_El-nino-oye-el-rio.wav,,,,,,,,,,,,,,,,,,,,,,,,,,,,,,,,,,,,,,,,,,,,,,,,,,,,,,,,
,,,,,,,5f865e9ac5be471b63865294,605b45a4d25f287719a41696,605be6ef4a11ffaba3d7c3e5,United States,East coast,13 or older,no,2021-03-24_21h37.02.662,empathy_intonation_perc,2020.2.10,Win32,60,,,,,,,,,,1,cuban,0,0,0.92447,0,43,43,25,1,26,./stim/wavs/andalusian_match_interrogative-total-yn_Daniel-iba-a-Bolivia.wav,./stim/wavs/argentine_match_interrogative-total-yn_Daniel-iba-a-Bolivia.wav,./stim/wavs/castilian_match_interrogative-total-yn_Daniel-iba-a-Bolivia.wav,./stim/wavs/chilean_match_interrogative-total-yn_Daniel-iba-a-Bolivia.wav,./stim/wavs/cuban_match_interrogative-total-yn_Daniel-iba-a-Bolivia.wav,./stim/wavs/mexican_match_interrogative-total-yn_Daniel-iba-a-Bolivia.wav,./stim/wavs/peruvian_match_interrogative-total-yn_Daniel-iba-a-Bolivia.wav,./stim/wavs/puertorican_match_interrogative-total-yn_Daniel-iba-a-Bolivia.wav,,,,,,,,,,,,,,,,,,,,,,,,,,,,,,,,,,,,,,,,,,,,,,,,,,,,,,,,
,,,,,,,5f865e9ac5be471b63865294,605b45a4d25f287719a41696,605be6ef4a11ffaba3d7c3e5,United States,East coast,13 or older,no,2021-03-24_21h37.02.662,empathy_intonation_perc,2020.2.10,Win32,60,,,,,,,,,,0,chilean,0,1,1.408515,0,44,44,36,1,37,./stim/wavs/andalusian_mismatch_declarative-broad-focus_La-nina-lava-el-plato.wav,./stim/wavs/argentine_mismatch_declarative-broad-focus_La-nina-lava-el-plato.wav,./stim/wavs/castilian_mismatch_declarative-broad-focus_La-nina-lava-el-plato.wav,./stim/wavs/chilean_mismatch_declarative-broad-focus_La-nina-lava-el-plato.wav,./stim/wavs/cuban_mismatch_declarative-broad-focus_La-nina-lava-el-plato.wav,./stim/wavs/mexican_mismatch_declarative-broad-focus_La-nina-lava-el-plato.wav,./stim/wavs/peruvian_mismatch_declarative-broad-focus_La-nina-lava-el-plato.wav,./stim/wavs/puertorican_mismatch_declarative-broad-focus_La-nina-lava-el-plato.wav,,,,,,,,,,,,,,,,,,,,,,,,,,,,,,,,,,,,,,,,,,,,,,,,,,,,,,,,
,,,,,,,5f865e9ac5be471b63865294,605b45a4d25f287719a41696,605be6ef4a11ffaba3d7c3e5,United States,East coast,13 or older,no,2021-03-24_21h37.02.662,empathy_intonation_perc,2020.2.10,Win32,60,,,,,,,,,,1,mexican,0,0,1.768625,0,45,45,52,1,53,./stim/wavs/andalusian_mismatch_interrogative-partial-wh_Por-que-odiaba-la-lluvia.wav,./stim/wavs/argentine_mismatch_interrogative-partial-wh_Por-que-odiaba-la-lluvia.wav,./stim/wavs/castilian_mismatch_interrogative-partial-wh_Por-que-odiaba-la-lluvia.wav,./stim/wavs/chilean_mismatch_interrogative-partial-wh_Por-que-odiaba-la-lluvia.wav,./stim/wavs/cuban_mismatch_interrogative-partial-wh_Por-que-odiaba-la-lluvia.wav,./stim/wavs/mexican_mismatch_interrogative-partial-wh_Por-que-odiaba-la-lluvia.wav,./stim/wavs/peruvian_mismatch_interrogative-partial-wh_Por-que-odiaba-la-lluvia.wav,./stim/wavs/puertorican_mismatch_interrogative-partial-wh_Por-que-odiaba-la-lluvia.wav,,,,,,,,,,,,,,,,,,,,,,,,,,,,,,,,,,,,,,,,,,,,,,,,,,,,,,,,
,,,,,,,5f865e9ac5be471b63865294,605b45a4d25f287719a41696,605be6ef4a11ffaba3d7c3e5,United States,East coast,13 or older,no,2021-03-24_21h37.02.662,empathy_intonation_perc,2020.2.10,Win32,60,,,,,,,,,,1,chilean,0,0,1.39117,0,46,46,21,1,22,./stim/wavs/andalusian_match_interrogative-partial-wh_Por-que-ama-la-navidad.wav,./stim/wavs/argentine_match_interrogative-partial-wh_Por-que-ama-la-navidad.wav,./stim/wavs/castilian_match_interrogative-partial-wh_Por-que-ama-la-navidad.wav,./stim/wavs/chilean_match_interrogative-partial-wh_Por-que-ama-la-navidad.wav,./stim/wavs/cuban_match_interrogative-partial-wh_Por-que-ama-la-navidad.wav,./stim/wavs/mexican_match_interrogative-partial-wh_Por-que-ama-la-navidad.wav,./stim/wavs/peruvian_match_interrogative-partial-wh_Por-que-ama-la-navidad.wav,./stim/wavs/puertorican_match_interrogative-partial-wh_Por-que-ama-la-navidad.wav,,,,,,,,,,,,,,,,,,,,,,,,,,,,,,,,,,,,,,,,,,,,,,,,,,,,,,,,
,,,,,,,5f865e9ac5be471b63865294,605b45a4d25f287719a41696,605be6ef4a11ffaba3d7c3e5,United States,East coast,13 or older,no,2021-03-24_21h37.02.662,empathy_intonation_perc,2020.2.10,Win32,60,,,,,,,,,,1,chilean,1,1,0.99277,0,47,47,49,1,50,./stim/wavs/andalusian_mismatch_interrogative-partial-wh_Cuando-lavaba-el-plato.wav,./stim/wavs/argentine_mismatch_interrogative-partial-wh_Cuando-lavaba-el-plato.wav,./stim/wavs/castilian_mismatch_interrogative-partial-wh_Cuando-lavaba-el-plato.wav,./stim/wavs/chilean_mismatch_interrogative-partial-wh_Cuando-lavaba-el-plato.wav,./stim/wavs/cuban_mismatch_interrogative-partial-wh_Cuando-lavaba-el-plato.wav,./stim/wavs/mexican_mismatch_interrogative-partial-wh_Cuando-lavaba-el-plato.wav,./stim/wavs/peruvian_mismatch_interrogative-partial-wh_Cuando-lavaba-el-plato.wav,./stim/wavs/puertorican_mismatch_interrogative-partial-wh_Cuando-lavaba-el-plato.wav,,,,,,,,,,,,,,,,,,,,,,,,,,,,,,,,,,,,,,,,,,,,,,,,,,,,,,,,
,,,,,,,5f865e9ac5be471b63865294,605b45a4d25f287719a41696,605be6ef4a11ffaba3d7c3e5,United States,East coast,13 or older,no,2021-03-24_21h37.02.662,empathy_intonation_perc,2020.2.10,Win32,60,,,,,,,,,,0,cuban,1,0,0.76589,0,48,48,32,1,33,./stim/wavs/andalusian_mismatch_declarative-broad-focus_El-bebe-comia-muy-bien.wav,./stim/wavs/argentine_mismatch_declarative-broad-focus_El-bebe-comia-muy-bien.wav,./stim/wavs/castilian_mismatch_declarative-broad-focus_El-bebe-comia-muy-bien.wav,./stim/wavs/chilean_mismatch_declarative-broad-focus_El-bebe-comia-muy-bien.wav,./stim/wavs/cuban_mismatch_declarative-broad-focus_El-bebe-comia-muy-bien.wav,./stim/wavs/mexican_mismatch_declarative-broad-focus_El-bebe-comia-muy-bien.wav,./stim/wavs/peruvian_mismatch_declarative-broad-focus_El-bebe-comia-muy-bien.wav,./stim/wavs/puertorican_mismatch_declarative-broad-focus_El-bebe-comia-muy-bien.wav,,,,,,,,,,,,,,,,,,,,,,,,,,,,,,,,,,,,,,,,,,,,,,,,,,,,,,,,
,,,,,,,5f865e9ac5be471b63865294,605b45a4d25f287719a41696,605be6ef4a11ffaba3d7c3e5,United States,East coast,13 or older,no,2021-03-24_21h37.02.662,empathy_intonation_perc,2020.2.10,Win32,60,,,,,,,,,,1,cuban,0,0,1.22268,0,49,49,48,1,49,./stim/wavs/andalusian_mismatch_interrogative-partial-wh_Cuando-comia-la-fruta.wav,./stim/wavs/argentine_mismatch_interrogative-partial-wh_Cuando-comia-la-fruta.wav,./stim/wavs/castilian_mismatch_interrogative-partial-wh_Cuando-comia-la-fruta.wav,./stim/wavs/chilean_mismatch_interrogative-partial-wh_Cuando-comia-la-fruta.wav,./stim/wavs/cuban_mismatch_interrogative-partial-wh_Cuando-comia-la-fruta.wav,./stim/wavs/mexican_mismatch_interrogative-partial-wh_Cuando-comia-la-fruta.wav,./stim/wavs/peruvian_mismatch_interrogative-partial-wh_Cuando-comia-la-fruta.wav,./stim/wavs/puertorican_mismatch_interrogative-partial-wh_Cuando-comia-la-fruta.wav,,,,,,,,,,,,,,,,,,,,,,,,,,,,,,,,,,,,,,,,,,,,,,,,,,,,,,,,
,,,,,,,5f865e9ac5be471b63865294,605b45a4d25f287719a41696,605be6ef4a11ffaba3d7c3e5,United States,East coast,13 or older,no,2021-03-24_21h37.02.662,empathy_intonation_perc,2020.2.10,Win32,60,,,,,,,,,,0,peruvian,0,1,1.68265,0,50,50,41,1,42,./stim/wavs/andalusian_mismatch_declarative-narrow-focus_El-hombre-mira-la-luna.wav,./stim/wavs/argentine_mismatch_declarative-narrow-focus_El-hombre-mira-la-luna.wav,./stim/wavs/castilian_mismatch_declarative-narrow-focus_El-hombre-mira-la-luna.wav,./stim/wavs/chilean_mismatch_declarative-narrow-focus_El-hombre-mira-la-luna.wav,./stim/wavs/cuban_mismatch_declarative-narrow-focus_El-hombre-mira-la-luna.wav,./stim/wavs/mexican_mismatch_declarative-narrow-focus_El-hombre-mira-la-luna.wav,./stim/wavs/peruvian_mismatch_declarative-narrow-focus_El-hombre-mira-la-luna.wav,./stim/wavs/puertorican_mismatch_declarative-narrow-focus_El-hombre-mira-la-luna.wav,,,,,,,,,,,,,,,,,,,,,,,,,,,,,,,,,,,,,,,,,,,,,,,,,,,,,,,,
,,,,,,,5f865e9ac5be471b63865294,605b45a4d25f287719a41696,605be6ef4a11ffaba3d7c3e5,United States,East coast,13 or older,no,2021-03-24_21h37.02.662,empathy_intonation_perc,2020.2.10,Win32,60,,,,,,,,,,1,puertorican,0,0,0.89315,0,51,51,16,1,17,./stim/wavs/andalusian_match_interrogative-partial-wh_Cuando-bebia-el-vino.wav,./stim/wavs/argentine_match_interrogative-partial-wh_Cuando-bebia-el-vino.wav,./stim/wavs/castilian_match_interrogative-partial-wh_Cuando-bebia-el-vino.wav,./stim/wavs/chilean_match_interrogative-partial-wh_Cuando-bebia-el-vino.wav,./stim/wavs/cuban_match_interrogative-partial-wh_Cuando-bebia-el-vino.wav,./stim/wavs/mexican_match_interrogative-partial-wh_Cuando-bebia-el-vino.wav,./stim/wavs/peruvian_match_interrogative-partial-wh_Cuando-bebia-el-vino.wav,./stim/wavs/puertorican_match_interrogative-partial-wh_Cuando-bebia-el-vino.wav,,,,,,,,,,,,,,,,,,,,,,,,,,,,,,,,,,,,,,,,,,,,,,,,,,,,,,,,
,,,,,,,5f865e9ac5be471b63865294,605b45a4d25f287719a41696,605be6ef4a11ffaba3d7c3e5,United States,East coast,13 or older,no,2021-03-24_21h37.02.662,empathy_intonation_perc,2020.2.10,Win32,60,,,,,,,,,,0,puertorican,0,1,3.343495,0,52,52,3,1,4,./stim/wavs/andalusian_match_declarative-broad-focus_Emilio-ama-la-marcha.wav,./stim/wavs/argentine_match_declarative-broad-focus_Emilio-ama-la-marcha.wav,./stim/wavs/castilian_match_declarative-broad-focus_Emilio-ama-la-marcha.wav,./stim/wavs/chilean_match_declarative-broad-focus_Emilio-ama-la-marcha.wav,./stim/wavs/cuban_match_declarative-broad-focus_Emilio-ama-la-marcha.wav,./stim/wavs/mexican_match_declarative-broad-focus_Emilio-ama-la-marcha.wav,./stim/wavs/peruvian_match_declarative-broad-focus_Emilio-ama-la-marcha.wav,./stim/wavs/puertorican_match_declarative-broad-focus_Emilio-ama-la-marcha.wav,,,,,,,,,,,,,,,,,,,,,,,,,,,,,,,,,,,,,,,,,,,,,,,,,,,,,,,,
,,,,,,,5f865e9ac5be471b63865294,605b45a4d25f287719a41696,605be6ef4a11ffaba3d7c3e5,United States,East coast,13 or older,no,2021-03-24_21h37.02.662,empathy_intonation_perc,2020.2.10,Win32,60,,,,,,,,,,1,puertorican,0,0,3.428015,0,53,53,27,1,28,./stim/wavs/andalusian_match_interrogative-total-yn_Emilio-ama-la-marcha.wav,./stim/wavs/argentine_match_interrogative-total-yn_Emilio-ama-la-marcha.wav,./stim/wavs/castilian_match_interrogative-total-yn_Emilio-ama-la-marcha.wav,./stim/wavs/chilean_match_interrogative-total-yn_Emilio-ama-la-marcha.wav,./stim/wavs/cuban_match_interrogative-total-yn_Emilio-ama-la-marcha.wav,./stim/wavs/mexican_match_interrogative-total-yn_Emilio-ama-la-marcha.wav,./stim/wavs/peruvian_match_interrogative-total-yn_Emilio-ama-la-marcha.wav,./stim/wavs/puertorican_match_interrogative-total-yn_Emilio-ama-la-marcha.wav,,,,,,,,,,,,,,,,,,,,,,,,,,,,,,,,,,,,,,,,,,,,,,,,,,,,,,,,
,,,,,,,5f865e9ac5be471b63865294,605b45a4d25f287719a41696,605be6ef4a11ffaba3d7c3e5,United States,East coast,13 or older,no,2021-03-24_21h37.02.662,empathy_intonation_perc,2020.2.10,Win32,60,,,,,,,,,,1,mexican,0,0,3.28379,0,54,54,30,1,31,./stim/wavs/andalusian_match_interrogative-total-yn_Mariano-habla-del-tiempo.wav,./stim/wavs/argentine_match_interrogative-total-yn_Mariano-habla-del-tiempo.wav,./stim/wavs/castilian_match_interrogative-total-yn_Mariano-habla-del-tiempo.wav,./stim/wavs/chilean_match_interrogative-total-yn_Mariano-habla-del-tiempo.wav,./stim/wavs/cuban_match_interrogative-total-yn_Mariano-habla-del-tiempo.wav,./stim/wavs/mexican_match_interrogative-total-yn_Mariano-habla-del-tiempo.wav,./stim/wavs/peruvian_match_interrogative-total-yn_Mariano-habla-del-tiempo.wav,./stim/wavs/puertorican_match_interrogative-total-yn_Mariano-habla-del-tiempo.wav,,,,,,,,,,,,,,,,,,,,,,,,,,,,,,,,,,,,,,,,,,,,,,,,,,,,,,,,
,,,,,,,5f865e9ac5be471b63865294,605b45a4d25f287719a41696,605be6ef4a11ffaba3d7c3e5,United States,East coast,13 or older,no,2021-03-24_21h37.02.662,empathy_intonation_perc,2020.2.10,Win32,60,,,,,,,,,,1,cuban,0,0,1.671565,0,55,55,57,1,58,./stim/wavs/andalusian_mismatch_interrogative-total-yn_El-hombre-mira-la-luna.wav,./stim/wavs/argentine_mismatch_interrogative-total-yn_El-hombre-mira-la-luna.wav,./stim/wavs/castilian_mismatch_interrogative-total-yn_El-hombre-mira-la-luna.wav,./stim/wavs/chilean_mismatch_interrogative-total-yn_El-hombre-mira-la-luna.wav,./stim/wavs/cuban_mismatch_interrogative-total-yn_El-hombre-mira-la-luna.wav,./stim/wavs/mexican_mismatch_interrogative-total-yn_El-hombre-mira-la-luna.wav,./stim/wavs/peruvian_mismatch_interrogative-total-yn_El-hombre-mira-la-luna.wav,./stim/wavs/puertorican_mismatch_interrogative-total-yn_El-hombre-mira-la-luna.wav,,,,,,,,,,,,,,,,,,,,,,,,,,,,,,,,,,,,,,,,,,,,,,,,,,,,,,,,
,,,,,,,5f865e9ac5be471b63865294,605b45a4d25f287719a41696,605be6ef4a11ffaba3d7c3e5,United States,East coast,13 or older,no,2021-03-24_21h37.02.662,empathy_intonation_perc,2020.2.10,Win32,60,,,,,,,,,,1,chilean,1,1,1.31233,0,56,56,62,1,63,./stim/wavs/andalusian_mismatch_interrogative-total-yn_Mi-novio-viene-del-lago.wav,./stim/wavs/argentine_mismatch_interrogative-total-yn_Mi-novio-viene-del-lago.wav,./stim/wavs/castilian_mismatch_interrogative-total-yn_Mi-novio-viene-del-lago.wav,./stim/wavs/chilean_mismatch_interrogative-total-yn_Mi-novio-viene-del-lago.wav,./stim/wavs/cuban_mismatch_interrogative-total-yn_Mi-novio-viene-del-lago.wav,./stim/wavs/mexican_mismatch_interrogative-total-yn_Mi-novio-viene-del-lago.wav,./stim/wavs/peruvian_mismatch_interrogative-total-yn_Mi-novio-viene-del-lago.wav,./stim/wavs/puertorican_mismatch_interrogative-total-yn_Mi-novio-viene-del-lago.wav,,,,,,,,,,,,,,,,,,,,,,,,,,,,,,,,,,,,,,,,,,,,,,,,,,,,,,,,
,,,,,,,5f865e9ac5be471b63865294,605b45a4d25f287719a41696,605be6ef4a11ffaba3d7c3e5,United States,East coast,13 or older,no,2021-03-24_21h37.02.662,empathy_intonation_perc,2020.2.10,Win32,60,,,,,,,,,,0,andalusian,1,0,2.11324,0,57,57,0,1,1,./stim/wavs/andalusian_match_declarative-broad-focus_Ana-lleva-el-abrigo.wav,./stim/wavs/argentine_match_declarative-broad-focus_Ana-lleva-el-abrigo.wav,./stim/wavs/castilian_match_declarative-broad-focus_Ana-lleva-el-abrigo.wav,./stim/wavs/chilean_match_declarative-broad-focus_Ana-lleva-el-abrigo.wav,./stim/wavs/cuban_match_declarative-broad-focus_Ana-lleva-el-abrigo.wav,./stim/wavs/mexican_match_declarative-broad-focus_Ana-lleva-el-abrigo.wav,./stim/wavs/peruvian_match_declarative-broad-focus_Ana-lleva-el-abrigo.wav,./stim/wavs/puertorican_match_declarative-broad-focus_Ana-lleva-el-abrigo.wav,,,,,,,,,,,,,,,,,,,,,,,,,,,,,,,,,,,,,,,,,,,,,,,,,,,,,,,,
,,,,,,,5f865e9ac5be471b63865294,605b45a4d25f287719a41696,605be6ef4a11ffaba3d7c3e5,United States,East coast,13 or older,no,2021-03-24_21h37.02.662,empathy_intonation_perc,2020.2.10,Win32,60,,,,,,,,,,0,argentine,1,0,2.297915,0,58,58,38,1,39,./stim/wavs/andalusian_mismatch_declarative-broad-focus_Mi-novio-viene-del-lago.wav,./stim/wavs/argentine_mismatch_declarative-broad-focus_Mi-novio-viene-del-lago.wav,./stim/wavs/castilian_mismatch_declarative-broad-focus_Mi-novio-viene-del-lago.wav,./stim/wavs/chilean_mismatch_declarative-broad-focus_Mi-novio-viene-del-lago.wav,./stim/wavs/cuban_mismatch_declarative-broad-focus_Mi-novio-viene-del-lago.wav,./stim/wavs/mexican_mismatch_declarative-broad-focus_Mi-novio-viene-del-lago.wav,./stim/wavs/peruvian_mismatch_declarative-broad-focus_Mi-novio-viene-del-lago.wav,./stim/wavs/puertorican_mismatch_declarative-broad-focus_Mi-novio-viene-del-lago.wav,,,,,,,,,,,,,,,,,,,,,,,,,,,,,,,,,,,,,,,,,,,,,,,,,,,,,,,,
,,,,,,,5f865e9ac5be471b63865294,605b45a4d25f287719a41696,605be6ef4a11ffaba3d7c3e5,United States,East coast,13 or older,no,2021-03-24_21h37.02.662,empathy_intonation_perc,2020.2.10,Win32,60,,,,,,,,,,1,andalusian,0,0,3.063815,0,59,59,23,1,24,./stim/wavs/andalusian_match_interrogative-partial-wh_Por-que-iba-a-Bolivia.wav,./stim/wavs/argentine_match_interrogative-partial-wh_Por-que-iba-a-Bolivia.wav,./stim/wavs/castilian_match_interrogative-partial-wh_Por-que-iba-a-Bolivia.wav,./stim/wavs/chilean_match_interrogative-partial-wh_Por-que-iba-a-Bolivia.wav,./stim/wavs/cuban_match_interrogative-partial-wh_Por-que-iba-a-Bolivia.wav,./stim/wavs/mexican_match_interrogative-partial-wh_Por-que-iba-a-Bolivia.wav,./stim/wavs/peruvian_match_interrogative-partial-wh_Por-que-iba-a-Bolivia.wav,./stim/wavs/puertorican_match_interrogative-partial-wh_Por-que-iba-a-Bolivia.wav,,,,,,,,,,,,,,,,,,,,,,,,,,,,,,,,,,,,,,,,,,,,,,,,,,,,,,,,
,,,,,,,5f865e9ac5be471b63865294,605b45a4d25f287719a41696,605be6ef4a11ffaba3d7c3e5,United States,East coast,13 or older,no,2021-03-24_21h37.02.662,empathy_intonation_perc,2020.2.10,Win32,60,,,,,,,,,,1,castilian,1,1,0.827165,0,60,60,54,1,55,./stim/wavs/andalusian_mismatch_interrogative-partial-wh_Por-que-venia-del-lago.wav,./stim/wavs/argentine_mismatch_interrogative-partial-wh_Por-que-venia-del-lago.wav,./stim/wavs/castilian_mismatch_interrogative-partial-wh_Por-que-venia-del-lago.wav,./stim/wavs/chilean_mismatch_interrogative-partial-wh_Por-que-venia-del-lago.wav,./stim/wavs/cuban_mismatch_interrogative-partial-wh_Por-que-venia-del-lago.wav,./stim/wavs/mexican_mismatch_interrogative-partial-wh_Por-que-venia-del-lago.wav,./stim/wavs/peruvian_mismatch_interrogative-partial-wh_Por-que-venia-del-lago.wav,./stim/wavs/puertorican_mismatch_interrogative-partial-wh_Por-que-venia-del-lago.wav,,,,,,,,,,,,,,,,,,,,,,,,,,,,,,,,,,,,,,,,,,,,,,,,,,,,,,,,
,,,,,,,5f865e9ac5be471b63865294,605b45a4d25f287719a41696,605be6ef4a11ffaba3d7c3e5,United States,East coast,13 or older,no,2021-03-24_21h37.02.662,empathy_intonation_perc,2020.2.10,Win32,60,,,,,,,,,,1,mexican,1,1,1.058935,0,61,61,19,1,20,./stim/wavs/andalusian_match_interrogative-partial-wh_Cuando-vendia-el-carro.wav,./stim/wavs/argentine_match_interrogative-partial-wh_Cuando-vendia-el-carro.wav,./stim/wavs/castilian_match_interrogative-partial-wh_Cuando-vendia-el-carro.wav,./stim/wavs/chilean_match_interrogative-partial-wh_Cuando-vendia-el-carro.wav,./stim/wavs/cuban_match_interrogative-partial-wh_Cuando-vendia-el-carro.wav,./stim/wavs/mexican_match_interrogative-partial-wh_Cuando-vendia-el-carro.wav,./stim/wavs/peruvian_match_interrogative-partial-wh_Cuando-vendia-el-carro.wav,./stim/wavs/puertorican_match_interrogative-partial-wh_Cuando-vendia-el-carro.wav,,,,,,,,,,,,,,,,,,,,,,,,,,,,,,,,,,,,,,,,,,,,,,,,,,,,,,,,
,,,,,,,5f865e9ac5be471b63865294,605b45a4d25f287719a41696,605be6ef4a11ffaba3d7c3e5,United States,East coast,13 or older,no,2021-03-24_21h37.02.662,empathy_intonation_perc,2020.2.10,Win32,60,,,,,,,,,,0,puertorican,1,0,1.757455,0,62,62,5,1,6,./stim/wavs/andalusian_match_declarative-broad-focus_Maria-bebe-el-vino.wav,./stim/wavs/argentine_match_declarative-broad-focus_Maria-bebe-el-vino.wav,./stim/wavs/castilian_match_declarative-broad-focus_Maria-bebe-el-vino.wav,./stim/wavs/chilean_match_declarative-broad-focus_Maria-bebe-el-vino.wav,./stim/wavs/cuban_match_declarative-broad-focus_Maria-bebe-el-vino.wav,./stim/wavs/mexican_match_declarative-broad-focus_Maria-bebe-el-vino.wav,./stim/wavs/peruvian_match_declarative-broad-focus_Maria-bebe-el-vino.wav,./stim/wavs/puertorican_match_declarative-broad-focus_Maria-bebe-el-vino.wav,,,,,,,,,,,,,,,,,,,,,,,,,,,,,,,,,,,,,,,,,,,,,,,,,,,,,,,,
,,,,,,,5f865e9ac5be471b63865294,605b45a4d25f287719a41696,605be6ef4a11ffaba3d7c3e5,United States,East coast,13 or older,no,2021-03-24_21h37.02.662,empathy_intonation_perc,2020.2.10,Win32,60,,,,,,,,,,0,cuban,0,1,0.905,0,63,63,33,1,34,./stim/wavs/andalusian_mismatch_declarative-broad-focus_El-hombre-mira-la-luna.wav,./stim/wavs/argentine_mismatch_declarative-broad-focus_El-hombre-mira-la-luna.wav,./stim/wavs/castilian_mismatch_declarative-broad-focus_El-hombre-mira-la-luna.wav,./stim/wavs/chilean_mismatch_declarative-broad-focus_El-hombre-mira-la-luna.wav,./stim/wavs/cuban_mismatch_declarative-broad-focus_El-hombre-mira-la-luna.wav,./stim/wavs/mexican_mismatch_declarative-broad-focus_El-hombre-mira-la-luna.wav,./stim/wavs/peruvian_mismatch_declarative-broad-focus_El-hombre-mira-la-luna.wav,./stim/wavs/puertorican_mismatch_declarative-broad-focus_El-hombre-mira-la-luna.wav,,,,,,,,,,,,,,,,,,,,,,,,,,,,,,,,,,,,,,,,,,,,,,,,,,,,,,,,
,,,,,,,5f865e9ac5be471b63865294,605b45a4d25f287719a41696,605be6ef4a11ffaba3d7c3e5,United States,East coast,13 or older,no,2021-03-24_21h37.02.662,empathy_intonation_perc,2020.2.10,Win32,60,,,,,,,,,,,,,,,,,,,,,,,,,,,,,h,1,7.644765,0,0,0,0,1,,,,,,,,,,,,,,,,,,,,,,,,,,,,,,,,,,,,,,,,,,,,,,,,
,,,,,"Great! Now we will move on. The next task consists of about 60 trials, in each of which you will see a string of letters. 
  
  Your task is to decide whether this is a real Spanish word or not.",(press the spacebar to continue),5f865e9ac5be471b63865294,605b45a4d25f287719a41696,605be6ef4a11ffaba3d7c3e5,United States,East coast,13 or older,no,2021-03-24_21h37.02.662,empathy_intonation_perc,2020.2.10,Win32,60,,,,,,,,,,,,,,,,,,,,,,,,,,,,,,,,,,,,,0,0,0,0,1,,,,,,,,,,,,,,,,,,,,,,,,,,,,,,,,,,,,,,,,,,,
,,,,,"If you think it is an existing Spanish word, you type '1' (for 'REAL'), and if you think it is not an existing Spanish word, you type '0' (for 'FAKE').",(press the spacebar to continue),5f865e9ac5be471b63865294,605b45a4d25f287719a41696,605be6ef4a11ffaba3d7c3e5,United States,East coast,13 or older,no,2021-03-24_21h37.02.662,empathy_intonation_perc,2020.2.10,Win32,60,,,,,,,,,,,,,,,,,,,,,,,,,,,,,,,,,,,,,0,1,1,1,1,,,,,,,,,,,,,,,,,,,,,,,,,,,,,,,,,,,,,,,,,,,
,,,,,"If you are sure that the word exists, even though you dont know its exact meaning, you may still respond '1' (REAL). 
  
  But if you are not sure if it is an existing word, you should respond '0' (FAKE).
  
  Let's do a practice round...",(press the spacebar to continue),5f865e9ac5be471b63865294,605b45a4d25f287719a41696,605be6ef4a11ffaba3d7c3e5,United States,East coast,13 or older,no,2021-03-24_21h37.02.662,empathy_intonation_perc,2020.2.10,Win32,60,,,,,,,,,,,,,,,,,,,,,,,,,,,,,,,,,,,,,0,2,2,2,1,,,,,,,,,,,,,,,,,,,,,,,,,,,,,,,,,,,,,,,,,,,
,,,,,,,5f865e9ac5be471b63865294,605b45a4d25f287719a41696,605be6ef4a11ffaba3d7c3e5,United States,East coast,13 or older,no,2021-03-24_21h37.02.662,empathy_intonation_perc,2020.2.10,Win32,60,,,,,,,,,,0,,,,,,,,,,,,,,,,,,,,,,,,,,,,,,,,1,0,1.496995,0,0,0,0,1,0,depiste,REAL,FAKE,,,,,,,,,,,,,,,,,,,,,,,,,,,,,,,
,,,,,,,5f865e9ac5be471b63865294,605b45a4d25f287719a41696,605be6ef4a11ffaba3d7c3e5,United States,East coast,13 or older,no,2021-03-24_21h37.02.662,empathy_intonation_perc,2020.2.10,Win32,60,,,,,,,,,,1,,,,,,,,,,,,,,,,,,,,,,,,,,,,,,,,1,1,1.145175,0,1,1,1,1,0,s,REAL,FAKE,,,,,,,,,,,,,,,,,,,,,,,,,,,,,,,
,,,,,,,5f865e9ac5be471b63865294,605b45a4d25f287719a41696,605be6ef4a11ffaba3d7c3e5,United States,East coast,13 or older,no,2021-03-24_21h37.02.662,empathy_intonation_perc,2020.2.10,Win32,60,,,,,,,,,,0,,,,,,,,,,,,,,,,,,,,,,,,,,,,,,,,0,1,0.69991,0,2,2,2,1,0,con,REAL,FAKE,,,,,,,,,,,,,,,,,,,,,,,,,,,,,,,
,,,,,,,5f865e9ac5be471b63865294,605b45a4d25f287719a41696,605be6ef4a11ffaba3d7c3e5,United States,East coast,13 or older,no,2021-03-24_21h37.02.662,empathy_intonation_perc,2020.2.10,Win32,60,,,,,,,,,,0,,,,,,,,,,,,,,,,,,,,,,,,,,,,,,,,0,1,0.94552,0,3,3,3,1,0,calpar,REAL,FAKE,,,,,,,,,,,,,,,,,,,,,,,,,,,,,,,
,,,,,,,5f865e9ac5be471b63865294,605b45a4d25f287719a41696,605be6ef4a11ffaba3d7c3e5,United States,East coast,13 or older,no,2021-03-24_21h37.02.662,empathy_intonation_perc,2020.2.10,Win32,60,,,,,,,,,,0,,,,,,,,,,,,,,,,,,,,,,,,,,,,,,,,0,1,0.758145,0,4,4,4,1,0,joten,REAL,FAKE,,,,,,,,,,,,,,,,,,,,,,,,,,,,,,,
,,,,,,,5f865e9ac5be471b63865294,605b45a4d25f287719a41696,605be6ef4a11ffaba3d7c3e5,United States,East coast,13 or older,no,2021-03-24_21h37.02.662,empathy_intonation_perc,2020.2.10,Win32,60,,,,,,,,,,1,,,,,,,,,,,,,,,,,,,,,,,,,,,,,,,,1,1,0.617315,0,5,5,5,1,0,sacapuntas,REAL,FAKE,,,,,,,,,,,,,,,,,,,,,,,,,,,,,,,
,,,,,,,5f865e9ac5be471b63865294,605b45a4d25f287719a41696,605be6ef4a11ffaba3d7c3e5,United States,East coast,13 or older,no,2021-03-24_21h37.02.662,empathy_intonation_perc,2020.2.10,Win32,60,,,,,,,,,,0,,,,,,,,,,,,,,,,,,,,,,,,,,,,,,,,0,1,4.995415,0,6,6,6,1,0,priba,REAL,FAKE,,,,,,,,,,,,,,,,,,,,,,,,,,,,,,,
,,,,,,,5f865e9ac5be471b63865294,605b45a4d25f287719a41696,605be6ef4a11ffaba3d7c3e5,United States,East coast,13 or older,no,2021-03-24_21h37.02.662,empathy_intonation_perc,2020.2.10,Win32,60,,,,,,,,,,0,,,,,,,,,,,,,,,,,,,,,,,,,,,,,,,,1,0,0.61933,0,7,7,7,1,0,pelasula,REAL,FAKE,,,,,,,,,,,,,,,,,,,,,,,,,,,,,,,
,,,,,,,5f865e9ac5be471b63865294,605b45a4d25f287719a41696,605be6ef4a11ffaba3d7c3e5,United States,East coast,13 or older,no,2021-03-24_21h37.02.662,empathy_intonation_perc,2020.2.10,Win32,60,,,,,,,,,,1,,,,,,,,,,,,,,,,,,,,,,,,,,,,,,,,1,1,0.856055,0,8,8,8,1,0,bien,REAL,FAKE,,,,,,,,,,,,,,,,,,,,,,,,,,,,,,,
,,,,,,,5f865e9ac5be471b63865294,605b45a4d25f287719a41696,605be6ef4a11ffaba3d7c3e5,United States,East coast,13 or older,no,2021-03-24_21h37.02.662,empathy_intonation_perc,2020.2.10,Win32,60,,,,,,,,,,1,,,,,,,,,,,,,,,,,,,,,,,,,,,,,,,,1,1,0.692555,0,9,9,9,1,0,casa,REAL,FAKE,,,,,,,,,,,,,,,,,,,,,,,,,,,,,,,
,,,,,,,5f865e9ac5be471b63865294,605b45a4d25f287719a41696,605be6ef4a11ffaba3d7c3e5,United States,East coast,13 or older,no,2021-03-24_21h37.02.662,empathy_intonation_perc,2020.2.10,Win32,60,,,,,,,,,,0,,,,,,,,,,,,,,,,,,,,,,,,,,,,,,,,0,1,0.663375,0,10,10,10,1,0,lejo,REAL,FAKE,,,,,,,,,,,,,,,,,,,,,,,,,,,,,,,
,,,,,,,5f865e9ac5be471b63865294,605b45a4d25f287719a41696,605be6ef4a11ffaba3d7c3e5,United States,East coast,13 or older,no,2021-03-24_21h37.02.662,empathy_intonation_perc,2020.2.10,Win32,60,,,,,,,,,,0,,,,,,,,,,,,,,,,,,,,,,,,,,,,,,,,0,1,0.77383,0,11,11,11,1,0,pretantas,REAL,FAKE,,,,,,,,,,,,,,,,,,,,,,,,,,,,,,,
,,,,,,,5f865e9ac5be471b63865294,605b45a4d25f287719a41696,605be6ef4a11ffaba3d7c3e5,United States,East coast,13 or older,no,2021-03-24_21h37.02.662,empathy_intonation_perc,2020.2.10,Win32,60,,,,,,,,,,1,,,,,,,,,,,,,,,,,,,,,,,,,,,,,,,,,,,,,,,,37,granuja,,,1,1,0.82132,0,0,0,36,1,REAL,FAKE,,,,,,,,,,,,,,,,,,,,,
,,,,,,,5f865e9ac5be471b63865294,605b45a4d25f287719a41696,605be6ef4a11ffaba3d7c3e5,United States,East coast,13 or older,no,2021-03-24_21h37.02.662,empathy_intonation_perc,2020.2.10,Win32,60,,,,,,,,,,1,,,,,,,,,,,,,,,,,,,,,,,,,,,,,,,,,,,,,,,,38,estornudar,,,1,1,0.837955,0,1,1,37,1,REAL,FAKE,,,,,,,,,,,,,,,,,,,,,
,,,,,,,5f865e9ac5be471b63865294,605b45a4d25f287719a41696,605be6ef4a11ffaba3d7c3e5,United States,East coast,13 or older,no,2021-03-24_21h37.02.662,empathy_intonation_perc,2020.2.10,Win32,60,,,,,,,,,,1,,,,,,,,,,,,,,,,,,,,,,,,,,,,,,,,,,,,,,,,48,ladrn,,,1,1,0.687365,0,2,2,47,1,REAL,FAKE,,,,,,,,,,,,,,,,,,,,,
,,,,,,,5f865e9ac5be471b63865294,605b45a4d25f287719a41696,605be6ef4a11ffaba3d7c3e5,United States,East coast,13 or older,no,2021-03-24_21h37.02.662,empathy_intonation_perc,2020.2.10,Win32,60,,,,,,,,,,0,,,,,,,,,,,,,,,,,,,,,,,,,,,,,,,,,,,,,,,,72,pemicin,,,0,1,0.6409,0,3,3,71,1,REAL,FAKE,,,,,,,,,,,,,,,,,,,,,
,,,,,,,5f865e9ac5be471b63865294,605b45a4d25f287719a41696,605be6ef4a11ffaba3d7c3e5,United States,East coast,13 or older,no,2021-03-24_21h37.02.662,empathy_intonation_perc,2020.2.10,Win32,60,,,,,,,,,,0,,,,,,,,,,,,,,,,,,,,,,,,,,,,,,,,,,,,,,,,17,floroso,,,0,1,0.82152,0,4,4,16,1,REAL,FAKE,,,,,,,,,,,,,,,,,,,,,
,,,,,,,5f865e9ac5be471b63865294,605b45a4d25f287719a41696,605be6ef4a11ffaba3d7c3e5,United States,East coast,13 or older,no,2021-03-24_21h37.02.662,empathy_intonation_perc,2020.2.10,Win32,60,,,,,,,,,,1,,,,,,,,,,,,,,,,,,,,,,,,,,,,,,,,,,,,,,,,52,camisa,,,0,0,0.65408,0,5,5,51,1,REAL,FAKE,,,,,,,,,,,,,,,,,,,,,
,,,,,,,5f865e9ac5be471b63865294,605b45a4d25f287719a41696,605be6ef4a11ffaba3d7c3e5,United States,East coast,13 or older,no,2021-03-24_21h37.02.662,empathy_intonation_perc,2020.2.10,Win32,60,,,,,,,,,,0,,,,,,,,,,,,,,,,,,,,,,,,,,,,,,,,,,,,,,,,70,temblo,,,0,1,0.75497,0,6,6,69,1,REAL,FAKE,,,,,,,,,,,,,,,,,,,,,
,,,,,,,5f865e9ac5be471b63865294,605b45a4d25f287719a41696,605be6ef4a11ffaba3d7c3e5,United States,East coast,13 or older,no,2021-03-24_21h37.02.662,empathy_intonation_perc,2020.2.10,Win32,60,,,,,,,,,,1,,,,,,,,,,,,,,,,,,,,,,,,,,,,,,,,,,,,,,,,6,tergiversar,,,0,0,0.92179,0,7,7,5,1,REAL,FAKE,,,,,,,,,,,,,,,,,,,,,
,,,,,,,5f865e9ac5be471b63865294,605b45a4d25f287719a41696,605be6ef4a11ffaba3d7c3e5,United States,East coast,13 or older,no,2021-03-24_21h37.02.662,empathy_intonation_perc,2020.2.10,Win32,60,,,,,,,,,,0,,,,,,,,,,,,,,,,,,,,,,,,,,,,,,,,,,,,,,,,4,batilln,,,1,0,0.58651,0,8,8,3,1,REAL,FAKE,,,,,,,,,,,,,,,,,,,,,
,,,,,,,5f865e9ac5be471b63865294,605b45a4d25f287719a41696,605be6ef4a11ffaba3d7c3e5,United States,East coast,13 or older,no,2021-03-24_21h37.02.662,empathy_intonation_perc,2020.2.10,Win32,60,,,,,,,,,,1,,,,,,,,,,,,,,,,,,,,,,,,,,,,,,,,,,,,,,,,44,cuchara,,,1,1,0.592495,0,9,9,43,1,REAL,FAKE,,,,,,,,,,,,,,,,,,,,,
,,,,,,,5f865e9ac5be471b63865294,605b45a4d25f287719a41696,605be6ef4a11ffaba3d7c3e5,United States,East coast,13 or older,no,2021-03-24_21h37.02.662,empathy_intonation_perc,2020.2.10,Win32,60,,,,,,,,,,1,,,,,,,,,,,,,,,,,,,,,,,,,,,,,,,,,,,,,,,,62,flaco,,,0,0,0.55141,0,10,10,61,1,REAL,FAKE,,,,,,,,,,,,,,,,,,,,,
,,,,,,,5f865e9ac5be471b63865294,605b45a4d25f287719a41696,605be6ef4a11ffaba3d7c3e5,United States,East coast,13 or older,no,2021-03-24_21h37.02.662,empathy_intonation_perc,2020.2.10,Win32,60,,,,,,,,,,1,,,,,,,,,,,,,,,,,,,,,,,,,,,,,,,,,,,,,,,,7,psimo,,,0,0,0.887765,0,11,11,6,1,REAL,FAKE,,,,,,,,,,,,,,,,,,,,,
,,,,,,,5f865e9ac5be471b63865294,605b45a4d25f287719a41696,605be6ef4a11ffaba3d7c3e5,United States,East coast,13 or older,no,2021-03-24_21h37.02.662,empathy_intonation_perc,2020.2.10,Win32,60,,,,,,,,,,1,,,,,,,,,,,,,,,,,,,,,,,,,,,,,,,,,,,,,,,,2,pellizcar,,,0,0,0.804835,0,12,12,1,1,REAL,FAKE,,,,,,,,,,,,,,,,,,,,,
,,,,,,,5f865e9ac5be471b63865294,605b45a4d25f287719a41696,605be6ef4a11ffaba3d7c3e5,United States,East coast,13 or older,no,2021-03-24_21h37.02.662,empathy_intonation_perc,2020.2.10,Win32,60,,,,,,,,,,0,,,,,,,,,,,,,,,,,,,,,,,,,,,,,,,,,,,,,,,,33,pauca,,,0,1,0.5871,0,13,13,32,1,REAL,FAKE,,,,,,,,,,,,,,,,,,,,,
,,,,,,,5f865e9ac5be471b63865294,605b45a4d25f287719a41696,605be6ef4a11ffaba3d7c3e5,United States,East coast,13 or older,no,2021-03-24_21h37.02.662,empathy_intonation_perc,2020.2.10,Win32,60,,,,,,,,,,1,,,,,,,,,,,,,,,,,,,,,,,,,,,,,,,,,,,,,,,,61,seda,,,0,0,0.89261,0,14,14,60,1,REAL,FAKE,,,,,,,,,,,,,,,,,,,,,
,,,,,,,5f865e9ac5be471b63865294,605b45a4d25f287719a41696,605be6ef4a11ffaba3d7c3e5,United States,East coast,13 or older,no,2021-03-24_21h37.02.662,empathy_intonation_perc,2020.2.10,Win32,60,,,,,,,,,,0,,,,,,,,,,,,,,,,,,,,,,,,,,,,,,,,,,,,,,,,42,cadallo,,,0,1,0.72184,0,15,15,41,1,REAL,FAKE,,,,,,,,,,,,,,,,,,,,,
,,,,,,,5f865e9ac5be471b63865294,605b45a4d25f287719a41696,605be6ef4a11ffaba3d7c3e5,United States,East coast,13 or older,no,2021-03-24_21h37.02.662,empathy_intonation_perc,2020.2.10,Win32,60,,,,,,,,,,1,,,,,,,,,,,,,,,,,,,,,,,,,,,,,,,,,,,,,,,,51,candado,,,1,1,0.72103,0,16,16,50,1,REAL,FAKE,,,,,,,,,,,,,,,,,,,,,
,,,,,,,5f865e9ac5be471b63865294,605b45a4d25f287719a41696,605be6ef4a11ffaba3d7c3e5,United States,East coast,13 or older,no,2021-03-24_21h37.02.662,empathy_intonation_perc,2020.2.10,Win32,60,,,,,,,,,,0,,,,,,,,,,,,,,,,,,,,,,,,,,,,,,,,,,,,,,,,50,flamida,,,0,1,0.820355,0,17,17,49,1,REAL,FAKE,,,,,,,,,,,,,,,,,,,,,
,,,,,,,5f865e9ac5be471b63865294,605b45a4d25f287719a41696,605be6ef4a11ffaba3d7c3e5,United States,East coast,13 or older,no,2021-03-24_21h37.02.662,empathy_intonation_perc,2020.2.10,Win32,60,,,,,,,,,,0,,,,,,,,,,,,,,,,,,,,,,,,,,,,,,,,,,,,,,,,18,arsa,,,1,0,0.70513,0,18,18,17,1,REAL,FAKE,,,,,,,,,,,,,,,,,,,,,
,,,,,,,5f865e9ac5be471b63865294,605b45a4d25f287719a41696,605be6ef4a11ffaba3d7c3e5,United States,East coast,13 or older,no,2021-03-24_21h37.02.662,empathy_intonation_perc,2020.2.10,Win32,60,,,,,,,,,,1,,,,,,,,,,,,,,,,,,,,,,,,,,,,,,,,,,,,,,,,13,helar,,,1,1,0.55659,0,19,19,12,1,REAL,FAKE,,,,,,,,,,,,,,,,,,,,,
,,,,,,,5f865e9ac5be471b63865294,605b45a4d25f287719a41696,605be6ef4a11ffaba3d7c3e5,United States,East coast,13 or older,no,2021-03-24_21h37.02.662,empathy_intonation_perc,2020.2.10,Win32,60,,,,,,,,,,1,,,,,,,,,,,,,,,,,,,,,,,,,,,,,,,,,,,,,,,,12,asesinato,,,0,0,0.55768,0,20,20,11,1,REAL,FAKE,,,,,,,,,,,,,,,,,,,,,
,,,,,,,5f865e9ac5be471b63865294,605b45a4d25f287719a41696,605be6ef4a11ffaba3d7c3e5,United States,East coast,13 or older,no,2021-03-24_21h37.02.662,empathy_intonation_perc,2020.2.10,Win32,60,,,,,,,,,,1,,,,,,,,,,,,,,,,,,,,,,,,,,,,,,,,,,,,,,,,5,zapato,,,0,0,0.57369,0,21,21,4,1,REAL,FAKE,,,,,,,,,,,,,,,,,,,,,
,,,,,,,5f865e9ac5be471b63865294,605b45a4d25f287719a41696,605be6ef4a11ffaba3d7c3e5,United States,East coast,13 or older,no,2021-03-24_21h37.02.662,empathy_intonation_perc,2020.2.10,Win32,60,,,,,,,,,,0,,,,,,,,,,,,,,,,,,,,,,,,,,,,,,,,,,,,,,,,63,esposante,,,1,0,1.03808,0,22,22,62,1,REAL,FAKE,,,,,,,,,,,,,,,,,,,,,
,,,,,,,5f865e9ac5be471b63865294,605b45a4d25f287719a41696,605be6ef4a11ffaba3d7c3e5,United States,East coast,13 or older,no,2021-03-24_21h37.02.662,empathy_intonation_perc,2020.2.10,Win32,60,,,,,,,,,,0,,,,,,,,,,,,,,,,,,,,,,,,,,,,,,,,,,,,,,,,16,abracer,,,1,0,0.55371,0,23,23,15,1,REAL,FAKE,,,,,,,,,,,,,,,,,,,,,
,,,,,,,5f865e9ac5be471b63865294,605b45a4d25f287719a41696,605be6ef4a11ffaba3d7c3e5,United States,East coast,13 or older,no,2021-03-24_21h37.02.662,empathy_intonation_perc,2020.2.10,Win32,60,,,,,,,,,,1,,,,,,,,,,,,,,,,,,,,,,,,,,,,,,,,,,,,,,,,75,yacer,,,1,1,0.620705,0,24,24,74,1,REAL,FAKE,,,,,,,,,,,,,,,,,,,,,
,,,,,,,5f865e9ac5be471b63865294,605b45a4d25f287719a41696,605be6ef4a11ffaba3d7c3e5,United States,East coast,13 or older,no,2021-03-24_21h37.02.662,empathy_intonation_perc,2020.2.10,Win32,60,,,,,,,,,,1,,,,,,,,,,,,,,,,,,,,,,,,,,,,,,,,,,,,,,,,15,regar,,,0,0,0.738,0,25,25,14,1,REAL,FAKE,,,,,,,,,,,,,,,,,,,,,
,,,,,,,5f865e9ac5be471b63865294,605b45a4d25f287719a41696,605be6ef4a11ffaba3d7c3e5,United States,East coast,13 or older,no,2021-03-24_21h37.02.662,empathy_intonation_perc,2020.2.10,Win32,60,,,,,,,,,,1,,,,,,,,,,,,,,,,,,,,,,,,,,,,,,,,,,,,,,,,20,vido,,,1,1,0.55577,0,26,26,19,1,REAL,FAKE,,,,,,,,,,,,,,,,,,,,,
,,,,,,,5f865e9ac5be471b63865294,605b45a4d25f287719a41696,605be6ef4a11ffaba3d7c3e5,United States,East coast,13 or older,no,2021-03-24_21h37.02.662,empathy_intonation_perc,2020.2.10,Win32,60,,,,,,,,,,1,,,,,,,,,,,,,,,,,,,,,,,,,,,,,,,,,,,,,,,,55,nevar,,,0,0,0.637,0,27,27,54,1,REAL,FAKE,,,,,,,,,,,,,,,,,,,,,
,,,,,,,5f865e9ac5be471b63865294,605b45a4d25f287719a41696,605be6ef4a11ffaba3d7c3e5,United States,East coast,13 or older,no,2021-03-24_21h37.02.662,empathy_intonation_perc,2020.2.10,Win32,60,,,,,,,,,,1,,,,,,,,,,,,,,,,,,,,,,,,,,,,,,,,,,,,,,,,77,tiburn,,,0,0,0.608295,0,28,28,76,1,REAL,FAKE,,,,,,,,,,,,,,,,,,,,,
,,,,,,,5f865e9ac5be471b63865294,605b45a4d25f287719a41696,605be6ef4a11ffaba3d7c3e5,United States,East coast,13 or older,no,2021-03-24_21h37.02.662,empathy_intonation_perc,2020.2.10,Win32,60,,,,,,,,,,1,,,,,,,,,,,,,,,,,,,,,,,,,,,,,,,,,,,,,,,,36,loro,,,0,0,0.553555,0,29,29,35,1,REAL,FAKE,,,,,,,,,,,,,,,,,,,,,
,,,,,,,5f865e9ac5be471b63865294,605b45a4d25f287719a41696,605be6ef4a11ffaba3d7c3e5,United States,East coast,13 or older,no,2021-03-24_21h37.02.662,empathy_intonation_perc,2020.2.10,Win32,60,,,,,,,,,,1,,,,,,,,,,,,,,,,,,,,,,,,,,,,,,,,,,,,,,,,67,cabello,,,0,0,0.570435,0,30,30,66,1,REAL,FAKE,,,,,,,,,,,,,,,,,,,,,
,,,,,,,5f865e9ac5be471b63865294,605b45a4d25f287719a41696,605be6ef4a11ffaba3d7c3e5,United States,East coast,13 or older,no,2021-03-24_21h37.02.662,empathy_intonation_perc,2020.2.10,Win32,60,,,,,,,,,,0,,,,,,,,,,,,,,,,,,,,,,,,,,,,,,,,,,,,,,,,10,antar,,,0,1,0.536155,0,31,31,9,1,REAL,FAKE,,,,,,,,,,,,,,,,,,,,,
,,,,,,,5f865e9ac5be471b63865294,605b45a4d25f287719a41696,605be6ef4a11ffaba3d7c3e5,United States,East coast,13 or older,no,2021-03-24_21h37.02.662,empathy_intonation_perc,2020.2.10,Win32,60,,,,,,,,,,0,,,,,,,,,,,,,,,,,,,,,,,,,,,,,,,,,,,,,,,,1,terzo,,,1,0,0.688115,0,32,32,0,1,REAL,FAKE,,,,,,,,,,,,,,,,,,,,,
,,,,,,,5f865e9ac5be471b63865294,605b45a4d25f287719a41696,605be6ef4a11ffaba3d7c3e5,United States,East coast,13 or older,no,2021-03-24_21h37.02.662,empathy_intonation_perc,2020.2.10,Win32,60,,,,,,,,,,0,,,,,,,,,,,,,,,,,,,,,,,,,,,,,,,,,,,,,,,,58,plaudir,,,0,1,0.536525,0,33,33,57,1,REAL,FAKE,,,,,,,,,,,,,,,,,,,,,
,,,,,,,5f865e9ac5be471b63865294,605b45a4d25f287719a41696,605be6ef4a11ffaba3d7c3e5,United States,East coast,13 or older,no,2021-03-24_21h37.02.662,empathy_intonation_perc,2020.2.10,Win32,60,,,,,,,,,,1,,,,,,,,,,,,,,,,,,,,,,,,,,,,,,,,,,,,,,,,73,hervidor,,,0,0,0.555235,0,34,34,72,1,REAL,FAKE,,,,,,,,,,,,,,,,,,,,,
,,,,,,,5f865e9ac5be471b63865294,605b45a4d25f287719a41696,605be6ef4a11ffaba3d7c3e5,United States,East coast,13 or older,no,2021-03-24_21h37.02.662,empathy_intonation_perc,2020.2.10,Win32,60,,,,,,,,,,1,,,,,,,,,,,,,,,,,,,,,,,,,,,,,,,,,,,,,,,,89,prisa,,,0,0,0.67462,0,35,35,88,1,REAL,FAKE,,,,,,,,,,,,,,,,,,,,,
,,,,,,,5f865e9ac5be471b63865294,605b45a4d25f287719a41696,605be6ef4a11ffaba3d7c3e5,United States,East coast,13 or older,no,2021-03-24_21h37.02.662,empathy_intonation_perc,2020.2.10,Win32,60,,,,,,,,,,1,,,,,,,,,,,,,,,,,,,,,,,,,,,,,,,,,,,,,,,,14,yunque,,,0,0,0.62408,0,36,36,13,1,REAL,FAKE,,,,,,,,,,,,,,,,,,,,,
,,,,,,,5f865e9ac5be471b63865294,605b45a4d25f287719a41696,605be6ef4a11ffaba3d7c3e5,United States,East coast,13 or older,no,2021-03-24_21h37.02.662,empathy_intonation_perc,2020.2.10,Win32,60,,,,,,,,,,0,,,,,,,,,,,,,,,,,,,,,,,,,,,,,,,,,,,,,,,,32,fatacidad,,,0,1,0.62145,0,37,37,31,1,REAL,FAKE,,,,,,,,,,,,,,,,,,,,,
,,,,,,,5f865e9ac5be471b63865294,605b45a4d25f287719a41696,605be6ef4a11ffaba3d7c3e5,United States,East coast,13 or older,no,2021-03-24_21h37.02.662,empathy_intonation_perc,2020.2.10,Win32,60,,,,,,,,,,1,,,,,,,,,,,,,,,,,,,,,,,,,,,,,,,,,,,,,,,,64,orgulloso,,,0,0,0.552685,0,38,38,63,1,REAL,FAKE,,,,,,,,,,,,,,,,,,,,,
,,,,,,,5f865e9ac5be471b63865294,605b45a4d25f287719a41696,605be6ef4a11ffaba3d7c3e5,United States,East coast,13 or older,no,2021-03-24_21h37.02.662,empathy_intonation_perc,2020.2.10,Win32,60,,,,,,,,,,1,,,,,,,,,,,,,,,,,,,,,,,,,,,,,,,,,,,,,,,,59,besar,,,1,1,0.486235,0,39,39,58,1,REAL,FAKE,,,,,,,,,,,,,,,,,,,,,
,,,,,,,5f865e9ac5be471b63865294,605b45a4d25f287719a41696,605be6ef4a11ffaba3d7c3e5,United States,East coast,13 or older,no,2021-03-24_21h37.02.662,empathy_intonation_perc,2020.2.10,Win32,60,,,,,,,,,,1,,,,,,,,,,,,,,,,,,,,,,,,,,,,,,,,,,,,,,,,78,frondoso,,,0,0,0.68829,0,40,40,77,1,REAL,FAKE,,,,,,,,,,,,,,,,,,,,,
,,,,,,,5f865e9ac5be471b63865294,605b45a4d25f287719a41696,605be6ef4a11ffaba3d7c3e5,United States,East coast,13 or older,no,2021-03-24_21h37.02.662,empathy_intonation_perc,2020.2.10,Win32,60,,,,,,,,,,1,,,,,,,,,,,,,,,,,,,,,,,,,,,,,,,,,,,,,,,,28,merodear,,,0,0,0.436605,0,41,41,27,1,REAL,FAKE,,,,,,,,,,,,,,,,,,,,,
,,,,,,,5f865e9ac5be471b63865294,605b45a4d25f287719a41696,605be6ef4a11ffaba3d7c3e5,United States,East coast,13 or older,no,2021-03-24_21h37.02.662,empathy_intonation_perc,2020.2.10,Win32,60,,,,,,,,,,0,,,,,,,,,,,,,,,,,,,,,,,,,,,,,,,,,,,,,,,,79,tropaje,,,0,1,0.58796,0,42,42,78,1,REAL,FAKE,,,,,,,,,,,,,,,,,,,,,
,,,,,,,5f865e9ac5be471b63865294,605b45a4d25f287719a41696,605be6ef4a11ffaba3d7c3e5,United States,East coast,13 or older,no,2021-03-24_21h37.02.662,empathy_intonation_perc,2020.2.10,Win32,60,,,,,,,,,,0,,,,,,,,,,,,,,,,,,,,,,,,,,,,,,,,,,,,,,,,8,cadea,,,1,0,0.755075,0,43,43,7,1,REAL,FAKE,,,,,,,,,,,,,,,,,,,,,
,,,,,,,5f865e9ac5be471b63865294,605b45a4d25f287719a41696,605be6ef4a11ffaba3d7c3e5,United States,East coast,13 or older,no,2021-03-24_21h37.02.662,empathy_intonation_perc,2020.2.10,Win32,60,,,,,,,,,,1,,,,,,,,,,,,,,,,,,,,,,,,,,,,,,,,,,,,,,,,40,alfombra,,,0,0,0.654965,0,44,44,39,1,REAL,FAKE,,,,,,,,,,,,,,,,,,,,,
,,,,,,,5f865e9ac5be471b63865294,605b45a4d25f287719a41696,605be6ef4a11ffaba3d7c3e5,United States,East coast,13 or older,no,2021-03-24_21h37.02.662,empathy_intonation_perc,2020.2.10,Win32,60,,,,,,,,,,1,,,,,,,,,,,,,,,,,,,,,,,,,,,,,,,,,,,,,,,,43,canela,,,0,0,0.65471,0,45,45,42,1,REAL,FAKE,,,,,,,,,,,,,,,,,,,,,
,,,,,,,5f865e9ac5be471b63865294,605b45a4d25f287719a41696,605be6ef4a11ffaba3d7c3e5,United States,East coast,13 or older,no,2021-03-24_21h37.02.662,empathy_intonation_perc,2020.2.10,Win32,60,,,,,,,,,,1,,,,,,,,,,,,,,,,,,,,,,,,,,,,,,,,,,,,,,,,86,barato,,,0,0,0.63713,0,46,46,85,1,REAL,FAKE,,,,,,,,,,,,,,,,,,,,,
,,,,,,,5f865e9ac5be471b63865294,605b45a4d25f287719a41696,605be6ef4a11ffaba3d7c3e5,United States,East coast,13 or older,no,2021-03-24_21h37.02.662,empathy_intonation_perc,2020.2.10,Win32,60,,,,,,,,,,1,,,,,,,,,,,,,,,,,,,,,,,,,,,,,,,,,,,,,,,,22,lacayo,,,0,0,0.937525,0,47,47,21,1,REAL,FAKE,,,,,,,,,,,,,,,,,,,,,
,,,,,,,5f865e9ac5be471b63865294,605b45a4d25f287719a41696,605be6ef4a11ffaba3d7c3e5,United States,East coast,13 or older,no,2021-03-24_21h37.02.662,empathy_intonation_perc,2020.2.10,Win32,60,,,,,,,,,,0,,,,,,,,,,,,,,,,,,,,,,,,,,,,,,,,,,,,,,,,27,acutacin,,,1,0,0.82504,0,48,48,26,1,REAL,FAKE,,,,,,,,,,,,,,,,,,,,,
,,,,,,,5f865e9ac5be471b63865294,605b45a4d25f287719a41696,605be6ef4a11ffaba3d7c3e5,United States,East coast,13 or older,no,2021-03-24_21h37.02.662,empathy_intonation_perc,2020.2.10,Win32,60,,,,,,,,,,0,,,,,,,,,,,,,,,,,,,,,,,,,,,,,,,,,,,,,,,,53,vegada,,,0,1,0.70744,0,49,49,52,1,REAL,FAKE,,,,,,,,,,,,,,,,,,,,,
,,,,,,,5f865e9ac5be471b63865294,605b45a4d25f287719a41696,605be6ef4a11ffaba3d7c3e5,United States,East coast,13 or older,no,2021-03-24_21h37.02.662,empathy_intonation_perc,2020.2.10,Win32,60,,,,,,,,,,1,,,,,,,,,,,,,,,,,,,,,,,,,,,,,,,,,,,,,,,,71,polvoriento,,,0,0,0.791165,0,50,50,70,1,REAL,FAKE,,,,,,,,,,,,,,,,,,,,,
,,,,,,,5f865e9ac5be471b63865294,605b45a4d25f287719a41696,605be6ef4a11ffaba3d7c3e5,United States,East coast,13 or older,no,2021-03-24_21h37.02.662,empathy_intonation_perc,2020.2.10,Win32,60,,,,,,,,,,0,,,,,,,,,,,,,,,,,,,,,,,,,,,,,,,,,,,,,,,,87,grodo,,,1,0,0.77182,0,51,51,86,1,REAL,FAKE,,,,,,,,,,,,,,,,,,,,,
,,,,,,,5f865e9ac5be471b63865294,605b45a4d25f287719a41696,605be6ef4a11ffaba3d7c3e5,United States,East coast,13 or older,no,2021-03-24_21h37.02.662,empathy_intonation_perc,2020.2.10,Win32,60,,,,,,,,,,0,,,,,,,,,,,,,,,,,,,,,,,,,,,,,,,,,,,,,,,,21,capillo,,,0,1,0.66881,0,52,52,20,1,REAL,FAKE,,,,,,,,,,,,,,,,,,,,,
,,,,,,,5f865e9ac5be471b63865294,605b45a4d25f287719a41696,605be6ef4a11ffaba3d7c3e5,United States,East coast,13 or older,no,2021-03-24_21h37.02.662,empathy_intonation_perc,2020.2.10,Win32,60,,,,,,,,,,0,,,,,,,,,,,,,,,,,,,,,,,,,,,,,,,,,,,,,,,,84,escuto,,,0,1,0.52111,0,53,53,83,1,REAL,FAKE,,,,,,,,,,,,,,,,,,,,,
,,,,,,,5f865e9ac5be471b63865294,605b45a4d25f287719a41696,605be6ef4a11ffaba3d7c3e5,United States,East coast,13 or older,no,2021-03-24_21h37.02.662,empathy_intonation_perc,2020.2.10,Win32,60,,,,,,,,,,0,,,,,,,,,,,,,,,,,,,,,,,,,,,,,,,,,,,,,,,,35,rompido,,,0,1,0.489565,0,54,54,34,1,REAL,FAKE,,,,,,,,,,,,,,,,,,,,,
,,,,,,,5f865e9ac5be471b63865294,605b45a4d25f287719a41696,605be6ef4a11ffaba3d7c3e5,United States,East coast,13 or older,no,2021-03-24_21h37.02.662,empathy_intonation_perc,2020.2.10,Win32,60,,,,,,,,,,0,,,,,,,,,,,,,,,,,,,,,,,,,,,,,,,,,,,,,,,,74,cintro,,,0,1,0.610245,0,55,55,73,1,REAL,FAKE,,,,,,,,,,,,,,,,,,,,,
,,,,,,,5f865e9ac5be471b63865294,605b45a4d25f287719a41696,605be6ef4a11ffaba3d7c3e5,United States,East coast,13 or older,no,2021-03-24_21h37.02.662,empathy_intonation_perc,2020.2.10,Win32,60,,,,,,,,,,1,,,,,,,,,,,,,,,,,,,,,,,,,,,,,,,,,,,,,,,,26,secuestro,,,1,1,0.31692,0,56,56,25,1,REAL,FAKE,,,,,,,,,,,,,,,,,,,,,
,,,,,,,5f865e9ac5be471b63865294,605b45a4d25f287719a41696,605be6ef4a11ffaba3d7c3e5,United States,East coast,13 or older,no,2021-03-24_21h37.02.662,empathy_intonation_perc,2020.2.10,Win32,60,,,,,,,,,,1,,,,,,,,,,,,,,,,,,,,,,,,,,,,,,,,,,,,,,,,76,atar,,,0,0,1.02913,0,57,57,75,1,REAL,FAKE,,,,,,,,,,,,,,,,,,,,,
,,,,,,,5f865e9ac5be471b63865294,605b45a4d25f287719a41696,605be6ef4a11ffaba3d7c3e5,United States,East coast,13 or older,no,2021-03-24_21h37.02.662,empathy_intonation_perc,2020.2.10,Win32,60,,,,,,,,,,0,,,,,,,,,,,,,,,,,,,,,,,,,,,,,,,,,,,,,,,,82,empirador,,,0,1,0.770965,0,58,58,81,1,REAL,FAKE,,,,,,,,,,,,,,,,,,,,,
,,,,,,,5f865e9ac5be471b63865294,605b45a4d25f287719a41696,605be6ef4a11ffaba3d7c3e5,United States,East coast,13 or older,no,2021-03-24_21h37.02.662,empathy_intonation_perc,2020.2.10,Win32,60,,,,,,,,,,1,,,,,,,,,,,,,,,,,,,,,,,,,,,,,,,,,,,,,,,,41,rebuscar,,,1,1,0.502885,0,59,59,40,1,REAL,FAKE,,,,,,,,,,,,,,,,,,,,,
,,,,,,,5f865e9ac5be471b63865294,605b45a4d25f287719a41696,605be6ef4a11ffaba3d7c3e5,United States,East coast,13 or older,no,2021-03-24_21h37.02.662,empathy_intonation_perc,2020.2.10,Win32,60,,,,,,,,,,0,,,,,,,,,,,,,,,,,,,,,,,,,,,,,,,,,,,,,,,,23,lampera,,,0,1,0.365545,0,60,60,22,1,REAL,FAKE,,,,,,,,,,,,,,,,,,,,,
,,,,,,,5f865e9ac5be471b63865294,605b45a4d25f287719a41696,605be6ef4a11ffaba3d7c3e5,United States,East coast,13 or older,no,2021-03-24_21h37.02.662,empathy_intonation_perc,2020.2.10,Win32,60,,,,,,,,,,1,,,,,,,,,,,,,,,,,,,,,,,,,,,,,,,,,,,,,,,,60,matar,,,0,0,0.68978,0,61,61,59,1,REAL,FAKE,,,,,,,,,,,,,,,,,,,,,
,,,,,,,5f865e9ac5be471b63865294,605b45a4d25f287719a41696,605be6ef4a11ffaba3d7c3e5,United States,East coast,13 or older,no,2021-03-24_21h37.02.662,empathy_intonation_perc,2020.2.10,Win32,60,,,,,,,,,,1,,,,,,,,,,,,,,,,,,,,,,,,,,,,,,,,,,,,,,,,81,pozo,,,0,0,0.603355,0,62,62,80,1,REAL,FAKE,,,,,,,,,,,,,,,,,,,,,
,,,,,,,5f865e9ac5be471b63865294,605b45a4d25f287719a41696,605be6ef4a11ffaba3d7c3e5,United States,East coast,13 or older,no,2021-03-24_21h37.02.662,empathy_intonation_perc,2020.2.10,Win32,60,,,,,,,,,,1,,,,,,,,,,,,,,,,,,,,,,,,,,,,,,,,,,,,,,,,39,torpe,,,1,1,0.32105,0,63,63,38,1,REAL,FAKE,,,,,,,,,,,,,,,,,,,,,
,,,,,,,5f865e9ac5be471b63865294,605b45a4d25f287719a41696,605be6ef4a11ffaba3d7c3e5,United States,East coast,13 or older,no,2021-03-24_21h37.02.662,empathy_intonation_perc,2020.2.10,Win32,60,,,,,,,,,,1,,,,,,,,,,,,,,,,,,,,,,,,,,,,,,,,,,,,,,,,56,musgo,,,1,1,0.337745,0,64,64,55,1,REAL,FAKE,,,,,,,,,,,,,,,,,,,,,
,,,,,,,5f865e9ac5be471b63865294,605b45a4d25f287719a41696,605be6ef4a11ffaba3d7c3e5,United States,East coast,13 or older,no,2021-03-24_21h37.02.662,empathy_intonation_perc,2020.2.10,Win32,60,,,,,,,,,,1,,,,,,,,,,,,,,,,,,,,,,,,,,,,,,,,,,,,,,,,57,tacao,,,1,1,0.57384,0,65,65,56,1,REAL,FAKE,,,,,,,,,,,,,,,,,,,,,
,,,,,,,5f865e9ac5be471b63865294,605b45a4d25f287719a41696,605be6ef4a11ffaba3d7c3e5,United States,East coast,13 or older,no,2021-03-24_21h37.02.662,empathy_intonation_perc,2020.2.10,Win32,60,,,,,,,,,,0,,,,,,,,,,,,,,,,,,,,,,,,,,,,,,,,,,,,,,,,29,decar,,,0,1,0.56716,0,66,66,28,1,REAL,FAKE,,,,,,,,,,,,,,,,,,,,,
,,,,,,,5f865e9ac5be471b63865294,605b45a4d25f287719a41696,605be6ef4a11ffaba3d7c3e5,United States,East coast,13 or older,no,2021-03-24_21h37.02.662,empathy_intonation_perc,2020.2.10,Win32,60,,,,,,,,,,1,,,,,,,,,,,,,,,,,,,,,,,,,,,,,,,,,,,,,,,,9,hacha,,,0,0,0.3784,0,67,67,8,1,REAL,FAKE,,,,,,,,,,,,,,,,,,,,,
,,,,,,,5f865e9ac5be471b63865294,605b45a4d25f287719a41696,605be6ef4a11ffaba3d7c3e5,United States,East coast,13 or older,no,2021-03-24_21h37.02.662,empathy_intonation_perc,2020.2.10,Win32,60,,,,,,,,,,1,,,,,,,,,,,,,,,,,,,,,,,,,,,,,,,,,,,,,,,,25,bisagra,,,1,1,0.570985,0,68,68,24,1,REAL,FAKE,,,,,,,,,,,,,,,,,,,,,
,,,,,,,5f865e9ac5be471b63865294,605b45a4d25f287719a41696,605be6ef4a11ffaba3d7c3e5,United States,East coast,13 or older,no,2021-03-24_21h37.02.662,empathy_intonation_perc,2020.2.10,Win32,60,,,,,,,,,,1,,,,,,,,,,,,,,,,,,,,,,,,,,,,,,,,,,,,,,,,54,fomentar,,,0,0,0.931875,0,69,69,53,1,REAL,FAKE,,,,,,,,,,,,,,,,,,,,,
,,,,,,,5f865e9ac5be471b63865294,605b45a4d25f287719a41696,605be6ef4a11ffaba3d7c3e5,United States,East coast,13 or older,no,2021-03-24_21h37.02.662,empathy_intonation_perc,2020.2.10,Win32,60,,,,,,,,,,1,,,,,,,,,,,,,,,,,,,,,,,,,,,,,,,,,,,,,,,,68,alegre,,,0,0,0.43934,0,70,70,67,1,REAL,FAKE,,,,,,,,,,,,,,,,,,,,,
,,,,,,,5f865e9ac5be471b63865294,605b45a4d25f287719a41696,605be6ef4a11ffaba3d7c3e5,United States,East coast,13 or older,no,2021-03-24_21h37.02.662,empathy_intonation_perc,2020.2.10,Win32,60,,,,,,,,,,1,,,,,,,,,,,,,,,,,,,,,,,,,,,,,,,,,,,,,,,,49,ganar,,,1,1,0.47281,0,71,71,48,1,REAL,FAKE,,,,,,,,,,,,,,,,,,,,,
,,,,,,,5f865e9ac5be471b63865294,605b45a4d25f287719a41696,605be6ef4a11ffaba3d7c3e5,United States,East coast,13 or older,no,2021-03-24_21h37.02.662,empathy_intonation_perc,2020.2.10,Win32,60,,,,,,,,,,0,,,,,,,,,,,,,,,,,,,,,,,,,,,,,,,,,,,,,,,,19,brecedad,,,0,1,0.236265,0,72,72,18,1,REAL,FAKE,,,,,,,,,,,,,,,,,,,,,
,,,,,,,5f865e9ac5be471b63865294,605b45a4d25f287719a41696,605be6ef4a11ffaba3d7c3e5,United States,East coast,13 or older,no,2021-03-24_21h37.02.662,empathy_intonation_perc,2020.2.10,Win32,60,,,,,,,,,,1,,,,,,,,,,,,,,,,,,,,,,,,,,,,,,,,,,,,,,,,83,guante,,,0,0,0.304845,0,73,73,82,1,REAL,FAKE,,,,,,,,,,,,,,,,,,,,,
,,,,,,,5f865e9ac5be471b63865294,605b45a4d25f287719a41696,605be6ef4a11ffaba3d7c3e5,United States,East coast,13 or older,no,2021-03-24_21h37.02.662,empathy_intonation_perc,2020.2.10,Win32,60,,,,,,,,,,1,,,,,,,,,,,,,,,,,,,,,,,,,,,,,,,,,,,,,,,,34,aviso,,,0,0,0.43652,0,74,74,33,1,REAL,FAKE,,,,,,,,,,,,,,,,,,,,,
,,,,,,,5f865e9ac5be471b63865294,605b45a4d25f287719a41696,605be6ef4a11ffaba3d7c3e5,United States,East coast,13 or older,no,2021-03-24_21h37.02.662,empathy_intonation_perc,2020.2.10,Win32,60,,,,,,,,,,1,,,,,,,,,,,,,,,,,,,,,,,,,,,,,,,,,,,,,,,,24,ltigo,,,0,0,1.97876,0,75,75,23,1,REAL,FAKE,,,,,,,,,,,,,,,,,,,,,
,,,,,,,5f865e9ac5be471b63865294,605b45a4d25f287719a41696,605be6ef4a11ffaba3d7c3e5,United States,East coast,13 or older,no,2021-03-24_21h37.02.662,empathy_intonation_perc,2020.2.10,Win32,60,,,,,,,,,,1,,,,,,,,,,,,,,,,,,,,,,,,,,,,,,,,,,,,,,,,85,lad,,,0,0,3.663695,0,76,76,84,1,REAL,FAKE,,,,,,,,,,,,,,,,,,,,,
,,,,,,,5f865e9ac5be471b63865294,605b45a4d25f287719a41696,605be6ef4a11ffaba3d7c3e5,United States,East coast,13 or older,no,2021-03-24_21h37.02.662,empathy_intonation_perc,2020.2.10,Win32,60,,,,,,,,,,1,,,,,,,,,,,,,,,,,,,,,,,,,,,,,,,,,,,,,,,,11,cenefa,,,0,0,0.455785,0,77,77,10,1,REAL,FAKE,,,,,,,,,,,,,,,,,,,,,
,,,,,,,5f865e9ac5be471b63865294,605b45a4d25f287719a41696,605be6ef4a11ffaba3d7c3e5,United States,East coast,13 or older,no,2021-03-24_21h37.02.662,empathy_intonation_perc,2020.2.10,Win32,60,,,,,,,,,,0,,,,,,,,,,,,,,,,,,,,,,,,,,,,,,,,,,,,,,,,30,alardio,,,1,0,0.4703,0,78,78,29,1,REAL,FAKE,,,,,,,,,,,,,,,,,,,,,
,,,,,,,5f865e9ac5be471b63865294,605b45a4d25f287719a41696,605be6ef4a11ffaba3d7c3e5,United States,East coast,13 or older,no,2021-03-24_21h37.02.662,empathy_intonation_perc,2020.2.10,Win32,60,,,,,,,,,,0,,,,,,,,,,,,,,,,,,,,,,,,,,,,,,,,,,,,,,,,47,cartinar,,,0,1,0.335745,0,79,79,46,1,REAL,FAKE,,,,,,,,,,,,,,,,,,,,,
,,,,,,,5f865e9ac5be471b63865294,605b45a4d25f287719a41696,605be6ef4a11ffaba3d7c3e5,United States,East coast,13 or older,no,2021-03-24_21h37.02.662,empathy_intonation_perc,2020.2.10,Win32,60,,,,,,,,,,0,,,,,,,,,,,,,,,,,,,,,,,,,,,,,,,,,,,,,,,,66,hacido,,,0,1,0.383635,0,80,80,65,1,REAL,FAKE,,,,,,,,,,,,,,,,,,,,,
,,,,,,,5f865e9ac5be471b63865294,605b45a4d25f287719a41696,605be6ef4a11ffaba3d7c3e5,United States,East coast,13 or older,no,2021-03-24_21h37.02.662,empathy_intonation_perc,2020.2.10,Win32,60,,,,,,,,,,1,,,,,,,,,,,,,,,,,,,,,,,,,,,,,,,,,,,,,,,,46,martillo,,,0,0,1.30812,0,81,81,45,1,REAL,FAKE,,,,,,,,,,,,,,,,,,,,,
,,,,,,,5f865e9ac5be471b63865294,605b45a4d25f287719a41696,605be6ef4a11ffaba3d7c3e5,United States,East coast,13 or older,no,2021-03-24_21h37.02.662,empathy_intonation_perc,2020.2.10,Win32,60,,,,,,,,,,1,,,,,,,,,,,,,,,,,,,,,,,,,,,,,,,,,,,,,,,,3,pulmones,,,0,0,8.665725,0,82,82,2,1,REAL,FAKE,,,,,,,,,,,,,,,,,,,,,
,,,,,,,5f865e9ac5be471b63865294,605b45a4d25f287719a41696,605be6ef4a11ffaba3d7c3e5,United States,East coast,13 or older,no,2021-03-24_21h37.02.662,empathy_intonation_perc,2020.2.10,Win32,60,,,,,,,,,,1,,,,,,,,,,,,,,,,,,,,,,,,,,,,,,,,,,,,,,,,45,jilguero,,,0,0,0.47048,0,83,83,44,1,REAL,FAKE,,,,,,,,,,,,,,,,,,,,,
,,,,,,,5f865e9ac5be471b63865294,605b45a4d25f287719a41696,605be6ef4a11ffaba3d7c3e5,United States,East coast,13 or older,no,2021-03-24_21h37.02.662,empathy_intonation_perc,2020.2.10,Win32,60,,,,,,,,,,1,,,,,,,,,,,,,,,,,,,,,,,,,,,,,,,,,,,,,,,,80,hormiga,,,0,0,0.67153,0,84,84,79,1,REAL,FAKE,,,,,,,,,,,,,,,,,,,,,
,,,,,,,5f865e9ac5be471b63865294,605b45a4d25f287719a41696,605be6ef4a11ffaba3d7c3e5,United States,East coast,13 or older,no,2021-03-24_21h37.02.662,empathy_intonation_perc,2020.2.10,Win32,60,,,,,,,,,,1,,,,,,,,,,,,,,,,,,,,,,,,,,,,,,,,,,,,,,,,65,bizcocho,,,0,0,0.43963,0,85,85,64,1,REAL,FAKE,,,,,,,,,,,,,,,,,,,,,
,,,,,,,5f865e9ac5be471b63865294,605b45a4d25f287719a41696,605be6ef4a11ffaba3d7c3e5,United States,East coast,13 or older,no,2021-03-24_21h37.02.662,empathy_intonation_perc,2020.2.10,Win32,60,,,,,,,,,,1,,,,,,,,,,,,,,,,,,,,,,,,,,,,,,,,,,,,,,,,88,acantilado,,,0,0,0.495445,0,86,86,87,1,REAL,FAKE,,,,,,,,,,,,,,,,,,,,,
,,,,,,,5f865e9ac5be471b63865294,605b45a4d25f287719a41696,605be6ef4a11ffaba3d7c3e5,United States,East coast,13 or older,no,2021-03-24_21h37.02.662,empathy_intonation_perc,2020.2.10,Win32,60,,,,,,,,,,1,,,,,,,,,,,,,,,,,,,,,,,,,,,,,,,,,,,,,,,,90,clavel,,,1,1,0.366175,0,87,87,89,1,REAL,FAKE,,,,,,,,,,,,,,,,,,,,,
,,,,,,,5f865e9ac5be471b63865294,605b45a4d25f287719a41696,605be6ef4a11ffaba3d7c3e5,United States,East coast,13 or older,no,2021-03-24_21h37.02.662,empathy_intonation_perc,2020.2.10,Win32,60,,,,,,,,,,1,,,,,,,,,,,,,,,,,,,,,,,,,,,,,,,,,,,,,,,,69,engatusar,,,1,1,0.591685,0,88,88,68,1,REAL,FAKE,,,,,,,,,,,,,,,,,,,,,
,,,,,,,5f865e9ac5be471b63865294,605b45a4d25f287719a41696,605be6ef4a11ffaba3d7c3e5,United States,East coast,13 or older,no,2021-03-24_21h37.02.662,empathy_intonation_perc,2020.2.10,Win32,60,,,,,,,,,,1,,,,,,,,,,,,,,,,,,,,,,,,,,,,,,,,,,,,,,,,31,pandilla,,,0,0,2.112505,0,89,89,30,1,REAL,FAKE,,,,,,,,,,,,,,,,,,,,,
,,,,,,,5f865e9ac5be471b63865294,605b45a4d25f287719a41696,605be6ef4a11ffaba3d7c3e5,United States,East coast,13 or older,no,2021-03-24_21h37.02.662,empathy_intonation_perc,2020.2.10,Win32,60,,,,,,,,,,,,,,,,,,,,,,,,,,,,,,,,,,,,,,,,,,,,,,,,,,,,,,,,,,,,,,,,4,1,2.723225,1,0,0,0,0,0,1,,,,,,,,,,,
,,,,,,,5f865e9ac5be471b63865294,605b45a4d25f287719a41696,605be6ef4a11ffaba3d7c3e5,United States,East coast,13 or older,no,2021-03-24_21h37.02.662,empathy_intonation_perc,2020.2.10,Win32,60,,,,,,,,,,,,,,,,,,,,1,,,,,,,,,,,,,,,,,,,,,,,,,,,,,,,,,,,,,,,,,,,,,,,,,,,,,,2,0,0,0,0,1,I can easily tell if someone else wants to enter a conversation.,1,0,1,0
,,,,,,,5f865e9ac5be471b63865294,605b45a4d25f287719a41696,605be6ef4a11ffaba3d7c3e5,United States,East coast,13 or older,no,2021-03-24_21h37.02.662,empathy_intonation_perc,2020.2.10,Win32,60,,,,,,,,,,,,,,,,,,,,2,,,,,,,,,,,,,,,,,,,,,,,,,,,,,,,,,,,,,,,,,,,,,,,,,,,,,,1,0,1,1,1,1,I prefer animals to humans.,0,1,0,0
,,,,,,,5f865e9ac5be471b63865294,605b45a4d25f287719a41696,605be6ef4a11ffaba3d7c3e5,United States,East coast,13 or older,no,2021-03-24_21h37.02.662,empathy_intonation_perc,2020.2.10,Win32,60,,,,,,,,,,,,,,,,,,,,3,,,,,,,,,,,,,,,,,,,,,,,,,,,,,,,,,,,,,,,,,,,,,,,,,,,,,,5,0,2,2,2,1,I try to keep up with the current trends and fashions.,0,1,0,0
