instructions_2afc_loop.thisRepN,instructions_2afc_loop.thisTrialN,instructions_2afc_loop.thisN,instructions_2afc_loop.thisIndex,instructions_2afc_loop.ran,instructions_text,continue_text,participant,study_id,session,I am most familiar with Spanish from...*,What part of the US are you from?*,At what age did you begin learning Spanish?*,Are you proficient in any languages other than English/Spanish?*,date,expName,psychopyVersion,OS,frameRate,key_resp_2afc_practice.keys,key_resp_2afc_practice.corr,key_resp_2afc_practice.rt,trials_2afc_practice_loop.thisRepN,trials_2afc_practice_loop.thisTrialN,trials_2afc_practice_loop.thisN,trials_2afc_practice_loop.thisIndex,trials_2afc_practice_loop.ran,path,correct_response,the_col,key_resp_2afc_trial.keys,key_resp_2afc_trial.corr,key_resp_2afc_trial.rt,trials_2afc_loop.thisRepN,trials_2afc_loop.thisTrialN,trials_2afc_loop.thisN,trials_2afc_loop.thisIndex,trials_2afc_loop.ran,item_num,andalusian,argentine,castilian,chilean,cuban,mexican,peruvian,puertorican,key_resp_ac1.keys,key_resp_ac1.corr,key_resp_ac1.rt,ac1_loop.thisRepN,ac1_loop.thisTrialN,ac1_loop.thisN,ac1_loop.thisIndex,ac1_loop.ran,instructions_lextale_loop.thisRepN,instructions_lextale_loop.thisTrialN,instructions_lextale_loop.thisN,instructions_lextale_loop.thisIndex,instructions_lextale_loop.ran,key_resp_lextale_practice.keys,key_resp_lextale_practice.corr,key_resp_lextale_practice.rt,trials_lextale_practice_loop.thisRepN,trials_lextale_practice_loop.thisTrialN,trials_lextale_practice_loop.thisN,trials_lextale_practice_loop.thisIndex,trials_lextale_practice_loop.ran,stim,word,prac_button_real,prac_button_false,key_resp_lextale_trial.keys,key_resp_lextale_trial.corr,key_resp_lextale_trial.rt,trials_lextale_loop.thisRepN,trials_lextale_loop.thisTrialN,trials_lextale_loop.thisN,trials_lextale_loop.thisIndex,trials_lextale_loop.ran,button_real,button_false,key_resp_ac2.keys,key_resp_ac2.corr,key_resp_ac2.rt,check_pass,check_fails,ac2_loop.thisRepN,ac2_loop.thisTrialN,ac2_loop.thisN,ac2_loop.thisIndex,ac2_loop.ran,slider_eq_trial.response,trials_eq_loop.thisRepN,trials_eq_loop.thisTrialN,trials_eq_loop.thisN,trials_eq_loop.thisIndex,trials_eq_loop.ran,item,is_test_item,is_distractor,is_agree_score,is_disagree_score
0,0,0,0,1,"In the following task you are going to hear a series of utterances. 

  You will decide if the utterances sound like questions or not using your keyboard.",(press the spacebar to continue),5f985a6faf071810974a32f8,605b45a4d25f287719a41696,605ba91688d265c9f13498fe,United States,Midwest,13 or older,no,2021-03-24_16h06.44.293,empathy_intonation_perc,2020.2.10,Linux x86_64,60,,,,,,,,,,,,,,,,,,,,,,,,,,,,,,,,,,,,,,,,,,,,,,,,,,,,,,,,,,,,,,,,,,,,,,,,,,,,,,,,,,,,
0,1,1,1,1,"If you believe the utterance is a question, type '1' (for 'yes') and if you do not 
  believe it is a question type '0' (for 'no').

  Let's practice a bit...",(press the spacebar to continue),5f985a6faf071810974a32f8,605b45a4d25f287719a41696,605ba91688d265c9f13498fe,United States,Midwest,13 or older,no,2021-03-24_16h06.44.293,empathy_intonation_perc,2020.2.10,Linux x86_64,60,,,,,,,,,,,,,,,,,,,,,,,,,,,,,,,,,,,,,,,,,,,,,,,,,,,,,,,,,,,,,,,,,,,,,,,,,,,,,,,,,,,,
,,,,,,,5f985a6faf071810974a32f8,605b45a4d25f287719a41696,605ba91688d265c9f13498fe,United States,Midwest,13 or older,no,2021-03-24_16h06.44.293,empathy_intonation_perc,2020.2.10,Linux x86_64,60,0,0,2.483415,0,0,0,1,1,./stim/wavs/argentine_question_filler_Mi-vecino-habla-mucho.wav,1,,,,,,,,,,,,,,,,,,,,,,,,,,,,,,,,,,,,,,,,,,,,,,,,,,,,,,,,,,,,,,,,,,,,,,,,,,
,,,,,,,5f985a6faf071810974a32f8,605b45a4d25f287719a41696,605ba91688d265c9f13498fe,United States,Midwest,13 or older,no,2021-03-24_16h06.44.293,empathy_intonation_perc,2020.2.10,Linux x86_64,60,0,0,1.96782,0,1,1,2,1,./stim/wavs/chilean_question_filler_Mi-padre-cantaba-bien.wav,1,,,,,,,,,,,,,,,,,,,,,,,,,,,,,,,,,,,,,,,,,,,,,,,,,,,,,,,,,,,,,,,,,,,,,,,,,,
,,,,,,,5f985a6faf071810974a32f8,605b45a4d25f287719a41696,605ba91688d265c9f13498fe,United States,Midwest,13 or older,no,2021-03-24_16h06.44.293,empathy_intonation_perc,2020.2.10,Linux x86_64,60,1,0,1.95983,0,2,2,4,1,./stim/wavs/cuban_statement_filler_Cocinabas-por-la-noche.wav,0,,,,,,,,,,,,,,,,,,,,,,,,,,,,,,,,,,,,,,,,,,,,,,,,,,,,,,,,,,,,,,,,,,,,,,,,,,
,,,,,,,5f985a6faf071810974a32f8,605b45a4d25f287719a41696,605ba91688d265c9f13498fe,United States,Midwest,13 or older,no,2021-03-24_16h06.44.293,empathy_intonation_perc,2020.2.10,Linux x86_64,60,0,1,2.235335,0,3,3,6,1,./stim/wavs/peruvian_statement_filler_El-nino-habla-con-su-madre.wav,0,,,,,,,,,,,,,,,,,,,,,,,,,,,,,,,,,,,,,,,,,,,,,,,,,,,,,,,,,,,,,,,,,,,,,,,,,,
,,,,,,,5f985a6faf071810974a32f8,605b45a4d25f287719a41696,605ba91688d265c9f13498fe,United States,Midwest,13 or older,no,2021-03-24_16h06.44.293,empathy_intonation_perc,2020.2.10,Linux x86_64,60,0,0,2.10154,0,4,4,3,1,./stim/wavs/mexican_question_filler_Felipe-no-tiene-contrasena.wav,1,,,,,,,,,,,,,,,,,,,,,,,,,,,,,,,,,,,,,,,,,,,,,,,,,,,,,,,,,,,,,,,,,,,,,,,,,,
,,,,,,,5f985a6faf071810974a32f8,605b45a4d25f287719a41696,605ba91688d265c9f13498fe,United States,Midwest,13 or older,no,2021-03-24_16h06.44.293,empathy_intonation_perc,2020.2.10,Linux x86_64,60,1,0,1.73502,0,5,5,5,1,./stim/wavs/andalusian_statement_filler_Alberto-nunca-se-afeita.wav,0,,,,,,,,,,,,,,,,,,,,,,,,,,,,,,,,,,,,,,,,,,,,,,,,,,,,,,,,,,,,,,,,,,,,,,,,,,
,,,,,,,5f985a6faf071810974a32f8,605b45a4d25f287719a41696,605ba91688d265c9f13498fe,United States,Midwest,13 or older,no,2021-03-24_16h06.44.293,empathy_intonation_perc,2020.2.10,Linux x86_64,60,0,1,1.751915,0,6,6,7,1,./stim/wavs/puertorican_statement_filler_La-nina-pinta-con-su-amiga.wav,0,,,,,,,,,,,,,,,,,,,,,,,,,,,,,,,,,,,,,,,,,,,,,,,,,,,,,,,,,,,,,,,,,,,,,,,,,,
,,,,,,,5f985a6faf071810974a32f8,605b45a4d25f287719a41696,605ba91688d265c9f13498fe,United States,Midwest,13 or older,no,2021-03-24_16h06.44.293,empathy_intonation_perc,2020.2.10,Linux x86_64,60,0,0,1.96889,0,7,7,0,1,./stim/wavs/castilian_question_filler_Mi-esposo-conoce-al-chico.wav,1,,,,,,,,,,,,,,,,,,,,,,,,,,,,,,,,,,,,,,,,,,,,,,,,,,,,,,,,,,,,,,,,,,,,,,,,,,
,,,,,,,5f985a6faf071810974a32f8,605b45a4d25f287719a41696,605ba91688d265c9f13498fe,United States,Midwest,13 or older,no,2021-03-24_16h06.44.293,empathy_intonation_perc,2020.2.10,Linux x86_64,60,,,,,,,,,,1,cuban,1,1,1.51802,0,0,0,16,1,17,./stim/wavs/andalusian_match_interrogative-partial-wh_Cuando-bebia-el-vino.wav,./stim/wavs/argentine_match_interrogative-partial-wh_Cuando-bebia-el-vino.wav,./stim/wavs/castilian_match_interrogative-partial-wh_Cuando-bebia-el-vino.wav,./stim/wavs/chilean_match_interrogative-partial-wh_Cuando-bebia-el-vino.wav,./stim/wavs/cuban_match_interrogative-partial-wh_Cuando-bebia-el-vino.wav,./stim/wavs/mexican_match_interrogative-partial-wh_Cuando-bebia-el-vino.wav,./stim/wavs/peruvian_match_interrogative-partial-wh_Cuando-bebia-el-vino.wav,./stim/wavs/puertorican_match_interrogative-partial-wh_Cuando-bebia-el-vino.wav,,,,,,,,,,,,,,,,,,,,,,,,,,,,,,,,,,,,,,,,,,,,,,,,,,,,,,,,
,,,,,,,5f985a6faf071810974a32f8,605b45a4d25f287719a41696,605ba91688d265c9f13498fe,United States,Midwest,13 or older,no,2021-03-24_16h06.44.293,empathy_intonation_perc,2020.2.10,Linux x86_64,60,,,,,,,,,,0,castilian,0,1,1.62767,0,1,1,6,1,7,./stim/wavs/andalusian_match_declarative-broad-focus_Mariano-habla-del-tiempo.wav,./stim/wavs/argentine_match_declarative-broad-focus_Mariano-habla-del-tiempo.wav,./stim/wavs/castilian_match_declarative-broad-focus_Mariano-habla-del-tiempo.wav,./stim/wavs/chilean_match_declarative-broad-focus_Mariano-habla-del-tiempo.wav,./stim/wavs/cuban_match_declarative-broad-focus_Mariano-habla-del-tiempo.wav,./stim/wavs/mexican_match_declarative-broad-focus_Mariano-habla-del-tiempo.wav,./stim/wavs/peruvian_match_declarative-broad-focus_Mariano-habla-del-tiempo.wav,./stim/wavs/puertorican_match_declarative-broad-focus_Mariano-habla-del-tiempo.wav,,,,,,,,,,,,,,,,,,,,,,,,,,,,,,,,,,,,,,,,,,,,,,,,,,,,,,,,
,,,,,,,5f985a6faf071810974a32f8,605b45a4d25f287719a41696,605ba91688d265c9f13498fe,United States,Midwest,13 or older,no,2021-03-24_16h06.44.293,empathy_intonation_perc,2020.2.10,Linux x86_64,60,,,,,,,,,,1,andalusian,1,1,1.623715,0,2,2,18,1,19,./stim/wavs/andalusian_match_interrogative-partial-wh_Cuando-lleva-el-abrigo.wav,./stim/wavs/argentine_match_interrogative-partial-wh_Cuando-lleva-el-abrigo.wav,./stim/wavs/castilian_match_interrogative-partial-wh_Cuando-lleva-el-abrigo.wav,./stim/wavs/chilean_match_interrogative-partial-wh_Cuando-lleva-el-abrigo.wav,./stim/wavs/cuban_match_interrogative-partial-wh_Cuando-lleva-el-abrigo.wav,./stim/wavs/mexican_match_interrogative-partial-wh_Cuando-lleva-el-abrigo.wav,./stim/wavs/peruvian_match_interrogative-partial-wh_Cuando-lleva-el-abrigo.wav,./stim/wavs/puertorican_match_interrogative-partial-wh_Cuando-lleva-el-abrigo.wav,,,,,,,,,,,,,,,,,,,,,,,,,,,,,,,,,,,,,,,,,,,,,,,,,,,,,,,,
,,,,,,,5f985a6faf071810974a32f8,605b45a4d25f287719a41696,605ba91688d265c9f13498fe,United States,Midwest,13 or older,no,2021-03-24_16h06.44.293,empathy_intonation_perc,2020.2.10,Linux x86_64,60,,,,,,,,,,0,castilian,0,1,1.55217,0,3,3,13,1,14,./stim/wavs/andalusian_match_declarative-narrow-focus_Maria-bebe-el-vino.wav,./stim/wavs/argentine_match_declarative-narrow-focus_Maria-bebe-el-vino.wav,./stim/wavs/castilian_match_declarative-narrow-focus_Maria-bebe-el-vino.wav,./stim/wavs/chilean_match_declarative-narrow-focus_Maria-bebe-el-vino.wav,./stim/wavs/cuban_match_declarative-narrow-focus_Maria-bebe-el-vino.wav,./stim/wavs/mexican_match_declarative-narrow-focus_Maria-bebe-el-vino.wav,./stim/wavs/peruvian_match_declarative-narrow-focus_Maria-bebe-el-vino.wav,./stim/wavs/puertorican_match_declarative-narrow-focus_Maria-bebe-el-vino.wav,,,,,,,,,,,,,,,,,,,,,,,,,,,,,,,,,,,,,,,,,,,,,,,,,,,,,,,,
,,,,,,,5f985a6faf071810974a32f8,605b45a4d25f287719a41696,605ba91688d265c9f13498fe,United States,Midwest,13 or older,no,2021-03-24_16h06.44.293,empathy_intonation_perc,2020.2.10,Linux x86_64,60,,,,,,,,,,0,chilean,1,0,1.690805,0,4,4,32,1,33,./stim/wavs/andalusian_mismatch_declarative-broad-focus_El-bebe-comia-muy-bien.wav,./stim/wavs/argentine_mismatch_declarative-broad-focus_El-bebe-comia-muy-bien.wav,./stim/wavs/castilian_mismatch_declarative-broad-focus_El-bebe-comia-muy-bien.wav,./stim/wavs/chilean_mismatch_declarative-broad-focus_El-bebe-comia-muy-bien.wav,./stim/wavs/cuban_mismatch_declarative-broad-focus_El-bebe-comia-muy-bien.wav,./stim/wavs/mexican_mismatch_declarative-broad-focus_El-bebe-comia-muy-bien.wav,./stim/wavs/peruvian_mismatch_declarative-broad-focus_El-bebe-comia-muy-bien.wav,./stim/wavs/puertorican_mismatch_declarative-broad-focus_El-bebe-comia-muy-bien.wav,,,,,,,,,,,,,,,,,,,,,,,,,,,,,,,,,,,,,,,,,,,,,,,,,,,,,,,,
,,,,,,,5f985a6faf071810974a32f8,605b45a4d25f287719a41696,605ba91688d265c9f13498fe,United States,Midwest,13 or older,no,2021-03-24_16h06.44.293,empathy_intonation_perc,2020.2.10,Linux x86_64,60,,,,,,,,,,1,puertorican,1,1,1.34238,0,5,5,24,1,25,./stim/wavs/andalusian_match_interrogative-total-yn_Ana-lleva-el-abrigo.wav,./stim/wavs/argentine_match_interrogative-total-yn_Ana-lleva-el-abrigo.wav,./stim/wavs/castilian_match_interrogative-total-yn_Ana-lleva-el-abrigo.wav,./stim/wavs/chilean_match_interrogative-total-yn_Ana-lleva-el-abrigo.wav,./stim/wavs/cuban_match_interrogative-total-yn_Ana-lleva-el-abrigo.wav,./stim/wavs/mexican_match_interrogative-total-yn_Ana-lleva-el-abrigo.wav,./stim/wavs/peruvian_match_interrogative-total-yn_Ana-lleva-el-abrigo.wav,./stim/wavs/puertorican_match_interrogative-total-yn_Ana-lleva-el-abrigo.wav,,,,,,,,,,,,,,,,,,,,,,,,,,,,,,,,,,,,,,,,,,,,,,,,,,,,,,,,
,,,,,,,5f985a6faf071810974a32f8,605b45a4d25f287719a41696,605ba91688d265c9f13498fe,United States,Midwest,13 or older,no,2021-03-24_16h06.44.293,empathy_intonation_perc,2020.2.10,Linux x86_64,60,,,,,,,,,,1,argentine,0,0,1.54733,0,6,6,60,1,61,./stim/wavs/andalusian_mismatch_interrogative-total-yn_La-nina-lava-el-plato.wav,./stim/wavs/argentine_mismatch_interrogative-total-yn_La-nina-lava-el-plato.wav,./stim/wavs/castilian_mismatch_interrogative-total-yn_La-nina-lava-el-plato.wav,./stim/wavs/chilean_mismatch_interrogative-total-yn_La-nina-lava-el-plato.wav,./stim/wavs/cuban_mismatch_interrogative-total-yn_La-nina-lava-el-plato.wav,./stim/wavs/mexican_mismatch_interrogative-total-yn_La-nina-lava-el-plato.wav,./stim/wavs/peruvian_mismatch_interrogative-total-yn_La-nina-lava-el-plato.wav,./stim/wavs/puertorican_mismatch_interrogative-total-yn_La-nina-lava-el-plato.wav,,,,,,,,,,,,,,,,,,,,,,,,,,,,,,,,,,,,,,,,,,,,,,,,,,,,,,,,
,,,,,,,5f985a6faf071810974a32f8,605b45a4d25f287719a41696,605ba91688d265c9f13498fe,United States,Midwest,13 or older,no,2021-03-24_16h06.44.293,empathy_intonation_perc,2020.2.10,Linux x86_64,60,,,,,,,,,,0,castilian,0,1,1.721015,0,7,7,47,1,48,./stim/wavs/andalusian_mismatch_declarative-narrow-focus_Mi-tia-odia-la-lluvia.wav,./stim/wavs/argentine_mismatch_declarative-narrow-focus_Mi-tia-odia-la-lluvia.wav,./stim/wavs/castilian_mismatch_declarative-narrow-focus_Mi-tia-odia-la-lluvia.wav,./stim/wavs/chilean_mismatch_declarative-narrow-focus_Mi-tia-odia-la-lluvia.wav,./stim/wavs/cuban_mismatch_declarative-narrow-focus_Mi-tia-odia-la-lluvia.wav,./stim/wavs/mexican_mismatch_declarative-narrow-focus_Mi-tia-odia-la-lluvia.wav,./stim/wavs/peruvian_mismatch_declarative-narrow-focus_Mi-tia-odia-la-lluvia.wav,./stim/wavs/puertorican_mismatch_declarative-narrow-focus_Mi-tia-odia-la-lluvia.wav,,,,,,,,,,,,,,,,,,,,,,,,,,,,,,,,,,,,,,,,,,,,,,,,,,,,,,,,
,,,,,,,5f985a6faf071810974a32f8,605b45a4d25f287719a41696,605ba91688d265c9f13498fe,United States,Midwest,13 or older,no,2021-03-24_16h06.44.293,empathy_intonation_perc,2020.2.10,Linux x86_64,60,,,,,,,,,,0,argentine,0,1,2.41968,0,8,8,42,1,43,./stim/wavs/andalusian_mismatch_declarative-narrow-focus_El-nino-oye-el-rio.wav,./stim/wavs/argentine_mismatch_declarative-narrow-focus_El-nino-oye-el-rio.wav,./stim/wavs/castilian_mismatch_declarative-narrow-focus_El-nino-oye-el-rio.wav,./stim/wavs/chilean_mismatch_declarative-narrow-focus_El-nino-oye-el-rio.wav,./stim/wavs/cuban_mismatch_declarative-narrow-focus_El-nino-oye-el-rio.wav,./stim/wavs/mexican_mismatch_declarative-narrow-focus_El-nino-oye-el-rio.wav,./stim/wavs/peruvian_mismatch_declarative-narrow-focus_El-nino-oye-el-rio.wav,./stim/wavs/puertorican_mismatch_declarative-narrow-focus_El-nino-oye-el-rio.wav,,,,,,,,,,,,,,,,,,,,,,,,,,,,,,,,,,,,,,,,,,,,,,,,,,,,,,,,
,,,,,,,5f985a6faf071810974a32f8,605b45a4d25f287719a41696,605ba91688d265c9f13498fe,United States,Midwest,13 or older,no,2021-03-24_16h06.44.293,empathy_intonation_perc,2020.2.10,Linux x86_64,60,,,,,,,,,,1,mexican,1,1,1.384655,0,9,9,48,1,49,./stim/wavs/andalusian_mismatch_interrogative-partial-wh_Cuando-comia-la-fruta.wav,./stim/wavs/argentine_mismatch_interrogative-partial-wh_Cuando-comia-la-fruta.wav,./stim/wavs/castilian_mismatch_interrogative-partial-wh_Cuando-comia-la-fruta.wav,./stim/wavs/chilean_mismatch_interrogative-partial-wh_Cuando-comia-la-fruta.wav,./stim/wavs/cuban_mismatch_interrogative-partial-wh_Cuando-comia-la-fruta.wav,./stim/wavs/mexican_mismatch_interrogative-partial-wh_Cuando-comia-la-fruta.wav,./stim/wavs/peruvian_mismatch_interrogative-partial-wh_Cuando-comia-la-fruta.wav,./stim/wavs/puertorican_mismatch_interrogative-partial-wh_Cuando-comia-la-fruta.wav,,,,,,,,,,,,,,,,,,,,,,,,,,,,,,,,,,,,,,,,,,,,,,,,,,,,,,,,
,,,,,,,5f985a6faf071810974a32f8,605b45a4d25f287719a41696,605ba91688d265c9f13498fe,United States,Midwest,13 or older,no,2021-03-24_16h06.44.293,empathy_intonation_perc,2020.2.10,Linux x86_64,60,,,,,,,,,,0,andalusian,1,0,2.303155,0,10,10,2,1,3,./stim/wavs/andalusian_match_declarative-broad-focus_David-leia-el-libro.wav,./stim/wavs/argentine_match_declarative-broad-focus_David-leia-el-libro.wav,./stim/wavs/castilian_match_declarative-broad-focus_David-leia-el-libro.wav,./stim/wavs/chilean_match_declarative-broad-focus_David-leia-el-libro.wav,./stim/wavs/cuban_match_declarative-broad-focus_David-leia-el-libro.wav,./stim/wavs/mexican_match_declarative-broad-focus_David-leia-el-libro.wav,./stim/wavs/peruvian_match_declarative-broad-focus_David-leia-el-libro.wav,./stim/wavs/puertorican_match_declarative-broad-focus_David-leia-el-libro.wav,,,,,,,,,,,,,,,,,,,,,,,,,,,,,,,,,,,,,,,,,,,,,,,,,,,,,,,,
,,,,,,,5f985a6faf071810974a32f8,605b45a4d25f287719a41696,605ba91688d265c9f13498fe,United States,Midwest,13 or older,no,2021-03-24_16h06.44.293,empathy_intonation_perc,2020.2.10,Linux x86_64,60,,,,,,,,,,1,mexican,0,0,2.555645,0,11,11,56,1,57,./stim/wavs/andalusian_mismatch_interrogative-total-yn_El-bebe-comia-muy-bien.wav,./stim/wavs/argentine_mismatch_interrogative-total-yn_El-bebe-comia-muy-bien.wav,./stim/wavs/castilian_mismatch_interrogative-total-yn_El-bebe-comia-muy-bien.wav,./stim/wavs/chilean_mismatch_interrogative-total-yn_El-bebe-comia-muy-bien.wav,./stim/wavs/cuban_mismatch_interrogative-total-yn_El-bebe-comia-muy-bien.wav,./stim/wavs/mexican_mismatch_interrogative-total-yn_El-bebe-comia-muy-bien.wav,./stim/wavs/peruvian_mismatch_interrogative-total-yn_El-bebe-comia-muy-bien.wav,./stim/wavs/puertorican_mismatch_interrogative-total-yn_El-bebe-comia-muy-bien.wav,,,,,,,,,,,,,,,,,,,,,,,,,,,,,,,,,,,,,,,,,,,,,,,,,,,,,,,,
,,,,,,,5f985a6faf071810974a32f8,605b45a4d25f287719a41696,605ba91688d265c9f13498fe,United States,Midwest,13 or older,no,2021-03-24_16h06.44.293,empathy_intonation_perc,2020.2.10,Linux x86_64,60,,,,,,,,,,0,puertorican,1,0,1.82008,0,12,12,4,1,5,./stim/wavs/andalusian_match_declarative-broad-focus_Manuela-vende-el-carro.wav,./stim/wavs/argentine_match_declarative-broad-focus_Manuela-vende-el-carro.wav,./stim/wavs/castilian_match_declarative-broad-focus_Manuela-vende-el-carro.wav,./stim/wavs/chilean_match_declarative-broad-focus_Manuela-vende-el-carro.wav,./stim/wavs/cuban_match_declarative-broad-focus_Manuela-vende-el-carro.wav,./stim/wavs/mexican_match_declarative-broad-focus_Manuela-vende-el-carro.wav,./stim/wavs/peruvian_match_declarative-broad-focus_Manuela-vende-el-carro.wav,./stim/wavs/puertorican_match_declarative-broad-focus_Manuela-vende-el-carro.wav,,,,,,,,,,,,,,,,,,,,,,,,,,,,,,,,,,,,,,,,,,,,,,,,,,,,,,,,
,,,,,,,5f985a6faf071810974a32f8,605b45a4d25f287719a41696,605ba91688d265c9f13498fe,United States,Midwest,13 or older,no,2021-03-24_16h06.44.293,empathy_intonation_perc,2020.2.10,Linux x86_64,60,,,,,,,,,,1,puertorican,0,0,1.43865,0,13,13,61,1,62,./stim/wavs/andalusian_mismatch_interrogative-total-yn_Mi-madre-come-la-fruta.wav,./stim/wavs/argentine_mismatch_interrogative-total-yn_Mi-madre-come-la-fruta.wav,./stim/wavs/castilian_mismatch_interrogative-total-yn_Mi-madre-come-la-fruta.wav,./stim/wavs/chilean_mismatch_interrogative-total-yn_Mi-madre-come-la-fruta.wav,./stim/wavs/cuban_mismatch_interrogative-total-yn_Mi-madre-come-la-fruta.wav,./stim/wavs/mexican_mismatch_interrogative-total-yn_Mi-madre-come-la-fruta.wav,./stim/wavs/peruvian_mismatch_interrogative-total-yn_Mi-madre-come-la-fruta.wav,./stim/wavs/puertorican_mismatch_interrogative-total-yn_Mi-madre-come-la-fruta.wav,,,,,,,,,,,,,,,,,,,,,,,,,,,,,,,,,,,,,,,,,,,,,,,,,,,,,,,,
,,,,,,,5f985a6faf071810974a32f8,605b45a4d25f287719a41696,605ba91688d265c9f13498fe,United States,Midwest,13 or older,no,2021-03-24_16h06.44.293,empathy_intonation_perc,2020.2.10,Linux x86_64,60,,,,,,,,,,1,castilian,1,1,1.93875,0,14,14,31,1,32,./stim/wavs/andalusian_match_interrogative-total-yn_Marta-abre-el-regalo.wav,./stim/wavs/argentine_match_interrogative-total-yn_Marta-abre-el-regalo.wav,./stim/wavs/castilian_match_interrogative-total-yn_Marta-abre-el-regalo.wav,./stim/wavs/chilean_match_interrogative-total-yn_Marta-abre-el-regalo.wav,./stim/wavs/cuban_match_interrogative-total-yn_Marta-abre-el-regalo.wav,./stim/wavs/mexican_match_interrogative-total-yn_Marta-abre-el-regalo.wav,./stim/wavs/peruvian_match_interrogative-total-yn_Marta-abre-el-regalo.wav,./stim/wavs/puertorican_match_interrogative-total-yn_Marta-abre-el-regalo.wav,,,,,,,,,,,,,,,,,,,,,,,,,,,,,,,,,,,,,,,,,,,,,,,,,,,,,,,,
,,,,,,,5f985a6faf071810974a32f8,605b45a4d25f287719a41696,605ba91688d265c9f13498fe,United States,Midwest,13 or older,no,2021-03-24_16h06.44.293,empathy_intonation_perc,2020.2.10,Linux x86_64,60,,,,,,,,,,1,chilean,1,1,2.045505,0,15,15,50,1,51,./stim/wavs/andalusian_mismatch_interrogative-partial-wh_Cuando-miraba-la-luna.wav,./stim/wavs/argentine_mismatch_interrogative-partial-wh_Cuando-miraba-la-luna.wav,./stim/wavs/castilian_mismatch_interrogative-partial-wh_Cuando-miraba-la-luna.wav,./stim/wavs/chilean_mismatch_interrogative-partial-wh_Cuando-miraba-la-luna.wav,./stim/wavs/cuban_mismatch_interrogative-partial-wh_Cuando-miraba-la-luna.wav,./stim/wavs/mexican_mismatch_interrogative-partial-wh_Cuando-miraba-la-luna.wav,./stim/wavs/peruvian_mismatch_interrogative-partial-wh_Cuando-miraba-la-luna.wav,./stim/wavs/puertorican_mismatch_interrogative-partial-wh_Cuando-miraba-la-luna.wav,,,,,,,,,,,,,,,,,,,,,,,,,,,,,,,,,,,,,,,,,,,,,,,,,,,,,,,,
,,,,,,,5f985a6faf071810974a32f8,605b45a4d25f287719a41696,605ba91688d265c9f13498fe,United States,Midwest,13 or older,no,2021-03-24_16h06.44.293,empathy_intonation_perc,2020.2.10,Linux x86_64,60,,,,,,,,,,0,argentine,0,1,1.96833,0,16,16,34,1,35,./stim/wavs/andalusian_mismatch_declarative-broad-focus_El-nino-oye-el-rio.wav,./stim/wavs/argentine_mismatch_declarative-broad-focus_El-nino-oye-el-rio.wav,./stim/wavs/castilian_mismatch_declarative-broad-focus_El-nino-oye-el-rio.wav,./stim/wavs/chilean_mismatch_declarative-broad-focus_El-nino-oye-el-rio.wav,./stim/wavs/cuban_mismatch_declarative-broad-focus_El-nino-oye-el-rio.wav,./stim/wavs/mexican_mismatch_declarative-broad-focus_El-nino-oye-el-rio.wav,./stim/wavs/peruvian_mismatch_declarative-broad-focus_El-nino-oye-el-rio.wav,./stim/wavs/puertorican_mismatch_declarative-broad-focus_El-nino-oye-el-rio.wav,,,,,,,,,,,,,,,,,,,,,,,,,,,,,,,,,,,,,,,,,,,,,,,,,,,,,,,,
,,,,,,,5f985a6faf071810974a32f8,605b45a4d25f287719a41696,605ba91688d265c9f13498fe,United States,Midwest,13 or older,no,2021-03-24_16h06.44.293,empathy_intonation_perc,2020.2.10,Linux x86_64,60,,,,,,,,,,0,peruvian,0,1,2.158835,0,17,17,15,1,16,./stim/wavs/andalusian_match_declarative-narrow-focus_Marta-abre-el-regalo.wav,./stim/wavs/argentine_match_declarative-narrow-focus_Marta-abre-el-regalo.wav,./stim/wavs/castilian_match_declarative-narrow-focus_Marta-abre-el-regalo.wav,./stim/wavs/chilean_match_declarative-narrow-focus_Marta-abre-el-regalo.wav,./stim/wavs/cuban_match_declarative-narrow-focus_Marta-abre-el-regalo.wav,./stim/wavs/mexican_match_declarative-narrow-focus_Marta-abre-el-regalo.wav,./stim/wavs/peruvian_match_declarative-narrow-focus_Marta-abre-el-regalo.wav,./stim/wavs/puertorican_match_declarative-narrow-focus_Marta-abre-el-regalo.wav,,,,,,,,,,,,,,,,,,,,,,,,,,,,,,,,,,,,,,,,,,,,,,,,,,,,,,,,
,,,,,,,5f985a6faf071810974a32f8,605b45a4d25f287719a41696,605ba91688d265c9f13498fe,United States,Midwest,13 or older,no,2021-03-24_16h06.44.293,empathy_intonation_perc,2020.2.10,Linux x86_64,60,,,,,,,,,,0,argentine,0,1,2.17345,0,18,18,9,1,10,./stim/wavs/andalusian_match_declarative-narrow-focus_Daniel-iba-a-Bolivia.wav,./stim/wavs/argentine_match_declarative-narrow-focus_Daniel-iba-a-Bolivia.wav,./stim/wavs/castilian_match_declarative-narrow-focus_Daniel-iba-a-Bolivia.wav,./stim/wavs/chilean_match_declarative-narrow-focus_Daniel-iba-a-Bolivia.wav,./stim/wavs/cuban_match_declarative-narrow-focus_Daniel-iba-a-Bolivia.wav,./stim/wavs/mexican_match_declarative-narrow-focus_Daniel-iba-a-Bolivia.wav,./stim/wavs/peruvian_match_declarative-narrow-focus_Daniel-iba-a-Bolivia.wav,./stim/wavs/puertorican_match_declarative-narrow-focus_Daniel-iba-a-Bolivia.wav,,,,,,,,,,,,,,,,,,,,,,,,,,,,,,,,,,,,,,,,,,,,,,,,,,,,,,,,
,,,,,,,5f985a6faf071810974a32f8,605b45a4d25f287719a41696,605ba91688d265c9f13498fe,United States,Midwest,13 or older,no,2021-03-24_16h06.44.293,empathy_intonation_perc,2020.2.10,Linux x86_64,60,,,,,,,,,,0,chilean,1,0,2.50988,0,19,19,43,1,44,./stim/wavs/andalusian_mismatch_declarative-narrow-focus_La-maestra-vive-en-Paris.wav,./stim/wavs/argentine_mismatch_declarative-narrow-focus_La-maestra-vive-en-Paris.wav,./stim/wavs/castilian_mismatch_declarative-narrow-focus_La-maestra-vive-en-Paris.wav,./stim/wavs/chilean_mismatch_declarative-narrow-focus_La-maestra-vive-en-Paris.wav,./stim/wavs/cuban_mismatch_declarative-narrow-focus_La-maestra-vive-en-Paris.wav,./stim/wavs/mexican_mismatch_declarative-narrow-focus_La-maestra-vive-en-Paris.wav,./stim/wavs/peruvian_mismatch_declarative-narrow-focus_La-maestra-vive-en-Paris.wav,./stim/wavs/puertorican_mismatch_declarative-narrow-focus_La-maestra-vive-en-Paris.wav,,,,,,,,,,,,,,,,,,,,,,,,,,,,,,,,,,,,,,,,,,,,,,,,,,,,,,,,
,,,,,,,5f985a6faf071810974a32f8,605b45a4d25f287719a41696,605ba91688d265c9f13498fe,United States,Midwest,13 or older,no,2021-03-24_16h06.44.293,empathy_intonation_perc,2020.2.10,Linux x86_64,60,,,,,,,,,,1,peruvian,1,1,1.52822,0,20,20,23,1,24,./stim/wavs/andalusian_match_interrogative-partial-wh_Por-que-iba-a-Bolivia.wav,./stim/wavs/argentine_match_interrogative-partial-wh_Por-que-iba-a-Bolivia.wav,./stim/wavs/castilian_match_interrogative-partial-wh_Por-que-iba-a-Bolivia.wav,./stim/wavs/chilean_match_interrogative-partial-wh_Por-que-iba-a-Bolivia.wav,./stim/wavs/cuban_match_interrogative-partial-wh_Por-que-iba-a-Bolivia.wav,./stim/wavs/mexican_match_interrogative-partial-wh_Por-que-iba-a-Bolivia.wav,./stim/wavs/peruvian_match_interrogative-partial-wh_Por-que-iba-a-Bolivia.wav,./stim/wavs/puertorican_match_interrogative-partial-wh_Por-que-iba-a-Bolivia.wav,,,,,,,,,,,,,,,,,,,,,,,,,,,,,,,,,,,,,,,,,,,,,,,,,,,,,,,,
,,,,,,,5f985a6faf071810974a32f8,605b45a4d25f287719a41696,605ba91688d265c9f13498fe,United States,Midwest,13 or older,no,2021-03-24_16h06.44.293,empathy_intonation_perc,2020.2.10,Linux x86_64,60,,,,,,,,,,0,castilian,1,0,1.717675,0,21,21,5,1,6,./stim/wavs/andalusian_match_declarative-broad-focus_Maria-bebe-el-vino.wav,./stim/wavs/argentine_match_declarative-broad-focus_Maria-bebe-el-vino.wav,./stim/wavs/castilian_match_declarative-broad-focus_Maria-bebe-el-vino.wav,./stim/wavs/chilean_match_declarative-broad-focus_Maria-bebe-el-vino.wav,./stim/wavs/cuban_match_declarative-broad-focus_Maria-bebe-el-vino.wav,./stim/wavs/mexican_match_declarative-broad-focus_Maria-bebe-el-vino.wav,./stim/wavs/peruvian_match_declarative-broad-focus_Maria-bebe-el-vino.wav,./stim/wavs/puertorican_match_declarative-broad-focus_Maria-bebe-el-vino.wav,,,,,,,,,,,,,,,,,,,,,,,,,,,,,,,,,,,,,,,,,,,,,,,,,,,,,,,,
,,,,,,,5f985a6faf071810974a32f8,605b45a4d25f287719a41696,605ba91688d265c9f13498fe,United States,Midwest,13 or older,no,2021-03-24_16h06.44.293,empathy_intonation_perc,2020.2.10,Linux x86_64,60,,,,,,,,,,0,chilean,0,1,1.689515,0,22,22,40,1,41,./stim/wavs/andalusian_mismatch_declarative-narrow-focus_El-bebe-comia-muy-bien.wav,./stim/wavs/argentine_mismatch_declarative-narrow-focus_El-bebe-comia-muy-bien.wav,./stim/wavs/castilian_mismatch_declarative-narrow-focus_El-bebe-comia-muy-bien.wav,./stim/wavs/chilean_mismatch_declarative-narrow-focus_El-bebe-comia-muy-bien.wav,./stim/wavs/cuban_mismatch_declarative-narrow-focus_El-bebe-comia-muy-bien.wav,./stim/wavs/mexican_mismatch_declarative-narrow-focus_El-bebe-comia-muy-bien.wav,./stim/wavs/peruvian_mismatch_declarative-narrow-focus_El-bebe-comia-muy-bien.wav,./stim/wavs/puertorican_mismatch_declarative-narrow-focus_El-bebe-comia-muy-bien.wav,,,,,,,,,,,,,,,,,,,,,,,,,,,,,,,,,,,,,,,,,,,,,,,,,,,,,,,,
,,,,,,,5f985a6faf071810974a32f8,605b45a4d25f287719a41696,605ba91688d265c9f13498fe,United States,Midwest,13 or older,no,2021-03-24_16h06.44.293,empathy_intonation_perc,2020.2.10,Linux x86_64,60,,,,,,,,,,1,peruvian,1,1,1.71971,0,23,23,52,1,53,./stim/wavs/andalusian_mismatch_interrogative-partial-wh_Por-que-odiaba-la-lluvia.wav,./stim/wavs/argentine_mismatch_interrogative-partial-wh_Por-que-odiaba-la-lluvia.wav,./stim/wavs/castilian_mismatch_interrogative-partial-wh_Por-que-odiaba-la-lluvia.wav,./stim/wavs/chilean_mismatch_interrogative-partial-wh_Por-que-odiaba-la-lluvia.wav,./stim/wavs/cuban_mismatch_interrogative-partial-wh_Por-que-odiaba-la-lluvia.wav,./stim/wavs/mexican_mismatch_interrogative-partial-wh_Por-que-odiaba-la-lluvia.wav,./stim/wavs/peruvian_mismatch_interrogative-partial-wh_Por-que-odiaba-la-lluvia.wav,./stim/wavs/puertorican_mismatch_interrogative-partial-wh_Por-que-odiaba-la-lluvia.wav,,,,,,,,,,,,,,,,,,,,,,,,,,,,,,,,,,,,,,,,,,,,,,,,,,,,,,,,
,,,,,,,5f985a6faf071810974a32f8,605b45a4d25f287719a41696,605ba91688d265c9f13498fe,United States,Midwest,13 or older,no,2021-03-24_16h06.44.293,empathy_intonation_perc,2020.2.10,Linux x86_64,60,,,,,,,,,,1,andalusian,1,1,1.553075,0,24,24,19,1,20,./stim/wavs/andalusian_match_interrogative-partial-wh_Cuando-vendia-el-carro.wav,./stim/wavs/argentine_match_interrogative-partial-wh_Cuando-vendia-el-carro.wav,./stim/wavs/castilian_match_interrogative-partial-wh_Cuando-vendia-el-carro.wav,./stim/wavs/chilean_match_interrogative-partial-wh_Cuando-vendia-el-carro.wav,./stim/wavs/cuban_match_interrogative-partial-wh_Cuando-vendia-el-carro.wav,./stim/wavs/mexican_match_interrogative-partial-wh_Cuando-vendia-el-carro.wav,./stim/wavs/peruvian_match_interrogative-partial-wh_Cuando-vendia-el-carro.wav,./stim/wavs/puertorican_match_interrogative-partial-wh_Cuando-vendia-el-carro.wav,,,,,,,,,,,,,,,,,,,,,,,,,,,,,,,,,,,,,,,,,,,,,,,,,,,,,,,,
,,,,,,,5f985a6faf071810974a32f8,605b45a4d25f287719a41696,605ba91688d265c9f13498fe,United States,Midwest,13 or older,no,2021-03-24_16h06.44.293,empathy_intonation_perc,2020.2.10,Linux x86_64,60,,,,,,,,,,0,peruvian,0,1,1.68827,0,25,25,33,1,34,./stim/wavs/andalusian_mismatch_declarative-broad-focus_El-hombre-mira-la-luna.wav,./stim/wavs/argentine_mismatch_declarative-broad-focus_El-hombre-mira-la-luna.wav,./stim/wavs/castilian_mismatch_declarative-broad-focus_El-hombre-mira-la-luna.wav,./stim/wavs/chilean_mismatch_declarative-broad-focus_El-hombre-mira-la-luna.wav,./stim/wavs/cuban_mismatch_declarative-broad-focus_El-hombre-mira-la-luna.wav,./stim/wavs/mexican_mismatch_declarative-broad-focus_El-hombre-mira-la-luna.wav,./stim/wavs/peruvian_mismatch_declarative-broad-focus_El-hombre-mira-la-luna.wav,./stim/wavs/puertorican_mismatch_declarative-broad-focus_El-hombre-mira-la-luna.wav,,,,,,,,,,,,,,,,,,,,,,,,,,,,,,,,,,,,,,,,,,,,,,,,,,,,,,,,
,,,,,,,5f985a6faf071810974a32f8,605b45a4d25f287719a41696,605ba91688d265c9f13498fe,United States,Midwest,13 or older,no,2021-03-24_16h06.44.293,empathy_intonation_perc,2020.2.10,Linux x86_64,60,,,,,,,,,,1,cuban,1,1,1.603835,0,26,26,51,1,52,./stim/wavs/andalusian_mismatch_interrogative-partial-wh_Por-que-desayuna-muy-bien.wav,./stim/wavs/argentine_mismatch_interrogative-partial-wh_Por-que-desayuna-muy-bien.wav,./stim/wavs/castilian_mismatch_interrogative-partial-wh_Por-que-desayuna-muy-bien.wav,./stim/wavs/chilean_mismatch_interrogative-partial-wh_Por-que-desayuna-muy-bien.wav,./stim/wavs/cuban_mismatch_interrogative-partial-wh_Por-que-desayuna-muy-bien.wav,./stim/wavs/mexican_mismatch_interrogative-partial-wh_Por-que-desayuna-muy-bien.wav,./stim/wavs/peruvian_mismatch_interrogative-partial-wh_Por-que-desayuna-muy-bien.wav,./stim/wavs/puertorican_mismatch_interrogative-partial-wh_Por-que-desayuna-muy-bien.wav,,,,,,,,,,,,,,,,,,,,,,,,,,,,,,,,,,,,,,,,,,,,,,,,,,,,,,,,
,,,,,,,5f985a6faf071810974a32f8,605b45a4d25f287719a41696,605ba91688d265c9f13498fe,United States,Midwest,13 or older,no,2021-03-24_16h06.44.293,empathy_intonation_perc,2020.2.10,Linux x86_64,60,,,,,,,,,,1,puertorican,0,0,1.760055,0,27,27,57,1,58,./stim/wavs/andalusian_mismatch_interrogative-total-yn_El-hombre-mira-la-luna.wav,./stim/wavs/argentine_mismatch_interrogative-total-yn_El-hombre-mira-la-luna.wav,./stim/wavs/castilian_mismatch_interrogative-total-yn_El-hombre-mira-la-luna.wav,./stim/wavs/chilean_mismatch_interrogative-total-yn_El-hombre-mira-la-luna.wav,./stim/wavs/cuban_mismatch_interrogative-total-yn_El-hombre-mira-la-luna.wav,./stim/wavs/mexican_mismatch_interrogative-total-yn_El-hombre-mira-la-luna.wav,./stim/wavs/peruvian_mismatch_interrogative-total-yn_El-hombre-mira-la-luna.wav,./stim/wavs/puertorican_mismatch_interrogative-total-yn_El-hombre-mira-la-luna.wav,,,,,,,,,,,,,,,,,,,,,,,,,,,,,,,,,,,,,,,,,,,,,,,,,,,,,,,,
,,,,,,,5f985a6faf071810974a32f8,605b45a4d25f287719a41696,605ba91688d265c9f13498fe,United States,Midwest,13 or older,no,2021-03-24_16h06.44.293,empathy_intonation_perc,2020.2.10,Linux x86_64,60,,,,,,,,,,1,peruvian,1,1,1.56612,0,28,28,26,1,27,./stim/wavs/andalusian_match_interrogative-total-yn_David-leia-el-libro.wav,./stim/wavs/argentine_match_interrogative-total-yn_David-leia-el-libro.wav,./stim/wavs/castilian_match_interrogative-total-yn_David-leia-el-libro.wav,./stim/wavs/chilean_match_interrogative-total-yn_David-leia-el-libro.wav,./stim/wavs/cuban_match_interrogative-total-yn_David-leia-el-libro.wav,./stim/wavs/mexican_match_interrogative-total-yn_David-leia-el-libro.wav,./stim/wavs/peruvian_match_interrogative-total-yn_David-leia-el-libro.wav,./stim/wavs/puertorican_match_interrogative-total-yn_David-leia-el-libro.wav,,,,,,,,,,,,,,,,,,,,,,,,,,,,,,,,,,,,,,,,,,,,,,,,,,,,,,,,
,,,,,,,5f985a6faf071810974a32f8,605b45a4d25f287719a41696,605ba91688d265c9f13498fe,United States,Midwest,13 or older,no,2021-03-24_16h06.44.293,empathy_intonation_perc,2020.2.10,Linux x86_64,60,,,,,,,,,,0,mexican,0,1,2.13603,0,29,29,12,1,13,./stim/wavs/andalusian_match_declarative-narrow-focus_Manuela-vende-el-carro.wav,./stim/wavs/argentine_match_declarative-narrow-focus_Manuela-vende-el-carro.wav,./stim/wavs/castilian_match_declarative-narrow-focus_Manuela-vende-el-carro.wav,./stim/wavs/chilean_match_declarative-narrow-focus_Manuela-vende-el-carro.wav,./stim/wavs/cuban_match_declarative-narrow-focus_Manuela-vende-el-carro.wav,./stim/wavs/mexican_match_declarative-narrow-focus_Manuela-vende-el-carro.wav,./stim/wavs/peruvian_match_declarative-narrow-focus_Manuela-vende-el-carro.wav,./stim/wavs/puertorican_match_declarative-narrow-focus_Manuela-vende-el-carro.wav,,,,,,,,,,,,,,,,,,,,,,,,,,,,,,,,,,,,,,,,,,,,,,,,,,,,,,,,
,,,,,,,5f985a6faf071810974a32f8,605b45a4d25f287719a41696,605ba91688d265c9f13498fe,United States,Midwest,13 or older,no,2021-03-24_16h06.44.293,empathy_intonation_perc,2020.2.10,Linux x86_64,60,,,,,,,,,,0,mexican,0,1,1.70238,0,30,30,7,1,8,./stim/wavs/andalusian_match_declarative-broad-focus_Marta-abre-el-regalo.wav,./stim/wavs/argentine_match_declarative-broad-focus_Marta-abre-el-regalo.wav,./stim/wavs/castilian_match_declarative-broad-focus_Marta-abre-el-regalo.wav,./stim/wavs/chilean_match_declarative-broad-focus_Marta-abre-el-regalo.wav,./stim/wavs/cuban_match_declarative-broad-focus_Marta-abre-el-regalo.wav,./stim/wavs/mexican_match_declarative-broad-focus_Marta-abre-el-regalo.wav,./stim/wavs/peruvian_match_declarative-broad-focus_Marta-abre-el-regalo.wav,./stim/wavs/puertorican_match_declarative-broad-focus_Marta-abre-el-regalo.wav,,,,,,,,,,,,,,,,,,,,,,,,,,,,,,,,,,,,,,,,,,,,,,,,,,,,,,,,
,,,,,,,5f985a6faf071810974a32f8,605b45a4d25f287719a41696,605ba91688d265c9f13498fe,United States,Midwest,13 or older,no,2021-03-24_16h06.44.293,empathy_intonation_perc,2020.2.10,Linux x86_64,60,,,,,,,,,,0,mexican,0,1,1.5559,0,31,31,8,1,9,./stim/wavs/andalusian_match_declarative-narrow-focus_Ana-lleva-el-abrigo.wav,./stim/wavs/argentine_match_declarative-narrow-focus_Ana-lleva-el-abrigo.wav,./stim/wavs/castilian_match_declarative-narrow-focus_Ana-lleva-el-abrigo.wav,./stim/wavs/chilean_match_declarative-narrow-focus_Ana-lleva-el-abrigo.wav,./stim/wavs/cuban_match_declarative-narrow-focus_Ana-lleva-el-abrigo.wav,./stim/wavs/mexican_match_declarative-narrow-focus_Ana-lleva-el-abrigo.wav,./stim/wavs/peruvian_match_declarative-narrow-focus_Ana-lleva-el-abrigo.wav,./stim/wavs/puertorican_match_declarative-narrow-focus_Ana-lleva-el-abrigo.wav,,,,,,,,,,,,,,,,,,,,,,,,,,,,,,,,,,,,,,,,,,,,,,,,,,,,,,,,
,,,,,,,5f985a6faf071810974a32f8,605b45a4d25f287719a41696,605ba91688d265c9f13498fe,United States,Midwest,13 or older,no,2021-03-24_16h06.44.293,empathy_intonation_perc,2020.2.10,Linux x86_64,60,,,,,,,,,,0,chilean,0,1,2.719565,0,32,32,14,1,15,./stim/wavs/andalusian_match_declarative-narrow-focus_Mariano-habla-del-tiempo.wav,./stim/wavs/argentine_match_declarative-narrow-focus_Mariano-habla-del-tiempo.wav,./stim/wavs/castilian_match_declarative-narrow-focus_Mariano-habla-del-tiempo.wav,./stim/wavs/chilean_match_declarative-narrow-focus_Mariano-habla-del-tiempo.wav,./stim/wavs/cuban_match_declarative-narrow-focus_Mariano-habla-del-tiempo.wav,./stim/wavs/mexican_match_declarative-narrow-focus_Mariano-habla-del-tiempo.wav,./stim/wavs/peruvian_match_declarative-narrow-focus_Mariano-habla-del-tiempo.wav,./stim/wavs/puertorican_match_declarative-narrow-focus_Mariano-habla-del-tiempo.wav,,,,,,,,,,,,,,,,,,,,,,,,,,,,,,,,,,,,,,,,,,,,,,,,,,,,,,,,
,,,,,,,5f985a6faf071810974a32f8,605b45a4d25f287719a41696,605ba91688d265c9f13498fe,United States,Midwest,13 or older,no,2021-03-24_16h06.44.293,empathy_intonation_perc,2020.2.10,Linux x86_64,60,,,,,,,,,,0,cuban,0,1,1.868975,0,33,33,35,1,36,./stim/wavs/andalusian_mismatch_declarative-broad-focus_La-maestra-vive-en-Paris.wav,./stim/wavs/argentine_mismatch_declarative-broad-focus_La-maestra-vive-en-Paris.wav,./stim/wavs/castilian_mismatch_declarative-broad-focus_La-maestra-vive-en-Paris.wav,./stim/wavs/chilean_mismatch_declarative-broad-focus_La-maestra-vive-en-Paris.wav,./stim/wavs/cuban_mismatch_declarative-broad-focus_La-maestra-vive-en-Paris.wav,./stim/wavs/mexican_mismatch_declarative-broad-focus_La-maestra-vive-en-Paris.wav,./stim/wavs/peruvian_mismatch_declarative-broad-focus_La-maestra-vive-en-Paris.wav,./stim/wavs/puertorican_mismatch_declarative-broad-focus_La-maestra-vive-en-Paris.wav,,,,,,,,,,,,,,,,,,,,,,,,,,,,,,,,,,,,,,,,,,,,,,,,,,,,,,,,
,,,,,,,5f985a6faf071810974a32f8,605b45a4d25f287719a41696,605ba91688d265c9f13498fe,United States,Midwest,13 or older,no,2021-03-24_16h06.44.293,empathy_intonation_perc,2020.2.10,Linux x86_64,60,,,,,,,,,,0,argentine,0,1,1.784065,0,34,34,45,1,46,./stim/wavs/andalusian_mismatch_declarative-narrow-focus_Mi-madre-come-la-fruta.wav,./stim/wavs/argentine_mismatch_declarative-narrow-focus_Mi-madre-come-la-fruta.wav,./stim/wavs/castilian_mismatch_declarative-narrow-focus_Mi-madre-come-la-fruta.wav,./stim/wavs/chilean_mismatch_declarative-narrow-focus_Mi-madre-come-la-fruta.wav,./stim/wavs/cuban_mismatch_declarative-narrow-focus_Mi-madre-come-la-fruta.wav,./stim/wavs/mexican_mismatch_declarative-narrow-focus_Mi-madre-come-la-fruta.wav,./stim/wavs/peruvian_mismatch_declarative-narrow-focus_Mi-madre-come-la-fruta.wav,./stim/wavs/puertorican_mismatch_declarative-narrow-focus_Mi-madre-come-la-fruta.wav,,,,,,,,,,,,,,,,,,,,,,,,,,,,,,,,,,,,,,,,,,,,,,,,,,,,,,,,
,,,,,,,5f985a6faf071810974a32f8,605b45a4d25f287719a41696,605ba91688d265c9f13498fe,United States,Midwest,13 or older,no,2021-03-24_16h06.44.293,empathy_intonation_perc,2020.2.10,Linux x86_64,60,,,,,,,,,,1,argentine,1,1,1.488995,0,35,35,49,1,50,./stim/wavs/andalusian_mismatch_interrogative-partial-wh_Cuando-lavaba-el-plato.wav,./stim/wavs/argentine_mismatch_interrogative-partial-wh_Cuando-lavaba-el-plato.wav,./stim/wavs/castilian_mismatch_interrogative-partial-wh_Cuando-lavaba-el-plato.wav,./stim/wavs/chilean_mismatch_interrogative-partial-wh_Cuando-lavaba-el-plato.wav,./stim/wavs/cuban_mismatch_interrogative-partial-wh_Cuando-lavaba-el-plato.wav,./stim/wavs/mexican_mismatch_interrogative-partial-wh_Cuando-lavaba-el-plato.wav,./stim/wavs/peruvian_mismatch_interrogative-partial-wh_Cuando-lavaba-el-plato.wav,./stim/wavs/puertorican_mismatch_interrogative-partial-wh_Cuando-lavaba-el-plato.wav,,,,,,,,,,,,,,,,,,,,,,,,,,,,,,,,,,,,,,,,,,,,,,,,,,,,,,,,
,,,,,,,5f985a6faf071810974a32f8,605b45a4d25f287719a41696,605ba91688d265c9f13498fe,United States,Midwest,13 or older,no,2021-03-24_16h06.44.293,empathy_intonation_perc,2020.2.10,Linux x86_64,60,,,,,,,,,,1,castilian,1,1,1.9708,0,36,36,25,1,26,./stim/wavs/andalusian_match_interrogative-total-yn_Daniel-iba-a-Bolivia.wav,./stim/wavs/argentine_match_interrogative-total-yn_Daniel-iba-a-Bolivia.wav,./stim/wavs/castilian_match_interrogative-total-yn_Daniel-iba-a-Bolivia.wav,./stim/wavs/chilean_match_interrogative-total-yn_Daniel-iba-a-Bolivia.wav,./stim/wavs/cuban_match_interrogative-total-yn_Daniel-iba-a-Bolivia.wav,./stim/wavs/mexican_match_interrogative-total-yn_Daniel-iba-a-Bolivia.wav,./stim/wavs/peruvian_match_interrogative-total-yn_Daniel-iba-a-Bolivia.wav,./stim/wavs/puertorican_match_interrogative-total-yn_Daniel-iba-a-Bolivia.wav,,,,,,,,,,,,,,,,,,,,,,,,,,,,,,,,,,,,,,,,,,,,,,,,,,,,,,,,
,,,,,,,5f985a6faf071810974a32f8,605b45a4d25f287719a41696,605ba91688d265c9f13498fe,United States,Midwest,13 or older,no,2021-03-24_16h06.44.293,empathy_intonation_perc,2020.2.10,Linux x86_64,60,,,,,,,,,,1,andalusian,0,0,1.618375,0,37,37,63,1,64,./stim/wavs/andalusian_mismatch_interrogative-total-yn_Mi-tia-odia-la-lluvia.wav,./stim/wavs/argentine_mismatch_interrogative-total-yn_Mi-tia-odia-la-lluvia.wav,./stim/wavs/castilian_mismatch_interrogative-total-yn_Mi-tia-odia-la-lluvia.wav,./stim/wavs/chilean_mismatch_interrogative-total-yn_Mi-tia-odia-la-lluvia.wav,./stim/wavs/cuban_mismatch_interrogative-total-yn_Mi-tia-odia-la-lluvia.wav,./stim/wavs/mexican_mismatch_interrogative-total-yn_Mi-tia-odia-la-lluvia.wav,./stim/wavs/peruvian_mismatch_interrogative-total-yn_Mi-tia-odia-la-lluvia.wav,./stim/wavs/puertorican_mismatch_interrogative-total-yn_Mi-tia-odia-la-lluvia.wav,,,,,,,,,,,,,,,,,,,,,,,,,,,,,,,,,,,,,,,,,,,,,,,,,,,,,,,,
,,,,,,,5f985a6faf071810974a32f8,605b45a4d25f287719a41696,605ba91688d265c9f13498fe,United States,Midwest,13 or older,no,2021-03-24_16h06.44.293,empathy_intonation_perc,2020.2.10,Linux x86_64,60,,,,,,,,,,0,chilean,0,1,2.02618,0,38,38,1,1,2,./stim/wavs/andalusian_match_declarative-broad-focus_Daniel-iba-a-Bolivia.wav,./stim/wavs/argentine_match_declarative-broad-focus_Daniel-iba-a-Bolivia.wav,./stim/wavs/castilian_match_declarative-broad-focus_Daniel-iba-a-Bolivia.wav,./stim/wavs/chilean_match_declarative-broad-focus_Daniel-iba-a-Bolivia.wav,./stim/wavs/cuban_match_declarative-broad-focus_Daniel-iba-a-Bolivia.wav,./stim/wavs/mexican_match_declarative-broad-focus_Daniel-iba-a-Bolivia.wav,./stim/wavs/peruvian_match_declarative-broad-focus_Daniel-iba-a-Bolivia.wav,./stim/wavs/puertorican_match_declarative-broad-focus_Daniel-iba-a-Bolivia.wav,,,,,,,,,,,,,,,,,,,,,,,,,,,,,,,,,,,,,,,,,,,,,,,,,,,,,,,,
,,,,,,,5f985a6faf071810974a32f8,605b45a4d25f287719a41696,605ba91688d265c9f13498fe,United States,Midwest,13 or older,no,2021-03-24_16h06.44.293,empathy_intonation_perc,2020.2.10,Linux x86_64,60,,,,,,,,,,1,andalusian,1,1,1.66809,0,39,39,62,1,63,./stim/wavs/andalusian_mismatch_interrogative-total-yn_Mi-novio-viene-del-lago.wav,./stim/wavs/argentine_mismatch_interrogative-total-yn_Mi-novio-viene-del-lago.wav,./stim/wavs/castilian_mismatch_interrogative-total-yn_Mi-novio-viene-del-lago.wav,./stim/wavs/chilean_mismatch_interrogative-total-yn_Mi-novio-viene-del-lago.wav,./stim/wavs/cuban_mismatch_interrogative-total-yn_Mi-novio-viene-del-lago.wav,./stim/wavs/mexican_mismatch_interrogative-total-yn_Mi-novio-viene-del-lago.wav,./stim/wavs/peruvian_mismatch_interrogative-total-yn_Mi-novio-viene-del-lago.wav,./stim/wavs/puertorican_mismatch_interrogative-total-yn_Mi-novio-viene-del-lago.wav,,,,,,,,,,,,,,,,,,,,,,,,,,,,,,,,,,,,,,,,,,,,,,,,,,,,,,,,
,,,,,,,5f985a6faf071810974a32f8,605b45a4d25f287719a41696,605ba91688d265c9f13498fe,United States,Midwest,13 or older,no,2021-03-24_16h06.44.293,empathy_intonation_perc,2020.2.10,Linux x86_64,60,,,,,,,,,,1,chilean,1,1,2.51262,0,40,40,29,1,30,./stim/wavs/andalusian_match_interrogative-total-yn_Maria-bebe-el-vino.wav,./stim/wavs/argentine_match_interrogative-total-yn_Maria-bebe-el-vino.wav,./stim/wavs/castilian_match_interrogative-total-yn_Maria-bebe-el-vino.wav,./stim/wavs/chilean_match_interrogative-total-yn_Maria-bebe-el-vino.wav,./stim/wavs/cuban_match_interrogative-total-yn_Maria-bebe-el-vino.wav,./stim/wavs/mexican_match_interrogative-total-yn_Maria-bebe-el-vino.wav,./stim/wavs/peruvian_match_interrogative-total-yn_Maria-bebe-el-vino.wav,./stim/wavs/puertorican_match_interrogative-total-yn_Maria-bebe-el-vino.wav,,,,,,,,,,,,,,,,,,,,,,,,,,,,,,,,,,,,,,,,,,,,,,,,,,,,,,,,
,,,,,,,5f985a6faf071810974a32f8,605b45a4d25f287719a41696,605ba91688d265c9f13498fe,United States,Midwest,13 or older,no,2021-03-24_16h06.44.293,empathy_intonation_perc,2020.2.10,Linux x86_64,60,,,,,,,,,,1,peruvian,1,1,1.760755,0,41,41,21,1,22,./stim/wavs/andalusian_match_interrogative-partial-wh_Por-que-ama-la-navidad.wav,./stim/wavs/argentine_match_interrogative-partial-wh_Por-que-ama-la-navidad.wav,./stim/wavs/castilian_match_interrogative-partial-wh_Por-que-ama-la-navidad.wav,./stim/wavs/chilean_match_interrogative-partial-wh_Por-que-ama-la-navidad.wav,./stim/wavs/cuban_match_interrogative-partial-wh_Por-que-ama-la-navidad.wav,./stim/wavs/mexican_match_interrogative-partial-wh_Por-que-ama-la-navidad.wav,./stim/wavs/peruvian_match_interrogative-partial-wh_Por-que-ama-la-navidad.wav,./stim/wavs/puertorican_match_interrogative-partial-wh_Por-que-ama-la-navidad.wav,,,,,,,,,,,,,,,,,,,,,,,,,,,,,,,,,,,,,,,,,,,,,,,,,,,,,,,,
,,,,,,,5f985a6faf071810974a32f8,605b45a4d25f287719a41696,605ba91688d265c9f13498fe,United States,Midwest,13 or older,no,2021-03-24_16h06.44.293,empathy_intonation_perc,2020.2.10,Linux x86_64,60,,,,,,,,,,1,cuban,0,0,1.889175,0,42,42,30,1,31,./stim/wavs/andalusian_match_interrogative-total-yn_Mariano-habla-del-tiempo.wav,./stim/wavs/argentine_match_interrogative-total-yn_Mariano-habla-del-tiempo.wav,./stim/wavs/castilian_match_interrogative-total-yn_Mariano-habla-del-tiempo.wav,./stim/wavs/chilean_match_interrogative-total-yn_Mariano-habla-del-tiempo.wav,./stim/wavs/cuban_match_interrogative-total-yn_Mariano-habla-del-tiempo.wav,./stim/wavs/mexican_match_interrogative-total-yn_Mariano-habla-del-tiempo.wav,./stim/wavs/peruvian_match_interrogative-total-yn_Mariano-habla-del-tiempo.wav,./stim/wavs/puertorican_match_interrogative-total-yn_Mariano-habla-del-tiempo.wav,,,,,,,,,,,,,,,,,,,,,,,,,,,,,,,,,,,,,,,,,,,,,,,,,,,,,,,,
,,,,,,,5f985a6faf071810974a32f8,605b45a4d25f287719a41696,605ba91688d265c9f13498fe,United States,Midwest,13 or older,no,2021-03-24_16h06.44.293,empathy_intonation_perc,2020.2.10,Linux x86_64,60,,,,,,,,,,0,andalusian,0,1,5.18176,0,43,43,0,1,1,./stim/wavs/andalusian_match_declarative-broad-focus_Ana-lleva-el-abrigo.wav,./stim/wavs/argentine_match_declarative-broad-focus_Ana-lleva-el-abrigo.wav,./stim/wavs/castilian_match_declarative-broad-focus_Ana-lleva-el-abrigo.wav,./stim/wavs/chilean_match_declarative-broad-focus_Ana-lleva-el-abrigo.wav,./stim/wavs/cuban_match_declarative-broad-focus_Ana-lleva-el-abrigo.wav,./stim/wavs/mexican_match_declarative-broad-focus_Ana-lleva-el-abrigo.wav,./stim/wavs/peruvian_match_declarative-broad-focus_Ana-lleva-el-abrigo.wav,./stim/wavs/puertorican_match_declarative-broad-focus_Ana-lleva-el-abrigo.wav,,,,,,,,,,,,,,,,,,,,,,,,,,,,,,,,,,,,,,,,,,,,,,,,,,,,,,,,
,,,,,,,5f985a6faf071810974a32f8,605b45a4d25f287719a41696,605ba91688d265c9f13498fe,United States,Midwest,13 or older,no,2021-03-24_16h06.44.293,empathy_intonation_perc,2020.2.10,Linux x86_64,60,,,,,,,,,,0,argentine,0,1,1.705815,0,44,44,38,1,39,./stim/wavs/andalusian_mismatch_declarative-broad-focus_Mi-novio-viene-del-lago.wav,./stim/wavs/argentine_mismatch_declarative-broad-focus_Mi-novio-viene-del-lago.wav,./stim/wavs/castilian_mismatch_declarative-broad-focus_Mi-novio-viene-del-lago.wav,./stim/wavs/chilean_mismatch_declarative-broad-focus_Mi-novio-viene-del-lago.wav,./stim/wavs/cuban_mismatch_declarative-broad-focus_Mi-novio-viene-del-lago.wav,./stim/wavs/mexican_mismatch_declarative-broad-focus_Mi-novio-viene-del-lago.wav,./stim/wavs/peruvian_mismatch_declarative-broad-focus_Mi-novio-viene-del-lago.wav,./stim/wavs/puertorican_mismatch_declarative-broad-focus_Mi-novio-viene-del-lago.wav,,,,,,,,,,,,,,,,,,,,,,,,,,,,,,,,,,,,,,,,,,,,,,,,,,,,,,,,
,,,,,,,5f985a6faf071810974a32f8,605b45a4d25f287719a41696,605ba91688d265c9f13498fe,United States,Midwest,13 or older,no,2021-03-24_16h06.44.293,empathy_intonation_perc,2020.2.10,Linux x86_64,60,,,,,,,,,,1,argentine,1,1,1.029505,0,45,45,22,1,23,./stim/wavs/andalusian_match_interrogative-partial-wh_Por-que-hablaba-del-agua.wav,./stim/wavs/argentine_match_interrogative-partial-wh_Por-que-hablaba-del-agua.wav,./stim/wavs/castilian_match_interrogative-partial-wh_Por-que-hablaba-del-agua.wav,./stim/wavs/chilean_match_interrogative-partial-wh_Por-que-hablaba-del-agua.wav,./stim/wavs/cuban_match_interrogative-partial-wh_Por-que-hablaba-del-agua.wav,./stim/wavs/mexican_match_interrogative-partial-wh_Por-que-hablaba-del-agua.wav,./stim/wavs/peruvian_match_interrogative-partial-wh_Por-que-hablaba-del-agua.wav,./stim/wavs/puertorican_match_interrogative-partial-wh_Por-que-hablaba-del-agua.wav,,,,,,,,,,,,,,,,,,,,,,,,,,,,,,,,,,,,,,,,,,,,,,,,,,,,,,,,
,,,,,,,5f985a6faf071810974a32f8,605b45a4d25f287719a41696,605ba91688d265c9f13498fe,United States,Midwest,13 or older,no,2021-03-24_16h06.44.293,empathy_intonation_perc,2020.2.10,Linux x86_64,60,,,,,,,,,,0,peruvian,0,1,1.4785,0,46,46,11,1,12,./stim/wavs/andalusian_match_declarative-narrow-focus_Emilio-ama-la-marcha.wav,./stim/wavs/argentine_match_declarative-narrow-focus_Emilio-ama-la-marcha.wav,./stim/wavs/castilian_match_declarative-narrow-focus_Emilio-ama-la-marcha.wav,./stim/wavs/chilean_match_declarative-narrow-focus_Emilio-ama-la-marcha.wav,./stim/wavs/cuban_match_declarative-narrow-focus_Emilio-ama-la-marcha.wav,./stim/wavs/mexican_match_declarative-narrow-focus_Emilio-ama-la-marcha.wav,./stim/wavs/peruvian_match_declarative-narrow-focus_Emilio-ama-la-marcha.wav,./stim/wavs/puertorican_match_declarative-narrow-focus_Emilio-ama-la-marcha.wav,,,,,,,,,,,,,,,,,,,,,,,,,,,,,,,,,,,,,,,,,,,,,,,,,,,,,,,,
,,,,,,,5f985a6faf071810974a32f8,605b45a4d25f287719a41696,605ba91688d265c9f13498fe,United States,Midwest,13 or older,no,2021-03-24_16h06.44.293,empathy_intonation_perc,2020.2.10,Linux x86_64,60,,,,,,,,,,1,chilean,0,0,1.80373,0,47,47,59,1,60,./stim/wavs/andalusian_mismatch_interrogative-total-yn_La-maestra-vive-en-Paris.wav,./stim/wavs/argentine_mismatch_interrogative-total-yn_La-maestra-vive-en-Paris.wav,./stim/wavs/castilian_mismatch_interrogative-total-yn_La-maestra-vive-en-Paris.wav,./stim/wavs/chilean_mismatch_interrogative-total-yn_La-maestra-vive-en-Paris.wav,./stim/wavs/cuban_mismatch_interrogative-total-yn_La-maestra-vive-en-Paris.wav,./stim/wavs/mexican_mismatch_interrogative-total-yn_La-maestra-vive-en-Paris.wav,./stim/wavs/peruvian_mismatch_interrogative-total-yn_La-maestra-vive-en-Paris.wav,./stim/wavs/puertorican_mismatch_interrogative-total-yn_La-maestra-vive-en-Paris.wav,,,,,,,,,,,,,,,,,,,,,,,,,,,,,,,,,,,,,,,,,,,,,,,,,,,,,,,,
,,,,,,,5f985a6faf071810974a32f8,605b45a4d25f287719a41696,605ba91688d265c9f13498fe,United States,Midwest,13 or older,no,2021-03-24_16h06.44.293,empathy_intonation_perc,2020.2.10,Linux x86_64,60,,,,,,,,,,0,cuban,1,0,1.75251,0,48,48,39,1,40,./stim/wavs/andalusian_mismatch_declarative-broad-focus_Mi-tia-odia-la-lluvia.wav,./stim/wavs/argentine_mismatch_declarative-broad-focus_Mi-tia-odia-la-lluvia.wav,./stim/wavs/castilian_mismatch_declarative-broad-focus_Mi-tia-odia-la-lluvia.wav,./stim/wavs/chilean_mismatch_declarative-broad-focus_Mi-tia-odia-la-lluvia.wav,./stim/wavs/cuban_mismatch_declarative-broad-focus_Mi-tia-odia-la-lluvia.wav,./stim/wavs/mexican_mismatch_declarative-broad-focus_Mi-tia-odia-la-lluvia.wav,./stim/wavs/peruvian_mismatch_declarative-broad-focus_Mi-tia-odia-la-lluvia.wav,./stim/wavs/puertorican_mismatch_declarative-broad-focus_Mi-tia-odia-la-lluvia.wav,,,,,,,,,,,,,,,,,,,,,,,,,,,,,,,,,,,,,,,,,,,,,,,,,,,,,,,,
,,,,,,,5f985a6faf071810974a32f8,605b45a4d25f287719a41696,605ba91688d265c9f13498fe,United States,Midwest,13 or older,no,2021-03-24_16h06.44.293,empathy_intonation_perc,2020.2.10,Linux x86_64,60,,,,,,,,,,0,castilian,0,1,1.68674,0,49,49,44,1,45,./stim/wavs/andalusian_mismatch_declarative-narrow-focus_La-nina-lava-el-plato.wav,./stim/wavs/argentine_mismatch_declarative-narrow-focus_La-nina-lava-el-plato.wav,./stim/wavs/castilian_mismatch_declarative-narrow-focus_La-nina-lava-el-plato.wav,./stim/wavs/chilean_mismatch_declarative-narrow-focus_La-nina-lava-el-plato.wav,./stim/wavs/cuban_mismatch_declarative-narrow-focus_La-nina-lava-el-plato.wav,./stim/wavs/mexican_mismatch_declarative-narrow-focus_La-nina-lava-el-plato.wav,./stim/wavs/peruvian_mismatch_declarative-narrow-focus_La-nina-lava-el-plato.wav,./stim/wavs/puertorican_mismatch_declarative-narrow-focus_La-nina-lava-el-plato.wav,,,,,,,,,,,,,,,,,,,,,,,,,,,,,,,,,,,,,,,,,,,,,,,,,,,,,,,,
,,,,,,,5f985a6faf071810974a32f8,605b45a4d25f287719a41696,605ba91688d265c9f13498fe,United States,Midwest,13 or older,no,2021-03-24_16h06.44.293,empathy_intonation_perc,2020.2.10,Linux x86_64,60,,,,,,,,,,1,mexican,0,0,1.387935,0,50,50,58,1,59,./stim/wavs/andalusian_mismatch_interrogative-total-yn_El-nino-oye-el-rio.wav,./stim/wavs/argentine_mismatch_interrogative-total-yn_El-nino-oye-el-rio.wav,./stim/wavs/castilian_mismatch_interrogative-total-yn_El-nino-oye-el-rio.wav,./stim/wavs/chilean_mismatch_interrogative-total-yn_El-nino-oye-el-rio.wav,./stim/wavs/cuban_mismatch_interrogative-total-yn_El-nino-oye-el-rio.wav,./stim/wavs/mexican_mismatch_interrogative-total-yn_El-nino-oye-el-rio.wav,./stim/wavs/peruvian_mismatch_interrogative-total-yn_El-nino-oye-el-rio.wav,./stim/wavs/puertorican_mismatch_interrogative-total-yn_El-nino-oye-el-rio.wav,,,,,,,,,,,,,,,,,,,,,,,,,,,,,,,,,,,,,,,,,,,,,,,,,,,,,,,,
,,,,,,,5f985a6faf071810974a32f8,605b45a4d25f287719a41696,605ba91688d265c9f13498fe,United States,Midwest,13 or older,no,2021-03-24_16h06.44.293,empathy_intonation_perc,2020.2.10,Linux x86_64,60,,,,,,,,,,0,peruvian,0,1,1.58763,0,51,51,41,1,42,./stim/wavs/andalusian_mismatch_declarative-narrow-focus_El-hombre-mira-la-luna.wav,./stim/wavs/argentine_mismatch_declarative-narrow-focus_El-hombre-mira-la-luna.wav,./stim/wavs/castilian_mismatch_declarative-narrow-focus_El-hombre-mira-la-luna.wav,./stim/wavs/chilean_mismatch_declarative-narrow-focus_El-hombre-mira-la-luna.wav,./stim/wavs/cuban_mismatch_declarative-narrow-focus_El-hombre-mira-la-luna.wav,./stim/wavs/mexican_mismatch_declarative-narrow-focus_El-hombre-mira-la-luna.wav,./stim/wavs/peruvian_mismatch_declarative-narrow-focus_El-hombre-mira-la-luna.wav,./stim/wavs/puertorican_mismatch_declarative-narrow-focus_El-hombre-mira-la-luna.wav,,,,,,,,,,,,,,,,,,,,,,,,,,,,,,,,,,,,,,,,,,,,,,,,,,,,,,,,
,,,,,,,5f985a6faf071810974a32f8,605b45a4d25f287719a41696,605ba91688d265c9f13498fe,United States,Midwest,13 or older,no,2021-03-24_16h06.44.293,empathy_intonation_perc,2020.2.10,Linux x86_64,60,,,,,,,,,,1,cuban,0,0,1.601165,0,52,52,27,1,28,./stim/wavs/andalusian_match_interrogative-total-yn_Emilio-ama-la-marcha.wav,./stim/wavs/argentine_match_interrogative-total-yn_Emilio-ama-la-marcha.wav,./stim/wavs/castilian_match_interrogative-total-yn_Emilio-ama-la-marcha.wav,./stim/wavs/chilean_match_interrogative-total-yn_Emilio-ama-la-marcha.wav,./stim/wavs/cuban_match_interrogative-total-yn_Emilio-ama-la-marcha.wav,./stim/wavs/mexican_match_interrogative-total-yn_Emilio-ama-la-marcha.wav,./stim/wavs/peruvian_match_interrogative-total-yn_Emilio-ama-la-marcha.wav,./stim/wavs/puertorican_match_interrogative-total-yn_Emilio-ama-la-marcha.wav,,,,,,,,,,,,,,,,,,,,,,,,,,,,,,,,,,,,,,,,,,,,,,,,,,,,,,,,
,,,,,,,5f985a6faf071810974a32f8,605b45a4d25f287719a41696,605ba91688d265c9f13498fe,United States,Midwest,13 or older,no,2021-03-24_16h06.44.293,empathy_intonation_perc,2020.2.10,Linux x86_64,60,,,,,,,,,,1,mexican,1,1,1.40176,0,53,53,55,1,56,./stim/wavs/andalusian_mismatch_interrogative-partial-wh_Por-que-vivia-en-Paris.wav,./stim/wavs/argentine_mismatch_interrogative-partial-wh_Por-que-vivia-en-Paris.wav,./stim/wavs/castilian_mismatch_interrogative-partial-wh_Por-que-vivia-en-Paris.wav,./stim/wavs/chilean_mismatch_interrogative-partial-wh_Por-que-vivia-en-Paris.wav,./stim/wavs/cuban_mismatch_interrogative-partial-wh_Por-que-vivia-en-Paris.wav,./stim/wavs/mexican_mismatch_interrogative-partial-wh_Por-que-vivia-en-Paris.wav,./stim/wavs/peruvian_mismatch_interrogative-partial-wh_Por-que-vivia-en-Paris.wav,./stim/wavs/puertorican_mismatch_interrogative-partial-wh_Por-que-vivia-en-Paris.wav,,,,,,,,,,,,,,,,,,,,,,,,,,,,,,,,,,,,,,,,,,,,,,,,,,,,,,,,
,,,,,,,5f985a6faf071810974a32f8,605b45a4d25f287719a41696,605ba91688d265c9f13498fe,United States,Midwest,13 or older,no,2021-03-24_16h06.44.293,empathy_intonation_perc,2020.2.10,Linux x86_64,60,,,,,,,,,,1,chilean,1,1,1.519855,0,54,54,20,1,21,./stim/wavs/andalusian_match_interrogative-partial-wh_Por-que-abre-el-regalo.wav,./stim/wavs/argentine_match_interrogative-partial-wh_Por-que-abre-el-regalo.wav,./stim/wavs/castilian_match_interrogative-partial-wh_Por-que-abre-el-regalo.wav,./stim/wavs/chilean_match_interrogative-partial-wh_Por-que-abre-el-regalo.wav,./stim/wavs/cuban_match_interrogative-partial-wh_Por-que-abre-el-regalo.wav,./stim/wavs/mexican_match_interrogative-partial-wh_Por-que-abre-el-regalo.wav,./stim/wavs/peruvian_match_interrogative-partial-wh_Por-que-abre-el-regalo.wav,./stim/wavs/puertorican_match_interrogative-partial-wh_Por-que-abre-el-regalo.wav,,,,,,,,,,,,,,,,,,,,,,,,,,,,,,,,,,,,,,,,,,,,,,,,,,,,,,,,
,,,,,,,5f985a6faf071810974a32f8,605b45a4d25f287719a41696,605ba91688d265c9f13498fe,United States,Midwest,13 or older,no,2021-03-24_16h06.44.293,empathy_intonation_perc,2020.2.10,Linux x86_64,60,,,,,,,,,,0,mexican,1,0,1.48697,0,55,55,10,1,11,./stim/wavs/andalusian_match_declarative-narrow-focus_David-leia-el-libro.wav,./stim/wavs/argentine_match_declarative-narrow-focus_David-leia-el-libro.wav,./stim/wavs/castilian_match_declarative-narrow-focus_David-leia-el-libro.wav,./stim/wavs/chilean_match_declarative-narrow-focus_David-leia-el-libro.wav,./stim/wavs/cuban_match_declarative-narrow-focus_David-leia-el-libro.wav,./stim/wavs/mexican_match_declarative-narrow-focus_David-leia-el-libro.wav,./stim/wavs/peruvian_match_declarative-narrow-focus_David-leia-el-libro.wav,./stim/wavs/puertorican_match_declarative-narrow-focus_David-leia-el-libro.wav,,,,,,,,,,,,,,,,,,,,,,,,,,,,,,,,,,,,,,,,,,,,,,,,,,,,,,,,
,,,,,,,5f985a6faf071810974a32f8,605b45a4d25f287719a41696,605ba91688d265c9f13498fe,United States,Midwest,13 or older,no,2021-03-24_16h06.44.293,empathy_intonation_perc,2020.2.10,Linux x86_64,60,,,,,,,,,,1,castilian,1,1,1.704055,0,56,56,17,1,18,./stim/wavs/andalusian_match_interrogative-partial-wh_Cuando-leia-el-libro.wav,./stim/wavs/argentine_match_interrogative-partial-wh_Cuando-leia-el-libro.wav,./stim/wavs/castilian_match_interrogative-partial-wh_Cuando-leia-el-libro.wav,./stim/wavs/chilean_match_interrogative-partial-wh_Cuando-leia-el-libro.wav,./stim/wavs/cuban_match_interrogative-partial-wh_Cuando-leia-el-libro.wav,./stim/wavs/mexican_match_interrogative-partial-wh_Cuando-leia-el-libro.wav,./stim/wavs/peruvian_match_interrogative-partial-wh_Cuando-leia-el-libro.wav,./stim/wavs/puertorican_match_interrogative-partial-wh_Cuando-leia-el-libro.wav,,,,,,,,,,,,,,,,,,,,,,,,,,,,,,,,,,,,,,,,,,,,,,,,,,,,,,,,
,,,,,,,5f985a6faf071810974a32f8,605b45a4d25f287719a41696,605ba91688d265c9f13498fe,United States,Midwest,13 or older,no,2021-03-24_16h06.44.293,empathy_intonation_perc,2020.2.10,Linux x86_64,60,,,,,,,,,,1,chilean,0,0,1.45297,0,57,57,28,1,29,./stim/wavs/andalusian_match_interrogative-total-yn_Manuela-vende-el-carro.wav,./stim/wavs/argentine_match_interrogative-total-yn_Manuela-vende-el-carro.wav,./stim/wavs/castilian_match_interrogative-total-yn_Manuela-vende-el-carro.wav,./stim/wavs/chilean_match_interrogative-total-yn_Manuela-vende-el-carro.wav,./stim/wavs/cuban_match_interrogative-total-yn_Manuela-vende-el-carro.wav,./stim/wavs/mexican_match_interrogative-total-yn_Manuela-vende-el-carro.wav,./stim/wavs/peruvian_match_interrogative-total-yn_Manuela-vende-el-carro.wav,./stim/wavs/puertorican_match_interrogative-total-yn_Manuela-vende-el-carro.wav,,,,,,,,,,,,,,,,,,,,,,,,,,,,,,,,,,,,,,,,,,,,,,,,,,,,,,,,
,,,,,,,5f985a6faf071810974a32f8,605b45a4d25f287719a41696,605ba91688d265c9f13498fe,United States,Midwest,13 or older,no,2021-03-24_16h06.44.293,empathy_intonation_perc,2020.2.10,Linux x86_64,60,,,,,,,,,,0,puertorican,0,1,1.496195,0,58,58,36,1,37,./stim/wavs/andalusian_mismatch_declarative-broad-focus_La-nina-lava-el-plato.wav,./stim/wavs/argentine_mismatch_declarative-broad-focus_La-nina-lava-el-plato.wav,./stim/wavs/castilian_mismatch_declarative-broad-focus_La-nina-lava-el-plato.wav,./stim/wavs/chilean_mismatch_declarative-broad-focus_La-nina-lava-el-plato.wav,./stim/wavs/cuban_mismatch_declarative-broad-focus_La-nina-lava-el-plato.wav,./stim/wavs/mexican_mismatch_declarative-broad-focus_La-nina-lava-el-plato.wav,./stim/wavs/peruvian_mismatch_declarative-broad-focus_La-nina-lava-el-plato.wav,./stim/wavs/puertorican_mismatch_declarative-broad-focus_La-nina-lava-el-plato.wav,,,,,,,,,,,,,,,,,,,,,,,,,,,,,,,,,,,,,,,,,,,,,,,,,,,,,,,,
,,,,,,,5f985a6faf071810974a32f8,605b45a4d25f287719a41696,605ba91688d265c9f13498fe,United States,Midwest,13 or older,no,2021-03-24_16h06.44.293,empathy_intonation_perc,2020.2.10,Linux x86_64,60,,,,,,,,,,0,mexican,0,1,1.60361,0,59,59,3,1,4,./stim/wavs/andalusian_match_declarative-broad-focus_Emilio-ama-la-marcha.wav,./stim/wavs/argentine_match_declarative-broad-focus_Emilio-ama-la-marcha.wav,./stim/wavs/castilian_match_declarative-broad-focus_Emilio-ama-la-marcha.wav,./stim/wavs/chilean_match_declarative-broad-focus_Emilio-ama-la-marcha.wav,./stim/wavs/cuban_match_declarative-broad-focus_Emilio-ama-la-marcha.wav,./stim/wavs/mexican_match_declarative-broad-focus_Emilio-ama-la-marcha.wav,./stim/wavs/peruvian_match_declarative-broad-focus_Emilio-ama-la-marcha.wav,./stim/wavs/puertorican_match_declarative-broad-focus_Emilio-ama-la-marcha.wav,,,,,,,,,,,,,,,,,,,,,,,,,,,,,,,,,,,,,,,,,,,,,,,,,,,,,,,,
,,,,,,,5f985a6faf071810974a32f8,605b45a4d25f287719a41696,605ba91688d265c9f13498fe,United States,Midwest,13 or older,no,2021-03-24_16h06.44.293,empathy_intonation_perc,2020.2.10,Linux x86_64,60,,,,,,,,,,0,mexican,0,1,2.20293,0,60,60,37,1,38,./stim/wavs/andalusian_mismatch_declarative-broad-focus_Mi-madre-come-la-fruta.wav,./stim/wavs/argentine_mismatch_declarative-broad-focus_Mi-madre-come-la-fruta.wav,./stim/wavs/castilian_mismatch_declarative-broad-focus_Mi-madre-come-la-fruta.wav,./stim/wavs/chilean_mismatch_declarative-broad-focus_Mi-madre-come-la-fruta.wav,./stim/wavs/cuban_mismatch_declarative-broad-focus_Mi-madre-come-la-fruta.wav,./stim/wavs/mexican_mismatch_declarative-broad-focus_Mi-madre-come-la-fruta.wav,./stim/wavs/peruvian_mismatch_declarative-broad-focus_Mi-madre-come-la-fruta.wav,./stim/wavs/puertorican_mismatch_declarative-broad-focus_Mi-madre-come-la-fruta.wav,,,,,,,,,,,,,,,,,,,,,,,,,,,,,,,,,,,,,,,,,,,,,,,,,,,,,,,,
,,,,,,,5f985a6faf071810974a32f8,605b45a4d25f287719a41696,605ba91688d265c9f13498fe,United States,Midwest,13 or older,no,2021-03-24_16h06.44.293,empathy_intonation_perc,2020.2.10,Linux x86_64,60,,,,,,,,,,1,cuban,1,1,1.43997,0,61,61,54,1,55,./stim/wavs/andalusian_mismatch_interrogative-partial-wh_Por-que-venia-del-lago.wav,./stim/wavs/argentine_mismatch_interrogative-partial-wh_Por-que-venia-del-lago.wav,./stim/wavs/castilian_mismatch_interrogative-partial-wh_Por-que-venia-del-lago.wav,./stim/wavs/chilean_mismatch_interrogative-partial-wh_Por-que-venia-del-lago.wav,./stim/wavs/cuban_mismatch_interrogative-partial-wh_Por-que-venia-del-lago.wav,./stim/wavs/mexican_mismatch_interrogative-partial-wh_Por-que-venia-del-lago.wav,./stim/wavs/peruvian_mismatch_interrogative-partial-wh_Por-que-venia-del-lago.wav,./stim/wavs/puertorican_mismatch_interrogative-partial-wh_Por-que-venia-del-lago.wav,,,,,,,,,,,,,,,,,,,,,,,,,,,,,,,,,,,,,,,,,,,,,,,,,,,,,,,,
,,,,,,,5f985a6faf071810974a32f8,605b45a4d25f287719a41696,605ba91688d265c9f13498fe,United States,Midwest,13 or older,no,2021-03-24_16h06.44.293,empathy_intonation_perc,2020.2.10,Linux x86_64,60,,,,,,,,,,1,chilean,1,1,1.254895,0,62,62,53,1,54,./stim/wavs/andalusian_mismatch_interrogative-partial-wh_Por-que-oia-el-rio.wav,./stim/wavs/argentine_mismatch_interrogative-partial-wh_Por-que-oia-el-rio.wav,./stim/wavs/castilian_mismatch_interrogative-partial-wh_Por-que-oia-el-rio.wav,./stim/wavs/chilean_mismatch_interrogative-partial-wh_Por-que-oia-el-rio.wav,./stim/wavs/cuban_mismatch_interrogative-partial-wh_Por-que-oia-el-rio.wav,./stim/wavs/mexican_mismatch_interrogative-partial-wh_Por-que-oia-el-rio.wav,./stim/wavs/peruvian_mismatch_interrogative-partial-wh_Por-que-oia-el-rio.wav,./stim/wavs/puertorican_mismatch_interrogative-partial-wh_Por-que-oia-el-rio.wav,,,,,,,,,,,,,,,,,,,,,,,,,,,,,,,,,,,,,,,,,,,,,,,,,,,,,,,,
,,,,,,,5f985a6faf071810974a32f8,605b45a4d25f287719a41696,605ba91688d265c9f13498fe,United States,Midwest,13 or older,no,2021-03-24_16h06.44.293,empathy_intonation_perc,2020.2.10,Linux x86_64,60,,,,,,,,,,0,mexican,0,1,1.764335,0,63,63,46,1,47,./stim/wavs/andalusian_mismatch_declarative-narrow-focus_Mi-novio-viene-del-lago.wav,./stim/wavs/argentine_mismatch_declarative-narrow-focus_Mi-novio-viene-del-lago.wav,./stim/wavs/castilian_mismatch_declarative-narrow-focus_Mi-novio-viene-del-lago.wav,./stim/wavs/chilean_mismatch_declarative-narrow-focus_Mi-novio-viene-del-lago.wav,./stim/wavs/cuban_mismatch_declarative-narrow-focus_Mi-novio-viene-del-lago.wav,./stim/wavs/mexican_mismatch_declarative-narrow-focus_Mi-novio-viene-del-lago.wav,./stim/wavs/peruvian_mismatch_declarative-narrow-focus_Mi-novio-viene-del-lago.wav,./stim/wavs/puertorican_mismatch_declarative-narrow-focus_Mi-novio-viene-del-lago.wav,,,,,,,,,,,,,,,,,,,,,,,,,,,,,,,,,,,,,,,,,,,,,,,,,,,,,,,,
,,,,,,,5f985a6faf071810974a32f8,605b45a4d25f287719a41696,605ba91688d265c9f13498fe,United States,Midwest,13 or older,no,2021-03-24_16h06.44.293,empathy_intonation_perc,2020.2.10,Linux x86_64,60,,,,,,,,,,,,,,,,,,,,,,,,,,,,,h,1,10.104855,0,0,0,0,1,,,,,,,,,,,,,,,,,,,,,,,,,,,,,,,,,,,,,,,,,,,,,,,,
,,,,,"Great! Now we will move on. The next task consists of about 60 trials, in each of which you will see a string of letters. 
  
  Your task is to decide whether this is a real Spanish word or not.",(press the spacebar to continue),5f985a6faf071810974a32f8,605b45a4d25f287719a41696,605ba91688d265c9f13498fe,United States,Midwest,13 or older,no,2021-03-24_16h06.44.293,empathy_intonation_perc,2020.2.10,Linux x86_64,60,,,,,,,,,,,,,,,,,,,,,,,,,,,,,,,,,,,,,0,0,0,0,1,,,,,,,,,,,,,,,,,,,,,,,,,,,,,,,,,,,,,,,,,,,
,,,,,"If you think it is an existing Spanish word, you type '1' (for 'REAL'), and if you think it is not an existing Spanish word, you type '0' (for 'FAKE').",(press the spacebar to continue),5f985a6faf071810974a32f8,605b45a4d25f287719a41696,605ba91688d265c9f13498fe,United States,Midwest,13 or older,no,2021-03-24_16h06.44.293,empathy_intonation_perc,2020.2.10,Linux x86_64,60,,,,,,,,,,,,,,,,,,,,,,,,,,,,,,,,,,,,,0,1,1,1,1,,,,,,,,,,,,,,,,,,,,,,,,,,,,,,,,,,,,,,,,,,,
,,,,,"If you are sure that the word exists, even though you dont know its exact meaning, you may still respond '1' (REAL). 
  
  But if you are not sure if it is an existing word, you should respond '0' (FAKE).
  
  Let's do a practice round...",(press the spacebar to continue),5f985a6faf071810974a32f8,605b45a4d25f287719a41696,605ba91688d265c9f13498fe,United States,Midwest,13 or older,no,2021-03-24_16h06.44.293,empathy_intonation_perc,2020.2.10,Linux x86_64,60,,,,,,,,,,,,,,,,,,,,,,,,,,,,,,,,,,,,,0,2,2,2,1,,,,,,,,,,,,,,,,,,,,,,,,,,,,,,,,,,,,,,,,,,,
,,,,,,,5f985a6faf071810974a32f8,605b45a4d25f287719a41696,605ba91688d265c9f13498fe,United States,Midwest,13 or older,no,2021-03-24_16h06.44.293,empathy_intonation_perc,2020.2.10,Linux x86_64,60,,,,,,,,,,0,,,,,,,,,,,,,,,,,,,,,,,,,,,,,,,,1,0,1.79472,0,0,0,0,1,0,depiste,REAL,FAKE,,,,,,,,,,,,,,,,,,,,,,,,,,,,,,,
,,,,,,,5f985a6faf071810974a32f8,605b45a4d25f287719a41696,605ba91688d265c9f13498fe,United States,Midwest,13 or older,no,2021-03-24_16h06.44.293,empathy_intonation_perc,2020.2.10,Linux x86_64,60,,,,,,,,,,1,,,,,,,,,,,,,,,,,,,,,,,,,,,,,,,,1,1,0.898485,0,1,1,1,1,0,s,REAL,FAKE,,,,,,,,,,,,,,,,,,,,,,,,,,,,,,,
,,,,,,,5f985a6faf071810974a32f8,605b45a4d25f287719a41696,605ba91688d265c9f13498fe,United States,Midwest,13 or older,no,2021-03-24_16h06.44.293,empathy_intonation_perc,2020.2.10,Linux x86_64,60,,,,,,,,,,0,,,,,,,,,,,,,,,,,,,,,,,,,,,,,,,,0,1,1.27133,0,2,2,2,1,0,con,REAL,FAKE,,,,,,,,,,,,,,,,,,,,,,,,,,,,,,,
,,,,,,,5f985a6faf071810974a32f8,605b45a4d25f287719a41696,605ba91688d265c9f13498fe,United States,Midwest,13 or older,no,2021-03-24_16h06.44.293,empathy_intonation_perc,2020.2.10,Linux x86_64,60,,,,,,,,,,0,,,,,,,,,,,,,,,,,,,,,,,,,,,,,,,,0,1,0.89776,0,3,3,3,1,0,calpar,REAL,FAKE,,,,,,,,,,,,,,,,,,,,,,,,,,,,,,,
,,,,,,,5f985a6faf071810974a32f8,605b45a4d25f287719a41696,605ba91688d265c9f13498fe,United States,Midwest,13 or older,no,2021-03-24_16h06.44.293,empathy_intonation_perc,2020.2.10,Linux x86_64,60,,,,,,,,,,0,,,,,,,,,,,,,,,,,,,,,,,,,,,,,,,,0,1,0.849935,0,4,4,4,1,0,joten,REAL,FAKE,,,,,,,,,,,,,,,,,,,,,,,,,,,,,,,
,,,,,,,5f985a6faf071810974a32f8,605b45a4d25f287719a41696,605ba91688d265c9f13498fe,United States,Midwest,13 or older,no,2021-03-24_16h06.44.293,empathy_intonation_perc,2020.2.10,Linux x86_64,60,,,,,,,,,,1,,,,,,,,,,,,,,,,,,,,,,,,,,,,,,,,1,1,0.83138,0,5,5,5,1,0,sacapuntas,REAL,FAKE,,,,,,,,,,,,,,,,,,,,,,,,,,,,,,,
,,,,,,,5f985a6faf071810974a32f8,605b45a4d25f287719a41696,605ba91688d265c9f13498fe,United States,Midwest,13 or older,no,2021-03-24_16h06.44.293,empathy_intonation_perc,2020.2.10,Linux x86_64,60,,,,,,,,,,0,,,,,,,,,,,,,,,,,,,,,,,,,,,,,,,,1,0,0.58803,0,6,6,6,1,0,priba,REAL,FAKE,,,,,,,,,,,,,,,,,,,,,,,,,,,,,,,
,,,,,,,5f985a6faf071810974a32f8,605b45a4d25f287719a41696,605ba91688d265c9f13498fe,United States,Midwest,13 or older,no,2021-03-24_16h06.44.293,empathy_intonation_perc,2020.2.10,Linux x86_64,60,,,,,,,,,,0,,,,,,,,,,,,,,,,,,,,,,,,,,,,,,,,1,0,0.665005,0,7,7,7,1,0,pelasula,REAL,FAKE,,,,,,,,,,,,,,,,,,,,,,,,,,,,,,,
,,,,,,,5f985a6faf071810974a32f8,605b45a4d25f287719a41696,605ba91688d265c9f13498fe,United States,Midwest,13 or older,no,2021-03-24_16h06.44.293,empathy_intonation_perc,2020.2.10,Linux x86_64,60,,,,,,,,,,1,,,,,,,,,,,,,,,,,,,,,,,,,,,,,,,,1,1,0.58506,0,8,8,8,1,0,bien,REAL,FAKE,,,,,,,,,,,,,,,,,,,,,,,,,,,,,,,
,,,,,,,5f985a6faf071810974a32f8,605b45a4d25f287719a41696,605ba91688d265c9f13498fe,United States,Midwest,13 or older,no,2021-03-24_16h06.44.293,empathy_intonation_perc,2020.2.10,Linux x86_64,60,,,,,,,,,,1,,,,,,,,,,,,,,,,,,,,,,,,,,,,,,,,1,1,1.607155,0,9,9,9,1,0,casa,REAL,FAKE,,,,,,,,,,,,,,,,,,,,,,,,,,,,,,,
,,,,,,,5f985a6faf071810974a32f8,605b45a4d25f287719a41696,605ba91688d265c9f13498fe,United States,Midwest,13 or older,no,2021-03-24_16h06.44.293,empathy_intonation_perc,2020.2.10,Linux x86_64,60,,,,,,,,,,0,,,,,,,,,,,,,,,,,,,,,,,,,,,,,,,,1,0,0.63301,0,10,10,10,1,0,lejo,REAL,FAKE,,,,,,,,,,,,,,,,,,,,,,,,,,,,,,,
,,,,,,,5f985a6faf071810974a32f8,605b45a4d25f287719a41696,605ba91688d265c9f13498fe,United States,Midwest,13 or older,no,2021-03-24_16h06.44.293,empathy_intonation_perc,2020.2.10,Linux x86_64,60,,,,,,,,,,0,,,,,,,,,,,,,,,,,,,,,,,,,,,,,,,,0,1,0.618335,0,11,11,11,1,0,pretantas,REAL,FAKE,,,,,,,,,,,,,,,,,,,,,,,,,,,,,,,
,,,,,,,5f985a6faf071810974a32f8,605b45a4d25f287719a41696,605ba91688d265c9f13498fe,United States,Midwest,13 or older,no,2021-03-24_16h06.44.293,empathy_intonation_perc,2020.2.10,Linux x86_64,60,,,,,,,,,,1,,,,,,,,,,,,,,,,,,,,,,,,,,,,,,,,,,,,,,,,45,jilguero,,,0,0,1.231265,0,0,0,44,1,REAL,FAKE,,,,,,,,,,,,,,,,,,,,,
,,,,,,,5f985a6faf071810974a32f8,605b45a4d25f287719a41696,605ba91688d265c9f13498fe,United States,Midwest,13 or older,no,2021-03-24_16h06.44.293,empathy_intonation_perc,2020.2.10,Linux x86_64,60,,,,,,,,,,1,,,,,,,,,,,,,,,,,,,,,,,,,,,,,,,,,,,,,,,,31,pandilla,,,1,1,0.748745,0,1,1,30,1,REAL,FAKE,,,,,,,,,,,,,,,,,,,,,
,,,,,,,5f985a6faf071810974a32f8,605b45a4d25f287719a41696,605ba91688d265c9f13498fe,United States,Midwest,13 or older,no,2021-03-24_16h06.44.293,empathy_intonation_perc,2020.2.10,Linux x86_64,60,,,,,,,,,,0,,,,,,,,,,,,,,,,,,,,,,,,,,,,,,,,,,,,,,,,10,antar,,,0,1,0.784205,0,2,2,9,1,REAL,FAKE,,,,,,,,,,,,,,,,,,,,,
,,,,,,,5f985a6faf071810974a32f8,605b45a4d25f287719a41696,605ba91688d265c9f13498fe,United States,Midwest,13 or older,no,2021-03-24_16h06.44.293,empathy_intonation_perc,2020.2.10,Linux x86_64,60,,,,,,,,,,1,,,,,,,,,,,,,,,,,,,,,,,,,,,,,,,,,,,,,,,,76,atar,,,1,1,0.87522,0,3,3,75,1,REAL,FAKE,,,,,,,,,,,,,,,,,,,,,
,,,,,,,5f985a6faf071810974a32f8,605b45a4d25f287719a41696,605ba91688d265c9f13498fe,United States,Midwest,13 or older,no,2021-03-24_16h06.44.293,empathy_intonation_perc,2020.2.10,Linux x86_64,60,,,,,,,,,,1,,,,,,,,,,,,,,,,,,,,,,,,,,,,,,,,,,,,,,,,73,hervidor,,,0,0,0.85053,0,4,4,72,1,REAL,FAKE,,,,,,,,,,,,,,,,,,,,,
,,,,,,,5f985a6faf071810974a32f8,605b45a4d25f287719a41696,605ba91688d265c9f13498fe,United States,Midwest,13 or older,no,2021-03-24_16h06.44.293,empathy_intonation_perc,2020.2.10,Linux x86_64,60,,,,,,,,,,0,,,,,,,,,,,,,,,,,,,,,,,,,,,,,,,,,,,,,,,,23,lampera,,,1,0,0.948535,0,5,5,22,1,REAL,FAKE,,,,,,,,,,,,,,,,,,,,,
,,,,,,,5f985a6faf071810974a32f8,605b45a4d25f287719a41696,605ba91688d265c9f13498fe,United States,Midwest,13 or older,no,2021-03-24_16h06.44.293,empathy_intonation_perc,2020.2.10,Linux x86_64,60,,,,,,,,,,1,,,,,,,,,,,,,,,,,,,,,,,,,,,,,,,,,,,,,,,,3,pulmones,,,1,1,0.96458,0,6,6,2,1,REAL,FAKE,,,,,,,,,,,,,,,,,,,,,
,,,,,,,5f985a6faf071810974a32f8,605b45a4d25f287719a41696,605ba91688d265c9f13498fe,United States,Midwest,13 or older,no,2021-03-24_16h06.44.293,empathy_intonation_perc,2020.2.10,Linux x86_64,60,,,,,,,,,,0,,,,,,,,,,,,,,,,,,,,,,,,,,,,,,,,,,,,,,,,53,vegada,,,1,0,0.856065,0,7,7,52,1,REAL,FAKE,,,,,,,,,,,,,,,,,,,,,
,,,,,,,5f985a6faf071810974a32f8,605b45a4d25f287719a41696,605ba91688d265c9f13498fe,United States,Midwest,13 or older,no,2021-03-24_16h06.44.293,empathy_intonation_perc,2020.2.10,Linux x86_64,60,,,,,,,,,,1,,,,,,,,,,,,,,,,,,,,,,,,,,,,,,,,,,,,,,,,52,camisa,,,1,1,0.801275,0,8,8,51,1,REAL,FAKE,,,,,,,,,,,,,,,,,,,,,
,,,,,,,5f985a6faf071810974a32f8,605b45a4d25f287719a41696,605ba91688d265c9f13498fe,United States,Midwest,13 or older,no,2021-03-24_16h06.44.293,empathy_intonation_perc,2020.2.10,Linux x86_64,60,,,,,,,,,,0,,,,,,,,,,,,,,,,,,,,,,,,,,,,,,,,,,,,,,,,84,escuto,,,0,1,1.31712,0,9,9,83,1,REAL,FAKE,,,,,,,,,,,,,,,,,,,,,
,,,,,,,5f985a6faf071810974a32f8,605b45a4d25f287719a41696,605ba91688d265c9f13498fe,United States,Midwest,13 or older,no,2021-03-24_16h06.44.293,empathy_intonation_perc,2020.2.10,Linux x86_64,60,,,,,,,,,,1,,,,,,,,,,,,,,,,,,,,,,,,,,,,,,,,,,,,,,,,41,rebuscar,,,0,0,0.95829,0,10,10,40,1,REAL,FAKE,,,,,,,,,,,,,,,,,,,,,
,,,,,,,5f985a6faf071810974a32f8,605b45a4d25f287719a41696,605ba91688d265c9f13498fe,United States,Midwest,13 or older,no,2021-03-24_16h06.44.293,empathy_intonation_perc,2020.2.10,Linux x86_64,60,,,,,,,,,,0,,,,,,,,,,,,,,,,,,,,,,,,,,,,,,,,,,,,,,,,21,capillo,,,0,1,1.14761,0,11,11,20,1,REAL,FAKE,,,,,,,,,,,,,,,,,,,,,
,,,,,,,5f985a6faf071810974a32f8,605b45a4d25f287719a41696,605ba91688d265c9f13498fe,United States,Midwest,13 or older,no,2021-03-24_16h06.44.293,empathy_intonation_perc,2020.2.10,Linux x86_64,60,,,,,,,,,,0,,,,,,,,,,,,,,,,,,,,,,,,,,,,,,,,,,,,,,,,1,terzo,,,1,0,0.673385,0,12,12,0,1,REAL,FAKE,,,,,,,,,,,,,,,,,,,,,
,,,,,,,5f985a6faf071810974a32f8,605b45a4d25f287719a41696,605ba91688d265c9f13498fe,United States,Midwest,13 or older,no,2021-03-24_16h06.44.293,empathy_intonation_perc,2020.2.10,Linux x86_64,60,,,,,,,,,,1,,,,,,,,,,,,,,,,,,,,,,,,,,,,,,,,,,,,,,,,61,seda,,,0,0,0.928095,0,13,13,60,1,REAL,FAKE,,,,,,,,,,,,,,,,,,,,,
,,,,,,,5f985a6faf071810974a32f8,605b45a4d25f287719a41696,605ba91688d265c9f13498fe,United States,Midwest,13 or older,no,2021-03-24_16h06.44.293,empathy_intonation_perc,2020.2.10,Linux x86_64,60,,,,,,,,,,1,,,,,,,,,,,,,,,,,,,,,,,,,,,,,,,,,,,,,,,,25,bisagra,,,1,1,0.88813,0,14,14,24,1,REAL,FAKE,,,,,,,,,,,,,,,,,,,,,
,,,,,,,5f985a6faf071810974a32f8,605b45a4d25f287719a41696,605ba91688d265c9f13498fe,United States,Midwest,13 or older,no,2021-03-24_16h06.44.293,empathy_intonation_perc,2020.2.10,Linux x86_64,60,,,,,,,,,,1,,,,,,,,,,,,,,,,,,,,,,,,,,,,,,,,,,,,,,,,37,granuja,,,1,1,0.885045,0,15,15,36,1,REAL,FAKE,,,,,,,,,,,,,,,,,,,,,
,,,,,,,5f985a6faf071810974a32f8,605b45a4d25f287719a41696,605ba91688d265c9f13498fe,United States,Midwest,13 or older,no,2021-03-24_16h06.44.293,empathy_intonation_perc,2020.2.10,Linux x86_64,60,,,,,,,,,,1,,,,,,,,,,,,,,,,,,,,,,,,,,,,,,,,,,,,,,,,26,secuestro,,,0,0,1.148025,0,16,16,25,1,REAL,FAKE,,,,,,,,,,,,,,,,,,,,,
,,,,,,,5f985a6faf071810974a32f8,605b45a4d25f287719a41696,605ba91688d265c9f13498fe,United States,Midwest,13 or older,no,2021-03-24_16h06.44.293,empathy_intonation_perc,2020.2.10,Linux x86_64,60,,,,,,,,,,0,,,,,,,,,,,,,,,,,,,,,,,,,,,,,,,,,,,,,,,,82,empirador,,,1,0,1.037335,0,17,17,81,1,REAL,FAKE,,,,,,,,,,,,,,,,,,,,,
,,,,,,,5f985a6faf071810974a32f8,605b45a4d25f287719a41696,605ba91688d265c9f13498fe,United States,Midwest,13 or older,no,2021-03-24_16h06.44.293,empathy_intonation_perc,2020.2.10,Linux x86_64,60,,,,,,,,,,1,,,,,,,,,,,,,,,,,,,,,,,,,,,,,,,,,,,,,,,,85,lad,,,1,1,0.63177,0,18,18,84,1,REAL,FAKE,,,,,,,,,,,,,,,,,,,,,
,,,,,,,5f985a6faf071810974a32f8,605b45a4d25f287719a41696,605ba91688d265c9f13498fe,United States,Midwest,13 or older,no,2021-03-24_16h06.44.293,empathy_intonation_perc,2020.2.10,Linux x86_64,60,,,,,,,,,,1,,,,,,,,,,,,,,,,,,,,,,,,,,,,,,,,,,,,,,,,67,cabello,,,1,1,0.836405,0,19,19,66,1,REAL,FAKE,,,,,,,,,,,,,,,,,,,,,
,,,,,,,5f985a6faf071810974a32f8,605b45a4d25f287719a41696,605ba91688d265c9f13498fe,United States,Midwest,13 or older,no,2021-03-24_16h06.44.293,empathy_intonation_perc,2020.2.10,Linux x86_64,60,,,,,,,,,,1,,,,,,,,,,,,,,,,,,,,,,,,,,,,,,,,,,,,,,,,40,alfombra,,,0,0,0.817425,0,20,20,39,1,REAL,FAKE,,,,,,,,,,,,,,,,,,,,,
,,,,,,,5f985a6faf071810974a32f8,605b45a4d25f287719a41696,605ba91688d265c9f13498fe,United States,Midwest,13 or older,no,2021-03-24_16h06.44.293,empathy_intonation_perc,2020.2.10,Linux x86_64,60,,,,,,,,,,0,,,,,,,,,,,,,,,,,,,,,,,,,,,,,,,,,,,,,,,,50,flamida,,,0,1,0.94685,0,21,21,49,1,REAL,FAKE,,,,,,,,,,,,,,,,,,,,,
,,,,,,,5f985a6faf071810974a32f8,605b45a4d25f287719a41696,605ba91688d265c9f13498fe,United States,Midwest,13 or older,no,2021-03-24_16h06.44.293,empathy_intonation_perc,2020.2.10,Linux x86_64,60,,,,,,,,,,1,,,,,,,,,,,,,,,,,,,,,,,,,,,,,,,,,,,,,,,,57,tacao,,,1,1,0.780605,0,22,22,56,1,REAL,FAKE,,,,,,,,,,,,,,,,,,,,,
,,,,,,,5f985a6faf071810974a32f8,605b45a4d25f287719a41696,605ba91688d265c9f13498fe,United States,Midwest,13 or older,no,2021-03-24_16h06.44.293,empathy_intonation_perc,2020.2.10,Linux x86_64,60,,,,,,,,,,0,,,,,,,,,,,,,,,,,,,,,,,,,,,,,,,,,,,,,,,,72,pemicin,,,1,0,1.166095,0,23,23,71,1,REAL,FAKE,,,,,,,,,,,,,,,,,,,,,
,,,,,,,5f985a6faf071810974a32f8,605b45a4d25f287719a41696,605ba91688d265c9f13498fe,United States,Midwest,13 or older,no,2021-03-24_16h06.44.293,empathy_intonation_perc,2020.2.10,Linux x86_64,60,,,,,,,,,,1,,,,,,,,,,,,,,,,,,,,,,,,,,,,,,,,,,,,,,,,6,tergiversar,,,0,0,1.58174,0,24,24,5,1,REAL,FAKE,,,,,,,,,,,,,,,,,,,,,
,,,,,,,5f985a6faf071810974a32f8,605b45a4d25f287719a41696,605ba91688d265c9f13498fe,United States,Midwest,13 or older,no,2021-03-24_16h06.44.293,empathy_intonation_perc,2020.2.10,Linux x86_64,60,,,,,,,,,,0,,,,,,,,,,,,,,,,,,,,,,,,,,,,,,,,,,,,,,,,87,grodo,,,0,1,0.999415,0,25,25,86,1,REAL,FAKE,,,,,,,,,,,,,,,,,,,,,
,,,,,,,5f985a6faf071810974a32f8,605b45a4d25f287719a41696,605ba91688d265c9f13498fe,United States,Midwest,13 or older,no,2021-03-24_16h06.44.293,empathy_intonation_perc,2020.2.10,Linux x86_64,60,,,,,,,,,,1,,,,,,,,,,,,,,,,,,,,,,,,,,,,,,,,,,,,,,,,51,candado,,,1,1,1.306275,0,26,26,50,1,REAL,FAKE,,,,,,,,,,,,,,,,,,,,,
,,,,,,,5f985a6faf071810974a32f8,605b45a4d25f287719a41696,605ba91688d265c9f13498fe,United States,Midwest,13 or older,no,2021-03-24_16h06.44.293,empathy_intonation_perc,2020.2.10,Linux x86_64,60,,,,,,,,,,1,,,,,,,,,,,,,,,,,,,,,,,,,,,,,,,,,,,,,,,,7,psimo,,,1,1,1.10105,0,27,27,6,1,REAL,FAKE,,,,,,,,,,,,,,,,,,,,,
,,,,,,,5f985a6faf071810974a32f8,605b45a4d25f287719a41696,605ba91688d265c9f13498fe,United States,Midwest,13 or older,no,2021-03-24_16h06.44.293,empathy_intonation_perc,2020.2.10,Linux x86_64,60,,,,,,,,,,1,,,,,,,,,,,,,,,,,,,,,,,,,,,,,,,,,,,,,,,,86,barato,,,0,0,1.680805,0,28,28,85,1,REAL,FAKE,,,,,,,,,,,,,,,,,,,,,
,,,,,,,5f985a6faf071810974a32f8,605b45a4d25f287719a41696,605ba91688d265c9f13498fe,United States,Midwest,13 or older,no,2021-03-24_16h06.44.293,empathy_intonation_perc,2020.2.10,Linux x86_64,60,,,,,,,,,,0,,,,,,,,,,,,,,,,,,,,,,,,,,,,,,,,,,,,,,,,4,batilln,,,1,0,1.10121,0,29,29,3,1,REAL,FAKE,,,,,,,,,,,,,,,,,,,,,
,,,,,,,5f985a6faf071810974a32f8,605b45a4d25f287719a41696,605ba91688d265c9f13498fe,United States,Midwest,13 or older,no,2021-03-24_16h06.44.293,empathy_intonation_perc,2020.2.10,Linux x86_64,60,,,,,,,,,,1,,,,,,,,,,,,,,,,,,,,,,,,,,,,,,,,,,,,,,,,83,guante,,,0,0,7.20411,0,30,30,82,1,REAL,FAKE,,,,,,,,,,,,,,,,,,,,,
,,,,,,,5f985a6faf071810974a32f8,605b45a4d25f287719a41696,605ba91688d265c9f13498fe,United States,Midwest,13 or older,no,2021-03-24_16h06.44.293,empathy_intonation_perc,2020.2.10,Linux x86_64,60,,,,,,,,,,1,,,,,,,,,,,,,,,,,,,,,,,,,,,,,,,,,,,,,,,,64,orgulloso,,,0,0,0.715335,0,31,31,63,1,REAL,FAKE,,,,,,,,,,,,,,,,,,,,,
,,,,,,,5f985a6faf071810974a32f8,605b45a4d25f287719a41696,605ba91688d265c9f13498fe,United States,Midwest,13 or older,no,2021-03-24_16h06.44.293,empathy_intonation_perc,2020.2.10,Linux x86_64,60,,,,,,,,,,1,,,,,,,,,,,,,,,,,,,,,,,,,,,,,,,,,,,,,,,,28,merodear,,,0,0,1.266435,0,32,32,27,1,REAL,FAKE,,,,,,,,,,,,,,,,,,,,,
,,,,,,,5f985a6faf071810974a32f8,605b45a4d25f287719a41696,605ba91688d265c9f13498fe,United States,Midwest,13 or older,no,2021-03-24_16h06.44.293,empathy_intonation_perc,2020.2.10,Linux x86_64,60,,,,,,,,,,0,,,,,,,,,,,,,,,,,,,,,,,,,,,,,,,,,,,,,,,,58,plaudir,,,1,0,0.580285,0,33,33,57,1,REAL,FAKE,,,,,,,,,,,,,,,,,,,,,
,,,,,,,5f985a6faf071810974a32f8,605b45a4d25f287719a41696,605ba91688d265c9f13498fe,United States,Midwest,13 or older,no,2021-03-24_16h06.44.293,empathy_intonation_perc,2020.2.10,Linux x86_64,60,,,,,,,,,,1,,,,,,,,,,,,,,,,,,,,,,,,,,,,,,,,,,,,,,,,11,cenefa,,,1,1,0.73211,0,34,34,10,1,REAL,FAKE,,,,,,,,,,,,,,,,,,,,,
,,,,,,,5f985a6faf071810974a32f8,605b45a4d25f287719a41696,605ba91688d265c9f13498fe,United States,Midwest,13 or older,no,2021-03-24_16h06.44.293,empathy_intonation_perc,2020.2.10,Linux x86_64,60,,,,,,,,,,1,,,,,,,,,,,,,,,,,,,,,,,,,,,,,,,,,,,,,,,,65,bizcocho,,,0,0,0.98043,0,35,35,64,1,REAL,FAKE,,,,,,,,,,,,,,,,,,,,,
,,,,,,,5f985a6faf071810974a32f8,605b45a4d25f287719a41696,605ba91688d265c9f13498fe,United States,Midwest,13 or older,no,2021-03-24_16h06.44.293,empathy_intonation_perc,2020.2.10,Linux x86_64,60,,,,,,,,,,1,,,,,,,,,,,,,,,,,,,,,,,,,,,,,,,,,,,,,,,,78,frondoso,,,0,0,0.61483,0,36,36,77,1,REAL,FAKE,,,,,,,,,,,,,,,,,,,,,
,,,,,,,5f985a6faf071810974a32f8,605b45a4d25f287719a41696,605ba91688d265c9f13498fe,United States,Midwest,13 or older,no,2021-03-24_16h06.44.293,empathy_intonation_perc,2020.2.10,Linux x86_64,60,,,,,,,,,,0,,,,,,,,,,,,,,,,,,,,,,,,,,,,,,,,,,,,,,,,47,cartinar,,,1,0,0.596015,0,37,37,46,1,REAL,FAKE,,,,,,,,,,,,,,,,,,,,,
,,,,,,,5f985a6faf071810974a32f8,605b45a4d25f287719a41696,605ba91688d265c9f13498fe,United States,Midwest,13 or older,no,2021-03-24_16h06.44.293,empathy_intonation_perc,2020.2.10,Linux x86_64,60,,,,,,,,,,0,,,,,,,,,,,,,,,,,,,,,,,,,,,,,,,,,,,,,,,,32,fatacidad,,,0,1,1.073825,0,38,38,31,1,REAL,FAKE,,,,,,,,,,,,,,,,,,,,,
,,,,,,,5f985a6faf071810974a32f8,605b45a4d25f287719a41696,605ba91688d265c9f13498fe,United States,Midwest,13 or older,no,2021-03-24_16h06.44.293,empathy_intonation_perc,2020.2.10,Linux x86_64,60,,,,,,,,,,1,,,,,,,,,,,,,,,,,,,,,,,,,,,,,,,,,,,,,,,,56,musgo,,,0,0,0.765815,0,39,39,55,1,REAL,FAKE,,,,,,,,,,,,,,,,,,,,,
,,,,,,,5f985a6faf071810974a32f8,605b45a4d25f287719a41696,605ba91688d265c9f13498fe,United States,Midwest,13 or older,no,2021-03-24_16h06.44.293,empathy_intonation_perc,2020.2.10,Linux x86_64,60,,,,,,,,,,0,,,,,,,,,,,,,,,,,,,,,,,,,,,,,,,,,,,,,,,,27,acutacin,,,1,0,0.632005,0,40,40,26,1,REAL,FAKE,,,,,,,,,,,,,,,,,,,,,
,,,,,,,5f985a6faf071810974a32f8,605b45a4d25f287719a41696,605ba91688d265c9f13498fe,United States,Midwest,13 or older,no,2021-03-24_16h06.44.293,empathy_intonation_perc,2020.2.10,Linux x86_64,60,,,,,,,,,,1,,,,,,,,,,,,,,,,,,,,,,,,,,,,,,,,,,,,,,,,39,torpe,,,1,1,0.79106,0,41,41,38,1,REAL,FAKE,,,,,,,,,,,,,,,,,,,,,
,,,,,,,5f985a6faf071810974a32f8,605b45a4d25f287719a41696,605ba91688d265c9f13498fe,United States,Midwest,13 or older,no,2021-03-24_16h06.44.293,empathy_intonation_perc,2020.2.10,Linux x86_64,60,,,,,,,,,,1,,,,,,,,,,,,,,,,,,,,,,,,,,,,,,,,,,,,,,,,90,clavel,,,0,0,0.731155,0,42,42,89,1,REAL,FAKE,,,,,,,,,,,,,,,,,,,,,
,,,,,,,5f985a6faf071810974a32f8,605b45a4d25f287719a41696,605ba91688d265c9f13498fe,United States,Midwest,13 or older,no,2021-03-24_16h06.44.293,empathy_intonation_perc,2020.2.10,Linux x86_64,60,,,,,,,,,,0,,,,,,,,,,,,,,,,,,,,,,,,,,,,,,,,,,,,,,,,30,alardio,,,0,1,0.719905,0,43,43,29,1,REAL,FAKE,,,,,,,,,,,,,,,,,,,,,
,,,,,,,5f985a6faf071810974a32f8,605b45a4d25f287719a41696,605ba91688d265c9f13498fe,United States,Midwest,13 or older,no,2021-03-24_16h06.44.293,empathy_intonation_perc,2020.2.10,Linux x86_64,60,,,,,,,,,,0,,,,,,,,,,,,,,,,,,,,,,,,,,,,,,,,,,,,,,,,33,pauca,,,1,0,0.784025,0,44,44,32,1,REAL,FAKE,,,,,,,,,,,,,,,,,,,,,
,,,,,,,5f985a6faf071810974a32f8,605b45a4d25f287719a41696,605ba91688d265c9f13498fe,United States,Midwest,13 or older,no,2021-03-24_16h06.44.293,empathy_intonation_perc,2020.2.10,Linux x86_64,60,,,,,,,,,,1,,,,,,,,,,,,,,,,,,,,,,,,,,,,,,,,,,,,,,,,44,cuchara,,,1,1,0.78224,0,45,45,43,1,REAL,FAKE,,,,,,,,,,,,,,,,,,,,,
,,,,,,,5f985a6faf071810974a32f8,605b45a4d25f287719a41696,605ba91688d265c9f13498fe,United States,Midwest,13 or older,no,2021-03-24_16h06.44.293,empathy_intonation_perc,2020.2.10,Linux x86_64,60,,,,,,,,,,0,,,,,,,,,,,,,,,,,,,,,,,,,,,,,,,,,,,,,,,,18,arsa,,,0,1,0.71914,0,46,46,17,1,REAL,FAKE,,,,,,,,,,,,,,,,,,,,,
,,,,,,,5f985a6faf071810974a32f8,605b45a4d25f287719a41696,605ba91688d265c9f13498fe,United States,Midwest,13 or older,no,2021-03-24_16h06.44.293,empathy_intonation_perc,2020.2.10,Linux x86_64,60,,,,,,,,,,1,,,,,,,,,,,,,,,,,,,,,,,,,,,,,,,,,,,,,,,,5,zapato,,,1,1,1.01387,0,47,47,4,1,REAL,FAKE,,,,,,,,,,,,,,,,,,,,,
,,,,,,,5f985a6faf071810974a32f8,605b45a4d25f287719a41696,605ba91688d265c9f13498fe,United States,Midwest,13 or older,no,2021-03-24_16h06.44.293,empathy_intonation_perc,2020.2.10,Linux x86_64,60,,,,,,,,,,1,,,,,,,,,,,,,,,,,,,,,,,,,,,,,,,,,,,,,,,,60,matar,,,1,1,0.809345,0,48,48,59,1,REAL,FAKE,,,,,,,,,,,,,,,,,,,,,
,,,,,,,5f985a6faf071810974a32f8,605b45a4d25f287719a41696,605ba91688d265c9f13498fe,United States,Midwest,13 or older,no,2021-03-24_16h06.44.293,empathy_intonation_perc,2020.2.10,Linux x86_64,60,,,,,,,,,,1,,,,,,,,,,,,,,,,,,,,,,,,,,,,,,,,,,,,,,,,62,flaco,,,1,1,0.893565,0,49,49,61,1,REAL,FAKE,,,,,,,,,,,,,,,,,,,,,
,,,,,,,5f985a6faf071810974a32f8,605b45a4d25f287719a41696,605ba91688d265c9f13498fe,United States,Midwest,13 or older,no,2021-03-24_16h06.44.293,empathy_intonation_perc,2020.2.10,Linux x86_64,60,,,,,,,,,,0,,,,,,,,,,,,,,,,,,,,,,,,,,,,,,,,,,,,,,,,63,esposante,,,1,0,0.867805,0,50,50,62,1,REAL,FAKE,,,,,,,,,,,,,,,,,,,,,
,,,,,,,5f985a6faf071810974a32f8,605b45a4d25f287719a41696,605ba91688d265c9f13498fe,United States,Midwest,13 or older,no,2021-03-24_16h06.44.293,empathy_intonation_perc,2020.2.10,Linux x86_64,60,,,,,,,,,,1,,,,,,,,,,,,,,,,,,,,,,,,,,,,,,,,,,,,,,,,46,martillo,,,0,0,0.649225,0,51,51,45,1,REAL,FAKE,,,,,,,,,,,,,,,,,,,,,
,,,,,,,5f985a6faf071810974a32f8,605b45a4d25f287719a41696,605ba91688d265c9f13498fe,United States,Midwest,13 or older,no,2021-03-24_16h06.44.293,empathy_intonation_perc,2020.2.10,Linux x86_64,60,,,,,,,,,,1,,,,,,,,,,,,,,,,,,,,,,,,,,,,,,,,,,,,,,,,69,engatusar,,,0,0,0.76432,0,52,52,68,1,REAL,FAKE,,,,,,,,,,,,,,,,,,,,,
,,,,,,,5f985a6faf071810974a32f8,605b45a4d25f287719a41696,605ba91688d265c9f13498fe,United States,Midwest,13 or older,no,2021-03-24_16h06.44.293,empathy_intonation_perc,2020.2.10,Linux x86_64,60,,,,,,,,,,1,,,,,,,,,,,,,,,,,,,,,,,,,,,,,,,,,,,,,,,,54,fomentar,,,0,0,1.96553,0,53,53,53,1,REAL,FAKE,,,,,,,,,,,,,,,,,,,,,
,,,,,,,5f985a6faf071810974a32f8,605b45a4d25f287719a41696,605ba91688d265c9f13498fe,United States,Midwest,13 or older,no,2021-03-24_16h06.44.293,empathy_intonation_perc,2020.2.10,Linux x86_64,60,,,,,,,,,,1,,,,,,,,,,,,,,,,,,,,,,,,,,,,,,,,,,,,,,,,12,asesinato,,,0,0,0.760675,0,54,54,11,1,REAL,FAKE,,,,,,,,,,,,,,,,,,,,,
,,,,,,,5f985a6faf071810974a32f8,605b45a4d25f287719a41696,605ba91688d265c9f13498fe,United States,Midwest,13 or older,no,2021-03-24_16h06.44.293,empathy_intonation_perc,2020.2.10,Linux x86_64,60,,,,,,,,,,1,,,,,,,,,,,,,,,,,,,,,,,,,,,,,,,,,,,,,,,,68,alegre,,,1,1,1.501005,0,55,55,67,1,REAL,FAKE,,,,,,,,,,,,,,,,,,,,,
,,,,,,,5f985a6faf071810974a32f8,605b45a4d25f287719a41696,605ba91688d265c9f13498fe,United States,Midwest,13 or older,no,2021-03-24_16h06.44.293,empathy_intonation_perc,2020.2.10,Linux x86_64,60,,,,,,,,,,0,,,,,,,,,,,,,,,,,,,,,,,,,,,,,,,,,,,,,,,,16,abracer,,,0,1,1.01719,0,56,56,15,1,REAL,FAKE,,,,,,,,,,,,,,,,,,,,,
,,,,,,,5f985a6faf071810974a32f8,605b45a4d25f287719a41696,605ba91688d265c9f13498fe,United States,Midwest,13 or older,no,2021-03-24_16h06.44.293,empathy_intonation_perc,2020.2.10,Linux x86_64,60,,,,,,,,,,0,,,,,,,,,,,,,,,,,,,,,,,,,,,,,,,,,,,,,,,,35,rompido,,,0,1,0.834315,0,57,57,34,1,REAL,FAKE,,,,,,,,,,,,,,,,,,,,,
,,,,,,,5f985a6faf071810974a32f8,605b45a4d25f287719a41696,605ba91688d265c9f13498fe,United States,Midwest,13 or older,no,2021-03-24_16h06.44.293,empathy_intonation_perc,2020.2.10,Linux x86_64,60,,,,,,,,,,1,,,,,,,,,,,,,,,,,,,,,,,,,,,,,,,,,,,,,,,,80,hormiga,,,0,0,0.661545,0,58,58,79,1,REAL,FAKE,,,,,,,,,,,,,,,,,,,,,
,,,,,,,5f985a6faf071810974a32f8,605b45a4d25f287719a41696,605ba91688d265c9f13498fe,United States,Midwest,13 or older,no,2021-03-24_16h06.44.293,empathy_intonation_perc,2020.2.10,Linux x86_64,60,,,,,,,,,,0,,,,,,,,,,,,,,,,,,,,,,,,,,,,,,,,,,,,,,,,79,tropaje,,,1,0,0.65017,0,59,59,78,1,REAL,FAKE,,,,,,,,,,,,,,,,,,,,,
,,,,,,,5f985a6faf071810974a32f8,605b45a4d25f287719a41696,605ba91688d265c9f13498fe,United States,Midwest,13 or older,no,2021-03-24_16h06.44.293,empathy_intonation_perc,2020.2.10,Linux x86_64,60,,,,,,,,,,0,,,,,,,,,,,,,,,,,,,,,,,,,,,,,,,,,,,,,,,,19,brecedad,,,0,1,0.666415,0,60,60,18,1,REAL,FAKE,,,,,,,,,,,,,,,,,,,,,
,,,,,,,5f985a6faf071810974a32f8,605b45a4d25f287719a41696,605ba91688d265c9f13498fe,United States,Midwest,13 or older,no,2021-03-24_16h06.44.293,empathy_intonation_perc,2020.2.10,Linux x86_64,60,,,,,,,,,,1,,,,,,,,,,,,,,,,,,,,,,,,,,,,,,,,,,,,,,,,77,tiburn,,,1,1,1.87012,0,61,61,76,1,REAL,FAKE,,,,,,,,,,,,,,,,,,,,,
,,,,,,,5f985a6faf071810974a32f8,605b45a4d25f287719a41696,605ba91688d265c9f13498fe,United States,Midwest,13 or older,no,2021-03-24_16h06.44.293,empathy_intonation_perc,2020.2.10,Linux x86_64,60,,,,,,,,,,1,,,,,,,,,,,,,,,,,,,,,,,,,,,,,,,,,,,,,,,,88,acantilado,,,0,0,0.74756,0,62,62,87,1,REAL,FAKE,,,,,,,,,,,,,,,,,,,,,
,,,,,,,5f985a6faf071810974a32f8,605b45a4d25f287719a41696,605ba91688d265c9f13498fe,United States,Midwest,13 or older,no,2021-03-24_16h06.44.293,empathy_intonation_perc,2020.2.10,Linux x86_64,60,,,,,,,,,,0,,,,,,,,,,,,,,,,,,,,,,,,,,,,,,,,,,,,,,,,17,floroso,,,0,1,0.886905,0,63,63,16,1,REAL,FAKE,,,,,,,,,,,,,,,,,,,,,
,,,,,,,5f985a6faf071810974a32f8,605b45a4d25f287719a41696,605ba91688d265c9f13498fe,United States,Midwest,13 or older,no,2021-03-24_16h06.44.293,empathy_intonation_perc,2020.2.10,Linux x86_64,60,,,,,,,,,,1,,,,,,,,,,,,,,,,,,,,,,,,,,,,,,,,,,,,,,,,38,estornudar,,,0,0,0.886185,0,64,64,37,1,REAL,FAKE,,,,,,,,,,,,,,,,,,,,,
,,,,,,,5f985a6faf071810974a32f8,605b45a4d25f287719a41696,605ba91688d265c9f13498fe,United States,Midwest,13 or older,no,2021-03-24_16h06.44.293,empathy_intonation_perc,2020.2.10,Linux x86_64,60,,,,,,,,,,1,,,,,,,,,,,,,,,,,,,,,,,,,,,,,,,,,,,,,,,,71,polvoriento,,,0,0,0.690905,0,65,65,70,1,REAL,FAKE,,,,,,,,,,,,,,,,,,,,,
,,,,,,,5f985a6faf071810974a32f8,605b45a4d25f287719a41696,605ba91688d265c9f13498fe,United States,Midwest,13 or older,no,2021-03-24_16h06.44.293,empathy_intonation_perc,2020.2.10,Linux x86_64,60,,,,,,,,,,0,,,,,,,,,,,,,,,,,,,,,,,,,,,,,,,,,,,,,,,,42,cadallo,,,1,0,0.920035,0,66,66,41,1,REAL,FAKE,,,,,,,,,,,,,,,,,,,,,
,,,,,,,5f985a6faf071810974a32f8,605b45a4d25f287719a41696,605ba91688d265c9f13498fe,United States,Midwest,13 or older,no,2021-03-24_16h06.44.293,empathy_intonation_perc,2020.2.10,Linux x86_64,60,,,,,,,,,,0,,,,,,,,,,,,,,,,,,,,,,,,,,,,,,,,,,,,,,,,29,decar,,,1,0,0.929405,0,67,67,28,1,REAL,FAKE,,,,,,,,,,,,,,,,,,,,,
,,,,,,,5f985a6faf071810974a32f8,605b45a4d25f287719a41696,605ba91688d265c9f13498fe,United States,Midwest,13 or older,no,2021-03-24_16h06.44.293,empathy_intonation_perc,2020.2.10,Linux x86_64,60,,,,,,,,,,1,,,,,,,,,,,,,,,,,,,,,,,,,,,,,,,,,,,,,,,,49,ganar,,,0,0,0.53486,0,68,68,48,1,REAL,FAKE,,,,,,,,,,,,,,,,,,,,,
,,,,,,,5f985a6faf071810974a32f8,605b45a4d25f287719a41696,605ba91688d265c9f13498fe,United States,Midwest,13 or older,no,2021-03-24_16h06.44.293,empathy_intonation_perc,2020.2.10,Linux x86_64,60,,,,,,,,,,0,,,,,,,,,,,,,,,,,,,,,,,,,,,,,,,,,,,,,,,,8,cadea,,,1,0,0.58597,0,69,69,7,1,REAL,FAKE,,,,,,,,,,,,,,,,,,,,,
,,,,,,,5f985a6faf071810974a32f8,605b45a4d25f287719a41696,605ba91688d265c9f13498fe,United States,Midwest,13 or older,no,2021-03-24_16h06.44.293,empathy_intonation_perc,2020.2.10,Linux x86_64,60,,,,,,,,,,1,,,,,,,,,,,,,,,,,,,,,,,,,,,,,,,,,,,,,,,,89,prisa,,,1,1,0.626285,0,70,70,88,1,REAL,FAKE,,,,,,,,,,,,,,,,,,,,,
,,,,,,,5f985a6faf071810974a32f8,605b45a4d25f287719a41696,605ba91688d265c9f13498fe,United States,Midwest,13 or older,no,2021-03-24_16h06.44.293,empathy_intonation_perc,2020.2.10,Linux x86_64,60,,,,,,,,,,1,,,,,,,,,,,,,,,,,,,,,,,,,,,,,,,,,,,,,,,,2,pellizcar,,,0,0,0.612775,0,71,71,1,1,REAL,FAKE,,,,,,,,,,,,,,,,,,,,,
,,,,,,,5f985a6faf071810974a32f8,605b45a4d25f287719a41696,605ba91688d265c9f13498fe,United States,Midwest,13 or older,no,2021-03-24_16h06.44.293,empathy_intonation_perc,2020.2.10,Linux x86_64,60,,,,,,,,,,1,,,,,,,,,,,,,,,,,,,,,,,,,,,,,,,,,,,,,,,,14,yunque,,,0,0,0.788575,0,72,72,13,1,REAL,FAKE,,,,,,,,,,,,,,,,,,,,,
,,,,,,,5f985a6faf071810974a32f8,605b45a4d25f287719a41696,605ba91688d265c9f13498fe,United States,Midwest,13 or older,no,2021-03-24_16h06.44.293,empathy_intonation_perc,2020.2.10,Linux x86_64,60,,,,,,,,,,1,,,,,,,,,,,,,,,,,,,,,,,,,,,,,,,,,,,,,,,,81,pozo,,,0,0,1.54036,0,73,73,80,1,REAL,FAKE,,,,,,,,,,,,,,,,,,,,,
,,,,,,,5f985a6faf071810974a32f8,605b45a4d25f287719a41696,605ba91688d265c9f13498fe,United States,Midwest,13 or older,no,2021-03-24_16h06.44.293,empathy_intonation_perc,2020.2.10,Linux x86_64,60,,,,,,,,,,1,,,,,,,,,,,,,,,,,,,,,,,,,,,,,,,,,,,,,,,,20,vido,,,1,1,1.03195,0,74,74,19,1,REAL,FAKE,,,,,,,,,,,,,,,,,,,,,
,,,,,,,5f985a6faf071810974a32f8,605b45a4d25f287719a41696,605ba91688d265c9f13498fe,United States,Midwest,13 or older,no,2021-03-24_16h06.44.293,empathy_intonation_perc,2020.2.10,Linux x86_64,60,,,,,,,,,,1,,,,,,,,,,,,,,,,,,,,,,,,,,,,,,,,,,,,,,,,34,aviso,,,1,1,2.26433,0,75,75,33,1,REAL,FAKE,,,,,,,,,,,,,,,,,,,,,
,,,,,,,5f985a6faf071810974a32f8,605b45a4d25f287719a41696,605ba91688d265c9f13498fe,United States,Midwest,13 or older,no,2021-03-24_16h06.44.293,empathy_intonation_perc,2020.2.10,Linux x86_64,60,,,,,,,,,,1,,,,,,,,,,,,,,,,,,,,,,,,,,,,,,,,,,,,,,,,13,helar,,,0,0,0.72168,0,76,76,12,1,REAL,FAKE,,,,,,,,,,,,,,,,,,,,,
,,,,,,,5f985a6faf071810974a32f8,605b45a4d25f287719a41696,605ba91688d265c9f13498fe,United States,Midwest,13 or older,no,2021-03-24_16h06.44.293,empathy_intonation_perc,2020.2.10,Linux x86_64,60,,,,,,,,,,1,,,,,,,,,,,,,,,,,,,,,,,,,,,,,,,,,,,,,,,,59,besar,,,0,0,0.774025,0,77,77,58,1,REAL,FAKE,,,,,,,,,,,,,,,,,,,,,
,,,,,,,5f985a6faf071810974a32f8,605b45a4d25f287719a41696,605ba91688d265c9f13498fe,United States,Midwest,13 or older,no,2021-03-24_16h06.44.293,empathy_intonation_perc,2020.2.10,Linux x86_64,60,,,,,,,,,,1,,,,,,,,,,,,,,,,,,,,,,,,,,,,,,,,,,,,,,,,36,loro,,,1,1,0.807385,0,78,78,35,1,REAL,FAKE,,,,,,,,,,,,,,,,,,,,,
,,,,,,,5f985a6faf071810974a32f8,605b45a4d25f287719a41696,605ba91688d265c9f13498fe,United States,Midwest,13 or older,no,2021-03-24_16h06.44.293,empathy_intonation_perc,2020.2.10,Linux x86_64,60,,,,,,,,,,1,,,,,,,,,,,,,,,,,,,,,,,,,,,,,,,,,,,,,,,,55,nevar,,,0,0,0.635305,0,79,79,54,1,REAL,FAKE,,,,,,,,,,,,,,,,,,,,,
,,,,,,,5f985a6faf071810974a32f8,605b45a4d25f287719a41696,605ba91688d265c9f13498fe,United States,Midwest,13 or older,no,2021-03-24_16h06.44.293,empathy_intonation_perc,2020.2.10,Linux x86_64,60,,,,,,,,,,1,,,,,,,,,,,,,,,,,,,,,,,,,,,,,,,,,,,,,,,,48,ladrn,,,1,1,0.53413,0,80,80,47,1,REAL,FAKE,,,,,,,,,,,,,,,,,,,,,
,,,,,,,5f985a6faf071810974a32f8,605b45a4d25f287719a41696,605ba91688d265c9f13498fe,United States,Midwest,13 or older,no,2021-03-24_16h06.44.293,empathy_intonation_perc,2020.2.10,Linux x86_64,60,,,,,,,,,,1,,,,,,,,,,,,,,,,,,,,,,,,,,,,,,,,,,,,,,,,15,regar,,,0,0,0.598605,0,81,81,14,1,REAL,FAKE,,,,,,,,,,,,,,,,,,,,,
,,,,,,,5f985a6faf071810974a32f8,605b45a4d25f287719a41696,605ba91688d265c9f13498fe,United States,Midwest,13 or older,no,2021-03-24_16h06.44.293,empathy_intonation_perc,2020.2.10,Linux x86_64,60,,,,,,,,,,0,,,,,,,,,,,,,,,,,,,,,,,,,,,,,,,,,,,,,,,,70,temblo,,,0,1,0.68642,0,82,82,69,1,REAL,FAKE,,,,,,,,,,,,,,,,,,,,,
,,,,,,,5f985a6faf071810974a32f8,605b45a4d25f287719a41696,605ba91688d265c9f13498fe,United States,Midwest,13 or older,no,2021-03-24_16h06.44.293,empathy_intonation_perc,2020.2.10,Linux x86_64,60,,,,,,,,,,0,,,,,,,,,,,,,,,,,,,,,,,,,,,,,,,,,,,,,,,,66,hacido,,,1,0,0.480625,0,83,83,65,1,REAL,FAKE,,,,,,,,,,,,,,,,,,,,,
,,,,,,,5f985a6faf071810974a32f8,605b45a4d25f287719a41696,605ba91688d265c9f13498fe,United States,Midwest,13 or older,no,2021-03-24_16h06.44.293,empathy_intonation_perc,2020.2.10,Linux x86_64,60,,,,,,,,,,1,,,,,,,,,,,,,,,,,,,,,,,,,,,,,,,,,,,,,,,,75,yacer,,,0,0,0.697535,0,84,84,74,1,REAL,FAKE,,,,,,,,,,,,,,,,,,,,,
,,,,,,,5f985a6faf071810974a32f8,605b45a4d25f287719a41696,605ba91688d265c9f13498fe,United States,Midwest,13 or older,no,2021-03-24_16h06.44.293,empathy_intonation_perc,2020.2.10,Linux x86_64,60,,,,,,,,,,1,,,,,,,,,,,,,,,,,,,,,,,,,,,,,,,,,,,,,,,,24,ltigo,,,1,1,1.42066,0,85,85,23,1,REAL,FAKE,,,,,,,,,,,,,,,,,,,,,
,,,,,,,5f985a6faf071810974a32f8,605b45a4d25f287719a41696,605ba91688d265c9f13498fe,United States,Midwest,13 or older,no,2021-03-24_16h06.44.293,empathy_intonation_perc,2020.2.10,Linux x86_64,60,,,,,,,,,,1,,,,,,,,,,,,,,,,,,,,,,,,,,,,,,,,,,,,,,,,22,lacayo,,,1,1,1.897965,0,86,86,21,1,REAL,FAKE,,,,,,,,,,,,,,,,,,,,,
,,,,,,,5f985a6faf071810974a32f8,605b45a4d25f287719a41696,605ba91688d265c9f13498fe,United States,Midwest,13 or older,no,2021-03-24_16h06.44.293,empathy_intonation_perc,2020.2.10,Linux x86_64,60,,,,,,,,,,1,,,,,,,,,,,,,,,,,,,,,,,,,,,,,,,,,,,,,,,,43,canela,,,0,0,0.63043,0,87,87,42,1,REAL,FAKE,,,,,,,,,,,,,,,,,,,,,
,,,,,,,5f985a6faf071810974a32f8,605b45a4d25f287719a41696,605ba91688d265c9f13498fe,United States,Midwest,13 or older,no,2021-03-24_16h06.44.293,empathy_intonation_perc,2020.2.10,Linux x86_64,60,,,,,,,,,,1,,,,,,,,,,,,,,,,,,,,,,,,,,,,,,,,,,,,,,,,9,hacha,,,1,1,0.55137,0,88,88,8,1,REAL,FAKE,,,,,,,,,,,,,,,,,,,,,
,,,,,,,5f985a6faf071810974a32f8,605b45a4d25f287719a41696,605ba91688d265c9f13498fe,United States,Midwest,13 or older,no,2021-03-24_16h06.44.293,empathy_intonation_perc,2020.2.10,Linux x86_64,60,,,,,,,,,,0,,,,,,,,,,,,,,,,,,,,,,,,,,,,,,,,,,,,,,,,74,cintro,,,1,0,0.64504,0,89,89,73,1,REAL,FAKE,,,,,,,,,,,,,,,,,,,,,
,,,,,,,5f985a6faf071810974a32f8,605b45a4d25f287719a41696,605ba91688d265c9f13498fe,United States,Midwest,13 or older,no,2021-03-24_16h06.44.293,empathy_intonation_perc,2020.2.10,Linux x86_64,60,,,,,,,,,,,,,,,,,,,,,,,,,,,,,,,,,,,,,,,,,,,,,,,,,,,,,,,,,,,,,,,,4,1,3.671695,1,0,0,0,0,0,1,,,,,,,,,,,
,,,,,,,5f985a6faf071810974a32f8,605b45a4d25f287719a41696,605ba91688d265c9f13498fe,United States,Midwest,13 or older,no,2021-03-24_16h06.44.293,empathy_intonation_perc,2020.2.10,Linux x86_64,60,,,,,,,,,,,,,,,,,,,,1,,,,,,,,,,,,,,,,,,,,,,,,,,,,,,,,,,,,,,,,,,,,,,,,,,,,,,1,0,0,0,0,1,I can easily tell if someone else wants to enter a conversation.,1,0,1,0
