instructions_2afc_loop.thisRepN,instructions_2afc_loop.thisTrialN,instructions_2afc_loop.thisN,instructions_2afc_loop.thisIndex,instructions_2afc_loop.ran,instructions_text,continue_text,participant,study_id,session,I am most familiar with Spanish from...*,What part of the US are you from?*,At what age did you begin learning Spanish?*,Are you proficient in any languages other than English/Spanish?*,date,expName,psychopyVersion,OS,frameRate,key_resp_2afc_practice.keys,key_resp_2afc_practice.corr,key_resp_2afc_practice.rt,trials_2afc_practice_loop.thisRepN,trials_2afc_practice_loop.thisTrialN,trials_2afc_practice_loop.thisN,trials_2afc_practice_loop.thisIndex,trials_2afc_practice_loop.ran,path,correct_response,the_col,key_resp_2afc_trial.keys,key_resp_2afc_trial.corr,key_resp_2afc_trial.rt,trials_2afc_loop.thisRepN,trials_2afc_loop.thisTrialN,trials_2afc_loop.thisN,trials_2afc_loop.thisIndex,trials_2afc_loop.ran,item_num,andalusian,argentine,castilian,chilean,cuban,mexican,peruvian,puertorican,key_resp_ac1.keys,key_resp_ac1.corr,key_resp_ac1.rt,ac1_loop.thisRepN,ac1_loop.thisTrialN,ac1_loop.thisN,ac1_loop.thisIndex,ac1_loop.ran,instructions_lextale_loop.thisRepN,instructions_lextale_loop.thisTrialN,instructions_lextale_loop.thisN,instructions_lextale_loop.thisIndex,instructions_lextale_loop.ran,key_resp_lextale_practice.keys,key_resp_lextale_practice.corr,key_resp_lextale_practice.rt,trials_lextale_practice_loop.thisRepN,trials_lextale_practice_loop.thisTrialN,trials_lextale_practice_loop.thisN,trials_lextale_practice_loop.thisIndex,trials_lextale_practice_loop.ran,stim,word,prac_button_real,prac_button_false,key_resp_lextale_trial.keys,key_resp_lextale_trial.corr,key_resp_lextale_trial.rt,trials_lextale_loop.thisRepN,trials_lextale_loop.thisTrialN,trials_lextale_loop.thisN,trials_lextale_loop.thisIndex,trials_lextale_loop.ran,button_real,button_false,key_resp_ac2.keys,key_resp_ac2.corr,key_resp_ac2.rt,check_pass,check_fails,ac2_loop.thisRepN,ac2_loop.thisTrialN,ac2_loop.thisN,ac2_loop.thisIndex,ac2_loop.ran,slider_eq_trial.response,trials_eq_loop.thisRepN,trials_eq_loop.thisTrialN,trials_eq_loop.thisN,trials_eq_loop.thisIndex,trials_eq_loop.ran,item,is_test_item,is_distractor,is_agree_score,is_disagree_score
0,0,0,0,1,"In the following task you are going to hear a series of utterances. 

  You will decide if the utterances sound like questions or not using your keyboard.",(press the spacebar to continue),5faeb0771929e6000941ecc5,6057c54e64b0b4e5c128b4f9,60589e079a3d8d6c49999254,United States,Northeast,13 or older,no,2021-03-22_09h40.10.414,empathy_intonation_perc,2020.2.10,MacIntel,60,,,,,,,,,,,,,,,,,,,,,,,,,,,,,,,,,,,,,,,,,,,,,,,,,,,,,,,,,,,,,,,,,,,,,,,,,,,,,,,,,,,,
0,1,1,1,1,"If you believe the utterance is a question, type '1' (for 'yes') and if you do not 
  believe it is a question type '0' (for 'no').

  Let's practice a bit...",(press the spacebar to continue),5faeb0771929e6000941ecc5,6057c54e64b0b4e5c128b4f9,60589e079a3d8d6c49999254,United States,Northeast,13 or older,no,2021-03-22_09h40.10.414,empathy_intonation_perc,2020.2.10,MacIntel,60,,,,,,,,,,,,,,,,,,,,,,,,,,,,,,,,,,,,,,,,,,,,,,,,,,,,,,,,,,,,,,,,,,,,,,,,,,,,,,,,,,,,
,,,,,,,5faeb0771929e6000941ecc5,6057c54e64b0b4e5c128b4f9,60589e079a3d8d6c49999254,United States,Northeast,13 or older,no,2021-03-22_09h40.10.414,empathy_intonation_perc,2020.2.10,MacIntel,60,0,1,1.849735,0,0,0,4,1,./stim/wavs/cuban_statement_filler_Cocinabas-por-la-noche.wav,0,,,,,,,,,,,,,,,,,,,,,,,,,,,,,,,,,,,,,,,,,,,,,,,,,,,,,,,,,,,,,,,,,,,,,,,,,,
,,,,,,,5faeb0771929e6000941ecc5,6057c54e64b0b4e5c128b4f9,60589e079a3d8d6c49999254,United States,Northeast,13 or older,no,2021-03-22_09h40.10.414,empathy_intonation_perc,2020.2.10,MacIntel,60,0,1,2.47711,0,1,1,6,1,./stim/wavs/peruvian_statement_filler_El-nino-habla-con-su-madre.wav,0,,,,,,,,,,,,,,,,,,,,,,,,,,,,,,,,,,,,,,,,,,,,,,,,,,,,,,,,,,,,,,,,,,,,,,,,,,
,,,,,,,5faeb0771929e6000941ecc5,6057c54e64b0b4e5c128b4f9,60589e079a3d8d6c49999254,United States,Northeast,13 or older,no,2021-03-22_09h40.10.414,empathy_intonation_perc,2020.2.10,MacIntel,60,1,1,1.60146,0,2,2,1,1,./stim/wavs/argentine_question_filler_Mi-vecino-habla-mucho.wav,1,,,,,,,,,,,,,,,,,,,,,,,,,,,,,,,,,,,,,,,,,,,,,,,,,,,,,,,,,,,,,,,,,,,,,,,,,,
,,,,,,,5faeb0771929e6000941ecc5,6057c54e64b0b4e5c128b4f9,60589e079a3d8d6c49999254,United States,Northeast,13 or older,no,2021-03-22_09h40.10.414,empathy_intonation_perc,2020.2.10,MacIntel,60,1,1,2.00073,0,3,3,3,1,./stim/wavs/mexican_question_filler_Felipe-no-tiene-contrasena.wav,1,,,,,,,,,,,,,,,,,,,,,,,,,,,,,,,,,,,,,,,,,,,,,,,,,,,,,,,,,,,,,,,,,,,,,,,,,,
,,,,,,,5faeb0771929e6000941ecc5,6057c54e64b0b4e5c128b4f9,60589e079a3d8d6c49999254,United States,Northeast,13 or older,no,2021-03-22_09h40.10.414,empathy_intonation_perc,2020.2.10,MacIntel,60,0,1,2.21826,0,4,4,5,1,./stim/wavs/andalusian_statement_filler_Alberto-nunca-se-afeita.wav,0,,,,,,,,,,,,,,,,,,,,,,,,,,,,,,,,,,,,,,,,,,,,,,,,,,,,,,,,,,,,,,,,,,,,,,,,,,
,,,,,,,5faeb0771929e6000941ecc5,6057c54e64b0b4e5c128b4f9,60589e079a3d8d6c49999254,United States,Northeast,13 or older,no,2021-03-22_09h40.10.414,empathy_intonation_perc,2020.2.10,MacIntel,60,1,1,2.03322,0,5,5,0,1,./stim/wavs/castilian_question_filler_Mi-esposo-conoce-al-chico.wav,1,,,,,,,,,,,,,,,,,,,,,,,,,,,,,,,,,,,,,,,,,,,,,,,,,,,,,,,,,,,,,,,,,,,,,,,,,,
,,,,,,,5faeb0771929e6000941ecc5,6057c54e64b0b4e5c128b4f9,60589e079a3d8d6c49999254,United States,Northeast,13 or older,no,2021-03-22_09h40.10.414,empathy_intonation_perc,2020.2.10,MacIntel,60,0,1,1.93366,0,6,6,7,1,./stim/wavs/puertorican_statement_filler_La-nina-pinta-con-su-amiga.wav,0,,,,,,,,,,,,,,,,,,,,,,,,,,,,,,,,,,,,,,,,,,,,,,,,,,,,,,,,,,,,,,,,,,,,,,,,,,
,,,,,,,5faeb0771929e6000941ecc5,6057c54e64b0b4e5c128b4f9,60589e079a3d8d6c49999254,United States,Northeast,13 or older,no,2021-03-22_09h40.10.414,empathy_intonation_perc,2020.2.10,MacIntel,60,1,1,1.79787,0,7,7,2,1,./stim/wavs/chilean_question_filler_Mi-padre-cantaba-bien.wav,1,,,,,,,,,,,,,,,,,,,,,,,,,,,,,,,,,,,,,,,,,,,,,,,,,,,,,,,,,,,,,,,,,,,,,,,,,,
,,,,,,,5faeb0771929e6000941ecc5,6057c54e64b0b4e5c128b4f9,60589e079a3d8d6c49999254,United States,Northeast,13 or older,no,2021-03-22_09h40.10.414,empathy_intonation_perc,2020.2.10,MacIntel,60,,,,,,,,,,0,peruvian,0,1,2.08357,0,0,0,44,1,45,./stim/wavs/andalusian_mismatch_declarative-narrow-focus_La-nina-lava-el-plato.wav,./stim/wavs/argentine_mismatch_declarative-narrow-focus_La-nina-lava-el-plato.wav,./stim/wavs/castilian_mismatch_declarative-narrow-focus_La-nina-lava-el-plato.wav,./stim/wavs/chilean_mismatch_declarative-narrow-focus_La-nina-lava-el-plato.wav,./stim/wavs/cuban_mismatch_declarative-narrow-focus_La-nina-lava-el-plato.wav,./stim/wavs/mexican_mismatch_declarative-narrow-focus_La-nina-lava-el-plato.wav,./stim/wavs/peruvian_mismatch_declarative-narrow-focus_La-nina-lava-el-plato.wav,./stim/wavs/puertorican_mismatch_declarative-narrow-focus_La-nina-lava-el-plato.wav,,,,,,,,,,,,,,,,,,,,,,,,,,,,,,,,,,,,,,,,,,,,,,,,,,,,,,,,
,,,,,,,5faeb0771929e6000941ecc5,6057c54e64b0b4e5c128b4f9,60589e079a3d8d6c49999254,United States,Northeast,13 or older,no,2021-03-22_09h40.10.414,empathy_intonation_perc,2020.2.10,MacIntel,60,,,,,,,,,,0,andalusian,0,1,1.83958,0,1,1,42,1,43,./stim/wavs/andalusian_mismatch_declarative-narrow-focus_El-nino-oye-el-rio.wav,./stim/wavs/argentine_mismatch_declarative-narrow-focus_El-nino-oye-el-rio.wav,./stim/wavs/castilian_mismatch_declarative-narrow-focus_El-nino-oye-el-rio.wav,./stim/wavs/chilean_mismatch_declarative-narrow-focus_El-nino-oye-el-rio.wav,./stim/wavs/cuban_mismatch_declarative-narrow-focus_El-nino-oye-el-rio.wav,./stim/wavs/mexican_mismatch_declarative-narrow-focus_El-nino-oye-el-rio.wav,./stim/wavs/peruvian_mismatch_declarative-narrow-focus_El-nino-oye-el-rio.wav,./stim/wavs/puertorican_mismatch_declarative-narrow-focus_El-nino-oye-el-rio.wav,,,,,,,,,,,,,,,,,,,,,,,,,,,,,,,,,,,,,,,,,,,,,,,,,,,,,,,,
,,,,,,,5faeb0771929e6000941ecc5,6057c54e64b0b4e5c128b4f9,60589e079a3d8d6c49999254,United States,Northeast,13 or older,no,2021-03-22_09h40.10.414,empathy_intonation_perc,2020.2.10,MacIntel,60,,,,,,,,,,0,cuban,0,1,1.59996,0,2,2,40,1,41,./stim/wavs/andalusian_mismatch_declarative-narrow-focus_El-bebe-comia-muy-bien.wav,./stim/wavs/argentine_mismatch_declarative-narrow-focus_El-bebe-comia-muy-bien.wav,./stim/wavs/castilian_mismatch_declarative-narrow-focus_El-bebe-comia-muy-bien.wav,./stim/wavs/chilean_mismatch_declarative-narrow-focus_El-bebe-comia-muy-bien.wav,./stim/wavs/cuban_mismatch_declarative-narrow-focus_El-bebe-comia-muy-bien.wav,./stim/wavs/mexican_mismatch_declarative-narrow-focus_El-bebe-comia-muy-bien.wav,./stim/wavs/peruvian_mismatch_declarative-narrow-focus_El-bebe-comia-muy-bien.wav,./stim/wavs/puertorican_mismatch_declarative-narrow-focus_El-bebe-comia-muy-bien.wav,,,,,,,,,,,,,,,,,,,,,,,,,,,,,,,,,,,,,,,,,,,,,,,,,,,,,,,,
,,,,,,,5faeb0771929e6000941ecc5,6057c54e64b0b4e5c128b4f9,60589e079a3d8d6c49999254,United States,Northeast,13 or older,no,2021-03-22_09h40.10.414,empathy_intonation_perc,2020.2.10,MacIntel,60,,,,,,,,,,1,mexican,1,1,1.68473,0,3,3,53,1,54,./stim/wavs/andalusian_mismatch_interrogative-partial-wh_Por-que-oia-el-rio.wav,./stim/wavs/argentine_mismatch_interrogative-partial-wh_Por-que-oia-el-rio.wav,./stim/wavs/castilian_mismatch_interrogative-partial-wh_Por-que-oia-el-rio.wav,./stim/wavs/chilean_mismatch_interrogative-partial-wh_Por-que-oia-el-rio.wav,./stim/wavs/cuban_mismatch_interrogative-partial-wh_Por-que-oia-el-rio.wav,./stim/wavs/mexican_mismatch_interrogative-partial-wh_Por-que-oia-el-rio.wav,./stim/wavs/peruvian_mismatch_interrogative-partial-wh_Por-que-oia-el-rio.wav,./stim/wavs/puertorican_mismatch_interrogative-partial-wh_Por-que-oia-el-rio.wav,,,,,,,,,,,,,,,,,,,,,,,,,,,,,,,,,,,,,,,,,,,,,,,,,,,,,,,,
,,,,,,,5faeb0771929e6000941ecc5,6057c54e64b0b4e5c128b4f9,60589e079a3d8d6c49999254,United States,Northeast,13 or older,no,2021-03-22_09h40.10.414,empathy_intonation_perc,2020.2.10,MacIntel,60,,,,,,,,,,0,andalusian,0,1,2.117305,0,4,4,11,1,12,./stim/wavs/andalusian_match_declarative-narrow-focus_Emilio-ama-la-marcha.wav,./stim/wavs/argentine_match_declarative-narrow-focus_Emilio-ama-la-marcha.wav,./stim/wavs/castilian_match_declarative-narrow-focus_Emilio-ama-la-marcha.wav,./stim/wavs/chilean_match_declarative-narrow-focus_Emilio-ama-la-marcha.wav,./stim/wavs/cuban_match_declarative-narrow-focus_Emilio-ama-la-marcha.wav,./stim/wavs/mexican_match_declarative-narrow-focus_Emilio-ama-la-marcha.wav,./stim/wavs/peruvian_match_declarative-narrow-focus_Emilio-ama-la-marcha.wav,./stim/wavs/puertorican_match_declarative-narrow-focus_Emilio-ama-la-marcha.wav,,,,,,,,,,,,,,,,,,,,,,,,,,,,,,,,,,,,,,,,,,,,,,,,,,,,,,,,
,,,,,,,5faeb0771929e6000941ecc5,6057c54e64b0b4e5c128b4f9,60589e079a3d8d6c49999254,United States,Northeast,13 or older,no,2021-03-22_09h40.10.414,empathy_intonation_perc,2020.2.10,MacIntel,60,,,,,,,,,,0,andalusian,0,1,1.833625,0,5,5,37,1,38,./stim/wavs/andalusian_mismatch_declarative-broad-focus_Mi-madre-come-la-fruta.wav,./stim/wavs/argentine_mismatch_declarative-broad-focus_Mi-madre-come-la-fruta.wav,./stim/wavs/castilian_mismatch_declarative-broad-focus_Mi-madre-come-la-fruta.wav,./stim/wavs/chilean_mismatch_declarative-broad-focus_Mi-madre-come-la-fruta.wav,./stim/wavs/cuban_mismatch_declarative-broad-focus_Mi-madre-come-la-fruta.wav,./stim/wavs/mexican_mismatch_declarative-broad-focus_Mi-madre-come-la-fruta.wav,./stim/wavs/peruvian_mismatch_declarative-broad-focus_Mi-madre-come-la-fruta.wav,./stim/wavs/puertorican_mismatch_declarative-broad-focus_Mi-madre-come-la-fruta.wav,,,,,,,,,,,,,,,,,,,,,,,,,,,,,,,,,,,,,,,,,,,,,,,,,,,,,,,,
,,,,,,,5faeb0771929e6000941ecc5,6057c54e64b0b4e5c128b4f9,60589e079a3d8d6c49999254,United States,Northeast,13 or older,no,2021-03-22_09h40.10.414,empathy_intonation_perc,2020.2.10,MacIntel,60,,,,,,,,,,1,chilean,1,1,1.486475,0,6,6,23,1,24,./stim/wavs/andalusian_match_interrogative-partial-wh_Por-que-iba-a-Bolivia.wav,./stim/wavs/argentine_match_interrogative-partial-wh_Por-que-iba-a-Bolivia.wav,./stim/wavs/castilian_match_interrogative-partial-wh_Por-que-iba-a-Bolivia.wav,./stim/wavs/chilean_match_interrogative-partial-wh_Por-que-iba-a-Bolivia.wav,./stim/wavs/cuban_match_interrogative-partial-wh_Por-que-iba-a-Bolivia.wav,./stim/wavs/mexican_match_interrogative-partial-wh_Por-que-iba-a-Bolivia.wav,./stim/wavs/peruvian_match_interrogative-partial-wh_Por-que-iba-a-Bolivia.wav,./stim/wavs/puertorican_match_interrogative-partial-wh_Por-que-iba-a-Bolivia.wav,,,,,,,,,,,,,,,,,,,,,,,,,,,,,,,,,,,,,,,,,,,,,,,,,,,,,,,,
,,,,,,,5faeb0771929e6000941ecc5,6057c54e64b0b4e5c128b4f9,60589e079a3d8d6c49999254,United States,Northeast,13 or older,no,2021-03-22_09h40.10.414,empathy_intonation_perc,2020.2.10,MacIntel,60,,,,,,,,,,0,cuban,0,1,2.026195,0,7,7,47,1,48,./stim/wavs/andalusian_mismatch_declarative-narrow-focus_Mi-tia-odia-la-lluvia.wav,./stim/wavs/argentine_mismatch_declarative-narrow-focus_Mi-tia-odia-la-lluvia.wav,./stim/wavs/castilian_mismatch_declarative-narrow-focus_Mi-tia-odia-la-lluvia.wav,./stim/wavs/chilean_mismatch_declarative-narrow-focus_Mi-tia-odia-la-lluvia.wav,./stim/wavs/cuban_mismatch_declarative-narrow-focus_Mi-tia-odia-la-lluvia.wav,./stim/wavs/mexican_mismatch_declarative-narrow-focus_Mi-tia-odia-la-lluvia.wav,./stim/wavs/peruvian_mismatch_declarative-narrow-focus_Mi-tia-odia-la-lluvia.wav,./stim/wavs/puertorican_mismatch_declarative-narrow-focus_Mi-tia-odia-la-lluvia.wav,,,,,,,,,,,,,,,,,,,,,,,,,,,,,,,,,,,,,,,,,,,,,,,,,,,,,,,,
,,,,,,,5faeb0771929e6000941ecc5,6057c54e64b0b4e5c128b4f9,60589e079a3d8d6c49999254,United States,Northeast,13 or older,no,2021-03-22_09h40.10.414,empathy_intonation_perc,2020.2.10,MacIntel,60,,,,,,,,,,0,castilian,0,1,2.20028,0,8,8,0,1,1,./stim/wavs/andalusian_match_declarative-broad-focus_Ana-lleva-el-abrigo.wav,./stim/wavs/argentine_match_declarative-broad-focus_Ana-lleva-el-abrigo.wav,./stim/wavs/castilian_match_declarative-broad-focus_Ana-lleva-el-abrigo.wav,./stim/wavs/chilean_match_declarative-broad-focus_Ana-lleva-el-abrigo.wav,./stim/wavs/cuban_match_declarative-broad-focus_Ana-lleva-el-abrigo.wav,./stim/wavs/mexican_match_declarative-broad-focus_Ana-lleva-el-abrigo.wav,./stim/wavs/peruvian_match_declarative-broad-focus_Ana-lleva-el-abrigo.wav,./stim/wavs/puertorican_match_declarative-broad-focus_Ana-lleva-el-abrigo.wav,,,,,,,,,,,,,,,,,,,,,,,,,,,,,,,,,,,,,,,,,,,,,,,,,,,,,,,,
,,,,,,,5faeb0771929e6000941ecc5,6057c54e64b0b4e5c128b4f9,60589e079a3d8d6c49999254,United States,Northeast,13 or older,no,2021-03-22_09h40.10.414,empathy_intonation_perc,2020.2.10,MacIntel,60,,,,,,,,,,0,cuban,0,1,1.65048,0,9,9,41,1,42,./stim/wavs/andalusian_mismatch_declarative-narrow-focus_El-hombre-mira-la-luna.wav,./stim/wavs/argentine_mismatch_declarative-narrow-focus_El-hombre-mira-la-luna.wav,./stim/wavs/castilian_mismatch_declarative-narrow-focus_El-hombre-mira-la-luna.wav,./stim/wavs/chilean_mismatch_declarative-narrow-focus_El-hombre-mira-la-luna.wav,./stim/wavs/cuban_mismatch_declarative-narrow-focus_El-hombre-mira-la-luna.wav,./stim/wavs/mexican_mismatch_declarative-narrow-focus_El-hombre-mira-la-luna.wav,./stim/wavs/peruvian_mismatch_declarative-narrow-focus_El-hombre-mira-la-luna.wav,./stim/wavs/puertorican_mismatch_declarative-narrow-focus_El-hombre-mira-la-luna.wav,,,,,,,,,,,,,,,,,,,,,,,,,,,,,,,,,,,,,,,,,,,,,,,,,,,,,,,,
,,,,,,,5faeb0771929e6000941ecc5,6057c54e64b0b4e5c128b4f9,60589e079a3d8d6c49999254,United States,Northeast,13 or older,no,2021-03-22_09h40.10.414,empathy_intonation_perc,2020.2.10,MacIntel,60,,,,,,,,,,0,cuban,0,1,1.90682,0,10,10,14,1,15,./stim/wavs/andalusian_match_declarative-narrow-focus_Mariano-habla-del-tiempo.wav,./stim/wavs/argentine_match_declarative-narrow-focus_Mariano-habla-del-tiempo.wav,./stim/wavs/castilian_match_declarative-narrow-focus_Mariano-habla-del-tiempo.wav,./stim/wavs/chilean_match_declarative-narrow-focus_Mariano-habla-del-tiempo.wav,./stim/wavs/cuban_match_declarative-narrow-focus_Mariano-habla-del-tiempo.wav,./stim/wavs/mexican_match_declarative-narrow-focus_Mariano-habla-del-tiempo.wav,./stim/wavs/peruvian_match_declarative-narrow-focus_Mariano-habla-del-tiempo.wav,./stim/wavs/puertorican_match_declarative-narrow-focus_Mariano-habla-del-tiempo.wav,,,,,,,,,,,,,,,,,,,,,,,,,,,,,,,,,,,,,,,,,,,,,,,,,,,,,,,,
,,,,,,,5faeb0771929e6000941ecc5,6057c54e64b0b4e5c128b4f9,60589e079a3d8d6c49999254,United States,Northeast,13 or older,no,2021-03-22_09h40.10.414,empathy_intonation_perc,2020.2.10,MacIntel,60,,,,,,,,,,0,puertorican,0,1,1.66829,0,11,11,36,1,37,./stim/wavs/andalusian_mismatch_declarative-broad-focus_La-nina-lava-el-plato.wav,./stim/wavs/argentine_mismatch_declarative-broad-focus_La-nina-lava-el-plato.wav,./stim/wavs/castilian_mismatch_declarative-broad-focus_La-nina-lava-el-plato.wav,./stim/wavs/chilean_mismatch_declarative-broad-focus_La-nina-lava-el-plato.wav,./stim/wavs/cuban_mismatch_declarative-broad-focus_La-nina-lava-el-plato.wav,./stim/wavs/mexican_mismatch_declarative-broad-focus_La-nina-lava-el-plato.wav,./stim/wavs/peruvian_mismatch_declarative-broad-focus_La-nina-lava-el-plato.wav,./stim/wavs/puertorican_mismatch_declarative-broad-focus_La-nina-lava-el-plato.wav,,,,,,,,,,,,,,,,,,,,,,,,,,,,,,,,,,,,,,,,,,,,,,,,,,,,,,,,
,,,,,,,5faeb0771929e6000941ecc5,6057c54e64b0b4e5c128b4f9,60589e079a3d8d6c49999254,United States,Northeast,13 or older,no,2021-03-22_09h40.10.414,empathy_intonation_perc,2020.2.10,MacIntel,60,,,,,,,,,,1,castilian,1,1,1.872115,0,12,12,16,1,17,./stim/wavs/andalusian_match_interrogative-partial-wh_Cuando-bebia-el-vino.wav,./stim/wavs/argentine_match_interrogative-partial-wh_Cuando-bebia-el-vino.wav,./stim/wavs/castilian_match_interrogative-partial-wh_Cuando-bebia-el-vino.wav,./stim/wavs/chilean_match_interrogative-partial-wh_Cuando-bebia-el-vino.wav,./stim/wavs/cuban_match_interrogative-partial-wh_Cuando-bebia-el-vino.wav,./stim/wavs/mexican_match_interrogative-partial-wh_Cuando-bebia-el-vino.wav,./stim/wavs/peruvian_match_interrogative-partial-wh_Cuando-bebia-el-vino.wav,./stim/wavs/puertorican_match_interrogative-partial-wh_Cuando-bebia-el-vino.wav,,,,,,,,,,,,,,,,,,,,,,,,,,,,,,,,,,,,,,,,,,,,,,,,,,,,,,,,
,,,,,,,5faeb0771929e6000941ecc5,6057c54e64b0b4e5c128b4f9,60589e079a3d8d6c49999254,United States,Northeast,13 or older,no,2021-03-22_09h40.10.414,empathy_intonation_perc,2020.2.10,MacIntel,60,,,,,,,,,,1,andalusian,1,1,1.60533,0,13,13,31,1,32,./stim/wavs/andalusian_match_interrogative-total-yn_Marta-abre-el-regalo.wav,./stim/wavs/argentine_match_interrogative-total-yn_Marta-abre-el-regalo.wav,./stim/wavs/castilian_match_interrogative-total-yn_Marta-abre-el-regalo.wav,./stim/wavs/chilean_match_interrogative-total-yn_Marta-abre-el-regalo.wav,./stim/wavs/cuban_match_interrogative-total-yn_Marta-abre-el-regalo.wav,./stim/wavs/mexican_match_interrogative-total-yn_Marta-abre-el-regalo.wav,./stim/wavs/peruvian_match_interrogative-total-yn_Marta-abre-el-regalo.wav,./stim/wavs/puertorican_match_interrogative-total-yn_Marta-abre-el-regalo.wav,,,,,,,,,,,,,,,,,,,,,,,,,,,,,,,,,,,,,,,,,,,,,,,,,,,,,,,,
,,,,,,,5faeb0771929e6000941ecc5,6057c54e64b0b4e5c128b4f9,60589e079a3d8d6c49999254,United States,Northeast,13 or older,no,2021-03-22_09h40.10.414,empathy_intonation_perc,2020.2.10,MacIntel,60,,,,,,,,,,1,chilean,1,1,1.94153,0,14,14,58,1,59,./stim/wavs/andalusian_mismatch_interrogative-total-yn_El-nino-oye-el-rio.wav,./stim/wavs/argentine_mismatch_interrogative-total-yn_El-nino-oye-el-rio.wav,./stim/wavs/castilian_mismatch_interrogative-total-yn_El-nino-oye-el-rio.wav,./stim/wavs/chilean_mismatch_interrogative-total-yn_El-nino-oye-el-rio.wav,./stim/wavs/cuban_mismatch_interrogative-total-yn_El-nino-oye-el-rio.wav,./stim/wavs/mexican_mismatch_interrogative-total-yn_El-nino-oye-el-rio.wav,./stim/wavs/peruvian_mismatch_interrogative-total-yn_El-nino-oye-el-rio.wav,./stim/wavs/puertorican_mismatch_interrogative-total-yn_El-nino-oye-el-rio.wav,,,,,,,,,,,,,,,,,,,,,,,,,,,,,,,,,,,,,,,,,,,,,,,,,,,,,,,,
,,,,,,,5faeb0771929e6000941ecc5,6057c54e64b0b4e5c128b4f9,60589e079a3d8d6c49999254,United States,Northeast,13 or older,no,2021-03-22_09h40.10.414,empathy_intonation_perc,2020.2.10,MacIntel,60,,,,,,,,,,0,andalusian,0,1,1.75682,0,15,15,8,1,9,./stim/wavs/andalusian_match_declarative-narrow-focus_Ana-lleva-el-abrigo.wav,./stim/wavs/argentine_match_declarative-narrow-focus_Ana-lleva-el-abrigo.wav,./stim/wavs/castilian_match_declarative-narrow-focus_Ana-lleva-el-abrigo.wav,./stim/wavs/chilean_match_declarative-narrow-focus_Ana-lleva-el-abrigo.wav,./stim/wavs/cuban_match_declarative-narrow-focus_Ana-lleva-el-abrigo.wav,./stim/wavs/mexican_match_declarative-narrow-focus_Ana-lleva-el-abrigo.wav,./stim/wavs/peruvian_match_declarative-narrow-focus_Ana-lleva-el-abrigo.wav,./stim/wavs/puertorican_match_declarative-narrow-focus_Ana-lleva-el-abrigo.wav,,,,,,,,,,,,,,,,,,,,,,,,,,,,,,,,,,,,,,,,,,,,,,,,,,,,,,,,
,,,,,,,5faeb0771929e6000941ecc5,6057c54e64b0b4e5c128b4f9,60589e079a3d8d6c49999254,United States,Northeast,13 or older,no,2021-03-22_09h40.10.414,empathy_intonation_perc,2020.2.10,MacIntel,60,,,,,,,,,,0,castilian,0,1,2.08572,0,16,16,9,1,10,./stim/wavs/andalusian_match_declarative-narrow-focus_Daniel-iba-a-Bolivia.wav,./stim/wavs/argentine_match_declarative-narrow-focus_Daniel-iba-a-Bolivia.wav,./stim/wavs/castilian_match_declarative-narrow-focus_Daniel-iba-a-Bolivia.wav,./stim/wavs/chilean_match_declarative-narrow-focus_Daniel-iba-a-Bolivia.wav,./stim/wavs/cuban_match_declarative-narrow-focus_Daniel-iba-a-Bolivia.wav,./stim/wavs/mexican_match_declarative-narrow-focus_Daniel-iba-a-Bolivia.wav,./stim/wavs/peruvian_match_declarative-narrow-focus_Daniel-iba-a-Bolivia.wav,./stim/wavs/puertorican_match_declarative-narrow-focus_Daniel-iba-a-Bolivia.wav,,,,,,,,,,,,,,,,,,,,,,,,,,,,,,,,,,,,,,,,,,,,,,,,,,,,,,,,
,,,,,,,5faeb0771929e6000941ecc5,6057c54e64b0b4e5c128b4f9,60589e079a3d8d6c49999254,United States,Northeast,13 or older,no,2021-03-22_09h40.10.414,empathy_intonation_perc,2020.2.10,MacIntel,60,,,,,,,,,,0,puertorican,0,1,1.7745,0,17,17,38,1,39,./stim/wavs/andalusian_mismatch_declarative-broad-focus_Mi-novio-viene-del-lago.wav,./stim/wavs/argentine_mismatch_declarative-broad-focus_Mi-novio-viene-del-lago.wav,./stim/wavs/castilian_mismatch_declarative-broad-focus_Mi-novio-viene-del-lago.wav,./stim/wavs/chilean_mismatch_declarative-broad-focus_Mi-novio-viene-del-lago.wav,./stim/wavs/cuban_mismatch_declarative-broad-focus_Mi-novio-viene-del-lago.wav,./stim/wavs/mexican_mismatch_declarative-broad-focus_Mi-novio-viene-del-lago.wav,./stim/wavs/peruvian_mismatch_declarative-broad-focus_Mi-novio-viene-del-lago.wav,./stim/wavs/puertorican_mismatch_declarative-broad-focus_Mi-novio-viene-del-lago.wav,,,,,,,,,,,,,,,,,,,,,,,,,,,,,,,,,,,,,,,,,,,,,,,,,,,,,,,,
,,,,,,,5faeb0771929e6000941ecc5,6057c54e64b0b4e5c128b4f9,60589e079a3d8d6c49999254,United States,Northeast,13 or older,no,2021-03-22_09h40.10.414,empathy_intonation_perc,2020.2.10,MacIntel,60,,,,,,,,,,1,mexican,1,1,2.001425,0,18,18,56,1,57,./stim/wavs/andalusian_mismatch_interrogative-total-yn_El-bebe-comia-muy-bien.wav,./stim/wavs/argentine_mismatch_interrogative-total-yn_El-bebe-comia-muy-bien.wav,./stim/wavs/castilian_mismatch_interrogative-total-yn_El-bebe-comia-muy-bien.wav,./stim/wavs/chilean_mismatch_interrogative-total-yn_El-bebe-comia-muy-bien.wav,./stim/wavs/cuban_mismatch_interrogative-total-yn_El-bebe-comia-muy-bien.wav,./stim/wavs/mexican_mismatch_interrogative-total-yn_El-bebe-comia-muy-bien.wav,./stim/wavs/peruvian_mismatch_interrogative-total-yn_El-bebe-comia-muy-bien.wav,./stim/wavs/puertorican_mismatch_interrogative-total-yn_El-bebe-comia-muy-bien.wav,,,,,,,,,,,,,,,,,,,,,,,,,,,,,,,,,,,,,,,,,,,,,,,,,,,,,,,,
,,,,,,,5faeb0771929e6000941ecc5,6057c54e64b0b4e5c128b4f9,60589e079a3d8d6c49999254,United States,Northeast,13 or older,no,2021-03-22_09h40.10.414,empathy_intonation_perc,2020.2.10,MacIntel,60,,,,,,,,,,0,andalusian,0,1,2.610005,0,19,19,2,1,3,./stim/wavs/andalusian_match_declarative-broad-focus_David-leia-el-libro.wav,./stim/wavs/argentine_match_declarative-broad-focus_David-leia-el-libro.wav,./stim/wavs/castilian_match_declarative-broad-focus_David-leia-el-libro.wav,./stim/wavs/chilean_match_declarative-broad-focus_David-leia-el-libro.wav,./stim/wavs/cuban_match_declarative-broad-focus_David-leia-el-libro.wav,./stim/wavs/mexican_match_declarative-broad-focus_David-leia-el-libro.wav,./stim/wavs/peruvian_match_declarative-broad-focus_David-leia-el-libro.wav,./stim/wavs/puertorican_match_declarative-broad-focus_David-leia-el-libro.wav,,,,,,,,,,,,,,,,,,,,,,,,,,,,,,,,,,,,,,,,,,,,,,,,,,,,,,,,
,,,,,,,5faeb0771929e6000941ecc5,6057c54e64b0b4e5c128b4f9,60589e079a3d8d6c49999254,United States,Northeast,13 or older,no,2021-03-22_09h40.10.414,empathy_intonation_perc,2020.2.10,MacIntel,60,,,,,,,,,,0,peruvian,0,1,2.01641,0,20,20,4,1,5,./stim/wavs/andalusian_match_declarative-broad-focus_Manuela-vende-el-carro.wav,./stim/wavs/argentine_match_declarative-broad-focus_Manuela-vende-el-carro.wav,./stim/wavs/castilian_match_declarative-broad-focus_Manuela-vende-el-carro.wav,./stim/wavs/chilean_match_declarative-broad-focus_Manuela-vende-el-carro.wav,./stim/wavs/cuban_match_declarative-broad-focus_Manuela-vende-el-carro.wav,./stim/wavs/mexican_match_declarative-broad-focus_Manuela-vende-el-carro.wav,./stim/wavs/peruvian_match_declarative-broad-focus_Manuela-vende-el-carro.wav,./stim/wavs/puertorican_match_declarative-broad-focus_Manuela-vende-el-carro.wav,,,,,,,,,,,,,,,,,,,,,,,,,,,,,,,,,,,,,,,,,,,,,,,,,,,,,,,,
,,,,,,,5faeb0771929e6000941ecc5,6057c54e64b0b4e5c128b4f9,60589e079a3d8d6c49999254,United States,Northeast,13 or older,no,2021-03-22_09h40.10.414,empathy_intonation_perc,2020.2.10,MacIntel,60,,,,,,,,,,0,peruvian,0,1,1.90169,0,21,21,13,1,14,./stim/wavs/andalusian_match_declarative-narrow-focus_Maria-bebe-el-vino.wav,./stim/wavs/argentine_match_declarative-narrow-focus_Maria-bebe-el-vino.wav,./stim/wavs/castilian_match_declarative-narrow-focus_Maria-bebe-el-vino.wav,./stim/wavs/chilean_match_declarative-narrow-focus_Maria-bebe-el-vino.wav,./stim/wavs/cuban_match_declarative-narrow-focus_Maria-bebe-el-vino.wav,./stim/wavs/mexican_match_declarative-narrow-focus_Maria-bebe-el-vino.wav,./stim/wavs/peruvian_match_declarative-narrow-focus_Maria-bebe-el-vino.wav,./stim/wavs/puertorican_match_declarative-narrow-focus_Maria-bebe-el-vino.wav,,,,,,,,,,,,,,,,,,,,,,,,,,,,,,,,,,,,,,,,,,,,,,,,,,,,,,,,
,,,,,,,5faeb0771929e6000941ecc5,6057c54e64b0b4e5c128b4f9,60589e079a3d8d6c49999254,United States,Northeast,13 or older,no,2021-03-22_09h40.10.414,empathy_intonation_perc,2020.2.10,MacIntel,60,,,,,,,,,,0,argentine,0,1,2.07699,0,22,22,35,1,36,./stim/wavs/andalusian_mismatch_declarative-broad-focus_La-maestra-vive-en-Paris.wav,./stim/wavs/argentine_mismatch_declarative-broad-focus_La-maestra-vive-en-Paris.wav,./stim/wavs/castilian_mismatch_declarative-broad-focus_La-maestra-vive-en-Paris.wav,./stim/wavs/chilean_mismatch_declarative-broad-focus_La-maestra-vive-en-Paris.wav,./stim/wavs/cuban_mismatch_declarative-broad-focus_La-maestra-vive-en-Paris.wav,./stim/wavs/mexican_mismatch_declarative-broad-focus_La-maestra-vive-en-Paris.wav,./stim/wavs/peruvian_mismatch_declarative-broad-focus_La-maestra-vive-en-Paris.wav,./stim/wavs/puertorican_mismatch_declarative-broad-focus_La-maestra-vive-en-Paris.wav,,,,,,,,,,,,,,,,,,,,,,,,,,,,,,,,,,,,,,,,,,,,,,,,,,,,,,,,
,,,,,,,5faeb0771929e6000941ecc5,6057c54e64b0b4e5c128b4f9,60589e079a3d8d6c49999254,United States,Northeast,13 or older,no,2021-03-22_09h40.10.414,empathy_intonation_perc,2020.2.10,MacIntel,60,,,,,,,,,,1,peruvian,1,1,2.180075,0,23,23,30,1,31,./stim/wavs/andalusian_match_interrogative-total-yn_Mariano-habla-del-tiempo.wav,./stim/wavs/argentine_match_interrogative-total-yn_Mariano-habla-del-tiempo.wav,./stim/wavs/castilian_match_interrogative-total-yn_Mariano-habla-del-tiempo.wav,./stim/wavs/chilean_match_interrogative-total-yn_Mariano-habla-del-tiempo.wav,./stim/wavs/cuban_match_interrogative-total-yn_Mariano-habla-del-tiempo.wav,./stim/wavs/mexican_match_interrogative-total-yn_Mariano-habla-del-tiempo.wav,./stim/wavs/peruvian_match_interrogative-total-yn_Mariano-habla-del-tiempo.wav,./stim/wavs/puertorican_match_interrogative-total-yn_Mariano-habla-del-tiempo.wav,,,,,,,,,,,,,,,,,,,,,,,,,,,,,,,,,,,,,,,,,,,,,,,,,,,,,,,,
,,,,,,,5faeb0771929e6000941ecc5,6057c54e64b0b4e5c128b4f9,60589e079a3d8d6c49999254,United States,Northeast,13 or older,no,2021-03-22_09h40.10.414,empathy_intonation_perc,2020.2.10,MacIntel,60,,,,,,,,,,0,andalusian,0,1,2.008825,0,24,24,10,1,11,./stim/wavs/andalusian_match_declarative-narrow-focus_David-leia-el-libro.wav,./stim/wavs/argentine_match_declarative-narrow-focus_David-leia-el-libro.wav,./stim/wavs/castilian_match_declarative-narrow-focus_David-leia-el-libro.wav,./stim/wavs/chilean_match_declarative-narrow-focus_David-leia-el-libro.wav,./stim/wavs/cuban_match_declarative-narrow-focus_David-leia-el-libro.wav,./stim/wavs/mexican_match_declarative-narrow-focus_David-leia-el-libro.wav,./stim/wavs/peruvian_match_declarative-narrow-focus_David-leia-el-libro.wav,./stim/wavs/puertorican_match_declarative-narrow-focus_David-leia-el-libro.wav,,,,,,,,,,,,,,,,,,,,,,,,,,,,,,,,,,,,,,,,,,,,,,,,,,,,,,,,
,,,,,,,5faeb0771929e6000941ecc5,6057c54e64b0b4e5c128b4f9,60589e079a3d8d6c49999254,United States,Northeast,13 or older,no,2021-03-22_09h40.10.414,empathy_intonation_perc,2020.2.10,MacIntel,60,,,,,,,,,,0,puertorican,0,1,2.809175,0,25,25,39,1,40,./stim/wavs/andalusian_mismatch_declarative-broad-focus_Mi-tia-odia-la-lluvia.wav,./stim/wavs/argentine_mismatch_declarative-broad-focus_Mi-tia-odia-la-lluvia.wav,./stim/wavs/castilian_mismatch_declarative-broad-focus_Mi-tia-odia-la-lluvia.wav,./stim/wavs/chilean_mismatch_declarative-broad-focus_Mi-tia-odia-la-lluvia.wav,./stim/wavs/cuban_mismatch_declarative-broad-focus_Mi-tia-odia-la-lluvia.wav,./stim/wavs/mexican_mismatch_declarative-broad-focus_Mi-tia-odia-la-lluvia.wav,./stim/wavs/peruvian_mismatch_declarative-broad-focus_Mi-tia-odia-la-lluvia.wav,./stim/wavs/puertorican_mismatch_declarative-broad-focus_Mi-tia-odia-la-lluvia.wav,,,,,,,,,,,,,,,,,,,,,,,,,,,,,,,,,,,,,,,,,,,,,,,,,,,,,,,,
,,,,,,,5faeb0771929e6000941ecc5,6057c54e64b0b4e5c128b4f9,60589e079a3d8d6c49999254,United States,Northeast,13 or older,no,2021-03-22_09h40.10.414,empathy_intonation_perc,2020.2.10,MacIntel,60,,,,,,,,,,0,peruvian,0,1,2.70946,0,26,26,45,1,46,./stim/wavs/andalusian_mismatch_declarative-narrow-focus_Mi-madre-come-la-fruta.wav,./stim/wavs/argentine_mismatch_declarative-narrow-focus_Mi-madre-come-la-fruta.wav,./stim/wavs/castilian_mismatch_declarative-narrow-focus_Mi-madre-come-la-fruta.wav,./stim/wavs/chilean_mismatch_declarative-narrow-focus_Mi-madre-come-la-fruta.wav,./stim/wavs/cuban_mismatch_declarative-narrow-focus_Mi-madre-come-la-fruta.wav,./stim/wavs/mexican_mismatch_declarative-narrow-focus_Mi-madre-come-la-fruta.wav,./stim/wavs/peruvian_mismatch_declarative-narrow-focus_Mi-madre-come-la-fruta.wav,./stim/wavs/puertorican_mismatch_declarative-narrow-focus_Mi-madre-come-la-fruta.wav,,,,,,,,,,,,,,,,,,,,,,,,,,,,,,,,,,,,,,,,,,,,,,,,,,,,,,,,
,,,,,,,5faeb0771929e6000941ecc5,6057c54e64b0b4e5c128b4f9,60589e079a3d8d6c49999254,United States,Northeast,13 or older,no,2021-03-22_09h40.10.414,empathy_intonation_perc,2020.2.10,MacIntel,60,,,,,,,,,,0,castilian,0,1,2.359145,0,27,27,32,1,33,./stim/wavs/andalusian_mismatch_declarative-broad-focus_El-bebe-comia-muy-bien.wav,./stim/wavs/argentine_mismatch_declarative-broad-focus_El-bebe-comia-muy-bien.wav,./stim/wavs/castilian_mismatch_declarative-broad-focus_El-bebe-comia-muy-bien.wav,./stim/wavs/chilean_mismatch_declarative-broad-focus_El-bebe-comia-muy-bien.wav,./stim/wavs/cuban_mismatch_declarative-broad-focus_El-bebe-comia-muy-bien.wav,./stim/wavs/mexican_mismatch_declarative-broad-focus_El-bebe-comia-muy-bien.wav,./stim/wavs/peruvian_mismatch_declarative-broad-focus_El-bebe-comia-muy-bien.wav,./stim/wavs/puertorican_mismatch_declarative-broad-focus_El-bebe-comia-muy-bien.wav,,,,,,,,,,,,,,,,,,,,,,,,,,,,,,,,,,,,,,,,,,,,,,,,,,,,,,,,
,,,,,,,5faeb0771929e6000941ecc5,6057c54e64b0b4e5c128b4f9,60589e079a3d8d6c49999254,United States,Northeast,13 or older,no,2021-03-22_09h40.10.414,empathy_intonation_perc,2020.2.10,MacIntel,60,,,,,,,,,,1,cuban,0,0,2.02502,0,28,28,22,1,23,./stim/wavs/andalusian_match_interrogative-partial-wh_Por-que-hablaba-del-agua.wav,./stim/wavs/argentine_match_interrogative-partial-wh_Por-que-hablaba-del-agua.wav,./stim/wavs/castilian_match_interrogative-partial-wh_Por-que-hablaba-del-agua.wav,./stim/wavs/chilean_match_interrogative-partial-wh_Por-que-hablaba-del-agua.wav,./stim/wavs/cuban_match_interrogative-partial-wh_Por-que-hablaba-del-agua.wav,./stim/wavs/mexican_match_interrogative-partial-wh_Por-que-hablaba-del-agua.wav,./stim/wavs/peruvian_match_interrogative-partial-wh_Por-que-hablaba-del-agua.wav,./stim/wavs/puertorican_match_interrogative-partial-wh_Por-que-hablaba-del-agua.wav,,,,,,,,,,,,,,,,,,,,,,,,,,,,,,,,,,,,,,,,,,,,,,,,,,,,,,,,
,,,,,,,5faeb0771929e6000941ecc5,6057c54e64b0b4e5c128b4f9,60589e079a3d8d6c49999254,United States,Northeast,13 or older,no,2021-03-22_09h40.10.414,empathy_intonation_perc,2020.2.10,MacIntel,60,,,,,,,,,,1,andalusian,1,1,1.826225,0,29,29,63,1,64,./stim/wavs/andalusian_mismatch_interrogative-total-yn_Mi-tia-odia-la-lluvia.wav,./stim/wavs/argentine_mismatch_interrogative-total-yn_Mi-tia-odia-la-lluvia.wav,./stim/wavs/castilian_mismatch_interrogative-total-yn_Mi-tia-odia-la-lluvia.wav,./stim/wavs/chilean_mismatch_interrogative-total-yn_Mi-tia-odia-la-lluvia.wav,./stim/wavs/cuban_mismatch_interrogative-total-yn_Mi-tia-odia-la-lluvia.wav,./stim/wavs/mexican_mismatch_interrogative-total-yn_Mi-tia-odia-la-lluvia.wav,./stim/wavs/peruvian_mismatch_interrogative-total-yn_Mi-tia-odia-la-lluvia.wav,./stim/wavs/puertorican_mismatch_interrogative-total-yn_Mi-tia-odia-la-lluvia.wav,,,,,,,,,,,,,,,,,,,,,,,,,,,,,,,,,,,,,,,,,,,,,,,,,,,,,,,,
,,,,,,,5faeb0771929e6000941ecc5,6057c54e64b0b4e5c128b4f9,60589e079a3d8d6c49999254,United States,Northeast,13 or older,no,2021-03-22_09h40.10.414,empathy_intonation_perc,2020.2.10,MacIntel,60,,,,,,,,,,1,chilean,1,1,1.76619,0,30,30,54,1,55,./stim/wavs/andalusian_mismatch_interrogative-partial-wh_Por-que-venia-del-lago.wav,./stim/wavs/argentine_mismatch_interrogative-partial-wh_Por-que-venia-del-lago.wav,./stim/wavs/castilian_mismatch_interrogative-partial-wh_Por-que-venia-del-lago.wav,./stim/wavs/chilean_mismatch_interrogative-partial-wh_Por-que-venia-del-lago.wav,./stim/wavs/cuban_mismatch_interrogative-partial-wh_Por-que-venia-del-lago.wav,./stim/wavs/mexican_mismatch_interrogative-partial-wh_Por-que-venia-del-lago.wav,./stim/wavs/peruvian_mismatch_interrogative-partial-wh_Por-que-venia-del-lago.wav,./stim/wavs/puertorican_mismatch_interrogative-partial-wh_Por-que-venia-del-lago.wav,,,,,,,,,,,,,,,,,,,,,,,,,,,,,,,,,,,,,,,,,,,,,,,,,,,,,,,,
,,,,,,,5faeb0771929e6000941ecc5,6057c54e64b0b4e5c128b4f9,60589e079a3d8d6c49999254,United States,Northeast,13 or older,no,2021-03-22_09h40.10.414,empathy_intonation_perc,2020.2.10,MacIntel,60,,,,,,,,,,1,cuban,0,0,1.724855,0,31,31,60,1,61,./stim/wavs/andalusian_mismatch_interrogative-total-yn_La-nina-lava-el-plato.wav,./stim/wavs/argentine_mismatch_interrogative-total-yn_La-nina-lava-el-plato.wav,./stim/wavs/castilian_mismatch_interrogative-total-yn_La-nina-lava-el-plato.wav,./stim/wavs/chilean_mismatch_interrogative-total-yn_La-nina-lava-el-plato.wav,./stim/wavs/cuban_mismatch_interrogative-total-yn_La-nina-lava-el-plato.wav,./stim/wavs/mexican_mismatch_interrogative-total-yn_La-nina-lava-el-plato.wav,./stim/wavs/peruvian_mismatch_interrogative-total-yn_La-nina-lava-el-plato.wav,./stim/wavs/puertorican_mismatch_interrogative-total-yn_La-nina-lava-el-plato.wav,,,,,,,,,,,,,,,,,,,,,,,,,,,,,,,,,,,,,,,,,,,,,,,,,,,,,,,,
,,,,,,,5faeb0771929e6000941ecc5,6057c54e64b0b4e5c128b4f9,60589e079a3d8d6c49999254,United States,Northeast,13 or older,no,2021-03-22_09h40.10.414,empathy_intonation_perc,2020.2.10,MacIntel,60,,,,,,,,,,1,cuban,0,0,1.84328,0,32,32,61,1,62,./stim/wavs/andalusian_mismatch_interrogative-total-yn_Mi-madre-come-la-fruta.wav,./stim/wavs/argentine_mismatch_interrogative-total-yn_Mi-madre-come-la-fruta.wav,./stim/wavs/castilian_mismatch_interrogative-total-yn_Mi-madre-come-la-fruta.wav,./stim/wavs/chilean_mismatch_interrogative-total-yn_Mi-madre-come-la-fruta.wav,./stim/wavs/cuban_mismatch_interrogative-total-yn_Mi-madre-come-la-fruta.wav,./stim/wavs/mexican_mismatch_interrogative-total-yn_Mi-madre-come-la-fruta.wav,./stim/wavs/peruvian_mismatch_interrogative-total-yn_Mi-madre-come-la-fruta.wav,./stim/wavs/puertorican_mismatch_interrogative-total-yn_Mi-madre-come-la-fruta.wav,,,,,,,,,,,,,,,,,,,,,,,,,,,,,,,,,,,,,,,,,,,,,,,,,,,,,,,,
,,,,,,,5faeb0771929e6000941ecc5,6057c54e64b0b4e5c128b4f9,60589e079a3d8d6c49999254,United States,Northeast,13 or older,no,2021-03-22_09h40.10.414,empathy_intonation_perc,2020.2.10,MacIntel,60,,,,,,,,,,0,peruvian,0,1,2.426535,0,33,33,34,1,35,./stim/wavs/andalusian_mismatch_declarative-broad-focus_El-nino-oye-el-rio.wav,./stim/wavs/argentine_mismatch_declarative-broad-focus_El-nino-oye-el-rio.wav,./stim/wavs/castilian_mismatch_declarative-broad-focus_El-nino-oye-el-rio.wav,./stim/wavs/chilean_mismatch_declarative-broad-focus_El-nino-oye-el-rio.wav,./stim/wavs/cuban_mismatch_declarative-broad-focus_El-nino-oye-el-rio.wav,./stim/wavs/mexican_mismatch_declarative-broad-focus_El-nino-oye-el-rio.wav,./stim/wavs/peruvian_mismatch_declarative-broad-focus_El-nino-oye-el-rio.wav,./stim/wavs/puertorican_mismatch_declarative-broad-focus_El-nino-oye-el-rio.wav,,,,,,,,,,,,,,,,,,,,,,,,,,,,,,,,,,,,,,,,,,,,,,,,,,,,,,,,
,,,,,,,5faeb0771929e6000941ecc5,6057c54e64b0b4e5c128b4f9,60589e079a3d8d6c49999254,United States,Northeast,13 or older,no,2021-03-22_09h40.10.414,empathy_intonation_perc,2020.2.10,MacIntel,60,,,,,,,,,,0,argentine,0,1,1.817485,0,34,34,1,1,2,./stim/wavs/andalusian_match_declarative-broad-focus_Daniel-iba-a-Bolivia.wav,./stim/wavs/argentine_match_declarative-broad-focus_Daniel-iba-a-Bolivia.wav,./stim/wavs/castilian_match_declarative-broad-focus_Daniel-iba-a-Bolivia.wav,./stim/wavs/chilean_match_declarative-broad-focus_Daniel-iba-a-Bolivia.wav,./stim/wavs/cuban_match_declarative-broad-focus_Daniel-iba-a-Bolivia.wav,./stim/wavs/mexican_match_declarative-broad-focus_Daniel-iba-a-Bolivia.wav,./stim/wavs/peruvian_match_declarative-broad-focus_Daniel-iba-a-Bolivia.wav,./stim/wavs/puertorican_match_declarative-broad-focus_Daniel-iba-a-Bolivia.wav,,,,,,,,,,,,,,,,,,,,,,,,,,,,,,,,,,,,,,,,,,,,,,,,,,,,,,,,
,,,,,,,5faeb0771929e6000941ecc5,6057c54e64b0b4e5c128b4f9,60589e079a3d8d6c49999254,United States,Northeast,13 or older,no,2021-03-22_09h40.10.414,empathy_intonation_perc,2020.2.10,MacIntel,60,,,,,,,,,,1,argentine,0,0,1.733415,0,35,35,20,1,21,./stim/wavs/andalusian_match_interrogative-partial-wh_Por-que-abre-el-regalo.wav,./stim/wavs/argentine_match_interrogative-partial-wh_Por-que-abre-el-regalo.wav,./stim/wavs/castilian_match_interrogative-partial-wh_Por-que-abre-el-regalo.wav,./stim/wavs/chilean_match_interrogative-partial-wh_Por-que-abre-el-regalo.wav,./stim/wavs/cuban_match_interrogative-partial-wh_Por-que-abre-el-regalo.wav,./stim/wavs/mexican_match_interrogative-partial-wh_Por-que-abre-el-regalo.wav,./stim/wavs/peruvian_match_interrogative-partial-wh_Por-que-abre-el-regalo.wav,./stim/wavs/puertorican_match_interrogative-partial-wh_Por-que-abre-el-regalo.wav,,,,,,,,,,,,,,,,,,,,,,,,,,,,,,,,,,,,,,,,,,,,,,,,,,,,,,,,
,,,,,,,5faeb0771929e6000941ecc5,6057c54e64b0b4e5c128b4f9,60589e079a3d8d6c49999254,United States,Northeast,13 or older,no,2021-03-22_09h40.10.414,empathy_intonation_perc,2020.2.10,MacIntel,60,,,,,,,,,,1,peruvian,0,0,2.247635,0,36,36,18,1,19,./stim/wavs/andalusian_match_interrogative-partial-wh_Cuando-lleva-el-abrigo.wav,./stim/wavs/argentine_match_interrogative-partial-wh_Cuando-lleva-el-abrigo.wav,./stim/wavs/castilian_match_interrogative-partial-wh_Cuando-lleva-el-abrigo.wav,./stim/wavs/chilean_match_interrogative-partial-wh_Cuando-lleva-el-abrigo.wav,./stim/wavs/cuban_match_interrogative-partial-wh_Cuando-lleva-el-abrigo.wav,./stim/wavs/mexican_match_interrogative-partial-wh_Cuando-lleva-el-abrigo.wav,./stim/wavs/peruvian_match_interrogative-partial-wh_Cuando-lleva-el-abrigo.wav,./stim/wavs/puertorican_match_interrogative-partial-wh_Cuando-lleva-el-abrigo.wav,,,,,,,,,,,,,,,,,,,,,,,,,,,,,,,,,,,,,,,,,,,,,,,,,,,,,,,,
,,,,,,,5faeb0771929e6000941ecc5,6057c54e64b0b4e5c128b4f9,60589e079a3d8d6c49999254,United States,Northeast,13 or older,no,2021-03-22_09h40.10.414,empathy_intonation_perc,2020.2.10,MacIntel,60,,,,,,,,,,1,argentine,1,1,2.367715,0,37,37,55,1,56,./stim/wavs/andalusian_mismatch_interrogative-partial-wh_Por-que-vivia-en-Paris.wav,./stim/wavs/argentine_mismatch_interrogative-partial-wh_Por-que-vivia-en-Paris.wav,./stim/wavs/castilian_mismatch_interrogative-partial-wh_Por-que-vivia-en-Paris.wav,./stim/wavs/chilean_mismatch_interrogative-partial-wh_Por-que-vivia-en-Paris.wav,./stim/wavs/cuban_mismatch_interrogative-partial-wh_Por-que-vivia-en-Paris.wav,./stim/wavs/mexican_mismatch_interrogative-partial-wh_Por-que-vivia-en-Paris.wav,./stim/wavs/peruvian_mismatch_interrogative-partial-wh_Por-que-vivia-en-Paris.wav,./stim/wavs/puertorican_mismatch_interrogative-partial-wh_Por-que-vivia-en-Paris.wav,,,,,,,,,,,,,,,,,,,,,,,,,,,,,,,,,,,,,,,,,,,,,,,,,,,,,,,,
,,,,,,,5faeb0771929e6000941ecc5,6057c54e64b0b4e5c128b4f9,60589e079a3d8d6c49999254,United States,Northeast,13 or older,no,2021-03-22_09h40.10.414,empathy_intonation_perc,2020.2.10,MacIntel,60,,,,,,,,,,1,cuban,0,0,2.176045,0,38,38,27,1,28,./stim/wavs/andalusian_match_interrogative-total-yn_Emilio-ama-la-marcha.wav,./stim/wavs/argentine_match_interrogative-total-yn_Emilio-ama-la-marcha.wav,./stim/wavs/castilian_match_interrogative-total-yn_Emilio-ama-la-marcha.wav,./stim/wavs/chilean_match_interrogative-total-yn_Emilio-ama-la-marcha.wav,./stim/wavs/cuban_match_interrogative-total-yn_Emilio-ama-la-marcha.wav,./stim/wavs/mexican_match_interrogative-total-yn_Emilio-ama-la-marcha.wav,./stim/wavs/peruvian_match_interrogative-total-yn_Emilio-ama-la-marcha.wav,./stim/wavs/puertorican_match_interrogative-total-yn_Emilio-ama-la-marcha.wav,,,,,,,,,,,,,,,,,,,,,,,,,,,,,,,,,,,,,,,,,,,,,,,,,,,,,,,,
,,,,,,,5faeb0771929e6000941ecc5,6057c54e64b0b4e5c128b4f9,60589e079a3d8d6c49999254,United States,Northeast,13 or older,no,2021-03-22_09h40.10.414,empathy_intonation_perc,2020.2.10,MacIntel,60,,,,,,,,,,1,cuban,1,1,1.59188,0,39,39,50,1,51,./stim/wavs/andalusian_mismatch_interrogative-partial-wh_Cuando-miraba-la-luna.wav,./stim/wavs/argentine_mismatch_interrogative-partial-wh_Cuando-miraba-la-luna.wav,./stim/wavs/castilian_mismatch_interrogative-partial-wh_Cuando-miraba-la-luna.wav,./stim/wavs/chilean_mismatch_interrogative-partial-wh_Cuando-miraba-la-luna.wav,./stim/wavs/cuban_mismatch_interrogative-partial-wh_Cuando-miraba-la-luna.wav,./stim/wavs/mexican_mismatch_interrogative-partial-wh_Cuando-miraba-la-luna.wav,./stim/wavs/peruvian_mismatch_interrogative-partial-wh_Cuando-miraba-la-luna.wav,./stim/wavs/puertorican_mismatch_interrogative-partial-wh_Cuando-miraba-la-luna.wav,,,,,,,,,,,,,,,,,,,,,,,,,,,,,,,,,,,,,,,,,,,,,,,,,,,,,,,,
,,,,,,,5faeb0771929e6000941ecc5,6057c54e64b0b4e5c128b4f9,60589e079a3d8d6c49999254,United States,Northeast,13 or older,no,2021-03-22_09h40.10.414,empathy_intonation_perc,2020.2.10,MacIntel,60,,,,,,,,,,0,mexican,0,1,1.83376,0,40,40,46,1,47,./stim/wavs/andalusian_mismatch_declarative-narrow-focus_Mi-novio-viene-del-lago.wav,./stim/wavs/argentine_mismatch_declarative-narrow-focus_Mi-novio-viene-del-lago.wav,./stim/wavs/castilian_mismatch_declarative-narrow-focus_Mi-novio-viene-del-lago.wav,./stim/wavs/chilean_mismatch_declarative-narrow-focus_Mi-novio-viene-del-lago.wav,./stim/wavs/cuban_mismatch_declarative-narrow-focus_Mi-novio-viene-del-lago.wav,./stim/wavs/mexican_mismatch_declarative-narrow-focus_Mi-novio-viene-del-lago.wav,./stim/wavs/peruvian_mismatch_declarative-narrow-focus_Mi-novio-viene-del-lago.wav,./stim/wavs/puertorican_mismatch_declarative-narrow-focus_Mi-novio-viene-del-lago.wav,,,,,,,,,,,,,,,,,,,,,,,,,,,,,,,,,,,,,,,,,,,,,,,,,,,,,,,,
,,,,,,,5faeb0771929e6000941ecc5,6057c54e64b0b4e5c128b4f9,60589e079a3d8d6c49999254,United States,Northeast,13 or older,no,2021-03-22_09h40.10.414,empathy_intonation_perc,2020.2.10,MacIntel,60,,,,,,,,,,1,andalusian,0,0,2.007235,0,41,41,59,1,60,./stim/wavs/andalusian_mismatch_interrogative-total-yn_La-maestra-vive-en-Paris.wav,./stim/wavs/argentine_mismatch_interrogative-total-yn_La-maestra-vive-en-Paris.wav,./stim/wavs/castilian_mismatch_interrogative-total-yn_La-maestra-vive-en-Paris.wav,./stim/wavs/chilean_mismatch_interrogative-total-yn_La-maestra-vive-en-Paris.wav,./stim/wavs/cuban_mismatch_interrogative-total-yn_La-maestra-vive-en-Paris.wav,./stim/wavs/mexican_mismatch_interrogative-total-yn_La-maestra-vive-en-Paris.wav,./stim/wavs/peruvian_mismatch_interrogative-total-yn_La-maestra-vive-en-Paris.wav,./stim/wavs/puertorican_mismatch_interrogative-total-yn_La-maestra-vive-en-Paris.wav,,,,,,,,,,,,,,,,,,,,,,,,,,,,,,,,,,,,,,,,,,,,,,,,,,,,,,,,
,,,,,,,5faeb0771929e6000941ecc5,6057c54e64b0b4e5c128b4f9,60589e079a3d8d6c49999254,United States,Northeast,13 or older,no,2021-03-22_09h40.10.414,empathy_intonation_perc,2020.2.10,MacIntel,60,,,,,,,,,,1,puertorican,1,1,2.41059,0,42,42,51,1,52,./stim/wavs/andalusian_mismatch_interrogative-partial-wh_Por-que-desayuna-muy-bien.wav,./stim/wavs/argentine_mismatch_interrogative-partial-wh_Por-que-desayuna-muy-bien.wav,./stim/wavs/castilian_mismatch_interrogative-partial-wh_Por-que-desayuna-muy-bien.wav,./stim/wavs/chilean_mismatch_interrogative-partial-wh_Por-que-desayuna-muy-bien.wav,./stim/wavs/cuban_mismatch_interrogative-partial-wh_Por-que-desayuna-muy-bien.wav,./stim/wavs/mexican_mismatch_interrogative-partial-wh_Por-que-desayuna-muy-bien.wav,./stim/wavs/peruvian_mismatch_interrogative-partial-wh_Por-que-desayuna-muy-bien.wav,./stim/wavs/puertorican_mismatch_interrogative-partial-wh_Por-que-desayuna-muy-bien.wav,,,,,,,,,,,,,,,,,,,,,,,,,,,,,,,,,,,,,,,,,,,,,,,,,,,,,,,,
,,,,,,,5faeb0771929e6000941ecc5,6057c54e64b0b4e5c128b4f9,60589e079a3d8d6c49999254,United States,Northeast,13 or older,no,2021-03-22_09h40.10.414,empathy_intonation_perc,2020.2.10,MacIntel,60,,,,,,,,,,1,mexican,1,1,1.83674,0,43,43,21,1,22,./stim/wavs/andalusian_match_interrogative-partial-wh_Por-que-ama-la-navidad.wav,./stim/wavs/argentine_match_interrogative-partial-wh_Por-que-ama-la-navidad.wav,./stim/wavs/castilian_match_interrogative-partial-wh_Por-que-ama-la-navidad.wav,./stim/wavs/chilean_match_interrogative-partial-wh_Por-que-ama-la-navidad.wav,./stim/wavs/cuban_match_interrogative-partial-wh_Por-que-ama-la-navidad.wav,./stim/wavs/mexican_match_interrogative-partial-wh_Por-que-ama-la-navidad.wav,./stim/wavs/peruvian_match_interrogative-partial-wh_Por-que-ama-la-navidad.wav,./stim/wavs/puertorican_match_interrogative-partial-wh_Por-que-ama-la-navidad.wav,,,,,,,,,,,,,,,,,,,,,,,,,,,,,,,,,,,,,,,,,,,,,,,,,,,,,,,,
,,,,,,,5faeb0771929e6000941ecc5,6057c54e64b0b4e5c128b4f9,60589e079a3d8d6c49999254,United States,Northeast,13 or older,no,2021-03-22_09h40.10.414,empathy_intonation_perc,2020.2.10,MacIntel,60,,,,,,,,,,0,cuban,0,1,2.05847,0,44,44,6,1,7,./stim/wavs/andalusian_match_declarative-broad-focus_Mariano-habla-del-tiempo.wav,./stim/wavs/argentine_match_declarative-broad-focus_Mariano-habla-del-tiempo.wav,./stim/wavs/castilian_match_declarative-broad-focus_Mariano-habla-del-tiempo.wav,./stim/wavs/chilean_match_declarative-broad-focus_Mariano-habla-del-tiempo.wav,./stim/wavs/cuban_match_declarative-broad-focus_Mariano-habla-del-tiempo.wav,./stim/wavs/mexican_match_declarative-broad-focus_Mariano-habla-del-tiempo.wav,./stim/wavs/peruvian_match_declarative-broad-focus_Mariano-habla-del-tiempo.wav,./stim/wavs/puertorican_match_declarative-broad-focus_Mariano-habla-del-tiempo.wav,,,,,,,,,,,,,,,,,,,,,,,,,,,,,,,,,,,,,,,,,,,,,,,,,,,,,,,,
,,,,,,,5faeb0771929e6000941ecc5,6057c54e64b0b4e5c128b4f9,60589e079a3d8d6c49999254,United States,Northeast,13 or older,no,2021-03-22_09h40.10.414,empathy_intonation_perc,2020.2.10,MacIntel,60,,,,,,,,,,0,castilian,0,1,2.175555,0,45,45,43,1,44,./stim/wavs/andalusian_mismatch_declarative-narrow-focus_La-maestra-vive-en-Paris.wav,./stim/wavs/argentine_mismatch_declarative-narrow-focus_La-maestra-vive-en-Paris.wav,./stim/wavs/castilian_mismatch_declarative-narrow-focus_La-maestra-vive-en-Paris.wav,./stim/wavs/chilean_mismatch_declarative-narrow-focus_La-maestra-vive-en-Paris.wav,./stim/wavs/cuban_mismatch_declarative-narrow-focus_La-maestra-vive-en-Paris.wav,./stim/wavs/mexican_mismatch_declarative-narrow-focus_La-maestra-vive-en-Paris.wav,./stim/wavs/peruvian_mismatch_declarative-narrow-focus_La-maestra-vive-en-Paris.wav,./stim/wavs/puertorican_mismatch_declarative-narrow-focus_La-maestra-vive-en-Paris.wav,,,,,,,,,,,,,,,,,,,,,,,,,,,,,,,,,,,,,,,,,,,,,,,,,,,,,,,,
,,,,,,,5faeb0771929e6000941ecc5,6057c54e64b0b4e5c128b4f9,60589e079a3d8d6c49999254,United States,Northeast,13 or older,no,2021-03-22_09h40.10.414,empathy_intonation_perc,2020.2.10,MacIntel,60,,,,,,,,,,0,andalusian,0,1,1.800665,0,46,46,7,1,8,./stim/wavs/andalusian_match_declarative-broad-focus_Marta-abre-el-regalo.wav,./stim/wavs/argentine_match_declarative-broad-focus_Marta-abre-el-regalo.wav,./stim/wavs/castilian_match_declarative-broad-focus_Marta-abre-el-regalo.wav,./stim/wavs/chilean_match_declarative-broad-focus_Marta-abre-el-regalo.wav,./stim/wavs/cuban_match_declarative-broad-focus_Marta-abre-el-regalo.wav,./stim/wavs/mexican_match_declarative-broad-focus_Marta-abre-el-regalo.wav,./stim/wavs/peruvian_match_declarative-broad-focus_Marta-abre-el-regalo.wav,./stim/wavs/puertorican_match_declarative-broad-focus_Marta-abre-el-regalo.wav,,,,,,,,,,,,,,,,,,,,,,,,,,,,,,,,,,,,,,,,,,,,,,,,,,,,,,,,
,,,,,,,5faeb0771929e6000941ecc5,6057c54e64b0b4e5c128b4f9,60589e079a3d8d6c49999254,United States,Northeast,13 or older,no,2021-03-22_09h40.10.414,empathy_intonation_perc,2020.2.10,MacIntel,60,,,,,,,,,,0,andalusian,0,1,1.79209,0,47,47,15,1,16,./stim/wavs/andalusian_match_declarative-narrow-focus_Marta-abre-el-regalo.wav,./stim/wavs/argentine_match_declarative-narrow-focus_Marta-abre-el-regalo.wav,./stim/wavs/castilian_match_declarative-narrow-focus_Marta-abre-el-regalo.wav,./stim/wavs/chilean_match_declarative-narrow-focus_Marta-abre-el-regalo.wav,./stim/wavs/cuban_match_declarative-narrow-focus_Marta-abre-el-regalo.wav,./stim/wavs/mexican_match_declarative-narrow-focus_Marta-abre-el-regalo.wav,./stim/wavs/peruvian_match_declarative-narrow-focus_Marta-abre-el-regalo.wav,./stim/wavs/puertorican_match_declarative-narrow-focus_Marta-abre-el-regalo.wav,,,,,,,,,,,,,,,,,,,,,,,,,,,,,,,,,,,,,,,,,,,,,,,,,,,,,,,,
,,,,,,,5faeb0771929e6000941ecc5,6057c54e64b0b4e5c128b4f9,60589e079a3d8d6c49999254,United States,Northeast,13 or older,no,2021-03-22_09h40.10.414,empathy_intonation_perc,2020.2.10,MacIntel,60,,,,,,,,,,1,mexican,0,0,2.04912,0,48,48,25,1,26,./stim/wavs/andalusian_match_interrogative-total-yn_Daniel-iba-a-Bolivia.wav,./stim/wavs/argentine_match_interrogative-total-yn_Daniel-iba-a-Bolivia.wav,./stim/wavs/castilian_match_interrogative-total-yn_Daniel-iba-a-Bolivia.wav,./stim/wavs/chilean_match_interrogative-total-yn_Daniel-iba-a-Bolivia.wav,./stim/wavs/cuban_match_interrogative-total-yn_Daniel-iba-a-Bolivia.wav,./stim/wavs/mexican_match_interrogative-total-yn_Daniel-iba-a-Bolivia.wav,./stim/wavs/peruvian_match_interrogative-total-yn_Daniel-iba-a-Bolivia.wav,./stim/wavs/puertorican_match_interrogative-total-yn_Daniel-iba-a-Bolivia.wav,,,,,,,,,,,,,,,,,,,,,,,,,,,,,,,,,,,,,,,,,,,,,,,,,,,,,,,,
,,,,,,,5faeb0771929e6000941ecc5,6057c54e64b0b4e5c128b4f9,60589e079a3d8d6c49999254,United States,Northeast,13 or older,no,2021-03-22_09h40.10.414,empathy_intonation_perc,2020.2.10,MacIntel,60,,,,,,,,,,1,mexican,0,0,2.5371,0,49,49,28,1,29,./stim/wavs/andalusian_match_interrogative-total-yn_Manuela-vende-el-carro.wav,./stim/wavs/argentine_match_interrogative-total-yn_Manuela-vende-el-carro.wav,./stim/wavs/castilian_match_interrogative-total-yn_Manuela-vende-el-carro.wav,./stim/wavs/chilean_match_interrogative-total-yn_Manuela-vende-el-carro.wav,./stim/wavs/cuban_match_interrogative-total-yn_Manuela-vende-el-carro.wav,./stim/wavs/mexican_match_interrogative-total-yn_Manuela-vende-el-carro.wav,./stim/wavs/peruvian_match_interrogative-total-yn_Manuela-vende-el-carro.wav,./stim/wavs/puertorican_match_interrogative-total-yn_Manuela-vende-el-carro.wav,,,,,,,,,,,,,,,,,,,,,,,,,,,,,,,,,,,,,,,,,,,,,,,,,,,,,,,,
,,,,,,,5faeb0771929e6000941ecc5,6057c54e64b0b4e5c128b4f9,60589e079a3d8d6c49999254,United States,Northeast,13 or older,no,2021-03-22_09h40.10.414,empathy_intonation_perc,2020.2.10,MacIntel,60,,,,,,,,,,0,castilian,0,1,1.90822,0,50,50,33,1,34,./stim/wavs/andalusian_mismatch_declarative-broad-focus_El-hombre-mira-la-luna.wav,./stim/wavs/argentine_mismatch_declarative-broad-focus_El-hombre-mira-la-luna.wav,./stim/wavs/castilian_mismatch_declarative-broad-focus_El-hombre-mira-la-luna.wav,./stim/wavs/chilean_mismatch_declarative-broad-focus_El-hombre-mira-la-luna.wav,./stim/wavs/cuban_mismatch_declarative-broad-focus_El-hombre-mira-la-luna.wav,./stim/wavs/mexican_mismatch_declarative-broad-focus_El-hombre-mira-la-luna.wav,./stim/wavs/peruvian_mismatch_declarative-broad-focus_El-hombre-mira-la-luna.wav,./stim/wavs/puertorican_mismatch_declarative-broad-focus_El-hombre-mira-la-luna.wav,,,,,,,,,,,,,,,,,,,,,,,,,,,,,,,,,,,,,,,,,,,,,,,,,,,,,,,,
,,,,,,,5faeb0771929e6000941ecc5,6057c54e64b0b4e5c128b4f9,60589e079a3d8d6c49999254,United States,Northeast,13 or older,no,2021-03-22_09h40.10.414,empathy_intonation_perc,2020.2.10,MacIntel,60,,,,,,,,,,1,mexican,1,1,1.952285,0,51,51,29,1,30,./stim/wavs/andalusian_match_interrogative-total-yn_Maria-bebe-el-vino.wav,./stim/wavs/argentine_match_interrogative-total-yn_Maria-bebe-el-vino.wav,./stim/wavs/castilian_match_interrogative-total-yn_Maria-bebe-el-vino.wav,./stim/wavs/chilean_match_interrogative-total-yn_Maria-bebe-el-vino.wav,./stim/wavs/cuban_match_interrogative-total-yn_Maria-bebe-el-vino.wav,./stim/wavs/mexican_match_interrogative-total-yn_Maria-bebe-el-vino.wav,./stim/wavs/peruvian_match_interrogative-total-yn_Maria-bebe-el-vino.wav,./stim/wavs/puertorican_match_interrogative-total-yn_Maria-bebe-el-vino.wav,,,,,,,,,,,,,,,,,,,,,,,,,,,,,,,,,,,,,,,,,,,,,,,,,,,,,,,,
,,,,,,,5faeb0771929e6000941ecc5,6057c54e64b0b4e5c128b4f9,60589e079a3d8d6c49999254,United States,Northeast,13 or older,no,2021-03-22_09h40.10.414,empathy_intonation_perc,2020.2.10,MacIntel,60,,,,,,,,,,1,andalusian,1,1,1.83884,0,52,52,26,1,27,./stim/wavs/andalusian_match_interrogative-total-yn_David-leia-el-libro.wav,./stim/wavs/argentine_match_interrogative-total-yn_David-leia-el-libro.wav,./stim/wavs/castilian_match_interrogative-total-yn_David-leia-el-libro.wav,./stim/wavs/chilean_match_interrogative-total-yn_David-leia-el-libro.wav,./stim/wavs/cuban_match_interrogative-total-yn_David-leia-el-libro.wav,./stim/wavs/mexican_match_interrogative-total-yn_David-leia-el-libro.wav,./stim/wavs/peruvian_match_interrogative-total-yn_David-leia-el-libro.wav,./stim/wavs/puertorican_match_interrogative-total-yn_David-leia-el-libro.wav,,,,,,,,,,,,,,,,,,,,,,,,,,,,,,,,,,,,,,,,,,,,,,,,,,,,,,,,
,,,,,,,5faeb0771929e6000941ecc5,6057c54e64b0b4e5c128b4f9,60589e079a3d8d6c49999254,United States,Northeast,13 or older,no,2021-03-22_09h40.10.414,empathy_intonation_perc,2020.2.10,MacIntel,60,,,,,,,,,,0,peruvian,0,1,2.010625,0,53,53,3,1,4,./stim/wavs/andalusian_match_declarative-broad-focus_Emilio-ama-la-marcha.wav,./stim/wavs/argentine_match_declarative-broad-focus_Emilio-ama-la-marcha.wav,./stim/wavs/castilian_match_declarative-broad-focus_Emilio-ama-la-marcha.wav,./stim/wavs/chilean_match_declarative-broad-focus_Emilio-ama-la-marcha.wav,./stim/wavs/cuban_match_declarative-broad-focus_Emilio-ama-la-marcha.wav,./stim/wavs/mexican_match_declarative-broad-focus_Emilio-ama-la-marcha.wav,./stim/wavs/peruvian_match_declarative-broad-focus_Emilio-ama-la-marcha.wav,./stim/wavs/puertorican_match_declarative-broad-focus_Emilio-ama-la-marcha.wav,,,,,,,,,,,,,,,,,,,,,,,,,,,,,,,,,,,,,,,,,,,,,,,,,,,,,,,,
,,,,,,,5faeb0771929e6000941ecc5,6057c54e64b0b4e5c128b4f9,60589e079a3d8d6c49999254,United States,Northeast,13 or older,no,2021-03-22_09h40.10.414,empathy_intonation_perc,2020.2.10,MacIntel,60,,,,,,,,,,1,mexican,1,1,1.7595,0,54,54,49,1,50,./stim/wavs/andalusian_mismatch_interrogative-partial-wh_Cuando-lavaba-el-plato.wav,./stim/wavs/argentine_mismatch_interrogative-partial-wh_Cuando-lavaba-el-plato.wav,./stim/wavs/castilian_mismatch_interrogative-partial-wh_Cuando-lavaba-el-plato.wav,./stim/wavs/chilean_mismatch_interrogative-partial-wh_Cuando-lavaba-el-plato.wav,./stim/wavs/cuban_mismatch_interrogative-partial-wh_Cuando-lavaba-el-plato.wav,./stim/wavs/mexican_mismatch_interrogative-partial-wh_Cuando-lavaba-el-plato.wav,./stim/wavs/peruvian_mismatch_interrogative-partial-wh_Cuando-lavaba-el-plato.wav,./stim/wavs/puertorican_mismatch_interrogative-partial-wh_Cuando-lavaba-el-plato.wav,,,,,,,,,,,,,,,,,,,,,,,,,,,,,,,,,,,,,,,,,,,,,,,,,,,,,,,,
,,,,,,,5faeb0771929e6000941ecc5,6057c54e64b0b4e5c128b4f9,60589e079a3d8d6c49999254,United States,Northeast,13 or older,no,2021-03-22_09h40.10.414,empathy_intonation_perc,2020.2.10,MacIntel,60,,,,,,,,,,0,castilian,0,1,1.78642,0,55,55,5,1,6,./stim/wavs/andalusian_match_declarative-broad-focus_Maria-bebe-el-vino.wav,./stim/wavs/argentine_match_declarative-broad-focus_Maria-bebe-el-vino.wav,./stim/wavs/castilian_match_declarative-broad-focus_Maria-bebe-el-vino.wav,./stim/wavs/chilean_match_declarative-broad-focus_Maria-bebe-el-vino.wav,./stim/wavs/cuban_match_declarative-broad-focus_Maria-bebe-el-vino.wav,./stim/wavs/mexican_match_declarative-broad-focus_Maria-bebe-el-vino.wav,./stim/wavs/peruvian_match_declarative-broad-focus_Maria-bebe-el-vino.wav,./stim/wavs/puertorican_match_declarative-broad-focus_Maria-bebe-el-vino.wav,,,,,,,,,,,,,,,,,,,,,,,,,,,,,,,,,,,,,,,,,,,,,,,,,,,,,,,,
,,,,,,,5faeb0771929e6000941ecc5,6057c54e64b0b4e5c128b4f9,60589e079a3d8d6c49999254,United States,Northeast,13 or older,no,2021-03-22_09h40.10.414,empathy_intonation_perc,2020.2.10,MacIntel,60,,,,,,,,,,1,mexican,1,1,1.54258,0,56,56,17,1,18,./stim/wavs/andalusian_match_interrogative-partial-wh_Cuando-leia-el-libro.wav,./stim/wavs/argentine_match_interrogative-partial-wh_Cuando-leia-el-libro.wav,./stim/wavs/castilian_match_interrogative-partial-wh_Cuando-leia-el-libro.wav,./stim/wavs/chilean_match_interrogative-partial-wh_Cuando-leia-el-libro.wav,./stim/wavs/cuban_match_interrogative-partial-wh_Cuando-leia-el-libro.wav,./stim/wavs/mexican_match_interrogative-partial-wh_Cuando-leia-el-libro.wav,./stim/wavs/peruvian_match_interrogative-partial-wh_Cuando-leia-el-libro.wav,./stim/wavs/puertorican_match_interrogative-partial-wh_Cuando-leia-el-libro.wav,,,,,,,,,,,,,,,,,,,,,,,,,,,,,,,,,,,,,,,,,,,,,,,,,,,,,,,,
,,,,,,,5faeb0771929e6000941ecc5,6057c54e64b0b4e5c128b4f9,60589e079a3d8d6c49999254,United States,Northeast,13 or older,no,2021-03-22_09h40.10.414,empathy_intonation_perc,2020.2.10,MacIntel,60,,,,,,,,,,1,mexican,1,1,1.53289,0,57,57,19,1,20,./stim/wavs/andalusian_match_interrogative-partial-wh_Cuando-vendia-el-carro.wav,./stim/wavs/argentine_match_interrogative-partial-wh_Cuando-vendia-el-carro.wav,./stim/wavs/castilian_match_interrogative-partial-wh_Cuando-vendia-el-carro.wav,./stim/wavs/chilean_match_interrogative-partial-wh_Cuando-vendia-el-carro.wav,./stim/wavs/cuban_match_interrogative-partial-wh_Cuando-vendia-el-carro.wav,./stim/wavs/mexican_match_interrogative-partial-wh_Cuando-vendia-el-carro.wav,./stim/wavs/peruvian_match_interrogative-partial-wh_Cuando-vendia-el-carro.wav,./stim/wavs/puertorican_match_interrogative-partial-wh_Cuando-vendia-el-carro.wav,,,,,,,,,,,,,,,,,,,,,,,,,,,,,,,,,,,,,,,,,,,,,,,,,,,,,,,,
,,,,,,,5faeb0771929e6000941ecc5,6057c54e64b0b4e5c128b4f9,60589e079a3d8d6c49999254,United States,Northeast,13 or older,no,2021-03-22_09h40.10.414,empathy_intonation_perc,2020.2.10,MacIntel,60,,,,,,,,,,1,mexican,1,1,1.94263,0,58,58,62,1,63,./stim/wavs/andalusian_mismatch_interrogative-total-yn_Mi-novio-viene-del-lago.wav,./stim/wavs/argentine_mismatch_interrogative-total-yn_Mi-novio-viene-del-lago.wav,./stim/wavs/castilian_mismatch_interrogative-total-yn_Mi-novio-viene-del-lago.wav,./stim/wavs/chilean_mismatch_interrogative-total-yn_Mi-novio-viene-del-lago.wav,./stim/wavs/cuban_mismatch_interrogative-total-yn_Mi-novio-viene-del-lago.wav,./stim/wavs/mexican_mismatch_interrogative-total-yn_Mi-novio-viene-del-lago.wav,./stim/wavs/peruvian_mismatch_interrogative-total-yn_Mi-novio-viene-del-lago.wav,./stim/wavs/puertorican_mismatch_interrogative-total-yn_Mi-novio-viene-del-lago.wav,,,,,,,,,,,,,,,,,,,,,,,,,,,,,,,,,,,,,,,,,,,,,,,,,,,,,,,,
,,,,,,,5faeb0771929e6000941ecc5,6057c54e64b0b4e5c128b4f9,60589e079a3d8d6c49999254,United States,Northeast,13 or older,no,2021-03-22_09h40.10.414,empathy_intonation_perc,2020.2.10,MacIntel,60,,,,,,,,,,1,cuban,1,1,1.80347,0,59,59,57,1,58,./stim/wavs/andalusian_mismatch_interrogative-total-yn_El-hombre-mira-la-luna.wav,./stim/wavs/argentine_mismatch_interrogative-total-yn_El-hombre-mira-la-luna.wav,./stim/wavs/castilian_mismatch_interrogative-total-yn_El-hombre-mira-la-luna.wav,./stim/wavs/chilean_mismatch_interrogative-total-yn_El-hombre-mira-la-luna.wav,./stim/wavs/cuban_mismatch_interrogative-total-yn_El-hombre-mira-la-luna.wav,./stim/wavs/mexican_mismatch_interrogative-total-yn_El-hombre-mira-la-luna.wav,./stim/wavs/peruvian_mismatch_interrogative-total-yn_El-hombre-mira-la-luna.wav,./stim/wavs/puertorican_mismatch_interrogative-total-yn_El-hombre-mira-la-luna.wav,,,,,,,,,,,,,,,,,,,,,,,,,,,,,,,,,,,,,,,,,,,,,,,,,,,,,,,,
,,,,,,,5faeb0771929e6000941ecc5,6057c54e64b0b4e5c128b4f9,60589e079a3d8d6c49999254,United States,Northeast,13 or older,no,2021-03-22_09h40.10.414,empathy_intonation_perc,2020.2.10,MacIntel,60,,,,,,,,,,1,argentine,1,1,1.83302,0,60,60,52,1,53,./stim/wavs/andalusian_mismatch_interrogative-partial-wh_Por-que-odiaba-la-lluvia.wav,./stim/wavs/argentine_mismatch_interrogative-partial-wh_Por-que-odiaba-la-lluvia.wav,./stim/wavs/castilian_mismatch_interrogative-partial-wh_Por-que-odiaba-la-lluvia.wav,./stim/wavs/chilean_mismatch_interrogative-partial-wh_Por-que-odiaba-la-lluvia.wav,./stim/wavs/cuban_mismatch_interrogative-partial-wh_Por-que-odiaba-la-lluvia.wav,./stim/wavs/mexican_mismatch_interrogative-partial-wh_Por-que-odiaba-la-lluvia.wav,./stim/wavs/peruvian_mismatch_interrogative-partial-wh_Por-que-odiaba-la-lluvia.wav,./stim/wavs/puertorican_mismatch_interrogative-partial-wh_Por-que-odiaba-la-lluvia.wav,,,,,,,,,,,,,,,,,,,,,,,,,,,,,,,,,,,,,,,,,,,,,,,,,,,,,,,,
,,,,,,,5faeb0771929e6000941ecc5,6057c54e64b0b4e5c128b4f9,60589e079a3d8d6c49999254,United States,Northeast,13 or older,no,2021-03-22_09h40.10.414,empathy_intonation_perc,2020.2.10,MacIntel,60,,,,,,,,,,1,mexican,1,1,1.80659,0,61,61,24,1,25,./stim/wavs/andalusian_match_interrogative-total-yn_Ana-lleva-el-abrigo.wav,./stim/wavs/argentine_match_interrogative-total-yn_Ana-lleva-el-abrigo.wav,./stim/wavs/castilian_match_interrogative-total-yn_Ana-lleva-el-abrigo.wav,./stim/wavs/chilean_match_interrogative-total-yn_Ana-lleva-el-abrigo.wav,./stim/wavs/cuban_match_interrogative-total-yn_Ana-lleva-el-abrigo.wav,./stim/wavs/mexican_match_interrogative-total-yn_Ana-lleva-el-abrigo.wav,./stim/wavs/peruvian_match_interrogative-total-yn_Ana-lleva-el-abrigo.wav,./stim/wavs/puertorican_match_interrogative-total-yn_Ana-lleva-el-abrigo.wav,,,,,,,,,,,,,,,,,,,,,,,,,,,,,,,,,,,,,,,,,,,,,,,,,,,,,,,,
,,,,,,,5faeb0771929e6000941ecc5,6057c54e64b0b4e5c128b4f9,60589e079a3d8d6c49999254,United States,Northeast,13 or older,no,2021-03-22_09h40.10.414,empathy_intonation_perc,2020.2.10,MacIntel,60,,,,,,,,,,1,peruvian,1,1,2.0673,0,62,62,48,1,49,./stim/wavs/andalusian_mismatch_interrogative-partial-wh_Cuando-comia-la-fruta.wav,./stim/wavs/argentine_mismatch_interrogative-partial-wh_Cuando-comia-la-fruta.wav,./stim/wavs/castilian_mismatch_interrogative-partial-wh_Cuando-comia-la-fruta.wav,./stim/wavs/chilean_mismatch_interrogative-partial-wh_Cuando-comia-la-fruta.wav,./stim/wavs/cuban_mismatch_interrogative-partial-wh_Cuando-comia-la-fruta.wav,./stim/wavs/mexican_mismatch_interrogative-partial-wh_Cuando-comia-la-fruta.wav,./stim/wavs/peruvian_mismatch_interrogative-partial-wh_Cuando-comia-la-fruta.wav,./stim/wavs/puertorican_mismatch_interrogative-partial-wh_Cuando-comia-la-fruta.wav,,,,,,,,,,,,,,,,,,,,,,,,,,,,,,,,,,,,,,,,,,,,,,,,,,,,,,,,
,,,,,,,5faeb0771929e6000941ecc5,6057c54e64b0b4e5c128b4f9,60589e079a3d8d6c49999254,United States,Northeast,13 or older,no,2021-03-22_09h40.10.414,empathy_intonation_perc,2020.2.10,MacIntel,60,,,,,,,,,,0,puertorican,0,1,1.734215,0,63,63,12,1,13,./stim/wavs/andalusian_match_declarative-narrow-focus_Manuela-vende-el-carro.wav,./stim/wavs/argentine_match_declarative-narrow-focus_Manuela-vende-el-carro.wav,./stim/wavs/castilian_match_declarative-narrow-focus_Manuela-vende-el-carro.wav,./stim/wavs/chilean_match_declarative-narrow-focus_Manuela-vende-el-carro.wav,./stim/wavs/cuban_match_declarative-narrow-focus_Manuela-vende-el-carro.wav,./stim/wavs/mexican_match_declarative-narrow-focus_Manuela-vende-el-carro.wav,./stim/wavs/peruvian_match_declarative-narrow-focus_Manuela-vende-el-carro.wav,./stim/wavs/puertorican_match_declarative-narrow-focus_Manuela-vende-el-carro.wav,,,,,,,,,,,,,,,,,,,,,,,,,,,,,,,,,,,,,,,,,,,,,,,,,,,,,,,,
,,,,,,,5faeb0771929e6000941ecc5,6057c54e64b0b4e5c128b4f9,60589e079a3d8d6c49999254,United States,Northeast,13 or older,no,2021-03-22_09h40.10.414,empathy_intonation_perc,2020.2.10,MacIntel,60,,,,,,,,,,,,,,,,,,,,,,,,,,,,,h,1,27.14534,0,0,0,0,1,,,,,,,,,,,,,,,,,,,,,,,,,,,,,,,,,,,,,,,,,,,,,,,,
,,,,,"Great! Now we will move on. The next task consists of about 60 trials, in each of which you will see a string of letters. 
  
  Your task is to decide whether this is a real Spanish word or not.",(press the spacebar to continue),5faeb0771929e6000941ecc5,6057c54e64b0b4e5c128b4f9,60589e079a3d8d6c49999254,United States,Northeast,13 or older,no,2021-03-22_09h40.10.414,empathy_intonation_perc,2020.2.10,MacIntel,60,,,,,,,,,,,,,,,,,,,,,,,,,,,,,,,,,,,,,0,0,0,0,1,,,,,,,,,,,,,,,,,,,,,,,,,,,,,,,,,,,,,,,,,,,
,,,,,"If you think it is an existing Spanish word, you type '1' (for 'REAL'), and if you think it is not an existing Spanish word, you type '0' (for 'FAKE').",(press the spacebar to continue),5faeb0771929e6000941ecc5,6057c54e64b0b4e5c128b4f9,60589e079a3d8d6c49999254,United States,Northeast,13 or older,no,2021-03-22_09h40.10.414,empathy_intonation_perc,2020.2.10,MacIntel,60,,,,,,,,,,,,,,,,,,,,,,,,,,,,,,,,,,,,,0,1,1,1,1,,,,,,,,,,,,,,,,,,,,,,,,,,,,,,,,,,,,,,,,,,,
,,,,,"If you are sure that the word exists, even though you dont know its exact meaning, you may still respond '1' (REAL). 
  
  But if you are not sure if it is an existing word, you should respond '0' (FAKE).
  
  Let's do a practice round...",(press the spacebar to continue),5faeb0771929e6000941ecc5,6057c54e64b0b4e5c128b4f9,60589e079a3d8d6c49999254,United States,Northeast,13 or older,no,2021-03-22_09h40.10.414,empathy_intonation_perc,2020.2.10,MacIntel,60,,,,,,,,,,,,,,,,,,,,,,,,,,,,,,,,,,,,,0,2,2,2,1,,,,,,,,,,,,,,,,,,,,,,,,,,,,,,,,,,,,,,,,,,,
,,,,,,,5faeb0771929e6000941ecc5,6057c54e64b0b4e5c128b4f9,60589e079a3d8d6c49999254,United States,Northeast,13 or older,no,2021-03-22_09h40.10.414,empathy_intonation_perc,2020.2.10,MacIntel,60,,,,,,,,,,0,,,,,,,,,,,,,,,,,,,,,,,,,,,,,,,,0,1,2.482595,0,0,0,0,1,0,depiste,REAL,FAKE,,,,,,,,,,,,,,,,,,,,,,,,,,,,,,,
,,,,,,,5faeb0771929e6000941ecc5,6057c54e64b0b4e5c128b4f9,60589e079a3d8d6c49999254,United States,Northeast,13 or older,no,2021-03-22_09h40.10.414,empathy_intonation_perc,2020.2.10,MacIntel,60,,,,,,,,,,1,,,,,,,,,,,,,,,,,,,,,,,,,,,,,,,,1,1,0.783245,0,1,1,1,1,0,s,REAL,FAKE,,,,,,,,,,,,,,,,,,,,,,,,,,,,,,,
,,,,,,,5faeb0771929e6000941ecc5,6057c54e64b0b4e5c128b4f9,60589e079a3d8d6c49999254,United States,Northeast,13 or older,no,2021-03-22_09h40.10.414,empathy_intonation_perc,2020.2.10,MacIntel,60,,,,,,,,,,0,,,,,,,,,,,,,,,,,,,,,,,,,,,,,,,,0,1,1.182915,0,2,2,2,1,0,con,REAL,FAKE,,,,,,,,,,,,,,,,,,,,,,,,,,,,,,,
,,,,,,,5faeb0771929e6000941ecc5,6057c54e64b0b4e5c128b4f9,60589e079a3d8d6c49999254,United States,Northeast,13 or older,no,2021-03-22_09h40.10.414,empathy_intonation_perc,2020.2.10,MacIntel,60,,,,,,,,,,0,,,,,,,,,,,,,,,,,,,,,,,,,,,,,,,,0,1,0.98228,0,3,3,3,1,0,calpar,REAL,FAKE,,,,,,,,,,,,,,,,,,,,,,,,,,,,,,,
,,,,,,,5faeb0771929e6000941ecc5,6057c54e64b0b4e5c128b4f9,60589e079a3d8d6c49999254,United States,Northeast,13 or older,no,2021-03-22_09h40.10.414,empathy_intonation_perc,2020.2.10,MacIntel,60,,,,,,,,,,0,,,,,,,,,,,,,,,,,,,,,,,,,,,,,,,,0,1,0.81689,0,4,4,4,1,0,joten,REAL,FAKE,,,,,,,,,,,,,,,,,,,,,,,,,,,,,,,
,,,,,,,5faeb0771929e6000941ecc5,6057c54e64b0b4e5c128b4f9,60589e079a3d8d6c49999254,United States,Northeast,13 or older,no,2021-03-22_09h40.10.414,empathy_intonation_perc,2020.2.10,MacIntel,60,,,,,,,,,,1,,,,,,,,,,,,,,,,,,,,,,,,,,,,,,,,0,0,0.883045,0,5,5,5,1,0,sacapuntas,REAL,FAKE,,,,,,,,,,,,,,,,,,,,,,,,,,,,,,,
,,,,,,,5faeb0771929e6000941ecc5,6057c54e64b0b4e5c128b4f9,60589e079a3d8d6c49999254,United States,Northeast,13 or older,no,2021-03-22_09h40.10.414,empathy_intonation_perc,2020.2.10,MacIntel,60,,,,,,,,,,0,,,,,,,,,,,,,,,,,,,,,,,,,,,,,,,,0,1,0.882995,0,6,6,6,1,0,priba,REAL,FAKE,,,,,,,,,,,,,,,,,,,,,,,,,,,,,,,
,,,,,,,5faeb0771929e6000941ecc5,6057c54e64b0b4e5c128b4f9,60589e079a3d8d6c49999254,United States,Northeast,13 or older,no,2021-03-22_09h40.10.414,empathy_intonation_perc,2020.2.10,MacIntel,60,,,,,,,,,,0,,,,,,,,,,,,,,,,,,,,,,,,,,,,,,,,1,0,0.683695,0,7,7,7,1,0,pelasula,REAL,FAKE,,,,,,,,,,,,,,,,,,,,,,,,,,,,,,,
,,,,,,,5faeb0771929e6000941ecc5,6057c54e64b0b4e5c128b4f9,60589e079a3d8d6c49999254,United States,Northeast,13 or older,no,2021-03-22_09h40.10.414,empathy_intonation_perc,2020.2.10,MacIntel,60,,,,,,,,,,1,,,,,,,,,,,,,,,,,,,,,,,,,,,,,,,,1,1,0.682475,0,8,8,8,1,0,bien,REAL,FAKE,,,,,,,,,,,,,,,,,,,,,,,,,,,,,,,
,,,,,,,5faeb0771929e6000941ecc5,6057c54e64b0b4e5c128b4f9,60589e079a3d8d6c49999254,United States,Northeast,13 or older,no,2021-03-22_09h40.10.414,empathy_intonation_perc,2020.2.10,MacIntel,60,,,,,,,,,,1,,,,,,,,,,,,,,,,,,,,,,,,,,,,,,,,1,1,0.70041,0,9,9,9,1,0,casa,REAL,FAKE,,,,,,,,,,,,,,,,,,,,,,,,,,,,,,,
,,,,,,,5faeb0771929e6000941ecc5,6057c54e64b0b4e5c128b4f9,60589e079a3d8d6c49999254,United States,Northeast,13 or older,no,2021-03-22_09h40.10.414,empathy_intonation_perc,2020.2.10,MacIntel,60,,,,,,,,,,0,,,,,,,,,,,,,,,,,,,,,,,,,,,,,,,,1,0,0.949845,0,10,10,10,1,0,lejo,REAL,FAKE,,,,,,,,,,,,,,,,,,,,,,,,,,,,,,,
,,,,,,,5faeb0771929e6000941ecc5,6057c54e64b0b4e5c128b4f9,60589e079a3d8d6c49999254,United States,Northeast,13 or older,no,2021-03-22_09h40.10.414,empathy_intonation_perc,2020.2.10,MacIntel,60,,,,,,,,,,0,,,,,,,,,,,,,,,,,,,,,,,,,,,,,,,,1,0,0.698885,0,11,11,11,1,0,pretantas,REAL,FAKE,,,,,,,,,,,,,,,,,,,,,,,,,,,,,,,
,,,,,,,5faeb0771929e6000941ecc5,6057c54e64b0b4e5c128b4f9,60589e079a3d8d6c49999254,United States,Northeast,13 or older,no,2021-03-22_09h40.10.414,empathy_intonation_perc,2020.2.10,MacIntel,60,,,,,,,,,,0,,,,,,,,,,,,,,,,,,,,,,,,,,,,,,,,,,,,,,,,70,temblo,,,0,1,0.89053,0,0,0,69,1,REAL,FAKE,,,,,,,,,,,,,,,,,,,,,
,,,,,,,5faeb0771929e6000941ecc5,6057c54e64b0b4e5c128b4f9,60589e079a3d8d6c49999254,United States,Northeast,13 or older,no,2021-03-22_09h40.10.414,empathy_intonation_perc,2020.2.10,MacIntel,60,,,,,,,,,,0,,,,,,,,,,,,,,,,,,,,,,,,,,,,,,,,,,,,,,,,50,flamida,,,0,1,1.199335,0,1,1,49,1,REAL,FAKE,,,,,,,,,,,,,,,,,,,,,
,,,,,,,5faeb0771929e6000941ecc5,6057c54e64b0b4e5c128b4f9,60589e079a3d8d6c49999254,United States,Northeast,13 or older,no,2021-03-22_09h40.10.414,empathy_intonation_perc,2020.2.10,MacIntel,60,,,,,,,,,,1,,,,,,,,,,,,,,,,,,,,,,,,,,,,,,,,,,,,,,,,85,lad,,,0,0,1.032975,0,2,2,84,1,REAL,FAKE,,,,,,,,,,,,,,,,,,,,,
,,,,,,,5faeb0771929e6000941ecc5,6057c54e64b0b4e5c128b4f9,60589e079a3d8d6c49999254,United States,Northeast,13 or older,no,2021-03-22_09h40.10.414,empathy_intonation_perc,2020.2.10,MacIntel,60,,,,,,,,,,0,,,,,,,,,,,,,,,,,,,,,,,,,,,,,,,,,,,,,,,,30,alardio,,,1,0,0.76584,0,3,3,29,1,REAL,FAKE,,,,,,,,,,,,,,,,,,,,,
,,,,,,,5faeb0771929e6000941ecc5,6057c54e64b0b4e5c128b4f9,60589e079a3d8d6c49999254,United States,Northeast,13 or older,no,2021-03-22_09h40.10.414,empathy_intonation_perc,2020.2.10,MacIntel,60,,,,,,,,,,1,,,,,,,,,,,,,,,,,,,,,,,,,,,,,,,,,,,,,,,,73,hervidor,,,0,0,1.166865,0,4,4,72,1,REAL,FAKE,,,,,,,,,,,,,,,,,,,,,
,,,,,,,5faeb0771929e6000941ecc5,6057c54e64b0b4e5c128b4f9,60589e079a3d8d6c49999254,United States,Northeast,13 or older,no,2021-03-22_09h40.10.414,empathy_intonation_perc,2020.2.10,MacIntel,60,,,,,,,,,,0,,,,,,,,,,,,,,,,,,,,,,,,,,,,,,,,,,,,,,,,66,hacido,,,1,0,0.750255,0,5,5,65,1,REAL,FAKE,,,,,,,,,,,,,,,,,,,,,
,,,,,,,5faeb0771929e6000941ecc5,6057c54e64b0b4e5c128b4f9,60589e079a3d8d6c49999254,United States,Northeast,13 or older,no,2021-03-22_09h40.10.414,empathy_intonation_perc,2020.2.10,MacIntel,60,,,,,,,,,,0,,,,,,,,,,,,,,,,,,,,,,,,,,,,,,,,,,,,,,,,21,capillo,,,1,0,1.48328,0,6,6,20,1,REAL,FAKE,,,,,,,,,,,,,,,,,,,,,
,,,,,,,5faeb0771929e6000941ecc5,6057c54e64b0b4e5c128b4f9,60589e079a3d8d6c49999254,United States,Northeast,13 or older,no,2021-03-22_09h40.10.414,empathy_intonation_perc,2020.2.10,MacIntel,60,,,,,,,,,,1,,,,,,,,,,,,,,,,,,,,,,,,,,,,,,,,,,,,,,,,28,merodear,,,0,0,1.30003,0,7,7,27,1,REAL,FAKE,,,,,,,,,,,,,,,,,,,,,
,,,,,,,5faeb0771929e6000941ecc5,6057c54e64b0b4e5c128b4f9,60589e079a3d8d6c49999254,United States,Northeast,13 or older,no,2021-03-22_09h40.10.414,empathy_intonation_perc,2020.2.10,MacIntel,60,,,,,,,,,,0,,,,,,,,,,,,,,,,,,,,,,,,,,,,,,,,,,,,,,,,53,vegada,,,1,0,0.882765,0,8,8,52,1,REAL,FAKE,,,,,,,,,,,,,,,,,,,,,
,,,,,,,5faeb0771929e6000941ecc5,6057c54e64b0b4e5c128b4f9,60589e079a3d8d6c49999254,United States,Northeast,13 or older,no,2021-03-22_09h40.10.414,empathy_intonation_perc,2020.2.10,MacIntel,60,,,,,,,,,,0,,,,,,,,,,,,,,,,,,,,,,,,,,,,,,,,,,,,,,,,63,esposante,,,1,0,0.977565,0,9,9,62,1,REAL,FAKE,,,,,,,,,,,,,,,,,,,,,
,,,,,,,5faeb0771929e6000941ecc5,6057c54e64b0b4e5c128b4f9,60589e079a3d8d6c49999254,United States,Northeast,13 or older,no,2021-03-22_09h40.10.414,empathy_intonation_perc,2020.2.10,MacIntel,60,,,,,,,,,,1,,,,,,,,,,,,,,,,,,,,,,,,,,,,,,,,,,,,,,,,86,barato,,,1,1,0.868065,0,10,10,85,1,REAL,FAKE,,,,,,,,,,,,,,,,,,,,,
,,,,,,,5faeb0771929e6000941ecc5,6057c54e64b0b4e5c128b4f9,60589e079a3d8d6c49999254,United States,Northeast,13 or older,no,2021-03-22_09h40.10.414,empathy_intonation_perc,2020.2.10,MacIntel,60,,,,,,,,,,1,,,,,,,,,,,,,,,,,,,,,,,,,,,,,,,,,,,,,,,,68,alegre,,,1,1,1.083375,0,11,11,67,1,REAL,FAKE,,,,,,,,,,,,,,,,,,,,,
,,,,,,,5faeb0771929e6000941ecc5,6057c54e64b0b4e5c128b4f9,60589e079a3d8d6c49999254,United States,Northeast,13 or older,no,2021-03-22_09h40.10.414,empathy_intonation_perc,2020.2.10,MacIntel,60,,,,,,,,,,0,,,,,,,,,,,,,,,,,,,,,,,,,,,,,,,,,,,,,,,,58,plaudir,,,0,1,1.18323,0,12,12,57,1,REAL,FAKE,,,,,,,,,,,,,,,,,,,,,
,,,,,,,5faeb0771929e6000941ecc5,6057c54e64b0b4e5c128b4f9,60589e079a3d8d6c49999254,United States,Northeast,13 or older,no,2021-03-22_09h40.10.414,empathy_intonation_perc,2020.2.10,MacIntel,60,,,,,,,,,,1,,,,,,,,,,,,,,,,,,,,,,,,,,,,,,,,,,,,,,,,61,seda,,,1,1,1.16638,0,13,13,60,1,REAL,FAKE,,,,,,,,,,,,,,,,,,,,,
,,,,,,,5faeb0771929e6000941ecc5,6057c54e64b0b4e5c128b4f9,60589e079a3d8d6c49999254,United States,Northeast,13 or older,no,2021-03-22_09h40.10.414,empathy_intonation_perc,2020.2.10,MacIntel,60,,,,,,,,,,1,,,,,,,,,,,,,,,,,,,,,,,,,,,,,,,,,,,,,,,,80,hormiga,,,0,0,1.216305,0,14,14,79,1,REAL,FAKE,,,,,,,,,,,,,,,,,,,,,
,,,,,,,5faeb0771929e6000941ecc5,6057c54e64b0b4e5c128b4f9,60589e079a3d8d6c49999254,United States,Northeast,13 or older,no,2021-03-22_09h40.10.414,empathy_intonation_perc,2020.2.10,MacIntel,60,,,,,,,,,,1,,,,,,,,,,,,,,,,,,,,,,,,,,,,,,,,,,,,,,,,5,zapato,,,1,1,0.8992,0,15,15,4,1,REAL,FAKE,,,,,,,,,,,,,,,,,,,,,
,,,,,,,5faeb0771929e6000941ecc5,6057c54e64b0b4e5c128b4f9,60589e079a3d8d6c49999254,United States,Northeast,13 or older,no,2021-03-22_09h40.10.414,empathy_intonation_perc,2020.2.10,MacIntel,60,,,,,,,,,,0,,,,,,,,,,,,,,,,,,,,,,,,,,,,,,,,,,,,,,,,8,cadea,,,1,0,1.14858,0,16,16,7,1,REAL,FAKE,,,,,,,,,,,,,,,,,,,,,
,,,,,,,5faeb0771929e6000941ecc5,6057c54e64b0b4e5c128b4f9,60589e079a3d8d6c49999254,United States,Northeast,13 or older,no,2021-03-22_09h40.10.414,empathy_intonation_perc,2020.2.10,MacIntel,60,,,,,,,,,,1,,,,,,,,,,,,,,,,,,,,,,,,,,,,,,,,,,,,,,,,78,frondoso,,,1,1,1.33322,0,17,17,77,1,REAL,FAKE,,,,,,,,,,,,,,,,,,,,,
,,,,,,,5faeb0771929e6000941ecc5,6057c54e64b0b4e5c128b4f9,60589e079a3d8d6c49999254,United States,Northeast,13 or older,no,2021-03-22_09h40.10.414,empathy_intonation_perc,2020.2.10,MacIntel,60,,,,,,,,,,1,,,,,,,,,,,,,,,,,,,,,,,,,,,,,,,,,,,,,,,,38,estornudar,,,0,0,0.900115,0,18,18,37,1,REAL,FAKE,,,,,,,,,,,,,,,,,,,,,
,,,,,,,5faeb0771929e6000941ecc5,6057c54e64b0b4e5c128b4f9,60589e079a3d8d6c49999254,United States,Northeast,13 or older,no,2021-03-22_09h40.10.414,empathy_intonation_perc,2020.2.10,MacIntel,60,,,,,,,,,,1,,,,,,,,,,,,,,,,,,,,,,,,,,,,,,,,,,,,,,,,55,nevar,,,0,0,0.94943,0,19,19,54,1,REAL,FAKE,,,,,,,,,,,,,,,,,,,,,
,,,,,,,5faeb0771929e6000941ecc5,6057c54e64b0b4e5c128b4f9,60589e079a3d8d6c49999254,United States,Northeast,13 or older,no,2021-03-22_09h40.10.414,empathy_intonation_perc,2020.2.10,MacIntel,60,,,,,,,,,,1,,,,,,,,,,,,,,,,,,,,,,,,,,,,,,,,,,,,,,,,48,ladrn,,,0,0,0.84966,0,20,20,47,1,REAL,FAKE,,,,,,,,,,,,,,,,,,,,,
,,,,,,,5faeb0771929e6000941ecc5,6057c54e64b0b4e5c128b4f9,60589e079a3d8d6c49999254,United States,Northeast,13 or older,no,2021-03-22_09h40.10.414,empathy_intonation_perc,2020.2.10,MacIntel,60,,,,,,,,,,1,,,,,,,,,,,,,,,,,,,,,,,,,,,,,,,,,,,,,,,,7,psimo,,,1,1,1.14992,0,21,21,6,1,REAL,FAKE,,,,,,,,,,,,,,,,,,,,,
,,,,,,,5faeb0771929e6000941ecc5,6057c54e64b0b4e5c128b4f9,60589e079a3d8d6c49999254,United States,Northeast,13 or older,no,2021-03-22_09h40.10.414,empathy_intonation_perc,2020.2.10,MacIntel,60,,,,,,,,,,1,,,,,,,,,,,,,,,,,,,,,,,,,,,,,,,,,,,,,,,,71,polvoriento,,,1,1,1.14943,0,22,22,70,1,REAL,FAKE,,,,,,,,,,,,,,,,,,,,,
,,,,,,,5faeb0771929e6000941ecc5,6057c54e64b0b4e5c128b4f9,60589e079a3d8d6c49999254,United States,Northeast,13 or older,no,2021-03-22_09h40.10.414,empathy_intonation_perc,2020.2.10,MacIntel,60,,,,,,,,,,1,,,,,,,,,,,,,,,,,,,,,,,,,,,,,,,,,,,,,,,,41,rebuscar,,,0,0,0.63302,0,23,23,40,1,REAL,FAKE,,,,,,,,,,,,,,,,,,,,,
,,,,,,,5faeb0771929e6000941ecc5,6057c54e64b0b4e5c128b4f9,60589e079a3d8d6c49999254,United States,Northeast,13 or older,no,2021-03-22_09h40.10.414,empathy_intonation_perc,2020.2.10,MacIntel,60,,,,,,,,,,1,,,,,,,,,,,,,,,,,,,,,,,,,,,,,,,,,,,,,,,,13,helar,,,0,0,0.66679,0,24,24,12,1,REAL,FAKE,,,,,,,,,,,,,,,,,,,,,
,,,,,,,5faeb0771929e6000941ecc5,6057c54e64b0b4e5c128b4f9,60589e079a3d8d6c49999254,United States,Northeast,13 or older,no,2021-03-22_09h40.10.414,empathy_intonation_perc,2020.2.10,MacIntel,60,,,,,,,,,,1,,,,,,,,,,,,,,,,,,,,,,,,,,,,,,,,,,,,,,,,90,clavel,,,0,0,0.80001,0,25,25,89,1,REAL,FAKE,,,,,,,,,,,,,,,,,,,,,
,,,,,,,5faeb0771929e6000941ecc5,6057c54e64b0b4e5c128b4f9,60589e079a3d8d6c49999254,United States,Northeast,13 or older,no,2021-03-22_09h40.10.414,empathy_intonation_perc,2020.2.10,MacIntel,60,,,,,,,,,,0,,,,,,,,,,,,,,,,,,,,,,,,,,,,,,,,,,,,,,,,18,arsa,,,0,1,0.866965,0,26,26,17,1,REAL,FAKE,,,,,,,,,,,,,,,,,,,,,
,,,,,,,5faeb0771929e6000941ecc5,6057c54e64b0b4e5c128b4f9,60589e079a3d8d6c49999254,United States,Northeast,13 or older,no,2021-03-22_09h40.10.414,empathy_intonation_perc,2020.2.10,MacIntel,60,,,,,,,,,,1,,,,,,,,,,,,,,,,,,,,,,,,,,,,,,,,,,,,,,,,25,bisagra,,,0,0,1.08297,0,27,27,24,1,REAL,FAKE,,,,,,,,,,,,,,,,,,,,,
,,,,,,,5faeb0771929e6000941ecc5,6057c54e64b0b4e5c128b4f9,60589e079a3d8d6c49999254,United States,Northeast,13 or older,no,2021-03-22_09h40.10.414,empathy_intonation_perc,2020.2.10,MacIntel,60,,,,,,,,,,1,,,,,,,,,,,,,,,,,,,,,,,,,,,,,,,,,,,,,,,,57,tacao,,,1,1,0.96632,0,28,28,56,1,REAL,FAKE,,,,,,,,,,,,,,,,,,,,,
,,,,,,,5faeb0771929e6000941ecc5,6057c54e64b0b4e5c128b4f9,60589e079a3d8d6c49999254,United States,Northeast,13 or older,no,2021-03-22_09h40.10.414,empathy_intonation_perc,2020.2.10,MacIntel,60,,,,,,,,,,0,,,,,,,,,,,,,,,,,,,,,,,,,,,,,,,,,,,,,,,,87,grodo,,,1,0,0.71725,0,29,29,86,1,REAL,FAKE,,,,,,,,,,,,,,,,,,,,,
,,,,,,,5faeb0771929e6000941ecc5,6057c54e64b0b4e5c128b4f9,60589e079a3d8d6c49999254,United States,Northeast,13 or older,no,2021-03-22_09h40.10.414,empathy_intonation_perc,2020.2.10,MacIntel,60,,,,,,,,,,1,,,,,,,,,,,,,,,,,,,,,,,,,,,,,,,,,,,,,,,,26,secuestro,,,0,0,1.482955,0,30,30,25,1,REAL,FAKE,,,,,,,,,,,,,,,,,,,,,
,,,,,,,5faeb0771929e6000941ecc5,6057c54e64b0b4e5c128b4f9,60589e079a3d8d6c49999254,United States,Northeast,13 or older,no,2021-03-22_09h40.10.414,empathy_intonation_perc,2020.2.10,MacIntel,60,,,,,,,,,,0,,,,,,,,,,,,,,,,,,,,,,,,,,,,,,,,,,,,,,,,1,terzo,,,1,0,0.716105,0,31,31,0,1,REAL,FAKE,,,,,,,,,,,,,,,,,,,,,
,,,,,,,5faeb0771929e6000941ecc5,6057c54e64b0b4e5c128b4f9,60589e079a3d8d6c49999254,United States,Northeast,13 or older,no,2021-03-22_09h40.10.414,empathy_intonation_perc,2020.2.10,MacIntel,60,,,,,,,,,,1,,,,,,,,,,,,,,,,,,,,,,,,,,,,,,,,,,,,,,,,20,vido,,,1,1,1.18327,0,32,32,19,1,REAL,FAKE,,,,,,,,,,,,,,,,,,,,,
,,,,,,,5faeb0771929e6000941ecc5,6057c54e64b0b4e5c128b4f9,60589e079a3d8d6c49999254,United States,Northeast,13 or older,no,2021-03-22_09h40.10.414,empathy_intonation_perc,2020.2.10,MacIntel,60,,,,,,,,,,1,,,,,,,,,,,,,,,,,,,,,,,,,,,,,,,,,,,,,,,,11,cenefa,,,0,0,0.83513,0,33,33,10,1,REAL,FAKE,,,,,,,,,,,,,,,,,,,,,
,,,,,,,5faeb0771929e6000941ecc5,6057c54e64b0b4e5c128b4f9,60589e079a3d8d6c49999254,United States,Northeast,13 or older,no,2021-03-22_09h40.10.414,empathy_intonation_perc,2020.2.10,MacIntel,60,,,,,,,,,,1,,,,,,,,,,,,,,,,,,,,,,,,,,,,,,,,,,,,,,,,24,ltigo,,,1,1,0.8331,0,34,34,23,1,REAL,FAKE,,,,,,,,,,,,,,,,,,,,,
,,,,,,,5faeb0771929e6000941ecc5,6057c54e64b0b4e5c128b4f9,60589e079a3d8d6c49999254,United States,Northeast,13 or older,no,2021-03-22_09h40.10.414,empathy_intonation_perc,2020.2.10,MacIntel,60,,,,,,,,,,1,,,,,,,,,,,,,,,,,,,,,,,,,,,,,,,,,,,,,,,,49,ganar,,,1,1,1.083135,0,35,35,48,1,REAL,FAKE,,,,,,,,,,,,,,,,,,,,,
,,,,,,,5faeb0771929e6000941ecc5,6057c54e64b0b4e5c128b4f9,60589e079a3d8d6c49999254,United States,Northeast,13 or older,no,2021-03-22_09h40.10.414,empathy_intonation_perc,2020.2.10,MacIntel,60,,,,,,,,,,0,,,,,,,,,,,,,,,,,,,,,,,,,,,,,,,,,,,,,,,,10,antar,,,0,1,0.816765,0,36,36,9,1,REAL,FAKE,,,,,,,,,,,,,,,,,,,,,
,,,,,,,5faeb0771929e6000941ecc5,6057c54e64b0b4e5c128b4f9,60589e079a3d8d6c49999254,United States,Northeast,13 or older,no,2021-03-22_09h40.10.414,empathy_intonation_perc,2020.2.10,MacIntel,60,,,,,,,,,,0,,,,,,,,,,,,,,,,,,,,,,,,,,,,,,,,,,,,,,,,4,batilln,,,0,1,1.26721,0,37,37,3,1,REAL,FAKE,,,,,,,,,,,,,,,,,,,,,
,,,,,,,5faeb0771929e6000941ecc5,6057c54e64b0b4e5c128b4f9,60589e079a3d8d6c49999254,United States,Northeast,13 or older,no,2021-03-22_09h40.10.414,empathy_intonation_perc,2020.2.10,MacIntel,60,,,,,,,,,,1,,,,,,,,,,,,,,,,,,,,,,,,,,,,,,,,,,,,,,,,51,candado,,,1,1,0.799965,0,38,38,50,1,REAL,FAKE,,,,,,,,,,,,,,,,,,,,,
,,,,,,,5faeb0771929e6000941ecc5,6057c54e64b0b4e5c128b4f9,60589e079a3d8d6c49999254,United States,Northeast,13 or older,no,2021-03-22_09h40.10.414,empathy_intonation_perc,2020.2.10,MacIntel,60,,,,,,,,,,1,,,,,,,,,,,,,,,,,,,,,,,,,,,,,,,,,,,,,,,,52,camisa,,,1,1,0.851145,0,39,39,51,1,REAL,FAKE,,,,,,,,,,,,,,,,,,,,,
,,,,,,,5faeb0771929e6000941ecc5,6057c54e64b0b4e5c128b4f9,60589e079a3d8d6c49999254,United States,Northeast,13 or older,no,2021-03-22_09h40.10.414,empathy_intonation_perc,2020.2.10,MacIntel,60,,,,,,,,,,0,,,,,,,,,,,,,,,,,,,,,,,,,,,,,,,,,,,,,,,,27,acutacin,,,0,1,1.54904,0,40,40,26,1,REAL,FAKE,,,,,,,,,,,,,,,,,,,,,
,,,,,,,5faeb0771929e6000941ecc5,6057c54e64b0b4e5c128b4f9,60589e079a3d8d6c49999254,United States,Northeast,13 or older,no,2021-03-22_09h40.10.414,empathy_intonation_perc,2020.2.10,MacIntel,60,,,,,,,,,,1,,,,,,,,,,,,,,,,,,,,,,,,,,,,,,,,,,,,,,,,77,tiburn,,,0,0,0.89928,0,41,41,76,1,REAL,FAKE,,,,,,,,,,,,,,,,,,,,,
,,,,,,,5faeb0771929e6000941ecc5,6057c54e64b0b4e5c128b4f9,60589e079a3d8d6c49999254,United States,Northeast,13 or older,no,2021-03-22_09h40.10.414,empathy_intonation_perc,2020.2.10,MacIntel,60,,,,,,,,,,1,,,,,,,,,,,,,,,,,,,,,,,,,,,,,,,,,,,,,,,,67,cabello,,,1,1,0.698825,0,42,42,66,1,REAL,FAKE,,,,,,,,,,,,,,,,,,,,,
,,,,,,,5faeb0771929e6000941ecc5,6057c54e64b0b4e5c128b4f9,60589e079a3d8d6c49999254,United States,Northeast,13 or older,no,2021-03-22_09h40.10.414,empathy_intonation_perc,2020.2.10,MacIntel,60,,,,,,,,,,0,,,,,,,,,,,,,,,,,,,,,,,,,,,,,,,,,,,,,,,,79,tropaje,,,0,1,1.149465,0,43,43,78,1,REAL,FAKE,,,,,,,,,,,,,,,,,,,,,
,,,,,,,5faeb0771929e6000941ecc5,6057c54e64b0b4e5c128b4f9,60589e079a3d8d6c49999254,United States,Northeast,13 or older,no,2021-03-22_09h40.10.414,empathy_intonation_perc,2020.2.10,MacIntel,60,,,,,,,,,,1,,,,,,,,,,,,,,,,,,,,,,,,,,,,,,,,,,,,,,,,6,tergiversar,,,0,0,0.9008,0,44,44,5,1,REAL,FAKE,,,,,,,,,,,,,,,,,,,,,
,,,,,,,5faeb0771929e6000941ecc5,6057c54e64b0b4e5c128b4f9,60589e079a3d8d6c49999254,United States,Northeast,13 or older,no,2021-03-22_09h40.10.414,empathy_intonation_perc,2020.2.10,MacIntel,60,,,,,,,,,,1,,,,,,,,,,,,,,,,,,,,,,,,,,,,,,,,,,,,,,,,46,martillo,,,1,1,1.067225,0,45,45,45,1,REAL,FAKE,,,,,,,,,,,,,,,,,,,,,
,,,,,,,5faeb0771929e6000941ecc5,6057c54e64b0b4e5c128b4f9,60589e079a3d8d6c49999254,United States,Northeast,13 or older,no,2021-03-22_09h40.10.414,empathy_intonation_perc,2020.2.10,MacIntel,60,,,,,,,,,,1,,,,,,,,,,,,,,,,,,,,,,,,,,,,,,,,,,,,,,,,31,pandilla,,,1,1,0.81658,0,46,46,30,1,REAL,FAKE,,,,,,,,,,,,,,,,,,,,,
,,,,,,,5faeb0771929e6000941ecc5,6057c54e64b0b4e5c128b4f9,60589e079a3d8d6c49999254,United States,Northeast,13 or older,no,2021-03-22_09h40.10.414,empathy_intonation_perc,2020.2.10,MacIntel,60,,,,,,,,,,0,,,,,,,,,,,,,,,,,,,,,,,,,,,,,,,,,,,,,,,,32,fatacidad,,,0,1,0.966205,0,47,47,31,1,REAL,FAKE,,,,,,,,,,,,,,,,,,,,,
,,,,,,,5faeb0771929e6000941ecc5,6057c54e64b0b4e5c128b4f9,60589e079a3d8d6c49999254,United States,Northeast,13 or older,no,2021-03-22_09h40.10.414,empathy_intonation_perc,2020.2.10,MacIntel,60,,,,,,,,,,1,,,,,,,,,,,,,,,,,,,,,,,,,,,,,,,,,,,,,,,,37,granuja,,,1,1,0.74921,0,48,48,36,1,REAL,FAKE,,,,,,,,,,,,,,,,,,,,,
,,,,,,,5faeb0771929e6000941ecc5,6057c54e64b0b4e5c128b4f9,60589e079a3d8d6c49999254,United States,Northeast,13 or older,no,2021-03-22_09h40.10.414,empathy_intonation_perc,2020.2.10,MacIntel,60,,,,,,,,,,0,,,,,,,,,,,,,,,,,,,,,,,,,,,,,,,,,,,,,,,,16,abracer,,,0,1,0.79886,0,49,49,15,1,REAL,FAKE,,,,,,,,,,,,,,,,,,,,,
,,,,,,,5faeb0771929e6000941ecc5,6057c54e64b0b4e5c128b4f9,60589e079a3d8d6c49999254,United States,Northeast,13 or older,no,2021-03-22_09h40.10.414,empathy_intonation_perc,2020.2.10,MacIntel,60,,,,,,,,,,1,,,,,,,,,,,,,,,,,,,,,,,,,,,,,,,,,,,,,,,,36,loro,,,1,1,1.033985,0,50,50,35,1,REAL,FAKE,,,,,,,,,,,,,,,,,,,,,
,,,,,,,5faeb0771929e6000941ecc5,6057c54e64b0b4e5c128b4f9,60589e079a3d8d6c49999254,United States,Northeast,13 or older,no,2021-03-22_09h40.10.414,empathy_intonation_perc,2020.2.10,MacIntel,60,,,,,,,,,,1,,,,,,,,,,,,,,,,,,,,,,,,,,,,,,,,,,,,,,,,59,besar,,,0,0,0.883395,0,51,51,58,1,REAL,FAKE,,,,,,,,,,,,,,,,,,,,,
,,,,,,,5faeb0771929e6000941ecc5,6057c54e64b0b4e5c128b4f9,60589e079a3d8d6c49999254,United States,Northeast,13 or older,no,2021-03-22_09h40.10.414,empathy_intonation_perc,2020.2.10,MacIntel,60,,,,,,,,,,1,,,,,,,,,,,,,,,,,,,,,,,,,,,,,,,,,,,,,,,,44,cuchara,,,1,1,1.28302,0,52,52,43,1,REAL,FAKE,,,,,,,,,,,,,,,,,,,,,
,,,,,,,5faeb0771929e6000941ecc5,6057c54e64b0b4e5c128b4f9,60589e079a3d8d6c49999254,United States,Northeast,13 or older,no,2021-03-22_09h40.10.414,empathy_intonation_perc,2020.2.10,MacIntel,60,,,,,,,,,,0,,,,,,,,,,,,,,,,,,,,,,,,,,,,,,,,,,,,,,,,29,decar,,,0,1,0.916595,0,53,53,28,1,REAL,FAKE,,,,,,,,,,,,,,,,,,,,,
,,,,,,,5faeb0771929e6000941ecc5,6057c54e64b0b4e5c128b4f9,60589e079a3d8d6c49999254,United States,Northeast,13 or older,no,2021-03-22_09h40.10.414,empathy_intonation_perc,2020.2.10,MacIntel,60,,,,,,,,,,1,,,,,,,,,,,,,,,,,,,,,,,,,,,,,,,,,,,,,,,,54,fomentar,,,0,0,0.916375,0,54,54,53,1,REAL,FAKE,,,,,,,,,,,,,,,,,,,,,
,,,,,,,5faeb0771929e6000941ecc5,6057c54e64b0b4e5c128b4f9,60589e079a3d8d6c49999254,United States,Northeast,13 or older,no,2021-03-22_09h40.10.414,empathy_intonation_perc,2020.2.10,MacIntel,60,,,,,,,,,,0,,,,,,,,,,,,,,,,,,,,,,,,,,,,,,,,,,,,,,,,33,pauca,,,1,0,0.99981,0,55,55,32,1,REAL,FAKE,,,,,,,,,,,,,,,,,,,,,
,,,,,,,5faeb0771929e6000941ecc5,6057c54e64b0b4e5c128b4f9,60589e079a3d8d6c49999254,United States,Northeast,13 or older,no,2021-03-22_09h40.10.414,empathy_intonation_perc,2020.2.10,MacIntel,60,,,,,,,,,,1,,,,,,,,,,,,,,,,,,,,,,,,,,,,,,,,,,,,,,,,89,prisa,,,1,1,0.616675,0,56,56,88,1,REAL,FAKE,,,,,,,,,,,,,,,,,,,,,
,,,,,,,5faeb0771929e6000941ecc5,6057c54e64b0b4e5c128b4f9,60589e079a3d8d6c49999254,United States,Northeast,13 or older,no,2021-03-22_09h40.10.414,empathy_intonation_perc,2020.2.10,MacIntel,60,,,,,,,,,,1,,,,,,,,,,,,,,,,,,,,,,,,,,,,,,,,,,,,,,,,39,torpe,,,0,0,0.600275,0,57,57,38,1,REAL,FAKE,,,,,,,,,,,,,,,,,,,,,
,,,,,,,5faeb0771929e6000941ecc5,6057c54e64b0b4e5c128b4f9,60589e079a3d8d6c49999254,United States,Northeast,13 or older,no,2021-03-22_09h40.10.414,empathy_intonation_perc,2020.2.10,MacIntel,60,,,,,,,,,,1,,,,,,,,,,,,,,,,,,,,,,,,,,,,,,,,,,,,,,,,69,engatusar,,,1,1,0.88381,0,58,58,68,1,REAL,FAKE,,,,,,,,,,,,,,,,,,,,,
,,,,,,,5faeb0771929e6000941ecc5,6057c54e64b0b4e5c128b4f9,60589e079a3d8d6c49999254,United States,Northeast,13 or older,no,2021-03-22_09h40.10.414,empathy_intonation_perc,2020.2.10,MacIntel,60,,,,,,,,,,1,,,,,,,,,,,,,,,,,,,,,,,,,,,,,,,,,,,,,,,,2,pellizcar,,,0,0,0.617765,0,59,59,1,1,REAL,FAKE,,,,,,,,,,,,,,,,,,,,,
,,,,,,,5faeb0771929e6000941ecc5,6057c54e64b0b4e5c128b4f9,60589e079a3d8d6c49999254,United States,Northeast,13 or older,no,2021-03-22_09h40.10.414,empathy_intonation_perc,2020.2.10,MacIntel,60,,,,,,,,,,1,,,,,,,,,,,,,,,,,,,,,,,,,,,,,,,,,,,,,,,,65,bizcocho,,,1,1,1.083735,0,60,60,64,1,REAL,FAKE,,,,,,,,,,,,,,,,,,,,,
,,,,,,,5faeb0771929e6000941ecc5,6057c54e64b0b4e5c128b4f9,60589e079a3d8d6c49999254,United States,Northeast,13 or older,no,2021-03-22_09h40.10.414,empathy_intonation_perc,2020.2.10,MacIntel,60,,,,,,,,,,1,,,,,,,,,,,,,,,,,,,,,,,,,,,,,,,,,,,,,,,,12,asesinato,,,1,1,0.966975,0,61,61,11,1,REAL,FAKE,,,,,,,,,,,,,,,,,,,,,
,,,,,,,5faeb0771929e6000941ecc5,6057c54e64b0b4e5c128b4f9,60589e079a3d8d6c49999254,United States,Northeast,13 or older,no,2021-03-22_09h40.10.414,empathy_intonation_perc,2020.2.10,MacIntel,60,,,,,,,,,,1,,,,,,,,,,,,,,,,,,,,,,,,,,,,,,,,,,,,,,,,83,guante,,,0,0,0.61647,0,62,62,82,1,REAL,FAKE,,,,,,,,,,,,,,,,,,,,,
,,,,,,,5faeb0771929e6000941ecc5,6057c54e64b0b4e5c128b4f9,60589e079a3d8d6c49999254,United States,Northeast,13 or older,no,2021-03-22_09h40.10.414,empathy_intonation_perc,2020.2.10,MacIntel,60,,,,,,,,,,1,,,,,,,,,,,,,,,,,,,,,,,,,,,,,,,,,,,,,,,,88,acantilado,,,1,1,1.13208,0,63,63,87,1,REAL,FAKE,,,,,,,,,,,,,,,,,,,,,
,,,,,,,5faeb0771929e6000941ecc5,6057c54e64b0b4e5c128b4f9,60589e079a3d8d6c49999254,United States,Northeast,13 or older,no,2021-03-22_09h40.10.414,empathy_intonation_perc,2020.2.10,MacIntel,60,,,,,,,,,,1,,,,,,,,,,,,,,,,,,,,,,,,,,,,,,,,,,,,,,,,75,yacer,,,0,0,0.5664,0,64,64,74,1,REAL,FAKE,,,,,,,,,,,,,,,,,,,,,
,,,,,,,5faeb0771929e6000941ecc5,6057c54e64b0b4e5c128b4f9,60589e079a3d8d6c49999254,United States,Northeast,13 or older,no,2021-03-22_09h40.10.414,empathy_intonation_perc,2020.2.10,MacIntel,60,,,,,,,,,,0,,,,,,,,,,,,,,,,,,,,,,,,,,,,,,,,,,,,,,,,35,rompido,,,0,1,0.81751,0,65,65,34,1,REAL,FAKE,,,,,,,,,,,,,,,,,,,,,
,,,,,,,5faeb0771929e6000941ecc5,6057c54e64b0b4e5c128b4f9,60589e079a3d8d6c49999254,United States,Northeast,13 or older,no,2021-03-22_09h40.10.414,empathy_intonation_perc,2020.2.10,MacIntel,60,,,,,,,,,,1,,,,,,,,,,,,,,,,,,,,,,,,,,,,,,,,,,,,,,,,9,hacha,,,0,0,0.98378,0,66,66,8,1,REAL,FAKE,,,,,,,,,,,,,,,,,,,,,
,,,,,,,5faeb0771929e6000941ecc5,6057c54e64b0b4e5c128b4f9,60589e079a3d8d6c49999254,United States,Northeast,13 or older,no,2021-03-22_09h40.10.414,empathy_intonation_perc,2020.2.10,MacIntel,60,,,,,,,,,,0,,,,,,,,,,,,,,,,,,,,,,,,,,,,,,,,,,,,,,,,84,escuto,,,1,0,1.01656,0,67,67,83,1,REAL,FAKE,,,,,,,,,,,,,,,,,,,,,
,,,,,,,5faeb0771929e6000941ecc5,6057c54e64b0b4e5c128b4f9,60589e079a3d8d6c49999254,United States,Northeast,13 or older,no,2021-03-22_09h40.10.414,empathy_intonation_perc,2020.2.10,MacIntel,60,,,,,,,,,,1,,,,,,,,,,,,,,,,,,,,,,,,,,,,,,,,,,,,,,,,40,alfombra,,,0,0,0.81534,0,68,68,39,1,REAL,FAKE,,,,,,,,,,,,,,,,,,,,,
,,,,,,,5faeb0771929e6000941ecc5,6057c54e64b0b4e5c128b4f9,60589e079a3d8d6c49999254,United States,Northeast,13 or older,no,2021-03-22_09h40.10.414,empathy_intonation_perc,2020.2.10,MacIntel,60,,,,,,,,,,0,,,,,,,,,,,,,,,,,,,,,,,,,,,,,,,,,,,,,,,,82,empirador,,,0,1,0.999505,0,69,69,81,1,REAL,FAKE,,,,,,,,,,,,,,,,,,,,,
,,,,,,,5faeb0771929e6000941ecc5,6057c54e64b0b4e5c128b4f9,60589e079a3d8d6c49999254,United States,Northeast,13 or older,no,2021-03-22_09h40.10.414,empathy_intonation_perc,2020.2.10,MacIntel,60,,,,,,,,,,0,,,,,,,,,,,,,,,,,,,,,,,,,,,,,,,,,,,,,,,,72,pemicin,,,0,1,0.73305,0,70,70,71,1,REAL,FAKE,,,,,,,,,,,,,,,,,,,,,
,,,,,,,5faeb0771929e6000941ecc5,6057c54e64b0b4e5c128b4f9,60589e079a3d8d6c49999254,United States,Northeast,13 or older,no,2021-03-22_09h40.10.414,empathy_intonation_perc,2020.2.10,MacIntel,60,,,,,,,,,,1,,,,,,,,,,,,,,,,,,,,,,,,,,,,,,,,,,,,,,,,22,lacayo,,,0,0,2.249905,0,71,71,21,1,REAL,FAKE,,,,,,,,,,,,,,,,,,,,,
,,,,,,,5faeb0771929e6000941ecc5,6057c54e64b0b4e5c128b4f9,60589e079a3d8d6c49999254,United States,Northeast,13 or older,no,2021-03-22_09h40.10.414,empathy_intonation_perc,2020.2.10,MacIntel,60,,,,,,,,,,1,,,,,,,,,,,,,,,,,,,,,,,,,,,,,,,,,,,,,,,,3,pulmones,,,0,0,0.75074,0,72,72,2,1,REAL,FAKE,,,,,,,,,,,,,,,,,,,,,
,,,,,,,5faeb0771929e6000941ecc5,6057c54e64b0b4e5c128b4f9,60589e079a3d8d6c49999254,United States,Northeast,13 or older,no,2021-03-22_09h40.10.414,empathy_intonation_perc,2020.2.10,MacIntel,60,,,,,,,,,,1,,,,,,,,,,,,,,,,,,,,,,,,,,,,,,,,,,,,,,,,15,regar,,,0,0,1.432455,0,73,73,14,1,REAL,FAKE,,,,,,,,,,,,,,,,,,,,,
,,,,,,,5faeb0771929e6000941ecc5,6057c54e64b0b4e5c128b4f9,60589e079a3d8d6c49999254,United States,Northeast,13 or older,no,2021-03-22_09h40.10.414,empathy_intonation_perc,2020.2.10,MacIntel,60,,,,,,,,,,1,,,,,,,,,,,,,,,,,,,,,,,,,,,,,,,,,,,,,,,,56,musgo,,,0,0,0.83308,0,74,74,55,1,REAL,FAKE,,,,,,,,,,,,,,,,,,,,,
,,,,,,,5faeb0771929e6000941ecc5,6057c54e64b0b4e5c128b4f9,60589e079a3d8d6c49999254,United States,Northeast,13 or older,no,2021-03-22_09h40.10.414,empathy_intonation_perc,2020.2.10,MacIntel,60,,,,,,,,,,1,,,,,,,,,,,,,,,,,,,,,,,,,,,,,,,,,,,,,,,,34,aviso,,,0,0,0.798975,0,75,75,33,1,REAL,FAKE,,,,,,,,,,,,,,,,,,,,,
,,,,,,,5faeb0771929e6000941ecc5,6057c54e64b0b4e5c128b4f9,60589e079a3d8d6c49999254,United States,Northeast,13 or older,no,2021-03-22_09h40.10.414,empathy_intonation_perc,2020.2.10,MacIntel,60,,,,,,,,,,0,,,,,,,,,,,,,,,,,,,,,,,,,,,,,,,,,,,,,,,,47,cartinar,,,0,1,1.04926,0,76,76,46,1,REAL,FAKE,,,,,,,,,,,,,,,,,,,,,
,,,,,,,5faeb0771929e6000941ecc5,6057c54e64b0b4e5c128b4f9,60589e079a3d8d6c49999254,United States,Northeast,13 or older,no,2021-03-22_09h40.10.414,empathy_intonation_perc,2020.2.10,MacIntel,60,,,,,,,,,,1,,,,,,,,,,,,,,,,,,,,,,,,,,,,,,,,,,,,,,,,43,canela,,,1,1,0.71712,0,77,77,42,1,REAL,FAKE,,,,,,,,,,,,,,,,,,,,,
,,,,,,,5faeb0771929e6000941ecc5,6057c54e64b0b4e5c128b4f9,60589e079a3d8d6c49999254,United States,Northeast,13 or older,no,2021-03-22_09h40.10.414,empathy_intonation_perc,2020.2.10,MacIntel,60,,,,,,,,,,1,,,,,,,,,,,,,,,,,,,,,,,,,,,,,,,,,,,,,,,,64,orgulloso,,,0,0,0.86842,0,78,78,63,1,REAL,FAKE,,,,,,,,,,,,,,,,,,,,,
,,,,,,,5faeb0771929e6000941ecc5,6057c54e64b0b4e5c128b4f9,60589e079a3d8d6c49999254,United States,Northeast,13 or older,no,2021-03-22_09h40.10.414,empathy_intonation_perc,2020.2.10,MacIntel,60,,,,,,,,,,1,,,,,,,,,,,,,,,,,,,,,,,,,,,,,,,,,,,,,,,,76,atar,,,0,0,0.61703,0,79,79,75,1,REAL,FAKE,,,,,,,,,,,,,,,,,,,,,
,,,,,,,5faeb0771929e6000941ecc5,6057c54e64b0b4e5c128b4f9,60589e079a3d8d6c49999254,United States,Northeast,13 or older,no,2021-03-22_09h40.10.414,empathy_intonation_perc,2020.2.10,MacIntel,60,,,,,,,,,,0,,,,,,,,,,,,,,,,,,,,,,,,,,,,,,,,,,,,,,,,74,cintro,,,1,0,0.849735,0,80,80,73,1,REAL,FAKE,,,,,,,,,,,,,,,,,,,,,
,,,,,,,5faeb0771929e6000941ecc5,6057c54e64b0b4e5c128b4f9,60589e079a3d8d6c49999254,United States,Northeast,13 or older,no,2021-03-22_09h40.10.414,empathy_intonation_perc,2020.2.10,MacIntel,60,,,,,,,,,,0,,,,,,,,,,,,,,,,,,,,,,,,,,,,,,,,,,,,,,,,42,cadallo,,,1,0,1.100185,0,81,81,41,1,REAL,FAKE,,,,,,,,,,,,,,,,,,,,,
,,,,,,,5faeb0771929e6000941ecc5,6057c54e64b0b4e5c128b4f9,60589e079a3d8d6c49999254,United States,Northeast,13 or older,no,2021-03-22_09h40.10.414,empathy_intonation_perc,2020.2.10,MacIntel,60,,,,,,,,,,1,,,,,,,,,,,,,,,,,,,,,,,,,,,,,,,,,,,,,,,,62,flaco,,,1,1,0.88318,0,82,82,61,1,REAL,FAKE,,,,,,,,,,,,,,,,,,,,,
,,,,,,,5faeb0771929e6000941ecc5,6057c54e64b0b4e5c128b4f9,60589e079a3d8d6c49999254,United States,Northeast,13 or older,no,2021-03-22_09h40.10.414,empathy_intonation_perc,2020.2.10,MacIntel,60,,,,,,,,,,1,,,,,,,,,,,,,,,,,,,,,,,,,,,,,,,,,,,,,,,,45,jilguero,,,0,0,0.73241,0,83,83,44,1,REAL,FAKE,,,,,,,,,,,,,,,,,,,,,
,,,,,,,5faeb0771929e6000941ecc5,6057c54e64b0b4e5c128b4f9,60589e079a3d8d6c49999254,United States,Northeast,13 or older,no,2021-03-22_09h40.10.414,empathy_intonation_perc,2020.2.10,MacIntel,60,,,,,,,,,,0,,,,,,,,,,,,,,,,,,,,,,,,,,,,,,,,,,,,,,,,17,floroso,,,1,0,0.815325,0,84,84,16,1,REAL,FAKE,,,,,,,,,,,,,,,,,,,,,
,,,,,,,5faeb0771929e6000941ecc5,6057c54e64b0b4e5c128b4f9,60589e079a3d8d6c49999254,United States,Northeast,13 or older,no,2021-03-22_09h40.10.414,empathy_intonation_perc,2020.2.10,MacIntel,60,,,,,,,,,,0,,,,,,,,,,,,,,,,,,,,,,,,,,,,,,,,,,,,,,,,23,lampera,,,1,0,1.16665,0,85,85,22,1,REAL,FAKE,,,,,,,,,,,,,,,,,,,,,
,,,,,,,5faeb0771929e6000941ecc5,6057c54e64b0b4e5c128b4f9,60589e079a3d8d6c49999254,United States,Northeast,13 or older,no,2021-03-22_09h40.10.414,empathy_intonation_perc,2020.2.10,MacIntel,60,,,,,,,,,,1,,,,,,,,,,,,,,,,,,,,,,,,,,,,,,,,,,,,,,,,60,matar,,,1,1,0.78416,0,86,86,59,1,REAL,FAKE,,,,,,,,,,,,,,,,,,,,,
,,,,,,,5faeb0771929e6000941ecc5,6057c54e64b0b4e5c128b4f9,60589e079a3d8d6c49999254,United States,Northeast,13 or older,no,2021-03-22_09h40.10.414,empathy_intonation_perc,2020.2.10,MacIntel,60,,,,,,,,,,0,,,,,,,,,,,,,,,,,,,,,,,,,,,,,,,,,,,,,,,,19,brecedad,,,0,1,0.749715,0,87,87,18,1,REAL,FAKE,,,,,,,,,,,,,,,,,,,,,
,,,,,,,5faeb0771929e6000941ecc5,6057c54e64b0b4e5c128b4f9,60589e079a3d8d6c49999254,United States,Northeast,13 or older,no,2021-03-22_09h40.10.414,empathy_intonation_perc,2020.2.10,MacIntel,60,,,,,,,,,,1,,,,,,,,,,,,,,,,,,,,,,,,,,,,,,,,,,,,,,,,14,yunque,,,1,1,0.966065,0,88,88,13,1,REAL,FAKE,,,,,,,,,,,,,,,,,,,,,
,,,,,,,5faeb0771929e6000941ecc5,6057c54e64b0b4e5c128b4f9,60589e079a3d8d6c49999254,United States,Northeast,13 or older,no,2021-03-22_09h40.10.414,empathy_intonation_perc,2020.2.10,MacIntel,60,,,,,,,,,,1,,,,,,,,,,,,,,,,,,,,,,,,,,,,,,,,,,,,,,,,81,pozo,,,1,1,0.783405,0,89,89,80,1,REAL,FAKE,,,,,,,,,,,,,,,,,,,,,
,,,,,,,5faeb0771929e6000941ecc5,6057c54e64b0b4e5c128b4f9,60589e079a3d8d6c49999254,United States,Northeast,13 or older,no,2021-03-22_09h40.10.414,empathy_intonation_perc,2020.2.10,MacIntel,60,,,,,,,,,,,,,,,,,,,,,,,,,,,,,,,,,,,,,,,,,,,,,,,,,,,,,,,,,,,,,,,,4,1,2.416125,1,0,0,0,0,0,1,,,,,,,,,,,
,,,,,,,5faeb0771929e6000941ecc5,6057c54e64b0b4e5c128b4f9,60589e079a3d8d6c49999254,United States,Northeast,13 or older,no,2021-03-22_09h40.10.414,empathy_intonation_perc,2020.2.10,MacIntel,60,,,,,,,,,,,,,,,,,,,,1,,,,,,,,,,,,,,,,,,,,,,,,,,,,,,,,,,,,,,,,,,,,,,,,,,,,,,1,0,0,0,0,1,I can easily tell if someone else wants to enter a conversation.,1,0,1,0
,,,,,,,5faeb0771929e6000941ecc5,6057c54e64b0b4e5c128b4f9,60589e079a3d8d6c49999254,United States,Northeast,13 or older,no,2021-03-22_09h40.10.414,empathy_intonation_perc,2020.2.10,MacIntel,60,,,,,,,,,,,,,,,,,,,,2,,,,,,,,,,,,,,,,,,,,,,,,,,,,,,,,,,,,,,,,,,,,,,,,,,,,,,2,0,1,1,1,1,I prefer animals to humans.,0,1,0,0
