instructions_2afc_loop.thisRepN,instructions_2afc_loop.thisTrialN,instructions_2afc_loop.thisN,instructions_2afc_loop.thisIndex,instructions_2afc_loop.ran,instructions_text,continue_text,participant,study_id,session,I am most familiar with Spanish from...*,What part of the US are you from?*,At what age did you begin learning Spanish?*,Are you proficient in any languages other than English/Spanish?*,date,expName,psychopyVersion,OS,frameRate,key_resp_2afc_practice.keys,key_resp_2afc_practice.corr,key_resp_2afc_practice.rt,trials_2afc_practice_loop.thisRepN,trials_2afc_practice_loop.thisTrialN,trials_2afc_practice_loop.thisN,trials_2afc_practice_loop.thisIndex,trials_2afc_practice_loop.ran,path,correct_response,the_col,key_resp_2afc_trial.keys,key_resp_2afc_trial.corr,key_resp_2afc_trial.rt,trials_2afc_loop.thisRepN,trials_2afc_loop.thisTrialN,trials_2afc_loop.thisN,trials_2afc_loop.thisIndex,trials_2afc_loop.ran,item_num,andalusian,argentine,castilian,chilean,cuban,mexican,peruvian,puertorican,key_resp_ac1.keys,key_resp_ac1.corr,key_resp_ac1.rt,ac1_loop.thisRepN,ac1_loop.thisTrialN,ac1_loop.thisN,ac1_loop.thisIndex,ac1_loop.ran,instructions_lextale_loop.thisRepN,instructions_lextale_loop.thisTrialN,instructions_lextale_loop.thisN,instructions_lextale_loop.thisIndex,instructions_lextale_loop.ran,key_resp_lextale_practice.keys,key_resp_lextale_practice.corr,key_resp_lextale_practice.rt,trials_lextale_practice_loop.thisRepN,trials_lextale_practice_loop.thisTrialN,trials_lextale_practice_loop.thisN,trials_lextale_practice_loop.thisIndex,trials_lextale_practice_loop.ran,stim,word,prac_button_real,prac_button_false,key_resp_lextale_trial.keys,key_resp_lextale_trial.corr,key_resp_lextale_trial.rt,trials_lextale_loop.thisRepN,trials_lextale_loop.thisTrialN,trials_lextale_loop.thisN,trials_lextale_loop.thisIndex,trials_lextale_loop.ran,button_real,button_false,key_resp_ac2.keys,key_resp_ac2.corr,key_resp_ac2.rt,check_pass,check_fails,ac2_loop.thisRepN,ac2_loop.thisTrialN,ac2_loop.thisN,ac2_loop.thisIndex,ac2_loop.ran,slider_eq_trial.response,trials_eq_loop.thisRepN,trials_eq_loop.thisTrialN,trials_eq_loop.thisN,trials_eq_loop.thisIndex,trials_eq_loop.ran,item,is_test_item,is_distractor,is_agree_score,is_disagree_score
0,0,0,0,1,"In the following task you are going to hear a series of utterances. 

  You will decide if the utterances sound like questions or not using your keyboard.",(press the spacebar to continue),5fb2caa34a6f4d94967b2748,6057c54e64b0b4e5c128b4f9,605aac6c3de9ff26c542bf85,Dominican Republic,East coast,13 or older,no,2021-03-23_23h08.18.781,empathy_intonation_perc,2020.2.10,Win32,60,,,,,,,,,,,,,,,,,,,,,,,,,,,,,,,,,,,,,,,,,,,,,,,,,,,,,,,,,,,,,,,,,,,,,,,,,,,,,,,,,,,,
0,1,1,1,1,"If you believe the utterance is a question, type '1' (for 'yes') and if you do not 
  believe it is a question type '0' (for 'no').

  Let's practice a bit...",(press the spacebar to continue),5fb2caa34a6f4d94967b2748,6057c54e64b0b4e5c128b4f9,605aac6c3de9ff26c542bf85,Dominican Republic,East coast,13 or older,no,2021-03-23_23h08.18.781,empathy_intonation_perc,2020.2.10,Win32,60,,,,,,,,,,,,,,,,,,,,,,,,,,,,,,,,,,,,,,,,,,,,,,,,,,,,,,,,,,,,,,,,,,,,,,,,,,,,,,,,,,,,
,,,,,,,5fb2caa34a6f4d94967b2748,6057c54e64b0b4e5c128b4f9,605aac6c3de9ff26c542bf85,Dominican Republic,East coast,13 or older,no,2021-03-23_23h08.18.781,empathy_intonation_perc,2020.2.10,Win32,60,1,0,2.150325,0,0,0,5,1,./stim/wavs/andalusian_statement_filler_Alberto-nunca-se-afeita.wav,0,,,,,,,,,,,,,,,,,,,,,,,,,,,,,,,,,,,,,,,,,,,,,,,,,,,,,,,,,,,,,,,,,,,,,,,,,,
,,,,,,,5fb2caa34a6f4d94967b2748,6057c54e64b0b4e5c128b4f9,605aac6c3de9ff26c542bf85,Dominican Republic,East coast,13 or older,no,2021-03-23_23h08.18.781,empathy_intonation_perc,2020.2.10,Win32,60,1,0,0.553535,0,1,1,4,1,./stim/wavs/cuban_statement_filler_Cocinabas-por-la-noche.wav,0,,,,,,,,,,,,,,,,,,,,,,,,,,,,,,,,,,,,,,,,,,,,,,,,,,,,,,,,,,,,,,,,,,,,,,,,,,
,,,,,,,5fb2caa34a6f4d94967b2748,6057c54e64b0b4e5c128b4f9,605aac6c3de9ff26c542bf85,Dominican Republic,East coast,13 or older,no,2021-03-23_23h08.18.781,empathy_intonation_perc,2020.2.10,Win32,60,0,0,2.23708,0,2,2,2,1,./stim/wavs/chilean_question_filler_Mi-padre-cantaba-bien.wav,1,,,,,,,,,,,,,,,,,,,,,,,,,,,,,,,,,,,,,,,,,,,,,,,,,,,,,,,,,,,,,,,,,,,,,,,,,,
,,,,,,,5fb2caa34a6f4d94967b2748,6057c54e64b0b4e5c128b4f9,605aac6c3de9ff26c542bf85,Dominican Republic,East coast,13 or older,no,2021-03-23_23h08.18.781,empathy_intonation_perc,2020.2.10,Win32,60,0,1,1.05281,0,3,3,7,1,./stim/wavs/puertorican_statement_filler_La-nina-pinta-con-su-amiga.wav,0,,,,,,,,,,,,,,,,,,,,,,,,,,,,,,,,,,,,,,,,,,,,,,,,,,,,,,,,,,,,,,,,,,,,,,,,,,
,,,,,,,5fb2caa34a6f4d94967b2748,6057c54e64b0b4e5c128b4f9,605aac6c3de9ff26c542bf85,Dominican Republic,East coast,13 or older,no,2021-03-23_23h08.18.781,empathy_intonation_perc,2020.2.10,Win32,60,0,0,0.78997,0,4,4,3,1,./stim/wavs/mexican_question_filler_Felipe-no-tiene-contrasena.wav,1,,,,,,,,,,,,,,,,,,,,,,,,,,,,,,,,,,,,,,,,,,,,,,,,,,,,,,,,,,,,,,,,,,,,,,,,,,
,,,,,,,5fb2caa34a6f4d94967b2748,6057c54e64b0b4e5c128b4f9,605aac6c3de9ff26c542bf85,Dominican Republic,East coast,13 or older,no,2021-03-23_23h08.18.781,empathy_intonation_perc,2020.2.10,Win32,60,1,1,0.695175,0,5,5,1,1,./stim/wavs/argentine_question_filler_Mi-vecino-habla-mucho.wav,1,,,,,,,,,,,,,,,,,,,,,,,,,,,,,,,,,,,,,,,,,,,,,,,,,,,,,,,,,,,,,,,,,,,,,,,,,,
,,,,,,,5fb2caa34a6f4d94967b2748,6057c54e64b0b4e5c128b4f9,605aac6c3de9ff26c542bf85,Dominican Republic,East coast,13 or older,no,2021-03-23_23h08.18.781,empathy_intonation_perc,2020.2.10,Win32,60,0,1,0.291555,0,6,6,6,1,./stim/wavs/peruvian_statement_filler_El-nino-habla-con-su-madre.wav,0,,,,,,,,,,,,,,,,,,,,,,,,,,,,,,,,,,,,,,,,,,,,,,,,,,,,,,,,,,,,,,,,,,,,,,,,,,
,,,,,,,5fb2caa34a6f4d94967b2748,6057c54e64b0b4e5c128b4f9,605aac6c3de9ff26c542bf85,Dominican Republic,East coast,13 or older,no,2021-03-23_23h08.18.781,empathy_intonation_perc,2020.2.10,Win32,60,1,1,0.458075,0,7,7,0,1,./stim/wavs/castilian_question_filler_Mi-esposo-conoce-al-chico.wav,1,,,,,,,,,,,,,,,,,,,,,,,,,,,,,,,,,,,,,,,,,,,,,,,,,,,,,,,,,,,,,,,,,,,,,,,,,,
,,,,,,,5fb2caa34a6f4d94967b2748,6057c54e64b0b4e5c128b4f9,605aac6c3de9ff26c542bf85,Dominican Republic,East coast,13 or older,no,2021-03-23_23h08.18.781,empathy_intonation_perc,2020.2.10,Win32,60,,,,,,,,,,1,peruvian,1,1,0.26747,0,0,0,19,1,20,./stim/wavs/andalusian_match_interrogative-partial-wh_Cuando-vendia-el-carro.wav,./stim/wavs/argentine_match_interrogative-partial-wh_Cuando-vendia-el-carro.wav,./stim/wavs/castilian_match_interrogative-partial-wh_Cuando-vendia-el-carro.wav,./stim/wavs/chilean_match_interrogative-partial-wh_Cuando-vendia-el-carro.wav,./stim/wavs/cuban_match_interrogative-partial-wh_Cuando-vendia-el-carro.wav,./stim/wavs/mexican_match_interrogative-partial-wh_Cuando-vendia-el-carro.wav,./stim/wavs/peruvian_match_interrogative-partial-wh_Cuando-vendia-el-carro.wav,./stim/wavs/puertorican_match_interrogative-partial-wh_Cuando-vendia-el-carro.wav,,,,,,,,,,,,,,,,,,,,,,,,,,,,,,,,,,,,,,,,,,,,,,,,,,,,,,,,
,,,,,,,5fb2caa34a6f4d94967b2748,6057c54e64b0b4e5c128b4f9,605aac6c3de9ff26c542bf85,Dominican Republic,East coast,13 or older,no,2021-03-23_23h08.18.781,empathy_intonation_perc,2020.2.10,Win32,60,,,,,,,,,,1,peruvian,1,1,0.46241,0,1,1,25,1,26,./stim/wavs/andalusian_match_interrogative-total-yn_Daniel-iba-a-Bolivia.wav,./stim/wavs/argentine_match_interrogative-total-yn_Daniel-iba-a-Bolivia.wav,./stim/wavs/castilian_match_interrogative-total-yn_Daniel-iba-a-Bolivia.wav,./stim/wavs/chilean_match_interrogative-total-yn_Daniel-iba-a-Bolivia.wav,./stim/wavs/cuban_match_interrogative-total-yn_Daniel-iba-a-Bolivia.wav,./stim/wavs/mexican_match_interrogative-total-yn_Daniel-iba-a-Bolivia.wav,./stim/wavs/peruvian_match_interrogative-total-yn_Daniel-iba-a-Bolivia.wav,./stim/wavs/puertorican_match_interrogative-total-yn_Daniel-iba-a-Bolivia.wav,,,,,,,,,,,,,,,,,,,,,,,,,,,,,,,,,,,,,,,,,,,,,,,,,,,,,,,,
,,,,,,,5fb2caa34a6f4d94967b2748,6057c54e64b0b4e5c128b4f9,605aac6c3de9ff26c542bf85,Dominican Republic,East coast,13 or older,no,2021-03-23_23h08.18.781,empathy_intonation_perc,2020.2.10,Win32,60,,,,,,,,,,1,puertorican,1,1,0.51495,0,2,2,30,1,31,./stim/wavs/andalusian_match_interrogative-total-yn_Mariano-habla-del-tiempo.wav,./stim/wavs/argentine_match_interrogative-total-yn_Mariano-habla-del-tiempo.wav,./stim/wavs/castilian_match_interrogative-total-yn_Mariano-habla-del-tiempo.wav,./stim/wavs/chilean_match_interrogative-total-yn_Mariano-habla-del-tiempo.wav,./stim/wavs/cuban_match_interrogative-total-yn_Mariano-habla-del-tiempo.wav,./stim/wavs/mexican_match_interrogative-total-yn_Mariano-habla-del-tiempo.wav,./stim/wavs/peruvian_match_interrogative-total-yn_Mariano-habla-del-tiempo.wav,./stim/wavs/puertorican_match_interrogative-total-yn_Mariano-habla-del-tiempo.wav,,,,,,,,,,,,,,,,,,,,,,,,,,,,,,,,,,,,,,,,,,,,,,,,,,,,,,,,
,,,,,,,5fb2caa34a6f4d94967b2748,6057c54e64b0b4e5c128b4f9,605aac6c3de9ff26c542bf85,Dominican Republic,East coast,13 or older,no,2021-03-23_23h08.18.781,empathy_intonation_perc,2020.2.10,Win32,60,,,,,,,,,,0,peruvian,0,1,0.14193,0,3,3,7,1,8,./stim/wavs/andalusian_match_declarative-broad-focus_Marta-abre-el-regalo.wav,./stim/wavs/argentine_match_declarative-broad-focus_Marta-abre-el-regalo.wav,./stim/wavs/castilian_match_declarative-broad-focus_Marta-abre-el-regalo.wav,./stim/wavs/chilean_match_declarative-broad-focus_Marta-abre-el-regalo.wav,./stim/wavs/cuban_match_declarative-broad-focus_Marta-abre-el-regalo.wav,./stim/wavs/mexican_match_declarative-broad-focus_Marta-abre-el-regalo.wav,./stim/wavs/peruvian_match_declarative-broad-focus_Marta-abre-el-regalo.wav,./stim/wavs/puertorican_match_declarative-broad-focus_Marta-abre-el-regalo.wav,,,,,,,,,,,,,,,,,,,,,,,,,,,,,,,,,,,,,,,,,,,,,,,,,,,,,,,,
,,,,,,,5fb2caa34a6f4d94967b2748,6057c54e64b0b4e5c128b4f9,605aac6c3de9ff26c542bf85,Dominican Republic,East coast,13 or older,no,2021-03-23_23h08.18.781,empathy_intonation_perc,2020.2.10,Win32,60,,,,,,,,,,1,argentine,1,1,0.667845,0,4,4,28,1,29,./stim/wavs/andalusian_match_interrogative-total-yn_Manuela-vende-el-carro.wav,./stim/wavs/argentine_match_interrogative-total-yn_Manuela-vende-el-carro.wav,./stim/wavs/castilian_match_interrogative-total-yn_Manuela-vende-el-carro.wav,./stim/wavs/chilean_match_interrogative-total-yn_Manuela-vende-el-carro.wav,./stim/wavs/cuban_match_interrogative-total-yn_Manuela-vende-el-carro.wav,./stim/wavs/mexican_match_interrogative-total-yn_Manuela-vende-el-carro.wav,./stim/wavs/peruvian_match_interrogative-total-yn_Manuela-vende-el-carro.wav,./stim/wavs/puertorican_match_interrogative-total-yn_Manuela-vende-el-carro.wav,,,,,,,,,,,,,,,,,,,,,,,,,,,,,,,,,,,,,,,,,,,,,,,,,,,,,,,,
,,,,,,,5fb2caa34a6f4d94967b2748,6057c54e64b0b4e5c128b4f9,605aac6c3de9ff26c542bf85,Dominican Republic,East coast,13 or older,no,2021-03-23_23h08.18.781,empathy_intonation_perc,2020.2.10,Win32,60,,,,,,,,,,0,castilian,0,1,0.22113,0,5,5,38,1,39,./stim/wavs/andalusian_mismatch_declarative-broad-focus_Mi-novio-viene-del-lago.wav,./stim/wavs/argentine_mismatch_declarative-broad-focus_Mi-novio-viene-del-lago.wav,./stim/wavs/castilian_mismatch_declarative-broad-focus_Mi-novio-viene-del-lago.wav,./stim/wavs/chilean_mismatch_declarative-broad-focus_Mi-novio-viene-del-lago.wav,./stim/wavs/cuban_mismatch_declarative-broad-focus_Mi-novio-viene-del-lago.wav,./stim/wavs/mexican_mismatch_declarative-broad-focus_Mi-novio-viene-del-lago.wav,./stim/wavs/peruvian_mismatch_declarative-broad-focus_Mi-novio-viene-del-lago.wav,./stim/wavs/puertorican_mismatch_declarative-broad-focus_Mi-novio-viene-del-lago.wav,,,,,,,,,,,,,,,,,,,,,,,,,,,,,,,,,,,,,,,,,,,,,,,,,,,,,,,,
,,,,,,,5fb2caa34a6f4d94967b2748,6057c54e64b0b4e5c128b4f9,605aac6c3de9ff26c542bf85,Dominican Republic,East coast,13 or older,no,2021-03-23_23h08.18.781,empathy_intonation_perc,2020.2.10,Win32,60,,,,,,,,,,0,andalusian,0,1,0.168145,0,6,6,14,1,15,./stim/wavs/andalusian_match_declarative-narrow-focus_Mariano-habla-del-tiempo.wav,./stim/wavs/argentine_match_declarative-narrow-focus_Mariano-habla-del-tiempo.wav,./stim/wavs/castilian_match_declarative-narrow-focus_Mariano-habla-del-tiempo.wav,./stim/wavs/chilean_match_declarative-narrow-focus_Mariano-habla-del-tiempo.wav,./stim/wavs/cuban_match_declarative-narrow-focus_Mariano-habla-del-tiempo.wav,./stim/wavs/mexican_match_declarative-narrow-focus_Mariano-habla-del-tiempo.wav,./stim/wavs/peruvian_match_declarative-narrow-focus_Mariano-habla-del-tiempo.wav,./stim/wavs/puertorican_match_declarative-narrow-focus_Mariano-habla-del-tiempo.wav,,,,,,,,,,,,,,,,,,,,,,,,,,,,,,,,,,,,,,,,,,,,,,,,,,,,,,,,
,,,,,,,5fb2caa34a6f4d94967b2748,6057c54e64b0b4e5c128b4f9,605aac6c3de9ff26c542bf85,Dominican Republic,East coast,13 or older,no,2021-03-23_23h08.18.781,empathy_intonation_perc,2020.2.10,Win32,60,,,,,,,,,,1,puertorican,1,1,0.625555,0,7,7,29,1,30,./stim/wavs/andalusian_match_interrogative-total-yn_Maria-bebe-el-vino.wav,./stim/wavs/argentine_match_interrogative-total-yn_Maria-bebe-el-vino.wav,./stim/wavs/castilian_match_interrogative-total-yn_Maria-bebe-el-vino.wav,./stim/wavs/chilean_match_interrogative-total-yn_Maria-bebe-el-vino.wav,./stim/wavs/cuban_match_interrogative-total-yn_Maria-bebe-el-vino.wav,./stim/wavs/mexican_match_interrogative-total-yn_Maria-bebe-el-vino.wav,./stim/wavs/peruvian_match_interrogative-total-yn_Maria-bebe-el-vino.wav,./stim/wavs/puertorican_match_interrogative-total-yn_Maria-bebe-el-vino.wav,,,,,,,,,,,,,,,,,,,,,,,,,,,,,,,,,,,,,,,,,,,,,,,,,,,,,,,,
,,,,,,,5fb2caa34a6f4d94967b2748,6057c54e64b0b4e5c128b4f9,605aac6c3de9ff26c542bf85,Dominican Republic,East coast,13 or older,no,2021-03-23_23h08.18.781,empathy_intonation_perc,2020.2.10,Win32,60,,,,,,,,,,1,andalusian,1,1,0.85612,0,8,8,20,1,21,./stim/wavs/andalusian_match_interrogative-partial-wh_Por-que-abre-el-regalo.wav,./stim/wavs/argentine_match_interrogative-partial-wh_Por-que-abre-el-regalo.wav,./stim/wavs/castilian_match_interrogative-partial-wh_Por-que-abre-el-regalo.wav,./stim/wavs/chilean_match_interrogative-partial-wh_Por-que-abre-el-regalo.wav,./stim/wavs/cuban_match_interrogative-partial-wh_Por-que-abre-el-regalo.wav,./stim/wavs/mexican_match_interrogative-partial-wh_Por-que-abre-el-regalo.wav,./stim/wavs/peruvian_match_interrogative-partial-wh_Por-que-abre-el-regalo.wav,./stim/wavs/puertorican_match_interrogative-partial-wh_Por-que-abre-el-regalo.wav,,,,,,,,,,,,,,,,,,,,,,,,,,,,,,,,,,,,,,,,,,,,,,,,,,,,,,,,
,,,,,,,5fb2caa34a6f4d94967b2748,6057c54e64b0b4e5c128b4f9,605aac6c3de9ff26c542bf85,Dominican Republic,East coast,13 or older,no,2021-03-23_23h08.18.781,empathy_intonation_perc,2020.2.10,Win32,60,,,,,,,,,,0,peruvian,0,1,0.597465,0,9,9,45,1,46,./stim/wavs/andalusian_mismatch_declarative-narrow-focus_Mi-madre-come-la-fruta.wav,./stim/wavs/argentine_mismatch_declarative-narrow-focus_Mi-madre-come-la-fruta.wav,./stim/wavs/castilian_mismatch_declarative-narrow-focus_Mi-madre-come-la-fruta.wav,./stim/wavs/chilean_mismatch_declarative-narrow-focus_Mi-madre-come-la-fruta.wav,./stim/wavs/cuban_mismatch_declarative-narrow-focus_Mi-madre-come-la-fruta.wav,./stim/wavs/mexican_mismatch_declarative-narrow-focus_Mi-madre-come-la-fruta.wav,./stim/wavs/peruvian_mismatch_declarative-narrow-focus_Mi-madre-come-la-fruta.wav,./stim/wavs/puertorican_mismatch_declarative-narrow-focus_Mi-madre-come-la-fruta.wav,,,,,,,,,,,,,,,,,,,,,,,,,,,,,,,,,,,,,,,,,,,,,,,,,,,,,,,,
,,,,,,,5fb2caa34a6f4d94967b2748,6057c54e64b0b4e5c128b4f9,605aac6c3de9ff26c542bf85,Dominican Republic,East coast,13 or older,no,2021-03-23_23h08.18.781,empathy_intonation_perc,2020.2.10,Win32,60,,,,,,,,,,1,peruvian,0,0,0.500925,0,10,10,23,1,24,./stim/wavs/andalusian_match_interrogative-partial-wh_Por-que-iba-a-Bolivia.wav,./stim/wavs/argentine_match_interrogative-partial-wh_Por-que-iba-a-Bolivia.wav,./stim/wavs/castilian_match_interrogative-partial-wh_Por-que-iba-a-Bolivia.wav,./stim/wavs/chilean_match_interrogative-partial-wh_Por-que-iba-a-Bolivia.wav,./stim/wavs/cuban_match_interrogative-partial-wh_Por-que-iba-a-Bolivia.wav,./stim/wavs/mexican_match_interrogative-partial-wh_Por-que-iba-a-Bolivia.wav,./stim/wavs/peruvian_match_interrogative-partial-wh_Por-que-iba-a-Bolivia.wav,./stim/wavs/puertorican_match_interrogative-partial-wh_Por-que-iba-a-Bolivia.wav,,,,,,,,,,,,,,,,,,,,,,,,,,,,,,,,,,,,,,,,,,,,,,,,,,,,,,,,
,,,,,,,5fb2caa34a6f4d94967b2748,6057c54e64b0b4e5c128b4f9,605aac6c3de9ff26c542bf85,Dominican Republic,East coast,13 or older,no,2021-03-23_23h08.18.781,empathy_intonation_perc,2020.2.10,Win32,60,,,,,,,,,,1,mexican,0,0,0.535625,0,11,11,61,1,62,./stim/wavs/andalusian_mismatch_interrogative-total-yn_Mi-madre-come-la-fruta.wav,./stim/wavs/argentine_mismatch_interrogative-total-yn_Mi-madre-come-la-fruta.wav,./stim/wavs/castilian_mismatch_interrogative-total-yn_Mi-madre-come-la-fruta.wav,./stim/wavs/chilean_mismatch_interrogative-total-yn_Mi-madre-come-la-fruta.wav,./stim/wavs/cuban_mismatch_interrogative-total-yn_Mi-madre-come-la-fruta.wav,./stim/wavs/mexican_mismatch_interrogative-total-yn_Mi-madre-come-la-fruta.wav,./stim/wavs/peruvian_mismatch_interrogative-total-yn_Mi-madre-come-la-fruta.wav,./stim/wavs/puertorican_mismatch_interrogative-total-yn_Mi-madre-come-la-fruta.wav,,,,,,,,,,,,,,,,,,,,,,,,,,,,,,,,,,,,,,,,,,,,,,,,,,,,,,,,
,,,,,,,5fb2caa34a6f4d94967b2748,6057c54e64b0b4e5c128b4f9,605aac6c3de9ff26c542bf85,Dominican Republic,East coast,13 or older,no,2021-03-23_23h08.18.781,empathy_intonation_perc,2020.2.10,Win32,60,,,,,,,,,,0,castilian,0,1,0.39864,0,12,12,2,1,3,./stim/wavs/andalusian_match_declarative-broad-focus_David-leia-el-libro.wav,./stim/wavs/argentine_match_declarative-broad-focus_David-leia-el-libro.wav,./stim/wavs/castilian_match_declarative-broad-focus_David-leia-el-libro.wav,./stim/wavs/chilean_match_declarative-broad-focus_David-leia-el-libro.wav,./stim/wavs/cuban_match_declarative-broad-focus_David-leia-el-libro.wav,./stim/wavs/mexican_match_declarative-broad-focus_David-leia-el-libro.wav,./stim/wavs/peruvian_match_declarative-broad-focus_David-leia-el-libro.wav,./stim/wavs/puertorican_match_declarative-broad-focus_David-leia-el-libro.wav,,,,,,,,,,,,,,,,,,,,,,,,,,,,,,,,,,,,,,,,,,,,,,,,,,,,,,,,
,,,,,,,5fb2caa34a6f4d94967b2748,6057c54e64b0b4e5c128b4f9,605aac6c3de9ff26c542bf85,Dominican Republic,East coast,13 or older,no,2021-03-23_23h08.18.781,empathy_intonation_perc,2020.2.10,Win32,60,,,,,,,,,,1,peruvian,1,1,0.28855,0,13,13,48,1,49,./stim/wavs/andalusian_mismatch_interrogative-partial-wh_Cuando-comia-la-fruta.wav,./stim/wavs/argentine_mismatch_interrogative-partial-wh_Cuando-comia-la-fruta.wav,./stim/wavs/castilian_mismatch_interrogative-partial-wh_Cuando-comia-la-fruta.wav,./stim/wavs/chilean_mismatch_interrogative-partial-wh_Cuando-comia-la-fruta.wav,./stim/wavs/cuban_mismatch_interrogative-partial-wh_Cuando-comia-la-fruta.wav,./stim/wavs/mexican_mismatch_interrogative-partial-wh_Cuando-comia-la-fruta.wav,./stim/wavs/peruvian_mismatch_interrogative-partial-wh_Cuando-comia-la-fruta.wav,./stim/wavs/puertorican_mismatch_interrogative-partial-wh_Cuando-comia-la-fruta.wav,,,,,,,,,,,,,,,,,,,,,,,,,,,,,,,,,,,,,,,,,,,,,,,,,,,,,,,,
,,,,,,,5fb2caa34a6f4d94967b2748,6057c54e64b0b4e5c128b4f9,605aac6c3de9ff26c542bf85,Dominican Republic,East coast,13 or older,no,2021-03-23_23h08.18.781,empathy_intonation_perc,2020.2.10,Win32,60,,,,,,,,,,1,castilian,1,1,0.221085,0,14,14,26,1,27,./stim/wavs/andalusian_match_interrogative-total-yn_David-leia-el-libro.wav,./stim/wavs/argentine_match_interrogative-total-yn_David-leia-el-libro.wav,./stim/wavs/castilian_match_interrogative-total-yn_David-leia-el-libro.wav,./stim/wavs/chilean_match_interrogative-total-yn_David-leia-el-libro.wav,./stim/wavs/cuban_match_interrogative-total-yn_David-leia-el-libro.wav,./stim/wavs/mexican_match_interrogative-total-yn_David-leia-el-libro.wav,./stim/wavs/peruvian_match_interrogative-total-yn_David-leia-el-libro.wav,./stim/wavs/puertorican_match_interrogative-total-yn_David-leia-el-libro.wav,,,,,,,,,,,,,,,,,,,,,,,,,,,,,,,,,,,,,,,,,,,,,,,,,,,,,,,,
,,,,,,,5fb2caa34a6f4d94967b2748,6057c54e64b0b4e5c128b4f9,605aac6c3de9ff26c542bf85,Dominican Republic,East coast,13 or older,no,2021-03-23_23h08.18.781,empathy_intonation_perc,2020.2.10,Win32,60,,,,,,,,,,1,cuban,0,0,1.001285,0,15,15,16,1,17,./stim/wavs/andalusian_match_interrogative-partial-wh_Cuando-bebia-el-vino.wav,./stim/wavs/argentine_match_interrogative-partial-wh_Cuando-bebia-el-vino.wav,./stim/wavs/castilian_match_interrogative-partial-wh_Cuando-bebia-el-vino.wav,./stim/wavs/chilean_match_interrogative-partial-wh_Cuando-bebia-el-vino.wav,./stim/wavs/cuban_match_interrogative-partial-wh_Cuando-bebia-el-vino.wav,./stim/wavs/mexican_match_interrogative-partial-wh_Cuando-bebia-el-vino.wav,./stim/wavs/peruvian_match_interrogative-partial-wh_Cuando-bebia-el-vino.wav,./stim/wavs/puertorican_match_interrogative-partial-wh_Cuando-bebia-el-vino.wav,,,,,,,,,,,,,,,,,,,,,,,,,,,,,,,,,,,,,,,,,,,,,,,,,,,,,,,,
,,,,,,,5fb2caa34a6f4d94967b2748,6057c54e64b0b4e5c128b4f9,605aac6c3de9ff26c542bf85,Dominican Republic,East coast,13 or older,no,2021-03-23_23h08.18.781,empathy_intonation_perc,2020.2.10,Win32,60,,,,,,,,,,0,argentine,1,0,0.068625,0,16,16,43,1,44,./stim/wavs/andalusian_mismatch_declarative-narrow-focus_La-maestra-vive-en-Paris.wav,./stim/wavs/argentine_mismatch_declarative-narrow-focus_La-maestra-vive-en-Paris.wav,./stim/wavs/castilian_mismatch_declarative-narrow-focus_La-maestra-vive-en-Paris.wav,./stim/wavs/chilean_mismatch_declarative-narrow-focus_La-maestra-vive-en-Paris.wav,./stim/wavs/cuban_mismatch_declarative-narrow-focus_La-maestra-vive-en-Paris.wav,./stim/wavs/mexican_mismatch_declarative-narrow-focus_La-maestra-vive-en-Paris.wav,./stim/wavs/peruvian_mismatch_declarative-narrow-focus_La-maestra-vive-en-Paris.wav,./stim/wavs/puertorican_mismatch_declarative-narrow-focus_La-maestra-vive-en-Paris.wav,,,,,,,,,,,,,,,,,,,,,,,,,,,,,,,,,,,,,,,,,,,,,,,,,,,,,,,,
,,,,,,,5fb2caa34a6f4d94967b2748,6057c54e64b0b4e5c128b4f9,605aac6c3de9ff26c542bf85,Dominican Republic,East coast,13 or older,no,2021-03-23_23h08.18.781,empathy_intonation_perc,2020.2.10,Win32,60,,,,,,,,,,0,peruvian,0,1,0.562205,0,17,17,46,1,47,./stim/wavs/andalusian_mismatch_declarative-narrow-focus_Mi-novio-viene-del-lago.wav,./stim/wavs/argentine_mismatch_declarative-narrow-focus_Mi-novio-viene-del-lago.wav,./stim/wavs/castilian_mismatch_declarative-narrow-focus_Mi-novio-viene-del-lago.wav,./stim/wavs/chilean_mismatch_declarative-narrow-focus_Mi-novio-viene-del-lago.wav,./stim/wavs/cuban_mismatch_declarative-narrow-focus_Mi-novio-viene-del-lago.wav,./stim/wavs/mexican_mismatch_declarative-narrow-focus_Mi-novio-viene-del-lago.wav,./stim/wavs/peruvian_mismatch_declarative-narrow-focus_Mi-novio-viene-del-lago.wav,./stim/wavs/puertorican_mismatch_declarative-narrow-focus_Mi-novio-viene-del-lago.wav,,,,,,,,,,,,,,,,,,,,,,,,,,,,,,,,,,,,,,,,,,,,,,,,,,,,,,,,
,,,,,,,5fb2caa34a6f4d94967b2748,6057c54e64b0b4e5c128b4f9,605aac6c3de9ff26c542bf85,Dominican Republic,East coast,13 or older,no,2021-03-23_23h08.18.781,empathy_intonation_perc,2020.2.10,Win32,60,,,,,,,,,,0,andalusian,1,0,1.580575,0,18,18,40,1,41,./stim/wavs/andalusian_mismatch_declarative-narrow-focus_El-bebe-comia-muy-bien.wav,./stim/wavs/argentine_mismatch_declarative-narrow-focus_El-bebe-comia-muy-bien.wav,./stim/wavs/castilian_mismatch_declarative-narrow-focus_El-bebe-comia-muy-bien.wav,./stim/wavs/chilean_mismatch_declarative-narrow-focus_El-bebe-comia-muy-bien.wav,./stim/wavs/cuban_mismatch_declarative-narrow-focus_El-bebe-comia-muy-bien.wav,./stim/wavs/mexican_mismatch_declarative-narrow-focus_El-bebe-comia-muy-bien.wav,./stim/wavs/peruvian_mismatch_declarative-narrow-focus_El-bebe-comia-muy-bien.wav,./stim/wavs/puertorican_mismatch_declarative-narrow-focus_El-bebe-comia-muy-bien.wav,,,,,,,,,,,,,,,,,,,,,,,,,,,,,,,,,,,,,,,,,,,,,,,,,,,,,,,,
,,,,,,,5fb2caa34a6f4d94967b2748,6057c54e64b0b4e5c128b4f9,605aac6c3de9ff26c542bf85,Dominican Republic,East coast,13 or older,no,2021-03-23_23h08.18.781,empathy_intonation_perc,2020.2.10,Win32,60,,,,,,,,,,0,cuban,1,0,1.31613,0,19,19,41,1,42,./stim/wavs/andalusian_mismatch_declarative-narrow-focus_El-hombre-mira-la-luna.wav,./stim/wavs/argentine_mismatch_declarative-narrow-focus_El-hombre-mira-la-luna.wav,./stim/wavs/castilian_mismatch_declarative-narrow-focus_El-hombre-mira-la-luna.wav,./stim/wavs/chilean_mismatch_declarative-narrow-focus_El-hombre-mira-la-luna.wav,./stim/wavs/cuban_mismatch_declarative-narrow-focus_El-hombre-mira-la-luna.wav,./stim/wavs/mexican_mismatch_declarative-narrow-focus_El-hombre-mira-la-luna.wav,./stim/wavs/peruvian_mismatch_declarative-narrow-focus_El-hombre-mira-la-luna.wav,./stim/wavs/puertorican_mismatch_declarative-narrow-focus_El-hombre-mira-la-luna.wav,,,,,,,,,,,,,,,,,,,,,,,,,,,,,,,,,,,,,,,,,,,,,,,,,,,,,,,,
,,,,,,,5fb2caa34a6f4d94967b2748,6057c54e64b0b4e5c128b4f9,605aac6c3de9ff26c542bf85,Dominican Republic,East coast,13 or older,no,2021-03-23_23h08.18.781,empathy_intonation_perc,2020.2.10,Win32,60,,,,,,,,,,1,castilian,0,0,0.63439,0,20,20,22,1,23,./stim/wavs/andalusian_match_interrogative-partial-wh_Por-que-hablaba-del-agua.wav,./stim/wavs/argentine_match_interrogative-partial-wh_Por-que-hablaba-del-agua.wav,./stim/wavs/castilian_match_interrogative-partial-wh_Por-que-hablaba-del-agua.wav,./stim/wavs/chilean_match_interrogative-partial-wh_Por-que-hablaba-del-agua.wav,./stim/wavs/cuban_match_interrogative-partial-wh_Por-que-hablaba-del-agua.wav,./stim/wavs/mexican_match_interrogative-partial-wh_Por-que-hablaba-del-agua.wav,./stim/wavs/peruvian_match_interrogative-partial-wh_Por-que-hablaba-del-agua.wav,./stim/wavs/puertorican_match_interrogative-partial-wh_Por-que-hablaba-del-agua.wav,,,,,,,,,,,,,,,,,,,,,,,,,,,,,,,,,,,,,,,,,,,,,,,,,,,,,,,,
,,,,,,,5fb2caa34a6f4d94967b2748,6057c54e64b0b4e5c128b4f9,605aac6c3de9ff26c542bf85,Dominican Republic,East coast,13 or older,no,2021-03-23_23h08.18.781,empathy_intonation_perc,2020.2.10,Win32,60,,,,,,,,,,1,castilian,0,0,0.617335,0,21,21,62,1,63,./stim/wavs/andalusian_mismatch_interrogative-total-yn_Mi-novio-viene-del-lago.wav,./stim/wavs/argentine_mismatch_interrogative-total-yn_Mi-novio-viene-del-lago.wav,./stim/wavs/castilian_mismatch_interrogative-total-yn_Mi-novio-viene-del-lago.wav,./stim/wavs/chilean_mismatch_interrogative-total-yn_Mi-novio-viene-del-lago.wav,./stim/wavs/cuban_mismatch_interrogative-total-yn_Mi-novio-viene-del-lago.wav,./stim/wavs/mexican_mismatch_interrogative-total-yn_Mi-novio-viene-del-lago.wav,./stim/wavs/peruvian_mismatch_interrogative-total-yn_Mi-novio-viene-del-lago.wav,./stim/wavs/puertorican_mismatch_interrogative-total-yn_Mi-novio-viene-del-lago.wav,,,,,,,,,,,,,,,,,,,,,,,,,,,,,,,,,,,,,,,,,,,,,,,,,,,,,,,,
,,,,,,,5fb2caa34a6f4d94967b2748,6057c54e64b0b4e5c128b4f9,605aac6c3de9ff26c542bf85,Dominican Republic,East coast,13 or older,no,2021-03-23_23h08.18.781,empathy_intonation_perc,2020.2.10,Win32,60,,,,,,,,,,1,andalusian,1,1,0.6426,0,22,22,56,1,57,./stim/wavs/andalusian_mismatch_interrogative-total-yn_El-bebe-comia-muy-bien.wav,./stim/wavs/argentine_mismatch_interrogative-total-yn_El-bebe-comia-muy-bien.wav,./stim/wavs/castilian_mismatch_interrogative-total-yn_El-bebe-comia-muy-bien.wav,./stim/wavs/chilean_mismatch_interrogative-total-yn_El-bebe-comia-muy-bien.wav,./stim/wavs/cuban_mismatch_interrogative-total-yn_El-bebe-comia-muy-bien.wav,./stim/wavs/mexican_mismatch_interrogative-total-yn_El-bebe-comia-muy-bien.wav,./stim/wavs/peruvian_mismatch_interrogative-total-yn_El-bebe-comia-muy-bien.wav,./stim/wavs/puertorican_mismatch_interrogative-total-yn_El-bebe-comia-muy-bien.wav,,,,,,,,,,,,,,,,,,,,,,,,,,,,,,,,,,,,,,,,,,,,,,,,,,,,,,,,
,,,,,,,5fb2caa34a6f4d94967b2748,6057c54e64b0b4e5c128b4f9,605aac6c3de9ff26c542bf85,Dominican Republic,East coast,13 or older,no,2021-03-23_23h08.18.781,empathy_intonation_perc,2020.2.10,Win32,60,,,,,,,,,,1,andalusian,0,0,0.578935,0,23,23,31,1,32,./stim/wavs/andalusian_match_interrogative-total-yn_Marta-abre-el-regalo.wav,./stim/wavs/argentine_match_interrogative-total-yn_Marta-abre-el-regalo.wav,./stim/wavs/castilian_match_interrogative-total-yn_Marta-abre-el-regalo.wav,./stim/wavs/chilean_match_interrogative-total-yn_Marta-abre-el-regalo.wav,./stim/wavs/cuban_match_interrogative-total-yn_Marta-abre-el-regalo.wav,./stim/wavs/mexican_match_interrogative-total-yn_Marta-abre-el-regalo.wav,./stim/wavs/peruvian_match_interrogative-total-yn_Marta-abre-el-regalo.wav,./stim/wavs/puertorican_match_interrogative-total-yn_Marta-abre-el-regalo.wav,,,,,,,,,,,,,,,,,,,,,,,,,,,,,,,,,,,,,,,,,,,,,,,,,,,,,,,,
,,,,,,,5fb2caa34a6f4d94967b2748,6057c54e64b0b4e5c128b4f9,605aac6c3de9ff26c542bf85,Dominican Republic,East coast,13 or older,no,2021-03-23_23h08.18.781,empathy_intonation_perc,2020.2.10,Win32,60,,,,,,,,,,0,mexican,0,1,0.42271,0,24,24,32,1,33,./stim/wavs/andalusian_mismatch_declarative-broad-focus_El-bebe-comia-muy-bien.wav,./stim/wavs/argentine_mismatch_declarative-broad-focus_El-bebe-comia-muy-bien.wav,./stim/wavs/castilian_mismatch_declarative-broad-focus_El-bebe-comia-muy-bien.wav,./stim/wavs/chilean_mismatch_declarative-broad-focus_El-bebe-comia-muy-bien.wav,./stim/wavs/cuban_mismatch_declarative-broad-focus_El-bebe-comia-muy-bien.wav,./stim/wavs/mexican_mismatch_declarative-broad-focus_El-bebe-comia-muy-bien.wav,./stim/wavs/peruvian_mismatch_declarative-broad-focus_El-bebe-comia-muy-bien.wav,./stim/wavs/puertorican_mismatch_declarative-broad-focus_El-bebe-comia-muy-bien.wav,,,,,,,,,,,,,,,,,,,,,,,,,,,,,,,,,,,,,,,,,,,,,,,,,,,,,,,,
,,,,,,,5fb2caa34a6f4d94967b2748,6057c54e64b0b4e5c128b4f9,605aac6c3de9ff26c542bf85,Dominican Republic,East coast,13 or older,no,2021-03-23_23h08.18.781,empathy_intonation_perc,2020.2.10,Win32,60,,,,,,,,,,0,peruvian,1,0,0.340335,0,25,25,44,1,45,./stim/wavs/andalusian_mismatch_declarative-narrow-focus_La-nina-lava-el-plato.wav,./stim/wavs/argentine_mismatch_declarative-narrow-focus_La-nina-lava-el-plato.wav,./stim/wavs/castilian_mismatch_declarative-narrow-focus_La-nina-lava-el-plato.wav,./stim/wavs/chilean_mismatch_declarative-narrow-focus_La-nina-lava-el-plato.wav,./stim/wavs/cuban_mismatch_declarative-narrow-focus_La-nina-lava-el-plato.wav,./stim/wavs/mexican_mismatch_declarative-narrow-focus_La-nina-lava-el-plato.wav,./stim/wavs/peruvian_mismatch_declarative-narrow-focus_La-nina-lava-el-plato.wav,./stim/wavs/puertorican_mismatch_declarative-narrow-focus_La-nina-lava-el-plato.wav,,,,,,,,,,,,,,,,,,,,,,,,,,,,,,,,,,,,,,,,,,,,,,,,,,,,,,,,
,,,,,,,5fb2caa34a6f4d94967b2748,6057c54e64b0b4e5c128b4f9,605aac6c3de9ff26c542bf85,Dominican Republic,East coast,13 or older,no,2021-03-23_23h08.18.781,empathy_intonation_perc,2020.2.10,Win32,60,,,,,,,,,,0,puertorican,1,0,0.954305,0,26,26,36,1,37,./stim/wavs/andalusian_mismatch_declarative-broad-focus_La-nina-lava-el-plato.wav,./stim/wavs/argentine_mismatch_declarative-broad-focus_La-nina-lava-el-plato.wav,./stim/wavs/castilian_mismatch_declarative-broad-focus_La-nina-lava-el-plato.wav,./stim/wavs/chilean_mismatch_declarative-broad-focus_La-nina-lava-el-plato.wav,./stim/wavs/cuban_mismatch_declarative-broad-focus_La-nina-lava-el-plato.wav,./stim/wavs/mexican_mismatch_declarative-broad-focus_La-nina-lava-el-plato.wav,./stim/wavs/peruvian_mismatch_declarative-broad-focus_La-nina-lava-el-plato.wav,./stim/wavs/puertorican_mismatch_declarative-broad-focus_La-nina-lava-el-plato.wav,,,,,,,,,,,,,,,,,,,,,,,,,,,,,,,,,,,,,,,,,,,,,,,,,,,,,,,,
,,,,,,,5fb2caa34a6f4d94967b2748,6057c54e64b0b4e5c128b4f9,605aac6c3de9ff26c542bf85,Dominican Republic,East coast,13 or older,no,2021-03-23_23h08.18.781,empathy_intonation_perc,2020.2.10,Win32,60,,,,,,,,,,0,argentine,0,1,0.334645,0,27,27,8,1,9,./stim/wavs/andalusian_match_declarative-narrow-focus_Ana-lleva-el-abrigo.wav,./stim/wavs/argentine_match_declarative-narrow-focus_Ana-lleva-el-abrigo.wav,./stim/wavs/castilian_match_declarative-narrow-focus_Ana-lleva-el-abrigo.wav,./stim/wavs/chilean_match_declarative-narrow-focus_Ana-lleva-el-abrigo.wav,./stim/wavs/cuban_match_declarative-narrow-focus_Ana-lleva-el-abrigo.wav,./stim/wavs/mexican_match_declarative-narrow-focus_Ana-lleva-el-abrigo.wav,./stim/wavs/peruvian_match_declarative-narrow-focus_Ana-lleva-el-abrigo.wav,./stim/wavs/puertorican_match_declarative-narrow-focus_Ana-lleva-el-abrigo.wav,,,,,,,,,,,,,,,,,,,,,,,,,,,,,,,,,,,,,,,,,,,,,,,,,,,,,,,,
,,,,,,,5fb2caa34a6f4d94967b2748,6057c54e64b0b4e5c128b4f9,605aac6c3de9ff26c542bf85,Dominican Republic,East coast,13 or older,no,2021-03-23_23h08.18.781,empathy_intonation_perc,2020.2.10,Win32,60,,,,,,,,,,0,cuban,0,1,1.57906,0,28,28,11,1,12,./stim/wavs/andalusian_match_declarative-narrow-focus_Emilio-ama-la-marcha.wav,./stim/wavs/argentine_match_declarative-narrow-focus_Emilio-ama-la-marcha.wav,./stim/wavs/castilian_match_declarative-narrow-focus_Emilio-ama-la-marcha.wav,./stim/wavs/chilean_match_declarative-narrow-focus_Emilio-ama-la-marcha.wav,./stim/wavs/cuban_match_declarative-narrow-focus_Emilio-ama-la-marcha.wav,./stim/wavs/mexican_match_declarative-narrow-focus_Emilio-ama-la-marcha.wav,./stim/wavs/peruvian_match_declarative-narrow-focus_Emilio-ama-la-marcha.wav,./stim/wavs/puertorican_match_declarative-narrow-focus_Emilio-ama-la-marcha.wav,,,,,,,,,,,,,,,,,,,,,,,,,,,,,,,,,,,,,,,,,,,,,,,,,,,,,,,,
,,,,,,,5fb2caa34a6f4d94967b2748,6057c54e64b0b4e5c128b4f9,605aac6c3de9ff26c542bf85,Dominican Republic,East coast,13 or older,no,2021-03-23_23h08.18.781,empathy_intonation_perc,2020.2.10,Win32,60,,,,,,,,,,1,puertorican,0,0,0.336355,0,29,29,17,1,18,./stim/wavs/andalusian_match_interrogative-partial-wh_Cuando-leia-el-libro.wav,./stim/wavs/argentine_match_interrogative-partial-wh_Cuando-leia-el-libro.wav,./stim/wavs/castilian_match_interrogative-partial-wh_Cuando-leia-el-libro.wav,./stim/wavs/chilean_match_interrogative-partial-wh_Cuando-leia-el-libro.wav,./stim/wavs/cuban_match_interrogative-partial-wh_Cuando-leia-el-libro.wav,./stim/wavs/mexican_match_interrogative-partial-wh_Cuando-leia-el-libro.wav,./stim/wavs/peruvian_match_interrogative-partial-wh_Cuando-leia-el-libro.wav,./stim/wavs/puertorican_match_interrogative-partial-wh_Cuando-leia-el-libro.wav,,,,,,,,,,,,,,,,,,,,,,,,,,,,,,,,,,,,,,,,,,,,,,,,,,,,,,,,
,,,,,,,5fb2caa34a6f4d94967b2748,6057c54e64b0b4e5c128b4f9,605aac6c3de9ff26c542bf85,Dominican Republic,East coast,13 or older,no,2021-03-23_23h08.18.781,empathy_intonation_perc,2020.2.10,Win32,60,,,,,,,,,,0,cuban,1,0,0.037335,0,30,30,34,1,35,./stim/wavs/andalusian_mismatch_declarative-broad-focus_El-nino-oye-el-rio.wav,./stim/wavs/argentine_mismatch_declarative-broad-focus_El-nino-oye-el-rio.wav,./stim/wavs/castilian_mismatch_declarative-broad-focus_El-nino-oye-el-rio.wav,./stim/wavs/chilean_mismatch_declarative-broad-focus_El-nino-oye-el-rio.wav,./stim/wavs/cuban_mismatch_declarative-broad-focus_El-nino-oye-el-rio.wav,./stim/wavs/mexican_mismatch_declarative-broad-focus_El-nino-oye-el-rio.wav,./stim/wavs/peruvian_mismatch_declarative-broad-focus_El-nino-oye-el-rio.wav,./stim/wavs/puertorican_mismatch_declarative-broad-focus_El-nino-oye-el-rio.wav,,,,,,,,,,,,,,,,,,,,,,,,,,,,,,,,,,,,,,,,,,,,,,,,,,,,,,,,
,,,,,,,5fb2caa34a6f4d94967b2748,6057c54e64b0b4e5c128b4f9,605aac6c3de9ff26c542bf85,Dominican Republic,East coast,13 or older,no,2021-03-23_23h08.18.781,empathy_intonation_perc,2020.2.10,Win32,60,,,,,,,,,,1,peruvian,1,1,1.33636,0,31,31,49,1,50,./stim/wavs/andalusian_mismatch_interrogative-partial-wh_Cuando-lavaba-el-plato.wav,./stim/wavs/argentine_mismatch_interrogative-partial-wh_Cuando-lavaba-el-plato.wav,./stim/wavs/castilian_mismatch_interrogative-partial-wh_Cuando-lavaba-el-plato.wav,./stim/wavs/chilean_mismatch_interrogative-partial-wh_Cuando-lavaba-el-plato.wav,./stim/wavs/cuban_mismatch_interrogative-partial-wh_Cuando-lavaba-el-plato.wav,./stim/wavs/mexican_mismatch_interrogative-partial-wh_Cuando-lavaba-el-plato.wav,./stim/wavs/peruvian_mismatch_interrogative-partial-wh_Cuando-lavaba-el-plato.wav,./stim/wavs/puertorican_mismatch_interrogative-partial-wh_Cuando-lavaba-el-plato.wav,,,,,,,,,,,,,,,,,,,,,,,,,,,,,,,,,,,,,,,,,,,,,,,,,,,,,,,,
,,,,,,,5fb2caa34a6f4d94967b2748,6057c54e64b0b4e5c128b4f9,605aac6c3de9ff26c542bf85,Dominican Republic,East coast,13 or older,no,2021-03-23_23h08.18.781,empathy_intonation_perc,2020.2.10,Win32,60,,,,,,,,,,1,peruvian,1,1,0.86779,0,32,32,58,1,59,./stim/wavs/andalusian_mismatch_interrogative-total-yn_El-nino-oye-el-rio.wav,./stim/wavs/argentine_mismatch_interrogative-total-yn_El-nino-oye-el-rio.wav,./stim/wavs/castilian_mismatch_interrogative-total-yn_El-nino-oye-el-rio.wav,./stim/wavs/chilean_mismatch_interrogative-total-yn_El-nino-oye-el-rio.wav,./stim/wavs/cuban_mismatch_interrogative-total-yn_El-nino-oye-el-rio.wav,./stim/wavs/mexican_mismatch_interrogative-total-yn_El-nino-oye-el-rio.wav,./stim/wavs/peruvian_mismatch_interrogative-total-yn_El-nino-oye-el-rio.wav,./stim/wavs/puertorican_mismatch_interrogative-total-yn_El-nino-oye-el-rio.wav,,,,,,,,,,,,,,,,,,,,,,,,,,,,,,,,,,,,,,,,,,,,,,,,,,,,,,,,
,,,,,,,5fb2caa34a6f4d94967b2748,6057c54e64b0b4e5c128b4f9,605aac6c3de9ff26c542bf85,Dominican Republic,East coast,13 or older,no,2021-03-23_23h08.18.781,empathy_intonation_perc,2020.2.10,Win32,60,,,,,,,,,,0,peruvian,0,1,0.06855,0,33,33,1,1,2,./stim/wavs/andalusian_match_declarative-broad-focus_Daniel-iba-a-Bolivia.wav,./stim/wavs/argentine_match_declarative-broad-focus_Daniel-iba-a-Bolivia.wav,./stim/wavs/castilian_match_declarative-broad-focus_Daniel-iba-a-Bolivia.wav,./stim/wavs/chilean_match_declarative-broad-focus_Daniel-iba-a-Bolivia.wav,./stim/wavs/cuban_match_declarative-broad-focus_Daniel-iba-a-Bolivia.wav,./stim/wavs/mexican_match_declarative-broad-focus_Daniel-iba-a-Bolivia.wav,./stim/wavs/peruvian_match_declarative-broad-focus_Daniel-iba-a-Bolivia.wav,./stim/wavs/puertorican_match_declarative-broad-focus_Daniel-iba-a-Bolivia.wav,,,,,,,,,,,,,,,,,,,,,,,,,,,,,,,,,,,,,,,,,,,,,,,,,,,,,,,,
,,,,,,,5fb2caa34a6f4d94967b2748,6057c54e64b0b4e5c128b4f9,605aac6c3de9ff26c542bf85,Dominican Republic,East coast,13 or older,no,2021-03-23_23h08.18.781,empathy_intonation_perc,2020.2.10,Win32,60,,,,,,,,,,1,peruvian,0,0,0.15512,0,34,34,63,1,64,./stim/wavs/andalusian_mismatch_interrogative-total-yn_Mi-tia-odia-la-lluvia.wav,./stim/wavs/argentine_mismatch_interrogative-total-yn_Mi-tia-odia-la-lluvia.wav,./stim/wavs/castilian_mismatch_interrogative-total-yn_Mi-tia-odia-la-lluvia.wav,./stim/wavs/chilean_mismatch_interrogative-total-yn_Mi-tia-odia-la-lluvia.wav,./stim/wavs/cuban_mismatch_interrogative-total-yn_Mi-tia-odia-la-lluvia.wav,./stim/wavs/mexican_mismatch_interrogative-total-yn_Mi-tia-odia-la-lluvia.wav,./stim/wavs/peruvian_mismatch_interrogative-total-yn_Mi-tia-odia-la-lluvia.wav,./stim/wavs/puertorican_mismatch_interrogative-total-yn_Mi-tia-odia-la-lluvia.wav,,,,,,,,,,,,,,,,,,,,,,,,,,,,,,,,,,,,,,,,,,,,,,,,,,,,,,,,
,,,,,,,5fb2caa34a6f4d94967b2748,6057c54e64b0b4e5c128b4f9,605aac6c3de9ff26c542bf85,Dominican Republic,East coast,13 or older,no,2021-03-23_23h08.18.781,empathy_intonation_perc,2020.2.10,Win32,60,,,,,,,,,,0,puertorican,0,1,0.87172,0,35,35,15,1,16,./stim/wavs/andalusian_match_declarative-narrow-focus_Marta-abre-el-regalo.wav,./stim/wavs/argentine_match_declarative-narrow-focus_Marta-abre-el-regalo.wav,./stim/wavs/castilian_match_declarative-narrow-focus_Marta-abre-el-regalo.wav,./stim/wavs/chilean_match_declarative-narrow-focus_Marta-abre-el-regalo.wav,./stim/wavs/cuban_match_declarative-narrow-focus_Marta-abre-el-regalo.wav,./stim/wavs/mexican_match_declarative-narrow-focus_Marta-abre-el-regalo.wav,./stim/wavs/peruvian_match_declarative-narrow-focus_Marta-abre-el-regalo.wav,./stim/wavs/puertorican_match_declarative-narrow-focus_Marta-abre-el-regalo.wav,,,,,,,,,,,,,,,,,,,,,,,,,,,,,,,,,,,,,,,,,,,,,,,,,,,,,,,,
,,,,,,,5fb2caa34a6f4d94967b2748,6057c54e64b0b4e5c128b4f9,605aac6c3de9ff26c542bf85,Dominican Republic,East coast,13 or older,no,2021-03-23_23h08.18.781,empathy_intonation_perc,2020.2.10,Win32,60,,,,,,,,,,0,cuban,0,1,0.44871,0,36,36,13,1,14,./stim/wavs/andalusian_match_declarative-narrow-focus_Maria-bebe-el-vino.wav,./stim/wavs/argentine_match_declarative-narrow-focus_Maria-bebe-el-vino.wav,./stim/wavs/castilian_match_declarative-narrow-focus_Maria-bebe-el-vino.wav,./stim/wavs/chilean_match_declarative-narrow-focus_Maria-bebe-el-vino.wav,./stim/wavs/cuban_match_declarative-narrow-focus_Maria-bebe-el-vino.wav,./stim/wavs/mexican_match_declarative-narrow-focus_Maria-bebe-el-vino.wav,./stim/wavs/peruvian_match_declarative-narrow-focus_Maria-bebe-el-vino.wav,./stim/wavs/puertorican_match_declarative-narrow-focus_Maria-bebe-el-vino.wav,,,,,,,,,,,,,,,,,,,,,,,,,,,,,,,,,,,,,,,,,,,,,,,,,,,,,,,,
,,,,,,,5fb2caa34a6f4d94967b2748,6057c54e64b0b4e5c128b4f9,605aac6c3de9ff26c542bf85,Dominican Republic,East coast,13 or older,no,2021-03-23_23h08.18.781,empathy_intonation_perc,2020.2.10,Win32,60,,,,,,,,,,1,andalusian,1,1,0.16993,0,37,37,59,1,60,./stim/wavs/andalusian_mismatch_interrogative-total-yn_La-maestra-vive-en-Paris.wav,./stim/wavs/argentine_mismatch_interrogative-total-yn_La-maestra-vive-en-Paris.wav,./stim/wavs/castilian_mismatch_interrogative-total-yn_La-maestra-vive-en-Paris.wav,./stim/wavs/chilean_mismatch_interrogative-total-yn_La-maestra-vive-en-Paris.wav,./stim/wavs/cuban_mismatch_interrogative-total-yn_La-maestra-vive-en-Paris.wav,./stim/wavs/mexican_mismatch_interrogative-total-yn_La-maestra-vive-en-Paris.wav,./stim/wavs/peruvian_mismatch_interrogative-total-yn_La-maestra-vive-en-Paris.wav,./stim/wavs/puertorican_mismatch_interrogative-total-yn_La-maestra-vive-en-Paris.wav,,,,,,,,,,,,,,,,,,,,,,,,,,,,,,,,,,,,,,,,,,,,,,,,,,,,,,,,
,,,,,,,5fb2caa34a6f4d94967b2748,6057c54e64b0b4e5c128b4f9,605aac6c3de9ff26c542bf85,Dominican Republic,East coast,13 or older,no,2021-03-23_23h08.18.781,empathy_intonation_perc,2020.2.10,Win32,60,,,,,,,,,,1,andalusian,1,1,0.317935,0,38,38,57,1,58,./stim/wavs/andalusian_mismatch_interrogative-total-yn_El-hombre-mira-la-luna.wav,./stim/wavs/argentine_mismatch_interrogative-total-yn_El-hombre-mira-la-luna.wav,./stim/wavs/castilian_mismatch_interrogative-total-yn_El-hombre-mira-la-luna.wav,./stim/wavs/chilean_mismatch_interrogative-total-yn_El-hombre-mira-la-luna.wav,./stim/wavs/cuban_mismatch_interrogative-total-yn_El-hombre-mira-la-luna.wav,./stim/wavs/mexican_mismatch_interrogative-total-yn_El-hombre-mira-la-luna.wav,./stim/wavs/peruvian_mismatch_interrogative-total-yn_El-hombre-mira-la-luna.wav,./stim/wavs/puertorican_mismatch_interrogative-total-yn_El-hombre-mira-la-luna.wav,,,,,,,,,,,,,,,,,,,,,,,,,,,,,,,,,,,,,,,,,,,,,,,,,,,,,,,,
,,,,,,,5fb2caa34a6f4d94967b2748,6057c54e64b0b4e5c128b4f9,605aac6c3de9ff26c542bf85,Dominican Republic,East coast,13 or older,no,2021-03-23_23h08.18.781,empathy_intonation_perc,2020.2.10,Win32,60,,,,,,,,,,0,andalusian,1,0,0.24601,0,39,39,6,1,7,./stim/wavs/andalusian_match_declarative-broad-focus_Mariano-habla-del-tiempo.wav,./stim/wavs/argentine_match_declarative-broad-focus_Mariano-habla-del-tiempo.wav,./stim/wavs/castilian_match_declarative-broad-focus_Mariano-habla-del-tiempo.wav,./stim/wavs/chilean_match_declarative-broad-focus_Mariano-habla-del-tiempo.wav,./stim/wavs/cuban_match_declarative-broad-focus_Mariano-habla-del-tiempo.wav,./stim/wavs/mexican_match_declarative-broad-focus_Mariano-habla-del-tiempo.wav,./stim/wavs/peruvian_match_declarative-broad-focus_Mariano-habla-del-tiempo.wav,./stim/wavs/puertorican_match_declarative-broad-focus_Mariano-habla-del-tiempo.wav,,,,,,,,,,,,,,,,,,,,,,,,,,,,,,,,,,,,,,,,,,,,,,,,,,,,,,,,
,,,,,,,5fb2caa34a6f4d94967b2748,6057c54e64b0b4e5c128b4f9,605aac6c3de9ff26c542bf85,Dominican Republic,East coast,13 or older,no,2021-03-23_23h08.18.781,empathy_intonation_perc,2020.2.10,Win32,60,,,,,,,,,,0,cuban,1,0,0.50306,0,40,40,35,1,36,./stim/wavs/andalusian_mismatch_declarative-broad-focus_La-maestra-vive-en-Paris.wav,./stim/wavs/argentine_mismatch_declarative-broad-focus_La-maestra-vive-en-Paris.wav,./stim/wavs/castilian_mismatch_declarative-broad-focus_La-maestra-vive-en-Paris.wav,./stim/wavs/chilean_mismatch_declarative-broad-focus_La-maestra-vive-en-Paris.wav,./stim/wavs/cuban_mismatch_declarative-broad-focus_La-maestra-vive-en-Paris.wav,./stim/wavs/mexican_mismatch_declarative-broad-focus_La-maestra-vive-en-Paris.wav,./stim/wavs/peruvian_mismatch_declarative-broad-focus_La-maestra-vive-en-Paris.wav,./stim/wavs/puertorican_mismatch_declarative-broad-focus_La-maestra-vive-en-Paris.wav,,,,,,,,,,,,,,,,,,,,,,,,,,,,,,,,,,,,,,,,,,,,,,,,,,,,,,,,
,,,,,,,5fb2caa34a6f4d94967b2748,6057c54e64b0b4e5c128b4f9,605aac6c3de9ff26c542bf85,Dominican Republic,East coast,13 or older,no,2021-03-23_23h08.18.781,empathy_intonation_perc,2020.2.10,Win32,60,,,,,,,,,,0,cuban,0,1,0.469035,0,41,41,10,1,11,./stim/wavs/andalusian_match_declarative-narrow-focus_David-leia-el-libro.wav,./stim/wavs/argentine_match_declarative-narrow-focus_David-leia-el-libro.wav,./stim/wavs/castilian_match_declarative-narrow-focus_David-leia-el-libro.wav,./stim/wavs/chilean_match_declarative-narrow-focus_David-leia-el-libro.wav,./stim/wavs/cuban_match_declarative-narrow-focus_David-leia-el-libro.wav,./stim/wavs/mexican_match_declarative-narrow-focus_David-leia-el-libro.wav,./stim/wavs/peruvian_match_declarative-narrow-focus_David-leia-el-libro.wav,./stim/wavs/puertorican_match_declarative-narrow-focus_David-leia-el-libro.wav,,,,,,,,,,,,,,,,,,,,,,,,,,,,,,,,,,,,,,,,,,,,,,,,,,,,,,,,
,,,,,,,5fb2caa34a6f4d94967b2748,6057c54e64b0b4e5c128b4f9,605aac6c3de9ff26c542bf85,Dominican Republic,East coast,13 or older,no,2021-03-23_23h08.18.781,empathy_intonation_perc,2020.2.10,Win32,60,,,,,,,,,,1,castilian,1,1,0.270875,0,42,42,21,1,22,./stim/wavs/andalusian_match_interrogative-partial-wh_Por-que-ama-la-navidad.wav,./stim/wavs/argentine_match_interrogative-partial-wh_Por-que-ama-la-navidad.wav,./stim/wavs/castilian_match_interrogative-partial-wh_Por-que-ama-la-navidad.wav,./stim/wavs/chilean_match_interrogative-partial-wh_Por-que-ama-la-navidad.wav,./stim/wavs/cuban_match_interrogative-partial-wh_Por-que-ama-la-navidad.wav,./stim/wavs/mexican_match_interrogative-partial-wh_Por-que-ama-la-navidad.wav,./stim/wavs/peruvian_match_interrogative-partial-wh_Por-que-ama-la-navidad.wav,./stim/wavs/puertorican_match_interrogative-partial-wh_Por-que-ama-la-navidad.wav,,,,,,,,,,,,,,,,,,,,,,,,,,,,,,,,,,,,,,,,,,,,,,,,,,,,,,,,
,,,,,,,5fb2caa34a6f4d94967b2748,6057c54e64b0b4e5c128b4f9,605aac6c3de9ff26c542bf85,Dominican Republic,East coast,13 or older,no,2021-03-23_23h08.18.781,empathy_intonation_perc,2020.2.10,Win32,60,,,,,,,,,,0,puertorican,1,0,0.23826,0,43,43,12,1,13,./stim/wavs/andalusian_match_declarative-narrow-focus_Manuela-vende-el-carro.wav,./stim/wavs/argentine_match_declarative-narrow-focus_Manuela-vende-el-carro.wav,./stim/wavs/castilian_match_declarative-narrow-focus_Manuela-vende-el-carro.wav,./stim/wavs/chilean_match_declarative-narrow-focus_Manuela-vende-el-carro.wav,./stim/wavs/cuban_match_declarative-narrow-focus_Manuela-vende-el-carro.wav,./stim/wavs/mexican_match_declarative-narrow-focus_Manuela-vende-el-carro.wav,./stim/wavs/peruvian_match_declarative-narrow-focus_Manuela-vende-el-carro.wav,./stim/wavs/puertorican_match_declarative-narrow-focus_Manuela-vende-el-carro.wav,,,,,,,,,,,,,,,,,,,,,,,,,,,,,,,,,,,,,,,,,,,,,,,,,,,,,,,,
,,,,,,,5fb2caa34a6f4d94967b2748,6057c54e64b0b4e5c128b4f9,605aac6c3de9ff26c542bf85,Dominican Republic,East coast,13 or older,no,2021-03-23_23h08.18.781,empathy_intonation_perc,2020.2.10,Win32,60,,,,,,,,,,0,andalusian,0,1,0.428135,0,44,44,3,1,4,./stim/wavs/andalusian_match_declarative-broad-focus_Emilio-ama-la-marcha.wav,./stim/wavs/argentine_match_declarative-broad-focus_Emilio-ama-la-marcha.wav,./stim/wavs/castilian_match_declarative-broad-focus_Emilio-ama-la-marcha.wav,./stim/wavs/chilean_match_declarative-broad-focus_Emilio-ama-la-marcha.wav,./stim/wavs/cuban_match_declarative-broad-focus_Emilio-ama-la-marcha.wav,./stim/wavs/mexican_match_declarative-broad-focus_Emilio-ama-la-marcha.wav,./stim/wavs/peruvian_match_declarative-broad-focus_Emilio-ama-la-marcha.wav,./stim/wavs/puertorican_match_declarative-broad-focus_Emilio-ama-la-marcha.wav,,,,,,,,,,,,,,,,,,,,,,,,,,,,,,,,,,,,,,,,,,,,,,,,,,,,,,,,
,,,,,,,5fb2caa34a6f4d94967b2748,6057c54e64b0b4e5c128b4f9,605aac6c3de9ff26c542bf85,Dominican Republic,East coast,13 or older,no,2021-03-23_23h08.18.781,empathy_intonation_perc,2020.2.10,Win32,60,,,,,,,,,,0,argentine,0,1,0.307555,0,45,45,9,1,10,./stim/wavs/andalusian_match_declarative-narrow-focus_Daniel-iba-a-Bolivia.wav,./stim/wavs/argentine_match_declarative-narrow-focus_Daniel-iba-a-Bolivia.wav,./stim/wavs/castilian_match_declarative-narrow-focus_Daniel-iba-a-Bolivia.wav,./stim/wavs/chilean_match_declarative-narrow-focus_Daniel-iba-a-Bolivia.wav,./stim/wavs/cuban_match_declarative-narrow-focus_Daniel-iba-a-Bolivia.wav,./stim/wavs/mexican_match_declarative-narrow-focus_Daniel-iba-a-Bolivia.wav,./stim/wavs/peruvian_match_declarative-narrow-focus_Daniel-iba-a-Bolivia.wav,./stim/wavs/puertorican_match_declarative-narrow-focus_Daniel-iba-a-Bolivia.wav,,,,,,,,,,,,,,,,,,,,,,,,,,,,,,,,,,,,,,,,,,,,,,,,,,,,,,,,
,,,,,,,5fb2caa34a6f4d94967b2748,6057c54e64b0b4e5c128b4f9,605aac6c3de9ff26c542bf85,Dominican Republic,East coast,13 or older,no,2021-03-23_23h08.18.781,empathy_intonation_perc,2020.2.10,Win32,60,,,,,,,,,,0,castilian,0,1,1.12064,0,46,46,42,1,43,./stim/wavs/andalusian_mismatch_declarative-narrow-focus_El-nino-oye-el-rio.wav,./stim/wavs/argentine_mismatch_declarative-narrow-focus_El-nino-oye-el-rio.wav,./stim/wavs/castilian_mismatch_declarative-narrow-focus_El-nino-oye-el-rio.wav,./stim/wavs/chilean_mismatch_declarative-narrow-focus_El-nino-oye-el-rio.wav,./stim/wavs/cuban_mismatch_declarative-narrow-focus_El-nino-oye-el-rio.wav,./stim/wavs/mexican_mismatch_declarative-narrow-focus_El-nino-oye-el-rio.wav,./stim/wavs/peruvian_mismatch_declarative-narrow-focus_El-nino-oye-el-rio.wav,./stim/wavs/puertorican_mismatch_declarative-narrow-focus_El-nino-oye-el-rio.wav,,,,,,,,,,,,,,,,,,,,,,,,,,,,,,,,,,,,,,,,,,,,,,,,,,,,,,,,
,,,,,,,5fb2caa34a6f4d94967b2748,6057c54e64b0b4e5c128b4f9,605aac6c3de9ff26c542bf85,Dominican Republic,East coast,13 or older,no,2021-03-23_23h08.18.781,empathy_intonation_perc,2020.2.10,Win32,60,,,,,,,,,,1,andalusian,0,0,1.25121,0,47,47,51,1,52,./stim/wavs/andalusian_mismatch_interrogative-partial-wh_Por-que-desayuna-muy-bien.wav,./stim/wavs/argentine_mismatch_interrogative-partial-wh_Por-que-desayuna-muy-bien.wav,./stim/wavs/castilian_mismatch_interrogative-partial-wh_Por-que-desayuna-muy-bien.wav,./stim/wavs/chilean_mismatch_interrogative-partial-wh_Por-que-desayuna-muy-bien.wav,./stim/wavs/cuban_mismatch_interrogative-partial-wh_Por-que-desayuna-muy-bien.wav,./stim/wavs/mexican_mismatch_interrogative-partial-wh_Por-que-desayuna-muy-bien.wav,./stim/wavs/peruvian_mismatch_interrogative-partial-wh_Por-que-desayuna-muy-bien.wav,./stim/wavs/puertorican_mismatch_interrogative-partial-wh_Por-que-desayuna-muy-bien.wav,,,,,,,,,,,,,,,,,,,,,,,,,,,,,,,,,,,,,,,,,,,,,,,,,,,,,,,,
,,,,,,,5fb2caa34a6f4d94967b2748,6057c54e64b0b4e5c128b4f9,605aac6c3de9ff26c542bf85,Dominican Republic,East coast,13 or older,no,2021-03-23_23h08.18.781,empathy_intonation_perc,2020.2.10,Win32,60,,,,,,,,,,1,puertorican,1,1,0.8858,0,48,48,53,1,54,./stim/wavs/andalusian_mismatch_interrogative-partial-wh_Por-que-oia-el-rio.wav,./stim/wavs/argentine_mismatch_interrogative-partial-wh_Por-que-oia-el-rio.wav,./stim/wavs/castilian_mismatch_interrogative-partial-wh_Por-que-oia-el-rio.wav,./stim/wavs/chilean_mismatch_interrogative-partial-wh_Por-que-oia-el-rio.wav,./stim/wavs/cuban_mismatch_interrogative-partial-wh_Por-que-oia-el-rio.wav,./stim/wavs/mexican_mismatch_interrogative-partial-wh_Por-que-oia-el-rio.wav,./stim/wavs/peruvian_mismatch_interrogative-partial-wh_Por-que-oia-el-rio.wav,./stim/wavs/puertorican_mismatch_interrogative-partial-wh_Por-que-oia-el-rio.wav,,,,,,,,,,,,,,,,,,,,,,,,,,,,,,,,,,,,,,,,,,,,,,,,,,,,,,,,
,,,,,,,5fb2caa34a6f4d94967b2748,6057c54e64b0b4e5c128b4f9,605aac6c3de9ff26c542bf85,Dominican Republic,East coast,13 or older,no,2021-03-23_23h08.18.781,empathy_intonation_perc,2020.2.10,Win32,60,,,,,,,,,,0,mexican,1,0,0.50801,0,49,49,39,1,40,./stim/wavs/andalusian_mismatch_declarative-broad-focus_Mi-tia-odia-la-lluvia.wav,./stim/wavs/argentine_mismatch_declarative-broad-focus_Mi-tia-odia-la-lluvia.wav,./stim/wavs/castilian_mismatch_declarative-broad-focus_Mi-tia-odia-la-lluvia.wav,./stim/wavs/chilean_mismatch_declarative-broad-focus_Mi-tia-odia-la-lluvia.wav,./stim/wavs/cuban_mismatch_declarative-broad-focus_Mi-tia-odia-la-lluvia.wav,./stim/wavs/mexican_mismatch_declarative-broad-focus_Mi-tia-odia-la-lluvia.wav,./stim/wavs/peruvian_mismatch_declarative-broad-focus_Mi-tia-odia-la-lluvia.wav,./stim/wavs/puertorican_mismatch_declarative-broad-focus_Mi-tia-odia-la-lluvia.wav,,,,,,,,,,,,,,,,,,,,,,,,,,,,,,,,,,,,,,,,,,,,,,,,,,,,,,,,
,,,,,,,5fb2caa34a6f4d94967b2748,6057c54e64b0b4e5c128b4f9,605aac6c3de9ff26c542bf85,Dominican Republic,East coast,13 or older,no,2021-03-23_23h08.18.781,empathy_intonation_perc,2020.2.10,Win32,60,,,,,,,,,,0,cuban,1,0,0.1791,0,50,50,37,1,38,./stim/wavs/andalusian_mismatch_declarative-broad-focus_Mi-madre-come-la-fruta.wav,./stim/wavs/argentine_mismatch_declarative-broad-focus_Mi-madre-come-la-fruta.wav,./stim/wavs/castilian_mismatch_declarative-broad-focus_Mi-madre-come-la-fruta.wav,./stim/wavs/chilean_mismatch_declarative-broad-focus_Mi-madre-come-la-fruta.wav,./stim/wavs/cuban_mismatch_declarative-broad-focus_Mi-madre-come-la-fruta.wav,./stim/wavs/mexican_mismatch_declarative-broad-focus_Mi-madre-come-la-fruta.wav,./stim/wavs/peruvian_mismatch_declarative-broad-focus_Mi-madre-come-la-fruta.wav,./stim/wavs/puertorican_mismatch_declarative-broad-focus_Mi-madre-come-la-fruta.wav,,,,,,,,,,,,,,,,,,,,,,,,,,,,,,,,,,,,,,,,,,,,,,,,,,,,,,,,
,,,,,,,5fb2caa34a6f4d94967b2748,6057c54e64b0b4e5c128b4f9,605aac6c3de9ff26c542bf85,Dominican Republic,East coast,13 or older,no,2021-03-23_23h08.18.781,empathy_intonation_perc,2020.2.10,Win32,60,,,,,,,,,,1,castilian,0,0,0.03472,0,51,51,27,1,28,./stim/wavs/andalusian_match_interrogative-total-yn_Emilio-ama-la-marcha.wav,./stim/wavs/argentine_match_interrogative-total-yn_Emilio-ama-la-marcha.wav,./stim/wavs/castilian_match_interrogative-total-yn_Emilio-ama-la-marcha.wav,./stim/wavs/chilean_match_interrogative-total-yn_Emilio-ama-la-marcha.wav,./stim/wavs/cuban_match_interrogative-total-yn_Emilio-ama-la-marcha.wav,./stim/wavs/mexican_match_interrogative-total-yn_Emilio-ama-la-marcha.wav,./stim/wavs/peruvian_match_interrogative-total-yn_Emilio-ama-la-marcha.wav,./stim/wavs/puertorican_match_interrogative-total-yn_Emilio-ama-la-marcha.wav,,,,,,,,,,,,,,,,,,,,,,,,,,,,,,,,,,,,,,,,,,,,,,,,,,,,,,,,
,,,,,,,5fb2caa34a6f4d94967b2748,6057c54e64b0b4e5c128b4f9,605aac6c3de9ff26c542bf85,Dominican Republic,East coast,13 or older,no,2021-03-23_23h08.18.781,empathy_intonation_perc,2020.2.10,Win32,60,,,,,,,,,,0,andalusian,0,1,0.334825,0,52,52,47,1,48,./stim/wavs/andalusian_mismatch_declarative-narrow-focus_Mi-tia-odia-la-lluvia.wav,./stim/wavs/argentine_mismatch_declarative-narrow-focus_Mi-tia-odia-la-lluvia.wav,./stim/wavs/castilian_mismatch_declarative-narrow-focus_Mi-tia-odia-la-lluvia.wav,./stim/wavs/chilean_mismatch_declarative-narrow-focus_Mi-tia-odia-la-lluvia.wav,./stim/wavs/cuban_mismatch_declarative-narrow-focus_Mi-tia-odia-la-lluvia.wav,./stim/wavs/mexican_mismatch_declarative-narrow-focus_Mi-tia-odia-la-lluvia.wav,./stim/wavs/peruvian_mismatch_declarative-narrow-focus_Mi-tia-odia-la-lluvia.wav,./stim/wavs/puertorican_mismatch_declarative-narrow-focus_Mi-tia-odia-la-lluvia.wav,,,,,,,,,,,,,,,,,,,,,,,,,,,,,,,,,,,,,,,,,,,,,,,,,,,,,,,,
,,,,,,,5fb2caa34a6f4d94967b2748,6057c54e64b0b4e5c128b4f9,605aac6c3de9ff26c542bf85,Dominican Republic,East coast,13 or older,no,2021-03-23_23h08.18.781,empathy_intonation_perc,2020.2.10,Win32,60,,,,,,,,,,1,peruvian,0,0,0.56744,0,53,53,55,1,56,./stim/wavs/andalusian_mismatch_interrogative-partial-wh_Por-que-vivia-en-Paris.wav,./stim/wavs/argentine_mismatch_interrogative-partial-wh_Por-que-vivia-en-Paris.wav,./stim/wavs/castilian_mismatch_interrogative-partial-wh_Por-que-vivia-en-Paris.wav,./stim/wavs/chilean_mismatch_interrogative-partial-wh_Por-que-vivia-en-Paris.wav,./stim/wavs/cuban_mismatch_interrogative-partial-wh_Por-que-vivia-en-Paris.wav,./stim/wavs/mexican_mismatch_interrogative-partial-wh_Por-que-vivia-en-Paris.wav,./stim/wavs/peruvian_mismatch_interrogative-partial-wh_Por-que-vivia-en-Paris.wav,./stim/wavs/puertorican_mismatch_interrogative-partial-wh_Por-que-vivia-en-Paris.wav,,,,,,,,,,,,,,,,,,,,,,,,,,,,,,,,,,,,,,,,,,,,,,,,,,,,,,,,
,,,,,,,5fb2caa34a6f4d94967b2748,6057c54e64b0b4e5c128b4f9,605aac6c3de9ff26c542bf85,Dominican Republic,East coast,13 or older,no,2021-03-23_23h08.18.781,empathy_intonation_perc,2020.2.10,Win32,60,,,,,,,,,,1,castilian,0,0,0.178525,0,54,54,52,1,53,./stim/wavs/andalusian_mismatch_interrogative-partial-wh_Por-que-odiaba-la-lluvia.wav,./stim/wavs/argentine_mismatch_interrogative-partial-wh_Por-que-odiaba-la-lluvia.wav,./stim/wavs/castilian_mismatch_interrogative-partial-wh_Por-que-odiaba-la-lluvia.wav,./stim/wavs/chilean_mismatch_interrogative-partial-wh_Por-que-odiaba-la-lluvia.wav,./stim/wavs/cuban_mismatch_interrogative-partial-wh_Por-que-odiaba-la-lluvia.wav,./stim/wavs/mexican_mismatch_interrogative-partial-wh_Por-que-odiaba-la-lluvia.wav,./stim/wavs/peruvian_mismatch_interrogative-partial-wh_Por-que-odiaba-la-lluvia.wav,./stim/wavs/puertorican_mismatch_interrogative-partial-wh_Por-que-odiaba-la-lluvia.wav,,,,,,,,,,,,,,,,,,,,,,,,,,,,,,,,,,,,,,,,,,,,,,,,,,,,,,,,
,,,,,,,5fb2caa34a6f4d94967b2748,6057c54e64b0b4e5c128b4f9,605aac6c3de9ff26c542bf85,Dominican Republic,East coast,13 or older,no,2021-03-23_23h08.18.781,empathy_intonation_perc,2020.2.10,Win32,60,,,,,,,,,,0,peruvian,1,0,0.160635,0,55,55,4,1,5,./stim/wavs/andalusian_match_declarative-broad-focus_Manuela-vende-el-carro.wav,./stim/wavs/argentine_match_declarative-broad-focus_Manuela-vende-el-carro.wav,./stim/wavs/castilian_match_declarative-broad-focus_Manuela-vende-el-carro.wav,./stim/wavs/chilean_match_declarative-broad-focus_Manuela-vende-el-carro.wav,./stim/wavs/cuban_match_declarative-broad-focus_Manuela-vende-el-carro.wav,./stim/wavs/mexican_match_declarative-broad-focus_Manuela-vende-el-carro.wav,./stim/wavs/peruvian_match_declarative-broad-focus_Manuela-vende-el-carro.wav,./stim/wavs/puertorican_match_declarative-broad-focus_Manuela-vende-el-carro.wav,,,,,,,,,,,,,,,,,,,,,,,,,,,,,,,,,,,,,,,,,,,,,,,,,,,,,,,,
,,,,,,,5fb2caa34a6f4d94967b2748,6057c54e64b0b4e5c128b4f9,605aac6c3de9ff26c542bf85,Dominican Republic,East coast,13 or older,no,2021-03-23_23h08.18.781,empathy_intonation_perc,2020.2.10,Win32,60,,,,,,,,,,1,cuban,1,1,1.117645,0,56,56,54,1,55,./stim/wavs/andalusian_mismatch_interrogative-partial-wh_Por-que-venia-del-lago.wav,./stim/wavs/argentine_mismatch_interrogative-partial-wh_Por-que-venia-del-lago.wav,./stim/wavs/castilian_mismatch_interrogative-partial-wh_Por-que-venia-del-lago.wav,./stim/wavs/chilean_mismatch_interrogative-partial-wh_Por-que-venia-del-lago.wav,./stim/wavs/cuban_mismatch_interrogative-partial-wh_Por-que-venia-del-lago.wav,./stim/wavs/mexican_mismatch_interrogative-partial-wh_Por-que-venia-del-lago.wav,./stim/wavs/peruvian_mismatch_interrogative-partial-wh_Por-que-venia-del-lago.wav,./stim/wavs/puertorican_mismatch_interrogative-partial-wh_Por-que-venia-del-lago.wav,,,,,,,,,,,,,,,,,,,,,,,,,,,,,,,,,,,,,,,,,,,,,,,,,,,,,,,,
,,,,,,,5fb2caa34a6f4d94967b2748,6057c54e64b0b4e5c128b4f9,605aac6c3de9ff26c542bf85,Dominican Republic,East coast,13 or older,no,2021-03-23_23h08.18.781,empathy_intonation_perc,2020.2.10,Win32,60,,,,,,,,,,1,cuban,1,1,0.538595,0,57,57,18,1,19,./stim/wavs/andalusian_match_interrogative-partial-wh_Cuando-lleva-el-abrigo.wav,./stim/wavs/argentine_match_interrogative-partial-wh_Cuando-lleva-el-abrigo.wav,./stim/wavs/castilian_match_interrogative-partial-wh_Cuando-lleva-el-abrigo.wav,./stim/wavs/chilean_match_interrogative-partial-wh_Cuando-lleva-el-abrigo.wav,./stim/wavs/cuban_match_interrogative-partial-wh_Cuando-lleva-el-abrigo.wav,./stim/wavs/mexican_match_interrogative-partial-wh_Cuando-lleva-el-abrigo.wav,./stim/wavs/peruvian_match_interrogative-partial-wh_Cuando-lleva-el-abrigo.wav,./stim/wavs/puertorican_match_interrogative-partial-wh_Cuando-lleva-el-abrigo.wav,,,,,,,,,,,,,,,,,,,,,,,,,,,,,,,,,,,,,,,,,,,,,,,,,,,,,,,,
,,,,,,,5fb2caa34a6f4d94967b2748,6057c54e64b0b4e5c128b4f9,605aac6c3de9ff26c542bf85,Dominican Republic,East coast,13 or older,no,2021-03-23_23h08.18.781,empathy_intonation_perc,2020.2.10,Win32,60,,,,,,,,,,1,mexican,0,0,0.793655,0,58,58,50,1,51,./stim/wavs/andalusian_mismatch_interrogative-partial-wh_Cuando-miraba-la-luna.wav,./stim/wavs/argentine_mismatch_interrogative-partial-wh_Cuando-miraba-la-luna.wav,./stim/wavs/castilian_mismatch_interrogative-partial-wh_Cuando-miraba-la-luna.wav,./stim/wavs/chilean_mismatch_interrogative-partial-wh_Cuando-miraba-la-luna.wav,./stim/wavs/cuban_mismatch_interrogative-partial-wh_Cuando-miraba-la-luna.wav,./stim/wavs/mexican_mismatch_interrogative-partial-wh_Cuando-miraba-la-luna.wav,./stim/wavs/peruvian_mismatch_interrogative-partial-wh_Cuando-miraba-la-luna.wav,./stim/wavs/puertorican_mismatch_interrogative-partial-wh_Cuando-miraba-la-luna.wav,,,,,,,,,,,,,,,,,,,,,,,,,,,,,,,,,,,,,,,,,,,,,,,,,,,,,,,,
,,,,,,,5fb2caa34a6f4d94967b2748,6057c54e64b0b4e5c128b4f9,605aac6c3de9ff26c542bf85,Dominican Republic,East coast,13 or older,no,2021-03-23_23h08.18.781,empathy_intonation_perc,2020.2.10,Win32,60,,,,,,,,,,0,argentine,0,1,0.34635,0,59,59,33,1,34,./stim/wavs/andalusian_mismatch_declarative-broad-focus_El-hombre-mira-la-luna.wav,./stim/wavs/argentine_mismatch_declarative-broad-focus_El-hombre-mira-la-luna.wav,./stim/wavs/castilian_mismatch_declarative-broad-focus_El-hombre-mira-la-luna.wav,./stim/wavs/chilean_mismatch_declarative-broad-focus_El-hombre-mira-la-luna.wav,./stim/wavs/cuban_mismatch_declarative-broad-focus_El-hombre-mira-la-luna.wav,./stim/wavs/mexican_mismatch_declarative-broad-focus_El-hombre-mira-la-luna.wav,./stim/wavs/peruvian_mismatch_declarative-broad-focus_El-hombre-mira-la-luna.wav,./stim/wavs/puertorican_mismatch_declarative-broad-focus_El-hombre-mira-la-luna.wav,,,,,,,,,,,,,,,,,,,,,,,,,,,,,,,,,,,,,,,,,,,,,,,,,,,,,,,,
,,,,,,,5fb2caa34a6f4d94967b2748,6057c54e64b0b4e5c128b4f9,605aac6c3de9ff26c542bf85,Dominican Republic,East coast,13 or older,no,2021-03-23_23h08.18.781,empathy_intonation_perc,2020.2.10,Win32,60,,,,,,,,,,0,mexican,0,1,0.626725,0,60,60,5,1,6,./stim/wavs/andalusian_match_declarative-broad-focus_Maria-bebe-el-vino.wav,./stim/wavs/argentine_match_declarative-broad-focus_Maria-bebe-el-vino.wav,./stim/wavs/castilian_match_declarative-broad-focus_Maria-bebe-el-vino.wav,./stim/wavs/chilean_match_declarative-broad-focus_Maria-bebe-el-vino.wav,./stim/wavs/cuban_match_declarative-broad-focus_Maria-bebe-el-vino.wav,./stim/wavs/mexican_match_declarative-broad-focus_Maria-bebe-el-vino.wav,./stim/wavs/peruvian_match_declarative-broad-focus_Maria-bebe-el-vino.wav,./stim/wavs/puertorican_match_declarative-broad-focus_Maria-bebe-el-vino.wav,,,,,,,,,,,,,,,,,,,,,,,,,,,,,,,,,,,,,,,,,,,,,,,,,,,,,,,,
,,,,,,,5fb2caa34a6f4d94967b2748,6057c54e64b0b4e5c128b4f9,605aac6c3de9ff26c542bf85,Dominican Republic,East coast,13 or older,no,2021-03-23_23h08.18.781,empathy_intonation_perc,2020.2.10,Win32,60,,,,,,,,,,1,cuban,1,1,0.360655,0,61,61,60,1,61,./stim/wavs/andalusian_mismatch_interrogative-total-yn_La-nina-lava-el-plato.wav,./stim/wavs/argentine_mismatch_interrogative-total-yn_La-nina-lava-el-plato.wav,./stim/wavs/castilian_mismatch_interrogative-total-yn_La-nina-lava-el-plato.wav,./stim/wavs/chilean_mismatch_interrogative-total-yn_La-nina-lava-el-plato.wav,./stim/wavs/cuban_mismatch_interrogative-total-yn_La-nina-lava-el-plato.wav,./stim/wavs/mexican_mismatch_interrogative-total-yn_La-nina-lava-el-plato.wav,./stim/wavs/peruvian_mismatch_interrogative-total-yn_La-nina-lava-el-plato.wav,./stim/wavs/puertorican_mismatch_interrogative-total-yn_La-nina-lava-el-plato.wav,,,,,,,,,,,,,,,,,,,,,,,,,,,,,,,,,,,,,,,,,,,,,,,,,,,,,,,,
,,,,,,,5fb2caa34a6f4d94967b2748,6057c54e64b0b4e5c128b4f9,605aac6c3de9ff26c542bf85,Dominican Republic,East coast,13 or older,no,2021-03-23_23h08.18.781,empathy_intonation_perc,2020.2.10,Win32,60,,,,,,,,,,0,castilian,0,1,0.900675,0,62,62,0,1,1,./stim/wavs/andalusian_match_declarative-broad-focus_Ana-lleva-el-abrigo.wav,./stim/wavs/argentine_match_declarative-broad-focus_Ana-lleva-el-abrigo.wav,./stim/wavs/castilian_match_declarative-broad-focus_Ana-lleva-el-abrigo.wav,./stim/wavs/chilean_match_declarative-broad-focus_Ana-lleva-el-abrigo.wav,./stim/wavs/cuban_match_declarative-broad-focus_Ana-lleva-el-abrigo.wav,./stim/wavs/mexican_match_declarative-broad-focus_Ana-lleva-el-abrigo.wav,./stim/wavs/peruvian_match_declarative-broad-focus_Ana-lleva-el-abrigo.wav,./stim/wavs/puertorican_match_declarative-broad-focus_Ana-lleva-el-abrigo.wav,,,,,,,,,,,,,,,,,,,,,,,,,,,,,,,,,,,,,,,,,,,,,,,,,,,,,,,,
,,,,,,,5fb2caa34a6f4d94967b2748,6057c54e64b0b4e5c128b4f9,605aac6c3de9ff26c542bf85,Dominican Republic,East coast,13 or older,no,2021-03-23_23h08.18.781,empathy_intonation_perc,2020.2.10,Win32,60,,,,,,,,,,1,puertorican,0,0,0.068325,0,63,63,24,1,25,./stim/wavs/andalusian_match_interrogative-total-yn_Ana-lleva-el-abrigo.wav,./stim/wavs/argentine_match_interrogative-total-yn_Ana-lleva-el-abrigo.wav,./stim/wavs/castilian_match_interrogative-total-yn_Ana-lleva-el-abrigo.wav,./stim/wavs/chilean_match_interrogative-total-yn_Ana-lleva-el-abrigo.wav,./stim/wavs/cuban_match_interrogative-total-yn_Ana-lleva-el-abrigo.wav,./stim/wavs/mexican_match_interrogative-total-yn_Ana-lleva-el-abrigo.wav,./stim/wavs/peruvian_match_interrogative-total-yn_Ana-lleva-el-abrigo.wav,./stim/wavs/puertorican_match_interrogative-total-yn_Ana-lleva-el-abrigo.wav,,,,,,,,,,,,,,,,,,,,,,,,,,,,,,,,,,,,,,,,,,,,,,,,,,,,,,,,
,,,,,,,5fb2caa34a6f4d94967b2748,6057c54e64b0b4e5c128b4f9,605aac6c3de9ff26c542bf85,Dominican Republic,East coast,13 or older,no,2021-03-23_23h08.18.781,empathy_intonation_perc,2020.2.10,Win32,60,,,,,,,,,,,,,,,,,,,,,,,,,,,,,h,1,3.9229,0,0,0,0,1,,,,,,,,,,,,,,,,,,,,,,,,,,,,,,,,,,,,,,,,,,,,,,,,
,,,,,"Great! Now we will move on. The next task consists of about 60 trials, in each of which you will see a string of letters. 
  
  Your task is to decide whether this is a real Spanish word or not.",(press the spacebar to continue),5fb2caa34a6f4d94967b2748,6057c54e64b0b4e5c128b4f9,605aac6c3de9ff26c542bf85,Dominican Republic,East coast,13 or older,no,2021-03-23_23h08.18.781,empathy_intonation_perc,2020.2.10,Win32,60,,,,,,,,,,,,,,,,,,,,,,,,,,,,,,,,,,,,,0,0,0,0,1,,,,,,,,,,,,,,,,,,,,,,,,,,,,,,,,,,,,,,,,,,,
,,,,,"If you think it is an existing Spanish word, you type '1' (for 'REAL'), and if you think it is not an existing Spanish word, you type '0' (for 'FAKE').",(press the spacebar to continue),5fb2caa34a6f4d94967b2748,6057c54e64b0b4e5c128b4f9,605aac6c3de9ff26c542bf85,Dominican Republic,East coast,13 or older,no,2021-03-23_23h08.18.781,empathy_intonation_perc,2020.2.10,Win32,60,,,,,,,,,,,,,,,,,,,,,,,,,,,,,,,,,,,,,0,1,1,1,1,,,,,,,,,,,,,,,,,,,,,,,,,,,,,,,,,,,,,,,,,,,
,,,,,"If you are sure that the word exists, even though you dont know its exact meaning, you may still respond '1' (REAL). 
  
  But if you are not sure if it is an existing word, you should respond '0' (FAKE).
  
  Let's do a practice round...",(press the spacebar to continue),5fb2caa34a6f4d94967b2748,6057c54e64b0b4e5c128b4f9,605aac6c3de9ff26c542bf85,Dominican Republic,East coast,13 or older,no,2021-03-23_23h08.18.781,empathy_intonation_perc,2020.2.10,Win32,60,,,,,,,,,,,,,,,,,,,,,,,,,,,,,,,,,,,,,0,2,2,2,1,,,,,,,,,,,,,,,,,,,,,,,,,,,,,,,,,,,,,,,,,,,
,,,,,,,5fb2caa34a6f4d94967b2748,6057c54e64b0b4e5c128b4f9,605aac6c3de9ff26c542bf85,Dominican Republic,East coast,13 or older,no,2021-03-23_23h08.18.781,empathy_intonation_perc,2020.2.10,Win32,60,,,,,,,,,,0,,,,,,,,,,,,,,,,,,,,,,,,,,,,,,,,1,0,0.49818,0,0,0,0,1,0,depiste,REAL,FAKE,,,,,,,,,,,,,,,,,,,,,,,,,,,,,,,
,,,,,,,5fb2caa34a6f4d94967b2748,6057c54e64b0b4e5c128b4f9,605aac6c3de9ff26c542bf85,Dominican Republic,East coast,13 or older,no,2021-03-23_23h08.18.781,empathy_intonation_perc,2020.2.10,Win32,60,,,,,,,,,,1,,,,,,,,,,,,,,,,,,,,,,,,,,,,,,,,1,1,1.02667,0,1,1,1,1,0,s,REAL,FAKE,,,,,,,,,,,,,,,,,,,,,,,,,,,,,,,
,,,,,,,5fb2caa34a6f4d94967b2748,6057c54e64b0b4e5c128b4f9,605aac6c3de9ff26c542bf85,Dominican Republic,East coast,13 or older,no,2021-03-23_23h08.18.781,empathy_intonation_perc,2020.2.10,Win32,60,,,,,,,,,,0,,,,,,,,,,,,,,,,,,,,,,,,,,,,,,,,0,1,0.94553,0,2,2,2,1,0,con,REAL,FAKE,,,,,,,,,,,,,,,,,,,,,,,,,,,,,,,
,,,,,,,5fb2caa34a6f4d94967b2748,6057c54e64b0b4e5c128b4f9,605aac6c3de9ff26c542bf85,Dominican Republic,East coast,13 or older,no,2021-03-23_23h08.18.781,empathy_intonation_perc,2020.2.10,Win32,60,,,,,,,,,,0,,,,,,,,,,,,,,,,,,,,,,,,,,,,,,,,1,0,0.949395,0,3,3,3,1,0,calpar,REAL,FAKE,,,,,,,,,,,,,,,,,,,,,,,,,,,,,,,
,,,,,,,5fb2caa34a6f4d94967b2748,6057c54e64b0b4e5c128b4f9,605aac6c3de9ff26c542bf85,Dominican Republic,East coast,13 or older,no,2021-03-23_23h08.18.781,empathy_intonation_perc,2020.2.10,Win32,60,,,,,,,,,,0,,,,,,,,,,,,,,,,,,,,,,,,,,,,,,,,1,0,1.436645,0,4,4,4,1,0,joten,REAL,FAKE,,,,,,,,,,,,,,,,,,,,,,,,,,,,,,,
,,,,,,,5fb2caa34a6f4d94967b2748,6057c54e64b0b4e5c128b4f9,605aac6c3de9ff26c542bf85,Dominican Republic,East coast,13 or older,no,2021-03-23_23h08.18.781,empathy_intonation_perc,2020.2.10,Win32,60,,,,,,,,,,1,,,,,,,,,,,,,,,,,,,,,,,,,,,,,,,,1,1,1.181025,0,5,5,5,1,0,sacapuntas,REAL,FAKE,,,,,,,,,,,,,,,,,,,,,,,,,,,,,,,
,,,,,,,5fb2caa34a6f4d94967b2748,6057c54e64b0b4e5c128b4f9,605aac6c3de9ff26c542bf85,Dominican Republic,East coast,13 or older,no,2021-03-23_23h08.18.781,empathy_intonation_perc,2020.2.10,Win32,60,,,,,,,,,,0,,,,,,,,,,,,,,,,,,,,,,,,,,,,,,,,1,0,0.826375,0,6,6,6,1,0,priba,REAL,FAKE,,,,,,,,,,,,,,,,,,,,,,,,,,,,,,,
,,,,,,,5fb2caa34a6f4d94967b2748,6057c54e64b0b4e5c128b4f9,605aac6c3de9ff26c542bf85,Dominican Republic,East coast,13 or older,no,2021-03-23_23h08.18.781,empathy_intonation_perc,2020.2.10,Win32,60,,,,,,,,,,0,,,,,,,,,,,,,,,,,,,,,,,,,,,,,,,,0,1,1.43356,0,7,7,7,1,0,pelasula,REAL,FAKE,,,,,,,,,,,,,,,,,,,,,,,,,,,,,,,
,,,,,,,5fb2caa34a6f4d94967b2748,6057c54e64b0b4e5c128b4f9,605aac6c3de9ff26c542bf85,Dominican Republic,East coast,13 or older,no,2021-03-23_23h08.18.781,empathy_intonation_perc,2020.2.10,Win32,60,,,,,,,,,,1,,,,,,,,,,,,,,,,,,,,,,,,,,,,,,,,1,1,0.698535,0,8,8,8,1,0,bien,REAL,FAKE,,,,,,,,,,,,,,,,,,,,,,,,,,,,,,,
,,,,,,,5fb2caa34a6f4d94967b2748,6057c54e64b0b4e5c128b4f9,605aac6c3de9ff26c542bf85,Dominican Republic,East coast,13 or older,no,2021-03-23_23h08.18.781,empathy_intonation_perc,2020.2.10,Win32,60,,,,,,,,,,1,,,,,,,,,,,,,,,,,,,,,,,,,,,,,,,,1,1,0.650095,0,9,9,9,1,0,casa,REAL,FAKE,,,,,,,,,,,,,,,,,,,,,,,,,,,,,,,
,,,,,,,5fb2caa34a6f4d94967b2748,6057c54e64b0b4e5c128b4f9,605aac6c3de9ff26c542bf85,Dominican Republic,East coast,13 or older,no,2021-03-23_23h08.18.781,empathy_intonation_perc,2020.2.10,Win32,60,,,,,,,,,,0,,,,,,,,,,,,,,,,,,,,,,,,,,,,,,,,0,1,1.28684,0,10,10,10,1,0,lejo,REAL,FAKE,,,,,,,,,,,,,,,,,,,,,,,,,,,,,,,
,,,,,,,5fb2caa34a6f4d94967b2748,6057c54e64b0b4e5c128b4f9,605aac6c3de9ff26c542bf85,Dominican Republic,East coast,13 or older,no,2021-03-23_23h08.18.781,empathy_intonation_perc,2020.2.10,Win32,60,,,,,,,,,,0,,,,,,,,,,,,,,,,,,,,,,,,,,,,,,,,1,0,1.07876,0,11,11,11,1,0,pretantas,REAL,FAKE,,,,,,,,,,,,,,,,,,,,,,,,,,,,,,,
,,,,,,,5fb2caa34a6f4d94967b2748,6057c54e64b0b4e5c128b4f9,605aac6c3de9ff26c542bf85,Dominican Republic,East coast,13 or older,no,2021-03-23_23h08.18.781,empathy_intonation_perc,2020.2.10,Win32,60,,,,,,,,,,0,,,,,,,,,,,,,,,,,,,,,,,,,,,,,,,,,,,,,,,,21,capillo,,,1,0,0.848195,0,0,0,20,1,REAL,FAKE,,,,,,,,,,,,,,,,,,,,,
,,,,,,,5fb2caa34a6f4d94967b2748,6057c54e64b0b4e5c128b4f9,605aac6c3de9ff26c542bf85,Dominican Republic,East coast,13 or older,no,2021-03-23_23h08.18.781,empathy_intonation_perc,2020.2.10,Win32,60,,,,,,,,,,1,,,,,,,,,,,,,,,,,,,,,,,,,,,,,,,,,,,,,,,,88,acantilado,,,0,0,0.956545,0,1,1,87,1,REAL,FAKE,,,,,,,,,,,,,,,,,,,,,
,,,,,,,5fb2caa34a6f4d94967b2748,6057c54e64b0b4e5c128b4f9,605aac6c3de9ff26c542bf85,Dominican Republic,East coast,13 or older,no,2021-03-23_23h08.18.781,empathy_intonation_perc,2020.2.10,Win32,60,,,,,,,,,,0,,,,,,,,,,,,,,,,,,,,,,,,,,,,,,,,,,,,,,,,53,vegada,,,0,1,1.12654,0,2,2,52,1,REAL,FAKE,,,,,,,,,,,,,,,,,,,,,
,,,,,,,5fb2caa34a6f4d94967b2748,6057c54e64b0b4e5c128b4f9,605aac6c3de9ff26c542bf85,Dominican Republic,East coast,13 or older,no,2021-03-23_23h08.18.781,empathy_intonation_perc,2020.2.10,Win32,60,,,,,,,,,,1,,,,,,,,,,,,,,,,,,,,,,,,,,,,,,,,,,,,,,,,36,loro,,,1,1,1.471465,0,3,3,35,1,REAL,FAKE,,,,,,,,,,,,,,,,,,,,,
,,,,,,,5fb2caa34a6f4d94967b2748,6057c54e64b0b4e5c128b4f9,605aac6c3de9ff26c542bf85,Dominican Republic,East coast,13 or older,no,2021-03-23_23h08.18.781,empathy_intonation_perc,2020.2.10,Win32,60,,,,,,,,,,0,,,,,,,,,,,,,,,,,,,,,,,,,,,,,,,,,,,,,,,,72,pemicin,,,1,0,0.96155,0,4,4,71,1,REAL,FAKE,,,,,,,,,,,,,,,,,,,,,
,,,,,,,5fb2caa34a6f4d94967b2748,6057c54e64b0b4e5c128b4f9,605aac6c3de9ff26c542bf85,Dominican Republic,East coast,13 or older,no,2021-03-23_23h08.18.781,empathy_intonation_perc,2020.2.10,Win32,60,,,,,,,,,,1,,,,,,,,,,,,,,,,,,,,,,,,,,,,,,,,,,,,,,,,60,matar,,,1,1,0.74765,0,5,5,59,1,REAL,FAKE,,,,,,,,,,,,,,,,,,,,,
,,,,,,,5fb2caa34a6f4d94967b2748,6057c54e64b0b4e5c128b4f9,605aac6c3de9ff26c542bf85,Dominican Republic,East coast,13 or older,no,2021-03-23_23h08.18.781,empathy_intonation_perc,2020.2.10,Win32,60,,,,,,,,,,0,,,,,,,,,,,,,,,,,,,,,,,,,,,,,,,,,,,,,,,,18,arsa,,,0,1,1.29633,0,6,6,17,1,REAL,FAKE,,,,,,,,,,,,,,,,,,,,,
,,,,,,,5fb2caa34a6f4d94967b2748,6057c54e64b0b4e5c128b4f9,605aac6c3de9ff26c542bf85,Dominican Republic,East coast,13 or older,no,2021-03-23_23h08.18.781,empathy_intonation_perc,2020.2.10,Win32,60,,,,,,,,,,1,,,,,,,,,,,,,,,,,,,,,,,,,,,,,,,,,,,,,,,,28,merodear,,,1,1,1.87992,0,7,7,27,1,REAL,FAKE,,,,,,,,,,,,,,,,,,,,,
,,,,,,,5fb2caa34a6f4d94967b2748,6057c54e64b0b4e5c128b4f9,605aac6c3de9ff26c542bf85,Dominican Republic,East coast,13 or older,no,2021-03-23_23h08.18.781,empathy_intonation_perc,2020.2.10,Win32,60,,,,,,,,,,1,,,,,,,,,,,,,,,,,,,,,,,,,,,,,,,,,,,,,,,,86,barato,,,0,0,1.1051,0,8,8,85,1,REAL,FAKE,,,,,,,,,,,,,,,,,,,,,
,,,,,,,5fb2caa34a6f4d94967b2748,6057c54e64b0b4e5c128b4f9,605aac6c3de9ff26c542bf85,Dominican Republic,East coast,13 or older,no,2021-03-23_23h08.18.781,empathy_intonation_perc,2020.2.10,Win32,60,,,,,,,,,,0,,,,,,,,,,,,,,,,,,,,,,,,,,,,,,,,,,,,,,,,19,brecedad,,,0,1,1.245495,0,9,9,18,1,REAL,FAKE,,,,,,,,,,,,,,,,,,,,,
,,,,,,,5fb2caa34a6f4d94967b2748,6057c54e64b0b4e5c128b4f9,605aac6c3de9ff26c542bf85,Dominican Republic,East coast,13 or older,no,2021-03-23_23h08.18.781,empathy_intonation_perc,2020.2.10,Win32,60,,,,,,,,,,0,,,,,,,,,,,,,,,,,,,,,,,,,,,,,,,,,,,,,,,,32,fatacidad,,,0,1,1.066395,0,10,10,31,1,REAL,FAKE,,,,,,,,,,,,,,,,,,,,,
,,,,,,,5fb2caa34a6f4d94967b2748,6057c54e64b0b4e5c128b4f9,605aac6c3de9ff26c542bf85,Dominican Republic,East coast,13 or older,no,2021-03-23_23h08.18.781,empathy_intonation_perc,2020.2.10,Win32,60,,,,,,,,,,0,,,,,,,,,,,,,,,,,,,,,,,,,,,,,,,,,,,,,,,,74,cintro,,,1,0,0.69593,0,11,11,73,1,REAL,FAKE,,,,,,,,,,,,,,,,,,,,,
,,,,,,,5fb2caa34a6f4d94967b2748,6057c54e64b0b4e5c128b4f9,605aac6c3de9ff26c542bf85,Dominican Republic,East coast,13 or older,no,2021-03-23_23h08.18.781,empathy_intonation_perc,2020.2.10,Win32,60,,,,,,,,,,1,,,,,,,,,,,,,,,,,,,,,,,,,,,,,,,,,,,,,,,,59,besar,,,1,1,0.869505,0,12,12,58,1,REAL,FAKE,,,,,,,,,,,,,,,,,,,,,
,,,,,,,5fb2caa34a6f4d94967b2748,6057c54e64b0b4e5c128b4f9,605aac6c3de9ff26c542bf85,Dominican Republic,East coast,13 or older,no,2021-03-23_23h08.18.781,empathy_intonation_perc,2020.2.10,Win32,60,,,,,,,,,,0,,,,,,,,,,,,,,,,,,,,,,,,,,,,,,,,,,,,,,,,4,batilln,,,1,0,1.147885,0,13,13,3,1,REAL,FAKE,,,,,,,,,,,,,,,,,,,,,
,,,,,,,5fb2caa34a6f4d94967b2748,6057c54e64b0b4e5c128b4f9,605aac6c3de9ff26c542bf85,Dominican Republic,East coast,13 or older,no,2021-03-23_23h08.18.781,empathy_intonation_perc,2020.2.10,Win32,60,,,,,,,,,,1,,,,,,,,,,,,,,,,,,,,,,,,,,,,,,,,,,,,,,,,69,engatusar,,,0,0,1.350225,0,14,14,68,1,REAL,FAKE,,,,,,,,,,,,,,,,,,,,,
,,,,,,,5fb2caa34a6f4d94967b2748,6057c54e64b0b4e5c128b4f9,605aac6c3de9ff26c542bf85,Dominican Republic,East coast,13 or older,no,2021-03-23_23h08.18.781,empathy_intonation_perc,2020.2.10,Win32,60,,,,,,,,,,1,,,,,,,,,,,,,,,,,,,,,,,,,,,,,,,,,,,,,,,,38,estornudar,,,1,1,3.182645,0,15,15,37,1,REAL,FAKE,,,,,,,,,,,,,,,,,,,,,
,,,,,,,5fb2caa34a6f4d94967b2748,6057c54e64b0b4e5c128b4f9,605aac6c3de9ff26c542bf85,Dominican Republic,East coast,13 or older,no,2021-03-23_23h08.18.781,empathy_intonation_perc,2020.2.10,Win32,60,,,,,,,,,,0,,,,,,,,,,,,,,,,,,,,,,,,,,,,,,,,,,,,,,,,35,rompido,,,0,1,0.915555,0,16,16,34,1,REAL,FAKE,,,,,,,,,,,,,,,,,,,,,
,,,,,,,5fb2caa34a6f4d94967b2748,6057c54e64b0b4e5c128b4f9,605aac6c3de9ff26c542bf85,Dominican Republic,East coast,13 or older,no,2021-03-23_23h08.18.781,empathy_intonation_perc,2020.2.10,Win32,60,,,,,,,,,,0,,,,,,,,,,,,,,,,,,,,,,,,,,,,,,,,,,,,,,,,17,floroso,,,1,0,0.785035,0,17,17,16,1,REAL,FAKE,,,,,,,,,,,,,,,,,,,,,
,,,,,,,5fb2caa34a6f4d94967b2748,6057c54e64b0b4e5c128b4f9,605aac6c3de9ff26c542bf85,Dominican Republic,East coast,13 or older,no,2021-03-23_23h08.18.781,empathy_intonation_perc,2020.2.10,Win32,60,,,,,,,,,,1,,,,,,,,,,,,,,,,,,,,,,,,,,,,,,,,,,,,,,,,54,fomentar,,,1,1,0.783945,0,18,18,53,1,REAL,FAKE,,,,,,,,,,,,,,,,,,,,,
,,,,,,,5fb2caa34a6f4d94967b2748,6057c54e64b0b4e5c128b4f9,605aac6c3de9ff26c542bf85,Dominican Republic,East coast,13 or older,no,2021-03-23_23h08.18.781,empathy_intonation_perc,2020.2.10,Win32,60,,,,,,,,,,1,,,,,,,,,,,,,,,,,,,,,,,,,,,,,,,,,,,,,,,,13,helar,,,1,1,0.77516,0,19,19,12,1,REAL,FAKE,,,,,,,,,,,,,,,,,,,,,
,,,,,,,5fb2caa34a6f4d94967b2748,6057c54e64b0b4e5c128b4f9,605aac6c3de9ff26c542bf85,Dominican Republic,East coast,13 or older,no,2021-03-23_23h08.18.781,empathy_intonation_perc,2020.2.10,Win32,60,,,,,,,,,,1,,,,,,,,,,,,,,,,,,,,,,,,,,,,,,,,,,,,,,,,57,tacao,,,0,0,1.16277,0,20,20,56,1,REAL,FAKE,,,,,,,,,,,,,,,,,,,,,
,,,,,,,5fb2caa34a6f4d94967b2748,6057c54e64b0b4e5c128b4f9,605aac6c3de9ff26c542bf85,Dominican Republic,East coast,13 or older,no,2021-03-23_23h08.18.781,empathy_intonation_perc,2020.2.10,Win32,60,,,,,,,,,,1,,,,,,,,,,,,,,,,,,,,,,,,,,,,,,,,,,,,,,,,44,cuchara,,,1,1,0.88691,0,21,21,43,1,REAL,FAKE,,,,,,,,,,,,,,,,,,,,,
,,,,,,,5fb2caa34a6f4d94967b2748,6057c54e64b0b4e5c128b4f9,605aac6c3de9ff26c542bf85,Dominican Republic,East coast,13 or older,no,2021-03-23_23h08.18.781,empathy_intonation_perc,2020.2.10,Win32,60,,,,,,,,,,0,,,,,,,,,,,,,,,,,,,,,,,,,,,,,,,,,,,,,,,,8,cadea,,,1,0,0.64744,0,22,22,7,1,REAL,FAKE,,,,,,,,,,,,,,,,,,,,,
,,,,,,,5fb2caa34a6f4d94967b2748,6057c54e64b0b4e5c128b4f9,605aac6c3de9ff26c542bf85,Dominican Republic,East coast,13 or older,no,2021-03-23_23h08.18.781,empathy_intonation_perc,2020.2.10,Win32,60,,,,,,,,,,1,,,,,,,,,,,,,,,,,,,,,,,,,,,,,,,,,,,,,,,,45,jilguero,,,0,0,0.79867,0,23,23,44,1,REAL,FAKE,,,,,,,,,,,,,,,,,,,,,
,,,,,,,5fb2caa34a6f4d94967b2748,6057c54e64b0b4e5c128b4f9,605aac6c3de9ff26c542bf85,Dominican Republic,East coast,13 or older,no,2021-03-23_23h08.18.781,empathy_intonation_perc,2020.2.10,Win32,60,,,,,,,,,,0,,,,,,,,,,,,,,,,,,,,,,,,,,,,,,,,,,,,,,,,66,hacido,,,1,0,1.57878,0,24,24,65,1,REAL,FAKE,,,,,,,,,,,,,,,,,,,,,
,,,,,,,5fb2caa34a6f4d94967b2748,6057c54e64b0b4e5c128b4f9,605aac6c3de9ff26c542bf85,Dominican Republic,East coast,13 or older,no,2021-03-23_23h08.18.781,empathy_intonation_perc,2020.2.10,Win32,60,,,,,,,,,,1,,,,,,,,,,,,,,,,,,,,,,,,,,,,,,,,,,,,,,,,5,zapato,,,1,1,0.753395,0,25,25,4,1,REAL,FAKE,,,,,,,,,,,,,,,,,,,,,
,,,,,,,5fb2caa34a6f4d94967b2748,6057c54e64b0b4e5c128b4f9,605aac6c3de9ff26c542bf85,Dominican Republic,East coast,13 or older,no,2021-03-23_23h08.18.781,empathy_intonation_perc,2020.2.10,Win32,60,,,,,,,,,,1,,,,,,,,,,,,,,,,,,,,,,,,,,,,,,,,,,,,,,,,49,ganar,,,1,1,0.6018,0,26,26,48,1,REAL,FAKE,,,,,,,,,,,,,,,,,,,,,
,,,,,,,5fb2caa34a6f4d94967b2748,6057c54e64b0b4e5c128b4f9,605aac6c3de9ff26c542bf85,Dominican Republic,East coast,13 or older,no,2021-03-23_23h08.18.781,empathy_intonation_perc,2020.2.10,Win32,60,,,,,,,,,,0,,,,,,,,,,,,,,,,,,,,,,,,,,,,,,,,,,,,,,,,10,antar,,,1,0,0.56249,0,27,27,9,1,REAL,FAKE,,,,,,,,,,,,,,,,,,,,,
,,,,,,,5fb2caa34a6f4d94967b2748,6057c54e64b0b4e5c128b4f9,605aac6c3de9ff26c542bf85,Dominican Republic,East coast,13 or older,no,2021-03-23_23h08.18.781,empathy_intonation_perc,2020.2.10,Win32,60,,,,,,,,,,0,,,,,,,,,,,,,,,,,,,,,,,,,,,,,,,,,,,,,,,,33,pauca,,,0,1,0.82894,0,28,28,32,1,REAL,FAKE,,,,,,,,,,,,,,,,,,,,,
,,,,,,,5fb2caa34a6f4d94967b2748,6057c54e64b0b4e5c128b4f9,605aac6c3de9ff26c542bf85,Dominican Republic,East coast,13 or older,no,2021-03-23_23h08.18.781,empathy_intonation_perc,2020.2.10,Win32,60,,,,,,,,,,1,,,,,,,,,,,,,,,,,,,,,,,,,,,,,,,,,,,,,,,,41,rebuscar,,,1,1,0.601705,0,29,29,40,1,REAL,FAKE,,,,,,,,,,,,,,,,,,,,,
,,,,,,,5fb2caa34a6f4d94967b2748,6057c54e64b0b4e5c128b4f9,605aac6c3de9ff26c542bf85,Dominican Republic,East coast,13 or older,no,2021-03-23_23h08.18.781,empathy_intonation_perc,2020.2.10,Win32,60,,,,,,,,,,0,,,,,,,,,,,,,,,,,,,,,,,,,,,,,,,,,,,,,,,,84,escuto,,,0,1,1.095525,0,30,30,83,1,REAL,FAKE,,,,,,,,,,,,,,,,,,,,,
,,,,,,,5fb2caa34a6f4d94967b2748,6057c54e64b0b4e5c128b4f9,605aac6c3de9ff26c542bf85,Dominican Republic,East coast,13 or older,no,2021-03-23_23h08.18.781,empathy_intonation_perc,2020.2.10,Win32,60,,,,,,,,,,1,,,,,,,,,,,,,,,,,,,,,,,,,,,,,,,,,,,,,,,,22,lacayo,,,0,0,0.68934,0,31,31,21,1,REAL,FAKE,,,,,,,,,,,,,,,,,,,,,
,,,,,,,5fb2caa34a6f4d94967b2748,6057c54e64b0b4e5c128b4f9,605aac6c3de9ff26c542bf85,Dominican Republic,East coast,13 or older,no,2021-03-23_23h08.18.781,empathy_intonation_perc,2020.2.10,Win32,60,,,,,,,,,,0,,,,,,,,,,,,,,,,,,,,,,,,,,,,,,,,,,,,,,,,1,terzo,,,1,0,0.83383,0,32,32,0,1,REAL,FAKE,,,,,,,,,,,,,,,,,,,,,
,,,,,,,5fb2caa34a6f4d94967b2748,6057c54e64b0b4e5c128b4f9,605aac6c3de9ff26c542bf85,Dominican Republic,East coast,13 or older,no,2021-03-23_23h08.18.781,empathy_intonation_perc,2020.2.10,Win32,60,,,,,,,,,,1,,,,,,,,,,,,,,,,,,,,,,,,,,,,,,,,,,,,,,,,81,pozo,,,1,1,0.584295,0,33,33,80,1,REAL,FAKE,,,,,,,,,,,,,,,,,,,,,
,,,,,,,5fb2caa34a6f4d94967b2748,6057c54e64b0b4e5c128b4f9,605aac6c3de9ff26c542bf85,Dominican Republic,East coast,13 or older,no,2021-03-23_23h08.18.781,empathy_intonation_perc,2020.2.10,Win32,60,,,,,,,,,,0,,,,,,,,,,,,,,,,,,,,,,,,,,,,,,,,,,,,,,,,87,grodo,,,0,1,0.728455,0,34,34,86,1,REAL,FAKE,,,,,,,,,,,,,,,,,,,,,
,,,,,,,5fb2caa34a6f4d94967b2748,6057c54e64b0b4e5c128b4f9,605aac6c3de9ff26c542bf85,Dominican Republic,East coast,13 or older,no,2021-03-23_23h08.18.781,empathy_intonation_perc,2020.2.10,Win32,60,,,,,,,,,,1,,,,,,,,,,,,,,,,,,,,,,,,,,,,,,,,,,,,,,,,43,canela,,,1,1,0.81798,0,35,35,42,1,REAL,FAKE,,,,,,,,,,,,,,,,,,,,,
,,,,,,,5fb2caa34a6f4d94967b2748,6057c54e64b0b4e5c128b4f9,605aac6c3de9ff26c542bf85,Dominican Republic,East coast,13 or older,no,2021-03-23_23h08.18.781,empathy_intonation_perc,2020.2.10,Win32,60,,,,,,,,,,1,,,,,,,,,,,,,,,,,,,,,,,,,,,,,,,,,,,,,,,,25,bisagra,,,0,0,1.028555,0,36,36,24,1,REAL,FAKE,,,,,,,,,,,,,,,,,,,,,
,,,,,,,5fb2caa34a6f4d94967b2748,6057c54e64b0b4e5c128b4f9,605aac6c3de9ff26c542bf85,Dominican Republic,East coast,13 or older,no,2021-03-23_23h08.18.781,empathy_intonation_perc,2020.2.10,Win32,60,,,,,,,,,,1,,,,,,,,,,,,,,,,,,,,,,,,,,,,,,,,,,,,,,,,83,guante,,,1,1,0.666255,0,37,37,82,1,REAL,FAKE,,,,,,,,,,,,,,,,,,,,,
,,,,,,,5fb2caa34a6f4d94967b2748,6057c54e64b0b4e5c128b4f9,605aac6c3de9ff26c542bf85,Dominican Republic,East coast,13 or older,no,2021-03-23_23h08.18.781,empathy_intonation_perc,2020.2.10,Win32,60,,,,,,,,,,1,,,,,,,,,,,,,,,,,,,,,,,,,,,,,,,,,,,,,,,,34,aviso,,,1,1,0.769325,0,38,38,33,1,REAL,FAKE,,,,,,,,,,,,,,,,,,,,,
,,,,,,,5fb2caa34a6f4d94967b2748,6057c54e64b0b4e5c128b4f9,605aac6c3de9ff26c542bf85,Dominican Republic,East coast,13 or older,no,2021-03-23_23h08.18.781,empathy_intonation_perc,2020.2.10,Win32,60,,,,,,,,,,0,,,,,,,,,,,,,,,,,,,,,,,,,,,,,,,,,,,,,,,,82,empirador,,,1,0,0.565945,0,39,39,81,1,REAL,FAKE,,,,,,,,,,,,,,,,,,,,,
,,,,,,,5fb2caa34a6f4d94967b2748,6057c54e64b0b4e5c128b4f9,605aac6c3de9ff26c542bf85,Dominican Republic,East coast,13 or older,no,2021-03-23_23h08.18.781,empathy_intonation_perc,2020.2.10,Win32,60,,,,,,,,,,1,,,,,,,,,,,,,,,,,,,,,,,,,,,,,,,,,,,,,,,,68,alegre,,,1,1,0.96896,0,40,40,67,1,REAL,FAKE,,,,,,,,,,,,,,,,,,,,,
,,,,,,,5fb2caa34a6f4d94967b2748,6057c54e64b0b4e5c128b4f9,605aac6c3de9ff26c542bf85,Dominican Republic,East coast,13 or older,no,2021-03-23_23h08.18.781,empathy_intonation_perc,2020.2.10,Win32,60,,,,,,,,,,1,,,,,,,,,,,,,,,,,,,,,,,,,,,,,,,,,,,,,,,,2,pellizcar,,,0,0,0.7964,0,41,41,1,1,REAL,FAKE,,,,,,,,,,,,,,,,,,,,,
,,,,,,,5fb2caa34a6f4d94967b2748,6057c54e64b0b4e5c128b4f9,605aac6c3de9ff26c542bf85,Dominican Republic,East coast,13 or older,no,2021-03-23_23h08.18.781,empathy_intonation_perc,2020.2.10,Win32,60,,,,,,,,,,1,,,,,,,,,,,,,,,,,,,,,,,,,,,,,,,,,,,,,,,,20,vido,,,1,1,0.70974,0,42,42,19,1,REAL,FAKE,,,,,,,,,,,,,,,,,,,,,
,,,,,,,5fb2caa34a6f4d94967b2748,6057c54e64b0b4e5c128b4f9,605aac6c3de9ff26c542bf85,Dominican Republic,East coast,13 or older,no,2021-03-23_23h08.18.781,empathy_intonation_perc,2020.2.10,Win32,60,,,,,,,,,,1,,,,,,,,,,,,,,,,,,,,,,,,,,,,,,,,,,,,,,,,55,nevar,,,0,0,0.92895,0,43,43,54,1,REAL,FAKE,,,,,,,,,,,,,,,,,,,,,
,,,,,,,5fb2caa34a6f4d94967b2748,6057c54e64b0b4e5c128b4f9,605aac6c3de9ff26c542bf85,Dominican Republic,East coast,13 or older,no,2021-03-23_23h08.18.781,empathy_intonation_perc,2020.2.10,Win32,60,,,,,,,,,,1,,,,,,,,,,,,,,,,,,,,,,,,,,,,,,,,,,,,,,,,77,tiburn,,,0,0,0.7481,0,44,44,76,1,REAL,FAKE,,,,,,,,,,,,,,,,,,,,,
,,,,,,,5fb2caa34a6f4d94967b2748,6057c54e64b0b4e5c128b4f9,605aac6c3de9ff26c542bf85,Dominican Republic,East coast,13 or older,no,2021-03-23_23h08.18.781,empathy_intonation_perc,2020.2.10,Win32,60,,,,,,,,,,1,,,,,,,,,,,,,,,,,,,,,,,,,,,,,,,,,,,,,,,,90,clavel,,,1,1,0.69237,0,45,45,89,1,REAL,FAKE,,,,,,,,,,,,,,,,,,,,,
,,,,,,,5fb2caa34a6f4d94967b2748,6057c54e64b0b4e5c128b4f9,605aac6c3de9ff26c542bf85,Dominican Republic,East coast,13 or older,no,2021-03-23_23h08.18.781,empathy_intonation_perc,2020.2.10,Win32,60,,,,,,,,,,1,,,,,,,,,,,,,,,,,,,,,,,,,,,,,,,,,,,,,,,,67,cabello,,,1,1,0.797805,0,46,46,66,1,REAL,FAKE,,,,,,,,,,,,,,,,,,,,,
,,,,,,,5fb2caa34a6f4d94967b2748,6057c54e64b0b4e5c128b4f9,605aac6c3de9ff26c542bf85,Dominican Republic,East coast,13 or older,no,2021-03-23_23h08.18.781,empathy_intonation_perc,2020.2.10,Win32,60,,,,,,,,,,1,,,,,,,,,,,,,,,,,,,,,,,,,,,,,,,,,,,,,,,,52,camisa,,,1,1,0.50668,0,47,47,51,1,REAL,FAKE,,,,,,,,,,,,,,,,,,,,,
,,,,,,,5fb2caa34a6f4d94967b2748,6057c54e64b0b4e5c128b4f9,605aac6c3de9ff26c542bf85,Dominican Republic,East coast,13 or older,no,2021-03-23_23h08.18.781,empathy_intonation_perc,2020.2.10,Win32,60,,,,,,,,,,1,,,,,,,,,,,,,,,,,,,,,,,,,,,,,,,,,,,,,,,,7,psimo,,,0,0,1.185655,0,48,48,6,1,REAL,FAKE,,,,,,,,,,,,,,,,,,,,,
,,,,,,,5fb2caa34a6f4d94967b2748,6057c54e64b0b4e5c128b4f9,605aac6c3de9ff26c542bf85,Dominican Republic,East coast,13 or older,no,2021-03-23_23h08.18.781,empathy_intonation_perc,2020.2.10,Win32,60,,,,,,,,,,1,,,,,,,,,,,,,,,,,,,,,,,,,,,,,,,,,,,,,,,,51,candado,,,1,1,0.54572,0,49,49,50,1,REAL,FAKE,,,,,,,,,,,,,,,,,,,,,
,,,,,,,5fb2caa34a6f4d94967b2748,6057c54e64b0b4e5c128b4f9,605aac6c3de9ff26c542bf85,Dominican Republic,East coast,13 or older,no,2021-03-23_23h08.18.781,empathy_intonation_perc,2020.2.10,Win32,60,,,,,,,,,,0,,,,,,,,,,,,,,,,,,,,,,,,,,,,,,,,,,,,,,,,16,abracer,,,1,0,0.954675,0,50,50,15,1,REAL,FAKE,,,,,,,,,,,,,,,,,,,,,
,,,,,,,5fb2caa34a6f4d94967b2748,6057c54e64b0b4e5c128b4f9,605aac6c3de9ff26c542bf85,Dominican Republic,East coast,13 or older,no,2021-03-23_23h08.18.781,empathy_intonation_perc,2020.2.10,Win32,60,,,,,,,,,,1,,,,,,,,,,,,,,,,,,,,,,,,,,,,,,,,,,,,,,,,31,pandilla,,,1,1,0.58429,0,51,51,30,1,REAL,FAKE,,,,,,,,,,,,,,,,,,,,,
,,,,,,,5fb2caa34a6f4d94967b2748,6057c54e64b0b4e5c128b4f9,605aac6c3de9ff26c542bf85,Dominican Republic,East coast,13 or older,no,2021-03-23_23h08.18.781,empathy_intonation_perc,2020.2.10,Win32,60,,,,,,,,,,1,,,,,,,,,,,,,,,,,,,,,,,,,,,,,,,,,,,,,,,,85,lad,,,0,0,0.7616,0,52,52,84,1,REAL,FAKE,,,,,,,,,,,,,,,,,,,,,
,,,,,,,5fb2caa34a6f4d94967b2748,6057c54e64b0b4e5c128b4f9,605aac6c3de9ff26c542bf85,Dominican Republic,East coast,13 or older,no,2021-03-23_23h08.18.781,empathy_intonation_perc,2020.2.10,Win32,60,,,,,,,,,,0,,,,,,,,,,,,,,,,,,,,,,,,,,,,,,,,,,,,,,,,58,plaudir,,,0,1,1.52861,0,53,53,57,1,REAL,FAKE,,,,,,,,,,,,,,,,,,,,,
,,,,,,,5fb2caa34a6f4d94967b2748,6057c54e64b0b4e5c128b4f9,605aac6c3de9ff26c542bf85,Dominican Republic,East coast,13 or older,no,2021-03-23_23h08.18.781,empathy_intonation_perc,2020.2.10,Win32,60,,,,,,,,,,1,,,,,,,,,,,,,,,,,,,,,,,,,,,,,,,,,,,,,,,,39,torpe,,,1,1,0.852425,0,54,54,38,1,REAL,FAKE,,,,,,,,,,,,,,,,,,,,,
,,,,,,,5fb2caa34a6f4d94967b2748,6057c54e64b0b4e5c128b4f9,605aac6c3de9ff26c542bf85,Dominican Republic,East coast,13 or older,no,2021-03-23_23h08.18.781,empathy_intonation_perc,2020.2.10,Win32,60,,,,,,,,,,0,,,,,,,,,,,,,,,,,,,,,,,,,,,,,,,,,,,,,,,,27,acutacin,,,1,0,1.232465,0,55,55,26,1,REAL,FAKE,,,,,,,,,,,,,,,,,,,,,
,,,,,,,5fb2caa34a6f4d94967b2748,6057c54e64b0b4e5c128b4f9,605aac6c3de9ff26c542bf85,Dominican Republic,East coast,13 or older,no,2021-03-23_23h08.18.781,empathy_intonation_perc,2020.2.10,Win32,60,,,,,,,,,,1,,,,,,,,,,,,,,,,,,,,,,,,,,,,,,,,,,,,,,,,78,frondoso,,,0,0,0.414945,0,56,56,77,1,REAL,FAKE,,,,,,,,,,,,,,,,,,,,,
,,,,,,,5fb2caa34a6f4d94967b2748,6057c54e64b0b4e5c128b4f9,605aac6c3de9ff26c542bf85,Dominican Republic,East coast,13 or older,no,2021-03-23_23h08.18.781,empathy_intonation_perc,2020.2.10,Win32,60,,,,,,,,,,0,,,,,,,,,,,,,,,,,,,,,,,,,,,,,,,,,,,,,,,,63,esposante,,,1,0,0.741845,0,57,57,62,1,REAL,FAKE,,,,,,,,,,,,,,,,,,,,,
,,,,,,,5fb2caa34a6f4d94967b2748,6057c54e64b0b4e5c128b4f9,605aac6c3de9ff26c542bf85,Dominican Republic,East coast,13 or older,no,2021-03-23_23h08.18.781,empathy_intonation_perc,2020.2.10,Win32,60,,,,,,,,,,1,,,,,,,,,,,,,,,,,,,,,,,,,,,,,,,,,,,,,,,,12,asesinato,,,0,0,1.03215,0,58,58,11,1,REAL,FAKE,,,,,,,,,,,,,,,,,,,,,
,,,,,,,5fb2caa34a6f4d94967b2748,6057c54e64b0b4e5c128b4f9,605aac6c3de9ff26c542bf85,Dominican Republic,East coast,13 or older,no,2021-03-23_23h08.18.781,empathy_intonation_perc,2020.2.10,Win32,60,,,,,,,,,,0,,,,,,,,,,,,,,,,,,,,,,,,,,,,,,,,,,,,,,,,29,decar,,,1,0,0.67928,0,59,59,28,1,REAL,FAKE,,,,,,,,,,,,,,,,,,,,,
,,,,,,,5fb2caa34a6f4d94967b2748,6057c54e64b0b4e5c128b4f9,605aac6c3de9ff26c542bf85,Dominican Republic,East coast,13 or older,no,2021-03-23_23h08.18.781,empathy_intonation_perc,2020.2.10,Win32,60,,,,,,,,,,1,,,,,,,,,,,,,,,,,,,,,,,,,,,,,,,,,,,,,,,,15,regar,,,1,1,0.49076,0,60,60,14,1,REAL,FAKE,,,,,,,,,,,,,,,,,,,,,
,,,,,,,5fb2caa34a6f4d94967b2748,6057c54e64b0b4e5c128b4f9,605aac6c3de9ff26c542bf85,Dominican Republic,East coast,13 or older,no,2021-03-23_23h08.18.781,empathy_intonation_perc,2020.2.10,Win32,60,,,,,,,,,,1,,,,,,,,,,,,,,,,,,,,,,,,,,,,,,,,,,,,,,,,80,hormiga,,,0,0,1.161745,0,61,61,79,1,REAL,FAKE,,,,,,,,,,,,,,,,,,,,,
,,,,,,,5fb2caa34a6f4d94967b2748,6057c54e64b0b4e5c128b4f9,605aac6c3de9ff26c542bf85,Dominican Republic,East coast,13 or older,no,2021-03-23_23h08.18.781,empathy_intonation_perc,2020.2.10,Win32,60,,,,,,,,,,0,,,,,,,,,,,,,,,,,,,,,,,,,,,,,,,,,,,,,,,,42,cadallo,,,1,0,1.58006,0,62,62,41,1,REAL,FAKE,,,,,,,,,,,,,,,,,,,,,
,,,,,,,5fb2caa34a6f4d94967b2748,6057c54e64b0b4e5c128b4f9,605aac6c3de9ff26c542bf85,Dominican Republic,East coast,13 or older,no,2021-03-23_23h08.18.781,empathy_intonation_perc,2020.2.10,Win32,60,,,,,,,,,,0,,,,,,,,,,,,,,,,,,,,,,,,,,,,,,,,,,,,,,,,23,lampera,,,1,0,1.39687,0,63,63,22,1,REAL,FAKE,,,,,,,,,,,,,,,,,,,,,
,,,,,,,5fb2caa34a6f4d94967b2748,6057c54e64b0b4e5c128b4f9,605aac6c3de9ff26c542bf85,Dominican Republic,East coast,13 or older,no,2021-03-23_23h08.18.781,empathy_intonation_perc,2020.2.10,Win32,60,,,,,,,,,,1,,,,,,,,,,,,,,,,,,,,,,,,,,,,,,,,,,,,,,,,75,yacer,,,0,0,1.02896,0,64,64,74,1,REAL,FAKE,,,,,,,,,,,,,,,,,,,,,
,,,,,,,5fb2caa34a6f4d94967b2748,6057c54e64b0b4e5c128b4f9,605aac6c3de9ff26c542bf85,Dominican Republic,East coast,13 or older,no,2021-03-23_23h08.18.781,empathy_intonation_perc,2020.2.10,Win32,60,,,,,,,,,,1,,,,,,,,,,,,,,,,,,,,,,,,,,,,,,,,,,,,,,,,14,yunque,,,1,1,1.18636,0,65,65,13,1,REAL,FAKE,,,,,,,,,,,,,,,,,,,,,
,,,,,,,5fb2caa34a6f4d94967b2748,6057c54e64b0b4e5c128b4f9,605aac6c3de9ff26c542bf85,Dominican Republic,East coast,13 or older,no,2021-03-23_23h08.18.781,empathy_intonation_perc,2020.2.10,Win32,60,,,,,,,,,,1,,,,,,,,,,,,,,,,,,,,,,,,,,,,,,,,,,,,,,,,40,alfombra,,,0,0,0.87346,0,66,66,39,1,REAL,FAKE,,,,,,,,,,,,,,,,,,,,,
,,,,,,,5fb2caa34a6f4d94967b2748,6057c54e64b0b4e5c128b4f9,605aac6c3de9ff26c542bf85,Dominican Republic,East coast,13 or older,no,2021-03-23_23h08.18.781,empathy_intonation_perc,2020.2.10,Win32,60,,,,,,,,,,1,,,,,,,,,,,,,,,,,,,,,,,,,,,,,,,,,,,,,,,,89,prisa,,,1,1,1.385865,0,67,67,88,1,REAL,FAKE,,,,,,,,,,,,,,,,,,,,,
,,,,,,,5fb2caa34a6f4d94967b2748,6057c54e64b0b4e5c128b4f9,605aac6c3de9ff26c542bf85,Dominican Republic,East coast,13 or older,no,2021-03-23_23h08.18.781,empathy_intonation_perc,2020.2.10,Win32,60,,,,,,,,,,1,,,,,,,,,,,,,,,,,,,,,,,,,,,,,,,,,,,,,,,,11,cenefa,,,0,0,0.6986,0,68,68,10,1,REAL,FAKE,,,,,,,,,,,,,,,,,,,,,
,,,,,,,5fb2caa34a6f4d94967b2748,6057c54e64b0b4e5c128b4f9,605aac6c3de9ff26c542bf85,Dominican Republic,East coast,13 or older,no,2021-03-23_23h08.18.781,empathy_intonation_perc,2020.2.10,Win32,60,,,,,,,,,,0,,,,,,,,,,,,,,,,,,,,,,,,,,,,,,,,,,,,,,,,47,cartinar,,,1,0,1.13245,0,69,69,46,1,REAL,FAKE,,,,,,,,,,,,,,,,,,,,,
,,,,,,,5fb2caa34a6f4d94967b2748,6057c54e64b0b4e5c128b4f9,605aac6c3de9ff26c542bf85,Dominican Republic,East coast,13 or older,no,2021-03-23_23h08.18.781,empathy_intonation_perc,2020.2.10,Win32,60,,,,,,,,,,1,,,,,,,,,,,,,,,,,,,,,,,,,,,,,,,,,,,,,,,,56,musgo,,,0,0,0.629475,0,70,70,55,1,REAL,FAKE,,,,,,,,,,,,,,,,,,,,,
,,,,,,,5fb2caa34a6f4d94967b2748,6057c54e64b0b4e5c128b4f9,605aac6c3de9ff26c542bf85,Dominican Republic,East coast,13 or older,no,2021-03-23_23h08.18.781,empathy_intonation_perc,2020.2.10,Win32,60,,,,,,,,,,1,,,,,,,,,,,,,,,,,,,,,,,,,,,,,,,,,,,,,,,,9,hacha,,,0,0,1.73374,0,71,71,8,1,REAL,FAKE,,,,,,,,,,,,,,,,,,,,,
,,,,,,,5fb2caa34a6f4d94967b2748,6057c54e64b0b4e5c128b4f9,605aac6c3de9ff26c542bf85,Dominican Republic,East coast,13 or older,no,2021-03-23_23h08.18.781,empathy_intonation_perc,2020.2.10,Win32,60,,,,,,,,,,1,,,,,,,,,,,,,,,,,,,,,,,,,,,,,,,,,,,,,,,,46,martillo,,,1,1,0.789575,0,72,72,45,1,REAL,FAKE,,,,,,,,,,,,,,,,,,,,,
,,,,,,,5fb2caa34a6f4d94967b2748,6057c54e64b0b4e5c128b4f9,605aac6c3de9ff26c542bf85,Dominican Republic,East coast,13 or older,no,2021-03-23_23h08.18.781,empathy_intonation_perc,2020.2.10,Win32,60,,,,,,,,,,1,,,,,,,,,,,,,,,,,,,,,,,,,,,,,,,,,,,,,,,,64,orgulloso,,,1,1,1.115605,0,73,73,63,1,REAL,FAKE,,,,,,,,,,,,,,,,,,,,,
,,,,,,,5fb2caa34a6f4d94967b2748,6057c54e64b0b4e5c128b4f9,605aac6c3de9ff26c542bf85,Dominican Republic,East coast,13 or older,no,2021-03-23_23h08.18.781,empathy_intonation_perc,2020.2.10,Win32,60,,,,,,,,,,1,,,,,,,,,,,,,,,,,,,,,,,,,,,,,,,,,,,,,,,,71,polvoriento,,,0,0,1.43179,0,74,74,70,1,REAL,FAKE,,,,,,,,,,,,,,,,,,,,,
,,,,,,,5fb2caa34a6f4d94967b2748,6057c54e64b0b4e5c128b4f9,605aac6c3de9ff26c542bf85,Dominican Republic,East coast,13 or older,no,2021-03-23_23h08.18.781,empathy_intonation_perc,2020.2.10,Win32,60,,,,,,,,,,1,,,,,,,,,,,,,,,,,,,,,,,,,,,,,,,,,,,,,,,,24,ltigo,,,0,0,1.20328,0,75,75,23,1,REAL,FAKE,,,,,,,,,,,,,,,,,,,,,
,,,,,,,5fb2caa34a6f4d94967b2748,6057c54e64b0b4e5c128b4f9,605aac6c3de9ff26c542bf85,Dominican Republic,East coast,13 or older,no,2021-03-23_23h08.18.781,empathy_intonation_perc,2020.2.10,Win32,60,,,,,,,,,,0,,,,,,,,,,,,,,,,,,,,,,,,,,,,,,,,,,,,,,,,30,alardio,,,0,1,0.7155,0,76,76,29,1,REAL,FAKE,,,,,,,,,,,,,,,,,,,,,
,,,,,,,5fb2caa34a6f4d94967b2748,6057c54e64b0b4e5c128b4f9,605aac6c3de9ff26c542bf85,Dominican Republic,East coast,13 or older,no,2021-03-23_23h08.18.781,empathy_intonation_perc,2020.2.10,Win32,60,,,,,,,,,,0,,,,,,,,,,,,,,,,,,,,,,,,,,,,,,,,,,,,,,,,50,flamida,,,0,1,0.698465,0,77,77,49,1,REAL,FAKE,,,,,,,,,,,,,,,,,,,,,
,,,,,,,5fb2caa34a6f4d94967b2748,6057c54e64b0b4e5c128b4f9,605aac6c3de9ff26c542bf85,Dominican Republic,East coast,13 or older,no,2021-03-23_23h08.18.781,empathy_intonation_perc,2020.2.10,Win32,60,,,,,,,,,,1,,,,,,,,,,,,,,,,,,,,,,,,,,,,,,,,,,,,,,,,26,secuestro,,,0,0,0.906355,0,78,78,25,1,REAL,FAKE,,,,,,,,,,,,,,,,,,,,,
,,,,,,,5fb2caa34a6f4d94967b2748,6057c54e64b0b4e5c128b4f9,605aac6c3de9ff26c542bf85,Dominican Republic,East coast,13 or older,no,2021-03-23_23h08.18.781,empathy_intonation_perc,2020.2.10,Win32,60,,,,,,,,,,1,,,,,,,,,,,,,,,,,,,,,,,,,,,,,,,,,,,,,,,,76,atar,,,0,0,1.055075,0,79,79,75,1,REAL,FAKE,,,,,,,,,,,,,,,,,,,,,
,,,,,,,5fb2caa34a6f4d94967b2748,6057c54e64b0b4e5c128b4f9,605aac6c3de9ff26c542bf85,Dominican Republic,East coast,13 or older,no,2021-03-23_23h08.18.781,empathy_intonation_perc,2020.2.10,Win32,60,,,,,,,,,,1,,,,,,,,,,,,,,,,,,,,,,,,,,,,,,,,,,,,,,,,65,bizcocho,,,0,0,1.18306,0,80,80,64,1,REAL,FAKE,,,,,,,,,,,,,,,,,,,,,
,,,,,,,5fb2caa34a6f4d94967b2748,6057c54e64b0b4e5c128b4f9,605aac6c3de9ff26c542bf85,Dominican Republic,East coast,13 or older,no,2021-03-23_23h08.18.781,empathy_intonation_perc,2020.2.10,Win32,60,,,,,,,,,,0,,,,,,,,,,,,,,,,,,,,,,,,,,,,,,,,,,,,,,,,70,temblo,,,0,1,0.81423,0,81,81,69,1,REAL,FAKE,,,,,,,,,,,,,,,,,,,,,
,,,,,,,5fb2caa34a6f4d94967b2748,6057c54e64b0b4e5c128b4f9,605aac6c3de9ff26c542bf85,Dominican Republic,East coast,13 or older,no,2021-03-23_23h08.18.781,empathy_intonation_perc,2020.2.10,Win32,60,,,,,,,,,,1,,,,,,,,,,,,,,,,,,,,,,,,,,,,,,,,,,,,,,,,6,tergiversar,,,1,1,0.70024,0,82,82,5,1,REAL,FAKE,,,,,,,,,,,,,,,,,,,,,
,,,,,,,5fb2caa34a6f4d94967b2748,6057c54e64b0b4e5c128b4f9,605aac6c3de9ff26c542bf85,Dominican Republic,East coast,13 or older,no,2021-03-23_23h08.18.781,empathy_intonation_perc,2020.2.10,Win32,60,,,,,,,,,,1,,,,,,,,,,,,,,,,,,,,,,,,,,,,,,,,,,,,,,,,3,pulmones,,,0,0,0.737695,0,83,83,2,1,REAL,FAKE,,,,,,,,,,,,,,,,,,,,,
,,,,,,,5fb2caa34a6f4d94967b2748,6057c54e64b0b4e5c128b4f9,605aac6c3de9ff26c542bf85,Dominican Republic,East coast,13 or older,no,2021-03-23_23h08.18.781,empathy_intonation_perc,2020.2.10,Win32,60,,,,,,,,,,1,,,,,,,,,,,,,,,,,,,,,,,,,,,,,,,,,,,,,,,,61,seda,,,0,0,0.656365,0,84,84,60,1,REAL,FAKE,,,,,,,,,,,,,,,,,,,,,
,,,,,,,5fb2caa34a6f4d94967b2748,6057c54e64b0b4e5c128b4f9,605aac6c3de9ff26c542bf85,Dominican Republic,East coast,13 or older,no,2021-03-23_23h08.18.781,empathy_intonation_perc,2020.2.10,Win32,60,,,,,,,,,,1,,,,,,,,,,,,,,,,,,,,,,,,,,,,,,,,,,,,,,,,73,hervidor,,,0,0,1.263035,0,85,85,72,1,REAL,FAKE,,,,,,,,,,,,,,,,,,,,,
,,,,,,,5fb2caa34a6f4d94967b2748,6057c54e64b0b4e5c128b4f9,605aac6c3de9ff26c542bf85,Dominican Republic,East coast,13 or older,no,2021-03-23_23h08.18.781,empathy_intonation_perc,2020.2.10,Win32,60,,,,,,,,,,0,,,,,,,,,,,,,,,,,,,,,,,,,,,,,,,,,,,,,,,,79,tropaje,,,0,1,1.447255,0,86,86,78,1,REAL,FAKE,,,,,,,,,,,,,,,,,,,,,
,,,,,,,5fb2caa34a6f4d94967b2748,6057c54e64b0b4e5c128b4f9,605aac6c3de9ff26c542bf85,Dominican Republic,East coast,13 or older,no,2021-03-23_23h08.18.781,empathy_intonation_perc,2020.2.10,Win32,60,,,,,,,,,,1,,,,,,,,,,,,,,,,,,,,,,,,,,,,,,,,,,,,,,,,37,granuja,,,0,0,0.636855,0,87,87,36,1,REAL,FAKE,,,,,,,,,,,,,,,,,,,,,
,,,,,,,5fb2caa34a6f4d94967b2748,6057c54e64b0b4e5c128b4f9,605aac6c3de9ff26c542bf85,Dominican Republic,East coast,13 or older,no,2021-03-23_23h08.18.781,empathy_intonation_perc,2020.2.10,Win32,60,,,,,,,,,,1,,,,,,,,,,,,,,,,,,,,,,,,,,,,,,,,,,,,,,,,62,flaco,,,1,1,0.65102,0,88,88,61,1,REAL,FAKE,,,,,,,,,,,,,,,,,,,,,
,,,,,,,5fb2caa34a6f4d94967b2748,6057c54e64b0b4e5c128b4f9,605aac6c3de9ff26c542bf85,Dominican Republic,East coast,13 or older,no,2021-03-23_23h08.18.781,empathy_intonation_perc,2020.2.10,Win32,60,,,,,,,,,,1,,,,,,,,,,,,,,,,,,,,,,,,,,,,,,,,,,,,,,,,48,ladrn,,,0,0,0.70083,0,89,89,47,1,REAL,FAKE,,,,,,,,,,,,,,,,,,,,,
,,,,,,,5fb2caa34a6f4d94967b2748,6057c54e64b0b4e5c128b4f9,605aac6c3de9ff26c542bf85,Dominican Republic,East coast,13 or older,no,2021-03-23_23h08.18.781,empathy_intonation_perc,2020.2.10,Win32,60,,,,,,,,,,,,,,,,,,,,,,,,,,,,,,,,,,,,,,,,,,,,,,,,,,,,,,,,,,,,,,,,4,1,1.6391,1,0,0,0,0,0,1,,,,,,,,,,,
,,,,,,,5fb2caa34a6f4d94967b2748,6057c54e64b0b4e5c128b4f9,605aac6c3de9ff26c542bf85,Dominican Republic,East coast,13 or older,no,2021-03-23_23h08.18.781,empathy_intonation_perc,2020.2.10,Win32,60,,,,,,,,,,,,,,,,,,,,1,,,,,,,,,,,,,,,,,,,,,,,,,,,,,,,,,,,,,,,,,,,,,,,,,,,,,,4,0,0,0,0,1,I can easily tell if someone else wants to enter a conversation.,1,0,1,0
