instructions_2afc_loop.thisRepN,instructions_2afc_loop.thisTrialN,instructions_2afc_loop.thisN,instructions_2afc_loop.thisIndex,instructions_2afc_loop.ran,instructions_text,continue_text,participant,study_id,session,I am most familiar with Spanish from...*,What part of the US are you from?*,At what age did you begin learning Spanish?*,Are you proficient in any languages other than English/Spanish?*,date,expName,psychopyVersion,OS,frameRate,key_resp_2afc_practice.keys,key_resp_2afc_practice.corr,key_resp_2afc_practice.rt,trials_2afc_practice_loop.thisRepN,trials_2afc_practice_loop.thisTrialN,trials_2afc_practice_loop.thisN,trials_2afc_practice_loop.thisIndex,trials_2afc_practice_loop.ran,path,correct_response,the_col,key_resp_2afc_trial.keys,key_resp_2afc_trial.corr,key_resp_2afc_trial.rt,trials_2afc_loop.thisRepN,trials_2afc_loop.thisTrialN,trials_2afc_loop.thisN,trials_2afc_loop.thisIndex,trials_2afc_loop.ran,item_num,andalusian,argentine,castilian,chilean,cuban,mexican,peruvian,puertorican,key_resp_ac1.keys,key_resp_ac1.corr,key_resp_ac1.rt,ac1_loop.thisRepN,ac1_loop.thisTrialN,ac1_loop.thisN,ac1_loop.thisIndex,ac1_loop.ran,instructions_lextale_loop.thisRepN,instructions_lextale_loop.thisTrialN,instructions_lextale_loop.thisN,instructions_lextale_loop.thisIndex,instructions_lextale_loop.ran,key_resp_lextale_practice.keys,key_resp_lextale_practice.corr,key_resp_lextale_practice.rt,trials_lextale_practice_loop.thisRepN,trials_lextale_practice_loop.thisTrialN,trials_lextale_practice_loop.thisN,trials_lextale_practice_loop.thisIndex,trials_lextale_practice_loop.ran,stim,word,prac_button_real,prac_button_false,key_resp_lextale_trial.keys,key_resp_lextale_trial.corr,key_resp_lextale_trial.rt,trials_lextale_loop.thisRepN,trials_lextale_loop.thisTrialN,trials_lextale_loop.thisN,trials_lextale_loop.thisIndex,trials_lextale_loop.ran,button_real,button_false,key_resp_ac2.keys,key_resp_ac2.corr,key_resp_ac2.rt,check_pass,check_fails,ac2_loop.thisRepN,ac2_loop.thisTrialN,ac2_loop.thisN,ac2_loop.thisIndex,ac2_loop.ran,slider_eq_trial.response,trials_eq_loop.thisRepN,trials_eq_loop.thisTrialN,trials_eq_loop.thisN,trials_eq_loop.thisIndex,trials_eq_loop.ran,item,is_test_item,is_distractor,is_agree_score,is_disagree_score
0,0,0,0,1,"In the following task you are going to hear a series of utterances. 

  You will decide if the utterances sound like questions or not using your keyboard.",(press the spacebar to continue),5fb41bf3f84c7006ac8e30f2,605b45a4d25f287719a41696,605bf9208ab8c472559f1543,United States,Midwest,13 or older,no,2021-03-24_22h52.26.719,empathy_intonation_perc,2020.2.10,MacIntel,60,,,,,,,,,,,,,,,,,,,,,,,,,,,,,,,,,,,,,,,,,,,,,,,,,,,,,,,,,,,,,,,,,,,,,,,,,,,,,,,,,,,,
0,1,1,1,1,"If you believe the utterance is a question, type '1' (for 'yes') and if you do not 
  believe it is a question type '0' (for 'no').

  Let's practice a bit...",(press the spacebar to continue),5fb41bf3f84c7006ac8e30f2,605b45a4d25f287719a41696,605bf9208ab8c472559f1543,United States,Midwest,13 or older,no,2021-03-24_22h52.26.719,empathy_intonation_perc,2020.2.10,MacIntel,60,,,,,,,,,,,,,,,,,,,,,,,,,,,,,,,,,,,,,,,,,,,,,,,,,,,,,,,,,,,,,,,,,,,,,,,,,,,,,,,,,,,,
,,,,,,,5fb41bf3f84c7006ac8e30f2,605b45a4d25f287719a41696,605bf9208ab8c472559f1543,United States,Midwest,13 or older,no,2021-03-24_22h52.26.719,empathy_intonation_perc,2020.2.10,MacIntel,60,1,0,9.59154,0,0,0,4,1,./stim/wavs/cuban_statement_filler_Cocinabas-por-la-noche.wav,0,,,,,,,,,,,,,,,,,,,,,,,,,,,,,,,,,,,,,,,,,,,,,,,,,,,,,,,,,,,,,,,,,,,,,,,,,,
,,,,,,,5fb41bf3f84c7006ac8e30f2,605b45a4d25f287719a41696,605bf9208ab8c472559f1543,United States,Midwest,13 or older,no,2021-03-24_22h52.26.719,empathy_intonation_perc,2020.2.10,MacIntel,60,1,0,24.02862,0,1,1,7,1,./stim/wavs/puertorican_statement_filler_La-nina-pinta-con-su-amiga.wav,0,,,,,,,,,,,,,,,,,,,,,,,,,,,,,,,,,,,,,,,,,,,,,,,,,,,,,,,,,,,,,,,,,,,,,,,,,,
,,,,,,,5fb41bf3f84c7006ac8e30f2,605b45a4d25f287719a41696,605bf9208ab8c472559f1543,United States,Midwest,13 or older,no,2021-03-24_22h52.26.719,empathy_intonation_perc,2020.2.10,MacIntel,60,1,0,3.0251,0,2,2,5,1,./stim/wavs/andalusian_statement_filler_Alberto-nunca-se-afeita.wav,0,,,,,,,,,,,,,,,,,,,,,,,,,,,,,,,,,,,,,,,,,,,,,,,,,,,,,,,,,,,,,,,,,,,,,,,,,,
,,,,,,,5fb41bf3f84c7006ac8e30f2,605b45a4d25f287719a41696,605bf9208ab8c472559f1543,United States,Midwest,13 or older,no,2021-03-24_22h52.26.719,empathy_intonation_perc,2020.2.10,MacIntel,60,0,0,3.92832,0,3,3,1,1,./stim/wavs/argentine_question_filler_Mi-vecino-habla-mucho.wav,1,,,,,,,,,,,,,,,,,,,,,,,,,,,,,,,,,,,,,,,,,,,,,,,,,,,,,,,,,,,,,,,,,,,,,,,,,,
,,,,,,,5fb41bf3f84c7006ac8e30f2,605b45a4d25f287719a41696,605bf9208ab8c472559f1543,United States,Midwest,13 or older,no,2021-03-24_22h52.26.719,empathy_intonation_perc,2020.2.10,MacIntel,60,0,1,2.32284,0,4,4,6,1,./stim/wavs/peruvian_statement_filler_El-nino-habla-con-su-madre.wav,0,,,,,,,,,,,,,,,,,,,,,,,,,,,,,,,,,,,,,,,,,,,,,,,,,,,,,,,,,,,,,,,,,,,,,,,,,,
,,,,,,,5fb41bf3f84c7006ac8e30f2,605b45a4d25f287719a41696,605bf9208ab8c472559f1543,United States,Midwest,13 or older,no,2021-03-24_22h52.26.719,empathy_intonation_perc,2020.2.10,MacIntel,60,1,1,1.57063,0,5,5,2,1,./stim/wavs/chilean_question_filler_Mi-padre-cantaba-bien.wav,1,,,,,,,,,,,,,,,,,,,,,,,,,,,,,,,,,,,,,,,,,,,,,,,,,,,,,,,,,,,,,,,,,,,,,,,,,,
,,,,,,,5fb41bf3f84c7006ac8e30f2,605b45a4d25f287719a41696,605bf9208ab8c472559f1543,United States,Midwest,13 or older,no,2021-03-24_22h52.26.719,empathy_intonation_perc,2020.2.10,MacIntel,60,1,1,1.73756,0,6,6,0,1,./stim/wavs/castilian_question_filler_Mi-esposo-conoce-al-chico.wav,1,,,,,,,,,,,,,,,,,,,,,,,,,,,,,,,,,,,,,,,,,,,,,,,,,,,,,,,,,,,,,,,,,,,,,,,,,,
,,,,,,,5fb41bf3f84c7006ac8e30f2,605b45a4d25f287719a41696,605bf9208ab8c472559f1543,United States,Midwest,13 or older,no,2021-03-24_22h52.26.719,empathy_intonation_perc,2020.2.10,MacIntel,60,0,0,1.59814,0,7,7,3,1,./stim/wavs/mexican_question_filler_Felipe-no-tiene-contrasena.wav,1,,,,,,,,,,,,,,,,,,,,,,,,,,,,,,,,,,,,,,,,,,,,,,,,,,,,,,,,,,,,,,,,,,,,,,,,,,
,,,,,,,5fb41bf3f84c7006ac8e30f2,605b45a4d25f287719a41696,605bf9208ab8c472559f1543,United States,Midwest,13 or older,no,2021-03-24_22h52.26.719,empathy_intonation_perc,2020.2.10,MacIntel,60,,,,,,,,,,1,andalusian,1,1,1.81463,0,0,0,18,1,19,./stim/wavs/andalusian_match_interrogative-partial-wh_Cuando-lleva-el-abrigo.wav,./stim/wavs/argentine_match_interrogative-partial-wh_Cuando-lleva-el-abrigo.wav,./stim/wavs/castilian_match_interrogative-partial-wh_Cuando-lleva-el-abrigo.wav,./stim/wavs/chilean_match_interrogative-partial-wh_Cuando-lleva-el-abrigo.wav,./stim/wavs/cuban_match_interrogative-partial-wh_Cuando-lleva-el-abrigo.wav,./stim/wavs/mexican_match_interrogative-partial-wh_Cuando-lleva-el-abrigo.wav,./stim/wavs/peruvian_match_interrogative-partial-wh_Cuando-lleva-el-abrigo.wav,./stim/wavs/puertorican_match_interrogative-partial-wh_Cuando-lleva-el-abrigo.wav,,,,,,,,,,,,,,,,,,,,,,,,,,,,,,,,,,,,,,,,,,,,,,,,,,,,,,,,
,,,,,,,5fb41bf3f84c7006ac8e30f2,605b45a4d25f287719a41696,605bf9208ab8c472559f1543,United States,Midwest,13 or older,no,2021-03-24_22h52.26.719,empathy_intonation_perc,2020.2.10,MacIntel,60,,,,,,,,,,1,andalusian,1,1,1.331985,0,1,1,53,1,54,./stim/wavs/andalusian_mismatch_interrogative-partial-wh_Por-que-oia-el-rio.wav,./stim/wavs/argentine_mismatch_interrogative-partial-wh_Por-que-oia-el-rio.wav,./stim/wavs/castilian_mismatch_interrogative-partial-wh_Por-que-oia-el-rio.wav,./stim/wavs/chilean_mismatch_interrogative-partial-wh_Por-que-oia-el-rio.wav,./stim/wavs/cuban_mismatch_interrogative-partial-wh_Por-que-oia-el-rio.wav,./stim/wavs/mexican_mismatch_interrogative-partial-wh_Por-que-oia-el-rio.wav,./stim/wavs/peruvian_mismatch_interrogative-partial-wh_Por-que-oia-el-rio.wav,./stim/wavs/puertorican_mismatch_interrogative-partial-wh_Por-que-oia-el-rio.wav,,,,,,,,,,,,,,,,,,,,,,,,,,,,,,,,,,,,,,,,,,,,,,,,,,,,,,,,
,,,,,,,5fb41bf3f84c7006ac8e30f2,605b45a4d25f287719a41696,605bf9208ab8c472559f1543,United States,Midwest,13 or older,no,2021-03-24_22h52.26.719,empathy_intonation_perc,2020.2.10,MacIntel,60,,,,,,,,,,1,argentine,1,1,0.966645,0,2,2,20,1,21,./stim/wavs/andalusian_match_interrogative-partial-wh_Por-que-abre-el-regalo.wav,./stim/wavs/argentine_match_interrogative-partial-wh_Por-que-abre-el-regalo.wav,./stim/wavs/castilian_match_interrogative-partial-wh_Por-que-abre-el-regalo.wav,./stim/wavs/chilean_match_interrogative-partial-wh_Por-que-abre-el-regalo.wav,./stim/wavs/cuban_match_interrogative-partial-wh_Por-que-abre-el-regalo.wav,./stim/wavs/mexican_match_interrogative-partial-wh_Por-que-abre-el-regalo.wav,./stim/wavs/peruvian_match_interrogative-partial-wh_Por-que-abre-el-regalo.wav,./stim/wavs/puertorican_match_interrogative-partial-wh_Por-que-abre-el-regalo.wav,,,,,,,,,,,,,,,,,,,,,,,,,,,,,,,,,,,,,,,,,,,,,,,,,,,,,,,,
,,,,,,,5fb41bf3f84c7006ac8e30f2,605b45a4d25f287719a41696,605bf9208ab8c472559f1543,United States,Midwest,13 or older,no,2021-03-24_22h52.26.719,empathy_intonation_perc,2020.2.10,MacIntel,60,,,,,,,,,,0,puertorican,0,1,1.073405,0,3,3,15,1,16,./stim/wavs/andalusian_match_declarative-narrow-focus_Marta-abre-el-regalo.wav,./stim/wavs/argentine_match_declarative-narrow-focus_Marta-abre-el-regalo.wav,./stim/wavs/castilian_match_declarative-narrow-focus_Marta-abre-el-regalo.wav,./stim/wavs/chilean_match_declarative-narrow-focus_Marta-abre-el-regalo.wav,./stim/wavs/cuban_match_declarative-narrow-focus_Marta-abre-el-regalo.wav,./stim/wavs/mexican_match_declarative-narrow-focus_Marta-abre-el-regalo.wav,./stim/wavs/peruvian_match_declarative-narrow-focus_Marta-abre-el-regalo.wav,./stim/wavs/puertorican_match_declarative-narrow-focus_Marta-abre-el-regalo.wav,,,,,,,,,,,,,,,,,,,,,,,,,,,,,,,,,,,,,,,,,,,,,,,,,,,,,,,,
,,,,,,,5fb41bf3f84c7006ac8e30f2,605b45a4d25f287719a41696,605bf9208ab8c472559f1543,United States,Midwest,13 or older,no,2021-03-24_22h52.26.719,empathy_intonation_perc,2020.2.10,MacIntel,60,,,,,,,,,,1,chilean,1,1,1.98812,0,4,4,63,1,64,./stim/wavs/andalusian_mismatch_interrogative-total-yn_Mi-tia-odia-la-lluvia.wav,./stim/wavs/argentine_mismatch_interrogative-total-yn_Mi-tia-odia-la-lluvia.wav,./stim/wavs/castilian_mismatch_interrogative-total-yn_Mi-tia-odia-la-lluvia.wav,./stim/wavs/chilean_mismatch_interrogative-total-yn_Mi-tia-odia-la-lluvia.wav,./stim/wavs/cuban_mismatch_interrogative-total-yn_Mi-tia-odia-la-lluvia.wav,./stim/wavs/mexican_mismatch_interrogative-total-yn_Mi-tia-odia-la-lluvia.wav,./stim/wavs/peruvian_mismatch_interrogative-total-yn_Mi-tia-odia-la-lluvia.wav,./stim/wavs/puertorican_mismatch_interrogative-total-yn_Mi-tia-odia-la-lluvia.wav,,,,,,,,,,,,,,,,,,,,,,,,,,,,,,,,,,,,,,,,,,,,,,,,,,,,,,,,
,,,,,,,5fb41bf3f84c7006ac8e30f2,605b45a4d25f287719a41696,605bf9208ab8c472559f1543,United States,Midwest,13 or older,no,2021-03-24_22h52.26.719,empathy_intonation_perc,2020.2.10,MacIntel,60,,,,,,,,,,0,mexican,0,1,1.816825,0,5,5,42,1,43,./stim/wavs/andalusian_mismatch_declarative-narrow-focus_El-nino-oye-el-rio.wav,./stim/wavs/argentine_mismatch_declarative-narrow-focus_El-nino-oye-el-rio.wav,./stim/wavs/castilian_mismatch_declarative-narrow-focus_El-nino-oye-el-rio.wav,./stim/wavs/chilean_mismatch_declarative-narrow-focus_El-nino-oye-el-rio.wav,./stim/wavs/cuban_mismatch_declarative-narrow-focus_El-nino-oye-el-rio.wav,./stim/wavs/mexican_mismatch_declarative-narrow-focus_El-nino-oye-el-rio.wav,./stim/wavs/peruvian_mismatch_declarative-narrow-focus_El-nino-oye-el-rio.wav,./stim/wavs/puertorican_mismatch_declarative-narrow-focus_El-nino-oye-el-rio.wav,,,,,,,,,,,,,,,,,,,,,,,,,,,,,,,,,,,,,,,,,,,,,,,,,,,,,,,,
,,,,,,,5fb41bf3f84c7006ac8e30f2,605b45a4d25f287719a41696,605bf9208ab8c472559f1543,United States,Midwest,13 or older,no,2021-03-24_22h52.26.719,empathy_intonation_perc,2020.2.10,MacIntel,60,,,,,,,,,,0,peruvian,0,1,2.017665,0,6,6,1,1,2,./stim/wavs/andalusian_match_declarative-broad-focus_Daniel-iba-a-Bolivia.wav,./stim/wavs/argentine_match_declarative-broad-focus_Daniel-iba-a-Bolivia.wav,./stim/wavs/castilian_match_declarative-broad-focus_Daniel-iba-a-Bolivia.wav,./stim/wavs/chilean_match_declarative-broad-focus_Daniel-iba-a-Bolivia.wav,./stim/wavs/cuban_match_declarative-broad-focus_Daniel-iba-a-Bolivia.wav,./stim/wavs/mexican_match_declarative-broad-focus_Daniel-iba-a-Bolivia.wav,./stim/wavs/peruvian_match_declarative-broad-focus_Daniel-iba-a-Bolivia.wav,./stim/wavs/puertorican_match_declarative-broad-focus_Daniel-iba-a-Bolivia.wav,,,,,,,,,,,,,,,,,,,,,,,,,,,,,,,,,,,,,,,,,,,,,,,,,,,,,,,,
,,,,,,,5fb41bf3f84c7006ac8e30f2,605b45a4d25f287719a41696,605bf9208ab8c472559f1543,United States,Midwest,13 or older,no,2021-03-24_22h52.26.719,empathy_intonation_perc,2020.2.10,MacIntel,60,,,,,,,,,,0,peruvian,0,1,1.714555,0,7,7,37,1,38,./stim/wavs/andalusian_mismatch_declarative-broad-focus_Mi-madre-come-la-fruta.wav,./stim/wavs/argentine_mismatch_declarative-broad-focus_Mi-madre-come-la-fruta.wav,./stim/wavs/castilian_mismatch_declarative-broad-focus_Mi-madre-come-la-fruta.wav,./stim/wavs/chilean_mismatch_declarative-broad-focus_Mi-madre-come-la-fruta.wav,./stim/wavs/cuban_mismatch_declarative-broad-focus_Mi-madre-come-la-fruta.wav,./stim/wavs/mexican_mismatch_declarative-broad-focus_Mi-madre-come-la-fruta.wav,./stim/wavs/peruvian_mismatch_declarative-broad-focus_Mi-madre-come-la-fruta.wav,./stim/wavs/puertorican_mismatch_declarative-broad-focus_Mi-madre-come-la-fruta.wav,,,,,,,,,,,,,,,,,,,,,,,,,,,,,,,,,,,,,,,,,,,,,,,,,,,,,,,,
,,,,,,,5fb41bf3f84c7006ac8e30f2,605b45a4d25f287719a41696,605bf9208ab8c472559f1543,United States,Midwest,13 or older,no,2021-03-24_22h52.26.719,empathy_intonation_perc,2020.2.10,MacIntel,60,,,,,,,,,,0,cuban,1,0,2.38901,0,8,8,12,1,13,./stim/wavs/andalusian_match_declarative-narrow-focus_Manuela-vende-el-carro.wav,./stim/wavs/argentine_match_declarative-narrow-focus_Manuela-vende-el-carro.wav,./stim/wavs/castilian_match_declarative-narrow-focus_Manuela-vende-el-carro.wav,./stim/wavs/chilean_match_declarative-narrow-focus_Manuela-vende-el-carro.wav,./stim/wavs/cuban_match_declarative-narrow-focus_Manuela-vende-el-carro.wav,./stim/wavs/mexican_match_declarative-narrow-focus_Manuela-vende-el-carro.wav,./stim/wavs/peruvian_match_declarative-narrow-focus_Manuela-vende-el-carro.wav,./stim/wavs/puertorican_match_declarative-narrow-focus_Manuela-vende-el-carro.wav,,,,,,,,,,,,,,,,,,,,,,,,,,,,,,,,,,,,,,,,,,,,,,,,,,,,,,,,
,,,,,,,5fb41bf3f84c7006ac8e30f2,605b45a4d25f287719a41696,605bf9208ab8c472559f1543,United States,Midwest,13 or older,no,2021-03-24_22h52.26.719,empathy_intonation_perc,2020.2.10,MacIntel,60,,,,,,,,,,1,argentine,1,1,1.703345,0,9,9,26,1,27,./stim/wavs/andalusian_match_interrogative-total-yn_David-leia-el-libro.wav,./stim/wavs/argentine_match_interrogative-total-yn_David-leia-el-libro.wav,./stim/wavs/castilian_match_interrogative-total-yn_David-leia-el-libro.wav,./stim/wavs/chilean_match_interrogative-total-yn_David-leia-el-libro.wav,./stim/wavs/cuban_match_interrogative-total-yn_David-leia-el-libro.wav,./stim/wavs/mexican_match_interrogative-total-yn_David-leia-el-libro.wav,./stim/wavs/peruvian_match_interrogative-total-yn_David-leia-el-libro.wav,./stim/wavs/puertorican_match_interrogative-total-yn_David-leia-el-libro.wav,,,,,,,,,,,,,,,,,,,,,,,,,,,,,,,,,,,,,,,,,,,,,,,,,,,,,,,,
,,,,,,,5fb41bf3f84c7006ac8e30f2,605b45a4d25f287719a41696,605bf9208ab8c472559f1543,United States,Midwest,13 or older,no,2021-03-24_22h52.26.719,empathy_intonation_perc,2020.2.10,MacIntel,60,,,,,,,,,,0,chilean,1,0,1.72456,0,10,10,13,1,14,./stim/wavs/andalusian_match_declarative-narrow-focus_Maria-bebe-el-vino.wav,./stim/wavs/argentine_match_declarative-narrow-focus_Maria-bebe-el-vino.wav,./stim/wavs/castilian_match_declarative-narrow-focus_Maria-bebe-el-vino.wav,./stim/wavs/chilean_match_declarative-narrow-focus_Maria-bebe-el-vino.wav,./stim/wavs/cuban_match_declarative-narrow-focus_Maria-bebe-el-vino.wav,./stim/wavs/mexican_match_declarative-narrow-focus_Maria-bebe-el-vino.wav,./stim/wavs/peruvian_match_declarative-narrow-focus_Maria-bebe-el-vino.wav,./stim/wavs/puertorican_match_declarative-narrow-focus_Maria-bebe-el-vino.wav,,,,,,,,,,,,,,,,,,,,,,,,,,,,,,,,,,,,,,,,,,,,,,,,,,,,,,,,
,,,,,,,5fb41bf3f84c7006ac8e30f2,605b45a4d25f287719a41696,605bf9208ab8c472559f1543,United States,Midwest,13 or older,no,2021-03-24_22h52.26.719,empathy_intonation_perc,2020.2.10,MacIntel,60,,,,,,,,,,1,argentine,1,1,2.577385,0,11,11,30,1,31,./stim/wavs/andalusian_match_interrogative-total-yn_Mariano-habla-del-tiempo.wav,./stim/wavs/argentine_match_interrogative-total-yn_Mariano-habla-del-tiempo.wav,./stim/wavs/castilian_match_interrogative-total-yn_Mariano-habla-del-tiempo.wav,./stim/wavs/chilean_match_interrogative-total-yn_Mariano-habla-del-tiempo.wav,./stim/wavs/cuban_match_interrogative-total-yn_Mariano-habla-del-tiempo.wav,./stim/wavs/mexican_match_interrogative-total-yn_Mariano-habla-del-tiempo.wav,./stim/wavs/peruvian_match_interrogative-total-yn_Mariano-habla-del-tiempo.wav,./stim/wavs/puertorican_match_interrogative-total-yn_Mariano-habla-del-tiempo.wav,,,,,,,,,,,,,,,,,,,,,,,,,,,,,,,,,,,,,,,,,,,,,,,,,,,,,,,,
,,,,,,,5fb41bf3f84c7006ac8e30f2,605b45a4d25f287719a41696,605bf9208ab8c472559f1543,United States,Midwest,13 or older,no,2021-03-24_22h52.26.719,empathy_intonation_perc,2020.2.10,MacIntel,60,,,,,,,,,,0,argentine,0,1,1.771855,0,12,12,34,1,35,./stim/wavs/andalusian_mismatch_declarative-broad-focus_El-nino-oye-el-rio.wav,./stim/wavs/argentine_mismatch_declarative-broad-focus_El-nino-oye-el-rio.wav,./stim/wavs/castilian_mismatch_declarative-broad-focus_El-nino-oye-el-rio.wav,./stim/wavs/chilean_mismatch_declarative-broad-focus_El-nino-oye-el-rio.wav,./stim/wavs/cuban_mismatch_declarative-broad-focus_El-nino-oye-el-rio.wav,./stim/wavs/mexican_mismatch_declarative-broad-focus_El-nino-oye-el-rio.wav,./stim/wavs/peruvian_mismatch_declarative-broad-focus_El-nino-oye-el-rio.wav,./stim/wavs/puertorican_mismatch_declarative-broad-focus_El-nino-oye-el-rio.wav,,,,,,,,,,,,,,,,,,,,,,,,,,,,,,,,,,,,,,,,,,,,,,,,,,,,,,,,
,,,,,,,5fb41bf3f84c7006ac8e30f2,605b45a4d25f287719a41696,605bf9208ab8c472559f1543,United States,Midwest,13 or older,no,2021-03-24_22h52.26.719,empathy_intonation_perc,2020.2.10,MacIntel,60,,,,,,,,,,1,mexican,1,1,2.357575,0,13,13,28,1,29,./stim/wavs/andalusian_match_interrogative-total-yn_Manuela-vende-el-carro.wav,./stim/wavs/argentine_match_interrogative-total-yn_Manuela-vende-el-carro.wav,./stim/wavs/castilian_match_interrogative-total-yn_Manuela-vende-el-carro.wav,./stim/wavs/chilean_match_interrogative-total-yn_Manuela-vende-el-carro.wav,./stim/wavs/cuban_match_interrogative-total-yn_Manuela-vende-el-carro.wav,./stim/wavs/mexican_match_interrogative-total-yn_Manuela-vende-el-carro.wav,./stim/wavs/peruvian_match_interrogative-total-yn_Manuela-vende-el-carro.wav,./stim/wavs/puertorican_match_interrogative-total-yn_Manuela-vende-el-carro.wav,,,,,,,,,,,,,,,,,,,,,,,,,,,,,,,,,,,,,,,,,,,,,,,,,,,,,,,,
,,,,,,,5fb41bf3f84c7006ac8e30f2,605b45a4d25f287719a41696,605bf9208ab8c472559f1543,United States,Midwest,13 or older,no,2021-03-24_22h52.26.719,empathy_intonation_perc,2020.2.10,MacIntel,60,,,,,,,,,,1,puertorican,0,0,1.584305,0,14,14,31,1,32,./stim/wavs/andalusian_match_interrogative-total-yn_Marta-abre-el-regalo.wav,./stim/wavs/argentine_match_interrogative-total-yn_Marta-abre-el-regalo.wav,./stim/wavs/castilian_match_interrogative-total-yn_Marta-abre-el-regalo.wav,./stim/wavs/chilean_match_interrogative-total-yn_Marta-abre-el-regalo.wav,./stim/wavs/cuban_match_interrogative-total-yn_Marta-abre-el-regalo.wav,./stim/wavs/mexican_match_interrogative-total-yn_Marta-abre-el-regalo.wav,./stim/wavs/peruvian_match_interrogative-total-yn_Marta-abre-el-regalo.wav,./stim/wavs/puertorican_match_interrogative-total-yn_Marta-abre-el-regalo.wav,,,,,,,,,,,,,,,,,,,,,,,,,,,,,,,,,,,,,,,,,,,,,,,,,,,,,,,,
,,,,,,,5fb41bf3f84c7006ac8e30f2,605b45a4d25f287719a41696,605bf9208ab8c472559f1543,United States,Midwest,13 or older,no,2021-03-24_22h52.26.719,empathy_intonation_perc,2020.2.10,MacIntel,60,,,,,,,,,,1,argentine,1,1,1.39951,0,15,15,23,1,24,./stim/wavs/andalusian_match_interrogative-partial-wh_Por-que-iba-a-Bolivia.wav,./stim/wavs/argentine_match_interrogative-partial-wh_Por-que-iba-a-Bolivia.wav,./stim/wavs/castilian_match_interrogative-partial-wh_Por-que-iba-a-Bolivia.wav,./stim/wavs/chilean_match_interrogative-partial-wh_Por-que-iba-a-Bolivia.wav,./stim/wavs/cuban_match_interrogative-partial-wh_Por-que-iba-a-Bolivia.wav,./stim/wavs/mexican_match_interrogative-partial-wh_Por-que-iba-a-Bolivia.wav,./stim/wavs/peruvian_match_interrogative-partial-wh_Por-que-iba-a-Bolivia.wav,./stim/wavs/puertorican_match_interrogative-partial-wh_Por-que-iba-a-Bolivia.wav,,,,,,,,,,,,,,,,,,,,,,,,,,,,,,,,,,,,,,,,,,,,,,,,,,,,,,,,
,,,,,,,5fb41bf3f84c7006ac8e30f2,605b45a4d25f287719a41696,605bf9208ab8c472559f1543,United States,Midwest,13 or older,no,2021-03-24_22h52.26.719,empathy_intonation_perc,2020.2.10,MacIntel,60,,,,,,,,,,0,andalusian,0,1,2.138065,0,16,16,10,1,11,./stim/wavs/andalusian_match_declarative-narrow-focus_David-leia-el-libro.wav,./stim/wavs/argentine_match_declarative-narrow-focus_David-leia-el-libro.wav,./stim/wavs/castilian_match_declarative-narrow-focus_David-leia-el-libro.wav,./stim/wavs/chilean_match_declarative-narrow-focus_David-leia-el-libro.wav,./stim/wavs/cuban_match_declarative-narrow-focus_David-leia-el-libro.wav,./stim/wavs/mexican_match_declarative-narrow-focus_David-leia-el-libro.wav,./stim/wavs/peruvian_match_declarative-narrow-focus_David-leia-el-libro.wav,./stim/wavs/puertorican_match_declarative-narrow-focus_David-leia-el-libro.wav,,,,,,,,,,,,,,,,,,,,,,,,,,,,,,,,,,,,,,,,,,,,,,,,,,,,,,,,
,,,,,,,5fb41bf3f84c7006ac8e30f2,605b45a4d25f287719a41696,605bf9208ab8c472559f1543,United States,Midwest,13 or older,no,2021-03-24_22h52.26.719,empathy_intonation_perc,2020.2.10,MacIntel,60,,,,,,,,,,0,chilean,0,1,1.50013,0,17,17,44,1,45,./stim/wavs/andalusian_mismatch_declarative-narrow-focus_La-nina-lava-el-plato.wav,./stim/wavs/argentine_mismatch_declarative-narrow-focus_La-nina-lava-el-plato.wav,./stim/wavs/castilian_mismatch_declarative-narrow-focus_La-nina-lava-el-plato.wav,./stim/wavs/chilean_mismatch_declarative-narrow-focus_La-nina-lava-el-plato.wav,./stim/wavs/cuban_mismatch_declarative-narrow-focus_La-nina-lava-el-plato.wav,./stim/wavs/mexican_mismatch_declarative-narrow-focus_La-nina-lava-el-plato.wav,./stim/wavs/peruvian_mismatch_declarative-narrow-focus_La-nina-lava-el-plato.wav,./stim/wavs/puertorican_mismatch_declarative-narrow-focus_La-nina-lava-el-plato.wav,,,,,,,,,,,,,,,,,,,,,,,,,,,,,,,,,,,,,,,,,,,,,,,,,,,,,,,,
,,,,,,,5fb41bf3f84c7006ac8e30f2,605b45a4d25f287719a41696,605bf9208ab8c472559f1543,United States,Midwest,13 or older,no,2021-03-24_22h52.26.719,empathy_intonation_perc,2020.2.10,MacIntel,60,,,,,,,,,,1,mexican,0,0,1.060395,0,18,18,60,1,61,./stim/wavs/andalusian_mismatch_interrogative-total-yn_La-nina-lava-el-plato.wav,./stim/wavs/argentine_mismatch_interrogative-total-yn_La-nina-lava-el-plato.wav,./stim/wavs/castilian_mismatch_interrogative-total-yn_La-nina-lava-el-plato.wav,./stim/wavs/chilean_mismatch_interrogative-total-yn_La-nina-lava-el-plato.wav,./stim/wavs/cuban_mismatch_interrogative-total-yn_La-nina-lava-el-plato.wav,./stim/wavs/mexican_mismatch_interrogative-total-yn_La-nina-lava-el-plato.wav,./stim/wavs/peruvian_mismatch_interrogative-total-yn_La-nina-lava-el-plato.wav,./stim/wavs/puertorican_mismatch_interrogative-total-yn_La-nina-lava-el-plato.wav,,,,,,,,,,,,,,,,,,,,,,,,,,,,,,,,,,,,,,,,,,,,,,,,,,,,,,,,
,,,,,,,5fb41bf3f84c7006ac8e30f2,605b45a4d25f287719a41696,605bf9208ab8c472559f1543,United States,Midwest,13 or older,no,2021-03-24_22h52.26.719,empathy_intonation_perc,2020.2.10,MacIntel,60,,,,,,,,,,1,cuban,0,0,1.554025,0,19,19,19,1,20,./stim/wavs/andalusian_match_interrogative-partial-wh_Cuando-vendia-el-carro.wav,./stim/wavs/argentine_match_interrogative-partial-wh_Cuando-vendia-el-carro.wav,./stim/wavs/castilian_match_interrogative-partial-wh_Cuando-vendia-el-carro.wav,./stim/wavs/chilean_match_interrogative-partial-wh_Cuando-vendia-el-carro.wav,./stim/wavs/cuban_match_interrogative-partial-wh_Cuando-vendia-el-carro.wav,./stim/wavs/mexican_match_interrogative-partial-wh_Cuando-vendia-el-carro.wav,./stim/wavs/peruvian_match_interrogative-partial-wh_Cuando-vendia-el-carro.wav,./stim/wavs/puertorican_match_interrogative-partial-wh_Cuando-vendia-el-carro.wav,,,,,,,,,,,,,,,,,,,,,,,,,,,,,,,,,,,,,,,,,,,,,,,,,,,,,,,,
,,,,,,,5fb41bf3f84c7006ac8e30f2,605b45a4d25f287719a41696,605bf9208ab8c472559f1543,United States,Midwest,13 or older,no,2021-03-24_22h52.26.719,empathy_intonation_perc,2020.2.10,MacIntel,60,,,,,,,,,,1,puertorican,1,1,0.85518,0,20,20,51,1,52,./stim/wavs/andalusian_mismatch_interrogative-partial-wh_Por-que-desayuna-muy-bien.wav,./stim/wavs/argentine_mismatch_interrogative-partial-wh_Por-que-desayuna-muy-bien.wav,./stim/wavs/castilian_mismatch_interrogative-partial-wh_Por-que-desayuna-muy-bien.wav,./stim/wavs/chilean_mismatch_interrogative-partial-wh_Por-que-desayuna-muy-bien.wav,./stim/wavs/cuban_mismatch_interrogative-partial-wh_Por-que-desayuna-muy-bien.wav,./stim/wavs/mexican_mismatch_interrogative-partial-wh_Por-que-desayuna-muy-bien.wav,./stim/wavs/peruvian_mismatch_interrogative-partial-wh_Por-que-desayuna-muy-bien.wav,./stim/wavs/puertorican_mismatch_interrogative-partial-wh_Por-que-desayuna-muy-bien.wav,,,,,,,,,,,,,,,,,,,,,,,,,,,,,,,,,,,,,,,,,,,,,,,,,,,,,,,,
,,,,,,,5fb41bf3f84c7006ac8e30f2,605b45a4d25f287719a41696,605bf9208ab8c472559f1543,United States,Midwest,13 or older,no,2021-03-24_22h52.26.719,empathy_intonation_perc,2020.2.10,MacIntel,60,,,,,,,,,,0,castilian,0,1,1.074855,0,21,21,36,1,37,./stim/wavs/andalusian_mismatch_declarative-broad-focus_La-nina-lava-el-plato.wav,./stim/wavs/argentine_mismatch_declarative-broad-focus_La-nina-lava-el-plato.wav,./stim/wavs/castilian_mismatch_declarative-broad-focus_La-nina-lava-el-plato.wav,./stim/wavs/chilean_mismatch_declarative-broad-focus_La-nina-lava-el-plato.wav,./stim/wavs/cuban_mismatch_declarative-broad-focus_La-nina-lava-el-plato.wav,./stim/wavs/mexican_mismatch_declarative-broad-focus_La-nina-lava-el-plato.wav,./stim/wavs/peruvian_mismatch_declarative-broad-focus_La-nina-lava-el-plato.wav,./stim/wavs/puertorican_mismatch_declarative-broad-focus_La-nina-lava-el-plato.wav,,,,,,,,,,,,,,,,,,,,,,,,,,,,,,,,,,,,,,,,,,,,,,,,,,,,,,,,
,,,,,,,5fb41bf3f84c7006ac8e30f2,605b45a4d25f287719a41696,605bf9208ab8c472559f1543,United States,Midwest,13 or older,no,2021-03-24_22h52.26.719,empathy_intonation_perc,2020.2.10,MacIntel,60,,,,,,,,,,0,andalusian,0,1,2.454,0,22,22,38,1,39,./stim/wavs/andalusian_mismatch_declarative-broad-focus_Mi-novio-viene-del-lago.wav,./stim/wavs/argentine_mismatch_declarative-broad-focus_Mi-novio-viene-del-lago.wav,./stim/wavs/castilian_mismatch_declarative-broad-focus_Mi-novio-viene-del-lago.wav,./stim/wavs/chilean_mismatch_declarative-broad-focus_Mi-novio-viene-del-lago.wav,./stim/wavs/cuban_mismatch_declarative-broad-focus_Mi-novio-viene-del-lago.wav,./stim/wavs/mexican_mismatch_declarative-broad-focus_Mi-novio-viene-del-lago.wav,./stim/wavs/peruvian_mismatch_declarative-broad-focus_Mi-novio-viene-del-lago.wav,./stim/wavs/puertorican_mismatch_declarative-broad-focus_Mi-novio-viene-del-lago.wav,,,,,,,,,,,,,,,,,,,,,,,,,,,,,,,,,,,,,,,,,,,,,,,,,,,,,,,,
,,,,,,,5fb41bf3f84c7006ac8e30f2,605b45a4d25f287719a41696,605bf9208ab8c472559f1543,United States,Midwest,13 or older,no,2021-03-24_22h52.26.719,empathy_intonation_perc,2020.2.10,MacIntel,60,,,,,,,,,,0,andalusian,0,1,1.84578,0,23,23,2,1,3,./stim/wavs/andalusian_match_declarative-broad-focus_David-leia-el-libro.wav,./stim/wavs/argentine_match_declarative-broad-focus_David-leia-el-libro.wav,./stim/wavs/castilian_match_declarative-broad-focus_David-leia-el-libro.wav,./stim/wavs/chilean_match_declarative-broad-focus_David-leia-el-libro.wav,./stim/wavs/cuban_match_declarative-broad-focus_David-leia-el-libro.wav,./stim/wavs/mexican_match_declarative-broad-focus_David-leia-el-libro.wav,./stim/wavs/peruvian_match_declarative-broad-focus_David-leia-el-libro.wav,./stim/wavs/puertorican_match_declarative-broad-focus_David-leia-el-libro.wav,,,,,,,,,,,,,,,,,,,,,,,,,,,,,,,,,,,,,,,,,,,,,,,,,,,,,,,,
,,,,,,,5fb41bf3f84c7006ac8e30f2,605b45a4d25f287719a41696,605bf9208ab8c472559f1543,United States,Midwest,13 or older,no,2021-03-24_22h52.26.719,empathy_intonation_perc,2020.2.10,MacIntel,60,,,,,,,,,,0,andalusian,0,1,1.38088,0,24,24,4,1,5,./stim/wavs/andalusian_match_declarative-broad-focus_Manuela-vende-el-carro.wav,./stim/wavs/argentine_match_declarative-broad-focus_Manuela-vende-el-carro.wav,./stim/wavs/castilian_match_declarative-broad-focus_Manuela-vende-el-carro.wav,./stim/wavs/chilean_match_declarative-broad-focus_Manuela-vende-el-carro.wav,./stim/wavs/cuban_match_declarative-broad-focus_Manuela-vende-el-carro.wav,./stim/wavs/mexican_match_declarative-broad-focus_Manuela-vende-el-carro.wav,./stim/wavs/peruvian_match_declarative-broad-focus_Manuela-vende-el-carro.wav,./stim/wavs/puertorican_match_declarative-broad-focus_Manuela-vende-el-carro.wav,,,,,,,,,,,,,,,,,,,,,,,,,,,,,,,,,,,,,,,,,,,,,,,,,,,,,,,,
,,,,,,,5fb41bf3f84c7006ac8e30f2,605b45a4d25f287719a41696,605bf9208ab8c472559f1543,United States,Midwest,13 or older,no,2021-03-24_22h52.26.719,empathy_intonation_perc,2020.2.10,MacIntel,60,,,,,,,,,,1,puertorican,0,0,1.293135,0,25,25,25,1,26,./stim/wavs/andalusian_match_interrogative-total-yn_Daniel-iba-a-Bolivia.wav,./stim/wavs/argentine_match_interrogative-total-yn_Daniel-iba-a-Bolivia.wav,./stim/wavs/castilian_match_interrogative-total-yn_Daniel-iba-a-Bolivia.wav,./stim/wavs/chilean_match_interrogative-total-yn_Daniel-iba-a-Bolivia.wav,./stim/wavs/cuban_match_interrogative-total-yn_Daniel-iba-a-Bolivia.wav,./stim/wavs/mexican_match_interrogative-total-yn_Daniel-iba-a-Bolivia.wav,./stim/wavs/peruvian_match_interrogative-total-yn_Daniel-iba-a-Bolivia.wav,./stim/wavs/puertorican_match_interrogative-total-yn_Daniel-iba-a-Bolivia.wav,,,,,,,,,,,,,,,,,,,,,,,,,,,,,,,,,,,,,,,,,,,,,,,,,,,,,,,,
,,,,,,,5fb41bf3f84c7006ac8e30f2,605b45a4d25f287719a41696,605bf9208ab8c472559f1543,United States,Midwest,13 or older,no,2021-03-24_22h52.26.719,empathy_intonation_perc,2020.2.10,MacIntel,60,,,,,,,,,,1,peruvian,1,1,1.40485,0,26,26,22,1,23,./stim/wavs/andalusian_match_interrogative-partial-wh_Por-que-hablaba-del-agua.wav,./stim/wavs/argentine_match_interrogative-partial-wh_Por-que-hablaba-del-agua.wav,./stim/wavs/castilian_match_interrogative-partial-wh_Por-que-hablaba-del-agua.wav,./stim/wavs/chilean_match_interrogative-partial-wh_Por-que-hablaba-del-agua.wav,./stim/wavs/cuban_match_interrogative-partial-wh_Por-que-hablaba-del-agua.wav,./stim/wavs/mexican_match_interrogative-partial-wh_Por-que-hablaba-del-agua.wav,./stim/wavs/peruvian_match_interrogative-partial-wh_Por-que-hablaba-del-agua.wav,./stim/wavs/puertorican_match_interrogative-partial-wh_Por-que-hablaba-del-agua.wav,,,,,,,,,,,,,,,,,,,,,,,,,,,,,,,,,,,,,,,,,,,,,,,,,,,,,,,,
,,,,,,,5fb41bf3f84c7006ac8e30f2,605b45a4d25f287719a41696,605bf9208ab8c472559f1543,United States,Midwest,13 or older,no,2021-03-24_22h52.26.719,empathy_intonation_perc,2020.2.10,MacIntel,60,,,,,,,,,,1,andalusian,1,1,2.861455,0,27,27,59,1,60,./stim/wavs/andalusian_mismatch_interrogative-total-yn_La-maestra-vive-en-Paris.wav,./stim/wavs/argentine_mismatch_interrogative-total-yn_La-maestra-vive-en-Paris.wav,./stim/wavs/castilian_mismatch_interrogative-total-yn_La-maestra-vive-en-Paris.wav,./stim/wavs/chilean_mismatch_interrogative-total-yn_La-maestra-vive-en-Paris.wav,./stim/wavs/cuban_mismatch_interrogative-total-yn_La-maestra-vive-en-Paris.wav,./stim/wavs/mexican_mismatch_interrogative-total-yn_La-maestra-vive-en-Paris.wav,./stim/wavs/peruvian_mismatch_interrogative-total-yn_La-maestra-vive-en-Paris.wav,./stim/wavs/puertorican_mismatch_interrogative-total-yn_La-maestra-vive-en-Paris.wav,,,,,,,,,,,,,,,,,,,,,,,,,,,,,,,,,,,,,,,,,,,,,,,,,,,,,,,,
,,,,,,,5fb41bf3f84c7006ac8e30f2,605b45a4d25f287719a41696,605bf9208ab8c472559f1543,United States,Midwest,13 or older,no,2021-03-24_22h52.26.719,empathy_intonation_perc,2020.2.10,MacIntel,60,,,,,,,,,,1,argentine,1,1,1.52916,0,28,28,56,1,57,./stim/wavs/andalusian_mismatch_interrogative-total-yn_El-bebe-comia-muy-bien.wav,./stim/wavs/argentine_mismatch_interrogative-total-yn_El-bebe-comia-muy-bien.wav,./stim/wavs/castilian_mismatch_interrogative-total-yn_El-bebe-comia-muy-bien.wav,./stim/wavs/chilean_mismatch_interrogative-total-yn_El-bebe-comia-muy-bien.wav,./stim/wavs/cuban_mismatch_interrogative-total-yn_El-bebe-comia-muy-bien.wav,./stim/wavs/mexican_mismatch_interrogative-total-yn_El-bebe-comia-muy-bien.wav,./stim/wavs/peruvian_mismatch_interrogative-total-yn_El-bebe-comia-muy-bien.wav,./stim/wavs/puertorican_mismatch_interrogative-total-yn_El-bebe-comia-muy-bien.wav,,,,,,,,,,,,,,,,,,,,,,,,,,,,,,,,,,,,,,,,,,,,,,,,,,,,,,,,
,,,,,,,5fb41bf3f84c7006ac8e30f2,605b45a4d25f287719a41696,605bf9208ab8c472559f1543,United States,Midwest,13 or older,no,2021-03-24_22h52.26.719,empathy_intonation_perc,2020.2.10,MacIntel,60,,,,,,,,,,0,puertorican,0,1,1.81732,0,29,29,45,1,46,./stim/wavs/andalusian_mismatch_declarative-narrow-focus_Mi-madre-come-la-fruta.wav,./stim/wavs/argentine_mismatch_declarative-narrow-focus_Mi-madre-come-la-fruta.wav,./stim/wavs/castilian_mismatch_declarative-narrow-focus_Mi-madre-come-la-fruta.wav,./stim/wavs/chilean_mismatch_declarative-narrow-focus_Mi-madre-come-la-fruta.wav,./stim/wavs/cuban_mismatch_declarative-narrow-focus_Mi-madre-come-la-fruta.wav,./stim/wavs/mexican_mismatch_declarative-narrow-focus_Mi-madre-come-la-fruta.wav,./stim/wavs/peruvian_mismatch_declarative-narrow-focus_Mi-madre-come-la-fruta.wav,./stim/wavs/puertorican_mismatch_declarative-narrow-focus_Mi-madre-come-la-fruta.wav,,,,,,,,,,,,,,,,,,,,,,,,,,,,,,,,,,,,,,,,,,,,,,,,,,,,,,,,
,,,,,,,5fb41bf3f84c7006ac8e30f2,605b45a4d25f287719a41696,605bf9208ab8c472559f1543,United States,Midwest,13 or older,no,2021-03-24_22h52.26.719,empathy_intonation_perc,2020.2.10,MacIntel,60,,,,,,,,,,1,puertorican,1,1,1.76437,0,30,30,17,1,18,./stim/wavs/andalusian_match_interrogative-partial-wh_Cuando-leia-el-libro.wav,./stim/wavs/argentine_match_interrogative-partial-wh_Cuando-leia-el-libro.wav,./stim/wavs/castilian_match_interrogative-partial-wh_Cuando-leia-el-libro.wav,./stim/wavs/chilean_match_interrogative-partial-wh_Cuando-leia-el-libro.wav,./stim/wavs/cuban_match_interrogative-partial-wh_Cuando-leia-el-libro.wav,./stim/wavs/mexican_match_interrogative-partial-wh_Cuando-leia-el-libro.wav,./stim/wavs/peruvian_match_interrogative-partial-wh_Cuando-leia-el-libro.wav,./stim/wavs/puertorican_match_interrogative-partial-wh_Cuando-leia-el-libro.wav,,,,,,,,,,,,,,,,,,,,,,,,,,,,,,,,,,,,,,,,,,,,,,,,,,,,,,,,
,,,,,,,5fb41bf3f84c7006ac8e30f2,605b45a4d25f287719a41696,605bf9208ab8c472559f1543,United States,Midwest,13 or older,no,2021-03-24_22h52.26.719,empathy_intonation_perc,2020.2.10,MacIntel,60,,,,,,,,,,1,chilean,1,1,1.8464,0,31,31,58,1,59,./stim/wavs/andalusian_mismatch_interrogative-total-yn_El-nino-oye-el-rio.wav,./stim/wavs/argentine_mismatch_interrogative-total-yn_El-nino-oye-el-rio.wav,./stim/wavs/castilian_mismatch_interrogative-total-yn_El-nino-oye-el-rio.wav,./stim/wavs/chilean_mismatch_interrogative-total-yn_El-nino-oye-el-rio.wav,./stim/wavs/cuban_mismatch_interrogative-total-yn_El-nino-oye-el-rio.wav,./stim/wavs/mexican_mismatch_interrogative-total-yn_El-nino-oye-el-rio.wav,./stim/wavs/peruvian_mismatch_interrogative-total-yn_El-nino-oye-el-rio.wav,./stim/wavs/puertorican_mismatch_interrogative-total-yn_El-nino-oye-el-rio.wav,,,,,,,,,,,,,,,,,,,,,,,,,,,,,,,,,,,,,,,,,,,,,,,,,,,,,,,,
,,,,,,,5fb41bf3f84c7006ac8e30f2,605b45a4d25f287719a41696,605bf9208ab8c472559f1543,United States,Midwest,13 or older,no,2021-03-24_22h52.26.719,empathy_intonation_perc,2020.2.10,MacIntel,60,,,,,,,,,,0,argentine,0,1,1.884075,0,32,32,40,1,41,./stim/wavs/andalusian_mismatch_declarative-narrow-focus_El-bebe-comia-muy-bien.wav,./stim/wavs/argentine_mismatch_declarative-narrow-focus_El-bebe-comia-muy-bien.wav,./stim/wavs/castilian_mismatch_declarative-narrow-focus_El-bebe-comia-muy-bien.wav,./stim/wavs/chilean_mismatch_declarative-narrow-focus_El-bebe-comia-muy-bien.wav,./stim/wavs/cuban_mismatch_declarative-narrow-focus_El-bebe-comia-muy-bien.wav,./stim/wavs/mexican_mismatch_declarative-narrow-focus_El-bebe-comia-muy-bien.wav,./stim/wavs/peruvian_mismatch_declarative-narrow-focus_El-bebe-comia-muy-bien.wav,./stim/wavs/puertorican_mismatch_declarative-narrow-focus_El-bebe-comia-muy-bien.wav,,,,,,,,,,,,,,,,,,,,,,,,,,,,,,,,,,,,,,,,,,,,,,,,,,,,,,,,
,,,,,,,5fb41bf3f84c7006ac8e30f2,605b45a4d25f287719a41696,605bf9208ab8c472559f1543,United States,Midwest,13 or older,no,2021-03-24_22h52.26.719,empathy_intonation_perc,2020.2.10,MacIntel,60,,,,,,,,,,1,castilian,1,1,1.94776,0,33,33,55,1,56,./stim/wavs/andalusian_mismatch_interrogative-partial-wh_Por-que-vivia-en-Paris.wav,./stim/wavs/argentine_mismatch_interrogative-partial-wh_Por-que-vivia-en-Paris.wav,./stim/wavs/castilian_mismatch_interrogative-partial-wh_Por-que-vivia-en-Paris.wav,./stim/wavs/chilean_mismatch_interrogative-partial-wh_Por-que-vivia-en-Paris.wav,./stim/wavs/cuban_mismatch_interrogative-partial-wh_Por-que-vivia-en-Paris.wav,./stim/wavs/mexican_mismatch_interrogative-partial-wh_Por-que-vivia-en-Paris.wav,./stim/wavs/peruvian_mismatch_interrogative-partial-wh_Por-que-vivia-en-Paris.wav,./stim/wavs/puertorican_mismatch_interrogative-partial-wh_Por-que-vivia-en-Paris.wav,,,,,,,,,,,,,,,,,,,,,,,,,,,,,,,,,,,,,,,,,,,,,,,,,,,,,,,,
,,,,,,,5fb41bf3f84c7006ac8e30f2,605b45a4d25f287719a41696,605bf9208ab8c472559f1543,United States,Midwest,13 or older,no,2021-03-24_22h52.26.719,empathy_intonation_perc,2020.2.10,MacIntel,60,,,,,,,,,,1,argentine,1,1,2.086255,0,34,34,52,1,53,./stim/wavs/andalusian_mismatch_interrogative-partial-wh_Por-que-odiaba-la-lluvia.wav,./stim/wavs/argentine_mismatch_interrogative-partial-wh_Por-que-odiaba-la-lluvia.wav,./stim/wavs/castilian_mismatch_interrogative-partial-wh_Por-que-odiaba-la-lluvia.wav,./stim/wavs/chilean_mismatch_interrogative-partial-wh_Por-que-odiaba-la-lluvia.wav,./stim/wavs/cuban_mismatch_interrogative-partial-wh_Por-que-odiaba-la-lluvia.wav,./stim/wavs/mexican_mismatch_interrogative-partial-wh_Por-que-odiaba-la-lluvia.wav,./stim/wavs/peruvian_mismatch_interrogative-partial-wh_Por-que-odiaba-la-lluvia.wav,./stim/wavs/puertorican_mismatch_interrogative-partial-wh_Por-que-odiaba-la-lluvia.wav,,,,,,,,,,,,,,,,,,,,,,,,,,,,,,,,,,,,,,,,,,,,,,,,,,,,,,,,
,,,,,,,5fb41bf3f84c7006ac8e30f2,605b45a4d25f287719a41696,605bf9208ab8c472559f1543,United States,Midwest,13 or older,no,2021-03-24_22h52.26.719,empathy_intonation_perc,2020.2.10,MacIntel,60,,,,,,,,,,0,mexican,0,1,2.133595,0,35,35,32,1,33,./stim/wavs/andalusian_mismatch_declarative-broad-focus_El-bebe-comia-muy-bien.wav,./stim/wavs/argentine_mismatch_declarative-broad-focus_El-bebe-comia-muy-bien.wav,./stim/wavs/castilian_mismatch_declarative-broad-focus_El-bebe-comia-muy-bien.wav,./stim/wavs/chilean_mismatch_declarative-broad-focus_El-bebe-comia-muy-bien.wav,./stim/wavs/cuban_mismatch_declarative-broad-focus_El-bebe-comia-muy-bien.wav,./stim/wavs/mexican_mismatch_declarative-broad-focus_El-bebe-comia-muy-bien.wav,./stim/wavs/peruvian_mismatch_declarative-broad-focus_El-bebe-comia-muy-bien.wav,./stim/wavs/puertorican_mismatch_declarative-broad-focus_El-bebe-comia-muy-bien.wav,,,,,,,,,,,,,,,,,,,,,,,,,,,,,,,,,,,,,,,,,,,,,,,,,,,,,,,,
,,,,,,,5fb41bf3f84c7006ac8e30f2,605b45a4d25f287719a41696,605bf9208ab8c472559f1543,United States,Midwest,13 or older,no,2021-03-24_22h52.26.719,empathy_intonation_perc,2020.2.10,MacIntel,60,,,,,,,,,,1,puertorican,0,0,1.98507,0,36,36,62,1,63,./stim/wavs/andalusian_mismatch_interrogative-total-yn_Mi-novio-viene-del-lago.wav,./stim/wavs/argentine_mismatch_interrogative-total-yn_Mi-novio-viene-del-lago.wav,./stim/wavs/castilian_mismatch_interrogative-total-yn_Mi-novio-viene-del-lago.wav,./stim/wavs/chilean_mismatch_interrogative-total-yn_Mi-novio-viene-del-lago.wav,./stim/wavs/cuban_mismatch_interrogative-total-yn_Mi-novio-viene-del-lago.wav,./stim/wavs/mexican_mismatch_interrogative-total-yn_Mi-novio-viene-del-lago.wav,./stim/wavs/peruvian_mismatch_interrogative-total-yn_Mi-novio-viene-del-lago.wav,./stim/wavs/puertorican_mismatch_interrogative-total-yn_Mi-novio-viene-del-lago.wav,,,,,,,,,,,,,,,,,,,,,,,,,,,,,,,,,,,,,,,,,,,,,,,,,,,,,,,,
,,,,,,,5fb41bf3f84c7006ac8e30f2,605b45a4d25f287719a41696,605bf9208ab8c472559f1543,United States,Midwest,13 or older,no,2021-03-24_22h52.26.719,empathy_intonation_perc,2020.2.10,MacIntel,60,,,,,,,,,,0,argentine,1,0,1.55093,0,37,37,46,1,47,./stim/wavs/andalusian_mismatch_declarative-narrow-focus_Mi-novio-viene-del-lago.wav,./stim/wavs/argentine_mismatch_declarative-narrow-focus_Mi-novio-viene-del-lago.wav,./stim/wavs/castilian_mismatch_declarative-narrow-focus_Mi-novio-viene-del-lago.wav,./stim/wavs/chilean_mismatch_declarative-narrow-focus_Mi-novio-viene-del-lago.wav,./stim/wavs/cuban_mismatch_declarative-narrow-focus_Mi-novio-viene-del-lago.wav,./stim/wavs/mexican_mismatch_declarative-narrow-focus_Mi-novio-viene-del-lago.wav,./stim/wavs/peruvian_mismatch_declarative-narrow-focus_Mi-novio-viene-del-lago.wav,./stim/wavs/puertorican_mismatch_declarative-narrow-focus_Mi-novio-viene-del-lago.wav,,,,,,,,,,,,,,,,,,,,,,,,,,,,,,,,,,,,,,,,,,,,,,,,,,,,,,,,
,,,,,,,5fb41bf3f84c7006ac8e30f2,605b45a4d25f287719a41696,605bf9208ab8c472559f1543,United States,Midwest,13 or older,no,2021-03-24_22h52.26.719,empathy_intonation_perc,2020.2.10,MacIntel,60,,,,,,,,,,1,puertorican,0,0,2.12932,0,38,38,24,1,25,./stim/wavs/andalusian_match_interrogative-total-yn_Ana-lleva-el-abrigo.wav,./stim/wavs/argentine_match_interrogative-total-yn_Ana-lleva-el-abrigo.wav,./stim/wavs/castilian_match_interrogative-total-yn_Ana-lleva-el-abrigo.wav,./stim/wavs/chilean_match_interrogative-total-yn_Ana-lleva-el-abrigo.wav,./stim/wavs/cuban_match_interrogative-total-yn_Ana-lleva-el-abrigo.wav,./stim/wavs/mexican_match_interrogative-total-yn_Ana-lleva-el-abrigo.wav,./stim/wavs/peruvian_match_interrogative-total-yn_Ana-lleva-el-abrigo.wav,./stim/wavs/puertorican_match_interrogative-total-yn_Ana-lleva-el-abrigo.wav,,,,,,,,,,,,,,,,,,,,,,,,,,,,,,,,,,,,,,,,,,,,,,,,,,,,,,,,
,,,,,,,5fb41bf3f84c7006ac8e30f2,605b45a4d25f287719a41696,605bf9208ab8c472559f1543,United States,Midwest,13 or older,no,2021-03-24_22h52.26.719,empathy_intonation_perc,2020.2.10,MacIntel,60,,,,,,,,,,0,chilean,1,0,1.203195,0,39,39,9,1,10,./stim/wavs/andalusian_match_declarative-narrow-focus_Daniel-iba-a-Bolivia.wav,./stim/wavs/argentine_match_declarative-narrow-focus_Daniel-iba-a-Bolivia.wav,./stim/wavs/castilian_match_declarative-narrow-focus_Daniel-iba-a-Bolivia.wav,./stim/wavs/chilean_match_declarative-narrow-focus_Daniel-iba-a-Bolivia.wav,./stim/wavs/cuban_match_declarative-narrow-focus_Daniel-iba-a-Bolivia.wav,./stim/wavs/mexican_match_declarative-narrow-focus_Daniel-iba-a-Bolivia.wav,./stim/wavs/peruvian_match_declarative-narrow-focus_Daniel-iba-a-Bolivia.wav,./stim/wavs/puertorican_match_declarative-narrow-focus_Daniel-iba-a-Bolivia.wav,,,,,,,,,,,,,,,,,,,,,,,,,,,,,,,,,,,,,,,,,,,,,,,,,,,,,,,,
,,,,,,,5fb41bf3f84c7006ac8e30f2,605b45a4d25f287719a41696,605bf9208ab8c472559f1543,United States,Midwest,13 or older,no,2021-03-24_22h52.26.719,empathy_intonation_perc,2020.2.10,MacIntel,60,,,,,,,,,,1,cuban,1,1,1.311055,0,40,40,16,1,17,./stim/wavs/andalusian_match_interrogative-partial-wh_Cuando-bebia-el-vino.wav,./stim/wavs/argentine_match_interrogative-partial-wh_Cuando-bebia-el-vino.wav,./stim/wavs/castilian_match_interrogative-partial-wh_Cuando-bebia-el-vino.wav,./stim/wavs/chilean_match_interrogative-partial-wh_Cuando-bebia-el-vino.wav,./stim/wavs/cuban_match_interrogative-partial-wh_Cuando-bebia-el-vino.wav,./stim/wavs/mexican_match_interrogative-partial-wh_Cuando-bebia-el-vino.wav,./stim/wavs/peruvian_match_interrogative-partial-wh_Cuando-bebia-el-vino.wav,./stim/wavs/puertorican_match_interrogative-partial-wh_Cuando-bebia-el-vino.wav,,,,,,,,,,,,,,,,,,,,,,,,,,,,,,,,,,,,,,,,,,,,,,,,,,,,,,,,
,,,,,,,5fb41bf3f84c7006ac8e30f2,605b45a4d25f287719a41696,605bf9208ab8c472559f1543,United States,Midwest,13 or older,no,2021-03-24_22h52.26.719,empathy_intonation_perc,2020.2.10,MacIntel,60,,,,,,,,,,1,cuban,0,0,1.669205,0,41,41,29,1,30,./stim/wavs/andalusian_match_interrogative-total-yn_Maria-bebe-el-vino.wav,./stim/wavs/argentine_match_interrogative-total-yn_Maria-bebe-el-vino.wav,./stim/wavs/castilian_match_interrogative-total-yn_Maria-bebe-el-vino.wav,./stim/wavs/chilean_match_interrogative-total-yn_Maria-bebe-el-vino.wav,./stim/wavs/cuban_match_interrogative-total-yn_Maria-bebe-el-vino.wav,./stim/wavs/mexican_match_interrogative-total-yn_Maria-bebe-el-vino.wav,./stim/wavs/peruvian_match_interrogative-total-yn_Maria-bebe-el-vino.wav,./stim/wavs/puertorican_match_interrogative-total-yn_Maria-bebe-el-vino.wav,,,,,,,,,,,,,,,,,,,,,,,,,,,,,,,,,,,,,,,,,,,,,,,,,,,,,,,,
,,,,,,,5fb41bf3f84c7006ac8e30f2,605b45a4d25f287719a41696,605bf9208ab8c472559f1543,United States,Midwest,13 or older,no,2021-03-24_22h52.26.719,empathy_intonation_perc,2020.2.10,MacIntel,60,,,,,,,,,,0,puertorican,0,1,1.284915,0,42,42,11,1,12,./stim/wavs/andalusian_match_declarative-narrow-focus_Emilio-ama-la-marcha.wav,./stim/wavs/argentine_match_declarative-narrow-focus_Emilio-ama-la-marcha.wav,./stim/wavs/castilian_match_declarative-narrow-focus_Emilio-ama-la-marcha.wav,./stim/wavs/chilean_match_declarative-narrow-focus_Emilio-ama-la-marcha.wav,./stim/wavs/cuban_match_declarative-narrow-focus_Emilio-ama-la-marcha.wav,./stim/wavs/mexican_match_declarative-narrow-focus_Emilio-ama-la-marcha.wav,./stim/wavs/peruvian_match_declarative-narrow-focus_Emilio-ama-la-marcha.wav,./stim/wavs/puertorican_match_declarative-narrow-focus_Emilio-ama-la-marcha.wav,,,,,,,,,,,,,,,,,,,,,,,,,,,,,,,,,,,,,,,,,,,,,,,,,,,,,,,,
,,,,,,,5fb41bf3f84c7006ac8e30f2,605b45a4d25f287719a41696,605bf9208ab8c472559f1543,United States,Midwest,13 or older,no,2021-03-24_22h52.26.719,empathy_intonation_perc,2020.2.10,MacIntel,60,,,,,,,,,,1,mexican,1,1,1.67008,0,43,43,61,1,62,./stim/wavs/andalusian_mismatch_interrogative-total-yn_Mi-madre-come-la-fruta.wav,./stim/wavs/argentine_mismatch_interrogative-total-yn_Mi-madre-come-la-fruta.wav,./stim/wavs/castilian_mismatch_interrogative-total-yn_Mi-madre-come-la-fruta.wav,./stim/wavs/chilean_mismatch_interrogative-total-yn_Mi-madre-come-la-fruta.wav,./stim/wavs/cuban_mismatch_interrogative-total-yn_Mi-madre-come-la-fruta.wav,./stim/wavs/mexican_mismatch_interrogative-total-yn_Mi-madre-come-la-fruta.wav,./stim/wavs/peruvian_mismatch_interrogative-total-yn_Mi-madre-come-la-fruta.wav,./stim/wavs/puertorican_mismatch_interrogative-total-yn_Mi-madre-come-la-fruta.wav,,,,,,,,,,,,,,,,,,,,,,,,,,,,,,,,,,,,,,,,,,,,,,,,,,,,,,,,
,,,,,,,5fb41bf3f84c7006ac8e30f2,605b45a4d25f287719a41696,605bf9208ab8c472559f1543,United States,Midwest,13 or older,no,2021-03-24_22h52.26.719,empathy_intonation_perc,2020.2.10,MacIntel,60,,,,,,,,,,1,chilean,1,1,1.57243,0,44,44,49,1,50,./stim/wavs/andalusian_mismatch_interrogative-partial-wh_Cuando-lavaba-el-plato.wav,./stim/wavs/argentine_mismatch_interrogative-partial-wh_Cuando-lavaba-el-plato.wav,./stim/wavs/castilian_mismatch_interrogative-partial-wh_Cuando-lavaba-el-plato.wav,./stim/wavs/chilean_mismatch_interrogative-partial-wh_Cuando-lavaba-el-plato.wav,./stim/wavs/cuban_mismatch_interrogative-partial-wh_Cuando-lavaba-el-plato.wav,./stim/wavs/mexican_mismatch_interrogative-partial-wh_Cuando-lavaba-el-plato.wav,./stim/wavs/peruvian_mismatch_interrogative-partial-wh_Cuando-lavaba-el-plato.wav,./stim/wavs/puertorican_mismatch_interrogative-partial-wh_Cuando-lavaba-el-plato.wav,,,,,,,,,,,,,,,,,,,,,,,,,,,,,,,,,,,,,,,,,,,,,,,,,,,,,,,,
,,,,,,,5fb41bf3f84c7006ac8e30f2,605b45a4d25f287719a41696,605bf9208ab8c472559f1543,United States,Midwest,13 or older,no,2021-03-24_22h52.26.719,empathy_intonation_perc,2020.2.10,MacIntel,60,,,,,,,,,,0,cuban,0,1,1.62414,0,45,45,43,1,44,./stim/wavs/andalusian_mismatch_declarative-narrow-focus_La-maestra-vive-en-Paris.wav,./stim/wavs/argentine_mismatch_declarative-narrow-focus_La-maestra-vive-en-Paris.wav,./stim/wavs/castilian_mismatch_declarative-narrow-focus_La-maestra-vive-en-Paris.wav,./stim/wavs/chilean_mismatch_declarative-narrow-focus_La-maestra-vive-en-Paris.wav,./stim/wavs/cuban_mismatch_declarative-narrow-focus_La-maestra-vive-en-Paris.wav,./stim/wavs/mexican_mismatch_declarative-narrow-focus_La-maestra-vive-en-Paris.wav,./stim/wavs/peruvian_mismatch_declarative-narrow-focus_La-maestra-vive-en-Paris.wav,./stim/wavs/puertorican_mismatch_declarative-narrow-focus_La-maestra-vive-en-Paris.wav,,,,,,,,,,,,,,,,,,,,,,,,,,,,,,,,,,,,,,,,,,,,,,,,,,,,,,,,
,,,,,,,5fb41bf3f84c7006ac8e30f2,605b45a4d25f287719a41696,605bf9208ab8c472559f1543,United States,Midwest,13 or older,no,2021-03-24_22h52.26.719,empathy_intonation_perc,2020.2.10,MacIntel,60,,,,,,,,,,0,castilian,0,1,1.730045,0,46,46,3,1,4,./stim/wavs/andalusian_match_declarative-broad-focus_Emilio-ama-la-marcha.wav,./stim/wavs/argentine_match_declarative-broad-focus_Emilio-ama-la-marcha.wav,./stim/wavs/castilian_match_declarative-broad-focus_Emilio-ama-la-marcha.wav,./stim/wavs/chilean_match_declarative-broad-focus_Emilio-ama-la-marcha.wav,./stim/wavs/cuban_match_declarative-broad-focus_Emilio-ama-la-marcha.wav,./stim/wavs/mexican_match_declarative-broad-focus_Emilio-ama-la-marcha.wav,./stim/wavs/peruvian_match_declarative-broad-focus_Emilio-ama-la-marcha.wav,./stim/wavs/puertorican_match_declarative-broad-focus_Emilio-ama-la-marcha.wav,,,,,,,,,,,,,,,,,,,,,,,,,,,,,,,,,,,,,,,,,,,,,,,,,,,,,,,,
,,,,,,,5fb41bf3f84c7006ac8e30f2,605b45a4d25f287719a41696,605bf9208ab8c472559f1543,United States,Midwest,13 or older,no,2021-03-24_22h52.26.719,empathy_intonation_perc,2020.2.10,MacIntel,60,,,,,,,,,,1,peruvian,1,1,1.641185,0,47,47,48,1,49,./stim/wavs/andalusian_mismatch_interrogative-partial-wh_Cuando-comia-la-fruta.wav,./stim/wavs/argentine_mismatch_interrogative-partial-wh_Cuando-comia-la-fruta.wav,./stim/wavs/castilian_mismatch_interrogative-partial-wh_Cuando-comia-la-fruta.wav,./stim/wavs/chilean_mismatch_interrogative-partial-wh_Cuando-comia-la-fruta.wav,./stim/wavs/cuban_mismatch_interrogative-partial-wh_Cuando-comia-la-fruta.wav,./stim/wavs/mexican_mismatch_interrogative-partial-wh_Cuando-comia-la-fruta.wav,./stim/wavs/peruvian_mismatch_interrogative-partial-wh_Cuando-comia-la-fruta.wav,./stim/wavs/puertorican_mismatch_interrogative-partial-wh_Cuando-comia-la-fruta.wav,,,,,,,,,,,,,,,,,,,,,,,,,,,,,,,,,,,,,,,,,,,,,,,,,,,,,,,,
,,,,,,,5fb41bf3f84c7006ac8e30f2,605b45a4d25f287719a41696,605bf9208ab8c472559f1543,United States,Midwest,13 or older,no,2021-03-24_22h52.26.719,empathy_intonation_perc,2020.2.10,MacIntel,60,,,,,,,,,,0,andalusian,0,1,1.96444,0,48,48,35,1,36,./stim/wavs/andalusian_mismatch_declarative-broad-focus_La-maestra-vive-en-Paris.wav,./stim/wavs/argentine_mismatch_declarative-broad-focus_La-maestra-vive-en-Paris.wav,./stim/wavs/castilian_mismatch_declarative-broad-focus_La-maestra-vive-en-Paris.wav,./stim/wavs/chilean_mismatch_declarative-broad-focus_La-maestra-vive-en-Paris.wav,./stim/wavs/cuban_mismatch_declarative-broad-focus_La-maestra-vive-en-Paris.wav,./stim/wavs/mexican_mismatch_declarative-broad-focus_La-maestra-vive-en-Paris.wav,./stim/wavs/peruvian_mismatch_declarative-broad-focus_La-maestra-vive-en-Paris.wav,./stim/wavs/puertorican_mismatch_declarative-broad-focus_La-maestra-vive-en-Paris.wav,,,,,,,,,,,,,,,,,,,,,,,,,,,,,,,,,,,,,,,,,,,,,,,,,,,,,,,,
,,,,,,,5fb41bf3f84c7006ac8e30f2,605b45a4d25f287719a41696,605bf9208ab8c472559f1543,United States,Midwest,13 or older,no,2021-03-24_22h52.26.719,empathy_intonation_perc,2020.2.10,MacIntel,60,,,,,,,,,,0,peruvian,0,1,2.21276,0,49,49,7,1,8,./stim/wavs/andalusian_match_declarative-broad-focus_Marta-abre-el-regalo.wav,./stim/wavs/argentine_match_declarative-broad-focus_Marta-abre-el-regalo.wav,./stim/wavs/castilian_match_declarative-broad-focus_Marta-abre-el-regalo.wav,./stim/wavs/chilean_match_declarative-broad-focus_Marta-abre-el-regalo.wav,./stim/wavs/cuban_match_declarative-broad-focus_Marta-abre-el-regalo.wav,./stim/wavs/mexican_match_declarative-broad-focus_Marta-abre-el-regalo.wav,./stim/wavs/peruvian_match_declarative-broad-focus_Marta-abre-el-regalo.wav,./stim/wavs/puertorican_match_declarative-broad-focus_Marta-abre-el-regalo.wav,,,,,,,,,,,,,,,,,,,,,,,,,,,,,,,,,,,,,,,,,,,,,,,,,,,,,,,,
,,,,,,,5fb41bf3f84c7006ac8e30f2,605b45a4d25f287719a41696,605bf9208ab8c472559f1543,United States,Midwest,13 or older,no,2021-03-24_22h52.26.719,empathy_intonation_perc,2020.2.10,MacIntel,60,,,,,,,,,,1,chilean,1,1,1.609735,0,50,50,54,1,55,./stim/wavs/andalusian_mismatch_interrogative-partial-wh_Por-que-venia-del-lago.wav,./stim/wavs/argentine_mismatch_interrogative-partial-wh_Por-que-venia-del-lago.wav,./stim/wavs/castilian_mismatch_interrogative-partial-wh_Por-que-venia-del-lago.wav,./stim/wavs/chilean_mismatch_interrogative-partial-wh_Por-que-venia-del-lago.wav,./stim/wavs/cuban_mismatch_interrogative-partial-wh_Por-que-venia-del-lago.wav,./stim/wavs/mexican_mismatch_interrogative-partial-wh_Por-que-venia-del-lago.wav,./stim/wavs/peruvian_mismatch_interrogative-partial-wh_Por-que-venia-del-lago.wav,./stim/wavs/puertorican_mismatch_interrogative-partial-wh_Por-que-venia-del-lago.wav,,,,,,,,,,,,,,,,,,,,,,,,,,,,,,,,,,,,,,,,,,,,,,,,,,,,,,,,
,,,,,,,5fb41bf3f84c7006ac8e30f2,605b45a4d25f287719a41696,605bf9208ab8c472559f1543,United States,Midwest,13 or older,no,2021-03-24_22h52.26.719,empathy_intonation_perc,2020.2.10,MacIntel,60,,,,,,,,,,0,chilean,0,1,1.71235,0,51,51,8,1,9,./stim/wavs/andalusian_match_declarative-narrow-focus_Ana-lleva-el-abrigo.wav,./stim/wavs/argentine_match_declarative-narrow-focus_Ana-lleva-el-abrigo.wav,./stim/wavs/castilian_match_declarative-narrow-focus_Ana-lleva-el-abrigo.wav,./stim/wavs/chilean_match_declarative-narrow-focus_Ana-lleva-el-abrigo.wav,./stim/wavs/cuban_match_declarative-narrow-focus_Ana-lleva-el-abrigo.wav,./stim/wavs/mexican_match_declarative-narrow-focus_Ana-lleva-el-abrigo.wav,./stim/wavs/peruvian_match_declarative-narrow-focus_Ana-lleva-el-abrigo.wav,./stim/wavs/puertorican_match_declarative-narrow-focus_Ana-lleva-el-abrigo.wav,,,,,,,,,,,,,,,,,,,,,,,,,,,,,,,,,,,,,,,,,,,,,,,,,,,,,,,,
,,,,,,,5fb41bf3f84c7006ac8e30f2,605b45a4d25f287719a41696,605bf9208ab8c472559f1543,United States,Midwest,13 or older,no,2021-03-24_22h52.26.719,empathy_intonation_perc,2020.2.10,MacIntel,60,,,,,,,,,,1,castilian,1,1,1.514675,0,52,52,57,1,58,./stim/wavs/andalusian_mismatch_interrogative-total-yn_El-hombre-mira-la-luna.wav,./stim/wavs/argentine_mismatch_interrogative-total-yn_El-hombre-mira-la-luna.wav,./stim/wavs/castilian_mismatch_interrogative-total-yn_El-hombre-mira-la-luna.wav,./stim/wavs/chilean_mismatch_interrogative-total-yn_El-hombre-mira-la-luna.wav,./stim/wavs/cuban_mismatch_interrogative-total-yn_El-hombre-mira-la-luna.wav,./stim/wavs/mexican_mismatch_interrogative-total-yn_El-hombre-mira-la-luna.wav,./stim/wavs/peruvian_mismatch_interrogative-total-yn_El-hombre-mira-la-luna.wav,./stim/wavs/puertorican_mismatch_interrogative-total-yn_El-hombre-mira-la-luna.wav,,,,,,,,,,,,,,,,,,,,,,,,,,,,,,,,,,,,,,,,,,,,,,,,,,,,,,,,
,,,,,,,5fb41bf3f84c7006ac8e30f2,605b45a4d25f287719a41696,605bf9208ab8c472559f1543,United States,Midwest,13 or older,no,2021-03-24_22h52.26.719,empathy_intonation_perc,2020.2.10,MacIntel,60,,,,,,,,,,0,chilean,0,1,1.681115,0,53,53,39,1,40,./stim/wavs/andalusian_mismatch_declarative-broad-focus_Mi-tia-odia-la-lluvia.wav,./stim/wavs/argentine_mismatch_declarative-broad-focus_Mi-tia-odia-la-lluvia.wav,./stim/wavs/castilian_mismatch_declarative-broad-focus_Mi-tia-odia-la-lluvia.wav,./stim/wavs/chilean_mismatch_declarative-broad-focus_Mi-tia-odia-la-lluvia.wav,./stim/wavs/cuban_mismatch_declarative-broad-focus_Mi-tia-odia-la-lluvia.wav,./stim/wavs/mexican_mismatch_declarative-broad-focus_Mi-tia-odia-la-lluvia.wav,./stim/wavs/peruvian_mismatch_declarative-broad-focus_Mi-tia-odia-la-lluvia.wav,./stim/wavs/puertorican_mismatch_declarative-broad-focus_Mi-tia-odia-la-lluvia.wav,,,,,,,,,,,,,,,,,,,,,,,,,,,,,,,,,,,,,,,,,,,,,,,,,,,,,,,,
,,,,,,,5fb41bf3f84c7006ac8e30f2,605b45a4d25f287719a41696,605bf9208ab8c472559f1543,United States,Midwest,13 or older,no,2021-03-24_22h52.26.719,empathy_intonation_perc,2020.2.10,MacIntel,60,,,,,,,,,,0,chilean,0,1,1.70046,0,54,54,0,1,1,./stim/wavs/andalusian_match_declarative-broad-focus_Ana-lleva-el-abrigo.wav,./stim/wavs/argentine_match_declarative-broad-focus_Ana-lleva-el-abrigo.wav,./stim/wavs/castilian_match_declarative-broad-focus_Ana-lleva-el-abrigo.wav,./stim/wavs/chilean_match_declarative-broad-focus_Ana-lleva-el-abrigo.wav,./stim/wavs/cuban_match_declarative-broad-focus_Ana-lleva-el-abrigo.wav,./stim/wavs/mexican_match_declarative-broad-focus_Ana-lleva-el-abrigo.wav,./stim/wavs/peruvian_match_declarative-broad-focus_Ana-lleva-el-abrigo.wav,./stim/wavs/puertorican_match_declarative-broad-focus_Ana-lleva-el-abrigo.wav,,,,,,,,,,,,,,,,,,,,,,,,,,,,,,,,,,,,,,,,,,,,,,,,,,,,,,,,
,,,,,,,5fb41bf3f84c7006ac8e30f2,605b45a4d25f287719a41696,605bf9208ab8c472559f1543,United States,Midwest,13 or older,no,2021-03-24_22h52.26.719,empathy_intonation_perc,2020.2.10,MacIntel,60,,,,,,,,,,0,cuban,0,1,1.563385,0,55,55,5,1,6,./stim/wavs/andalusian_match_declarative-broad-focus_Maria-bebe-el-vino.wav,./stim/wavs/argentine_match_declarative-broad-focus_Maria-bebe-el-vino.wav,./stim/wavs/castilian_match_declarative-broad-focus_Maria-bebe-el-vino.wav,./stim/wavs/chilean_match_declarative-broad-focus_Maria-bebe-el-vino.wav,./stim/wavs/cuban_match_declarative-broad-focus_Maria-bebe-el-vino.wav,./stim/wavs/mexican_match_declarative-broad-focus_Maria-bebe-el-vino.wav,./stim/wavs/peruvian_match_declarative-broad-focus_Maria-bebe-el-vino.wav,./stim/wavs/puertorican_match_declarative-broad-focus_Maria-bebe-el-vino.wav,,,,,,,,,,,,,,,,,,,,,,,,,,,,,,,,,,,,,,,,,,,,,,,,,,,,,,,,
,,,,,,,5fb41bf3f84c7006ac8e30f2,605b45a4d25f287719a41696,605bf9208ab8c472559f1543,United States,Midwest,13 or older,no,2021-03-24_22h52.26.719,empathy_intonation_perc,2020.2.10,MacIntel,60,,,,,,,,,,0,mexican,0,1,1.930315,0,56,56,47,1,48,./stim/wavs/andalusian_mismatch_declarative-narrow-focus_Mi-tia-odia-la-lluvia.wav,./stim/wavs/argentine_mismatch_declarative-narrow-focus_Mi-tia-odia-la-lluvia.wav,./stim/wavs/castilian_mismatch_declarative-narrow-focus_Mi-tia-odia-la-lluvia.wav,./stim/wavs/chilean_mismatch_declarative-narrow-focus_Mi-tia-odia-la-lluvia.wav,./stim/wavs/cuban_mismatch_declarative-narrow-focus_Mi-tia-odia-la-lluvia.wav,./stim/wavs/mexican_mismatch_declarative-narrow-focus_Mi-tia-odia-la-lluvia.wav,./stim/wavs/peruvian_mismatch_declarative-narrow-focus_Mi-tia-odia-la-lluvia.wav,./stim/wavs/puertorican_mismatch_declarative-narrow-focus_Mi-tia-odia-la-lluvia.wav,,,,,,,,,,,,,,,,,,,,,,,,,,,,,,,,,,,,,,,,,,,,,,,,,,,,,,,,
,,,,,,,5fb41bf3f84c7006ac8e30f2,605b45a4d25f287719a41696,605bf9208ab8c472559f1543,United States,Midwest,13 or older,no,2021-03-24_22h52.26.719,empathy_intonation_perc,2020.2.10,MacIntel,60,,,,,,,,,,0,peruvian,0,1,3.11363,0,57,57,6,1,7,./stim/wavs/andalusian_match_declarative-broad-focus_Mariano-habla-del-tiempo.wav,./stim/wavs/argentine_match_declarative-broad-focus_Mariano-habla-del-tiempo.wav,./stim/wavs/castilian_match_declarative-broad-focus_Mariano-habla-del-tiempo.wav,./stim/wavs/chilean_match_declarative-broad-focus_Mariano-habla-del-tiempo.wav,./stim/wavs/cuban_match_declarative-broad-focus_Mariano-habla-del-tiempo.wav,./stim/wavs/mexican_match_declarative-broad-focus_Mariano-habla-del-tiempo.wav,./stim/wavs/peruvian_match_declarative-broad-focus_Mariano-habla-del-tiempo.wav,./stim/wavs/puertorican_match_declarative-broad-focus_Mariano-habla-del-tiempo.wav,,,,,,,,,,,,,,,,,,,,,,,,,,,,,,,,,,,,,,,,,,,,,,,,,,,,,,,,
,,,,,,,5fb41bf3f84c7006ac8e30f2,605b45a4d25f287719a41696,605bf9208ab8c472559f1543,United States,Midwest,13 or older,no,2021-03-24_22h52.26.719,empathy_intonation_perc,2020.2.10,MacIntel,60,,,,,,,,,,1,mexican,1,1,2.34329,0,58,58,27,1,28,./stim/wavs/andalusian_match_interrogative-total-yn_Emilio-ama-la-marcha.wav,./stim/wavs/argentine_match_interrogative-total-yn_Emilio-ama-la-marcha.wav,./stim/wavs/castilian_match_interrogative-total-yn_Emilio-ama-la-marcha.wav,./stim/wavs/chilean_match_interrogative-total-yn_Emilio-ama-la-marcha.wav,./stim/wavs/cuban_match_interrogative-total-yn_Emilio-ama-la-marcha.wav,./stim/wavs/mexican_match_interrogative-total-yn_Emilio-ama-la-marcha.wav,./stim/wavs/peruvian_match_interrogative-total-yn_Emilio-ama-la-marcha.wav,./stim/wavs/puertorican_match_interrogative-total-yn_Emilio-ama-la-marcha.wav,,,,,,,,,,,,,,,,,,,,,,,,,,,,,,,,,,,,,,,,,,,,,,,,,,,,,,,,
,,,,,,,5fb41bf3f84c7006ac8e30f2,605b45a4d25f287719a41696,605bf9208ab8c472559f1543,United States,Midwest,13 or older,no,2021-03-24_22h52.26.719,empathy_intonation_perc,2020.2.10,MacIntel,60,,,,,,,,,,0,cuban,0,1,1.41364,0,59,59,33,1,34,./stim/wavs/andalusian_mismatch_declarative-broad-focus_El-hombre-mira-la-luna.wav,./stim/wavs/argentine_mismatch_declarative-broad-focus_El-hombre-mira-la-luna.wav,./stim/wavs/castilian_mismatch_declarative-broad-focus_El-hombre-mira-la-luna.wav,./stim/wavs/chilean_mismatch_declarative-broad-focus_El-hombre-mira-la-luna.wav,./stim/wavs/cuban_mismatch_declarative-broad-focus_El-hombre-mira-la-luna.wav,./stim/wavs/mexican_mismatch_declarative-broad-focus_El-hombre-mira-la-luna.wav,./stim/wavs/peruvian_mismatch_declarative-broad-focus_El-hombre-mira-la-luna.wav,./stim/wavs/puertorican_mismatch_declarative-broad-focus_El-hombre-mira-la-luna.wav,,,,,,,,,,,,,,,,,,,,,,,,,,,,,,,,,,,,,,,,,,,,,,,,,,,,,,,,
,,,,,,,5fb41bf3f84c7006ac8e30f2,605b45a4d25f287719a41696,605bf9208ab8c472559f1543,United States,Midwest,13 or older,no,2021-03-24_22h52.26.719,empathy_intonation_perc,2020.2.10,MacIntel,60,,,,,,,,,,0,argentine,0,1,1.322665,0,60,60,41,1,42,./stim/wavs/andalusian_mismatch_declarative-narrow-focus_El-hombre-mira-la-luna.wav,./stim/wavs/argentine_mismatch_declarative-narrow-focus_El-hombre-mira-la-luna.wav,./stim/wavs/castilian_mismatch_declarative-narrow-focus_El-hombre-mira-la-luna.wav,./stim/wavs/chilean_mismatch_declarative-narrow-focus_El-hombre-mira-la-luna.wav,./stim/wavs/cuban_mismatch_declarative-narrow-focus_El-hombre-mira-la-luna.wav,./stim/wavs/mexican_mismatch_declarative-narrow-focus_El-hombre-mira-la-luna.wav,./stim/wavs/peruvian_mismatch_declarative-narrow-focus_El-hombre-mira-la-luna.wav,./stim/wavs/puertorican_mismatch_declarative-narrow-focus_El-hombre-mira-la-luna.wav,,,,,,,,,,,,,,,,,,,,,,,,,,,,,,,,,,,,,,,,,,,,,,,,,,,,,,,,
,,,,,,,5fb41bf3f84c7006ac8e30f2,605b45a4d25f287719a41696,605bf9208ab8c472559f1543,United States,Midwest,13 or older,no,2021-03-24_22h52.26.719,empathy_intonation_perc,2020.2.10,MacIntel,60,,,,,,,,,,1,puertorican,0,0,1.289745,0,61,61,50,1,51,./stim/wavs/andalusian_mismatch_interrogative-partial-wh_Cuando-miraba-la-luna.wav,./stim/wavs/argentine_mismatch_interrogative-partial-wh_Cuando-miraba-la-luna.wav,./stim/wavs/castilian_mismatch_interrogative-partial-wh_Cuando-miraba-la-luna.wav,./stim/wavs/chilean_mismatch_interrogative-partial-wh_Cuando-miraba-la-luna.wav,./stim/wavs/cuban_mismatch_interrogative-partial-wh_Cuando-miraba-la-luna.wav,./stim/wavs/mexican_mismatch_interrogative-partial-wh_Cuando-miraba-la-luna.wav,./stim/wavs/peruvian_mismatch_interrogative-partial-wh_Cuando-miraba-la-luna.wav,./stim/wavs/puertorican_mismatch_interrogative-partial-wh_Cuando-miraba-la-luna.wav,,,,,,,,,,,,,,,,,,,,,,,,,,,,,,,,,,,,,,,,,,,,,,,,,,,,,,,,
,,,,,,,5fb41bf3f84c7006ac8e30f2,605b45a4d25f287719a41696,605bf9208ab8c472559f1543,United States,Midwest,13 or older,no,2021-03-24_22h52.26.719,empathy_intonation_perc,2020.2.10,MacIntel,60,,,,,,,,,,1,peruvian,1,1,1.856685,0,62,62,21,1,22,./stim/wavs/andalusian_match_interrogative-partial-wh_Por-que-ama-la-navidad.wav,./stim/wavs/argentine_match_interrogative-partial-wh_Por-que-ama-la-navidad.wav,./stim/wavs/castilian_match_interrogative-partial-wh_Por-que-ama-la-navidad.wav,./stim/wavs/chilean_match_interrogative-partial-wh_Por-que-ama-la-navidad.wav,./stim/wavs/cuban_match_interrogative-partial-wh_Por-que-ama-la-navidad.wav,./stim/wavs/mexican_match_interrogative-partial-wh_Por-que-ama-la-navidad.wav,./stim/wavs/peruvian_match_interrogative-partial-wh_Por-que-ama-la-navidad.wav,./stim/wavs/puertorican_match_interrogative-partial-wh_Por-que-ama-la-navidad.wav,,,,,,,,,,,,,,,,,,,,,,,,,,,,,,,,,,,,,,,,,,,,,,,,,,,,,,,,
,,,,,,,5fb41bf3f84c7006ac8e30f2,605b45a4d25f287719a41696,605bf9208ab8c472559f1543,United States,Midwest,13 or older,no,2021-03-24_22h52.26.719,empathy_intonation_perc,2020.2.10,MacIntel,60,,,,,,,,,,0,peruvian,0,1,3.29303,0,63,63,14,1,15,./stim/wavs/andalusian_match_declarative-narrow-focus_Mariano-habla-del-tiempo.wav,./stim/wavs/argentine_match_declarative-narrow-focus_Mariano-habla-del-tiempo.wav,./stim/wavs/castilian_match_declarative-narrow-focus_Mariano-habla-del-tiempo.wav,./stim/wavs/chilean_match_declarative-narrow-focus_Mariano-habla-del-tiempo.wav,./stim/wavs/cuban_match_declarative-narrow-focus_Mariano-habla-del-tiempo.wav,./stim/wavs/mexican_match_declarative-narrow-focus_Mariano-habla-del-tiempo.wav,./stim/wavs/peruvian_match_declarative-narrow-focus_Mariano-habla-del-tiempo.wav,./stim/wavs/puertorican_match_declarative-narrow-focus_Mariano-habla-del-tiempo.wav,,,,,,,,,,,,,,,,,,,,,,,,,,,,,,,,,,,,,,,,,,,,,,,,,,,,,,,,
,,,,,,,5fb41bf3f84c7006ac8e30f2,605b45a4d25f287719a41696,605bf9208ab8c472559f1543,United States,Midwest,13 or older,no,2021-03-24_22h52.26.719,empathy_intonation_perc,2020.2.10,MacIntel,60,,,,,,,,,,,,,,,,,,,,,,,,,,,,,h,1,6.415145,0,0,0,0,1,,,,,,,,,,,,,,,,,,,,,,,,,,,,,,,,,,,,,,,,,,,,,,,,
,,,,,"Great! Now we will move on. The next task consists of about 60 trials, in each of which you will see a string of letters. 
  
  Your task is to decide whether this is a real Spanish word or not.",(press the spacebar to continue),5fb41bf3f84c7006ac8e30f2,605b45a4d25f287719a41696,605bf9208ab8c472559f1543,United States,Midwest,13 or older,no,2021-03-24_22h52.26.719,empathy_intonation_perc,2020.2.10,MacIntel,60,,,,,,,,,,,,,,,,,,,,,,,,,,,,,,,,,,,,,0,0,0,0,1,,,,,,,,,,,,,,,,,,,,,,,,,,,,,,,,,,,,,,,,,,,
,,,,,"If you think it is an existing Spanish word, you type '1' (for 'REAL'), and if you think it is not an existing Spanish word, you type '0' (for 'FAKE').",(press the spacebar to continue),5fb41bf3f84c7006ac8e30f2,605b45a4d25f287719a41696,605bf9208ab8c472559f1543,United States,Midwest,13 or older,no,2021-03-24_22h52.26.719,empathy_intonation_perc,2020.2.10,MacIntel,60,,,,,,,,,,,,,,,,,,,,,,,,,,,,,,,,,,,,,0,1,1,1,1,,,,,,,,,,,,,,,,,,,,,,,,,,,,,,,,,,,,,,,,,,,
,,,,,"If you are sure that the word exists, even though you dont know its exact meaning, you may still respond '1' (REAL). 
  
  But if you are not sure if it is an existing word, you should respond '0' (FAKE).
  
  Let's do a practice round...",(press the spacebar to continue),5fb41bf3f84c7006ac8e30f2,605b45a4d25f287719a41696,605bf9208ab8c472559f1543,United States,Midwest,13 or older,no,2021-03-24_22h52.26.719,empathy_intonation_perc,2020.2.10,MacIntel,60,,,,,,,,,,,,,,,,,,,,,,,,,,,,,,,,,,,,,0,2,2,2,1,,,,,,,,,,,,,,,,,,,,,,,,,,,,,,,,,,,,,,,,,,,
,,,,,,,5fb41bf3f84c7006ac8e30f2,605b45a4d25f287719a41696,605bf9208ab8c472559f1543,United States,Midwest,13 or older,no,2021-03-24_22h52.26.719,empathy_intonation_perc,2020.2.10,MacIntel,60,,,,,,,,,,0,,,,,,,,,,,,,,,,,,,,,,,,,,,,,,,,0,1,1.905825,0,0,0,0,1,0,depiste,REAL,FAKE,,,,,,,,,,,,,,,,,,,,,,,,,,,,,,,
,,,,,,,5fb41bf3f84c7006ac8e30f2,605b45a4d25f287719a41696,605bf9208ab8c472559f1543,United States,Midwest,13 or older,no,2021-03-24_22h52.26.719,empathy_intonation_perc,2020.2.10,MacIntel,60,,,,,,,,,,1,,,,,,,,,,,,,,,,,,,,,,,,,,,,,,,,1,1,1.168905,0,1,1,1,1,0,s,REAL,FAKE,,,,,,,,,,,,,,,,,,,,,,,,,,,,,,,
,,,,,,,5fb41bf3f84c7006ac8e30f2,605b45a4d25f287719a41696,605bf9208ab8c472559f1543,United States,Midwest,13 or older,no,2021-03-24_22h52.26.719,empathy_intonation_perc,2020.2.10,MacIntel,60,,,,,,,,,,0,,,,,,,,,,,,,,,,,,,,,,,,,,,,,,,,0,1,1.31235,0,2,2,2,1,0,con,REAL,FAKE,,,,,,,,,,,,,,,,,,,,,,,,,,,,,,,
,,,,,,,5fb41bf3f84c7006ac8e30f2,605b45a4d25f287719a41696,605bf9208ab8c472559f1543,United States,Midwest,13 or older,no,2021-03-24_22h52.26.719,empathy_intonation_perc,2020.2.10,MacIntel,60,,,,,,,,,,0,,,,,,,,,,,,,,,,,,,,,,,,,,,,,,,,1,0,1.280615,0,3,3,3,1,0,calpar,REAL,FAKE,,,,,,,,,,,,,,,,,,,,,,,,,,,,,,,
,,,,,,,5fb41bf3f84c7006ac8e30f2,605b45a4d25f287719a41696,605bf9208ab8c472559f1543,United States,Midwest,13 or older,no,2021-03-24_22h52.26.719,empathy_intonation_perc,2020.2.10,MacIntel,60,,,,,,,,,,0,,,,,,,,,,,,,,,,,,,,,,,,,,,,,,,,0,1,1.083645,0,4,4,4,1,0,joten,REAL,FAKE,,,,,,,,,,,,,,,,,,,,,,,,,,,,,,,
,,,,,,,5fb41bf3f84c7006ac8e30f2,605b45a4d25f287719a41696,605bf9208ab8c472559f1543,United States,Midwest,13 or older,no,2021-03-24_22h52.26.719,empathy_intonation_perc,2020.2.10,MacIntel,60,,,,,,,,,,1,,,,,,,,,,,,,,,,,,,,,,,,,,,,,,,,1,1,1.69978,0,5,5,5,1,0,sacapuntas,REAL,FAKE,,,,,,,,,,,,,,,,,,,,,,,,,,,,,,,
,,,,,,,5fb41bf3f84c7006ac8e30f2,605b45a4d25f287719a41696,605bf9208ab8c472559f1543,United States,Midwest,13 or older,no,2021-03-24_22h52.26.719,empathy_intonation_perc,2020.2.10,MacIntel,60,,,,,,,,,,0,,,,,,,,,,,,,,,,,,,,,,,,,,,,,,,,0,1,0.770355,0,6,6,6,1,0,priba,REAL,FAKE,,,,,,,,,,,,,,,,,,,,,,,,,,,,,,,
,,,,,,,5fb41bf3f84c7006ac8e30f2,605b45a4d25f287719a41696,605bf9208ab8c472559f1543,United States,Midwest,13 or older,no,2021-03-24_22h52.26.719,empathy_intonation_perc,2020.2.10,MacIntel,60,,,,,,,,,,0,,,,,,,,,,,,,,,,,,,,,,,,,,,,,,,,1,0,0.78321,0,7,7,7,1,0,pelasula,REAL,FAKE,,,,,,,,,,,,,,,,,,,,,,,,,,,,,,,
,,,,,,,5fb41bf3f84c7006ac8e30f2,605b45a4d25f287719a41696,605bf9208ab8c472559f1543,United States,Midwest,13 or older,no,2021-03-24_22h52.26.719,empathy_intonation_perc,2020.2.10,MacIntel,60,,,,,,,,,,1,,,,,,,,,,,,,,,,,,,,,,,,,,,,,,,,1,1,0.922255,0,8,8,8,1,0,bien,REAL,FAKE,,,,,,,,,,,,,,,,,,,,,,,,,,,,,,,
,,,,,,,5fb41bf3f84c7006ac8e30f2,605b45a4d25f287719a41696,605bf9208ab8c472559f1543,United States,Midwest,13 or older,no,2021-03-24_22h52.26.719,empathy_intonation_perc,2020.2.10,MacIntel,60,,,,,,,,,,1,,,,,,,,,,,,,,,,,,,,,,,,,,,,,,,,1,1,0.65568,0,9,9,9,1,0,casa,REAL,FAKE,,,,,,,,,,,,,,,,,,,,,,,,,,,,,,,
,,,,,,,5fb41bf3f84c7006ac8e30f2,605b45a4d25f287719a41696,605bf9208ab8c472559f1543,United States,Midwest,13 or older,no,2021-03-24_22h52.26.719,empathy_intonation_perc,2020.2.10,MacIntel,60,,,,,,,,,,0,,,,,,,,,,,,,,,,,,,,,,,,,,,,,,,,1,0,1.221695,0,10,10,10,1,0,lejo,REAL,FAKE,,,,,,,,,,,,,,,,,,,,,,,,,,,,,,,
,,,,,,,5fb41bf3f84c7006ac8e30f2,605b45a4d25f287719a41696,605bf9208ab8c472559f1543,United States,Midwest,13 or older,no,2021-03-24_22h52.26.719,empathy_intonation_perc,2020.2.10,MacIntel,60,,,,,,,,,,0,,,,,,,,,,,,,,,,,,,,,,,,,,,,,,,,0,1,0.918725,0,11,11,11,1,0,pretantas,REAL,FAKE,,,,,,,,,,,,,,,,,,,,,,,,,,,,,,,
,,,,,,,5fb41bf3f84c7006ac8e30f2,605b45a4d25f287719a41696,605bf9208ab8c472559f1543,United States,Midwest,13 or older,no,2021-03-24_22h52.26.719,empathy_intonation_perc,2020.2.10,MacIntel,60,,,,,,,,,,0,,,,,,,,,,,,,,,,,,,,,,,,,,,,,,,,,,,,,,,,66,hacido,,,1,0,0.984435,0,0,0,65,1,REAL,FAKE,,,,,,,,,,,,,,,,,,,,,
,,,,,,,5fb41bf3f84c7006ac8e30f2,605b45a4d25f287719a41696,605bf9208ab8c472559f1543,United States,Midwest,13 or older,no,2021-03-24_22h52.26.719,empathy_intonation_perc,2020.2.10,MacIntel,60,,,,,,,,,,1,,,,,,,,,,,,,,,,,,,,,,,,,,,,,,,,,,,,,,,,64,orgulloso,,,0,0,1.0663,0,1,1,63,1,REAL,FAKE,,,,,,,,,,,,,,,,,,,,,
,,,,,,,5fb41bf3f84c7006ac8e30f2,605b45a4d25f287719a41696,605bf9208ab8c472559f1543,United States,Midwest,13 or older,no,2021-03-24_22h52.26.719,empathy_intonation_perc,2020.2.10,MacIntel,60,,,,,,,,,,0,,,,,,,,,,,,,,,,,,,,,,,,,,,,,,,,,,,,,,,,87,grodo,,,1,0,0.840795,0,2,2,86,1,REAL,FAKE,,,,,,,,,,,,,,,,,,,,,
,,,,,,,5fb41bf3f84c7006ac8e30f2,605b45a4d25f287719a41696,605bf9208ab8c472559f1543,United States,Midwest,13 or older,no,2021-03-24_22h52.26.719,empathy_intonation_perc,2020.2.10,MacIntel,60,,,,,,,,,,1,,,,,,,,,,,,,,,,,,,,,,,,,,,,,,,,,,,,,,,,14,yunque,,,0,0,0.86748,0,3,3,13,1,REAL,FAKE,,,,,,,,,,,,,,,,,,,,,
,,,,,,,5fb41bf3f84c7006ac8e30f2,605b45a4d25f287719a41696,605bf9208ab8c472559f1543,United States,Midwest,13 or older,no,2021-03-24_22h52.26.719,empathy_intonation_perc,2020.2.10,MacIntel,60,,,,,,,,,,1,,,,,,,,,,,,,,,,,,,,,,,,,,,,,,,,,,,,,,,,45,jilguero,,,0,0,1.21629,0,4,4,44,1,REAL,FAKE,,,,,,,,,,,,,,,,,,,,,
,,,,,,,5fb41bf3f84c7006ac8e30f2,605b45a4d25f287719a41696,605bf9208ab8c472559f1543,United States,Midwest,13 or older,no,2021-03-24_22h52.26.719,empathy_intonation_perc,2020.2.10,MacIntel,60,,,,,,,,,,1,,,,,,,,,,,,,,,,,,,,,,,,,,,,,,,,,,,,,,,,46,martillo,,,0,0,1.021025,0,5,5,45,1,REAL,FAKE,,,,,,,,,,,,,,,,,,,,,
,,,,,,,5fb41bf3f84c7006ac8e30f2,605b45a4d25f287719a41696,605bf9208ab8c472559f1543,United States,Midwest,13 or older,no,2021-03-24_22h52.26.719,empathy_intonation_perc,2020.2.10,MacIntel,60,,,,,,,,,,0,,,,,,,,,,,,,,,,,,,,,,,,,,,,,,,,,,,,,,,,23,lampera,,,1,0,0.74882,0,6,6,22,1,REAL,FAKE,,,,,,,,,,,,,,,,,,,,,
,,,,,,,5fb41bf3f84c7006ac8e30f2,605b45a4d25f287719a41696,605bf9208ab8c472559f1543,United States,Midwest,13 or older,no,2021-03-24_22h52.26.719,empathy_intonation_perc,2020.2.10,MacIntel,60,,,,,,,,,,1,,,,,,,,,,,,,,,,,,,,,,,,,,,,,,,,,,,,,,,,59,besar,,,1,1,0.7483,0,7,7,58,1,REAL,FAKE,,,,,,,,,,,,,,,,,,,,,
,,,,,,,5fb41bf3f84c7006ac8e30f2,605b45a4d25f287719a41696,605bf9208ab8c472559f1543,United States,Midwest,13 or older,no,2021-03-24_22h52.26.719,empathy_intonation_perc,2020.2.10,MacIntel,60,,,,,,,,,,1,,,,,,,,,,,,,,,,,,,,,,,,,,,,,,,,,,,,,,,,3,pulmones,,,0,0,1.19636,0,8,8,2,1,REAL,FAKE,,,,,,,,,,,,,,,,,,,,,
,,,,,,,5fb41bf3f84c7006ac8e30f2,605b45a4d25f287719a41696,605bf9208ab8c472559f1543,United States,Midwest,13 or older,no,2021-03-24_22h52.26.719,empathy_intonation_perc,2020.2.10,MacIntel,60,,,,,,,,,,0,,,,,,,,,,,,,,,,,,,,,,,,,,,,,,,,,,,,,,,,70,temblo,,,1,0,0.736375,0,9,9,69,1,REAL,FAKE,,,,,,,,,,,,,,,,,,,,,
,,,,,,,5fb41bf3f84c7006ac8e30f2,605b45a4d25f287719a41696,605bf9208ab8c472559f1543,United States,Midwest,13 or older,no,2021-03-24_22h52.26.719,empathy_intonation_perc,2020.2.10,MacIntel,60,,,,,,,,,,0,,,,,,,,,,,,,,,,,,,,,,,,,,,,,,,,,,,,,,,,33,pauca,,,1,0,0.96192,0,10,10,32,1,REAL,FAKE,,,,,,,,,,,,,,,,,,,,,
,,,,,,,5fb41bf3f84c7006ac8e30f2,605b45a4d25f287719a41696,605bf9208ab8c472559f1543,United States,Midwest,13 or older,no,2021-03-24_22h52.26.719,empathy_intonation_perc,2020.2.10,MacIntel,60,,,,,,,,,,0,,,,,,,,,,,,,,,,,,,,,,,,,,,,,,,,,,,,,,,,4,batilln,,,1,0,0.91826,0,11,11,3,1,REAL,FAKE,,,,,,,,,,,,,,,,,,,,,
,,,,,,,5fb41bf3f84c7006ac8e30f2,605b45a4d25f287719a41696,605bf9208ab8c472559f1543,United States,Midwest,13 or older,no,2021-03-24_22h52.26.719,empathy_intonation_perc,2020.2.10,MacIntel,60,,,,,,,,,,1,,,,,,,,,,,,,,,,,,,,,,,,,,,,,,,,,,,,,,,,75,yacer,,,0,0,0.72148,0,12,12,74,1,REAL,FAKE,,,,,,,,,,,,,,,,,,,,,
,,,,,,,5fb41bf3f84c7006ac8e30f2,605b45a4d25f287719a41696,605bf9208ab8c472559f1543,United States,Midwest,13 or older,no,2021-03-24_22h52.26.719,empathy_intonation_perc,2020.2.10,MacIntel,60,,,,,,,,,,1,,,,,,,,,,,,,,,,,,,,,,,,,,,,,,,,,,,,,,,,25,bisagra,,,1,1,0.90696,0,13,13,24,1,REAL,FAKE,,,,,,,,,,,,,,,,,,,,,
,,,,,,,5fb41bf3f84c7006ac8e30f2,605b45a4d25f287719a41696,605bf9208ab8c472559f1543,United States,Midwest,13 or older,no,2021-03-24_22h52.26.719,empathy_intonation_perc,2020.2.10,MacIntel,60,,,,,,,,,,0,,,,,,,,,,,,,,,,,,,,,,,,,,,,,,,,,,,,,,,,10,antar,,,1,0,1.01277,0,14,14,9,1,REAL,FAKE,,,,,,,,,,,,,,,,,,,,,
,,,,,,,5fb41bf3f84c7006ac8e30f2,605b45a4d25f287719a41696,605bf9208ab8c472559f1543,United States,Midwest,13 or older,no,2021-03-24_22h52.26.719,empathy_intonation_perc,2020.2.10,MacIntel,60,,,,,,,,,,1,,,,,,,,,,,,,,,,,,,,,,,,,,,,,,,,,,,,,,,,20,vido,,,1,1,0.802075,0,15,15,19,1,REAL,FAKE,,,,,,,,,,,,,,,,,,,,,
,,,,,,,5fb41bf3f84c7006ac8e30f2,605b45a4d25f287719a41696,605bf9208ab8c472559f1543,United States,Midwest,13 or older,no,2021-03-24_22h52.26.719,empathy_intonation_perc,2020.2.10,MacIntel,60,,,,,,,,,,1,,,,,,,,,,,,,,,,,,,,,,,,,,,,,,,,,,,,,,,,37,granuja,,,0,0,0.971885,0,16,16,36,1,REAL,FAKE,,,,,,,,,,,,,,,,,,,,,
,,,,,,,5fb41bf3f84c7006ac8e30f2,605b45a4d25f287719a41696,605bf9208ab8c472559f1543,United States,Midwest,13 or older,no,2021-03-24_22h52.26.719,empathy_intonation_perc,2020.2.10,MacIntel,60,,,,,,,,,,0,,,,,,,,,,,,,,,,,,,,,,,,,,,,,,,,,,,,,,,,79,tropaje,,,1,0,0.79641,0,17,17,78,1,REAL,FAKE,,,,,,,,,,,,,,,,,,,,,
,,,,,,,5fb41bf3f84c7006ac8e30f2,605b45a4d25f287719a41696,605bf9208ab8c472559f1543,United States,Midwest,13 or older,no,2021-03-24_22h52.26.719,empathy_intonation_perc,2020.2.10,MacIntel,60,,,,,,,,,,0,,,,,,,,,,,,,,,,,,,,,,,,,,,,,,,,,,,,,,,,32,fatacidad,,,1,0,2.03192,0,18,18,31,1,REAL,FAKE,,,,,,,,,,,,,,,,,,,,,
,,,,,,,5fb41bf3f84c7006ac8e30f2,605b45a4d25f287719a41696,605bf9208ab8c472559f1543,United States,Midwest,13 or older,no,2021-03-24_22h52.26.719,empathy_intonation_perc,2020.2.10,MacIntel,60,,,,,,,,,,1,,,,,,,,,,,,,,,,,,,,,,,,,,,,,,,,,,,,,,,,48,ladrn,,,1,1,0.77237,0,19,19,47,1,REAL,FAKE,,,,,,,,,,,,,,,,,,,,,
,,,,,,,5fb41bf3f84c7006ac8e30f2,605b45a4d25f287719a41696,605bf9208ab8c472559f1543,United States,Midwest,13 or older,no,2021-03-24_22h52.26.719,empathy_intonation_perc,2020.2.10,MacIntel,60,,,,,,,,,,1,,,,,,,,,,,,,,,,,,,,,,,,,,,,,,,,,,,,,,,,38,estornudar,,,0,0,0.850955,0,20,20,37,1,REAL,FAKE,,,,,,,,,,,,,,,,,,,,,
,,,,,,,5fb41bf3f84c7006ac8e30f2,605b45a4d25f287719a41696,605bf9208ab8c472559f1543,United States,Midwest,13 or older,no,2021-03-24_22h52.26.719,empathy_intonation_perc,2020.2.10,MacIntel,60,,,,,,,,,,1,,,,,,,,,,,,,,,,,,,,,,,,,,,,,,,,,,,,,,,,44,cuchara,,,0,0,1.18729,0,21,21,43,1,REAL,FAKE,,,,,,,,,,,,,,,,,,,,,
,,,,,,,5fb41bf3f84c7006ac8e30f2,605b45a4d25f287719a41696,605bf9208ab8c472559f1543,United States,Midwest,13 or older,no,2021-03-24_22h52.26.719,empathy_intonation_perc,2020.2.10,MacIntel,60,,,,,,,,,,1,,,,,,,,,,,,,,,,,,,,,,,,,,,,,,,,,,,,,,,,5,zapato,,,1,1,1.088075,0,22,22,4,1,REAL,FAKE,,,,,,,,,,,,,,,,,,,,,
,,,,,,,5fb41bf3f84c7006ac8e30f2,605b45a4d25f287719a41696,605bf9208ab8c472559f1543,United States,Midwest,13 or older,no,2021-03-24_22h52.26.719,empathy_intonation_perc,2020.2.10,MacIntel,60,,,,,,,,,,0,,,,,,,,,,,,,,,,,,,,,,,,,,,,,,,,,,,,,,,,16,abracer,,,0,1,3.006275,0,23,23,15,1,REAL,FAKE,,,,,,,,,,,,,,,,,,,,,
,,,,,,,5fb41bf3f84c7006ac8e30f2,605b45a4d25f287719a41696,605bf9208ab8c472559f1543,United States,Midwest,13 or older,no,2021-03-24_22h52.26.719,empathy_intonation_perc,2020.2.10,MacIntel,60,,,,,,,,,,0,,,,,,,,,,,,,,,,,,,,,,,,,,,,,,,,,,,,,,,,30,alardio,,,0,1,1.24792,0,24,24,29,1,REAL,FAKE,,,,,,,,,,,,,,,,,,,,,
,,,,,,,5fb41bf3f84c7006ac8e30f2,605b45a4d25f287719a41696,605bf9208ab8c472559f1543,United States,Midwest,13 or older,no,2021-03-24_22h52.26.719,empathy_intonation_perc,2020.2.10,MacIntel,60,,,,,,,,,,1,,,,,,,,,,,,,,,,,,,,,,,,,,,,,,,,,,,,,,,,2,pellizcar,,,0,0,0.764885,0,25,25,1,1,REAL,FAKE,,,,,,,,,,,,,,,,,,,,,
,,,,,,,5fb41bf3f84c7006ac8e30f2,605b45a4d25f287719a41696,605bf9208ab8c472559f1543,United States,Midwest,13 or older,no,2021-03-24_22h52.26.719,empathy_intonation_perc,2020.2.10,MacIntel,60,,,,,,,,,,0,,,,,,,,,,,,,,,,,,,,,,,,,,,,,,,,,,,,,,,,82,empirador,,,1,0,0.656775,0,26,26,81,1,REAL,FAKE,,,,,,,,,,,,,,,,,,,,,
,,,,,,,5fb41bf3f84c7006ac8e30f2,605b45a4d25f287719a41696,605bf9208ab8c472559f1543,United States,Midwest,13 or older,no,2021-03-24_22h52.26.719,empathy_intonation_perc,2020.2.10,MacIntel,60,,,,,,,,,,1,,,,,,,,,,,,,,,,,,,,,,,,,,,,,,,,,,,,,,,,60,matar,,,1,1,0.76635,0,27,27,59,1,REAL,FAKE,,,,,,,,,,,,,,,,,,,,,
,,,,,,,5fb41bf3f84c7006ac8e30f2,605b45a4d25f287719a41696,605bf9208ab8c472559f1543,United States,Midwest,13 or older,no,2021-03-24_22h52.26.719,empathy_intonation_perc,2020.2.10,MacIntel,60,,,,,,,,,,1,,,,,,,,,,,,,,,,,,,,,,,,,,,,,,,,,,,,,,,,6,tergiversar,,,0,0,0.922945,0,28,28,5,1,REAL,FAKE,,,,,,,,,,,,,,,,,,,,,
,,,,,,,5fb41bf3f84c7006ac8e30f2,605b45a4d25f287719a41696,605bf9208ab8c472559f1543,United States,Midwest,13 or older,no,2021-03-24_22h52.26.719,empathy_intonation_perc,2020.2.10,MacIntel,60,,,,,,,,,,1,,,,,,,,,,,,,,,,,,,,,,,,,,,,,,,,,,,,,,,,69,engatusar,,,0,0,1.59296,0,29,29,68,1,REAL,FAKE,,,,,,,,,,,,,,,,,,,,,
,,,,,,,5fb41bf3f84c7006ac8e30f2,605b45a4d25f287719a41696,605bf9208ab8c472559f1543,United States,Midwest,13 or older,no,2021-03-24_22h52.26.719,empathy_intonation_perc,2020.2.10,MacIntel,60,,,,,,,,,,1,,,,,,,,,,,,,,,,,,,,,,,,,,,,,,,,,,,,,,,,89,prisa,,,0,0,1.04817,0,30,30,88,1,REAL,FAKE,,,,,,,,,,,,,,,,,,,,,
,,,,,,,5fb41bf3f84c7006ac8e30f2,605b45a4d25f287719a41696,605bf9208ab8c472559f1543,United States,Midwest,13 or older,no,2021-03-24_22h52.26.719,empathy_intonation_perc,2020.2.10,MacIntel,60,,,,,,,,,,1,,,,,,,,,,,,,,,,,,,,,,,,,,,,,,,,,,,,,,,,76,atar,,,0,0,0.784495,0,31,31,75,1,REAL,FAKE,,,,,,,,,,,,,,,,,,,,,
,,,,,,,5fb41bf3f84c7006ac8e30f2,605b45a4d25f287719a41696,605bf9208ab8c472559f1543,United States,Midwest,13 or older,no,2021-03-24_22h52.26.719,empathy_intonation_perc,2020.2.10,MacIntel,60,,,,,,,,,,1,,,,,,,,,,,,,,,,,,,,,,,,,,,,,,,,,,,,,,,,24,ltigo,,,1,1,0.606515,0,32,32,23,1,REAL,FAKE,,,,,,,,,,,,,,,,,,,,,
,,,,,,,5fb41bf3f84c7006ac8e30f2,605b45a4d25f287719a41696,605bf9208ab8c472559f1543,United States,Midwest,13 or older,no,2021-03-24_22h52.26.719,empathy_intonation_perc,2020.2.10,MacIntel,60,,,,,,,,,,1,,,,,,,,,,,,,,,,,,,,,,,,,,,,,,,,,,,,,,,,88,acantilado,,,1,1,0.981175,0,33,33,87,1,REAL,FAKE,,,,,,,,,,,,,,,,,,,,,
,,,,,,,5fb41bf3f84c7006ac8e30f2,605b45a4d25f287719a41696,605bf9208ab8c472559f1543,United States,Midwest,13 or older,no,2021-03-24_22h52.26.719,empathy_intonation_perc,2020.2.10,MacIntel,60,,,,,,,,,,1,,,,,,,,,,,,,,,,,,,,,,,,,,,,,,,,,,,,,,,,77,tiburn,,,0,0,0.638405,0,34,34,76,1,REAL,FAKE,,,,,,,,,,,,,,,,,,,,,
,,,,,,,5fb41bf3f84c7006ac8e30f2,605b45a4d25f287719a41696,605bf9208ab8c472559f1543,United States,Midwest,13 or older,no,2021-03-24_22h52.26.719,empathy_intonation_perc,2020.2.10,MacIntel,60,,,,,,,,,,1,,,,,,,,,,,,,,,,,,,,,,,,,,,,,,,,,,,,,,,,26,secuestro,,,0,0,0.665585,0,35,35,25,1,REAL,FAKE,,,,,,,,,,,,,,,,,,,,,
,,,,,,,5fb41bf3f84c7006ac8e30f2,605b45a4d25f287719a41696,605bf9208ab8c472559f1543,United States,Midwest,13 or older,no,2021-03-24_22h52.26.719,empathy_intonation_perc,2020.2.10,MacIntel,60,,,,,,,,,,1,,,,,,,,,,,,,,,,,,,,,,,,,,,,,,,,,,,,,,,,68,alegre,,,0,0,0.632375,0,36,36,67,1,REAL,FAKE,,,,,,,,,,,,,,,,,,,,,
,,,,,,,5fb41bf3f84c7006ac8e30f2,605b45a4d25f287719a41696,605bf9208ab8c472559f1543,United States,Midwest,13 or older,no,2021-03-24_22h52.26.719,empathy_intonation_perc,2020.2.10,MacIntel,60,,,,,,,,,,1,,,,,,,,,,,,,,,,,,,,,,,,,,,,,,,,,,,,,,,,90,clavel,,,0,0,0.713095,0,37,37,89,1,REAL,FAKE,,,,,,,,,,,,,,,,,,,,,
,,,,,,,5fb41bf3f84c7006ac8e30f2,605b45a4d25f287719a41696,605bf9208ab8c472559f1543,United States,Midwest,13 or older,no,2021-03-24_22h52.26.719,empathy_intonation_perc,2020.2.10,MacIntel,60,,,,,,,,,,1,,,,,,,,,,,,,,,,,,,,,,,,,,,,,,,,,,,,,,,,71,polvoriento,,,1,1,0.945815,0,38,38,70,1,REAL,FAKE,,,,,,,,,,,,,,,,,,,,,
,,,,,,,5fb41bf3f84c7006ac8e30f2,605b45a4d25f287719a41696,605bf9208ab8c472559f1543,United States,Midwest,13 or older,no,2021-03-24_22h52.26.719,empathy_intonation_perc,2020.2.10,MacIntel,60,,,,,,,,,,1,,,,,,,,,,,,,,,,,,,,,,,,,,,,,,,,,,,,,,,,22,lacayo,,,0,0,0.686875,0,39,39,21,1,REAL,FAKE,,,,,,,,,,,,,,,,,,,,,
,,,,,,,5fb41bf3f84c7006ac8e30f2,605b45a4d25f287719a41696,605bf9208ab8c472559f1543,United States,Midwest,13 or older,no,2021-03-24_22h52.26.719,empathy_intonation_perc,2020.2.10,MacIntel,60,,,,,,,,,,0,,,,,,,,,,,,,,,,,,,,,,,,,,,,,,,,,,,,,,,,17,floroso,,,0,1,0.70062,0,40,40,16,1,REAL,FAKE,,,,,,,,,,,,,,,,,,,,,
,,,,,,,5fb41bf3f84c7006ac8e30f2,605b45a4d25f287719a41696,605bf9208ab8c472559f1543,United States,Midwest,13 or older,no,2021-03-24_22h52.26.719,empathy_intonation_perc,2020.2.10,MacIntel,60,,,,,,,,,,1,,,,,,,,,,,,,,,,,,,,,,,,,,,,,,,,,,,,,,,,40,alfombra,,,0,0,0.68234,0,41,41,39,1,REAL,FAKE,,,,,,,,,,,,,,,,,,,,,
,,,,,,,5fb41bf3f84c7006ac8e30f2,605b45a4d25f287719a41696,605bf9208ab8c472559f1543,United States,Midwest,13 or older,no,2021-03-24_22h52.26.719,empathy_intonation_perc,2020.2.10,MacIntel,60,,,,,,,,,,0,,,,,,,,,,,,,,,,,,,,,,,,,,,,,,,,,,,,,,,,47,cartinar,,,0,1,2.033975,0,42,42,46,1,REAL,FAKE,,,,,,,,,,,,,,,,,,,,,
,,,,,,,5fb41bf3f84c7006ac8e30f2,605b45a4d25f287719a41696,605bf9208ab8c472559f1543,United States,Midwest,13 or older,no,2021-03-24_22h52.26.719,empathy_intonation_perc,2020.2.10,MacIntel,60,,,,,,,,,,0,,,,,,,,,,,,,,,,,,,,,,,,,,,,,,,,,,,,,,,,18,arsa,,,1,0,0.58064,0,43,43,17,1,REAL,FAKE,,,,,,,,,,,,,,,,,,,,,
,,,,,,,5fb41bf3f84c7006ac8e30f2,605b45a4d25f287719a41696,605bf9208ab8c472559f1543,United States,Midwest,13 or older,no,2021-03-24_22h52.26.719,empathy_intonation_perc,2020.2.10,MacIntel,60,,,,,,,,,,1,,,,,,,,,,,,,,,,,,,,,,,,,,,,,,,,,,,,,,,,13,helar,,,1,1,1.13819,0,44,44,12,1,REAL,FAKE,,,,,,,,,,,,,,,,,,,,,
,,,,,,,5fb41bf3f84c7006ac8e30f2,605b45a4d25f287719a41696,605bf9208ab8c472559f1543,United States,Midwest,13 or older,no,2021-03-24_22h52.26.719,empathy_intonation_perc,2020.2.10,MacIntel,60,,,,,,,,,,0,,,,,,,,,,,,,,,,,,,,,,,,,,,,,,,,,,,,,,,,42,cadallo,,,1,0,0.84959,0,45,45,41,1,REAL,FAKE,,,,,,,,,,,,,,,,,,,,,
,,,,,,,5fb41bf3f84c7006ac8e30f2,605b45a4d25f287719a41696,605bf9208ab8c472559f1543,United States,Midwest,13 or older,no,2021-03-24_22h52.26.719,empathy_intonation_perc,2020.2.10,MacIntel,60,,,,,,,,,,1,,,,,,,,,,,,,,,,,,,,,,,,,,,,,,,,,,,,,,,,85,lad,,,0,0,0.606245,0,46,46,84,1,REAL,FAKE,,,,,,,,,,,,,,,,,,,,,
,,,,,,,5fb41bf3f84c7006ac8e30f2,605b45a4d25f287719a41696,605bf9208ab8c472559f1543,United States,Midwest,13 or older,no,2021-03-24_22h52.26.719,empathy_intonation_perc,2020.2.10,MacIntel,60,,,,,,,,,,0,,,,,,,,,,,,,,,,,,,,,,,,,,,,,,,,,,,,,,,,19,brecedad,,,0,1,0.62927,0,47,47,18,1,REAL,FAKE,,,,,,,,,,,,,,,,,,,,,
,,,,,,,5fb41bf3f84c7006ac8e30f2,605b45a4d25f287719a41696,605bf9208ab8c472559f1543,United States,Midwest,13 or older,no,2021-03-24_22h52.26.719,empathy_intonation_perc,2020.2.10,MacIntel,60,,,,,,,,,,0,,,,,,,,,,,,,,,,,,,,,,,,,,,,,,,,,,,,,,,,72,pemicin,,,1,0,0.78439,0,48,48,71,1,REAL,FAKE,,,,,,,,,,,,,,,,,,,,,
,,,,,,,5fb41bf3f84c7006ac8e30f2,605b45a4d25f287719a41696,605bf9208ab8c472559f1543,United States,Midwest,13 or older,no,2021-03-24_22h52.26.719,empathy_intonation_perc,2020.2.10,MacIntel,60,,,,,,,,,,1,,,,,,,,,,,,,,,,,,,,,,,,,,,,,,,,,,,,,,,,12,asesinato,,,0,0,0.74812,0,49,49,11,1,REAL,FAKE,,,,,,,,,,,,,,,,,,,,,
,,,,,,,5fb41bf3f84c7006ac8e30f2,605b45a4d25f287719a41696,605bf9208ab8c472559f1543,United States,Midwest,13 or older,no,2021-03-24_22h52.26.719,empathy_intonation_perc,2020.2.10,MacIntel,60,,,,,,,,,,0,,,,,,,,,,,,,,,,,,,,,,,,,,,,,,,,,,,,,,,,63,esposante,,,1,0,0.74911,0,50,50,62,1,REAL,FAKE,,,,,,,,,,,,,,,,,,,,,
,,,,,,,5fb41bf3f84c7006ac8e30f2,605b45a4d25f287719a41696,605bf9208ab8c472559f1543,United States,Midwest,13 or older,no,2021-03-24_22h52.26.719,empathy_intonation_perc,2020.2.10,MacIntel,60,,,,,,,,,,1,,,,,,,,,,,,,,,,,,,,,,,,,,,,,,,,,,,,,,,,86,barato,,,1,1,0.69823,0,51,51,85,1,REAL,FAKE,,,,,,,,,,,,,,,,,,,,,
,,,,,,,5fb41bf3f84c7006ac8e30f2,605b45a4d25f287719a41696,605bf9208ab8c472559f1543,United States,Midwest,13 or older,no,2021-03-24_22h52.26.719,empathy_intonation_perc,2020.2.10,MacIntel,60,,,,,,,,,,1,,,,,,,,,,,,,,,,,,,,,,,,,,,,,,,,,,,,,,,,57,tacao,,,1,1,0.728485,0,52,52,56,1,REAL,FAKE,,,,,,,,,,,,,,,,,,,,,
,,,,,,,5fb41bf3f84c7006ac8e30f2,605b45a4d25f287719a41696,605bf9208ab8c472559f1543,United States,Midwest,13 or older,no,2021-03-24_22h52.26.719,empathy_intonation_perc,2020.2.10,MacIntel,60,,,,,,,,,,1,,,,,,,,,,,,,,,,,,,,,,,,,,,,,,,,,,,,,,,,36,loro,,,0,0,1.04887,0,53,53,35,1,REAL,FAKE,,,,,,,,,,,,,,,,,,,,,
,,,,,,,5fb41bf3f84c7006ac8e30f2,605b45a4d25f287719a41696,605bf9208ab8c472559f1543,United States,Midwest,13 or older,no,2021-03-24_22h52.26.719,empathy_intonation_perc,2020.2.10,MacIntel,60,,,,,,,,,,0,,,,,,,,,,,,,,,,,,,,,,,,,,,,,,,,,,,,,,,,1,terzo,,,1,0,0.631985,0,54,54,0,1,REAL,FAKE,,,,,,,,,,,,,,,,,,,,,
,,,,,,,5fb41bf3f84c7006ac8e30f2,605b45a4d25f287719a41696,605bf9208ab8c472559f1543,United States,Midwest,13 or older,no,2021-03-24_22h52.26.719,empathy_intonation_perc,2020.2.10,MacIntel,60,,,,,,,,,,0,,,,,,,,,,,,,,,,,,,,,,,,,,,,,,,,,,,,,,,,58,plaudir,,,1,0,0.704335,0,55,55,57,1,REAL,FAKE,,,,,,,,,,,,,,,,,,,,,
,,,,,,,5fb41bf3f84c7006ac8e30f2,605b45a4d25f287719a41696,605bf9208ab8c472559f1543,United States,Midwest,13 or older,no,2021-03-24_22h52.26.719,empathy_intonation_perc,2020.2.10,MacIntel,60,,,,,,,,,,0,,,,,,,,,,,,,,,,,,,,,,,,,,,,,,,,,,,,,,,,84,escuto,,,1,0,1.23073,0,56,56,83,1,REAL,FAKE,,,,,,,,,,,,,,,,,,,,,
,,,,,,,5fb41bf3f84c7006ac8e30f2,605b45a4d25f287719a41696,605bf9208ab8c472559f1543,United States,Midwest,13 or older,no,2021-03-24_22h52.26.719,empathy_intonation_perc,2020.2.10,MacIntel,60,,,,,,,,,,1,,,,,,,,,,,,,,,,,,,,,,,,,,,,,,,,,,,,,,,,34,aviso,,,0,0,0.6169,0,57,57,33,1,REAL,FAKE,,,,,,,,,,,,,,,,,,,,,
,,,,,,,5fb41bf3f84c7006ac8e30f2,605b45a4d25f287719a41696,605bf9208ab8c472559f1543,United States,Midwest,13 or older,no,2021-03-24_22h52.26.719,empathy_intonation_perc,2020.2.10,MacIntel,60,,,,,,,,,,1,,,,,,,,,,,,,,,,,,,,,,,,,,,,,,,,,,,,,,,,62,flaco,,,0,0,0.366,0,58,58,61,1,REAL,FAKE,,,,,,,,,,,,,,,,,,,,,
,,,,,,,5fb41bf3f84c7006ac8e30f2,605b45a4d25f287719a41696,605bf9208ab8c472559f1543,United States,Midwest,13 or older,no,2021-03-24_22h52.26.719,empathy_intonation_perc,2020.2.10,MacIntel,60,,,,,,,,,,1,,,,,,,,,,,,,,,,,,,,,,,,,,,,,,,,,,,,,,,,54,fomentar,,,1,1,0.79084,0,59,59,53,1,REAL,FAKE,,,,,,,,,,,,,,,,,,,,,
,,,,,,,5fb41bf3f84c7006ac8e30f2,605b45a4d25f287719a41696,605bf9208ab8c472559f1543,United States,Midwest,13 or older,no,2021-03-24_22h52.26.719,empathy_intonation_perc,2020.2.10,MacIntel,60,,,,,,,,,,1,,,,,,,,,,,,,,,,,,,,,,,,,,,,,,,,,,,,,,,,51,candado,,,1,1,0.721685,0,60,60,50,1,REAL,FAKE,,,,,,,,,,,,,,,,,,,,,
,,,,,,,5fb41bf3f84c7006ac8e30f2,605b45a4d25f287719a41696,605bf9208ab8c472559f1543,United States,Midwest,13 or older,no,2021-03-24_22h52.26.719,empathy_intonation_perc,2020.2.10,MacIntel,60,,,,,,,,,,1,,,,,,,,,,,,,,,,,,,,,,,,,,,,,,,,,,,,,,,,80,hormiga,,,0,0,0.47318,0,61,61,79,1,REAL,FAKE,,,,,,,,,,,,,,,,,,,,,
,,,,,,,5fb41bf3f84c7006ac8e30f2,605b45a4d25f287719a41696,605bf9208ab8c472559f1543,United States,Midwest,13 or older,no,2021-03-24_22h52.26.719,empathy_intonation_perc,2020.2.10,MacIntel,60,,,,,,,,,,0,,,,,,,,,,,,,,,,,,,,,,,,,,,,,,,,,,,,,,,,27,acutacin,,,0,1,0.547805,0,62,62,26,1,REAL,FAKE,,,,,,,,,,,,,,,,,,,,,
,,,,,,,5fb41bf3f84c7006ac8e30f2,605b45a4d25f287719a41696,605bf9208ab8c472559f1543,United States,Midwest,13 or older,no,2021-03-24_22h52.26.719,empathy_intonation_perc,2020.2.10,MacIntel,60,,,,,,,,,,1,,,,,,,,,,,,,,,,,,,,,,,,,,,,,,,,,,,,,,,,83,guante,,,0,0,0.58011,0,63,63,82,1,REAL,FAKE,,,,,,,,,,,,,,,,,,,,,
,,,,,,,5fb41bf3f84c7006ac8e30f2,605b45a4d25f287719a41696,605bf9208ab8c472559f1543,United States,Midwest,13 or older,no,2021-03-24_22h52.26.719,empathy_intonation_perc,2020.2.10,MacIntel,60,,,,,,,,,,0,,,,,,,,,,,,,,,,,,,,,,,,,,,,,,,,,,,,,,,,74,cintro,,,0,1,0.601975,0,64,64,73,1,REAL,FAKE,,,,,,,,,,,,,,,,,,,,,
,,,,,,,5fb41bf3f84c7006ac8e30f2,605b45a4d25f287719a41696,605bf9208ab8c472559f1543,United States,Midwest,13 or older,no,2021-03-24_22h52.26.719,empathy_intonation_perc,2020.2.10,MacIntel,60,,,,,,,,,,1,,,,,,,,,,,,,,,,,,,,,,,,,,,,,,,,,,,,,,,,28,merodear,,,0,0,0.75046,0,65,65,27,1,REAL,FAKE,,,,,,,,,,,,,,,,,,,,,
,,,,,,,5fb41bf3f84c7006ac8e30f2,605b45a4d25f287719a41696,605bf9208ab8c472559f1543,United States,Midwest,13 or older,no,2021-03-24_22h52.26.719,empathy_intonation_perc,2020.2.10,MacIntel,60,,,,,,,,,,1,,,,,,,,,,,,,,,,,,,,,,,,,,,,,,,,,,,,,,,,39,torpe,,,1,1,0.49553,0,66,66,38,1,REAL,FAKE,,,,,,,,,,,,,,,,,,,,,
,,,,,,,5fb41bf3f84c7006ac8e30f2,605b45a4d25f287719a41696,605bf9208ab8c472559f1543,United States,Midwest,13 or older,no,2021-03-24_22h52.26.719,empathy_intonation_perc,2020.2.10,MacIntel,60,,,,,,,,,,1,,,,,,,,,,,,,,,,,,,,,,,,,,,,,,,,,,,,,,,,41,rebuscar,,,0,0,0.485235,0,67,67,40,1,REAL,FAKE,,,,,,,,,,,,,,,,,,,,,
,,,,,,,5fb41bf3f84c7006ac8e30f2,605b45a4d25f287719a41696,605bf9208ab8c472559f1543,United States,Midwest,13 or older,no,2021-03-24_22h52.26.719,empathy_intonation_perc,2020.2.10,MacIntel,60,,,,,,,,,,1,,,,,,,,,,,,,,,,,,,,,,,,,,,,,,,,,,,,,,,,31,pandilla,,,0,0,0.47417,0,68,68,30,1,REAL,FAKE,,,,,,,,,,,,,,,,,,,,,
,,,,,,,5fb41bf3f84c7006ac8e30f2,605b45a4d25f287719a41696,605bf9208ab8c472559f1543,United States,Midwest,13 or older,no,2021-03-24_22h52.26.719,empathy_intonation_perc,2020.2.10,MacIntel,60,,,,,,,,,,1,,,,,,,,,,,,,,,,,,,,,,,,,,,,,,,,,,,,,,,,52,camisa,,,0,0,0.723305,0,69,69,51,1,REAL,FAKE,,,,,,,,,,,,,,,,,,,,,
,,,,,,,5fb41bf3f84c7006ac8e30f2,605b45a4d25f287719a41696,605bf9208ab8c472559f1543,United States,Midwest,13 or older,no,2021-03-24_22h52.26.719,empathy_intonation_perc,2020.2.10,MacIntel,60,,,,,,,,,,1,,,,,,,,,,,,,,,,,,,,,,,,,,,,,,,,,,,,,,,,15,regar,,,1,1,0.479855,0,70,70,14,1,REAL,FAKE,,,,,,,,,,,,,,,,,,,,,
,,,,,,,5fb41bf3f84c7006ac8e30f2,605b45a4d25f287719a41696,605bf9208ab8c472559f1543,United States,Midwest,13 or older,no,2021-03-24_22h52.26.719,empathy_intonation_perc,2020.2.10,MacIntel,60,,,,,,,,,,0,,,,,,,,,,,,,,,,,,,,,,,,,,,,,,,,,,,,,,,,8,cadea,,,0,1,0.39989,0,71,71,7,1,REAL,FAKE,,,,,,,,,,,,,,,,,,,,,
,,,,,,,5fb41bf3f84c7006ac8e30f2,605b45a4d25f287719a41696,605bf9208ab8c472559f1543,United States,Midwest,13 or older,no,2021-03-24_22h52.26.719,empathy_intonation_perc,2020.2.10,MacIntel,60,,,,,,,,,,1,,,,,,,,,,,,,,,,,,,,,,,,,,,,,,,,,,,,,,,,65,bizcocho,,,0,0,0.586545,0,72,72,64,1,REAL,FAKE,,,,,,,,,,,,,,,,,,,,,
,,,,,,,5fb41bf3f84c7006ac8e30f2,605b45a4d25f287719a41696,605bf9208ab8c472559f1543,United States,Midwest,13 or older,no,2021-03-24_22h52.26.719,empathy_intonation_perc,2020.2.10,MacIntel,60,,,,,,,,,,1,,,,,,,,,,,,,,,,,,,,,,,,,,,,,,,,,,,,,,,,67,cabello,,,0,0,1.049855,0,73,73,66,1,REAL,FAKE,,,,,,,,,,,,,,,,,,,,,
,,,,,,,5fb41bf3f84c7006ac8e30f2,605b45a4d25f287719a41696,605bf9208ab8c472559f1543,United States,Midwest,13 or older,no,2021-03-24_22h52.26.719,empathy_intonation_perc,2020.2.10,MacIntel,60,,,,,,,,,,0,,,,,,,,,,,,,,,,,,,,,,,,,,,,,,,,,,,,,,,,50,flamida,,,1,0,0.798415,0,74,74,49,1,REAL,FAKE,,,,,,,,,,,,,,,,,,,,,
,,,,,,,5fb41bf3f84c7006ac8e30f2,605b45a4d25f287719a41696,605bf9208ab8c472559f1543,United States,Midwest,13 or older,no,2021-03-24_22h52.26.719,empathy_intonation_perc,2020.2.10,MacIntel,60,,,,,,,,,,1,,,,,,,,,,,,,,,,,,,,,,,,,,,,,,,,,,,,,,,,49,ganar,,,1,1,1.04448,0,75,75,48,1,REAL,FAKE,,,,,,,,,,,,,,,,,,,,,
,,,,,,,5fb41bf3f84c7006ac8e30f2,605b45a4d25f287719a41696,605bf9208ab8c472559f1543,United States,Midwest,13 or older,no,2021-03-24_22h52.26.719,empathy_intonation_perc,2020.2.10,MacIntel,60,,,,,,,,,,0,,,,,,,,,,,,,,,,,,,,,,,,,,,,,,,,,,,,,,,,21,capillo,,,0,1,0.65244,0,76,76,20,1,REAL,FAKE,,,,,,,,,,,,,,,,,,,,,
,,,,,,,5fb41bf3f84c7006ac8e30f2,605b45a4d25f287719a41696,605bf9208ab8c472559f1543,United States,Midwest,13 or older,no,2021-03-24_22h52.26.719,empathy_intonation_perc,2020.2.10,MacIntel,60,,,,,,,,,,0,,,,,,,,,,,,,,,,,,,,,,,,,,,,,,,,,,,,,,,,35,rompido,,,0,1,0.628825,0,77,77,34,1,REAL,FAKE,,,,,,,,,,,,,,,,,,,,,
,,,,,,,5fb41bf3f84c7006ac8e30f2,605b45a4d25f287719a41696,605bf9208ab8c472559f1543,United States,Midwest,13 or older,no,2021-03-24_22h52.26.719,empathy_intonation_perc,2020.2.10,MacIntel,60,,,,,,,,,,1,,,,,,,,,,,,,,,,,,,,,,,,,,,,,,,,,,,,,,,,73,hervidor,,,1,1,0.534925,0,78,78,72,1,REAL,FAKE,,,,,,,,,,,,,,,,,,,,,
,,,,,,,5fb41bf3f84c7006ac8e30f2,605b45a4d25f287719a41696,605bf9208ab8c472559f1543,United States,Midwest,13 or older,no,2021-03-24_22h52.26.719,empathy_intonation_perc,2020.2.10,MacIntel,60,,,,,,,,,,1,,,,,,,,,,,,,,,,,,,,,,,,,,,,,,,,,,,,,,,,78,frondoso,,,0,0,0.607795,0,79,79,77,1,REAL,FAKE,,,,,,,,,,,,,,,,,,,,,
,,,,,,,5fb41bf3f84c7006ac8e30f2,605b45a4d25f287719a41696,605bf9208ab8c472559f1543,United States,Midwest,13 or older,no,2021-03-24_22h52.26.719,empathy_intonation_perc,2020.2.10,MacIntel,60,,,,,,,,,,1,,,,,,,,,,,,,,,,,,,,,,,,,,,,,,,,,,,,,,,,55,nevar,,,0,0,0.57354,0,80,80,54,1,REAL,FAKE,,,,,,,,,,,,,,,,,,,,,
,,,,,,,5fb41bf3f84c7006ac8e30f2,605b45a4d25f287719a41696,605bf9208ab8c472559f1543,United States,Midwest,13 or older,no,2021-03-24_22h52.26.719,empathy_intonation_perc,2020.2.10,MacIntel,60,,,,,,,,,,1,,,,,,,,,,,,,,,,,,,,,,,,,,,,,,,,,,,,,,,,81,pozo,,,0,0,0.896685,0,81,81,80,1,REAL,FAKE,,,,,,,,,,,,,,,,,,,,,
,,,,,,,5fb41bf3f84c7006ac8e30f2,605b45a4d25f287719a41696,605bf9208ab8c472559f1543,United States,Midwest,13 or older,no,2021-03-24_22h52.26.719,empathy_intonation_perc,2020.2.10,MacIntel,60,,,,,,,,,,1,,,,,,,,,,,,,,,,,,,,,,,,,,,,,,,,,,,,,,,,9,hacha,,,1,1,0.85014,0,82,82,8,1,REAL,FAKE,,,,,,,,,,,,,,,,,,,,,
,,,,,,,5fb41bf3f84c7006ac8e30f2,605b45a4d25f287719a41696,605bf9208ab8c472559f1543,United States,Midwest,13 or older,no,2021-03-24_22h52.26.719,empathy_intonation_perc,2020.2.10,MacIntel,60,,,,,,,,,,1,,,,,,,,,,,,,,,,,,,,,,,,,,,,,,,,,,,,,,,,11,cenefa,,,1,1,0.617375,0,83,83,10,1,REAL,FAKE,,,,,,,,,,,,,,,,,,,,,
,,,,,,,5fb41bf3f84c7006ac8e30f2,605b45a4d25f287719a41696,605bf9208ab8c472559f1543,United States,Midwest,13 or older,no,2021-03-24_22h52.26.719,empathy_intonation_perc,2020.2.10,MacIntel,60,,,,,,,,,,1,,,,,,,,,,,,,,,,,,,,,,,,,,,,,,,,,,,,,,,,61,seda,,,1,1,0.771445,0,84,84,60,1,REAL,FAKE,,,,,,,,,,,,,,,,,,,,,
,,,,,,,5fb41bf3f84c7006ac8e30f2,605b45a4d25f287719a41696,605bf9208ab8c472559f1543,United States,Midwest,13 or older,no,2021-03-24_22h52.26.719,empathy_intonation_perc,2020.2.10,MacIntel,60,,,,,,,,,,1,,,,,,,,,,,,,,,,,,,,,,,,,,,,,,,,,,,,,,,,43,canela,,,0,0,0.63255,0,85,85,42,1,REAL,FAKE,,,,,,,,,,,,,,,,,,,,,
,,,,,,,5fb41bf3f84c7006ac8e30f2,605b45a4d25f287719a41696,605bf9208ab8c472559f1543,United States,Midwest,13 or older,no,2021-03-24_22h52.26.719,empathy_intonation_perc,2020.2.10,MacIntel,60,,,,,,,,,,0,,,,,,,,,,,,,,,,,,,,,,,,,,,,,,,,,,,,,,,,29,decar,,,0,1,0.482005,0,86,86,28,1,REAL,FAKE,,,,,,,,,,,,,,,,,,,,,
,,,,,,,5fb41bf3f84c7006ac8e30f2,605b45a4d25f287719a41696,605bf9208ab8c472559f1543,United States,Midwest,13 or older,no,2021-03-24_22h52.26.719,empathy_intonation_perc,2020.2.10,MacIntel,60,,,,,,,,,,1,,,,,,,,,,,,,,,,,,,,,,,,,,,,,,,,,,,,,,,,56,musgo,,,0,0,0.94928,0,87,87,55,1,REAL,FAKE,,,,,,,,,,,,,,,,,,,,,
,,,,,,,5fb41bf3f84c7006ac8e30f2,605b45a4d25f287719a41696,605bf9208ab8c472559f1543,United States,Midwest,13 or older,no,2021-03-24_22h52.26.719,empathy_intonation_perc,2020.2.10,MacIntel,60,,,,,,,,,,1,,,,,,,,,,,,,,,,,,,,,,,,,,,,,,,,,,,,,,,,7,psimo,,,1,1,0.83202,0,88,88,6,1,REAL,FAKE,,,,,,,,,,,,,,,,,,,,,
,,,,,,,5fb41bf3f84c7006ac8e30f2,605b45a4d25f287719a41696,605bf9208ab8c472559f1543,United States,Midwest,13 or older,no,2021-03-24_22h52.26.719,empathy_intonation_perc,2020.2.10,MacIntel,60,,,,,,,,,,0,,,,,,,,,,,,,,,,,,,,,,,,,,,,,,,,,,,,,,,,53,vegada,,,1,0,0.898235,0,89,89,52,1,REAL,FAKE,,,,,,,,,,,,,,,,,,,,,
,,,,,,,5fb41bf3f84c7006ac8e30f2,605b45a4d25f287719a41696,605bf9208ab8c472559f1543,United States,Midwest,13 or older,no,2021-03-24_22h52.26.719,empathy_intonation_perc,2020.2.10,MacIntel,60,,,,,,,,,,,,,,,,,,,,,,,,,,,,,,,,,,,,,,,,,,,,,,,,,,,,,,,,,,,,,,,,4,1,3.290225,1,0,0,0,0,0,1,,,,,,,,,,,
,,,,,,,5fb41bf3f84c7006ac8e30f2,605b45a4d25f287719a41696,605bf9208ab8c472559f1543,United States,Midwest,13 or older,no,2021-03-24_22h52.26.719,empathy_intonation_perc,2020.2.10,MacIntel,60,,,,,,,,,,,,,,,,,,,,1,,,,,,,,,,,,,,,,,,,,,,,,,,,,,,,,,,,,,,,,,,,,,,,,,,,,,,2,0,0,0,0,1,I can easily tell if someone else wants to enter a conversation.,1,0,1,0
,,,,,,,5fb41bf3f84c7006ac8e30f2,605b45a4d25f287719a41696,605bf9208ab8c472559f1543,United States,Midwest,13 or older,no,2021-03-24_22h52.26.719,empathy_intonation_perc,2020.2.10,MacIntel,60,,,,,,,,,,,,,,,,,,,,2,,,,,,,,,,,,,,,,,,,,,,,,,,,,,,,,,,,,,,,,,,,,,,,,,,,,,,3,0,1,1,1,1,I prefer animals to humans.,0,1,0,0
,,,,,,,5fb41bf3f84c7006ac8e30f2,605b45a4d25f287719a41696,605bf9208ab8c472559f1543,United States,Midwest,13 or older,no,2021-03-24_22h52.26.719,empathy_intonation_perc,2020.2.10,MacIntel,60,,,,,,,,,,,,,,,,,,,,3,,,,,,,,,,,,,,,,,,,,,,,,,,,,,,,,,,,,,,,,,,,,,,,,,,,,,,2,0,2,2,2,1,I try to keep up with the current trends and fashions.,0,1,0,0
