instructions_2afc_loop.thisRepN,instructions_2afc_loop.thisTrialN,instructions_2afc_loop.thisN,instructions_2afc_loop.thisIndex,instructions_2afc_loop.ran,instructions_text,continue_text,participant,study_id,session,I am most familiar with Spanish from...*,What part of the US are you from?*,At what age did you begin learning Spanish?*,Are you proficient in any languages other than English/Spanish?*,date,expName,psychopyVersion,OS,frameRate,key_resp_2afc_practice.keys,key_resp_2afc_practice.corr,key_resp_2afc_practice.rt,trials_2afc_practice_loop.thisRepN,trials_2afc_practice_loop.thisTrialN,trials_2afc_practice_loop.thisN,trials_2afc_practice_loop.thisIndex,trials_2afc_practice_loop.ran,path,correct_response,the_col,key_resp_2afc_trial.keys,key_resp_2afc_trial.corr,key_resp_2afc_trial.rt,trials_2afc_loop.thisRepN,trials_2afc_loop.thisTrialN,trials_2afc_loop.thisN,trials_2afc_loop.thisIndex,trials_2afc_loop.ran,item_num,andalusian,argentine,castilian,chilean,cuban,mexican,peruvian,puertorican,key_resp_ac1.keys,key_resp_ac1.corr,key_resp_ac1.rt,ac1_loop.thisRepN,ac1_loop.thisTrialN,ac1_loop.thisN,ac1_loop.thisIndex,ac1_loop.ran,instructions_lextale_loop.thisRepN,instructions_lextale_loop.thisTrialN,instructions_lextale_loop.thisN,instructions_lextale_loop.thisIndex,instructions_lextale_loop.ran,key_resp_lextale_practice.keys,key_resp_lextale_practice.corr,key_resp_lextale_practice.rt,trials_lextale_practice_loop.thisRepN,trials_lextale_practice_loop.thisTrialN,trials_lextale_practice_loop.thisN,trials_lextale_practice_loop.thisIndex,trials_lextale_practice_loop.ran,stim,word,prac_button_real,prac_button_false,key_resp_lextale_trial.keys,key_resp_lextale_trial.corr,key_resp_lextale_trial.rt,trials_lextale_loop.thisRepN,trials_lextale_loop.thisTrialN,trials_lextale_loop.thisN,trials_lextale_loop.thisIndex,trials_lextale_loop.ran,button_real,button_false,key_resp_ac2.keys,key_resp_ac2.corr,key_resp_ac2.rt,check_pass,check_fails,ac2_loop.thisRepN,ac2_loop.thisTrialN,ac2_loop.thisN,ac2_loop.thisIndex,ac2_loop.ran,slider_eq_trial.response,trials_eq_loop.thisRepN,trials_eq_loop.thisTrialN,trials_eq_loop.thisN,trials_eq_loop.thisIndex,trials_eq_loop.ran,item,is_test_item,is_distractor,is_agree_score,is_disagree_score
0,0,0,0,1,"In the following task you are going to hear a series of utterances. 

  You will decide if the utterances sound like questions or not using your keyboard.",(press the spacebar to continue),5fb596ff69ed590fff92ba8f,605b45a4d25f287719a41696,605cfb896d58ea1f5b7767b4,United States,Midwest,13 or older,no,2021-03-25_17h12.06.385,empathy_intonation_perc,2020.2.10,MacIntel,60,,,,,,,,,,,,,,,,,,,,,,,,,,,,,,,,,,,,,,,,,,,,,,,,,,,,,,,,,,,,,,,,,,,,,,,,,,,,,,,,,,,,
0,1,1,1,1,"If you believe the utterance is a question, type '1' (for 'yes') and if you do not 
  believe it is a question type '0' (for 'no').

  Let's practice a bit...",(press the spacebar to continue),5fb596ff69ed590fff92ba8f,605b45a4d25f287719a41696,605cfb896d58ea1f5b7767b4,United States,Midwest,13 or older,no,2021-03-25_17h12.06.385,empathy_intonation_perc,2020.2.10,MacIntel,60,,,,,,,,,,,,,,,,,,,,,,,,,,,,,,,,,,,,,,,,,,,,,,,,,,,,,,,,,,,,,,,,,,,,,,,,,,,,,,,,,,,,
,,,,,,,5fb596ff69ed590fff92ba8f,605b45a4d25f287719a41696,605cfb896d58ea1f5b7767b4,United States,Midwest,13 or older,no,2021-03-25_17h12.06.385,empathy_intonation_perc,2020.2.10,MacIntel,60,0,1,8.573,0,0,0,7,1,./stim/wavs/puertorican_statement_filler_La-nina-pinta-con-su-amiga.wav,0,,,,,,,,,,,,,,,,,,,,,,,,,,,,,,,,,,,,,,,,,,,,,,,,,,,,,,,,,,,,,,,,,,,,,,,,,,
,,,,,,,5fb596ff69ed590fff92ba8f,605b45a4d25f287719a41696,605cfb896d58ea1f5b7767b4,United States,Midwest,13 or older,no,2021-03-25_17h12.06.385,empathy_intonation_perc,2020.2.10,MacIntel,60,0,0,2.53,0,1,1,2,1,./stim/wavs/chilean_question_filler_Mi-padre-cantaba-bien.wav,1,,,,,,,,,,,,,,,,,,,,,,,,,,,,,,,,,,,,,,,,,,,,,,,,,,,,,,,,,,,,,,,,,,,,,,,,,,
,,,,,,,5fb596ff69ed590fff92ba8f,605b45a4d25f287719a41696,605cfb896d58ea1f5b7767b4,United States,Midwest,13 or older,no,2021-03-25_17h12.06.385,empathy_intonation_perc,2020.2.10,MacIntel,60,0,1,2.567,0,2,2,6,1,./stim/wavs/peruvian_statement_filler_El-nino-habla-con-su-madre.wav,0,,,,,,,,,,,,,,,,,,,,,,,,,,,,,,,,,,,,,,,,,,,,,,,,,,,,,,,,,,,,,,,,,,,,,,,,,,
,,,,,,,5fb596ff69ed590fff92ba8f,605b45a4d25f287719a41696,605cfb896d58ea1f5b7767b4,United States,Midwest,13 or older,no,2021-03-25_17h12.06.385,empathy_intonation_perc,2020.2.10,MacIntel,60,0,1,2.267,0,3,3,5,1,./stim/wavs/andalusian_statement_filler_Alberto-nunca-se-afeita.wav,0,,,,,,,,,,,,,,,,,,,,,,,,,,,,,,,,,,,,,,,,,,,,,,,,,,,,,,,,,,,,,,,,,,,,,,,,,,
,,,,,,,5fb596ff69ed590fff92ba8f,605b45a4d25f287719a41696,605cfb896d58ea1f5b7767b4,United States,Midwest,13 or older,no,2021-03-25_17h12.06.385,empathy_intonation_perc,2020.2.10,MacIntel,60,0,1,2.247,0,4,4,4,1,./stim/wavs/cuban_statement_filler_Cocinabas-por-la-noche.wav,0,,,,,,,,,,,,,,,,,,,,,,,,,,,,,,,,,,,,,,,,,,,,,,,,,,,,,,,,,,,,,,,,,,,,,,,,,,
,,,,,,,5fb596ff69ed590fff92ba8f,605b45a4d25f287719a41696,605cfb896d58ea1f5b7767b4,United States,Midwest,13 or older,no,2021-03-25_17h12.06.385,empathy_intonation_perc,2020.2.10,MacIntel,60,1,1,2.151,0,5,5,3,1,./stim/wavs/mexican_question_filler_Felipe-no-tiene-contrasena.wav,1,,,,,,,,,,,,,,,,,,,,,,,,,,,,,,,,,,,,,,,,,,,,,,,,,,,,,,,,,,,,,,,,,,,,,,,,,,
,,,,,,,5fb596ff69ed590fff92ba8f,605b45a4d25f287719a41696,605cfb896d58ea1f5b7767b4,United States,Midwest,13 or older,no,2021-03-25_17h12.06.385,empathy_intonation_perc,2020.2.10,MacIntel,60,1,1,1.933,0,6,6,1,1,./stim/wavs/argentine_question_filler_Mi-vecino-habla-mucho.wav,1,,,,,,,,,,,,,,,,,,,,,,,,,,,,,,,,,,,,,,,,,,,,,,,,,,,,,,,,,,,,,,,,,,,,,,,,,,
,,,,,,,5fb596ff69ed590fff92ba8f,605b45a4d25f287719a41696,605cfb896d58ea1f5b7767b4,United States,Midwest,13 or older,no,2021-03-25_17h12.06.385,empathy_intonation_perc,2020.2.10,MacIntel,60,1,1,2.198,0,7,7,0,1,./stim/wavs/castilian_question_filler_Mi-esposo-conoce-al-chico.wav,1,,,,,,,,,,,,,,,,,,,,,,,,,,,,,,,,,,,,,,,,,,,,,,,,,,,,,,,,,,,,,,,,,,,,,,,,,,
,,,,,,,5fb596ff69ed590fff92ba8f,605b45a4d25f287719a41696,605cfb896d58ea1f5b7767b4,United States,Midwest,13 or older,no,2021-03-25_17h12.06.385,empathy_intonation_perc,2020.2.10,MacIntel,60,,,,,,,,,,1,argentine,0,0,2.311,0,0,0,27,1,28,./stim/wavs/andalusian_match_interrogative-total-yn_Emilio-ama-la-marcha.wav,./stim/wavs/argentine_match_interrogative-total-yn_Emilio-ama-la-marcha.wav,./stim/wavs/castilian_match_interrogative-total-yn_Emilio-ama-la-marcha.wav,./stim/wavs/chilean_match_interrogative-total-yn_Emilio-ama-la-marcha.wav,./stim/wavs/cuban_match_interrogative-total-yn_Emilio-ama-la-marcha.wav,./stim/wavs/mexican_match_interrogative-total-yn_Emilio-ama-la-marcha.wav,./stim/wavs/peruvian_match_interrogative-total-yn_Emilio-ama-la-marcha.wav,./stim/wavs/puertorican_match_interrogative-total-yn_Emilio-ama-la-marcha.wav,,,,,,,,,,,,,,,,,,,,,,,,,,,,,,,,,,,,,,,,,,,,,,,,,,,,,,,,
,,,,,,,5fb596ff69ed590fff92ba8f,605b45a4d25f287719a41696,605cfb896d58ea1f5b7767b4,United States,Midwest,13 or older,no,2021-03-25_17h12.06.385,empathy_intonation_perc,2020.2.10,MacIntel,60,,,,,,,,,,0,peruvian,0,1,2.114,0,1,1,40,1,41,./stim/wavs/andalusian_mismatch_declarative-narrow-focus_El-bebe-comia-muy-bien.wav,./stim/wavs/argentine_mismatch_declarative-narrow-focus_El-bebe-comia-muy-bien.wav,./stim/wavs/castilian_mismatch_declarative-narrow-focus_El-bebe-comia-muy-bien.wav,./stim/wavs/chilean_mismatch_declarative-narrow-focus_El-bebe-comia-muy-bien.wav,./stim/wavs/cuban_mismatch_declarative-narrow-focus_El-bebe-comia-muy-bien.wav,./stim/wavs/mexican_mismatch_declarative-narrow-focus_El-bebe-comia-muy-bien.wav,./stim/wavs/peruvian_mismatch_declarative-narrow-focus_El-bebe-comia-muy-bien.wav,./stim/wavs/puertorican_mismatch_declarative-narrow-focus_El-bebe-comia-muy-bien.wav,,,,,,,,,,,,,,,,,,,,,,,,,,,,,,,,,,,,,,,,,,,,,,,,,,,,,,,,
,,,,,,,5fb596ff69ed590fff92ba8f,605b45a4d25f287719a41696,605cfb896d58ea1f5b7767b4,United States,Midwest,13 or older,no,2021-03-25_17h12.06.385,empathy_intonation_perc,2020.2.10,MacIntel,60,,,,,,,,,,0,puertorican,0,1,1.996,0,2,2,38,1,39,./stim/wavs/andalusian_mismatch_declarative-broad-focus_Mi-novio-viene-del-lago.wav,./stim/wavs/argentine_mismatch_declarative-broad-focus_Mi-novio-viene-del-lago.wav,./stim/wavs/castilian_mismatch_declarative-broad-focus_Mi-novio-viene-del-lago.wav,./stim/wavs/chilean_mismatch_declarative-broad-focus_Mi-novio-viene-del-lago.wav,./stim/wavs/cuban_mismatch_declarative-broad-focus_Mi-novio-viene-del-lago.wav,./stim/wavs/mexican_mismatch_declarative-broad-focus_Mi-novio-viene-del-lago.wav,./stim/wavs/peruvian_mismatch_declarative-broad-focus_Mi-novio-viene-del-lago.wav,./stim/wavs/puertorican_mismatch_declarative-broad-focus_Mi-novio-viene-del-lago.wav,,,,,,,,,,,,,,,,,,,,,,,,,,,,,,,,,,,,,,,,,,,,,,,,,,,,,,,,
,,,,,,,5fb596ff69ed590fff92ba8f,605b45a4d25f287719a41696,605cfb896d58ea1f5b7767b4,United States,Midwest,13 or older,no,2021-03-25_17h12.06.385,empathy_intonation_perc,2020.2.10,MacIntel,60,,,,,,,,,,0,peruvian,0,1,2.08,0,3,3,9,1,10,./stim/wavs/andalusian_match_declarative-narrow-focus_Daniel-iba-a-Bolivia.wav,./stim/wavs/argentine_match_declarative-narrow-focus_Daniel-iba-a-Bolivia.wav,./stim/wavs/castilian_match_declarative-narrow-focus_Daniel-iba-a-Bolivia.wav,./stim/wavs/chilean_match_declarative-narrow-focus_Daniel-iba-a-Bolivia.wav,./stim/wavs/cuban_match_declarative-narrow-focus_Daniel-iba-a-Bolivia.wav,./stim/wavs/mexican_match_declarative-narrow-focus_Daniel-iba-a-Bolivia.wav,./stim/wavs/peruvian_match_declarative-narrow-focus_Daniel-iba-a-Bolivia.wav,./stim/wavs/puertorican_match_declarative-narrow-focus_Daniel-iba-a-Bolivia.wav,,,,,,,,,,,,,,,,,,,,,,,,,,,,,,,,,,,,,,,,,,,,,,,,,,,,,,,,
,,,,,,,5fb596ff69ed590fff92ba8f,605b45a4d25f287719a41696,605cfb896d58ea1f5b7767b4,United States,Midwest,13 or older,no,2021-03-25_17h12.06.385,empathy_intonation_perc,2020.2.10,MacIntel,60,,,,,,,,,,0,peruvian,0,1,1.888,0,4,4,33,1,34,./stim/wavs/andalusian_mismatch_declarative-broad-focus_El-hombre-mira-la-luna.wav,./stim/wavs/argentine_mismatch_declarative-broad-focus_El-hombre-mira-la-luna.wav,./stim/wavs/castilian_mismatch_declarative-broad-focus_El-hombre-mira-la-luna.wav,./stim/wavs/chilean_mismatch_declarative-broad-focus_El-hombre-mira-la-luna.wav,./stim/wavs/cuban_mismatch_declarative-broad-focus_El-hombre-mira-la-luna.wav,./stim/wavs/mexican_mismatch_declarative-broad-focus_El-hombre-mira-la-luna.wav,./stim/wavs/peruvian_mismatch_declarative-broad-focus_El-hombre-mira-la-luna.wav,./stim/wavs/puertorican_mismatch_declarative-broad-focus_El-hombre-mira-la-luna.wav,,,,,,,,,,,,,,,,,,,,,,,,,,,,,,,,,,,,,,,,,,,,,,,,,,,,,,,,
,,,,,,,5fb596ff69ed590fff92ba8f,605b45a4d25f287719a41696,605cfb896d58ea1f5b7767b4,United States,Midwest,13 or older,no,2021-03-25_17h12.06.385,empathy_intonation_perc,2020.2.10,MacIntel,60,,,,,,,,,,0,andalusian,0,1,1.9,0,5,5,46,1,47,./stim/wavs/andalusian_mismatch_declarative-narrow-focus_Mi-novio-viene-del-lago.wav,./stim/wavs/argentine_mismatch_declarative-narrow-focus_Mi-novio-viene-del-lago.wav,./stim/wavs/castilian_mismatch_declarative-narrow-focus_Mi-novio-viene-del-lago.wav,./stim/wavs/chilean_mismatch_declarative-narrow-focus_Mi-novio-viene-del-lago.wav,./stim/wavs/cuban_mismatch_declarative-narrow-focus_Mi-novio-viene-del-lago.wav,./stim/wavs/mexican_mismatch_declarative-narrow-focus_Mi-novio-viene-del-lago.wav,./stim/wavs/peruvian_mismatch_declarative-narrow-focus_Mi-novio-viene-del-lago.wav,./stim/wavs/puertorican_mismatch_declarative-narrow-focus_Mi-novio-viene-del-lago.wav,,,,,,,,,,,,,,,,,,,,,,,,,,,,,,,,,,,,,,,,,,,,,,,,,,,,,,,,
,,,,,,,5fb596ff69ed590fff92ba8f,605b45a4d25f287719a41696,605cfb896d58ea1f5b7767b4,United States,Midwest,13 or older,no,2021-03-25_17h12.06.385,empathy_intonation_perc,2020.2.10,MacIntel,60,,,,,,,,,,0,castilian,0,1,2.166,0,6,6,39,1,40,./stim/wavs/andalusian_mismatch_declarative-broad-focus_Mi-tia-odia-la-lluvia.wav,./stim/wavs/argentine_mismatch_declarative-broad-focus_Mi-tia-odia-la-lluvia.wav,./stim/wavs/castilian_mismatch_declarative-broad-focus_Mi-tia-odia-la-lluvia.wav,./stim/wavs/chilean_mismatch_declarative-broad-focus_Mi-tia-odia-la-lluvia.wav,./stim/wavs/cuban_mismatch_declarative-broad-focus_Mi-tia-odia-la-lluvia.wav,./stim/wavs/mexican_mismatch_declarative-broad-focus_Mi-tia-odia-la-lluvia.wav,./stim/wavs/peruvian_mismatch_declarative-broad-focus_Mi-tia-odia-la-lluvia.wav,./stim/wavs/puertorican_mismatch_declarative-broad-focus_Mi-tia-odia-la-lluvia.wav,,,,,,,,,,,,,,,,,,,,,,,,,,,,,,,,,,,,,,,,,,,,,,,,,,,,,,,,
,,,,,,,5fb596ff69ed590fff92ba8f,605b45a4d25f287719a41696,605cfb896d58ea1f5b7767b4,United States,Midwest,13 or older,no,2021-03-25_17h12.06.385,empathy_intonation_perc,2020.2.10,MacIntel,60,,,,,,,,,,1,puertorican,0,0,2.18,0,7,7,56,1,57,./stim/wavs/andalusian_mismatch_interrogative-total-yn_El-bebe-comia-muy-bien.wav,./stim/wavs/argentine_mismatch_interrogative-total-yn_El-bebe-comia-muy-bien.wav,./stim/wavs/castilian_mismatch_interrogative-total-yn_El-bebe-comia-muy-bien.wav,./stim/wavs/chilean_mismatch_interrogative-total-yn_El-bebe-comia-muy-bien.wav,./stim/wavs/cuban_mismatch_interrogative-total-yn_El-bebe-comia-muy-bien.wav,./stim/wavs/mexican_mismatch_interrogative-total-yn_El-bebe-comia-muy-bien.wav,./stim/wavs/peruvian_mismatch_interrogative-total-yn_El-bebe-comia-muy-bien.wav,./stim/wavs/puertorican_mismatch_interrogative-total-yn_El-bebe-comia-muy-bien.wav,,,,,,,,,,,,,,,,,,,,,,,,,,,,,,,,,,,,,,,,,,,,,,,,,,,,,,,,
,,,,,,,5fb596ff69ed590fff92ba8f,605b45a4d25f287719a41696,605cfb896d58ea1f5b7767b4,United States,Midwest,13 or older,no,2021-03-25_17h12.06.385,empathy_intonation_perc,2020.2.10,MacIntel,60,,,,,,,,,,1,mexican,0,0,1.637,0,8,8,50,1,51,./stim/wavs/andalusian_mismatch_interrogative-partial-wh_Cuando-miraba-la-luna.wav,./stim/wavs/argentine_mismatch_interrogative-partial-wh_Cuando-miraba-la-luna.wav,./stim/wavs/castilian_mismatch_interrogative-partial-wh_Cuando-miraba-la-luna.wav,./stim/wavs/chilean_mismatch_interrogative-partial-wh_Cuando-miraba-la-luna.wav,./stim/wavs/cuban_mismatch_interrogative-partial-wh_Cuando-miraba-la-luna.wav,./stim/wavs/mexican_mismatch_interrogative-partial-wh_Cuando-miraba-la-luna.wav,./stim/wavs/peruvian_mismatch_interrogative-partial-wh_Cuando-miraba-la-luna.wav,./stim/wavs/puertorican_mismatch_interrogative-partial-wh_Cuando-miraba-la-luna.wav,,,,,,,,,,,,,,,,,,,,,,,,,,,,,,,,,,,,,,,,,,,,,,,,,,,,,,,,
,,,,,,,5fb596ff69ed590fff92ba8f,605b45a4d25f287719a41696,605cfb896d58ea1f5b7767b4,United States,Midwest,13 or older,no,2021-03-25_17h12.06.385,empathy_intonation_perc,2020.2.10,MacIntel,60,,,,,,,,,,1,cuban,0,0,2.466,0,9,9,49,1,50,./stim/wavs/andalusian_mismatch_interrogative-partial-wh_Cuando-lavaba-el-plato.wav,./stim/wavs/argentine_mismatch_interrogative-partial-wh_Cuando-lavaba-el-plato.wav,./stim/wavs/castilian_mismatch_interrogative-partial-wh_Cuando-lavaba-el-plato.wav,./stim/wavs/chilean_mismatch_interrogative-partial-wh_Cuando-lavaba-el-plato.wav,./stim/wavs/cuban_mismatch_interrogative-partial-wh_Cuando-lavaba-el-plato.wav,./stim/wavs/mexican_mismatch_interrogative-partial-wh_Cuando-lavaba-el-plato.wav,./stim/wavs/peruvian_mismatch_interrogative-partial-wh_Cuando-lavaba-el-plato.wav,./stim/wavs/puertorican_mismatch_interrogative-partial-wh_Cuando-lavaba-el-plato.wav,,,,,,,,,,,,,,,,,,,,,,,,,,,,,,,,,,,,,,,,,,,,,,,,,,,,,,,,
,,,,,,,5fb596ff69ed590fff92ba8f,605b45a4d25f287719a41696,605cfb896d58ea1f5b7767b4,United States,Midwest,13 or older,no,2021-03-25_17h12.06.385,empathy_intonation_perc,2020.2.10,MacIntel,60,,,,,,,,,,1,argentine,0,0,3.233,0,10,10,51,1,52,./stim/wavs/andalusian_mismatch_interrogative-partial-wh_Por-que-desayuna-muy-bien.wav,./stim/wavs/argentine_mismatch_interrogative-partial-wh_Por-que-desayuna-muy-bien.wav,./stim/wavs/castilian_mismatch_interrogative-partial-wh_Por-que-desayuna-muy-bien.wav,./stim/wavs/chilean_mismatch_interrogative-partial-wh_Por-que-desayuna-muy-bien.wav,./stim/wavs/cuban_mismatch_interrogative-partial-wh_Por-que-desayuna-muy-bien.wav,./stim/wavs/mexican_mismatch_interrogative-partial-wh_Por-que-desayuna-muy-bien.wav,./stim/wavs/peruvian_mismatch_interrogative-partial-wh_Por-que-desayuna-muy-bien.wav,./stim/wavs/puertorican_mismatch_interrogative-partial-wh_Por-que-desayuna-muy-bien.wav,,,,,,,,,,,,,,,,,,,,,,,,,,,,,,,,,,,,,,,,,,,,,,,,,,,,,,,,
,,,,,,,5fb596ff69ed590fff92ba8f,605b45a4d25f287719a41696,605cfb896d58ea1f5b7767b4,United States,Midwest,13 or older,no,2021-03-25_17h12.06.385,empathy_intonation_perc,2020.2.10,MacIntel,60,,,,,,,,,,0,argentine,0,1,1.93,0,11,11,41,1,42,./stim/wavs/andalusian_mismatch_declarative-narrow-focus_El-hombre-mira-la-luna.wav,./stim/wavs/argentine_mismatch_declarative-narrow-focus_El-hombre-mira-la-luna.wav,./stim/wavs/castilian_mismatch_declarative-narrow-focus_El-hombre-mira-la-luna.wav,./stim/wavs/chilean_mismatch_declarative-narrow-focus_El-hombre-mira-la-luna.wav,./stim/wavs/cuban_mismatch_declarative-narrow-focus_El-hombre-mira-la-luna.wav,./stim/wavs/mexican_mismatch_declarative-narrow-focus_El-hombre-mira-la-luna.wav,./stim/wavs/peruvian_mismatch_declarative-narrow-focus_El-hombre-mira-la-luna.wav,./stim/wavs/puertorican_mismatch_declarative-narrow-focus_El-hombre-mira-la-luna.wav,,,,,,,,,,,,,,,,,,,,,,,,,,,,,,,,,,,,,,,,,,,,,,,,,,,,,,,,
,,,,,,,5fb596ff69ed590fff92ba8f,605b45a4d25f287719a41696,605cfb896d58ea1f5b7767b4,United States,Midwest,13 or older,no,2021-03-25_17h12.06.385,empathy_intonation_perc,2020.2.10,MacIntel,60,,,,,,,,,,1,mexican,1,1,1.797,0,12,12,17,1,18,./stim/wavs/andalusian_match_interrogative-partial-wh_Cuando-leia-el-libro.wav,./stim/wavs/argentine_match_interrogative-partial-wh_Cuando-leia-el-libro.wav,./stim/wavs/castilian_match_interrogative-partial-wh_Cuando-leia-el-libro.wav,./stim/wavs/chilean_match_interrogative-partial-wh_Cuando-leia-el-libro.wav,./stim/wavs/cuban_match_interrogative-partial-wh_Cuando-leia-el-libro.wav,./stim/wavs/mexican_match_interrogative-partial-wh_Cuando-leia-el-libro.wav,./stim/wavs/peruvian_match_interrogative-partial-wh_Cuando-leia-el-libro.wav,./stim/wavs/puertorican_match_interrogative-partial-wh_Cuando-leia-el-libro.wav,,,,,,,,,,,,,,,,,,,,,,,,,,,,,,,,,,,,,,,,,,,,,,,,,,,,,,,,
,,,,,,,5fb596ff69ed590fff92ba8f,605b45a4d25f287719a41696,605cfb896d58ea1f5b7767b4,United States,Midwest,13 or older,no,2021-03-25_17h12.06.385,empathy_intonation_perc,2020.2.10,MacIntel,60,,,,,,,,,,0,andalusian,1,0,2.976,0,13,13,13,1,14,./stim/wavs/andalusian_match_declarative-narrow-focus_Maria-bebe-el-vino.wav,./stim/wavs/argentine_match_declarative-narrow-focus_Maria-bebe-el-vino.wav,./stim/wavs/castilian_match_declarative-narrow-focus_Maria-bebe-el-vino.wav,./stim/wavs/chilean_match_declarative-narrow-focus_Maria-bebe-el-vino.wav,./stim/wavs/cuban_match_declarative-narrow-focus_Maria-bebe-el-vino.wav,./stim/wavs/mexican_match_declarative-narrow-focus_Maria-bebe-el-vino.wav,./stim/wavs/peruvian_match_declarative-narrow-focus_Maria-bebe-el-vino.wav,./stim/wavs/puertorican_match_declarative-narrow-focus_Maria-bebe-el-vino.wav,,,,,,,,,,,,,,,,,,,,,,,,,,,,,,,,,,,,,,,,,,,,,,,,,,,,,,,,
,,,,,,,5fb596ff69ed590fff92ba8f,605b45a4d25f287719a41696,605cfb896d58ea1f5b7767b4,United States,Midwest,13 or older,no,2021-03-25_17h12.06.385,empathy_intonation_perc,2020.2.10,MacIntel,60,,,,,,,,,,0,argentine,0,1,1.949,0,14,14,43,1,44,./stim/wavs/andalusian_mismatch_declarative-narrow-focus_La-maestra-vive-en-Paris.wav,./stim/wavs/argentine_mismatch_declarative-narrow-focus_La-maestra-vive-en-Paris.wav,./stim/wavs/castilian_mismatch_declarative-narrow-focus_La-maestra-vive-en-Paris.wav,./stim/wavs/chilean_mismatch_declarative-narrow-focus_La-maestra-vive-en-Paris.wav,./stim/wavs/cuban_mismatch_declarative-narrow-focus_La-maestra-vive-en-Paris.wav,./stim/wavs/mexican_mismatch_declarative-narrow-focus_La-maestra-vive-en-Paris.wav,./stim/wavs/peruvian_mismatch_declarative-narrow-focus_La-maestra-vive-en-Paris.wav,./stim/wavs/puertorican_mismatch_declarative-narrow-focus_La-maestra-vive-en-Paris.wav,,,,,,,,,,,,,,,,,,,,,,,,,,,,,,,,,,,,,,,,,,,,,,,,,,,,,,,,
,,,,,,,5fb596ff69ed590fff92ba8f,605b45a4d25f287719a41696,605cfb896d58ea1f5b7767b4,United States,Midwest,13 or older,no,2021-03-25_17h12.06.385,empathy_intonation_perc,2020.2.10,MacIntel,60,,,,,,,,,,1,chilean,1,1,1.782,0,15,15,20,1,21,./stim/wavs/andalusian_match_interrogative-partial-wh_Por-que-abre-el-regalo.wav,./stim/wavs/argentine_match_interrogative-partial-wh_Por-que-abre-el-regalo.wav,./stim/wavs/castilian_match_interrogative-partial-wh_Por-que-abre-el-regalo.wav,./stim/wavs/chilean_match_interrogative-partial-wh_Por-que-abre-el-regalo.wav,./stim/wavs/cuban_match_interrogative-partial-wh_Por-que-abre-el-regalo.wav,./stim/wavs/mexican_match_interrogative-partial-wh_Por-que-abre-el-regalo.wav,./stim/wavs/peruvian_match_interrogative-partial-wh_Por-que-abre-el-regalo.wav,./stim/wavs/puertorican_match_interrogative-partial-wh_Por-que-abre-el-regalo.wav,,,,,,,,,,,,,,,,,,,,,,,,,,,,,,,,,,,,,,,,,,,,,,,,,,,,,,,,
,,,,,,,5fb596ff69ed590fff92ba8f,605b45a4d25f287719a41696,605cfb896d58ea1f5b7767b4,United States,Midwest,13 or older,no,2021-03-25_17h12.06.385,empathy_intonation_perc,2020.2.10,MacIntel,60,,,,,,,,,,0,argentine,0,1,2.215,0,16,16,3,1,4,./stim/wavs/andalusian_match_declarative-broad-focus_Emilio-ama-la-marcha.wav,./stim/wavs/argentine_match_declarative-broad-focus_Emilio-ama-la-marcha.wav,./stim/wavs/castilian_match_declarative-broad-focus_Emilio-ama-la-marcha.wav,./stim/wavs/chilean_match_declarative-broad-focus_Emilio-ama-la-marcha.wav,./stim/wavs/cuban_match_declarative-broad-focus_Emilio-ama-la-marcha.wav,./stim/wavs/mexican_match_declarative-broad-focus_Emilio-ama-la-marcha.wav,./stim/wavs/peruvian_match_declarative-broad-focus_Emilio-ama-la-marcha.wav,./stim/wavs/puertorican_match_declarative-broad-focus_Emilio-ama-la-marcha.wav,,,,,,,,,,,,,,,,,,,,,,,,,,,,,,,,,,,,,,,,,,,,,,,,,,,,,,,,
,,,,,,,5fb596ff69ed590fff92ba8f,605b45a4d25f287719a41696,605cfb896d58ea1f5b7767b4,United States,Midwest,13 or older,no,2021-03-25_17h12.06.385,empathy_intonation_perc,2020.2.10,MacIntel,60,,,,,,,,,,1,andalusian,1,1,2.319,0,17,17,62,1,63,./stim/wavs/andalusian_mismatch_interrogative-total-yn_Mi-novio-viene-del-lago.wav,./stim/wavs/argentine_mismatch_interrogative-total-yn_Mi-novio-viene-del-lago.wav,./stim/wavs/castilian_mismatch_interrogative-total-yn_Mi-novio-viene-del-lago.wav,./stim/wavs/chilean_mismatch_interrogative-total-yn_Mi-novio-viene-del-lago.wav,./stim/wavs/cuban_mismatch_interrogative-total-yn_Mi-novio-viene-del-lago.wav,./stim/wavs/mexican_mismatch_interrogative-total-yn_Mi-novio-viene-del-lago.wav,./stim/wavs/peruvian_mismatch_interrogative-total-yn_Mi-novio-viene-del-lago.wav,./stim/wavs/puertorican_mismatch_interrogative-total-yn_Mi-novio-viene-del-lago.wav,,,,,,,,,,,,,,,,,,,,,,,,,,,,,,,,,,,,,,,,,,,,,,,,,,,,,,,,
,,,,,,,5fb596ff69ed590fff92ba8f,605b45a4d25f287719a41696,605cfb896d58ea1f5b7767b4,United States,Midwest,13 or older,no,2021-03-25_17h12.06.385,empathy_intonation_perc,2020.2.10,MacIntel,60,,,,,,,,,,1,chilean,1,1,2.283,0,18,18,25,1,26,./stim/wavs/andalusian_match_interrogative-total-yn_Daniel-iba-a-Bolivia.wav,./stim/wavs/argentine_match_interrogative-total-yn_Daniel-iba-a-Bolivia.wav,./stim/wavs/castilian_match_interrogative-total-yn_Daniel-iba-a-Bolivia.wav,./stim/wavs/chilean_match_interrogative-total-yn_Daniel-iba-a-Bolivia.wav,./stim/wavs/cuban_match_interrogative-total-yn_Daniel-iba-a-Bolivia.wav,./stim/wavs/mexican_match_interrogative-total-yn_Daniel-iba-a-Bolivia.wav,./stim/wavs/peruvian_match_interrogative-total-yn_Daniel-iba-a-Bolivia.wav,./stim/wavs/puertorican_match_interrogative-total-yn_Daniel-iba-a-Bolivia.wav,,,,,,,,,,,,,,,,,,,,,,,,,,,,,,,,,,,,,,,,,,,,,,,,,,,,,,,,
,,,,,,,5fb596ff69ed590fff92ba8f,605b45a4d25f287719a41696,605cfb896d58ea1f5b7767b4,United States,Midwest,13 or older,no,2021-03-25_17h12.06.385,empathy_intonation_perc,2020.2.10,MacIntel,60,,,,,,,,,,1,chilean,0,0,2.384,0,19,19,26,1,27,./stim/wavs/andalusian_match_interrogative-total-yn_David-leia-el-libro.wav,./stim/wavs/argentine_match_interrogative-total-yn_David-leia-el-libro.wav,./stim/wavs/castilian_match_interrogative-total-yn_David-leia-el-libro.wav,./stim/wavs/chilean_match_interrogative-total-yn_David-leia-el-libro.wav,./stim/wavs/cuban_match_interrogative-total-yn_David-leia-el-libro.wav,./stim/wavs/mexican_match_interrogative-total-yn_David-leia-el-libro.wav,./stim/wavs/peruvian_match_interrogative-total-yn_David-leia-el-libro.wav,./stim/wavs/puertorican_match_interrogative-total-yn_David-leia-el-libro.wav,,,,,,,,,,,,,,,,,,,,,,,,,,,,,,,,,,,,,,,,,,,,,,,,,,,,,,,,
,,,,,,,5fb596ff69ed590fff92ba8f,605b45a4d25f287719a41696,605cfb896d58ea1f5b7767b4,United States,Midwest,13 or older,no,2021-03-25_17h12.06.385,empathy_intonation_perc,2020.2.10,MacIntel,60,,,,,,,,,,0,peruvian,0,1,2.197,0,20,20,2,1,3,./stim/wavs/andalusian_match_declarative-broad-focus_David-leia-el-libro.wav,./stim/wavs/argentine_match_declarative-broad-focus_David-leia-el-libro.wav,./stim/wavs/castilian_match_declarative-broad-focus_David-leia-el-libro.wav,./stim/wavs/chilean_match_declarative-broad-focus_David-leia-el-libro.wav,./stim/wavs/cuban_match_declarative-broad-focus_David-leia-el-libro.wav,./stim/wavs/mexican_match_declarative-broad-focus_David-leia-el-libro.wav,./stim/wavs/peruvian_match_declarative-broad-focus_David-leia-el-libro.wav,./stim/wavs/puertorican_match_declarative-broad-focus_David-leia-el-libro.wav,,,,,,,,,,,,,,,,,,,,,,,,,,,,,,,,,,,,,,,,,,,,,,,,,,,,,,,,
,,,,,,,5fb596ff69ed590fff92ba8f,605b45a4d25f287719a41696,605cfb896d58ea1f5b7767b4,United States,Midwest,13 or older,no,2021-03-25_17h12.06.385,empathy_intonation_perc,2020.2.10,MacIntel,60,,,,,,,,,,1,andalusian,1,1,1.838,0,21,21,18,1,19,./stim/wavs/andalusian_match_interrogative-partial-wh_Cuando-lleva-el-abrigo.wav,./stim/wavs/argentine_match_interrogative-partial-wh_Cuando-lleva-el-abrigo.wav,./stim/wavs/castilian_match_interrogative-partial-wh_Cuando-lleva-el-abrigo.wav,./stim/wavs/chilean_match_interrogative-partial-wh_Cuando-lleva-el-abrigo.wav,./stim/wavs/cuban_match_interrogative-partial-wh_Cuando-lleva-el-abrigo.wav,./stim/wavs/mexican_match_interrogative-partial-wh_Cuando-lleva-el-abrigo.wav,./stim/wavs/peruvian_match_interrogative-partial-wh_Cuando-lleva-el-abrigo.wav,./stim/wavs/puertorican_match_interrogative-partial-wh_Cuando-lleva-el-abrigo.wav,,,,,,,,,,,,,,,,,,,,,,,,,,,,,,,,,,,,,,,,,,,,,,,,,,,,,,,,
,,,,,,,5fb596ff69ed590fff92ba8f,605b45a4d25f287719a41696,605cfb896d58ea1f5b7767b4,United States,Midwest,13 or older,no,2021-03-25_17h12.06.385,empathy_intonation_perc,2020.2.10,MacIntel,60,,,,,,,,,,0,castilian,0,1,2.316,0,22,22,32,1,33,./stim/wavs/andalusian_mismatch_declarative-broad-focus_El-bebe-comia-muy-bien.wav,./stim/wavs/argentine_mismatch_declarative-broad-focus_El-bebe-comia-muy-bien.wav,./stim/wavs/castilian_mismatch_declarative-broad-focus_El-bebe-comia-muy-bien.wav,./stim/wavs/chilean_mismatch_declarative-broad-focus_El-bebe-comia-muy-bien.wav,./stim/wavs/cuban_mismatch_declarative-broad-focus_El-bebe-comia-muy-bien.wav,./stim/wavs/mexican_mismatch_declarative-broad-focus_El-bebe-comia-muy-bien.wav,./stim/wavs/peruvian_mismatch_declarative-broad-focus_El-bebe-comia-muy-bien.wav,./stim/wavs/puertorican_mismatch_declarative-broad-focus_El-bebe-comia-muy-bien.wav,,,,,,,,,,,,,,,,,,,,,,,,,,,,,,,,,,,,,,,,,,,,,,,,,,,,,,,,
,,,,,,,5fb596ff69ed590fff92ba8f,605b45a4d25f287719a41696,605cfb896d58ea1f5b7767b4,United States,Midwest,13 or older,no,2021-03-25_17h12.06.385,empathy_intonation_perc,2020.2.10,MacIntel,60,,,,,,,,,,1,andalusian,0,0,2.495,0,23,23,54,1,55,./stim/wavs/andalusian_mismatch_interrogative-partial-wh_Por-que-venia-del-lago.wav,./stim/wavs/argentine_mismatch_interrogative-partial-wh_Por-que-venia-del-lago.wav,./stim/wavs/castilian_mismatch_interrogative-partial-wh_Por-que-venia-del-lago.wav,./stim/wavs/chilean_mismatch_interrogative-partial-wh_Por-que-venia-del-lago.wav,./stim/wavs/cuban_mismatch_interrogative-partial-wh_Por-que-venia-del-lago.wav,./stim/wavs/mexican_mismatch_interrogative-partial-wh_Por-que-venia-del-lago.wav,./stim/wavs/peruvian_mismatch_interrogative-partial-wh_Por-que-venia-del-lago.wav,./stim/wavs/puertorican_mismatch_interrogative-partial-wh_Por-que-venia-del-lago.wav,,,,,,,,,,,,,,,,,,,,,,,,,,,,,,,,,,,,,,,,,,,,,,,,,,,,,,,,
,,,,,,,5fb596ff69ed590fff92ba8f,605b45a4d25f287719a41696,605cfb896d58ea1f5b7767b4,United States,Midwest,13 or older,no,2021-03-25_17h12.06.385,empathy_intonation_perc,2020.2.10,MacIntel,60,,,,,,,,,,0,andalusian,0,1,2.328,0,24,24,10,1,11,./stim/wavs/andalusian_match_declarative-narrow-focus_David-leia-el-libro.wav,./stim/wavs/argentine_match_declarative-narrow-focus_David-leia-el-libro.wav,./stim/wavs/castilian_match_declarative-narrow-focus_David-leia-el-libro.wav,./stim/wavs/chilean_match_declarative-narrow-focus_David-leia-el-libro.wav,./stim/wavs/cuban_match_declarative-narrow-focus_David-leia-el-libro.wav,./stim/wavs/mexican_match_declarative-narrow-focus_David-leia-el-libro.wav,./stim/wavs/peruvian_match_declarative-narrow-focus_David-leia-el-libro.wav,./stim/wavs/puertorican_match_declarative-narrow-focus_David-leia-el-libro.wav,,,,,,,,,,,,,,,,,,,,,,,,,,,,,,,,,,,,,,,,,,,,,,,,,,,,,,,,
,,,,,,,5fb596ff69ed590fff92ba8f,605b45a4d25f287719a41696,605cfb896d58ea1f5b7767b4,United States,Midwest,13 or older,no,2021-03-25_17h12.06.385,empathy_intonation_perc,2020.2.10,MacIntel,60,,,,,,,,,,1,peruvian,1,1,2.003,0,25,25,58,1,59,./stim/wavs/andalusian_mismatch_interrogative-total-yn_El-nino-oye-el-rio.wav,./stim/wavs/argentine_mismatch_interrogative-total-yn_El-nino-oye-el-rio.wav,./stim/wavs/castilian_mismatch_interrogative-total-yn_El-nino-oye-el-rio.wav,./stim/wavs/chilean_mismatch_interrogative-total-yn_El-nino-oye-el-rio.wav,./stim/wavs/cuban_mismatch_interrogative-total-yn_El-nino-oye-el-rio.wav,./stim/wavs/mexican_mismatch_interrogative-total-yn_El-nino-oye-el-rio.wav,./stim/wavs/peruvian_mismatch_interrogative-total-yn_El-nino-oye-el-rio.wav,./stim/wavs/puertorican_mismatch_interrogative-total-yn_El-nino-oye-el-rio.wav,,,,,,,,,,,,,,,,,,,,,,,,,,,,,,,,,,,,,,,,,,,,,,,,,,,,,,,,
,,,,,,,5fb596ff69ed590fff92ba8f,605b45a4d25f287719a41696,605cfb896d58ea1f5b7767b4,United States,Midwest,13 or older,no,2021-03-25_17h12.06.385,empathy_intonation_perc,2020.2.10,MacIntel,60,,,,,,,,,,1,puertorican,0,0,2.117,0,26,26,52,1,53,./stim/wavs/andalusian_mismatch_interrogative-partial-wh_Por-que-odiaba-la-lluvia.wav,./stim/wavs/argentine_mismatch_interrogative-partial-wh_Por-que-odiaba-la-lluvia.wav,./stim/wavs/castilian_mismatch_interrogative-partial-wh_Por-que-odiaba-la-lluvia.wav,./stim/wavs/chilean_mismatch_interrogative-partial-wh_Por-que-odiaba-la-lluvia.wav,./stim/wavs/cuban_mismatch_interrogative-partial-wh_Por-que-odiaba-la-lluvia.wav,./stim/wavs/mexican_mismatch_interrogative-partial-wh_Por-que-odiaba-la-lluvia.wav,./stim/wavs/peruvian_mismatch_interrogative-partial-wh_Por-que-odiaba-la-lluvia.wav,./stim/wavs/puertorican_mismatch_interrogative-partial-wh_Por-que-odiaba-la-lluvia.wav,,,,,,,,,,,,,,,,,,,,,,,,,,,,,,,,,,,,,,,,,,,,,,,,,,,,,,,,
,,,,,,,5fb596ff69ed590fff92ba8f,605b45a4d25f287719a41696,605cfb896d58ea1f5b7767b4,United States,Midwest,13 or older,no,2021-03-25_17h12.06.385,empathy_intonation_perc,2020.2.10,MacIntel,60,,,,,,,,,,1,puertorican,0,0,1.879,0,27,27,23,1,24,./stim/wavs/andalusian_match_interrogative-partial-wh_Por-que-iba-a-Bolivia.wav,./stim/wavs/argentine_match_interrogative-partial-wh_Por-que-iba-a-Bolivia.wav,./stim/wavs/castilian_match_interrogative-partial-wh_Por-que-iba-a-Bolivia.wav,./stim/wavs/chilean_match_interrogative-partial-wh_Por-que-iba-a-Bolivia.wav,./stim/wavs/cuban_match_interrogative-partial-wh_Por-que-iba-a-Bolivia.wav,./stim/wavs/mexican_match_interrogative-partial-wh_Por-que-iba-a-Bolivia.wav,./stim/wavs/peruvian_match_interrogative-partial-wh_Por-que-iba-a-Bolivia.wav,./stim/wavs/puertorican_match_interrogative-partial-wh_Por-que-iba-a-Bolivia.wav,,,,,,,,,,,,,,,,,,,,,,,,,,,,,,,,,,,,,,,,,,,,,,,,,,,,,,,,
,,,,,,,5fb596ff69ed590fff92ba8f,605b45a4d25f287719a41696,605cfb896d58ea1f5b7767b4,United States,Midwest,13 or older,no,2021-03-25_17h12.06.385,empathy_intonation_perc,2020.2.10,MacIntel,60,,,,,,,,,,0,argentine,0,1,1.765,0,28,28,11,1,12,./stim/wavs/andalusian_match_declarative-narrow-focus_Emilio-ama-la-marcha.wav,./stim/wavs/argentine_match_declarative-narrow-focus_Emilio-ama-la-marcha.wav,./stim/wavs/castilian_match_declarative-narrow-focus_Emilio-ama-la-marcha.wav,./stim/wavs/chilean_match_declarative-narrow-focus_Emilio-ama-la-marcha.wav,./stim/wavs/cuban_match_declarative-narrow-focus_Emilio-ama-la-marcha.wav,./stim/wavs/mexican_match_declarative-narrow-focus_Emilio-ama-la-marcha.wav,./stim/wavs/peruvian_match_declarative-narrow-focus_Emilio-ama-la-marcha.wav,./stim/wavs/puertorican_match_declarative-narrow-focus_Emilio-ama-la-marcha.wav,,,,,,,,,,,,,,,,,,,,,,,,,,,,,,,,,,,,,,,,,,,,,,,,,,,,,,,,
,,,,,,,5fb596ff69ed590fff92ba8f,605b45a4d25f287719a41696,605cfb896d58ea1f5b7767b4,United States,Midwest,13 or older,no,2021-03-25_17h12.06.385,empathy_intonation_perc,2020.2.10,MacIntel,60,,,,,,,,,,1,andalusian,1,1,1.703,0,29,29,61,1,62,./stim/wavs/andalusian_mismatch_interrogative-total-yn_Mi-madre-come-la-fruta.wav,./stim/wavs/argentine_mismatch_interrogative-total-yn_Mi-madre-come-la-fruta.wav,./stim/wavs/castilian_mismatch_interrogative-total-yn_Mi-madre-come-la-fruta.wav,./stim/wavs/chilean_mismatch_interrogative-total-yn_Mi-madre-come-la-fruta.wav,./stim/wavs/cuban_mismatch_interrogative-total-yn_Mi-madre-come-la-fruta.wav,./stim/wavs/mexican_mismatch_interrogative-total-yn_Mi-madre-come-la-fruta.wav,./stim/wavs/peruvian_mismatch_interrogative-total-yn_Mi-madre-come-la-fruta.wav,./stim/wavs/puertorican_mismatch_interrogative-total-yn_Mi-madre-come-la-fruta.wav,,,,,,,,,,,,,,,,,,,,,,,,,,,,,,,,,,,,,,,,,,,,,,,,,,,,,,,,
,,,,,,,5fb596ff69ed590fff92ba8f,605b45a4d25f287719a41696,605cfb896d58ea1f5b7767b4,United States,Midwest,13 or older,no,2021-03-25_17h12.06.385,empathy_intonation_perc,2020.2.10,MacIntel,60,,,,,,,,,,0,argentine,0,1,1.798,0,30,30,47,1,48,./stim/wavs/andalusian_mismatch_declarative-narrow-focus_Mi-tia-odia-la-lluvia.wav,./stim/wavs/argentine_mismatch_declarative-narrow-focus_Mi-tia-odia-la-lluvia.wav,./stim/wavs/castilian_mismatch_declarative-narrow-focus_Mi-tia-odia-la-lluvia.wav,./stim/wavs/chilean_mismatch_declarative-narrow-focus_Mi-tia-odia-la-lluvia.wav,./stim/wavs/cuban_mismatch_declarative-narrow-focus_Mi-tia-odia-la-lluvia.wav,./stim/wavs/mexican_mismatch_declarative-narrow-focus_Mi-tia-odia-la-lluvia.wav,./stim/wavs/peruvian_mismatch_declarative-narrow-focus_Mi-tia-odia-la-lluvia.wav,./stim/wavs/puertorican_mismatch_declarative-narrow-focus_Mi-tia-odia-la-lluvia.wav,,,,,,,,,,,,,,,,,,,,,,,,,,,,,,,,,,,,,,,,,,,,,,,,,,,,,,,,
,,,,,,,5fb596ff69ed590fff92ba8f,605b45a4d25f287719a41696,605cfb896d58ea1f5b7767b4,United States,Midwest,13 or older,no,2021-03-25_17h12.06.385,empathy_intonation_perc,2020.2.10,MacIntel,60,,,,,,,,,,0,argentine,0,1,1.884,0,31,31,6,1,7,./stim/wavs/andalusian_match_declarative-broad-focus_Mariano-habla-del-tiempo.wav,./stim/wavs/argentine_match_declarative-broad-focus_Mariano-habla-del-tiempo.wav,./stim/wavs/castilian_match_declarative-broad-focus_Mariano-habla-del-tiempo.wav,./stim/wavs/chilean_match_declarative-broad-focus_Mariano-habla-del-tiempo.wav,./stim/wavs/cuban_match_declarative-broad-focus_Mariano-habla-del-tiempo.wav,./stim/wavs/mexican_match_declarative-broad-focus_Mariano-habla-del-tiempo.wav,./stim/wavs/peruvian_match_declarative-broad-focus_Mariano-habla-del-tiempo.wav,./stim/wavs/puertorican_match_declarative-broad-focus_Mariano-habla-del-tiempo.wav,,,,,,,,,,,,,,,,,,,,,,,,,,,,,,,,,,,,,,,,,,,,,,,,,,,,,,,,
,,,,,,,5fb596ff69ed590fff92ba8f,605b45a4d25f287719a41696,605cfb896d58ea1f5b7767b4,United States,Midwest,13 or older,no,2021-03-25_17h12.06.385,empathy_intonation_perc,2020.2.10,MacIntel,60,,,,,,,,,,1,mexican,1,1,1.878,0,32,32,29,1,30,./stim/wavs/andalusian_match_interrogative-total-yn_Maria-bebe-el-vino.wav,./stim/wavs/argentine_match_interrogative-total-yn_Maria-bebe-el-vino.wav,./stim/wavs/castilian_match_interrogative-total-yn_Maria-bebe-el-vino.wav,./stim/wavs/chilean_match_interrogative-total-yn_Maria-bebe-el-vino.wav,./stim/wavs/cuban_match_interrogative-total-yn_Maria-bebe-el-vino.wav,./stim/wavs/mexican_match_interrogative-total-yn_Maria-bebe-el-vino.wav,./stim/wavs/peruvian_match_interrogative-total-yn_Maria-bebe-el-vino.wav,./stim/wavs/puertorican_match_interrogative-total-yn_Maria-bebe-el-vino.wav,,,,,,,,,,,,,,,,,,,,,,,,,,,,,,,,,,,,,,,,,,,,,,,,,,,,,,,,
,,,,,,,5fb596ff69ed590fff92ba8f,605b45a4d25f287719a41696,605cfb896d58ea1f5b7767b4,United States,Midwest,13 or older,no,2021-03-25_17h12.06.385,empathy_intonation_perc,2020.2.10,MacIntel,60,,,,,,,,,,1,puertorican,0,0,1.684,0,33,33,21,1,22,./stim/wavs/andalusian_match_interrogative-partial-wh_Por-que-ama-la-navidad.wav,./stim/wavs/argentine_match_interrogative-partial-wh_Por-que-ama-la-navidad.wav,./stim/wavs/castilian_match_interrogative-partial-wh_Por-que-ama-la-navidad.wav,./stim/wavs/chilean_match_interrogative-partial-wh_Por-que-ama-la-navidad.wav,./stim/wavs/cuban_match_interrogative-partial-wh_Por-que-ama-la-navidad.wav,./stim/wavs/mexican_match_interrogative-partial-wh_Por-que-ama-la-navidad.wav,./stim/wavs/peruvian_match_interrogative-partial-wh_Por-que-ama-la-navidad.wav,./stim/wavs/puertorican_match_interrogative-partial-wh_Por-que-ama-la-navidad.wav,,,,,,,,,,,,,,,,,,,,,,,,,,,,,,,,,,,,,,,,,,,,,,,,,,,,,,,,
,,,,,,,5fb596ff69ed590fff92ba8f,605b45a4d25f287719a41696,605cfb896d58ea1f5b7767b4,United States,Midwest,13 or older,no,2021-03-25_17h12.06.385,empathy_intonation_perc,2020.2.10,MacIntel,60,,,,,,,,,,1,puertorican,1,1,1.664,0,34,34,57,1,58,./stim/wavs/andalusian_mismatch_interrogative-total-yn_El-hombre-mira-la-luna.wav,./stim/wavs/argentine_mismatch_interrogative-total-yn_El-hombre-mira-la-luna.wav,./stim/wavs/castilian_mismatch_interrogative-total-yn_El-hombre-mira-la-luna.wav,./stim/wavs/chilean_mismatch_interrogative-total-yn_El-hombre-mira-la-luna.wav,./stim/wavs/cuban_mismatch_interrogative-total-yn_El-hombre-mira-la-luna.wav,./stim/wavs/mexican_mismatch_interrogative-total-yn_El-hombre-mira-la-luna.wav,./stim/wavs/peruvian_mismatch_interrogative-total-yn_El-hombre-mira-la-luna.wav,./stim/wavs/puertorican_mismatch_interrogative-total-yn_El-hombre-mira-la-luna.wav,,,,,,,,,,,,,,,,,,,,,,,,,,,,,,,,,,,,,,,,,,,,,,,,,,,,,,,,
,,,,,,,5fb596ff69ed590fff92ba8f,605b45a4d25f287719a41696,605cfb896d58ea1f5b7767b4,United States,Midwest,13 or older,no,2021-03-25_17h12.06.385,empathy_intonation_perc,2020.2.10,MacIntel,60,,,,,,,,,,1,puertorican,0,0,1.567,0,35,35,22,1,23,./stim/wavs/andalusian_match_interrogative-partial-wh_Por-que-hablaba-del-agua.wav,./stim/wavs/argentine_match_interrogative-partial-wh_Por-que-hablaba-del-agua.wav,./stim/wavs/castilian_match_interrogative-partial-wh_Por-que-hablaba-del-agua.wav,./stim/wavs/chilean_match_interrogative-partial-wh_Por-que-hablaba-del-agua.wav,./stim/wavs/cuban_match_interrogative-partial-wh_Por-que-hablaba-del-agua.wav,./stim/wavs/mexican_match_interrogative-partial-wh_Por-que-hablaba-del-agua.wav,./stim/wavs/peruvian_match_interrogative-partial-wh_Por-que-hablaba-del-agua.wav,./stim/wavs/puertorican_match_interrogative-partial-wh_Por-que-hablaba-del-agua.wav,,,,,,,,,,,,,,,,,,,,,,,,,,,,,,,,,,,,,,,,,,,,,,,,,,,,,,,,
,,,,,,,5fb596ff69ed590fff92ba8f,605b45a4d25f287719a41696,605cfb896d58ea1f5b7767b4,United States,Midwest,13 or older,no,2021-03-25_17h12.06.385,empathy_intonation_perc,2020.2.10,MacIntel,60,,,,,,,,,,1,argentine,0,0,2.578,0,36,36,63,1,64,./stim/wavs/andalusian_mismatch_interrogative-total-yn_Mi-tia-odia-la-lluvia.wav,./stim/wavs/argentine_mismatch_interrogative-total-yn_Mi-tia-odia-la-lluvia.wav,./stim/wavs/castilian_mismatch_interrogative-total-yn_Mi-tia-odia-la-lluvia.wav,./stim/wavs/chilean_mismatch_interrogative-total-yn_Mi-tia-odia-la-lluvia.wav,./stim/wavs/cuban_mismatch_interrogative-total-yn_Mi-tia-odia-la-lluvia.wav,./stim/wavs/mexican_mismatch_interrogative-total-yn_Mi-tia-odia-la-lluvia.wav,./stim/wavs/peruvian_mismatch_interrogative-total-yn_Mi-tia-odia-la-lluvia.wav,./stim/wavs/puertorican_mismatch_interrogative-total-yn_Mi-tia-odia-la-lluvia.wav,,,,,,,,,,,,,,,,,,,,,,,,,,,,,,,,,,,,,,,,,,,,,,,,,,,,,,,,
,,,,,,,5fb596ff69ed590fff92ba8f,605b45a4d25f287719a41696,605cfb896d58ea1f5b7767b4,United States,Midwest,13 or older,no,2021-03-25_17h12.06.385,empathy_intonation_perc,2020.2.10,MacIntel,60,,,,,,,,,,0,andalusian,0,1,2.115,0,37,37,35,1,36,./stim/wavs/andalusian_mismatch_declarative-broad-focus_La-maestra-vive-en-Paris.wav,./stim/wavs/argentine_mismatch_declarative-broad-focus_La-maestra-vive-en-Paris.wav,./stim/wavs/castilian_mismatch_declarative-broad-focus_La-maestra-vive-en-Paris.wav,./stim/wavs/chilean_mismatch_declarative-broad-focus_La-maestra-vive-en-Paris.wav,./stim/wavs/cuban_mismatch_declarative-broad-focus_La-maestra-vive-en-Paris.wav,./stim/wavs/mexican_mismatch_declarative-broad-focus_La-maestra-vive-en-Paris.wav,./stim/wavs/peruvian_mismatch_declarative-broad-focus_La-maestra-vive-en-Paris.wav,./stim/wavs/puertorican_mismatch_declarative-broad-focus_La-maestra-vive-en-Paris.wav,,,,,,,,,,,,,,,,,,,,,,,,,,,,,,,,,,,,,,,,,,,,,,,,,,,,,,,,
,,,,,,,5fb596ff69ed590fff92ba8f,605b45a4d25f287719a41696,605cfb896d58ea1f5b7767b4,United States,Midwest,13 or older,no,2021-03-25_17h12.06.385,empathy_intonation_perc,2020.2.10,MacIntel,60,,,,,,,,,,0,castilian,0,1,1.846,0,38,38,37,1,38,./stim/wavs/andalusian_mismatch_declarative-broad-focus_Mi-madre-come-la-fruta.wav,./stim/wavs/argentine_mismatch_declarative-broad-focus_Mi-madre-come-la-fruta.wav,./stim/wavs/castilian_mismatch_declarative-broad-focus_Mi-madre-come-la-fruta.wav,./stim/wavs/chilean_mismatch_declarative-broad-focus_Mi-madre-come-la-fruta.wav,./stim/wavs/cuban_mismatch_declarative-broad-focus_Mi-madre-come-la-fruta.wav,./stim/wavs/mexican_mismatch_declarative-broad-focus_Mi-madre-come-la-fruta.wav,./stim/wavs/peruvian_mismatch_declarative-broad-focus_Mi-madre-come-la-fruta.wav,./stim/wavs/puertorican_mismatch_declarative-broad-focus_Mi-madre-come-la-fruta.wav,,,,,,,,,,,,,,,,,,,,,,,,,,,,,,,,,,,,,,,,,,,,,,,,,,,,,,,,
,,,,,,,5fb596ff69ed590fff92ba8f,605b45a4d25f287719a41696,605cfb896d58ea1f5b7767b4,United States,Midwest,13 or older,no,2021-03-25_17h12.06.385,empathy_intonation_perc,2020.2.10,MacIntel,60,,,,,,,,,,0,chilean,0,1,1.768,0,39,39,42,1,43,./stim/wavs/andalusian_mismatch_declarative-narrow-focus_El-nino-oye-el-rio.wav,./stim/wavs/argentine_mismatch_declarative-narrow-focus_El-nino-oye-el-rio.wav,./stim/wavs/castilian_mismatch_declarative-narrow-focus_El-nino-oye-el-rio.wav,./stim/wavs/chilean_mismatch_declarative-narrow-focus_El-nino-oye-el-rio.wav,./stim/wavs/cuban_mismatch_declarative-narrow-focus_El-nino-oye-el-rio.wav,./stim/wavs/mexican_mismatch_declarative-narrow-focus_El-nino-oye-el-rio.wav,./stim/wavs/peruvian_mismatch_declarative-narrow-focus_El-nino-oye-el-rio.wav,./stim/wavs/puertorican_mismatch_declarative-narrow-focus_El-nino-oye-el-rio.wav,,,,,,,,,,,,,,,,,,,,,,,,,,,,,,,,,,,,,,,,,,,,,,,,,,,,,,,,
,,,,,,,5fb596ff69ed590fff92ba8f,605b45a4d25f287719a41696,605cfb896d58ea1f5b7767b4,United States,Midwest,13 or older,no,2021-03-25_17h12.06.385,empathy_intonation_perc,2020.2.10,MacIntel,60,,,,,,,,,,0,castilian,0,1,1.598,0,40,40,8,1,9,./stim/wavs/andalusian_match_declarative-narrow-focus_Ana-lleva-el-abrigo.wav,./stim/wavs/argentine_match_declarative-narrow-focus_Ana-lleva-el-abrigo.wav,./stim/wavs/castilian_match_declarative-narrow-focus_Ana-lleva-el-abrigo.wav,./stim/wavs/chilean_match_declarative-narrow-focus_Ana-lleva-el-abrigo.wav,./stim/wavs/cuban_match_declarative-narrow-focus_Ana-lleva-el-abrigo.wav,./stim/wavs/mexican_match_declarative-narrow-focus_Ana-lleva-el-abrigo.wav,./stim/wavs/peruvian_match_declarative-narrow-focus_Ana-lleva-el-abrigo.wav,./stim/wavs/puertorican_match_declarative-narrow-focus_Ana-lleva-el-abrigo.wav,,,,,,,,,,,,,,,,,,,,,,,,,,,,,,,,,,,,,,,,,,,,,,,,,,,,,,,,
,,,,,,,5fb596ff69ed590fff92ba8f,605b45a4d25f287719a41696,605cfb896d58ea1f5b7767b4,United States,Midwest,13 or older,no,2021-03-25_17h12.06.385,empathy_intonation_perc,2020.2.10,MacIntel,60,,,,,,,,,,0,mexican,0,1,1.871,0,41,41,36,1,37,./stim/wavs/andalusian_mismatch_declarative-broad-focus_La-nina-lava-el-plato.wav,./stim/wavs/argentine_mismatch_declarative-broad-focus_La-nina-lava-el-plato.wav,./stim/wavs/castilian_mismatch_declarative-broad-focus_La-nina-lava-el-plato.wav,./stim/wavs/chilean_mismatch_declarative-broad-focus_La-nina-lava-el-plato.wav,./stim/wavs/cuban_mismatch_declarative-broad-focus_La-nina-lava-el-plato.wav,./stim/wavs/mexican_mismatch_declarative-broad-focus_La-nina-lava-el-plato.wav,./stim/wavs/peruvian_mismatch_declarative-broad-focus_La-nina-lava-el-plato.wav,./stim/wavs/puertorican_mismatch_declarative-broad-focus_La-nina-lava-el-plato.wav,,,,,,,,,,,,,,,,,,,,,,,,,,,,,,,,,,,,,,,,,,,,,,,,,,,,,,,,
,,,,,,,5fb596ff69ed590fff92ba8f,605b45a4d25f287719a41696,605cfb896d58ea1f5b7767b4,United States,Midwest,13 or older,no,2021-03-25_17h12.06.385,empathy_intonation_perc,2020.2.10,MacIntel,60,,,,,,,,,,1,chilean,0,0,1.884,0,42,42,59,1,60,./stim/wavs/andalusian_mismatch_interrogative-total-yn_La-maestra-vive-en-Paris.wav,./stim/wavs/argentine_mismatch_interrogative-total-yn_La-maestra-vive-en-Paris.wav,./stim/wavs/castilian_mismatch_interrogative-total-yn_La-maestra-vive-en-Paris.wav,./stim/wavs/chilean_mismatch_interrogative-total-yn_La-maestra-vive-en-Paris.wav,./stim/wavs/cuban_mismatch_interrogative-total-yn_La-maestra-vive-en-Paris.wav,./stim/wavs/mexican_mismatch_interrogative-total-yn_La-maestra-vive-en-Paris.wav,./stim/wavs/peruvian_mismatch_interrogative-total-yn_La-maestra-vive-en-Paris.wav,./stim/wavs/puertorican_mismatch_interrogative-total-yn_La-maestra-vive-en-Paris.wav,,,,,,,,,,,,,,,,,,,,,,,,,,,,,,,,,,,,,,,,,,,,,,,,,,,,,,,,
,,,,,,,5fb596ff69ed590fff92ba8f,605b45a4d25f287719a41696,605cfb896d58ea1f5b7767b4,United States,Midwest,13 or older,no,2021-03-25_17h12.06.385,empathy_intonation_perc,2020.2.10,MacIntel,60,,,,,,,,,,1,mexican,1,1,1.682,0,43,43,48,1,49,./stim/wavs/andalusian_mismatch_interrogative-partial-wh_Cuando-comia-la-fruta.wav,./stim/wavs/argentine_mismatch_interrogative-partial-wh_Cuando-comia-la-fruta.wav,./stim/wavs/castilian_mismatch_interrogative-partial-wh_Cuando-comia-la-fruta.wav,./stim/wavs/chilean_mismatch_interrogative-partial-wh_Cuando-comia-la-fruta.wav,./stim/wavs/cuban_mismatch_interrogative-partial-wh_Cuando-comia-la-fruta.wav,./stim/wavs/mexican_mismatch_interrogative-partial-wh_Cuando-comia-la-fruta.wav,./stim/wavs/peruvian_mismatch_interrogative-partial-wh_Cuando-comia-la-fruta.wav,./stim/wavs/puertorican_mismatch_interrogative-partial-wh_Cuando-comia-la-fruta.wav,,,,,,,,,,,,,,,,,,,,,,,,,,,,,,,,,,,,,,,,,,,,,,,,,,,,,,,,
,,,,,,,5fb596ff69ed590fff92ba8f,605b45a4d25f287719a41696,605cfb896d58ea1f5b7767b4,United States,Midwest,13 or older,no,2021-03-25_17h12.06.385,empathy_intonation_perc,2020.2.10,MacIntel,60,,,,,,,,,,0,andalusian,0,1,1.812,0,44,44,4,1,5,./stim/wavs/andalusian_match_declarative-broad-focus_Manuela-vende-el-carro.wav,./stim/wavs/argentine_match_declarative-broad-focus_Manuela-vende-el-carro.wav,./stim/wavs/castilian_match_declarative-broad-focus_Manuela-vende-el-carro.wav,./stim/wavs/chilean_match_declarative-broad-focus_Manuela-vende-el-carro.wav,./stim/wavs/cuban_match_declarative-broad-focus_Manuela-vende-el-carro.wav,./stim/wavs/mexican_match_declarative-broad-focus_Manuela-vende-el-carro.wav,./stim/wavs/peruvian_match_declarative-broad-focus_Manuela-vende-el-carro.wav,./stim/wavs/puertorican_match_declarative-broad-focus_Manuela-vende-el-carro.wav,,,,,,,,,,,,,,,,,,,,,,,,,,,,,,,,,,,,,,,,,,,,,,,,,,,,,,,,
,,,,,,,5fb596ff69ed590fff92ba8f,605b45a4d25f287719a41696,605cfb896d58ea1f5b7767b4,United States,Midwest,13 or older,no,2021-03-25_17h12.06.385,empathy_intonation_perc,2020.2.10,MacIntel,60,,,,,,,,,,1,cuban,1,1,1.819,0,45,45,16,1,17,./stim/wavs/andalusian_match_interrogative-partial-wh_Cuando-bebia-el-vino.wav,./stim/wavs/argentine_match_interrogative-partial-wh_Cuando-bebia-el-vino.wav,./stim/wavs/castilian_match_interrogative-partial-wh_Cuando-bebia-el-vino.wav,./stim/wavs/chilean_match_interrogative-partial-wh_Cuando-bebia-el-vino.wav,./stim/wavs/cuban_match_interrogative-partial-wh_Cuando-bebia-el-vino.wav,./stim/wavs/mexican_match_interrogative-partial-wh_Cuando-bebia-el-vino.wav,./stim/wavs/peruvian_match_interrogative-partial-wh_Cuando-bebia-el-vino.wav,./stim/wavs/puertorican_match_interrogative-partial-wh_Cuando-bebia-el-vino.wav,,,,,,,,,,,,,,,,,,,,,,,,,,,,,,,,,,,,,,,,,,,,,,,,,,,,,,,,
,,,,,,,5fb596ff69ed590fff92ba8f,605b45a4d25f287719a41696,605cfb896d58ea1f5b7767b4,United States,Midwest,13 or older,no,2021-03-25_17h12.06.385,empathy_intonation_perc,2020.2.10,MacIntel,60,,,,,,,,,,1,andalusian,1,1,1.699,0,46,46,31,1,32,./stim/wavs/andalusian_match_interrogative-total-yn_Marta-abre-el-regalo.wav,./stim/wavs/argentine_match_interrogative-total-yn_Marta-abre-el-regalo.wav,./stim/wavs/castilian_match_interrogative-total-yn_Marta-abre-el-regalo.wav,./stim/wavs/chilean_match_interrogative-total-yn_Marta-abre-el-regalo.wav,./stim/wavs/cuban_match_interrogative-total-yn_Marta-abre-el-regalo.wav,./stim/wavs/mexican_match_interrogative-total-yn_Marta-abre-el-regalo.wav,./stim/wavs/peruvian_match_interrogative-total-yn_Marta-abre-el-regalo.wav,./stim/wavs/puertorican_match_interrogative-total-yn_Marta-abre-el-regalo.wav,,,,,,,,,,,,,,,,,,,,,,,,,,,,,,,,,,,,,,,,,,,,,,,,,,,,,,,,
,,,,,,,5fb596ff69ed590fff92ba8f,605b45a4d25f287719a41696,605cfb896d58ea1f5b7767b4,United States,Midwest,13 or older,no,2021-03-25_17h12.06.385,empathy_intonation_perc,2020.2.10,MacIntel,60,,,,,,,,,,1,castilian,1,1,2.048,0,47,47,30,1,31,./stim/wavs/andalusian_match_interrogative-total-yn_Mariano-habla-del-tiempo.wav,./stim/wavs/argentine_match_interrogative-total-yn_Mariano-habla-del-tiempo.wav,./stim/wavs/castilian_match_interrogative-total-yn_Mariano-habla-del-tiempo.wav,./stim/wavs/chilean_match_interrogative-total-yn_Mariano-habla-del-tiempo.wav,./stim/wavs/cuban_match_interrogative-total-yn_Mariano-habla-del-tiempo.wav,./stim/wavs/mexican_match_interrogative-total-yn_Mariano-habla-del-tiempo.wav,./stim/wavs/peruvian_match_interrogative-total-yn_Mariano-habla-del-tiempo.wav,./stim/wavs/puertorican_match_interrogative-total-yn_Mariano-habla-del-tiempo.wav,,,,,,,,,,,,,,,,,,,,,,,,,,,,,,,,,,,,,,,,,,,,,,,,,,,,,,,,
,,,,,,,5fb596ff69ed590fff92ba8f,605b45a4d25f287719a41696,605cfb896d58ea1f5b7767b4,United States,Midwest,13 or older,no,2021-03-25_17h12.06.385,empathy_intonation_perc,2020.2.10,MacIntel,60,,,,,,,,,,1,mexican,1,1,1.913,0,48,48,60,1,61,./stim/wavs/andalusian_mismatch_interrogative-total-yn_La-nina-lava-el-plato.wav,./stim/wavs/argentine_mismatch_interrogative-total-yn_La-nina-lava-el-plato.wav,./stim/wavs/castilian_mismatch_interrogative-total-yn_La-nina-lava-el-plato.wav,./stim/wavs/chilean_mismatch_interrogative-total-yn_La-nina-lava-el-plato.wav,./stim/wavs/cuban_mismatch_interrogative-total-yn_La-nina-lava-el-plato.wav,./stim/wavs/mexican_mismatch_interrogative-total-yn_La-nina-lava-el-plato.wav,./stim/wavs/peruvian_mismatch_interrogative-total-yn_La-nina-lava-el-plato.wav,./stim/wavs/puertorican_mismatch_interrogative-total-yn_La-nina-lava-el-plato.wav,,,,,,,,,,,,,,,,,,,,,,,,,,,,,,,,,,,,,,,,,,,,,,,,,,,,,,,,
,,,,,,,5fb596ff69ed590fff92ba8f,605b45a4d25f287719a41696,605cfb896d58ea1f5b7767b4,United States,Midwest,13 or older,no,2021-03-25_17h12.06.385,empathy_intonation_perc,2020.2.10,MacIntel,60,,,,,,,,,,1,mexican,1,1,1.915,0,49,49,55,1,56,./stim/wavs/andalusian_mismatch_interrogative-partial-wh_Por-que-vivia-en-Paris.wav,./stim/wavs/argentine_mismatch_interrogative-partial-wh_Por-que-vivia-en-Paris.wav,./stim/wavs/castilian_mismatch_interrogative-partial-wh_Por-que-vivia-en-Paris.wav,./stim/wavs/chilean_mismatch_interrogative-partial-wh_Por-que-vivia-en-Paris.wav,./stim/wavs/cuban_mismatch_interrogative-partial-wh_Por-que-vivia-en-Paris.wav,./stim/wavs/mexican_mismatch_interrogative-partial-wh_Por-que-vivia-en-Paris.wav,./stim/wavs/peruvian_mismatch_interrogative-partial-wh_Por-que-vivia-en-Paris.wav,./stim/wavs/puertorican_mismatch_interrogative-partial-wh_Por-que-vivia-en-Paris.wav,,,,,,,,,,,,,,,,,,,,,,,,,,,,,,,,,,,,,,,,,,,,,,,,,,,,,,,,
,,,,,,,5fb596ff69ed590fff92ba8f,605b45a4d25f287719a41696,605cfb896d58ea1f5b7767b4,United States,Midwest,13 or older,no,2021-03-25_17h12.06.385,empathy_intonation_perc,2020.2.10,MacIntel,60,,,,,,,,,,0,puertorican,0,1,1.515,0,50,50,15,1,16,./stim/wavs/andalusian_match_declarative-narrow-focus_Marta-abre-el-regalo.wav,./stim/wavs/argentine_match_declarative-narrow-focus_Marta-abre-el-regalo.wav,./stim/wavs/castilian_match_declarative-narrow-focus_Marta-abre-el-regalo.wav,./stim/wavs/chilean_match_declarative-narrow-focus_Marta-abre-el-regalo.wav,./stim/wavs/cuban_match_declarative-narrow-focus_Marta-abre-el-regalo.wav,./stim/wavs/mexican_match_declarative-narrow-focus_Marta-abre-el-regalo.wav,./stim/wavs/peruvian_match_declarative-narrow-focus_Marta-abre-el-regalo.wav,./stim/wavs/puertorican_match_declarative-narrow-focus_Marta-abre-el-regalo.wav,,,,,,,,,,,,,,,,,,,,,,,,,,,,,,,,,,,,,,,,,,,,,,,,,,,,,,,,
,,,,,,,5fb596ff69ed590fff92ba8f,605b45a4d25f287719a41696,605cfb896d58ea1f5b7767b4,United States,Midwest,13 or older,no,2021-03-25_17h12.06.385,empathy_intonation_perc,2020.2.10,MacIntel,60,,,,,,,,,,0,peruvian,0,1,1.929,0,51,51,7,1,8,./stim/wavs/andalusian_match_declarative-broad-focus_Marta-abre-el-regalo.wav,./stim/wavs/argentine_match_declarative-broad-focus_Marta-abre-el-regalo.wav,./stim/wavs/castilian_match_declarative-broad-focus_Marta-abre-el-regalo.wav,./stim/wavs/chilean_match_declarative-broad-focus_Marta-abre-el-regalo.wav,./stim/wavs/cuban_match_declarative-broad-focus_Marta-abre-el-regalo.wav,./stim/wavs/mexican_match_declarative-broad-focus_Marta-abre-el-regalo.wav,./stim/wavs/peruvian_match_declarative-broad-focus_Marta-abre-el-regalo.wav,./stim/wavs/puertorican_match_declarative-broad-focus_Marta-abre-el-regalo.wav,,,,,,,,,,,,,,,,,,,,,,,,,,,,,,,,,,,,,,,,,,,,,,,,,,,,,,,,
,,,,,,,5fb596ff69ed590fff92ba8f,605b45a4d25f287719a41696,605cfb896d58ea1f5b7767b4,United States,Midwest,13 or older,no,2021-03-25_17h12.06.385,empathy_intonation_perc,2020.2.10,MacIntel,60,,,,,,,,,,0,castilian,0,1,1.901,0,52,52,12,1,13,./stim/wavs/andalusian_match_declarative-narrow-focus_Manuela-vende-el-carro.wav,./stim/wavs/argentine_match_declarative-narrow-focus_Manuela-vende-el-carro.wav,./stim/wavs/castilian_match_declarative-narrow-focus_Manuela-vende-el-carro.wav,./stim/wavs/chilean_match_declarative-narrow-focus_Manuela-vende-el-carro.wav,./stim/wavs/cuban_match_declarative-narrow-focus_Manuela-vende-el-carro.wav,./stim/wavs/mexican_match_declarative-narrow-focus_Manuela-vende-el-carro.wav,./stim/wavs/peruvian_match_declarative-narrow-focus_Manuela-vende-el-carro.wav,./stim/wavs/puertorican_match_declarative-narrow-focus_Manuela-vende-el-carro.wav,,,,,,,,,,,,,,,,,,,,,,,,,,,,,,,,,,,,,,,,,,,,,,,,,,,,,,,,
,,,,,,,5fb596ff69ed590fff92ba8f,605b45a4d25f287719a41696,605cfb896d58ea1f5b7767b4,United States,Midwest,13 or older,no,2021-03-25_17h12.06.385,empathy_intonation_perc,2020.2.10,MacIntel,60,,,,,,,,,,0,andalusian,0,1,1.749,0,53,53,34,1,35,./stim/wavs/andalusian_mismatch_declarative-broad-focus_El-nino-oye-el-rio.wav,./stim/wavs/argentine_mismatch_declarative-broad-focus_El-nino-oye-el-rio.wav,./stim/wavs/castilian_mismatch_declarative-broad-focus_El-nino-oye-el-rio.wav,./stim/wavs/chilean_mismatch_declarative-broad-focus_El-nino-oye-el-rio.wav,./stim/wavs/cuban_mismatch_declarative-broad-focus_El-nino-oye-el-rio.wav,./stim/wavs/mexican_mismatch_declarative-broad-focus_El-nino-oye-el-rio.wav,./stim/wavs/peruvian_mismatch_declarative-broad-focus_El-nino-oye-el-rio.wav,./stim/wavs/puertorican_mismatch_declarative-broad-focus_El-nino-oye-el-rio.wav,,,,,,,,,,,,,,,,,,,,,,,,,,,,,,,,,,,,,,,,,,,,,,,,,,,,,,,,
,,,,,,,5fb596ff69ed590fff92ba8f,605b45a4d25f287719a41696,605cfb896d58ea1f5b7767b4,United States,Midwest,13 or older,no,2021-03-25_17h12.06.385,empathy_intonation_perc,2020.2.10,MacIntel,60,,,,,,,,,,0,puertorican,0,1,1.534,0,54,54,0,1,1,./stim/wavs/andalusian_match_declarative-broad-focus_Ana-lleva-el-abrigo.wav,./stim/wavs/argentine_match_declarative-broad-focus_Ana-lleva-el-abrigo.wav,./stim/wavs/castilian_match_declarative-broad-focus_Ana-lleva-el-abrigo.wav,./stim/wavs/chilean_match_declarative-broad-focus_Ana-lleva-el-abrigo.wav,./stim/wavs/cuban_match_declarative-broad-focus_Ana-lleva-el-abrigo.wav,./stim/wavs/mexican_match_declarative-broad-focus_Ana-lleva-el-abrigo.wav,./stim/wavs/peruvian_match_declarative-broad-focus_Ana-lleva-el-abrigo.wav,./stim/wavs/puertorican_match_declarative-broad-focus_Ana-lleva-el-abrigo.wav,,,,,,,,,,,,,,,,,,,,,,,,,,,,,,,,,,,,,,,,,,,,,,,,,,,,,,,,
,,,,,,,5fb596ff69ed590fff92ba8f,605b45a4d25f287719a41696,605cfb896d58ea1f5b7767b4,United States,Midwest,13 or older,no,2021-03-25_17h12.06.385,empathy_intonation_perc,2020.2.10,MacIntel,60,,,,,,,,,,1,argentine,0,0,1.397,0,55,55,53,1,54,./stim/wavs/andalusian_mismatch_interrogative-partial-wh_Por-que-oia-el-rio.wav,./stim/wavs/argentine_mismatch_interrogative-partial-wh_Por-que-oia-el-rio.wav,./stim/wavs/castilian_mismatch_interrogative-partial-wh_Por-que-oia-el-rio.wav,./stim/wavs/chilean_mismatch_interrogative-partial-wh_Por-que-oia-el-rio.wav,./stim/wavs/cuban_mismatch_interrogative-partial-wh_Por-que-oia-el-rio.wav,./stim/wavs/mexican_mismatch_interrogative-partial-wh_Por-que-oia-el-rio.wav,./stim/wavs/peruvian_mismatch_interrogative-partial-wh_Por-que-oia-el-rio.wav,./stim/wavs/puertorican_mismatch_interrogative-partial-wh_Por-que-oia-el-rio.wav,,,,,,,,,,,,,,,,,,,,,,,,,,,,,,,,,,,,,,,,,,,,,,,,,,,,,,,,
,,,,,,,5fb596ff69ed590fff92ba8f,605b45a4d25f287719a41696,605cfb896d58ea1f5b7767b4,United States,Midwest,13 or older,no,2021-03-25_17h12.06.385,empathy_intonation_perc,2020.2.10,MacIntel,60,,,,,,,,,,0,cuban,0,1,1.881,0,56,56,1,1,2,./stim/wavs/andalusian_match_declarative-broad-focus_Daniel-iba-a-Bolivia.wav,./stim/wavs/argentine_match_declarative-broad-focus_Daniel-iba-a-Bolivia.wav,./stim/wavs/castilian_match_declarative-broad-focus_Daniel-iba-a-Bolivia.wav,./stim/wavs/chilean_match_declarative-broad-focus_Daniel-iba-a-Bolivia.wav,./stim/wavs/cuban_match_declarative-broad-focus_Daniel-iba-a-Bolivia.wav,./stim/wavs/mexican_match_declarative-broad-focus_Daniel-iba-a-Bolivia.wav,./stim/wavs/peruvian_match_declarative-broad-focus_Daniel-iba-a-Bolivia.wav,./stim/wavs/puertorican_match_declarative-broad-focus_Daniel-iba-a-Bolivia.wav,,,,,,,,,,,,,,,,,,,,,,,,,,,,,,,,,,,,,,,,,,,,,,,,,,,,,,,,
,,,,,,,5fb596ff69ed590fff92ba8f,605b45a4d25f287719a41696,605cfb896d58ea1f5b7767b4,United States,Midwest,13 or older,no,2021-03-25_17h12.06.385,empathy_intonation_perc,2020.2.10,MacIntel,60,,,,,,,,,,0,peruvian,0,1,1.931,0,57,57,14,1,15,./stim/wavs/andalusian_match_declarative-narrow-focus_Mariano-habla-del-tiempo.wav,./stim/wavs/argentine_match_declarative-narrow-focus_Mariano-habla-del-tiempo.wav,./stim/wavs/castilian_match_declarative-narrow-focus_Mariano-habla-del-tiempo.wav,./stim/wavs/chilean_match_declarative-narrow-focus_Mariano-habla-del-tiempo.wav,./stim/wavs/cuban_match_declarative-narrow-focus_Mariano-habla-del-tiempo.wav,./stim/wavs/mexican_match_declarative-narrow-focus_Mariano-habla-del-tiempo.wav,./stim/wavs/peruvian_match_declarative-narrow-focus_Mariano-habla-del-tiempo.wav,./stim/wavs/puertorican_match_declarative-narrow-focus_Mariano-habla-del-tiempo.wav,,,,,,,,,,,,,,,,,,,,,,,,,,,,,,,,,,,,,,,,,,,,,,,,,,,,,,,,
,,,,,,,5fb596ff69ed590fff92ba8f,605b45a4d25f287719a41696,605cfb896d58ea1f5b7767b4,United States,Midwest,13 or older,no,2021-03-25_17h12.06.385,empathy_intonation_perc,2020.2.10,MacIntel,60,,,,,,,,,,0,cuban,0,1,2.231,0,58,58,45,1,46,./stim/wavs/andalusian_mismatch_declarative-narrow-focus_Mi-madre-come-la-fruta.wav,./stim/wavs/argentine_mismatch_declarative-narrow-focus_Mi-madre-come-la-fruta.wav,./stim/wavs/castilian_mismatch_declarative-narrow-focus_Mi-madre-come-la-fruta.wav,./stim/wavs/chilean_mismatch_declarative-narrow-focus_Mi-madre-come-la-fruta.wav,./stim/wavs/cuban_mismatch_declarative-narrow-focus_Mi-madre-come-la-fruta.wav,./stim/wavs/mexican_mismatch_declarative-narrow-focus_Mi-madre-come-la-fruta.wav,./stim/wavs/peruvian_mismatch_declarative-narrow-focus_Mi-madre-come-la-fruta.wav,./stim/wavs/puertorican_mismatch_declarative-narrow-focus_Mi-madre-come-la-fruta.wav,,,,,,,,,,,,,,,,,,,,,,,,,,,,,,,,,,,,,,,,,,,,,,,,,,,,,,,,
,,,,,,,5fb596ff69ed590fff92ba8f,605b45a4d25f287719a41696,605cfb896d58ea1f5b7767b4,United States,Midwest,13 or older,no,2021-03-25_17h12.06.385,empathy_intonation_perc,2020.2.10,MacIntel,60,,,,,,,,,,1,mexican,1,1,1.364,0,59,59,19,1,20,./stim/wavs/andalusian_match_interrogative-partial-wh_Cuando-vendia-el-carro.wav,./stim/wavs/argentine_match_interrogative-partial-wh_Cuando-vendia-el-carro.wav,./stim/wavs/castilian_match_interrogative-partial-wh_Cuando-vendia-el-carro.wav,./stim/wavs/chilean_match_interrogative-partial-wh_Cuando-vendia-el-carro.wav,./stim/wavs/cuban_match_interrogative-partial-wh_Cuando-vendia-el-carro.wav,./stim/wavs/mexican_match_interrogative-partial-wh_Cuando-vendia-el-carro.wav,./stim/wavs/peruvian_match_interrogative-partial-wh_Cuando-vendia-el-carro.wav,./stim/wavs/puertorican_match_interrogative-partial-wh_Cuando-vendia-el-carro.wav,,,,,,,,,,,,,,,,,,,,,,,,,,,,,,,,,,,,,,,,,,,,,,,,,,,,,,,,
,,,,,,,5fb596ff69ed590fff92ba8f,605b45a4d25f287719a41696,605cfb896d58ea1f5b7767b4,United States,Midwest,13 or older,no,2021-03-25_17h12.06.385,empathy_intonation_perc,2020.2.10,MacIntel,60,,,,,,,,,,0,mexican,0,1,1.582,0,60,60,5,1,6,./stim/wavs/andalusian_match_declarative-broad-focus_Maria-bebe-el-vino.wav,./stim/wavs/argentine_match_declarative-broad-focus_Maria-bebe-el-vino.wav,./stim/wavs/castilian_match_declarative-broad-focus_Maria-bebe-el-vino.wav,./stim/wavs/chilean_match_declarative-broad-focus_Maria-bebe-el-vino.wav,./stim/wavs/cuban_match_declarative-broad-focus_Maria-bebe-el-vino.wav,./stim/wavs/mexican_match_declarative-broad-focus_Maria-bebe-el-vino.wav,./stim/wavs/peruvian_match_declarative-broad-focus_Maria-bebe-el-vino.wav,./stim/wavs/puertorican_match_declarative-broad-focus_Maria-bebe-el-vino.wav,,,,,,,,,,,,,,,,,,,,,,,,,,,,,,,,,,,,,,,,,,,,,,,,,,,,,,,,
,,,,,,,5fb596ff69ed590fff92ba8f,605b45a4d25f287719a41696,605cfb896d58ea1f5b7767b4,United States,Midwest,13 or older,no,2021-03-25_17h12.06.385,empathy_intonation_perc,2020.2.10,MacIntel,60,,,,,,,,,,0,castilian,0,1,1.782,0,61,61,44,1,45,./stim/wavs/andalusian_mismatch_declarative-narrow-focus_La-nina-lava-el-plato.wav,./stim/wavs/argentine_mismatch_declarative-narrow-focus_La-nina-lava-el-plato.wav,./stim/wavs/castilian_mismatch_declarative-narrow-focus_La-nina-lava-el-plato.wav,./stim/wavs/chilean_mismatch_declarative-narrow-focus_La-nina-lava-el-plato.wav,./stim/wavs/cuban_mismatch_declarative-narrow-focus_La-nina-lava-el-plato.wav,./stim/wavs/mexican_mismatch_declarative-narrow-focus_La-nina-lava-el-plato.wav,./stim/wavs/peruvian_mismatch_declarative-narrow-focus_La-nina-lava-el-plato.wav,./stim/wavs/puertorican_mismatch_declarative-narrow-focus_La-nina-lava-el-plato.wav,,,,,,,,,,,,,,,,,,,,,,,,,,,,,,,,,,,,,,,,,,,,,,,,,,,,,,,,
,,,,,,,5fb596ff69ed590fff92ba8f,605b45a4d25f287719a41696,605cfb896d58ea1f5b7767b4,United States,Midwest,13 or older,no,2021-03-25_17h12.06.385,empathy_intonation_perc,2020.2.10,MacIntel,60,,,,,,,,,,1,mexican,1,1,1.833,0,62,62,28,1,29,./stim/wavs/andalusian_match_interrogative-total-yn_Manuela-vende-el-carro.wav,./stim/wavs/argentine_match_interrogative-total-yn_Manuela-vende-el-carro.wav,./stim/wavs/castilian_match_interrogative-total-yn_Manuela-vende-el-carro.wav,./stim/wavs/chilean_match_interrogative-total-yn_Manuela-vende-el-carro.wav,./stim/wavs/cuban_match_interrogative-total-yn_Manuela-vende-el-carro.wav,./stim/wavs/mexican_match_interrogative-total-yn_Manuela-vende-el-carro.wav,./stim/wavs/peruvian_match_interrogative-total-yn_Manuela-vende-el-carro.wav,./stim/wavs/puertorican_match_interrogative-total-yn_Manuela-vende-el-carro.wav,,,,,,,,,,,,,,,,,,,,,,,,,,,,,,,,,,,,,,,,,,,,,,,,,,,,,,,,
,,,,,,,5fb596ff69ed590fff92ba8f,605b45a4d25f287719a41696,605cfb896d58ea1f5b7767b4,United States,Midwest,13 or older,no,2021-03-25_17h12.06.385,empathy_intonation_perc,2020.2.10,MacIntel,60,,,,,,,,,,1,mexican,1,1,1.733,0,63,63,24,1,25,./stim/wavs/andalusian_match_interrogative-total-yn_Ana-lleva-el-abrigo.wav,./stim/wavs/argentine_match_interrogative-total-yn_Ana-lleva-el-abrigo.wav,./stim/wavs/castilian_match_interrogative-total-yn_Ana-lleva-el-abrigo.wav,./stim/wavs/chilean_match_interrogative-total-yn_Ana-lleva-el-abrigo.wav,./stim/wavs/cuban_match_interrogative-total-yn_Ana-lleva-el-abrigo.wav,./stim/wavs/mexican_match_interrogative-total-yn_Ana-lleva-el-abrigo.wav,./stim/wavs/peruvian_match_interrogative-total-yn_Ana-lleva-el-abrigo.wav,./stim/wavs/puertorican_match_interrogative-total-yn_Ana-lleva-el-abrigo.wav,,,,,,,,,,,,,,,,,,,,,,,,,,,,,,,,,,,,,,,,,,,,,,,,,,,,,,,,
,,,,,,,5fb596ff69ed590fff92ba8f,605b45a4d25f287719a41696,605cfb896d58ea1f5b7767b4,United States,Midwest,13 or older,no,2021-03-25_17h12.06.385,empathy_intonation_perc,2020.2.10,MacIntel,60,,,,,,,,,,,,,,,,,,,,,,,,,,,,,h,1,16.746,0,0,0,0,1,,,,,,,,,,,,,,,,,,,,,,,,,,,,,,,,,,,,,,,,,,,,,,,,
,,,,,"Great! Now we will move on. The next task consists of about 60 trials, in each of which you will see a string of letters. 
  
  Your task is to decide whether this is a real Spanish word or not.",(press the spacebar to continue),5fb596ff69ed590fff92ba8f,605b45a4d25f287719a41696,605cfb896d58ea1f5b7767b4,United States,Midwest,13 or older,no,2021-03-25_17h12.06.385,empathy_intonation_perc,2020.2.10,MacIntel,60,,,,,,,,,,,,,,,,,,,,,,,,,,,,,,,,,,,,,0,0,0,0,1,,,,,,,,,,,,,,,,,,,,,,,,,,,,,,,,,,,,,,,,,,,
,,,,,"If you think it is an existing Spanish word, you type '1' (for 'REAL'), and if you think it is not an existing Spanish word, you type '0' (for 'FAKE').",(press the spacebar to continue),5fb596ff69ed590fff92ba8f,605b45a4d25f287719a41696,605cfb896d58ea1f5b7767b4,United States,Midwest,13 or older,no,2021-03-25_17h12.06.385,empathy_intonation_perc,2020.2.10,MacIntel,60,,,,,,,,,,,,,,,,,,,,,,,,,,,,,,,,,,,,,0,1,1,1,1,,,,,,,,,,,,,,,,,,,,,,,,,,,,,,,,,,,,,,,,,,,
,,,,,"If you are sure that the word exists, even though you dont know its exact meaning, you may still respond '1' (REAL). 
  
  But if you are not sure if it is an existing word, you should respond '0' (FAKE).
  
  Let's do a practice round...",(press the spacebar to continue),5fb596ff69ed590fff92ba8f,605b45a4d25f287719a41696,605cfb896d58ea1f5b7767b4,United States,Midwest,13 or older,no,2021-03-25_17h12.06.385,empathy_intonation_perc,2020.2.10,MacIntel,60,,,,,,,,,,,,,,,,,,,,,,,,,,,,,,,,,,,,,0,2,2,2,1,,,,,,,,,,,,,,,,,,,,,,,,,,,,,,,,,,,,,,,,,,,
,,,,,,,5fb596ff69ed590fff92ba8f,605b45a4d25f287719a41696,605cfb896d58ea1f5b7767b4,United States,Midwest,13 or older,no,2021-03-25_17h12.06.385,empathy_intonation_perc,2020.2.10,MacIntel,60,,,,,,,,,,0,,,,,,,,,,,,,,,,,,,,,,,,,,,,,,,,0,1,3.387,0,0,0,0,1,0,depiste,REAL,FAKE,,,,,,,,,,,,,,,,,,,,,,,,,,,,,,,
,,,,,,,5fb596ff69ed590fff92ba8f,605b45a4d25f287719a41696,605cfb896d58ea1f5b7767b4,United States,Midwest,13 or older,no,2021-03-25_17h12.06.385,empathy_intonation_perc,2020.2.10,MacIntel,60,,,,,,,,,,1,,,,,,,,,,,,,,,,,,,,,,,,,,,,,,,,1,1,1.549,0,1,1,1,1,0,s,REAL,FAKE,,,,,,,,,,,,,,,,,,,,,,,,,,,,,,,
,,,,,,,5fb596ff69ed590fff92ba8f,605b45a4d25f287719a41696,605cfb896d58ea1f5b7767b4,United States,Midwest,13 or older,no,2021-03-25_17h12.06.385,empathy_intonation_perc,2020.2.10,MacIntel,60,,,,,,,,,,0,,,,,,,,,,,,,,,,,,,,,,,,,,,,,,,,1,0,1.732,0,2,2,2,1,0,con,REAL,FAKE,,,,,,,,,,,,,,,,,,,,,,,,,,,,,,,
,,,,,,,5fb596ff69ed590fff92ba8f,605b45a4d25f287719a41696,605cfb896d58ea1f5b7767b4,United States,Midwest,13 or older,no,2021-03-25_17h12.06.385,empathy_intonation_perc,2020.2.10,MacIntel,60,,,,,,,,,,0,,,,,,,,,,,,,,,,,,,,,,,,,,,,,,,,1,0,1.218,0,3,3,3,1,0,calpar,REAL,FAKE,,,,,,,,,,,,,,,,,,,,,,,,,,,,,,,
,,,,,,,5fb596ff69ed590fff92ba8f,605b45a4d25f287719a41696,605cfb896d58ea1f5b7767b4,United States,Midwest,13 or older,no,2021-03-25_17h12.06.385,empathy_intonation_perc,2020.2.10,MacIntel,60,,,,,,,,,,0,,,,,,,,,,,,,,,,,,,,,,,,,,,,,,,,0,1,1.316,0,4,4,4,1,0,joten,REAL,FAKE,,,,,,,,,,,,,,,,,,,,,,,,,,,,,,,
,,,,,,,5fb596ff69ed590fff92ba8f,605b45a4d25f287719a41696,605cfb896d58ea1f5b7767b4,United States,Midwest,13 or older,no,2021-03-25_17h12.06.385,empathy_intonation_perc,2020.2.10,MacIntel,60,,,,,,,,,,1,,,,,,,,,,,,,,,,,,,,,,,,,,,,,,,,1,1,1.946,0,5,5,5,1,0,sacapuntas,REAL,FAKE,,,,,,,,,,,,,,,,,,,,,,,,,,,,,,,
,,,,,,,5fb596ff69ed590fff92ba8f,605b45a4d25f287719a41696,605cfb896d58ea1f5b7767b4,United States,Midwest,13 or older,no,2021-03-25_17h12.06.385,empathy_intonation_perc,2020.2.10,MacIntel,60,,,,,,,,,,0,,,,,,,,,,,,,,,,,,,,,,,,,,,,,,,,1,0,1.466,0,6,6,6,1,0,priba,REAL,FAKE,,,,,,,,,,,,,,,,,,,,,,,,,,,,,,,
,,,,,,,5fb596ff69ed590fff92ba8f,605b45a4d25f287719a41696,605cfb896d58ea1f5b7767b4,United States,Midwest,13 or older,no,2021-03-25_17h12.06.385,empathy_intonation_perc,2020.2.10,MacIntel,60,,,,,,,,,,0,,,,,,,,,,,,,,,,,,,,,,,,,,,,,,,,1,0,2.079,0,7,7,7,1,0,pelasula,REAL,FAKE,,,,,,,,,,,,,,,,,,,,,,,,,,,,,,,
,,,,,,,5fb596ff69ed590fff92ba8f,605b45a4d25f287719a41696,605cfb896d58ea1f5b7767b4,United States,Midwest,13 or older,no,2021-03-25_17h12.06.385,empathy_intonation_perc,2020.2.10,MacIntel,60,,,,,,,,,,1,,,,,,,,,,,,,,,,,,,,,,,,,,,,,,,,1,1,0.798,0,8,8,8,1,0,bien,REAL,FAKE,,,,,,,,,,,,,,,,,,,,,,,,,,,,,,,
,,,,,,,5fb596ff69ed590fff92ba8f,605b45a4d25f287719a41696,605cfb896d58ea1f5b7767b4,United States,Midwest,13 or older,no,2021-03-25_17h12.06.385,empathy_intonation_perc,2020.2.10,MacIntel,60,,,,,,,,,,1,,,,,,,,,,,,,,,,,,,,,,,,,,,,,,,,1,1,0.817,0,9,9,9,1,0,casa,REAL,FAKE,,,,,,,,,,,,,,,,,,,,,,,,,,,,,,,
,,,,,,,5fb596ff69ed590fff92ba8f,605b45a4d25f287719a41696,605cfb896d58ea1f5b7767b4,United States,Midwest,13 or older,no,2021-03-25_17h12.06.385,empathy_intonation_perc,2020.2.10,MacIntel,60,,,,,,,,,,0,,,,,,,,,,,,,,,,,,,,,,,,,,,,,,,,1,0,1.448,0,10,10,10,1,0,lejo,REAL,FAKE,,,,,,,,,,,,,,,,,,,,,,,,,,,,,,,
,,,,,,,5fb596ff69ed590fff92ba8f,605b45a4d25f287719a41696,605cfb896d58ea1f5b7767b4,United States,Midwest,13 or older,no,2021-03-25_17h12.06.385,empathy_intonation_perc,2020.2.10,MacIntel,60,,,,,,,,,,0,,,,,,,,,,,,,,,,,,,,,,,,,,,,,,,,0,1,1.951,0,11,11,11,1,0,pretantas,REAL,FAKE,,,,,,,,,,,,,,,,,,,,,,,,,,,,,,,
,,,,,,,5fb596ff69ed590fff92ba8f,605b45a4d25f287719a41696,605cfb896d58ea1f5b7767b4,United States,Midwest,13 or older,no,2021-03-25_17h12.06.385,empathy_intonation_perc,2020.2.10,MacIntel,60,,,,,,,,,,1,,,,,,,,,,,,,,,,,,,,,,,,,,,,,,,,,,,,,,,,62,flaco,,,1,1,1.033,0,0,0,61,1,REAL,FAKE,,,,,,,,,,,,,,,,,,,,,
,,,,,,,5fb596ff69ed590fff92ba8f,605b45a4d25f287719a41696,605cfb896d58ea1f5b7767b4,United States,Midwest,13 or older,no,2021-03-25_17h12.06.385,empathy_intonation_perc,2020.2.10,MacIntel,60,,,,,,,,,,0,,,,,,,,,,,,,,,,,,,,,,,,,,,,,,,,,,,,,,,,53,vegada,,,0,1,1.217,0,1,1,52,1,REAL,FAKE,,,,,,,,,,,,,,,,,,,,,
,,,,,,,5fb596ff69ed590fff92ba8f,605b45a4d25f287719a41696,605cfb896d58ea1f5b7767b4,United States,Midwest,13 or older,no,2021-03-25_17h12.06.385,empathy_intonation_perc,2020.2.10,MacIntel,60,,,,,,,,,,0,,,,,,,,,,,,,,,,,,,,,,,,,,,,,,,,,,,,,,,,87,grodo,,,0,1,1.067,0,2,2,86,1,REAL,FAKE,,,,,,,,,,,,,,,,,,,,,
,,,,,,,5fb596ff69ed590fff92ba8f,605b45a4d25f287719a41696,605cfb896d58ea1f5b7767b4,United States,Midwest,13 or older,no,2021-03-25_17h12.06.385,empathy_intonation_perc,2020.2.10,MacIntel,60,,,,,,,,,,1,,,,,,,,,,,,,,,,,,,,,,,,,,,,,,,,,,,,,,,,43,canela,,,0,0,0.852,0,3,3,42,1,REAL,FAKE,,,,,,,,,,,,,,,,,,,,,
,,,,,,,5fb596ff69ed590fff92ba8f,605b45a4d25f287719a41696,605cfb896d58ea1f5b7767b4,United States,Midwest,13 or older,no,2021-03-25_17h12.06.385,empathy_intonation_perc,2020.2.10,MacIntel,60,,,,,,,,,,1,,,,,,,,,,,,,,,,,,,,,,,,,,,,,,,,,,,,,,,,34,aviso,,,0,0,0.95,0,4,4,33,1,REAL,FAKE,,,,,,,,,,,,,,,,,,,,,
,,,,,,,5fb596ff69ed590fff92ba8f,605b45a4d25f287719a41696,605cfb896d58ea1f5b7767b4,United States,Midwest,13 or older,no,2021-03-25_17h12.06.385,empathy_intonation_perc,2020.2.10,MacIntel,60,,,,,,,,,,0,,,,,,,,,,,,,,,,,,,,,,,,,,,,,,,,,,,,,,,,17,floroso,,,0,1,1.014,0,5,5,16,1,REAL,FAKE,,,,,,,,,,,,,,,,,,,,,
,,,,,,,5fb596ff69ed590fff92ba8f,605b45a4d25f287719a41696,605cfb896d58ea1f5b7767b4,United States,Midwest,13 or older,no,2021-03-25_17h12.06.385,empathy_intonation_perc,2020.2.10,MacIntel,60,,,,,,,,,,0,,,,,,,,,,,,,,,,,,,,,,,,,,,,,,,,,,,,,,,,66,hacido,,,1,0,1.421,0,6,6,65,1,REAL,FAKE,,,,,,,,,,,,,,,,,,,,,
,,,,,,,5fb596ff69ed590fff92ba8f,605b45a4d25f287719a41696,605cfb896d58ea1f5b7767b4,United States,Midwest,13 or older,no,2021-03-25_17h12.06.385,empathy_intonation_perc,2020.2.10,MacIntel,60,,,,,,,,,,1,,,,,,,,,,,,,,,,,,,,,,,,,,,,,,,,,,,,,,,,36,loro,,,0,0,0.767,0,7,7,35,1,REAL,FAKE,,,,,,,,,,,,,,,,,,,,,
,,,,,,,5fb596ff69ed590fff92ba8f,605b45a4d25f287719a41696,605cfb896d58ea1f5b7767b4,United States,Midwest,13 or older,no,2021-03-25_17h12.06.385,empathy_intonation_perc,2020.2.10,MacIntel,60,,,,,,,,,,1,,,,,,,,,,,,,,,,,,,,,,,,,,,,,,,,,,,,,,,,73,hervidor,,,0,0,1.332,0,8,8,72,1,REAL,FAKE,,,,,,,,,,,,,,,,,,,,,
,,,,,,,5fb596ff69ed590fff92ba8f,605b45a4d25f287719a41696,605cfb896d58ea1f5b7767b4,United States,Midwest,13 or older,no,2021-03-25_17h12.06.385,empathy_intonation_perc,2020.2.10,MacIntel,60,,,,,,,,,,1,,,,,,,,,,,,,,,,,,,,,,,,,,,,,,,,,,,,,,,,65,bizcocho,,,0,0,1.231,0,9,9,64,1,REAL,FAKE,,,,,,,,,,,,,,,,,,,,,
,,,,,,,5fb596ff69ed590fff92ba8f,605b45a4d25f287719a41696,605cfb896d58ea1f5b7767b4,United States,Midwest,13 or older,no,2021-03-25_17h12.06.385,empathy_intonation_perc,2020.2.10,MacIntel,60,,,,,,,,,,1,,,,,,,,,,,,,,,,,,,,,,,,,,,,,,,,,,,,,,,,49,ganar,,,1,1,1.019,0,10,10,48,1,REAL,FAKE,,,,,,,,,,,,,,,,,,,,,
,,,,,,,5fb596ff69ed590fff92ba8f,605b45a4d25f287719a41696,605cfb896d58ea1f5b7767b4,United States,Midwest,13 or older,no,2021-03-25_17h12.06.385,empathy_intonation_perc,2020.2.10,MacIntel,60,,,,,,,,,,0,,,,,,,,,,,,,,,,,,,,,,,,,,,,,,,,,,,,,,,,19,brecedad,,,0,1,0.855,0,11,11,18,1,REAL,FAKE,,,,,,,,,,,,,,,,,,,,,
,,,,,,,5fb596ff69ed590fff92ba8f,605b45a4d25f287719a41696,605cfb896d58ea1f5b7767b4,United States,Midwest,13 or older,no,2021-03-25_17h12.06.385,empathy_intonation_perc,2020.2.10,MacIntel,60,,,,,,,,,,1,,,,,,,,,,,,,,,,,,,,,,,,,,,,,,,,,,,,,,,,77,tiburn,,,0,0,1.133,0,12,12,76,1,REAL,FAKE,,,,,,,,,,,,,,,,,,,,,
,,,,,,,5fb596ff69ed590fff92ba8f,605b45a4d25f287719a41696,605cfb896d58ea1f5b7767b4,United States,Midwest,13 or older,no,2021-03-25_17h12.06.385,empathy_intonation_perc,2020.2.10,MacIntel,60,,,,,,,,,,1,,,,,,,,,,,,,,,,,,,,,,,,,,,,,,,,,,,,,,,,22,lacayo,,,0,0,0.973,0,13,13,21,1,REAL,FAKE,,,,,,,,,,,,,,,,,,,,,
,,,,,,,5fb596ff69ed590fff92ba8f,605b45a4d25f287719a41696,605cfb896d58ea1f5b7767b4,United States,Midwest,13 or older,no,2021-03-25_17h12.06.385,empathy_intonation_perc,2020.2.10,MacIntel,60,,,,,,,,,,1,,,,,,,,,,,,,,,,,,,,,,,,,,,,,,,,,,,,,,,,71,polvoriento,,,0,0,1.082,0,14,14,70,1,REAL,FAKE,,,,,,,,,,,,,,,,,,,,,
,,,,,,,5fb596ff69ed590fff92ba8f,605b45a4d25f287719a41696,605cfb896d58ea1f5b7767b4,United States,Midwest,13 or older,no,2021-03-25_17h12.06.385,empathy_intonation_perc,2020.2.10,MacIntel,60,,,,,,,,,,1,,,,,,,,,,,,,,,,,,,,,,,,,,,,,,,,,,,,,,,,83,guante,,,0,0,0.871,0,15,15,82,1,REAL,FAKE,,,,,,,,,,,,,,,,,,,,,
,,,,,,,5fb596ff69ed590fff92ba8f,605b45a4d25f287719a41696,605cfb896d58ea1f5b7767b4,United States,Midwest,13 or older,no,2021-03-25_17h12.06.385,empathy_intonation_perc,2020.2.10,MacIntel,60,,,,,,,,,,0,,,,,,,,,,,,,,,,,,,,,,,,,,,,,,,,,,,,,,,,50,flamida,,,0,1,0.869,0,16,16,49,1,REAL,FAKE,,,,,,,,,,,,,,,,,,,,,
,,,,,,,5fb596ff69ed590fff92ba8f,605b45a4d25f287719a41696,605cfb896d58ea1f5b7767b4,United States,Midwest,13 or older,no,2021-03-25_17h12.06.385,empathy_intonation_perc,2020.2.10,MacIntel,60,,,,,,,,,,1,,,,,,,,,,,,,,,,,,,,,,,,,,,,,,,,,,,,,,,,28,merodear,,,0,0,0.781,0,17,17,27,1,REAL,FAKE,,,,,,,,,,,,,,,,,,,,,
,,,,,,,5fb596ff69ed590fff92ba8f,605b45a4d25f287719a41696,605cfb896d58ea1f5b7767b4,United States,Midwest,13 or older,no,2021-03-25_17h12.06.385,empathy_intonation_perc,2020.2.10,MacIntel,60,,,,,,,,,,1,,,,,,,,,,,,,,,,,,,,,,,,,,,,,,,,,,,,,,,,54,fomentar,,,0,0,1.017,0,18,18,53,1,REAL,FAKE,,,,,,,,,,,,,,,,,,,,,
,,,,,,,5fb596ff69ed590fff92ba8f,605b45a4d25f287719a41696,605cfb896d58ea1f5b7767b4,United States,Midwest,13 or older,no,2021-03-25_17h12.06.385,empathy_intonation_perc,2020.2.10,MacIntel,60,,,,,,,,,,1,,,,,,,,,,,,,,,,,,,,,,,,,,,,,,,,,,,,,,,,89,prisa,,,0,0,1.415,0,19,19,88,1,REAL,FAKE,,,,,,,,,,,,,,,,,,,,,
,,,,,,,5fb596ff69ed590fff92ba8f,605b45a4d25f287719a41696,605cfb896d58ea1f5b7767b4,United States,Midwest,13 or older,no,2021-03-25_17h12.06.385,empathy_intonation_perc,2020.2.10,MacIntel,60,,,,,,,,,,0,,,,,,,,,,,,,,,,,,,,,,,,,,,,,,,,,,,,,,,,58,plaudir,,,0,1,1.268,0,20,20,57,1,REAL,FAKE,,,,,,,,,,,,,,,,,,,,,
,,,,,,,5fb596ff69ed590fff92ba8f,605b45a4d25f287719a41696,605cfb896d58ea1f5b7767b4,United States,Midwest,13 or older,no,2021-03-25_17h12.06.385,empathy_intonation_perc,2020.2.10,MacIntel,60,,,,,,,,,,1,,,,,,,,,,,,,,,,,,,,,,,,,,,,,,,,,,,,,,,,45,jilguero,,,0,0,1.269,0,21,21,44,1,REAL,FAKE,,,,,,,,,,,,,,,,,,,,,
,,,,,,,5fb596ff69ed590fff92ba8f,605b45a4d25f287719a41696,605cfb896d58ea1f5b7767b4,United States,Midwest,13 or older,no,2021-03-25_17h12.06.385,empathy_intonation_perc,2020.2.10,MacIntel,60,,,,,,,,,,0,,,,,,,,,,,,,,,,,,,,,,,,,,,,,,,,,,,,,,,,72,pemicin,,,0,1,1.137,0,22,22,71,1,REAL,FAKE,,,,,,,,,,,,,,,,,,,,,
,,,,,,,5fb596ff69ed590fff92ba8f,605b45a4d25f287719a41696,605cfb896d58ea1f5b7767b4,United States,Midwest,13 or older,no,2021-03-25_17h12.06.385,empathy_intonation_perc,2020.2.10,MacIntel,60,,,,,,,,,,0,,,,,,,,,,,,,,,,,,,,,,,,,,,,,,,,,,,,,,,,29,decar,,,1,0,1.184,0,23,23,28,1,REAL,FAKE,,,,,,,,,,,,,,,,,,,,,
,,,,,,,5fb596ff69ed590fff92ba8f,605b45a4d25f287719a41696,605cfb896d58ea1f5b7767b4,United States,Midwest,13 or older,no,2021-03-25_17h12.06.385,empathy_intonation_perc,2020.2.10,MacIntel,60,,,,,,,,,,0,,,,,,,,,,,,,,,,,,,,,,,,,,,,,,,,,,,,,,,,4,batilln,,,0,1,0.865,0,24,24,3,1,REAL,FAKE,,,,,,,,,,,,,,,,,,,,,
,,,,,,,5fb596ff69ed590fff92ba8f,605b45a4d25f287719a41696,605cfb896d58ea1f5b7767b4,United States,Midwest,13 or older,no,2021-03-25_17h12.06.385,empathy_intonation_perc,2020.2.10,MacIntel,60,,,,,,,,,,0,,,,,,,,,,,,,,,,,,,,,,,,,,,,,,,,,,,,,,,,47,cartinar,,,0,1,0.989,0,25,25,46,1,REAL,FAKE,,,,,,,,,,,,,,,,,,,,,
,,,,,,,5fb596ff69ed590fff92ba8f,605b45a4d25f287719a41696,605cfb896d58ea1f5b7767b4,United States,Midwest,13 or older,no,2021-03-25_17h12.06.385,empathy_intonation_perc,2020.2.10,MacIntel,60,,,,,,,,,,1,,,,,,,,,,,,,,,,,,,,,,,,,,,,,,,,,,,,,,,,41,rebuscar,,,0,0,1.115,0,26,26,40,1,REAL,FAKE,,,,,,,,,,,,,,,,,,,,,
,,,,,,,5fb596ff69ed590fff92ba8f,605b45a4d25f287719a41696,605cfb896d58ea1f5b7767b4,United States,Midwest,13 or older,no,2021-03-25_17h12.06.385,empathy_intonation_perc,2020.2.10,MacIntel,60,,,,,,,,,,1,,,,,,,,,,,,,,,,,,,,,,,,,,,,,,,,,,,,,,,,37,granuja,,,0,0,1.566,0,27,27,36,1,REAL,FAKE,,,,,,,,,,,,,,,,,,,,,
,,,,,,,5fb596ff69ed590fff92ba8f,605b45a4d25f287719a41696,605cfb896d58ea1f5b7767b4,United States,Midwest,13 or older,no,2021-03-25_17h12.06.385,empathy_intonation_perc,2020.2.10,MacIntel,60,,,,,,,,,,1,,,,,,,,,,,,,,,,,,,,,,,,,,,,,,,,,,,,,,,,9,hacha,,,0,0,2.312,0,28,28,8,1,REAL,FAKE,,,,,,,,,,,,,,,,,,,,,
,,,,,,,5fb596ff69ed590fff92ba8f,605b45a4d25f287719a41696,605cfb896d58ea1f5b7767b4,United States,Midwest,13 or older,no,2021-03-25_17h12.06.385,empathy_intonation_perc,2020.2.10,MacIntel,60,,,,,,,,,,0,,,,,,,,,,,,,,,,,,,,,,,,,,,,,,,,,,,,,,,,33,pauca,,,0,1,0.94,0,29,29,32,1,REAL,FAKE,,,,,,,,,,,,,,,,,,,,,
,,,,,,,5fb596ff69ed590fff92ba8f,605b45a4d25f287719a41696,605cfb896d58ea1f5b7767b4,United States,Midwest,13 or older,no,2021-03-25_17h12.06.385,empathy_intonation_perc,2020.2.10,MacIntel,60,,,,,,,,,,0,,,,,,,,,,,,,,,,,,,,,,,,,,,,,,,,,,,,,,,,10,antar,,,1,0,1.563,0,30,30,9,1,REAL,FAKE,,,,,,,,,,,,,,,,,,,,,
,,,,,,,5fb596ff69ed590fff92ba8f,605b45a4d25f287719a41696,605cfb896d58ea1f5b7767b4,United States,Midwest,13 or older,no,2021-03-25_17h12.06.385,empathy_intonation_perc,2020.2.10,MacIntel,60,,,,,,,,,,0,,,,,,,,,,,,,,,,,,,,,,,,,,,,,,,,,,,,,,,,70,temblo,,,0,1,0.851,0,31,31,69,1,REAL,FAKE,,,,,,,,,,,,,,,,,,,,,
,,,,,,,5fb596ff69ed590fff92ba8f,605b45a4d25f287719a41696,605cfb896d58ea1f5b7767b4,United States,Midwest,13 or older,no,2021-03-25_17h12.06.385,empathy_intonation_perc,2020.2.10,MacIntel,60,,,,,,,,,,0,,,,,,,,,,,,,,,,,,,,,,,,,,,,,,,,,,,,,,,,82,empirador,,,0,1,1.451,0,32,32,81,1,REAL,FAKE,,,,,,,,,,,,,,,,,,,,,
,,,,,,,5fb596ff69ed590fff92ba8f,605b45a4d25f287719a41696,605cfb896d58ea1f5b7767b4,United States,Midwest,13 or older,no,2021-03-25_17h12.06.385,empathy_intonation_perc,2020.2.10,MacIntel,60,,,,,,,,,,0,,,,,,,,,,,,,,,,,,,,,,,,,,,,,,,,,,,,,,,,42,cadallo,,,0,1,1.081,0,33,33,41,1,REAL,FAKE,,,,,,,,,,,,,,,,,,,,,
,,,,,,,5fb596ff69ed590fff92ba8f,605b45a4d25f287719a41696,605cfb896d58ea1f5b7767b4,United States,Midwest,13 or older,no,2021-03-25_17h12.06.385,empathy_intonation_perc,2020.2.10,MacIntel,60,,,,,,,,,,1,,,,,,,,,,,,,,,,,,,,,,,,,,,,,,,,,,,,,,,,90,clavel,,,0,0,1.016,0,34,34,89,1,REAL,FAKE,,,,,,,,,,,,,,,,,,,,,
,,,,,,,5fb596ff69ed590fff92ba8f,605b45a4d25f287719a41696,605cfb896d58ea1f5b7767b4,United States,Midwest,13 or older,no,2021-03-25_17h12.06.385,empathy_intonation_perc,2020.2.10,MacIntel,60,,,,,,,,,,1,,,,,,,,,,,,,,,,,,,,,,,,,,,,,,,,,,,,,,,,31,pandilla,,,0,0,0.835,0,35,35,30,1,REAL,FAKE,,,,,,,,,,,,,,,,,,,,,
,,,,,,,5fb596ff69ed590fff92ba8f,605b45a4d25f287719a41696,605cfb896d58ea1f5b7767b4,United States,Midwest,13 or older,no,2021-03-25_17h12.06.385,empathy_intonation_perc,2020.2.10,MacIntel,60,,,,,,,,,,0,,,,,,,,,,,,,,,,,,,,,,,,,,,,,,,,,,,,,,,,30,alardio,,,0,1,0.685,0,36,36,29,1,REAL,FAKE,,,,,,,,,,,,,,,,,,,,,
,,,,,,,5fb596ff69ed590fff92ba8f,605b45a4d25f287719a41696,605cfb896d58ea1f5b7767b4,United States,Midwest,13 or older,no,2021-03-25_17h12.06.385,empathy_intonation_perc,2020.2.10,MacIntel,60,,,,,,,,,,1,,,,,,,,,,,,,,,,,,,,,,,,,,,,,,,,,,,,,,,,88,acantilado,,,0,0,0.817,0,37,37,87,1,REAL,FAKE,,,,,,,,,,,,,,,,,,,,,
,,,,,,,5fb596ff69ed590fff92ba8f,605b45a4d25f287719a41696,605cfb896d58ea1f5b7767b4,United States,Midwest,13 or older,no,2021-03-25_17h12.06.385,empathy_intonation_perc,2020.2.10,MacIntel,60,,,,,,,,,,1,,,,,,,,,,,,,,,,,,,,,,,,,,,,,,,,,,,,,,,,12,asesinato,,,0,0,0.768,0,38,38,11,1,REAL,FAKE,,,,,,,,,,,,,,,,,,,,,
,,,,,,,5fb596ff69ed590fff92ba8f,605b45a4d25f287719a41696,605cfb896d58ea1f5b7767b4,United States,Midwest,13 or older,no,2021-03-25_17h12.06.385,empathy_intonation_perc,2020.2.10,MacIntel,60,,,,,,,,,,1,,,,,,,,,,,,,,,,,,,,,,,,,,,,,,,,,,,,,,,,55,nevar,,,0,0,0.836,0,39,39,54,1,REAL,FAKE,,,,,,,,,,,,,,,,,,,,,
,,,,,,,5fb596ff69ed590fff92ba8f,605b45a4d25f287719a41696,605cfb896d58ea1f5b7767b4,United States,Midwest,13 or older,no,2021-03-25_17h12.06.385,empathy_intonation_perc,2020.2.10,MacIntel,60,,,,,,,,,,0,,,,,,,,,,,,,,,,,,,,,,,,,,,,,,,,,,,,,,,,32,fatacidad,,,0,1,0.701,0,40,40,31,1,REAL,FAKE,,,,,,,,,,,,,,,,,,,,,
,,,,,,,5fb596ff69ed590fff92ba8f,605b45a4d25f287719a41696,605cfb896d58ea1f5b7767b4,United States,Midwest,13 or older,no,2021-03-25_17h12.06.385,empathy_intonation_perc,2020.2.10,MacIntel,60,,,,,,,,,,1,,,,,,,,,,,,,,,,,,,,,,,,,,,,,,,,,,,,,,,,51,candado,,,0,0,1,0,41,41,50,1,REAL,FAKE,,,,,,,,,,,,,,,,,,,,,
,,,,,,,5fb596ff69ed590fff92ba8f,605b45a4d25f287719a41696,605cfb896d58ea1f5b7767b4,United States,Midwest,13 or older,no,2021-03-25_17h12.06.385,empathy_intonation_perc,2020.2.10,MacIntel,60,,,,,,,,,,0,,,,,,,,,,,,,,,,,,,,,,,,,,,,,,,,,,,,,,,,27,acutacin,,,0,1,0.935,0,42,42,26,1,REAL,FAKE,,,,,,,,,,,,,,,,,,,,,
,,,,,,,5fb596ff69ed590fff92ba8f,605b45a4d25f287719a41696,605cfb896d58ea1f5b7767b4,United States,Midwest,13 or older,no,2021-03-25_17h12.06.385,empathy_intonation_perc,2020.2.10,MacIntel,60,,,,,,,,,,1,,,,,,,,,,,,,,,,,,,,,,,,,,,,,,,,,,,,,,,,85,lad,,,0,0,0.834,0,43,43,84,1,REAL,FAKE,,,,,,,,,,,,,,,,,,,,,
,,,,,,,5fb596ff69ed590fff92ba8f,605b45a4d25f287719a41696,605cfb896d58ea1f5b7767b4,United States,Midwest,13 or older,no,2021-03-25_17h12.06.385,empathy_intonation_perc,2020.2.10,MacIntel,60,,,,,,,,,,1,,,,,,,,,,,,,,,,,,,,,,,,,,,,,,,,,,,,,,,,38,estornudar,,,0,0,0.934,0,44,44,37,1,REAL,FAKE,,,,,,,,,,,,,,,,,,,,,
,,,,,,,5fb596ff69ed590fff92ba8f,605b45a4d25f287719a41696,605cfb896d58ea1f5b7767b4,United States,Midwest,13 or older,no,2021-03-25_17h12.06.385,empathy_intonation_perc,2020.2.10,MacIntel,60,,,,,,,,,,0,,,,,,,,,,,,,,,,,,,,,,,,,,,,,,,,,,,,,,,,74,cintro,,,0,1,1.136,0,45,45,73,1,REAL,FAKE,,,,,,,,,,,,,,,,,,,,,
,,,,,,,5fb596ff69ed590fff92ba8f,605b45a4d25f287719a41696,605cfb896d58ea1f5b7767b4,United States,Midwest,13 or older,no,2021-03-25_17h12.06.385,empathy_intonation_perc,2020.2.10,MacIntel,60,,,,,,,,,,1,,,,,,,,,,,,,,,,,,,,,,,,,,,,,,,,,,,,,,,,6,tergiversar,,,0,0,1.001,0,46,46,5,1,REAL,FAKE,,,,,,,,,,,,,,,,,,,,,
,,,,,,,5fb596ff69ed590fff92ba8f,605b45a4d25f287719a41696,605cfb896d58ea1f5b7767b4,United States,Midwest,13 or older,no,2021-03-25_17h12.06.385,empathy_intonation_perc,2020.2.10,MacIntel,60,,,,,,,,,,1,,,,,,,,,,,,,,,,,,,,,,,,,,,,,,,,,,,,,,,,7,psimo,,,0,0,1.632,0,47,47,6,1,REAL,FAKE,,,,,,,,,,,,,,,,,,,,,
,,,,,,,5fb596ff69ed590fff92ba8f,605b45a4d25f287719a41696,605cfb896d58ea1f5b7767b4,United States,Midwest,13 or older,no,2021-03-25_17h12.06.385,empathy_intonation_perc,2020.2.10,MacIntel,60,,,,,,,,,,1,,,,,,,,,,,,,,,,,,,,,,,,,,,,,,,,,,,,,,,,68,alegre,,,0,0,1.049,0,48,48,67,1,REAL,FAKE,,,,,,,,,,,,,,,,,,,,,
,,,,,,,5fb596ff69ed590fff92ba8f,605b45a4d25f287719a41696,605cfb896d58ea1f5b7767b4,United States,Midwest,13 or older,no,2021-03-25_17h12.06.385,empathy_intonation_perc,2020.2.10,MacIntel,60,,,,,,,,,,0,,,,,,,,,,,,,,,,,,,,,,,,,,,,,,,,,,,,,,,,18,arsa,,,0,1,0.92,0,49,49,17,1,REAL,FAKE,,,,,,,,,,,,,,,,,,,,,
,,,,,,,5fb596ff69ed590fff92ba8f,605b45a4d25f287719a41696,605cfb896d58ea1f5b7767b4,United States,Midwest,13 or older,no,2021-03-25_17h12.06.385,empathy_intonation_perc,2020.2.10,MacIntel,60,,,,,,,,,,1,,,,,,,,,,,,,,,,,,,,,,,,,,,,,,,,,,,,,,,,39,torpe,,,0,0,1.17,0,50,50,38,1,REAL,FAKE,,,,,,,,,,,,,,,,,,,,,
,,,,,,,5fb596ff69ed590fff92ba8f,605b45a4d25f287719a41696,605cfb896d58ea1f5b7767b4,United States,Midwest,13 or older,no,2021-03-25_17h12.06.385,empathy_intonation_perc,2020.2.10,MacIntel,60,,,,,,,,,,1,,,,,,,,,,,,,,,,,,,,,,,,,,,,,,,,,,,,,,,,86,barato,,,0,0,1.098,0,51,51,85,1,REAL,FAKE,,,,,,,,,,,,,,,,,,,,,
,,,,,,,5fb596ff69ed590fff92ba8f,605b45a4d25f287719a41696,605cfb896d58ea1f5b7767b4,United States,Midwest,13 or older,no,2021-03-25_17h12.06.385,empathy_intonation_perc,2020.2.10,MacIntel,60,,,,,,,,,,0,,,,,,,,,,,,,,,,,,,,,,,,,,,,,,,,,,,,,,,,8,cadea,,,0,1,1.215,0,52,52,7,1,REAL,FAKE,,,,,,,,,,,,,,,,,,,,,
,,,,,,,5fb596ff69ed590fff92ba8f,605b45a4d25f287719a41696,605cfb896d58ea1f5b7767b4,United States,Midwest,13 or older,no,2021-03-25_17h12.06.385,empathy_intonation_perc,2020.2.10,MacIntel,60,,,,,,,,,,1,,,,,,,,,,,,,,,,,,,,,,,,,,,,,,,,,,,,,,,,11,cenefa,,,0,0,1.084,0,53,53,10,1,REAL,FAKE,,,,,,,,,,,,,,,,,,,,,
,,,,,,,5fb596ff69ed590fff92ba8f,605b45a4d25f287719a41696,605cfb896d58ea1f5b7767b4,United States,Midwest,13 or older,no,2021-03-25_17h12.06.385,empathy_intonation_perc,2020.2.10,MacIntel,60,,,,,,,,,,1,,,,,,,,,,,,,,,,,,,,,,,,,,,,,,,,,,,,,,,,81,pozo,,,0,0,1.034,0,54,54,80,1,REAL,FAKE,,,,,,,,,,,,,,,,,,,,,
,,,,,,,5fb596ff69ed590fff92ba8f,605b45a4d25f287719a41696,605cfb896d58ea1f5b7767b4,United States,Midwest,13 or older,no,2021-03-25_17h12.06.385,empathy_intonation_perc,2020.2.10,MacIntel,60,,,,,,,,,,1,,,,,,,,,,,,,,,,,,,,,,,,,,,,,,,,,,,,,,,,56,musgo,,,0,0,0.907,0,55,55,55,1,REAL,FAKE,,,,,,,,,,,,,,,,,,,,,
,,,,,,,5fb596ff69ed590fff92ba8f,605b45a4d25f287719a41696,605cfb896d58ea1f5b7767b4,United States,Midwest,13 or older,no,2021-03-25_17h12.06.385,empathy_intonation_perc,2020.2.10,MacIntel,60,,,,,,,,,,1,,,,,,,,,,,,,,,,,,,,,,,,,,,,,,,,,,,,,,,,69,engatusar,,,0,0,0.884,0,56,56,68,1,REAL,FAKE,,,,,,,,,,,,,,,,,,,,,
,,,,,,,5fb596ff69ed590fff92ba8f,605b45a4d25f287719a41696,605cfb896d58ea1f5b7767b4,United States,Midwest,13 or older,no,2021-03-25_17h12.06.385,empathy_intonation_perc,2020.2.10,MacIntel,60,,,,,,,,,,1,,,,,,,,,,,,,,,,,,,,,,,,,,,,,,,,,,,,,,,,24,ltigo,,,0,0,0.767,0,57,57,23,1,REAL,FAKE,,,,,,,,,,,,,,,,,,,,,
,,,,,,,5fb596ff69ed590fff92ba8f,605b45a4d25f287719a41696,605cfb896d58ea1f5b7767b4,United States,Midwest,13 or older,no,2021-03-25_17h12.06.385,empathy_intonation_perc,2020.2.10,MacIntel,60,,,,,,,,,,0,,,,,,,,,,,,,,,,,,,,,,,,,,,,,,,,,,,,,,,,63,esposante,,,0,1,1.416,0,58,58,62,1,REAL,FAKE,,,,,,,,,,,,,,,,,,,,,
,,,,,,,5fb596ff69ed590fff92ba8f,605b45a4d25f287719a41696,605cfb896d58ea1f5b7767b4,United States,Midwest,13 or older,no,2021-03-25_17h12.06.385,empathy_intonation_perc,2020.2.10,MacIntel,60,,,,,,,,,,1,,,,,,,,,,,,,,,,,,,,,,,,,,,,,,,,,,,,,,,,44,cuchara,,,1,1,2.117,0,59,59,43,1,REAL,FAKE,,,,,,,,,,,,,,,,,,,,,
,,,,,,,5fb596ff69ed590fff92ba8f,605b45a4d25f287719a41696,605cfb896d58ea1f5b7767b4,United States,Midwest,13 or older,no,2021-03-25_17h12.06.385,empathy_intonation_perc,2020.2.10,MacIntel,60,,,,,,,,,,1,,,,,,,,,,,,,,,,,,,,,,,,,,,,,,,,,,,,,,,,13,helar,,,0,0,1.3,0,60,60,12,1,REAL,FAKE,,,,,,,,,,,,,,,,,,,,,
,,,,,,,5fb596ff69ed590fff92ba8f,605b45a4d25f287719a41696,605cfb896d58ea1f5b7767b4,United States,Midwest,13 or older,no,2021-03-25_17h12.06.385,empathy_intonation_perc,2020.2.10,MacIntel,60,,,,,,,,,,0,,,,,,,,,,,,,,,,,,,,,,,,,,,,,,,,,,,,,,,,84,escuto,,,0,1,1.021,0,61,61,83,1,REAL,FAKE,,,,,,,,,,,,,,,,,,,,,
,,,,,,,5fb596ff69ed590fff92ba8f,605b45a4d25f287719a41696,605cfb896d58ea1f5b7767b4,United States,Midwest,13 or older,no,2021-03-25_17h12.06.385,empathy_intonation_perc,2020.2.10,MacIntel,60,,,,,,,,,,1,,,,,,,,,,,,,,,,,,,,,,,,,,,,,,,,,,,,,,,,3,pulmones,,,1,1,1.452,0,62,62,2,1,REAL,FAKE,,,,,,,,,,,,,,,,,,,,,
,,,,,,,5fb596ff69ed590fff92ba8f,605b45a4d25f287719a41696,605cfb896d58ea1f5b7767b4,United States,Midwest,13 or older,no,2021-03-25_17h12.06.385,empathy_intonation_perc,2020.2.10,MacIntel,60,,,,,,,,,,1,,,,,,,,,,,,,,,,,,,,,,,,,,,,,,,,,,,,,,,,20,vido,,,0,0,1.184,0,63,63,19,1,REAL,FAKE,,,,,,,,,,,,,,,,,,,,,
,,,,,,,5fb596ff69ed590fff92ba8f,605b45a4d25f287719a41696,605cfb896d58ea1f5b7767b4,United States,Midwest,13 or older,no,2021-03-25_17h12.06.385,empathy_intonation_perc,2020.2.10,MacIntel,60,,,,,,,,,,1,,,,,,,,,,,,,,,,,,,,,,,,,,,,,,,,,,,,,,,,26,secuestro,,,0,0,1.67,0,64,64,25,1,REAL,FAKE,,,,,,,,,,,,,,,,,,,,,
,,,,,,,5fb596ff69ed590fff92ba8f,605b45a4d25f287719a41696,605cfb896d58ea1f5b7767b4,United States,Midwest,13 or older,no,2021-03-25_17h12.06.385,empathy_intonation_perc,2020.2.10,MacIntel,60,,,,,,,,,,1,,,,,,,,,,,,,,,,,,,,,,,,,,,,,,,,,,,,,,,,60,matar,,,0,0,1.001,0,65,65,59,1,REAL,FAKE,,,,,,,,,,,,,,,,,,,,,
,,,,,,,5fb596ff69ed590fff92ba8f,605b45a4d25f287719a41696,605cfb896d58ea1f5b7767b4,United States,Midwest,13 or older,no,2021-03-25_17h12.06.385,empathy_intonation_perc,2020.2.10,MacIntel,60,,,,,,,,,,0,,,,,,,,,,,,,,,,,,,,,,,,,,,,,,,,,,,,,,,,1,terzo,,,0,1,0.702,0,66,66,0,1,REAL,FAKE,,,,,,,,,,,,,,,,,,,,,
,,,,,,,5fb596ff69ed590fff92ba8f,605b45a4d25f287719a41696,605cfb896d58ea1f5b7767b4,United States,Midwest,13 or older,no,2021-03-25_17h12.06.385,empathy_intonation_perc,2020.2.10,MacIntel,60,,,,,,,,,,1,,,,,,,,,,,,,,,,,,,,,,,,,,,,,,,,,,,,,,,,48,ladrn,,,0,0,0.784,0,67,67,47,1,REAL,FAKE,,,,,,,,,,,,,,,,,,,,,
,,,,,,,5fb596ff69ed590fff92ba8f,605b45a4d25f287719a41696,605cfb896d58ea1f5b7767b4,United States,Midwest,13 or older,no,2021-03-25_17h12.06.385,empathy_intonation_perc,2020.2.10,MacIntel,60,,,,,,,,,,1,,,,,,,,,,,,,,,,,,,,,,,,,,,,,,,,,,,,,,,,61,seda,,,0,0,0.899,0,68,68,60,1,REAL,FAKE,,,,,,,,,,,,,,,,,,,,,
,,,,,,,5fb596ff69ed590fff92ba8f,605b45a4d25f287719a41696,605cfb896d58ea1f5b7767b4,United States,Midwest,13 or older,no,2021-03-25_17h12.06.385,empathy_intonation_perc,2020.2.10,MacIntel,60,,,,,,,,,,1,,,,,,,,,,,,,,,,,,,,,,,,,,,,,,,,,,,,,,,,14,yunque,,,0,0,0.967,0,69,69,13,1,REAL,FAKE,,,,,,,,,,,,,,,,,,,,,
,,,,,,,5fb596ff69ed590fff92ba8f,605b45a4d25f287719a41696,605cfb896d58ea1f5b7767b4,United States,Midwest,13 or older,no,2021-03-25_17h12.06.385,empathy_intonation_perc,2020.2.10,MacIntel,60,,,,,,,,,,1,,,,,,,,,,,,,,,,,,,,,,,,,,,,,,,,,,,,,,,,25,bisagra,,,0,0,0.966,0,70,70,24,1,REAL,FAKE,,,,,,,,,,,,,,,,,,,,,
,,,,,,,5fb596ff69ed590fff92ba8f,605b45a4d25f287719a41696,605cfb896d58ea1f5b7767b4,United States,Midwest,13 or older,no,2021-03-25_17h12.06.385,empathy_intonation_perc,2020.2.10,MacIntel,60,,,,,,,,,,1,,,,,,,,,,,,,,,,,,,,,,,,,,,,,,,,,,,,,,,,2,pellizcar,,,0,0,0.851,0,71,71,1,1,REAL,FAKE,,,,,,,,,,,,,,,,,,,,,
,,,,,,,5fb596ff69ed590fff92ba8f,605b45a4d25f287719a41696,605cfb896d58ea1f5b7767b4,United States,Midwest,13 or older,no,2021-03-25_17h12.06.385,empathy_intonation_perc,2020.2.10,MacIntel,60,,,,,,,,,,1,,,,,,,,,,,,,,,,,,,,,,,,,,,,,,,,,,,,,,,,59,besar,,,0,0,0.95,0,72,72,58,1,REAL,FAKE,,,,,,,,,,,,,,,,,,,,,
,,,,,,,5fb596ff69ed590fff92ba8f,605b45a4d25f287719a41696,605cfb896d58ea1f5b7767b4,United States,Midwest,13 or older,no,2021-03-25_17h12.06.385,empathy_intonation_perc,2020.2.10,MacIntel,60,,,,,,,,,,1,,,,,,,,,,,,,,,,,,,,,,,,,,,,,,,,,,,,,,,,80,hormiga,,,0,0,0.966,0,73,73,79,1,REAL,FAKE,,,,,,,,,,,,,,,,,,,,,
,,,,,,,5fb596ff69ed590fff92ba8f,605b45a4d25f287719a41696,605cfb896d58ea1f5b7767b4,United States,Midwest,13 or older,no,2021-03-25_17h12.06.385,empathy_intonation_perc,2020.2.10,MacIntel,60,,,,,,,,,,1,,,,,,,,,,,,,,,,,,,,,,,,,,,,,,,,,,,,,,,,5,zapato,,,1,1,1.166,0,74,74,4,1,REAL,FAKE,,,,,,,,,,,,,,,,,,,,,
,,,,,,,5fb596ff69ed590fff92ba8f,605b45a4d25f287719a41696,605cfb896d58ea1f5b7767b4,United States,Midwest,13 or older,no,2021-03-25_17h12.06.385,empathy_intonation_perc,2020.2.10,MacIntel,60,,,,,,,,,,0,,,,,,,,,,,,,,,,,,,,,,,,,,,,,,,,,,,,,,,,16,abracer,,,0,1,1.069,0,75,75,15,1,REAL,FAKE,,,,,,,,,,,,,,,,,,,,,
,,,,,,,5fb596ff69ed590fff92ba8f,605b45a4d25f287719a41696,605cfb896d58ea1f5b7767b4,United States,Midwest,13 or older,no,2021-03-25_17h12.06.385,empathy_intonation_perc,2020.2.10,MacIntel,60,,,,,,,,,,0,,,,,,,,,,,,,,,,,,,,,,,,,,,,,,,,,,,,,,,,79,tropaje,,,0,1,1.963,0,76,76,78,1,REAL,FAKE,,,,,,,,,,,,,,,,,,,,,
,,,,,,,5fb596ff69ed590fff92ba8f,605b45a4d25f287719a41696,605cfb896d58ea1f5b7767b4,United States,Midwest,13 or older,no,2021-03-25_17h12.06.385,empathy_intonation_perc,2020.2.10,MacIntel,60,,,,,,,,,,1,,,,,,,,,,,,,,,,,,,,,,,,,,,,,,,,,,,,,,,,52,camisa,,,1,1,1.965,0,77,77,51,1,REAL,FAKE,,,,,,,,,,,,,,,,,,,,,
,,,,,,,5fb596ff69ed590fff92ba8f,605b45a4d25f287719a41696,605cfb896d58ea1f5b7767b4,United States,Midwest,13 or older,no,2021-03-25_17h12.06.385,empathy_intonation_perc,2020.2.10,MacIntel,60,,,,,,,,,,1,,,,,,,,,,,,,,,,,,,,,,,,,,,,,,,,,,,,,,,,64,orgulloso,,,0,0,0.833,0,78,78,63,1,REAL,FAKE,,,,,,,,,,,,,,,,,,,,,
,,,,,,,5fb596ff69ed590fff92ba8f,605b45a4d25f287719a41696,605cfb896d58ea1f5b7767b4,United States,Midwest,13 or older,no,2021-03-25_17h12.06.385,empathy_intonation_perc,2020.2.10,MacIntel,60,,,,,,,,,,0,,,,,,,,,,,,,,,,,,,,,,,,,,,,,,,,,,,,,,,,21,capillo,,,0,1,0.886,0,79,79,20,1,REAL,FAKE,,,,,,,,,,,,,,,,,,,,,
,,,,,,,5fb596ff69ed590fff92ba8f,605b45a4d25f287719a41696,605cfb896d58ea1f5b7767b4,United States,Midwest,13 or older,no,2021-03-25_17h12.06.385,empathy_intonation_perc,2020.2.10,MacIntel,60,,,,,,,,,,1,,,,,,,,,,,,,,,,,,,,,,,,,,,,,,,,,,,,,,,,40,alfombra,,,0,0,0.799,0,80,80,39,1,REAL,FAKE,,,,,,,,,,,,,,,,,,,,,
,,,,,,,5fb596ff69ed590fff92ba8f,605b45a4d25f287719a41696,605cfb896d58ea1f5b7767b4,United States,Midwest,13 or older,no,2021-03-25_17h12.06.385,empathy_intonation_perc,2020.2.10,MacIntel,60,,,,,,,,,,0,,,,,,,,,,,,,,,,,,,,,,,,,,,,,,,,,,,,,,,,23,lampera,,,0,1,1.282,0,81,81,22,1,REAL,FAKE,,,,,,,,,,,,,,,,,,,,,
,,,,,,,5fb596ff69ed590fff92ba8f,605b45a4d25f287719a41696,605cfb896d58ea1f5b7767b4,United States,Midwest,13 or older,no,2021-03-25_17h12.06.385,empathy_intonation_perc,2020.2.10,MacIntel,60,,,,,,,,,,1,,,,,,,,,,,,,,,,,,,,,,,,,,,,,,,,,,,,,,,,75,yacer,,,0,0,1.663,0,82,82,74,1,REAL,FAKE,,,,,,,,,,,,,,,,,,,,,
,,,,,,,5fb596ff69ed590fff92ba8f,605b45a4d25f287719a41696,605cfb896d58ea1f5b7767b4,United States,Midwest,13 or older,no,2021-03-25_17h12.06.385,empathy_intonation_perc,2020.2.10,MacIntel,60,,,,,,,,,,1,,,,,,,,,,,,,,,,,,,,,,,,,,,,,,,,,,,,,,,,46,martillo,,,0,0,0.667,0,83,83,45,1,REAL,FAKE,,,,,,,,,,,,,,,,,,,,,
,,,,,,,5fb596ff69ed590fff92ba8f,605b45a4d25f287719a41696,605cfb896d58ea1f5b7767b4,United States,Midwest,13 or older,no,2021-03-25_17h12.06.385,empathy_intonation_perc,2020.2.10,MacIntel,60,,,,,,,,,,1,,,,,,,,,,,,,,,,,,,,,,,,,,,,,,,,,,,,,,,,57,tacao,,,0,0,0.686,0,84,84,56,1,REAL,FAKE,,,,,,,,,,,,,,,,,,,,,
,,,,,,,5fb596ff69ed590fff92ba8f,605b45a4d25f287719a41696,605cfb896d58ea1f5b7767b4,United States,Midwest,13 or older,no,2021-03-25_17h12.06.385,empathy_intonation_perc,2020.2.10,MacIntel,60,,,,,,,,,,1,,,,,,,,,,,,,,,,,,,,,,,,,,,,,,,,,,,,,,,,76,atar,,,0,0,0.69,0,85,85,75,1,REAL,FAKE,,,,,,,,,,,,,,,,,,,,,
,,,,,,,5fb596ff69ed590fff92ba8f,605b45a4d25f287719a41696,605cfb896d58ea1f5b7767b4,United States,Midwest,13 or older,no,2021-03-25_17h12.06.385,empathy_intonation_perc,2020.2.10,MacIntel,60,,,,,,,,,,1,,,,,,,,,,,,,,,,,,,,,,,,,,,,,,,,,,,,,,,,67,cabello,,,1,1,2.931,0,86,86,66,1,REAL,FAKE,,,,,,,,,,,,,,,,,,,,,
,,,,,,,5fb596ff69ed590fff92ba8f,605b45a4d25f287719a41696,605cfb896d58ea1f5b7767b4,United States,Midwest,13 or older,no,2021-03-25_17h12.06.385,empathy_intonation_perc,2020.2.10,MacIntel,60,,,,,,,,,,1,,,,,,,,,,,,,,,,,,,,,,,,,,,,,,,,,,,,,,,,78,frondoso,,,0,0,0.703,0,87,87,77,1,REAL,FAKE,,,,,,,,,,,,,,,,,,,,,
,,,,,,,5fb596ff69ed590fff92ba8f,605b45a4d25f287719a41696,605cfb896d58ea1f5b7767b4,United States,Midwest,13 or older,no,2021-03-25_17h12.06.385,empathy_intonation_perc,2020.2.10,MacIntel,60,,,,,,,,,,0,,,,,,,,,,,,,,,,,,,,,,,,,,,,,,,,,,,,,,,,35,rompido,,,0,1,0.684,0,88,88,34,1,REAL,FAKE,,,,,,,,,,,,,,,,,,,,,
,,,,,,,5fb596ff69ed590fff92ba8f,605b45a4d25f287719a41696,605cfb896d58ea1f5b7767b4,United States,Midwest,13 or older,no,2021-03-25_17h12.06.385,empathy_intonation_perc,2020.2.10,MacIntel,60,,,,,,,,,,1,,,,,,,,,,,,,,,,,,,,,,,,,,,,,,,,,,,,,,,,15,regar,,,0,0,0.651,0,89,89,14,1,REAL,FAKE,,,,,,,,,,,,,,,,,,,,,
,,,,,,,5fb596ff69ed590fff92ba8f,605b45a4d25f287719a41696,605cfb896d58ea1f5b7767b4,United States,Midwest,13 or older,no,2021-03-25_17h12.06.385,empathy_intonation_perc,2020.2.10,MacIntel,60,,,,,,,,,,,,,,,,,,,,,,,,,,,,,,,,,,,,,,,,,,,,,,,,,,,,,,,,,,,,,,,,4,1,3.355,1,0,0,0,0,0,1,,,,,,,,,,,
,,,,,,,5fb596ff69ed590fff92ba8f,605b45a4d25f287719a41696,605cfb896d58ea1f5b7767b4,United States,Midwest,13 or older,no,2021-03-25_17h12.06.385,empathy_intonation_perc,2020.2.10,MacIntel,60,,,,,,,,,,,,,,,,,,,,1,,,,,,,,,,,,,,,,,,,,,,,,,,,,,,,,,,,,,,,,,,,,,,,,,,,,,,2,0,0,0,0,1,I can easily tell if someone else wants to enter a conversation.,1,0,1,0
,,,,,,,5fb596ff69ed590fff92ba8f,605b45a4d25f287719a41696,605cfb896d58ea1f5b7767b4,United States,Midwest,13 or older,no,2021-03-25_17h12.06.385,empathy_intonation_perc,2020.2.10,MacIntel,60,,,,,,,,,,,,,,,,,,,,2,,,,,,,,,,,,,,,,,,,,,,,,,,,,,,,,,,,,,,,,,,,,,,,,,,,,,,1,0,1,1,1,1,I prefer animals to humans.,0,1,0,0
,,,,,,,5fb596ff69ed590fff92ba8f,605b45a4d25f287719a41696,605cfb896d58ea1f5b7767b4,United States,Midwest,13 or older,no,2021-03-25_17h12.06.385,empathy_intonation_perc,2020.2.10,MacIntel,60,,,,,,,,,,,,,,,,,,,,3,,,,,,,,,,,,,,,,,,,,,,,,,,,,,,,,,,,,,,,,,,,,,,,,,,,,,,5,0,2,2,2,1,I try to keep up with the current trends and fashions.,0,1,0,0
,,,,,,,5fb596ff69ed590fff92ba8f,605b45a4d25f287719a41696,605cfb896d58ea1f5b7767b4,United States,Midwest,13 or older,no,2021-03-25_17h12.06.385,empathy_intonation_perc,2020.2.10,MacIntel,60,,,,,,,,,,,,,,,,,,,,4,,,,,,,,,,,,,,,,,,,,,,,,,,,,,,,,,,,,,,,,,,,,,,,,,,,,,,4,0,3,3,3,1,"I find it difficult to explain to others things that I understand easily, 
  when they dont understand it first time.",1,0,0,1
,,,,,,,5fb596ff69ed590fff92ba8f,605b45a4d25f287719a41696,605cfb896d58ea1f5b7767b4,United States,Midwest,13 or older,no,2021-03-25_17h12.06.385,empathy_intonation_perc,2020.2.10,MacIntel,60,,,,,,,,,,,,,,,,,,,,5,,,,,,,,,,,,,,,,,,,,,,,,,,,,,,,,,,,,,,,,,,,,,,,,,,,,,,2,0,4,4,4,1,I dream most nights.,0,1,0,0
