instructions_2afc_loop.thisRepN,instructions_2afc_loop.thisTrialN,instructions_2afc_loop.thisN,instructions_2afc_loop.thisIndex,instructions_2afc_loop.ran,instructions_text,continue_text,participant,study_id,session,I am most familiar with Spanish from...*,What part of the US are you from?*,At what age did you begin learning Spanish?*,Are you proficient in any languages other than English/Spanish?*,date,expName,psychopyVersion,OS,frameRate,key_resp_2afc_practice.keys,key_resp_2afc_practice.corr,key_resp_2afc_practice.rt,trials_2afc_practice_loop.thisRepN,trials_2afc_practice_loop.thisTrialN,trials_2afc_practice_loop.thisN,trials_2afc_practice_loop.thisIndex,trials_2afc_practice_loop.ran,path,correct_response,the_col,key_resp_2afc_trial.keys,key_resp_2afc_trial.corr,key_resp_2afc_trial.rt,trials_2afc_loop.thisRepN,trials_2afc_loop.thisTrialN,trials_2afc_loop.thisN,trials_2afc_loop.thisIndex,trials_2afc_loop.ran,item_num,andalusian,argentine,castilian,chilean,cuban,mexican,peruvian,puertorican,key_resp_ac1.keys,key_resp_ac1.corr,key_resp_ac1.rt,ac1_loop.thisRepN,ac1_loop.thisTrialN,ac1_loop.thisN,ac1_loop.thisIndex,ac1_loop.ran,instructions_lextale_loop.thisRepN,instructions_lextale_loop.thisTrialN,instructions_lextale_loop.thisN,instructions_lextale_loop.thisIndex,instructions_lextale_loop.ran,key_resp_lextale_practice.keys,key_resp_lextale_practice.corr,key_resp_lextale_practice.rt,trials_lextale_practice_loop.thisRepN,trials_lextale_practice_loop.thisTrialN,trials_lextale_practice_loop.thisN,trials_lextale_practice_loop.thisIndex,trials_lextale_practice_loop.ran,stim,word,prac_button_real,prac_button_false,key_resp_lextale_trial.keys,key_resp_lextale_trial.corr,key_resp_lextale_trial.rt,trials_lextale_loop.thisRepN,trials_lextale_loop.thisTrialN,trials_lextale_loop.thisN,trials_lextale_loop.thisIndex,trials_lextale_loop.ran,button_real,button_false,key_resp_ac2.keys,key_resp_ac2.corr,key_resp_ac2.rt,check_pass,check_fails,ac2_loop.thisRepN,ac2_loop.thisTrialN,ac2_loop.thisN,ac2_loop.thisIndex,ac2_loop.ran,slider_eq_trial.response,trials_eq_loop.thisRepN,trials_eq_loop.thisTrialN,trials_eq_loop.thisN,trials_eq_loop.thisIndex,trials_eq_loop.ran,item,is_test_item,is_distractor,is_agree_score,is_disagree_score
0,0,0,0,1,"In the following task you are going to hear a series of utterances. 

  You will decide if the utterances sound like questions or not using your keyboard.",(press the spacebar to continue),5fb6da2d039b27111314d871,605b45a4d25f287719a41696,605e060816e1d2d8c2b69059,Spain,Midwest,12 or younger,no,2021-03-26_11h04.49.790,empathy_intonation_perc,2020.2.10,Win32,60,,,,,,,,,,,,,,,,,,,,,,,,,,,,,,,,,,,,,,,,,,,,,,,,,,,,,,,,,,,,,,,,,,,,,,,,,,,,,,,,,,,,
0,1,1,1,1,"If you believe the utterance is a question, type '1' (for 'yes') and if you do not 
  believe it is a question type '0' (for 'no').

  Let's practice a bit...",(press the spacebar to continue),5fb6da2d039b27111314d871,605b45a4d25f287719a41696,605e060816e1d2d8c2b69059,Spain,Midwest,12 or younger,no,2021-03-26_11h04.49.790,empathy_intonation_perc,2020.2.10,Win32,60,,,,,,,,,,,,,,,,,,,,,,,,,,,,,,,,,,,,,,,,,,,,,,,,,,,,,,,,,,,,,,,,,,,,,,,,,,,,,,,,,,,,
,,,,,,,5fb6da2d039b27111314d871,605b45a4d25f287719a41696,605e060816e1d2d8c2b69059,Spain,Midwest,12 or younger,no,2021-03-26_11h04.49.790,empathy_intonation_perc,2020.2.10,Win32,60,1,1,8.6145,0,0,0,2,1,./stim/wavs/chilean_question_filler_Mi-padre-cantaba-bien.wav,1,,,,,,,,,,,,,,,,,,,,,,,,,,,,,,,,,,,,,,,,,,,,,,,,,,,,,,,,,,,,,,,,,,,,,,,,,,
,,,,,,,5fb6da2d039b27111314d871,605b45a4d25f287719a41696,605e060816e1d2d8c2b69059,Spain,Midwest,12 or younger,no,2021-03-26_11h04.49.790,empathy_intonation_perc,2020.2.10,Win32,60,0,1,7.97572,0,1,1,5,1,./stim/wavs/andalusian_statement_filler_Alberto-nunca-se-afeita.wav,0,,,,,,,,,,,,,,,,,,,,,,,,,,,,,,,,,,,,,,,,,,,,,,,,,,,,,,,,,,,,,,,,,,,,,,,,,,
,,,,,,,5fb6da2d039b27111314d871,605b45a4d25f287719a41696,605e060816e1d2d8c2b69059,Spain,Midwest,12 or younger,no,2021-03-26_11h04.49.790,empathy_intonation_perc,2020.2.10,Win32,60,0,1,4.054085,0,2,2,6,1,./stim/wavs/peruvian_statement_filler_El-nino-habla-con-su-madre.wav,0,,,,,,,,,,,,,,,,,,,,,,,,,,,,,,,,,,,,,,,,,,,,,,,,,,,,,,,,,,,,,,,,,,,,,,,,,,
,,,,,,,5fb6da2d039b27111314d871,605b45a4d25f287719a41696,605e060816e1d2d8c2b69059,Spain,Midwest,12 or younger,no,2021-03-26_11h04.49.790,empathy_intonation_perc,2020.2.10,Win32,60,0,1,2.317295,0,3,3,7,1,./stim/wavs/puertorican_statement_filler_La-nina-pinta-con-su-amiga.wav,0,,,,,,,,,,,,,,,,,,,,,,,,,,,,,,,,,,,,,,,,,,,,,,,,,,,,,,,,,,,,,,,,,,,,,,,,,,
,,,,,,,5fb6da2d039b27111314d871,605b45a4d25f287719a41696,605e060816e1d2d8c2b69059,Spain,Midwest,12 or younger,no,2021-03-26_11h04.49.790,empathy_intonation_perc,2020.2.10,Win32,60,1,1,2.650025,0,4,4,3,1,./stim/wavs/mexican_question_filler_Felipe-no-tiene-contrasena.wav,1,,,,,,,,,,,,,,,,,,,,,,,,,,,,,,,,,,,,,,,,,,,,,,,,,,,,,,,,,,,,,,,,,,,,,,,,,,
,,,,,,,5fb6da2d039b27111314d871,605b45a4d25f287719a41696,605e060816e1d2d8c2b69059,Spain,Midwest,12 or younger,no,2021-03-26_11h04.49.790,empathy_intonation_perc,2020.2.10,Win32,60,0,1,2.85178,0,5,5,4,1,./stim/wavs/cuban_statement_filler_Cocinabas-por-la-noche.wav,0,,,,,,,,,,,,,,,,,,,,,,,,,,,,,,,,,,,,,,,,,,,,,,,,,,,,,,,,,,,,,,,,,,,,,,,,,,
,,,,,,,5fb6da2d039b27111314d871,605b45a4d25f287719a41696,605e060816e1d2d8c2b69059,Spain,Midwest,12 or younger,no,2021-03-26_11h04.49.790,empathy_intonation_perc,2020.2.10,Win32,60,1,1,3.19445,0,6,6,1,1,./stim/wavs/argentine_question_filler_Mi-vecino-habla-mucho.wav,1,,,,,,,,,,,,,,,,,,,,,,,,,,,,,,,,,,,,,,,,,,,,,,,,,,,,,,,,,,,,,,,,,,,,,,,,,,
,,,,,,,5fb6da2d039b27111314d871,605b45a4d25f287719a41696,605e060816e1d2d8c2b69059,Spain,Midwest,12 or younger,no,2021-03-26_11h04.49.790,empathy_intonation_perc,2020.2.10,Win32,60,1,1,2.87569,0,7,7,0,1,./stim/wavs/castilian_question_filler_Mi-esposo-conoce-al-chico.wav,1,,,,,,,,,,,,,,,,,,,,,,,,,,,,,,,,,,,,,,,,,,,,,,,,,,,,,,,,,,,,,,,,,,,,,,,,,,
,,,,,,,5fb6da2d039b27111314d871,605b45a4d25f287719a41696,605e060816e1d2d8c2b69059,Spain,Midwest,12 or younger,no,2021-03-26_11h04.49.790,empathy_intonation_perc,2020.2.10,Win32,60,,,,,,,,,,1,puertorican,0,0,1.9578,0,0,0,56,1,57,./stim/wavs/andalusian_mismatch_interrogative-total-yn_El-bebe-comia-muy-bien.wav,./stim/wavs/argentine_mismatch_interrogative-total-yn_El-bebe-comia-muy-bien.wav,./stim/wavs/castilian_mismatch_interrogative-total-yn_El-bebe-comia-muy-bien.wav,./stim/wavs/chilean_mismatch_interrogative-total-yn_El-bebe-comia-muy-bien.wav,./stim/wavs/cuban_mismatch_interrogative-total-yn_El-bebe-comia-muy-bien.wav,./stim/wavs/mexican_mismatch_interrogative-total-yn_El-bebe-comia-muy-bien.wav,./stim/wavs/peruvian_mismatch_interrogative-total-yn_El-bebe-comia-muy-bien.wav,./stim/wavs/puertorican_mismatch_interrogative-total-yn_El-bebe-comia-muy-bien.wav,,,,,,,,,,,,,,,,,,,,,,,,,,,,,,,,,,,,,,,,,,,,,,,,,,,,,,,,
,,,,,,,5fb6da2d039b27111314d871,605b45a4d25f287719a41696,605e060816e1d2d8c2b69059,Spain,Midwest,12 or younger,no,2021-03-26_11h04.49.790,empathy_intonation_perc,2020.2.10,Win32,60,,,,,,,,,,1,puertorican,1,1,1.678335,0,1,1,21,1,22,./stim/wavs/andalusian_match_interrogative-partial-wh_Por-que-ama-la-navidad.wav,./stim/wavs/argentine_match_interrogative-partial-wh_Por-que-ama-la-navidad.wav,./stim/wavs/castilian_match_interrogative-partial-wh_Por-que-ama-la-navidad.wav,./stim/wavs/chilean_match_interrogative-partial-wh_Por-que-ama-la-navidad.wav,./stim/wavs/cuban_match_interrogative-partial-wh_Por-que-ama-la-navidad.wav,./stim/wavs/mexican_match_interrogative-partial-wh_Por-que-ama-la-navidad.wav,./stim/wavs/peruvian_match_interrogative-partial-wh_Por-que-ama-la-navidad.wav,./stim/wavs/puertorican_match_interrogative-partial-wh_Por-que-ama-la-navidad.wav,,,,,,,,,,,,,,,,,,,,,,,,,,,,,,,,,,,,,,,,,,,,,,,,,,,,,,,,
,,,,,,,5fb6da2d039b27111314d871,605b45a4d25f287719a41696,605e060816e1d2d8c2b69059,Spain,Midwest,12 or younger,no,2021-03-26_11h04.49.790,empathy_intonation_perc,2020.2.10,Win32,60,,,,,,,,,,1,peruvian,0,0,1.66755,0,2,2,25,1,26,./stim/wavs/andalusian_match_interrogative-total-yn_Daniel-iba-a-Bolivia.wav,./stim/wavs/argentine_match_interrogative-total-yn_Daniel-iba-a-Bolivia.wav,./stim/wavs/castilian_match_interrogative-total-yn_Daniel-iba-a-Bolivia.wav,./stim/wavs/chilean_match_interrogative-total-yn_Daniel-iba-a-Bolivia.wav,./stim/wavs/cuban_match_interrogative-total-yn_Daniel-iba-a-Bolivia.wav,./stim/wavs/mexican_match_interrogative-total-yn_Daniel-iba-a-Bolivia.wav,./stim/wavs/peruvian_match_interrogative-total-yn_Daniel-iba-a-Bolivia.wav,./stim/wavs/puertorican_match_interrogative-total-yn_Daniel-iba-a-Bolivia.wav,,,,,,,,,,,,,,,,,,,,,,,,,,,,,,,,,,,,,,,,,,,,,,,,,,,,,,,,
,,,,,,,5fb6da2d039b27111314d871,605b45a4d25f287719a41696,605e060816e1d2d8c2b69059,Spain,Midwest,12 or younger,no,2021-03-26_11h04.49.790,empathy_intonation_perc,2020.2.10,Win32,60,,,,,,,,,,0,castilian,0,1,1.99677,0,3,3,47,1,48,./stim/wavs/andalusian_mismatch_declarative-narrow-focus_Mi-tia-odia-la-lluvia.wav,./stim/wavs/argentine_mismatch_declarative-narrow-focus_Mi-tia-odia-la-lluvia.wav,./stim/wavs/castilian_mismatch_declarative-narrow-focus_Mi-tia-odia-la-lluvia.wav,./stim/wavs/chilean_mismatch_declarative-narrow-focus_Mi-tia-odia-la-lluvia.wav,./stim/wavs/cuban_mismatch_declarative-narrow-focus_Mi-tia-odia-la-lluvia.wav,./stim/wavs/mexican_mismatch_declarative-narrow-focus_Mi-tia-odia-la-lluvia.wav,./stim/wavs/peruvian_mismatch_declarative-narrow-focus_Mi-tia-odia-la-lluvia.wav,./stim/wavs/puertorican_mismatch_declarative-narrow-focus_Mi-tia-odia-la-lluvia.wav,,,,,,,,,,,,,,,,,,,,,,,,,,,,,,,,,,,,,,,,,,,,,,,,,,,,,,,,
,,,,,,,5fb6da2d039b27111314d871,605b45a4d25f287719a41696,605e060816e1d2d8c2b69059,Spain,Midwest,12 or younger,no,2021-03-26_11h04.49.790,empathy_intonation_perc,2020.2.10,Win32,60,,,,,,,,,,0,cuban,0,1,1.86629,0,4,4,5,1,6,./stim/wavs/andalusian_match_declarative-broad-focus_Maria-bebe-el-vino.wav,./stim/wavs/argentine_match_declarative-broad-focus_Maria-bebe-el-vino.wav,./stim/wavs/castilian_match_declarative-broad-focus_Maria-bebe-el-vino.wav,./stim/wavs/chilean_match_declarative-broad-focus_Maria-bebe-el-vino.wav,./stim/wavs/cuban_match_declarative-broad-focus_Maria-bebe-el-vino.wav,./stim/wavs/mexican_match_declarative-broad-focus_Maria-bebe-el-vino.wav,./stim/wavs/peruvian_match_declarative-broad-focus_Maria-bebe-el-vino.wav,./stim/wavs/puertorican_match_declarative-broad-focus_Maria-bebe-el-vino.wav,,,,,,,,,,,,,,,,,,,,,,,,,,,,,,,,,,,,,,,,,,,,,,,,,,,,,,,,
,,,,,,,5fb6da2d039b27111314d871,605b45a4d25f287719a41696,605e060816e1d2d8c2b69059,Spain,Midwest,12 or younger,no,2021-03-26_11h04.49.790,empathy_intonation_perc,2020.2.10,Win32,60,,,,,,,,,,1,mexican,0,0,1.7419,0,5,5,31,1,32,./stim/wavs/andalusian_match_interrogative-total-yn_Marta-abre-el-regalo.wav,./stim/wavs/argentine_match_interrogative-total-yn_Marta-abre-el-regalo.wav,./stim/wavs/castilian_match_interrogative-total-yn_Marta-abre-el-regalo.wav,./stim/wavs/chilean_match_interrogative-total-yn_Marta-abre-el-regalo.wav,./stim/wavs/cuban_match_interrogative-total-yn_Marta-abre-el-regalo.wav,./stim/wavs/mexican_match_interrogative-total-yn_Marta-abre-el-regalo.wav,./stim/wavs/peruvian_match_interrogative-total-yn_Marta-abre-el-regalo.wav,./stim/wavs/puertorican_match_interrogative-total-yn_Marta-abre-el-regalo.wav,,,,,,,,,,,,,,,,,,,,,,,,,,,,,,,,,,,,,,,,,,,,,,,,,,,,,,,,
,,,,,,,5fb6da2d039b27111314d871,605b45a4d25f287719a41696,605e060816e1d2d8c2b69059,Spain,Midwest,12 or younger,no,2021-03-26_11h04.49.790,empathy_intonation_perc,2020.2.10,Win32,60,,,,,,,,,,0,peruvian,0,1,2.019535,0,6,6,37,1,38,./stim/wavs/andalusian_mismatch_declarative-broad-focus_Mi-madre-come-la-fruta.wav,./stim/wavs/argentine_mismatch_declarative-broad-focus_Mi-madre-come-la-fruta.wav,./stim/wavs/castilian_mismatch_declarative-broad-focus_Mi-madre-come-la-fruta.wav,./stim/wavs/chilean_mismatch_declarative-broad-focus_Mi-madre-come-la-fruta.wav,./stim/wavs/cuban_mismatch_declarative-broad-focus_Mi-madre-come-la-fruta.wav,./stim/wavs/mexican_mismatch_declarative-broad-focus_Mi-madre-come-la-fruta.wav,./stim/wavs/peruvian_mismatch_declarative-broad-focus_Mi-madre-come-la-fruta.wav,./stim/wavs/puertorican_mismatch_declarative-broad-focus_Mi-madre-come-la-fruta.wav,,,,,,,,,,,,,,,,,,,,,,,,,,,,,,,,,,,,,,,,,,,,,,,,,,,,,,,,
,,,,,,,5fb6da2d039b27111314d871,605b45a4d25f287719a41696,605e060816e1d2d8c2b69059,Spain,Midwest,12 or younger,no,2021-03-26_11h04.49.790,empathy_intonation_perc,2020.2.10,Win32,60,,,,,,,,,,0,castilian,0,1,2.033495,0,7,7,33,1,34,./stim/wavs/andalusian_mismatch_declarative-broad-focus_El-hombre-mira-la-luna.wav,./stim/wavs/argentine_mismatch_declarative-broad-focus_El-hombre-mira-la-luna.wav,./stim/wavs/castilian_mismatch_declarative-broad-focus_El-hombre-mira-la-luna.wav,./stim/wavs/chilean_mismatch_declarative-broad-focus_El-hombre-mira-la-luna.wav,./stim/wavs/cuban_mismatch_declarative-broad-focus_El-hombre-mira-la-luna.wav,./stim/wavs/mexican_mismatch_declarative-broad-focus_El-hombre-mira-la-luna.wav,./stim/wavs/peruvian_mismatch_declarative-broad-focus_El-hombre-mira-la-luna.wav,./stim/wavs/puertorican_mismatch_declarative-broad-focus_El-hombre-mira-la-luna.wav,,,,,,,,,,,,,,,,,,,,,,,,,,,,,,,,,,,,,,,,,,,,,,,,,,,,,,,,
,,,,,,,5fb6da2d039b27111314d871,605b45a4d25f287719a41696,605e060816e1d2d8c2b69059,Spain,Midwest,12 or younger,no,2021-03-26_11h04.49.790,empathy_intonation_perc,2020.2.10,Win32,60,,,,,,,,,,0,puertorican,0,1,1.79389,0,8,8,15,1,16,./stim/wavs/andalusian_match_declarative-narrow-focus_Marta-abre-el-regalo.wav,./stim/wavs/argentine_match_declarative-narrow-focus_Marta-abre-el-regalo.wav,./stim/wavs/castilian_match_declarative-narrow-focus_Marta-abre-el-regalo.wav,./stim/wavs/chilean_match_declarative-narrow-focus_Marta-abre-el-regalo.wav,./stim/wavs/cuban_match_declarative-narrow-focus_Marta-abre-el-regalo.wav,./stim/wavs/mexican_match_declarative-narrow-focus_Marta-abre-el-regalo.wav,./stim/wavs/peruvian_match_declarative-narrow-focus_Marta-abre-el-regalo.wav,./stim/wavs/puertorican_match_declarative-narrow-focus_Marta-abre-el-regalo.wav,,,,,,,,,,,,,,,,,,,,,,,,,,,,,,,,,,,,,,,,,,,,,,,,,,,,,,,,
,,,,,,,5fb6da2d039b27111314d871,605b45a4d25f287719a41696,605e060816e1d2d8c2b69059,Spain,Midwest,12 or younger,no,2021-03-26_11h04.49.790,empathy_intonation_perc,2020.2.10,Win32,60,,,,,,,,,,0,cuban,0,1,2.203805,0,9,9,40,1,41,./stim/wavs/andalusian_mismatch_declarative-narrow-focus_El-bebe-comia-muy-bien.wav,./stim/wavs/argentine_mismatch_declarative-narrow-focus_El-bebe-comia-muy-bien.wav,./stim/wavs/castilian_mismatch_declarative-narrow-focus_El-bebe-comia-muy-bien.wav,./stim/wavs/chilean_mismatch_declarative-narrow-focus_El-bebe-comia-muy-bien.wav,./stim/wavs/cuban_mismatch_declarative-narrow-focus_El-bebe-comia-muy-bien.wav,./stim/wavs/mexican_mismatch_declarative-narrow-focus_El-bebe-comia-muy-bien.wav,./stim/wavs/peruvian_mismatch_declarative-narrow-focus_El-bebe-comia-muy-bien.wav,./stim/wavs/puertorican_mismatch_declarative-narrow-focus_El-bebe-comia-muy-bien.wav,,,,,,,,,,,,,,,,,,,,,,,,,,,,,,,,,,,,,,,,,,,,,,,,,,,,,,,,
,,,,,,,5fb6da2d039b27111314d871,605b45a4d25f287719a41696,605e060816e1d2d8c2b69059,Spain,Midwest,12 or younger,no,2021-03-26_11h04.49.790,empathy_intonation_perc,2020.2.10,Win32,60,,,,,,,,,,1,peruvian,1,1,2.508725,0,10,10,59,1,60,./stim/wavs/andalusian_mismatch_interrogative-total-yn_La-maestra-vive-en-Paris.wav,./stim/wavs/argentine_mismatch_interrogative-total-yn_La-maestra-vive-en-Paris.wav,./stim/wavs/castilian_mismatch_interrogative-total-yn_La-maestra-vive-en-Paris.wav,./stim/wavs/chilean_mismatch_interrogative-total-yn_La-maestra-vive-en-Paris.wav,./stim/wavs/cuban_mismatch_interrogative-total-yn_La-maestra-vive-en-Paris.wav,./stim/wavs/mexican_mismatch_interrogative-total-yn_La-maestra-vive-en-Paris.wav,./stim/wavs/peruvian_mismatch_interrogative-total-yn_La-maestra-vive-en-Paris.wav,./stim/wavs/puertorican_mismatch_interrogative-total-yn_La-maestra-vive-en-Paris.wav,,,,,,,,,,,,,,,,,,,,,,,,,,,,,,,,,,,,,,,,,,,,,,,,,,,,,,,,
,,,,,,,5fb6da2d039b27111314d871,605b45a4d25f287719a41696,605e060816e1d2d8c2b69059,Spain,Midwest,12 or younger,no,2021-03-26_11h04.49.790,empathy_intonation_perc,2020.2.10,Win32,60,,,,,,,,,,0,castilian,0,1,1.933855,0,11,11,1,1,2,./stim/wavs/andalusian_match_declarative-broad-focus_Daniel-iba-a-Bolivia.wav,./stim/wavs/argentine_match_declarative-broad-focus_Daniel-iba-a-Bolivia.wav,./stim/wavs/castilian_match_declarative-broad-focus_Daniel-iba-a-Bolivia.wav,./stim/wavs/chilean_match_declarative-broad-focus_Daniel-iba-a-Bolivia.wav,./stim/wavs/cuban_match_declarative-broad-focus_Daniel-iba-a-Bolivia.wav,./stim/wavs/mexican_match_declarative-broad-focus_Daniel-iba-a-Bolivia.wav,./stim/wavs/peruvian_match_declarative-broad-focus_Daniel-iba-a-Bolivia.wav,./stim/wavs/puertorican_match_declarative-broad-focus_Daniel-iba-a-Bolivia.wav,,,,,,,,,,,,,,,,,,,,,,,,,,,,,,,,,,,,,,,,,,,,,,,,,,,,,,,,
,,,,,,,5fb6da2d039b27111314d871,605b45a4d25f287719a41696,605e060816e1d2d8c2b69059,Spain,Midwest,12 or younger,no,2021-03-26_11h04.49.790,empathy_intonation_perc,2020.2.10,Win32,60,,,,,,,,,,1,chilean,1,1,1.65986,0,12,12,48,1,49,./stim/wavs/andalusian_mismatch_interrogative-partial-wh_Cuando-comia-la-fruta.wav,./stim/wavs/argentine_mismatch_interrogative-partial-wh_Cuando-comia-la-fruta.wav,./stim/wavs/castilian_mismatch_interrogative-partial-wh_Cuando-comia-la-fruta.wav,./stim/wavs/chilean_mismatch_interrogative-partial-wh_Cuando-comia-la-fruta.wav,./stim/wavs/cuban_mismatch_interrogative-partial-wh_Cuando-comia-la-fruta.wav,./stim/wavs/mexican_mismatch_interrogative-partial-wh_Cuando-comia-la-fruta.wav,./stim/wavs/peruvian_mismatch_interrogative-partial-wh_Cuando-comia-la-fruta.wav,./stim/wavs/puertorican_mismatch_interrogative-partial-wh_Cuando-comia-la-fruta.wav,,,,,,,,,,,,,,,,,,,,,,,,,,,,,,,,,,,,,,,,,,,,,,,,,,,,,,,,
,,,,,,,5fb6da2d039b27111314d871,605b45a4d25f287719a41696,605e060816e1d2d8c2b69059,Spain,Midwest,12 or younger,no,2021-03-26_11h04.49.790,empathy_intonation_perc,2020.2.10,Win32,60,,,,,,,,,,0,mexican,0,1,1.705695,0,13,13,7,1,8,./stim/wavs/andalusian_match_declarative-broad-focus_Marta-abre-el-regalo.wav,./stim/wavs/argentine_match_declarative-broad-focus_Marta-abre-el-regalo.wav,./stim/wavs/castilian_match_declarative-broad-focus_Marta-abre-el-regalo.wav,./stim/wavs/chilean_match_declarative-broad-focus_Marta-abre-el-regalo.wav,./stim/wavs/cuban_match_declarative-broad-focus_Marta-abre-el-regalo.wav,./stim/wavs/mexican_match_declarative-broad-focus_Marta-abre-el-regalo.wav,./stim/wavs/peruvian_match_declarative-broad-focus_Marta-abre-el-regalo.wav,./stim/wavs/puertorican_match_declarative-broad-focus_Marta-abre-el-regalo.wav,,,,,,,,,,,,,,,,,,,,,,,,,,,,,,,,,,,,,,,,,,,,,,,,,,,,,,,,
,,,,,,,5fb6da2d039b27111314d871,605b45a4d25f287719a41696,605e060816e1d2d8c2b69059,Spain,Midwest,12 or younger,no,2021-03-26_11h04.49.790,empathy_intonation_perc,2020.2.10,Win32,60,,,,,,,,,,0,puertorican,0,1,1.916515,0,14,14,9,1,10,./stim/wavs/andalusian_match_declarative-narrow-focus_Daniel-iba-a-Bolivia.wav,./stim/wavs/argentine_match_declarative-narrow-focus_Daniel-iba-a-Bolivia.wav,./stim/wavs/castilian_match_declarative-narrow-focus_Daniel-iba-a-Bolivia.wav,./stim/wavs/chilean_match_declarative-narrow-focus_Daniel-iba-a-Bolivia.wav,./stim/wavs/cuban_match_declarative-narrow-focus_Daniel-iba-a-Bolivia.wav,./stim/wavs/mexican_match_declarative-narrow-focus_Daniel-iba-a-Bolivia.wav,./stim/wavs/peruvian_match_declarative-narrow-focus_Daniel-iba-a-Bolivia.wav,./stim/wavs/puertorican_match_declarative-narrow-focus_Daniel-iba-a-Bolivia.wav,,,,,,,,,,,,,,,,,,,,,,,,,,,,,,,,,,,,,,,,,,,,,,,,,,,,,,,,
,,,,,,,5fb6da2d039b27111314d871,605b45a4d25f287719a41696,605e060816e1d2d8c2b69059,Spain,Midwest,12 or younger,no,2021-03-26_11h04.49.790,empathy_intonation_perc,2020.2.10,Win32,60,,,,,,,,,,1,castilian,1,1,2.439805,0,15,15,58,1,59,./stim/wavs/andalusian_mismatch_interrogative-total-yn_El-nino-oye-el-rio.wav,./stim/wavs/argentine_mismatch_interrogative-total-yn_El-nino-oye-el-rio.wav,./stim/wavs/castilian_mismatch_interrogative-total-yn_El-nino-oye-el-rio.wav,./stim/wavs/chilean_mismatch_interrogative-total-yn_El-nino-oye-el-rio.wav,./stim/wavs/cuban_mismatch_interrogative-total-yn_El-nino-oye-el-rio.wav,./stim/wavs/mexican_mismatch_interrogative-total-yn_El-nino-oye-el-rio.wav,./stim/wavs/peruvian_mismatch_interrogative-total-yn_El-nino-oye-el-rio.wav,./stim/wavs/puertorican_mismatch_interrogative-total-yn_El-nino-oye-el-rio.wav,,,,,,,,,,,,,,,,,,,,,,,,,,,,,,,,,,,,,,,,,,,,,,,,,,,,,,,,
,,,,,,,5fb6da2d039b27111314d871,605b45a4d25f287719a41696,605e060816e1d2d8c2b69059,Spain,Midwest,12 or younger,no,2021-03-26_11h04.49.790,empathy_intonation_perc,2020.2.10,Win32,60,,,,,,,,,,1,argentine,0,0,1.938295,0,16,16,26,1,27,./stim/wavs/andalusian_match_interrogative-total-yn_David-leia-el-libro.wav,./stim/wavs/argentine_match_interrogative-total-yn_David-leia-el-libro.wav,./stim/wavs/castilian_match_interrogative-total-yn_David-leia-el-libro.wav,./stim/wavs/chilean_match_interrogative-total-yn_David-leia-el-libro.wav,./stim/wavs/cuban_match_interrogative-total-yn_David-leia-el-libro.wav,./stim/wavs/mexican_match_interrogative-total-yn_David-leia-el-libro.wav,./stim/wavs/peruvian_match_interrogative-total-yn_David-leia-el-libro.wav,./stim/wavs/puertorican_match_interrogative-total-yn_David-leia-el-libro.wav,,,,,,,,,,,,,,,,,,,,,,,,,,,,,,,,,,,,,,,,,,,,,,,,,,,,,,,,
,,,,,,,5fb6da2d039b27111314d871,605b45a4d25f287719a41696,605e060816e1d2d8c2b69059,Spain,Midwest,12 or younger,no,2021-03-26_11h04.49.790,empathy_intonation_perc,2020.2.10,Win32,60,,,,,,,,,,1,peruvian,1,1,1.95781,0,17,17,52,1,53,./stim/wavs/andalusian_mismatch_interrogative-partial-wh_Por-que-odiaba-la-lluvia.wav,./stim/wavs/argentine_mismatch_interrogative-partial-wh_Por-que-odiaba-la-lluvia.wav,./stim/wavs/castilian_mismatch_interrogative-partial-wh_Por-que-odiaba-la-lluvia.wav,./stim/wavs/chilean_mismatch_interrogative-partial-wh_Por-que-odiaba-la-lluvia.wav,./stim/wavs/cuban_mismatch_interrogative-partial-wh_Por-que-odiaba-la-lluvia.wav,./stim/wavs/mexican_mismatch_interrogative-partial-wh_Por-que-odiaba-la-lluvia.wav,./stim/wavs/peruvian_mismatch_interrogative-partial-wh_Por-que-odiaba-la-lluvia.wav,./stim/wavs/puertorican_mismatch_interrogative-partial-wh_Por-que-odiaba-la-lluvia.wav,,,,,,,,,,,,,,,,,,,,,,,,,,,,,,,,,,,,,,,,,,,,,,,,,,,,,,,,
,,,,,,,5fb6da2d039b27111314d871,605b45a4d25f287719a41696,605e060816e1d2d8c2b69059,Spain,Midwest,12 or younger,no,2021-03-26_11h04.49.790,empathy_intonation_perc,2020.2.10,Win32,60,,,,,,,,,,0,chilean,0,1,1.94343,0,18,18,43,1,44,./stim/wavs/andalusian_mismatch_declarative-narrow-focus_La-maestra-vive-en-Paris.wav,./stim/wavs/argentine_mismatch_declarative-narrow-focus_La-maestra-vive-en-Paris.wav,./stim/wavs/castilian_mismatch_declarative-narrow-focus_La-maestra-vive-en-Paris.wav,./stim/wavs/chilean_mismatch_declarative-narrow-focus_La-maestra-vive-en-Paris.wav,./stim/wavs/cuban_mismatch_declarative-narrow-focus_La-maestra-vive-en-Paris.wav,./stim/wavs/mexican_mismatch_declarative-narrow-focus_La-maestra-vive-en-Paris.wav,./stim/wavs/peruvian_mismatch_declarative-narrow-focus_La-maestra-vive-en-Paris.wav,./stim/wavs/puertorican_mismatch_declarative-narrow-focus_La-maestra-vive-en-Paris.wav,,,,,,,,,,,,,,,,,,,,,,,,,,,,,,,,,,,,,,,,,,,,,,,,,,,,,,,,
,,,,,,,5fb6da2d039b27111314d871,605b45a4d25f287719a41696,605e060816e1d2d8c2b69059,Spain,Midwest,12 or younger,no,2021-03-26_11h04.49.790,empathy_intonation_perc,2020.2.10,Win32,60,,,,,,,,,,1,peruvian,0,0,1.999565,0,19,19,60,1,61,./stim/wavs/andalusian_mismatch_interrogative-total-yn_La-nina-lava-el-plato.wav,./stim/wavs/argentine_mismatch_interrogative-total-yn_La-nina-lava-el-plato.wav,./stim/wavs/castilian_mismatch_interrogative-total-yn_La-nina-lava-el-plato.wav,./stim/wavs/chilean_mismatch_interrogative-total-yn_La-nina-lava-el-plato.wav,./stim/wavs/cuban_mismatch_interrogative-total-yn_La-nina-lava-el-plato.wav,./stim/wavs/mexican_mismatch_interrogative-total-yn_La-nina-lava-el-plato.wav,./stim/wavs/peruvian_mismatch_interrogative-total-yn_La-nina-lava-el-plato.wav,./stim/wavs/puertorican_mismatch_interrogative-total-yn_La-nina-lava-el-plato.wav,,,,,,,,,,,,,,,,,,,,,,,,,,,,,,,,,,,,,,,,,,,,,,,,,,,,,,,,
,,,,,,,5fb6da2d039b27111314d871,605b45a4d25f287719a41696,605e060816e1d2d8c2b69059,Spain,Midwest,12 or younger,no,2021-03-26_11h04.49.790,empathy_intonation_perc,2020.2.10,Win32,60,,,,,,,,,,0,cuban,0,1,1.736545,0,20,20,42,1,43,./stim/wavs/andalusian_mismatch_declarative-narrow-focus_El-nino-oye-el-rio.wav,./stim/wavs/argentine_mismatch_declarative-narrow-focus_El-nino-oye-el-rio.wav,./stim/wavs/castilian_mismatch_declarative-narrow-focus_El-nino-oye-el-rio.wav,./stim/wavs/chilean_mismatch_declarative-narrow-focus_El-nino-oye-el-rio.wav,./stim/wavs/cuban_mismatch_declarative-narrow-focus_El-nino-oye-el-rio.wav,./stim/wavs/mexican_mismatch_declarative-narrow-focus_El-nino-oye-el-rio.wav,./stim/wavs/peruvian_mismatch_declarative-narrow-focus_El-nino-oye-el-rio.wav,./stim/wavs/puertorican_mismatch_declarative-narrow-focus_El-nino-oye-el-rio.wav,,,,,,,,,,,,,,,,,,,,,,,,,,,,,,,,,,,,,,,,,,,,,,,,,,,,,,,,
,,,,,,,5fb6da2d039b27111314d871,605b45a4d25f287719a41696,605e060816e1d2d8c2b69059,Spain,Midwest,12 or younger,no,2021-03-26_11h04.49.790,empathy_intonation_perc,2020.2.10,Win32,60,,,,,,,,,,1,mexican,1,1,1.810835,0,21,21,49,1,50,./stim/wavs/andalusian_mismatch_interrogative-partial-wh_Cuando-lavaba-el-plato.wav,./stim/wavs/argentine_mismatch_interrogative-partial-wh_Cuando-lavaba-el-plato.wav,./stim/wavs/castilian_mismatch_interrogative-partial-wh_Cuando-lavaba-el-plato.wav,./stim/wavs/chilean_mismatch_interrogative-partial-wh_Cuando-lavaba-el-plato.wav,./stim/wavs/cuban_mismatch_interrogative-partial-wh_Cuando-lavaba-el-plato.wav,./stim/wavs/mexican_mismatch_interrogative-partial-wh_Cuando-lavaba-el-plato.wav,./stim/wavs/peruvian_mismatch_interrogative-partial-wh_Cuando-lavaba-el-plato.wav,./stim/wavs/puertorican_mismatch_interrogative-partial-wh_Cuando-lavaba-el-plato.wav,,,,,,,,,,,,,,,,,,,,,,,,,,,,,,,,,,,,,,,,,,,,,,,,,,,,,,,,
,,,,,,,5fb6da2d039b27111314d871,605b45a4d25f287719a41696,605e060816e1d2d8c2b69059,Spain,Midwest,12 or younger,no,2021-03-26_11h04.49.790,empathy_intonation_perc,2020.2.10,Win32,60,,,,,,,,,,1,mexican,0,0,1.6123,0,22,22,57,1,58,./stim/wavs/andalusian_mismatch_interrogative-total-yn_El-hombre-mira-la-luna.wav,./stim/wavs/argentine_mismatch_interrogative-total-yn_El-hombre-mira-la-luna.wav,./stim/wavs/castilian_mismatch_interrogative-total-yn_El-hombre-mira-la-luna.wav,./stim/wavs/chilean_mismatch_interrogative-total-yn_El-hombre-mira-la-luna.wav,./stim/wavs/cuban_mismatch_interrogative-total-yn_El-hombre-mira-la-luna.wav,./stim/wavs/mexican_mismatch_interrogative-total-yn_El-hombre-mira-la-luna.wav,./stim/wavs/peruvian_mismatch_interrogative-total-yn_El-hombre-mira-la-luna.wav,./stim/wavs/puertorican_mismatch_interrogative-total-yn_El-hombre-mira-la-luna.wav,,,,,,,,,,,,,,,,,,,,,,,,,,,,,,,,,,,,,,,,,,,,,,,,,,,,,,,,
,,,,,,,5fb6da2d039b27111314d871,605b45a4d25f287719a41696,605e060816e1d2d8c2b69059,Spain,Midwest,12 or younger,no,2021-03-26_11h04.49.790,empathy_intonation_perc,2020.2.10,Win32,60,,,,,,,,,,0,castilian,0,1,1.875175,0,23,23,44,1,45,./stim/wavs/andalusian_mismatch_declarative-narrow-focus_La-nina-lava-el-plato.wav,./stim/wavs/argentine_mismatch_declarative-narrow-focus_La-nina-lava-el-plato.wav,./stim/wavs/castilian_mismatch_declarative-narrow-focus_La-nina-lava-el-plato.wav,./stim/wavs/chilean_mismatch_declarative-narrow-focus_La-nina-lava-el-plato.wav,./stim/wavs/cuban_mismatch_declarative-narrow-focus_La-nina-lava-el-plato.wav,./stim/wavs/mexican_mismatch_declarative-narrow-focus_La-nina-lava-el-plato.wav,./stim/wavs/peruvian_mismatch_declarative-narrow-focus_La-nina-lava-el-plato.wav,./stim/wavs/puertorican_mismatch_declarative-narrow-focus_La-nina-lava-el-plato.wav,,,,,,,,,,,,,,,,,,,,,,,,,,,,,,,,,,,,,,,,,,,,,,,,,,,,,,,,
,,,,,,,5fb6da2d039b27111314d871,605b45a4d25f287719a41696,605e060816e1d2d8c2b69059,Spain,Midwest,12 or younger,no,2021-03-26_11h04.49.790,empathy_intonation_perc,2020.2.10,Win32,60,,,,,,,,,,1,argentine,1,1,1.56703,0,24,24,17,1,18,./stim/wavs/andalusian_match_interrogative-partial-wh_Cuando-leia-el-libro.wav,./stim/wavs/argentine_match_interrogative-partial-wh_Cuando-leia-el-libro.wav,./stim/wavs/castilian_match_interrogative-partial-wh_Cuando-leia-el-libro.wav,./stim/wavs/chilean_match_interrogative-partial-wh_Cuando-leia-el-libro.wav,./stim/wavs/cuban_match_interrogative-partial-wh_Cuando-leia-el-libro.wav,./stim/wavs/mexican_match_interrogative-partial-wh_Cuando-leia-el-libro.wav,./stim/wavs/peruvian_match_interrogative-partial-wh_Cuando-leia-el-libro.wav,./stim/wavs/puertorican_match_interrogative-partial-wh_Cuando-leia-el-libro.wav,,,,,,,,,,,,,,,,,,,,,,,,,,,,,,,,,,,,,,,,,,,,,,,,,,,,,,,,
,,,,,,,5fb6da2d039b27111314d871,605b45a4d25f287719a41696,605e060816e1d2d8c2b69059,Spain,Midwest,12 or younger,no,2021-03-26_11h04.49.790,empathy_intonation_perc,2020.2.10,Win32,60,,,,,,,,,,0,cuban,0,1,1.544545,0,25,25,12,1,13,./stim/wavs/andalusian_match_declarative-narrow-focus_Manuela-vende-el-carro.wav,./stim/wavs/argentine_match_declarative-narrow-focus_Manuela-vende-el-carro.wav,./stim/wavs/castilian_match_declarative-narrow-focus_Manuela-vende-el-carro.wav,./stim/wavs/chilean_match_declarative-narrow-focus_Manuela-vende-el-carro.wav,./stim/wavs/cuban_match_declarative-narrow-focus_Manuela-vende-el-carro.wav,./stim/wavs/mexican_match_declarative-narrow-focus_Manuela-vende-el-carro.wav,./stim/wavs/peruvian_match_declarative-narrow-focus_Manuela-vende-el-carro.wav,./stim/wavs/puertorican_match_declarative-narrow-focus_Manuela-vende-el-carro.wav,,,,,,,,,,,,,,,,,,,,,,,,,,,,,,,,,,,,,,,,,,,,,,,,,,,,,,,,
,,,,,,,5fb6da2d039b27111314d871,605b45a4d25f287719a41696,605e060816e1d2d8c2b69059,Spain,Midwest,12 or younger,no,2021-03-26_11h04.49.790,empathy_intonation_perc,2020.2.10,Win32,60,,,,,,,,,,0,mexican,0,1,1.58379,0,26,26,4,1,5,./stim/wavs/andalusian_match_declarative-broad-focus_Manuela-vende-el-carro.wav,./stim/wavs/argentine_match_declarative-broad-focus_Manuela-vende-el-carro.wav,./stim/wavs/castilian_match_declarative-broad-focus_Manuela-vende-el-carro.wav,./stim/wavs/chilean_match_declarative-broad-focus_Manuela-vende-el-carro.wav,./stim/wavs/cuban_match_declarative-broad-focus_Manuela-vende-el-carro.wav,./stim/wavs/mexican_match_declarative-broad-focus_Manuela-vende-el-carro.wav,./stim/wavs/peruvian_match_declarative-broad-focus_Manuela-vende-el-carro.wav,./stim/wavs/puertorican_match_declarative-broad-focus_Manuela-vende-el-carro.wav,,,,,,,,,,,,,,,,,,,,,,,,,,,,,,,,,,,,,,,,,,,,,,,,,,,,,,,,
,,,,,,,5fb6da2d039b27111314d871,605b45a4d25f287719a41696,605e060816e1d2d8c2b69059,Spain,Midwest,12 or younger,no,2021-03-26_11h04.49.790,empathy_intonation_perc,2020.2.10,Win32,60,,,,,,,,,,1,puertorican,1,1,1.807945,0,27,27,22,1,23,./stim/wavs/andalusian_match_interrogative-partial-wh_Por-que-hablaba-del-agua.wav,./stim/wavs/argentine_match_interrogative-partial-wh_Por-que-hablaba-del-agua.wav,./stim/wavs/castilian_match_interrogative-partial-wh_Por-que-hablaba-del-agua.wav,./stim/wavs/chilean_match_interrogative-partial-wh_Por-que-hablaba-del-agua.wav,./stim/wavs/cuban_match_interrogative-partial-wh_Por-que-hablaba-del-agua.wav,./stim/wavs/mexican_match_interrogative-partial-wh_Por-que-hablaba-del-agua.wav,./stim/wavs/peruvian_match_interrogative-partial-wh_Por-que-hablaba-del-agua.wav,./stim/wavs/puertorican_match_interrogative-partial-wh_Por-que-hablaba-del-agua.wav,,,,,,,,,,,,,,,,,,,,,,,,,,,,,,,,,,,,,,,,,,,,,,,,,,,,,,,,
,,,,,,,5fb6da2d039b27111314d871,605b45a4d25f287719a41696,605e060816e1d2d8c2b69059,Spain,Midwest,12 or younger,no,2021-03-26_11h04.49.790,empathy_intonation_perc,2020.2.10,Win32,60,,,,,,,,,,0,puertorican,0,1,1.75062,0,28,28,13,1,14,./stim/wavs/andalusian_match_declarative-narrow-focus_Maria-bebe-el-vino.wav,./stim/wavs/argentine_match_declarative-narrow-focus_Maria-bebe-el-vino.wav,./stim/wavs/castilian_match_declarative-narrow-focus_Maria-bebe-el-vino.wav,./stim/wavs/chilean_match_declarative-narrow-focus_Maria-bebe-el-vino.wav,./stim/wavs/cuban_match_declarative-narrow-focus_Maria-bebe-el-vino.wav,./stim/wavs/mexican_match_declarative-narrow-focus_Maria-bebe-el-vino.wav,./stim/wavs/peruvian_match_declarative-narrow-focus_Maria-bebe-el-vino.wav,./stim/wavs/puertorican_match_declarative-narrow-focus_Maria-bebe-el-vino.wav,,,,,,,,,,,,,,,,,,,,,,,,,,,,,,,,,,,,,,,,,,,,,,,,,,,,,,,,
,,,,,,,5fb6da2d039b27111314d871,605b45a4d25f287719a41696,605e060816e1d2d8c2b69059,Spain,Midwest,12 or younger,no,2021-03-26_11h04.49.790,empathy_intonation_perc,2020.2.10,Win32,60,,,,,,,,,,0,peruvian,0,1,1.85681,0,29,29,2,1,3,./stim/wavs/andalusian_match_declarative-broad-focus_David-leia-el-libro.wav,./stim/wavs/argentine_match_declarative-broad-focus_David-leia-el-libro.wav,./stim/wavs/castilian_match_declarative-broad-focus_David-leia-el-libro.wav,./stim/wavs/chilean_match_declarative-broad-focus_David-leia-el-libro.wav,./stim/wavs/cuban_match_declarative-broad-focus_David-leia-el-libro.wav,./stim/wavs/mexican_match_declarative-broad-focus_David-leia-el-libro.wav,./stim/wavs/peruvian_match_declarative-broad-focus_David-leia-el-libro.wav,./stim/wavs/puertorican_match_declarative-broad-focus_David-leia-el-libro.wav,,,,,,,,,,,,,,,,,,,,,,,,,,,,,,,,,,,,,,,,,,,,,,,,,,,,,,,,
,,,,,,,5fb6da2d039b27111314d871,605b45a4d25f287719a41696,605e060816e1d2d8c2b69059,Spain,Midwest,12 or younger,no,2021-03-26_11h04.49.790,empathy_intonation_perc,2020.2.10,Win32,60,,,,,,,,,,1,cuban,1,1,1.55301,0,30,30,18,1,19,./stim/wavs/andalusian_match_interrogative-partial-wh_Cuando-lleva-el-abrigo.wav,./stim/wavs/argentine_match_interrogative-partial-wh_Cuando-lleva-el-abrigo.wav,./stim/wavs/castilian_match_interrogative-partial-wh_Cuando-lleva-el-abrigo.wav,./stim/wavs/chilean_match_interrogative-partial-wh_Cuando-lleva-el-abrigo.wav,./stim/wavs/cuban_match_interrogative-partial-wh_Cuando-lleva-el-abrigo.wav,./stim/wavs/mexican_match_interrogative-partial-wh_Cuando-lleva-el-abrigo.wav,./stim/wavs/peruvian_match_interrogative-partial-wh_Cuando-lleva-el-abrigo.wav,./stim/wavs/puertorican_match_interrogative-partial-wh_Cuando-lleva-el-abrigo.wav,,,,,,,,,,,,,,,,,,,,,,,,,,,,,,,,,,,,,,,,,,,,,,,,,,,,,,,,
,,,,,,,5fb6da2d039b27111314d871,605b45a4d25f287719a41696,605e060816e1d2d8c2b69059,Spain,Midwest,12 or younger,no,2021-03-26_11h04.49.790,empathy_intonation_perc,2020.2.10,Win32,60,,,,,,,,,,0,puertorican,0,1,1.67742,0,31,31,14,1,15,./stim/wavs/andalusian_match_declarative-narrow-focus_Mariano-habla-del-tiempo.wav,./stim/wavs/argentine_match_declarative-narrow-focus_Mariano-habla-del-tiempo.wav,./stim/wavs/castilian_match_declarative-narrow-focus_Mariano-habla-del-tiempo.wav,./stim/wavs/chilean_match_declarative-narrow-focus_Mariano-habla-del-tiempo.wav,./stim/wavs/cuban_match_declarative-narrow-focus_Mariano-habla-del-tiempo.wav,./stim/wavs/mexican_match_declarative-narrow-focus_Mariano-habla-del-tiempo.wav,./stim/wavs/peruvian_match_declarative-narrow-focus_Mariano-habla-del-tiempo.wav,./stim/wavs/puertorican_match_declarative-narrow-focus_Mariano-habla-del-tiempo.wav,,,,,,,,,,,,,,,,,,,,,,,,,,,,,,,,,,,,,,,,,,,,,,,,,,,,,,,,
,,,,,,,5fb6da2d039b27111314d871,605b45a4d25f287719a41696,605e060816e1d2d8c2b69059,Spain,Midwest,12 or younger,no,2021-03-26_11h04.49.790,empathy_intonation_perc,2020.2.10,Win32,60,,,,,,,,,,0,cuban,0,1,1.960465,0,32,32,34,1,35,./stim/wavs/andalusian_mismatch_declarative-broad-focus_El-nino-oye-el-rio.wav,./stim/wavs/argentine_mismatch_declarative-broad-focus_El-nino-oye-el-rio.wav,./stim/wavs/castilian_mismatch_declarative-broad-focus_El-nino-oye-el-rio.wav,./stim/wavs/chilean_mismatch_declarative-broad-focus_El-nino-oye-el-rio.wav,./stim/wavs/cuban_mismatch_declarative-broad-focus_El-nino-oye-el-rio.wav,./stim/wavs/mexican_mismatch_declarative-broad-focus_El-nino-oye-el-rio.wav,./stim/wavs/peruvian_mismatch_declarative-broad-focus_El-nino-oye-el-rio.wav,./stim/wavs/puertorican_mismatch_declarative-broad-focus_El-nino-oye-el-rio.wav,,,,,,,,,,,,,,,,,,,,,,,,,,,,,,,,,,,,,,,,,,,,,,,,,,,,,,,,
,,,,,,,5fb6da2d039b27111314d871,605b45a4d25f287719a41696,605e060816e1d2d8c2b69059,Spain,Midwest,12 or younger,no,2021-03-26_11h04.49.790,empathy_intonation_perc,2020.2.10,Win32,60,,,,,,,,,,0,chilean,0,1,1.500215,0,33,33,36,1,37,./stim/wavs/andalusian_mismatch_declarative-broad-focus_La-nina-lava-el-plato.wav,./stim/wavs/argentine_mismatch_declarative-broad-focus_La-nina-lava-el-plato.wav,./stim/wavs/castilian_mismatch_declarative-broad-focus_La-nina-lava-el-plato.wav,./stim/wavs/chilean_mismatch_declarative-broad-focus_La-nina-lava-el-plato.wav,./stim/wavs/cuban_mismatch_declarative-broad-focus_La-nina-lava-el-plato.wav,./stim/wavs/mexican_mismatch_declarative-broad-focus_La-nina-lava-el-plato.wav,./stim/wavs/peruvian_mismatch_declarative-broad-focus_La-nina-lava-el-plato.wav,./stim/wavs/puertorican_mismatch_declarative-broad-focus_La-nina-lava-el-plato.wav,,,,,,,,,,,,,,,,,,,,,,,,,,,,,,,,,,,,,,,,,,,,,,,,,,,,,,,,
,,,,,,,5fb6da2d039b27111314d871,605b45a4d25f287719a41696,605e060816e1d2d8c2b69059,Spain,Midwest,12 or younger,no,2021-03-26_11h04.49.790,empathy_intonation_perc,2020.2.10,Win32,60,,,,,,,,,,1,peruvian,1,1,1.82961,0,34,34,53,1,54,./stim/wavs/andalusian_mismatch_interrogative-partial-wh_Por-que-oia-el-rio.wav,./stim/wavs/argentine_mismatch_interrogative-partial-wh_Por-que-oia-el-rio.wav,./stim/wavs/castilian_mismatch_interrogative-partial-wh_Por-que-oia-el-rio.wav,./stim/wavs/chilean_mismatch_interrogative-partial-wh_Por-que-oia-el-rio.wav,./stim/wavs/cuban_mismatch_interrogative-partial-wh_Por-que-oia-el-rio.wav,./stim/wavs/mexican_mismatch_interrogative-partial-wh_Por-que-oia-el-rio.wav,./stim/wavs/peruvian_mismatch_interrogative-partial-wh_Por-que-oia-el-rio.wav,./stim/wavs/puertorican_mismatch_interrogative-partial-wh_Por-que-oia-el-rio.wav,,,,,,,,,,,,,,,,,,,,,,,,,,,,,,,,,,,,,,,,,,,,,,,,,,,,,,,,
,,,,,,,5fb6da2d039b27111314d871,605b45a4d25f287719a41696,605e060816e1d2d8c2b69059,Spain,Midwest,12 or younger,no,2021-03-26_11h04.49.790,empathy_intonation_perc,2020.2.10,Win32,60,,,,,,,,,,0,peruvian,0,1,1.958275,0,35,35,39,1,40,./stim/wavs/andalusian_mismatch_declarative-broad-focus_Mi-tia-odia-la-lluvia.wav,./stim/wavs/argentine_mismatch_declarative-broad-focus_Mi-tia-odia-la-lluvia.wav,./stim/wavs/castilian_mismatch_declarative-broad-focus_Mi-tia-odia-la-lluvia.wav,./stim/wavs/chilean_mismatch_declarative-broad-focus_Mi-tia-odia-la-lluvia.wav,./stim/wavs/cuban_mismatch_declarative-broad-focus_Mi-tia-odia-la-lluvia.wav,./stim/wavs/mexican_mismatch_declarative-broad-focus_Mi-tia-odia-la-lluvia.wav,./stim/wavs/peruvian_mismatch_declarative-broad-focus_Mi-tia-odia-la-lluvia.wav,./stim/wavs/puertorican_mismatch_declarative-broad-focus_Mi-tia-odia-la-lluvia.wav,,,,,,,,,,,,,,,,,,,,,,,,,,,,,,,,,,,,,,,,,,,,,,,,,,,,,,,,
,,,,,,,5fb6da2d039b27111314d871,605b45a4d25f287719a41696,605e060816e1d2d8c2b69059,Spain,Midwest,12 or younger,no,2021-03-26_11h04.49.790,empathy_intonation_perc,2020.2.10,Win32,60,,,,,,,,,,0,andalusian,0,1,1.95197,0,36,36,11,1,12,./stim/wavs/andalusian_match_declarative-narrow-focus_Emilio-ama-la-marcha.wav,./stim/wavs/argentine_match_declarative-narrow-focus_Emilio-ama-la-marcha.wav,./stim/wavs/castilian_match_declarative-narrow-focus_Emilio-ama-la-marcha.wav,./stim/wavs/chilean_match_declarative-narrow-focus_Emilio-ama-la-marcha.wav,./stim/wavs/cuban_match_declarative-narrow-focus_Emilio-ama-la-marcha.wav,./stim/wavs/mexican_match_declarative-narrow-focus_Emilio-ama-la-marcha.wav,./stim/wavs/peruvian_match_declarative-narrow-focus_Emilio-ama-la-marcha.wav,./stim/wavs/puertorican_match_declarative-narrow-focus_Emilio-ama-la-marcha.wav,,,,,,,,,,,,,,,,,,,,,,,,,,,,,,,,,,,,,,,,,,,,,,,,,,,,,,,,
,,,,,,,5fb6da2d039b27111314d871,605b45a4d25f287719a41696,605e060816e1d2d8c2b69059,Spain,Midwest,12 or younger,no,2021-03-26_11h04.49.790,empathy_intonation_perc,2020.2.10,Win32,60,,,,,,,,,,0,puertorican,0,1,1.79825,0,37,37,38,1,39,./stim/wavs/andalusian_mismatch_declarative-broad-focus_Mi-novio-viene-del-lago.wav,./stim/wavs/argentine_mismatch_declarative-broad-focus_Mi-novio-viene-del-lago.wav,./stim/wavs/castilian_mismatch_declarative-broad-focus_Mi-novio-viene-del-lago.wav,./stim/wavs/chilean_mismatch_declarative-broad-focus_Mi-novio-viene-del-lago.wav,./stim/wavs/cuban_mismatch_declarative-broad-focus_Mi-novio-viene-del-lago.wav,./stim/wavs/mexican_mismatch_declarative-broad-focus_Mi-novio-viene-del-lago.wav,./stim/wavs/peruvian_mismatch_declarative-broad-focus_Mi-novio-viene-del-lago.wav,./stim/wavs/puertorican_mismatch_declarative-broad-focus_Mi-novio-viene-del-lago.wav,,,,,,,,,,,,,,,,,,,,,,,,,,,,,,,,,,,,,,,,,,,,,,,,,,,,,,,,
,,,,,,,5fb6da2d039b27111314d871,605b45a4d25f287719a41696,605e060816e1d2d8c2b69059,Spain,Midwest,12 or younger,no,2021-03-26_11h04.49.790,empathy_intonation_perc,2020.2.10,Win32,60,,,,,,,,,,1,cuban,0,0,1.809295,0,38,38,63,1,64,./stim/wavs/andalusian_mismatch_interrogative-total-yn_Mi-tia-odia-la-lluvia.wav,./stim/wavs/argentine_mismatch_interrogative-total-yn_Mi-tia-odia-la-lluvia.wav,./stim/wavs/castilian_mismatch_interrogative-total-yn_Mi-tia-odia-la-lluvia.wav,./stim/wavs/chilean_mismatch_interrogative-total-yn_Mi-tia-odia-la-lluvia.wav,./stim/wavs/cuban_mismatch_interrogative-total-yn_Mi-tia-odia-la-lluvia.wav,./stim/wavs/mexican_mismatch_interrogative-total-yn_Mi-tia-odia-la-lluvia.wav,./stim/wavs/peruvian_mismatch_interrogative-total-yn_Mi-tia-odia-la-lluvia.wav,./stim/wavs/puertorican_mismatch_interrogative-total-yn_Mi-tia-odia-la-lluvia.wav,,,,,,,,,,,,,,,,,,,,,,,,,,,,,,,,,,,,,,,,,,,,,,,,,,,,,,,,
,,,,,,,5fb6da2d039b27111314d871,605b45a4d25f287719a41696,605e060816e1d2d8c2b69059,Spain,Midwest,12 or younger,no,2021-03-26_11h04.49.790,empathy_intonation_perc,2020.2.10,Win32,60,,,,,,,,,,0,chilean,0,1,1.85334,0,39,39,8,1,9,./stim/wavs/andalusian_match_declarative-narrow-focus_Ana-lleva-el-abrigo.wav,./stim/wavs/argentine_match_declarative-narrow-focus_Ana-lleva-el-abrigo.wav,./stim/wavs/castilian_match_declarative-narrow-focus_Ana-lleva-el-abrigo.wav,./stim/wavs/chilean_match_declarative-narrow-focus_Ana-lleva-el-abrigo.wav,./stim/wavs/cuban_match_declarative-narrow-focus_Ana-lleva-el-abrigo.wav,./stim/wavs/mexican_match_declarative-narrow-focus_Ana-lleva-el-abrigo.wav,./stim/wavs/peruvian_match_declarative-narrow-focus_Ana-lleva-el-abrigo.wav,./stim/wavs/puertorican_match_declarative-narrow-focus_Ana-lleva-el-abrigo.wav,,,,,,,,,,,,,,,,,,,,,,,,,,,,,,,,,,,,,,,,,,,,,,,,,,,,,,,,
,,,,,,,5fb6da2d039b27111314d871,605b45a4d25f287719a41696,605e060816e1d2d8c2b69059,Spain,Midwest,12 or younger,no,2021-03-26_11h04.49.790,empathy_intonation_perc,2020.2.10,Win32,60,,,,,,,,,,0,puertorican,0,1,1.85965,0,40,40,6,1,7,./stim/wavs/andalusian_match_declarative-broad-focus_Mariano-habla-del-tiempo.wav,./stim/wavs/argentine_match_declarative-broad-focus_Mariano-habla-del-tiempo.wav,./stim/wavs/castilian_match_declarative-broad-focus_Mariano-habla-del-tiempo.wav,./stim/wavs/chilean_match_declarative-broad-focus_Mariano-habla-del-tiempo.wav,./stim/wavs/cuban_match_declarative-broad-focus_Mariano-habla-del-tiempo.wav,./stim/wavs/mexican_match_declarative-broad-focus_Mariano-habla-del-tiempo.wav,./stim/wavs/peruvian_match_declarative-broad-focus_Mariano-habla-del-tiempo.wav,./stim/wavs/puertorican_match_declarative-broad-focus_Mariano-habla-del-tiempo.wav,,,,,,,,,,,,,,,,,,,,,,,,,,,,,,,,,,,,,,,,,,,,,,,,,,,,,,,,
,,,,,,,5fb6da2d039b27111314d871,605b45a4d25f287719a41696,605e060816e1d2d8c2b69059,Spain,Midwest,12 or younger,no,2021-03-26_11h04.49.790,empathy_intonation_perc,2020.2.10,Win32,60,,,,,,,,,,0,castilian,0,1,1.78393,0,41,41,10,1,11,./stim/wavs/andalusian_match_declarative-narrow-focus_David-leia-el-libro.wav,./stim/wavs/argentine_match_declarative-narrow-focus_David-leia-el-libro.wav,./stim/wavs/castilian_match_declarative-narrow-focus_David-leia-el-libro.wav,./stim/wavs/chilean_match_declarative-narrow-focus_David-leia-el-libro.wav,./stim/wavs/cuban_match_declarative-narrow-focus_David-leia-el-libro.wav,./stim/wavs/mexican_match_declarative-narrow-focus_David-leia-el-libro.wav,./stim/wavs/peruvian_match_declarative-narrow-focus_David-leia-el-libro.wav,./stim/wavs/puertorican_match_declarative-narrow-focus_David-leia-el-libro.wav,,,,,,,,,,,,,,,,,,,,,,,,,,,,,,,,,,,,,,,,,,,,,,,,,,,,,,,,
,,,,,,,5fb6da2d039b27111314d871,605b45a4d25f287719a41696,605e060816e1d2d8c2b69059,Spain,Midwest,12 or younger,no,2021-03-26_11h04.49.790,empathy_intonation_perc,2020.2.10,Win32,60,,,,,,,,,,0,puertorican,0,1,1.56085,0,42,42,41,1,42,./stim/wavs/andalusian_mismatch_declarative-narrow-focus_El-hombre-mira-la-luna.wav,./stim/wavs/argentine_mismatch_declarative-narrow-focus_El-hombre-mira-la-luna.wav,./stim/wavs/castilian_mismatch_declarative-narrow-focus_El-hombre-mira-la-luna.wav,./stim/wavs/chilean_mismatch_declarative-narrow-focus_El-hombre-mira-la-luna.wav,./stim/wavs/cuban_mismatch_declarative-narrow-focus_El-hombre-mira-la-luna.wav,./stim/wavs/mexican_mismatch_declarative-narrow-focus_El-hombre-mira-la-luna.wav,./stim/wavs/peruvian_mismatch_declarative-narrow-focus_El-hombre-mira-la-luna.wav,./stim/wavs/puertorican_mismatch_declarative-narrow-focus_El-hombre-mira-la-luna.wav,,,,,,,,,,,,,,,,,,,,,,,,,,,,,,,,,,,,,,,,,,,,,,,,,,,,,,,,
,,,,,,,5fb6da2d039b27111314d871,605b45a4d25f287719a41696,605e060816e1d2d8c2b69059,Spain,Midwest,12 or younger,no,2021-03-26_11h04.49.790,empathy_intonation_perc,2020.2.10,Win32,60,,,,,,,,,,1,andalusian,1,1,3.560625,0,43,43,62,1,63,./stim/wavs/andalusian_mismatch_interrogative-total-yn_Mi-novio-viene-del-lago.wav,./stim/wavs/argentine_mismatch_interrogative-total-yn_Mi-novio-viene-del-lago.wav,./stim/wavs/castilian_mismatch_interrogative-total-yn_Mi-novio-viene-del-lago.wav,./stim/wavs/chilean_mismatch_interrogative-total-yn_Mi-novio-viene-del-lago.wav,./stim/wavs/cuban_mismatch_interrogative-total-yn_Mi-novio-viene-del-lago.wav,./stim/wavs/mexican_mismatch_interrogative-total-yn_Mi-novio-viene-del-lago.wav,./stim/wavs/peruvian_mismatch_interrogative-total-yn_Mi-novio-viene-del-lago.wav,./stim/wavs/puertorican_mismatch_interrogative-total-yn_Mi-novio-viene-del-lago.wav,,,,,,,,,,,,,,,,,,,,,,,,,,,,,,,,,,,,,,,,,,,,,,,,,,,,,,,,
,,,,,,,5fb6da2d039b27111314d871,605b45a4d25f287719a41696,605e060816e1d2d8c2b69059,Spain,Midwest,12 or younger,no,2021-03-26_11h04.49.790,empathy_intonation_perc,2020.2.10,Win32,60,,,,,,,,,,1,argentine,1,1,1.558175,0,44,44,54,1,55,./stim/wavs/andalusian_mismatch_interrogative-partial-wh_Por-que-venia-del-lago.wav,./stim/wavs/argentine_mismatch_interrogative-partial-wh_Por-que-venia-del-lago.wav,./stim/wavs/castilian_mismatch_interrogative-partial-wh_Por-que-venia-del-lago.wav,./stim/wavs/chilean_mismatch_interrogative-partial-wh_Por-que-venia-del-lago.wav,./stim/wavs/cuban_mismatch_interrogative-partial-wh_Por-que-venia-del-lago.wav,./stim/wavs/mexican_mismatch_interrogative-partial-wh_Por-que-venia-del-lago.wav,./stim/wavs/peruvian_mismatch_interrogative-partial-wh_Por-que-venia-del-lago.wav,./stim/wavs/puertorican_mismatch_interrogative-partial-wh_Por-que-venia-del-lago.wav,,,,,,,,,,,,,,,,,,,,,,,,,,,,,,,,,,,,,,,,,,,,,,,,,,,,,,,,
,,,,,,,5fb6da2d039b27111314d871,605b45a4d25f287719a41696,605e060816e1d2d8c2b69059,Spain,Midwest,12 or younger,no,2021-03-26_11h04.49.790,empathy_intonation_perc,2020.2.10,Win32,60,,,,,,,,,,1,castilian,0,0,1.779615,0,45,45,24,1,25,./stim/wavs/andalusian_match_interrogative-total-yn_Ana-lleva-el-abrigo.wav,./stim/wavs/argentine_match_interrogative-total-yn_Ana-lleva-el-abrigo.wav,./stim/wavs/castilian_match_interrogative-total-yn_Ana-lleva-el-abrigo.wav,./stim/wavs/chilean_match_interrogative-total-yn_Ana-lleva-el-abrigo.wav,./stim/wavs/cuban_match_interrogative-total-yn_Ana-lleva-el-abrigo.wav,./stim/wavs/mexican_match_interrogative-total-yn_Ana-lleva-el-abrigo.wav,./stim/wavs/peruvian_match_interrogative-total-yn_Ana-lleva-el-abrigo.wav,./stim/wavs/puertorican_match_interrogative-total-yn_Ana-lleva-el-abrigo.wav,,,,,,,,,,,,,,,,,,,,,,,,,,,,,,,,,,,,,,,,,,,,,,,,,,,,,,,,
,,,,,,,5fb6da2d039b27111314d871,605b45a4d25f287719a41696,605e060816e1d2d8c2b69059,Spain,Midwest,12 or younger,no,2021-03-26_11h04.49.790,empathy_intonation_perc,2020.2.10,Win32,60,,,,,,,,,,0,andalusian,0,1,2.53288,0,46,46,0,1,1,./stim/wavs/andalusian_match_declarative-broad-focus_Ana-lleva-el-abrigo.wav,./stim/wavs/argentine_match_declarative-broad-focus_Ana-lleva-el-abrigo.wav,./stim/wavs/castilian_match_declarative-broad-focus_Ana-lleva-el-abrigo.wav,./stim/wavs/chilean_match_declarative-broad-focus_Ana-lleva-el-abrigo.wav,./stim/wavs/cuban_match_declarative-broad-focus_Ana-lleva-el-abrigo.wav,./stim/wavs/mexican_match_declarative-broad-focus_Ana-lleva-el-abrigo.wav,./stim/wavs/peruvian_match_declarative-broad-focus_Ana-lleva-el-abrigo.wav,./stim/wavs/puertorican_match_declarative-broad-focus_Ana-lleva-el-abrigo.wav,,,,,,,,,,,,,,,,,,,,,,,,,,,,,,,,,,,,,,,,,,,,,,,,,,,,,,,,
,,,,,,,5fb6da2d039b27111314d871,605b45a4d25f287719a41696,605e060816e1d2d8c2b69059,Spain,Midwest,12 or younger,no,2021-03-26_11h04.49.790,empathy_intonation_perc,2020.2.10,Win32,60,,,,,,,,,,1,chilean,1,1,2.675035,0,47,47,30,1,31,./stim/wavs/andalusian_match_interrogative-total-yn_Mariano-habla-del-tiempo.wav,./stim/wavs/argentine_match_interrogative-total-yn_Mariano-habla-del-tiempo.wav,./stim/wavs/castilian_match_interrogative-total-yn_Mariano-habla-del-tiempo.wav,./stim/wavs/chilean_match_interrogative-total-yn_Mariano-habla-del-tiempo.wav,./stim/wavs/cuban_match_interrogative-total-yn_Mariano-habla-del-tiempo.wav,./stim/wavs/mexican_match_interrogative-total-yn_Mariano-habla-del-tiempo.wav,./stim/wavs/peruvian_match_interrogative-total-yn_Mariano-habla-del-tiempo.wav,./stim/wavs/puertorican_match_interrogative-total-yn_Mariano-habla-del-tiempo.wav,,,,,,,,,,,,,,,,,,,,,,,,,,,,,,,,,,,,,,,,,,,,,,,,,,,,,,,,
,,,,,,,5fb6da2d039b27111314d871,605b45a4d25f287719a41696,605e060816e1d2d8c2b69059,Spain,Midwest,12 or younger,no,2021-03-26_11h04.49.790,empathy_intonation_perc,2020.2.10,Win32,60,,,,,,,,,,1,chilean,0,0,1.643585,0,48,48,28,1,29,./stim/wavs/andalusian_match_interrogative-total-yn_Manuela-vende-el-carro.wav,./stim/wavs/argentine_match_interrogative-total-yn_Manuela-vende-el-carro.wav,./stim/wavs/castilian_match_interrogative-total-yn_Manuela-vende-el-carro.wav,./stim/wavs/chilean_match_interrogative-total-yn_Manuela-vende-el-carro.wav,./stim/wavs/cuban_match_interrogative-total-yn_Manuela-vende-el-carro.wav,./stim/wavs/mexican_match_interrogative-total-yn_Manuela-vende-el-carro.wav,./stim/wavs/peruvian_match_interrogative-total-yn_Manuela-vende-el-carro.wav,./stim/wavs/puertorican_match_interrogative-total-yn_Manuela-vende-el-carro.wav,,,,,,,,,,,,,,,,,,,,,,,,,,,,,,,,,,,,,,,,,,,,,,,,,,,,,,,,
,,,,,,,5fb6da2d039b27111314d871,605b45a4d25f287719a41696,605e060816e1d2d8c2b69059,Spain,Midwest,12 or younger,no,2021-03-26_11h04.49.790,empathy_intonation_perc,2020.2.10,Win32,60,,,,,,,,,,1,mexican,1,1,1.60955,0,49,49,51,1,52,./stim/wavs/andalusian_mismatch_interrogative-partial-wh_Por-que-desayuna-muy-bien.wav,./stim/wavs/argentine_mismatch_interrogative-partial-wh_Por-que-desayuna-muy-bien.wav,./stim/wavs/castilian_mismatch_interrogative-partial-wh_Por-que-desayuna-muy-bien.wav,./stim/wavs/chilean_mismatch_interrogative-partial-wh_Por-que-desayuna-muy-bien.wav,./stim/wavs/cuban_mismatch_interrogative-partial-wh_Por-que-desayuna-muy-bien.wav,./stim/wavs/mexican_mismatch_interrogative-partial-wh_Por-que-desayuna-muy-bien.wav,./stim/wavs/peruvian_mismatch_interrogative-partial-wh_Por-que-desayuna-muy-bien.wav,./stim/wavs/puertorican_mismatch_interrogative-partial-wh_Por-que-desayuna-muy-bien.wav,,,,,,,,,,,,,,,,,,,,,,,,,,,,,,,,,,,,,,,,,,,,,,,,,,,,,,,,
,,,,,,,5fb6da2d039b27111314d871,605b45a4d25f287719a41696,605e060816e1d2d8c2b69059,Spain,Midwest,12 or younger,no,2021-03-26_11h04.49.790,empathy_intonation_perc,2020.2.10,Win32,60,,,,,,,,,,1,peruvian,0,0,1.91806,0,50,50,61,1,62,./stim/wavs/andalusian_mismatch_interrogative-total-yn_Mi-madre-come-la-fruta.wav,./stim/wavs/argentine_mismatch_interrogative-total-yn_Mi-madre-come-la-fruta.wav,./stim/wavs/castilian_mismatch_interrogative-total-yn_Mi-madre-come-la-fruta.wav,./stim/wavs/chilean_mismatch_interrogative-total-yn_Mi-madre-come-la-fruta.wav,./stim/wavs/cuban_mismatch_interrogative-total-yn_Mi-madre-come-la-fruta.wav,./stim/wavs/mexican_mismatch_interrogative-total-yn_Mi-madre-come-la-fruta.wav,./stim/wavs/peruvian_mismatch_interrogative-total-yn_Mi-madre-come-la-fruta.wav,./stim/wavs/puertorican_mismatch_interrogative-total-yn_Mi-madre-come-la-fruta.wav,,,,,,,,,,,,,,,,,,,,,,,,,,,,,,,,,,,,,,,,,,,,,,,,,,,,,,,,
,,,,,,,5fb6da2d039b27111314d871,605b45a4d25f287719a41696,605e060816e1d2d8c2b69059,Spain,Midwest,12 or younger,no,2021-03-26_11h04.49.790,empathy_intonation_perc,2020.2.10,Win32,60,,,,,,,,,,1,andalusian,1,1,1.644925,0,51,51,20,1,21,./stim/wavs/andalusian_match_interrogative-partial-wh_Por-que-abre-el-regalo.wav,./stim/wavs/argentine_match_interrogative-partial-wh_Por-que-abre-el-regalo.wav,./stim/wavs/castilian_match_interrogative-partial-wh_Por-que-abre-el-regalo.wav,./stim/wavs/chilean_match_interrogative-partial-wh_Por-que-abre-el-regalo.wav,./stim/wavs/cuban_match_interrogative-partial-wh_Por-que-abre-el-regalo.wav,./stim/wavs/mexican_match_interrogative-partial-wh_Por-que-abre-el-regalo.wav,./stim/wavs/peruvian_match_interrogative-partial-wh_Por-que-abre-el-regalo.wav,./stim/wavs/puertorican_match_interrogative-partial-wh_Por-que-abre-el-regalo.wav,,,,,,,,,,,,,,,,,,,,,,,,,,,,,,,,,,,,,,,,,,,,,,,,,,,,,,,,
,,,,,,,5fb6da2d039b27111314d871,605b45a4d25f287719a41696,605e060816e1d2d8c2b69059,Spain,Midwest,12 or younger,no,2021-03-26_11h04.49.790,empathy_intonation_perc,2020.2.10,Win32,60,,,,,,,,,,0,argentine,0,1,1.740445,0,52,52,3,1,4,./stim/wavs/andalusian_match_declarative-broad-focus_Emilio-ama-la-marcha.wav,./stim/wavs/argentine_match_declarative-broad-focus_Emilio-ama-la-marcha.wav,./stim/wavs/castilian_match_declarative-broad-focus_Emilio-ama-la-marcha.wav,./stim/wavs/chilean_match_declarative-broad-focus_Emilio-ama-la-marcha.wav,./stim/wavs/cuban_match_declarative-broad-focus_Emilio-ama-la-marcha.wav,./stim/wavs/mexican_match_declarative-broad-focus_Emilio-ama-la-marcha.wav,./stim/wavs/peruvian_match_declarative-broad-focus_Emilio-ama-la-marcha.wav,./stim/wavs/puertorican_match_declarative-broad-focus_Emilio-ama-la-marcha.wav,,,,,,,,,,,,,,,,,,,,,,,,,,,,,,,,,,,,,,,,,,,,,,,,,,,,,,,,
,,,,,,,5fb6da2d039b27111314d871,605b45a4d25f287719a41696,605e060816e1d2d8c2b69059,Spain,Midwest,12 or younger,no,2021-03-26_11h04.49.790,empathy_intonation_perc,2020.2.10,Win32,60,,,,,,,,,,1,mexican,1,1,1.295455,0,53,53,19,1,20,./stim/wavs/andalusian_match_interrogative-partial-wh_Cuando-vendia-el-carro.wav,./stim/wavs/argentine_match_interrogative-partial-wh_Cuando-vendia-el-carro.wav,./stim/wavs/castilian_match_interrogative-partial-wh_Cuando-vendia-el-carro.wav,./stim/wavs/chilean_match_interrogative-partial-wh_Cuando-vendia-el-carro.wav,./stim/wavs/cuban_match_interrogative-partial-wh_Cuando-vendia-el-carro.wav,./stim/wavs/mexican_match_interrogative-partial-wh_Cuando-vendia-el-carro.wav,./stim/wavs/peruvian_match_interrogative-partial-wh_Cuando-vendia-el-carro.wav,./stim/wavs/puertorican_match_interrogative-partial-wh_Cuando-vendia-el-carro.wav,,,,,,,,,,,,,,,,,,,,,,,,,,,,,,,,,,,,,,,,,,,,,,,,,,,,,,,,
,,,,,,,5fb6da2d039b27111314d871,605b45a4d25f287719a41696,605e060816e1d2d8c2b69059,Spain,Midwest,12 or younger,no,2021-03-26_11h04.49.790,empathy_intonation_perc,2020.2.10,Win32,60,,,,,,,,,,0,peruvian,0,1,2.202625,0,54,54,32,1,33,./stim/wavs/andalusian_mismatch_declarative-broad-focus_El-bebe-comia-muy-bien.wav,./stim/wavs/argentine_mismatch_declarative-broad-focus_El-bebe-comia-muy-bien.wav,./stim/wavs/castilian_mismatch_declarative-broad-focus_El-bebe-comia-muy-bien.wav,./stim/wavs/chilean_mismatch_declarative-broad-focus_El-bebe-comia-muy-bien.wav,./stim/wavs/cuban_mismatch_declarative-broad-focus_El-bebe-comia-muy-bien.wav,./stim/wavs/mexican_mismatch_declarative-broad-focus_El-bebe-comia-muy-bien.wav,./stim/wavs/peruvian_mismatch_declarative-broad-focus_El-bebe-comia-muy-bien.wav,./stim/wavs/puertorican_mismatch_declarative-broad-focus_El-bebe-comia-muy-bien.wav,,,,,,,,,,,,,,,,,,,,,,,,,,,,,,,,,,,,,,,,,,,,,,,,,,,,,,,,
,,,,,,,5fb6da2d039b27111314d871,605b45a4d25f287719a41696,605e060816e1d2d8c2b69059,Spain,Midwest,12 or younger,no,2021-03-26_11h04.49.790,empathy_intonation_perc,2020.2.10,Win32,60,,,,,,,,,,1,puertorican,1,1,2.480815,0,55,55,55,1,56,./stim/wavs/andalusian_mismatch_interrogative-partial-wh_Por-que-vivia-en-Paris.wav,./stim/wavs/argentine_mismatch_interrogative-partial-wh_Por-que-vivia-en-Paris.wav,./stim/wavs/castilian_mismatch_interrogative-partial-wh_Por-que-vivia-en-Paris.wav,./stim/wavs/chilean_mismatch_interrogative-partial-wh_Por-que-vivia-en-Paris.wav,./stim/wavs/cuban_mismatch_interrogative-partial-wh_Por-que-vivia-en-Paris.wav,./stim/wavs/mexican_mismatch_interrogative-partial-wh_Por-que-vivia-en-Paris.wav,./stim/wavs/peruvian_mismatch_interrogative-partial-wh_Por-que-vivia-en-Paris.wav,./stim/wavs/puertorican_mismatch_interrogative-partial-wh_Por-que-vivia-en-Paris.wav,,,,,,,,,,,,,,,,,,,,,,,,,,,,,,,,,,,,,,,,,,,,,,,,,,,,,,,,
,,,,,,,5fb6da2d039b27111314d871,605b45a4d25f287719a41696,605e060816e1d2d8c2b69059,Spain,Midwest,12 or younger,no,2021-03-26_11h04.49.790,empathy_intonation_perc,2020.2.10,Win32,60,,,,,,,,,,1,mexican,1,1,1.352585,0,56,56,16,1,17,./stim/wavs/andalusian_match_interrogative-partial-wh_Cuando-bebia-el-vino.wav,./stim/wavs/argentine_match_interrogative-partial-wh_Cuando-bebia-el-vino.wav,./stim/wavs/castilian_match_interrogative-partial-wh_Cuando-bebia-el-vino.wav,./stim/wavs/chilean_match_interrogative-partial-wh_Cuando-bebia-el-vino.wav,./stim/wavs/cuban_match_interrogative-partial-wh_Cuando-bebia-el-vino.wav,./stim/wavs/mexican_match_interrogative-partial-wh_Cuando-bebia-el-vino.wav,./stim/wavs/peruvian_match_interrogative-partial-wh_Cuando-bebia-el-vino.wav,./stim/wavs/puertorican_match_interrogative-partial-wh_Cuando-bebia-el-vino.wav,,,,,,,,,,,,,,,,,,,,,,,,,,,,,,,,,,,,,,,,,,,,,,,,,,,,,,,,
,,,,,,,5fb6da2d039b27111314d871,605b45a4d25f287719a41696,605e060816e1d2d8c2b69059,Spain,Midwest,12 or younger,no,2021-03-26_11h04.49.790,empathy_intonation_perc,2020.2.10,Win32,60,,,,,,,,,,1,chilean,1,1,1.650125,0,57,57,50,1,51,./stim/wavs/andalusian_mismatch_interrogative-partial-wh_Cuando-miraba-la-luna.wav,./stim/wavs/argentine_mismatch_interrogative-partial-wh_Cuando-miraba-la-luna.wav,./stim/wavs/castilian_mismatch_interrogative-partial-wh_Cuando-miraba-la-luna.wav,./stim/wavs/chilean_mismatch_interrogative-partial-wh_Cuando-miraba-la-luna.wav,./stim/wavs/cuban_mismatch_interrogative-partial-wh_Cuando-miraba-la-luna.wav,./stim/wavs/mexican_mismatch_interrogative-partial-wh_Cuando-miraba-la-luna.wav,./stim/wavs/peruvian_mismatch_interrogative-partial-wh_Cuando-miraba-la-luna.wav,./stim/wavs/puertorican_mismatch_interrogative-partial-wh_Cuando-miraba-la-luna.wav,,,,,,,,,,,,,,,,,,,,,,,,,,,,,,,,,,,,,,,,,,,,,,,,,,,,,,,,
,,,,,,,5fb6da2d039b27111314d871,605b45a4d25f287719a41696,605e060816e1d2d8c2b69059,Spain,Midwest,12 or younger,no,2021-03-26_11h04.49.790,empathy_intonation_perc,2020.2.10,Win32,60,,,,,,,,,,0,argentine,0,1,2.16109,0,58,58,35,1,36,./stim/wavs/andalusian_mismatch_declarative-broad-focus_La-maestra-vive-en-Paris.wav,./stim/wavs/argentine_mismatch_declarative-broad-focus_La-maestra-vive-en-Paris.wav,./stim/wavs/castilian_mismatch_declarative-broad-focus_La-maestra-vive-en-Paris.wav,./stim/wavs/chilean_mismatch_declarative-broad-focus_La-maestra-vive-en-Paris.wav,./stim/wavs/cuban_mismatch_declarative-broad-focus_La-maestra-vive-en-Paris.wav,./stim/wavs/mexican_mismatch_declarative-broad-focus_La-maestra-vive-en-Paris.wav,./stim/wavs/peruvian_mismatch_declarative-broad-focus_La-maestra-vive-en-Paris.wav,./stim/wavs/puertorican_mismatch_declarative-broad-focus_La-maestra-vive-en-Paris.wav,,,,,,,,,,,,,,,,,,,,,,,,,,,,,,,,,,,,,,,,,,,,,,,,,,,,,,,,
,,,,,,,5fb6da2d039b27111314d871,605b45a4d25f287719a41696,605e060816e1d2d8c2b69059,Spain,Midwest,12 or younger,no,2021-03-26_11h04.49.790,empathy_intonation_perc,2020.2.10,Win32,60,,,,,,,,,,0,castilian,0,1,1.740935,0,59,59,46,1,47,./stim/wavs/andalusian_mismatch_declarative-narrow-focus_Mi-novio-viene-del-lago.wav,./stim/wavs/argentine_mismatch_declarative-narrow-focus_Mi-novio-viene-del-lago.wav,./stim/wavs/castilian_mismatch_declarative-narrow-focus_Mi-novio-viene-del-lago.wav,./stim/wavs/chilean_mismatch_declarative-narrow-focus_Mi-novio-viene-del-lago.wav,./stim/wavs/cuban_mismatch_declarative-narrow-focus_Mi-novio-viene-del-lago.wav,./stim/wavs/mexican_mismatch_declarative-narrow-focus_Mi-novio-viene-del-lago.wav,./stim/wavs/peruvian_mismatch_declarative-narrow-focus_Mi-novio-viene-del-lago.wav,./stim/wavs/puertorican_mismatch_declarative-narrow-focus_Mi-novio-viene-del-lago.wav,,,,,,,,,,,,,,,,,,,,,,,,,,,,,,,,,,,,,,,,,,,,,,,,,,,,,,,,
,,,,,,,5fb6da2d039b27111314d871,605b45a4d25f287719a41696,605e060816e1d2d8c2b69059,Spain,Midwest,12 or younger,no,2021-03-26_11h04.49.790,empathy_intonation_perc,2020.2.10,Win32,60,,,,,,,,,,1,argentine,0,0,2.00028,0,60,60,27,1,28,./stim/wavs/andalusian_match_interrogative-total-yn_Emilio-ama-la-marcha.wav,./stim/wavs/argentine_match_interrogative-total-yn_Emilio-ama-la-marcha.wav,./stim/wavs/castilian_match_interrogative-total-yn_Emilio-ama-la-marcha.wav,./stim/wavs/chilean_match_interrogative-total-yn_Emilio-ama-la-marcha.wav,./stim/wavs/cuban_match_interrogative-total-yn_Emilio-ama-la-marcha.wav,./stim/wavs/mexican_match_interrogative-total-yn_Emilio-ama-la-marcha.wav,./stim/wavs/peruvian_match_interrogative-total-yn_Emilio-ama-la-marcha.wav,./stim/wavs/puertorican_match_interrogative-total-yn_Emilio-ama-la-marcha.wav,,,,,,,,,,,,,,,,,,,,,,,,,,,,,,,,,,,,,,,,,,,,,,,,,,,,,,,,
,,,,,,,5fb6da2d039b27111314d871,605b45a4d25f287719a41696,605e060816e1d2d8c2b69059,Spain,Midwest,12 or younger,no,2021-03-26_11h04.49.790,empathy_intonation_perc,2020.2.10,Win32,60,,,,,,,,,,1,peruvian,0,0,1.385065,0,61,61,29,1,30,./stim/wavs/andalusian_match_interrogative-total-yn_Maria-bebe-el-vino.wav,./stim/wavs/argentine_match_interrogative-total-yn_Maria-bebe-el-vino.wav,./stim/wavs/castilian_match_interrogative-total-yn_Maria-bebe-el-vino.wav,./stim/wavs/chilean_match_interrogative-total-yn_Maria-bebe-el-vino.wav,./stim/wavs/cuban_match_interrogative-total-yn_Maria-bebe-el-vino.wav,./stim/wavs/mexican_match_interrogative-total-yn_Maria-bebe-el-vino.wav,./stim/wavs/peruvian_match_interrogative-total-yn_Maria-bebe-el-vino.wav,./stim/wavs/puertorican_match_interrogative-total-yn_Maria-bebe-el-vino.wav,,,,,,,,,,,,,,,,,,,,,,,,,,,,,,,,,,,,,,,,,,,,,,,,,,,,,,,,
,,,,,,,5fb6da2d039b27111314d871,605b45a4d25f287719a41696,605e060816e1d2d8c2b69059,Spain,Midwest,12 or younger,no,2021-03-26_11h04.49.790,empathy_intonation_perc,2020.2.10,Win32,60,,,,,,,,,,1,castilian,1,1,1.61936,0,62,62,23,1,24,./stim/wavs/andalusian_match_interrogative-partial-wh_Por-que-iba-a-Bolivia.wav,./stim/wavs/argentine_match_interrogative-partial-wh_Por-que-iba-a-Bolivia.wav,./stim/wavs/castilian_match_interrogative-partial-wh_Por-que-iba-a-Bolivia.wav,./stim/wavs/chilean_match_interrogative-partial-wh_Por-que-iba-a-Bolivia.wav,./stim/wavs/cuban_match_interrogative-partial-wh_Por-que-iba-a-Bolivia.wav,./stim/wavs/mexican_match_interrogative-partial-wh_Por-que-iba-a-Bolivia.wav,./stim/wavs/peruvian_match_interrogative-partial-wh_Por-que-iba-a-Bolivia.wav,./stim/wavs/puertorican_match_interrogative-partial-wh_Por-que-iba-a-Bolivia.wav,,,,,,,,,,,,,,,,,,,,,,,,,,,,,,,,,,,,,,,,,,,,,,,,,,,,,,,,
,,,,,,,5fb6da2d039b27111314d871,605b45a4d25f287719a41696,605e060816e1d2d8c2b69059,Spain,Midwest,12 or younger,no,2021-03-26_11h04.49.790,empathy_intonation_perc,2020.2.10,Win32,60,,,,,,,,,,0,andalusian,0,1,1.57096,0,63,63,45,1,46,./stim/wavs/andalusian_mismatch_declarative-narrow-focus_Mi-madre-come-la-fruta.wav,./stim/wavs/argentine_mismatch_declarative-narrow-focus_Mi-madre-come-la-fruta.wav,./stim/wavs/castilian_mismatch_declarative-narrow-focus_Mi-madre-come-la-fruta.wav,./stim/wavs/chilean_mismatch_declarative-narrow-focus_Mi-madre-come-la-fruta.wav,./stim/wavs/cuban_mismatch_declarative-narrow-focus_Mi-madre-come-la-fruta.wav,./stim/wavs/mexican_mismatch_declarative-narrow-focus_Mi-madre-come-la-fruta.wav,./stim/wavs/peruvian_mismatch_declarative-narrow-focus_Mi-madre-come-la-fruta.wav,./stim/wavs/puertorican_mismatch_declarative-narrow-focus_Mi-madre-come-la-fruta.wav,,,,,,,,,,,,,,,,,,,,,,,,,,,,,,,,,,,,,,,,,,,,,,,,,,,,,,,,
,,,,,,,5fb6da2d039b27111314d871,605b45a4d25f287719a41696,605e060816e1d2d8c2b69059,Spain,Midwest,12 or younger,no,2021-03-26_11h04.49.790,empathy_intonation_perc,2020.2.10,Win32,60,,,,,,,,,,,,,,,,,,,,,,,,,,,,,h,1,7.81704,0,0,0,0,1,,,,,,,,,,,,,,,,,,,,,,,,,,,,,,,,,,,,,,,,,,,,,,,,
,,,,,"Great! Now we will move on. The next task consists of about 60 trials, in each of which you will see a string of letters. 
  
  Your task is to decide whether this is a real Spanish word or not.",(press the spacebar to continue),5fb6da2d039b27111314d871,605b45a4d25f287719a41696,605e060816e1d2d8c2b69059,Spain,Midwest,12 or younger,no,2021-03-26_11h04.49.790,empathy_intonation_perc,2020.2.10,Win32,60,,,,,,,,,,,,,,,,,,,,,,,,,,,,,,,,,,,,,0,0,0,0,1,,,,,,,,,,,,,,,,,,,,,,,,,,,,,,,,,,,,,,,,,,,
,,,,,"If you think it is an existing Spanish word, you type '1' (for 'REAL'), and if you think it is not an existing Spanish word, you type '0' (for 'FAKE').",(press the spacebar to continue),5fb6da2d039b27111314d871,605b45a4d25f287719a41696,605e060816e1d2d8c2b69059,Spain,Midwest,12 or younger,no,2021-03-26_11h04.49.790,empathy_intonation_perc,2020.2.10,Win32,60,,,,,,,,,,,,,,,,,,,,,,,,,,,,,,,,,,,,,0,1,1,1,1,,,,,,,,,,,,,,,,,,,,,,,,,,,,,,,,,,,,,,,,,,,
,,,,,"If you are sure that the word exists, even though you dont know its exact meaning, you may still respond '1' (REAL). 
  
  But if you are not sure if it is an existing word, you should respond '0' (FAKE).
  
  Let's do a practice round...",(press the spacebar to continue),5fb6da2d039b27111314d871,605b45a4d25f287719a41696,605e060816e1d2d8c2b69059,Spain,Midwest,12 or younger,no,2021-03-26_11h04.49.790,empathy_intonation_perc,2020.2.10,Win32,60,,,,,,,,,,,,,,,,,,,,,,,,,,,,,,,,,,,,,0,2,2,2,1,,,,,,,,,,,,,,,,,,,,,,,,,,,,,,,,,,,,,,,,,,,
,,,,,,,5fb6da2d039b27111314d871,605b45a4d25f287719a41696,605e060816e1d2d8c2b69059,Spain,Midwest,12 or younger,no,2021-03-26_11h04.49.790,empathy_intonation_perc,2020.2.10,Win32,60,,,,,,,,,,0,,,,,,,,,,,,,,,,,,,,,,,,,,,,,,,,0,1,2.467565,0,0,0,0,1,0,depiste,REAL,FAKE,,,,,,,,,,,,,,,,,,,,,,,,,,,,,,,
,,,,,,,5fb6da2d039b27111314d871,605b45a4d25f287719a41696,605e060816e1d2d8c2b69059,Spain,Midwest,12 or younger,no,2021-03-26_11h04.49.790,empathy_intonation_perc,2020.2.10,Win32,60,,,,,,,,,,1,,,,,,,,,,,,,,,,,,,,,,,,,,,,,,,,1,1,1.15158,0,1,1,1,1,0,s,REAL,FAKE,,,,,,,,,,,,,,,,,,,,,,,,,,,,,,,
,,,,,,,5fb6da2d039b27111314d871,605b45a4d25f287719a41696,605e060816e1d2d8c2b69059,Spain,Midwest,12 or younger,no,2021-03-26_11h04.49.790,empathy_intonation_perc,2020.2.10,Win32,60,,,,,,,,,,0,,,,,,,,,,,,,,,,,,,,,,,,,,,,,,,,0,1,1.137915,0,2,2,2,1,0,con,REAL,FAKE,,,,,,,,,,,,,,,,,,,,,,,,,,,,,,,
,,,,,,,5fb6da2d039b27111314d871,605b45a4d25f287719a41696,605e060816e1d2d8c2b69059,Spain,Midwest,12 or younger,no,2021-03-26_11h04.49.790,empathy_intonation_perc,2020.2.10,Win32,60,,,,,,,,,,0,,,,,,,,,,,,,,,,,,,,,,,,,,,,,,,,1,0,1.45764,0,3,3,3,1,0,calpar,REAL,FAKE,,,,,,,,,,,,,,,,,,,,,,,,,,,,,,,
,,,,,,,5fb6da2d039b27111314d871,605b45a4d25f287719a41696,605e060816e1d2d8c2b69059,Spain,Midwest,12 or younger,no,2021-03-26_11h04.49.790,empathy_intonation_perc,2020.2.10,Win32,60,,,,,,,,,,0,,,,,,,,,,,,,,,,,,,,,,,,,,,,,,,,0,1,0.95395,0,4,4,4,1,0,joten,REAL,FAKE,,,,,,,,,,,,,,,,,,,,,,,,,,,,,,,
,,,,,,,5fb6da2d039b27111314d871,605b45a4d25f287719a41696,605e060816e1d2d8c2b69059,Spain,Midwest,12 or younger,no,2021-03-26_11h04.49.790,empathy_intonation_perc,2020.2.10,Win32,60,,,,,,,,,,1,,,,,,,,,,,,,,,,,,,,,,,,,,,,,,,,1,1,1.10062,0,5,5,5,1,0,sacapuntas,REAL,FAKE,,,,,,,,,,,,,,,,,,,,,,,,,,,,,,,
,,,,,,,5fb6da2d039b27111314d871,605b45a4d25f287719a41696,605e060816e1d2d8c2b69059,Spain,Midwest,12 or younger,no,2021-03-26_11h04.49.790,empathy_intonation_perc,2020.2.10,Win32,60,,,,,,,,,,0,,,,,,,,,,,,,,,,,,,,,,,,,,,,,,,,0,1,1.38416,0,6,6,6,1,0,priba,REAL,FAKE,,,,,,,,,,,,,,,,,,,,,,,,,,,,,,,
,,,,,,,5fb6da2d039b27111314d871,605b45a4d25f287719a41696,605e060816e1d2d8c2b69059,Spain,Midwest,12 or younger,no,2021-03-26_11h04.49.790,empathy_intonation_perc,2020.2.10,Win32,60,,,,,,,,,,0,,,,,,,,,,,,,,,,,,,,,,,,,,,,,,,,0,1,1.21178,0,7,7,7,1,0,pelasula,REAL,FAKE,,,,,,,,,,,,,,,,,,,,,,,,,,,,,,,
,,,,,,,5fb6da2d039b27111314d871,605b45a4d25f287719a41696,605e060816e1d2d8c2b69059,Spain,Midwest,12 or younger,no,2021-03-26_11h04.49.790,empathy_intonation_perc,2020.2.10,Win32,60,,,,,,,,,,1,,,,,,,,,,,,,,,,,,,,,,,,,,,,,,,,1,1,0.6913,0,8,8,8,1,0,bien,REAL,FAKE,,,,,,,,,,,,,,,,,,,,,,,,,,,,,,,
,,,,,,,5fb6da2d039b27111314d871,605b45a4d25f287719a41696,605e060816e1d2d8c2b69059,Spain,Midwest,12 or younger,no,2021-03-26_11h04.49.790,empathy_intonation_perc,2020.2.10,Win32,60,,,,,,,,,,1,,,,,,,,,,,,,,,,,,,,,,,,,,,,,,,,1,1,0.63967,0,9,9,9,1,0,casa,REAL,FAKE,,,,,,,,,,,,,,,,,,,,,,,,,,,,,,,
,,,,,,,5fb6da2d039b27111314d871,605b45a4d25f287719a41696,605e060816e1d2d8c2b69059,Spain,Midwest,12 or younger,no,2021-03-26_11h04.49.790,empathy_intonation_perc,2020.2.10,Win32,60,,,,,,,,,,0,,,,,,,,,,,,,,,,,,,,,,,,,,,,,,,,1,0,0.88404,0,10,10,10,1,0,lejo,REAL,FAKE,,,,,,,,,,,,,,,,,,,,,,,,,,,,,,,
,,,,,,,5fb6da2d039b27111314d871,605b45a4d25f287719a41696,605e060816e1d2d8c2b69059,Spain,Midwest,12 or younger,no,2021-03-26_11h04.49.790,empathy_intonation_perc,2020.2.10,Win32,60,,,,,,,,,,0,,,,,,,,,,,,,,,,,,,,,,,,,,,,,,,,0,1,1.384375,0,11,11,11,1,0,pretantas,REAL,FAKE,,,,,,,,,,,,,,,,,,,,,,,,,,,,,,,
,,,,,,,5fb6da2d039b27111314d871,605b45a4d25f287719a41696,605e060816e1d2d8c2b69059,Spain,Midwest,12 or younger,no,2021-03-26_11h04.49.790,empathy_intonation_perc,2020.2.10,Win32,60,,,,,,,,,,0,,,,,,,,,,,,,,,,,,,,,,,,,,,,,,,,,,,,,,,,58,plaudir,,,1,0,1.40821,0,0,0,57,1,REAL,FAKE,,,,,,,,,,,,,,,,,,,,,
,,,,,,,5fb6da2d039b27111314d871,605b45a4d25f287719a41696,605e060816e1d2d8c2b69059,Spain,Midwest,12 or younger,no,2021-03-26_11h04.49.790,empathy_intonation_perc,2020.2.10,Win32,60,,,,,,,,,,1,,,,,,,,,,,,,,,,,,,,,,,,,,,,,,,,,,,,,,,,61,seda,,,1,1,1.58219,0,1,1,60,1,REAL,FAKE,,,,,,,,,,,,,,,,,,,,,
,,,,,,,5fb6da2d039b27111314d871,605b45a4d25f287719a41696,605e060816e1d2d8c2b69059,Spain,Midwest,12 or younger,no,2021-03-26_11h04.49.790,empathy_intonation_perc,2020.2.10,Win32,60,,,,,,,,,,0,,,,,,,,,,,,,,,,,,,,,,,,,,,,,,,,,,,,,,,,82,empirador,,,1,0,1.454115,0,2,2,81,1,REAL,FAKE,,,,,,,,,,,,,,,,,,,,,
,,,,,,,5fb6da2d039b27111314d871,605b45a4d25f287719a41696,605e060816e1d2d8c2b69059,Spain,Midwest,12 or younger,no,2021-03-26_11h04.49.790,empathy_intonation_perc,2020.2.10,Win32,60,,,,,,,,,,0,,,,,,,,,,,,,,,,,,,,,,,,,,,,,,,,,,,,,,,,87,grodo,,,0,1,1.08296,0,3,3,86,1,REAL,FAKE,,,,,,,,,,,,,,,,,,,,,
,,,,,,,5fb6da2d039b27111314d871,605b45a4d25f287719a41696,605e060816e1d2d8c2b69059,Spain,Midwest,12 or younger,no,2021-03-26_11h04.49.790,empathy_intonation_perc,2020.2.10,Win32,60,,,,,,,,,,1,,,,,,,,,,,,,,,,,,,,,,,,,,,,,,,,,,,,,,,,24,ltigo,,,0,0,1.4271,0,4,4,23,1,REAL,FAKE,,,,,,,,,,,,,,,,,,,,,
,,,,,,,5fb6da2d039b27111314d871,605b45a4d25f287719a41696,605e060816e1d2d8c2b69059,Spain,Midwest,12 or younger,no,2021-03-26_11h04.49.790,empathy_intonation_perc,2020.2.10,Win32,60,,,,,,,,,,1,,,,,,,,,,,,,,,,,,,,,,,,,,,,,,,,,,,,,,,,60,matar,,,1,1,1.065755,0,5,5,59,1,REAL,FAKE,,,,,,,,,,,,,,,,,,,,,
,,,,,,,5fb6da2d039b27111314d871,605b45a4d25f287719a41696,605e060816e1d2d8c2b69059,Spain,Midwest,12 or younger,no,2021-03-26_11h04.49.790,empathy_intonation_perc,2020.2.10,Win32,60,,,,,,,,,,0,,,,,,,,,,,,,,,,,,,,,,,,,,,,,,,,,,,,,,,,30,alardio,,,1,0,2.309575,0,6,6,29,1,REAL,FAKE,,,,,,,,,,,,,,,,,,,,,
,,,,,,,5fb6da2d039b27111314d871,605b45a4d25f287719a41696,605e060816e1d2d8c2b69059,Spain,Midwest,12 or younger,no,2021-03-26_11h04.49.790,empathy_intonation_perc,2020.2.10,Win32,60,,,,,,,,,,1,,,,,,,,,,,,,,,,,,,,,,,,,,,,,,,,,,,,,,,,56,musgo,,,0,0,1.18286,0,7,7,55,1,REAL,FAKE,,,,,,,,,,,,,,,,,,,,,
,,,,,,,5fb6da2d039b27111314d871,605b45a4d25f287719a41696,605e060816e1d2d8c2b69059,Spain,Midwest,12 or younger,no,2021-03-26_11h04.49.790,empathy_intonation_perc,2020.2.10,Win32,60,,,,,,,,,,1,,,,,,,,,,,,,,,,,,,,,,,,,,,,,,,,,,,,,,,,86,barato,,,1,1,1.334655,0,8,8,85,1,REAL,FAKE,,,,,,,,,,,,,,,,,,,,,
,,,,,,,5fb6da2d039b27111314d871,605b45a4d25f287719a41696,605e060816e1d2d8c2b69059,Spain,Midwest,12 or younger,no,2021-03-26_11h04.49.790,empathy_intonation_perc,2020.2.10,Win32,60,,,,,,,,,,1,,,,,,,,,,,,,,,,,,,,,,,,,,,,,,,,,,,,,,,,73,hervidor,,,0,0,1.40241,0,9,9,72,1,REAL,FAKE,,,,,,,,,,,,,,,,,,,,,
,,,,,,,5fb6da2d039b27111314d871,605b45a4d25f287719a41696,605e060816e1d2d8c2b69059,Spain,Midwest,12 or younger,no,2021-03-26_11h04.49.790,empathy_intonation_perc,2020.2.10,Win32,60,,,,,,,,,,1,,,,,,,,,,,,,,,,,,,,,,,,,,,,,,,,,,,,,,,,20,vido,,,1,1,0.886625,0,10,10,19,1,REAL,FAKE,,,,,,,,,,,,,,,,,,,,,
,,,,,,,5fb6da2d039b27111314d871,605b45a4d25f287719a41696,605e060816e1d2d8c2b69059,Spain,Midwest,12 or younger,no,2021-03-26_11h04.49.790,empathy_intonation_perc,2020.2.10,Win32,60,,,,,,,,,,1,,,,,,,,,,,,,,,,,,,,,,,,,,,,,,,,,,,,,,,,48,ladrn,,,1,1,1.15482,0,11,11,47,1,REAL,FAKE,,,,,,,,,,,,,,,,,,,,,
,,,,,,,5fb6da2d039b27111314d871,605b45a4d25f287719a41696,605e060816e1d2d8c2b69059,Spain,Midwest,12 or younger,no,2021-03-26_11h04.49.790,empathy_intonation_perc,2020.2.10,Win32,60,,,,,,,,,,0,,,,,,,,,,,,,,,,,,,,,,,,,,,,,,,,,,,,,,,,10,antar,,,0,1,1.46466,0,12,12,9,1,REAL,FAKE,,,,,,,,,,,,,,,,,,,,,
,,,,,,,5fb6da2d039b27111314d871,605b45a4d25f287719a41696,605e060816e1d2d8c2b69059,Spain,Midwest,12 or younger,no,2021-03-26_11h04.49.790,empathy_intonation_perc,2020.2.10,Win32,60,,,,,,,,,,0,,,,,,,,,,,,,,,,,,,,,,,,,,,,,,,,,,,,,,,,23,lampera,,,1,0,1.64865,0,13,13,22,1,REAL,FAKE,,,,,,,,,,,,,,,,,,,,,
,,,,,,,5fb6da2d039b27111314d871,605b45a4d25f287719a41696,605e060816e1d2d8c2b69059,Spain,Midwest,12 or younger,no,2021-03-26_11h04.49.790,empathy_intonation_perc,2020.2.10,Win32,60,,,,,,,,,,0,,,,,,,,,,,,,,,,,,,,,,,,,,,,,,,,,,,,,,,,47,cartinar,,,0,1,1.40338,0,14,14,46,1,REAL,FAKE,,,,,,,,,,,,,,,,,,,,,
,,,,,,,5fb6da2d039b27111314d871,605b45a4d25f287719a41696,605e060816e1d2d8c2b69059,Spain,Midwest,12 or younger,no,2021-03-26_11h04.49.790,empathy_intonation_perc,2020.2.10,Win32,60,,,,,,,,,,0,,,,,,,,,,,,,,,,,,,,,,,,,,,,,,,,,,,,,,,,16,abracer,,,1,0,0.88844,0,15,15,15,1,REAL,FAKE,,,,,,,,,,,,,,,,,,,,,
,,,,,,,5fb6da2d039b27111314d871,605b45a4d25f287719a41696,605e060816e1d2d8c2b69059,Spain,Midwest,12 or younger,no,2021-03-26_11h04.49.790,empathy_intonation_perc,2020.2.10,Win32,60,,,,,,,,,,0,,,,,,,,,,,,,,,,,,,,,,,,,,,,,,,,,,,,,,,,18,arsa,,,0,1,0.99989,0,16,16,17,1,REAL,FAKE,,,,,,,,,,,,,,,,,,,,,
,,,,,,,5fb6da2d039b27111314d871,605b45a4d25f287719a41696,605e060816e1d2d8c2b69059,Spain,Midwest,12 or younger,no,2021-03-26_11h04.49.790,empathy_intonation_perc,2020.2.10,Win32,60,,,,,,,,,,1,,,,,,,,,,,,,,,,,,,,,,,,,,,,,,,,,,,,,,,,49,ganar,,,1,1,0.88188,0,17,17,48,1,REAL,FAKE,,,,,,,,,,,,,,,,,,,,,
,,,,,,,5fb6da2d039b27111314d871,605b45a4d25f287719a41696,605e060816e1d2d8c2b69059,Spain,Midwest,12 or younger,no,2021-03-26_11h04.49.790,empathy_intonation_perc,2020.2.10,Win32,60,,,,,,,,,,1,,,,,,,,,,,,,,,,,,,,,,,,,,,,,,,,,,,,,,,,46,martillo,,,0,0,1.3823,0,18,18,45,1,REAL,FAKE,,,,,,,,,,,,,,,,,,,,,
,,,,,,,5fb6da2d039b27111314d871,605b45a4d25f287719a41696,605e060816e1d2d8c2b69059,Spain,Midwest,12 or younger,no,2021-03-26_11h04.49.790,empathy_intonation_perc,2020.2.10,Win32,60,,,,,,,,,,1,,,,,,,,,,,,,,,,,,,,,,,,,,,,,,,,,,,,,,,,31,pandilla,,,1,1,1.05584,0,19,19,30,1,REAL,FAKE,,,,,,,,,,,,,,,,,,,,,
,,,,,,,5fb6da2d039b27111314d871,605b45a4d25f287719a41696,605e060816e1d2d8c2b69059,Spain,Midwest,12 or younger,no,2021-03-26_11h04.49.790,empathy_intonation_perc,2020.2.10,Win32,60,,,,,,,,,,1,,,,,,,,,,,,,,,,,,,,,,,,,,,,,,,,,,,,,,,,26,secuestro,,,0,0,1.225125,0,20,20,25,1,REAL,FAKE,,,,,,,,,,,,,,,,,,,,,
,,,,,,,5fb6da2d039b27111314d871,605b45a4d25f287719a41696,605e060816e1d2d8c2b69059,Spain,Midwest,12 or younger,no,2021-03-26_11h04.49.790,empathy_intonation_perc,2020.2.10,Win32,60,,,,,,,,,,1,,,,,,,,,,,,,,,,,,,,,,,,,,,,,,,,,,,,,,,,41,rebuscar,,,1,1,1.130105,0,21,21,40,1,REAL,FAKE,,,,,,,,,,,,,,,,,,,,,
,,,,,,,5fb6da2d039b27111314d871,605b45a4d25f287719a41696,605e060816e1d2d8c2b69059,Spain,Midwest,12 or younger,no,2021-03-26_11h04.49.790,empathy_intonation_perc,2020.2.10,Win32,60,,,,,,,,,,0,,,,,,,,,,,,,,,,,,,,,,,,,,,,,,,,,,,,,,,,19,brecedad,,,0,1,1.137,0,22,22,18,1,REAL,FAKE,,,,,,,,,,,,,,,,,,,,,
,,,,,,,5fb6da2d039b27111314d871,605b45a4d25f287719a41696,605e060816e1d2d8c2b69059,Spain,Midwest,12 or younger,no,2021-03-26_11h04.49.790,empathy_intonation_perc,2020.2.10,Win32,60,,,,,,,,,,1,,,,,,,,,,,,,,,,,,,,,,,,,,,,,,,,,,,,,,,,76,atar,,,0,0,1.365505,0,23,23,75,1,REAL,FAKE,,,,,,,,,,,,,,,,,,,,,
,,,,,,,5fb6da2d039b27111314d871,605b45a4d25f287719a41696,605e060816e1d2d8c2b69059,Spain,Midwest,12 or younger,no,2021-03-26_11h04.49.790,empathy_intonation_perc,2020.2.10,Win32,60,,,,,,,,,,1,,,,,,,,,,,,,,,,,,,,,,,,,,,,,,,,,,,,,,,,71,polvoriento,,,0,0,3.46845,0,24,24,70,1,REAL,FAKE,,,,,,,,,,,,,,,,,,,,,
,,,,,,,5fb6da2d039b27111314d871,605b45a4d25f287719a41696,605e060816e1d2d8c2b69059,Spain,Midwest,12 or younger,no,2021-03-26_11h04.49.790,empathy_intonation_perc,2020.2.10,Win32,60,,,,,,,,,,1,,,,,,,,,,,,,,,,,,,,,,,,,,,,,,,,,,,,,,,,85,lad,,,0,0,0.892975,0,25,25,84,1,REAL,FAKE,,,,,,,,,,,,,,,,,,,,,
,,,,,,,5fb6da2d039b27111314d871,605b45a4d25f287719a41696,605e060816e1d2d8c2b69059,Spain,Midwest,12 or younger,no,2021-03-26_11h04.49.790,empathy_intonation_perc,2020.2.10,Win32,60,,,,,,,,,,0,,,,,,,,,,,,,,,,,,,,,,,,,,,,,,,,,,,,,,,,72,pemicin,,,0,1,1.244135,0,26,26,71,1,REAL,FAKE,,,,,,,,,,,,,,,,,,,,,
,,,,,,,5fb6da2d039b27111314d871,605b45a4d25f287719a41696,605e060816e1d2d8c2b69059,Spain,Midwest,12 or younger,no,2021-03-26_11h04.49.790,empathy_intonation_perc,2020.2.10,Win32,60,,,,,,,,,,1,,,,,,,,,,,,,,,,,,,,,,,,,,,,,,,,,,,,,,,,3,pulmones,,,1,1,1.19223,0,27,27,2,1,REAL,FAKE,,,,,,,,,,,,,,,,,,,,,
,,,,,,,5fb6da2d039b27111314d871,605b45a4d25f287719a41696,605e060816e1d2d8c2b69059,Spain,Midwest,12 or younger,no,2021-03-26_11h04.49.790,empathy_intonation_perc,2020.2.10,Win32,60,,,,,,,,,,1,,,,,,,,,,,,,,,,,,,,,,,,,,,,,,,,,,,,,,,,55,nevar,,,1,1,0.97959,0,28,28,54,1,REAL,FAKE,,,,,,,,,,,,,,,,,,,,,
,,,,,,,5fb6da2d039b27111314d871,605b45a4d25f287719a41696,605e060816e1d2d8c2b69059,Spain,Midwest,12 or younger,no,2021-03-26_11h04.49.790,empathy_intonation_perc,2020.2.10,Win32,60,,,,,,,,,,0,,,,,,,,,,,,,,,,,,,,,,,,,,,,,,,,,,,,,,,,70,temblo,,,0,1,0.928955,0,29,29,69,1,REAL,FAKE,,,,,,,,,,,,,,,,,,,,,
,,,,,,,5fb6da2d039b27111314d871,605b45a4d25f287719a41696,605e060816e1d2d8c2b69059,Spain,Midwest,12 or younger,no,2021-03-26_11h04.49.790,empathy_intonation_perc,2020.2.10,Win32,60,,,,,,,,,,1,,,,,,,,,,,,,,,,,,,,,,,,,,,,,,,,,,,,,,,,52,camisa,,,1,1,0.65484,0,30,30,51,1,REAL,FAKE,,,,,,,,,,,,,,,,,,,,,
,,,,,,,5fb6da2d039b27111314d871,605b45a4d25f287719a41696,605e060816e1d2d8c2b69059,Spain,Midwest,12 or younger,no,2021-03-26_11h04.49.790,empathy_intonation_perc,2020.2.10,Win32,60,,,,,,,,,,0,,,,,,,,,,,,,,,,,,,,,,,,,,,,,,,,,,,,,,,,4,batilln,,,0,1,0.87429,0,31,31,3,1,REAL,FAKE,,,,,,,,,,,,,,,,,,,,,
,,,,,,,5fb6da2d039b27111314d871,605b45a4d25f287719a41696,605e060816e1d2d8c2b69059,Spain,Midwest,12 or younger,no,2021-03-26_11h04.49.790,empathy_intonation_perc,2020.2.10,Win32,60,,,,,,,,,,1,,,,,,,,,,,,,,,,,,,,,,,,,,,,,,,,,,,,,,,,83,guante,,,0,0,0.732715,0,32,32,82,1,REAL,FAKE,,,,,,,,,,,,,,,,,,,,,
,,,,,,,5fb6da2d039b27111314d871,605b45a4d25f287719a41696,605e060816e1d2d8c2b69059,Spain,Midwest,12 or younger,no,2021-03-26_11h04.49.790,empathy_intonation_perc,2020.2.10,Win32,60,,,,,,,,,,1,,,,,,,,,,,,,,,,,,,,,,,,,,,,,,,,,,,,,,,,90,clavel,,,0,0,0.86375,0,33,33,89,1,REAL,FAKE,,,,,,,,,,,,,,,,,,,,,
,,,,,,,5fb6da2d039b27111314d871,605b45a4d25f287719a41696,605e060816e1d2d8c2b69059,Spain,Midwest,12 or younger,no,2021-03-26_11h04.49.790,empathy_intonation_perc,2020.2.10,Win32,60,,,,,,,,,,1,,,,,,,,,,,,,,,,,,,,,,,,,,,,,,,,,,,,,,,,38,estornudar,,,1,1,1.83564,0,34,34,37,1,REAL,FAKE,,,,,,,,,,,,,,,,,,,,,
,,,,,,,5fb6da2d039b27111314d871,605b45a4d25f287719a41696,605e060816e1d2d8c2b69059,Spain,Midwest,12 or younger,no,2021-03-26_11h04.49.790,empathy_intonation_perc,2020.2.10,Win32,60,,,,,,,,,,1,,,,,,,,,,,,,,,,,,,,,,,,,,,,,,,,,,,,,,,,22,lacayo,,,0,0,0.87793,0,35,35,21,1,REAL,FAKE,,,,,,,,,,,,,,,,,,,,,
,,,,,,,5fb6da2d039b27111314d871,605b45a4d25f287719a41696,605e060816e1d2d8c2b69059,Spain,Midwest,12 or younger,no,2021-03-26_11h04.49.790,empathy_intonation_perc,2020.2.10,Win32,60,,,,,,,,,,1,,,,,,,,,,,,,,,,,,,,,,,,,,,,,,,,,,,,,,,,77,tiburn,,,0,0,0.951155,0,36,36,76,1,REAL,FAKE,,,,,,,,,,,,,,,,,,,,,
,,,,,,,5fb6da2d039b27111314d871,605b45a4d25f287719a41696,605e060816e1d2d8c2b69059,Spain,Midwest,12 or younger,no,2021-03-26_11h04.49.790,empathy_intonation_perc,2020.2.10,Win32,60,,,,,,,,,,1,,,,,,,,,,,,,,,,,,,,,,,,,,,,,,,,,,,,,,,,40,alfombra,,,0,0,1.120815,0,37,37,39,1,REAL,FAKE,,,,,,,,,,,,,,,,,,,,,
,,,,,,,5fb6da2d039b27111314d871,605b45a4d25f287719a41696,605e060816e1d2d8c2b69059,Spain,Midwest,12 or younger,no,2021-03-26_11h04.49.790,empathy_intonation_perc,2020.2.10,Win32,60,,,,,,,,,,1,,,,,,,,,,,,,,,,,,,,,,,,,,,,,,,,,,,,,,,,13,helar,,,1,1,1.331525,0,38,38,12,1,REAL,FAKE,,,,,,,,,,,,,,,,,,,,,
,,,,,,,5fb6da2d039b27111314d871,605b45a4d25f287719a41696,605e060816e1d2d8c2b69059,Spain,Midwest,12 or younger,no,2021-03-26_11h04.49.790,empathy_intonation_perc,2020.2.10,Win32,60,,,,,,,,,,1,,,,,,,,,,,,,,,,,,,,,,,,,,,,,,,,,,,,,,,,89,prisa,,,0,0,0.857405,0,39,39,88,1,REAL,FAKE,,,,,,,,,,,,,,,,,,,,,
,,,,,,,5fb6da2d039b27111314d871,605b45a4d25f287719a41696,605e060816e1d2d8c2b69059,Spain,Midwest,12 or younger,no,2021-03-26_11h04.49.790,empathy_intonation_perc,2020.2.10,Win32,60,,,,,,,,,,0,,,,,,,,,,,,,,,,,,,,,,,,,,,,,,,,,,,,,,,,27,acutacin,,,0,1,1.129255,0,40,40,26,1,REAL,FAKE,,,,,,,,,,,,,,,,,,,,,
,,,,,,,5fb6da2d039b27111314d871,605b45a4d25f287719a41696,605e060816e1d2d8c2b69059,Spain,Midwest,12 or younger,no,2021-03-26_11h04.49.790,empathy_intonation_perc,2020.2.10,Win32,60,,,,,,,,,,1,,,,,,,,,,,,,,,,,,,,,,,,,,,,,,,,,,,,,,,,12,asesinato,,,0,0,1.30541,0,41,41,11,1,REAL,FAKE,,,,,,,,,,,,,,,,,,,,,
,,,,,,,5fb6da2d039b27111314d871,605b45a4d25f287719a41696,605e060816e1d2d8c2b69059,Spain,Midwest,12 or younger,no,2021-03-26_11h04.49.790,empathy_intonation_perc,2020.2.10,Win32,60,,,,,,,,,,1,,,,,,,,,,,,,,,,,,,,,,,,,,,,,,,,,,,,,,,,2,pellizcar,,,0,0,1.229805,0,42,42,1,1,REAL,FAKE,,,,,,,,,,,,,,,,,,,,,
,,,,,,,5fb6da2d039b27111314d871,605b45a4d25f287719a41696,605e060816e1d2d8c2b69059,Spain,Midwest,12 or younger,no,2021-03-26_11h04.49.790,empathy_intonation_perc,2020.2.10,Win32,60,,,,,,,,,,1,,,,,,,,,,,,,,,,,,,,,,,,,,,,,,,,,,,,,,,,64,orgulloso,,,0,0,1.474545,0,43,43,63,1,REAL,FAKE,,,,,,,,,,,,,,,,,,,,,
,,,,,,,5fb6da2d039b27111314d871,605b45a4d25f287719a41696,605e060816e1d2d8c2b69059,Spain,Midwest,12 or younger,no,2021-03-26_11h04.49.790,empathy_intonation_perc,2020.2.10,Win32,60,,,,,,,,,,1,,,,,,,,,,,,,,,,,,,,,,,,,,,,,,,,,,,,,,,,45,jilguero,,,0,0,0.681295,0,44,44,44,1,REAL,FAKE,,,,,,,,,,,,,,,,,,,,,
,,,,,,,5fb6da2d039b27111314d871,605b45a4d25f287719a41696,605e060816e1d2d8c2b69059,Spain,Midwest,12 or younger,no,2021-03-26_11h04.49.790,empathy_intonation_perc,2020.2.10,Win32,60,,,,,,,,,,1,,,,,,,,,,,,,,,,,,,,,,,,,,,,,,,,,,,,,,,,59,besar,,,1,1,0.70125,0,45,45,58,1,REAL,FAKE,,,,,,,,,,,,,,,,,,,,,
,,,,,,,5fb6da2d039b27111314d871,605b45a4d25f287719a41696,605e060816e1d2d8c2b69059,Spain,Midwest,12 or younger,no,2021-03-26_11h04.49.790,empathy_intonation_perc,2020.2.10,Win32,60,,,,,,,,,,0,,,,,,,,,,,,,,,,,,,,,,,,,,,,,,,,,,,,,,,,79,tropaje,,,0,1,0.77304,0,46,46,78,1,REAL,FAKE,,,,,,,,,,,,,,,,,,,,,
,,,,,,,5fb6da2d039b27111314d871,605b45a4d25f287719a41696,605e060816e1d2d8c2b69059,Spain,Midwest,12 or younger,no,2021-03-26_11h04.49.790,empathy_intonation_perc,2020.2.10,Win32,60,,,,,,,,,,0,,,,,,,,,,,,,,,,,,,,,,,,,,,,,,,,,,,,,,,,33,pauca,,,0,1,0.87421,0,47,47,32,1,REAL,FAKE,,,,,,,,,,,,,,,,,,,,,
,,,,,,,5fb6da2d039b27111314d871,605b45a4d25f287719a41696,605e060816e1d2d8c2b69059,Spain,Midwest,12 or younger,no,2021-03-26_11h04.49.790,empathy_intonation_perc,2020.2.10,Win32,60,,,,,,,,,,0,,,,,,,,,,,,,,,,,,,,,,,,,,,,,,,,,,,,,,,,32,fatacidad,,,0,1,1.60018,0,48,48,31,1,REAL,FAKE,,,,,,,,,,,,,,,,,,,,,
,,,,,,,5fb6da2d039b27111314d871,605b45a4d25f287719a41696,605e060816e1d2d8c2b69059,Spain,Midwest,12 or younger,no,2021-03-26_11h04.49.790,empathy_intonation_perc,2020.2.10,Win32,60,,,,,,,,,,0,,,,,,,,,,,,,,,,,,,,,,,,,,,,,,,,,,,,,,,,8,cadea,,,1,0,0.74667,0,49,49,7,1,REAL,FAKE,,,,,,,,,,,,,,,,,,,,,
,,,,,,,5fb6da2d039b27111314d871,605b45a4d25f287719a41696,605e060816e1d2d8c2b69059,Spain,Midwest,12 or younger,no,2021-03-26_11h04.49.790,empathy_intonation_perc,2020.2.10,Win32,60,,,,,,,,,,1,,,,,,,,,,,,,,,,,,,,,,,,,,,,,,,,,,,,,,,,51,candado,,,1,1,1.166725,0,50,50,50,1,REAL,FAKE,,,,,,,,,,,,,,,,,,,,,
,,,,,,,5fb6da2d039b27111314d871,605b45a4d25f287719a41696,605e060816e1d2d8c2b69059,Spain,Midwest,12 or younger,no,2021-03-26_11h04.49.790,empathy_intonation_perc,2020.2.10,Win32,60,,,,,,,,,,1,,,,,,,,,,,,,,,,,,,,,,,,,,,,,,,,,,,,,,,,67,cabello,,,1,1,0.69787,0,51,51,66,1,REAL,FAKE,,,,,,,,,,,,,,,,,,,,,
,,,,,,,5fb6da2d039b27111314d871,605b45a4d25f287719a41696,605e060816e1d2d8c2b69059,Spain,Midwest,12 or younger,no,2021-03-26_11h04.49.790,empathy_intonation_perc,2020.2.10,Win32,60,,,,,,,,,,1,,,,,,,,,,,,,,,,,,,,,,,,,,,,,,,,,,,,,,,,43,canela,,,1,1,1.220905,0,52,52,42,1,REAL,FAKE,,,,,,,,,,,,,,,,,,,,,
,,,,,,,5fb6da2d039b27111314d871,605b45a4d25f287719a41696,605e060816e1d2d8c2b69059,Spain,Midwest,12 or younger,no,2021-03-26_11h04.49.790,empathy_intonation_perc,2020.2.10,Win32,60,,,,,,,,,,0,,,,,,,,,,,,,,,,,,,,,,,,,,,,,,,,,,,,,,,,84,escuto,,,0,1,0.803355,0,53,53,83,1,REAL,FAKE,,,,,,,,,,,,,,,,,,,,,
,,,,,,,5fb6da2d039b27111314d871,605b45a4d25f287719a41696,605e060816e1d2d8c2b69059,Spain,Midwest,12 or younger,no,2021-03-26_11h04.49.790,empathy_intonation_perc,2020.2.10,Win32,60,,,,,,,,,,0,,,,,,,,,,,,,,,,,,,,,,,,,,,,,,,,,,,,,,,,74,cintro,,,0,1,0.797645,0,54,54,73,1,REAL,FAKE,,,,,,,,,,,,,,,,,,,,,
,,,,,,,5fb6da2d039b27111314d871,605b45a4d25f287719a41696,605e060816e1d2d8c2b69059,Spain,Midwest,12 or younger,no,2021-03-26_11h04.49.790,empathy_intonation_perc,2020.2.10,Win32,60,,,,,,,,,,0,,,,,,,,,,,,,,,,,,,,,,,,,,,,,,,,,,,,,,,,42,cadallo,,,0,1,0.805745,0,55,55,41,1,REAL,FAKE,,,,,,,,,,,,,,,,,,,,,
,,,,,,,5fb6da2d039b27111314d871,605b45a4d25f287719a41696,605e060816e1d2d8c2b69059,Spain,Midwest,12 or younger,no,2021-03-26_11h04.49.790,empathy_intonation_perc,2020.2.10,Win32,60,,,,,,,,,,1,,,,,,,,,,,,,,,,,,,,,,,,,,,,,,,,,,,,,,,,68,alegre,,,1,1,1.168555,0,56,56,67,1,REAL,FAKE,,,,,,,,,,,,,,,,,,,,,
,,,,,,,5fb6da2d039b27111314d871,605b45a4d25f287719a41696,605e060816e1d2d8c2b69059,Spain,Midwest,12 or younger,no,2021-03-26_11h04.49.790,empathy_intonation_perc,2020.2.10,Win32,60,,,,,,,,,,1,,,,,,,,,,,,,,,,,,,,,,,,,,,,,,,,,,,,,,,,88,acantilado,,,0,0,1.40147,0,57,57,87,1,REAL,FAKE,,,,,,,,,,,,,,,,,,,,,
,,,,,,,5fb6da2d039b27111314d871,605b45a4d25f287719a41696,605e060816e1d2d8c2b69059,Spain,Midwest,12 or younger,no,2021-03-26_11h04.49.790,empathy_intonation_perc,2020.2.10,Win32,60,,,,,,,,,,0,,,,,,,,,,,,,,,,,,,,,,,,,,,,,,,,,,,,,,,,35,rompido,,,1,0,0.746795,0,58,58,34,1,REAL,FAKE,,,,,,,,,,,,,,,,,,,,,
,,,,,,,5fb6da2d039b27111314d871,605b45a4d25f287719a41696,605e060816e1d2d8c2b69059,Spain,Midwest,12 or younger,no,2021-03-26_11h04.49.790,empathy_intonation_perc,2020.2.10,Win32,60,,,,,,,,,,1,,,,,,,,,,,,,,,,,,,,,,,,,,,,,,,,,,,,,,,,62,flaco,,,0,0,0.869815,0,59,59,61,1,REAL,FAKE,,,,,,,,,,,,,,,,,,,,,
,,,,,,,5fb6da2d039b27111314d871,605b45a4d25f287719a41696,605e060816e1d2d8c2b69059,Spain,Midwest,12 or younger,no,2021-03-26_11h04.49.790,empathy_intonation_perc,2020.2.10,Win32,60,,,,,,,,,,1,,,,,,,,,,,,,,,,,,,,,,,,,,,,,,,,,,,,,,,,15,regar,,,1,1,0.66538,0,60,60,14,1,REAL,FAKE,,,,,,,,,,,,,,,,,,,,,
,,,,,,,5fb6da2d039b27111314d871,605b45a4d25f287719a41696,605e060816e1d2d8c2b69059,Spain,Midwest,12 or younger,no,2021-03-26_11h04.49.790,empathy_intonation_perc,2020.2.10,Win32,60,,,,,,,,,,0,,,,,,,,,,,,,,,,,,,,,,,,,,,,,,,,,,,,,,,,17,floroso,,,0,1,0.846795,0,61,61,16,1,REAL,FAKE,,,,,,,,,,,,,,,,,,,,,
,,,,,,,5fb6da2d039b27111314d871,605b45a4d25f287719a41696,605e060816e1d2d8c2b69059,Spain,Midwest,12 or younger,no,2021-03-26_11h04.49.790,empathy_intonation_perc,2020.2.10,Win32,60,,,,,,,,,,1,,,,,,,,,,,,,,,,,,,,,,,,,,,,,,,,,,,,,,,,7,psimo,,,0,0,0.987935,0,62,62,6,1,REAL,FAKE,,,,,,,,,,,,,,,,,,,,,
,,,,,,,5fb6da2d039b27111314d871,605b45a4d25f287719a41696,605e060816e1d2d8c2b69059,Spain,Midwest,12 or younger,no,2021-03-26_11h04.49.790,empathy_intonation_perc,2020.2.10,Win32,60,,,,,,,,,,1,,,,,,,,,,,,,,,,,,,,,,,,,,,,,,,,,,,,,,,,69,engatusar,,,0,0,0.88352,0,63,63,68,1,REAL,FAKE,,,,,,,,,,,,,,,,,,,,,
,,,,,,,5fb6da2d039b27111314d871,605b45a4d25f287719a41696,605e060816e1d2d8c2b69059,Spain,Midwest,12 or younger,no,2021-03-26_11h04.49.790,empathy_intonation_perc,2020.2.10,Win32,60,,,,,,,,,,0,,,,,,,,,,,,,,,,,,,,,,,,,,,,,,,,,,,,,,,,21,capillo,,,0,1,1.173155,0,64,64,20,1,REAL,FAKE,,,,,,,,,,,,,,,,,,,,,
,,,,,,,5fb6da2d039b27111314d871,605b45a4d25f287719a41696,605e060816e1d2d8c2b69059,Spain,Midwest,12 or younger,no,2021-03-26_11h04.49.790,empathy_intonation_perc,2020.2.10,Win32,60,,,,,,,,,,1,,,,,,,,,,,,,,,,,,,,,,,,,,,,,,,,,,,,,,,,36,loro,,,0,0,1.166725,0,65,65,35,1,REAL,FAKE,,,,,,,,,,,,,,,,,,,,,
,,,,,,,5fb6da2d039b27111314d871,605b45a4d25f287719a41696,605e060816e1d2d8c2b69059,Spain,Midwest,12 or younger,no,2021-03-26_11h04.49.790,empathy_intonation_perc,2020.2.10,Win32,60,,,,,,,,,,1,,,,,,,,,,,,,,,,,,,,,,,,,,,,,,,,,,,,,,,,81,pozo,,,1,1,1.216365,0,66,66,80,1,REAL,FAKE,,,,,,,,,,,,,,,,,,,,,
,,,,,,,5fb6da2d039b27111314d871,605b45a4d25f287719a41696,605e060816e1d2d8c2b69059,Spain,Midwest,12 or younger,no,2021-03-26_11h04.49.790,empathy_intonation_perc,2020.2.10,Win32,60,,,,,,,,,,1,,,,,,,,,,,,,,,,,,,,,,,,,,,,,,,,,,,,,,,,54,fomentar,,,1,1,1.170895,0,67,67,53,1,REAL,FAKE,,,,,,,,,,,,,,,,,,,,,
,,,,,,,5fb6da2d039b27111314d871,605b45a4d25f287719a41696,605e060816e1d2d8c2b69059,Spain,Midwest,12 or younger,no,2021-03-26_11h04.49.790,empathy_intonation_perc,2020.2.10,Win32,60,,,,,,,,,,1,,,,,,,,,,,,,,,,,,,,,,,,,,,,,,,,,,,,,,,,39,torpe,,,0,0,0.731465,0,68,68,38,1,REAL,FAKE,,,,,,,,,,,,,,,,,,,,,
,,,,,,,5fb6da2d039b27111314d871,605b45a4d25f287719a41696,605e060816e1d2d8c2b69059,Spain,Midwest,12 or younger,no,2021-03-26_11h04.49.790,empathy_intonation_perc,2020.2.10,Win32,60,,,,,,,,,,1,,,,,,,,,,,,,,,,,,,,,,,,,,,,,,,,,,,,,,,,6,tergiversar,,,0,0,1.320315,0,69,69,5,1,REAL,FAKE,,,,,,,,,,,,,,,,,,,,,
,,,,,,,5fb6da2d039b27111314d871,605b45a4d25f287719a41696,605e060816e1d2d8c2b69059,Spain,Midwest,12 or younger,no,2021-03-26_11h04.49.790,empathy_intonation_perc,2020.2.10,Win32,60,,,,,,,,,,1,,,,,,,,,,,,,,,,,,,,,,,,,,,,,,,,,,,,,,,,75,yacer,,,0,0,0.82268,0,70,70,74,1,REAL,FAKE,,,,,,,,,,,,,,,,,,,,,
,,,,,,,5fb6da2d039b27111314d871,605b45a4d25f287719a41696,605e060816e1d2d8c2b69059,Spain,Midwest,12 or younger,no,2021-03-26_11h04.49.790,empathy_intonation_perc,2020.2.10,Win32,60,,,,,,,,,,1,,,,,,,,,,,,,,,,,,,,,,,,,,,,,,,,,,,,,,,,5,zapato,,,1,1,0.80762,0,71,71,4,1,REAL,FAKE,,,,,,,,,,,,,,,,,,,,,
,,,,,,,5fb6da2d039b27111314d871,605b45a4d25f287719a41696,605e060816e1d2d8c2b69059,Spain,Midwest,12 or younger,no,2021-03-26_11h04.49.790,empathy_intonation_perc,2020.2.10,Win32,60,,,,,,,,,,0,,,,,,,,,,,,,,,,,,,,,,,,,,,,,,,,,,,,,,,,63,esposante,,,0,1,0.935955,0,72,72,62,1,REAL,FAKE,,,,,,,,,,,,,,,,,,,,,
,,,,,,,5fb6da2d039b27111314d871,605b45a4d25f287719a41696,605e060816e1d2d8c2b69059,Spain,Midwest,12 or younger,no,2021-03-26_11h04.49.790,empathy_intonation_perc,2020.2.10,Win32,60,,,,,,,,,,1,,,,,,,,,,,,,,,,,,,,,,,,,,,,,,,,,,,,,,,,80,hormiga,,,0,0,0.724695,0,73,73,79,1,REAL,FAKE,,,,,,,,,,,,,,,,,,,,,
,,,,,,,5fb6da2d039b27111314d871,605b45a4d25f287719a41696,605e060816e1d2d8c2b69059,Spain,Midwest,12 or younger,no,2021-03-26_11h04.49.790,empathy_intonation_perc,2020.2.10,Win32,60,,,,,,,,,,1,,,,,,,,,,,,,,,,,,,,,,,,,,,,,,,,,,,,,,,,28,merodear,,,0,0,0.95098,0,74,74,27,1,REAL,FAKE,,,,,,,,,,,,,,,,,,,,,
,,,,,,,5fb6da2d039b27111314d871,605b45a4d25f287719a41696,605e060816e1d2d8c2b69059,Spain,Midwest,12 or younger,no,2021-03-26_11h04.49.790,empathy_intonation_perc,2020.2.10,Win32,60,,,,,,,,,,0,,,,,,,,,,,,,,,,,,,,,,,,,,,,,,,,,,,,,,,,53,vegada,,,0,1,0.77405,0,75,75,52,1,REAL,FAKE,,,,,,,,,,,,,,,,,,,,,
,,,,,,,5fb6da2d039b27111314d871,605b45a4d25f287719a41696,605e060816e1d2d8c2b69059,Spain,Midwest,12 or younger,no,2021-03-26_11h04.49.790,empathy_intonation_perc,2020.2.10,Win32,60,,,,,,,,,,1,,,,,,,,,,,,,,,,,,,,,,,,,,,,,,,,,,,,,,,,25,bisagra,,,0,0,0.9164,0,76,76,24,1,REAL,FAKE,,,,,,,,,,,,,,,,,,,,,
,,,,,,,5fb6da2d039b27111314d871,605b45a4d25f287719a41696,605e060816e1d2d8c2b69059,Spain,Midwest,12 or younger,no,2021-03-26_11h04.49.790,empathy_intonation_perc,2020.2.10,Win32,60,,,,,,,,,,0,,,,,,,,,,,,,,,,,,,,,,,,,,,,,,,,,,,,,,,,66,hacido,,,1,0,0.78281,0,77,77,65,1,REAL,FAKE,,,,,,,,,,,,,,,,,,,,,
,,,,,,,5fb6da2d039b27111314d871,605b45a4d25f287719a41696,605e060816e1d2d8c2b69059,Spain,Midwest,12 or younger,no,2021-03-26_11h04.49.790,empathy_intonation_perc,2020.2.10,Win32,60,,,,,,,,,,1,,,,,,,,,,,,,,,,,,,,,,,,,,,,,,,,,,,,,,,,65,bizcocho,,,0,0,0.74197,0,78,78,64,1,REAL,FAKE,,,,,,,,,,,,,,,,,,,,,
,,,,,,,5fb6da2d039b27111314d871,605b45a4d25f287719a41696,605e060816e1d2d8c2b69059,Spain,Midwest,12 or younger,no,2021-03-26_11h04.49.790,empathy_intonation_perc,2020.2.10,Win32,60,,,,,,,,,,1,,,,,,,,,,,,,,,,,,,,,,,,,,,,,,,,,,,,,,,,9,hacha,,,1,1,0.560355,0,79,79,8,1,REAL,FAKE,,,,,,,,,,,,,,,,,,,,,
,,,,,,,5fb6da2d039b27111314d871,605b45a4d25f287719a41696,605e060816e1d2d8c2b69059,Spain,Midwest,12 or younger,no,2021-03-26_11h04.49.790,empathy_intonation_perc,2020.2.10,Win32,60,,,,,,,,,,1,,,,,,,,,,,,,,,,,,,,,,,,,,,,,,,,,,,,,,,,14,yunque,,,0,0,0.54831,0,80,80,13,1,REAL,FAKE,,,,,,,,,,,,,,,,,,,,,
,,,,,,,5fb6da2d039b27111314d871,605b45a4d25f287719a41696,605e060816e1d2d8c2b69059,Spain,Midwest,12 or younger,no,2021-03-26_11h04.49.790,empathy_intonation_perc,2020.2.10,Win32,60,,,,,,,,,,0,,,,,,,,,,,,,,,,,,,,,,,,,,,,,,,,,,,,,,,,50,flamida,,,0,1,0.8977,0,81,81,49,1,REAL,FAKE,,,,,,,,,,,,,,,,,,,,,
,,,,,,,5fb6da2d039b27111314d871,605b45a4d25f287719a41696,605e060816e1d2d8c2b69059,Spain,Midwest,12 or younger,no,2021-03-26_11h04.49.790,empathy_intonation_perc,2020.2.10,Win32,60,,,,,,,,,,1,,,,,,,,,,,,,,,,,,,,,,,,,,,,,,,,,,,,,,,,44,cuchara,,,0,0,0.734435,0,82,82,43,1,REAL,FAKE,,,,,,,,,,,,,,,,,,,,,
,,,,,,,5fb6da2d039b27111314d871,605b45a4d25f287719a41696,605e060816e1d2d8c2b69059,Spain,Midwest,12 or younger,no,2021-03-26_11h04.49.790,empathy_intonation_perc,2020.2.10,Win32,60,,,,,,,,,,1,,,,,,,,,,,,,,,,,,,,,,,,,,,,,,,,,,,,,,,,11,cenefa,,,0,0,0.63554,0,83,83,10,1,REAL,FAKE,,,,,,,,,,,,,,,,,,,,,
,,,,,,,5fb6da2d039b27111314d871,605b45a4d25f287719a41696,605e060816e1d2d8c2b69059,Spain,Midwest,12 or younger,no,2021-03-26_11h04.49.790,empathy_intonation_perc,2020.2.10,Win32,60,,,,,,,,,,1,,,,,,,,,,,,,,,,,,,,,,,,,,,,,,,,,,,,,,,,78,frondoso,,,0,0,0.826425,0,84,84,77,1,REAL,FAKE,,,,,,,,,,,,,,,,,,,,,
,,,,,,,5fb6da2d039b27111314d871,605b45a4d25f287719a41696,605e060816e1d2d8c2b69059,Spain,Midwest,12 or younger,no,2021-03-26_11h04.49.790,empathy_intonation_perc,2020.2.10,Win32,60,,,,,,,,,,1,,,,,,,,,,,,,,,,,,,,,,,,,,,,,,,,,,,,,,,,57,tacao,,,1,1,0.79262,0,85,85,56,1,REAL,FAKE,,,,,,,,,,,,,,,,,,,,,
,,,,,,,5fb6da2d039b27111314d871,605b45a4d25f287719a41696,605e060816e1d2d8c2b69059,Spain,Midwest,12 or younger,no,2021-03-26_11h04.49.790,empathy_intonation_perc,2020.2.10,Win32,60,,,,,,,,,,1,,,,,,,,,,,,,,,,,,,,,,,,,,,,,,,,,,,,,,,,37,granuja,,,0,0,1.237595,0,86,86,36,1,REAL,FAKE,,,,,,,,,,,,,,,,,,,,,
,,,,,,,5fb6da2d039b27111314d871,605b45a4d25f287719a41696,605e060816e1d2d8c2b69059,Spain,Midwest,12 or younger,no,2021-03-26_11h04.49.790,empathy_intonation_perc,2020.2.10,Win32,60,,,,,,,,,,0,,,,,,,,,,,,,,,,,,,,,,,,,,,,,,,,,,,,,,,,1,terzo,,,0,1,0.968585,0,87,87,0,1,REAL,FAKE,,,,,,,,,,,,,,,,,,,,,
,,,,,,,5fb6da2d039b27111314d871,605b45a4d25f287719a41696,605e060816e1d2d8c2b69059,Spain,Midwest,12 or younger,no,2021-03-26_11h04.49.790,empathy_intonation_perc,2020.2.10,Win32,60,,,,,,,,,,0,,,,,,,,,,,,,,,,,,,,,,,,,,,,,,,,,,,,,,,,29,decar,,,0,1,0.85294,0,88,88,28,1,REAL,FAKE,,,,,,,,,,,,,,,,,,,,,
,,,,,,,5fb6da2d039b27111314d871,605b45a4d25f287719a41696,605e060816e1d2d8c2b69059,Spain,Midwest,12 or younger,no,2021-03-26_11h04.49.790,empathy_intonation_perc,2020.2.10,Win32,60,,,,,,,,,,1,,,,,,,,,,,,,,,,,,,,,,,,,,,,,,,,,,,,,,,,34,aviso,,,0,0,1.36986,0,89,89,33,1,REAL,FAKE,,,,,,,,,,,,,,,,,,,,,
,,,,,,,5fb6da2d039b27111314d871,605b45a4d25f287719a41696,605e060816e1d2d8c2b69059,Spain,Midwest,12 or younger,no,2021-03-26_11h04.49.790,empathy_intonation_perc,2020.2.10,Win32,60,,,,,,,,,,,,,,,,,,,,,,,,,,,,,,,,,,,,,,,,,,,,,,,,,,,,,,,,,,,,,,,,4,1,2.477485,1,0,0,0,0,0,1,,,,,,,,,,,
,,,,,,,5fb6da2d039b27111314d871,605b45a4d25f287719a41696,605e060816e1d2d8c2b69059,Spain,Midwest,12 or younger,no,2021-03-26_11h04.49.790,empathy_intonation_perc,2020.2.10,Win32,60,,,,,,,,,,,,,,,,,,,,1,,,,,,,,,,,,,,,,,,,,,,,,,,,,,,,,,,,,,,,,,,,,,,,,,,,,,,2,0,0,0,0,1,I can easily tell if someone else wants to enter a conversation.,1,0,1,0
,,,,,,,5fb6da2d039b27111314d871,605b45a4d25f287719a41696,605e060816e1d2d8c2b69059,Spain,Midwest,12 or younger,no,2021-03-26_11h04.49.790,empathy_intonation_perc,2020.2.10,Win32,60,,,,,,,,,,,,,,,,,,,,2,,,,,,,,,,,,,,,,,,,,,,,,,,,,,,,,,,,,,,,,,,,,,,,,,,,,,,3,0,1,1,1,1,I prefer animals to humans.,0,1,0,0
,,,,,,,5fb6da2d039b27111314d871,605b45a4d25f287719a41696,605e060816e1d2d8c2b69059,Spain,Midwest,12 or younger,no,2021-03-26_11h04.49.790,empathy_intonation_perc,2020.2.10,Win32,60,,,,,,,,,,,,,,,,,,,,3,,,,,,,,,,,,,,,,,,,,,,,,,,,,,,,,,,,,,,,,,,,,,,,,,,,,,,4,0,2,2,2,1,I try to keep up with the current trends and fashions.,0,1,0,0
,,,,,,,5fb6da2d039b27111314d871,605b45a4d25f287719a41696,605e060816e1d2d8c2b69059,Spain,Midwest,12 or younger,no,2021-03-26_11h04.49.790,empathy_intonation_perc,2020.2.10,Win32,60,,,,,,,,,,,,,,,,,,,,4,,,,,,,,,,,,,,,,,,,,,,,,,,,,,,,,,,,,,,,,,,,,,,,,,,,,,,4,0,3,3,3,1,"I find it difficult to explain to others things that I understand easily, 
  when they dont understand it first time.",1,0,0,1
,,,,,,,5fb6da2d039b27111314d871,605b45a4d25f287719a41696,605e060816e1d2d8c2b69059,Spain,Midwest,12 or younger,no,2021-03-26_11h04.49.790,empathy_intonation_perc,2020.2.10,Win32,60,,,,,,,,,,,,,,,,,,,,5,,,,,,,,,,,,,,,,,,,,,,,,,,,,,,,,,,,,,,,,,,,,,,,,,,,,,,4,0,4,4,4,1,I dream most nights.,0,1,0,0
,,,,,,,5fb6da2d039b27111314d871,605b45a4d25f287719a41696,605e060816e1d2d8c2b69059,Spain,Midwest,12 or younger,no,2021-03-26_11h04.49.790,empathy_intonation_perc,2020.2.10,Win32,60,,,,,,,,,,,,,,,,,,,,6,,,,,,,,,,,,,,,,,,,,,,,,,,,,,,,,,,,,,,,,,,,,,,,,,,,,,,2,0,5,5,5,1,I really enjoy caring for other people.,1,0,1,0
,,,,,,,5fb6da2d039b27111314d871,605b45a4d25f287719a41696,605e060816e1d2d8c2b69059,Spain,Midwest,12 or younger,no,2021-03-26_11h04.49.790,empathy_intonation_perc,2020.2.10,Win32,60,,,,,,,,,,,,,,,,,,,,7,,,,,,,,,,,,,,,,,,,,,,,,,,,,,,,,,,,,,,,,,,,,,,,,,,,,,,1,0,6,6,6,1,I try to solve my own problems rather than discussing them with others.,0,1,0,0
,,,,,,,5fb6da2d039b27111314d871,605b45a4d25f287719a41696,605e060816e1d2d8c2b69059,Spain,Midwest,12 or younger,no,2021-03-26_11h04.49.790,empathy_intonation_perc,2020.2.10,Win32,60,,,,,,,,,,,,,,,,,,,,8,,,,,,,,,,,,,,,,,,,,,,,,,,,,,,,,,,,,,,,,,,,,,,,,,,,,,,3,0,7,7,7,1,I find it hard to know what to do in a social situation.,1,0,0,1
