instructions_2afc_loop.thisRepN,instructions_2afc_loop.thisTrialN,instructions_2afc_loop.thisN,instructions_2afc_loop.thisIndex,instructions_2afc_loop.ran,instructions_text,continue_text,participant,study_id,session,I am most familiar with Spanish from...*,What part of the US are you from?*,At what age did you begin learning Spanish?*,Are you proficient in any languages other than English/Spanish?*,date,expName,psychopyVersion,OS,frameRate,key_resp_2afc_practice.keys,key_resp_2afc_practice.corr,key_resp_2afc_practice.rt,trials_2afc_practice_loop.thisRepN,trials_2afc_practice_loop.thisTrialN,trials_2afc_practice_loop.thisN,trials_2afc_practice_loop.thisIndex,trials_2afc_practice_loop.ran,path,correct_response,the_col,key_resp_2afc_trial.keys,key_resp_2afc_trial.corr,key_resp_2afc_trial.rt,trials_2afc_loop.thisRepN,trials_2afc_loop.thisTrialN,trials_2afc_loop.thisN,trials_2afc_loop.thisIndex,trials_2afc_loop.ran,item_num,andalusian,argentine,castilian,chilean,cuban,mexican,peruvian,puertorican,key_resp_ac1.keys,key_resp_ac1.corr,key_resp_ac1.rt,ac1_loop.thisRepN,ac1_loop.thisTrialN,ac1_loop.thisN,ac1_loop.thisIndex,ac1_loop.ran,instructions_lextale_loop.thisRepN,instructions_lextale_loop.thisTrialN,instructions_lextale_loop.thisN,instructions_lextale_loop.thisIndex,instructions_lextale_loop.ran,key_resp_lextale_practice.keys,key_resp_lextale_practice.corr,key_resp_lextale_practice.rt,trials_lextale_practice_loop.thisRepN,trials_lextale_practice_loop.thisTrialN,trials_lextale_practice_loop.thisN,trials_lextale_practice_loop.thisIndex,trials_lextale_practice_loop.ran,stim,word,prac_button_real,prac_button_false,key_resp_lextale_trial.keys,key_resp_lextale_trial.corr,key_resp_lextale_trial.rt,trials_lextale_loop.thisRepN,trials_lextale_loop.thisTrialN,trials_lextale_loop.thisN,trials_lextale_loop.thisIndex,trials_lextale_loop.ran,button_real,button_false,key_resp_ac2.keys,key_resp_ac2.corr,key_resp_ac2.rt,check_pass,check_fails,ac2_loop.thisRepN,ac2_loop.thisTrialN,ac2_loop.thisN,ac2_loop.thisIndex,ac2_loop.ran,slider_eq_trial.response,trials_eq_loop.thisRepN,trials_eq_loop.thisTrialN,trials_eq_loop.thisN,trials_eq_loop.thisIndex,trials_eq_loop.ran,item,is_test_item,is_distractor,is_agree_score,is_disagree_score
0,0,0,0,1,"In the following task you are going to hear a series of utterances. 

  You will decide if the utterances sound like questions or not using your keyboard.",(press the spacebar to continue),5fb9689421064d7ff5f5243e,605b45a4d25f287719a41696,605b95c6ddc40c8684b77381,United States,Midwest,13 or older,no,2021-03-24_15h42.33.541,empathy_intonation_perc,2020.2.10,Win32,60,,,,,,,,,,,,,,,,,,,,,,,,,,,,,,,,,,,,,,,,,,,,,,,,,,,,,,,,,,,,,,,,,,,,,,,,,,,,,,,,,,,,
0,1,1,1,1,"If you believe the utterance is a question, type '1' (for 'yes') and if you do not 
  believe it is a question type '0' (for 'no').

  Let's practice a bit...",(press the spacebar to continue),5fb9689421064d7ff5f5243e,605b45a4d25f287719a41696,605b95c6ddc40c8684b77381,United States,Midwest,13 or older,no,2021-03-24_15h42.33.541,empathy_intonation_perc,2020.2.10,Win32,60,,,,,,,,,,,,,,,,,,,,,,,,,,,,,,,,,,,,,,,,,,,,,,,,,,,,,,,,,,,,,,,,,,,,,,,,,,,,,,,,,,,,
,,,,,,,5fb9689421064d7ff5f5243e,605b45a4d25f287719a41696,605b95c6ddc40c8684b77381,United States,Midwest,13 or older,no,2021-03-24_15h42.33.541,empathy_intonation_perc,2020.2.10,Win32,60,0,1,2.258165,0,0,0,7,1,./stim/wavs/puertorican_statement_filler_La-nina-pinta-con-su-amiga.wav,0,,,,,,,,,,,,,,,,,,,,,,,,,,,,,,,,,,,,,,,,,,,,,,,,,,,,,,,,,,,,,,,,,,,,,,,,,,
,,,,,,,5fb9689421064d7ff5f5243e,605b45a4d25f287719a41696,605b95c6ddc40c8684b77381,United States,Midwest,13 or older,no,2021-03-24_15h42.33.541,empathy_intonation_perc,2020.2.10,Win32,60,0,1,1.831905,0,1,1,4,1,./stim/wavs/cuban_statement_filler_Cocinabas-por-la-noche.wav,0,,,,,,,,,,,,,,,,,,,,,,,,,,,,,,,,,,,,,,,,,,,,,,,,,,,,,,,,,,,,,,,,,,,,,,,,,,
,,,,,,,5fb9689421064d7ff5f5243e,605b45a4d25f287719a41696,605b95c6ddc40c8684b77381,United States,Midwest,13 or older,no,2021-03-24_15h42.33.541,empathy_intonation_perc,2020.2.10,Win32,60,1,1,1.467245,0,2,2,1,1,./stim/wavs/argentine_question_filler_Mi-vecino-habla-mucho.wav,1,,,,,,,,,,,,,,,,,,,,,,,,,,,,,,,,,,,,,,,,,,,,,,,,,,,,,,,,,,,,,,,,,,,,,,,,,,
,,,,,,,5fb9689421064d7ff5f5243e,605b45a4d25f287719a41696,605b95c6ddc40c8684b77381,United States,Midwest,13 or older,no,2021-03-24_15h42.33.541,empathy_intonation_perc,2020.2.10,Win32,60,1,1,1.67052,0,3,3,3,1,./stim/wavs/mexican_question_filler_Felipe-no-tiene-contrasena.wav,1,,,,,,,,,,,,,,,,,,,,,,,,,,,,,,,,,,,,,,,,,,,,,,,,,,,,,,,,,,,,,,,,,,,,,,,,,,
,,,,,,,5fb9689421064d7ff5f5243e,605b45a4d25f287719a41696,605b95c6ddc40c8684b77381,United States,Midwest,13 or older,no,2021-03-24_15h42.33.541,empathy_intonation_perc,2020.2.10,Win32,60,0,1,2.300665,0,4,4,6,1,./stim/wavs/peruvian_statement_filler_El-nino-habla-con-su-madre.wav,0,,,,,,,,,,,,,,,,,,,,,,,,,,,,,,,,,,,,,,,,,,,,,,,,,,,,,,,,,,,,,,,,,,,,,,,,,,
,,,,,,,5fb9689421064d7ff5f5243e,605b45a4d25f287719a41696,605b95c6ddc40c8684b77381,United States,Midwest,13 or older,no,2021-03-24_15h42.33.541,empathy_intonation_perc,2020.2.10,Win32,60,0,0,1.388635,0,5,5,2,1,./stim/wavs/chilean_question_filler_Mi-padre-cantaba-bien.wav,1,,,,,,,,,,,,,,,,,,,,,,,,,,,,,,,,,,,,,,,,,,,,,,,,,,,,,,,,,,,,,,,,,,,,,,,,,,
,,,,,,,5fb9689421064d7ff5f5243e,605b45a4d25f287719a41696,605b95c6ddc40c8684b77381,United States,Midwest,13 or older,no,2021-03-24_15h42.33.541,empathy_intonation_perc,2020.2.10,Win32,60,0,1,1.676255,0,6,6,5,1,./stim/wavs/andalusian_statement_filler_Alberto-nunca-se-afeita.wav,0,,,,,,,,,,,,,,,,,,,,,,,,,,,,,,,,,,,,,,,,,,,,,,,,,,,,,,,,,,,,,,,,,,,,,,,,,,
,,,,,,,5fb9689421064d7ff5f5243e,605b45a4d25f287719a41696,605b95c6ddc40c8684b77381,United States,Midwest,13 or older,no,2021-03-24_15h42.33.541,empathy_intonation_perc,2020.2.10,Win32,60,1,1,1.967535,0,7,7,0,1,./stim/wavs/castilian_question_filler_Mi-esposo-conoce-al-chico.wav,1,,,,,,,,,,,,,,,,,,,,,,,,,,,,,,,,,,,,,,,,,,,,,,,,,,,,,,,,,,,,,,,,,,,,,,,,,,
,,,,,,,5fb9689421064d7ff5f5243e,605b45a4d25f287719a41696,605b95c6ddc40c8684b77381,United States,Midwest,13 or older,no,2021-03-24_15h42.33.541,empathy_intonation_perc,2020.2.10,Win32,60,,,,,,,,,,0,argentine,0,1,1.42695,0,0,0,0,1,1,./stim/wavs/andalusian_match_declarative-broad-focus_Ana-lleva-el-abrigo.wav,./stim/wavs/argentine_match_declarative-broad-focus_Ana-lleva-el-abrigo.wav,./stim/wavs/castilian_match_declarative-broad-focus_Ana-lleva-el-abrigo.wav,./stim/wavs/chilean_match_declarative-broad-focus_Ana-lleva-el-abrigo.wav,./stim/wavs/cuban_match_declarative-broad-focus_Ana-lleva-el-abrigo.wav,./stim/wavs/mexican_match_declarative-broad-focus_Ana-lleva-el-abrigo.wav,./stim/wavs/peruvian_match_declarative-broad-focus_Ana-lleva-el-abrigo.wav,./stim/wavs/puertorican_match_declarative-broad-focus_Ana-lleva-el-abrigo.wav,,,,,,,,,,,,,,,,,,,,,,,,,,,,,,,,,,,,,,,,,,,,,,,,,,,,,,,,
,,,,,,,5fb9689421064d7ff5f5243e,605b45a4d25f287719a41696,605b95c6ddc40c8684b77381,United States,Midwest,13 or older,no,2021-03-24_15h42.33.541,empathy_intonation_perc,2020.2.10,Win32,60,,,,,,,,,,1,castilian,1,1,1.44192,0,1,1,24,1,25,./stim/wavs/andalusian_match_interrogative-total-yn_Ana-lleva-el-abrigo.wav,./stim/wavs/argentine_match_interrogative-total-yn_Ana-lleva-el-abrigo.wav,./stim/wavs/castilian_match_interrogative-total-yn_Ana-lleva-el-abrigo.wav,./stim/wavs/chilean_match_interrogative-total-yn_Ana-lleva-el-abrigo.wav,./stim/wavs/cuban_match_interrogative-total-yn_Ana-lleva-el-abrigo.wav,./stim/wavs/mexican_match_interrogative-total-yn_Ana-lleva-el-abrigo.wav,./stim/wavs/peruvian_match_interrogative-total-yn_Ana-lleva-el-abrigo.wav,./stim/wavs/puertorican_match_interrogative-total-yn_Ana-lleva-el-abrigo.wav,,,,,,,,,,,,,,,,,,,,,,,,,,,,,,,,,,,,,,,,,,,,,,,,,,,,,,,,
,,,,,,,5fb9689421064d7ff5f5243e,605b45a4d25f287719a41696,605b95c6ddc40c8684b77381,United States,Midwest,13 or older,no,2021-03-24_15h42.33.541,empathy_intonation_perc,2020.2.10,Win32,60,,,,,,,,,,1,chilean,1,1,1.650115,0,2,2,27,1,28,./stim/wavs/andalusian_match_interrogative-total-yn_Emilio-ama-la-marcha.wav,./stim/wavs/argentine_match_interrogative-total-yn_Emilio-ama-la-marcha.wav,./stim/wavs/castilian_match_interrogative-total-yn_Emilio-ama-la-marcha.wav,./stim/wavs/chilean_match_interrogative-total-yn_Emilio-ama-la-marcha.wav,./stim/wavs/cuban_match_interrogative-total-yn_Emilio-ama-la-marcha.wav,./stim/wavs/mexican_match_interrogative-total-yn_Emilio-ama-la-marcha.wav,./stim/wavs/peruvian_match_interrogative-total-yn_Emilio-ama-la-marcha.wav,./stim/wavs/puertorican_match_interrogative-total-yn_Emilio-ama-la-marcha.wav,,,,,,,,,,,,,,,,,,,,,,,,,,,,,,,,,,,,,,,,,,,,,,,,,,,,,,,,
,,,,,,,5fb9689421064d7ff5f5243e,605b45a4d25f287719a41696,605b95c6ddc40c8684b77381,United States,Midwest,13 or older,no,2021-03-24_15h42.33.541,empathy_intonation_perc,2020.2.10,Win32,60,,,,,,,,,,1,andalusian,1,1,1.56695,0,3,3,28,1,29,./stim/wavs/andalusian_match_interrogative-total-yn_Manuela-vende-el-carro.wav,./stim/wavs/argentine_match_interrogative-total-yn_Manuela-vende-el-carro.wav,./stim/wavs/castilian_match_interrogative-total-yn_Manuela-vende-el-carro.wav,./stim/wavs/chilean_match_interrogative-total-yn_Manuela-vende-el-carro.wav,./stim/wavs/cuban_match_interrogative-total-yn_Manuela-vende-el-carro.wav,./stim/wavs/mexican_match_interrogative-total-yn_Manuela-vende-el-carro.wav,./stim/wavs/peruvian_match_interrogative-total-yn_Manuela-vende-el-carro.wav,./stim/wavs/puertorican_match_interrogative-total-yn_Manuela-vende-el-carro.wav,,,,,,,,,,,,,,,,,,,,,,,,,,,,,,,,,,,,,,,,,,,,,,,,,,,,,,,,
,,,,,,,5fb9689421064d7ff5f5243e,605b45a4d25f287719a41696,605b95c6ddc40c8684b77381,United States,Midwest,13 or older,no,2021-03-24_15h42.33.541,empathy_intonation_perc,2020.2.10,Win32,60,,,,,,,,,,1,chilean,1,1,1.533325,0,4,4,60,1,61,./stim/wavs/andalusian_mismatch_interrogative-total-yn_La-nina-lava-el-plato.wav,./stim/wavs/argentine_mismatch_interrogative-total-yn_La-nina-lava-el-plato.wav,./stim/wavs/castilian_mismatch_interrogative-total-yn_La-nina-lava-el-plato.wav,./stim/wavs/chilean_mismatch_interrogative-total-yn_La-nina-lava-el-plato.wav,./stim/wavs/cuban_mismatch_interrogative-total-yn_La-nina-lava-el-plato.wav,./stim/wavs/mexican_mismatch_interrogative-total-yn_La-nina-lava-el-plato.wav,./stim/wavs/peruvian_mismatch_interrogative-total-yn_La-nina-lava-el-plato.wav,./stim/wavs/puertorican_mismatch_interrogative-total-yn_La-nina-lava-el-plato.wav,,,,,,,,,,,,,,,,,,,,,,,,,,,,,,,,,,,,,,,,,,,,,,,,,,,,,,,,
,,,,,,,5fb9689421064d7ff5f5243e,605b45a4d25f287719a41696,605b95c6ddc40c8684b77381,United States,Midwest,13 or older,no,2021-03-24_15h42.33.541,empathy_intonation_perc,2020.2.10,Win32,60,,,,,,,,,,1,chilean,0,0,1.32832,0,5,5,23,1,24,./stim/wavs/andalusian_match_interrogative-partial-wh_Por-que-iba-a-Bolivia.wav,./stim/wavs/argentine_match_interrogative-partial-wh_Por-que-iba-a-Bolivia.wav,./stim/wavs/castilian_match_interrogative-partial-wh_Por-que-iba-a-Bolivia.wav,./stim/wavs/chilean_match_interrogative-partial-wh_Por-que-iba-a-Bolivia.wav,./stim/wavs/cuban_match_interrogative-partial-wh_Por-que-iba-a-Bolivia.wav,./stim/wavs/mexican_match_interrogative-partial-wh_Por-que-iba-a-Bolivia.wav,./stim/wavs/peruvian_match_interrogative-partial-wh_Por-que-iba-a-Bolivia.wav,./stim/wavs/puertorican_match_interrogative-partial-wh_Por-que-iba-a-Bolivia.wav,,,,,,,,,,,,,,,,,,,,,,,,,,,,,,,,,,,,,,,,,,,,,,,,,,,,,,,,
,,,,,,,5fb9689421064d7ff5f5243e,605b45a4d25f287719a41696,605b95c6ddc40c8684b77381,United States,Midwest,13 or older,no,2021-03-24_15h42.33.541,empathy_intonation_perc,2020.2.10,Win32,60,,,,,,,,,,1,mexican,1,1,1.81547,0,6,6,63,1,64,./stim/wavs/andalusian_mismatch_interrogative-total-yn_Mi-tia-odia-la-lluvia.wav,./stim/wavs/argentine_mismatch_interrogative-total-yn_Mi-tia-odia-la-lluvia.wav,./stim/wavs/castilian_mismatch_interrogative-total-yn_Mi-tia-odia-la-lluvia.wav,./stim/wavs/chilean_mismatch_interrogative-total-yn_Mi-tia-odia-la-lluvia.wav,./stim/wavs/cuban_mismatch_interrogative-total-yn_Mi-tia-odia-la-lluvia.wav,./stim/wavs/mexican_mismatch_interrogative-total-yn_Mi-tia-odia-la-lluvia.wav,./stim/wavs/peruvian_mismatch_interrogative-total-yn_Mi-tia-odia-la-lluvia.wav,./stim/wavs/puertorican_mismatch_interrogative-total-yn_Mi-tia-odia-la-lluvia.wav,,,,,,,,,,,,,,,,,,,,,,,,,,,,,,,,,,,,,,,,,,,,,,,,,,,,,,,,
,,,,,,,5fb9689421064d7ff5f5243e,605b45a4d25f287719a41696,605b95c6ddc40c8684b77381,United States,Midwest,13 or older,no,2021-03-24_15h42.33.541,empathy_intonation_perc,2020.2.10,Win32,60,,,,,,,,,,1,mexican,0,0,1.69787,0,7,7,20,1,21,./stim/wavs/andalusian_match_interrogative-partial-wh_Por-que-abre-el-regalo.wav,./stim/wavs/argentine_match_interrogative-partial-wh_Por-que-abre-el-regalo.wav,./stim/wavs/castilian_match_interrogative-partial-wh_Por-que-abre-el-regalo.wav,./stim/wavs/chilean_match_interrogative-partial-wh_Por-que-abre-el-regalo.wav,./stim/wavs/cuban_match_interrogative-partial-wh_Por-que-abre-el-regalo.wav,./stim/wavs/mexican_match_interrogative-partial-wh_Por-que-abre-el-regalo.wav,./stim/wavs/peruvian_match_interrogative-partial-wh_Por-que-abre-el-regalo.wav,./stim/wavs/puertorican_match_interrogative-partial-wh_Por-que-abre-el-regalo.wav,,,,,,,,,,,,,,,,,,,,,,,,,,,,,,,,,,,,,,,,,,,,,,,,,,,,,,,,
,,,,,,,5fb9689421064d7ff5f5243e,605b45a4d25f287719a41696,605b95c6ddc40c8684b77381,United States,Midwest,13 or older,no,2021-03-24_15h42.33.541,empathy_intonation_perc,2020.2.10,Win32,60,,,,,,,,,,1,cuban,0,0,1.404305,0,8,8,58,1,59,./stim/wavs/andalusian_mismatch_interrogative-total-yn_El-nino-oye-el-rio.wav,./stim/wavs/argentine_mismatch_interrogative-total-yn_El-nino-oye-el-rio.wav,./stim/wavs/castilian_mismatch_interrogative-total-yn_El-nino-oye-el-rio.wav,./stim/wavs/chilean_mismatch_interrogative-total-yn_El-nino-oye-el-rio.wav,./stim/wavs/cuban_mismatch_interrogative-total-yn_El-nino-oye-el-rio.wav,./stim/wavs/mexican_mismatch_interrogative-total-yn_El-nino-oye-el-rio.wav,./stim/wavs/peruvian_mismatch_interrogative-total-yn_El-nino-oye-el-rio.wav,./stim/wavs/puertorican_mismatch_interrogative-total-yn_El-nino-oye-el-rio.wav,,,,,,,,,,,,,,,,,,,,,,,,,,,,,,,,,,,,,,,,,,,,,,,,,,,,,,,,
,,,,,,,5fb9689421064d7ff5f5243e,605b45a4d25f287719a41696,605b95c6ddc40c8684b77381,United States,Midwest,13 or older,no,2021-03-24_15h42.33.541,empathy_intonation_perc,2020.2.10,Win32,60,,,,,,,,,,0,cuban,0,1,1.637955,0,9,9,10,1,11,./stim/wavs/andalusian_match_declarative-narrow-focus_David-leia-el-libro.wav,./stim/wavs/argentine_match_declarative-narrow-focus_David-leia-el-libro.wav,./stim/wavs/castilian_match_declarative-narrow-focus_David-leia-el-libro.wav,./stim/wavs/chilean_match_declarative-narrow-focus_David-leia-el-libro.wav,./stim/wavs/cuban_match_declarative-narrow-focus_David-leia-el-libro.wav,./stim/wavs/mexican_match_declarative-narrow-focus_David-leia-el-libro.wav,./stim/wavs/peruvian_match_declarative-narrow-focus_David-leia-el-libro.wav,./stim/wavs/puertorican_match_declarative-narrow-focus_David-leia-el-libro.wav,,,,,,,,,,,,,,,,,,,,,,,,,,,,,,,,,,,,,,,,,,,,,,,,,,,,,,,,
,,,,,,,5fb9689421064d7ff5f5243e,605b45a4d25f287719a41696,605b95c6ddc40c8684b77381,United States,Midwest,13 or older,no,2021-03-24_15h42.33.541,empathy_intonation_perc,2020.2.10,Win32,60,,,,,,,,,,0,cuban,0,1,1.649035,0,10,10,9,1,10,./stim/wavs/andalusian_match_declarative-narrow-focus_Daniel-iba-a-Bolivia.wav,./stim/wavs/argentine_match_declarative-narrow-focus_Daniel-iba-a-Bolivia.wav,./stim/wavs/castilian_match_declarative-narrow-focus_Daniel-iba-a-Bolivia.wav,./stim/wavs/chilean_match_declarative-narrow-focus_Daniel-iba-a-Bolivia.wav,./stim/wavs/cuban_match_declarative-narrow-focus_Daniel-iba-a-Bolivia.wav,./stim/wavs/mexican_match_declarative-narrow-focus_Daniel-iba-a-Bolivia.wav,./stim/wavs/peruvian_match_declarative-narrow-focus_Daniel-iba-a-Bolivia.wav,./stim/wavs/puertorican_match_declarative-narrow-focus_Daniel-iba-a-Bolivia.wav,,,,,,,,,,,,,,,,,,,,,,,,,,,,,,,,,,,,,,,,,,,,,,,,,,,,,,,,
,,,,,,,5fb9689421064d7ff5f5243e,605b45a4d25f287719a41696,605b95c6ddc40c8684b77381,United States,Midwest,13 or older,no,2021-03-24_15h42.33.541,empathy_intonation_perc,2020.2.10,Win32,60,,,,,,,,,,1,cuban,0,0,1.64971,0,11,11,22,1,23,./stim/wavs/andalusian_match_interrogative-partial-wh_Por-que-hablaba-del-agua.wav,./stim/wavs/argentine_match_interrogative-partial-wh_Por-que-hablaba-del-agua.wav,./stim/wavs/castilian_match_interrogative-partial-wh_Por-que-hablaba-del-agua.wav,./stim/wavs/chilean_match_interrogative-partial-wh_Por-que-hablaba-del-agua.wav,./stim/wavs/cuban_match_interrogative-partial-wh_Por-que-hablaba-del-agua.wav,./stim/wavs/mexican_match_interrogative-partial-wh_Por-que-hablaba-del-agua.wav,./stim/wavs/peruvian_match_interrogative-partial-wh_Por-que-hablaba-del-agua.wav,./stim/wavs/puertorican_match_interrogative-partial-wh_Por-que-hablaba-del-agua.wav,,,,,,,,,,,,,,,,,,,,,,,,,,,,,,,,,,,,,,,,,,,,,,,,,,,,,,,,
,,,,,,,5fb9689421064d7ff5f5243e,605b45a4d25f287719a41696,605b95c6ddc40c8684b77381,United States,Midwest,13 or older,no,2021-03-24_15h42.33.541,empathy_intonation_perc,2020.2.10,Win32,60,,,,,,,,,,1,cuban,0,0,2.086265,0,12,12,57,1,58,./stim/wavs/andalusian_mismatch_interrogative-total-yn_El-hombre-mira-la-luna.wav,./stim/wavs/argentine_mismatch_interrogative-total-yn_El-hombre-mira-la-luna.wav,./stim/wavs/castilian_mismatch_interrogative-total-yn_El-hombre-mira-la-luna.wav,./stim/wavs/chilean_mismatch_interrogative-total-yn_El-hombre-mira-la-luna.wav,./stim/wavs/cuban_mismatch_interrogative-total-yn_El-hombre-mira-la-luna.wav,./stim/wavs/mexican_mismatch_interrogative-total-yn_El-hombre-mira-la-luna.wav,./stim/wavs/peruvian_mismatch_interrogative-total-yn_El-hombre-mira-la-luna.wav,./stim/wavs/puertorican_mismatch_interrogative-total-yn_El-hombre-mira-la-luna.wav,,,,,,,,,,,,,,,,,,,,,,,,,,,,,,,,,,,,,,,,,,,,,,,,,,,,,,,,
,,,,,,,5fb9689421064d7ff5f5243e,605b45a4d25f287719a41696,605b95c6ddc40c8684b77381,United States,Midwest,13 or older,no,2021-03-24_15h42.33.541,empathy_intonation_perc,2020.2.10,Win32,60,,,,,,,,,,0,puertorican,0,1,1.482765,0,13,13,2,1,3,./stim/wavs/andalusian_match_declarative-broad-focus_David-leia-el-libro.wav,./stim/wavs/argentine_match_declarative-broad-focus_David-leia-el-libro.wav,./stim/wavs/castilian_match_declarative-broad-focus_David-leia-el-libro.wav,./stim/wavs/chilean_match_declarative-broad-focus_David-leia-el-libro.wav,./stim/wavs/cuban_match_declarative-broad-focus_David-leia-el-libro.wav,./stim/wavs/mexican_match_declarative-broad-focus_David-leia-el-libro.wav,./stim/wavs/peruvian_match_declarative-broad-focus_David-leia-el-libro.wav,./stim/wavs/puertorican_match_declarative-broad-focus_David-leia-el-libro.wav,,,,,,,,,,,,,,,,,,,,,,,,,,,,,,,,,,,,,,,,,,,,,,,,,,,,,,,,
,,,,,,,5fb9689421064d7ff5f5243e,605b45a4d25f287719a41696,605b95c6ddc40c8684b77381,United States,Midwest,13 or older,no,2021-03-24_15h42.33.541,empathy_intonation_perc,2020.2.10,Win32,60,,,,,,,,,,1,puertorican,0,0,1.49985,0,14,14,50,1,51,./stim/wavs/andalusian_mismatch_interrogative-partial-wh_Cuando-miraba-la-luna.wav,./stim/wavs/argentine_mismatch_interrogative-partial-wh_Cuando-miraba-la-luna.wav,./stim/wavs/castilian_mismatch_interrogative-partial-wh_Cuando-miraba-la-luna.wav,./stim/wavs/chilean_mismatch_interrogative-partial-wh_Cuando-miraba-la-luna.wav,./stim/wavs/cuban_mismatch_interrogative-partial-wh_Cuando-miraba-la-luna.wav,./stim/wavs/mexican_mismatch_interrogative-partial-wh_Cuando-miraba-la-luna.wav,./stim/wavs/peruvian_mismatch_interrogative-partial-wh_Cuando-miraba-la-luna.wav,./stim/wavs/puertorican_mismatch_interrogative-partial-wh_Cuando-miraba-la-luna.wav,,,,,,,,,,,,,,,,,,,,,,,,,,,,,,,,,,,,,,,,,,,,,,,,,,,,,,,,
,,,,,,,5fb9689421064d7ff5f5243e,605b45a4d25f287719a41696,605b95c6ddc40c8684b77381,United States,Midwest,13 or older,no,2021-03-24_15h42.33.541,empathy_intonation_perc,2020.2.10,Win32,60,,,,,,,,,,0,argentine,0,1,1.563545,0,15,15,6,1,7,./stim/wavs/andalusian_match_declarative-broad-focus_Mariano-habla-del-tiempo.wav,./stim/wavs/argentine_match_declarative-broad-focus_Mariano-habla-del-tiempo.wav,./stim/wavs/castilian_match_declarative-broad-focus_Mariano-habla-del-tiempo.wav,./stim/wavs/chilean_match_declarative-broad-focus_Mariano-habla-del-tiempo.wav,./stim/wavs/cuban_match_declarative-broad-focus_Mariano-habla-del-tiempo.wav,./stim/wavs/mexican_match_declarative-broad-focus_Mariano-habla-del-tiempo.wav,./stim/wavs/peruvian_match_declarative-broad-focus_Mariano-habla-del-tiempo.wav,./stim/wavs/puertorican_match_declarative-broad-focus_Mariano-habla-del-tiempo.wav,,,,,,,,,,,,,,,,,,,,,,,,,,,,,,,,,,,,,,,,,,,,,,,,,,,,,,,,
,,,,,,,5fb9689421064d7ff5f5243e,605b45a4d25f287719a41696,605b95c6ddc40c8684b77381,United States,Midwest,13 or older,no,2021-03-24_15h42.33.541,empathy_intonation_perc,2020.2.10,Win32,60,,,,,,,,,,0,puertorican,0,1,1.382625,0,16,16,42,1,43,./stim/wavs/andalusian_mismatch_declarative-narrow-focus_El-nino-oye-el-rio.wav,./stim/wavs/argentine_mismatch_declarative-narrow-focus_El-nino-oye-el-rio.wav,./stim/wavs/castilian_mismatch_declarative-narrow-focus_El-nino-oye-el-rio.wav,./stim/wavs/chilean_mismatch_declarative-narrow-focus_El-nino-oye-el-rio.wav,./stim/wavs/cuban_mismatch_declarative-narrow-focus_El-nino-oye-el-rio.wav,./stim/wavs/mexican_mismatch_declarative-narrow-focus_El-nino-oye-el-rio.wav,./stim/wavs/peruvian_mismatch_declarative-narrow-focus_El-nino-oye-el-rio.wav,./stim/wavs/puertorican_mismatch_declarative-narrow-focus_El-nino-oye-el-rio.wav,,,,,,,,,,,,,,,,,,,,,,,,,,,,,,,,,,,,,,,,,,,,,,,,,,,,,,,,
,,,,,,,5fb9689421064d7ff5f5243e,605b45a4d25f287719a41696,605b95c6ddc40c8684b77381,United States,Midwest,13 or older,no,2021-03-24_15h42.33.541,empathy_intonation_perc,2020.2.10,Win32,60,,,,,,,,,,0,puertorican,0,1,1.46884,0,17,17,39,1,40,./stim/wavs/andalusian_mismatch_declarative-broad-focus_Mi-tia-odia-la-lluvia.wav,./stim/wavs/argentine_mismatch_declarative-broad-focus_Mi-tia-odia-la-lluvia.wav,./stim/wavs/castilian_mismatch_declarative-broad-focus_Mi-tia-odia-la-lluvia.wav,./stim/wavs/chilean_mismatch_declarative-broad-focus_Mi-tia-odia-la-lluvia.wav,./stim/wavs/cuban_mismatch_declarative-broad-focus_Mi-tia-odia-la-lluvia.wav,./stim/wavs/mexican_mismatch_declarative-broad-focus_Mi-tia-odia-la-lluvia.wav,./stim/wavs/peruvian_mismatch_declarative-broad-focus_Mi-tia-odia-la-lluvia.wav,./stim/wavs/puertorican_mismatch_declarative-broad-focus_Mi-tia-odia-la-lluvia.wav,,,,,,,,,,,,,,,,,,,,,,,,,,,,,,,,,,,,,,,,,,,,,,,,,,,,,,,,
,,,,,,,5fb9689421064d7ff5f5243e,605b45a4d25f287719a41696,605b95c6ddc40c8684b77381,United States,Midwest,13 or older,no,2021-03-24_15h42.33.541,empathy_intonation_perc,2020.2.10,Win32,60,,,,,,,,,,1,mexican,1,1,1.352705,0,18,18,48,1,49,./stim/wavs/andalusian_mismatch_interrogative-partial-wh_Cuando-comia-la-fruta.wav,./stim/wavs/argentine_mismatch_interrogative-partial-wh_Cuando-comia-la-fruta.wav,./stim/wavs/castilian_mismatch_interrogative-partial-wh_Cuando-comia-la-fruta.wav,./stim/wavs/chilean_mismatch_interrogative-partial-wh_Cuando-comia-la-fruta.wav,./stim/wavs/cuban_mismatch_interrogative-partial-wh_Cuando-comia-la-fruta.wav,./stim/wavs/mexican_mismatch_interrogative-partial-wh_Cuando-comia-la-fruta.wav,./stim/wavs/peruvian_mismatch_interrogative-partial-wh_Cuando-comia-la-fruta.wav,./stim/wavs/puertorican_mismatch_interrogative-partial-wh_Cuando-comia-la-fruta.wav,,,,,,,,,,,,,,,,,,,,,,,,,,,,,,,,,,,,,,,,,,,,,,,,,,,,,,,,
,,,,,,,5fb9689421064d7ff5f5243e,605b45a4d25f287719a41696,605b95c6ddc40c8684b77381,United States,Midwest,13 or older,no,2021-03-24_15h42.33.541,empathy_intonation_perc,2020.2.10,Win32,60,,,,,,,,,,0,peruvian,0,1,2.08757,0,19,19,32,1,33,./stim/wavs/andalusian_mismatch_declarative-broad-focus_El-bebe-comia-muy-bien.wav,./stim/wavs/argentine_mismatch_declarative-broad-focus_El-bebe-comia-muy-bien.wav,./stim/wavs/castilian_mismatch_declarative-broad-focus_El-bebe-comia-muy-bien.wav,./stim/wavs/chilean_mismatch_declarative-broad-focus_El-bebe-comia-muy-bien.wav,./stim/wavs/cuban_mismatch_declarative-broad-focus_El-bebe-comia-muy-bien.wav,./stim/wavs/mexican_mismatch_declarative-broad-focus_El-bebe-comia-muy-bien.wav,./stim/wavs/peruvian_mismatch_declarative-broad-focus_El-bebe-comia-muy-bien.wav,./stim/wavs/puertorican_mismatch_declarative-broad-focus_El-bebe-comia-muy-bien.wav,,,,,,,,,,,,,,,,,,,,,,,,,,,,,,,,,,,,,,,,,,,,,,,,,,,,,,,,
,,,,,,,5fb9689421064d7ff5f5243e,605b45a4d25f287719a41696,605b95c6ddc40c8684b77381,United States,Midwest,13 or older,no,2021-03-24_15h42.33.541,empathy_intonation_perc,2020.2.10,Win32,60,,,,,,,,,,1,andalusian,1,1,2.861715,0,20,20,21,1,22,./stim/wavs/andalusian_match_interrogative-partial-wh_Por-que-ama-la-navidad.wav,./stim/wavs/argentine_match_interrogative-partial-wh_Por-que-ama-la-navidad.wav,./stim/wavs/castilian_match_interrogative-partial-wh_Por-que-ama-la-navidad.wav,./stim/wavs/chilean_match_interrogative-partial-wh_Por-que-ama-la-navidad.wav,./stim/wavs/cuban_match_interrogative-partial-wh_Por-que-ama-la-navidad.wav,./stim/wavs/mexican_match_interrogative-partial-wh_Por-que-ama-la-navidad.wav,./stim/wavs/peruvian_match_interrogative-partial-wh_Por-que-ama-la-navidad.wav,./stim/wavs/puertorican_match_interrogative-partial-wh_Por-que-ama-la-navidad.wav,,,,,,,,,,,,,,,,,,,,,,,,,,,,,,,,,,,,,,,,,,,,,,,,,,,,,,,,
,,,,,,,5fb9689421064d7ff5f5243e,605b45a4d25f287719a41696,605b95c6ddc40c8684b77381,United States,Midwest,13 or older,no,2021-03-24_15h42.33.541,empathy_intonation_perc,2020.2.10,Win32,60,,,,,,,,,,0,chilean,0,1,1.73151,0,21,21,38,1,39,./stim/wavs/andalusian_mismatch_declarative-broad-focus_Mi-novio-viene-del-lago.wav,./stim/wavs/argentine_mismatch_declarative-broad-focus_Mi-novio-viene-del-lago.wav,./stim/wavs/castilian_mismatch_declarative-broad-focus_Mi-novio-viene-del-lago.wav,./stim/wavs/chilean_mismatch_declarative-broad-focus_Mi-novio-viene-del-lago.wav,./stim/wavs/cuban_mismatch_declarative-broad-focus_Mi-novio-viene-del-lago.wav,./stim/wavs/mexican_mismatch_declarative-broad-focus_Mi-novio-viene-del-lago.wav,./stim/wavs/peruvian_mismatch_declarative-broad-focus_Mi-novio-viene-del-lago.wav,./stim/wavs/puertorican_mismatch_declarative-broad-focus_Mi-novio-viene-del-lago.wav,,,,,,,,,,,,,,,,,,,,,,,,,,,,,,,,,,,,,,,,,,,,,,,,,,,,,,,,
,,,,,,,5fb9689421064d7ff5f5243e,605b45a4d25f287719a41696,605b95c6ddc40c8684b77381,United States,Midwest,13 or older,no,2021-03-24_15h42.33.541,empathy_intonation_perc,2020.2.10,Win32,60,,,,,,,,,,1,andalusian,1,1,1.646555,0,22,22,55,1,56,./stim/wavs/andalusian_mismatch_interrogative-partial-wh_Por-que-vivia-en-Paris.wav,./stim/wavs/argentine_mismatch_interrogative-partial-wh_Por-que-vivia-en-Paris.wav,./stim/wavs/castilian_mismatch_interrogative-partial-wh_Por-que-vivia-en-Paris.wav,./stim/wavs/chilean_mismatch_interrogative-partial-wh_Por-que-vivia-en-Paris.wav,./stim/wavs/cuban_mismatch_interrogative-partial-wh_Por-que-vivia-en-Paris.wav,./stim/wavs/mexican_mismatch_interrogative-partial-wh_Por-que-vivia-en-Paris.wav,./stim/wavs/peruvian_mismatch_interrogative-partial-wh_Por-que-vivia-en-Paris.wav,./stim/wavs/puertorican_mismatch_interrogative-partial-wh_Por-que-vivia-en-Paris.wav,,,,,,,,,,,,,,,,,,,,,,,,,,,,,,,,,,,,,,,,,,,,,,,,,,,,,,,,
,,,,,,,5fb9689421064d7ff5f5243e,605b45a4d25f287719a41696,605b95c6ddc40c8684b77381,United States,Midwest,13 or older,no,2021-03-24_15h42.33.541,empathy_intonation_perc,2020.2.10,Win32,60,,,,,,,,,,0,andalusian,0,1,1.63365,0,23,23,43,1,44,./stim/wavs/andalusian_mismatch_declarative-narrow-focus_La-maestra-vive-en-Paris.wav,./stim/wavs/argentine_mismatch_declarative-narrow-focus_La-maestra-vive-en-Paris.wav,./stim/wavs/castilian_mismatch_declarative-narrow-focus_La-maestra-vive-en-Paris.wav,./stim/wavs/chilean_mismatch_declarative-narrow-focus_La-maestra-vive-en-Paris.wav,./stim/wavs/cuban_mismatch_declarative-narrow-focus_La-maestra-vive-en-Paris.wav,./stim/wavs/mexican_mismatch_declarative-narrow-focus_La-maestra-vive-en-Paris.wav,./stim/wavs/peruvian_mismatch_declarative-narrow-focus_La-maestra-vive-en-Paris.wav,./stim/wavs/puertorican_mismatch_declarative-narrow-focus_La-maestra-vive-en-Paris.wav,,,,,,,,,,,,,,,,,,,,,,,,,,,,,,,,,,,,,,,,,,,,,,,,,,,,,,,,
,,,,,,,5fb9689421064d7ff5f5243e,605b45a4d25f287719a41696,605b95c6ddc40c8684b77381,United States,Midwest,13 or older,no,2021-03-24_15h42.33.541,empathy_intonation_perc,2020.2.10,Win32,60,,,,,,,,,,1,puertorican,0,0,1.94968,0,24,24,30,1,31,./stim/wavs/andalusian_match_interrogative-total-yn_Mariano-habla-del-tiempo.wav,./stim/wavs/argentine_match_interrogative-total-yn_Mariano-habla-del-tiempo.wav,./stim/wavs/castilian_match_interrogative-total-yn_Mariano-habla-del-tiempo.wav,./stim/wavs/chilean_match_interrogative-total-yn_Mariano-habla-del-tiempo.wav,./stim/wavs/cuban_match_interrogative-total-yn_Mariano-habla-del-tiempo.wav,./stim/wavs/mexican_match_interrogative-total-yn_Mariano-habla-del-tiempo.wav,./stim/wavs/peruvian_match_interrogative-total-yn_Mariano-habla-del-tiempo.wav,./stim/wavs/puertorican_match_interrogative-total-yn_Mariano-habla-del-tiempo.wav,,,,,,,,,,,,,,,,,,,,,,,,,,,,,,,,,,,,,,,,,,,,,,,,,,,,,,,,
,,,,,,,5fb9689421064d7ff5f5243e,605b45a4d25f287719a41696,605b95c6ddc40c8684b77381,United States,Midwest,13 or older,no,2021-03-24_15h42.33.541,empathy_intonation_perc,2020.2.10,Win32,60,,,,,,,,,,0,cuban,0,1,1.94618,0,25,25,37,1,38,./stim/wavs/andalusian_mismatch_declarative-broad-focus_Mi-madre-come-la-fruta.wav,./stim/wavs/argentine_mismatch_declarative-broad-focus_Mi-madre-come-la-fruta.wav,./stim/wavs/castilian_mismatch_declarative-broad-focus_Mi-madre-come-la-fruta.wav,./stim/wavs/chilean_mismatch_declarative-broad-focus_Mi-madre-come-la-fruta.wav,./stim/wavs/cuban_mismatch_declarative-broad-focus_Mi-madre-come-la-fruta.wav,./stim/wavs/mexican_mismatch_declarative-broad-focus_Mi-madre-come-la-fruta.wav,./stim/wavs/peruvian_mismatch_declarative-broad-focus_Mi-madre-come-la-fruta.wav,./stim/wavs/puertorican_mismatch_declarative-broad-focus_Mi-madre-come-la-fruta.wav,,,,,,,,,,,,,,,,,,,,,,,,,,,,,,,,,,,,,,,,,,,,,,,,,,,,,,,,
,,,,,,,5fb9689421064d7ff5f5243e,605b45a4d25f287719a41696,605b95c6ddc40c8684b77381,United States,Midwest,13 or older,no,2021-03-24_15h42.33.541,empathy_intonation_perc,2020.2.10,Win32,60,,,,,,,,,,0,andalusian,0,1,1.582565,0,26,26,7,1,8,./stim/wavs/andalusian_match_declarative-broad-focus_Marta-abre-el-regalo.wav,./stim/wavs/argentine_match_declarative-broad-focus_Marta-abre-el-regalo.wav,./stim/wavs/castilian_match_declarative-broad-focus_Marta-abre-el-regalo.wav,./stim/wavs/chilean_match_declarative-broad-focus_Marta-abre-el-regalo.wav,./stim/wavs/cuban_match_declarative-broad-focus_Marta-abre-el-regalo.wav,./stim/wavs/mexican_match_declarative-broad-focus_Marta-abre-el-regalo.wav,./stim/wavs/peruvian_match_declarative-broad-focus_Marta-abre-el-regalo.wav,./stim/wavs/puertorican_match_declarative-broad-focus_Marta-abre-el-regalo.wav,,,,,,,,,,,,,,,,,,,,,,,,,,,,,,,,,,,,,,,,,,,,,,,,,,,,,,,,
,,,,,,,5fb9689421064d7ff5f5243e,605b45a4d25f287719a41696,605b95c6ddc40c8684b77381,United States,Midwest,13 or older,no,2021-03-24_15h42.33.541,empathy_intonation_perc,2020.2.10,Win32,60,,,,,,,,,,1,cuban,0,0,1.583335,0,27,27,18,1,19,./stim/wavs/andalusian_match_interrogative-partial-wh_Cuando-lleva-el-abrigo.wav,./stim/wavs/argentine_match_interrogative-partial-wh_Cuando-lleva-el-abrigo.wav,./stim/wavs/castilian_match_interrogative-partial-wh_Cuando-lleva-el-abrigo.wav,./stim/wavs/chilean_match_interrogative-partial-wh_Cuando-lleva-el-abrigo.wav,./stim/wavs/cuban_match_interrogative-partial-wh_Cuando-lleva-el-abrigo.wav,./stim/wavs/mexican_match_interrogative-partial-wh_Cuando-lleva-el-abrigo.wav,./stim/wavs/peruvian_match_interrogative-partial-wh_Cuando-lleva-el-abrigo.wav,./stim/wavs/puertorican_match_interrogative-partial-wh_Cuando-lleva-el-abrigo.wav,,,,,,,,,,,,,,,,,,,,,,,,,,,,,,,,,,,,,,,,,,,,,,,,,,,,,,,,
,,,,,,,5fb9689421064d7ff5f5243e,605b45a4d25f287719a41696,605b95c6ddc40c8684b77381,United States,Midwest,13 or older,no,2021-03-24_15h42.33.541,empathy_intonation_perc,2020.2.10,Win32,60,,,,,,,,,,0,cuban,0,1,1.35072,0,28,28,33,1,34,./stim/wavs/andalusian_mismatch_declarative-broad-focus_El-hombre-mira-la-luna.wav,./stim/wavs/argentine_mismatch_declarative-broad-focus_El-hombre-mira-la-luna.wav,./stim/wavs/castilian_mismatch_declarative-broad-focus_El-hombre-mira-la-luna.wav,./stim/wavs/chilean_mismatch_declarative-broad-focus_El-hombre-mira-la-luna.wav,./stim/wavs/cuban_mismatch_declarative-broad-focus_El-hombre-mira-la-luna.wav,./stim/wavs/mexican_mismatch_declarative-broad-focus_El-hombre-mira-la-luna.wav,./stim/wavs/peruvian_mismatch_declarative-broad-focus_El-hombre-mira-la-luna.wav,./stim/wavs/puertorican_mismatch_declarative-broad-focus_El-hombre-mira-la-luna.wav,,,,,,,,,,,,,,,,,,,,,,,,,,,,,,,,,,,,,,,,,,,,,,,,,,,,,,,,
,,,,,,,5fb9689421064d7ff5f5243e,605b45a4d25f287719a41696,605b95c6ddc40c8684b77381,United States,Midwest,13 or older,no,2021-03-24_15h42.33.541,empathy_intonation_perc,2020.2.10,Win32,60,,,,,,,,,,1,chilean,1,1,1.761875,0,29,29,52,1,53,./stim/wavs/andalusian_mismatch_interrogative-partial-wh_Por-que-odiaba-la-lluvia.wav,./stim/wavs/argentine_mismatch_interrogative-partial-wh_Por-que-odiaba-la-lluvia.wav,./stim/wavs/castilian_mismatch_interrogative-partial-wh_Por-que-odiaba-la-lluvia.wav,./stim/wavs/chilean_mismatch_interrogative-partial-wh_Por-que-odiaba-la-lluvia.wav,./stim/wavs/cuban_mismatch_interrogative-partial-wh_Por-que-odiaba-la-lluvia.wav,./stim/wavs/mexican_mismatch_interrogative-partial-wh_Por-que-odiaba-la-lluvia.wav,./stim/wavs/peruvian_mismatch_interrogative-partial-wh_Por-que-odiaba-la-lluvia.wav,./stim/wavs/puertorican_mismatch_interrogative-partial-wh_Por-que-odiaba-la-lluvia.wav,,,,,,,,,,,,,,,,,,,,,,,,,,,,,,,,,,,,,,,,,,,,,,,,,,,,,,,,
,,,,,,,5fb9689421064d7ff5f5243e,605b45a4d25f287719a41696,605b95c6ddc40c8684b77381,United States,Midwest,13 or older,no,2021-03-24_15h42.33.541,empathy_intonation_perc,2020.2.10,Win32,60,,,,,,,,,,1,mexican,1,1,1.799505,0,30,30,59,1,60,./stim/wavs/andalusian_mismatch_interrogative-total-yn_La-maestra-vive-en-Paris.wav,./stim/wavs/argentine_mismatch_interrogative-total-yn_La-maestra-vive-en-Paris.wav,./stim/wavs/castilian_mismatch_interrogative-total-yn_La-maestra-vive-en-Paris.wav,./stim/wavs/chilean_mismatch_interrogative-total-yn_La-maestra-vive-en-Paris.wav,./stim/wavs/cuban_mismatch_interrogative-total-yn_La-maestra-vive-en-Paris.wav,./stim/wavs/mexican_mismatch_interrogative-total-yn_La-maestra-vive-en-Paris.wav,./stim/wavs/peruvian_mismatch_interrogative-total-yn_La-maestra-vive-en-Paris.wav,./stim/wavs/puertorican_mismatch_interrogative-total-yn_La-maestra-vive-en-Paris.wav,,,,,,,,,,,,,,,,,,,,,,,,,,,,,,,,,,,,,,,,,,,,,,,,,,,,,,,,
,,,,,,,5fb9689421064d7ff5f5243e,605b45a4d25f287719a41696,605b95c6ddc40c8684b77381,United States,Midwest,13 or older,no,2021-03-24_15h42.33.541,empathy_intonation_perc,2020.2.10,Win32,60,,,,,,,,,,1,argentine,1,1,2.383345,0,31,31,25,1,26,./stim/wavs/andalusian_match_interrogative-total-yn_Daniel-iba-a-Bolivia.wav,./stim/wavs/argentine_match_interrogative-total-yn_Daniel-iba-a-Bolivia.wav,./stim/wavs/castilian_match_interrogative-total-yn_Daniel-iba-a-Bolivia.wav,./stim/wavs/chilean_match_interrogative-total-yn_Daniel-iba-a-Bolivia.wav,./stim/wavs/cuban_match_interrogative-total-yn_Daniel-iba-a-Bolivia.wav,./stim/wavs/mexican_match_interrogative-total-yn_Daniel-iba-a-Bolivia.wav,./stim/wavs/peruvian_match_interrogative-total-yn_Daniel-iba-a-Bolivia.wav,./stim/wavs/puertorican_match_interrogative-total-yn_Daniel-iba-a-Bolivia.wav,,,,,,,,,,,,,,,,,,,,,,,,,,,,,,,,,,,,,,,,,,,,,,,,,,,,,,,,
,,,,,,,5fb9689421064d7ff5f5243e,605b45a4d25f287719a41696,605b95c6ddc40c8684b77381,United States,Midwest,13 or older,no,2021-03-24_15h42.33.541,empathy_intonation_perc,2020.2.10,Win32,60,,,,,,,,,,0,castilian,0,1,1.738545,0,32,32,36,1,37,./stim/wavs/andalusian_mismatch_declarative-broad-focus_La-nina-lava-el-plato.wav,./stim/wavs/argentine_mismatch_declarative-broad-focus_La-nina-lava-el-plato.wav,./stim/wavs/castilian_mismatch_declarative-broad-focus_La-nina-lava-el-plato.wav,./stim/wavs/chilean_mismatch_declarative-broad-focus_La-nina-lava-el-plato.wav,./stim/wavs/cuban_mismatch_declarative-broad-focus_La-nina-lava-el-plato.wav,./stim/wavs/mexican_mismatch_declarative-broad-focus_La-nina-lava-el-plato.wav,./stim/wavs/peruvian_mismatch_declarative-broad-focus_La-nina-lava-el-plato.wav,./stim/wavs/puertorican_mismatch_declarative-broad-focus_La-nina-lava-el-plato.wav,,,,,,,,,,,,,,,,,,,,,,,,,,,,,,,,,,,,,,,,,,,,,,,,,,,,,,,,
,,,,,,,5fb9689421064d7ff5f5243e,605b45a4d25f287719a41696,605b95c6ddc40c8684b77381,United States,Midwest,13 or older,no,2021-03-24_15h42.33.541,empathy_intonation_perc,2020.2.10,Win32,60,,,,,,,,,,0,mexican,0,1,1.610725,0,33,33,35,1,36,./stim/wavs/andalusian_mismatch_declarative-broad-focus_La-maestra-vive-en-Paris.wav,./stim/wavs/argentine_mismatch_declarative-broad-focus_La-maestra-vive-en-Paris.wav,./stim/wavs/castilian_mismatch_declarative-broad-focus_La-maestra-vive-en-Paris.wav,./stim/wavs/chilean_mismatch_declarative-broad-focus_La-maestra-vive-en-Paris.wav,./stim/wavs/cuban_mismatch_declarative-broad-focus_La-maestra-vive-en-Paris.wav,./stim/wavs/mexican_mismatch_declarative-broad-focus_La-maestra-vive-en-Paris.wav,./stim/wavs/peruvian_mismatch_declarative-broad-focus_La-maestra-vive-en-Paris.wav,./stim/wavs/puertorican_mismatch_declarative-broad-focus_La-maestra-vive-en-Paris.wav,,,,,,,,,,,,,,,,,,,,,,,,,,,,,,,,,,,,,,,,,,,,,,,,,,,,,,,,
,,,,,,,5fb9689421064d7ff5f5243e,605b45a4d25f287719a41696,605b95c6ddc40c8684b77381,United States,Midwest,13 or older,no,2021-03-24_15h42.33.541,empathy_intonation_perc,2020.2.10,Win32,60,,,,,,,,,,1,puertorican,0,0,1.541925,0,34,34,62,1,63,./stim/wavs/andalusian_mismatch_interrogative-total-yn_Mi-novio-viene-del-lago.wav,./stim/wavs/argentine_mismatch_interrogative-total-yn_Mi-novio-viene-del-lago.wav,./stim/wavs/castilian_mismatch_interrogative-total-yn_Mi-novio-viene-del-lago.wav,./stim/wavs/chilean_mismatch_interrogative-total-yn_Mi-novio-viene-del-lago.wav,./stim/wavs/cuban_mismatch_interrogative-total-yn_Mi-novio-viene-del-lago.wav,./stim/wavs/mexican_mismatch_interrogative-total-yn_Mi-novio-viene-del-lago.wav,./stim/wavs/peruvian_mismatch_interrogative-total-yn_Mi-novio-viene-del-lago.wav,./stim/wavs/puertorican_mismatch_interrogative-total-yn_Mi-novio-viene-del-lago.wav,,,,,,,,,,,,,,,,,,,,,,,,,,,,,,,,,,,,,,,,,,,,,,,,,,,,,,,,
,,,,,,,5fb9689421064d7ff5f5243e,605b45a4d25f287719a41696,605b95c6ddc40c8684b77381,United States,Midwest,13 or older,no,2021-03-24_15h42.33.541,empathy_intonation_perc,2020.2.10,Win32,60,,,,,,,,,,1,mexican,1,1,1.514305,0,35,35,54,1,55,./stim/wavs/andalusian_mismatch_interrogative-partial-wh_Por-que-venia-del-lago.wav,./stim/wavs/argentine_mismatch_interrogative-partial-wh_Por-que-venia-del-lago.wav,./stim/wavs/castilian_mismatch_interrogative-partial-wh_Por-que-venia-del-lago.wav,./stim/wavs/chilean_mismatch_interrogative-partial-wh_Por-que-venia-del-lago.wav,./stim/wavs/cuban_mismatch_interrogative-partial-wh_Por-que-venia-del-lago.wav,./stim/wavs/mexican_mismatch_interrogative-partial-wh_Por-que-venia-del-lago.wav,./stim/wavs/peruvian_mismatch_interrogative-partial-wh_Por-que-venia-del-lago.wav,./stim/wavs/puertorican_mismatch_interrogative-partial-wh_Por-que-venia-del-lago.wav,,,,,,,,,,,,,,,,,,,,,,,,,,,,,,,,,,,,,,,,,,,,,,,,,,,,,,,,
,,,,,,,5fb9689421064d7ff5f5243e,605b45a4d25f287719a41696,605b95c6ddc40c8684b77381,United States,Midwest,13 or older,no,2021-03-24_15h42.33.541,empathy_intonation_perc,2020.2.10,Win32,60,,,,,,,,,,0,mexican,0,1,1.715225,0,36,36,12,1,13,./stim/wavs/andalusian_match_declarative-narrow-focus_Manuela-vende-el-carro.wav,./stim/wavs/argentine_match_declarative-narrow-focus_Manuela-vende-el-carro.wav,./stim/wavs/castilian_match_declarative-narrow-focus_Manuela-vende-el-carro.wav,./stim/wavs/chilean_match_declarative-narrow-focus_Manuela-vende-el-carro.wav,./stim/wavs/cuban_match_declarative-narrow-focus_Manuela-vende-el-carro.wav,./stim/wavs/mexican_match_declarative-narrow-focus_Manuela-vende-el-carro.wav,./stim/wavs/peruvian_match_declarative-narrow-focus_Manuela-vende-el-carro.wav,./stim/wavs/puertorican_match_declarative-narrow-focus_Manuela-vende-el-carro.wav,,,,,,,,,,,,,,,,,,,,,,,,,,,,,,,,,,,,,,,,,,,,,,,,,,,,,,,,
,,,,,,,5fb9689421064d7ff5f5243e,605b45a4d25f287719a41696,605b95c6ddc40c8684b77381,United States,Midwest,13 or older,no,2021-03-24_15h42.33.541,empathy_intonation_perc,2020.2.10,Win32,60,,,,,,,,,,0,argentine,0,1,1.58199,0,37,37,3,1,4,./stim/wavs/andalusian_match_declarative-broad-focus_Emilio-ama-la-marcha.wav,./stim/wavs/argentine_match_declarative-broad-focus_Emilio-ama-la-marcha.wav,./stim/wavs/castilian_match_declarative-broad-focus_Emilio-ama-la-marcha.wav,./stim/wavs/chilean_match_declarative-broad-focus_Emilio-ama-la-marcha.wav,./stim/wavs/cuban_match_declarative-broad-focus_Emilio-ama-la-marcha.wav,./stim/wavs/mexican_match_declarative-broad-focus_Emilio-ama-la-marcha.wav,./stim/wavs/peruvian_match_declarative-broad-focus_Emilio-ama-la-marcha.wav,./stim/wavs/puertorican_match_declarative-broad-focus_Emilio-ama-la-marcha.wav,,,,,,,,,,,,,,,,,,,,,,,,,,,,,,,,,,,,,,,,,,,,,,,,,,,,,,,,
,,,,,,,5fb9689421064d7ff5f5243e,605b45a4d25f287719a41696,605b95c6ddc40c8684b77381,United States,Midwest,13 or older,no,2021-03-24_15h42.33.541,empathy_intonation_perc,2020.2.10,Win32,60,,,,,,,,,,0,puertorican,0,1,1.501685,0,38,38,15,1,16,./stim/wavs/andalusian_match_declarative-narrow-focus_Marta-abre-el-regalo.wav,./stim/wavs/argentine_match_declarative-narrow-focus_Marta-abre-el-regalo.wav,./stim/wavs/castilian_match_declarative-narrow-focus_Marta-abre-el-regalo.wav,./stim/wavs/chilean_match_declarative-narrow-focus_Marta-abre-el-regalo.wav,./stim/wavs/cuban_match_declarative-narrow-focus_Marta-abre-el-regalo.wav,./stim/wavs/mexican_match_declarative-narrow-focus_Marta-abre-el-regalo.wav,./stim/wavs/peruvian_match_declarative-narrow-focus_Marta-abre-el-regalo.wav,./stim/wavs/puertorican_match_declarative-narrow-focus_Marta-abre-el-regalo.wav,,,,,,,,,,,,,,,,,,,,,,,,,,,,,,,,,,,,,,,,,,,,,,,,,,,,,,,,
,,,,,,,5fb9689421064d7ff5f5243e,605b45a4d25f287719a41696,605b95c6ddc40c8684b77381,United States,Midwest,13 or older,no,2021-03-24_15h42.33.541,empathy_intonation_perc,2020.2.10,Win32,60,,,,,,,,,,0,argentine,0,1,1.50985,0,39,39,1,1,2,./stim/wavs/andalusian_match_declarative-broad-focus_Daniel-iba-a-Bolivia.wav,./stim/wavs/argentine_match_declarative-broad-focus_Daniel-iba-a-Bolivia.wav,./stim/wavs/castilian_match_declarative-broad-focus_Daniel-iba-a-Bolivia.wav,./stim/wavs/chilean_match_declarative-broad-focus_Daniel-iba-a-Bolivia.wav,./stim/wavs/cuban_match_declarative-broad-focus_Daniel-iba-a-Bolivia.wav,./stim/wavs/mexican_match_declarative-broad-focus_Daniel-iba-a-Bolivia.wav,./stim/wavs/peruvian_match_declarative-broad-focus_Daniel-iba-a-Bolivia.wav,./stim/wavs/puertorican_match_declarative-broad-focus_Daniel-iba-a-Bolivia.wav,,,,,,,,,,,,,,,,,,,,,,,,,,,,,,,,,,,,,,,,,,,,,,,,,,,,,,,,
,,,,,,,5fb9689421064d7ff5f5243e,605b45a4d25f287719a41696,605b95c6ddc40c8684b77381,United States,Midwest,13 or older,no,2021-03-24_15h42.33.541,empathy_intonation_perc,2020.2.10,Win32,60,,,,,,,,,,0,mexican,0,1,1.51346,0,40,40,14,1,15,./stim/wavs/andalusian_match_declarative-narrow-focus_Mariano-habla-del-tiempo.wav,./stim/wavs/argentine_match_declarative-narrow-focus_Mariano-habla-del-tiempo.wav,./stim/wavs/castilian_match_declarative-narrow-focus_Mariano-habla-del-tiempo.wav,./stim/wavs/chilean_match_declarative-narrow-focus_Mariano-habla-del-tiempo.wav,./stim/wavs/cuban_match_declarative-narrow-focus_Mariano-habla-del-tiempo.wav,./stim/wavs/mexican_match_declarative-narrow-focus_Mariano-habla-del-tiempo.wav,./stim/wavs/peruvian_match_declarative-narrow-focus_Mariano-habla-del-tiempo.wav,./stim/wavs/puertorican_match_declarative-narrow-focus_Mariano-habla-del-tiempo.wav,,,,,,,,,,,,,,,,,,,,,,,,,,,,,,,,,,,,,,,,,,,,,,,,,,,,,,,,
,,,,,,,5fb9689421064d7ff5f5243e,605b45a4d25f287719a41696,605b95c6ddc40c8684b77381,United States,Midwest,13 or older,no,2021-03-24_15h42.33.541,empathy_intonation_perc,2020.2.10,Win32,60,,,,,,,,,,0,chilean,0,1,1.48194,0,41,41,5,1,6,./stim/wavs/andalusian_match_declarative-broad-focus_Maria-bebe-el-vino.wav,./stim/wavs/argentine_match_declarative-broad-focus_Maria-bebe-el-vino.wav,./stim/wavs/castilian_match_declarative-broad-focus_Maria-bebe-el-vino.wav,./stim/wavs/chilean_match_declarative-broad-focus_Maria-bebe-el-vino.wav,./stim/wavs/cuban_match_declarative-broad-focus_Maria-bebe-el-vino.wav,./stim/wavs/mexican_match_declarative-broad-focus_Maria-bebe-el-vino.wav,./stim/wavs/peruvian_match_declarative-broad-focus_Maria-bebe-el-vino.wav,./stim/wavs/puertorican_match_declarative-broad-focus_Maria-bebe-el-vino.wav,,,,,,,,,,,,,,,,,,,,,,,,,,,,,,,,,,,,,,,,,,,,,,,,,,,,,,,,
,,,,,,,5fb9689421064d7ff5f5243e,605b45a4d25f287719a41696,605b95c6ddc40c8684b77381,United States,Midwest,13 or older,no,2021-03-24_15h42.33.541,empathy_intonation_perc,2020.2.10,Win32,60,,,,,,,,,,1,castilian,1,1,1.597075,0,42,42,17,1,18,./stim/wavs/andalusian_match_interrogative-partial-wh_Cuando-leia-el-libro.wav,./stim/wavs/argentine_match_interrogative-partial-wh_Cuando-leia-el-libro.wav,./stim/wavs/castilian_match_interrogative-partial-wh_Cuando-leia-el-libro.wav,./stim/wavs/chilean_match_interrogative-partial-wh_Cuando-leia-el-libro.wav,./stim/wavs/cuban_match_interrogative-partial-wh_Cuando-leia-el-libro.wav,./stim/wavs/mexican_match_interrogative-partial-wh_Cuando-leia-el-libro.wav,./stim/wavs/peruvian_match_interrogative-partial-wh_Cuando-leia-el-libro.wav,./stim/wavs/puertorican_match_interrogative-partial-wh_Cuando-leia-el-libro.wav,,,,,,,,,,,,,,,,,,,,,,,,,,,,,,,,,,,,,,,,,,,,,,,,,,,,,,,,
,,,,,,,5fb9689421064d7ff5f5243e,605b45a4d25f287719a41696,605b95c6ddc40c8684b77381,United States,Midwest,13 or older,no,2021-03-24_15h42.33.541,empathy_intonation_perc,2020.2.10,Win32,60,,,,,,,,,,1,argentine,0,0,1.709565,0,43,43,26,1,27,./stim/wavs/andalusian_match_interrogative-total-yn_David-leia-el-libro.wav,./stim/wavs/argentine_match_interrogative-total-yn_David-leia-el-libro.wav,./stim/wavs/castilian_match_interrogative-total-yn_David-leia-el-libro.wav,./stim/wavs/chilean_match_interrogative-total-yn_David-leia-el-libro.wav,./stim/wavs/cuban_match_interrogative-total-yn_David-leia-el-libro.wav,./stim/wavs/mexican_match_interrogative-total-yn_David-leia-el-libro.wav,./stim/wavs/peruvian_match_interrogative-total-yn_David-leia-el-libro.wav,./stim/wavs/puertorican_match_interrogative-total-yn_David-leia-el-libro.wav,,,,,,,,,,,,,,,,,,,,,,,,,,,,,,,,,,,,,,,,,,,,,,,,,,,,,,,,
,,,,,,,5fb9689421064d7ff5f5243e,605b45a4d25f287719a41696,605b95c6ddc40c8684b77381,United States,Midwest,13 or older,no,2021-03-24_15h42.33.541,empathy_intonation_perc,2020.2.10,Win32,60,,,,,,,,,,0,castilian,0,1,1.41512,0,44,44,8,1,9,./stim/wavs/andalusian_match_declarative-narrow-focus_Ana-lleva-el-abrigo.wav,./stim/wavs/argentine_match_declarative-narrow-focus_Ana-lleva-el-abrigo.wav,./stim/wavs/castilian_match_declarative-narrow-focus_Ana-lleva-el-abrigo.wav,./stim/wavs/chilean_match_declarative-narrow-focus_Ana-lleva-el-abrigo.wav,./stim/wavs/cuban_match_declarative-narrow-focus_Ana-lleva-el-abrigo.wav,./stim/wavs/mexican_match_declarative-narrow-focus_Ana-lleva-el-abrigo.wav,./stim/wavs/peruvian_match_declarative-narrow-focus_Ana-lleva-el-abrigo.wav,./stim/wavs/puertorican_match_declarative-narrow-focus_Ana-lleva-el-abrigo.wav,,,,,,,,,,,,,,,,,,,,,,,,,,,,,,,,,,,,,,,,,,,,,,,,,,,,,,,,
,,,,,,,5fb9689421064d7ff5f5243e,605b45a4d25f287719a41696,605b95c6ddc40c8684b77381,United States,Midwest,13 or older,no,2021-03-24_15h42.33.541,empathy_intonation_perc,2020.2.10,Win32,60,,,,,,,,,,0,mexican,0,1,1.33704,0,45,45,34,1,35,./stim/wavs/andalusian_mismatch_declarative-broad-focus_El-nino-oye-el-rio.wav,./stim/wavs/argentine_mismatch_declarative-broad-focus_El-nino-oye-el-rio.wav,./stim/wavs/castilian_mismatch_declarative-broad-focus_El-nino-oye-el-rio.wav,./stim/wavs/chilean_mismatch_declarative-broad-focus_El-nino-oye-el-rio.wav,./stim/wavs/cuban_mismatch_declarative-broad-focus_El-nino-oye-el-rio.wav,./stim/wavs/mexican_mismatch_declarative-broad-focus_El-nino-oye-el-rio.wav,./stim/wavs/peruvian_mismatch_declarative-broad-focus_El-nino-oye-el-rio.wav,./stim/wavs/puertorican_mismatch_declarative-broad-focus_El-nino-oye-el-rio.wav,,,,,,,,,,,,,,,,,,,,,,,,,,,,,,,,,,,,,,,,,,,,,,,,,,,,,,,,
,,,,,,,5fb9689421064d7ff5f5243e,605b45a4d25f287719a41696,605b95c6ddc40c8684b77381,United States,Midwest,13 or older,no,2021-03-24_15h42.33.541,empathy_intonation_perc,2020.2.10,Win32,60,,,,,,,,,,0,cuban,0,1,1.548305,0,46,46,45,1,46,./stim/wavs/andalusian_mismatch_declarative-narrow-focus_Mi-madre-come-la-fruta.wav,./stim/wavs/argentine_mismatch_declarative-narrow-focus_Mi-madre-come-la-fruta.wav,./stim/wavs/castilian_mismatch_declarative-narrow-focus_Mi-madre-come-la-fruta.wav,./stim/wavs/chilean_mismatch_declarative-narrow-focus_Mi-madre-come-la-fruta.wav,./stim/wavs/cuban_mismatch_declarative-narrow-focus_Mi-madre-come-la-fruta.wav,./stim/wavs/mexican_mismatch_declarative-narrow-focus_Mi-madre-come-la-fruta.wav,./stim/wavs/peruvian_mismatch_declarative-narrow-focus_Mi-madre-come-la-fruta.wav,./stim/wavs/puertorican_mismatch_declarative-narrow-focus_Mi-madre-come-la-fruta.wav,,,,,,,,,,,,,,,,,,,,,,,,,,,,,,,,,,,,,,,,,,,,,,,,,,,,,,,,
,,,,,,,5fb9689421064d7ff5f5243e,605b45a4d25f287719a41696,605b95c6ddc40c8684b77381,United States,Midwest,13 or older,no,2021-03-24_15h42.33.541,empathy_intonation_perc,2020.2.10,Win32,60,,,,,,,,,,0,mexican,0,1,1.47932,0,47,47,47,1,48,./stim/wavs/andalusian_mismatch_declarative-narrow-focus_Mi-tia-odia-la-lluvia.wav,./stim/wavs/argentine_mismatch_declarative-narrow-focus_Mi-tia-odia-la-lluvia.wav,./stim/wavs/castilian_mismatch_declarative-narrow-focus_Mi-tia-odia-la-lluvia.wav,./stim/wavs/chilean_mismatch_declarative-narrow-focus_Mi-tia-odia-la-lluvia.wav,./stim/wavs/cuban_mismatch_declarative-narrow-focus_Mi-tia-odia-la-lluvia.wav,./stim/wavs/mexican_mismatch_declarative-narrow-focus_Mi-tia-odia-la-lluvia.wav,./stim/wavs/peruvian_mismatch_declarative-narrow-focus_Mi-tia-odia-la-lluvia.wav,./stim/wavs/puertorican_mismatch_declarative-narrow-focus_Mi-tia-odia-la-lluvia.wav,,,,,,,,,,,,,,,,,,,,,,,,,,,,,,,,,,,,,,,,,,,,,,,,,,,,,,,,
,,,,,,,5fb9689421064d7ff5f5243e,605b45a4d25f287719a41696,605b95c6ddc40c8684b77381,United States,Midwest,13 or older,no,2021-03-24_15h42.33.541,empathy_intonation_perc,2020.2.10,Win32,60,,,,,,,,,,0,mexican,0,1,1.40543,0,48,48,46,1,47,./stim/wavs/andalusian_mismatch_declarative-narrow-focus_Mi-novio-viene-del-lago.wav,./stim/wavs/argentine_mismatch_declarative-narrow-focus_Mi-novio-viene-del-lago.wav,./stim/wavs/castilian_mismatch_declarative-narrow-focus_Mi-novio-viene-del-lago.wav,./stim/wavs/chilean_mismatch_declarative-narrow-focus_Mi-novio-viene-del-lago.wav,./stim/wavs/cuban_mismatch_declarative-narrow-focus_Mi-novio-viene-del-lago.wav,./stim/wavs/mexican_mismatch_declarative-narrow-focus_Mi-novio-viene-del-lago.wav,./stim/wavs/peruvian_mismatch_declarative-narrow-focus_Mi-novio-viene-del-lago.wav,./stim/wavs/puertorican_mismatch_declarative-narrow-focus_Mi-novio-viene-del-lago.wav,,,,,,,,,,,,,,,,,,,,,,,,,,,,,,,,,,,,,,,,,,,,,,,,,,,,,,,,
,,,,,,,5fb9689421064d7ff5f5243e,605b45a4d25f287719a41696,605b95c6ddc40c8684b77381,United States,Midwest,13 or older,no,2021-03-24_15h42.33.541,empathy_intonation_perc,2020.2.10,Win32,60,,,,,,,,,,0,puertorican,0,1,1.69952,0,49,49,11,1,12,./stim/wavs/andalusian_match_declarative-narrow-focus_Emilio-ama-la-marcha.wav,./stim/wavs/argentine_match_declarative-narrow-focus_Emilio-ama-la-marcha.wav,./stim/wavs/castilian_match_declarative-narrow-focus_Emilio-ama-la-marcha.wav,./stim/wavs/chilean_match_declarative-narrow-focus_Emilio-ama-la-marcha.wav,./stim/wavs/cuban_match_declarative-narrow-focus_Emilio-ama-la-marcha.wav,./stim/wavs/mexican_match_declarative-narrow-focus_Emilio-ama-la-marcha.wav,./stim/wavs/peruvian_match_declarative-narrow-focus_Emilio-ama-la-marcha.wav,./stim/wavs/puertorican_match_declarative-narrow-focus_Emilio-ama-la-marcha.wav,,,,,,,,,,,,,,,,,,,,,,,,,,,,,,,,,,,,,,,,,,,,,,,,,,,,,,,,
,,,,,,,5fb9689421064d7ff5f5243e,605b45a4d25f287719a41696,605b95c6ddc40c8684b77381,United States,Midwest,13 or older,no,2021-03-24_15h42.33.541,empathy_intonation_perc,2020.2.10,Win32,60,,,,,,,,,,1,chilean,1,1,1.645305,0,50,50,51,1,52,./stim/wavs/andalusian_mismatch_interrogative-partial-wh_Por-que-desayuna-muy-bien.wav,./stim/wavs/argentine_mismatch_interrogative-partial-wh_Por-que-desayuna-muy-bien.wav,./stim/wavs/castilian_mismatch_interrogative-partial-wh_Por-que-desayuna-muy-bien.wav,./stim/wavs/chilean_mismatch_interrogative-partial-wh_Por-que-desayuna-muy-bien.wav,./stim/wavs/cuban_mismatch_interrogative-partial-wh_Por-que-desayuna-muy-bien.wav,./stim/wavs/mexican_mismatch_interrogative-partial-wh_Por-que-desayuna-muy-bien.wav,./stim/wavs/peruvian_mismatch_interrogative-partial-wh_Por-que-desayuna-muy-bien.wav,./stim/wavs/puertorican_mismatch_interrogative-partial-wh_Por-que-desayuna-muy-bien.wav,,,,,,,,,,,,,,,,,,,,,,,,,,,,,,,,,,,,,,,,,,,,,,,,,,,,,,,,
,,,,,,,5fb9689421064d7ff5f5243e,605b45a4d25f287719a41696,605b95c6ddc40c8684b77381,United States,Midwest,13 or older,no,2021-03-24_15h42.33.541,empathy_intonation_perc,2020.2.10,Win32,60,,,,,,,,,,1,puertorican,1,1,1.467375,0,51,51,53,1,54,./stim/wavs/andalusian_mismatch_interrogative-partial-wh_Por-que-oia-el-rio.wav,./stim/wavs/argentine_mismatch_interrogative-partial-wh_Por-que-oia-el-rio.wav,./stim/wavs/castilian_mismatch_interrogative-partial-wh_Por-que-oia-el-rio.wav,./stim/wavs/chilean_mismatch_interrogative-partial-wh_Por-que-oia-el-rio.wav,./stim/wavs/cuban_mismatch_interrogative-partial-wh_Por-que-oia-el-rio.wav,./stim/wavs/mexican_mismatch_interrogative-partial-wh_Por-que-oia-el-rio.wav,./stim/wavs/peruvian_mismatch_interrogative-partial-wh_Por-que-oia-el-rio.wav,./stim/wavs/puertorican_mismatch_interrogative-partial-wh_Por-que-oia-el-rio.wav,,,,,,,,,,,,,,,,,,,,,,,,,,,,,,,,,,,,,,,,,,,,,,,,,,,,,,,,
,,,,,,,5fb9689421064d7ff5f5243e,605b45a4d25f287719a41696,605b95c6ddc40c8684b77381,United States,Midwest,13 or older,no,2021-03-24_15h42.33.541,empathy_intonation_perc,2020.2.10,Win32,60,,,,,,,,,,1,argentine,1,1,1.872255,0,52,52,19,1,20,./stim/wavs/andalusian_match_interrogative-partial-wh_Cuando-vendia-el-carro.wav,./stim/wavs/argentine_match_interrogative-partial-wh_Cuando-vendia-el-carro.wav,./stim/wavs/castilian_match_interrogative-partial-wh_Cuando-vendia-el-carro.wav,./stim/wavs/chilean_match_interrogative-partial-wh_Cuando-vendia-el-carro.wav,./stim/wavs/cuban_match_interrogative-partial-wh_Cuando-vendia-el-carro.wav,./stim/wavs/mexican_match_interrogative-partial-wh_Cuando-vendia-el-carro.wav,./stim/wavs/peruvian_match_interrogative-partial-wh_Cuando-vendia-el-carro.wav,./stim/wavs/puertorican_match_interrogative-partial-wh_Cuando-vendia-el-carro.wav,,,,,,,,,,,,,,,,,,,,,,,,,,,,,,,,,,,,,,,,,,,,,,,,,,,,,,,,
,,,,,,,5fb9689421064d7ff5f5243e,605b45a4d25f287719a41696,605b95c6ddc40c8684b77381,United States,Midwest,13 or older,no,2021-03-24_15h42.33.541,empathy_intonation_perc,2020.2.10,Win32,60,,,,,,,,,,1,peruvian,0,0,1.74771,0,53,53,56,1,57,./stim/wavs/andalusian_mismatch_interrogative-total-yn_El-bebe-comia-muy-bien.wav,./stim/wavs/argentine_mismatch_interrogative-total-yn_El-bebe-comia-muy-bien.wav,./stim/wavs/castilian_mismatch_interrogative-total-yn_El-bebe-comia-muy-bien.wav,./stim/wavs/chilean_mismatch_interrogative-total-yn_El-bebe-comia-muy-bien.wav,./stim/wavs/cuban_mismatch_interrogative-total-yn_El-bebe-comia-muy-bien.wav,./stim/wavs/mexican_mismatch_interrogative-total-yn_El-bebe-comia-muy-bien.wav,./stim/wavs/peruvian_mismatch_interrogative-total-yn_El-bebe-comia-muy-bien.wav,./stim/wavs/puertorican_mismatch_interrogative-total-yn_El-bebe-comia-muy-bien.wav,,,,,,,,,,,,,,,,,,,,,,,,,,,,,,,,,,,,,,,,,,,,,,,,,,,,,,,,
,,,,,,,5fb9689421064d7ff5f5243e,605b45a4d25f287719a41696,605b95c6ddc40c8684b77381,United States,Midwest,13 or older,no,2021-03-24_15h42.33.541,empathy_intonation_perc,2020.2.10,Win32,60,,,,,,,,,,0,chilean,0,1,1.888815,0,54,54,41,1,42,./stim/wavs/andalusian_mismatch_declarative-narrow-focus_El-hombre-mira-la-luna.wav,./stim/wavs/argentine_mismatch_declarative-narrow-focus_El-hombre-mira-la-luna.wav,./stim/wavs/castilian_mismatch_declarative-narrow-focus_El-hombre-mira-la-luna.wav,./stim/wavs/chilean_mismatch_declarative-narrow-focus_El-hombre-mira-la-luna.wav,./stim/wavs/cuban_mismatch_declarative-narrow-focus_El-hombre-mira-la-luna.wav,./stim/wavs/mexican_mismatch_declarative-narrow-focus_El-hombre-mira-la-luna.wav,./stim/wavs/peruvian_mismatch_declarative-narrow-focus_El-hombre-mira-la-luna.wav,./stim/wavs/puertorican_mismatch_declarative-narrow-focus_El-hombre-mira-la-luna.wav,,,,,,,,,,,,,,,,,,,,,,,,,,,,,,,,,,,,,,,,,,,,,,,,,,,,,,,,
,,,,,,,5fb9689421064d7ff5f5243e,605b45a4d25f287719a41696,605b95c6ddc40c8684b77381,United States,Midwest,13 or older,no,2021-03-24_15h42.33.541,empathy_intonation_perc,2020.2.10,Win32,60,,,,,,,,,,0,puertorican,0,1,1.649805,0,55,55,13,1,14,./stim/wavs/andalusian_match_declarative-narrow-focus_Maria-bebe-el-vino.wav,./stim/wavs/argentine_match_declarative-narrow-focus_Maria-bebe-el-vino.wav,./stim/wavs/castilian_match_declarative-narrow-focus_Maria-bebe-el-vino.wav,./stim/wavs/chilean_match_declarative-narrow-focus_Maria-bebe-el-vino.wav,./stim/wavs/cuban_match_declarative-narrow-focus_Maria-bebe-el-vino.wav,./stim/wavs/mexican_match_declarative-narrow-focus_Maria-bebe-el-vino.wav,./stim/wavs/peruvian_match_declarative-narrow-focus_Maria-bebe-el-vino.wav,./stim/wavs/puertorican_match_declarative-narrow-focus_Maria-bebe-el-vino.wav,,,,,,,,,,,,,,,,,,,,,,,,,,,,,,,,,,,,,,,,,,,,,,,,,,,,,,,,
,,,,,,,5fb9689421064d7ff5f5243e,605b45a4d25f287719a41696,605b95c6ddc40c8684b77381,United States,Midwest,13 or older,no,2021-03-24_15h42.33.541,empathy_intonation_perc,2020.2.10,Win32,60,,,,,,,,,,0,chilean,0,1,1.566725,0,56,56,44,1,45,./stim/wavs/andalusian_mismatch_declarative-narrow-focus_La-nina-lava-el-plato.wav,./stim/wavs/argentine_mismatch_declarative-narrow-focus_La-nina-lava-el-plato.wav,./stim/wavs/castilian_mismatch_declarative-narrow-focus_La-nina-lava-el-plato.wav,./stim/wavs/chilean_mismatch_declarative-narrow-focus_La-nina-lava-el-plato.wav,./stim/wavs/cuban_mismatch_declarative-narrow-focus_La-nina-lava-el-plato.wav,./stim/wavs/mexican_mismatch_declarative-narrow-focus_La-nina-lava-el-plato.wav,./stim/wavs/peruvian_mismatch_declarative-narrow-focus_La-nina-lava-el-plato.wav,./stim/wavs/puertorican_mismatch_declarative-narrow-focus_La-nina-lava-el-plato.wav,,,,,,,,,,,,,,,,,,,,,,,,,,,,,,,,,,,,,,,,,,,,,,,,,,,,,,,,
,,,,,,,5fb9689421064d7ff5f5243e,605b45a4d25f287719a41696,605b95c6ddc40c8684b77381,United States,Midwest,13 or older,no,2021-03-24_15h42.33.541,empathy_intonation_perc,2020.2.10,Win32,60,,,,,,,,,,1,chilean,0,0,1.36233,0,57,57,31,1,32,./stim/wavs/andalusian_match_interrogative-total-yn_Marta-abre-el-regalo.wav,./stim/wavs/argentine_match_interrogative-total-yn_Marta-abre-el-regalo.wav,./stim/wavs/castilian_match_interrogative-total-yn_Marta-abre-el-regalo.wav,./stim/wavs/chilean_match_interrogative-total-yn_Marta-abre-el-regalo.wav,./stim/wavs/cuban_match_interrogative-total-yn_Marta-abre-el-regalo.wav,./stim/wavs/mexican_match_interrogative-total-yn_Marta-abre-el-regalo.wav,./stim/wavs/peruvian_match_interrogative-total-yn_Marta-abre-el-regalo.wav,./stim/wavs/puertorican_match_interrogative-total-yn_Marta-abre-el-regalo.wav,,,,,,,,,,,,,,,,,,,,,,,,,,,,,,,,,,,,,,,,,,,,,,,,,,,,,,,,
,,,,,,,5fb9689421064d7ff5f5243e,605b45a4d25f287719a41696,605b95c6ddc40c8684b77381,United States,Midwest,13 or older,no,2021-03-24_15h42.33.541,empathy_intonation_perc,2020.2.10,Win32,60,,,,,,,,,,1,chilean,0,0,2.198375,0,58,58,16,1,17,./stim/wavs/andalusian_match_interrogative-partial-wh_Cuando-bebia-el-vino.wav,./stim/wavs/argentine_match_interrogative-partial-wh_Cuando-bebia-el-vino.wav,./stim/wavs/castilian_match_interrogative-partial-wh_Cuando-bebia-el-vino.wav,./stim/wavs/chilean_match_interrogative-partial-wh_Cuando-bebia-el-vino.wav,./stim/wavs/cuban_match_interrogative-partial-wh_Cuando-bebia-el-vino.wav,./stim/wavs/mexican_match_interrogative-partial-wh_Cuando-bebia-el-vino.wav,./stim/wavs/peruvian_match_interrogative-partial-wh_Cuando-bebia-el-vino.wav,./stim/wavs/puertorican_match_interrogative-partial-wh_Cuando-bebia-el-vino.wav,,,,,,,,,,,,,,,,,,,,,,,,,,,,,,,,,,,,,,,,,,,,,,,,,,,,,,,,
,,,,,,,5fb9689421064d7ff5f5243e,605b45a4d25f287719a41696,605b95c6ddc40c8684b77381,United States,Midwest,13 or older,no,2021-03-24_15h42.33.541,empathy_intonation_perc,2020.2.10,Win32,60,,,,,,,,,,0,peruvian,0,1,1.90323,0,59,59,4,1,5,./stim/wavs/andalusian_match_declarative-broad-focus_Manuela-vende-el-carro.wav,./stim/wavs/argentine_match_declarative-broad-focus_Manuela-vende-el-carro.wav,./stim/wavs/castilian_match_declarative-broad-focus_Manuela-vende-el-carro.wav,./stim/wavs/chilean_match_declarative-broad-focus_Manuela-vende-el-carro.wav,./stim/wavs/cuban_match_declarative-broad-focus_Manuela-vende-el-carro.wav,./stim/wavs/mexican_match_declarative-broad-focus_Manuela-vende-el-carro.wav,./stim/wavs/peruvian_match_declarative-broad-focus_Manuela-vende-el-carro.wav,./stim/wavs/puertorican_match_declarative-broad-focus_Manuela-vende-el-carro.wav,,,,,,,,,,,,,,,,,,,,,,,,,,,,,,,,,,,,,,,,,,,,,,,,,,,,,,,,
,,,,,,,5fb9689421064d7ff5f5243e,605b45a4d25f287719a41696,605b95c6ddc40c8684b77381,United States,Midwest,13 or older,no,2021-03-24_15h42.33.541,empathy_intonation_perc,2020.2.10,Win32,60,,,,,,,,,,1,chilean,1,1,1.166755,0,60,60,49,1,50,./stim/wavs/andalusian_mismatch_interrogative-partial-wh_Cuando-lavaba-el-plato.wav,./stim/wavs/argentine_mismatch_interrogative-partial-wh_Cuando-lavaba-el-plato.wav,./stim/wavs/castilian_mismatch_interrogative-partial-wh_Cuando-lavaba-el-plato.wav,./stim/wavs/chilean_mismatch_interrogative-partial-wh_Cuando-lavaba-el-plato.wav,./stim/wavs/cuban_mismatch_interrogative-partial-wh_Cuando-lavaba-el-plato.wav,./stim/wavs/mexican_mismatch_interrogative-partial-wh_Cuando-lavaba-el-plato.wav,./stim/wavs/peruvian_mismatch_interrogative-partial-wh_Cuando-lavaba-el-plato.wav,./stim/wavs/puertorican_mismatch_interrogative-partial-wh_Cuando-lavaba-el-plato.wav,,,,,,,,,,,,,,,,,,,,,,,,,,,,,,,,,,,,,,,,,,,,,,,,,,,,,,,,
,,,,,,,5fb9689421064d7ff5f5243e,605b45a4d25f287719a41696,605b95c6ddc40c8684b77381,United States,Midwest,13 or older,no,2021-03-24_15h42.33.541,empathy_intonation_perc,2020.2.10,Win32,60,,,,,,,,,,0,mexican,0,1,1.332495,0,61,61,40,1,41,./stim/wavs/andalusian_mismatch_declarative-narrow-focus_El-bebe-comia-muy-bien.wav,./stim/wavs/argentine_mismatch_declarative-narrow-focus_El-bebe-comia-muy-bien.wav,./stim/wavs/castilian_mismatch_declarative-narrow-focus_El-bebe-comia-muy-bien.wav,./stim/wavs/chilean_mismatch_declarative-narrow-focus_El-bebe-comia-muy-bien.wav,./stim/wavs/cuban_mismatch_declarative-narrow-focus_El-bebe-comia-muy-bien.wav,./stim/wavs/mexican_mismatch_declarative-narrow-focus_El-bebe-comia-muy-bien.wav,./stim/wavs/peruvian_mismatch_declarative-narrow-focus_El-bebe-comia-muy-bien.wav,./stim/wavs/puertorican_mismatch_declarative-narrow-focus_El-bebe-comia-muy-bien.wav,,,,,,,,,,,,,,,,,,,,,,,,,,,,,,,,,,,,,,,,,,,,,,,,,,,,,,,,
,,,,,,,5fb9689421064d7ff5f5243e,605b45a4d25f287719a41696,605b95c6ddc40c8684b77381,United States,Midwest,13 or older,no,2021-03-24_15h42.33.541,empathy_intonation_perc,2020.2.10,Win32,60,,,,,,,,,,1,chilean,0,0,1.31701,0,62,62,61,1,62,./stim/wavs/andalusian_mismatch_interrogative-total-yn_Mi-madre-come-la-fruta.wav,./stim/wavs/argentine_mismatch_interrogative-total-yn_Mi-madre-come-la-fruta.wav,./stim/wavs/castilian_mismatch_interrogative-total-yn_Mi-madre-come-la-fruta.wav,./stim/wavs/chilean_mismatch_interrogative-total-yn_Mi-madre-come-la-fruta.wav,./stim/wavs/cuban_mismatch_interrogative-total-yn_Mi-madre-come-la-fruta.wav,./stim/wavs/mexican_mismatch_interrogative-total-yn_Mi-madre-come-la-fruta.wav,./stim/wavs/peruvian_mismatch_interrogative-total-yn_Mi-madre-come-la-fruta.wav,./stim/wavs/puertorican_mismatch_interrogative-total-yn_Mi-madre-come-la-fruta.wav,,,,,,,,,,,,,,,,,,,,,,,,,,,,,,,,,,,,,,,,,,,,,,,,,,,,,,,,
,,,,,,,5fb9689421064d7ff5f5243e,605b45a4d25f287719a41696,605b95c6ddc40c8684b77381,United States,Midwest,13 or older,no,2021-03-24_15h42.33.541,empathy_intonation_perc,2020.2.10,Win32,60,,,,,,,,,,1,puertorican,0,0,1.218805,0,63,63,29,1,30,./stim/wavs/andalusian_match_interrogative-total-yn_Maria-bebe-el-vino.wav,./stim/wavs/argentine_match_interrogative-total-yn_Maria-bebe-el-vino.wav,./stim/wavs/castilian_match_interrogative-total-yn_Maria-bebe-el-vino.wav,./stim/wavs/chilean_match_interrogative-total-yn_Maria-bebe-el-vino.wav,./stim/wavs/cuban_match_interrogative-total-yn_Maria-bebe-el-vino.wav,./stim/wavs/mexican_match_interrogative-total-yn_Maria-bebe-el-vino.wav,./stim/wavs/peruvian_match_interrogative-total-yn_Maria-bebe-el-vino.wav,./stim/wavs/puertorican_match_interrogative-total-yn_Maria-bebe-el-vino.wav,,,,,,,,,,,,,,,,,,,,,,,,,,,,,,,,,,,,,,,,,,,,,,,,,,,,,,,,
,,,,,,,5fb9689421064d7ff5f5243e,605b45a4d25f287719a41696,605b95c6ddc40c8684b77381,United States,Midwest,13 or older,no,2021-03-24_15h42.33.541,empathy_intonation_perc,2020.2.10,Win32,60,,,,,,,,,,,,,,,,,,,,,,,,,,,,,space,0,10.584335,0,0,0,0,1,,,,,,,,,,,,,,,,,,,,,,,,,,,,,,,,,,,,,,,,,,,,,,,,
,,,,,"Great! Now we will move on. The next task consists of about 60 trials, in each of which you will see a string of letters. 
  
  Your task is to decide whether this is a real Spanish word or not.",(press the spacebar to continue),5fb9689421064d7ff5f5243e,605b45a4d25f287719a41696,605b95c6ddc40c8684b77381,United States,Midwest,13 or older,no,2021-03-24_15h42.33.541,empathy_intonation_perc,2020.2.10,Win32,60,,,,,,,,,,,,,,,,,,,,,,,,,,,,,,,,,,,,,0,0,0,0,1,,,,,,,,,,,,,,,,,,,,,,,,,,,,,,,,,,,,,,,,,,,
,,,,,"If you think it is an existing Spanish word, you type '1' (for 'REAL'), and if you think it is not an existing Spanish word, you type '0' (for 'FAKE').",(press the spacebar to continue),5fb9689421064d7ff5f5243e,605b45a4d25f287719a41696,605b95c6ddc40c8684b77381,United States,Midwest,13 or older,no,2021-03-24_15h42.33.541,empathy_intonation_perc,2020.2.10,Win32,60,,,,,,,,,,,,,,,,,,,,,,,,,,,,,,,,,,,,,0,1,1,1,1,,,,,,,,,,,,,,,,,,,,,,,,,,,,,,,,,,,,,,,,,,,
,,,,,"If you are sure that the word exists, even though you dont know its exact meaning, you may still respond '1' (REAL). 
  
  But if you are not sure if it is an existing word, you should respond '0' (FAKE).
  
  Let's do a practice round...",(press the spacebar to continue),5fb9689421064d7ff5f5243e,605b45a4d25f287719a41696,605b95c6ddc40c8684b77381,United States,Midwest,13 or older,no,2021-03-24_15h42.33.541,empathy_intonation_perc,2020.2.10,Win32,60,,,,,,,,,,,,,,,,,,,,,,,,,,,,,,,,,,,,,0,2,2,2,1,,,,,,,,,,,,,,,,,,,,,,,,,,,,,,,,,,,,,,,,,,,
,,,,,,,5fb9689421064d7ff5f5243e,605b45a4d25f287719a41696,605b95c6ddc40c8684b77381,United States,Midwest,13 or older,no,2021-03-24_15h42.33.541,empathy_intonation_perc,2020.2.10,Win32,60,,,,,,,,,,0,,,,,,,,,,,,,,,,,,,,,,,,,,,,,,,,1,0,2.528755,0,0,0,0,1,0,depiste,REAL,FAKE,,,,,,,,,,,,,,,,,,,,,,,,,,,,,,,
,,,,,,,5fb9689421064d7ff5f5243e,605b45a4d25f287719a41696,605b95c6ddc40c8684b77381,United States,Midwest,13 or older,no,2021-03-24_15h42.33.541,empathy_intonation_perc,2020.2.10,Win32,60,,,,,,,,,,1,,,,,,,,,,,,,,,,,,,,,,,,,,,,,,,,1,1,0.88448,0,1,1,1,1,0,s,REAL,FAKE,,,,,,,,,,,,,,,,,,,,,,,,,,,,,,,
,,,,,,,5fb9689421064d7ff5f5243e,605b45a4d25f287719a41696,605b95c6ddc40c8684b77381,United States,Midwest,13 or older,no,2021-03-24_15h42.33.541,empathy_intonation_perc,2020.2.10,Win32,60,,,,,,,,,,0,,,,,,,,,,,,,,,,,,,,,,,,,,,,,,,,1,0,1.080375,0,2,2,2,1,0,con,REAL,FAKE,,,,,,,,,,,,,,,,,,,,,,,,,,,,,,,
,,,,,,,5fb9689421064d7ff5f5243e,605b45a4d25f287719a41696,605b95c6ddc40c8684b77381,United States,Midwest,13 or older,no,2021-03-24_15h42.33.541,empathy_intonation_perc,2020.2.10,Win32,60,,,,,,,,,,0,,,,,,,,,,,,,,,,,,,,,,,,,,,,,,,,1,0,0.847445,0,3,3,3,1,0,calpar,REAL,FAKE,,,,,,,,,,,,,,,,,,,,,,,,,,,,,,,
,,,,,,,5fb9689421064d7ff5f5243e,605b45a4d25f287719a41696,605b95c6ddc40c8684b77381,United States,Midwest,13 or older,no,2021-03-24_15h42.33.541,empathy_intonation_perc,2020.2.10,Win32,60,,,,,,,,,,0,,,,,,,,,,,,,,,,,,,,,,,,,,,,,,,,0,1,0.80232,0,4,4,4,1,0,joten,REAL,FAKE,,,,,,,,,,,,,,,,,,,,,,,,,,,,,,,
,,,,,,,5fb9689421064d7ff5f5243e,605b45a4d25f287719a41696,605b95c6ddc40c8684b77381,United States,Midwest,13 or older,no,2021-03-24_15h42.33.541,empathy_intonation_perc,2020.2.10,Win32,60,,,,,,,,,,1,,,,,,,,,,,,,,,,,,,,,,,,,,,,,,,,1,1,2.001335,0,5,5,5,1,0,sacapuntas,REAL,FAKE,,,,,,,,,,,,,,,,,,,,,,,,,,,,,,,
,,,,,,,5fb9689421064d7ff5f5243e,605b45a4d25f287719a41696,605b95c6ddc40c8684b77381,United States,Midwest,13 or older,no,2021-03-24_15h42.33.541,empathy_intonation_perc,2020.2.10,Win32,60,,,,,,,,,,0,,,,,,,,,,,,,,,,,,,,,,,,,,,,,,,,0,1,0.97437,0,6,6,6,1,0,priba,REAL,FAKE,,,,,,,,,,,,,,,,,,,,,,,,,,,,,,,
,,,,,,,5fb9689421064d7ff5f5243e,605b45a4d25f287719a41696,605b95c6ddc40c8684b77381,United States,Midwest,13 or older,no,2021-03-24_15h42.33.541,empathy_intonation_perc,2020.2.10,Win32,60,,,,,,,,,,0,,,,,,,,,,,,,,,,,,,,,,,,,,,,,,,,0,1,1.41842,0,7,7,7,1,0,pelasula,REAL,FAKE,,,,,,,,,,,,,,,,,,,,,,,,,,,,,,,
,,,,,,,5fb9689421064d7ff5f5243e,605b45a4d25f287719a41696,605b95c6ddc40c8684b77381,United States,Midwest,13 or older,no,2021-03-24_15h42.33.541,empathy_intonation_perc,2020.2.10,Win32,60,,,,,,,,,,1,,,,,,,,,,,,,,,,,,,,,,,,,,,,,,,,1,1,0.704055,0,8,8,8,1,0,bien,REAL,FAKE,,,,,,,,,,,,,,,,,,,,,,,,,,,,,,,
,,,,,,,5fb9689421064d7ff5f5243e,605b45a4d25f287719a41696,605b95c6ddc40c8684b77381,United States,Midwest,13 or older,no,2021-03-24_15h42.33.541,empathy_intonation_perc,2020.2.10,Win32,60,,,,,,,,,,1,,,,,,,,,,,,,,,,,,,,,,,,,,,,,,,,1,1,0.72232,0,9,9,9,1,0,casa,REAL,FAKE,,,,,,,,,,,,,,,,,,,,,,,,,,,,,,,
,,,,,,,5fb9689421064d7ff5f5243e,605b45a4d25f287719a41696,605b95c6ddc40c8684b77381,United States,Midwest,13 or older,no,2021-03-24_15h42.33.541,empathy_intonation_perc,2020.2.10,Win32,60,,,,,,,,,,0,,,,,,,,,,,,,,,,,,,,,,,,,,,,,,,,0,1,0.85789,0,10,10,10,1,0,lejo,REAL,FAKE,,,,,,,,,,,,,,,,,,,,,,,,,,,,,,,
,,,,,,,5fb9689421064d7ff5f5243e,605b45a4d25f287719a41696,605b95c6ddc40c8684b77381,United States,Midwest,13 or older,no,2021-03-24_15h42.33.541,empathy_intonation_perc,2020.2.10,Win32,60,,,,,,,,,,0,,,,,,,,,,,,,,,,,,,,,,,,,,,,,,,,1,0,1.484545,0,11,11,11,1,0,pretantas,REAL,FAKE,,,,,,,,,,,,,,,,,,,,,,,,,,,,,,,
,,,,,,,5fb9689421064d7ff5f5243e,605b45a4d25f287719a41696,605b95c6ddc40c8684b77381,United States,Midwest,13 or older,no,2021-03-24_15h42.33.541,empathy_intonation_perc,2020.2.10,Win32,60,,,,,,,,,,0,,,,,,,,,,,,,,,,,,,,,,,,,,,,,,,,,,,,,,,,74,cintro,,,0,1,1.37282,0,0,0,73,1,REAL,FAKE,,,,,,,,,,,,,,,,,,,,,
,,,,,,,5fb9689421064d7ff5f5243e,605b45a4d25f287719a41696,605b95c6ddc40c8684b77381,United States,Midwest,13 or older,no,2021-03-24_15h42.33.541,empathy_intonation_perc,2020.2.10,Win32,60,,,,,,,,,,0,,,,,,,,,,,,,,,,,,,,,,,,,,,,,,,,,,,,,,,,29,decar,,,1,0,1.32216,0,1,1,28,1,REAL,FAKE,,,,,,,,,,,,,,,,,,,,,
,,,,,,,5fb9689421064d7ff5f5243e,605b45a4d25f287719a41696,605b95c6ddc40c8684b77381,United States,Midwest,13 or older,no,2021-03-24_15h42.33.541,empathy_intonation_perc,2020.2.10,Win32,60,,,,,,,,,,0,,,,,,,,,,,,,,,,,,,,,,,,,,,,,,,,,,,,,,,,23,lampera,,,1,0,1.06652,0,2,2,22,1,REAL,FAKE,,,,,,,,,,,,,,,,,,,,,
,,,,,,,5fb9689421064d7ff5f5243e,605b45a4d25f287719a41696,605b95c6ddc40c8684b77381,United States,Midwest,13 or older,no,2021-03-24_15h42.33.541,empathy_intonation_perc,2020.2.10,Win32,60,,,,,,,,,,1,,,,,,,,,,,,,,,,,,,,,,,,,,,,,,,,,,,,,,,,54,fomentar,,,0,0,1.074265,0,3,3,53,1,REAL,FAKE,,,,,,,,,,,,,,,,,,,,,
,,,,,,,5fb9689421064d7ff5f5243e,605b45a4d25f287719a41696,605b95c6ddc40c8684b77381,United States,Midwest,13 or older,no,2021-03-24_15h42.33.541,empathy_intonation_perc,2020.2.10,Win32,60,,,,,,,,,,0,,,,,,,,,,,,,,,,,,,,,,,,,,,,,,,,,,,,,,,,66,hacido,,,0,1,1.20645,0,4,4,65,1,REAL,FAKE,,,,,,,,,,,,,,,,,,,,,
,,,,,,,5fb9689421064d7ff5f5243e,605b45a4d25f287719a41696,605b95c6ddc40c8684b77381,United States,Midwest,13 or older,no,2021-03-24_15h42.33.541,empathy_intonation_perc,2020.2.10,Win32,60,,,,,,,,,,1,,,,,,,,,,,,,,,,,,,,,,,,,,,,,,,,,,,,,,,,80,hormiga,,,0,0,0.82509,0,5,5,79,1,REAL,FAKE,,,,,,,,,,,,,,,,,,,,,
,,,,,,,5fb9689421064d7ff5f5243e,605b45a4d25f287719a41696,605b95c6ddc40c8684b77381,United States,Midwest,13 or older,no,2021-03-24_15h42.33.541,empathy_intonation_perc,2020.2.10,Win32,60,,,,,,,,,,1,,,,,,,,,,,,,,,,,,,,,,,,,,,,,,,,,,,,,,,,48,ladrn,,,1,1,1.69871,0,6,6,47,1,REAL,FAKE,,,,,,,,,,,,,,,,,,,,,
,,,,,,,5fb9689421064d7ff5f5243e,605b45a4d25f287719a41696,605b95c6ddc40c8684b77381,United States,Midwest,13 or older,no,2021-03-24_15h42.33.541,empathy_intonation_perc,2020.2.10,Win32,60,,,,,,,,,,1,,,,,,,,,,,,,,,,,,,,,,,,,,,,,,,,,,,,,,,,60,matar,,,1,1,0.90321,0,7,7,59,1,REAL,FAKE,,,,,,,,,,,,,,,,,,,,,
,,,,,,,5fb9689421064d7ff5f5243e,605b45a4d25f287719a41696,605b95c6ddc40c8684b77381,United States,Midwest,13 or older,no,2021-03-24_15h42.33.541,empathy_intonation_perc,2020.2.10,Win32,60,,,,,,,,,,1,,,,,,,,,,,,,,,,,,,,,,,,,,,,,,,,,,,,,,,,64,orgulloso,,,0,0,1.02171,0,8,8,63,1,REAL,FAKE,,,,,,,,,,,,,,,,,,,,,
,,,,,,,5fb9689421064d7ff5f5243e,605b45a4d25f287719a41696,605b95c6ddc40c8684b77381,United States,Midwest,13 or older,no,2021-03-24_15h42.33.541,empathy_intonation_perc,2020.2.10,Win32,60,,,,,,,,,,1,,,,,,,,,,,,,,,,,,,,,,,,,,,,,,,,,,,,,,,,49,ganar,,,1,1,0.78467,0,9,9,48,1,REAL,FAKE,,,,,,,,,,,,,,,,,,,,,
,,,,,,,5fb9689421064d7ff5f5243e,605b45a4d25f287719a41696,605b95c6ddc40c8684b77381,United States,Midwest,13 or older,no,2021-03-24_15h42.33.541,empathy_intonation_perc,2020.2.10,Win32,60,,,,,,,,,,1,,,,,,,,,,,,,,,,,,,,,,,,,,,,,,,,,,,,,,,,15,regar,,,1,1,0.83297,0,10,10,14,1,REAL,FAKE,,,,,,,,,,,,,,,,,,,,,
,,,,,,,5fb9689421064d7ff5f5243e,605b45a4d25f287719a41696,605b95c6ddc40c8684b77381,United States,Midwest,13 or older,no,2021-03-24_15h42.33.541,empathy_intonation_perc,2020.2.10,Win32,60,,,,,,,,,,1,,,,,,,,,,,,,,,,,,,,,,,,,,,,,,,,,,,,,,,,26,secuestro,,,1,1,2.33314,0,11,11,25,1,REAL,FAKE,,,,,,,,,,,,,,,,,,,,,
,,,,,,,5fb9689421064d7ff5f5243e,605b45a4d25f287719a41696,605b95c6ddc40c8684b77381,United States,Midwest,13 or older,no,2021-03-24_15h42.33.541,empathy_intonation_perc,2020.2.10,Win32,60,,,,,,,,,,1,,,,,,,,,,,,,,,,,,,,,,,,,,,,,,,,,,,,,,,,46,martillo,,,1,1,0.98444,0,12,12,45,1,REAL,FAKE,,,,,,,,,,,,,,,,,,,,,
,,,,,,,5fb9689421064d7ff5f5243e,605b45a4d25f287719a41696,605b95c6ddc40c8684b77381,United States,Midwest,13 or older,no,2021-03-24_15h42.33.541,empathy_intonation_perc,2020.2.10,Win32,60,,,,,,,,,,1,,,,,,,,,,,,,,,,,,,,,,,,,,,,,,,,,,,,,,,,52,camisa,,,1,1,0.94216,0,13,13,51,1,REAL,FAKE,,,,,,,,,,,,,,,,,,,,,
,,,,,,,5fb9689421064d7ff5f5243e,605b45a4d25f287719a41696,605b95c6ddc40c8684b77381,United States,Midwest,13 or older,no,2021-03-24_15h42.33.541,empathy_intonation_perc,2020.2.10,Win32,60,,,,,,,,,,1,,,,,,,,,,,,,,,,,,,,,,,,,,,,,,,,,,,,,,,,3,pulmones,,,0,0,1.1671,0,14,14,2,1,REAL,FAKE,,,,,,,,,,,,,,,,,,,,,
,,,,,,,5fb9689421064d7ff5f5243e,605b45a4d25f287719a41696,605b95c6ddc40c8684b77381,United States,Midwest,13 or older,no,2021-03-24_15h42.33.541,empathy_intonation_perc,2020.2.10,Win32,60,,,,,,,,,,0,,,,,,,,,,,,,,,,,,,,,,,,,,,,,,,,,,,,,,,,84,escuto,,,0,1,0.88369,0,15,15,83,1,REAL,FAKE,,,,,,,,,,,,,,,,,,,,,
,,,,,,,5fb9689421064d7ff5f5243e,605b45a4d25f287719a41696,605b95c6ddc40c8684b77381,United States,Midwest,13 or older,no,2021-03-24_15h42.33.541,empathy_intonation_perc,2020.2.10,Win32,60,,,,,,,,,,0,,,,,,,,,,,,,,,,,,,,,,,,,,,,,,,,,,,,,,,,58,plaudir,,,0,1,1.24894,0,16,16,57,1,REAL,FAKE,,,,,,,,,,,,,,,,,,,,,
,,,,,,,5fb9689421064d7ff5f5243e,605b45a4d25f287719a41696,605b95c6ddc40c8684b77381,United States,Midwest,13 or older,no,2021-03-24_15h42.33.541,empathy_intonation_perc,2020.2.10,Win32,60,,,,,,,,,,0,,,,,,,,,,,,,,,,,,,,,,,,,,,,,,,,,,,,,,,,70,temblo,,,1,0,1.65094,0,17,17,69,1,REAL,FAKE,,,,,,,,,,,,,,,,,,,,,
,,,,,,,5fb9689421064d7ff5f5243e,605b45a4d25f287719a41696,605b95c6ddc40c8684b77381,United States,Midwest,13 or older,no,2021-03-24_15h42.33.541,empathy_intonation_perc,2020.2.10,Win32,60,,,,,,,,,,0,,,,,,,,,,,,,,,,,,,,,,,,,,,,,,,,,,,,,,,,82,empirador,,,0,1,1.45391,0,18,18,81,1,REAL,FAKE,,,,,,,,,,,,,,,,,,,,,
,,,,,,,5fb9689421064d7ff5f5243e,605b45a4d25f287719a41696,605b95c6ddc40c8684b77381,United States,Midwest,13 or older,no,2021-03-24_15h42.33.541,empathy_intonation_perc,2020.2.10,Win32,60,,,,,,,,,,1,,,,,,,,,,,,,,,,,,,,,,,,,,,,,,,,,,,,,,,,85,lad,,,0,0,2.01694,0,19,19,84,1,REAL,FAKE,,,,,,,,,,,,,,,,,,,,,
,,,,,,,5fb9689421064d7ff5f5243e,605b45a4d25f287719a41696,605b95c6ddc40c8684b77381,United States,Midwest,13 or older,no,2021-03-24_15h42.33.541,empathy_intonation_perc,2020.2.10,Win32,60,,,,,,,,,,0,,,,,,,,,,,,,,,,,,,,,,,,,,,,,,,,,,,,,,,,4,batilln,,,1,0,1.03936,0,20,20,3,1,REAL,FAKE,,,,,,,,,,,,,,,,,,,,,
,,,,,,,5fb9689421064d7ff5f5243e,605b45a4d25f287719a41696,605b95c6ddc40c8684b77381,United States,Midwest,13 or older,no,2021-03-24_15h42.33.541,empathy_intonation_perc,2020.2.10,Win32,60,,,,,,,,,,1,,,,,,,,,,,,,,,,,,,,,,,,,,,,,,,,,,,,,,,,7,psimo,,,1,1,0.873375,0,21,21,6,1,REAL,FAKE,,,,,,,,,,,,,,,,,,,,,
,,,,,,,5fb9689421064d7ff5f5243e,605b45a4d25f287719a41696,605b95c6ddc40c8684b77381,United States,Midwest,13 or older,no,2021-03-24_15h42.33.541,empathy_intonation_perc,2020.2.10,Win32,60,,,,,,,,,,1,,,,,,,,,,,,,,,,,,,,,,,,,,,,,,,,,,,,,,,,59,besar,,,1,1,0.75825,0,22,22,58,1,REAL,FAKE,,,,,,,,,,,,,,,,,,,,,
,,,,,,,5fb9689421064d7ff5f5243e,605b45a4d25f287719a41696,605b95c6ddc40c8684b77381,United States,Midwest,13 or older,no,2021-03-24_15h42.33.541,empathy_intonation_perc,2020.2.10,Win32,60,,,,,,,,,,0,,,,,,,,,,,,,,,,,,,,,,,,,,,,,,,,,,,,,,,,63,esposante,,,0,1,1.282325,0,23,23,62,1,REAL,FAKE,,,,,,,,,,,,,,,,,,,,,
,,,,,,,5fb9689421064d7ff5f5243e,605b45a4d25f287719a41696,605b95c6ddc40c8684b77381,United States,Midwest,13 or older,no,2021-03-24_15h42.33.541,empathy_intonation_perc,2020.2.10,Win32,60,,,,,,,,,,1,,,,,,,,,,,,,,,,,,,,,,,,,,,,,,,,,,,,,,,,43,canela,,,1,1,1.78373,0,24,24,42,1,REAL,FAKE,,,,,,,,,,,,,,,,,,,,,
,,,,,,,5fb9689421064d7ff5f5243e,605b45a4d25f287719a41696,605b95c6ddc40c8684b77381,United States,Midwest,13 or older,no,2021-03-24_15h42.33.541,empathy_intonation_perc,2020.2.10,Win32,60,,,,,,,,,,1,,,,,,,,,,,,,,,,,,,,,,,,,,,,,,,,,,,,,,,,86,barato,,,1,1,0.85268,0,25,25,85,1,REAL,FAKE,,,,,,,,,,,,,,,,,,,,,
,,,,,,,5fb9689421064d7ff5f5243e,605b45a4d25f287719a41696,605b95c6ddc40c8684b77381,United States,Midwest,13 or older,no,2021-03-24_15h42.33.541,empathy_intonation_perc,2020.2.10,Win32,60,,,,,,,,,,0,,,,,,,,,,,,,,,,,,,,,,,,,,,,,,,,,,,,,,,,10,antar,,,1,0,1.099355,0,26,26,9,1,REAL,FAKE,,,,,,,,,,,,,,,,,,,,,
,,,,,,,5fb9689421064d7ff5f5243e,605b45a4d25f287719a41696,605b95c6ddc40c8684b77381,United States,Midwest,13 or older,no,2021-03-24_15h42.33.541,empathy_intonation_perc,2020.2.10,Win32,60,,,,,,,,,,1,,,,,,,,,,,,,,,,,,,,,,,,,,,,,,,,,,,,,,,,89,prisa,,,1,1,0.86634,0,27,27,88,1,REAL,FAKE,,,,,,,,,,,,,,,,,,,,,
,,,,,,,5fb9689421064d7ff5f5243e,605b45a4d25f287719a41696,605b95c6ddc40c8684b77381,United States,Midwest,13 or older,no,2021-03-24_15h42.33.541,empathy_intonation_perc,2020.2.10,Win32,60,,,,,,,,,,1,,,,,,,,,,,,,,,,,,,,,,,,,,,,,,,,,,,,,,,,14,yunque,,,0,0,0.665785,0,28,28,13,1,REAL,FAKE,,,,,,,,,,,,,,,,,,,,,
,,,,,,,5fb9689421064d7ff5f5243e,605b45a4d25f287719a41696,605b95c6ddc40c8684b77381,United States,Midwest,13 or older,no,2021-03-24_15h42.33.541,empathy_intonation_perc,2020.2.10,Win32,60,,,,,,,,,,1,,,,,,,,,,,,,,,,,,,,,,,,,,,,,,,,,,,,,,,,75,yacer,,,0,0,0.857615,0,29,29,74,1,REAL,FAKE,,,,,,,,,,,,,,,,,,,,,
,,,,,,,5fb9689421064d7ff5f5243e,605b45a4d25f287719a41696,605b95c6ddc40c8684b77381,United States,Midwest,13 or older,no,2021-03-24_15h42.33.541,empathy_intonation_perc,2020.2.10,Win32,60,,,,,,,,,,1,,,,,,,,,,,,,,,,,,,,,,,,,,,,,,,,,,,,,,,,57,tacao,,,0,0,2.081355,0,30,30,56,1,REAL,FAKE,,,,,,,,,,,,,,,,,,,,,
,,,,,,,5fb9689421064d7ff5f5243e,605b45a4d25f287719a41696,605b95c6ddc40c8684b77381,United States,Midwest,13 or older,no,2021-03-24_15h42.33.541,empathy_intonation_perc,2020.2.10,Win32,60,,,,,,,,,,1,,,,,,,,,,,,,,,,,,,,,,,,,,,,,,,,,,,,,,,,34,aviso,,,0,0,0.74901,0,31,31,33,1,REAL,FAKE,,,,,,,,,,,,,,,,,,,,,
,,,,,,,5fb9689421064d7ff5f5243e,605b45a4d25f287719a41696,605b95c6ddc40c8684b77381,United States,Midwest,13 or older,no,2021-03-24_15h42.33.541,empathy_intonation_perc,2020.2.10,Win32,60,,,,,,,,,,1,,,,,,,,,,,,,,,,,,,,,,,,,,,,,,,,,,,,,,,,68,alegre,,,1,1,0.774825,0,32,32,67,1,REAL,FAKE,,,,,,,,,,,,,,,,,,,,,
,,,,,,,5fb9689421064d7ff5f5243e,605b45a4d25f287719a41696,605b95c6ddc40c8684b77381,United States,Midwest,13 or older,no,2021-03-24_15h42.33.541,empathy_intonation_perc,2020.2.10,Win32,60,,,,,,,,,,1,,,,,,,,,,,,,,,,,,,,,,,,,,,,,,,,,,,,,,,,6,tergiversar,,,0,0,0.85024,0,33,33,5,1,REAL,FAKE,,,,,,,,,,,,,,,,,,,,,
,,,,,,,5fb9689421064d7ff5f5243e,605b45a4d25f287719a41696,605b95c6ddc40c8684b77381,United States,Midwest,13 or older,no,2021-03-24_15h42.33.541,empathy_intonation_perc,2020.2.10,Win32,60,,,,,,,,,,0,,,,,,,,,,,,,,,,,,,,,,,,,,,,,,,,,,,,,,,,8,cadea,,,1,0,1.320635,0,34,34,7,1,REAL,FAKE,,,,,,,,,,,,,,,,,,,,,
,,,,,,,5fb9689421064d7ff5f5243e,605b45a4d25f287719a41696,605b95c6ddc40c8684b77381,United States,Midwest,13 or older,no,2021-03-24_15h42.33.541,empathy_intonation_perc,2020.2.10,Win32,60,,,,,,,,,,0,,,,,,,,,,,,,,,,,,,,,,,,,,,,,,,,,,,,,,,,27,acutacin,,,0,1,1.93253,0,35,35,26,1,REAL,FAKE,,,,,,,,,,,,,,,,,,,,,
,,,,,,,5fb9689421064d7ff5f5243e,605b45a4d25f287719a41696,605b95c6ddc40c8684b77381,United States,Midwest,13 or older,no,2021-03-24_15h42.33.541,empathy_intonation_perc,2020.2.10,Win32,60,,,,,,,,,,1,,,,,,,,,,,,,,,,,,,,,,,,,,,,,,,,,,,,,,,,37,granuja,,,0,0,1.53028,0,36,36,36,1,REAL,FAKE,,,,,,,,,,,,,,,,,,,,,
,,,,,,,5fb9689421064d7ff5f5243e,605b45a4d25f287719a41696,605b95c6ddc40c8684b77381,United States,Midwest,13 or older,no,2021-03-24_15h42.33.541,empathy_intonation_perc,2020.2.10,Win32,60,,,,,,,,,,1,,,,,,,,,,,,,,,,,,,,,,,,,,,,,,,,,,,,,,,,61,seda,,,1,1,1.099655,0,37,37,60,1,REAL,FAKE,,,,,,,,,,,,,,,,,,,,,
,,,,,,,5fb9689421064d7ff5f5243e,605b45a4d25f287719a41696,605b95c6ddc40c8684b77381,United States,Midwest,13 or older,no,2021-03-24_15h42.33.541,empathy_intonation_perc,2020.2.10,Win32,60,,,,,,,,,,1,,,,,,,,,,,,,,,,,,,,,,,,,,,,,,,,,,,,,,,,51,candado,,,1,1,0.96547,0,38,38,50,1,REAL,FAKE,,,,,,,,,,,,,,,,,,,,,
,,,,,,,5fb9689421064d7ff5f5243e,605b45a4d25f287719a41696,605b95c6ddc40c8684b77381,United States,Midwest,13 or older,no,2021-03-24_15h42.33.541,empathy_intonation_perc,2020.2.10,Win32,60,,,,,,,,,,0,,,,,,,,,,,,,,,,,,,,,,,,,,,,,,,,,,,,,,,,53,vegada,,,1,0,1.27838,0,39,39,52,1,REAL,FAKE,,,,,,,,,,,,,,,,,,,,,
,,,,,,,5fb9689421064d7ff5f5243e,605b45a4d25f287719a41696,605b95c6ddc40c8684b77381,United States,Midwest,13 or older,no,2021-03-24_15h42.33.541,empathy_intonation_perc,2020.2.10,Win32,60,,,,,,,,,,0,,,,,,,,,,,,,,,,,,,,,,,,,,,,,,,,,,,,,,,,33,pauca,,,0,1,1.09809,0,40,40,32,1,REAL,FAKE,,,,,,,,,,,,,,,,,,,,,
,,,,,,,5fb9689421064d7ff5f5243e,605b45a4d25f287719a41696,605b95c6ddc40c8684b77381,United States,Midwest,13 or older,no,2021-03-24_15h42.33.541,empathy_intonation_perc,2020.2.10,Win32,60,,,,,,,,,,1,,,,,,,,,,,,,,,,,,,,,,,,,,,,,,,,,,,,,,,,88,acantilado,,,0,0,1.3207,0,41,41,87,1,REAL,FAKE,,,,,,,,,,,,,,,,,,,,,
,,,,,,,5fb9689421064d7ff5f5243e,605b45a4d25f287719a41696,605b95c6ddc40c8684b77381,United States,Midwest,13 or older,no,2021-03-24_15h42.33.541,empathy_intonation_perc,2020.2.10,Win32,60,,,,,,,,,,0,,,,,,,,,,,,,,,,,,,,,,,,,,,,,,,,,,,,,,,,32,fatacidad,,,0,1,3.66333,0,42,42,31,1,REAL,FAKE,,,,,,,,,,,,,,,,,,,,,
,,,,,,,5fb9689421064d7ff5f5243e,605b45a4d25f287719a41696,605b95c6ddc40c8684b77381,United States,Midwest,13 or older,no,2021-03-24_15h42.33.541,empathy_intonation_perc,2020.2.10,Win32,60,,,,,,,,,,1,,,,,,,,,,,,,,,,,,,,,,,,,,,,,,,,,,,,,,,,62,flaco,,,1,1,1.08922,0,43,43,61,1,REAL,FAKE,,,,,,,,,,,,,,,,,,,,,
,,,,,,,5fb9689421064d7ff5f5243e,605b45a4d25f287719a41696,605b95c6ddc40c8684b77381,United States,Midwest,13 or older,no,2021-03-24_15h42.33.541,empathy_intonation_perc,2020.2.10,Win32,60,,,,,,,,,,1,,,,,,,,,,,,,,,,,,,,,,,,,,,,,,,,,,,,,,,,5,zapato,,,1,1,0.915215,0,44,44,4,1,REAL,FAKE,,,,,,,,,,,,,,,,,,,,,
,,,,,,,5fb9689421064d7ff5f5243e,605b45a4d25f287719a41696,605b95c6ddc40c8684b77381,United States,Midwest,13 or older,no,2021-03-24_15h42.33.541,empathy_intonation_perc,2020.2.10,Win32,60,,,,,,,,,,1,,,,,,,,,,,,,,,,,,,,,,,,,,,,,,,,,,,,,,,,12,asesinato,,,0,0,0.93488,0,45,45,11,1,REAL,FAKE,,,,,,,,,,,,,,,,,,,,,
,,,,,,,5fb9689421064d7ff5f5243e,605b45a4d25f287719a41696,605b95c6ddc40c8684b77381,United States,Midwest,13 or older,no,2021-03-24_15h42.33.541,empathy_intonation_perc,2020.2.10,Win32,60,,,,,,,,,,1,,,,,,,,,,,,,,,,,,,,,,,,,,,,,,,,,,,,,,,,65,bizcocho,,,0,0,0.901065,0,46,46,64,1,REAL,FAKE,,,,,,,,,,,,,,,,,,,,,
,,,,,,,5fb9689421064d7ff5f5243e,605b45a4d25f287719a41696,605b95c6ddc40c8684b77381,United States,Midwest,13 or older,no,2021-03-24_15h42.33.541,empathy_intonation_perc,2020.2.10,Win32,60,,,,,,,,,,1,,,,,,,,,,,,,,,,,,,,,,,,,,,,,,,,,,,,,,,,24,ltigo,,,0,0,1.877975,0,47,47,23,1,REAL,FAKE,,,,,,,,,,,,,,,,,,,,,
,,,,,,,5fb9689421064d7ff5f5243e,605b45a4d25f287719a41696,605b95c6ddc40c8684b77381,United States,Midwest,13 or older,no,2021-03-24_15h42.33.541,empathy_intonation_perc,2020.2.10,Win32,60,,,,,,,,,,1,,,,,,,,,,,,,,,,,,,,,,,,,,,,,,,,,,,,,,,,73,hervidor,,,0,0,1.149335,0,48,48,72,1,REAL,FAKE,,,,,,,,,,,,,,,,,,,,,
,,,,,,,5fb9689421064d7ff5f5243e,605b45a4d25f287719a41696,605b95c6ddc40c8684b77381,United States,Midwest,13 or older,no,2021-03-24_15h42.33.541,empathy_intonation_perc,2020.2.10,Win32,60,,,,,,,,,,1,,,,,,,,,,,,,,,,,,,,,,,,,,,,,,,,,,,,,,,,40,alfombra,,,1,1,1.60907,0,49,49,39,1,REAL,FAKE,,,,,,,,,,,,,,,,,,,,,
,,,,,,,5fb9689421064d7ff5f5243e,605b45a4d25f287719a41696,605b95c6ddc40c8684b77381,United States,Midwest,13 or older,no,2021-03-24_15h42.33.541,empathy_intonation_perc,2020.2.10,Win32,60,,,,,,,,,,1,,,,,,,,,,,,,,,,,,,,,,,,,,,,,,,,,,,,,,,,81,pozo,,,1,1,0.717925,0,50,50,80,1,REAL,FAKE,,,,,,,,,,,,,,,,,,,,,
,,,,,,,5fb9689421064d7ff5f5243e,605b45a4d25f287719a41696,605b95c6ddc40c8684b77381,United States,Midwest,13 or older,no,2021-03-24_15h42.33.541,empathy_intonation_perc,2020.2.10,Win32,60,,,,,,,,,,1,,,,,,,,,,,,,,,,,,,,,,,,,,,,,,,,,,,,,,,,78,frondoso,,,0,0,1.215275,0,51,51,77,1,REAL,FAKE,,,,,,,,,,,,,,,,,,,,,
,,,,,,,5fb9689421064d7ff5f5243e,605b45a4d25f287719a41696,605b95c6ddc40c8684b77381,United States,Midwest,13 or older,no,2021-03-24_15h42.33.541,empathy_intonation_perc,2020.2.10,Win32,60,,,,,,,,,,1,,,,,,,,,,,,,,,,,,,,,,,,,,,,,,,,,,,,,,,,90,clavel,,,0,0,0.8668,0,52,52,89,1,REAL,FAKE,,,,,,,,,,,,,,,,,,,,,
,,,,,,,5fb9689421064d7ff5f5243e,605b45a4d25f287719a41696,605b95c6ddc40c8684b77381,United States,Midwest,13 or older,no,2021-03-24_15h42.33.541,empathy_intonation_perc,2020.2.10,Win32,60,,,,,,,,,,1,,,,,,,,,,,,,,,,,,,,,,,,,,,,,,,,,,,,,,,,11,cenefa,,,0,0,0.681875,0,53,53,10,1,REAL,FAKE,,,,,,,,,,,,,,,,,,,,,
,,,,,,,5fb9689421064d7ff5f5243e,605b45a4d25f287719a41696,605b95c6ddc40c8684b77381,United States,Midwest,13 or older,no,2021-03-24_15h42.33.541,empathy_intonation_perc,2020.2.10,Win32,60,,,,,,,,,,0,,,,,,,,,,,,,,,,,,,,,,,,,,,,,,,,,,,,,,,,79,tropaje,,,0,1,0.76646,0,54,54,78,1,REAL,FAKE,,,,,,,,,,,,,,,,,,,,,
,,,,,,,5fb9689421064d7ff5f5243e,605b45a4d25f287719a41696,605b95c6ddc40c8684b77381,United States,Midwest,13 or older,no,2021-03-24_15h42.33.541,empathy_intonation_perc,2020.2.10,Win32,60,,,,,,,,,,1,,,,,,,,,,,,,,,,,,,,,,,,,,,,,,,,,,,,,,,,31,pandilla,,,1,1,0.70286,0,55,55,30,1,REAL,FAKE,,,,,,,,,,,,,,,,,,,,,
,,,,,,,5fb9689421064d7ff5f5243e,605b45a4d25f287719a41696,605b95c6ddc40c8684b77381,United States,Midwest,13 or older,no,2021-03-24_15h42.33.541,empathy_intonation_perc,2020.2.10,Win32,60,,,,,,,,,,1,,,,,,,,,,,,,,,,,,,,,,,,,,,,,,,,,,,,,,,,22,lacayo,,,0,0,0.80674,0,56,56,21,1,REAL,FAKE,,,,,,,,,,,,,,,,,,,,,
,,,,,,,5fb9689421064d7ff5f5243e,605b45a4d25f287719a41696,605b95c6ddc40c8684b77381,United States,Midwest,13 or older,no,2021-03-24_15h42.33.541,empathy_intonation_perc,2020.2.10,Win32,60,,,,,,,,,,1,,,,,,,,,,,,,,,,,,,,,,,,,,,,,,,,,,,,,,,,55,nevar,,,0,0,1.11792,0,57,57,54,1,REAL,FAKE,,,,,,,,,,,,,,,,,,,,,
,,,,,,,5fb9689421064d7ff5f5243e,605b45a4d25f287719a41696,605b95c6ddc40c8684b77381,United States,Midwest,13 or older,no,2021-03-24_15h42.33.541,empathy_intonation_perc,2020.2.10,Win32,60,,,,,,,,,,1,,,,,,,,,,,,,,,,,,,,,,,,,,,,,,,,,,,,,,,,67,cabello,,,1,1,0.766645,0,58,58,66,1,REAL,FAKE,,,,,,,,,,,,,,,,,,,,,
,,,,,,,5fb9689421064d7ff5f5243e,605b45a4d25f287719a41696,605b95c6ddc40c8684b77381,United States,Midwest,13 or older,no,2021-03-24_15h42.33.541,empathy_intonation_perc,2020.2.10,Win32,60,,,,,,,,,,0,,,,,,,,,,,,,,,,,,,,,,,,,,,,,,,,,,,,,,,,35,rompido,,,1,0,0.98217,0,59,59,34,1,REAL,FAKE,,,,,,,,,,,,,,,,,,,,,
,,,,,,,5fb9689421064d7ff5f5243e,605b45a4d25f287719a41696,605b95c6ddc40c8684b77381,United States,Midwest,13 or older,no,2021-03-24_15h42.33.541,empathy_intonation_perc,2020.2.10,Win32,60,,,,,,,,,,0,,,,,,,,,,,,,,,,,,,,,,,,,,,,,,,,,,,,,,,,72,pemicin,,,0,1,1.084685,0,60,60,71,1,REAL,FAKE,,,,,,,,,,,,,,,,,,,,,
,,,,,,,5fb9689421064d7ff5f5243e,605b45a4d25f287719a41696,605b95c6ddc40c8684b77381,United States,Midwest,13 or older,no,2021-03-24_15h42.33.541,empathy_intonation_perc,2020.2.10,Win32,60,,,,,,,,,,0,,,,,,,,,,,,,,,,,,,,,,,,,,,,,,,,,,,,,,,,50,flamida,,,1,0,0.72637,0,61,61,49,1,REAL,FAKE,,,,,,,,,,,,,,,,,,,,,
,,,,,,,5fb9689421064d7ff5f5243e,605b45a4d25f287719a41696,605b95c6ddc40c8684b77381,United States,Midwest,13 or older,no,2021-03-24_15h42.33.541,empathy_intonation_perc,2020.2.10,Win32,60,,,,,,,,,,0,,,,,,,,,,,,,,,,,,,,,,,,,,,,,,,,,,,,,,,,42,cadallo,,,1,0,1.00088,0,62,62,41,1,REAL,FAKE,,,,,,,,,,,,,,,,,,,,,
,,,,,,,5fb9689421064d7ff5f5243e,605b45a4d25f287719a41696,605b95c6ddc40c8684b77381,United States,Midwest,13 or older,no,2021-03-24_15h42.33.541,empathy_intonation_perc,2020.2.10,Win32,60,,,,,,,,,,0,,,,,,,,,,,,,,,,,,,,,,,,,,,,,,,,,,,,,,,,17,floroso,,,1,0,0.989495,0,63,63,16,1,REAL,FAKE,,,,,,,,,,,,,,,,,,,,,
,,,,,,,5fb9689421064d7ff5f5243e,605b45a4d25f287719a41696,605b95c6ddc40c8684b77381,United States,Midwest,13 or older,no,2021-03-24_15h42.33.541,empathy_intonation_perc,2020.2.10,Win32,60,,,,,,,,,,1,,,,,,,,,,,,,,,,,,,,,,,,,,,,,,,,,,,,,,,,13,helar,,,0,0,0.847065,0,64,64,12,1,REAL,FAKE,,,,,,,,,,,,,,,,,,,,,
,,,,,,,5fb9689421064d7ff5f5243e,605b45a4d25f287719a41696,605b95c6ddc40c8684b77381,United States,Midwest,13 or older,no,2021-03-24_15h42.33.541,empathy_intonation_perc,2020.2.10,Win32,60,,,,,,,,,,1,,,,,,,,,,,,,,,,,,,,,,,,,,,,,,,,,,,,,,,,76,atar,,,0,0,0.92092,0,65,65,75,1,REAL,FAKE,,,,,,,,,,,,,,,,,,,,,
,,,,,,,5fb9689421064d7ff5f5243e,605b45a4d25f287719a41696,605b95c6ddc40c8684b77381,United States,Midwest,13 or older,no,2021-03-24_15h42.33.541,empathy_intonation_perc,2020.2.10,Win32,60,,,,,,,,,,1,,,,,,,,,,,,,,,,,,,,,,,,,,,,,,,,,,,,,,,,39,torpe,,,1,1,0.87426,0,66,66,38,1,REAL,FAKE,,,,,,,,,,,,,,,,,,,,,
,,,,,,,5fb9689421064d7ff5f5243e,605b45a4d25f287719a41696,605b95c6ddc40c8684b77381,United States,Midwest,13 or older,no,2021-03-24_15h42.33.541,empathy_intonation_perc,2020.2.10,Win32,60,,,,,,,,,,1,,,,,,,,,,,,,,,,,,,,,,,,,,,,,,,,,,,,,,,,38,estornudar,,,0,0,0.78275,0,67,67,37,1,REAL,FAKE,,,,,,,,,,,,,,,,,,,,,
,,,,,,,5fb9689421064d7ff5f5243e,605b45a4d25f287719a41696,605b95c6ddc40c8684b77381,United States,Midwest,13 or older,no,2021-03-24_15h42.33.541,empathy_intonation_perc,2020.2.10,Win32,60,,,,,,,,,,1,,,,,,,,,,,,,,,,,,,,,,,,,,,,,,,,,,,,,,,,71,polvoriento,,,0,0,0.85079,0,68,68,70,1,REAL,FAKE,,,,,,,,,,,,,,,,,,,,,
,,,,,,,5fb9689421064d7ff5f5243e,605b45a4d25f287719a41696,605b95c6ddc40c8684b77381,United States,Midwest,13 or older,no,2021-03-24_15h42.33.541,empathy_intonation_perc,2020.2.10,Win32,60,,,,,,,,,,1,,,,,,,,,,,,,,,,,,,,,,,,,,,,,,,,,,,,,,,,77,tiburn,,,0,0,0.847305,0,69,69,76,1,REAL,FAKE,,,,,,,,,,,,,,,,,,,,,
,,,,,,,5fb9689421064d7ff5f5243e,605b45a4d25f287719a41696,605b95c6ddc40c8684b77381,United States,Midwest,13 or older,no,2021-03-24_15h42.33.541,empathy_intonation_perc,2020.2.10,Win32,60,,,,,,,,,,1,,,,,,,,,,,,,,,,,,,,,,,,,,,,,,,,,,,,,,,,83,guante,,,1,1,1.168605,0,70,70,82,1,REAL,FAKE,,,,,,,,,,,,,,,,,,,,,
,,,,,,,5fb9689421064d7ff5f5243e,605b45a4d25f287719a41696,605b95c6ddc40c8684b77381,United States,Midwest,13 or older,no,2021-03-24_15h42.33.541,empathy_intonation_perc,2020.2.10,Win32,60,,,,,,,,,,0,,,,,,,,,,,,,,,,,,,,,,,,,,,,,,,,,,,,,,,,47,cartinar,,,0,1,0.93224,0,71,71,46,1,REAL,FAKE,,,,,,,,,,,,,,,,,,,,,
,,,,,,,5fb9689421064d7ff5f5243e,605b45a4d25f287719a41696,605b95c6ddc40c8684b77381,United States,Midwest,13 or older,no,2021-03-24_15h42.33.541,empathy_intonation_perc,2020.2.10,Win32,60,,,,,,,,,,0,,,,,,,,,,,,,,,,,,,,,,,,,,,,,,,,,,,,,,,,1,terzo,,,0,1,0.70978,0,72,72,0,1,REAL,FAKE,,,,,,,,,,,,,,,,,,,,,
,,,,,,,5fb9689421064d7ff5f5243e,605b45a4d25f287719a41696,605b95c6ddc40c8684b77381,United States,Midwest,13 or older,no,2021-03-24_15h42.33.541,empathy_intonation_perc,2020.2.10,Win32,60,,,,,,,,,,1,,,,,,,,,,,,,,,,,,,,,,,,,,,,,,,,,,,,,,,,20,vido,,,0,0,0.802125,0,73,73,19,1,REAL,FAKE,,,,,,,,,,,,,,,,,,,,,
,,,,,,,5fb9689421064d7ff5f5243e,605b45a4d25f287719a41696,605b95c6ddc40c8684b77381,United States,Midwest,13 or older,no,2021-03-24_15h42.33.541,empathy_intonation_perc,2020.2.10,Win32,60,,,,,,,,,,1,,,,,,,,,,,,,,,,,,,,,,,,,,,,,,,,,,,,,,,,56,musgo,,,0,0,0.63439,0,74,74,55,1,REAL,FAKE,,,,,,,,,,,,,,,,,,,,,
,,,,,,,5fb9689421064d7ff5f5243e,605b45a4d25f287719a41696,605b95c6ddc40c8684b77381,United States,Midwest,13 or older,no,2021-03-24_15h42.33.541,empathy_intonation_perc,2020.2.10,Win32,60,,,,,,,,,,1,,,,,,,,,,,,,,,,,,,,,,,,,,,,,,,,,,,,,,,,9,hacha,,,1,1,0.71666,0,75,75,8,1,REAL,FAKE,,,,,,,,,,,,,,,,,,,,,
,,,,,,,5fb9689421064d7ff5f5243e,605b45a4d25f287719a41696,605b95c6ddc40c8684b77381,United States,Midwest,13 or older,no,2021-03-24_15h42.33.541,empathy_intonation_perc,2020.2.10,Win32,60,,,,,,,,,,0,,,,,,,,,,,,,,,,,,,,,,,,,,,,,,,,,,,,,,,,18,arsa,,,0,1,0.967965,0,76,76,17,1,REAL,FAKE,,,,,,,,,,,,,,,,,,,,,
,,,,,,,5fb9689421064d7ff5f5243e,605b45a4d25f287719a41696,605b95c6ddc40c8684b77381,United States,Midwest,13 or older,no,2021-03-24_15h42.33.541,empathy_intonation_perc,2020.2.10,Win32,60,,,,,,,,,,0,,,,,,,,,,,,,,,,,,,,,,,,,,,,,,,,,,,,,,,,30,alardio,,,0,1,1.24914,0,77,77,29,1,REAL,FAKE,,,,,,,,,,,,,,,,,,,,,
,,,,,,,5fb9689421064d7ff5f5243e,605b45a4d25f287719a41696,605b95c6ddc40c8684b77381,United States,Midwest,13 or older,no,2021-03-24_15h42.33.541,empathy_intonation_perc,2020.2.10,Win32,60,,,,,,,,,,1,,,,,,,,,,,,,,,,,,,,,,,,,,,,,,,,,,,,,,,,45,jilguero,,,0,0,0.982325,0,78,78,44,1,REAL,FAKE,,,,,,,,,,,,,,,,,,,,,
,,,,,,,5fb9689421064d7ff5f5243e,605b45a4d25f287719a41696,605b95c6ddc40c8684b77381,United States,Midwest,13 or older,no,2021-03-24_15h42.33.541,empathy_intonation_perc,2020.2.10,Win32,60,,,,,,,,,,1,,,,,,,,,,,,,,,,,,,,,,,,,,,,,,,,,,,,,,,,2,pellizcar,,,1,1,0.759015,0,79,79,1,1,REAL,FAKE,,,,,,,,,,,,,,,,,,,,,
,,,,,,,5fb9689421064d7ff5f5243e,605b45a4d25f287719a41696,605b95c6ddc40c8684b77381,United States,Midwest,13 or older,no,2021-03-24_15h42.33.541,empathy_intonation_perc,2020.2.10,Win32,60,,,,,,,,,,1,,,,,,,,,,,,,,,,,,,,,,,,,,,,,,,,,,,,,,,,36,loro,,,1,1,1.13609,0,80,80,35,1,REAL,FAKE,,,,,,,,,,,,,,,,,,,,,
,,,,,,,5fb9689421064d7ff5f5243e,605b45a4d25f287719a41696,605b95c6ddc40c8684b77381,United States,Midwest,13 or older,no,2021-03-24_15h42.33.541,empathy_intonation_perc,2020.2.10,Win32,60,,,,,,,,,,1,,,,,,,,,,,,,,,,,,,,,,,,,,,,,,,,,,,,,,,,28,merodear,,,0,0,0.717885,0,81,81,27,1,REAL,FAKE,,,,,,,,,,,,,,,,,,,,,
,,,,,,,5fb9689421064d7ff5f5243e,605b45a4d25f287719a41696,605b95c6ddc40c8684b77381,United States,Midwest,13 or older,no,2021-03-24_15h42.33.541,empathy_intonation_perc,2020.2.10,Win32,60,,,,,,,,,,0,,,,,,,,,,,,,,,,,,,,,,,,,,,,,,,,,,,,,,,,16,abracer,,,0,1,0.732985,0,82,82,15,1,REAL,FAKE,,,,,,,,,,,,,,,,,,,,,
,,,,,,,5fb9689421064d7ff5f5243e,605b45a4d25f287719a41696,605b95c6ddc40c8684b77381,United States,Midwest,13 or older,no,2021-03-24_15h42.33.541,empathy_intonation_perc,2020.2.10,Win32,60,,,,,,,,,,1,,,,,,,,,,,,,,,,,,,,,,,,,,,,,,,,,,,,,,,,44,cuchara,,,1,1,0.972825,0,83,83,43,1,REAL,FAKE,,,,,,,,,,,,,,,,,,,,,
,,,,,,,5fb9689421064d7ff5f5243e,605b45a4d25f287719a41696,605b95c6ddc40c8684b77381,United States,Midwest,13 or older,no,2021-03-24_15h42.33.541,empathy_intonation_perc,2020.2.10,Win32,60,,,,,,,,,,0,,,,,,,,,,,,,,,,,,,,,,,,,,,,,,,,,,,,,,,,21,capillo,,,1,0,1.049155,0,84,84,20,1,REAL,FAKE,,,,,,,,,,,,,,,,,,,,,
,,,,,,,5fb9689421064d7ff5f5243e,605b45a4d25f287719a41696,605b95c6ddc40c8684b77381,United States,Midwest,13 or older,no,2021-03-24_15h42.33.541,empathy_intonation_perc,2020.2.10,Win32,60,,,,,,,,,,0,,,,,,,,,,,,,,,,,,,,,,,,,,,,,,,,,,,,,,,,19,brecedad,,,0,1,1.034085,0,85,85,18,1,REAL,FAKE,,,,,,,,,,,,,,,,,,,,,
,,,,,,,5fb9689421064d7ff5f5243e,605b45a4d25f287719a41696,605b95c6ddc40c8684b77381,United States,Midwest,13 or older,no,2021-03-24_15h42.33.541,empathy_intonation_perc,2020.2.10,Win32,60,,,,,,,,,,1,,,,,,,,,,,,,,,,,,,,,,,,,,,,,,,,,,,,,,,,25,bisagra,,,0,0,0.800635,0,86,86,24,1,REAL,FAKE,,,,,,,,,,,,,,,,,,,,,
,,,,,,,5fb9689421064d7ff5f5243e,605b45a4d25f287719a41696,605b95c6ddc40c8684b77381,United States,Midwest,13 or older,no,2021-03-24_15h42.33.541,empathy_intonation_perc,2020.2.10,Win32,60,,,,,,,,,,0,,,,,,,,,,,,,,,,,,,,,,,,,,,,,,,,,,,,,,,,87,grodo,,,0,1,1.31828,0,87,87,86,1,REAL,FAKE,,,,,,,,,,,,,,,,,,,,,
,,,,,,,5fb9689421064d7ff5f5243e,605b45a4d25f287719a41696,605b95c6ddc40c8684b77381,United States,Midwest,13 or older,no,2021-03-24_15h42.33.541,empathy_intonation_perc,2020.2.10,Win32,60,,,,,,,,,,1,,,,,,,,,,,,,,,,,,,,,,,,,,,,,,,,,,,,,,,,69,engatusar,,,0,0,0.68333,0,88,88,68,1,REAL,FAKE,,,,,,,,,,,,,,,,,,,,,
,,,,,,,5fb9689421064d7ff5f5243e,605b45a4d25f287719a41696,605b95c6ddc40c8684b77381,United States,Midwest,13 or older,no,2021-03-24_15h42.33.541,empathy_intonation_perc,2020.2.10,Win32,60,,,,,,,,,,1,,,,,,,,,,,,,,,,,,,,,,,,,,,,,,,,,,,,,,,,41,rebuscar,,,0,0,0.617825,0,89,89,40,1,REAL,FAKE,,,,,,,,,,,,,,,,,,,,,
,,,,,,,5fb9689421064d7ff5f5243e,605b45a4d25f287719a41696,605b95c6ddc40c8684b77381,United States,Midwest,13 or older,no,2021-03-24_15h42.33.541,empathy_intonation_perc,2020.2.10,Win32,60,,,,,,,,,,,,,,,,,,,,,,,,,,,,,,,,,,,,,,,,,,,,,,,,,,,,,,,,,,,,,,,,4,1,3.774315,1,1,0,0,0,0,1,,,,,,,,,,,
,,,,,,,5fb9689421064d7ff5f5243e,605b45a4d25f287719a41696,605b95c6ddc40c8684b77381,United States,Midwest,13 or older,no,2021-03-24_15h42.33.541,empathy_intonation_perc,2020.2.10,Win32,60,,,,,,,,,,,,,,,,,,,,1,,,,,,,,,,,,,,,,,,,,,,,,,,,,,,,,,,,,,,,,,,,,,,,,,,,,,,2,0,0,0,0,1,I can easily tell if someone else wants to enter a conversation.,1,0,1,0
,,,,,,,5fb9689421064d7ff5f5243e,605b45a4d25f287719a41696,605b95c6ddc40c8684b77381,United States,Midwest,13 or older,no,2021-03-24_15h42.33.541,empathy_intonation_perc,2020.2.10,Win32,60,,,,,,,,,,,,,,,,,,,,2,,,,,,,,,,,,,,,,,,,,,,,,,,,,,,,,,,,,,,,,,,,,,,,,,,,,,,1,0,1,1,1,1,I prefer animals to humans.,0,1,0,0
,,,,,,,5fb9689421064d7ff5f5243e,605b45a4d25f287719a41696,605b95c6ddc40c8684b77381,United States,Midwest,13 or older,no,2021-03-24_15h42.33.541,empathy_intonation_perc,2020.2.10,Win32,60,,,,,,,,,,,,,,,,,,,,3,,,,,,,,,,,,,,,,,,,,,,,,,,,,,,,,,,,,,,,,,,,,,,,,,,,,,,3,0,2,2,2,1,I try to keep up with the current trends and fashions.,0,1,0,0
,,,,,,,5fb9689421064d7ff5f5243e,605b45a4d25f287719a41696,605b95c6ddc40c8684b77381,United States,Midwest,13 or older,no,2021-03-24_15h42.33.541,empathy_intonation_perc,2020.2.10,Win32,60,,,,,,,,,,,,,,,,,,,,4,,,,,,,,,,,,,,,,,,,,,,,,,,,,,,,,,,,,,,,,,,,,,,,,,,,,,,3,0,3,3,3,1,"I find it difficult to explain to others things that I understand easily, 
  when they dont understand it first time.",1,0,0,1
,,,,,,,5fb9689421064d7ff5f5243e,605b45a4d25f287719a41696,605b95c6ddc40c8684b77381,United States,Midwest,13 or older,no,2021-03-24_15h42.33.541,empathy_intonation_perc,2020.2.10,Win32,60,,,,,,,,,,,,,,,,,,,,5,,,,,,,,,,,,,,,,,,,,,,,,,,,,,,,,,,,,,,,,,,,,,,,,,,,,,,4,0,4,4,4,1,I dream most nights.,0,1,0,0
