instructions_2afc_loop.thisRepN,instructions_2afc_loop.thisTrialN,instructions_2afc_loop.thisN,instructions_2afc_loop.thisIndex,instructions_2afc_loop.ran,instructions_text,continue_text,participant,study_id,session,I am most familiar with Spanish from...*,What part of the US are you from?*,At what age did you begin learning Spanish?*,Are you proficient in any languages other than English/Spanish?*,date,expName,psychopyVersion,OS,frameRate,key_resp_2afc_practice.keys,key_resp_2afc_practice.corr,key_resp_2afc_practice.rt,trials_2afc_practice_loop.thisRepN,trials_2afc_practice_loop.thisTrialN,trials_2afc_practice_loop.thisN,trials_2afc_practice_loop.thisIndex,trials_2afc_practice_loop.ran,path,correct_response,the_col,key_resp_2afc_trial.keys,key_resp_2afc_trial.corr,key_resp_2afc_trial.rt,trials_2afc_loop.thisRepN,trials_2afc_loop.thisTrialN,trials_2afc_loop.thisN,trials_2afc_loop.thisIndex,trials_2afc_loop.ran,item_num,andalusian,argentine,castilian,chilean,cuban,mexican,peruvian,puertorican,key_resp_ac1.keys,key_resp_ac1.corr,key_resp_ac1.rt,ac1_loop.thisRepN,ac1_loop.thisTrialN,ac1_loop.thisN,ac1_loop.thisIndex,ac1_loop.ran,instructions_lextale_loop.thisRepN,instructions_lextale_loop.thisTrialN,instructions_lextale_loop.thisN,instructions_lextale_loop.thisIndex,instructions_lextale_loop.ran,key_resp_lextale_practice.keys,key_resp_lextale_practice.corr,key_resp_lextale_practice.rt,trials_lextale_practice_loop.thisRepN,trials_lextale_practice_loop.thisTrialN,trials_lextale_practice_loop.thisN,trials_lextale_practice_loop.thisIndex,trials_lextale_practice_loop.ran,stim,word,prac_button_real,prac_button_false,key_resp_lextale_trial.keys,key_resp_lextale_trial.corr,key_resp_lextale_trial.rt,trials_lextale_loop.thisRepN,trials_lextale_loop.thisTrialN,trials_lextale_loop.thisN,trials_lextale_loop.thisIndex,trials_lextale_loop.ran,button_real,button_false,key_resp_ac2.keys,key_resp_ac2.corr,key_resp_ac2.rt,check_pass,check_fails,ac2_loop.thisRepN,ac2_loop.thisTrialN,ac2_loop.thisN,ac2_loop.thisIndex,ac2_loop.ran,slider_eq_trial.response,trials_eq_loop.thisRepN,trials_eq_loop.thisTrialN,trials_eq_loop.thisN,trials_eq_loop.thisIndex,trials_eq_loop.ran,item,is_test_item,is_distractor,is_agree_score,is_disagree_score
0,0,0,0,1,"In the following task you are going to hear a series of utterances. 

  You will decide if the utterances sound like questions or not using your keyboard.",(press the spacebar to continue),5fc98a7db2180e4b23c6f5be,60568611ec04488a9e9da93b,60569dc677465645e18514a7,I am not familiar with Spanish,Midwest,NA,no,2021-03-20_20h14.49.809,empathy_intonation_perc,2020.2.10,Win32,60,,,,,,,,,,,,,,,,,,,,,,,,,,,,,,,,,,,,,,,,,,,,,,,,,,,,,,,,,,,,,,,,,,,,,,,,,,,,,,,,,,,,
0,1,1,1,1,"If you believe the utterance is a question, type '1' (for 'yes') and if you do not 
  believe it is a question type '0' (for 'no').

  Let's practice a bit...",(press the spacebar to continue),5fc98a7db2180e4b23c6f5be,60568611ec04488a9e9da93b,60569dc677465645e18514a7,I am not familiar with Spanish,Midwest,NA,no,2021-03-20_20h14.49.809,empathy_intonation_perc,2020.2.10,Win32,60,,,,,,,,,,,,,,,,,,,,,,,,,,,,,,,,,,,,,,,,,,,,,,,,,,,,,,,,,,,,,,,,,,,,,,,,,,,,,,,,,,,,
,,,,,,,5fc98a7db2180e4b23c6f5be,60568611ec04488a9e9da93b,60569dc677465645e18514a7,I am not familiar with Spanish,Midwest,NA,no,2021-03-20_20h14.49.809,empathy_intonation_perc,2020.2.10,Win32,60,1,1,11.413285,0,0,0,3,1,./stim/wavs/mexican_question_filler_Felipe-no-tiene-contrasena.wav,1,,,,,,,,,,,,,,,,,,,,,,,,,,,,,,,,,,,,,,,,,,,,,,,,,,,,,,,,,,,,,,,,,,,,,,,,,,
,,,,,,,5fc98a7db2180e4b23c6f5be,60568611ec04488a9e9da93b,60569dc677465645e18514a7,I am not familiar with Spanish,Midwest,NA,no,2021-03-20_20h14.49.809,empathy_intonation_perc,2020.2.10,Win32,60,1,1,2.739075,0,1,1,0,1,./stim/wavs/castilian_question_filler_Mi-esposo-conoce-al-chico.wav,1,,,,,,,,,,,,,,,,,,,,,,,,,,,,,,,,,,,,,,,,,,,,,,,,,,,,,,,,,,,,,,,,,,,,,,,,,,
,,,,,,,5fc98a7db2180e4b23c6f5be,60568611ec04488a9e9da93b,60569dc677465645e18514a7,I am not familiar with Spanish,Midwest,NA,no,2021-03-20_20h14.49.809,empathy_intonation_perc,2020.2.10,Win32,60,1,0,3.34075,0,2,2,4,1,./stim/wavs/cuban_statement_filler_Cocinabas-por-la-noche.wav,0,,,,,,,,,,,,,,,,,,,,,,,,,,,,,,,,,,,,,,,,,,,,,,,,,,,,,,,,,,,,,,,,,,,,,,,,,,
,,,,,,,5fc98a7db2180e4b23c6f5be,60568611ec04488a9e9da93b,60569dc677465645e18514a7,I am not familiar with Spanish,Midwest,NA,no,2021-03-20_20h14.49.809,empathy_intonation_perc,2020.2.10,Win32,60,1,0,2.67,0,3,3,6,1,./stim/wavs/peruvian_statement_filler_El-nino-habla-con-su-madre.wav,0,,,,,,,,,,,,,,,,,,,,,,,,,,,,,,,,,,,,,,,,,,,,,,,,,,,,,,,,,,,,,,,,,,,,,,,,,,
,,,,,,,5fc98a7db2180e4b23c6f5be,60568611ec04488a9e9da93b,60569dc677465645e18514a7,I am not familiar with Spanish,Midwest,NA,no,2021-03-20_20h14.49.809,empathy_intonation_perc,2020.2.10,Win32,60,1,1,1.98234,0,4,4,1,1,./stim/wavs/argentine_question_filler_Mi-vecino-habla-mucho.wav,1,,,,,,,,,,,,,,,,,,,,,,,,,,,,,,,,,,,,,,,,,,,,,,,,,,,,,,,,,,,,,,,,,,,,,,,,,,
,,,,,,,5fc98a7db2180e4b23c6f5be,60568611ec04488a9e9da93b,60569dc677465645e18514a7,I am not familiar with Spanish,Midwest,NA,no,2021-03-20_20h14.49.809,empathy_intonation_perc,2020.2.10,Win32,60,1,0,11.57765,0,5,5,7,1,./stim/wavs/puertorican_statement_filler_La-nina-pinta-con-su-amiga.wav,0,,,,,,,,,,,,,,,,,,,,,,,,,,,,,,,,,,,,,,,,,,,,,,,,,,,,,,,,,,,,,,,,,,,,,,,,,,
,,,,,,,5fc98a7db2180e4b23c6f5be,60568611ec04488a9e9da93b,60569dc677465645e18514a7,I am not familiar with Spanish,Midwest,NA,no,2021-03-20_20h14.49.809,empathy_intonation_perc,2020.2.10,Win32,60,1,1,3.189735,0,6,6,2,1,./stim/wavs/chilean_question_filler_Mi-padre-cantaba-bien.wav,1,,,,,,,,,,,,,,,,,,,,,,,,,,,,,,,,,,,,,,,,,,,,,,,,,,,,,,,,,,,,,,,,,,,,,,,,,,
,,,,,,,5fc98a7db2180e4b23c6f5be,60568611ec04488a9e9da93b,60569dc677465645e18514a7,I am not familiar with Spanish,Midwest,NA,no,2021-03-20_20h14.49.809,empathy_intonation_perc,2020.2.10,Win32,60,1,0,0.58828,0,7,7,5,1,./stim/wavs/andalusian_statement_filler_Alberto-nunca-se-afeita.wav,0,,,,,,,,,,,,,,,,,,,,,,,,,,,,,,,,,,,,,,,,,,,,,,,,,,,,,,,,,,,,,,,,,,,,,,,,,,
,,,,,,,5fc98a7db2180e4b23c6f5be,60568611ec04488a9e9da93b,60569dc677465645e18514a7,I am not familiar with Spanish,Midwest,NA,no,2021-03-20_20h14.49.809,empathy_intonation_perc,2020.2.10,Win32,60,,,,,,,,,,1,puertorican,1,1,19.452675,0,0,0,62,1,63,./stim/wavs/andalusian_mismatch_interrogative-total-yn_Mi-novio-viene-del-lago.wav,./stim/wavs/argentine_mismatch_interrogative-total-yn_Mi-novio-viene-del-lago.wav,./stim/wavs/castilian_mismatch_interrogative-total-yn_Mi-novio-viene-del-lago.wav,./stim/wavs/chilean_mismatch_interrogative-total-yn_Mi-novio-viene-del-lago.wav,./stim/wavs/cuban_mismatch_interrogative-total-yn_Mi-novio-viene-del-lago.wav,./stim/wavs/mexican_mismatch_interrogative-total-yn_Mi-novio-viene-del-lago.wav,./stim/wavs/peruvian_mismatch_interrogative-total-yn_Mi-novio-viene-del-lago.wav,./stim/wavs/puertorican_mismatch_interrogative-total-yn_Mi-novio-viene-del-lago.wav,,,,,,,,,,,,,,,,,,,,,,,,,,,,,,,,,,,,,,,,,,,,,,,,,,,,,,,,
,,,,,,,5fc98a7db2180e4b23c6f5be,60568611ec04488a9e9da93b,60569dc677465645e18514a7,I am not familiar with Spanish,Midwest,NA,no,2021-03-20_20h14.49.809,empathy_intonation_perc,2020.2.10,Win32,60,,,,,,,,,,1,andalusian,1,1,1.81846,0,1,1,55,1,56,./stim/wavs/andalusian_mismatch_interrogative-partial-wh_Por-que-vivia-en-Paris.wav,./stim/wavs/argentine_mismatch_interrogative-partial-wh_Por-que-vivia-en-Paris.wav,./stim/wavs/castilian_mismatch_interrogative-partial-wh_Por-que-vivia-en-Paris.wav,./stim/wavs/chilean_mismatch_interrogative-partial-wh_Por-que-vivia-en-Paris.wav,./stim/wavs/cuban_mismatch_interrogative-partial-wh_Por-que-vivia-en-Paris.wav,./stim/wavs/mexican_mismatch_interrogative-partial-wh_Por-que-vivia-en-Paris.wav,./stim/wavs/peruvian_mismatch_interrogative-partial-wh_Por-que-vivia-en-Paris.wav,./stim/wavs/puertorican_mismatch_interrogative-partial-wh_Por-que-vivia-en-Paris.wav,,,,,,,,,,,,,,,,,,,,,,,,,,,,,,,,,,,,,,,,,,,,,,,,,,,,,,,,
,,,,,,,5fc98a7db2180e4b23c6f5be,60568611ec04488a9e9da93b,60569dc677465645e18514a7,I am not familiar with Spanish,Midwest,NA,no,2021-03-20_20h14.49.809,empathy_intonation_perc,2020.2.10,Win32,60,,,,,,,,,,0,andalusian,1,0,2.134565,0,2,2,3,1,4,./stim/wavs/andalusian_match_declarative-broad-focus_Emilio-ama-la-marcha.wav,./stim/wavs/argentine_match_declarative-broad-focus_Emilio-ama-la-marcha.wav,./stim/wavs/castilian_match_declarative-broad-focus_Emilio-ama-la-marcha.wav,./stim/wavs/chilean_match_declarative-broad-focus_Emilio-ama-la-marcha.wav,./stim/wavs/cuban_match_declarative-broad-focus_Emilio-ama-la-marcha.wav,./stim/wavs/mexican_match_declarative-broad-focus_Emilio-ama-la-marcha.wav,./stim/wavs/peruvian_match_declarative-broad-focus_Emilio-ama-la-marcha.wav,./stim/wavs/puertorican_match_declarative-broad-focus_Emilio-ama-la-marcha.wav,,,,,,,,,,,,,,,,,,,,,,,,,,,,,,,,,,,,,,,,,,,,,,,,,,,,,,,,
,,,,,,,5fc98a7db2180e4b23c6f5be,60568611ec04488a9e9da93b,60569dc677465645e18514a7,I am not familiar with Spanish,Midwest,NA,no,2021-03-20_20h14.49.809,empathy_intonation_perc,2020.2.10,Win32,60,,,,,,,,,,0,peruvian,1,0,2.051625,0,3,3,40,1,41,./stim/wavs/andalusian_mismatch_declarative-narrow-focus_El-bebe-comia-muy-bien.wav,./stim/wavs/argentine_mismatch_declarative-narrow-focus_El-bebe-comia-muy-bien.wav,./stim/wavs/castilian_mismatch_declarative-narrow-focus_El-bebe-comia-muy-bien.wav,./stim/wavs/chilean_mismatch_declarative-narrow-focus_El-bebe-comia-muy-bien.wav,./stim/wavs/cuban_mismatch_declarative-narrow-focus_El-bebe-comia-muy-bien.wav,./stim/wavs/mexican_mismatch_declarative-narrow-focus_El-bebe-comia-muy-bien.wav,./stim/wavs/peruvian_mismatch_declarative-narrow-focus_El-bebe-comia-muy-bien.wav,./stim/wavs/puertorican_mismatch_declarative-narrow-focus_El-bebe-comia-muy-bien.wav,,,,,,,,,,,,,,,,,,,,,,,,,,,,,,,,,,,,,,,,,,,,,,,,,,,,,,,,
,,,,,,,5fc98a7db2180e4b23c6f5be,60568611ec04488a9e9da93b,60569dc677465645e18514a7,I am not familiar with Spanish,Midwest,NA,no,2021-03-20_20h14.49.809,empathy_intonation_perc,2020.2.10,Win32,60,,,,,,,,,,0,andalusian,1,0,2.216825,0,4,4,10,1,11,./stim/wavs/andalusian_match_declarative-narrow-focus_David-leia-el-libro.wav,./stim/wavs/argentine_match_declarative-narrow-focus_David-leia-el-libro.wav,./stim/wavs/castilian_match_declarative-narrow-focus_David-leia-el-libro.wav,./stim/wavs/chilean_match_declarative-narrow-focus_David-leia-el-libro.wav,./stim/wavs/cuban_match_declarative-narrow-focus_David-leia-el-libro.wav,./stim/wavs/mexican_match_declarative-narrow-focus_David-leia-el-libro.wav,./stim/wavs/peruvian_match_declarative-narrow-focus_David-leia-el-libro.wav,./stim/wavs/puertorican_match_declarative-narrow-focus_David-leia-el-libro.wav,,,,,,,,,,,,,,,,,,,,,,,,,,,,,,,,,,,,,,,,,,,,,,,,,,,,,,,,
,,,,,,,5fc98a7db2180e4b23c6f5be,60568611ec04488a9e9da93b,60569dc677465645e18514a7,I am not familiar with Spanish,Midwest,NA,no,2021-03-20_20h14.49.809,empathy_intonation_perc,2020.2.10,Win32,60,,,,,,,,,,1,andalusian,1,1,1.90082,0,5,5,53,1,54,./stim/wavs/andalusian_mismatch_interrogative-partial-wh_Por-que-oia-el-rio.wav,./stim/wavs/argentine_mismatch_interrogative-partial-wh_Por-que-oia-el-rio.wav,./stim/wavs/castilian_mismatch_interrogative-partial-wh_Por-que-oia-el-rio.wav,./stim/wavs/chilean_mismatch_interrogative-partial-wh_Por-que-oia-el-rio.wav,./stim/wavs/cuban_mismatch_interrogative-partial-wh_Por-que-oia-el-rio.wav,./stim/wavs/mexican_mismatch_interrogative-partial-wh_Por-que-oia-el-rio.wav,./stim/wavs/peruvian_mismatch_interrogative-partial-wh_Por-que-oia-el-rio.wav,./stim/wavs/puertorican_mismatch_interrogative-partial-wh_Por-que-oia-el-rio.wav,,,,,,,,,,,,,,,,,,,,,,,,,,,,,,,,,,,,,,,,,,,,,,,,,,,,,,,,
,,,,,,,5fc98a7db2180e4b23c6f5be,60568611ec04488a9e9da93b,60569dc677465645e18514a7,I am not familiar with Spanish,Midwest,NA,no,2021-03-20_20h14.49.809,empathy_intonation_perc,2020.2.10,Win32,60,,,,,,,,,,0,cuban,1,0,1.917795,0,6,6,11,1,12,./stim/wavs/andalusian_match_declarative-narrow-focus_Emilio-ama-la-marcha.wav,./stim/wavs/argentine_match_declarative-narrow-focus_Emilio-ama-la-marcha.wav,./stim/wavs/castilian_match_declarative-narrow-focus_Emilio-ama-la-marcha.wav,./stim/wavs/chilean_match_declarative-narrow-focus_Emilio-ama-la-marcha.wav,./stim/wavs/cuban_match_declarative-narrow-focus_Emilio-ama-la-marcha.wav,./stim/wavs/mexican_match_declarative-narrow-focus_Emilio-ama-la-marcha.wav,./stim/wavs/peruvian_match_declarative-narrow-focus_Emilio-ama-la-marcha.wav,./stim/wavs/puertorican_match_declarative-narrow-focus_Emilio-ama-la-marcha.wav,,,,,,,,,,,,,,,,,,,,,,,,,,,,,,,,,,,,,,,,,,,,,,,,,,,,,,,,
,,,,,,,5fc98a7db2180e4b23c6f5be,60568611ec04488a9e9da93b,60569dc677465645e18514a7,I am not familiar with Spanish,Midwest,NA,no,2021-03-20_20h14.49.809,empathy_intonation_perc,2020.2.10,Win32,60,,,,,,,,,,0,mexican,1,0,2.17571,0,7,7,35,1,36,./stim/wavs/andalusian_mismatch_declarative-broad-focus_La-maestra-vive-en-Paris.wav,./stim/wavs/argentine_mismatch_declarative-broad-focus_La-maestra-vive-en-Paris.wav,./stim/wavs/castilian_mismatch_declarative-broad-focus_La-maestra-vive-en-Paris.wav,./stim/wavs/chilean_mismatch_declarative-broad-focus_La-maestra-vive-en-Paris.wav,./stim/wavs/cuban_mismatch_declarative-broad-focus_La-maestra-vive-en-Paris.wav,./stim/wavs/mexican_mismatch_declarative-broad-focus_La-maestra-vive-en-Paris.wav,./stim/wavs/peruvian_mismatch_declarative-broad-focus_La-maestra-vive-en-Paris.wav,./stim/wavs/puertorican_mismatch_declarative-broad-focus_La-maestra-vive-en-Paris.wav,,,,,,,,,,,,,,,,,,,,,,,,,,,,,,,,,,,,,,,,,,,,,,,,,,,,,,,,
,,,,,,,5fc98a7db2180e4b23c6f5be,60568611ec04488a9e9da93b,60569dc677465645e18514a7,I am not familiar with Spanish,Midwest,NA,no,2021-03-20_20h14.49.809,empathy_intonation_perc,2020.2.10,Win32,60,,,,,,,,,,1,castilian,1,1,1.81862,0,8,8,16,1,17,./stim/wavs/andalusian_match_interrogative-partial-wh_Cuando-bebia-el-vino.wav,./stim/wavs/argentine_match_interrogative-partial-wh_Cuando-bebia-el-vino.wav,./stim/wavs/castilian_match_interrogative-partial-wh_Cuando-bebia-el-vino.wav,./stim/wavs/chilean_match_interrogative-partial-wh_Cuando-bebia-el-vino.wav,./stim/wavs/cuban_match_interrogative-partial-wh_Cuando-bebia-el-vino.wav,./stim/wavs/mexican_match_interrogative-partial-wh_Cuando-bebia-el-vino.wav,./stim/wavs/peruvian_match_interrogative-partial-wh_Cuando-bebia-el-vino.wav,./stim/wavs/puertorican_match_interrogative-partial-wh_Cuando-bebia-el-vino.wav,,,,,,,,,,,,,,,,,,,,,,,,,,,,,,,,,,,,,,,,,,,,,,,,,,,,,,,,
,,,,,,,5fc98a7db2180e4b23c6f5be,60568611ec04488a9e9da93b,60569dc677465645e18514a7,I am not familiar with Spanish,Midwest,NA,no,2021-03-20_20h14.49.809,empathy_intonation_perc,2020.2.10,Win32,60,,,,,,,,,,1,puertorican,1,1,1.90096,0,9,9,20,1,21,./stim/wavs/andalusian_match_interrogative-partial-wh_Por-que-abre-el-regalo.wav,./stim/wavs/argentine_match_interrogative-partial-wh_Por-que-abre-el-regalo.wav,./stim/wavs/castilian_match_interrogative-partial-wh_Por-que-abre-el-regalo.wav,./stim/wavs/chilean_match_interrogative-partial-wh_Por-que-abre-el-regalo.wav,./stim/wavs/cuban_match_interrogative-partial-wh_Por-que-abre-el-regalo.wav,./stim/wavs/mexican_match_interrogative-partial-wh_Por-que-abre-el-regalo.wav,./stim/wavs/peruvian_match_interrogative-partial-wh_Por-que-abre-el-regalo.wav,./stim/wavs/puertorican_match_interrogative-partial-wh_Por-que-abre-el-regalo.wav,,,,,,,,,,,,,,,,,,,,,,,,,,,,,,,,,,,,,,,,,,,,,,,,,,,,,,,,
,,,,,,,5fc98a7db2180e4b23c6f5be,60568611ec04488a9e9da93b,60569dc677465645e18514a7,I am not familiar with Spanish,Midwest,NA,no,2021-03-20_20h14.49.809,empathy_intonation_perc,2020.2.10,Win32,60,,,,,,,,,,0,peruvian,1,0,2.00638,0,10,10,34,1,35,./stim/wavs/andalusian_mismatch_declarative-broad-focus_El-nino-oye-el-rio.wav,./stim/wavs/argentine_mismatch_declarative-broad-focus_El-nino-oye-el-rio.wav,./stim/wavs/castilian_mismatch_declarative-broad-focus_El-nino-oye-el-rio.wav,./stim/wavs/chilean_mismatch_declarative-broad-focus_El-nino-oye-el-rio.wav,./stim/wavs/cuban_mismatch_declarative-broad-focus_El-nino-oye-el-rio.wav,./stim/wavs/mexican_mismatch_declarative-broad-focus_El-nino-oye-el-rio.wav,./stim/wavs/peruvian_mismatch_declarative-broad-focus_El-nino-oye-el-rio.wav,./stim/wavs/puertorican_mismatch_declarative-broad-focus_El-nino-oye-el-rio.wav,,,,,,,,,,,,,,,,,,,,,,,,,,,,,,,,,,,,,,,,,,,,,,,,,,,,,,,,
,,,,,,,5fc98a7db2180e4b23c6f5be,60568611ec04488a9e9da93b,60569dc677465645e18514a7,I am not familiar with Spanish,Midwest,NA,no,2021-03-20_20h14.49.809,empathy_intonation_perc,2020.2.10,Win32,60,,,,,,,,,,0,puertorican,1,0,1.76209,0,11,11,7,1,8,./stim/wavs/andalusian_match_declarative-broad-focus_Marta-abre-el-regalo.wav,./stim/wavs/argentine_match_declarative-broad-focus_Marta-abre-el-regalo.wav,./stim/wavs/castilian_match_declarative-broad-focus_Marta-abre-el-regalo.wav,./stim/wavs/chilean_match_declarative-broad-focus_Marta-abre-el-regalo.wav,./stim/wavs/cuban_match_declarative-broad-focus_Marta-abre-el-regalo.wav,./stim/wavs/mexican_match_declarative-broad-focus_Marta-abre-el-regalo.wav,./stim/wavs/peruvian_match_declarative-broad-focus_Marta-abre-el-regalo.wav,./stim/wavs/puertorican_match_declarative-broad-focus_Marta-abre-el-regalo.wav,,,,,,,,,,,,,,,,,,,,,,,,,,,,,,,,,,,,,,,,,,,,,,,,,,,,,,,,
,,,,,,,5fc98a7db2180e4b23c6f5be,60568611ec04488a9e9da93b,60569dc677465645e18514a7,I am not familiar with Spanish,Midwest,NA,no,2021-03-20_20h14.49.809,empathy_intonation_perc,2020.2.10,Win32,60,,,,,,,,,,0,peruvian,1,0,1.98374,0,12,12,14,1,15,./stim/wavs/andalusian_match_declarative-narrow-focus_Mariano-habla-del-tiempo.wav,./stim/wavs/argentine_match_declarative-narrow-focus_Mariano-habla-del-tiempo.wav,./stim/wavs/castilian_match_declarative-narrow-focus_Mariano-habla-del-tiempo.wav,./stim/wavs/chilean_match_declarative-narrow-focus_Mariano-habla-del-tiempo.wav,./stim/wavs/cuban_match_declarative-narrow-focus_Mariano-habla-del-tiempo.wav,./stim/wavs/mexican_match_declarative-narrow-focus_Mariano-habla-del-tiempo.wav,./stim/wavs/peruvian_match_declarative-narrow-focus_Mariano-habla-del-tiempo.wav,./stim/wavs/puertorican_match_declarative-narrow-focus_Mariano-habla-del-tiempo.wav,,,,,,,,,,,,,,,,,,,,,,,,,,,,,,,,,,,,,,,,,,,,,,,,,,,,,,,,
,,,,,,,5fc98a7db2180e4b23c6f5be,60568611ec04488a9e9da93b,60569dc677465645e18514a7,I am not familiar with Spanish,Midwest,NA,no,2021-03-20_20h14.49.809,empathy_intonation_perc,2020.2.10,Win32,60,,,,,,,,,,1,cuban,1,1,1.651955,0,13,13,19,1,20,./stim/wavs/andalusian_match_interrogative-partial-wh_Cuando-vendia-el-carro.wav,./stim/wavs/argentine_match_interrogative-partial-wh_Cuando-vendia-el-carro.wav,./stim/wavs/castilian_match_interrogative-partial-wh_Cuando-vendia-el-carro.wav,./stim/wavs/chilean_match_interrogative-partial-wh_Cuando-vendia-el-carro.wav,./stim/wavs/cuban_match_interrogative-partial-wh_Cuando-vendia-el-carro.wav,./stim/wavs/mexican_match_interrogative-partial-wh_Cuando-vendia-el-carro.wav,./stim/wavs/peruvian_match_interrogative-partial-wh_Cuando-vendia-el-carro.wav,./stim/wavs/puertorican_match_interrogative-partial-wh_Cuando-vendia-el-carro.wav,,,,,,,,,,,,,,,,,,,,,,,,,,,,,,,,,,,,,,,,,,,,,,,,,,,,,,,,
,,,,,,,5fc98a7db2180e4b23c6f5be,60568611ec04488a9e9da93b,60569dc677465645e18514a7,I am not familiar with Spanish,Midwest,NA,no,2021-03-20_20h14.49.809,empathy_intonation_perc,2020.2.10,Win32,60,,,,,,,,,,1,cuban,1,1,1.76653,0,14,14,52,1,53,./stim/wavs/andalusian_mismatch_interrogative-partial-wh_Por-que-odiaba-la-lluvia.wav,./stim/wavs/argentine_mismatch_interrogative-partial-wh_Por-que-odiaba-la-lluvia.wav,./stim/wavs/castilian_mismatch_interrogative-partial-wh_Por-que-odiaba-la-lluvia.wav,./stim/wavs/chilean_mismatch_interrogative-partial-wh_Por-que-odiaba-la-lluvia.wav,./stim/wavs/cuban_mismatch_interrogative-partial-wh_Por-que-odiaba-la-lluvia.wav,./stim/wavs/mexican_mismatch_interrogative-partial-wh_Por-que-odiaba-la-lluvia.wav,./stim/wavs/peruvian_mismatch_interrogative-partial-wh_Por-que-odiaba-la-lluvia.wav,./stim/wavs/puertorican_mismatch_interrogative-partial-wh_Por-que-odiaba-la-lluvia.wav,,,,,,,,,,,,,,,,,,,,,,,,,,,,,,,,,,,,,,,,,,,,,,,,,,,,,,,,
,,,,,,,5fc98a7db2180e4b23c6f5be,60568611ec04488a9e9da93b,60569dc677465645e18514a7,I am not familiar with Spanish,Midwest,NA,no,2021-03-20_20h14.49.809,empathy_intonation_perc,2020.2.10,Win32,60,,,,,,,,,,1,argentine,1,1,1.511905,0,15,15,54,1,55,./stim/wavs/andalusian_mismatch_interrogative-partial-wh_Por-que-venia-del-lago.wav,./stim/wavs/argentine_mismatch_interrogative-partial-wh_Por-que-venia-del-lago.wav,./stim/wavs/castilian_mismatch_interrogative-partial-wh_Por-que-venia-del-lago.wav,./stim/wavs/chilean_mismatch_interrogative-partial-wh_Por-que-venia-del-lago.wav,./stim/wavs/cuban_mismatch_interrogative-partial-wh_Por-que-venia-del-lago.wav,./stim/wavs/mexican_mismatch_interrogative-partial-wh_Por-que-venia-del-lago.wav,./stim/wavs/peruvian_mismatch_interrogative-partial-wh_Por-que-venia-del-lago.wav,./stim/wavs/puertorican_mismatch_interrogative-partial-wh_Por-que-venia-del-lago.wav,,,,,,,,,,,,,,,,,,,,,,,,,,,,,,,,,,,,,,,,,,,,,,,,,,,,,,,,
,,,,,,,5fc98a7db2180e4b23c6f5be,60568611ec04488a9e9da93b,60569dc677465645e18514a7,I am not familiar with Spanish,Midwest,NA,no,2021-03-20_20h14.49.809,empathy_intonation_perc,2020.2.10,Win32,60,,,,,,,,,,1,cuban,1,1,1.479195,0,16,16,57,1,58,./stim/wavs/andalusian_mismatch_interrogative-total-yn_El-hombre-mira-la-luna.wav,./stim/wavs/argentine_mismatch_interrogative-total-yn_El-hombre-mira-la-luna.wav,./stim/wavs/castilian_mismatch_interrogative-total-yn_El-hombre-mira-la-luna.wav,./stim/wavs/chilean_mismatch_interrogative-total-yn_El-hombre-mira-la-luna.wav,./stim/wavs/cuban_mismatch_interrogative-total-yn_El-hombre-mira-la-luna.wav,./stim/wavs/mexican_mismatch_interrogative-total-yn_El-hombre-mira-la-luna.wav,./stim/wavs/peruvian_mismatch_interrogative-total-yn_El-hombre-mira-la-luna.wav,./stim/wavs/puertorican_mismatch_interrogative-total-yn_El-hombre-mira-la-luna.wav,,,,,,,,,,,,,,,,,,,,,,,,,,,,,,,,,,,,,,,,,,,,,,,,,,,,,,,,
,,,,,,,5fc98a7db2180e4b23c6f5be,60568611ec04488a9e9da93b,60569dc677465645e18514a7,I am not familiar with Spanish,Midwest,NA,no,2021-03-20_20h14.49.809,empathy_intonation_perc,2020.2.10,Win32,60,,,,,,,,,,0,castilian,1,0,1.775195,0,17,17,32,1,33,./stim/wavs/andalusian_mismatch_declarative-broad-focus_El-bebe-comia-muy-bien.wav,./stim/wavs/argentine_mismatch_declarative-broad-focus_El-bebe-comia-muy-bien.wav,./stim/wavs/castilian_mismatch_declarative-broad-focus_El-bebe-comia-muy-bien.wav,./stim/wavs/chilean_mismatch_declarative-broad-focus_El-bebe-comia-muy-bien.wav,./stim/wavs/cuban_mismatch_declarative-broad-focus_El-bebe-comia-muy-bien.wav,./stim/wavs/mexican_mismatch_declarative-broad-focus_El-bebe-comia-muy-bien.wav,./stim/wavs/peruvian_mismatch_declarative-broad-focus_El-bebe-comia-muy-bien.wav,./stim/wavs/puertorican_mismatch_declarative-broad-focus_El-bebe-comia-muy-bien.wav,,,,,,,,,,,,,,,,,,,,,,,,,,,,,,,,,,,,,,,,,,,,,,,,,,,,,,,,
,,,,,,,5fc98a7db2180e4b23c6f5be,60568611ec04488a9e9da93b,60569dc677465645e18514a7,I am not familiar with Spanish,Midwest,NA,no,2021-03-20_20h14.49.809,empathy_intonation_perc,2020.2.10,Win32,60,,,,,,,,,,0,andalusian,1,0,1.862065,0,18,18,9,1,10,./stim/wavs/andalusian_match_declarative-narrow-focus_Daniel-iba-a-Bolivia.wav,./stim/wavs/argentine_match_declarative-narrow-focus_Daniel-iba-a-Bolivia.wav,./stim/wavs/castilian_match_declarative-narrow-focus_Daniel-iba-a-Bolivia.wav,./stim/wavs/chilean_match_declarative-narrow-focus_Daniel-iba-a-Bolivia.wav,./stim/wavs/cuban_match_declarative-narrow-focus_Daniel-iba-a-Bolivia.wav,./stim/wavs/mexican_match_declarative-narrow-focus_Daniel-iba-a-Bolivia.wav,./stim/wavs/peruvian_match_declarative-narrow-focus_Daniel-iba-a-Bolivia.wav,./stim/wavs/puertorican_match_declarative-narrow-focus_Daniel-iba-a-Bolivia.wav,,,,,,,,,,,,,,,,,,,,,,,,,,,,,,,,,,,,,,,,,,,,,,,,,,,,,,,,
,,,,,,,5fc98a7db2180e4b23c6f5be,60568611ec04488a9e9da93b,60569dc677465645e18514a7,I am not familiar with Spanish,Midwest,NA,no,2021-03-20_20h14.49.809,empathy_intonation_perc,2020.2.10,Win32,60,,,,,,,,,,1,castilian,1,1,1.767275,0,19,19,22,1,23,./stim/wavs/andalusian_match_interrogative-partial-wh_Por-que-hablaba-del-agua.wav,./stim/wavs/argentine_match_interrogative-partial-wh_Por-que-hablaba-del-agua.wav,./stim/wavs/castilian_match_interrogative-partial-wh_Por-que-hablaba-del-agua.wav,./stim/wavs/chilean_match_interrogative-partial-wh_Por-que-hablaba-del-agua.wav,./stim/wavs/cuban_match_interrogative-partial-wh_Por-que-hablaba-del-agua.wav,./stim/wavs/mexican_match_interrogative-partial-wh_Por-que-hablaba-del-agua.wav,./stim/wavs/peruvian_match_interrogative-partial-wh_Por-que-hablaba-del-agua.wav,./stim/wavs/puertorican_match_interrogative-partial-wh_Por-que-hablaba-del-agua.wav,,,,,,,,,,,,,,,,,,,,,,,,,,,,,,,,,,,,,,,,,,,,,,,,,,,,,,,,
,,,,,,,5fc98a7db2180e4b23c6f5be,60568611ec04488a9e9da93b,60569dc677465645e18514a7,I am not familiar with Spanish,Midwest,NA,no,2021-03-20_20h14.49.809,empathy_intonation_perc,2020.2.10,Win32,60,,,,,,,,,,1,puertorican,1,1,1.72909,0,20,20,58,1,59,./stim/wavs/andalusian_mismatch_interrogative-total-yn_El-nino-oye-el-rio.wav,./stim/wavs/argentine_mismatch_interrogative-total-yn_El-nino-oye-el-rio.wav,./stim/wavs/castilian_mismatch_interrogative-total-yn_El-nino-oye-el-rio.wav,./stim/wavs/chilean_mismatch_interrogative-total-yn_El-nino-oye-el-rio.wav,./stim/wavs/cuban_mismatch_interrogative-total-yn_El-nino-oye-el-rio.wav,./stim/wavs/mexican_mismatch_interrogative-total-yn_El-nino-oye-el-rio.wav,./stim/wavs/peruvian_mismatch_interrogative-total-yn_El-nino-oye-el-rio.wav,./stim/wavs/puertorican_mismatch_interrogative-total-yn_El-nino-oye-el-rio.wav,,,,,,,,,,,,,,,,,,,,,,,,,,,,,,,,,,,,,,,,,,,,,,,,,,,,,,,,
,,,,,,,5fc98a7db2180e4b23c6f5be,60568611ec04488a9e9da93b,60569dc677465645e18514a7,I am not familiar with Spanish,Midwest,NA,no,2021-03-20_20h14.49.809,empathy_intonation_perc,2020.2.10,Win32,60,,,,,,,,,,1,cuban,1,1,1.734245,0,21,21,59,1,60,./stim/wavs/andalusian_mismatch_interrogative-total-yn_La-maestra-vive-en-Paris.wav,./stim/wavs/argentine_mismatch_interrogative-total-yn_La-maestra-vive-en-Paris.wav,./stim/wavs/castilian_mismatch_interrogative-total-yn_La-maestra-vive-en-Paris.wav,./stim/wavs/chilean_mismatch_interrogative-total-yn_La-maestra-vive-en-Paris.wav,./stim/wavs/cuban_mismatch_interrogative-total-yn_La-maestra-vive-en-Paris.wav,./stim/wavs/mexican_mismatch_interrogative-total-yn_La-maestra-vive-en-Paris.wav,./stim/wavs/peruvian_mismatch_interrogative-total-yn_La-maestra-vive-en-Paris.wav,./stim/wavs/puertorican_mismatch_interrogative-total-yn_La-maestra-vive-en-Paris.wav,,,,,,,,,,,,,,,,,,,,,,,,,,,,,,,,,,,,,,,,,,,,,,,,,,,,,,,,
,,,,,,,5fc98a7db2180e4b23c6f5be,60568611ec04488a9e9da93b,60569dc677465645e18514a7,I am not familiar with Spanish,Midwest,NA,no,2021-03-20_20h14.49.809,empathy_intonation_perc,2020.2.10,Win32,60,,,,,,,,,,0,argentine,1,0,1.731045,0,22,22,6,1,7,./stim/wavs/andalusian_match_declarative-broad-focus_Mariano-habla-del-tiempo.wav,./stim/wavs/argentine_match_declarative-broad-focus_Mariano-habla-del-tiempo.wav,./stim/wavs/castilian_match_declarative-broad-focus_Mariano-habla-del-tiempo.wav,./stim/wavs/chilean_match_declarative-broad-focus_Mariano-habla-del-tiempo.wav,./stim/wavs/cuban_match_declarative-broad-focus_Mariano-habla-del-tiempo.wav,./stim/wavs/mexican_match_declarative-broad-focus_Mariano-habla-del-tiempo.wav,./stim/wavs/peruvian_match_declarative-broad-focus_Mariano-habla-del-tiempo.wav,./stim/wavs/puertorican_match_declarative-broad-focus_Mariano-habla-del-tiempo.wav,,,,,,,,,,,,,,,,,,,,,,,,,,,,,,,,,,,,,,,,,,,,,,,,,,,,,,,,
,,,,,,,5fc98a7db2180e4b23c6f5be,60568611ec04488a9e9da93b,60569dc677465645e18514a7,I am not familiar with Spanish,Midwest,NA,no,2021-03-20_20h14.49.809,empathy_intonation_perc,2020.2.10,Win32,60,,,,,,,,,,0,cuban,1,0,1.734715,0,23,23,5,1,6,./stim/wavs/andalusian_match_declarative-broad-focus_Maria-bebe-el-vino.wav,./stim/wavs/argentine_match_declarative-broad-focus_Maria-bebe-el-vino.wav,./stim/wavs/castilian_match_declarative-broad-focus_Maria-bebe-el-vino.wav,./stim/wavs/chilean_match_declarative-broad-focus_Maria-bebe-el-vino.wav,./stim/wavs/cuban_match_declarative-broad-focus_Maria-bebe-el-vino.wav,./stim/wavs/mexican_match_declarative-broad-focus_Maria-bebe-el-vino.wav,./stim/wavs/peruvian_match_declarative-broad-focus_Maria-bebe-el-vino.wav,./stim/wavs/puertorican_match_declarative-broad-focus_Maria-bebe-el-vino.wav,,,,,,,,,,,,,,,,,,,,,,,,,,,,,,,,,,,,,,,,,,,,,,,,,,,,,,,,
,,,,,,,5fc98a7db2180e4b23c6f5be,60568611ec04488a9e9da93b,60569dc677465645e18514a7,I am not familiar with Spanish,Midwest,NA,no,2021-03-20_20h14.49.809,empathy_intonation_perc,2020.2.10,Win32,60,,,,,,,,,,1,chilean,1,1,1.6582,0,24,24,30,1,31,./stim/wavs/andalusian_match_interrogative-total-yn_Mariano-habla-del-tiempo.wav,./stim/wavs/argentine_match_interrogative-total-yn_Mariano-habla-del-tiempo.wav,./stim/wavs/castilian_match_interrogative-total-yn_Mariano-habla-del-tiempo.wav,./stim/wavs/chilean_match_interrogative-total-yn_Mariano-habla-del-tiempo.wav,./stim/wavs/cuban_match_interrogative-total-yn_Mariano-habla-del-tiempo.wav,./stim/wavs/mexican_match_interrogative-total-yn_Mariano-habla-del-tiempo.wav,./stim/wavs/peruvian_match_interrogative-total-yn_Mariano-habla-del-tiempo.wav,./stim/wavs/puertorican_match_interrogative-total-yn_Mariano-habla-del-tiempo.wav,,,,,,,,,,,,,,,,,,,,,,,,,,,,,,,,,,,,,,,,,,,,,,,,,,,,,,,,
,,,,,,,5fc98a7db2180e4b23c6f5be,60568611ec04488a9e9da93b,60569dc677465645e18514a7,I am not familiar with Spanish,Midwest,NA,no,2021-03-20_20h14.49.809,empathy_intonation_perc,2020.2.10,Win32,60,,,,,,,,,,1,argentine,1,1,2.01669,0,25,25,63,1,64,./stim/wavs/andalusian_mismatch_interrogative-total-yn_Mi-tia-odia-la-lluvia.wav,./stim/wavs/argentine_mismatch_interrogative-total-yn_Mi-tia-odia-la-lluvia.wav,./stim/wavs/castilian_mismatch_interrogative-total-yn_Mi-tia-odia-la-lluvia.wav,./stim/wavs/chilean_mismatch_interrogative-total-yn_Mi-tia-odia-la-lluvia.wav,./stim/wavs/cuban_mismatch_interrogative-total-yn_Mi-tia-odia-la-lluvia.wav,./stim/wavs/mexican_mismatch_interrogative-total-yn_Mi-tia-odia-la-lluvia.wav,./stim/wavs/peruvian_mismatch_interrogative-total-yn_Mi-tia-odia-la-lluvia.wav,./stim/wavs/puertorican_mismatch_interrogative-total-yn_Mi-tia-odia-la-lluvia.wav,,,,,,,,,,,,,,,,,,,,,,,,,,,,,,,,,,,,,,,,,,,,,,,,,,,,,,,,
,,,,,,,5fc98a7db2180e4b23c6f5be,60568611ec04488a9e9da93b,60569dc677465645e18514a7,I am not familiar with Spanish,Midwest,NA,no,2021-03-20_20h14.49.809,empathy_intonation_perc,2020.2.10,Win32,60,,,,,,,,,,0,peruvian,1,0,1.90015,0,26,26,42,1,43,./stim/wavs/andalusian_mismatch_declarative-narrow-focus_El-nino-oye-el-rio.wav,./stim/wavs/argentine_mismatch_declarative-narrow-focus_El-nino-oye-el-rio.wav,./stim/wavs/castilian_mismatch_declarative-narrow-focus_El-nino-oye-el-rio.wav,./stim/wavs/chilean_mismatch_declarative-narrow-focus_El-nino-oye-el-rio.wav,./stim/wavs/cuban_mismatch_declarative-narrow-focus_El-nino-oye-el-rio.wav,./stim/wavs/mexican_mismatch_declarative-narrow-focus_El-nino-oye-el-rio.wav,./stim/wavs/peruvian_mismatch_declarative-narrow-focus_El-nino-oye-el-rio.wav,./stim/wavs/puertorican_mismatch_declarative-narrow-focus_El-nino-oye-el-rio.wav,,,,,,,,,,,,,,,,,,,,,,,,,,,,,,,,,,,,,,,,,,,,,,,,,,,,,,,,
,,,,,,,5fc98a7db2180e4b23c6f5be,60568611ec04488a9e9da93b,60569dc677465645e18514a7,I am not familiar with Spanish,Midwest,NA,no,2021-03-20_20h14.49.809,empathy_intonation_perc,2020.2.10,Win32,60,,,,,,,,,,1,mexican,1,1,1.66057,0,27,27,24,1,25,./stim/wavs/andalusian_match_interrogative-total-yn_Ana-lleva-el-abrigo.wav,./stim/wavs/argentine_match_interrogative-total-yn_Ana-lleva-el-abrigo.wav,./stim/wavs/castilian_match_interrogative-total-yn_Ana-lleva-el-abrigo.wav,./stim/wavs/chilean_match_interrogative-total-yn_Ana-lleva-el-abrigo.wav,./stim/wavs/cuban_match_interrogative-total-yn_Ana-lleva-el-abrigo.wav,./stim/wavs/mexican_match_interrogative-total-yn_Ana-lleva-el-abrigo.wav,./stim/wavs/peruvian_match_interrogative-total-yn_Ana-lleva-el-abrigo.wav,./stim/wavs/puertorican_match_interrogative-total-yn_Ana-lleva-el-abrigo.wav,,,,,,,,,,,,,,,,,,,,,,,,,,,,,,,,,,,,,,,,,,,,,,,,,,,,,,,,
,,,,,,,5fc98a7db2180e4b23c6f5be,60568611ec04488a9e9da93b,60569dc677465645e18514a7,I am not familiar with Spanish,Midwest,NA,no,2021-03-20_20h14.49.809,empathy_intonation_perc,2020.2.10,Win32,60,,,,,,,,,,0,castilian,1,0,1.896555,0,28,28,13,1,14,./stim/wavs/andalusian_match_declarative-narrow-focus_Maria-bebe-el-vino.wav,./stim/wavs/argentine_match_declarative-narrow-focus_Maria-bebe-el-vino.wav,./stim/wavs/castilian_match_declarative-narrow-focus_Maria-bebe-el-vino.wav,./stim/wavs/chilean_match_declarative-narrow-focus_Maria-bebe-el-vino.wav,./stim/wavs/cuban_match_declarative-narrow-focus_Maria-bebe-el-vino.wav,./stim/wavs/mexican_match_declarative-narrow-focus_Maria-bebe-el-vino.wav,./stim/wavs/peruvian_match_declarative-narrow-focus_Maria-bebe-el-vino.wav,./stim/wavs/puertorican_match_declarative-narrow-focus_Maria-bebe-el-vino.wav,,,,,,,,,,,,,,,,,,,,,,,,,,,,,,,,,,,,,,,,,,,,,,,,,,,,,,,,
,,,,,,,5fc98a7db2180e4b23c6f5be,60568611ec04488a9e9da93b,60569dc677465645e18514a7,I am not familiar with Spanish,Midwest,NA,no,2021-03-20_20h14.49.809,empathy_intonation_perc,2020.2.10,Win32,60,,,,,,,,,,0,puertorican,1,0,1.66659,0,29,29,36,1,37,./stim/wavs/andalusian_mismatch_declarative-broad-focus_La-nina-lava-el-plato.wav,./stim/wavs/argentine_mismatch_declarative-broad-focus_La-nina-lava-el-plato.wav,./stim/wavs/castilian_mismatch_declarative-broad-focus_La-nina-lava-el-plato.wav,./stim/wavs/chilean_mismatch_declarative-broad-focus_La-nina-lava-el-plato.wav,./stim/wavs/cuban_mismatch_declarative-broad-focus_La-nina-lava-el-plato.wav,./stim/wavs/mexican_mismatch_declarative-broad-focus_La-nina-lava-el-plato.wav,./stim/wavs/peruvian_mismatch_declarative-broad-focus_La-nina-lava-el-plato.wav,./stim/wavs/puertorican_mismatch_declarative-broad-focus_La-nina-lava-el-plato.wav,,,,,,,,,,,,,,,,,,,,,,,,,,,,,,,,,,,,,,,,,,,,,,,,,,,,,,,,
,,,,,,,5fc98a7db2180e4b23c6f5be,60568611ec04488a9e9da93b,60569dc677465645e18514a7,I am not familiar with Spanish,Midwest,NA,no,2021-03-20_20h14.49.809,empathy_intonation_perc,2020.2.10,Win32,60,,,,,,,,,,1,cuban,1,1,1.55265,0,30,30,18,1,19,./stim/wavs/andalusian_match_interrogative-partial-wh_Cuando-lleva-el-abrigo.wav,./stim/wavs/argentine_match_interrogative-partial-wh_Cuando-lleva-el-abrigo.wav,./stim/wavs/castilian_match_interrogative-partial-wh_Cuando-lleva-el-abrigo.wav,./stim/wavs/chilean_match_interrogative-partial-wh_Cuando-lleva-el-abrigo.wav,./stim/wavs/cuban_match_interrogative-partial-wh_Cuando-lleva-el-abrigo.wav,./stim/wavs/mexican_match_interrogative-partial-wh_Cuando-lleva-el-abrigo.wav,./stim/wavs/peruvian_match_interrogative-partial-wh_Cuando-lleva-el-abrigo.wav,./stim/wavs/puertorican_match_interrogative-partial-wh_Cuando-lleva-el-abrigo.wav,,,,,,,,,,,,,,,,,,,,,,,,,,,,,,,,,,,,,,,,,,,,,,,,,,,,,,,,
,,,,,,,5fc98a7db2180e4b23c6f5be,60568611ec04488a9e9da93b,60569dc677465645e18514a7,I am not familiar with Spanish,Midwest,NA,no,2021-03-20_20h14.49.809,empathy_intonation_perc,2020.2.10,Win32,60,,,,,,,,,,1,mexican,1,1,1.816185,0,31,31,51,1,52,./stim/wavs/andalusian_mismatch_interrogative-partial-wh_Por-que-desayuna-muy-bien.wav,./stim/wavs/argentine_mismatch_interrogative-partial-wh_Por-que-desayuna-muy-bien.wav,./stim/wavs/castilian_mismatch_interrogative-partial-wh_Por-que-desayuna-muy-bien.wav,./stim/wavs/chilean_mismatch_interrogative-partial-wh_Por-que-desayuna-muy-bien.wav,./stim/wavs/cuban_mismatch_interrogative-partial-wh_Por-que-desayuna-muy-bien.wav,./stim/wavs/mexican_mismatch_interrogative-partial-wh_Por-que-desayuna-muy-bien.wav,./stim/wavs/peruvian_mismatch_interrogative-partial-wh_Por-que-desayuna-muy-bien.wav,./stim/wavs/puertorican_mismatch_interrogative-partial-wh_Por-que-desayuna-muy-bien.wav,,,,,,,,,,,,,,,,,,,,,,,,,,,,,,,,,,,,,,,,,,,,,,,,,,,,,,,,
,,,,,,,5fc98a7db2180e4b23c6f5be,60568611ec04488a9e9da93b,60569dc677465645e18514a7,I am not familiar with Spanish,Midwest,NA,no,2021-03-20_20h14.49.809,empathy_intonation_perc,2020.2.10,Win32,60,,,,,,,,,,1,puertorican,1,1,1.55233,0,32,32,49,1,50,./stim/wavs/andalusian_mismatch_interrogative-partial-wh_Cuando-lavaba-el-plato.wav,./stim/wavs/argentine_mismatch_interrogative-partial-wh_Cuando-lavaba-el-plato.wav,./stim/wavs/castilian_mismatch_interrogative-partial-wh_Cuando-lavaba-el-plato.wav,./stim/wavs/chilean_mismatch_interrogative-partial-wh_Cuando-lavaba-el-plato.wav,./stim/wavs/cuban_mismatch_interrogative-partial-wh_Cuando-lavaba-el-plato.wav,./stim/wavs/mexican_mismatch_interrogative-partial-wh_Cuando-lavaba-el-plato.wav,./stim/wavs/peruvian_mismatch_interrogative-partial-wh_Cuando-lavaba-el-plato.wav,./stim/wavs/puertorican_mismatch_interrogative-partial-wh_Cuando-lavaba-el-plato.wav,,,,,,,,,,,,,,,,,,,,,,,,,,,,,,,,,,,,,,,,,,,,,,,,,,,,,,,,
,,,,,,,5fc98a7db2180e4b23c6f5be,60568611ec04488a9e9da93b,60569dc677465645e18514a7,I am not familiar with Spanish,Midwest,NA,no,2021-03-20_20h14.49.809,empathy_intonation_perc,2020.2.10,Win32,60,,,,,,,,,,1,argentine,1,1,1.68044,0,33,33,26,1,27,./stim/wavs/andalusian_match_interrogative-total-yn_David-leia-el-libro.wav,./stim/wavs/argentine_match_interrogative-total-yn_David-leia-el-libro.wav,./stim/wavs/castilian_match_interrogative-total-yn_David-leia-el-libro.wav,./stim/wavs/chilean_match_interrogative-total-yn_David-leia-el-libro.wav,./stim/wavs/cuban_match_interrogative-total-yn_David-leia-el-libro.wav,./stim/wavs/mexican_match_interrogative-total-yn_David-leia-el-libro.wav,./stim/wavs/peruvian_match_interrogative-total-yn_David-leia-el-libro.wav,./stim/wavs/puertorican_match_interrogative-total-yn_David-leia-el-libro.wav,,,,,,,,,,,,,,,,,,,,,,,,,,,,,,,,,,,,,,,,,,,,,,,,,,,,,,,,
,,,,,,,5fc98a7db2180e4b23c6f5be,60568611ec04488a9e9da93b,60569dc677465645e18514a7,I am not familiar with Spanish,Midwest,NA,no,2021-03-20_20h14.49.809,empathy_intonation_perc,2020.2.10,Win32,60,,,,,,,,,,0,peruvian,1,0,1.757945,0,34,34,12,1,13,./stim/wavs/andalusian_match_declarative-narrow-focus_Manuela-vende-el-carro.wav,./stim/wavs/argentine_match_declarative-narrow-focus_Manuela-vende-el-carro.wav,./stim/wavs/castilian_match_declarative-narrow-focus_Manuela-vende-el-carro.wav,./stim/wavs/chilean_match_declarative-narrow-focus_Manuela-vende-el-carro.wav,./stim/wavs/cuban_match_declarative-narrow-focus_Manuela-vende-el-carro.wav,./stim/wavs/mexican_match_declarative-narrow-focus_Manuela-vende-el-carro.wav,./stim/wavs/peruvian_match_declarative-narrow-focus_Manuela-vende-el-carro.wav,./stim/wavs/puertorican_match_declarative-narrow-focus_Manuela-vende-el-carro.wav,,,,,,,,,,,,,,,,,,,,,,,,,,,,,,,,,,,,,,,,,,,,,,,,,,,,,,,,
,,,,,,,5fc98a7db2180e4b23c6f5be,60568611ec04488a9e9da93b,60569dc677465645e18514a7,I am not familiar with Spanish,Midwest,NA,no,2021-03-20_20h14.49.809,empathy_intonation_perc,2020.2.10,Win32,60,,,,,,,,,,0,andalusian,1,0,1.55814,0,35,35,37,1,38,./stim/wavs/andalusian_mismatch_declarative-broad-focus_Mi-madre-come-la-fruta.wav,./stim/wavs/argentine_mismatch_declarative-broad-focus_Mi-madre-come-la-fruta.wav,./stim/wavs/castilian_mismatch_declarative-broad-focus_Mi-madre-come-la-fruta.wav,./stim/wavs/chilean_mismatch_declarative-broad-focus_Mi-madre-come-la-fruta.wav,./stim/wavs/cuban_mismatch_declarative-broad-focus_Mi-madre-come-la-fruta.wav,./stim/wavs/mexican_mismatch_declarative-broad-focus_Mi-madre-come-la-fruta.wav,./stim/wavs/peruvian_mismatch_declarative-broad-focus_Mi-madre-come-la-fruta.wav,./stim/wavs/puertorican_mismatch_declarative-broad-focus_Mi-madre-come-la-fruta.wav,,,,,,,,,,,,,,,,,,,,,,,,,,,,,,,,,,,,,,,,,,,,,,,,,,,,,,,,
,,,,,,,5fc98a7db2180e4b23c6f5be,60568611ec04488a9e9da93b,60569dc677465645e18514a7,I am not familiar with Spanish,Midwest,NA,no,2021-03-20_20h14.49.809,empathy_intonation_perc,2020.2.10,Win32,60,,,,,,,,,,0,andalusian,1,0,1.40904,0,36,36,47,1,48,./stim/wavs/andalusian_mismatch_declarative-narrow-focus_Mi-tia-odia-la-lluvia.wav,./stim/wavs/argentine_mismatch_declarative-narrow-focus_Mi-tia-odia-la-lluvia.wav,./stim/wavs/castilian_mismatch_declarative-narrow-focus_Mi-tia-odia-la-lluvia.wav,./stim/wavs/chilean_mismatch_declarative-narrow-focus_Mi-tia-odia-la-lluvia.wav,./stim/wavs/cuban_mismatch_declarative-narrow-focus_Mi-tia-odia-la-lluvia.wav,./stim/wavs/mexican_mismatch_declarative-narrow-focus_Mi-tia-odia-la-lluvia.wav,./stim/wavs/peruvian_mismatch_declarative-narrow-focus_Mi-tia-odia-la-lluvia.wav,./stim/wavs/puertorican_mismatch_declarative-narrow-focus_Mi-tia-odia-la-lluvia.wav,,,,,,,,,,,,,,,,,,,,,,,,,,,,,,,,,,,,,,,,,,,,,,,,,,,,,,,,
,,,,,,,5fc98a7db2180e4b23c6f5be,60568611ec04488a9e9da93b,60569dc677465645e18514a7,I am not familiar with Spanish,Midwest,NA,no,2021-03-20_20h14.49.809,empathy_intonation_perc,2020.2.10,Win32,60,,,,,,,,,,1,cuban,1,1,1.45538,0,37,37,28,1,29,./stim/wavs/andalusian_match_interrogative-total-yn_Manuela-vende-el-carro.wav,./stim/wavs/argentine_match_interrogative-total-yn_Manuela-vende-el-carro.wav,./stim/wavs/castilian_match_interrogative-total-yn_Manuela-vende-el-carro.wav,./stim/wavs/chilean_match_interrogative-total-yn_Manuela-vende-el-carro.wav,./stim/wavs/cuban_match_interrogative-total-yn_Manuela-vende-el-carro.wav,./stim/wavs/mexican_match_interrogative-total-yn_Manuela-vende-el-carro.wav,./stim/wavs/peruvian_match_interrogative-total-yn_Manuela-vende-el-carro.wav,./stim/wavs/puertorican_match_interrogative-total-yn_Manuela-vende-el-carro.wav,,,,,,,,,,,,,,,,,,,,,,,,,,,,,,,,,,,,,,,,,,,,,,,,,,,,,,,,
,,,,,,,5fc98a7db2180e4b23c6f5be,60568611ec04488a9e9da93b,60569dc677465645e18514a7,I am not familiar with Spanish,Midwest,NA,no,2021-03-20_20h14.49.809,empathy_intonation_perc,2020.2.10,Win32,60,,,,,,,,,,0,cuban,1,0,1.457695,0,38,38,43,1,44,./stim/wavs/andalusian_mismatch_declarative-narrow-focus_La-maestra-vive-en-Paris.wav,./stim/wavs/argentine_mismatch_declarative-narrow-focus_La-maestra-vive-en-Paris.wav,./stim/wavs/castilian_mismatch_declarative-narrow-focus_La-maestra-vive-en-Paris.wav,./stim/wavs/chilean_mismatch_declarative-narrow-focus_La-maestra-vive-en-Paris.wav,./stim/wavs/cuban_mismatch_declarative-narrow-focus_La-maestra-vive-en-Paris.wav,./stim/wavs/mexican_mismatch_declarative-narrow-focus_La-maestra-vive-en-Paris.wav,./stim/wavs/peruvian_mismatch_declarative-narrow-focus_La-maestra-vive-en-Paris.wav,./stim/wavs/puertorican_mismatch_declarative-narrow-focus_La-maestra-vive-en-Paris.wav,,,,,,,,,,,,,,,,,,,,,,,,,,,,,,,,,,,,,,,,,,,,,,,,,,,,,,,,
,,,,,,,5fc98a7db2180e4b23c6f5be,60568611ec04488a9e9da93b,60569dc677465645e18514a7,I am not familiar with Spanish,Midwest,NA,no,2021-03-20_20h14.49.809,empathy_intonation_perc,2020.2.10,Win32,60,,,,,,,,,,1,cuban,1,1,1.665775,0,39,39,27,1,28,./stim/wavs/andalusian_match_interrogative-total-yn_Emilio-ama-la-marcha.wav,./stim/wavs/argentine_match_interrogative-total-yn_Emilio-ama-la-marcha.wav,./stim/wavs/castilian_match_interrogative-total-yn_Emilio-ama-la-marcha.wav,./stim/wavs/chilean_match_interrogative-total-yn_Emilio-ama-la-marcha.wav,./stim/wavs/cuban_match_interrogative-total-yn_Emilio-ama-la-marcha.wav,./stim/wavs/mexican_match_interrogative-total-yn_Emilio-ama-la-marcha.wav,./stim/wavs/peruvian_match_interrogative-total-yn_Emilio-ama-la-marcha.wav,./stim/wavs/puertorican_match_interrogative-total-yn_Emilio-ama-la-marcha.wav,,,,,,,,,,,,,,,,,,,,,,,,,,,,,,,,,,,,,,,,,,,,,,,,,,,,,,,,
,,,,,,,5fc98a7db2180e4b23c6f5be,60568611ec04488a9e9da93b,60569dc677465645e18514a7,I am not familiar with Spanish,Midwest,NA,no,2021-03-20_20h14.49.809,empathy_intonation_perc,2020.2.10,Win32,60,,,,,,,,,,0,cuban,1,0,1.56498,0,40,40,4,1,5,./stim/wavs/andalusian_match_declarative-broad-focus_Manuela-vende-el-carro.wav,./stim/wavs/argentine_match_declarative-broad-focus_Manuela-vende-el-carro.wav,./stim/wavs/castilian_match_declarative-broad-focus_Manuela-vende-el-carro.wav,./stim/wavs/chilean_match_declarative-broad-focus_Manuela-vende-el-carro.wav,./stim/wavs/cuban_match_declarative-broad-focus_Manuela-vende-el-carro.wav,./stim/wavs/mexican_match_declarative-broad-focus_Manuela-vende-el-carro.wav,./stim/wavs/peruvian_match_declarative-broad-focus_Manuela-vende-el-carro.wav,./stim/wavs/puertorican_match_declarative-broad-focus_Manuela-vende-el-carro.wav,,,,,,,,,,,,,,,,,,,,,,,,,,,,,,,,,,,,,,,,,,,,,,,,,,,,,,,,
,,,,,,,5fc98a7db2180e4b23c6f5be,60568611ec04488a9e9da93b,60569dc677465645e18514a7,I am not familiar with Spanish,Midwest,NA,no,2021-03-20_20h14.49.809,empathy_intonation_perc,2020.2.10,Win32,60,,,,,,,,,,1,peruvian,1,1,1.71829,0,41,41,48,1,49,./stim/wavs/andalusian_mismatch_interrogative-partial-wh_Cuando-comia-la-fruta.wav,./stim/wavs/argentine_mismatch_interrogative-partial-wh_Cuando-comia-la-fruta.wav,./stim/wavs/castilian_mismatch_interrogative-partial-wh_Cuando-comia-la-fruta.wav,./stim/wavs/chilean_mismatch_interrogative-partial-wh_Cuando-comia-la-fruta.wav,./stim/wavs/cuban_mismatch_interrogative-partial-wh_Cuando-comia-la-fruta.wav,./stim/wavs/mexican_mismatch_interrogative-partial-wh_Cuando-comia-la-fruta.wav,./stim/wavs/peruvian_mismatch_interrogative-partial-wh_Cuando-comia-la-fruta.wav,./stim/wavs/puertorican_mismatch_interrogative-partial-wh_Cuando-comia-la-fruta.wav,,,,,,,,,,,,,,,,,,,,,,,,,,,,,,,,,,,,,,,,,,,,,,,,,,,,,,,,
,,,,,,,5fc98a7db2180e4b23c6f5be,60568611ec04488a9e9da93b,60569dc677465645e18514a7,I am not familiar with Spanish,Midwest,NA,no,2021-03-20_20h14.49.809,empathy_intonation_perc,2020.2.10,Win32,60,,,,,,,,,,0,argentine,1,0,1.708265,0,42,42,45,1,46,./stim/wavs/andalusian_mismatch_declarative-narrow-focus_Mi-madre-come-la-fruta.wav,./stim/wavs/argentine_mismatch_declarative-narrow-focus_Mi-madre-come-la-fruta.wav,./stim/wavs/castilian_mismatch_declarative-narrow-focus_Mi-madre-come-la-fruta.wav,./stim/wavs/chilean_mismatch_declarative-narrow-focus_Mi-madre-come-la-fruta.wav,./stim/wavs/cuban_mismatch_declarative-narrow-focus_Mi-madre-come-la-fruta.wav,./stim/wavs/mexican_mismatch_declarative-narrow-focus_Mi-madre-come-la-fruta.wav,./stim/wavs/peruvian_mismatch_declarative-narrow-focus_Mi-madre-come-la-fruta.wav,./stim/wavs/puertorican_mismatch_declarative-narrow-focus_Mi-madre-come-la-fruta.wav,,,,,,,,,,,,,,,,,,,,,,,,,,,,,,,,,,,,,,,,,,,,,,,,,,,,,,,,
,,,,,,,5fc98a7db2180e4b23c6f5be,60568611ec04488a9e9da93b,60569dc677465645e18514a7,I am not familiar with Spanish,Midwest,NA,no,2021-03-20_20h14.49.809,empathy_intonation_perc,2020.2.10,Win32,60,,,,,,,,,,0,chilean,1,0,1.450395,0,43,43,1,1,2,./stim/wavs/andalusian_match_declarative-broad-focus_Daniel-iba-a-Bolivia.wav,./stim/wavs/argentine_match_declarative-broad-focus_Daniel-iba-a-Bolivia.wav,./stim/wavs/castilian_match_declarative-broad-focus_Daniel-iba-a-Bolivia.wav,./stim/wavs/chilean_match_declarative-broad-focus_Daniel-iba-a-Bolivia.wav,./stim/wavs/cuban_match_declarative-broad-focus_Daniel-iba-a-Bolivia.wav,./stim/wavs/mexican_match_declarative-broad-focus_Daniel-iba-a-Bolivia.wav,./stim/wavs/peruvian_match_declarative-broad-focus_Daniel-iba-a-Bolivia.wav,./stim/wavs/puertorican_match_declarative-broad-focus_Daniel-iba-a-Bolivia.wav,,,,,,,,,,,,,,,,,,,,,,,,,,,,,,,,,,,,,,,,,,,,,,,,,,,,,,,,
,,,,,,,5fc98a7db2180e4b23c6f5be,60568611ec04488a9e9da93b,60569dc677465645e18514a7,I am not familiar with Spanish,Midwest,NA,no,2021-03-20_20h14.49.809,empathy_intonation_perc,2020.2.10,Win32,60,,,,,,,,,,0,andalusian,1,0,1.43283,0,44,44,46,1,47,./stim/wavs/andalusian_mismatch_declarative-narrow-focus_Mi-novio-viene-del-lago.wav,./stim/wavs/argentine_mismatch_declarative-narrow-focus_Mi-novio-viene-del-lago.wav,./stim/wavs/castilian_mismatch_declarative-narrow-focus_Mi-novio-viene-del-lago.wav,./stim/wavs/chilean_mismatch_declarative-narrow-focus_Mi-novio-viene-del-lago.wav,./stim/wavs/cuban_mismatch_declarative-narrow-focus_Mi-novio-viene-del-lago.wav,./stim/wavs/mexican_mismatch_declarative-narrow-focus_Mi-novio-viene-del-lago.wav,./stim/wavs/peruvian_mismatch_declarative-narrow-focus_Mi-novio-viene-del-lago.wav,./stim/wavs/puertorican_mismatch_declarative-narrow-focus_Mi-novio-viene-del-lago.wav,,,,,,,,,,,,,,,,,,,,,,,,,,,,,,,,,,,,,,,,,,,,,,,,,,,,,,,,
,,,,,,,5fc98a7db2180e4b23c6f5be,60568611ec04488a9e9da93b,60569dc677465645e18514a7,I am not familiar with Spanish,Midwest,NA,no,2021-03-20_20h14.49.809,empathy_intonation_perc,2020.2.10,Win32,60,,,,,,,,,,0,argentine,1,0,1.787645,0,45,45,39,1,40,./stim/wavs/andalusian_mismatch_declarative-broad-focus_Mi-tia-odia-la-lluvia.wav,./stim/wavs/argentine_mismatch_declarative-broad-focus_Mi-tia-odia-la-lluvia.wav,./stim/wavs/castilian_mismatch_declarative-broad-focus_Mi-tia-odia-la-lluvia.wav,./stim/wavs/chilean_mismatch_declarative-broad-focus_Mi-tia-odia-la-lluvia.wav,./stim/wavs/cuban_mismatch_declarative-broad-focus_Mi-tia-odia-la-lluvia.wav,./stim/wavs/mexican_mismatch_declarative-broad-focus_Mi-tia-odia-la-lluvia.wav,./stim/wavs/peruvian_mismatch_declarative-broad-focus_Mi-tia-odia-la-lluvia.wav,./stim/wavs/puertorican_mismatch_declarative-broad-focus_Mi-tia-odia-la-lluvia.wav,,,,,,,,,,,,,,,,,,,,,,,,,,,,,,,,,,,,,,,,,,,,,,,,,,,,,,,,
,,,,,,,5fc98a7db2180e4b23c6f5be,60568611ec04488a9e9da93b,60569dc677465645e18514a7,I am not familiar with Spanish,Midwest,NA,no,2021-03-20_20h14.49.809,empathy_intonation_perc,2020.2.10,Win32,60,,,,,,,,,,0,peruvian,1,0,1.686935,0,46,46,41,1,42,./stim/wavs/andalusian_mismatch_declarative-narrow-focus_El-hombre-mira-la-luna.wav,./stim/wavs/argentine_mismatch_declarative-narrow-focus_El-hombre-mira-la-luna.wav,./stim/wavs/castilian_mismatch_declarative-narrow-focus_El-hombre-mira-la-luna.wav,./stim/wavs/chilean_mismatch_declarative-narrow-focus_El-hombre-mira-la-luna.wav,./stim/wavs/cuban_mismatch_declarative-narrow-focus_El-hombre-mira-la-luna.wav,./stim/wavs/mexican_mismatch_declarative-narrow-focus_El-hombre-mira-la-luna.wav,./stim/wavs/peruvian_mismatch_declarative-narrow-focus_El-hombre-mira-la-luna.wav,./stim/wavs/puertorican_mismatch_declarative-narrow-focus_El-hombre-mira-la-luna.wav,,,,,,,,,,,,,,,,,,,,,,,,,,,,,,,,,,,,,,,,,,,,,,,,,,,,,,,,
,,,,,,,5fc98a7db2180e4b23c6f5be,60568611ec04488a9e9da93b,60569dc677465645e18514a7,I am not familiar with Spanish,Midwest,NA,no,2021-03-20_20h14.49.809,empathy_intonation_perc,2020.2.10,Win32,60,,,,,,,,,,1,peruvian,1,1,1.68572,0,47,47,31,1,32,./stim/wavs/andalusian_match_interrogative-total-yn_Marta-abre-el-regalo.wav,./stim/wavs/argentine_match_interrogative-total-yn_Marta-abre-el-regalo.wav,./stim/wavs/castilian_match_interrogative-total-yn_Marta-abre-el-regalo.wav,./stim/wavs/chilean_match_interrogative-total-yn_Marta-abre-el-regalo.wav,./stim/wavs/cuban_match_interrogative-total-yn_Marta-abre-el-regalo.wav,./stim/wavs/mexican_match_interrogative-total-yn_Marta-abre-el-regalo.wav,./stim/wavs/peruvian_match_interrogative-total-yn_Marta-abre-el-regalo.wav,./stim/wavs/puertorican_match_interrogative-total-yn_Marta-abre-el-regalo.wav,,,,,,,,,,,,,,,,,,,,,,,,,,,,,,,,,,,,,,,,,,,,,,,,,,,,,,,,
,,,,,,,5fc98a7db2180e4b23c6f5be,60568611ec04488a9e9da93b,60569dc677465645e18514a7,I am not familiar with Spanish,Midwest,NA,no,2021-03-20_20h14.49.809,empathy_intonation_perc,2020.2.10,Win32,60,,,,,,,,,,1,peruvian,1,1,1.847005,0,48,48,23,1,24,./stim/wavs/andalusian_match_interrogative-partial-wh_Por-que-iba-a-Bolivia.wav,./stim/wavs/argentine_match_interrogative-partial-wh_Por-que-iba-a-Bolivia.wav,./stim/wavs/castilian_match_interrogative-partial-wh_Por-que-iba-a-Bolivia.wav,./stim/wavs/chilean_match_interrogative-partial-wh_Por-que-iba-a-Bolivia.wav,./stim/wavs/cuban_match_interrogative-partial-wh_Por-que-iba-a-Bolivia.wav,./stim/wavs/mexican_match_interrogative-partial-wh_Por-que-iba-a-Bolivia.wav,./stim/wavs/peruvian_match_interrogative-partial-wh_Por-que-iba-a-Bolivia.wav,./stim/wavs/puertorican_match_interrogative-partial-wh_Por-que-iba-a-Bolivia.wav,,,,,,,,,,,,,,,,,,,,,,,,,,,,,,,,,,,,,,,,,,,,,,,,,,,,,,,,
,,,,,,,5fc98a7db2180e4b23c6f5be,60568611ec04488a9e9da93b,60569dc677465645e18514a7,I am not familiar with Spanish,Midwest,NA,no,2021-03-20_20h14.49.809,empathy_intonation_perc,2020.2.10,Win32,60,,,,,,,,,,0,argentine,1,0,1.87699,0,49,49,44,1,45,./stim/wavs/andalusian_mismatch_declarative-narrow-focus_La-nina-lava-el-plato.wav,./stim/wavs/argentine_mismatch_declarative-narrow-focus_La-nina-lava-el-plato.wav,./stim/wavs/castilian_mismatch_declarative-narrow-focus_La-nina-lava-el-plato.wav,./stim/wavs/chilean_mismatch_declarative-narrow-focus_La-nina-lava-el-plato.wav,./stim/wavs/cuban_mismatch_declarative-narrow-focus_La-nina-lava-el-plato.wav,./stim/wavs/mexican_mismatch_declarative-narrow-focus_La-nina-lava-el-plato.wav,./stim/wavs/peruvian_mismatch_declarative-narrow-focus_La-nina-lava-el-plato.wav,./stim/wavs/puertorican_mismatch_declarative-narrow-focus_La-nina-lava-el-plato.wav,,,,,,,,,,,,,,,,,,,,,,,,,,,,,,,,,,,,,,,,,,,,,,,,,,,,,,,,
,,,,,,,5fc98a7db2180e4b23c6f5be,60568611ec04488a9e9da93b,60569dc677465645e18514a7,I am not familiar with Spanish,Midwest,NA,no,2021-03-20_20h14.49.809,empathy_intonation_perc,2020.2.10,Win32,60,,,,,,,,,,1,cuban,1,1,2.515445,0,50,50,17,1,18,./stim/wavs/andalusian_match_interrogative-partial-wh_Cuando-leia-el-libro.wav,./stim/wavs/argentine_match_interrogative-partial-wh_Cuando-leia-el-libro.wav,./stim/wavs/castilian_match_interrogative-partial-wh_Cuando-leia-el-libro.wav,./stim/wavs/chilean_match_interrogative-partial-wh_Cuando-leia-el-libro.wav,./stim/wavs/cuban_match_interrogative-partial-wh_Cuando-leia-el-libro.wav,./stim/wavs/mexican_match_interrogative-partial-wh_Cuando-leia-el-libro.wav,./stim/wavs/peruvian_match_interrogative-partial-wh_Cuando-leia-el-libro.wav,./stim/wavs/puertorican_match_interrogative-partial-wh_Cuando-leia-el-libro.wav,,,,,,,,,,,,,,,,,,,,,,,,,,,,,,,,,,,,,,,,,,,,,,,,,,,,,,,,
,,,,,,,5fc98a7db2180e4b23c6f5be,60568611ec04488a9e9da93b,60569dc677465645e18514a7,I am not familiar with Spanish,Midwest,NA,no,2021-03-20_20h14.49.809,empathy_intonation_perc,2020.2.10,Win32,60,,,,,,,,,,1,puertorican,1,1,3.26509,0,51,51,21,1,22,./stim/wavs/andalusian_match_interrogative-partial-wh_Por-que-ama-la-navidad.wav,./stim/wavs/argentine_match_interrogative-partial-wh_Por-que-ama-la-navidad.wav,./stim/wavs/castilian_match_interrogative-partial-wh_Por-que-ama-la-navidad.wav,./stim/wavs/chilean_match_interrogative-partial-wh_Por-que-ama-la-navidad.wav,./stim/wavs/cuban_match_interrogative-partial-wh_Por-que-ama-la-navidad.wav,./stim/wavs/mexican_match_interrogative-partial-wh_Por-que-ama-la-navidad.wav,./stim/wavs/peruvian_match_interrogative-partial-wh_Por-que-ama-la-navidad.wav,./stim/wavs/puertorican_match_interrogative-partial-wh_Por-que-ama-la-navidad.wav,,,,,,,,,,,,,,,,,,,,,,,,,,,,,,,,,,,,,,,,,,,,,,,,,,,,,,,,
,,,,,,,5fc98a7db2180e4b23c6f5be,60568611ec04488a9e9da93b,60569dc677465645e18514a7,I am not familiar with Spanish,Midwest,NA,no,2021-03-20_20h14.49.809,empathy_intonation_perc,2020.2.10,Win32,60,,,,,,,,,,1,peruvian,1,1,2.82803,0,52,52,60,1,61,./stim/wavs/andalusian_mismatch_interrogative-total-yn_La-nina-lava-el-plato.wav,./stim/wavs/argentine_mismatch_interrogative-total-yn_La-nina-lava-el-plato.wav,./stim/wavs/castilian_mismatch_interrogative-total-yn_La-nina-lava-el-plato.wav,./stim/wavs/chilean_mismatch_interrogative-total-yn_La-nina-lava-el-plato.wav,./stim/wavs/cuban_mismatch_interrogative-total-yn_La-nina-lava-el-plato.wav,./stim/wavs/mexican_mismatch_interrogative-total-yn_La-nina-lava-el-plato.wav,./stim/wavs/peruvian_mismatch_interrogative-total-yn_La-nina-lava-el-plato.wav,./stim/wavs/puertorican_mismatch_interrogative-total-yn_La-nina-lava-el-plato.wav,,,,,,,,,,,,,,,,,,,,,,,,,,,,,,,,,,,,,,,,,,,,,,,,,,,,,,,,
,,,,,,,5fc98a7db2180e4b23c6f5be,60568611ec04488a9e9da93b,60569dc677465645e18514a7,I am not familiar with Spanish,Midwest,NA,no,2021-03-20_20h14.49.809,empathy_intonation_perc,2020.2.10,Win32,60,,,,,,,,,,0,peruvian,1,0,2.52024,0,53,53,38,1,39,./stim/wavs/andalusian_mismatch_declarative-broad-focus_Mi-novio-viene-del-lago.wav,./stim/wavs/argentine_mismatch_declarative-broad-focus_Mi-novio-viene-del-lago.wav,./stim/wavs/castilian_mismatch_declarative-broad-focus_Mi-novio-viene-del-lago.wav,./stim/wavs/chilean_mismatch_declarative-broad-focus_Mi-novio-viene-del-lago.wav,./stim/wavs/cuban_mismatch_declarative-broad-focus_Mi-novio-viene-del-lago.wav,./stim/wavs/mexican_mismatch_declarative-broad-focus_Mi-novio-viene-del-lago.wav,./stim/wavs/peruvian_mismatch_declarative-broad-focus_Mi-novio-viene-del-lago.wav,./stim/wavs/puertorican_mismatch_declarative-broad-focus_Mi-novio-viene-del-lago.wav,,,,,,,,,,,,,,,,,,,,,,,,,,,,,,,,,,,,,,,,,,,,,,,,,,,,,,,,
,,,,,,,5fc98a7db2180e4b23c6f5be,60568611ec04488a9e9da93b,60569dc677465645e18514a7,I am not familiar with Spanish,Midwest,NA,no,2021-03-20_20h14.49.809,empathy_intonation_perc,2020.2.10,Win32,60,,,,,,,,,,1,peruvian,1,1,2.316015,0,54,54,29,1,30,./stim/wavs/andalusian_match_interrogative-total-yn_Maria-bebe-el-vino.wav,./stim/wavs/argentine_match_interrogative-total-yn_Maria-bebe-el-vino.wav,./stim/wavs/castilian_match_interrogative-total-yn_Maria-bebe-el-vino.wav,./stim/wavs/chilean_match_interrogative-total-yn_Maria-bebe-el-vino.wav,./stim/wavs/cuban_match_interrogative-total-yn_Maria-bebe-el-vino.wav,./stim/wavs/mexican_match_interrogative-total-yn_Maria-bebe-el-vino.wav,./stim/wavs/peruvian_match_interrogative-total-yn_Maria-bebe-el-vino.wav,./stim/wavs/puertorican_match_interrogative-total-yn_Maria-bebe-el-vino.wav,,,,,,,,,,,,,,,,,,,,,,,,,,,,,,,,,,,,,,,,,,,,,,,,,,,,,,,,
,,,,,,,5fc98a7db2180e4b23c6f5be,60568611ec04488a9e9da93b,60569dc677465645e18514a7,I am not familiar with Spanish,Midwest,NA,no,2021-03-20_20h14.49.809,empathy_intonation_perc,2020.2.10,Win32,60,,,,,,,,,,1,cuban,1,1,2.53875,0,55,55,25,1,26,./stim/wavs/andalusian_match_interrogative-total-yn_Daniel-iba-a-Bolivia.wav,./stim/wavs/argentine_match_interrogative-total-yn_Daniel-iba-a-Bolivia.wav,./stim/wavs/castilian_match_interrogative-total-yn_Daniel-iba-a-Bolivia.wav,./stim/wavs/chilean_match_interrogative-total-yn_Daniel-iba-a-Bolivia.wav,./stim/wavs/cuban_match_interrogative-total-yn_Daniel-iba-a-Bolivia.wav,./stim/wavs/mexican_match_interrogative-total-yn_Daniel-iba-a-Bolivia.wav,./stim/wavs/peruvian_match_interrogative-total-yn_Daniel-iba-a-Bolivia.wav,./stim/wavs/puertorican_match_interrogative-total-yn_Daniel-iba-a-Bolivia.wav,,,,,,,,,,,,,,,,,,,,,,,,,,,,,,,,,,,,,,,,,,,,,,,,,,,,,,,,
,,,,,,,5fc98a7db2180e4b23c6f5be,60568611ec04488a9e9da93b,60569dc677465645e18514a7,I am not familiar with Spanish,Midwest,NA,no,2021-03-20_20h14.49.809,empathy_intonation_perc,2020.2.10,Win32,60,,,,,,,,,,0,cuban,1,0,1.76981,0,56,56,2,1,3,./stim/wavs/andalusian_match_declarative-broad-focus_David-leia-el-libro.wav,./stim/wavs/argentine_match_declarative-broad-focus_David-leia-el-libro.wav,./stim/wavs/castilian_match_declarative-broad-focus_David-leia-el-libro.wav,./stim/wavs/chilean_match_declarative-broad-focus_David-leia-el-libro.wav,./stim/wavs/cuban_match_declarative-broad-focus_David-leia-el-libro.wav,./stim/wavs/mexican_match_declarative-broad-focus_David-leia-el-libro.wav,./stim/wavs/peruvian_match_declarative-broad-focus_David-leia-el-libro.wav,./stim/wavs/puertorican_match_declarative-broad-focus_David-leia-el-libro.wav,,,,,,,,,,,,,,,,,,,,,,,,,,,,,,,,,,,,,,,,,,,,,,,,,,,,,,,,
,,,,,,,5fc98a7db2180e4b23c6f5be,60568611ec04488a9e9da93b,60569dc677465645e18514a7,I am not familiar with Spanish,Midwest,NA,no,2021-03-20_20h14.49.809,empathy_intonation_perc,2020.2.10,Win32,60,,,,,,,,,,0,castilian,1,0,2.103105,0,57,57,33,1,34,./stim/wavs/andalusian_mismatch_declarative-broad-focus_El-hombre-mira-la-luna.wav,./stim/wavs/argentine_mismatch_declarative-broad-focus_El-hombre-mira-la-luna.wav,./stim/wavs/castilian_mismatch_declarative-broad-focus_El-hombre-mira-la-luna.wav,./stim/wavs/chilean_mismatch_declarative-broad-focus_El-hombre-mira-la-luna.wav,./stim/wavs/cuban_mismatch_declarative-broad-focus_El-hombre-mira-la-luna.wav,./stim/wavs/mexican_mismatch_declarative-broad-focus_El-hombre-mira-la-luna.wav,./stim/wavs/peruvian_mismatch_declarative-broad-focus_El-hombre-mira-la-luna.wav,./stim/wavs/puertorican_mismatch_declarative-broad-focus_El-hombre-mira-la-luna.wav,,,,,,,,,,,,,,,,,,,,,,,,,,,,,,,,,,,,,,,,,,,,,,,,,,,,,,,,
,,,,,,,5fc98a7db2180e4b23c6f5be,60568611ec04488a9e9da93b,60569dc677465645e18514a7,I am not familiar with Spanish,Midwest,NA,no,2021-03-20_20h14.49.809,empathy_intonation_perc,2020.2.10,Win32,60,,,,,,,,,,1,argentine,1,1,2.51546,0,58,58,56,1,57,./stim/wavs/andalusian_mismatch_interrogative-total-yn_El-bebe-comia-muy-bien.wav,./stim/wavs/argentine_mismatch_interrogative-total-yn_El-bebe-comia-muy-bien.wav,./stim/wavs/castilian_mismatch_interrogative-total-yn_El-bebe-comia-muy-bien.wav,./stim/wavs/chilean_mismatch_interrogative-total-yn_El-bebe-comia-muy-bien.wav,./stim/wavs/cuban_mismatch_interrogative-total-yn_El-bebe-comia-muy-bien.wav,./stim/wavs/mexican_mismatch_interrogative-total-yn_El-bebe-comia-muy-bien.wav,./stim/wavs/peruvian_mismatch_interrogative-total-yn_El-bebe-comia-muy-bien.wav,./stim/wavs/puertorican_mismatch_interrogative-total-yn_El-bebe-comia-muy-bien.wav,,,,,,,,,,,,,,,,,,,,,,,,,,,,,,,,,,,,,,,,,,,,,,,,,,,,,,,,
,,,,,,,5fc98a7db2180e4b23c6f5be,60568611ec04488a9e9da93b,60569dc677465645e18514a7,I am not familiar with Spanish,Midwest,NA,no,2021-03-20_20h14.49.809,empathy_intonation_perc,2020.2.10,Win32,60,,,,,,,,,,0,andalusian,1,0,1.98326,0,59,59,8,1,9,./stim/wavs/andalusian_match_declarative-narrow-focus_Ana-lleva-el-abrigo.wav,./stim/wavs/argentine_match_declarative-narrow-focus_Ana-lleva-el-abrigo.wav,./stim/wavs/castilian_match_declarative-narrow-focus_Ana-lleva-el-abrigo.wav,./stim/wavs/chilean_match_declarative-narrow-focus_Ana-lleva-el-abrigo.wav,./stim/wavs/cuban_match_declarative-narrow-focus_Ana-lleva-el-abrigo.wav,./stim/wavs/mexican_match_declarative-narrow-focus_Ana-lleva-el-abrigo.wav,./stim/wavs/peruvian_match_declarative-narrow-focus_Ana-lleva-el-abrigo.wav,./stim/wavs/puertorican_match_declarative-narrow-focus_Ana-lleva-el-abrigo.wav,,,,,,,,,,,,,,,,,,,,,,,,,,,,,,,,,,,,,,,,,,,,,,,,,,,,,,,,
,,,,,,,5fc98a7db2180e4b23c6f5be,60568611ec04488a9e9da93b,60569dc677465645e18514a7,I am not familiar with Spanish,Midwest,NA,no,2021-03-20_20h14.49.809,empathy_intonation_perc,2020.2.10,Win32,60,,,,,,,,,,1,peruvian,1,1,1.62783,0,60,60,50,1,51,./stim/wavs/andalusian_mismatch_interrogative-partial-wh_Cuando-miraba-la-luna.wav,./stim/wavs/argentine_mismatch_interrogative-partial-wh_Cuando-miraba-la-luna.wav,./stim/wavs/castilian_mismatch_interrogative-partial-wh_Cuando-miraba-la-luna.wav,./stim/wavs/chilean_mismatch_interrogative-partial-wh_Cuando-miraba-la-luna.wav,./stim/wavs/cuban_mismatch_interrogative-partial-wh_Cuando-miraba-la-luna.wav,./stim/wavs/mexican_mismatch_interrogative-partial-wh_Cuando-miraba-la-luna.wav,./stim/wavs/peruvian_mismatch_interrogative-partial-wh_Cuando-miraba-la-luna.wav,./stim/wavs/puertorican_mismatch_interrogative-partial-wh_Cuando-miraba-la-luna.wav,,,,,,,,,,,,,,,,,,,,,,,,,,,,,,,,,,,,,,,,,,,,,,,,,,,,,,,,
,,,,,,,5fc98a7db2180e4b23c6f5be,60568611ec04488a9e9da93b,60569dc677465645e18514a7,I am not familiar with Spanish,Midwest,NA,no,2021-03-20_20h14.49.809,empathy_intonation_perc,2020.2.10,Win32,60,,,,,,,,,,1,mexican,1,1,1.63272,0,61,61,61,1,62,./stim/wavs/andalusian_mismatch_interrogative-total-yn_Mi-madre-come-la-fruta.wav,./stim/wavs/argentine_mismatch_interrogative-total-yn_Mi-madre-come-la-fruta.wav,./stim/wavs/castilian_mismatch_interrogative-total-yn_Mi-madre-come-la-fruta.wav,./stim/wavs/chilean_mismatch_interrogative-total-yn_Mi-madre-come-la-fruta.wav,./stim/wavs/cuban_mismatch_interrogative-total-yn_Mi-madre-come-la-fruta.wav,./stim/wavs/mexican_mismatch_interrogative-total-yn_Mi-madre-come-la-fruta.wav,./stim/wavs/peruvian_mismatch_interrogative-total-yn_Mi-madre-come-la-fruta.wav,./stim/wavs/puertorican_mismatch_interrogative-total-yn_Mi-madre-come-la-fruta.wav,,,,,,,,,,,,,,,,,,,,,,,,,,,,,,,,,,,,,,,,,,,,,,,,,,,,,,,,
,,,,,,,5fc98a7db2180e4b23c6f5be,60568611ec04488a9e9da93b,60569dc677465645e18514a7,I am not familiar with Spanish,Midwest,NA,no,2021-03-20_20h14.49.809,empathy_intonation_perc,2020.2.10,Win32,60,,,,,,,,,,0,chilean,1,0,3.47386,0,62,62,15,1,16,./stim/wavs/andalusian_match_declarative-narrow-focus_Marta-abre-el-regalo.wav,./stim/wavs/argentine_match_declarative-narrow-focus_Marta-abre-el-regalo.wav,./stim/wavs/castilian_match_declarative-narrow-focus_Marta-abre-el-regalo.wav,./stim/wavs/chilean_match_declarative-narrow-focus_Marta-abre-el-regalo.wav,./stim/wavs/cuban_match_declarative-narrow-focus_Marta-abre-el-regalo.wav,./stim/wavs/mexican_match_declarative-narrow-focus_Marta-abre-el-regalo.wav,./stim/wavs/peruvian_match_declarative-narrow-focus_Marta-abre-el-regalo.wav,./stim/wavs/puertorican_match_declarative-narrow-focus_Marta-abre-el-regalo.wav,,,,,,,,,,,,,,,,,,,,,,,,,,,,,,,,,,,,,,,,,,,,,,,,,,,,,,,,
,,,,,,,5fc98a7db2180e4b23c6f5be,60568611ec04488a9e9da93b,60569dc677465645e18514a7,I am not familiar with Spanish,Midwest,NA,no,2021-03-20_20h14.49.809,empathy_intonation_perc,2020.2.10,Win32,60,,,,,,,,,,0,castilian,1,0,1.53595,0,63,63,0,1,1,./stim/wavs/andalusian_match_declarative-broad-focus_Ana-lleva-el-abrigo.wav,./stim/wavs/argentine_match_declarative-broad-focus_Ana-lleva-el-abrigo.wav,./stim/wavs/castilian_match_declarative-broad-focus_Ana-lleva-el-abrigo.wav,./stim/wavs/chilean_match_declarative-broad-focus_Ana-lleva-el-abrigo.wav,./stim/wavs/cuban_match_declarative-broad-focus_Ana-lleva-el-abrigo.wav,./stim/wavs/mexican_match_declarative-broad-focus_Ana-lleva-el-abrigo.wav,./stim/wavs/peruvian_match_declarative-broad-focus_Ana-lleva-el-abrigo.wav,./stim/wavs/puertorican_match_declarative-broad-focus_Ana-lleva-el-abrigo.wav,,,,,,,,,,,,,,,,,,,,,,,,,,,,,,,,,,,,,,,,,,,,,,,,,,,,,,,,
,,,,,,,5fc98a7db2180e4b23c6f5be,60568611ec04488a9e9da93b,60569dc677465645e18514a7,I am not familiar with Spanish,Midwest,NA,no,2021-03-20_20h14.49.809,empathy_intonation_perc,2020.2.10,Win32,60,,,,,,,,,,,,,,,,,,,,,,,,,,,,,h,1,5.191565,0,0,0,0,1,,,,,,,,,,,,,,,,,,,,,,,,,,,,,,,,,,,,,,,,,,,,,,,,
,,,,,"Great! Now we will move on. The next task consists of about 60 trials, in each of which you will see a string of letters. 
  
  Your task is to decide whether this is a real Spanish word or not.",(press the spacebar to continue),5fc98a7db2180e4b23c6f5be,60568611ec04488a9e9da93b,60569dc677465645e18514a7,I am not familiar with Spanish,Midwest,NA,no,2021-03-20_20h14.49.809,empathy_intonation_perc,2020.2.10,Win32,60,,,,,,,,,,,,,,,,,,,,,,,,,,,,,,,,,,,,,0,0,0,0,1,,,,,,,,,,,,,,,,,,,,,,,,,,,,,,,,,,,,,,,,,,,
,,,,,"If you think it is an existing Spanish word, you type '1' (for 'REAL'), and if you think it is not an existing Spanish word, you type '0' (for 'FAKE').",(press the spacebar to continue),5fc98a7db2180e4b23c6f5be,60568611ec04488a9e9da93b,60569dc677465645e18514a7,I am not familiar with Spanish,Midwest,NA,no,2021-03-20_20h14.49.809,empathy_intonation_perc,2020.2.10,Win32,60,,,,,,,,,,,,,,,,,,,,,,,,,,,,,,,,,,,,,0,1,1,1,1,,,,,,,,,,,,,,,,,,,,,,,,,,,,,,,,,,,,,,,,,,,
,,,,,"If you are sure that the word exists, even though you dont know its exact meaning, you may still respond '1' (REAL). 
  
  But if you are not sure if it is an existing word, you should respond '0' (FAKE).
  
  Let's do a practice round...",(press the spacebar to continue),5fc98a7db2180e4b23c6f5be,60568611ec04488a9e9da93b,60569dc677465645e18514a7,I am not familiar with Spanish,Midwest,NA,no,2021-03-20_20h14.49.809,empathy_intonation_perc,2020.2.10,Win32,60,,,,,,,,,,,,,,,,,,,,,,,,,,,,,,,,,,,,,0,2,2,2,1,,,,,,,,,,,,,,,,,,,,,,,,,,,,,,,,,,,,,,,,,,,
,,,,,,,5fc98a7db2180e4b23c6f5be,60568611ec04488a9e9da93b,60569dc677465645e18514a7,I am not familiar with Spanish,Midwest,NA,no,2021-03-20_20h14.49.809,empathy_intonation_perc,2020.2.10,Win32,60,,,,,,,,,,0,,,,,,,,,,,,,,,,,,,,,,,,,,,,,,,,1,0,2.18016,0,0,0,0,1,0,depiste,REAL,FAKE,,,,,,,,,,,,,,,,,,,,,,,,,,,,,,,
,,,,,,,5fc98a7db2180e4b23c6f5be,60568611ec04488a9e9da93b,60569dc677465645e18514a7,I am not familiar with Spanish,Midwest,NA,no,2021-03-20_20h14.49.809,empathy_intonation_perc,2020.2.10,Win32,60,,,,,,,,,,1,,,,,,,,,,,,,,,,,,,,,,,,,,,,,,,,1,1,1.467885,0,1,1,1,1,0,s,REAL,FAKE,,,,,,,,,,,,,,,,,,,,,,,,,,,,,,,
,,,,,,,5fc98a7db2180e4b23c6f5be,60568611ec04488a9e9da93b,60569dc677465645e18514a7,I am not familiar with Spanish,Midwest,NA,no,2021-03-20_20h14.49.809,empathy_intonation_perc,2020.2.10,Win32,60,,,,,,,,,,0,,,,,,,,,,,,,,,,,,,,,,,,,,,,,,,,1,0,1.114695,0,2,2,2,1,0,con,REAL,FAKE,,,,,,,,,,,,,,,,,,,,,,,,,,,,,,,
,,,,,,,5fc98a7db2180e4b23c6f5be,60568611ec04488a9e9da93b,60569dc677465645e18514a7,I am not familiar with Spanish,Midwest,NA,no,2021-03-20_20h14.49.809,empathy_intonation_perc,2020.2.10,Win32,60,,,,,,,,,,0,,,,,,,,,,,,,,,,,,,,,,,,,,,,,,,,1,0,1.10586,0,3,3,3,1,0,calpar,REAL,FAKE,,,,,,,,,,,,,,,,,,,,,,,,,,,,,,,
,,,,,,,5fc98a7db2180e4b23c6f5be,60568611ec04488a9e9da93b,60569dc677465645e18514a7,I am not familiar with Spanish,Midwest,NA,no,2021-03-20_20h14.49.809,empathy_intonation_perc,2020.2.10,Win32,60,,,,,,,,,,0,,,,,,,,,,,,,,,,,,,,,,,,,,,,,,,,0,1,1.854385,0,4,4,4,1,0,joten,REAL,FAKE,,,,,,,,,,,,,,,,,,,,,,,,,,,,,,,
,,,,,,,5fc98a7db2180e4b23c6f5be,60568611ec04488a9e9da93b,60569dc677465645e18514a7,I am not familiar with Spanish,Midwest,NA,no,2021-03-20_20h14.49.809,empathy_intonation_perc,2020.2.10,Win32,60,,,,,,,,,,1,,,,,,,,,,,,,,,,,,,,,,,,,,,,,,,,1,1,1.295705,0,5,5,5,1,0,sacapuntas,REAL,FAKE,,,,,,,,,,,,,,,,,,,,,,,,,,,,,,,
,,,,,,,5fc98a7db2180e4b23c6f5be,60568611ec04488a9e9da93b,60569dc677465645e18514a7,I am not familiar with Spanish,Midwest,NA,no,2021-03-20_20h14.49.809,empathy_intonation_perc,2020.2.10,Win32,60,,,,,,,,,,0,,,,,,,,,,,,,,,,,,,,,,,,,,,,,,,,0,1,1.301595,0,6,6,6,1,0,priba,REAL,FAKE,,,,,,,,,,,,,,,,,,,,,,,,,,,,,,,
,,,,,,,5fc98a7db2180e4b23c6f5be,60568611ec04488a9e9da93b,60569dc677465645e18514a7,I am not familiar with Spanish,Midwest,NA,no,2021-03-20_20h14.49.809,empathy_intonation_perc,2020.2.10,Win32,60,,,,,,,,,,0,,,,,,,,,,,,,,,,,,,,,,,,,,,,,,,,1,0,0.881365,0,7,7,7,1,0,pelasula,REAL,FAKE,,,,,,,,,,,,,,,,,,,,,,,,,,,,,,,
,,,,,,,5fc98a7db2180e4b23c6f5be,60568611ec04488a9e9da93b,60569dc677465645e18514a7,I am not familiar with Spanish,Midwest,NA,no,2021-03-20_20h14.49.809,empathy_intonation_perc,2020.2.10,Win32,60,,,,,,,,,,1,,,,,,,,,,,,,,,,,,,,,,,,,,,,,,,,1,1,1.048865,0,8,8,8,1,0,bien,REAL,FAKE,,,,,,,,,,,,,,,,,,,,,,,,,,,,,,,
,,,,,,,5fc98a7db2180e4b23c6f5be,60568611ec04488a9e9da93b,60569dc677465645e18514a7,I am not familiar with Spanish,Midwest,NA,no,2021-03-20_20h14.49.809,empathy_intonation_perc,2020.2.10,Win32,60,,,,,,,,,,1,,,,,,,,,,,,,,,,,,,,,,,,,,,,,,,,1,1,1.12355,0,9,9,9,1,0,casa,REAL,FAKE,,,,,,,,,,,,,,,,,,,,,,,,,,,,,,,
,,,,,,,5fc98a7db2180e4b23c6f5be,60568611ec04488a9e9da93b,60569dc677465645e18514a7,I am not familiar with Spanish,Midwest,NA,no,2021-03-20_20h14.49.809,empathy_intonation_perc,2020.2.10,Win32,60,,,,,,,,,,0,,,,,,,,,,,,,,,,,,,,,,,,,,,,,,,,1,0,1.28266,0,10,10,10,1,0,lejo,REAL,FAKE,,,,,,,,,,,,,,,,,,,,,,,,,,,,,,,
,,,,,,,5fc98a7db2180e4b23c6f5be,60568611ec04488a9e9da93b,60569dc677465645e18514a7,I am not familiar with Spanish,Midwest,NA,no,2021-03-20_20h14.49.809,empathy_intonation_perc,2020.2.10,Win32,60,,,,,,,,,,0,,,,,,,,,,,,,,,,,,,,,,,,,,,,,,,,0,1,1.38059,0,11,11,11,1,0,pretantas,REAL,FAKE,,,,,,,,,,,,,,,,,,,,,,,,,,,,,,,
,,,,,,,5fc98a7db2180e4b23c6f5be,60568611ec04488a9e9da93b,60569dc677465645e18514a7,I am not familiar with Spanish,Midwest,NA,no,2021-03-20_20h14.49.809,empathy_intonation_perc,2020.2.10,Win32,60,,,,,,,,,,0,,,,,,,,,,,,,,,,,,,,,,,,,,,,,,,,,,,,,,,,27,acutacin,,,1,0,1.347645,0,0,0,26,1,REAL,FAKE,,,,,,,,,,,,,,,,,,,,,
,,,,,,,5fc98a7db2180e4b23c6f5be,60568611ec04488a9e9da93b,60569dc677465645e18514a7,I am not familiar with Spanish,Midwest,NA,no,2021-03-20_20h14.49.809,empathy_intonation_perc,2020.2.10,Win32,60,,,,,,,,,,1,,,,,,,,,,,,,,,,,,,,,,,,,,,,,,,,,,,,,,,,88,acantilado,,,0,0,1.51342,0,1,1,87,1,REAL,FAKE,,,,,,,,,,,,,,,,,,,,,
,,,,,,,5fc98a7db2180e4b23c6f5be,60568611ec04488a9e9da93b,60569dc677465645e18514a7,I am not familiar with Spanish,Midwest,NA,no,2021-03-20_20h14.49.809,empathy_intonation_perc,2020.2.10,Win32,60,,,,,,,,,,1,,,,,,,,,,,,,,,,,,,,,,,,,,,,,,,,,,,,,,,,12,asesinato,,,0,0,1.653305,0,2,2,11,1,REAL,FAKE,,,,,,,,,,,,,,,,,,,,,
,,,,,,,5fc98a7db2180e4b23c6f5be,60568611ec04488a9e9da93b,60569dc677465645e18514a7,I am not familiar with Spanish,Midwest,NA,no,2021-03-20_20h14.49.809,empathy_intonation_perc,2020.2.10,Win32,60,,,,,,,,,,1,,,,,,,,,,,,,,,,,,,,,,,,,,,,,,,,,,,,,,,,73,hervidor,,,1,1,2.921385,0,3,3,72,1,REAL,FAKE,,,,,,,,,,,,,,,,,,,,,
,,,,,,,5fc98a7db2180e4b23c6f5be,60568611ec04488a9e9da93b,60569dc677465645e18514a7,I am not familiar with Spanish,Midwest,NA,no,2021-03-20_20h14.49.809,empathy_intonation_perc,2020.2.10,Win32,60,,,,,,,,,,0,,,,,,,,,,,,,,,,,,,,,,,,,,,,,,,,,,,,,,,,32,fatacidad,,,1,0,2.532465,0,4,4,31,1,REAL,FAKE,,,,,,,,,,,,,,,,,,,,,
,,,,,,,5fc98a7db2180e4b23c6f5be,60568611ec04488a9e9da93b,60569dc677465645e18514a7,I am not familiar with Spanish,Midwest,NA,no,2021-03-20_20h14.49.809,empathy_intonation_perc,2020.2.10,Win32,60,,,,,,,,,,1,,,,,,,,,,,,,,,,,,,,,,,,,,,,,,,,,,,,,,,,76,atar,,,1,1,1.56538,0,5,5,75,1,REAL,FAKE,,,,,,,,,,,,,,,,,,,,,
,,,,,,,5fc98a7db2180e4b23c6f5be,60568611ec04488a9e9da93b,60569dc677465645e18514a7,I am not familiar with Spanish,Midwest,NA,no,2021-03-20_20h14.49.809,empathy_intonation_perc,2020.2.10,Win32,60,,,,,,,,,,1,,,,,,,,,,,,,,,,,,,,,,,,,,,,,,,,,,,,,,,,22,lacayo,,,0,0,0.88337,0,6,6,21,1,REAL,FAKE,,,,,,,,,,,,,,,,,,,,,
,,,,,,,5fc98a7db2180e4b23c6f5be,60568611ec04488a9e9da93b,60569dc677465645e18514a7,I am not familiar with Spanish,Midwest,NA,no,2021-03-20_20h14.49.809,empathy_intonation_perc,2020.2.10,Win32,60,,,,,,,,,,0,,,,,,,,,,,,,,,,,,,,,,,,,,,,,,,,,,,,,,,,58,plaudir,,,0,1,2.456995,0,7,7,57,1,REAL,FAKE,,,,,,,,,,,,,,,,,,,,,
,,,,,,,5fc98a7db2180e4b23c6f5be,60568611ec04488a9e9da93b,60569dc677465645e18514a7,I am not familiar with Spanish,Midwest,NA,no,2021-03-20_20h14.49.809,empathy_intonation_perc,2020.2.10,Win32,60,,,,,,,,,,1,,,,,,,,,,,,,,,,,,,,,,,,,,,,,,,,,,,,,,,,78,frondoso,,,1,1,1.10742,0,8,8,77,1,REAL,FAKE,,,,,,,,,,,,,,,,,,,,,
,,,,,,,5fc98a7db2180e4b23c6f5be,60568611ec04488a9e9da93b,60569dc677465645e18514a7,I am not familiar with Spanish,Midwest,NA,no,2021-03-20_20h14.49.809,empathy_intonation_perc,2020.2.10,Win32,60,,,,,,,,,,1,,,,,,,,,,,,,,,,,,,,,,,,,,,,,,,,,,,,,,,,51,candado,,,0,0,1.51699,0,9,9,50,1,REAL,FAKE,,,,,,,,,,,,,,,,,,,,,
,,,,,,,5fc98a7db2180e4b23c6f5be,60568611ec04488a9e9da93b,60569dc677465645e18514a7,I am not familiar with Spanish,Midwest,NA,no,2021-03-20_20h14.49.809,empathy_intonation_perc,2020.2.10,Win32,60,,,,,,,,,,0,,,,,,,,,,,,,,,,,,,,,,,,,,,,,,,,,,,,,,,,50,flamida,,,1,0,1.003445,0,10,10,49,1,REAL,FAKE,,,,,,,,,,,,,,,,,,,,,
,,,,,,,5fc98a7db2180e4b23c6f5be,60568611ec04488a9e9da93b,60569dc677465645e18514a7,I am not familiar with Spanish,Midwest,NA,no,2021-03-20_20h14.49.809,empathy_intonation_perc,2020.2.10,Win32,60,,,,,,,,,,1,,,,,,,,,,,,,,,,,,,,,,,,,,,,,,,,,,,,,,,,38,estornudar,,,0,0,1.802005,0,11,11,37,1,REAL,FAKE,,,,,,,,,,,,,,,,,,,,,
,,,,,,,5fc98a7db2180e4b23c6f5be,60568611ec04488a9e9da93b,60569dc677465645e18514a7,I am not familiar with Spanish,Midwest,NA,no,2021-03-20_20h14.49.809,empathy_intonation_perc,2020.2.10,Win32,60,,,,,,,,,,1,,,,,,,,,,,,,,,,,,,,,,,,,,,,,,,,,,,,,,,,39,torpe,,,1,1,0.92687,0,12,12,38,1,REAL,FAKE,,,,,,,,,,,,,,,,,,,,,
,,,,,,,5fc98a7db2180e4b23c6f5be,60568611ec04488a9e9da93b,60569dc677465645e18514a7,I am not familiar with Spanish,Midwest,NA,no,2021-03-20_20h14.49.809,empathy_intonation_perc,2020.2.10,Win32,60,,,,,,,,,,1,,,,,,,,,,,,,,,,,,,,,,,,,,,,,,,,,,,,,,,,11,cenefa,,,0,0,1.023935,0,13,13,10,1,REAL,FAKE,,,,,,,,,,,,,,,,,,,,,
,,,,,,,5fc98a7db2180e4b23c6f5be,60568611ec04488a9e9da93b,60569dc677465645e18514a7,I am not familiar with Spanish,Midwest,NA,no,2021-03-20_20h14.49.809,empathy_intonation_perc,2020.2.10,Win32,60,,,,,,,,,,1,,,,,,,,,,,,,,,,,,,,,,,,,,,,,,,,,,,,,,,,36,loro,,,1,1,1.155805,0,14,14,35,1,REAL,FAKE,,,,,,,,,,,,,,,,,,,,,
,,,,,,,5fc98a7db2180e4b23c6f5be,60568611ec04488a9e9da93b,60569dc677465645e18514a7,I am not familiar with Spanish,Midwest,NA,no,2021-03-20_20h14.49.809,empathy_intonation_perc,2020.2.10,Win32,60,,,,,,,,,,1,,,,,,,,,,,,,,,,,,,,,,,,,,,,,,,,,,,,,,,,5,zapato,,,1,1,1.34205,0,15,15,4,1,REAL,FAKE,,,,,,,,,,,,,,,,,,,,,
,,,,,,,5fc98a7db2180e4b23c6f5be,60568611ec04488a9e9da93b,60569dc677465645e18514a7,I am not familiar with Spanish,Midwest,NA,no,2021-03-20_20h14.49.809,empathy_intonation_perc,2020.2.10,Win32,60,,,,,,,,,,1,,,,,,,,,,,,,,,,,,,,,,,,,,,,,,,,,,,,,,,,67,cabello,,,1,1,1.60021,0,16,16,66,1,REAL,FAKE,,,,,,,,,,,,,,,,,,,,,
,,,,,,,5fc98a7db2180e4b23c6f5be,60568611ec04488a9e9da93b,60569dc677465645e18514a7,I am not familiar with Spanish,Midwest,NA,no,2021-03-20_20h14.49.809,empathy_intonation_perc,2020.2.10,Win32,60,,,,,,,,,,0,,,,,,,,,,,,,,,,,,,,,,,,,,,,,,,,,,,,,,,,72,pemicin,,,1,0,1.80064,0,17,17,71,1,REAL,FAKE,,,,,,,,,,,,,,,,,,,,,
,,,,,,,5fc98a7db2180e4b23c6f5be,60568611ec04488a9e9da93b,60569dc677465645e18514a7,I am not familiar with Spanish,Midwest,NA,no,2021-03-20_20h14.49.809,empathy_intonation_perc,2020.2.10,Win32,60,,,,,,,,,,1,,,,,,,,,,,,,,,,,,,,,,,,,,,,,,,,,,,,,,,,54,fomentar,,,0,0,0.852945,0,18,18,53,1,REAL,FAKE,,,,,,,,,,,,,,,,,,,,,
,,,,,,,5fc98a7db2180e4b23c6f5be,60568611ec04488a9e9da93b,60569dc677465645e18514a7,I am not familiar with Spanish,Midwest,NA,no,2021-03-20_20h14.49.809,empathy_intonation_perc,2020.2.10,Win32,60,,,,,,,,,,1,,,,,,,,,,,,,,,,,,,,,,,,,,,,,,,,,,,,,,,,55,nevar,,,0,0,1.02836,0,19,19,54,1,REAL,FAKE,,,,,,,,,,,,,,,,,,,,,
,,,,,,,5fc98a7db2180e4b23c6f5be,60568611ec04488a9e9da93b,60569dc677465645e18514a7,I am not familiar with Spanish,Midwest,NA,no,2021-03-20_20h14.49.809,empathy_intonation_perc,2020.2.10,Win32,60,,,,,,,,,,1,,,,,,,,,,,,,,,,,,,,,,,,,,,,,,,,,,,,,,,,77,tiburn,,,1,1,1.434005,0,20,20,76,1,REAL,FAKE,,,,,,,,,,,,,,,,,,,,,
,,,,,,,5fc98a7db2180e4b23c6f5be,60568611ec04488a9e9da93b,60569dc677465645e18514a7,I am not familiar with Spanish,Midwest,NA,no,2021-03-20_20h14.49.809,empathy_intonation_perc,2020.2.10,Win32,60,,,,,,,,,,0,,,,,,,,,,,,,,,,,,,,,,,,,,,,,,,,,,,,,,,,66,hacido,,,1,0,1.48541,0,21,21,65,1,REAL,FAKE,,,,,,,,,,,,,,,,,,,,,
,,,,,,,5fc98a7db2180e4b23c6f5be,60568611ec04488a9e9da93b,60569dc677465645e18514a7,I am not familiar with Spanish,Midwest,NA,no,2021-03-20_20h14.49.809,empathy_intonation_perc,2020.2.10,Win32,60,,,,,,,,,,0,,,,,,,,,,,,,,,,,,,,,,,,,,,,,,,,,,,,,,,,18,arsa,,,1,0,1.5359,0,22,22,17,1,REAL,FAKE,,,,,,,,,,,,,,,,,,,,,
,,,,,,,5fc98a7db2180e4b23c6f5be,60568611ec04488a9e9da93b,60569dc677465645e18514a7,I am not familiar with Spanish,Midwest,NA,no,2021-03-20_20h14.49.809,empathy_intonation_perc,2020.2.10,Win32,60,,,,,,,,,,1,,,,,,,,,,,,,,,,,,,,,,,,,,,,,,,,,,,,,,,,20,vido,,,1,1,1.128305,0,23,23,19,1,REAL,FAKE,,,,,,,,,,,,,,,,,,,,,
,,,,,,,5fc98a7db2180e4b23c6f5be,60568611ec04488a9e9da93b,60569dc677465645e18514a7,I am not familiar with Spanish,Midwest,NA,no,2021-03-20_20h14.49.809,empathy_intonation_perc,2020.2.10,Win32,60,,,,,,,,,,1,,,,,,,,,,,,,,,,,,,,,,,,,,,,,,,,,,,,,,,,13,helar,,,0,0,0.7698,0,24,24,12,1,REAL,FAKE,,,,,,,,,,,,,,,,,,,,,
,,,,,,,5fc98a7db2180e4b23c6f5be,60568611ec04488a9e9da93b,60569dc677465645e18514a7,I am not familiar with Spanish,Midwest,NA,no,2021-03-20_20h14.49.809,empathy_intonation_perc,2020.2.10,Win32,60,,,,,,,,,,1,,,,,,,,,,,,,,,,,,,,,,,,,,,,,,,,,,,,,,,,49,ganar,,,0,0,0.80169,0,25,25,48,1,REAL,FAKE,,,,,,,,,,,,,,,,,,,,,
,,,,,,,5fc98a7db2180e4b23c6f5be,60568611ec04488a9e9da93b,60569dc677465645e18514a7,I am not familiar with Spanish,Midwest,NA,no,2021-03-20_20h14.49.809,empathy_intonation_perc,2020.2.10,Win32,60,,,,,,,,,,1,,,,,,,,,,,,,,,,,,,,,,,,,,,,,,,,,,,,,,,,40,alfombra,,,0,0,1.15232,0,26,26,39,1,REAL,FAKE,,,,,,,,,,,,,,,,,,,,,
,,,,,,,5fc98a7db2180e4b23c6f5be,60568611ec04488a9e9da93b,60569dc677465645e18514a7,I am not familiar with Spanish,Midwest,NA,no,2021-03-20_20h14.49.809,empathy_intonation_perc,2020.2.10,Win32,60,,,,,,,,,,1,,,,,,,,,,,,,,,,,,,,,,,,,,,,,,,,,,,,,,,,80,hormiga,,,0,0,1.15665,0,27,27,79,1,REAL,FAKE,,,,,,,,,,,,,,,,,,,,,
,,,,,,,5fc98a7db2180e4b23c6f5be,60568611ec04488a9e9da93b,60569dc677465645e18514a7,I am not familiar with Spanish,Midwest,NA,no,2021-03-20_20h14.49.809,empathy_intonation_perc,2020.2.10,Win32,60,,,,,,,,,,1,,,,,,,,,,,,,,,,,,,,,,,,,,,,,,,,,,,,,,,,64,orgulloso,,,0,0,1.30438,0,28,28,63,1,REAL,FAKE,,,,,,,,,,,,,,,,,,,,,
,,,,,,,5fc98a7db2180e4b23c6f5be,60568611ec04488a9e9da93b,60569dc677465645e18514a7,I am not familiar with Spanish,Midwest,NA,no,2021-03-20_20h14.49.809,empathy_intonation_perc,2020.2.10,Win32,60,,,,,,,,,,1,,,,,,,,,,,,,,,,,,,,,,,,,,,,,,,,,,,,,,,,14,yunque,,,0,0,1.11165,0,29,29,13,1,REAL,FAKE,,,,,,,,,,,,,,,,,,,,,
,,,,,,,5fc98a7db2180e4b23c6f5be,60568611ec04488a9e9da93b,60569dc677465645e18514a7,I am not familiar with Spanish,Midwest,NA,no,2021-03-20_20h14.49.809,empathy_intonation_perc,2020.2.10,Win32,60,,,,,,,,,,1,,,,,,,,,,,,,,,,,,,,,,,,,,,,,,,,,,,,,,,,83,guante,,,1,1,0.93419,0,30,30,82,1,REAL,FAKE,,,,,,,,,,,,,,,,,,,,,
,,,,,,,5fc98a7db2180e4b23c6f5be,60568611ec04488a9e9da93b,60569dc677465645e18514a7,I am not familiar with Spanish,Midwest,NA,no,2021-03-20_20h14.49.809,empathy_intonation_perc,2020.2.10,Win32,60,,,,,,,,,,1,,,,,,,,,,,,,,,,,,,,,,,,,,,,,,,,,,,,,,,,15,regar,,,0,0,0.83445,0,31,31,14,1,REAL,FAKE,,,,,,,,,,,,,,,,,,,,,
,,,,,,,5fc98a7db2180e4b23c6f5be,60568611ec04488a9e9da93b,60569dc677465645e18514a7,I am not familiar with Spanish,Midwest,NA,no,2021-03-20_20h14.49.809,empathy_intonation_perc,2020.2.10,Win32,60,,,,,,,,,,1,,,,,,,,,,,,,,,,,,,,,,,,,,,,,,,,,,,,,,,,25,bisagra,,,0,0,1.20402,0,32,32,24,1,REAL,FAKE,,,,,,,,,,,,,,,,,,,,,
,,,,,,,5fc98a7db2180e4b23c6f5be,60568611ec04488a9e9da93b,60569dc677465645e18514a7,I am not familiar with Spanish,Midwest,NA,no,2021-03-20_20h14.49.809,empathy_intonation_perc,2020.2.10,Win32,60,,,,,,,,,,1,,,,,,,,,,,,,,,,,,,,,,,,,,,,,,,,,,,,,,,,46,martillo,,,0,0,1.18395,0,33,33,45,1,REAL,FAKE,,,,,,,,,,,,,,,,,,,,,
,,,,,,,5fc98a7db2180e4b23c6f5be,60568611ec04488a9e9da93b,60569dc677465645e18514a7,I am not familiar with Spanish,Midwest,NA,no,2021-03-20_20h14.49.809,empathy_intonation_perc,2020.2.10,Win32,60,,,,,,,,,,1,,,,,,,,,,,,,,,,,,,,,,,,,,,,,,,,,,,,,,,,52,camisa,,,1,1,0.924725,0,34,34,51,1,REAL,FAKE,,,,,,,,,,,,,,,,,,,,,
,,,,,,,5fc98a7db2180e4b23c6f5be,60568611ec04488a9e9da93b,60569dc677465645e18514a7,I am not familiar with Spanish,Midwest,NA,no,2021-03-20_20h14.49.809,empathy_intonation_perc,2020.2.10,Win32,60,,,,,,,,,,1,,,,,,,,,,,,,,,,,,,,,,,,,,,,,,,,,,,,,,,,71,polvoriento,,,0,0,1.347635,0,35,35,70,1,REAL,FAKE,,,,,,,,,,,,,,,,,,,,,
,,,,,,,5fc98a7db2180e4b23c6f5be,60568611ec04488a9e9da93b,60569dc677465645e18514a7,I am not familiar with Spanish,Midwest,NA,no,2021-03-20_20h14.49.809,empathy_intonation_perc,2020.2.10,Win32,60,,,,,,,,,,0,,,,,,,,,,,,,,,,,,,,,,,,,,,,,,,,,,,,,,,,16,abracer,,,0,1,1.787245,0,36,36,15,1,REAL,FAKE,,,,,,,,,,,,,,,,,,,,,
,,,,,,,5fc98a7db2180e4b23c6f5be,60568611ec04488a9e9da93b,60569dc677465645e18514a7,I am not familiar with Spanish,Midwest,NA,no,2021-03-20_20h14.49.809,empathy_intonation_perc,2020.2.10,Win32,60,,,,,,,,,,1,,,,,,,,,,,,,,,,,,,,,,,,,,,,,,,,,,,,,,,,9,hacha,,,1,1,0.89483,0,37,37,8,1,REAL,FAKE,,,,,,,,,,,,,,,,,,,,,
,,,,,,,5fc98a7db2180e4b23c6f5be,60568611ec04488a9e9da93b,60569dc677465645e18514a7,I am not familiar with Spanish,Midwest,NA,no,2021-03-20_20h14.49.809,empathy_intonation_perc,2020.2.10,Win32,60,,,,,,,,,,1,,,,,,,,,,,,,,,,,,,,,,,,,,,,,,,,,,,,,,,,69,engatusar,,,0,0,0.891285,0,38,38,68,1,REAL,FAKE,,,,,,,,,,,,,,,,,,,,,
,,,,,,,5fc98a7db2180e4b23c6f5be,60568611ec04488a9e9da93b,60569dc677465645e18514a7,I am not familiar with Spanish,Midwest,NA,no,2021-03-20_20h14.49.809,empathy_intonation_perc,2020.2.10,Win32,60,,,,,,,,,,0,,,,,,,,,,,,,,,,,,,,,,,,,,,,,,,,,,,,,,,,29,decar,,,1,0,0.972975,0,39,39,28,1,REAL,FAKE,,,,,,,,,,,,,,,,,,,,,
,,,,,,,5fc98a7db2180e4b23c6f5be,60568611ec04488a9e9da93b,60569dc677465645e18514a7,I am not familiar with Spanish,Midwest,NA,no,2021-03-20_20h14.49.809,empathy_intonation_perc,2020.2.10,Win32,60,,,,,,,,,,0,,,,,,,,,,,,,,,,,,,,,,,,,,,,,,,,,,,,,,,,17,floroso,,,1,0,1.15068,0,40,40,16,1,REAL,FAKE,,,,,,,,,,,,,,,,,,,,,
,,,,,,,5fc98a7db2180e4b23c6f5be,60568611ec04488a9e9da93b,60569dc677465645e18514a7,I am not familiar with Spanish,Midwest,NA,no,2021-03-20_20h14.49.809,empathy_intonation_perc,2020.2.10,Win32,60,,,,,,,,,,1,,,,,,,,,,,,,,,,,,,,,,,,,,,,,,,,,,,,,,,,43,canela,,,0,0,0.816525,0,41,41,42,1,REAL,FAKE,,,,,,,,,,,,,,,,,,,,,
,,,,,,,5fc98a7db2180e4b23c6f5be,60568611ec04488a9e9da93b,60569dc677465645e18514a7,I am not familiar with Spanish,Midwest,NA,no,2021-03-20_20h14.49.809,empathy_intonation_perc,2020.2.10,Win32,60,,,,,,,,,,0,,,,,,,,,,,,,,,,,,,,,,,,,,,,,,,,,,,,,,,,4,batilln,,,1,0,0.90407,0,42,42,3,1,REAL,FAKE,,,,,,,,,,,,,,,,,,,,,
,,,,,,,5fc98a7db2180e4b23c6f5be,60568611ec04488a9e9da93b,60569dc677465645e18514a7,I am not familiar with Spanish,Midwest,NA,no,2021-03-20_20h14.49.809,empathy_intonation_perc,2020.2.10,Win32,60,,,,,,,,,,1,,,,,,,,,,,,,,,,,,,,,,,,,,,,,,,,,,,,,,,,68,alegre,,,0,0,0.86813,0,43,43,67,1,REAL,FAKE,,,,,,,,,,,,,,,,,,,,,
,,,,,,,5fc98a7db2180e4b23c6f5be,60568611ec04488a9e9da93b,60569dc677465645e18514a7,I am not familiar with Spanish,Midwest,NA,no,2021-03-20_20h14.49.809,empathy_intonation_perc,2020.2.10,Win32,60,,,,,,,,,,1,,,,,,,,,,,,,,,,,,,,,,,,,,,,,,,,,,,,,,,,61,seda,,,1,1,0.869125,0,44,44,60,1,REAL,FAKE,,,,,,,,,,,,,,,,,,,,,
,,,,,,,5fc98a7db2180e4b23c6f5be,60568611ec04488a9e9da93b,60569dc677465645e18514a7,I am not familiar with Spanish,Midwest,NA,no,2021-03-20_20h14.49.809,empathy_intonation_perc,2020.2.10,Win32,60,,,,,,,,,,1,,,,,,,,,,,,,,,,,,,,,,,,,,,,,,,,,,,,,,,,75,yacer,,,0,0,0.86853,0,45,45,74,1,REAL,FAKE,,,,,,,,,,,,,,,,,,,,,
,,,,,,,5fc98a7db2180e4b23c6f5be,60568611ec04488a9e9da93b,60569dc677465645e18514a7,I am not familiar with Spanish,Midwest,NA,no,2021-03-20_20h14.49.809,empathy_intonation_perc,2020.2.10,Win32,60,,,,,,,,,,1,,,,,,,,,,,,,,,,,,,,,,,,,,,,,,,,,,,,,,,,45,jilguero,,,0,0,0.882995,0,46,46,44,1,REAL,FAKE,,,,,,,,,,,,,,,,,,,,,
,,,,,,,5fc98a7db2180e4b23c6f5be,60568611ec04488a9e9da93b,60569dc677465645e18514a7,I am not familiar with Spanish,Midwest,NA,no,2021-03-20_20h14.49.809,empathy_intonation_perc,2020.2.10,Win32,60,,,,,,,,,,1,,,,,,,,,,,,,,,,,,,,,,,,,,,,,,,,,,,,,,,,48,ladrn,,,1,1,0.97045,0,47,47,47,1,REAL,FAKE,,,,,,,,,,,,,,,,,,,,,
,,,,,,,5fc98a7db2180e4b23c6f5be,60568611ec04488a9e9da93b,60569dc677465645e18514a7,I am not familiar with Spanish,Midwest,NA,no,2021-03-20_20h14.49.809,empathy_intonation_perc,2020.2.10,Win32,60,,,,,,,,,,0,,,,,,,,,,,,,,,,,,,,,,,,,,,,,,,,,,,,,,,,23,lampera,,,0,1,0.865915,0,48,48,22,1,REAL,FAKE,,,,,,,,,,,,,,,,,,,,,
,,,,,,,5fc98a7db2180e4b23c6f5be,60568611ec04488a9e9da93b,60569dc677465645e18514a7,I am not familiar with Spanish,Midwest,NA,no,2021-03-20_20h14.49.809,empathy_intonation_perc,2020.2.10,Win32,60,,,,,,,,,,0,,,,,,,,,,,,,,,,,,,,,,,,,,,,,,,,,,,,,,,,8,cadea,,,1,0,1.01576,0,49,49,7,1,REAL,FAKE,,,,,,,,,,,,,,,,,,,,,
,,,,,,,5fc98a7db2180e4b23c6f5be,60568611ec04488a9e9da93b,60569dc677465645e18514a7,I am not familiar with Spanish,Midwest,NA,no,2021-03-20_20h14.49.809,empathy_intonation_perc,2020.2.10,Win32,60,,,,,,,,,,1,,,,,,,,,,,,,,,,,,,,,,,,,,,,,,,,,,,,,,,,34,aviso,,,0,0,0.930965,0,50,50,33,1,REAL,FAKE,,,,,,,,,,,,,,,,,,,,,
,,,,,,,5fc98a7db2180e4b23c6f5be,60568611ec04488a9e9da93b,60569dc677465645e18514a7,I am not familiar with Spanish,Midwest,NA,no,2021-03-20_20h14.49.809,empathy_intonation_perc,2020.2.10,Win32,60,,,,,,,,,,0,,,,,,,,,,,,,,,,,,,,,,,,,,,,,,,,,,,,,,,,33,pauca,,,0,1,0.763065,0,51,51,32,1,REAL,FAKE,,,,,,,,,,,,,,,,,,,,,
,,,,,,,5fc98a7db2180e4b23c6f5be,60568611ec04488a9e9da93b,60569dc677465645e18514a7,I am not familiar with Spanish,Midwest,NA,no,2021-03-20_20h14.49.809,empathy_intonation_perc,2020.2.10,Win32,60,,,,,,,,,,0,,,,,,,,,,,,,,,,,,,,,,,,,,,,,,,,,,,,,,,,1,terzo,,,0,1,1.368095,0,52,52,0,1,REAL,FAKE,,,,,,,,,,,,,,,,,,,,,
,,,,,,,5fc98a7db2180e4b23c6f5be,60568611ec04488a9e9da93b,60569dc677465645e18514a7,I am not familiar with Spanish,Midwest,NA,no,2021-03-20_20h14.49.809,empathy_intonation_perc,2020.2.10,Win32,60,,,,,,,,,,1,,,,,,,,,,,,,,,,,,,,,,,,,,,,,,,,,,,,,,,,86,barato,,,1,1,1.05325,0,53,53,85,1,REAL,FAKE,,,,,,,,,,,,,,,,,,,,,
,,,,,,,5fc98a7db2180e4b23c6f5be,60568611ec04488a9e9da93b,60569dc677465645e18514a7,I am not familiar with Spanish,Midwest,NA,no,2021-03-20_20h14.49.809,empathy_intonation_perc,2020.2.10,Win32,60,,,,,,,,,,1,,,,,,,,,,,,,,,,,,,,,,,,,,,,,,,,,,,,,,,,3,pulmones,,,0,0,1.254205,0,54,54,2,1,REAL,FAKE,,,,,,,,,,,,,,,,,,,,,
,,,,,,,5fc98a7db2180e4b23c6f5be,60568611ec04488a9e9da93b,60569dc677465645e18514a7,I am not familiar with Spanish,Midwest,NA,no,2021-03-20_20h14.49.809,empathy_intonation_perc,2020.2.10,Win32,60,,,,,,,,,,1,,,,,,,,,,,,,,,,,,,,,,,,,,,,,,,,,,,,,,,,65,bizcocho,,,0,0,1.00352,0,55,55,64,1,REAL,FAKE,,,,,,,,,,,,,,,,,,,,,
,,,,,,,5fc98a7db2180e4b23c6f5be,60568611ec04488a9e9da93b,60569dc677465645e18514a7,I am not familiar with Spanish,Midwest,NA,no,2021-03-20_20h14.49.809,empathy_intonation_perc,2020.2.10,Win32,60,,,,,,,,,,1,,,,,,,,,,,,,,,,,,,,,,,,,,,,,,,,,,,,,,,,26,secuestro,,,0,0,0.920535,0,56,56,25,1,REAL,FAKE,,,,,,,,,,,,,,,,,,,,,
,,,,,,,5fc98a7db2180e4b23c6f5be,60568611ec04488a9e9da93b,60569dc677465645e18514a7,I am not familiar with Spanish,Midwest,NA,no,2021-03-20_20h14.49.809,empathy_intonation_perc,2020.2.10,Win32,60,,,,,,,,,,1,,,,,,,,,,,,,,,,,,,,,,,,,,,,,,,,,,,,,,,,44,cuchara,,,1,1,2.7504,0,57,57,43,1,REAL,FAKE,,,,,,,,,,,,,,,,,,,,,
,,,,,,,5fc98a7db2180e4b23c6f5be,60568611ec04488a9e9da93b,60569dc677465645e18514a7,I am not familiar with Spanish,Midwest,NA,no,2021-03-20_20h14.49.809,empathy_intonation_perc,2020.2.10,Win32,60,,,,,,,,,,1,,,,,,,,,,,,,,,,,,,,,,,,,,,,,,,,,,,,,,,,31,pandilla,,,0,0,0.85079,0,58,58,30,1,REAL,FAKE,,,,,,,,,,,,,,,,,,,,,
,,,,,,,5fc98a7db2180e4b23c6f5be,60568611ec04488a9e9da93b,60569dc677465645e18514a7,I am not familiar with Spanish,Midwest,NA,no,2021-03-20_20h14.49.809,empathy_intonation_perc,2020.2.10,Win32,60,,,,,,,,,,1,,,,,,,,,,,,,,,,,,,,,,,,,,,,,,,,,,,,,,,,89,prisa,,,0,0,1.516885,0,59,59,88,1,REAL,FAKE,,,,,,,,,,,,,,,,,,,,,
,,,,,,,5fc98a7db2180e4b23c6f5be,60568611ec04488a9e9da93b,60569dc677465645e18514a7,I am not familiar with Spanish,Midwest,NA,no,2021-03-20_20h14.49.809,empathy_intonation_perc,2020.2.10,Win32,60,,,,,,,,,,1,,,,,,,,,,,,,,,,,,,,,,,,,,,,,,,,,,,,,,,,60,matar,,,1,1,1.146435,0,60,60,59,1,REAL,FAKE,,,,,,,,,,,,,,,,,,,,,
,,,,,,,5fc98a7db2180e4b23c6f5be,60568611ec04488a9e9da93b,60569dc677465645e18514a7,I am not familiar with Spanish,Midwest,NA,no,2021-03-20_20h14.49.809,empathy_intonation_perc,2020.2.10,Win32,60,,,,,,,,,,0,,,,,,,,,,,,,,,,,,,,,,,,,,,,,,,,,,,,,,,,79,tropaje,,,0,1,0.97363,0,61,61,78,1,REAL,FAKE,,,,,,,,,,,,,,,,,,,,,
,,,,,,,5fc98a7db2180e4b23c6f5be,60568611ec04488a9e9da93b,60569dc677465645e18514a7,I am not familiar with Spanish,Midwest,NA,no,2021-03-20_20h14.49.809,empathy_intonation_perc,2020.2.10,Win32,60,,,,,,,,,,0,,,,,,,,,,,,,,,,,,,,,,,,,,,,,,,,,,,,,,,,42,cadallo,,,0,1,1.48189,0,62,62,41,1,REAL,FAKE,,,,,,,,,,,,,,,,,,,,,
,,,,,,,5fc98a7db2180e4b23c6f5be,60568611ec04488a9e9da93b,60569dc677465645e18514a7,I am not familiar with Spanish,Midwest,NA,no,2021-03-20_20h14.49.809,empathy_intonation_perc,2020.2.10,Win32,60,,,,,,,,,,1,,,,,,,,,,,,,,,,,,,,,,,,,,,,,,,,,,,,,,,,62,flaco,,,0,0,1.24889,0,63,63,61,1,REAL,FAKE,,,,,,,,,,,,,,,,,,,,,
,,,,,,,5fc98a7db2180e4b23c6f5be,60568611ec04488a9e9da93b,60569dc677465645e18514a7,I am not familiar with Spanish,Midwest,NA,no,2021-03-20_20h14.49.809,empathy_intonation_perc,2020.2.10,Win32,60,,,,,,,,,,1,,,,,,,,,,,,,,,,,,,,,,,,,,,,,,,,,,,,,,,,56,musgo,,,0,0,0.64966,0,64,64,55,1,REAL,FAKE,,,,,,,,,,,,,,,,,,,,,
,,,,,,,5fc98a7db2180e4b23c6f5be,60568611ec04488a9e9da93b,60569dc677465645e18514a7,I am not familiar with Spanish,Midwest,NA,no,2021-03-20_20h14.49.809,empathy_intonation_perc,2020.2.10,Win32,60,,,,,,,,,,0,,,,,,,,,,,,,,,,,,,,,,,,,,,,,,,,,,,,,,,,87,grodo,,,0,1,0.64878,0,65,65,86,1,REAL,FAKE,,,,,,,,,,,,,,,,,,,,,
,,,,,,,5fc98a7db2180e4b23c6f5be,60568611ec04488a9e9da93b,60569dc677465645e18514a7,I am not familiar with Spanish,Midwest,NA,no,2021-03-20_20h14.49.809,empathy_intonation_perc,2020.2.10,Win32,60,,,,,,,,,,1,,,,,,,,,,,,,,,,,,,,,,,,,,,,,,,,,,,,,,,,59,besar,,,1,1,1.14995,0,66,66,58,1,REAL,FAKE,,,,,,,,,,,,,,,,,,,,,
,,,,,,,5fc98a7db2180e4b23c6f5be,60568611ec04488a9e9da93b,60569dc677465645e18514a7,I am not familiar with Spanish,Midwest,NA,no,2021-03-20_20h14.49.809,empathy_intonation_perc,2020.2.10,Win32,60,,,,,,,,,,0,,,,,,,,,,,,,,,,,,,,,,,,,,,,,,,,,,,,,,,,74,cintro,,,1,0,1.07613,0,67,67,73,1,REAL,FAKE,,,,,,,,,,,,,,,,,,,,,
,,,,,,,5fc98a7db2180e4b23c6f5be,60568611ec04488a9e9da93b,60569dc677465645e18514a7,I am not familiar with Spanish,Midwest,NA,no,2021-03-20_20h14.49.809,empathy_intonation_perc,2020.2.10,Win32,60,,,,,,,,,,1,,,,,,,,,,,,,,,,,,,,,,,,,,,,,,,,,,,,,,,,41,rebuscar,,,0,0,0.841465,0,68,68,40,1,REAL,FAKE,,,,,,,,,,,,,,,,,,,,,
,,,,,,,5fc98a7db2180e4b23c6f5be,60568611ec04488a9e9da93b,60569dc677465645e18514a7,I am not familiar with Spanish,Midwest,NA,no,2021-03-20_20h14.49.809,empathy_intonation_perc,2020.2.10,Win32,60,,,,,,,,,,1,,,,,,,,,,,,,,,,,,,,,,,,,,,,,,,,,,,,,,,,90,clavel,,,0,0,0.803045,0,69,69,89,1,REAL,FAKE,,,,,,,,,,,,,,,,,,,,,
,,,,,,,5fc98a7db2180e4b23c6f5be,60568611ec04488a9e9da93b,60569dc677465645e18514a7,I am not familiar with Spanish,Midwest,NA,no,2021-03-20_20h14.49.809,empathy_intonation_perc,2020.2.10,Win32,60,,,,,,,,,,1,,,,,,,,,,,,,,,,,,,,,,,,,,,,,,,,,,,,,,,,37,granuja,,,0,0,0.55528,0,70,70,36,1,REAL,FAKE,,,,,,,,,,,,,,,,,,,,,
,,,,,,,5fc98a7db2180e4b23c6f5be,60568611ec04488a9e9da93b,60569dc677465645e18514a7,I am not familiar with Spanish,Midwest,NA,no,2021-03-20_20h14.49.809,empathy_intonation_perc,2020.2.10,Win32,60,,,,,,,,,,1,,,,,,,,,,,,,,,,,,,,,,,,,,,,,,,,,,,,,,,,57,tacao,,,0,0,0.461885,0,71,71,56,1,REAL,FAKE,,,,,,,,,,,,,,,,,,,,,
,,,,,,,5fc98a7db2180e4b23c6f5be,60568611ec04488a9e9da93b,60569dc677465645e18514a7,I am not familiar with Spanish,Midwest,NA,no,2021-03-20_20h14.49.809,empathy_intonation_perc,2020.2.10,Win32,60,,,,,,,,,,0,,,,,,,,,,,,,,,,,,,,,,,,,,,,,,,,,,,,,,,,35,rompido,,,0,1,0.531295,0,72,72,34,1,REAL,FAKE,,,,,,,,,,,,,,,,,,,,,
,,,,,,,5fc98a7db2180e4b23c6f5be,60568611ec04488a9e9da93b,60569dc677465645e18514a7,I am not familiar with Spanish,Midwest,NA,no,2021-03-20_20h14.49.809,empathy_intonation_perc,2020.2.10,Win32,60,,,,,,,,,,0,,,,,,,,,,,,,,,,,,,,,,,,,,,,,,,,,,,,,,,,53,vegada,,,0,1,0.605385,0,73,73,52,1,REAL,FAKE,,,,,,,,,,,,,,,,,,,,,
,,,,,,,5fc98a7db2180e4b23c6f5be,60568611ec04488a9e9da93b,60569dc677465645e18514a7,I am not familiar with Spanish,Midwest,NA,no,2021-03-20_20h14.49.809,empathy_intonation_perc,2020.2.10,Win32,60,,,,,,,,,,1,,,,,,,,,,,,,,,,,,,,,,,,,,,,,,,,,,,,,,,,7,psimo,,,1,1,0.93065,0,74,74,6,1,REAL,FAKE,,,,,,,,,,,,,,,,,,,,,
,,,,,,,5fc98a7db2180e4b23c6f5be,60568611ec04488a9e9da93b,60569dc677465645e18514a7,I am not familiar with Spanish,Midwest,NA,no,2021-03-20_20h14.49.809,empathy_intonation_perc,2020.2.10,Win32,60,,,,,,,,,,0,,,,,,,,,,,,,,,,,,,,,,,,,,,,,,,,,,,,,,,,19,brecedad,,,0,1,1.21581,0,75,75,18,1,REAL,FAKE,,,,,,,,,,,,,,,,,,,,,
,,,,,,,5fc98a7db2180e4b23c6f5be,60568611ec04488a9e9da93b,60569dc677465645e18514a7,I am not familiar with Spanish,Midwest,NA,no,2021-03-20_20h14.49.809,empathy_intonation_perc,2020.2.10,Win32,60,,,,,,,,,,1,,,,,,,,,,,,,,,,,,,,,,,,,,,,,,,,,,,,,,,,28,merodear,,,0,0,0.598945,0,76,76,27,1,REAL,FAKE,,,,,,,,,,,,,,,,,,,,,
,,,,,,,5fc98a7db2180e4b23c6f5be,60568611ec04488a9e9da93b,60569dc677465645e18514a7,I am not familiar with Spanish,Midwest,NA,no,2021-03-20_20h14.49.809,empathy_intonation_perc,2020.2.10,Win32,60,,,,,,,,,,0,,,,,,,,,,,,,,,,,,,,,,,,,,,,,,,,,,,,,,,,10,antar,,,0,1,0.618695,0,77,77,9,1,REAL,FAKE,,,,,,,,,,,,,,,,,,,,,
,,,,,,,5fc98a7db2180e4b23c6f5be,60568611ec04488a9e9da93b,60569dc677465645e18514a7,I am not familiar with Spanish,Midwest,NA,no,2021-03-20_20h14.49.809,empathy_intonation_perc,2020.2.10,Win32,60,,,,,,,,,,1,,,,,,,,,,,,,,,,,,,,,,,,,,,,,,,,,,,,,,,,81,pozo,,,0,0,0.736585,0,78,78,80,1,REAL,FAKE,,,,,,,,,,,,,,,,,,,,,
,,,,,,,5fc98a7db2180e4b23c6f5be,60568611ec04488a9e9da93b,60569dc677465645e18514a7,I am not familiar with Spanish,Midwest,NA,no,2021-03-20_20h14.49.809,empathy_intonation_perc,2020.2.10,Win32,60,,,,,,,,,,0,,,,,,,,,,,,,,,,,,,,,,,,,,,,,,,,,,,,,,,,21,capillo,,,1,0,1.08118,0,79,79,20,1,REAL,FAKE,,,,,,,,,,,,,,,,,,,,,
,,,,,,,5fc98a7db2180e4b23c6f5be,60568611ec04488a9e9da93b,60569dc677465645e18514a7,I am not familiar with Spanish,Midwest,NA,no,2021-03-20_20h14.49.809,empathy_intonation_perc,2020.2.10,Win32,60,,,,,,,,,,0,,,,,,,,,,,,,,,,,,,,,,,,,,,,,,,,,,,,,,,,84,escuto,,,0,1,0.6195,0,80,80,83,1,REAL,FAKE,,,,,,,,,,,,,,,,,,,,,
,,,,,,,5fc98a7db2180e4b23c6f5be,60568611ec04488a9e9da93b,60569dc677465645e18514a7,I am not familiar with Spanish,Midwest,NA,no,2021-03-20_20h14.49.809,empathy_intonation_perc,2020.2.10,Win32,60,,,,,,,,,,0,,,,,,,,,,,,,,,,,,,,,,,,,,,,,,,,,,,,,,,,70,temblo,,,0,1,0.61528,0,81,81,69,1,REAL,FAKE,,,,,,,,,,,,,,,,,,,,,
,,,,,,,5fc98a7db2180e4b23c6f5be,60568611ec04488a9e9da93b,60569dc677465645e18514a7,I am not familiar with Spanish,Midwest,NA,no,2021-03-20_20h14.49.809,empathy_intonation_perc,2020.2.10,Win32,60,,,,,,,,,,0,,,,,,,,,,,,,,,,,,,,,,,,,,,,,,,,,,,,,,,,30,alardio,,,0,1,1.49212,0,82,82,29,1,REAL,FAKE,,,,,,,,,,,,,,,,,,,,,
,,,,,,,5fc98a7db2180e4b23c6f5be,60568611ec04488a9e9da93b,60569dc677465645e18514a7,I am not familiar with Spanish,Midwest,NA,no,2021-03-20_20h14.49.809,empathy_intonation_perc,2020.2.10,Win32,60,,,,,,,,,,0,,,,,,,,,,,,,,,,,,,,,,,,,,,,,,,,,,,,,,,,63,esposante,,,0,1,0.715585,0,83,83,62,1,REAL,FAKE,,,,,,,,,,,,,,,,,,,,,
,,,,,,,5fc98a7db2180e4b23c6f5be,60568611ec04488a9e9da93b,60569dc677465645e18514a7,I am not familiar with Spanish,Midwest,NA,no,2021-03-20_20h14.49.809,empathy_intonation_perc,2020.2.10,Win32,60,,,,,,,,,,1,,,,,,,,,,,,,,,,,,,,,,,,,,,,,,,,,,,,,,,,85,lad,,,1,1,1.07935,0,84,84,84,1,REAL,FAKE,,,,,,,,,,,,,,,,,,,,,
,,,,,,,5fc98a7db2180e4b23c6f5be,60568611ec04488a9e9da93b,60569dc677465645e18514a7,I am not familiar with Spanish,Midwest,NA,no,2021-03-20_20h14.49.809,empathy_intonation_perc,2020.2.10,Win32,60,,,,,,,,,,0,,,,,,,,,,,,,,,,,,,,,,,,,,,,,,,,,,,,,,,,82,empirador,,,0,1,0.690895,0,85,85,81,1,REAL,FAKE,,,,,,,,,,,,,,,,,,,,,
,,,,,,,5fc98a7db2180e4b23c6f5be,60568611ec04488a9e9da93b,60569dc677465645e18514a7,I am not familiar with Spanish,Midwest,NA,no,2021-03-20_20h14.49.809,empathy_intonation_perc,2020.2.10,Win32,60,,,,,,,,,,1,,,,,,,,,,,,,,,,,,,,,,,,,,,,,,,,,,,,,,,,2,pellizcar,,,0,0,0.84978,0,86,86,1,1,REAL,FAKE,,,,,,,,,,,,,,,,,,,,,
,,,,,,,5fc98a7db2180e4b23c6f5be,60568611ec04488a9e9da93b,60569dc677465645e18514a7,I am not familiar with Spanish,Midwest,NA,no,2021-03-20_20h14.49.809,empathy_intonation_perc,2020.2.10,Win32,60,,,,,,,,,,1,,,,,,,,,,,,,,,,,,,,,,,,,,,,,,,,,,,,,,,,24,ltigo,,,1,1,0.91586,0,87,87,23,1,REAL,FAKE,,,,,,,,,,,,,,,,,,,,,
,,,,,,,5fc98a7db2180e4b23c6f5be,60568611ec04488a9e9da93b,60569dc677465645e18514a7,I am not familiar with Spanish,Midwest,NA,no,2021-03-20_20h14.49.809,empathy_intonation_perc,2020.2.10,Win32,60,,,,,,,,,,0,,,,,,,,,,,,,,,,,,,,,,,,,,,,,,,,,,,,,,,,47,cartinar,,,0,1,0.70471,0,88,88,46,1,REAL,FAKE,,,,,,,,,,,,,,,,,,,,,
,,,,,,,5fc98a7db2180e4b23c6f5be,60568611ec04488a9e9da93b,60569dc677465645e18514a7,I am not familiar with Spanish,Midwest,NA,no,2021-03-20_20h14.49.809,empathy_intonation_perc,2020.2.10,Win32,60,,,,,,,,,,1,,,,,,,,,,,,,,,,,,,,,,,,,,,,,,,,,,,,,,,,6,tergiversar,,,0,0,0.547325,0,89,89,5,1,REAL,FAKE,,,,,,,,,,,,,,,,,,,,,
,,,,,,,5fc98a7db2180e4b23c6f5be,60568611ec04488a9e9da93b,60569dc677465645e18514a7,I am not familiar with Spanish,Midwest,NA,no,2021-03-20_20h14.49.809,empathy_intonation_perc,2020.2.10,Win32,60,,,,,,,,,,,,,,,,,,,,,,,,,,,,,,,,,,,,,,,,,,,,,,,,,,,,,,,,,,,,,,,,4,1,5.56116,1,0,0,0,0,0,1,,,,,,,,,,,
,,,,,,,5fc98a7db2180e4b23c6f5be,60568611ec04488a9e9da93b,60569dc677465645e18514a7,I am not familiar with Spanish,Midwest,NA,no,2021-03-20_20h14.49.809,empathy_intonation_perc,2020.2.10,Win32,60,,,,,,,,,,,,,,,,,,,,1,,,,,,,,,,,,,,,,,,,,,,,,,,,,,,,,,,,,,,,,,,,,,,,,,,,,,,3,0,0,0,0,1,I can easily tell if someone else wants to enter a conversation.,1,0,1,0
