instructions_2afc_loop.thisRepN,instructions_2afc_loop.thisTrialN,instructions_2afc_loop.thisN,instructions_2afc_loop.thisIndex,instructions_2afc_loop.ran,instructions_text,continue_text,participant,study_id,session,I am most familiar with Spanish from...*,What part of the US are you from?*,At what age did you begin learning Spanish?*,Are you proficient in any languages other than English/Spanish?*,date,expName,psychopyVersion,OS,frameRate,key_resp_2afc_practice.keys,key_resp_2afc_practice.corr,key_resp_2afc_practice.rt,trials_2afc_practice_loop.thisRepN,trials_2afc_practice_loop.thisTrialN,trials_2afc_practice_loop.thisN,trials_2afc_practice_loop.thisIndex,trials_2afc_practice_loop.ran,path,correct_response,the_col,key_resp_2afc_trial.keys,key_resp_2afc_trial.corr,key_resp_2afc_trial.rt,trials_2afc_loop.thisRepN,trials_2afc_loop.thisTrialN,trials_2afc_loop.thisN,trials_2afc_loop.thisIndex,trials_2afc_loop.ran,item_num,andalusian,argentine,castilian,chilean,cuban,mexican,peruvian,puertorican,key_resp_ac1.keys,key_resp_ac1.corr,key_resp_ac1.rt,ac1_loop.thisRepN,ac1_loop.thisTrialN,ac1_loop.thisN,ac1_loop.thisIndex,ac1_loop.ran,instructions_lextale_loop.thisRepN,instructions_lextale_loop.thisTrialN,instructions_lextale_loop.thisN,instructions_lextale_loop.thisIndex,instructions_lextale_loop.ran,key_resp_lextale_practice.keys,key_resp_lextale_practice.corr,key_resp_lextale_practice.rt,trials_lextale_practice_loop.thisRepN,trials_lextale_practice_loop.thisTrialN,trials_lextale_practice_loop.thisN,trials_lextale_practice_loop.thisIndex,trials_lextale_practice_loop.ran,stim,word,prac_button_real,prac_button_false,key_resp_lextale_trial.keys,key_resp_lextale_trial.corr,key_resp_lextale_trial.rt,trials_lextale_loop.thisRepN,trials_lextale_loop.thisTrialN,trials_lextale_loop.thisN,trials_lextale_loop.thisIndex,trials_lextale_loop.ran,button_real,button_false,key_resp_ac2.keys,key_resp_ac2.corr,key_resp_ac2.rt,check_pass,check_fails,ac2_loop.thisRepN,ac2_loop.thisTrialN,ac2_loop.thisN,ac2_loop.thisIndex,ac2_loop.ran,slider_eq_trial.response,trials_eq_loop.thisRepN,trials_eq_loop.thisTrialN,trials_eq_loop.thisN,trials_eq_loop.thisIndex,trials_eq_loop.ran,item,is_test_item,is_distractor,is_agree_score,is_disagree_score
0,0,0,0,1,"In the following task you are going to hear a series of utterances. 

  You will decide if the utterances sound like questions or not using your keyboard.",(press the spacebar to continue),5fd4335c2d643f1a0ed65cb7,605b45a4d25f287719a41696,605b9a706d7b3e279dc0e384,Mexico,Midwest,13 or older,no,2021-03-24_15h01.16.228,empathy_intonation_perc,2020.2.10,Win32,60,,,,,,,,,,,,,,,,,,,,,,,,,,,,,,,,,,,,,,,,,,,,,,,,,,,,,,,,,,,,,,,,,,,,,,,,,,,,,,,,,,,,
0,1,1,1,1,"If you believe the utterance is a question, type '1' (for 'yes') and if you do not 
  believe it is a question type '0' (for 'no').

  Let's practice a bit...",(press the spacebar to continue),5fd4335c2d643f1a0ed65cb7,605b45a4d25f287719a41696,605b9a706d7b3e279dc0e384,Mexico,Midwest,13 or older,no,2021-03-24_15h01.16.228,empathy_intonation_perc,2020.2.10,Win32,60,,,,,,,,,,,,,,,,,,,,,,,,,,,,,,,,,,,,,,,,,,,,,,,,,,,,,,,,,,,,,,,,,,,,,,,,,,,,,,,,,,,,
,,,,,,,5fd4335c2d643f1a0ed65cb7,605b45a4d25f287719a41696,605b9a706d7b3e279dc0e384,Mexico,Midwest,13 or older,no,2021-03-24_15h01.16.228,empathy_intonation_perc,2020.2.10,Win32,60,1,0,1.851465,0,0,0,5,1,./stim/wavs/andalusian_statement_filler_Alberto-nunca-se-afeita.wav,0,,,,,,,,,,,,,,,,,,,,,,,,,,,,,,,,,,,,,,,,,,,,,,,,,,,,,,,,,,,,,,,,,,,,,,,,,,
,,,,,,,5fd4335c2d643f1a0ed65cb7,605b45a4d25f287719a41696,605b9a706d7b3e279dc0e384,Mexico,Midwest,13 or older,no,2021-03-24_15h01.16.228,empathy_intonation_perc,2020.2.10,Win32,60,1,1,5.02218,0,1,1,3,1,./stim/wavs/mexican_question_filler_Felipe-no-tiene-contrasena.wav,1,,,,,,,,,,,,,,,,,,,,,,,,,,,,,,,,,,,,,,,,,,,,,,,,,,,,,,,,,,,,,,,,,,,,,,,,,,
,,,,,,,5fd4335c2d643f1a0ed65cb7,605b45a4d25f287719a41696,605b9a706d7b3e279dc0e384,Mexico,Midwest,13 or older,no,2021-03-24_15h01.16.228,empathy_intonation_perc,2020.2.10,Win32,60,0,1,2.402535,0,2,2,4,1,./stim/wavs/cuban_statement_filler_Cocinabas-por-la-noche.wav,0,,,,,,,,,,,,,,,,,,,,,,,,,,,,,,,,,,,,,,,,,,,,,,,,,,,,,,,,,,,,,,,,,,,,,,,,,,
,,,,,,,5fd4335c2d643f1a0ed65cb7,605b45a4d25f287719a41696,605b9a706d7b3e279dc0e384,Mexico,Midwest,13 or older,no,2021-03-24_15h01.16.228,empathy_intonation_perc,2020.2.10,Win32,60,0,1,2.22039,0,3,3,6,1,./stim/wavs/peruvian_statement_filler_El-nino-habla-con-su-madre.wav,0,,,,,,,,,,,,,,,,,,,,,,,,,,,,,,,,,,,,,,,,,,,,,,,,,,,,,,,,,,,,,,,,,,,,,,,,,,
,,,,,,,5fd4335c2d643f1a0ed65cb7,605b45a4d25f287719a41696,605b9a706d7b3e279dc0e384,Mexico,Midwest,13 or older,no,2021-03-24_15h01.16.228,empathy_intonation_perc,2020.2.10,Win32,60,0,1,2.199565,0,4,4,7,1,./stim/wavs/puertorican_statement_filler_La-nina-pinta-con-su-amiga.wav,0,,,,,,,,,,,,,,,,,,,,,,,,,,,,,,,,,,,,,,,,,,,,,,,,,,,,,,,,,,,,,,,,,,,,,,,,,,
,,,,,,,5fd4335c2d643f1a0ed65cb7,605b45a4d25f287719a41696,605b9a706d7b3e279dc0e384,Mexico,Midwest,13 or older,no,2021-03-24_15h01.16.228,empathy_intonation_perc,2020.2.10,Win32,60,1,1,1.7198,0,5,5,2,1,./stim/wavs/chilean_question_filler_Mi-padre-cantaba-bien.wav,1,,,,,,,,,,,,,,,,,,,,,,,,,,,,,,,,,,,,,,,,,,,,,,,,,,,,,,,,,,,,,,,,,,,,,,,,,,
,,,,,,,5fd4335c2d643f1a0ed65cb7,605b45a4d25f287719a41696,605b9a706d7b3e279dc0e384,Mexico,Midwest,13 or older,no,2021-03-24_15h01.16.228,empathy_intonation_perc,2020.2.10,Win32,60,0,0,2.0019,0,6,6,0,1,./stim/wavs/castilian_question_filler_Mi-esposo-conoce-al-chico.wav,1,,,,,,,,,,,,,,,,,,,,,,,,,,,,,,,,,,,,,,,,,,,,,,,,,,,,,,,,,,,,,,,,,,,,,,,,,,
,,,,,,,5fd4335c2d643f1a0ed65cb7,605b45a4d25f287719a41696,605b9a706d7b3e279dc0e384,Mexico,Midwest,13 or older,no,2021-03-24_15h01.16.228,empathy_intonation_perc,2020.2.10,Win32,60,1,1,2.066155,0,7,7,1,1,./stim/wavs/argentine_question_filler_Mi-vecino-habla-mucho.wav,1,,,,,,,,,,,,,,,,,,,,,,,,,,,,,,,,,,,,,,,,,,,,,,,,,,,,,,,,,,,,,,,,,,,,,,,,,,
,,,,,,,5fd4335c2d643f1a0ed65cb7,605b45a4d25f287719a41696,605b9a706d7b3e279dc0e384,Mexico,Midwest,13 or older,no,2021-03-24_15h01.16.228,empathy_intonation_perc,2020.2.10,Win32,60,,,,,,,,,,0,peruvian,0,1,2.336095,0,0,0,11,1,12,./stim/wavs/andalusian_match_declarative-narrow-focus_Emilio-ama-la-marcha.wav,./stim/wavs/argentine_match_declarative-narrow-focus_Emilio-ama-la-marcha.wav,./stim/wavs/castilian_match_declarative-narrow-focus_Emilio-ama-la-marcha.wav,./stim/wavs/chilean_match_declarative-narrow-focus_Emilio-ama-la-marcha.wav,./stim/wavs/cuban_match_declarative-narrow-focus_Emilio-ama-la-marcha.wav,./stim/wavs/mexican_match_declarative-narrow-focus_Emilio-ama-la-marcha.wav,./stim/wavs/peruvian_match_declarative-narrow-focus_Emilio-ama-la-marcha.wav,./stim/wavs/puertorican_match_declarative-narrow-focus_Emilio-ama-la-marcha.wav,,,,,,,,,,,,,,,,,,,,,,,,,,,,,,,,,,,,,,,,,,,,,,,,,,,,,,,,
,,,,,,,5fd4335c2d643f1a0ed65cb7,605b45a4d25f287719a41696,605b9a706d7b3e279dc0e384,Mexico,Midwest,13 or older,no,2021-03-24_15h01.16.228,empathy_intonation_perc,2020.2.10,Win32,60,,,,,,,,,,1,andalusian,1,1,1.8079,0,1,1,30,1,31,./stim/wavs/andalusian_match_interrogative-total-yn_Mariano-habla-del-tiempo.wav,./stim/wavs/argentine_match_interrogative-total-yn_Mariano-habla-del-tiempo.wav,./stim/wavs/castilian_match_interrogative-total-yn_Mariano-habla-del-tiempo.wav,./stim/wavs/chilean_match_interrogative-total-yn_Mariano-habla-del-tiempo.wav,./stim/wavs/cuban_match_interrogative-total-yn_Mariano-habla-del-tiempo.wav,./stim/wavs/mexican_match_interrogative-total-yn_Mariano-habla-del-tiempo.wav,./stim/wavs/peruvian_match_interrogative-total-yn_Mariano-habla-del-tiempo.wav,./stim/wavs/puertorican_match_interrogative-total-yn_Mariano-habla-del-tiempo.wav,,,,,,,,,,,,,,,,,,,,,,,,,,,,,,,,,,,,,,,,,,,,,,,,,,,,,,,,
,,,,,,,5fd4335c2d643f1a0ed65cb7,605b45a4d25f287719a41696,605b9a706d7b3e279dc0e384,Mexico,Midwest,13 or older,no,2021-03-24_15h01.16.228,empathy_intonation_perc,2020.2.10,Win32,60,,,,,,,,,,1,andalusian,1,1,1.70703,0,2,2,60,1,61,./stim/wavs/andalusian_mismatch_interrogative-total-yn_La-nina-lava-el-plato.wav,./stim/wavs/argentine_mismatch_interrogative-total-yn_La-nina-lava-el-plato.wav,./stim/wavs/castilian_mismatch_interrogative-total-yn_La-nina-lava-el-plato.wav,./stim/wavs/chilean_mismatch_interrogative-total-yn_La-nina-lava-el-plato.wav,./stim/wavs/cuban_mismatch_interrogative-total-yn_La-nina-lava-el-plato.wav,./stim/wavs/mexican_mismatch_interrogative-total-yn_La-nina-lava-el-plato.wav,./stim/wavs/peruvian_mismatch_interrogative-total-yn_La-nina-lava-el-plato.wav,./stim/wavs/puertorican_mismatch_interrogative-total-yn_La-nina-lava-el-plato.wav,,,,,,,,,,,,,,,,,,,,,,,,,,,,,,,,,,,,,,,,,,,,,,,,,,,,,,,,
,,,,,,,5fd4335c2d643f1a0ed65cb7,605b45a4d25f287719a41696,605b9a706d7b3e279dc0e384,Mexico,Midwest,13 or older,no,2021-03-24_15h01.16.228,empathy_intonation_perc,2020.2.10,Win32,60,,,,,,,,,,1,andalusian,0,0,1.76847,0,3,3,63,1,64,./stim/wavs/andalusian_mismatch_interrogative-total-yn_Mi-tia-odia-la-lluvia.wav,./stim/wavs/argentine_mismatch_interrogative-total-yn_Mi-tia-odia-la-lluvia.wav,./stim/wavs/castilian_mismatch_interrogative-total-yn_Mi-tia-odia-la-lluvia.wav,./stim/wavs/chilean_mismatch_interrogative-total-yn_Mi-tia-odia-la-lluvia.wav,./stim/wavs/cuban_mismatch_interrogative-total-yn_Mi-tia-odia-la-lluvia.wav,./stim/wavs/mexican_mismatch_interrogative-total-yn_Mi-tia-odia-la-lluvia.wav,./stim/wavs/peruvian_mismatch_interrogative-total-yn_Mi-tia-odia-la-lluvia.wav,./stim/wavs/puertorican_mismatch_interrogative-total-yn_Mi-tia-odia-la-lluvia.wav,,,,,,,,,,,,,,,,,,,,,,,,,,,,,,,,,,,,,,,,,,,,,,,,,,,,,,,,
,,,,,,,5fd4335c2d643f1a0ed65cb7,605b45a4d25f287719a41696,605b9a706d7b3e279dc0e384,Mexico,Midwest,13 or older,no,2021-03-24_15h01.16.228,empathy_intonation_perc,2020.2.10,Win32,60,,,,,,,,,,0,argentine,0,1,1.685645,0,4,4,5,1,6,./stim/wavs/andalusian_match_declarative-broad-focus_Maria-bebe-el-vino.wav,./stim/wavs/argentine_match_declarative-broad-focus_Maria-bebe-el-vino.wav,./stim/wavs/castilian_match_declarative-broad-focus_Maria-bebe-el-vino.wav,./stim/wavs/chilean_match_declarative-broad-focus_Maria-bebe-el-vino.wav,./stim/wavs/cuban_match_declarative-broad-focus_Maria-bebe-el-vino.wav,./stim/wavs/mexican_match_declarative-broad-focus_Maria-bebe-el-vino.wav,./stim/wavs/peruvian_match_declarative-broad-focus_Maria-bebe-el-vino.wav,./stim/wavs/puertorican_match_declarative-broad-focus_Maria-bebe-el-vino.wav,,,,,,,,,,,,,,,,,,,,,,,,,,,,,,,,,,,,,,,,,,,,,,,,,,,,,,,,
,,,,,,,5fd4335c2d643f1a0ed65cb7,605b45a4d25f287719a41696,605b9a706d7b3e279dc0e384,Mexico,Midwest,13 or older,no,2021-03-24_15h01.16.228,empathy_intonation_perc,2020.2.10,Win32,60,,,,,,,,,,0,peruvian,0,1,2.655165,0,5,5,35,1,36,./stim/wavs/andalusian_mismatch_declarative-broad-focus_La-maestra-vive-en-Paris.wav,./stim/wavs/argentine_mismatch_declarative-broad-focus_La-maestra-vive-en-Paris.wav,./stim/wavs/castilian_mismatch_declarative-broad-focus_La-maestra-vive-en-Paris.wav,./stim/wavs/chilean_mismatch_declarative-broad-focus_La-maestra-vive-en-Paris.wav,./stim/wavs/cuban_mismatch_declarative-broad-focus_La-maestra-vive-en-Paris.wav,./stim/wavs/mexican_mismatch_declarative-broad-focus_La-maestra-vive-en-Paris.wav,./stim/wavs/peruvian_mismatch_declarative-broad-focus_La-maestra-vive-en-Paris.wav,./stim/wavs/puertorican_mismatch_declarative-broad-focus_La-maestra-vive-en-Paris.wav,,,,,,,,,,,,,,,,,,,,,,,,,,,,,,,,,,,,,,,,,,,,,,,,,,,,,,,,
,,,,,,,5fd4335c2d643f1a0ed65cb7,605b45a4d25f287719a41696,605b9a706d7b3e279dc0e384,Mexico,Midwest,13 or older,no,2021-03-24_15h01.16.228,empathy_intonation_perc,2020.2.10,Win32,60,,,,,,,,,,1,puertorican,1,1,1.90173,0,6,6,23,1,24,./stim/wavs/andalusian_match_interrogative-partial-wh_Por-que-iba-a-Bolivia.wav,./stim/wavs/argentine_match_interrogative-partial-wh_Por-que-iba-a-Bolivia.wav,./stim/wavs/castilian_match_interrogative-partial-wh_Por-que-iba-a-Bolivia.wav,./stim/wavs/chilean_match_interrogative-partial-wh_Por-que-iba-a-Bolivia.wav,./stim/wavs/cuban_match_interrogative-partial-wh_Por-que-iba-a-Bolivia.wav,./stim/wavs/mexican_match_interrogative-partial-wh_Por-que-iba-a-Bolivia.wav,./stim/wavs/peruvian_match_interrogative-partial-wh_Por-que-iba-a-Bolivia.wav,./stim/wavs/puertorican_match_interrogative-partial-wh_Por-que-iba-a-Bolivia.wav,,,,,,,,,,,,,,,,,,,,,,,,,,,,,,,,,,,,,,,,,,,,,,,,,,,,,,,,
,,,,,,,5fd4335c2d643f1a0ed65cb7,605b45a4d25f287719a41696,605b9a706d7b3e279dc0e384,Mexico,Midwest,13 or older,no,2021-03-24_15h01.16.228,empathy_intonation_perc,2020.2.10,Win32,60,,,,,,,,,,1,cuban,1,1,1.929375,0,7,7,61,1,62,./stim/wavs/andalusian_mismatch_interrogative-total-yn_Mi-madre-come-la-fruta.wav,./stim/wavs/argentine_mismatch_interrogative-total-yn_Mi-madre-come-la-fruta.wav,./stim/wavs/castilian_mismatch_interrogative-total-yn_Mi-madre-come-la-fruta.wav,./stim/wavs/chilean_mismatch_interrogative-total-yn_Mi-madre-come-la-fruta.wav,./stim/wavs/cuban_mismatch_interrogative-total-yn_Mi-madre-come-la-fruta.wav,./stim/wavs/mexican_mismatch_interrogative-total-yn_Mi-madre-come-la-fruta.wav,./stim/wavs/peruvian_mismatch_interrogative-total-yn_Mi-madre-come-la-fruta.wav,./stim/wavs/puertorican_mismatch_interrogative-total-yn_Mi-madre-come-la-fruta.wav,,,,,,,,,,,,,,,,,,,,,,,,,,,,,,,,,,,,,,,,,,,,,,,,,,,,,,,,
,,,,,,,5fd4335c2d643f1a0ed65cb7,605b45a4d25f287719a41696,605b9a706d7b3e279dc0e384,Mexico,Midwest,13 or older,no,2021-03-24_15h01.16.228,empathy_intonation_perc,2020.2.10,Win32,60,,,,,,,,,,0,cuban,0,1,1.498655,0,8,8,14,1,15,./stim/wavs/andalusian_match_declarative-narrow-focus_Mariano-habla-del-tiempo.wav,./stim/wavs/argentine_match_declarative-narrow-focus_Mariano-habla-del-tiempo.wav,./stim/wavs/castilian_match_declarative-narrow-focus_Mariano-habla-del-tiempo.wav,./stim/wavs/chilean_match_declarative-narrow-focus_Mariano-habla-del-tiempo.wav,./stim/wavs/cuban_match_declarative-narrow-focus_Mariano-habla-del-tiempo.wav,./stim/wavs/mexican_match_declarative-narrow-focus_Mariano-habla-del-tiempo.wav,./stim/wavs/peruvian_match_declarative-narrow-focus_Mariano-habla-del-tiempo.wav,./stim/wavs/puertorican_match_declarative-narrow-focus_Mariano-habla-del-tiempo.wav,,,,,,,,,,,,,,,,,,,,,,,,,,,,,,,,,,,,,,,,,,,,,,,,,,,,,,,,
,,,,,,,5fd4335c2d643f1a0ed65cb7,605b45a4d25f287719a41696,605b9a706d7b3e279dc0e384,Mexico,Midwest,13 or older,no,2021-03-24_15h01.16.228,empathy_intonation_perc,2020.2.10,Win32,60,,,,,,,,,,0,peruvian,0,1,2.40233,0,9,9,0,1,1,./stim/wavs/andalusian_match_declarative-broad-focus_Ana-lleva-el-abrigo.wav,./stim/wavs/argentine_match_declarative-broad-focus_Ana-lleva-el-abrigo.wav,./stim/wavs/castilian_match_declarative-broad-focus_Ana-lleva-el-abrigo.wav,./stim/wavs/chilean_match_declarative-broad-focus_Ana-lleva-el-abrigo.wav,./stim/wavs/cuban_match_declarative-broad-focus_Ana-lleva-el-abrigo.wav,./stim/wavs/mexican_match_declarative-broad-focus_Ana-lleva-el-abrigo.wav,./stim/wavs/peruvian_match_declarative-broad-focus_Ana-lleva-el-abrigo.wav,./stim/wavs/puertorican_match_declarative-broad-focus_Ana-lleva-el-abrigo.wav,,,,,,,,,,,,,,,,,,,,,,,,,,,,,,,,,,,,,,,,,,,,,,,,,,,,,,,,
,,,,,,,5fd4335c2d643f1a0ed65cb7,605b45a4d25f287719a41696,605b9a706d7b3e279dc0e384,Mexico,Midwest,13 or older,no,2021-03-24_15h01.16.228,empathy_intonation_perc,2020.2.10,Win32,60,,,,,,,,,,1,castilian,1,1,1.60252,0,10,10,62,1,63,./stim/wavs/andalusian_mismatch_interrogative-total-yn_Mi-novio-viene-del-lago.wav,./stim/wavs/argentine_mismatch_interrogative-total-yn_Mi-novio-viene-del-lago.wav,./stim/wavs/castilian_mismatch_interrogative-total-yn_Mi-novio-viene-del-lago.wav,./stim/wavs/chilean_mismatch_interrogative-total-yn_Mi-novio-viene-del-lago.wav,./stim/wavs/cuban_mismatch_interrogative-total-yn_Mi-novio-viene-del-lago.wav,./stim/wavs/mexican_mismatch_interrogative-total-yn_Mi-novio-viene-del-lago.wav,./stim/wavs/peruvian_mismatch_interrogative-total-yn_Mi-novio-viene-del-lago.wav,./stim/wavs/puertorican_mismatch_interrogative-total-yn_Mi-novio-viene-del-lago.wav,,,,,,,,,,,,,,,,,,,,,,,,,,,,,,,,,,,,,,,,,,,,,,,,,,,,,,,,
,,,,,,,5fd4335c2d643f1a0ed65cb7,605b45a4d25f287719a41696,605b9a706d7b3e279dc0e384,Mexico,Midwest,13 or older,no,2021-03-24_15h01.16.228,empathy_intonation_perc,2020.2.10,Win32,60,,,,,,,,,,1,chilean,0,0,1.80813,0,11,11,25,1,26,./stim/wavs/andalusian_match_interrogative-total-yn_Daniel-iba-a-Bolivia.wav,./stim/wavs/argentine_match_interrogative-total-yn_Daniel-iba-a-Bolivia.wav,./stim/wavs/castilian_match_interrogative-total-yn_Daniel-iba-a-Bolivia.wav,./stim/wavs/chilean_match_interrogative-total-yn_Daniel-iba-a-Bolivia.wav,./stim/wavs/cuban_match_interrogative-total-yn_Daniel-iba-a-Bolivia.wav,./stim/wavs/mexican_match_interrogative-total-yn_Daniel-iba-a-Bolivia.wav,./stim/wavs/peruvian_match_interrogative-total-yn_Daniel-iba-a-Bolivia.wav,./stim/wavs/puertorican_match_interrogative-total-yn_Daniel-iba-a-Bolivia.wav,,,,,,,,,,,,,,,,,,,,,,,,,,,,,,,,,,,,,,,,,,,,,,,,,,,,,,,,
,,,,,,,5fd4335c2d643f1a0ed65cb7,605b45a4d25f287719a41696,605b9a706d7b3e279dc0e384,Mexico,Midwest,13 or older,no,2021-03-24_15h01.16.228,empathy_intonation_perc,2020.2.10,Win32,60,,,,,,,,,,0,peruvian,0,1,1.852315,0,12,12,41,1,42,./stim/wavs/andalusian_mismatch_declarative-narrow-focus_El-hombre-mira-la-luna.wav,./stim/wavs/argentine_mismatch_declarative-narrow-focus_El-hombre-mira-la-luna.wav,./stim/wavs/castilian_mismatch_declarative-narrow-focus_El-hombre-mira-la-luna.wav,./stim/wavs/chilean_mismatch_declarative-narrow-focus_El-hombre-mira-la-luna.wav,./stim/wavs/cuban_mismatch_declarative-narrow-focus_El-hombre-mira-la-luna.wav,./stim/wavs/mexican_mismatch_declarative-narrow-focus_El-hombre-mira-la-luna.wav,./stim/wavs/peruvian_mismatch_declarative-narrow-focus_El-hombre-mira-la-luna.wav,./stim/wavs/puertorican_mismatch_declarative-narrow-focus_El-hombre-mira-la-luna.wav,,,,,,,,,,,,,,,,,,,,,,,,,,,,,,,,,,,,,,,,,,,,,,,,,,,,,,,,
,,,,,,,5fd4335c2d643f1a0ed65cb7,605b45a4d25f287719a41696,605b9a706d7b3e279dc0e384,Mexico,Midwest,13 or older,no,2021-03-24_15h01.16.228,empathy_intonation_perc,2020.2.10,Win32,60,,,,,,,,,,0,castilian,1,0,1.73603,0,13,13,42,1,43,./stim/wavs/andalusian_mismatch_declarative-narrow-focus_El-nino-oye-el-rio.wav,./stim/wavs/argentine_mismatch_declarative-narrow-focus_El-nino-oye-el-rio.wav,./stim/wavs/castilian_mismatch_declarative-narrow-focus_El-nino-oye-el-rio.wav,./stim/wavs/chilean_mismatch_declarative-narrow-focus_El-nino-oye-el-rio.wav,./stim/wavs/cuban_mismatch_declarative-narrow-focus_El-nino-oye-el-rio.wav,./stim/wavs/mexican_mismatch_declarative-narrow-focus_El-nino-oye-el-rio.wav,./stim/wavs/peruvian_mismatch_declarative-narrow-focus_El-nino-oye-el-rio.wav,./stim/wavs/puertorican_mismatch_declarative-narrow-focus_El-nino-oye-el-rio.wav,,,,,,,,,,,,,,,,,,,,,,,,,,,,,,,,,,,,,,,,,,,,,,,,,,,,,,,,
,,,,,,,5fd4335c2d643f1a0ed65cb7,605b45a4d25f287719a41696,605b9a706d7b3e279dc0e384,Mexico,Midwest,13 or older,no,2021-03-24_15h01.16.228,empathy_intonation_perc,2020.2.10,Win32,60,,,,,,,,,,0,castilian,0,1,1.518935,0,14,14,37,1,38,./stim/wavs/andalusian_mismatch_declarative-broad-focus_Mi-madre-come-la-fruta.wav,./stim/wavs/argentine_mismatch_declarative-broad-focus_Mi-madre-come-la-fruta.wav,./stim/wavs/castilian_mismatch_declarative-broad-focus_Mi-madre-come-la-fruta.wav,./stim/wavs/chilean_mismatch_declarative-broad-focus_Mi-madre-come-la-fruta.wav,./stim/wavs/cuban_mismatch_declarative-broad-focus_Mi-madre-come-la-fruta.wav,./stim/wavs/mexican_mismatch_declarative-broad-focus_Mi-madre-come-la-fruta.wav,./stim/wavs/peruvian_mismatch_declarative-broad-focus_Mi-madre-come-la-fruta.wav,./stim/wavs/puertorican_mismatch_declarative-broad-focus_Mi-madre-come-la-fruta.wav,,,,,,,,,,,,,,,,,,,,,,,,,,,,,,,,,,,,,,,,,,,,,,,,,,,,,,,,
,,,,,,,5fd4335c2d643f1a0ed65cb7,605b45a4d25f287719a41696,605b9a706d7b3e279dc0e384,Mexico,Midwest,13 or older,no,2021-03-24_15h01.16.228,empathy_intonation_perc,2020.2.10,Win32,60,,,,,,,,,,1,chilean,1,1,1.632615,0,15,15,57,1,58,./stim/wavs/andalusian_mismatch_interrogative-total-yn_El-hombre-mira-la-luna.wav,./stim/wavs/argentine_mismatch_interrogative-total-yn_El-hombre-mira-la-luna.wav,./stim/wavs/castilian_mismatch_interrogative-total-yn_El-hombre-mira-la-luna.wav,./stim/wavs/chilean_mismatch_interrogative-total-yn_El-hombre-mira-la-luna.wav,./stim/wavs/cuban_mismatch_interrogative-total-yn_El-hombre-mira-la-luna.wav,./stim/wavs/mexican_mismatch_interrogative-total-yn_El-hombre-mira-la-luna.wav,./stim/wavs/peruvian_mismatch_interrogative-total-yn_El-hombre-mira-la-luna.wav,./stim/wavs/puertorican_mismatch_interrogative-total-yn_El-hombre-mira-la-luna.wav,,,,,,,,,,,,,,,,,,,,,,,,,,,,,,,,,,,,,,,,,,,,,,,,,,,,,,,,
,,,,,,,5fd4335c2d643f1a0ed65cb7,605b45a4d25f287719a41696,605b9a706d7b3e279dc0e384,Mexico,Midwest,13 or older,no,2021-03-24_15h01.16.228,empathy_intonation_perc,2020.2.10,Win32,60,,,,,,,,,,1,chilean,1,1,1.735505,0,16,16,27,1,28,./stim/wavs/andalusian_match_interrogative-total-yn_Emilio-ama-la-marcha.wav,./stim/wavs/argentine_match_interrogative-total-yn_Emilio-ama-la-marcha.wav,./stim/wavs/castilian_match_interrogative-total-yn_Emilio-ama-la-marcha.wav,./stim/wavs/chilean_match_interrogative-total-yn_Emilio-ama-la-marcha.wav,./stim/wavs/cuban_match_interrogative-total-yn_Emilio-ama-la-marcha.wav,./stim/wavs/mexican_match_interrogative-total-yn_Emilio-ama-la-marcha.wav,./stim/wavs/peruvian_match_interrogative-total-yn_Emilio-ama-la-marcha.wav,./stim/wavs/puertorican_match_interrogative-total-yn_Emilio-ama-la-marcha.wav,,,,,,,,,,,,,,,,,,,,,,,,,,,,,,,,,,,,,,,,,,,,,,,,,,,,,,,,
,,,,,,,5fd4335c2d643f1a0ed65cb7,605b45a4d25f287719a41696,605b9a706d7b3e279dc0e384,Mexico,Midwest,13 or older,no,2021-03-24_15h01.16.228,empathy_intonation_perc,2020.2.10,Win32,60,,,,,,,,,,1,chilean,1,1,1.51892,0,17,17,17,1,18,./stim/wavs/andalusian_match_interrogative-partial-wh_Cuando-leia-el-libro.wav,./stim/wavs/argentine_match_interrogative-partial-wh_Cuando-leia-el-libro.wav,./stim/wavs/castilian_match_interrogative-partial-wh_Cuando-leia-el-libro.wav,./stim/wavs/chilean_match_interrogative-partial-wh_Cuando-leia-el-libro.wav,./stim/wavs/cuban_match_interrogative-partial-wh_Cuando-leia-el-libro.wav,./stim/wavs/mexican_match_interrogative-partial-wh_Cuando-leia-el-libro.wav,./stim/wavs/peruvian_match_interrogative-partial-wh_Cuando-leia-el-libro.wav,./stim/wavs/puertorican_match_interrogative-partial-wh_Cuando-leia-el-libro.wav,,,,,,,,,,,,,,,,,,,,,,,,,,,,,,,,,,,,,,,,,,,,,,,,,,,,,,,,
,,,,,,,5fd4335c2d643f1a0ed65cb7,605b45a4d25f287719a41696,605b9a706d7b3e279dc0e384,Mexico,Midwest,13 or older,no,2021-03-24_15h01.16.228,empathy_intonation_perc,2020.2.10,Win32,60,,,,,,,,,,0,argentine,0,1,1.485525,0,18,18,7,1,8,./stim/wavs/andalusian_match_declarative-broad-focus_Marta-abre-el-regalo.wav,./stim/wavs/argentine_match_declarative-broad-focus_Marta-abre-el-regalo.wav,./stim/wavs/castilian_match_declarative-broad-focus_Marta-abre-el-regalo.wav,./stim/wavs/chilean_match_declarative-broad-focus_Marta-abre-el-regalo.wav,./stim/wavs/cuban_match_declarative-broad-focus_Marta-abre-el-regalo.wav,./stim/wavs/mexican_match_declarative-broad-focus_Marta-abre-el-regalo.wav,./stim/wavs/peruvian_match_declarative-broad-focus_Marta-abre-el-regalo.wav,./stim/wavs/puertorican_match_declarative-broad-focus_Marta-abre-el-regalo.wav,,,,,,,,,,,,,,,,,,,,,,,,,,,,,,,,,,,,,,,,,,,,,,,,,,,,,,,,
,,,,,,,5fd4335c2d643f1a0ed65cb7,605b45a4d25f287719a41696,605b9a706d7b3e279dc0e384,Mexico,Midwest,13 or older,no,2021-03-24_15h01.16.228,empathy_intonation_perc,2020.2.10,Win32,60,,,,,,,,,,0,andalusian,0,1,1.516825,0,19,19,4,1,5,./stim/wavs/andalusian_match_declarative-broad-focus_Manuela-vende-el-carro.wav,./stim/wavs/argentine_match_declarative-broad-focus_Manuela-vende-el-carro.wav,./stim/wavs/castilian_match_declarative-broad-focus_Manuela-vende-el-carro.wav,./stim/wavs/chilean_match_declarative-broad-focus_Manuela-vende-el-carro.wav,./stim/wavs/cuban_match_declarative-broad-focus_Manuela-vende-el-carro.wav,./stim/wavs/mexican_match_declarative-broad-focus_Manuela-vende-el-carro.wav,./stim/wavs/peruvian_match_declarative-broad-focus_Manuela-vende-el-carro.wav,./stim/wavs/puertorican_match_declarative-broad-focus_Manuela-vende-el-carro.wav,,,,,,,,,,,,,,,,,,,,,,,,,,,,,,,,,,,,,,,,,,,,,,,,,,,,,,,,
,,,,,,,5fd4335c2d643f1a0ed65cb7,605b45a4d25f287719a41696,605b9a706d7b3e279dc0e384,Mexico,Midwest,13 or older,no,2021-03-24_15h01.16.228,empathy_intonation_perc,2020.2.10,Win32,60,,,,,,,,,,1,mexican,1,1,1.47066,0,20,20,53,1,54,./stim/wavs/andalusian_mismatch_interrogative-partial-wh_Por-que-oia-el-rio.wav,./stim/wavs/argentine_mismatch_interrogative-partial-wh_Por-que-oia-el-rio.wav,./stim/wavs/castilian_mismatch_interrogative-partial-wh_Por-que-oia-el-rio.wav,./stim/wavs/chilean_mismatch_interrogative-partial-wh_Por-que-oia-el-rio.wav,./stim/wavs/cuban_mismatch_interrogative-partial-wh_Por-que-oia-el-rio.wav,./stim/wavs/mexican_mismatch_interrogative-partial-wh_Por-que-oia-el-rio.wav,./stim/wavs/peruvian_mismatch_interrogative-partial-wh_Por-que-oia-el-rio.wav,./stim/wavs/puertorican_mismatch_interrogative-partial-wh_Por-que-oia-el-rio.wav,,,,,,,,,,,,,,,,,,,,,,,,,,,,,,,,,,,,,,,,,,,,,,,,,,,,,,,,
,,,,,,,5fd4335c2d643f1a0ed65cb7,605b45a4d25f287719a41696,605b9a706d7b3e279dc0e384,Mexico,Midwest,13 or older,no,2021-03-24_15h01.16.228,empathy_intonation_perc,2020.2.10,Win32,60,,,,,,,,,,1,cuban,0,0,1.58023,0,21,21,16,1,17,./stim/wavs/andalusian_match_interrogative-partial-wh_Cuando-bebia-el-vino.wav,./stim/wavs/argentine_match_interrogative-partial-wh_Cuando-bebia-el-vino.wav,./stim/wavs/castilian_match_interrogative-partial-wh_Cuando-bebia-el-vino.wav,./stim/wavs/chilean_match_interrogative-partial-wh_Cuando-bebia-el-vino.wav,./stim/wavs/cuban_match_interrogative-partial-wh_Cuando-bebia-el-vino.wav,./stim/wavs/mexican_match_interrogative-partial-wh_Cuando-bebia-el-vino.wav,./stim/wavs/peruvian_match_interrogative-partial-wh_Cuando-bebia-el-vino.wav,./stim/wavs/puertorican_match_interrogative-partial-wh_Cuando-bebia-el-vino.wav,,,,,,,,,,,,,,,,,,,,,,,,,,,,,,,,,,,,,,,,,,,,,,,,,,,,,,,,
,,,,,,,5fd4335c2d643f1a0ed65cb7,605b45a4d25f287719a41696,605b9a706d7b3e279dc0e384,Mexico,Midwest,13 or older,no,2021-03-24_15h01.16.228,empathy_intonation_perc,2020.2.10,Win32,60,,,,,,,,,,1,andalusian,1,1,2.07023,0,22,22,24,1,25,./stim/wavs/andalusian_match_interrogative-total-yn_Ana-lleva-el-abrigo.wav,./stim/wavs/argentine_match_interrogative-total-yn_Ana-lleva-el-abrigo.wav,./stim/wavs/castilian_match_interrogative-total-yn_Ana-lleva-el-abrigo.wav,./stim/wavs/chilean_match_interrogative-total-yn_Ana-lleva-el-abrigo.wav,./stim/wavs/cuban_match_interrogative-total-yn_Ana-lleva-el-abrigo.wav,./stim/wavs/mexican_match_interrogative-total-yn_Ana-lleva-el-abrigo.wav,./stim/wavs/peruvian_match_interrogative-total-yn_Ana-lleva-el-abrigo.wav,./stim/wavs/puertorican_match_interrogative-total-yn_Ana-lleva-el-abrigo.wav,,,,,,,,,,,,,,,,,,,,,,,,,,,,,,,,,,,,,,,,,,,,,,,,,,,,,,,,
,,,,,,,5fd4335c2d643f1a0ed65cb7,605b45a4d25f287719a41696,605b9a706d7b3e279dc0e384,Mexico,Midwest,13 or older,no,2021-03-24_15h01.16.228,empathy_intonation_perc,2020.2.10,Win32,60,,,,,,,,,,1,mexican,0,0,1.66969,0,23,23,22,1,23,./stim/wavs/andalusian_match_interrogative-partial-wh_Por-que-hablaba-del-agua.wav,./stim/wavs/argentine_match_interrogative-partial-wh_Por-que-hablaba-del-agua.wav,./stim/wavs/castilian_match_interrogative-partial-wh_Por-que-hablaba-del-agua.wav,./stim/wavs/chilean_match_interrogative-partial-wh_Por-que-hablaba-del-agua.wav,./stim/wavs/cuban_match_interrogative-partial-wh_Por-que-hablaba-del-agua.wav,./stim/wavs/mexican_match_interrogative-partial-wh_Por-que-hablaba-del-agua.wav,./stim/wavs/peruvian_match_interrogative-partial-wh_Por-que-hablaba-del-agua.wav,./stim/wavs/puertorican_match_interrogative-partial-wh_Por-que-hablaba-del-agua.wav,,,,,,,,,,,,,,,,,,,,,,,,,,,,,,,,,,,,,,,,,,,,,,,,,,,,,,,,
,,,,,,,5fd4335c2d643f1a0ed65cb7,605b45a4d25f287719a41696,605b9a706d7b3e279dc0e384,Mexico,Midwest,13 or older,no,2021-03-24_15h01.16.228,empathy_intonation_perc,2020.2.10,Win32,60,,,,,,,,,,0,chilean,0,1,1.29888,0,24,24,36,1,37,./stim/wavs/andalusian_mismatch_declarative-broad-focus_La-nina-lava-el-plato.wav,./stim/wavs/argentine_mismatch_declarative-broad-focus_La-nina-lava-el-plato.wav,./stim/wavs/castilian_mismatch_declarative-broad-focus_La-nina-lava-el-plato.wav,./stim/wavs/chilean_mismatch_declarative-broad-focus_La-nina-lava-el-plato.wav,./stim/wavs/cuban_mismatch_declarative-broad-focus_La-nina-lava-el-plato.wav,./stim/wavs/mexican_mismatch_declarative-broad-focus_La-nina-lava-el-plato.wav,./stim/wavs/peruvian_mismatch_declarative-broad-focus_La-nina-lava-el-plato.wav,./stim/wavs/puertorican_mismatch_declarative-broad-focus_La-nina-lava-el-plato.wav,,,,,,,,,,,,,,,,,,,,,,,,,,,,,,,,,,,,,,,,,,,,,,,,,,,,,,,,
,,,,,,,5fd4335c2d643f1a0ed65cb7,605b45a4d25f287719a41696,605b9a706d7b3e279dc0e384,Mexico,Midwest,13 or older,no,2021-03-24_15h01.16.228,empathy_intonation_perc,2020.2.10,Win32,60,,,,,,,,,,1,castilian,1,1,0.86202,0,25,25,20,1,21,./stim/wavs/andalusian_match_interrogative-partial-wh_Por-que-abre-el-regalo.wav,./stim/wavs/argentine_match_interrogative-partial-wh_Por-que-abre-el-regalo.wav,./stim/wavs/castilian_match_interrogative-partial-wh_Por-que-abre-el-regalo.wav,./stim/wavs/chilean_match_interrogative-partial-wh_Por-que-abre-el-regalo.wav,./stim/wavs/cuban_match_interrogative-partial-wh_Por-que-abre-el-regalo.wav,./stim/wavs/mexican_match_interrogative-partial-wh_Por-que-abre-el-regalo.wav,./stim/wavs/peruvian_match_interrogative-partial-wh_Por-que-abre-el-regalo.wav,./stim/wavs/puertorican_match_interrogative-partial-wh_Por-que-abre-el-regalo.wav,,,,,,,,,,,,,,,,,,,,,,,,,,,,,,,,,,,,,,,,,,,,,,,,,,,,,,,,
,,,,,,,5fd4335c2d643f1a0ed65cb7,605b45a4d25f287719a41696,605b9a706d7b3e279dc0e384,Mexico,Midwest,13 or older,no,2021-03-24_15h01.16.228,empathy_intonation_perc,2020.2.10,Win32,60,,,,,,,,,,0,mexican,1,0,1.221445,0,26,26,2,1,3,./stim/wavs/andalusian_match_declarative-broad-focus_David-leia-el-libro.wav,./stim/wavs/argentine_match_declarative-broad-focus_David-leia-el-libro.wav,./stim/wavs/castilian_match_declarative-broad-focus_David-leia-el-libro.wav,./stim/wavs/chilean_match_declarative-broad-focus_David-leia-el-libro.wav,./stim/wavs/cuban_match_declarative-broad-focus_David-leia-el-libro.wav,./stim/wavs/mexican_match_declarative-broad-focus_David-leia-el-libro.wav,./stim/wavs/peruvian_match_declarative-broad-focus_David-leia-el-libro.wav,./stim/wavs/puertorican_match_declarative-broad-focus_David-leia-el-libro.wav,,,,,,,,,,,,,,,,,,,,,,,,,,,,,,,,,,,,,,,,,,,,,,,,,,,,,,,,
,,,,,,,5fd4335c2d643f1a0ed65cb7,605b45a4d25f287719a41696,605b9a706d7b3e279dc0e384,Mexico,Midwest,13 or older,no,2021-03-24_15h01.16.228,empathy_intonation_perc,2020.2.10,Win32,60,,,,,,,,,,0,andalusian,0,1,1.719585,0,27,27,10,1,11,./stim/wavs/andalusian_match_declarative-narrow-focus_David-leia-el-libro.wav,./stim/wavs/argentine_match_declarative-narrow-focus_David-leia-el-libro.wav,./stim/wavs/castilian_match_declarative-narrow-focus_David-leia-el-libro.wav,./stim/wavs/chilean_match_declarative-narrow-focus_David-leia-el-libro.wav,./stim/wavs/cuban_match_declarative-narrow-focus_David-leia-el-libro.wav,./stim/wavs/mexican_match_declarative-narrow-focus_David-leia-el-libro.wav,./stim/wavs/peruvian_match_declarative-narrow-focus_David-leia-el-libro.wav,./stim/wavs/puertorican_match_declarative-narrow-focus_David-leia-el-libro.wav,,,,,,,,,,,,,,,,,,,,,,,,,,,,,,,,,,,,,,,,,,,,,,,,,,,,,,,,
,,,,,,,5fd4335c2d643f1a0ed65cb7,605b45a4d25f287719a41696,605b9a706d7b3e279dc0e384,Mexico,Midwest,13 or older,no,2021-03-24_15h01.16.228,empathy_intonation_perc,2020.2.10,Win32,60,,,,,,,,,,1,andalusian,1,1,1.6868,0,28,28,54,1,55,./stim/wavs/andalusian_mismatch_interrogative-partial-wh_Por-que-venia-del-lago.wav,./stim/wavs/argentine_mismatch_interrogative-partial-wh_Por-que-venia-del-lago.wav,./stim/wavs/castilian_mismatch_interrogative-partial-wh_Por-que-venia-del-lago.wav,./stim/wavs/chilean_mismatch_interrogative-partial-wh_Por-que-venia-del-lago.wav,./stim/wavs/cuban_mismatch_interrogative-partial-wh_Por-que-venia-del-lago.wav,./stim/wavs/mexican_mismatch_interrogative-partial-wh_Por-que-venia-del-lago.wav,./stim/wavs/peruvian_mismatch_interrogative-partial-wh_Por-que-venia-del-lago.wav,./stim/wavs/puertorican_mismatch_interrogative-partial-wh_Por-que-venia-del-lago.wav,,,,,,,,,,,,,,,,,,,,,,,,,,,,,,,,,,,,,,,,,,,,,,,,,,,,,,,,
,,,,,,,5fd4335c2d643f1a0ed65cb7,605b45a4d25f287719a41696,605b9a706d7b3e279dc0e384,Mexico,Midwest,13 or older,no,2021-03-24_15h01.16.228,empathy_intonation_perc,2020.2.10,Win32,60,,,,,,,,,,1,cuban,1,1,1.60228,0,29,29,52,1,53,./stim/wavs/andalusian_mismatch_interrogative-partial-wh_Por-que-odiaba-la-lluvia.wav,./stim/wavs/argentine_mismatch_interrogative-partial-wh_Por-que-odiaba-la-lluvia.wav,./stim/wavs/castilian_mismatch_interrogative-partial-wh_Por-que-odiaba-la-lluvia.wav,./stim/wavs/chilean_mismatch_interrogative-partial-wh_Por-que-odiaba-la-lluvia.wav,./stim/wavs/cuban_mismatch_interrogative-partial-wh_Por-que-odiaba-la-lluvia.wav,./stim/wavs/mexican_mismatch_interrogative-partial-wh_Por-que-odiaba-la-lluvia.wav,./stim/wavs/peruvian_mismatch_interrogative-partial-wh_Por-que-odiaba-la-lluvia.wav,./stim/wavs/puertorican_mismatch_interrogative-partial-wh_Por-que-odiaba-la-lluvia.wav,,,,,,,,,,,,,,,,,,,,,,,,,,,,,,,,,,,,,,,,,,,,,,,,,,,,,,,,
,,,,,,,5fd4335c2d643f1a0ed65cb7,605b45a4d25f287719a41696,605b9a706d7b3e279dc0e384,Mexico,Midwest,13 or older,no,2021-03-24_15h01.16.228,empathy_intonation_perc,2020.2.10,Win32,60,,,,,,,,,,1,argentine,0,0,1.73581,0,30,30,59,1,60,./stim/wavs/andalusian_mismatch_interrogative-total-yn_La-maestra-vive-en-Paris.wav,./stim/wavs/argentine_mismatch_interrogative-total-yn_La-maestra-vive-en-Paris.wav,./stim/wavs/castilian_mismatch_interrogative-total-yn_La-maestra-vive-en-Paris.wav,./stim/wavs/chilean_mismatch_interrogative-total-yn_La-maestra-vive-en-Paris.wav,./stim/wavs/cuban_mismatch_interrogative-total-yn_La-maestra-vive-en-Paris.wav,./stim/wavs/mexican_mismatch_interrogative-total-yn_La-maestra-vive-en-Paris.wav,./stim/wavs/peruvian_mismatch_interrogative-total-yn_La-maestra-vive-en-Paris.wav,./stim/wavs/puertorican_mismatch_interrogative-total-yn_La-maestra-vive-en-Paris.wav,,,,,,,,,,,,,,,,,,,,,,,,,,,,,,,,,,,,,,,,,,,,,,,,,,,,,,,,
,,,,,,,5fd4335c2d643f1a0ed65cb7,605b45a4d25f287719a41696,605b9a706d7b3e279dc0e384,Mexico,Midwest,13 or older,no,2021-03-24_15h01.16.228,empathy_intonation_perc,2020.2.10,Win32,60,,,,,,,,,,0,chilean,1,0,1.58607,0,31,31,45,1,46,./stim/wavs/andalusian_mismatch_declarative-narrow-focus_Mi-madre-come-la-fruta.wav,./stim/wavs/argentine_mismatch_declarative-narrow-focus_Mi-madre-come-la-fruta.wav,./stim/wavs/castilian_mismatch_declarative-narrow-focus_Mi-madre-come-la-fruta.wav,./stim/wavs/chilean_mismatch_declarative-narrow-focus_Mi-madre-come-la-fruta.wav,./stim/wavs/cuban_mismatch_declarative-narrow-focus_Mi-madre-come-la-fruta.wav,./stim/wavs/mexican_mismatch_declarative-narrow-focus_Mi-madre-come-la-fruta.wav,./stim/wavs/peruvian_mismatch_declarative-narrow-focus_Mi-madre-come-la-fruta.wav,./stim/wavs/puertorican_mismatch_declarative-narrow-focus_Mi-madre-come-la-fruta.wav,,,,,,,,,,,,,,,,,,,,,,,,,,,,,,,,,,,,,,,,,,,,,,,,,,,,,,,,
,,,,,,,5fd4335c2d643f1a0ed65cb7,605b45a4d25f287719a41696,605b9a706d7b3e279dc0e384,Mexico,Midwest,13 or older,no,2021-03-24_15h01.16.228,empathy_intonation_perc,2020.2.10,Win32,60,,,,,,,,,,0,andalusian,0,1,1.619505,0,32,32,47,1,48,./stim/wavs/andalusian_mismatch_declarative-narrow-focus_Mi-tia-odia-la-lluvia.wav,./stim/wavs/argentine_mismatch_declarative-narrow-focus_Mi-tia-odia-la-lluvia.wav,./stim/wavs/castilian_mismatch_declarative-narrow-focus_Mi-tia-odia-la-lluvia.wav,./stim/wavs/chilean_mismatch_declarative-narrow-focus_Mi-tia-odia-la-lluvia.wav,./stim/wavs/cuban_mismatch_declarative-narrow-focus_Mi-tia-odia-la-lluvia.wav,./stim/wavs/mexican_mismatch_declarative-narrow-focus_Mi-tia-odia-la-lluvia.wav,./stim/wavs/peruvian_mismatch_declarative-narrow-focus_Mi-tia-odia-la-lluvia.wav,./stim/wavs/puertorican_mismatch_declarative-narrow-focus_Mi-tia-odia-la-lluvia.wav,,,,,,,,,,,,,,,,,,,,,,,,,,,,,,,,,,,,,,,,,,,,,,,,,,,,,,,,
,,,,,,,5fd4335c2d643f1a0ed65cb7,605b45a4d25f287719a41696,605b9a706d7b3e279dc0e384,Mexico,Midwest,13 or older,no,2021-03-24_15h01.16.228,empathy_intonation_perc,2020.2.10,Win32,60,,,,,,,,,,1,mexican,0,0,1.54493,0,33,33,49,1,50,./stim/wavs/andalusian_mismatch_interrogative-partial-wh_Cuando-lavaba-el-plato.wav,./stim/wavs/argentine_mismatch_interrogative-partial-wh_Cuando-lavaba-el-plato.wav,./stim/wavs/castilian_mismatch_interrogative-partial-wh_Cuando-lavaba-el-plato.wav,./stim/wavs/chilean_mismatch_interrogative-partial-wh_Cuando-lavaba-el-plato.wav,./stim/wavs/cuban_mismatch_interrogative-partial-wh_Cuando-lavaba-el-plato.wav,./stim/wavs/mexican_mismatch_interrogative-partial-wh_Cuando-lavaba-el-plato.wav,./stim/wavs/peruvian_mismatch_interrogative-partial-wh_Cuando-lavaba-el-plato.wav,./stim/wavs/puertorican_mismatch_interrogative-partial-wh_Cuando-lavaba-el-plato.wav,,,,,,,,,,,,,,,,,,,,,,,,,,,,,,,,,,,,,,,,,,,,,,,,,,,,,,,,
,,,,,,,5fd4335c2d643f1a0ed65cb7,605b45a4d25f287719a41696,605b9a706d7b3e279dc0e384,Mexico,Midwest,13 or older,no,2021-03-24_15h01.16.228,empathy_intonation_perc,2020.2.10,Win32,60,,,,,,,,,,1,cuban,1,1,1.468865,0,34,34,56,1,57,./stim/wavs/andalusian_mismatch_interrogative-total-yn_El-bebe-comia-muy-bien.wav,./stim/wavs/argentine_mismatch_interrogative-total-yn_El-bebe-comia-muy-bien.wav,./stim/wavs/castilian_mismatch_interrogative-total-yn_El-bebe-comia-muy-bien.wav,./stim/wavs/chilean_mismatch_interrogative-total-yn_El-bebe-comia-muy-bien.wav,./stim/wavs/cuban_mismatch_interrogative-total-yn_El-bebe-comia-muy-bien.wav,./stim/wavs/mexican_mismatch_interrogative-total-yn_El-bebe-comia-muy-bien.wav,./stim/wavs/peruvian_mismatch_interrogative-total-yn_El-bebe-comia-muy-bien.wav,./stim/wavs/puertorican_mismatch_interrogative-total-yn_El-bebe-comia-muy-bien.wav,,,,,,,,,,,,,,,,,,,,,,,,,,,,,,,,,,,,,,,,,,,,,,,,,,,,,,,,
,,,,,,,5fd4335c2d643f1a0ed65cb7,605b45a4d25f287719a41696,605b9a706d7b3e279dc0e384,Mexico,Midwest,13 or older,no,2021-03-24_15h01.16.228,empathy_intonation_perc,2020.2.10,Win32,60,,,,,,,,,,0,andalusian,1,0,1.618305,0,35,35,15,1,16,./stim/wavs/andalusian_match_declarative-narrow-focus_Marta-abre-el-regalo.wav,./stim/wavs/argentine_match_declarative-narrow-focus_Marta-abre-el-regalo.wav,./stim/wavs/castilian_match_declarative-narrow-focus_Marta-abre-el-regalo.wav,./stim/wavs/chilean_match_declarative-narrow-focus_Marta-abre-el-regalo.wav,./stim/wavs/cuban_match_declarative-narrow-focus_Marta-abre-el-regalo.wav,./stim/wavs/mexican_match_declarative-narrow-focus_Marta-abre-el-regalo.wav,./stim/wavs/peruvian_match_declarative-narrow-focus_Marta-abre-el-regalo.wav,./stim/wavs/puertorican_match_declarative-narrow-focus_Marta-abre-el-regalo.wav,,,,,,,,,,,,,,,,,,,,,,,,,,,,,,,,,,,,,,,,,,,,,,,,,,,,,,,,
,,,,,,,5fd4335c2d643f1a0ed65cb7,605b45a4d25f287719a41696,605b9a706d7b3e279dc0e384,Mexico,Midwest,13 or older,no,2021-03-24_15h01.16.228,empathy_intonation_perc,2020.2.10,Win32,60,,,,,,,,,,1,chilean,1,1,1.195575,0,36,36,19,1,20,./stim/wavs/andalusian_match_interrogative-partial-wh_Cuando-vendia-el-carro.wav,./stim/wavs/argentine_match_interrogative-partial-wh_Cuando-vendia-el-carro.wav,./stim/wavs/castilian_match_interrogative-partial-wh_Cuando-vendia-el-carro.wav,./stim/wavs/chilean_match_interrogative-partial-wh_Cuando-vendia-el-carro.wav,./stim/wavs/cuban_match_interrogative-partial-wh_Cuando-vendia-el-carro.wav,./stim/wavs/mexican_match_interrogative-partial-wh_Cuando-vendia-el-carro.wav,./stim/wavs/peruvian_match_interrogative-partial-wh_Cuando-vendia-el-carro.wav,./stim/wavs/puertorican_match_interrogative-partial-wh_Cuando-vendia-el-carro.wav,,,,,,,,,,,,,,,,,,,,,,,,,,,,,,,,,,,,,,,,,,,,,,,,,,,,,,,,
,,,,,,,5fd4335c2d643f1a0ed65cb7,605b45a4d25f287719a41696,605b9a706d7b3e279dc0e384,Mexico,Midwest,13 or older,no,2021-03-24_15h01.16.228,empathy_intonation_perc,2020.2.10,Win32,60,,,,,,,,,,0,peruvian,0,1,2.06879,0,37,37,43,1,44,./stim/wavs/andalusian_mismatch_declarative-narrow-focus_La-maestra-vive-en-Paris.wav,./stim/wavs/argentine_mismatch_declarative-narrow-focus_La-maestra-vive-en-Paris.wav,./stim/wavs/castilian_mismatch_declarative-narrow-focus_La-maestra-vive-en-Paris.wav,./stim/wavs/chilean_mismatch_declarative-narrow-focus_La-maestra-vive-en-Paris.wav,./stim/wavs/cuban_mismatch_declarative-narrow-focus_La-maestra-vive-en-Paris.wav,./stim/wavs/mexican_mismatch_declarative-narrow-focus_La-maestra-vive-en-Paris.wav,./stim/wavs/peruvian_mismatch_declarative-narrow-focus_La-maestra-vive-en-Paris.wav,./stim/wavs/puertorican_mismatch_declarative-narrow-focus_La-maestra-vive-en-Paris.wav,,,,,,,,,,,,,,,,,,,,,,,,,,,,,,,,,,,,,,,,,,,,,,,,,,,,,,,,
,,,,,,,5fd4335c2d643f1a0ed65cb7,605b45a4d25f287719a41696,605b9a706d7b3e279dc0e384,Mexico,Midwest,13 or older,no,2021-03-24_15h01.16.228,empathy_intonation_perc,2020.2.10,Win32,60,,,,,,,,,,1,chilean,1,1,1.70638,0,38,38,55,1,56,./stim/wavs/andalusian_mismatch_interrogative-partial-wh_Por-que-vivia-en-Paris.wav,./stim/wavs/argentine_mismatch_interrogative-partial-wh_Por-que-vivia-en-Paris.wav,./stim/wavs/castilian_mismatch_interrogative-partial-wh_Por-que-vivia-en-Paris.wav,./stim/wavs/chilean_mismatch_interrogative-partial-wh_Por-que-vivia-en-Paris.wav,./stim/wavs/cuban_mismatch_interrogative-partial-wh_Por-que-vivia-en-Paris.wav,./stim/wavs/mexican_mismatch_interrogative-partial-wh_Por-que-vivia-en-Paris.wav,./stim/wavs/peruvian_mismatch_interrogative-partial-wh_Por-que-vivia-en-Paris.wav,./stim/wavs/puertorican_mismatch_interrogative-partial-wh_Por-que-vivia-en-Paris.wav,,,,,,,,,,,,,,,,,,,,,,,,,,,,,,,,,,,,,,,,,,,,,,,,,,,,,,,,
,,,,,,,5fd4335c2d643f1a0ed65cb7,605b45a4d25f287719a41696,605b9a706d7b3e279dc0e384,Mexico,Midwest,13 or older,no,2021-03-24_15h01.16.228,empathy_intonation_perc,2020.2.10,Win32,60,,,,,,,,,,1,chilean,1,1,1.33526,0,39,39,18,1,19,./stim/wavs/andalusian_match_interrogative-partial-wh_Cuando-lleva-el-abrigo.wav,./stim/wavs/argentine_match_interrogative-partial-wh_Cuando-lleva-el-abrigo.wav,./stim/wavs/castilian_match_interrogative-partial-wh_Cuando-lleva-el-abrigo.wav,./stim/wavs/chilean_match_interrogative-partial-wh_Cuando-lleva-el-abrigo.wav,./stim/wavs/cuban_match_interrogative-partial-wh_Cuando-lleva-el-abrigo.wav,./stim/wavs/mexican_match_interrogative-partial-wh_Cuando-lleva-el-abrigo.wav,./stim/wavs/peruvian_match_interrogative-partial-wh_Cuando-lleva-el-abrigo.wav,./stim/wavs/puertorican_match_interrogative-partial-wh_Cuando-lleva-el-abrigo.wav,,,,,,,,,,,,,,,,,,,,,,,,,,,,,,,,,,,,,,,,,,,,,,,,,,,,,,,,
,,,,,,,5fd4335c2d643f1a0ed65cb7,605b45a4d25f287719a41696,605b9a706d7b3e279dc0e384,Mexico,Midwest,13 or older,no,2021-03-24_15h01.16.228,empathy_intonation_perc,2020.2.10,Win32,60,,,,,,,,,,0,castilian,0,1,1.643215,0,40,40,13,1,14,./stim/wavs/andalusian_match_declarative-narrow-focus_Maria-bebe-el-vino.wav,./stim/wavs/argentine_match_declarative-narrow-focus_Maria-bebe-el-vino.wav,./stim/wavs/castilian_match_declarative-narrow-focus_Maria-bebe-el-vino.wav,./stim/wavs/chilean_match_declarative-narrow-focus_Maria-bebe-el-vino.wav,./stim/wavs/cuban_match_declarative-narrow-focus_Maria-bebe-el-vino.wav,./stim/wavs/mexican_match_declarative-narrow-focus_Maria-bebe-el-vino.wav,./stim/wavs/peruvian_match_declarative-narrow-focus_Maria-bebe-el-vino.wav,./stim/wavs/puertorican_match_declarative-narrow-focus_Maria-bebe-el-vino.wav,,,,,,,,,,,,,,,,,,,,,,,,,,,,,,,,,,,,,,,,,,,,,,,,,,,,,,,,
,,,,,,,5fd4335c2d643f1a0ed65cb7,605b45a4d25f287719a41696,605b9a706d7b3e279dc0e384,Mexico,Midwest,13 or older,no,2021-03-24_15h01.16.228,empathy_intonation_perc,2020.2.10,Win32,60,,,,,,,,,,0,puertorican,0,1,1.777625,0,41,41,12,1,13,./stim/wavs/andalusian_match_declarative-narrow-focus_Manuela-vende-el-carro.wav,./stim/wavs/argentine_match_declarative-narrow-focus_Manuela-vende-el-carro.wav,./stim/wavs/castilian_match_declarative-narrow-focus_Manuela-vende-el-carro.wav,./stim/wavs/chilean_match_declarative-narrow-focus_Manuela-vende-el-carro.wav,./stim/wavs/cuban_match_declarative-narrow-focus_Manuela-vende-el-carro.wav,./stim/wavs/mexican_match_declarative-narrow-focus_Manuela-vende-el-carro.wav,./stim/wavs/peruvian_match_declarative-narrow-focus_Manuela-vende-el-carro.wav,./stim/wavs/puertorican_match_declarative-narrow-focus_Manuela-vende-el-carro.wav,,,,,,,,,,,,,,,,,,,,,,,,,,,,,,,,,,,,,,,,,,,,,,,,,,,,,,,,
,,,,,,,5fd4335c2d643f1a0ed65cb7,605b45a4d25f287719a41696,605b9a706d7b3e279dc0e384,Mexico,Midwest,13 or older,no,2021-03-24_15h01.16.228,empathy_intonation_perc,2020.2.10,Win32,60,,,,,,,,,,1,chilean,1,1,1.203465,0,42,42,21,1,22,./stim/wavs/andalusian_match_interrogative-partial-wh_Por-que-ama-la-navidad.wav,./stim/wavs/argentine_match_interrogative-partial-wh_Por-que-ama-la-navidad.wav,./stim/wavs/castilian_match_interrogative-partial-wh_Por-que-ama-la-navidad.wav,./stim/wavs/chilean_match_interrogative-partial-wh_Por-que-ama-la-navidad.wav,./stim/wavs/cuban_match_interrogative-partial-wh_Por-que-ama-la-navidad.wav,./stim/wavs/mexican_match_interrogative-partial-wh_Por-que-ama-la-navidad.wav,./stim/wavs/peruvian_match_interrogative-partial-wh_Por-que-ama-la-navidad.wav,./stim/wavs/puertorican_match_interrogative-partial-wh_Por-que-ama-la-navidad.wav,,,,,,,,,,,,,,,,,,,,,,,,,,,,,,,,,,,,,,,,,,,,,,,,,,,,,,,,
,,,,,,,5fd4335c2d643f1a0ed65cb7,605b45a4d25f287719a41696,605b9a706d7b3e279dc0e384,Mexico,Midwest,13 or older,no,2021-03-24_15h01.16.228,empathy_intonation_perc,2020.2.10,Win32,60,,,,,,,,,,1,puertorican,0,0,1.419445,0,43,43,31,1,32,./stim/wavs/andalusian_match_interrogative-total-yn_Marta-abre-el-regalo.wav,./stim/wavs/argentine_match_interrogative-total-yn_Marta-abre-el-regalo.wav,./stim/wavs/castilian_match_interrogative-total-yn_Marta-abre-el-regalo.wav,./stim/wavs/chilean_match_interrogative-total-yn_Marta-abre-el-regalo.wav,./stim/wavs/cuban_match_interrogative-total-yn_Marta-abre-el-regalo.wav,./stim/wavs/mexican_match_interrogative-total-yn_Marta-abre-el-regalo.wav,./stim/wavs/peruvian_match_interrogative-total-yn_Marta-abre-el-regalo.wav,./stim/wavs/puertorican_match_interrogative-total-yn_Marta-abre-el-regalo.wav,,,,,,,,,,,,,,,,,,,,,,,,,,,,,,,,,,,,,,,,,,,,,,,,,,,,,,,,
,,,,,,,5fd4335c2d643f1a0ed65cb7,605b45a4d25f287719a41696,605b9a706d7b3e279dc0e384,Mexico,Midwest,13 or older,no,2021-03-24_15h01.16.228,empathy_intonation_perc,2020.2.10,Win32,60,,,,,,,,,,0,mexican,0,1,1.3557,0,44,44,9,1,10,./stim/wavs/andalusian_match_declarative-narrow-focus_Daniel-iba-a-Bolivia.wav,./stim/wavs/argentine_match_declarative-narrow-focus_Daniel-iba-a-Bolivia.wav,./stim/wavs/castilian_match_declarative-narrow-focus_Daniel-iba-a-Bolivia.wav,./stim/wavs/chilean_match_declarative-narrow-focus_Daniel-iba-a-Bolivia.wav,./stim/wavs/cuban_match_declarative-narrow-focus_Daniel-iba-a-Bolivia.wav,./stim/wavs/mexican_match_declarative-narrow-focus_Daniel-iba-a-Bolivia.wav,./stim/wavs/peruvian_match_declarative-narrow-focus_Daniel-iba-a-Bolivia.wav,./stim/wavs/puertorican_match_declarative-narrow-focus_Daniel-iba-a-Bolivia.wav,,,,,,,,,,,,,,,,,,,,,,,,,,,,,,,,,,,,,,,,,,,,,,,,,,,,,,,,
,,,,,,,5fd4335c2d643f1a0ed65cb7,605b45a4d25f287719a41696,605b9a706d7b3e279dc0e384,Mexico,Midwest,13 or older,no,2021-03-24_15h01.16.228,empathy_intonation_perc,2020.2.10,Win32,60,,,,,,,,,,1,puertorican,0,0,1.467895,0,45,45,50,1,51,./stim/wavs/andalusian_mismatch_interrogative-partial-wh_Cuando-miraba-la-luna.wav,./stim/wavs/argentine_mismatch_interrogative-partial-wh_Cuando-miraba-la-luna.wav,./stim/wavs/castilian_mismatch_interrogative-partial-wh_Cuando-miraba-la-luna.wav,./stim/wavs/chilean_mismatch_interrogative-partial-wh_Cuando-miraba-la-luna.wav,./stim/wavs/cuban_mismatch_interrogative-partial-wh_Cuando-miraba-la-luna.wav,./stim/wavs/mexican_mismatch_interrogative-partial-wh_Cuando-miraba-la-luna.wav,./stim/wavs/peruvian_mismatch_interrogative-partial-wh_Cuando-miraba-la-luna.wav,./stim/wavs/puertorican_mismatch_interrogative-partial-wh_Cuando-miraba-la-luna.wav,,,,,,,,,,,,,,,,,,,,,,,,,,,,,,,,,,,,,,,,,,,,,,,,,,,,,,,,
,,,,,,,5fd4335c2d643f1a0ed65cb7,605b45a4d25f287719a41696,605b9a706d7b3e279dc0e384,Mexico,Midwest,13 or older,no,2021-03-24_15h01.16.228,empathy_intonation_perc,2020.2.10,Win32,60,,,,,,,,,,1,mexican,1,1,0.61664,0,46,46,28,1,29,./stim/wavs/andalusian_match_interrogative-total-yn_Manuela-vende-el-carro.wav,./stim/wavs/argentine_match_interrogative-total-yn_Manuela-vende-el-carro.wav,./stim/wavs/castilian_match_interrogative-total-yn_Manuela-vende-el-carro.wav,./stim/wavs/chilean_match_interrogative-total-yn_Manuela-vende-el-carro.wav,./stim/wavs/cuban_match_interrogative-total-yn_Manuela-vende-el-carro.wav,./stim/wavs/mexican_match_interrogative-total-yn_Manuela-vende-el-carro.wav,./stim/wavs/peruvian_match_interrogative-total-yn_Manuela-vende-el-carro.wav,./stim/wavs/puertorican_match_interrogative-total-yn_Manuela-vende-el-carro.wav,,,,,,,,,,,,,,,,,,,,,,,,,,,,,,,,,,,,,,,,,,,,,,,,,,,,,,,,
,,,,,,,5fd4335c2d643f1a0ed65cb7,605b45a4d25f287719a41696,605b9a706d7b3e279dc0e384,Mexico,Midwest,13 or older,no,2021-03-24_15h01.16.228,empathy_intonation_perc,2020.2.10,Win32,60,,,,,,,,,,1,mexican,0,0,0.765165,0,47,47,29,1,30,./stim/wavs/andalusian_match_interrogative-total-yn_Maria-bebe-el-vino.wav,./stim/wavs/argentine_match_interrogative-total-yn_Maria-bebe-el-vino.wav,./stim/wavs/castilian_match_interrogative-total-yn_Maria-bebe-el-vino.wav,./stim/wavs/chilean_match_interrogative-total-yn_Maria-bebe-el-vino.wav,./stim/wavs/cuban_match_interrogative-total-yn_Maria-bebe-el-vino.wav,./stim/wavs/mexican_match_interrogative-total-yn_Maria-bebe-el-vino.wav,./stim/wavs/peruvian_match_interrogative-total-yn_Maria-bebe-el-vino.wav,./stim/wavs/puertorican_match_interrogative-total-yn_Maria-bebe-el-vino.wav,,,,,,,,,,,,,,,,,,,,,,,,,,,,,,,,,,,,,,,,,,,,,,,,,,,,,,,,
,,,,,,,5fd4335c2d643f1a0ed65cb7,605b45a4d25f287719a41696,605b9a706d7b3e279dc0e384,Mexico,Midwest,13 or older,no,2021-03-24_15h01.16.228,empathy_intonation_perc,2020.2.10,Win32,60,,,,,,,,,,0,argentine,0,1,1.41808,0,48,48,3,1,4,./stim/wavs/andalusian_match_declarative-broad-focus_Emilio-ama-la-marcha.wav,./stim/wavs/argentine_match_declarative-broad-focus_Emilio-ama-la-marcha.wav,./stim/wavs/castilian_match_declarative-broad-focus_Emilio-ama-la-marcha.wav,./stim/wavs/chilean_match_declarative-broad-focus_Emilio-ama-la-marcha.wav,./stim/wavs/cuban_match_declarative-broad-focus_Emilio-ama-la-marcha.wav,./stim/wavs/mexican_match_declarative-broad-focus_Emilio-ama-la-marcha.wav,./stim/wavs/peruvian_match_declarative-broad-focus_Emilio-ama-la-marcha.wav,./stim/wavs/puertorican_match_declarative-broad-focus_Emilio-ama-la-marcha.wav,,,,,,,,,,,,,,,,,,,,,,,,,,,,,,,,,,,,,,,,,,,,,,,,,,,,,,,,
,,,,,,,5fd4335c2d643f1a0ed65cb7,605b45a4d25f287719a41696,605b9a706d7b3e279dc0e384,Mexico,Midwest,13 or older,no,2021-03-24_15h01.16.228,empathy_intonation_perc,2020.2.10,Win32,60,,,,,,,,,,0,andalusian,0,1,1.54922,0,49,49,46,1,47,./stim/wavs/andalusian_mismatch_declarative-narrow-focus_Mi-novio-viene-del-lago.wav,./stim/wavs/argentine_mismatch_declarative-narrow-focus_Mi-novio-viene-del-lago.wav,./stim/wavs/castilian_mismatch_declarative-narrow-focus_Mi-novio-viene-del-lago.wav,./stim/wavs/chilean_mismatch_declarative-narrow-focus_Mi-novio-viene-del-lago.wav,./stim/wavs/cuban_mismatch_declarative-narrow-focus_Mi-novio-viene-del-lago.wav,./stim/wavs/mexican_mismatch_declarative-narrow-focus_Mi-novio-viene-del-lago.wav,./stim/wavs/peruvian_mismatch_declarative-narrow-focus_Mi-novio-viene-del-lago.wav,./stim/wavs/puertorican_mismatch_declarative-narrow-focus_Mi-novio-viene-del-lago.wav,,,,,,,,,,,,,,,,,,,,,,,,,,,,,,,,,,,,,,,,,,,,,,,,,,,,,,,,
,,,,,,,5fd4335c2d643f1a0ed65cb7,605b45a4d25f287719a41696,605b9a706d7b3e279dc0e384,Mexico,Midwest,13 or older,no,2021-03-24_15h01.16.228,empathy_intonation_perc,2020.2.10,Win32,60,,,,,,,,,,0,cuban,0,1,1.60837,0,50,50,44,1,45,./stim/wavs/andalusian_mismatch_declarative-narrow-focus_La-nina-lava-el-plato.wav,./stim/wavs/argentine_mismatch_declarative-narrow-focus_La-nina-lava-el-plato.wav,./stim/wavs/castilian_mismatch_declarative-narrow-focus_La-nina-lava-el-plato.wav,./stim/wavs/chilean_mismatch_declarative-narrow-focus_La-nina-lava-el-plato.wav,./stim/wavs/cuban_mismatch_declarative-narrow-focus_La-nina-lava-el-plato.wav,./stim/wavs/mexican_mismatch_declarative-narrow-focus_La-nina-lava-el-plato.wav,./stim/wavs/peruvian_mismatch_declarative-narrow-focus_La-nina-lava-el-plato.wav,./stim/wavs/puertorican_mismatch_declarative-narrow-focus_La-nina-lava-el-plato.wav,,,,,,,,,,,,,,,,,,,,,,,,,,,,,,,,,,,,,,,,,,,,,,,,,,,,,,,,
,,,,,,,5fd4335c2d643f1a0ed65cb7,605b45a4d25f287719a41696,605b9a706d7b3e279dc0e384,Mexico,Midwest,13 or older,no,2021-03-24_15h01.16.228,empathy_intonation_perc,2020.2.10,Win32,60,,,,,,,,,,0,mexican,1,0,1.431735,0,51,51,40,1,41,./stim/wavs/andalusian_mismatch_declarative-narrow-focus_El-bebe-comia-muy-bien.wav,./stim/wavs/argentine_mismatch_declarative-narrow-focus_El-bebe-comia-muy-bien.wav,./stim/wavs/castilian_mismatch_declarative-narrow-focus_El-bebe-comia-muy-bien.wav,./stim/wavs/chilean_mismatch_declarative-narrow-focus_El-bebe-comia-muy-bien.wav,./stim/wavs/cuban_mismatch_declarative-narrow-focus_El-bebe-comia-muy-bien.wav,./stim/wavs/mexican_mismatch_declarative-narrow-focus_El-bebe-comia-muy-bien.wav,./stim/wavs/peruvian_mismatch_declarative-narrow-focus_El-bebe-comia-muy-bien.wav,./stim/wavs/puertorican_mismatch_declarative-narrow-focus_El-bebe-comia-muy-bien.wav,,,,,,,,,,,,,,,,,,,,,,,,,,,,,,,,,,,,,,,,,,,,,,,,,,,,,,,,
,,,,,,,5fd4335c2d643f1a0ed65cb7,605b45a4d25f287719a41696,605b9a706d7b3e279dc0e384,Mexico,Midwest,13 or older,no,2021-03-24_15h01.16.228,empathy_intonation_perc,2020.2.10,Win32,60,,,,,,,,,,0,cuban,1,0,1.23587,0,52,52,8,1,9,./stim/wavs/andalusian_match_declarative-narrow-focus_Ana-lleva-el-abrigo.wav,./stim/wavs/argentine_match_declarative-narrow-focus_Ana-lleva-el-abrigo.wav,./stim/wavs/castilian_match_declarative-narrow-focus_Ana-lleva-el-abrigo.wav,./stim/wavs/chilean_match_declarative-narrow-focus_Ana-lleva-el-abrigo.wav,./stim/wavs/cuban_match_declarative-narrow-focus_Ana-lleva-el-abrigo.wav,./stim/wavs/mexican_match_declarative-narrow-focus_Ana-lleva-el-abrigo.wav,./stim/wavs/peruvian_match_declarative-narrow-focus_Ana-lleva-el-abrigo.wav,./stim/wavs/puertorican_match_declarative-narrow-focus_Ana-lleva-el-abrigo.wav,,,,,,,,,,,,,,,,,,,,,,,,,,,,,,,,,,,,,,,,,,,,,,,,,,,,,,,,
,,,,,,,5fd4335c2d643f1a0ed65cb7,605b45a4d25f287719a41696,605b9a706d7b3e279dc0e384,Mexico,Midwest,13 or older,no,2021-03-24_15h01.16.228,empathy_intonation_perc,2020.2.10,Win32,60,,,,,,,,,,0,castilian,1,0,1.38476,0,53,53,33,1,34,./stim/wavs/andalusian_mismatch_declarative-broad-focus_El-hombre-mira-la-luna.wav,./stim/wavs/argentine_mismatch_declarative-broad-focus_El-hombre-mira-la-luna.wav,./stim/wavs/castilian_mismatch_declarative-broad-focus_El-hombre-mira-la-luna.wav,./stim/wavs/chilean_mismatch_declarative-broad-focus_El-hombre-mira-la-luna.wav,./stim/wavs/cuban_mismatch_declarative-broad-focus_El-hombre-mira-la-luna.wav,./stim/wavs/mexican_mismatch_declarative-broad-focus_El-hombre-mira-la-luna.wav,./stim/wavs/peruvian_mismatch_declarative-broad-focus_El-hombre-mira-la-luna.wav,./stim/wavs/puertorican_mismatch_declarative-broad-focus_El-hombre-mira-la-luna.wav,,,,,,,,,,,,,,,,,,,,,,,,,,,,,,,,,,,,,,,,,,,,,,,,,,,,,,,,
,,,,,,,5fd4335c2d643f1a0ed65cb7,605b45a4d25f287719a41696,605b9a706d7b3e279dc0e384,Mexico,Midwest,13 or older,no,2021-03-24_15h01.16.228,empathy_intonation_perc,2020.2.10,Win32,60,,,,,,,,,,0,andalusian,0,1,2.65162,0,54,54,6,1,7,./stim/wavs/andalusian_match_declarative-broad-focus_Mariano-habla-del-tiempo.wav,./stim/wavs/argentine_match_declarative-broad-focus_Mariano-habla-del-tiempo.wav,./stim/wavs/castilian_match_declarative-broad-focus_Mariano-habla-del-tiempo.wav,./stim/wavs/chilean_match_declarative-broad-focus_Mariano-habla-del-tiempo.wav,./stim/wavs/cuban_match_declarative-broad-focus_Mariano-habla-del-tiempo.wav,./stim/wavs/mexican_match_declarative-broad-focus_Mariano-habla-del-tiempo.wav,./stim/wavs/peruvian_match_declarative-broad-focus_Mariano-habla-del-tiempo.wav,./stim/wavs/puertorican_match_declarative-broad-focus_Mariano-habla-del-tiempo.wav,,,,,,,,,,,,,,,,,,,,,,,,,,,,,,,,,,,,,,,,,,,,,,,,,,,,,,,,
,,,,,,,5fd4335c2d643f1a0ed65cb7,605b45a4d25f287719a41696,605b9a706d7b3e279dc0e384,Mexico,Midwest,13 or older,no,2021-03-24_15h01.16.228,empathy_intonation_perc,2020.2.10,Win32,60,,,,,,,,,,0,cuban,1,0,2.09494,0,55,55,32,1,33,./stim/wavs/andalusian_mismatch_declarative-broad-focus_El-bebe-comia-muy-bien.wav,./stim/wavs/argentine_mismatch_declarative-broad-focus_El-bebe-comia-muy-bien.wav,./stim/wavs/castilian_mismatch_declarative-broad-focus_El-bebe-comia-muy-bien.wav,./stim/wavs/chilean_mismatch_declarative-broad-focus_El-bebe-comia-muy-bien.wav,./stim/wavs/cuban_mismatch_declarative-broad-focus_El-bebe-comia-muy-bien.wav,./stim/wavs/mexican_mismatch_declarative-broad-focus_El-bebe-comia-muy-bien.wav,./stim/wavs/peruvian_mismatch_declarative-broad-focus_El-bebe-comia-muy-bien.wav,./stim/wavs/puertorican_mismatch_declarative-broad-focus_El-bebe-comia-muy-bien.wav,,,,,,,,,,,,,,,,,,,,,,,,,,,,,,,,,,,,,,,,,,,,,,,,,,,,,,,,
,,,,,,,5fd4335c2d643f1a0ed65cb7,605b45a4d25f287719a41696,605b9a706d7b3e279dc0e384,Mexico,Midwest,13 or older,no,2021-03-24_15h01.16.228,empathy_intonation_perc,2020.2.10,Win32,60,,,,,,,,,,0,argentine,1,0,1.501635,0,56,56,1,1,2,./stim/wavs/andalusian_match_declarative-broad-focus_Daniel-iba-a-Bolivia.wav,./stim/wavs/argentine_match_declarative-broad-focus_Daniel-iba-a-Bolivia.wav,./stim/wavs/castilian_match_declarative-broad-focus_Daniel-iba-a-Bolivia.wav,./stim/wavs/chilean_match_declarative-broad-focus_Daniel-iba-a-Bolivia.wav,./stim/wavs/cuban_match_declarative-broad-focus_Daniel-iba-a-Bolivia.wav,./stim/wavs/mexican_match_declarative-broad-focus_Daniel-iba-a-Bolivia.wav,./stim/wavs/peruvian_match_declarative-broad-focus_Daniel-iba-a-Bolivia.wav,./stim/wavs/puertorican_match_declarative-broad-focus_Daniel-iba-a-Bolivia.wav,,,,,,,,,,,,,,,,,,,,,,,,,,,,,,,,,,,,,,,,,,,,,,,,,,,,,,,,
,,,,,,,5fd4335c2d643f1a0ed65cb7,605b45a4d25f287719a41696,605b9a706d7b3e279dc0e384,Mexico,Midwest,13 or older,no,2021-03-24_15h01.16.228,empathy_intonation_perc,2020.2.10,Win32,60,,,,,,,,,,1,mexican,1,1,1.76089,0,57,57,26,1,27,./stim/wavs/andalusian_match_interrogative-total-yn_David-leia-el-libro.wav,./stim/wavs/argentine_match_interrogative-total-yn_David-leia-el-libro.wav,./stim/wavs/castilian_match_interrogative-total-yn_David-leia-el-libro.wav,./stim/wavs/chilean_match_interrogative-total-yn_David-leia-el-libro.wav,./stim/wavs/cuban_match_interrogative-total-yn_David-leia-el-libro.wav,./stim/wavs/mexican_match_interrogative-total-yn_David-leia-el-libro.wav,./stim/wavs/peruvian_match_interrogative-total-yn_David-leia-el-libro.wav,./stim/wavs/puertorican_match_interrogative-total-yn_David-leia-el-libro.wav,,,,,,,,,,,,,,,,,,,,,,,,,,,,,,,,,,,,,,,,,,,,,,,,,,,,,,,,
,,,,,,,5fd4335c2d643f1a0ed65cb7,605b45a4d25f287719a41696,605b9a706d7b3e279dc0e384,Mexico,Midwest,13 or older,no,2021-03-24_15h01.16.228,empathy_intonation_perc,2020.2.10,Win32,60,,,,,,,,,,1,peruvian,1,1,1.811185,0,58,58,58,1,59,./stim/wavs/andalusian_mismatch_interrogative-total-yn_El-nino-oye-el-rio.wav,./stim/wavs/argentine_mismatch_interrogative-total-yn_El-nino-oye-el-rio.wav,./stim/wavs/castilian_mismatch_interrogative-total-yn_El-nino-oye-el-rio.wav,./stim/wavs/chilean_mismatch_interrogative-total-yn_El-nino-oye-el-rio.wav,./stim/wavs/cuban_mismatch_interrogative-total-yn_El-nino-oye-el-rio.wav,./stim/wavs/mexican_mismatch_interrogative-total-yn_El-nino-oye-el-rio.wav,./stim/wavs/peruvian_mismatch_interrogative-total-yn_El-nino-oye-el-rio.wav,./stim/wavs/puertorican_mismatch_interrogative-total-yn_El-nino-oye-el-rio.wav,,,,,,,,,,,,,,,,,,,,,,,,,,,,,,,,,,,,,,,,,,,,,,,,,,,,,,,,
,,,,,,,5fd4335c2d643f1a0ed65cb7,605b45a4d25f287719a41696,605b9a706d7b3e279dc0e384,Mexico,Midwest,13 or older,no,2021-03-24_15h01.16.228,empathy_intonation_perc,2020.2.10,Win32,60,,,,,,,,,,0,mexican,0,1,2.1075,0,59,59,38,1,39,./stim/wavs/andalusian_mismatch_declarative-broad-focus_Mi-novio-viene-del-lago.wav,./stim/wavs/argentine_mismatch_declarative-broad-focus_Mi-novio-viene-del-lago.wav,./stim/wavs/castilian_mismatch_declarative-broad-focus_Mi-novio-viene-del-lago.wav,./stim/wavs/chilean_mismatch_declarative-broad-focus_Mi-novio-viene-del-lago.wav,./stim/wavs/cuban_mismatch_declarative-broad-focus_Mi-novio-viene-del-lago.wav,./stim/wavs/mexican_mismatch_declarative-broad-focus_Mi-novio-viene-del-lago.wav,./stim/wavs/peruvian_mismatch_declarative-broad-focus_Mi-novio-viene-del-lago.wav,./stim/wavs/puertorican_mismatch_declarative-broad-focus_Mi-novio-viene-del-lago.wav,,,,,,,,,,,,,,,,,,,,,,,,,,,,,,,,,,,,,,,,,,,,,,,,,,,,,,,,
,,,,,,,5fd4335c2d643f1a0ed65cb7,605b45a4d25f287719a41696,605b9a706d7b3e279dc0e384,Mexico,Midwest,13 or older,no,2021-03-24_15h01.16.228,empathy_intonation_perc,2020.2.10,Win32,60,,,,,,,,,,1,castilian,1,1,3.41393,0,60,60,48,1,49,./stim/wavs/andalusian_mismatch_interrogative-partial-wh_Cuando-comia-la-fruta.wav,./stim/wavs/argentine_mismatch_interrogative-partial-wh_Cuando-comia-la-fruta.wav,./stim/wavs/castilian_mismatch_interrogative-partial-wh_Cuando-comia-la-fruta.wav,./stim/wavs/chilean_mismatch_interrogative-partial-wh_Cuando-comia-la-fruta.wav,./stim/wavs/cuban_mismatch_interrogative-partial-wh_Cuando-comia-la-fruta.wav,./stim/wavs/mexican_mismatch_interrogative-partial-wh_Cuando-comia-la-fruta.wav,./stim/wavs/peruvian_mismatch_interrogative-partial-wh_Cuando-comia-la-fruta.wav,./stim/wavs/puertorican_mismatch_interrogative-partial-wh_Cuando-comia-la-fruta.wav,,,,,,,,,,,,,,,,,,,,,,,,,,,,,,,,,,,,,,,,,,,,,,,,,,,,,,,,
,,,,,,,5fd4335c2d643f1a0ed65cb7,605b45a4d25f287719a41696,605b9a706d7b3e279dc0e384,Mexico,Midwest,13 or older,no,2021-03-24_15h01.16.228,empathy_intonation_perc,2020.2.10,Win32,60,,,,,,,,,,0,peruvian,0,1,2.04477,0,61,61,39,1,40,./stim/wavs/andalusian_mismatch_declarative-broad-focus_Mi-tia-odia-la-lluvia.wav,./stim/wavs/argentine_mismatch_declarative-broad-focus_Mi-tia-odia-la-lluvia.wav,./stim/wavs/castilian_mismatch_declarative-broad-focus_Mi-tia-odia-la-lluvia.wav,./stim/wavs/chilean_mismatch_declarative-broad-focus_Mi-tia-odia-la-lluvia.wav,./stim/wavs/cuban_mismatch_declarative-broad-focus_Mi-tia-odia-la-lluvia.wav,./stim/wavs/mexican_mismatch_declarative-broad-focus_Mi-tia-odia-la-lluvia.wav,./stim/wavs/peruvian_mismatch_declarative-broad-focus_Mi-tia-odia-la-lluvia.wav,./stim/wavs/puertorican_mismatch_declarative-broad-focus_Mi-tia-odia-la-lluvia.wav,,,,,,,,,,,,,,,,,,,,,,,,,,,,,,,,,,,,,,,,,,,,,,,,,,,,,,,,
,,,,,,,5fd4335c2d643f1a0ed65cb7,605b45a4d25f287719a41696,605b9a706d7b3e279dc0e384,Mexico,Midwest,13 or older,no,2021-03-24_15h01.16.228,empathy_intonation_perc,2020.2.10,Win32,60,,,,,,,,,,0,puertorican,0,1,1.798935,0,62,62,34,1,35,./stim/wavs/andalusian_mismatch_declarative-broad-focus_El-nino-oye-el-rio.wav,./stim/wavs/argentine_mismatch_declarative-broad-focus_El-nino-oye-el-rio.wav,./stim/wavs/castilian_mismatch_declarative-broad-focus_El-nino-oye-el-rio.wav,./stim/wavs/chilean_mismatch_declarative-broad-focus_El-nino-oye-el-rio.wav,./stim/wavs/cuban_mismatch_declarative-broad-focus_El-nino-oye-el-rio.wav,./stim/wavs/mexican_mismatch_declarative-broad-focus_El-nino-oye-el-rio.wav,./stim/wavs/peruvian_mismatch_declarative-broad-focus_El-nino-oye-el-rio.wav,./stim/wavs/puertorican_mismatch_declarative-broad-focus_El-nino-oye-el-rio.wav,,,,,,,,,,,,,,,,,,,,,,,,,,,,,,,,,,,,,,,,,,,,,,,,,,,,,,,,
,,,,,,,5fd4335c2d643f1a0ed65cb7,605b45a4d25f287719a41696,605b9a706d7b3e279dc0e384,Mexico,Midwest,13 or older,no,2021-03-24_15h01.16.228,empathy_intonation_perc,2020.2.10,Win32,60,,,,,,,,,,1,argentine,1,1,1.200665,0,63,63,51,1,52,./stim/wavs/andalusian_mismatch_interrogative-partial-wh_Por-que-desayuna-muy-bien.wav,./stim/wavs/argentine_mismatch_interrogative-partial-wh_Por-que-desayuna-muy-bien.wav,./stim/wavs/castilian_mismatch_interrogative-partial-wh_Por-que-desayuna-muy-bien.wav,./stim/wavs/chilean_mismatch_interrogative-partial-wh_Por-que-desayuna-muy-bien.wav,./stim/wavs/cuban_mismatch_interrogative-partial-wh_Por-que-desayuna-muy-bien.wav,./stim/wavs/mexican_mismatch_interrogative-partial-wh_Por-que-desayuna-muy-bien.wav,./stim/wavs/peruvian_mismatch_interrogative-partial-wh_Por-que-desayuna-muy-bien.wav,./stim/wavs/puertorican_mismatch_interrogative-partial-wh_Por-que-desayuna-muy-bien.wav,,,,,,,,,,,,,,,,,,,,,,,,,,,,,,,,,,,,,,,,,,,,,,,,,,,,,,,,
,,,,,,,5fd4335c2d643f1a0ed65cb7,605b45a4d25f287719a41696,605b9a706d7b3e279dc0e384,Mexico,Midwest,13 or older,no,2021-03-24_15h01.16.228,empathy_intonation_perc,2020.2.10,Win32,60,,,,,,,,,,,,,,,,,,,,,,,,,,,,,h,1,5.30667,0,0,0,0,1,,,,,,,,,,,,,,,,,,,,,,,,,,,,,,,,,,,,,,,,,,,,,,,,
,,,,,"Great! Now we will move on. The next task consists of about 60 trials, in each of which you will see a string of letters. 
  
  Your task is to decide whether this is a real Spanish word or not.",(press the spacebar to continue),5fd4335c2d643f1a0ed65cb7,605b45a4d25f287719a41696,605b9a706d7b3e279dc0e384,Mexico,Midwest,13 or older,no,2021-03-24_15h01.16.228,empathy_intonation_perc,2020.2.10,Win32,60,,,,,,,,,,,,,,,,,,,,,,,,,,,,,,,,,,,,,0,0,0,0,1,,,,,,,,,,,,,,,,,,,,,,,,,,,,,,,,,,,,,,,,,,,
,,,,,"If you think it is an existing Spanish word, you type '1' (for 'REAL'), and if you think it is not an existing Spanish word, you type '0' (for 'FAKE').",(press the spacebar to continue),5fd4335c2d643f1a0ed65cb7,605b45a4d25f287719a41696,605b9a706d7b3e279dc0e384,Mexico,Midwest,13 or older,no,2021-03-24_15h01.16.228,empathy_intonation_perc,2020.2.10,Win32,60,,,,,,,,,,,,,,,,,,,,,,,,,,,,,,,,,,,,,0,1,1,1,1,,,,,,,,,,,,,,,,,,,,,,,,,,,,,,,,,,,,,,,,,,,
,,,,,"If you are sure that the word exists, even though you dont know its exact meaning, you may still respond '1' (REAL). 
  
  But if you are not sure if it is an existing word, you should respond '0' (FAKE).
  
  Let's do a practice round...",(press the spacebar to continue),5fd4335c2d643f1a0ed65cb7,605b45a4d25f287719a41696,605b9a706d7b3e279dc0e384,Mexico,Midwest,13 or older,no,2021-03-24_15h01.16.228,empathy_intonation_perc,2020.2.10,Win32,60,,,,,,,,,,,,,,,,,,,,,,,,,,,,,,,,,,,,,0,2,2,2,1,,,,,,,,,,,,,,,,,,,,,,,,,,,,,,,,,,,,,,,,,,,
,,,,,,,5fd4335c2d643f1a0ed65cb7,605b45a4d25f287719a41696,605b9a706d7b3e279dc0e384,Mexico,Midwest,13 or older,no,2021-03-24_15h01.16.228,empathy_intonation_perc,2020.2.10,Win32,60,,,,,,,,,,0,,,,,,,,,,,,,,,,,,,,,,,,,,,,,,,,1,0,1.73759,0,0,0,0,1,0,depiste,REAL,FAKE,,,,,,,,,,,,,,,,,,,,,,,,,,,,,,,
,,,,,,,5fd4335c2d643f1a0ed65cb7,605b45a4d25f287719a41696,605b9a706d7b3e279dc0e384,Mexico,Midwest,13 or older,no,2021-03-24_15h01.16.228,empathy_intonation_perc,2020.2.10,Win32,60,,,,,,,,,,1,,,,,,,,,,,,,,,,,,,,,,,,,,,,,,,,1,1,0.803185,0,1,1,1,1,0,s,REAL,FAKE,,,,,,,,,,,,,,,,,,,,,,,,,,,,,,,
,,,,,,,5fd4335c2d643f1a0ed65cb7,605b45a4d25f287719a41696,605b9a706d7b3e279dc0e384,Mexico,Midwest,13 or older,no,2021-03-24_15h01.16.228,empathy_intonation_perc,2020.2.10,Win32,60,,,,,,,,,,0,,,,,,,,,,,,,,,,,,,,,,,,,,,,,,,,1,0,1.10117,0,2,2,2,1,0,con,REAL,FAKE,,,,,,,,,,,,,,,,,,,,,,,,,,,,,,,
,,,,,,,5fd4335c2d643f1a0ed65cb7,605b45a4d25f287719a41696,605b9a706d7b3e279dc0e384,Mexico,Midwest,13 or older,no,2021-03-24_15h01.16.228,empathy_intonation_perc,2020.2.10,Win32,60,,,,,,,,,,0,,,,,,,,,,,,,,,,,,,,,,,,,,,,,,,,0,1,1.009155,0,3,3,3,1,0,calpar,REAL,FAKE,,,,,,,,,,,,,,,,,,,,,,,,,,,,,,,
,,,,,,,5fd4335c2d643f1a0ed65cb7,605b45a4d25f287719a41696,605b9a706d7b3e279dc0e384,Mexico,Midwest,13 or older,no,2021-03-24_15h01.16.228,empathy_intonation_perc,2020.2.10,Win32,60,,,,,,,,,,0,,,,,,,,,,,,,,,,,,,,,,,,,,,,,,,,0,1,0.759685,0,4,4,4,1,0,joten,REAL,FAKE,,,,,,,,,,,,,,,,,,,,,,,,,,,,,,,
,,,,,,,5fd4335c2d643f1a0ed65cb7,605b45a4d25f287719a41696,605b9a706d7b3e279dc0e384,Mexico,Midwest,13 or older,no,2021-03-24_15h01.16.228,empathy_intonation_perc,2020.2.10,Win32,60,,,,,,,,,,1,,,,,,,,,,,,,,,,,,,,,,,,,,,,,,,,0,0,0.93492,0,5,5,5,1,0,sacapuntas,REAL,FAKE,,,,,,,,,,,,,,,,,,,,,,,,,,,,,,,
,,,,,,,5fd4335c2d643f1a0ed65cb7,605b45a4d25f287719a41696,605b9a706d7b3e279dc0e384,Mexico,Midwest,13 or older,no,2021-03-24_15h01.16.228,empathy_intonation_perc,2020.2.10,Win32,60,,,,,,,,,,0,,,,,,,,,,,,,,,,,,,,,,,,,,,,,,,,0,1,1.253025,0,6,6,6,1,0,priba,REAL,FAKE,,,,,,,,,,,,,,,,,,,,,,,,,,,,,,,
,,,,,,,5fd4335c2d643f1a0ed65cb7,605b45a4d25f287719a41696,605b9a706d7b3e279dc0e384,Mexico,Midwest,13 or older,no,2021-03-24_15h01.16.228,empathy_intonation_perc,2020.2.10,Win32,60,,,,,,,,,,0,,,,,,,,,,,,,,,,,,,,,,,,,,,,,,,,1,0,0.86914,0,7,7,7,1,0,pelasula,REAL,FAKE,,,,,,,,,,,,,,,,,,,,,,,,,,,,,,,
,,,,,,,5fd4335c2d643f1a0ed65cb7,605b45a4d25f287719a41696,605b9a706d7b3e279dc0e384,Mexico,Midwest,13 or older,no,2021-03-24_15h01.16.228,empathy_intonation_perc,2020.2.10,Win32,60,,,,,,,,,,1,,,,,,,,,,,,,,,,,,,,,,,,,,,,,,,,1,1,0.71845,0,8,8,8,1,0,bien,REAL,FAKE,,,,,,,,,,,,,,,,,,,,,,,,,,,,,,,
,,,,,,,5fd4335c2d643f1a0ed65cb7,605b45a4d25f287719a41696,605b9a706d7b3e279dc0e384,Mexico,Midwest,13 or older,no,2021-03-24_15h01.16.228,empathy_intonation_perc,2020.2.10,Win32,60,,,,,,,,,,1,,,,,,,,,,,,,,,,,,,,,,,,,,,,,,,,1,1,0.652265,0,9,9,9,1,0,casa,REAL,FAKE,,,,,,,,,,,,,,,,,,,,,,,,,,,,,,,
,,,,,,,5fd4335c2d643f1a0ed65cb7,605b45a4d25f287719a41696,605b9a706d7b3e279dc0e384,Mexico,Midwest,13 or older,no,2021-03-24_15h01.16.228,empathy_intonation_perc,2020.2.10,Win32,60,,,,,,,,,,0,,,,,,,,,,,,,,,,,,,,,,,,,,,,,,,,1,0,1.01865,0,10,10,10,1,0,lejo,REAL,FAKE,,,,,,,,,,,,,,,,,,,,,,,,,,,,,,,
,,,,,,,5fd4335c2d643f1a0ed65cb7,605b45a4d25f287719a41696,605b9a706d7b3e279dc0e384,Mexico,Midwest,13 or older,no,2021-03-24_15h01.16.228,empathy_intonation_perc,2020.2.10,Win32,60,,,,,,,,,,0,,,,,,,,,,,,,,,,,,,,,,,,,,,,,,,,0,1,0.88168,0,11,11,11,1,0,pretantas,REAL,FAKE,,,,,,,,,,,,,,,,,,,,,,,,,,,,,,,
,,,,,,,5fd4335c2d643f1a0ed65cb7,605b45a4d25f287719a41696,605b9a706d7b3e279dc0e384,Mexico,Midwest,13 or older,no,2021-03-24_15h01.16.228,empathy_intonation_perc,2020.2.10,Win32,60,,,,,,,,,,0,,,,,,,,,,,,,,,,,,,,,,,,,,,,,,,,,,,,,,,,33,pauca,,,0,1,0.823815,0,0,0,32,1,REAL,FAKE,,,,,,,,,,,,,,,,,,,,,
,,,,,,,5fd4335c2d643f1a0ed65cb7,605b45a4d25f287719a41696,605b9a706d7b3e279dc0e384,Mexico,Midwest,13 or older,no,2021-03-24_15h01.16.228,empathy_intonation_perc,2020.2.10,Win32,60,,,,,,,,,,0,,,,,,,,,,,,,,,,,,,,,,,,,,,,,,,,,,,,,,,,72,pemicin,,,0,1,1.15795,0,1,1,71,1,REAL,FAKE,,,,,,,,,,,,,,,,,,,,,
,,,,,,,5fd4335c2d643f1a0ed65cb7,605b45a4d25f287719a41696,605b9a706d7b3e279dc0e384,Mexico,Midwest,13 or older,no,2021-03-24_15h01.16.228,empathy_intonation_perc,2020.2.10,Win32,60,,,,,,,,,,1,,,,,,,,,,,,,,,,,,,,,,,,,,,,,,,,,,,,,,,,41,rebuscar,,,0,0,1.00926,0,2,2,40,1,REAL,FAKE,,,,,,,,,,,,,,,,,,,,,
,,,,,,,5fd4335c2d643f1a0ed65cb7,605b45a4d25f287719a41696,605b9a706d7b3e279dc0e384,Mexico,Midwest,13 or older,no,2021-03-24_15h01.16.228,empathy_intonation_perc,2020.2.10,Win32,60,,,,,,,,,,1,,,,,,,,,,,,,,,,,,,,,,,,,,,,,,,,,,,,,,,,83,guante,,,1,1,0.60075,0,3,3,82,1,REAL,FAKE,,,,,,,,,,,,,,,,,,,,,
,,,,,,,5fd4335c2d643f1a0ed65cb7,605b45a4d25f287719a41696,605b9a706d7b3e279dc0e384,Mexico,Midwest,13 or older,no,2021-03-24_15h01.16.228,empathy_intonation_perc,2020.2.10,Win32,60,,,,,,,,,,1,,,,,,,,,,,,,,,,,,,,,,,,,,,,,,,,,,,,,,,,28,merodear,,,1,1,0.724215,0,4,4,27,1,REAL,FAKE,,,,,,,,,,,,,,,,,,,,,
,,,,,,,5fd4335c2d643f1a0ed65cb7,605b45a4d25f287719a41696,605b9a706d7b3e279dc0e384,Mexico,Midwest,13 or older,no,2021-03-24_15h01.16.228,empathy_intonation_perc,2020.2.10,Win32,60,,,,,,,,,,1,,,,,,,,,,,,,,,,,,,,,,,,,,,,,,,,,,,,,,,,88,acantilado,,,0,0,1.592535,0,5,5,87,1,REAL,FAKE,,,,,,,,,,,,,,,,,,,,,
,,,,,,,5fd4335c2d643f1a0ed65cb7,605b45a4d25f287719a41696,605b9a706d7b3e279dc0e384,Mexico,Midwest,13 or older,no,2021-03-24_15h01.16.228,empathy_intonation_perc,2020.2.10,Win32,60,,,,,,,,,,0,,,,,,,,,,,,,,,,,,,,,,,,,,,,,,,,,,,,,,,,23,lampera,,,1,0,0.80991,0,6,6,22,1,REAL,FAKE,,,,,,,,,,,,,,,,,,,,,
,,,,,,,5fd4335c2d643f1a0ed65cb7,605b45a4d25f287719a41696,605b9a706d7b3e279dc0e384,Mexico,Midwest,13 or older,no,2021-03-24_15h01.16.228,empathy_intonation_perc,2020.2.10,Win32,60,,,,,,,,,,1,,,,,,,,,,,,,,,,,,,,,,,,,,,,,,,,,,,,,,,,25,bisagra,,,1,1,0.86802,0,7,7,24,1,REAL,FAKE,,,,,,,,,,,,,,,,,,,,,
,,,,,,,5fd4335c2d643f1a0ed65cb7,605b45a4d25f287719a41696,605b9a706d7b3e279dc0e384,Mexico,Midwest,13 or older,no,2021-03-24_15h01.16.228,empathy_intonation_perc,2020.2.10,Win32,60,,,,,,,,,,1,,,,,,,,,,,,,,,,,,,,,,,,,,,,,,,,,,,,,,,,45,jilguero,,,1,1,0.866065,0,8,8,44,1,REAL,FAKE,,,,,,,,,,,,,,,,,,,,,
,,,,,,,5fd4335c2d643f1a0ed65cb7,605b45a4d25f287719a41696,605b9a706d7b3e279dc0e384,Mexico,Midwest,13 or older,no,2021-03-24_15h01.16.228,empathy_intonation_perc,2020.2.10,Win32,60,,,,,,,,,,1,,,,,,,,,,,,,,,,,,,,,,,,,,,,,,,,,,,,,,,,24,ltigo,,,1,1,0.824625,0,9,9,23,1,REAL,FAKE,,,,,,,,,,,,,,,,,,,,,
,,,,,,,5fd4335c2d643f1a0ed65cb7,605b45a4d25f287719a41696,605b9a706d7b3e279dc0e384,Mexico,Midwest,13 or older,no,2021-03-24_15h01.16.228,empathy_intonation_perc,2020.2.10,Win32,60,,,,,,,,,,1,,,,,,,,,,,,,,,,,,,,,,,,,,,,,,,,,,,,,,,,38,estornudar,,,0,0,0.75313,0,10,10,37,1,REAL,FAKE,,,,,,,,,,,,,,,,,,,,,
,,,,,,,5fd4335c2d643f1a0ed65cb7,605b45a4d25f287719a41696,605b9a706d7b3e279dc0e384,Mexico,Midwest,13 or older,no,2021-03-24_15h01.16.228,empathy_intonation_perc,2020.2.10,Win32,60,,,,,,,,,,0,,,,,,,,,,,,,,,,,,,,,,,,,,,,,,,,,,,,,,,,1,terzo,,,1,0,0.788815,0,11,11,0,1,REAL,FAKE,,,,,,,,,,,,,,,,,,,,,
,,,,,,,5fd4335c2d643f1a0ed65cb7,605b45a4d25f287719a41696,605b9a706d7b3e279dc0e384,Mexico,Midwest,13 or older,no,2021-03-24_15h01.16.228,empathy_intonation_perc,2020.2.10,Win32,60,,,,,,,,,,0,,,,,,,,,,,,,,,,,,,,,,,,,,,,,,,,,,,,,,,,29,decar,,,1,0,0.743015,0,12,12,28,1,REAL,FAKE,,,,,,,,,,,,,,,,,,,,,
,,,,,,,5fd4335c2d643f1a0ed65cb7,605b45a4d25f287719a41696,605b9a706d7b3e279dc0e384,Mexico,Midwest,13 or older,no,2021-03-24_15h01.16.228,empathy_intonation_perc,2020.2.10,Win32,60,,,,,,,,,,0,,,,,,,,,,,,,,,,,,,,,,,,,,,,,,,,,,,,,,,,42,cadallo,,,1,0,0.802595,0,13,13,41,1,REAL,FAKE,,,,,,,,,,,,,,,,,,,,,
,,,,,,,5fd4335c2d643f1a0ed65cb7,605b45a4d25f287719a41696,605b9a706d7b3e279dc0e384,Mexico,Midwest,13 or older,no,2021-03-24_15h01.16.228,empathy_intonation_perc,2020.2.10,Win32,60,,,,,,,,,,0,,,,,,,,,,,,,,,,,,,,,,,,,,,,,,,,,,,,,,,,47,cartinar,,,1,0,0.74849,0,14,14,46,1,REAL,FAKE,,,,,,,,,,,,,,,,,,,,,
,,,,,,,5fd4335c2d643f1a0ed65cb7,605b45a4d25f287719a41696,605b9a706d7b3e279dc0e384,Mexico,Midwest,13 or older,no,2021-03-24_15h01.16.228,empathy_intonation_perc,2020.2.10,Win32,60,,,,,,,,,,0,,,,,,,,,,,,,,,,,,,,,,,,,,,,,,,,,,,,,,,,87,grodo,,,0,1,0.6021,0,15,15,86,1,REAL,FAKE,,,,,,,,,,,,,,,,,,,,,
,,,,,,,5fd4335c2d643f1a0ed65cb7,605b45a4d25f287719a41696,605b9a706d7b3e279dc0e384,Mexico,Midwest,13 or older,no,2021-03-24_15h01.16.228,empathy_intonation_perc,2020.2.10,Win32,60,,,,,,,,,,0,,,,,,,,,,,,,,,,,,,,,,,,,,,,,,,,,,,,,,,,70,temblo,,,0,1,0.88889,0,16,16,69,1,REAL,FAKE,,,,,,,,,,,,,,,,,,,,,
,,,,,,,5fd4335c2d643f1a0ed65cb7,605b45a4d25f287719a41696,605b9a706d7b3e279dc0e384,Mexico,Midwest,13 or older,no,2021-03-24_15h01.16.228,empathy_intonation_perc,2020.2.10,Win32,60,,,,,,,,,,1,,,,,,,,,,,,,,,,,,,,,,,,,,,,,,,,,,,,,,,,57,tacao,,,0,0,1.111065,0,17,17,56,1,REAL,FAKE,,,,,,,,,,,,,,,,,,,,,
,,,,,,,5fd4335c2d643f1a0ed65cb7,605b45a4d25f287719a41696,605b9a706d7b3e279dc0e384,Mexico,Midwest,13 or older,no,2021-03-24_15h01.16.228,empathy_intonation_perc,2020.2.10,Win32,60,,,,,,,,,,1,,,,,,,,,,,,,,,,,,,,,,,,,,,,,,,,,,,,,,,,14,yunque,,,0,0,0.844475,0,18,18,13,1,REAL,FAKE,,,,,,,,,,,,,,,,,,,,,
,,,,,,,5fd4335c2d643f1a0ed65cb7,605b45a4d25f287719a41696,605b9a706d7b3e279dc0e384,Mexico,Midwest,13 or older,no,2021-03-24_15h01.16.228,empathy_intonation_perc,2020.2.10,Win32,60,,,,,,,,,,1,,,,,,,,,,,,,,,,,,,,,,,,,,,,,,,,,,,,,,,,68,alegre,,,1,1,1.00403,0,19,19,67,1,REAL,FAKE,,,,,,,,,,,,,,,,,,,,,
,,,,,,,5fd4335c2d643f1a0ed65cb7,605b45a4d25f287719a41696,605b9a706d7b3e279dc0e384,Mexico,Midwest,13 or older,no,2021-03-24_15h01.16.228,empathy_intonation_perc,2020.2.10,Win32,60,,,,,,,,,,1,,,,,,,,,,,,,,,,,,,,,,,,,,,,,,,,,,,,,,,,71,polvoriento,,,0,0,1.004615,0,20,20,70,1,REAL,FAKE,,,,,,,,,,,,,,,,,,,,,
,,,,,,,5fd4335c2d643f1a0ed65cb7,605b45a4d25f287719a41696,605b9a706d7b3e279dc0e384,Mexico,Midwest,13 or older,no,2021-03-24_15h01.16.228,empathy_intonation_perc,2020.2.10,Win32,60,,,,,,,,,,1,,,,,,,,,,,,,,,,,,,,,,,,,,,,,,,,,,,,,,,,52,camisa,,,1,1,0.74198,0,21,21,51,1,REAL,FAKE,,,,,,,,,,,,,,,,,,,,,
,,,,,,,5fd4335c2d643f1a0ed65cb7,605b45a4d25f287719a41696,605b9a706d7b3e279dc0e384,Mexico,Midwest,13 or older,no,2021-03-24_15h01.16.228,empathy_intonation_perc,2020.2.10,Win32,60,,,,,,,,,,1,,,,,,,,,,,,,,,,,,,,,,,,,,,,,,,,,,,,,,,,89,prisa,,,1,1,0.70619,0,22,22,88,1,REAL,FAKE,,,,,,,,,,,,,,,,,,,,,
,,,,,,,5fd4335c2d643f1a0ed65cb7,605b45a4d25f287719a41696,605b9a706d7b3e279dc0e384,Mexico,Midwest,13 or older,no,2021-03-24_15h01.16.228,empathy_intonation_perc,2020.2.10,Win32,60,,,,,,,,,,1,,,,,,,,,,,,,,,,,,,,,,,,,,,,,,,,,,,,,,,,73,hervidor,,,1,1,0.841235,0,23,23,72,1,REAL,FAKE,,,,,,,,,,,,,,,,,,,,,
,,,,,,,5fd4335c2d643f1a0ed65cb7,605b45a4d25f287719a41696,605b9a706d7b3e279dc0e384,Mexico,Midwest,13 or older,no,2021-03-24_15h01.16.228,empathy_intonation_perc,2020.2.10,Win32,60,,,,,,,,,,0,,,,,,,,,,,,,,,,,,,,,,,,,,,,,,,,,,,,,,,,74,cintro,,,0,1,0.70291,0,24,24,73,1,REAL,FAKE,,,,,,,,,,,,,,,,,,,,,
,,,,,,,5fd4335c2d643f1a0ed65cb7,605b45a4d25f287719a41696,605b9a706d7b3e279dc0e384,Mexico,Midwest,13 or older,no,2021-03-24_15h01.16.228,empathy_intonation_perc,2020.2.10,Win32,60,,,,,,,,,,1,,,,,,,,,,,,,,,,,,,,,,,,,,,,,,,,,,,,,,,,81,pozo,,,0,0,0.60491,0,25,25,80,1,REAL,FAKE,,,,,,,,,,,,,,,,,,,,,
,,,,,,,5fd4335c2d643f1a0ed65cb7,605b45a4d25f287719a41696,605b9a706d7b3e279dc0e384,Mexico,Midwest,13 or older,no,2021-03-24_15h01.16.228,empathy_intonation_perc,2020.2.10,Win32,60,,,,,,,,,,1,,,,,,,,,,,,,,,,,,,,,,,,,,,,,,,,,,,,,,,,85,lad,,,1,1,0.60548,0,26,26,84,1,REAL,FAKE,,,,,,,,,,,,,,,,,,,,,
,,,,,,,5fd4335c2d643f1a0ed65cb7,605b45a4d25f287719a41696,605b9a706d7b3e279dc0e384,Mexico,Midwest,13 or older,no,2021-03-24_15h01.16.228,empathy_intonation_perc,2020.2.10,Win32,60,,,,,,,,,,1,,,,,,,,,,,,,,,,,,,,,,,,,,,,,,,,,,,,,,,,12,asesinato,,,0,0,1.04875,0,27,27,11,1,REAL,FAKE,,,,,,,,,,,,,,,,,,,,,
,,,,,,,5fd4335c2d643f1a0ed65cb7,605b45a4d25f287719a41696,605b9a706d7b3e279dc0e384,Mexico,Midwest,13 or older,no,2021-03-24_15h01.16.228,empathy_intonation_perc,2020.2.10,Win32,60,,,,,,,,,,1,,,,,,,,,,,,,,,,,,,,,,,,,,,,,,,,,,,,,,,,15,regar,,,0,0,0.78306,0,28,28,14,1,REAL,FAKE,,,,,,,,,,,,,,,,,,,,,
,,,,,,,5fd4335c2d643f1a0ed65cb7,605b45a4d25f287719a41696,605b9a706d7b3e279dc0e384,Mexico,Midwest,13 or older,no,2021-03-24_15h01.16.228,empathy_intonation_perc,2020.2.10,Win32,60,,,,,,,,,,1,,,,,,,,,,,,,,,,,,,,,,,,,,,,,,,,,,,,,,,,49,ganar,,,1,1,0.76811,0,29,29,48,1,REAL,FAKE,,,,,,,,,,,,,,,,,,,,,
,,,,,,,5fd4335c2d643f1a0ed65cb7,605b45a4d25f287719a41696,605b9a706d7b3e279dc0e384,Mexico,Midwest,13 or older,no,2021-03-24_15h01.16.228,empathy_intonation_perc,2020.2.10,Win32,60,,,,,,,,,,1,,,,,,,,,,,,,,,,,,,,,,,,,,,,,,,,,,,,,,,,3,pulmones,,,1,1,1.2757,0,30,30,2,1,REAL,FAKE,,,,,,,,,,,,,,,,,,,,,
,,,,,,,5fd4335c2d643f1a0ed65cb7,605b45a4d25f287719a41696,605b9a706d7b3e279dc0e384,Mexico,Midwest,13 or older,no,2021-03-24_15h01.16.228,empathy_intonation_perc,2020.2.10,Win32,60,,,,,,,,,,1,,,,,,,,,,,,,,,,,,,,,,,,,,,,,,,,,,,,,,,,75,yacer,,,0,0,0.76814,0,31,31,74,1,REAL,FAKE,,,,,,,,,,,,,,,,,,,,,
,,,,,,,5fd4335c2d643f1a0ed65cb7,605b45a4d25f287719a41696,605b9a706d7b3e279dc0e384,Mexico,Midwest,13 or older,no,2021-03-24_15h01.16.228,empathy_intonation_perc,2020.2.10,Win32,60,,,,,,,,,,1,,,,,,,,,,,,,,,,,,,,,,,,,,,,,,,,,,,,,,,,46,martillo,,,0,0,0.764795,0,32,32,45,1,REAL,FAKE,,,,,,,,,,,,,,,,,,,,,
,,,,,,,5fd4335c2d643f1a0ed65cb7,605b45a4d25f287719a41696,605b9a706d7b3e279dc0e384,Mexico,Midwest,13 or older,no,2021-03-24_15h01.16.228,empathy_intonation_perc,2020.2.10,Win32,60,,,,,,,,,,0,,,,,,,,,,,,,,,,,,,,,,,,,,,,,,,,,,,,,,,,82,empirador,,,1,0,0.807365,0,33,33,81,1,REAL,FAKE,,,,,,,,,,,,,,,,,,,,,
,,,,,,,5fd4335c2d643f1a0ed65cb7,605b45a4d25f287719a41696,605b9a706d7b3e279dc0e384,Mexico,Midwest,13 or older,no,2021-03-24_15h01.16.228,empathy_intonation_perc,2020.2.10,Win32,60,,,,,,,,,,0,,,,,,,,,,,,,,,,,,,,,,,,,,,,,,,,,,,,,,,,4,batilln,,,0,1,0.864765,0,34,34,3,1,REAL,FAKE,,,,,,,,,,,,,,,,,,,,,
,,,,,,,5fd4335c2d643f1a0ed65cb7,605b45a4d25f287719a41696,605b9a706d7b3e279dc0e384,Mexico,Midwest,13 or older,no,2021-03-24_15h01.16.228,empathy_intonation_perc,2020.2.10,Win32,60,,,,,,,,,,1,,,,,,,,,,,,,,,,,,,,,,,,,,,,,,,,,,,,,,,,51,candado,,,0,0,0.903095,0,35,35,50,1,REAL,FAKE,,,,,,,,,,,,,,,,,,,,,
,,,,,,,5fd4335c2d643f1a0ed65cb7,605b45a4d25f287719a41696,605b9a706d7b3e279dc0e384,Mexico,Midwest,13 or older,no,2021-03-24_15h01.16.228,empathy_intonation_perc,2020.2.10,Win32,60,,,,,,,,,,1,,,,,,,,,,,,,,,,,,,,,,,,,,,,,,,,,,,,,,,,26,secuestro,,,1,1,0.70835,0,36,36,25,1,REAL,FAKE,,,,,,,,,,,,,,,,,,,,,
,,,,,,,5fd4335c2d643f1a0ed65cb7,605b45a4d25f287719a41696,605b9a706d7b3e279dc0e384,Mexico,Midwest,13 or older,no,2021-03-24_15h01.16.228,empathy_intonation_perc,2020.2.10,Win32,60,,,,,,,,,,1,,,,,,,,,,,,,,,,,,,,,,,,,,,,,,,,,,,,,,,,90,clavel,,,0,0,0.66618,0,37,37,89,1,REAL,FAKE,,,,,,,,,,,,,,,,,,,,,
,,,,,,,5fd4335c2d643f1a0ed65cb7,605b45a4d25f287719a41696,605b9a706d7b3e279dc0e384,Mexico,Midwest,13 or older,no,2021-03-24_15h01.16.228,empathy_intonation_perc,2020.2.10,Win32,60,,,,,,,,,,0,,,,,,,,,,,,,,,,,,,,,,,,,,,,,,,,,,,,,,,,84,escuto,,,0,1,0.840555,0,38,38,83,1,REAL,FAKE,,,,,,,,,,,,,,,,,,,,,
,,,,,,,5fd4335c2d643f1a0ed65cb7,605b45a4d25f287719a41696,605b9a706d7b3e279dc0e384,Mexico,Midwest,13 or older,no,2021-03-24_15h01.16.228,empathy_intonation_perc,2020.2.10,Win32,60,,,,,,,,,,1,,,,,,,,,,,,,,,,,,,,,,,,,,,,,,,,,,,,,,,,64,orgulloso,,,0,0,0.690575,0,39,39,63,1,REAL,FAKE,,,,,,,,,,,,,,,,,,,,,
,,,,,,,5fd4335c2d643f1a0ed65cb7,605b45a4d25f287719a41696,605b9a706d7b3e279dc0e384,Mexico,Midwest,13 or older,no,2021-03-24_15h01.16.228,empathy_intonation_perc,2020.2.10,Win32,60,,,,,,,,,,1,,,,,,,,,,,,,,,,,,,,,,,,,,,,,,,,,,,,,,,,31,pandilla,,,0,0,0.91813,0,40,40,30,1,REAL,FAKE,,,,,,,,,,,,,,,,,,,,,
,,,,,,,5fd4335c2d643f1a0ed65cb7,605b45a4d25f287719a41696,605b9a706d7b3e279dc0e384,Mexico,Midwest,13 or older,no,2021-03-24_15h01.16.228,empathy_intonation_perc,2020.2.10,Win32,60,,,,,,,,,,1,,,,,,,,,,,,,,,,,,,,,,,,,,,,,,,,,,,,,,,,39,torpe,,,1,1,0.6516,0,41,41,38,1,REAL,FAKE,,,,,,,,,,,,,,,,,,,,,
,,,,,,,5fd4335c2d643f1a0ed65cb7,605b45a4d25f287719a41696,605b9a706d7b3e279dc0e384,Mexico,Midwest,13 or older,no,2021-03-24_15h01.16.228,empathy_intonation_perc,2020.2.10,Win32,60,,,,,,,,,,0,,,,,,,,,,,,,,,,,,,,,,,,,,,,,,,,,,,,,,,,58,plaudir,,,0,1,0.4908,0,42,42,57,1,REAL,FAKE,,,,,,,,,,,,,,,,,,,,,
,,,,,,,5fd4335c2d643f1a0ed65cb7,605b45a4d25f287719a41696,605b9a706d7b3e279dc0e384,Mexico,Midwest,13 or older,no,2021-03-24_15h01.16.228,empathy_intonation_perc,2020.2.10,Win32,60,,,,,,,,,,1,,,,,,,,,,,,,,,,,,,,,,,,,,,,,,,,,,,,,,,,43,canela,,,0,0,0.857375,0,43,43,42,1,REAL,FAKE,,,,,,,,,,,,,,,,,,,,,
,,,,,,,5fd4335c2d643f1a0ed65cb7,605b45a4d25f287719a41696,605b9a706d7b3e279dc0e384,Mexico,Midwest,13 or older,no,2021-03-24_15h01.16.228,empathy_intonation_perc,2020.2.10,Win32,60,,,,,,,,,,1,,,,,,,,,,,,,,,,,,,,,,,,,,,,,,,,,,,,,,,,69,engatusar,,,0,0,0.760455,0,44,44,68,1,REAL,FAKE,,,,,,,,,,,,,,,,,,,,,
,,,,,,,5fd4335c2d643f1a0ed65cb7,605b45a4d25f287719a41696,605b9a706d7b3e279dc0e384,Mexico,Midwest,13 or older,no,2021-03-24_15h01.16.228,empathy_intonation_perc,2020.2.10,Win32,60,,,,,,,,,,1,,,,,,,,,,,,,,,,,,,,,,,,,,,,,,,,,,,,,,,,6,tergiversar,,,0,0,0.79741,0,45,45,5,1,REAL,FAKE,,,,,,,,,,,,,,,,,,,,,
,,,,,,,5fd4335c2d643f1a0ed65cb7,605b45a4d25f287719a41696,605b9a706d7b3e279dc0e384,Mexico,Midwest,13 or older,no,2021-03-24_15h01.16.228,empathy_intonation_perc,2020.2.10,Win32,60,,,,,,,,,,1,,,,,,,,,,,,,,,,,,,,,,,,,,,,,,,,,,,,,,,,44,cuchara,,,1,1,0.814515,0,46,46,43,1,REAL,FAKE,,,,,,,,,,,,,,,,,,,,,
,,,,,,,5fd4335c2d643f1a0ed65cb7,605b45a4d25f287719a41696,605b9a706d7b3e279dc0e384,Mexico,Midwest,13 or older,no,2021-03-24_15h01.16.228,empathy_intonation_perc,2020.2.10,Win32,60,,,,,,,,,,1,,,,,,,,,,,,,,,,,,,,,,,,,,,,,,,,,,,,,,,,86,barato,,,1,1,0.6393,0,47,47,85,1,REAL,FAKE,,,,,,,,,,,,,,,,,,,,,
,,,,,,,5fd4335c2d643f1a0ed65cb7,605b45a4d25f287719a41696,605b9a706d7b3e279dc0e384,Mexico,Midwest,13 or older,no,2021-03-24_15h01.16.228,empathy_intonation_perc,2020.2.10,Win32,60,,,,,,,,,,0,,,,,,,,,,,,,,,,,,,,,,,,,,,,,,,,,,,,,,,,63,esposante,,,0,1,0.73442,0,48,48,62,1,REAL,FAKE,,,,,,,,,,,,,,,,,,,,,
,,,,,,,5fd4335c2d643f1a0ed65cb7,605b45a4d25f287719a41696,605b9a706d7b3e279dc0e384,Mexico,Midwest,13 or older,no,2021-03-24_15h01.16.228,empathy_intonation_perc,2020.2.10,Win32,60,,,,,,,,,,1,,,,,,,,,,,,,,,,,,,,,,,,,,,,,,,,,,,,,,,,56,musgo,,,0,0,0.6188,0,49,49,55,1,REAL,FAKE,,,,,,,,,,,,,,,,,,,,,
,,,,,,,5fd4335c2d643f1a0ed65cb7,605b45a4d25f287719a41696,605b9a706d7b3e279dc0e384,Mexico,Midwest,13 or older,no,2021-03-24_15h01.16.228,empathy_intonation_perc,2020.2.10,Win32,60,,,,,,,,,,1,,,,,,,,,,,,,,,,,,,,,,,,,,,,,,,,,,,,,,,,11,cenefa,,,0,0,0.68338,0,50,50,10,1,REAL,FAKE,,,,,,,,,,,,,,,,,,,,,
,,,,,,,5fd4335c2d643f1a0ed65cb7,605b45a4d25f287719a41696,605b9a706d7b3e279dc0e384,Mexico,Midwest,13 or older,no,2021-03-24_15h01.16.228,empathy_intonation_perc,2020.2.10,Win32,60,,,,,,,,,,1,,,,,,,,,,,,,,,,,,,,,,,,,,,,,,,,,,,,,,,,61,seda,,,0,0,0.625075,0,51,51,60,1,REAL,FAKE,,,,,,,,,,,,,,,,,,,,,
,,,,,,,5fd4335c2d643f1a0ed65cb7,605b45a4d25f287719a41696,605b9a706d7b3e279dc0e384,Mexico,Midwest,13 or older,no,2021-03-24_15h01.16.228,empathy_intonation_perc,2020.2.10,Win32,60,,,,,,,,,,1,,,,,,,,,,,,,,,,,,,,,,,,,,,,,,,,,,,,,,,,54,fomentar,,,1,1,0.689535,0,52,52,53,1,REAL,FAKE,,,,,,,,,,,,,,,,,,,,,
,,,,,,,5fd4335c2d643f1a0ed65cb7,605b45a4d25f287719a41696,605b9a706d7b3e279dc0e384,Mexico,Midwest,13 or older,no,2021-03-24_15h01.16.228,empathy_intonation_perc,2020.2.10,Win32,60,,,,,,,,,,0,,,,,,,,,,,,,,,,,,,,,,,,,,,,,,,,,,,,,,,,50,flamida,,,0,1,0.671855,0,53,53,49,1,REAL,FAKE,,,,,,,,,,,,,,,,,,,,,
,,,,,,,5fd4335c2d643f1a0ed65cb7,605b45a4d25f287719a41696,605b9a706d7b3e279dc0e384,Mexico,Midwest,13 or older,no,2021-03-24_15h01.16.228,empathy_intonation_perc,2020.2.10,Win32,60,,,,,,,,,,0,,,,,,,,,,,,,,,,,,,,,,,,,,,,,,,,,,,,,,,,21,capillo,,,1,0,1.1271,0,54,54,20,1,REAL,FAKE,,,,,,,,,,,,,,,,,,,,,
,,,,,,,5fd4335c2d643f1a0ed65cb7,605b45a4d25f287719a41696,605b9a706d7b3e279dc0e384,Mexico,Midwest,13 or older,no,2021-03-24_15h01.16.228,empathy_intonation_perc,2020.2.10,Win32,60,,,,,,,,,,1,,,,,,,,,,,,,,,,,,,,,,,,,,,,,,,,,,,,,,,,5,zapato,,,1,1,0.834775,0,55,55,4,1,REAL,FAKE,,,,,,,,,,,,,,,,,,,,,
,,,,,,,5fd4335c2d643f1a0ed65cb7,605b45a4d25f287719a41696,605b9a706d7b3e279dc0e384,Mexico,Midwest,13 or older,no,2021-03-24_15h01.16.228,empathy_intonation_perc,2020.2.10,Win32,60,,,,,,,,,,0,,,,,,,,,,,,,,,,,,,,,,,,,,,,,,,,,,,,,,,,32,fatacidad,,,1,0,1.15416,0,56,56,31,1,REAL,FAKE,,,,,,,,,,,,,,,,,,,,,
,,,,,,,5fd4335c2d643f1a0ed65cb7,605b45a4d25f287719a41696,605b9a706d7b3e279dc0e384,Mexico,Midwest,13 or older,no,2021-03-24_15h01.16.228,empathy_intonation_perc,2020.2.10,Win32,60,,,,,,,,,,0,,,,,,,,,,,,,,,,,,,,,,,,,,,,,,,,,,,,,,,,17,floroso,,,1,0,0.90205,0,57,57,16,1,REAL,FAKE,,,,,,,,,,,,,,,,,,,,,
,,,,,,,5fd4335c2d643f1a0ed65cb7,605b45a4d25f287719a41696,605b9a706d7b3e279dc0e384,Mexico,Midwest,13 or older,no,2021-03-24_15h01.16.228,empathy_intonation_perc,2020.2.10,Win32,60,,,,,,,,,,0,,,,,,,,,,,,,,,,,,,,,,,,,,,,,,,,,,,,,,,,16,abracer,,,1,0,1.164735,0,58,58,15,1,REAL,FAKE,,,,,,,,,,,,,,,,,,,,,
,,,,,,,5fd4335c2d643f1a0ed65cb7,605b45a4d25f287719a41696,605b9a706d7b3e279dc0e384,Mexico,Midwest,13 or older,no,2021-03-24_15h01.16.228,empathy_intonation_perc,2020.2.10,Win32,60,,,,,,,,,,1,,,,,,,,,,,,,,,,,,,,,,,,,,,,,,,,,,,,,,,,62,flaco,,,0,0,0.637385,0,59,59,61,1,REAL,FAKE,,,,,,,,,,,,,,,,,,,,,
,,,,,,,5fd4335c2d643f1a0ed65cb7,605b45a4d25f287719a41696,605b9a706d7b3e279dc0e384,Mexico,Midwest,13 or older,no,2021-03-24_15h01.16.228,empathy_intonation_perc,2020.2.10,Win32,60,,,,,,,,,,1,,,,,,,,,,,,,,,,,,,,,,,,,,,,,,,,,,,,,,,,55,nevar,,,1,1,0.697105,0,60,60,54,1,REAL,FAKE,,,,,,,,,,,,,,,,,,,,,
,,,,,,,5fd4335c2d643f1a0ed65cb7,605b45a4d25f287719a41696,605b9a706d7b3e279dc0e384,Mexico,Midwest,13 or older,no,2021-03-24_15h01.16.228,empathy_intonation_perc,2020.2.10,Win32,60,,,,,,,,,,1,,,,,,,,,,,,,,,,,,,,,,,,,,,,,,,,,,,,,,,,59,besar,,,1,1,0.690965,0,61,61,58,1,REAL,FAKE,,,,,,,,,,,,,,,,,,,,,
,,,,,,,5fd4335c2d643f1a0ed65cb7,605b45a4d25f287719a41696,605b9a706d7b3e279dc0e384,Mexico,Midwest,13 or older,no,2021-03-24_15h01.16.228,empathy_intonation_perc,2020.2.10,Win32,60,,,,,,,,,,0,,,,,,,,,,,,,,,,,,,,,,,,,,,,,,,,,,,,,,,,27,acutacin,,,0,1,0.67238,0,62,62,26,1,REAL,FAKE,,,,,,,,,,,,,,,,,,,,,
,,,,,,,5fd4335c2d643f1a0ed65cb7,605b45a4d25f287719a41696,605b9a706d7b3e279dc0e384,Mexico,Midwest,13 or older,no,2021-03-24_15h01.16.228,empathy_intonation_perc,2020.2.10,Win32,60,,,,,,,,,,1,,,,,,,,,,,,,,,,,,,,,,,,,,,,,,,,,,,,,,,,13,helar,,,0,0,0.66771,0,63,63,12,1,REAL,FAKE,,,,,,,,,,,,,,,,,,,,,
,,,,,,,5fd4335c2d643f1a0ed65cb7,605b45a4d25f287719a41696,605b9a706d7b3e279dc0e384,Mexico,Midwest,13 or older,no,2021-03-24_15h01.16.228,empathy_intonation_perc,2020.2.10,Win32,60,,,,,,,,,,0,,,,,,,,,,,,,,,,,,,,,,,,,,,,,,,,,,,,,,,,66,hacido,,,1,0,0.73488,0,64,64,65,1,REAL,FAKE,,,,,,,,,,,,,,,,,,,,,
,,,,,,,5fd4335c2d643f1a0ed65cb7,605b45a4d25f287719a41696,605b9a706d7b3e279dc0e384,Mexico,Midwest,13 or older,no,2021-03-24_15h01.16.228,empathy_intonation_perc,2020.2.10,Win32,60,,,,,,,,,,1,,,,,,,,,,,,,,,,,,,,,,,,,,,,,,,,,,,,,,,,34,aviso,,,0,0,0.634615,0,65,65,33,1,REAL,FAKE,,,,,,,,,,,,,,,,,,,,,
,,,,,,,5fd4335c2d643f1a0ed65cb7,605b45a4d25f287719a41696,605b9a706d7b3e279dc0e384,Mexico,Midwest,13 or older,no,2021-03-24_15h01.16.228,empathy_intonation_perc,2020.2.10,Win32,60,,,,,,,,,,0,,,,,,,,,,,,,,,,,,,,,,,,,,,,,,,,,,,,,,,,35,rompido,,,0,1,0.690165,0,66,66,34,1,REAL,FAKE,,,,,,,,,,,,,,,,,,,,,
,,,,,,,5fd4335c2d643f1a0ed65cb7,605b45a4d25f287719a41696,605b9a706d7b3e279dc0e384,Mexico,Midwest,13 or older,no,2021-03-24_15h01.16.228,empathy_intonation_perc,2020.2.10,Win32,60,,,,,,,,,,0,,,,,,,,,,,,,,,,,,,,,,,,,,,,,,,,,,,,,,,,19,brecedad,,,0,1,0.96732,0,67,67,18,1,REAL,FAKE,,,,,,,,,,,,,,,,,,,,,
,,,,,,,5fd4335c2d643f1a0ed65cb7,605b45a4d25f287719a41696,605b9a706d7b3e279dc0e384,Mexico,Midwest,13 or older,no,2021-03-24_15h01.16.228,empathy_intonation_perc,2020.2.10,Win32,60,,,,,,,,,,0,,,,,,,,,,,,,,,,,,,,,,,,,,,,,,,,,,,,,,,,30,alardio,,,1,0,0.364335,0,68,68,29,1,REAL,FAKE,,,,,,,,,,,,,,,,,,,,,
,,,,,,,5fd4335c2d643f1a0ed65cb7,605b45a4d25f287719a41696,605b9a706d7b3e279dc0e384,Mexico,Midwest,13 or older,no,2021-03-24_15h01.16.228,empathy_intonation_perc,2020.2.10,Win32,60,,,,,,,,,,1,,,,,,,,,,,,,,,,,,,,,,,,,,,,,,,,,,,,,,,,9,hacha,,,1,1,0.7027,0,69,69,8,1,REAL,FAKE,,,,,,,,,,,,,,,,,,,,,
,,,,,,,5fd4335c2d643f1a0ed65cb7,605b45a4d25f287719a41696,605b9a706d7b3e279dc0e384,Mexico,Midwest,13 or older,no,2021-03-24_15h01.16.228,empathy_intonation_perc,2020.2.10,Win32,60,,,,,,,,,,1,,,,,,,,,,,,,,,,,,,,,,,,,,,,,,,,,,,,,,,,60,matar,,,1,1,0.692395,0,70,70,59,1,REAL,FAKE,,,,,,,,,,,,,,,,,,,,,
,,,,,,,5fd4335c2d643f1a0ed65cb7,605b45a4d25f287719a41696,605b9a706d7b3e279dc0e384,Mexico,Midwest,13 or older,no,2021-03-24_15h01.16.228,empathy_intonation_perc,2020.2.10,Win32,60,,,,,,,,,,1,,,,,,,,,,,,,,,,,,,,,,,,,,,,,,,,,,,,,,,,77,tiburn,,,0,0,0.570495,0,71,71,76,1,REAL,FAKE,,,,,,,,,,,,,,,,,,,,,
,,,,,,,5fd4335c2d643f1a0ed65cb7,605b45a4d25f287719a41696,605b9a706d7b3e279dc0e384,Mexico,Midwest,13 or older,no,2021-03-24_15h01.16.228,empathy_intonation_perc,2020.2.10,Win32,60,,,,,,,,,,1,,,,,,,,,,,,,,,,,,,,,,,,,,,,,,,,,,,,,,,,37,granuja,,,0,0,0.718095,0,72,72,36,1,REAL,FAKE,,,,,,,,,,,,,,,,,,,,,
,,,,,,,5fd4335c2d643f1a0ed65cb7,605b45a4d25f287719a41696,605b9a706d7b3e279dc0e384,Mexico,Midwest,13 or older,no,2021-03-24_15h01.16.228,empathy_intonation_perc,2020.2.10,Win32,60,,,,,,,,,,1,,,,,,,,,,,,,,,,,,,,,,,,,,,,,,,,,,,,,,,,80,hormiga,,,0,0,0.674175,0,73,73,79,1,REAL,FAKE,,,,,,,,,,,,,,,,,,,,,
,,,,,,,5fd4335c2d643f1a0ed65cb7,605b45a4d25f287719a41696,605b9a706d7b3e279dc0e384,Mexico,Midwest,13 or older,no,2021-03-24_15h01.16.228,empathy_intonation_perc,2020.2.10,Win32,60,,,,,,,,,,1,,,,,,,,,,,,,,,,,,,,,,,,,,,,,,,,,,,,,,,,7,psimo,,,0,0,0.808835,0,74,74,6,1,REAL,FAKE,,,,,,,,,,,,,,,,,,,,,
,,,,,,,5fd4335c2d643f1a0ed65cb7,605b45a4d25f287719a41696,605b9a706d7b3e279dc0e384,Mexico,Midwest,13 or older,no,2021-03-24_15h01.16.228,empathy_intonation_perc,2020.2.10,Win32,60,,,,,,,,,,1,,,,,,,,,,,,,,,,,,,,,,,,,,,,,,,,,,,,,,,,48,ladrn,,,1,1,0.689935,0,75,75,47,1,REAL,FAKE,,,,,,,,,,,,,,,,,,,,,
,,,,,,,5fd4335c2d643f1a0ed65cb7,605b45a4d25f287719a41696,605b9a706d7b3e279dc0e384,Mexico,Midwest,13 or older,no,2021-03-24_15h01.16.228,empathy_intonation_perc,2020.2.10,Win32,60,,,,,,,,,,1,,,,,,,,,,,,,,,,,,,,,,,,,,,,,,,,,,,,,,,,67,cabello,,,0,0,0.688255,0,76,76,66,1,REAL,FAKE,,,,,,,,,,,,,,,,,,,,,
,,,,,,,5fd4335c2d643f1a0ed65cb7,605b45a4d25f287719a41696,605b9a706d7b3e279dc0e384,Mexico,Midwest,13 or older,no,2021-03-24_15h01.16.228,empathy_intonation_perc,2020.2.10,Win32,60,,,,,,,,,,1,,,,,,,,,,,,,,,,,,,,,,,,,,,,,,,,,,,,,,,,20,vido,,,0,0,0.716365,0,77,77,19,1,REAL,FAKE,,,,,,,,,,,,,,,,,,,,,
,,,,,,,5fd4335c2d643f1a0ed65cb7,605b45a4d25f287719a41696,605b9a706d7b3e279dc0e384,Mexico,Midwest,13 or older,no,2021-03-24_15h01.16.228,empathy_intonation_perc,2020.2.10,Win32,60,,,,,,,,,,0,,,,,,,,,,,,,,,,,,,,,,,,,,,,,,,,,,,,,,,,10,antar,,,1,0,0.98119,0,78,78,9,1,REAL,FAKE,,,,,,,,,,,,,,,,,,,,,
,,,,,,,5fd4335c2d643f1a0ed65cb7,605b45a4d25f287719a41696,605b9a706d7b3e279dc0e384,Mexico,Midwest,13 or older,no,2021-03-24_15h01.16.228,empathy_intonation_perc,2020.2.10,Win32,60,,,,,,,,,,1,,,,,,,,,,,,,,,,,,,,,,,,,,,,,,,,,,,,,,,,76,atar,,,1,1,0.62221,0,79,79,75,1,REAL,FAKE,,,,,,,,,,,,,,,,,,,,,
,,,,,,,5fd4335c2d643f1a0ed65cb7,605b45a4d25f287719a41696,605b9a706d7b3e279dc0e384,Mexico,Midwest,13 or older,no,2021-03-24_15h01.16.228,empathy_intonation_perc,2020.2.10,Win32,60,,,,,,,,,,1,,,,,,,,,,,,,,,,,,,,,,,,,,,,,,,,,,,,,,,,36,loro,,,0,0,0.33358,0,80,80,35,1,REAL,FAKE,,,,,,,,,,,,,,,,,,,,,
,,,,,,,5fd4335c2d643f1a0ed65cb7,605b45a4d25f287719a41696,605b9a706d7b3e279dc0e384,Mexico,Midwest,13 or older,no,2021-03-24_15h01.16.228,empathy_intonation_perc,2020.2.10,Win32,60,,,,,,,,,,1,,,,,,,,,,,,,,,,,,,,,,,,,,,,,,,,,,,,,,,,65,bizcocho,,,0,0,0.508345,0,81,81,64,1,REAL,FAKE,,,,,,,,,,,,,,,,,,,,,
,,,,,,,5fd4335c2d643f1a0ed65cb7,605b45a4d25f287719a41696,605b9a706d7b3e279dc0e384,Mexico,Midwest,13 or older,no,2021-03-24_15h01.16.228,empathy_intonation_perc,2020.2.10,Win32,60,,,,,,,,,,0,,,,,,,,,,,,,,,,,,,,,,,,,,,,,,,,,,,,,,,,8,cadea,,,0,1,0.5193,0,82,82,7,1,REAL,FAKE,,,,,,,,,,,,,,,,,,,,,
,,,,,,,5fd4335c2d643f1a0ed65cb7,605b45a4d25f287719a41696,605b9a706d7b3e279dc0e384,Mexico,Midwest,13 or older,no,2021-03-24_15h01.16.228,empathy_intonation_perc,2020.2.10,Win32,60,,,,,,,,,,1,,,,,,,,,,,,,,,,,,,,,,,,,,,,,,,,,,,,,,,,78,frondoso,,,0,0,0.49235,0,83,83,77,1,REAL,FAKE,,,,,,,,,,,,,,,,,,,,,
,,,,,,,5fd4335c2d643f1a0ed65cb7,605b45a4d25f287719a41696,605b9a706d7b3e279dc0e384,Mexico,Midwest,13 or older,no,2021-03-24_15h01.16.228,empathy_intonation_perc,2020.2.10,Win32,60,,,,,,,,,,1,,,,,,,,,,,,,,,,,,,,,,,,,,,,,,,,,,,,,,,,40,alfombra,,,0,0,0.53931,0,84,84,39,1,REAL,FAKE,,,,,,,,,,,,,,,,,,,,,
,,,,,,,5fd4335c2d643f1a0ed65cb7,605b45a4d25f287719a41696,605b9a706d7b3e279dc0e384,Mexico,Midwest,13 or older,no,2021-03-24_15h01.16.228,empathy_intonation_perc,2020.2.10,Win32,60,,,,,,,,,,1,,,,,,,,,,,,,,,,,,,,,,,,,,,,,,,,,,,,,,,,2,pellizcar,,,1,1,0.49709,0,85,85,1,1,REAL,FAKE,,,,,,,,,,,,,,,,,,,,,
,,,,,,,5fd4335c2d643f1a0ed65cb7,605b45a4d25f287719a41696,605b9a706d7b3e279dc0e384,Mexico,Midwest,13 or older,no,2021-03-24_15h01.16.228,empathy_intonation_perc,2020.2.10,Win32,60,,,,,,,,,,0,,,,,,,,,,,,,,,,,,,,,,,,,,,,,,,,,,,,,,,,79,tropaje,,,0,1,0.581185,0,86,86,78,1,REAL,FAKE,,,,,,,,,,,,,,,,,,,,,
,,,,,,,5fd4335c2d643f1a0ed65cb7,605b45a4d25f287719a41696,605b9a706d7b3e279dc0e384,Mexico,Midwest,13 or older,no,2021-03-24_15h01.16.228,empathy_intonation_perc,2020.2.10,Win32,60,,,,,,,,,,0,,,,,,,,,,,,,,,,,,,,,,,,,,,,,,,,,,,,,,,,53,vegada,,,0,1,0.58344,0,87,87,52,1,REAL,FAKE,,,,,,,,,,,,,,,,,,,,,
,,,,,,,5fd4335c2d643f1a0ed65cb7,605b45a4d25f287719a41696,605b9a706d7b3e279dc0e384,Mexico,Midwest,13 or older,no,2021-03-24_15h01.16.228,empathy_intonation_perc,2020.2.10,Win32,60,,,,,,,,,,1,,,,,,,,,,,,,,,,,,,,,,,,,,,,,,,,,,,,,,,,22,lacayo,,,0,0,0.6099,0,88,88,21,1,REAL,FAKE,,,,,,,,,,,,,,,,,,,,,
,,,,,,,5fd4335c2d643f1a0ed65cb7,605b45a4d25f287719a41696,605b9a706d7b3e279dc0e384,Mexico,Midwest,13 or older,no,2021-03-24_15h01.16.228,empathy_intonation_perc,2020.2.10,Win32,60,,,,,,,,,,0,,,,,,,,,,,,,,,,,,,,,,,,,,,,,,,,,,,,,,,,18,arsa,,,1,0,0.81953,0,89,89,17,1,REAL,FAKE,,,,,,,,,,,,,,,,,,,,,
,,,,,,,5fd4335c2d643f1a0ed65cb7,605b45a4d25f287719a41696,605b9a706d7b3e279dc0e384,Mexico,Midwest,13 or older,no,2021-03-24_15h01.16.228,empathy_intonation_perc,2020.2.10,Win32,60,,,,,,,,,,,,,,,,,,,,,,,,,,,,,,,,,,,,,,,,,,,,,,,,,,,,,,,,,,,,,,,,4,1,1.965465,1,0,0,0,0,0,1,,,,,,,,,,,
,,,,,,,5fd4335c2d643f1a0ed65cb7,605b45a4d25f287719a41696,605b9a706d7b3e279dc0e384,Mexico,Midwest,13 or older,no,2021-03-24_15h01.16.228,empathy_intonation_perc,2020.2.10,Win32,60,,,,,,,,,,,,,,,,,,,,1,,,,,,,,,,,,,,,,,,,,,,,,,,,,,,,,,,,,,,,,,,,,,,,,,,,,,,2,0,0,0,0,1,I can easily tell if someone else wants to enter a conversation.,1,0,1,0
,,,,,,,5fd4335c2d643f1a0ed65cb7,605b45a4d25f287719a41696,605b9a706d7b3e279dc0e384,Mexico,Midwest,13 or older,no,2021-03-24_15h01.16.228,empathy_intonation_perc,2020.2.10,Win32,60,,,,,,,,,,,,,,,,,,,,2,,,,,,,,,,,,,,,,,,,,,,,,,,,,,,,,,,,,,,,,,,,,,,,,,,,,,,3,0,1,1,1,1,I prefer animals to humans.,0,1,0,0
,,,,,,,5fd4335c2d643f1a0ed65cb7,605b45a4d25f287719a41696,605b9a706d7b3e279dc0e384,Mexico,Midwest,13 or older,no,2021-03-24_15h01.16.228,empathy_intonation_perc,2020.2.10,Win32,60,,,,,,,,,,,,,,,,,,,,3,,,,,,,,,,,,,,,,,,,,,,,,,,,,,,,,,,,,,,,,,,,,,,,,,,,,,,4,0,2,2,2,1,I try to keep up with the current trends and fashions.,0,1,0,0
,,,,,,,5fd4335c2d643f1a0ed65cb7,605b45a4d25f287719a41696,605b9a706d7b3e279dc0e384,Mexico,Midwest,13 or older,no,2021-03-24_15h01.16.228,empathy_intonation_perc,2020.2.10,Win32,60,,,,,,,,,,,,,,,,,,,,4,,,,,,,,,,,,,,,,,,,,,,,,,,,,,,,,,,,,,,,,,,,,,,,,,,,,,,3,0,3,3,3,1,"I find it difficult to explain to others things that I understand easily, 
  when they dont understand it first time.",1,0,0,1
,,,,,,,5fd4335c2d643f1a0ed65cb7,605b45a4d25f287719a41696,605b9a706d7b3e279dc0e384,Mexico,Midwest,13 or older,no,2021-03-24_15h01.16.228,empathy_intonation_perc,2020.2.10,Win32,60,,,,,,,,,,,,,,,,,,,,5,,,,,,,,,,,,,,,,,,,,,,,,,,,,,,,,,,,,,,,,,,,,,,,,,,,,,,2,0,4,4,4,1,I dream most nights.,0,1,0,0
,,,,,,,5fd4335c2d643f1a0ed65cb7,605b45a4d25f287719a41696,605b9a706d7b3e279dc0e384,Mexico,Midwest,13 or older,no,2021-03-24_15h01.16.228,empathy_intonation_perc,2020.2.10,Win32,60,,,,,,,,,,,,,,,,,,,,6,,,,,,,,,,,,,,,,,,,,,,,,,,,,,,,,,,,,,,,,,,,,,,,,,,,,,,1,0,5,5,5,1,I really enjoy caring for other people.,1,0,1,0
,,,,,,,5fd4335c2d643f1a0ed65cb7,605b45a4d25f287719a41696,605b9a706d7b3e279dc0e384,Mexico,Midwest,13 or older,no,2021-03-24_15h01.16.228,empathy_intonation_perc,2020.2.10,Win32,60,,,,,,,,,,,,,,,,,,,,7,,,,,,,,,,,,,,,,,,,,,,,,,,,,,,,,,,,,,,,,,,,,,,,,,,,,,,2,0,6,6,6,1,I try to solve my own problems rather than discussing them with others.,0,1,0,0
,,,,,,,5fd4335c2d643f1a0ed65cb7,605b45a4d25f287719a41696,605b9a706d7b3e279dc0e384,Mexico,Midwest,13 or older,no,2021-03-24_15h01.16.228,empathy_intonation_perc,2020.2.10,Win32,60,,,,,,,,,,,,,,,,,,,,8,,,,,,,,,,,,,,,,,,,,,,,,,,,,,,,,,,,,,,,,,,,,,,,,,,,,,,1,0,7,7,7,1,I find it hard to know what to do in a social situation.,1,0,0,1
,,,,,,,5fd4335c2d643f1a0ed65cb7,605b45a4d25f287719a41696,605b9a706d7b3e279dc0e384,Mexico,Midwest,13 or older,no,2021-03-24_15h01.16.228,empathy_intonation_perc,2020.2.10,Win32,60,,,,,,,,,,,,,,,,,,,,9,,,,,,,,,,,,,,,,,,,,,,,,,,,,,,,,,,,,,,,,,,,,,,,,,,,,,,5,0,8,8,8,1,I am at my best first thing in the morning.,0,1,0,0
