instructions_2afc_loop.thisRepN,instructions_2afc_loop.thisTrialN,instructions_2afc_loop.thisN,instructions_2afc_loop.thisIndex,instructions_2afc_loop.ran,instructions_text,continue_text,participant,study_id,session,I am most familiar with Spanish from...*,What part of the US are you from?*,At what age did you begin learning Spanish?*,Are you proficient in any languages other than English/Spanish?*,date,expName,psychopyVersion,OS,frameRate,key_resp_2afc_practice.keys,key_resp_2afc_practice.corr,key_resp_2afc_practice.rt,trials_2afc_practice_loop.thisRepN,trials_2afc_practice_loop.thisTrialN,trials_2afc_practice_loop.thisN,trials_2afc_practice_loop.thisIndex,trials_2afc_practice_loop.ran,path,correct_response,the_col,key_resp_2afc_trial.keys,key_resp_2afc_trial.corr,key_resp_2afc_trial.rt,trials_2afc_loop.thisRepN,trials_2afc_loop.thisTrialN,trials_2afc_loop.thisN,trials_2afc_loop.thisIndex,trials_2afc_loop.ran,item_num,andalusian,argentine,castilian,chilean,cuban,mexican,peruvian,puertorican,key_resp_ac1.keys,key_resp_ac1.corr,key_resp_ac1.rt,ac1_loop.thisRepN,ac1_loop.thisTrialN,ac1_loop.thisN,ac1_loop.thisIndex,ac1_loop.ran,instructions_lextale_loop.thisRepN,instructions_lextale_loop.thisTrialN,instructions_lextale_loop.thisN,instructions_lextale_loop.thisIndex,instructions_lextale_loop.ran,key_resp_lextale_practice.keys,key_resp_lextale_practice.corr,key_resp_lextale_practice.rt,trials_lextale_practice_loop.thisRepN,trials_lextale_practice_loop.thisTrialN,trials_lextale_practice_loop.thisN,trials_lextale_practice_loop.thisIndex,trials_lextale_practice_loop.ran,stim,word,prac_button_real,prac_button_false,key_resp_lextale_trial.keys,key_resp_lextale_trial.corr,key_resp_lextale_trial.rt,trials_lextale_loop.thisRepN,trials_lextale_loop.thisTrialN,trials_lextale_loop.thisN,trials_lextale_loop.thisIndex,trials_lextale_loop.ran,button_real,button_false,key_resp_ac2.keys,key_resp_ac2.corr,key_resp_ac2.rt,check_pass,check_fails,ac2_loop.thisRepN,ac2_loop.thisTrialN,ac2_loop.thisN,ac2_loop.thisIndex,ac2_loop.ran,slider_eq_trial.response,trials_eq_loop.thisRepN,trials_eq_loop.thisTrialN,trials_eq_loop.thisN,trials_eq_loop.thisIndex,trials_eq_loop.ran,item,is_test_item,is_distractor,is_agree_score,is_disagree_score
0,0,0,0,1,"In the following task you are going to hear a series of utterances. 

  You will decide if the utterances sound like questions or not using your keyboard.",(press the spacebar to continue),5febbf353cc53cce4cec36e3,605b45a4d25f287719a41696,605bc2a98fcb0fd42c222b36,Costa Rica,Midwest,13 or older,no,2021-03-24_17h55.41.376,empathy_intonation_perc,2020.2.10,Win32,60,,,,,,,,,,,,,,,,,,,,,,,,,,,,,,,,,,,,,,,,,,,,,,,,,,,,,,,,,,,,,,,,,,,,,,,,,,,,,,,,,,,,
0,1,1,1,1,"If you believe the utterance is a question, type '1' (for 'yes') and if you do not 
  believe it is a question type '0' (for 'no').

  Let's practice a bit...",(press the spacebar to continue),5febbf353cc53cce4cec36e3,605b45a4d25f287719a41696,605bc2a98fcb0fd42c222b36,Costa Rica,Midwest,13 or older,no,2021-03-24_17h55.41.376,empathy_intonation_perc,2020.2.10,Win32,60,,,,,,,,,,,,,,,,,,,,,,,,,,,,,,,,,,,,,,,,,,,,,,,,,,,,,,,,,,,,,,,,,,,,,,,,,,,,,,,,,,,,
,,,,,,,5febbf353cc53cce4cec36e3,605b45a4d25f287719a41696,605bc2a98fcb0fd42c222b36,Costa Rica,Midwest,13 or older,no,2021-03-24_17h55.41.376,empathy_intonation_perc,2020.2.10,Win32,60,1,1,3.1681,0,0,0,1,1,./stim/wavs/argentine_question_filler_Mi-vecino-habla-mucho.wav,1,,,,,,,,,,,,,,,,,,,,,,,,,,,,,,,,,,,,,,,,,,,,,,,,,,,,,,,,,,,,,,,,,,,,,,,,,,
,,,,,,,5febbf353cc53cce4cec36e3,605b45a4d25f287719a41696,605bc2a98fcb0fd42c222b36,Costa Rica,Midwest,13 or older,no,2021-03-24_17h55.41.376,empathy_intonation_perc,2020.2.10,Win32,60,0,1,2.334855,0,1,1,6,1,./stim/wavs/peruvian_statement_filler_El-nino-habla-con-su-madre.wav,0,,,,,,,,,,,,,,,,,,,,,,,,,,,,,,,,,,,,,,,,,,,,,,,,,,,,,,,,,,,,,,,,,,,,,,,,,,
,,,,,,,5febbf353cc53cce4cec36e3,605b45a4d25f287719a41696,605bc2a98fcb0fd42c222b36,Costa Rica,Midwest,13 or older,no,2021-03-24_17h55.41.376,empathy_intonation_perc,2020.2.10,Win32,60,0,1,2.136575,0,2,2,4,1,./stim/wavs/cuban_statement_filler_Cocinabas-por-la-noche.wav,0,,,,,,,,,,,,,,,,,,,,,,,,,,,,,,,,,,,,,,,,,,,,,,,,,,,,,,,,,,,,,,,,,,,,,,,,,,
,,,,,,,5febbf353cc53cce4cec36e3,605b45a4d25f287719a41696,605bc2a98fcb0fd42c222b36,Costa Rica,Midwest,13 or older,no,2021-03-24_17h55.41.376,empathy_intonation_perc,2020.2.10,Win32,60,0,1,3.257305,0,3,3,5,1,./stim/wavs/andalusian_statement_filler_Alberto-nunca-se-afeita.wav,0,,,,,,,,,,,,,,,,,,,,,,,,,,,,,,,,,,,,,,,,,,,,,,,,,,,,,,,,,,,,,,,,,,,,,,,,,,
,,,,,,,5febbf353cc53cce4cec36e3,605b45a4d25f287719a41696,605bc2a98fcb0fd42c222b36,Costa Rica,Midwest,13 or older,no,2021-03-24_17h55.41.376,empathy_intonation_perc,2020.2.10,Win32,60,1,1,1.57023,0,4,4,2,1,./stim/wavs/chilean_question_filler_Mi-padre-cantaba-bien.wav,1,,,,,,,,,,,,,,,,,,,,,,,,,,,,,,,,,,,,,,,,,,,,,,,,,,,,,,,,,,,,,,,,,,,,,,,,,,
,,,,,,,5febbf353cc53cce4cec36e3,605b45a4d25f287719a41696,605bc2a98fcb0fd42c222b36,Costa Rica,Midwest,13 or older,no,2021-03-24_17h55.41.376,empathy_intonation_perc,2020.2.10,Win32,60,1,1,1.85408,0,5,5,3,1,./stim/wavs/mexican_question_filler_Felipe-no-tiene-contrasena.wav,1,,,,,,,,,,,,,,,,,,,,,,,,,,,,,,,,,,,,,,,,,,,,,,,,,,,,,,,,,,,,,,,,,,,,,,,,,,
,,,,,,,5febbf353cc53cce4cec36e3,605b45a4d25f287719a41696,605bc2a98fcb0fd42c222b36,Costa Rica,Midwest,13 or older,no,2021-03-24_17h55.41.376,empathy_intonation_perc,2020.2.10,Win32,60,1,1,2.037605,0,6,6,0,1,./stim/wavs/castilian_question_filler_Mi-esposo-conoce-al-chico.wav,1,,,,,,,,,,,,,,,,,,,,,,,,,,,,,,,,,,,,,,,,,,,,,,,,,,,,,,,,,,,,,,,,,,,,,,,,,,
,,,,,,,5febbf353cc53cce4cec36e3,605b45a4d25f287719a41696,605bc2a98fcb0fd42c222b36,Costa Rica,Midwest,13 or older,no,2021-03-24_17h55.41.376,empathy_intonation_perc,2020.2.10,Win32,60,0,1,2.184685,0,7,7,7,1,./stim/wavs/puertorican_statement_filler_La-nina-pinta-con-su-amiga.wav,0,,,,,,,,,,,,,,,,,,,,,,,,,,,,,,,,,,,,,,,,,,,,,,,,,,,,,,,,,,,,,,,,,,,,,,,,,,
,,,,,,,5febbf353cc53cce4cec36e3,605b45a4d25f287719a41696,605bc2a98fcb0fd42c222b36,Costa Rica,Midwest,13 or older,no,2021-03-24_17h55.41.376,empathy_intonation_perc,2020.2.10,Win32,60,,,,,,,,,,0,cuban,0,1,7.33409,0,0,0,41,1,42,./stim/wavs/andalusian_mismatch_declarative-narrow-focus_El-hombre-mira-la-luna.wav,./stim/wavs/argentine_mismatch_declarative-narrow-focus_El-hombre-mira-la-luna.wav,./stim/wavs/castilian_mismatch_declarative-narrow-focus_El-hombre-mira-la-luna.wav,./stim/wavs/chilean_mismatch_declarative-narrow-focus_El-hombre-mira-la-luna.wav,./stim/wavs/cuban_mismatch_declarative-narrow-focus_El-hombre-mira-la-luna.wav,./stim/wavs/mexican_mismatch_declarative-narrow-focus_El-hombre-mira-la-luna.wav,./stim/wavs/peruvian_mismatch_declarative-narrow-focus_El-hombre-mira-la-luna.wav,./stim/wavs/puertorican_mismatch_declarative-narrow-focus_El-hombre-mira-la-luna.wav,,,,,,,,,,,,,,,,,,,,,,,,,,,,,,,,,,,,,,,,,,,,,,,,,,,,,,,,
,,,,,,,5febbf353cc53cce4cec36e3,605b45a4d25f287719a41696,605bc2a98fcb0fd42c222b36,Costa Rica,Midwest,13 or older,no,2021-03-24_17h55.41.376,empathy_intonation_perc,2020.2.10,Win32,60,,,,,,,,,,0,peruvian,0,1,2.202195,0,1,1,45,1,46,./stim/wavs/andalusian_mismatch_declarative-narrow-focus_Mi-madre-come-la-fruta.wav,./stim/wavs/argentine_mismatch_declarative-narrow-focus_Mi-madre-come-la-fruta.wav,./stim/wavs/castilian_mismatch_declarative-narrow-focus_Mi-madre-come-la-fruta.wav,./stim/wavs/chilean_mismatch_declarative-narrow-focus_Mi-madre-come-la-fruta.wav,./stim/wavs/cuban_mismatch_declarative-narrow-focus_Mi-madre-come-la-fruta.wav,./stim/wavs/mexican_mismatch_declarative-narrow-focus_Mi-madre-come-la-fruta.wav,./stim/wavs/peruvian_mismatch_declarative-narrow-focus_Mi-madre-come-la-fruta.wav,./stim/wavs/puertorican_mismatch_declarative-narrow-focus_Mi-madre-come-la-fruta.wav,,,,,,,,,,,,,,,,,,,,,,,,,,,,,,,,,,,,,,,,,,,,,,,,,,,,,,,,
,,,,,,,5febbf353cc53cce4cec36e3,605b45a4d25f287719a41696,605bc2a98fcb0fd42c222b36,Costa Rica,Midwest,13 or older,no,2021-03-24_17h55.41.376,empathy_intonation_perc,2020.2.10,Win32,60,,,,,,,,,,0,castilian,0,1,1.798355,0,2,2,0,1,1,./stim/wavs/andalusian_match_declarative-broad-focus_Ana-lleva-el-abrigo.wav,./stim/wavs/argentine_match_declarative-broad-focus_Ana-lleva-el-abrigo.wav,./stim/wavs/castilian_match_declarative-broad-focus_Ana-lleva-el-abrigo.wav,./stim/wavs/chilean_match_declarative-broad-focus_Ana-lleva-el-abrigo.wav,./stim/wavs/cuban_match_declarative-broad-focus_Ana-lleva-el-abrigo.wav,./stim/wavs/mexican_match_declarative-broad-focus_Ana-lleva-el-abrigo.wav,./stim/wavs/peruvian_match_declarative-broad-focus_Ana-lleva-el-abrigo.wav,./stim/wavs/puertorican_match_declarative-broad-focus_Ana-lleva-el-abrigo.wav,,,,,,,,,,,,,,,,,,,,,,,,,,,,,,,,,,,,,,,,,,,,,,,,,,,,,,,,
,,,,,,,5febbf353cc53cce4cec36e3,605b45a4d25f287719a41696,605bc2a98fcb0fd42c222b36,Costa Rica,Midwest,13 or older,no,2021-03-24_17h55.41.376,empathy_intonation_perc,2020.2.10,Win32,60,,,,,,,,,,1,castilian,1,1,1.787255,0,3,3,52,1,53,./stim/wavs/andalusian_mismatch_interrogative-partial-wh_Por-que-odiaba-la-lluvia.wav,./stim/wavs/argentine_mismatch_interrogative-partial-wh_Por-que-odiaba-la-lluvia.wav,./stim/wavs/castilian_mismatch_interrogative-partial-wh_Por-que-odiaba-la-lluvia.wav,./stim/wavs/chilean_mismatch_interrogative-partial-wh_Por-que-odiaba-la-lluvia.wav,./stim/wavs/cuban_mismatch_interrogative-partial-wh_Por-que-odiaba-la-lluvia.wav,./stim/wavs/mexican_mismatch_interrogative-partial-wh_Por-que-odiaba-la-lluvia.wav,./stim/wavs/peruvian_mismatch_interrogative-partial-wh_Por-que-odiaba-la-lluvia.wav,./stim/wavs/puertorican_mismatch_interrogative-partial-wh_Por-que-odiaba-la-lluvia.wav,,,,,,,,,,,,,,,,,,,,,,,,,,,,,,,,,,,,,,,,,,,,,,,,,,,,,,,,
,,,,,,,5febbf353cc53cce4cec36e3,605b45a4d25f287719a41696,605bc2a98fcb0fd42c222b36,Costa Rica,Midwest,13 or older,no,2021-03-24_17h55.41.376,empathy_intonation_perc,2020.2.10,Win32,60,,,,,,,,,,0,argentine,0,1,1.75635,0,4,4,7,1,8,./stim/wavs/andalusian_match_declarative-broad-focus_Marta-abre-el-regalo.wav,./stim/wavs/argentine_match_declarative-broad-focus_Marta-abre-el-regalo.wav,./stim/wavs/castilian_match_declarative-broad-focus_Marta-abre-el-regalo.wav,./stim/wavs/chilean_match_declarative-broad-focus_Marta-abre-el-regalo.wav,./stim/wavs/cuban_match_declarative-broad-focus_Marta-abre-el-regalo.wav,./stim/wavs/mexican_match_declarative-broad-focus_Marta-abre-el-regalo.wav,./stim/wavs/peruvian_match_declarative-broad-focus_Marta-abre-el-regalo.wav,./stim/wavs/puertorican_match_declarative-broad-focus_Marta-abre-el-regalo.wav,,,,,,,,,,,,,,,,,,,,,,,,,,,,,,,,,,,,,,,,,,,,,,,,,,,,,,,,
,,,,,,,5febbf353cc53cce4cec36e3,605b45a4d25f287719a41696,605bc2a98fcb0fd42c222b36,Costa Rica,Midwest,13 or older,no,2021-03-24_17h55.41.376,empathy_intonation_perc,2020.2.10,Win32,60,,,,,,,,,,0,mexican,0,1,5.98776,0,5,5,5,1,6,./stim/wavs/andalusian_match_declarative-broad-focus_Maria-bebe-el-vino.wav,./stim/wavs/argentine_match_declarative-broad-focus_Maria-bebe-el-vino.wav,./stim/wavs/castilian_match_declarative-broad-focus_Maria-bebe-el-vino.wav,./stim/wavs/chilean_match_declarative-broad-focus_Maria-bebe-el-vino.wav,./stim/wavs/cuban_match_declarative-broad-focus_Maria-bebe-el-vino.wav,./stim/wavs/mexican_match_declarative-broad-focus_Maria-bebe-el-vino.wav,./stim/wavs/peruvian_match_declarative-broad-focus_Maria-bebe-el-vino.wav,./stim/wavs/puertorican_match_declarative-broad-focus_Maria-bebe-el-vino.wav,,,,,,,,,,,,,,,,,,,,,,,,,,,,,,,,,,,,,,,,,,,,,,,,,,,,,,,,
,,,,,,,5febbf353cc53cce4cec36e3,605b45a4d25f287719a41696,605bc2a98fcb0fd42c222b36,Costa Rica,Midwest,13 or older,no,2021-03-24_17h55.41.376,empathy_intonation_perc,2020.2.10,Win32,60,,,,,,,,,,0,castilian,0,1,2.24979,0,6,6,39,1,40,./stim/wavs/andalusian_mismatch_declarative-broad-focus_Mi-tia-odia-la-lluvia.wav,./stim/wavs/argentine_mismatch_declarative-broad-focus_Mi-tia-odia-la-lluvia.wav,./stim/wavs/castilian_mismatch_declarative-broad-focus_Mi-tia-odia-la-lluvia.wav,./stim/wavs/chilean_mismatch_declarative-broad-focus_Mi-tia-odia-la-lluvia.wav,./stim/wavs/cuban_mismatch_declarative-broad-focus_Mi-tia-odia-la-lluvia.wav,./stim/wavs/mexican_mismatch_declarative-broad-focus_Mi-tia-odia-la-lluvia.wav,./stim/wavs/peruvian_mismatch_declarative-broad-focus_Mi-tia-odia-la-lluvia.wav,./stim/wavs/puertorican_mismatch_declarative-broad-focus_Mi-tia-odia-la-lluvia.wav,,,,,,,,,,,,,,,,,,,,,,,,,,,,,,,,,,,,,,,,,,,,,,,,,,,,,,,,
,,,,,,,5febbf353cc53cce4cec36e3,605b45a4d25f287719a41696,605bc2a98fcb0fd42c222b36,Costa Rica,Midwest,13 or older,no,2021-03-24_17h55.41.376,empathy_intonation_perc,2020.2.10,Win32,60,,,,,,,,,,1,puertorican,0,0,1.93572,0,7,7,59,1,60,./stim/wavs/andalusian_mismatch_interrogative-total-yn_La-maestra-vive-en-Paris.wav,./stim/wavs/argentine_mismatch_interrogative-total-yn_La-maestra-vive-en-Paris.wav,./stim/wavs/castilian_mismatch_interrogative-total-yn_La-maestra-vive-en-Paris.wav,./stim/wavs/chilean_mismatch_interrogative-total-yn_La-maestra-vive-en-Paris.wav,./stim/wavs/cuban_mismatch_interrogative-total-yn_La-maestra-vive-en-Paris.wav,./stim/wavs/mexican_mismatch_interrogative-total-yn_La-maestra-vive-en-Paris.wav,./stim/wavs/peruvian_mismatch_interrogative-total-yn_La-maestra-vive-en-Paris.wav,./stim/wavs/puertorican_mismatch_interrogative-total-yn_La-maestra-vive-en-Paris.wav,,,,,,,,,,,,,,,,,,,,,,,,,,,,,,,,,,,,,,,,,,,,,,,,,,,,,,,,
,,,,,,,5febbf353cc53cce4cec36e3,605b45a4d25f287719a41696,605bc2a98fcb0fd42c222b36,Costa Rica,Midwest,13 or older,no,2021-03-24_17h55.41.376,empathy_intonation_perc,2020.2.10,Win32,60,,,,,,,,,,0,peruvian,0,1,1.95458,0,8,8,14,1,15,./stim/wavs/andalusian_match_declarative-narrow-focus_Mariano-habla-del-tiempo.wav,./stim/wavs/argentine_match_declarative-narrow-focus_Mariano-habla-del-tiempo.wav,./stim/wavs/castilian_match_declarative-narrow-focus_Mariano-habla-del-tiempo.wav,./stim/wavs/chilean_match_declarative-narrow-focus_Mariano-habla-del-tiempo.wav,./stim/wavs/cuban_match_declarative-narrow-focus_Mariano-habla-del-tiempo.wav,./stim/wavs/mexican_match_declarative-narrow-focus_Mariano-habla-del-tiempo.wav,./stim/wavs/peruvian_match_declarative-narrow-focus_Mariano-habla-del-tiempo.wav,./stim/wavs/puertorican_match_declarative-narrow-focus_Mariano-habla-del-tiempo.wav,,,,,,,,,,,,,,,,,,,,,,,,,,,,,,,,,,,,,,,,,,,,,,,,,,,,,,,,
,,,,,,,5febbf353cc53cce4cec36e3,605b45a4d25f287719a41696,605bc2a98fcb0fd42c222b36,Costa Rica,Midwest,13 or older,no,2021-03-24_17h55.41.376,empathy_intonation_perc,2020.2.10,Win32,60,,,,,,,,,,1,chilean,1,1,1.45975,0,9,9,57,1,58,./stim/wavs/andalusian_mismatch_interrogative-total-yn_El-hombre-mira-la-luna.wav,./stim/wavs/argentine_mismatch_interrogative-total-yn_El-hombre-mira-la-luna.wav,./stim/wavs/castilian_mismatch_interrogative-total-yn_El-hombre-mira-la-luna.wav,./stim/wavs/chilean_mismatch_interrogative-total-yn_El-hombre-mira-la-luna.wav,./stim/wavs/cuban_mismatch_interrogative-total-yn_El-hombre-mira-la-luna.wav,./stim/wavs/mexican_mismatch_interrogative-total-yn_El-hombre-mira-la-luna.wav,./stim/wavs/peruvian_mismatch_interrogative-total-yn_El-hombre-mira-la-luna.wav,./stim/wavs/puertorican_mismatch_interrogative-total-yn_El-hombre-mira-la-luna.wav,,,,,,,,,,,,,,,,,,,,,,,,,,,,,,,,,,,,,,,,,,,,,,,,,,,,,,,,
,,,,,,,5febbf353cc53cce4cec36e3,605b45a4d25f287719a41696,605bc2a98fcb0fd42c222b36,Costa Rica,Midwest,13 or older,no,2021-03-24_17h55.41.376,empathy_intonation_perc,2020.2.10,Win32,60,,,,,,,,,,1,mexican,1,1,1.726675,0,10,10,26,1,27,./stim/wavs/andalusian_match_interrogative-total-yn_David-leia-el-libro.wav,./stim/wavs/argentine_match_interrogative-total-yn_David-leia-el-libro.wav,./stim/wavs/castilian_match_interrogative-total-yn_David-leia-el-libro.wav,./stim/wavs/chilean_match_interrogative-total-yn_David-leia-el-libro.wav,./stim/wavs/cuban_match_interrogative-total-yn_David-leia-el-libro.wav,./stim/wavs/mexican_match_interrogative-total-yn_David-leia-el-libro.wav,./stim/wavs/peruvian_match_interrogative-total-yn_David-leia-el-libro.wav,./stim/wavs/puertorican_match_interrogative-total-yn_David-leia-el-libro.wav,,,,,,,,,,,,,,,,,,,,,,,,,,,,,,,,,,,,,,,,,,,,,,,,,,,,,,,,
,,,,,,,5febbf353cc53cce4cec36e3,605b45a4d25f287719a41696,605bc2a98fcb0fd42c222b36,Costa Rica,Midwest,13 or older,no,2021-03-24_17h55.41.376,empathy_intonation_perc,2020.2.10,Win32,60,,,,,,,,,,1,chilean,1,1,1.90405,0,11,11,31,1,32,./stim/wavs/andalusian_match_interrogative-total-yn_Marta-abre-el-regalo.wav,./stim/wavs/argentine_match_interrogative-total-yn_Marta-abre-el-regalo.wav,./stim/wavs/castilian_match_interrogative-total-yn_Marta-abre-el-regalo.wav,./stim/wavs/chilean_match_interrogative-total-yn_Marta-abre-el-regalo.wav,./stim/wavs/cuban_match_interrogative-total-yn_Marta-abre-el-regalo.wav,./stim/wavs/mexican_match_interrogative-total-yn_Marta-abre-el-regalo.wav,./stim/wavs/peruvian_match_interrogative-total-yn_Marta-abre-el-regalo.wav,./stim/wavs/puertorican_match_interrogative-total-yn_Marta-abre-el-regalo.wav,,,,,,,,,,,,,,,,,,,,,,,,,,,,,,,,,,,,,,,,,,,,,,,,,,,,,,,,
,,,,,,,5febbf353cc53cce4cec36e3,605b45a4d25f287719a41696,605bc2a98fcb0fd42c222b36,Costa Rica,Midwest,13 or older,no,2021-03-24_17h55.41.376,empathy_intonation_perc,2020.2.10,Win32,60,,,,,,,,,,1,argentine,1,1,1.95153,0,12,12,56,1,57,./stim/wavs/andalusian_mismatch_interrogative-total-yn_El-bebe-comia-muy-bien.wav,./stim/wavs/argentine_mismatch_interrogative-total-yn_El-bebe-comia-muy-bien.wav,./stim/wavs/castilian_mismatch_interrogative-total-yn_El-bebe-comia-muy-bien.wav,./stim/wavs/chilean_mismatch_interrogative-total-yn_El-bebe-comia-muy-bien.wav,./stim/wavs/cuban_mismatch_interrogative-total-yn_El-bebe-comia-muy-bien.wav,./stim/wavs/mexican_mismatch_interrogative-total-yn_El-bebe-comia-muy-bien.wav,./stim/wavs/peruvian_mismatch_interrogative-total-yn_El-bebe-comia-muy-bien.wav,./stim/wavs/puertorican_mismatch_interrogative-total-yn_El-bebe-comia-muy-bien.wav,,,,,,,,,,,,,,,,,,,,,,,,,,,,,,,,,,,,,,,,,,,,,,,,,,,,,,,,
,,,,,,,5febbf353cc53cce4cec36e3,605b45a4d25f287719a41696,605bc2a98fcb0fd42c222b36,Costa Rica,Midwest,13 or older,no,2021-03-24_17h55.41.376,empathy_intonation_perc,2020.2.10,Win32,60,,,,,,,,,,1,mexican,1,1,1.954185,0,13,13,24,1,25,./stim/wavs/andalusian_match_interrogative-total-yn_Ana-lleva-el-abrigo.wav,./stim/wavs/argentine_match_interrogative-total-yn_Ana-lleva-el-abrigo.wav,./stim/wavs/castilian_match_interrogative-total-yn_Ana-lleva-el-abrigo.wav,./stim/wavs/chilean_match_interrogative-total-yn_Ana-lleva-el-abrigo.wav,./stim/wavs/cuban_match_interrogative-total-yn_Ana-lleva-el-abrigo.wav,./stim/wavs/mexican_match_interrogative-total-yn_Ana-lleva-el-abrigo.wav,./stim/wavs/peruvian_match_interrogative-total-yn_Ana-lleva-el-abrigo.wav,./stim/wavs/puertorican_match_interrogative-total-yn_Ana-lleva-el-abrigo.wav,,,,,,,,,,,,,,,,,,,,,,,,,,,,,,,,,,,,,,,,,,,,,,,,,,,,,,,,
,,,,,,,5febbf353cc53cce4cec36e3,605b45a4d25f287719a41696,605bc2a98fcb0fd42c222b36,Costa Rica,Midwest,13 or older,no,2021-03-24_17h55.41.376,empathy_intonation_perc,2020.2.10,Win32,60,,,,,,,,,,0,andalusian,0,1,2.433645,0,14,14,3,1,4,./stim/wavs/andalusian_match_declarative-broad-focus_Emilio-ama-la-marcha.wav,./stim/wavs/argentine_match_declarative-broad-focus_Emilio-ama-la-marcha.wav,./stim/wavs/castilian_match_declarative-broad-focus_Emilio-ama-la-marcha.wav,./stim/wavs/chilean_match_declarative-broad-focus_Emilio-ama-la-marcha.wav,./stim/wavs/cuban_match_declarative-broad-focus_Emilio-ama-la-marcha.wav,./stim/wavs/mexican_match_declarative-broad-focus_Emilio-ama-la-marcha.wav,./stim/wavs/peruvian_match_declarative-broad-focus_Emilio-ama-la-marcha.wav,./stim/wavs/puertorican_match_declarative-broad-focus_Emilio-ama-la-marcha.wav,,,,,,,,,,,,,,,,,,,,,,,,,,,,,,,,,,,,,,,,,,,,,,,,,,,,,,,,
,,,,,,,5febbf353cc53cce4cec36e3,605b45a4d25f287719a41696,605bc2a98fcb0fd42c222b36,Costa Rica,Midwest,13 or older,no,2021-03-24_17h55.41.376,empathy_intonation_perc,2020.2.10,Win32,60,,,,,,,,,,0,castilian,0,1,2.251795,0,15,15,34,1,35,./stim/wavs/andalusian_mismatch_declarative-broad-focus_El-nino-oye-el-rio.wav,./stim/wavs/argentine_mismatch_declarative-broad-focus_El-nino-oye-el-rio.wav,./stim/wavs/castilian_mismatch_declarative-broad-focus_El-nino-oye-el-rio.wav,./stim/wavs/chilean_mismatch_declarative-broad-focus_El-nino-oye-el-rio.wav,./stim/wavs/cuban_mismatch_declarative-broad-focus_El-nino-oye-el-rio.wav,./stim/wavs/mexican_mismatch_declarative-broad-focus_El-nino-oye-el-rio.wav,./stim/wavs/peruvian_mismatch_declarative-broad-focus_El-nino-oye-el-rio.wav,./stim/wavs/puertorican_mismatch_declarative-broad-focus_El-nino-oye-el-rio.wav,,,,,,,,,,,,,,,,,,,,,,,,,,,,,,,,,,,,,,,,,,,,,,,,,,,,,,,,
,,,,,,,5febbf353cc53cce4cec36e3,605b45a4d25f287719a41696,605bc2a98fcb0fd42c222b36,Costa Rica,Midwest,13 or older,no,2021-03-24_17h55.41.376,empathy_intonation_perc,2020.2.10,Win32,60,,,,,,,,,,1,andalusian,1,1,1.49299,0,16,16,25,1,26,./stim/wavs/andalusian_match_interrogative-total-yn_Daniel-iba-a-Bolivia.wav,./stim/wavs/argentine_match_interrogative-total-yn_Daniel-iba-a-Bolivia.wav,./stim/wavs/castilian_match_interrogative-total-yn_Daniel-iba-a-Bolivia.wav,./stim/wavs/chilean_match_interrogative-total-yn_Daniel-iba-a-Bolivia.wav,./stim/wavs/cuban_match_interrogative-total-yn_Daniel-iba-a-Bolivia.wav,./stim/wavs/mexican_match_interrogative-total-yn_Daniel-iba-a-Bolivia.wav,./stim/wavs/peruvian_match_interrogative-total-yn_Daniel-iba-a-Bolivia.wav,./stim/wavs/puertorican_match_interrogative-total-yn_Daniel-iba-a-Bolivia.wav,,,,,,,,,,,,,,,,,,,,,,,,,,,,,,,,,,,,,,,,,,,,,,,,,,,,,,,,
,,,,,,,5febbf353cc53cce4cec36e3,605b45a4d25f287719a41696,605bc2a98fcb0fd42c222b36,Costa Rica,Midwest,13 or older,no,2021-03-24_17h55.41.376,empathy_intonation_perc,2020.2.10,Win32,60,,,,,,,,,,1,andalusian,1,1,1.576575,0,17,17,23,1,24,./stim/wavs/andalusian_match_interrogative-partial-wh_Por-que-iba-a-Bolivia.wav,./stim/wavs/argentine_match_interrogative-partial-wh_Por-que-iba-a-Bolivia.wav,./stim/wavs/castilian_match_interrogative-partial-wh_Por-que-iba-a-Bolivia.wav,./stim/wavs/chilean_match_interrogative-partial-wh_Por-que-iba-a-Bolivia.wav,./stim/wavs/cuban_match_interrogative-partial-wh_Por-que-iba-a-Bolivia.wav,./stim/wavs/mexican_match_interrogative-partial-wh_Por-que-iba-a-Bolivia.wav,./stim/wavs/peruvian_match_interrogative-partial-wh_Por-que-iba-a-Bolivia.wav,./stim/wavs/puertorican_match_interrogative-partial-wh_Por-que-iba-a-Bolivia.wav,,,,,,,,,,,,,,,,,,,,,,,,,,,,,,,,,,,,,,,,,,,,,,,,,,,,,,,,
,,,,,,,5febbf353cc53cce4cec36e3,605b45a4d25f287719a41696,605bc2a98fcb0fd42c222b36,Costa Rica,Midwest,13 or older,no,2021-03-24_17h55.41.376,empathy_intonation_perc,2020.2.10,Win32,60,,,,,,,,,,1,chilean,1,1,1.78738,0,18,18,58,1,59,./stim/wavs/andalusian_mismatch_interrogative-total-yn_El-nino-oye-el-rio.wav,./stim/wavs/argentine_mismatch_interrogative-total-yn_El-nino-oye-el-rio.wav,./stim/wavs/castilian_mismatch_interrogative-total-yn_El-nino-oye-el-rio.wav,./stim/wavs/chilean_mismatch_interrogative-total-yn_El-nino-oye-el-rio.wav,./stim/wavs/cuban_mismatch_interrogative-total-yn_El-nino-oye-el-rio.wav,./stim/wavs/mexican_mismatch_interrogative-total-yn_El-nino-oye-el-rio.wav,./stim/wavs/peruvian_mismatch_interrogative-total-yn_El-nino-oye-el-rio.wav,./stim/wavs/puertorican_mismatch_interrogative-total-yn_El-nino-oye-el-rio.wav,,,,,,,,,,,,,,,,,,,,,,,,,,,,,,,,,,,,,,,,,,,,,,,,,,,,,,,,
,,,,,,,5febbf353cc53cce4cec36e3,605b45a4d25f287719a41696,605bc2a98fcb0fd42c222b36,Costa Rica,Midwest,13 or older,no,2021-03-24_17h55.41.376,empathy_intonation_perc,2020.2.10,Win32,60,,,,,,,,,,1,peruvian,1,1,1.65423,0,19,19,16,1,17,./stim/wavs/andalusian_match_interrogative-partial-wh_Cuando-bebia-el-vino.wav,./stim/wavs/argentine_match_interrogative-partial-wh_Cuando-bebia-el-vino.wav,./stim/wavs/castilian_match_interrogative-partial-wh_Cuando-bebia-el-vino.wav,./stim/wavs/chilean_match_interrogative-partial-wh_Cuando-bebia-el-vino.wav,./stim/wavs/cuban_match_interrogative-partial-wh_Cuando-bebia-el-vino.wav,./stim/wavs/mexican_match_interrogative-partial-wh_Cuando-bebia-el-vino.wav,./stim/wavs/peruvian_match_interrogative-partial-wh_Cuando-bebia-el-vino.wav,./stim/wavs/puertorican_match_interrogative-partial-wh_Cuando-bebia-el-vino.wav,,,,,,,,,,,,,,,,,,,,,,,,,,,,,,,,,,,,,,,,,,,,,,,,,,,,,,,,
,,,,,,,5febbf353cc53cce4cec36e3,605b45a4d25f287719a41696,605bc2a98fcb0fd42c222b36,Costa Rica,Midwest,13 or older,no,2021-03-24_17h55.41.376,empathy_intonation_perc,2020.2.10,Win32,60,,,,,,,,,,0,cuban,0,1,1.73187,0,20,20,47,1,48,./stim/wavs/andalusian_mismatch_declarative-narrow-focus_Mi-tia-odia-la-lluvia.wav,./stim/wavs/argentine_mismatch_declarative-narrow-focus_Mi-tia-odia-la-lluvia.wav,./stim/wavs/castilian_mismatch_declarative-narrow-focus_Mi-tia-odia-la-lluvia.wav,./stim/wavs/chilean_mismatch_declarative-narrow-focus_Mi-tia-odia-la-lluvia.wav,./stim/wavs/cuban_mismatch_declarative-narrow-focus_Mi-tia-odia-la-lluvia.wav,./stim/wavs/mexican_mismatch_declarative-narrow-focus_Mi-tia-odia-la-lluvia.wav,./stim/wavs/peruvian_mismatch_declarative-narrow-focus_Mi-tia-odia-la-lluvia.wav,./stim/wavs/puertorican_mismatch_declarative-narrow-focus_Mi-tia-odia-la-lluvia.wav,,,,,,,,,,,,,,,,,,,,,,,,,,,,,,,,,,,,,,,,,,,,,,,,,,,,,,,,
,,,,,,,5febbf353cc53cce4cec36e3,605b45a4d25f287719a41696,605bc2a98fcb0fd42c222b36,Costa Rica,Midwest,13 or older,no,2021-03-24_17h55.41.376,empathy_intonation_perc,2020.2.10,Win32,60,,,,,,,,,,1,peruvian,1,1,1.675915,0,21,21,55,1,56,./stim/wavs/andalusian_mismatch_interrogative-partial-wh_Por-que-vivia-en-Paris.wav,./stim/wavs/argentine_mismatch_interrogative-partial-wh_Por-que-vivia-en-Paris.wav,./stim/wavs/castilian_mismatch_interrogative-partial-wh_Por-que-vivia-en-Paris.wav,./stim/wavs/chilean_mismatch_interrogative-partial-wh_Por-que-vivia-en-Paris.wav,./stim/wavs/cuban_mismatch_interrogative-partial-wh_Por-que-vivia-en-Paris.wav,./stim/wavs/mexican_mismatch_interrogative-partial-wh_Por-que-vivia-en-Paris.wav,./stim/wavs/peruvian_mismatch_interrogative-partial-wh_Por-que-vivia-en-Paris.wav,./stim/wavs/puertorican_mismatch_interrogative-partial-wh_Por-que-vivia-en-Paris.wav,,,,,,,,,,,,,,,,,,,,,,,,,,,,,,,,,,,,,,,,,,,,,,,,,,,,,,,,
,,,,,,,5febbf353cc53cce4cec36e3,605b45a4d25f287719a41696,605bc2a98fcb0fd42c222b36,Costa Rica,Midwest,13 or older,no,2021-03-24_17h55.41.376,empathy_intonation_perc,2020.2.10,Win32,60,,,,,,,,,,0,cuban,0,1,1.88705,0,22,22,35,1,36,./stim/wavs/andalusian_mismatch_declarative-broad-focus_La-maestra-vive-en-Paris.wav,./stim/wavs/argentine_mismatch_declarative-broad-focus_La-maestra-vive-en-Paris.wav,./stim/wavs/castilian_mismatch_declarative-broad-focus_La-maestra-vive-en-Paris.wav,./stim/wavs/chilean_mismatch_declarative-broad-focus_La-maestra-vive-en-Paris.wav,./stim/wavs/cuban_mismatch_declarative-broad-focus_La-maestra-vive-en-Paris.wav,./stim/wavs/mexican_mismatch_declarative-broad-focus_La-maestra-vive-en-Paris.wav,./stim/wavs/peruvian_mismatch_declarative-broad-focus_La-maestra-vive-en-Paris.wav,./stim/wavs/puertorican_mismatch_declarative-broad-focus_La-maestra-vive-en-Paris.wav,,,,,,,,,,,,,,,,,,,,,,,,,,,,,,,,,,,,,,,,,,,,,,,,,,,,,,,,
,,,,,,,5febbf353cc53cce4cec36e3,605b45a4d25f287719a41696,605bc2a98fcb0fd42c222b36,Costa Rica,Midwest,13 or older,no,2021-03-24_17h55.41.376,empathy_intonation_perc,2020.2.10,Win32,60,,,,,,,,,,1,argentine,1,1,2.6207,0,23,23,49,1,50,./stim/wavs/andalusian_mismatch_interrogative-partial-wh_Cuando-lavaba-el-plato.wav,./stim/wavs/argentine_mismatch_interrogative-partial-wh_Cuando-lavaba-el-plato.wav,./stim/wavs/castilian_mismatch_interrogative-partial-wh_Cuando-lavaba-el-plato.wav,./stim/wavs/chilean_mismatch_interrogative-partial-wh_Cuando-lavaba-el-plato.wav,./stim/wavs/cuban_mismatch_interrogative-partial-wh_Cuando-lavaba-el-plato.wav,./stim/wavs/mexican_mismatch_interrogative-partial-wh_Cuando-lavaba-el-plato.wav,./stim/wavs/peruvian_mismatch_interrogative-partial-wh_Cuando-lavaba-el-plato.wav,./stim/wavs/puertorican_mismatch_interrogative-partial-wh_Cuando-lavaba-el-plato.wav,,,,,,,,,,,,,,,,,,,,,,,,,,,,,,,,,,,,,,,,,,,,,,,,,,,,,,,,
,,,,,,,5febbf353cc53cce4cec36e3,605b45a4d25f287719a41696,605bc2a98fcb0fd42c222b36,Costa Rica,Midwest,13 or older,no,2021-03-24_17h55.41.376,empathy_intonation_perc,2020.2.10,Win32,60,,,,,,,,,,1,mexican,1,1,1.407215,0,24,24,48,1,49,./stim/wavs/andalusian_mismatch_interrogative-partial-wh_Cuando-comia-la-fruta.wav,./stim/wavs/argentine_mismatch_interrogative-partial-wh_Cuando-comia-la-fruta.wav,./stim/wavs/castilian_mismatch_interrogative-partial-wh_Cuando-comia-la-fruta.wav,./stim/wavs/chilean_mismatch_interrogative-partial-wh_Cuando-comia-la-fruta.wav,./stim/wavs/cuban_mismatch_interrogative-partial-wh_Cuando-comia-la-fruta.wav,./stim/wavs/mexican_mismatch_interrogative-partial-wh_Cuando-comia-la-fruta.wav,./stim/wavs/peruvian_mismatch_interrogative-partial-wh_Cuando-comia-la-fruta.wav,./stim/wavs/puertorican_mismatch_interrogative-partial-wh_Cuando-comia-la-fruta.wav,,,,,,,,,,,,,,,,,,,,,,,,,,,,,,,,,,,,,,,,,,,,,,,,,,,,,,,,
,,,,,,,5febbf353cc53cce4cec36e3,605b45a4d25f287719a41696,605bc2a98fcb0fd42c222b36,Costa Rica,Midwest,13 or older,no,2021-03-24_17h55.41.376,empathy_intonation_perc,2020.2.10,Win32,60,,,,,,,,,,1,mexican,1,1,1.64147,0,25,25,22,1,23,./stim/wavs/andalusian_match_interrogative-partial-wh_Por-que-hablaba-del-agua.wav,./stim/wavs/argentine_match_interrogative-partial-wh_Por-que-hablaba-del-agua.wav,./stim/wavs/castilian_match_interrogative-partial-wh_Por-que-hablaba-del-agua.wav,./stim/wavs/chilean_match_interrogative-partial-wh_Por-que-hablaba-del-agua.wav,./stim/wavs/cuban_match_interrogative-partial-wh_Por-que-hablaba-del-agua.wav,./stim/wavs/mexican_match_interrogative-partial-wh_Por-que-hablaba-del-agua.wav,./stim/wavs/peruvian_match_interrogative-partial-wh_Por-que-hablaba-del-agua.wav,./stim/wavs/puertorican_match_interrogative-partial-wh_Por-que-hablaba-del-agua.wav,,,,,,,,,,,,,,,,,,,,,,,,,,,,,,,,,,,,,,,,,,,,,,,,,,,,,,,,
,,,,,,,5febbf353cc53cce4cec36e3,605b45a4d25f287719a41696,605bc2a98fcb0fd42c222b36,Costa Rica,Midwest,13 or older,no,2021-03-24_17h55.41.376,empathy_intonation_perc,2020.2.10,Win32,60,,,,,,,,,,0,puertorican,0,1,1.66928,0,26,26,13,1,14,./stim/wavs/andalusian_match_declarative-narrow-focus_Maria-bebe-el-vino.wav,./stim/wavs/argentine_match_declarative-narrow-focus_Maria-bebe-el-vino.wav,./stim/wavs/castilian_match_declarative-narrow-focus_Maria-bebe-el-vino.wav,./stim/wavs/chilean_match_declarative-narrow-focus_Maria-bebe-el-vino.wav,./stim/wavs/cuban_match_declarative-narrow-focus_Maria-bebe-el-vino.wav,./stim/wavs/mexican_match_declarative-narrow-focus_Maria-bebe-el-vino.wav,./stim/wavs/peruvian_match_declarative-narrow-focus_Maria-bebe-el-vino.wav,./stim/wavs/puertorican_match_declarative-narrow-focus_Maria-bebe-el-vino.wav,,,,,,,,,,,,,,,,,,,,,,,,,,,,,,,,,,,,,,,,,,,,,,,,,,,,,,,,
,,,,,,,5febbf353cc53cce4cec36e3,605b45a4d25f287719a41696,605bc2a98fcb0fd42c222b36,Costa Rica,Midwest,13 or older,no,2021-03-24_17h55.41.376,empathy_intonation_perc,2020.2.10,Win32,60,,,,,,,,,,0,chilean,1,0,1.5826,0,27,27,43,1,44,./stim/wavs/andalusian_mismatch_declarative-narrow-focus_La-maestra-vive-en-Paris.wav,./stim/wavs/argentine_mismatch_declarative-narrow-focus_La-maestra-vive-en-Paris.wav,./stim/wavs/castilian_mismatch_declarative-narrow-focus_La-maestra-vive-en-Paris.wav,./stim/wavs/chilean_mismatch_declarative-narrow-focus_La-maestra-vive-en-Paris.wav,./stim/wavs/cuban_mismatch_declarative-narrow-focus_La-maestra-vive-en-Paris.wav,./stim/wavs/mexican_mismatch_declarative-narrow-focus_La-maestra-vive-en-Paris.wav,./stim/wavs/peruvian_mismatch_declarative-narrow-focus_La-maestra-vive-en-Paris.wav,./stim/wavs/puertorican_mismatch_declarative-narrow-focus_La-maestra-vive-en-Paris.wav,,,,,,,,,,,,,,,,,,,,,,,,,,,,,,,,,,,,,,,,,,,,,,,,,,,,,,,,
,,,,,,,5febbf353cc53cce4cec36e3,605b45a4d25f287719a41696,605bc2a98fcb0fd42c222b36,Costa Rica,Midwest,13 or older,no,2021-03-24_17h55.41.376,empathy_intonation_perc,2020.2.10,Win32,60,,,,,,,,,,1,andalusian,1,1,2.118825,0,28,28,28,1,29,./stim/wavs/andalusian_match_interrogative-total-yn_Manuela-vende-el-carro.wav,./stim/wavs/argentine_match_interrogative-total-yn_Manuela-vende-el-carro.wav,./stim/wavs/castilian_match_interrogative-total-yn_Manuela-vende-el-carro.wav,./stim/wavs/chilean_match_interrogative-total-yn_Manuela-vende-el-carro.wav,./stim/wavs/cuban_match_interrogative-total-yn_Manuela-vende-el-carro.wav,./stim/wavs/mexican_match_interrogative-total-yn_Manuela-vende-el-carro.wav,./stim/wavs/peruvian_match_interrogative-total-yn_Manuela-vende-el-carro.wav,./stim/wavs/puertorican_match_interrogative-total-yn_Manuela-vende-el-carro.wav,,,,,,,,,,,,,,,,,,,,,,,,,,,,,,,,,,,,,,,,,,,,,,,,,,,,,,,,
,,,,,,,5febbf353cc53cce4cec36e3,605b45a4d25f287719a41696,605bc2a98fcb0fd42c222b36,Costa Rica,Midwest,13 or older,no,2021-03-24_17h55.41.376,empathy_intonation_perc,2020.2.10,Win32,60,,,,,,,,,,0,chilean,0,1,1.75057,0,29,29,46,1,47,./stim/wavs/andalusian_mismatch_declarative-narrow-focus_Mi-novio-viene-del-lago.wav,./stim/wavs/argentine_mismatch_declarative-narrow-focus_Mi-novio-viene-del-lago.wav,./stim/wavs/castilian_mismatch_declarative-narrow-focus_Mi-novio-viene-del-lago.wav,./stim/wavs/chilean_mismatch_declarative-narrow-focus_Mi-novio-viene-del-lago.wav,./stim/wavs/cuban_mismatch_declarative-narrow-focus_Mi-novio-viene-del-lago.wav,./stim/wavs/mexican_mismatch_declarative-narrow-focus_Mi-novio-viene-del-lago.wav,./stim/wavs/peruvian_mismatch_declarative-narrow-focus_Mi-novio-viene-del-lago.wav,./stim/wavs/puertorican_mismatch_declarative-narrow-focus_Mi-novio-viene-del-lago.wav,,,,,,,,,,,,,,,,,,,,,,,,,,,,,,,,,,,,,,,,,,,,,,,,,,,,,,,,
,,,,,,,5febbf353cc53cce4cec36e3,605b45a4d25f287719a41696,605bc2a98fcb0fd42c222b36,Costa Rica,Midwest,13 or older,no,2021-03-24_17h55.41.376,empathy_intonation_perc,2020.2.10,Win32,60,,,,,,,,,,0,castilian,0,1,1.9368,0,30,30,36,1,37,./stim/wavs/andalusian_mismatch_declarative-broad-focus_La-nina-lava-el-plato.wav,./stim/wavs/argentine_mismatch_declarative-broad-focus_La-nina-lava-el-plato.wav,./stim/wavs/castilian_mismatch_declarative-broad-focus_La-nina-lava-el-plato.wav,./stim/wavs/chilean_mismatch_declarative-broad-focus_La-nina-lava-el-plato.wav,./stim/wavs/cuban_mismatch_declarative-broad-focus_La-nina-lava-el-plato.wav,./stim/wavs/mexican_mismatch_declarative-broad-focus_La-nina-lava-el-plato.wav,./stim/wavs/peruvian_mismatch_declarative-broad-focus_La-nina-lava-el-plato.wav,./stim/wavs/puertorican_mismatch_declarative-broad-focus_La-nina-lava-el-plato.wav,,,,,,,,,,,,,,,,,,,,,,,,,,,,,,,,,,,,,,,,,,,,,,,,,,,,,,,,
,,,,,,,5febbf353cc53cce4cec36e3,605b45a4d25f287719a41696,605bc2a98fcb0fd42c222b36,Costa Rica,Midwest,13 or older,no,2021-03-24_17h55.41.376,empathy_intonation_perc,2020.2.10,Win32,60,,,,,,,,,,0,cuban,0,1,1.98603,0,31,31,38,1,39,./stim/wavs/andalusian_mismatch_declarative-broad-focus_Mi-novio-viene-del-lago.wav,./stim/wavs/argentine_mismatch_declarative-broad-focus_Mi-novio-viene-del-lago.wav,./stim/wavs/castilian_mismatch_declarative-broad-focus_Mi-novio-viene-del-lago.wav,./stim/wavs/chilean_mismatch_declarative-broad-focus_Mi-novio-viene-del-lago.wav,./stim/wavs/cuban_mismatch_declarative-broad-focus_Mi-novio-viene-del-lago.wav,./stim/wavs/mexican_mismatch_declarative-broad-focus_Mi-novio-viene-del-lago.wav,./stim/wavs/peruvian_mismatch_declarative-broad-focus_Mi-novio-viene-del-lago.wav,./stim/wavs/puertorican_mismatch_declarative-broad-focus_Mi-novio-viene-del-lago.wav,,,,,,,,,,,,,,,,,,,,,,,,,,,,,,,,,,,,,,,,,,,,,,,,,,,,,,,,
,,,,,,,5febbf353cc53cce4cec36e3,605b45a4d25f287719a41696,605bc2a98fcb0fd42c222b36,Costa Rica,Midwest,13 or older,no,2021-03-24_17h55.41.376,empathy_intonation_perc,2020.2.10,Win32,60,,,,,,,,,,0,andalusian,0,1,1.69913,0,32,32,2,1,3,./stim/wavs/andalusian_match_declarative-broad-focus_David-leia-el-libro.wav,./stim/wavs/argentine_match_declarative-broad-focus_David-leia-el-libro.wav,./stim/wavs/castilian_match_declarative-broad-focus_David-leia-el-libro.wav,./stim/wavs/chilean_match_declarative-broad-focus_David-leia-el-libro.wav,./stim/wavs/cuban_match_declarative-broad-focus_David-leia-el-libro.wav,./stim/wavs/mexican_match_declarative-broad-focus_David-leia-el-libro.wav,./stim/wavs/peruvian_match_declarative-broad-focus_David-leia-el-libro.wav,./stim/wavs/puertorican_match_declarative-broad-focus_David-leia-el-libro.wav,,,,,,,,,,,,,,,,,,,,,,,,,,,,,,,,,,,,,,,,,,,,,,,,,,,,,,,,
,,,,,,,5febbf353cc53cce4cec36e3,605b45a4d25f287719a41696,605bc2a98fcb0fd42c222b36,Costa Rica,Midwest,13 or older,no,2021-03-24_17h55.41.376,empathy_intonation_perc,2020.2.10,Win32,60,,,,,,,,,,0,cuban,0,1,1.995155,0,33,33,6,1,7,./stim/wavs/andalusian_match_declarative-broad-focus_Mariano-habla-del-tiempo.wav,./stim/wavs/argentine_match_declarative-broad-focus_Mariano-habla-del-tiempo.wav,./stim/wavs/castilian_match_declarative-broad-focus_Mariano-habla-del-tiempo.wav,./stim/wavs/chilean_match_declarative-broad-focus_Mariano-habla-del-tiempo.wav,./stim/wavs/cuban_match_declarative-broad-focus_Mariano-habla-del-tiempo.wav,./stim/wavs/mexican_match_declarative-broad-focus_Mariano-habla-del-tiempo.wav,./stim/wavs/peruvian_match_declarative-broad-focus_Mariano-habla-del-tiempo.wav,./stim/wavs/puertorican_match_declarative-broad-focus_Mariano-habla-del-tiempo.wav,,,,,,,,,,,,,,,,,,,,,,,,,,,,,,,,,,,,,,,,,,,,,,,,,,,,,,,,
,,,,,,,5febbf353cc53cce4cec36e3,605b45a4d25f287719a41696,605bc2a98fcb0fd42c222b36,Costa Rica,Midwest,13 or older,no,2021-03-24_17h55.41.376,empathy_intonation_perc,2020.2.10,Win32,60,,,,,,,,,,0,mexican,0,1,1.630125,0,34,34,9,1,10,./stim/wavs/andalusian_match_declarative-narrow-focus_Daniel-iba-a-Bolivia.wav,./stim/wavs/argentine_match_declarative-narrow-focus_Daniel-iba-a-Bolivia.wav,./stim/wavs/castilian_match_declarative-narrow-focus_Daniel-iba-a-Bolivia.wav,./stim/wavs/chilean_match_declarative-narrow-focus_Daniel-iba-a-Bolivia.wav,./stim/wavs/cuban_match_declarative-narrow-focus_Daniel-iba-a-Bolivia.wav,./stim/wavs/mexican_match_declarative-narrow-focus_Daniel-iba-a-Bolivia.wav,./stim/wavs/peruvian_match_declarative-narrow-focus_Daniel-iba-a-Bolivia.wav,./stim/wavs/puertorican_match_declarative-narrow-focus_Daniel-iba-a-Bolivia.wav,,,,,,,,,,,,,,,,,,,,,,,,,,,,,,,,,,,,,,,,,,,,,,,,,,,,,,,,
,,,,,,,5febbf353cc53cce4cec36e3,605b45a4d25f287719a41696,605bc2a98fcb0fd42c222b36,Costa Rica,Midwest,13 or older,no,2021-03-24_17h55.41.376,empathy_intonation_perc,2020.2.10,Win32,60,,,,,,,,,,1,chilean,1,1,1.51876,0,35,35,54,1,55,./stim/wavs/andalusian_mismatch_interrogative-partial-wh_Por-que-venia-del-lago.wav,./stim/wavs/argentine_mismatch_interrogative-partial-wh_Por-que-venia-del-lago.wav,./stim/wavs/castilian_mismatch_interrogative-partial-wh_Por-que-venia-del-lago.wav,./stim/wavs/chilean_mismatch_interrogative-partial-wh_Por-que-venia-del-lago.wav,./stim/wavs/cuban_mismatch_interrogative-partial-wh_Por-que-venia-del-lago.wav,./stim/wavs/mexican_mismatch_interrogative-partial-wh_Por-que-venia-del-lago.wav,./stim/wavs/peruvian_mismatch_interrogative-partial-wh_Por-que-venia-del-lago.wav,./stim/wavs/puertorican_mismatch_interrogative-partial-wh_Por-que-venia-del-lago.wav,,,,,,,,,,,,,,,,,,,,,,,,,,,,,,,,,,,,,,,,,,,,,,,,,,,,,,,,
,,,,,,,5febbf353cc53cce4cec36e3,605b45a4d25f287719a41696,605bc2a98fcb0fd42c222b36,Costa Rica,Midwest,13 or older,no,2021-03-24_17h55.41.376,empathy_intonation_perc,2020.2.10,Win32,60,,,,,,,,,,0,castilian,0,1,1.72388,0,36,36,33,1,34,./stim/wavs/andalusian_mismatch_declarative-broad-focus_El-hombre-mira-la-luna.wav,./stim/wavs/argentine_mismatch_declarative-broad-focus_El-hombre-mira-la-luna.wav,./stim/wavs/castilian_mismatch_declarative-broad-focus_El-hombre-mira-la-luna.wav,./stim/wavs/chilean_mismatch_declarative-broad-focus_El-hombre-mira-la-luna.wav,./stim/wavs/cuban_mismatch_declarative-broad-focus_El-hombre-mira-la-luna.wav,./stim/wavs/mexican_mismatch_declarative-broad-focus_El-hombre-mira-la-luna.wav,./stim/wavs/peruvian_mismatch_declarative-broad-focus_El-hombre-mira-la-luna.wav,./stim/wavs/puertorican_mismatch_declarative-broad-focus_El-hombre-mira-la-luna.wav,,,,,,,,,,,,,,,,,,,,,,,,,,,,,,,,,,,,,,,,,,,,,,,,,,,,,,,,
,,,,,,,5febbf353cc53cce4cec36e3,605b45a4d25f287719a41696,605bc2a98fcb0fd42c222b36,Costa Rica,Midwest,13 or older,no,2021-03-24_17h55.41.376,empathy_intonation_perc,2020.2.10,Win32,60,,,,,,,,,,1,mexican,0,0,1.506435,0,37,37,61,1,62,./stim/wavs/andalusian_mismatch_interrogative-total-yn_Mi-madre-come-la-fruta.wav,./stim/wavs/argentine_mismatch_interrogative-total-yn_Mi-madre-come-la-fruta.wav,./stim/wavs/castilian_mismatch_interrogative-total-yn_Mi-madre-come-la-fruta.wav,./stim/wavs/chilean_mismatch_interrogative-total-yn_Mi-madre-come-la-fruta.wav,./stim/wavs/cuban_mismatch_interrogative-total-yn_Mi-madre-come-la-fruta.wav,./stim/wavs/mexican_mismatch_interrogative-total-yn_Mi-madre-come-la-fruta.wav,./stim/wavs/peruvian_mismatch_interrogative-total-yn_Mi-madre-come-la-fruta.wav,./stim/wavs/puertorican_mismatch_interrogative-total-yn_Mi-madre-come-la-fruta.wav,,,,,,,,,,,,,,,,,,,,,,,,,,,,,,,,,,,,,,,,,,,,,,,,,,,,,,,,
,,,,,,,5febbf353cc53cce4cec36e3,605b45a4d25f287719a41696,605bc2a98fcb0fd42c222b36,Costa Rica,Midwest,13 or older,no,2021-03-24_17h55.41.376,empathy_intonation_perc,2020.2.10,Win32,60,,,,,,,,,,1,puertorican,0,0,1.63574,0,38,38,60,1,61,./stim/wavs/andalusian_mismatch_interrogative-total-yn_La-nina-lava-el-plato.wav,./stim/wavs/argentine_mismatch_interrogative-total-yn_La-nina-lava-el-plato.wav,./stim/wavs/castilian_mismatch_interrogative-total-yn_La-nina-lava-el-plato.wav,./stim/wavs/chilean_mismatch_interrogative-total-yn_La-nina-lava-el-plato.wav,./stim/wavs/cuban_mismatch_interrogative-total-yn_La-nina-lava-el-plato.wav,./stim/wavs/mexican_mismatch_interrogative-total-yn_La-nina-lava-el-plato.wav,./stim/wavs/peruvian_mismatch_interrogative-total-yn_La-nina-lava-el-plato.wav,./stim/wavs/puertorican_mismatch_interrogative-total-yn_La-nina-lava-el-plato.wav,,,,,,,,,,,,,,,,,,,,,,,,,,,,,,,,,,,,,,,,,,,,,,,,,,,,,,,,
,,,,,,,5febbf353cc53cce4cec36e3,605b45a4d25f287719a41696,605bc2a98fcb0fd42c222b36,Costa Rica,Midwest,13 or older,no,2021-03-24_17h55.41.376,empathy_intonation_perc,2020.2.10,Win32,60,,,,,,,,,,0,argentine,0,1,1.99777,0,39,39,12,1,13,./stim/wavs/andalusian_match_declarative-narrow-focus_Manuela-vende-el-carro.wav,./stim/wavs/argentine_match_declarative-narrow-focus_Manuela-vende-el-carro.wav,./stim/wavs/castilian_match_declarative-narrow-focus_Manuela-vende-el-carro.wav,./stim/wavs/chilean_match_declarative-narrow-focus_Manuela-vende-el-carro.wav,./stim/wavs/cuban_match_declarative-narrow-focus_Manuela-vende-el-carro.wav,./stim/wavs/mexican_match_declarative-narrow-focus_Manuela-vende-el-carro.wav,./stim/wavs/peruvian_match_declarative-narrow-focus_Manuela-vende-el-carro.wav,./stim/wavs/puertorican_match_declarative-narrow-focus_Manuela-vende-el-carro.wav,,,,,,,,,,,,,,,,,,,,,,,,,,,,,,,,,,,,,,,,,,,,,,,,,,,,,,,,
,,,,,,,5febbf353cc53cce4cec36e3,605b45a4d25f287719a41696,605bc2a98fcb0fd42c222b36,Costa Rica,Midwest,13 or older,no,2021-03-24_17h55.41.376,empathy_intonation_perc,2020.2.10,Win32,60,,,,,,,,,,0,peruvian,0,1,1.989,0,40,40,11,1,12,./stim/wavs/andalusian_match_declarative-narrow-focus_Emilio-ama-la-marcha.wav,./stim/wavs/argentine_match_declarative-narrow-focus_Emilio-ama-la-marcha.wav,./stim/wavs/castilian_match_declarative-narrow-focus_Emilio-ama-la-marcha.wav,./stim/wavs/chilean_match_declarative-narrow-focus_Emilio-ama-la-marcha.wav,./stim/wavs/cuban_match_declarative-narrow-focus_Emilio-ama-la-marcha.wav,./stim/wavs/mexican_match_declarative-narrow-focus_Emilio-ama-la-marcha.wav,./stim/wavs/peruvian_match_declarative-narrow-focus_Emilio-ama-la-marcha.wav,./stim/wavs/puertorican_match_declarative-narrow-focus_Emilio-ama-la-marcha.wav,,,,,,,,,,,,,,,,,,,,,,,,,,,,,,,,,,,,,,,,,,,,,,,,,,,,,,,,
,,,,,,,5febbf353cc53cce4cec36e3,605b45a4d25f287719a41696,605bc2a98fcb0fd42c222b36,Costa Rica,Midwest,13 or older,no,2021-03-24_17h55.41.376,empathy_intonation_perc,2020.2.10,Win32,60,,,,,,,,,,1,cuban,0,0,1.690015,0,41,41,29,1,30,./stim/wavs/andalusian_match_interrogative-total-yn_Maria-bebe-el-vino.wav,./stim/wavs/argentine_match_interrogative-total-yn_Maria-bebe-el-vino.wav,./stim/wavs/castilian_match_interrogative-total-yn_Maria-bebe-el-vino.wav,./stim/wavs/chilean_match_interrogative-total-yn_Maria-bebe-el-vino.wav,./stim/wavs/cuban_match_interrogative-total-yn_Maria-bebe-el-vino.wav,./stim/wavs/mexican_match_interrogative-total-yn_Maria-bebe-el-vino.wav,./stim/wavs/peruvian_match_interrogative-total-yn_Maria-bebe-el-vino.wav,./stim/wavs/puertorican_match_interrogative-total-yn_Maria-bebe-el-vino.wav,,,,,,,,,,,,,,,,,,,,,,,,,,,,,,,,,,,,,,,,,,,,,,,,,,,,,,,,
,,,,,,,5febbf353cc53cce4cec36e3,605b45a4d25f287719a41696,605bc2a98fcb0fd42c222b36,Costa Rica,Midwest,13 or older,no,2021-03-24_17h55.41.376,empathy_intonation_perc,2020.2.10,Win32,60,,,,,,,,,,0,mexican,0,1,1.673,0,42,42,44,1,45,./stim/wavs/andalusian_mismatch_declarative-narrow-focus_La-nina-lava-el-plato.wav,./stim/wavs/argentine_mismatch_declarative-narrow-focus_La-nina-lava-el-plato.wav,./stim/wavs/castilian_mismatch_declarative-narrow-focus_La-nina-lava-el-plato.wav,./stim/wavs/chilean_mismatch_declarative-narrow-focus_La-nina-lava-el-plato.wav,./stim/wavs/cuban_mismatch_declarative-narrow-focus_La-nina-lava-el-plato.wav,./stim/wavs/mexican_mismatch_declarative-narrow-focus_La-nina-lava-el-plato.wav,./stim/wavs/peruvian_mismatch_declarative-narrow-focus_La-nina-lava-el-plato.wav,./stim/wavs/puertorican_mismatch_declarative-narrow-focus_La-nina-lava-el-plato.wav,,,,,,,,,,,,,,,,,,,,,,,,,,,,,,,,,,,,,,,,,,,,,,,,,,,,,,,,
,,,,,,,5febbf353cc53cce4cec36e3,605b45a4d25f287719a41696,605bc2a98fcb0fd42c222b36,Costa Rica,Midwest,13 or older,no,2021-03-24_17h55.41.376,empathy_intonation_perc,2020.2.10,Win32,60,,,,,,,,,,1,mexican,1,1,1.61936,0,43,43,63,1,64,./stim/wavs/andalusian_mismatch_interrogative-total-yn_Mi-tia-odia-la-lluvia.wav,./stim/wavs/argentine_mismatch_interrogative-total-yn_Mi-tia-odia-la-lluvia.wav,./stim/wavs/castilian_mismatch_interrogative-total-yn_Mi-tia-odia-la-lluvia.wav,./stim/wavs/chilean_mismatch_interrogative-total-yn_Mi-tia-odia-la-lluvia.wav,./stim/wavs/cuban_mismatch_interrogative-total-yn_Mi-tia-odia-la-lluvia.wav,./stim/wavs/mexican_mismatch_interrogative-total-yn_Mi-tia-odia-la-lluvia.wav,./stim/wavs/peruvian_mismatch_interrogative-total-yn_Mi-tia-odia-la-lluvia.wav,./stim/wavs/puertorican_mismatch_interrogative-total-yn_Mi-tia-odia-la-lluvia.wav,,,,,,,,,,,,,,,,,,,,,,,,,,,,,,,,,,,,,,,,,,,,,,,,,,,,,,,,
,,,,,,,5febbf353cc53cce4cec36e3,605b45a4d25f287719a41696,605bc2a98fcb0fd42c222b36,Costa Rica,Midwest,13 or older,no,2021-03-24_17h55.41.376,empathy_intonation_perc,2020.2.10,Win32,60,,,,,,,,,,0,castilian,0,1,2.64581,0,44,44,37,1,38,./stim/wavs/andalusian_mismatch_declarative-broad-focus_Mi-madre-come-la-fruta.wav,./stim/wavs/argentine_mismatch_declarative-broad-focus_Mi-madre-come-la-fruta.wav,./stim/wavs/castilian_mismatch_declarative-broad-focus_Mi-madre-come-la-fruta.wav,./stim/wavs/chilean_mismatch_declarative-broad-focus_Mi-madre-come-la-fruta.wav,./stim/wavs/cuban_mismatch_declarative-broad-focus_Mi-madre-come-la-fruta.wav,./stim/wavs/mexican_mismatch_declarative-broad-focus_Mi-madre-come-la-fruta.wav,./stim/wavs/peruvian_mismatch_declarative-broad-focus_Mi-madre-come-la-fruta.wav,./stim/wavs/puertorican_mismatch_declarative-broad-focus_Mi-madre-come-la-fruta.wav,,,,,,,,,,,,,,,,,,,,,,,,,,,,,,,,,,,,,,,,,,,,,,,,,,,,,,,,
,,,,,,,5febbf353cc53cce4cec36e3,605b45a4d25f287719a41696,605bc2a98fcb0fd42c222b36,Costa Rica,Midwest,13 or older,no,2021-03-24_17h55.41.376,empathy_intonation_perc,2020.2.10,Win32,60,,,,,,,,,,1,argentine,0,0,1.755005,0,45,45,19,1,20,./stim/wavs/andalusian_match_interrogative-partial-wh_Cuando-vendia-el-carro.wav,./stim/wavs/argentine_match_interrogative-partial-wh_Cuando-vendia-el-carro.wav,./stim/wavs/castilian_match_interrogative-partial-wh_Cuando-vendia-el-carro.wav,./stim/wavs/chilean_match_interrogative-partial-wh_Cuando-vendia-el-carro.wav,./stim/wavs/cuban_match_interrogative-partial-wh_Cuando-vendia-el-carro.wav,./stim/wavs/mexican_match_interrogative-partial-wh_Cuando-vendia-el-carro.wav,./stim/wavs/peruvian_match_interrogative-partial-wh_Cuando-vendia-el-carro.wav,./stim/wavs/puertorican_match_interrogative-partial-wh_Cuando-vendia-el-carro.wav,,,,,,,,,,,,,,,,,,,,,,,,,,,,,,,,,,,,,,,,,,,,,,,,,,,,,,,,
,,,,,,,5febbf353cc53cce4cec36e3,605b45a4d25f287719a41696,605bc2a98fcb0fd42c222b36,Costa Rica,Midwest,13 or older,no,2021-03-24_17h55.41.376,empathy_intonation_perc,2020.2.10,Win32,60,,,,,,,,,,0,puertorican,0,1,1.71683,0,46,46,42,1,43,./stim/wavs/andalusian_mismatch_declarative-narrow-focus_El-nino-oye-el-rio.wav,./stim/wavs/argentine_mismatch_declarative-narrow-focus_El-nino-oye-el-rio.wav,./stim/wavs/castilian_mismatch_declarative-narrow-focus_El-nino-oye-el-rio.wav,./stim/wavs/chilean_mismatch_declarative-narrow-focus_El-nino-oye-el-rio.wav,./stim/wavs/cuban_mismatch_declarative-narrow-focus_El-nino-oye-el-rio.wav,./stim/wavs/mexican_mismatch_declarative-narrow-focus_El-nino-oye-el-rio.wav,./stim/wavs/peruvian_mismatch_declarative-narrow-focus_El-nino-oye-el-rio.wav,./stim/wavs/puertorican_mismatch_declarative-narrow-focus_El-nino-oye-el-rio.wav,,,,,,,,,,,,,,,,,,,,,,,,,,,,,,,,,,,,,,,,,,,,,,,,,,,,,,,,
,,,,,,,5febbf353cc53cce4cec36e3,605b45a4d25f287719a41696,605bc2a98fcb0fd42c222b36,Costa Rica,Midwest,13 or older,no,2021-03-24_17h55.41.376,empathy_intonation_perc,2020.2.10,Win32,60,,,,,,,,,,0,chilean,0,1,2.19088,0,47,47,15,1,16,./stim/wavs/andalusian_match_declarative-narrow-focus_Marta-abre-el-regalo.wav,./stim/wavs/argentine_match_declarative-narrow-focus_Marta-abre-el-regalo.wav,./stim/wavs/castilian_match_declarative-narrow-focus_Marta-abre-el-regalo.wav,./stim/wavs/chilean_match_declarative-narrow-focus_Marta-abre-el-regalo.wav,./stim/wavs/cuban_match_declarative-narrow-focus_Marta-abre-el-regalo.wav,./stim/wavs/mexican_match_declarative-narrow-focus_Marta-abre-el-regalo.wav,./stim/wavs/peruvian_match_declarative-narrow-focus_Marta-abre-el-regalo.wav,./stim/wavs/puertorican_match_declarative-narrow-focus_Marta-abre-el-regalo.wav,,,,,,,,,,,,,,,,,,,,,,,,,,,,,,,,,,,,,,,,,,,,,,,,,,,,,,,,
,,,,,,,5febbf353cc53cce4cec36e3,605b45a4d25f287719a41696,605bc2a98fcb0fd42c222b36,Costa Rica,Midwest,13 or older,no,2021-03-24_17h55.41.376,empathy_intonation_perc,2020.2.10,Win32,60,,,,,,,,,,1,chilean,1,1,1.85329,0,48,48,27,1,28,./stim/wavs/andalusian_match_interrogative-total-yn_Emilio-ama-la-marcha.wav,./stim/wavs/argentine_match_interrogative-total-yn_Emilio-ama-la-marcha.wav,./stim/wavs/castilian_match_interrogative-total-yn_Emilio-ama-la-marcha.wav,./stim/wavs/chilean_match_interrogative-total-yn_Emilio-ama-la-marcha.wav,./stim/wavs/cuban_match_interrogative-total-yn_Emilio-ama-la-marcha.wav,./stim/wavs/mexican_match_interrogative-total-yn_Emilio-ama-la-marcha.wav,./stim/wavs/peruvian_match_interrogative-total-yn_Emilio-ama-la-marcha.wav,./stim/wavs/puertorican_match_interrogative-total-yn_Emilio-ama-la-marcha.wav,,,,,,,,,,,,,,,,,,,,,,,,,,,,,,,,,,,,,,,,,,,,,,,,,,,,,,,,
,,,,,,,5febbf353cc53cce4cec36e3,605b45a4d25f287719a41696,605bc2a98fcb0fd42c222b36,Costa Rica,Midwest,13 or older,no,2021-03-24_17h55.41.376,empathy_intonation_perc,2020.2.10,Win32,60,,,,,,,,,,0,argentine,0,1,1.36753,0,49,49,8,1,9,./stim/wavs/andalusian_match_declarative-narrow-focus_Ana-lleva-el-abrigo.wav,./stim/wavs/argentine_match_declarative-narrow-focus_Ana-lleva-el-abrigo.wav,./stim/wavs/castilian_match_declarative-narrow-focus_Ana-lleva-el-abrigo.wav,./stim/wavs/chilean_match_declarative-narrow-focus_Ana-lleva-el-abrigo.wav,./stim/wavs/cuban_match_declarative-narrow-focus_Ana-lleva-el-abrigo.wav,./stim/wavs/mexican_match_declarative-narrow-focus_Ana-lleva-el-abrigo.wav,./stim/wavs/peruvian_match_declarative-narrow-focus_Ana-lleva-el-abrigo.wav,./stim/wavs/puertorican_match_declarative-narrow-focus_Ana-lleva-el-abrigo.wav,,,,,,,,,,,,,,,,,,,,,,,,,,,,,,,,,,,,,,,,,,,,,,,,,,,,,,,,
,,,,,,,5febbf353cc53cce4cec36e3,605b45a4d25f287719a41696,605bc2a98fcb0fd42c222b36,Costa Rica,Midwest,13 or older,no,2021-03-24_17h55.41.376,empathy_intonation_perc,2020.2.10,Win32,60,,,,,,,,,,0,mexican,0,1,2.08549,0,50,50,40,1,41,./stim/wavs/andalusian_mismatch_declarative-narrow-focus_El-bebe-comia-muy-bien.wav,./stim/wavs/argentine_mismatch_declarative-narrow-focus_El-bebe-comia-muy-bien.wav,./stim/wavs/castilian_mismatch_declarative-narrow-focus_El-bebe-comia-muy-bien.wav,./stim/wavs/chilean_mismatch_declarative-narrow-focus_El-bebe-comia-muy-bien.wav,./stim/wavs/cuban_mismatch_declarative-narrow-focus_El-bebe-comia-muy-bien.wav,./stim/wavs/mexican_mismatch_declarative-narrow-focus_El-bebe-comia-muy-bien.wav,./stim/wavs/peruvian_mismatch_declarative-narrow-focus_El-bebe-comia-muy-bien.wav,./stim/wavs/puertorican_mismatch_declarative-narrow-focus_El-bebe-comia-muy-bien.wav,,,,,,,,,,,,,,,,,,,,,,,,,,,,,,,,,,,,,,,,,,,,,,,,,,,,,,,,
,,,,,,,5febbf353cc53cce4cec36e3,605b45a4d25f287719a41696,605bc2a98fcb0fd42c222b36,Costa Rica,Midwest,13 or older,no,2021-03-24_17h55.41.376,empathy_intonation_perc,2020.2.10,Win32,60,,,,,,,,,,1,mexican,0,0,1.719445,0,51,51,21,1,22,./stim/wavs/andalusian_match_interrogative-partial-wh_Por-que-ama-la-navidad.wav,./stim/wavs/argentine_match_interrogative-partial-wh_Por-que-ama-la-navidad.wav,./stim/wavs/castilian_match_interrogative-partial-wh_Por-que-ama-la-navidad.wav,./stim/wavs/chilean_match_interrogative-partial-wh_Por-que-ama-la-navidad.wav,./stim/wavs/cuban_match_interrogative-partial-wh_Por-que-ama-la-navidad.wav,./stim/wavs/mexican_match_interrogative-partial-wh_Por-que-ama-la-navidad.wav,./stim/wavs/peruvian_match_interrogative-partial-wh_Por-que-ama-la-navidad.wav,./stim/wavs/puertorican_match_interrogative-partial-wh_Por-que-ama-la-navidad.wav,,,,,,,,,,,,,,,,,,,,,,,,,,,,,,,,,,,,,,,,,,,,,,,,,,,,,,,,
,,,,,,,5febbf353cc53cce4cec36e3,605b45a4d25f287719a41696,605bc2a98fcb0fd42c222b36,Costa Rica,Midwest,13 or older,no,2021-03-24_17h55.41.376,empathy_intonation_perc,2020.2.10,Win32,60,,,,,,,,,,1,peruvian,1,1,3.60248,0,52,52,50,1,51,./stim/wavs/andalusian_mismatch_interrogative-partial-wh_Cuando-miraba-la-luna.wav,./stim/wavs/argentine_mismatch_interrogative-partial-wh_Cuando-miraba-la-luna.wav,./stim/wavs/castilian_mismatch_interrogative-partial-wh_Cuando-miraba-la-luna.wav,./stim/wavs/chilean_mismatch_interrogative-partial-wh_Cuando-miraba-la-luna.wav,./stim/wavs/cuban_mismatch_interrogative-partial-wh_Cuando-miraba-la-luna.wav,./stim/wavs/mexican_mismatch_interrogative-partial-wh_Cuando-miraba-la-luna.wav,./stim/wavs/peruvian_mismatch_interrogative-partial-wh_Cuando-miraba-la-luna.wav,./stim/wavs/puertorican_mismatch_interrogative-partial-wh_Cuando-miraba-la-luna.wav,,,,,,,,,,,,,,,,,,,,,,,,,,,,,,,,,,,,,,,,,,,,,,,,,,,,,,,,
,,,,,,,5febbf353cc53cce4cec36e3,605b45a4d25f287719a41696,605bc2a98fcb0fd42c222b36,Costa Rica,Midwest,13 or older,no,2021-03-24_17h55.41.376,empathy_intonation_perc,2020.2.10,Win32,60,,,,,,,,,,1,chilean,1,1,2.18961,0,53,53,62,1,63,./stim/wavs/andalusian_mismatch_interrogative-total-yn_Mi-novio-viene-del-lago.wav,./stim/wavs/argentine_mismatch_interrogative-total-yn_Mi-novio-viene-del-lago.wav,./stim/wavs/castilian_mismatch_interrogative-total-yn_Mi-novio-viene-del-lago.wav,./stim/wavs/chilean_mismatch_interrogative-total-yn_Mi-novio-viene-del-lago.wav,./stim/wavs/cuban_mismatch_interrogative-total-yn_Mi-novio-viene-del-lago.wav,./stim/wavs/mexican_mismatch_interrogative-total-yn_Mi-novio-viene-del-lago.wav,./stim/wavs/peruvian_mismatch_interrogative-total-yn_Mi-novio-viene-del-lago.wav,./stim/wavs/puertorican_mismatch_interrogative-total-yn_Mi-novio-viene-del-lago.wav,,,,,,,,,,,,,,,,,,,,,,,,,,,,,,,,,,,,,,,,,,,,,,,,,,,,,,,,
,,,,,,,5febbf353cc53cce4cec36e3,605b45a4d25f287719a41696,605bc2a98fcb0fd42c222b36,Costa Rica,Midwest,13 or older,no,2021-03-24_17h55.41.376,empathy_intonation_perc,2020.2.10,Win32,60,,,,,,,,,,1,peruvian,0,0,1.86325,0,54,54,17,1,18,./stim/wavs/andalusian_match_interrogative-partial-wh_Cuando-leia-el-libro.wav,./stim/wavs/argentine_match_interrogative-partial-wh_Cuando-leia-el-libro.wav,./stim/wavs/castilian_match_interrogative-partial-wh_Cuando-leia-el-libro.wav,./stim/wavs/chilean_match_interrogative-partial-wh_Cuando-leia-el-libro.wav,./stim/wavs/cuban_match_interrogative-partial-wh_Cuando-leia-el-libro.wav,./stim/wavs/mexican_match_interrogative-partial-wh_Cuando-leia-el-libro.wav,./stim/wavs/peruvian_match_interrogative-partial-wh_Cuando-leia-el-libro.wav,./stim/wavs/puertorican_match_interrogative-partial-wh_Cuando-leia-el-libro.wav,,,,,,,,,,,,,,,,,,,,,,,,,,,,,,,,,,,,,,,,,,,,,,,,,,,,,,,,
,,,,,,,5febbf353cc53cce4cec36e3,605b45a4d25f287719a41696,605bc2a98fcb0fd42c222b36,Costa Rica,Midwest,13 or older,no,2021-03-24_17h55.41.376,empathy_intonation_perc,2020.2.10,Win32,60,,,,,,,,,,1,chilean,1,1,1.570225,0,55,55,51,1,52,./stim/wavs/andalusian_mismatch_interrogative-partial-wh_Por-que-desayuna-muy-bien.wav,./stim/wavs/argentine_mismatch_interrogative-partial-wh_Por-que-desayuna-muy-bien.wav,./stim/wavs/castilian_mismatch_interrogative-partial-wh_Por-que-desayuna-muy-bien.wav,./stim/wavs/chilean_mismatch_interrogative-partial-wh_Por-que-desayuna-muy-bien.wav,./stim/wavs/cuban_mismatch_interrogative-partial-wh_Por-que-desayuna-muy-bien.wav,./stim/wavs/mexican_mismatch_interrogative-partial-wh_Por-que-desayuna-muy-bien.wav,./stim/wavs/peruvian_mismatch_interrogative-partial-wh_Por-que-desayuna-muy-bien.wav,./stim/wavs/puertorican_mismatch_interrogative-partial-wh_Por-que-desayuna-muy-bien.wav,,,,,,,,,,,,,,,,,,,,,,,,,,,,,,,,,,,,,,,,,,,,,,,,,,,,,,,,
,,,,,,,5febbf353cc53cce4cec36e3,605b45a4d25f287719a41696,605bc2a98fcb0fd42c222b36,Costa Rica,Midwest,13 or older,no,2021-03-24_17h55.41.376,empathy_intonation_perc,2020.2.10,Win32,60,,,,,,,,,,1,cuban,0,0,2.68712,0,56,56,30,1,31,./stim/wavs/andalusian_match_interrogative-total-yn_Mariano-habla-del-tiempo.wav,./stim/wavs/argentine_match_interrogative-total-yn_Mariano-habla-del-tiempo.wav,./stim/wavs/castilian_match_interrogative-total-yn_Mariano-habla-del-tiempo.wav,./stim/wavs/chilean_match_interrogative-total-yn_Mariano-habla-del-tiempo.wav,./stim/wavs/cuban_match_interrogative-total-yn_Mariano-habla-del-tiempo.wav,./stim/wavs/mexican_match_interrogative-total-yn_Mariano-habla-del-tiempo.wav,./stim/wavs/peruvian_match_interrogative-total-yn_Mariano-habla-del-tiempo.wav,./stim/wavs/puertorican_match_interrogative-total-yn_Mariano-habla-del-tiempo.wav,,,,,,,,,,,,,,,,,,,,,,,,,,,,,,,,,,,,,,,,,,,,,,,,,,,,,,,,
,,,,,,,5febbf353cc53cce4cec36e3,605b45a4d25f287719a41696,605bc2a98fcb0fd42c222b36,Costa Rica,Midwest,13 or older,no,2021-03-24_17h55.41.376,empathy_intonation_perc,2020.2.10,Win32,60,,,,,,,,,,1,puertorican,0,0,1.622325,0,57,57,20,1,21,./stim/wavs/andalusian_match_interrogative-partial-wh_Por-que-abre-el-regalo.wav,./stim/wavs/argentine_match_interrogative-partial-wh_Por-que-abre-el-regalo.wav,./stim/wavs/castilian_match_interrogative-partial-wh_Por-que-abre-el-regalo.wav,./stim/wavs/chilean_match_interrogative-partial-wh_Por-que-abre-el-regalo.wav,./stim/wavs/cuban_match_interrogative-partial-wh_Por-que-abre-el-regalo.wav,./stim/wavs/mexican_match_interrogative-partial-wh_Por-que-abre-el-regalo.wav,./stim/wavs/peruvian_match_interrogative-partial-wh_Por-que-abre-el-regalo.wav,./stim/wavs/puertorican_match_interrogative-partial-wh_Por-que-abre-el-regalo.wav,,,,,,,,,,,,,,,,,,,,,,,,,,,,,,,,,,,,,,,,,,,,,,,,,,,,,,,,
,,,,,,,5febbf353cc53cce4cec36e3,605b45a4d25f287719a41696,605bc2a98fcb0fd42c222b36,Costa Rica,Midwest,13 or older,no,2021-03-24_17h55.41.376,empathy_intonation_perc,2020.2.10,Win32,60,,,,,,,,,,1,peruvian,1,1,1.702505,0,58,58,53,1,54,./stim/wavs/andalusian_mismatch_interrogative-partial-wh_Por-que-oia-el-rio.wav,./stim/wavs/argentine_mismatch_interrogative-partial-wh_Por-que-oia-el-rio.wav,./stim/wavs/castilian_mismatch_interrogative-partial-wh_Por-que-oia-el-rio.wav,./stim/wavs/chilean_mismatch_interrogative-partial-wh_Por-que-oia-el-rio.wav,./stim/wavs/cuban_mismatch_interrogative-partial-wh_Por-que-oia-el-rio.wav,./stim/wavs/mexican_mismatch_interrogative-partial-wh_Por-que-oia-el-rio.wav,./stim/wavs/peruvian_mismatch_interrogative-partial-wh_Por-que-oia-el-rio.wav,./stim/wavs/puertorican_mismatch_interrogative-partial-wh_Por-que-oia-el-rio.wav,,,,,,,,,,,,,,,,,,,,,,,,,,,,,,,,,,,,,,,,,,,,,,,,,,,,,,,,
,,,,,,,5febbf353cc53cce4cec36e3,605b45a4d25f287719a41696,605bc2a98fcb0fd42c222b36,Costa Rica,Midwest,13 or older,no,2021-03-24_17h55.41.376,empathy_intonation_perc,2020.2.10,Win32,60,,,,,,,,,,0,mexican,0,1,1.90347,0,59,59,10,1,11,./stim/wavs/andalusian_match_declarative-narrow-focus_David-leia-el-libro.wav,./stim/wavs/argentine_match_declarative-narrow-focus_David-leia-el-libro.wav,./stim/wavs/castilian_match_declarative-narrow-focus_David-leia-el-libro.wav,./stim/wavs/chilean_match_declarative-narrow-focus_David-leia-el-libro.wav,./stim/wavs/cuban_match_declarative-narrow-focus_David-leia-el-libro.wav,./stim/wavs/mexican_match_declarative-narrow-focus_David-leia-el-libro.wav,./stim/wavs/peruvian_match_declarative-narrow-focus_David-leia-el-libro.wav,./stim/wavs/puertorican_match_declarative-narrow-focus_David-leia-el-libro.wav,,,,,,,,,,,,,,,,,,,,,,,,,,,,,,,,,,,,,,,,,,,,,,,,,,,,,,,,
,,,,,,,5febbf353cc53cce4cec36e3,605b45a4d25f287719a41696,605bc2a98fcb0fd42c222b36,Costa Rica,Midwest,13 or older,no,2021-03-24_17h55.41.376,empathy_intonation_perc,2020.2.10,Win32,60,,,,,,,,,,0,mexican,1,0,1.5189,0,60,60,32,1,33,./stim/wavs/andalusian_mismatch_declarative-broad-focus_El-bebe-comia-muy-bien.wav,./stim/wavs/argentine_mismatch_declarative-broad-focus_El-bebe-comia-muy-bien.wav,./stim/wavs/castilian_mismatch_declarative-broad-focus_El-bebe-comia-muy-bien.wav,./stim/wavs/chilean_mismatch_declarative-broad-focus_El-bebe-comia-muy-bien.wav,./stim/wavs/cuban_mismatch_declarative-broad-focus_El-bebe-comia-muy-bien.wav,./stim/wavs/mexican_mismatch_declarative-broad-focus_El-bebe-comia-muy-bien.wav,./stim/wavs/peruvian_mismatch_declarative-broad-focus_El-bebe-comia-muy-bien.wav,./stim/wavs/puertorican_mismatch_declarative-broad-focus_El-bebe-comia-muy-bien.wav,,,,,,,,,,,,,,,,,,,,,,,,,,,,,,,,,,,,,,,,,,,,,,,,,,,,,,,,
,,,,,,,5febbf353cc53cce4cec36e3,605b45a4d25f287719a41696,605bc2a98fcb0fd42c222b36,Costa Rica,Midwest,13 or older,no,2021-03-24_17h55.41.376,empathy_intonation_perc,2020.2.10,Win32,60,,,,,,,,,,0,cuban,0,1,1.700865,0,61,61,4,1,5,./stim/wavs/andalusian_match_declarative-broad-focus_Manuela-vende-el-carro.wav,./stim/wavs/argentine_match_declarative-broad-focus_Manuela-vende-el-carro.wav,./stim/wavs/castilian_match_declarative-broad-focus_Manuela-vende-el-carro.wav,./stim/wavs/chilean_match_declarative-broad-focus_Manuela-vende-el-carro.wav,./stim/wavs/cuban_match_declarative-broad-focus_Manuela-vende-el-carro.wav,./stim/wavs/mexican_match_declarative-broad-focus_Manuela-vende-el-carro.wav,./stim/wavs/peruvian_match_declarative-broad-focus_Manuela-vende-el-carro.wav,./stim/wavs/puertorican_match_declarative-broad-focus_Manuela-vende-el-carro.wav,,,,,,,,,,,,,,,,,,,,,,,,,,,,,,,,,,,,,,,,,,,,,,,,,,,,,,,,
,,,,,,,5febbf353cc53cce4cec36e3,605b45a4d25f287719a41696,605bc2a98fcb0fd42c222b36,Costa Rica,Midwest,13 or older,no,2021-03-24_17h55.41.376,empathy_intonation_perc,2020.2.10,Win32,60,,,,,,,,,,1,mexican,1,1,1.78658,0,62,62,18,1,19,./stim/wavs/andalusian_match_interrogative-partial-wh_Cuando-lleva-el-abrigo.wav,./stim/wavs/argentine_match_interrogative-partial-wh_Cuando-lleva-el-abrigo.wav,./stim/wavs/castilian_match_interrogative-partial-wh_Cuando-lleva-el-abrigo.wav,./stim/wavs/chilean_match_interrogative-partial-wh_Cuando-lleva-el-abrigo.wav,./stim/wavs/cuban_match_interrogative-partial-wh_Cuando-lleva-el-abrigo.wav,./stim/wavs/mexican_match_interrogative-partial-wh_Cuando-lleva-el-abrigo.wav,./stim/wavs/peruvian_match_interrogative-partial-wh_Cuando-lleva-el-abrigo.wav,./stim/wavs/puertorican_match_interrogative-partial-wh_Cuando-lleva-el-abrigo.wav,,,,,,,,,,,,,,,,,,,,,,,,,,,,,,,,,,,,,,,,,,,,,,,,,,,,,,,,
,,,,,,,5febbf353cc53cce4cec36e3,605b45a4d25f287719a41696,605bc2a98fcb0fd42c222b36,Costa Rica,Midwest,13 or older,no,2021-03-24_17h55.41.376,empathy_intonation_perc,2020.2.10,Win32,60,,,,,,,,,,0,cuban,0,1,2.054985,0,63,63,1,1,2,./stim/wavs/andalusian_match_declarative-broad-focus_Daniel-iba-a-Bolivia.wav,./stim/wavs/argentine_match_declarative-broad-focus_Daniel-iba-a-Bolivia.wav,./stim/wavs/castilian_match_declarative-broad-focus_Daniel-iba-a-Bolivia.wav,./stim/wavs/chilean_match_declarative-broad-focus_Daniel-iba-a-Bolivia.wav,./stim/wavs/cuban_match_declarative-broad-focus_Daniel-iba-a-Bolivia.wav,./stim/wavs/mexican_match_declarative-broad-focus_Daniel-iba-a-Bolivia.wav,./stim/wavs/peruvian_match_declarative-broad-focus_Daniel-iba-a-Bolivia.wav,./stim/wavs/puertorican_match_declarative-broad-focus_Daniel-iba-a-Bolivia.wav,,,,,,,,,,,,,,,,,,,,,,,,,,,,,,,,,,,,,,,,,,,,,,,,,,,,,,,,
,,,,,,,5febbf353cc53cce4cec36e3,605b45a4d25f287719a41696,605bc2a98fcb0fd42c222b36,Costa Rica,Midwest,13 or older,no,2021-03-24_17h55.41.376,empathy_intonation_perc,2020.2.10,Win32,60,,,,,,,,,,,,,,,,,,,,,,,,,,,,,h,1,5.939065,0,0,0,0,1,,,,,,,,,,,,,,,,,,,,,,,,,,,,,,,,,,,,,,,,,,,,,,,,
,,,,,"Great! Now we will move on. The next task consists of about 60 trials, in each of which you will see a string of letters. 
  
  Your task is to decide whether this is a real Spanish word or not.",(press the spacebar to continue),5febbf353cc53cce4cec36e3,605b45a4d25f287719a41696,605bc2a98fcb0fd42c222b36,Costa Rica,Midwest,13 or older,no,2021-03-24_17h55.41.376,empathy_intonation_perc,2020.2.10,Win32,60,,,,,,,,,,,,,,,,,,,,,,,,,,,,,,,,,,,,,0,0,0,0,1,,,,,,,,,,,,,,,,,,,,,,,,,,,,,,,,,,,,,,,,,,,
,,,,,"If you think it is an existing Spanish word, you type '1' (for 'REAL'), and if you think it is not an existing Spanish word, you type '0' (for 'FAKE').",(press the spacebar to continue),5febbf353cc53cce4cec36e3,605b45a4d25f287719a41696,605bc2a98fcb0fd42c222b36,Costa Rica,Midwest,13 or older,no,2021-03-24_17h55.41.376,empathy_intonation_perc,2020.2.10,Win32,60,,,,,,,,,,,,,,,,,,,,,,,,,,,,,,,,,,,,,0,1,1,1,1,,,,,,,,,,,,,,,,,,,,,,,,,,,,,,,,,,,,,,,,,,,
,,,,,"If you are sure that the word exists, even though you dont know its exact meaning, you may still respond '1' (REAL). 
  
  But if you are not sure if it is an existing word, you should respond '0' (FAKE).
  
  Let's do a practice round...",(press the spacebar to continue),5febbf353cc53cce4cec36e3,605b45a4d25f287719a41696,605bc2a98fcb0fd42c222b36,Costa Rica,Midwest,13 or older,no,2021-03-24_17h55.41.376,empathy_intonation_perc,2020.2.10,Win32,60,,,,,,,,,,,,,,,,,,,,,,,,,,,,,,,,,,,,,0,2,2,2,1,,,,,,,,,,,,,,,,,,,,,,,,,,,,,,,,,,,,,,,,,,,
,,,,,,,5febbf353cc53cce4cec36e3,605b45a4d25f287719a41696,605bc2a98fcb0fd42c222b36,Costa Rica,Midwest,13 or older,no,2021-03-24_17h55.41.376,empathy_intonation_perc,2020.2.10,Win32,60,,,,,,,,,,0,,,,,,,,,,,,,,,,,,,,,,,,,,,,,,,,0,1,5.163935,0,0,0,0,1,0,depiste,REAL,FAKE,,,,,,,,,,,,,,,,,,,,,,,,,,,,,,,
,,,,,,,5febbf353cc53cce4cec36e3,605b45a4d25f287719a41696,605bc2a98fcb0fd42c222b36,Costa Rica,Midwest,13 or older,no,2021-03-24_17h55.41.376,empathy_intonation_perc,2020.2.10,Win32,60,,,,,,,,,,1,,,,,,,,,,,,,,,,,,,,,,,,,,,,,,,,1,1,0.931565,0,1,1,1,1,0,s,REAL,FAKE,,,,,,,,,,,,,,,,,,,,,,,,,,,,,,,
,,,,,,,5febbf353cc53cce4cec36e3,605b45a4d25f287719a41696,605bc2a98fcb0fd42c222b36,Costa Rica,Midwest,13 or older,no,2021-03-24_17h55.41.376,empathy_intonation_perc,2020.2.10,Win32,60,,,,,,,,,,0,,,,,,,,,,,,,,,,,,,,,,,,,,,,,,,,0,1,1.62585,0,2,2,2,1,0,con,REAL,FAKE,,,,,,,,,,,,,,,,,,,,,,,,,,,,,,,
,,,,,,,5febbf353cc53cce4cec36e3,605b45a4d25f287719a41696,605bc2a98fcb0fd42c222b36,Costa Rica,Midwest,13 or older,no,2021-03-24_17h55.41.376,empathy_intonation_perc,2020.2.10,Win32,60,,,,,,,,,,0,,,,,,,,,,,,,,,,,,,,,,,,,,,,,,,,0,1,1.41099,0,3,3,3,1,0,calpar,REAL,FAKE,,,,,,,,,,,,,,,,,,,,,,,,,,,,,,,
,,,,,,,5febbf353cc53cce4cec36e3,605b45a4d25f287719a41696,605bc2a98fcb0fd42c222b36,Costa Rica,Midwest,13 or older,no,2021-03-24_17h55.41.376,empathy_intonation_perc,2020.2.10,Win32,60,,,,,,,,,,0,,,,,,,,,,,,,,,,,,,,,,,,,,,,,,,,1,0,2.91552,0,4,4,4,1,0,joten,REAL,FAKE,,,,,,,,,,,,,,,,,,,,,,,,,,,,,,,
,,,,,,,5febbf353cc53cce4cec36e3,605b45a4d25f287719a41696,605bc2a98fcb0fd42c222b36,Costa Rica,Midwest,13 or older,no,2021-03-24_17h55.41.376,empathy_intonation_perc,2020.2.10,Win32,60,,,,,,,,,,1,,,,,,,,,,,,,,,,,,,,,,,,,,,,,,,,0,0,1.38562,0,5,5,5,1,0,sacapuntas,REAL,FAKE,,,,,,,,,,,,,,,,,,,,,,,,,,,,,,,
,,,,,,,5febbf353cc53cce4cec36e3,605b45a4d25f287719a41696,605bc2a98fcb0fd42c222b36,Costa Rica,Midwest,13 or older,no,2021-03-24_17h55.41.376,empathy_intonation_perc,2020.2.10,Win32,60,,,,,,,,,,0,,,,,,,,,,,,,,,,,,,,,,,,,,,,,,,,0,1,2.66223,0,6,6,6,1,0,priba,REAL,FAKE,,,,,,,,,,,,,,,,,,,,,,,,,,,,,,,
,,,,,,,5febbf353cc53cce4cec36e3,605b45a4d25f287719a41696,605bc2a98fcb0fd42c222b36,Costa Rica,Midwest,13 or older,no,2021-03-24_17h55.41.376,empathy_intonation_perc,2020.2.10,Win32,60,,,,,,,,,,0,,,,,,,,,,,,,,,,,,,,,,,,,,,,,,,,1,0,4.71024,0,7,7,7,1,0,pelasula,REAL,FAKE,,,,,,,,,,,,,,,,,,,,,,,,,,,,,,,
,,,,,,,5febbf353cc53cce4cec36e3,605b45a4d25f287719a41696,605bc2a98fcb0fd42c222b36,Costa Rica,Midwest,13 or older,no,2021-03-24_17h55.41.376,empathy_intonation_perc,2020.2.10,Win32,60,,,,,,,,,,1,,,,,,,,,,,,,,,,,,,,,,,,,,,,,,,,1,1,1.203005,0,8,8,8,1,0,bien,REAL,FAKE,,,,,,,,,,,,,,,,,,,,,,,,,,,,,,,
,,,,,,,5febbf353cc53cce4cec36e3,605b45a4d25f287719a41696,605bc2a98fcb0fd42c222b36,Costa Rica,Midwest,13 or older,no,2021-03-24_17h55.41.376,empathy_intonation_perc,2020.2.10,Win32,60,,,,,,,,,,1,,,,,,,,,,,,,,,,,,,,,,,,,,,,,,,,1,1,0.91522,0,9,9,9,1,0,casa,REAL,FAKE,,,,,,,,,,,,,,,,,,,,,,,,,,,,,,,
,,,,,,,5febbf353cc53cce4cec36e3,605b45a4d25f287719a41696,605bc2a98fcb0fd42c222b36,Costa Rica,Midwest,13 or older,no,2021-03-24_17h55.41.376,empathy_intonation_perc,2020.2.10,Win32,60,,,,,,,,,,0,,,,,,,,,,,,,,,,,,,,,,,,,,,,,,,,0,1,1.91073,0,10,10,10,1,0,lejo,REAL,FAKE,,,,,,,,,,,,,,,,,,,,,,,,,,,,,,,
,,,,,,,5febbf353cc53cce4cec36e3,605b45a4d25f287719a41696,605bc2a98fcb0fd42c222b36,Costa Rica,Midwest,13 or older,no,2021-03-24_17h55.41.376,empathy_intonation_perc,2020.2.10,Win32,60,,,,,,,,,,0,,,,,,,,,,,,,,,,,,,,,,,,,,,,,,,,1,0,2.555215,0,11,11,11,1,0,pretantas,REAL,FAKE,,,,,,,,,,,,,,,,,,,,,,,,,,,,,,,
,,,,,,,5febbf353cc53cce4cec36e3,605b45a4d25f287719a41696,605bc2a98fcb0fd42c222b36,Costa Rica,Midwest,13 or older,no,2021-03-24_17h55.41.376,empathy_intonation_perc,2020.2.10,Win32,60,,,,,,,,,,1,,,,,,,,,,,,,,,,,,,,,,,,,,,,,,,,,,,,,,,,77,tiburn,,,1,1,1.86909,0,0,0,76,1,REAL,FAKE,,,,,,,,,,,,,,,,,,,,,
,,,,,,,5febbf353cc53cce4cec36e3,605b45a4d25f287719a41696,605bc2a98fcb0fd42c222b36,Costa Rica,Midwest,13 or older,no,2021-03-24_17h55.41.376,empathy_intonation_perc,2020.2.10,Win32,60,,,,,,,,,,1,,,,,,,,,,,,,,,,,,,,,,,,,,,,,,,,,,,,,,,,80,hormiga,,,1,1,2.987545,0,1,1,79,1,REAL,FAKE,,,,,,,,,,,,,,,,,,,,,
,,,,,,,5febbf353cc53cce4cec36e3,605b45a4d25f287719a41696,605bc2a98fcb0fd42c222b36,Costa Rica,Midwest,13 or older,no,2021-03-24_17h55.41.376,empathy_intonation_perc,2020.2.10,Win32,60,,,,,,,,,,0,,,,,,,,,,,,,,,,,,,,,,,,,,,,,,,,,,,,,,,,21,capillo,,,1,0,2.25152,0,2,2,20,1,REAL,FAKE,,,,,,,,,,,,,,,,,,,,,
,,,,,,,5febbf353cc53cce4cec36e3,605b45a4d25f287719a41696,605bc2a98fcb0fd42c222b36,Costa Rica,Midwest,13 or older,no,2021-03-24_17h55.41.376,empathy_intonation_perc,2020.2.10,Win32,60,,,,,,,,,,0,,,,,,,,,,,,,,,,,,,,,,,,,,,,,,,,,,,,,,,,23,lampera,,,1,0,1.66762,0,3,3,22,1,REAL,FAKE,,,,,,,,,,,,,,,,,,,,,
,,,,,,,5febbf353cc53cce4cec36e3,605b45a4d25f287719a41696,605bc2a98fcb0fd42c222b36,Costa Rica,Midwest,13 or older,no,2021-03-24_17h55.41.376,empathy_intonation_perc,2020.2.10,Win32,60,,,,,,,,,,1,,,,,,,,,,,,,,,,,,,,,,,,,,,,,,,,,,,,,,,,55,nevar,,,0,0,1.835335,0,4,4,54,1,REAL,FAKE,,,,,,,,,,,,,,,,,,,,,
,,,,,,,5febbf353cc53cce4cec36e3,605b45a4d25f287719a41696,605bc2a98fcb0fd42c222b36,Costa Rica,Midwest,13 or older,no,2021-03-24_17h55.41.376,empathy_intonation_perc,2020.2.10,Win32,60,,,,,,,,,,1,,,,,,,,,,,,,,,,,,,,,,,,,,,,,,,,,,,,,,,,28,merodear,,,0,0,1.702225,0,5,5,27,1,REAL,FAKE,,,,,,,,,,,,,,,,,,,,,
,,,,,,,5febbf353cc53cce4cec36e3,605b45a4d25f287719a41696,605bc2a98fcb0fd42c222b36,Costa Rica,Midwest,13 or older,no,2021-03-24_17h55.41.376,empathy_intonation_perc,2020.2.10,Win32,60,,,,,,,,,,1,,,,,,,,,,,,,,,,,,,,,,,,,,,,,,,,,,,,,,,,5,zapato,,,1,1,1.13579,0,6,6,4,1,REAL,FAKE,,,,,,,,,,,,,,,,,,,,,
,,,,,,,5febbf353cc53cce4cec36e3,605b45a4d25f287719a41696,605bc2a98fcb0fd42c222b36,Costa Rica,Midwest,13 or older,no,2021-03-24_17h55.41.376,empathy_intonation_perc,2020.2.10,Win32,60,,,,,,,,,,1,,,,,,,,,,,,,,,,,,,,,,,,,,,,,,,,,,,,,,,,81,pozo,,,1,1,2.71988,0,7,7,80,1,REAL,FAKE,,,,,,,,,,,,,,,,,,,,,
,,,,,,,5febbf353cc53cce4cec36e3,605b45a4d25f287719a41696,605bc2a98fcb0fd42c222b36,Costa Rica,Midwest,13 or older,no,2021-03-24_17h55.41.376,empathy_intonation_perc,2020.2.10,Win32,60,,,,,,,,,,1,,,,,,,,,,,,,,,,,,,,,,,,,,,,,,,,,,,,,,,,22,lacayo,,,0,0,3.701555,0,8,8,21,1,REAL,FAKE,,,,,,,,,,,,,,,,,,,,,
,,,,,,,5febbf353cc53cce4cec36e3,605b45a4d25f287719a41696,605bc2a98fcb0fd42c222b36,Costa Rica,Midwest,13 or older,no,2021-03-24_17h55.41.376,empathy_intonation_perc,2020.2.10,Win32,60,,,,,,,,,,1,,,,,,,,,,,,,,,,,,,,,,,,,,,,,,,,,,,,,,,,12,asesinato,,,0,0,3.250835,0,9,9,11,1,REAL,FAKE,,,,,,,,,,,,,,,,,,,,,
,,,,,,,5febbf353cc53cce4cec36e3,605b45a4d25f287719a41696,605bc2a98fcb0fd42c222b36,Costa Rica,Midwest,13 or older,no,2021-03-24_17h55.41.376,empathy_intonation_perc,2020.2.10,Win32,60,,,,,,,,,,0,,,,,,,,,,,,,,,,,,,,,,,,,,,,,,,,,,,,,,,,58,plaudir,,,1,0,1.38554,0,10,10,57,1,REAL,FAKE,,,,,,,,,,,,,,,,,,,,,
,,,,,,,5febbf353cc53cce4cec36e3,605b45a4d25f287719a41696,605bc2a98fcb0fd42c222b36,Costa Rica,Midwest,13 or older,no,2021-03-24_17h55.41.376,empathy_intonation_perc,2020.2.10,Win32,60,,,,,,,,,,0,,,,,,,,,,,,,,,,,,,,,,,,,,,,,,,,,,,,,,,,10,antar,,,1,0,0.88614,0,11,11,9,1,REAL,FAKE,,,,,,,,,,,,,,,,,,,,,
,,,,,,,5febbf353cc53cce4cec36e3,605b45a4d25f287719a41696,605bc2a98fcb0fd42c222b36,Costa Rica,Midwest,13 or older,no,2021-03-24_17h55.41.376,empathy_intonation_perc,2020.2.10,Win32,60,,,,,,,,,,1,,,,,,,,,,,,,,,,,,,,,,,,,,,,,,,,,,,,,,,,76,atar,,,1,1,1.302175,0,12,12,75,1,REAL,FAKE,,,,,,,,,,,,,,,,,,,,,
,,,,,,,5febbf353cc53cce4cec36e3,605b45a4d25f287719a41696,605bc2a98fcb0fd42c222b36,Costa Rica,Midwest,13 or older,no,2021-03-24_17h55.41.376,empathy_intonation_perc,2020.2.10,Win32,60,,,,,,,,,,1,,,,,,,,,,,,,,,,,,,,,,,,,,,,,,,,,,,,,,,,51,candado,,,0,0,2.23607,0,13,13,50,1,REAL,FAKE,,,,,,,,,,,,,,,,,,,,,
,,,,,,,5febbf353cc53cce4cec36e3,605b45a4d25f287719a41696,605bc2a98fcb0fd42c222b36,Costa Rica,Midwest,13 or older,no,2021-03-24_17h55.41.376,empathy_intonation_perc,2020.2.10,Win32,60,,,,,,,,,,0,,,,,,,,,,,,,,,,,,,,,,,,,,,,,,,,,,,,,,,,1,terzo,,,0,1,1.151895,0,14,14,0,1,REAL,FAKE,,,,,,,,,,,,,,,,,,,,,
,,,,,,,5febbf353cc53cce4cec36e3,605b45a4d25f287719a41696,605bc2a98fcb0fd42c222b36,Costa Rica,Midwest,13 or older,no,2021-03-24_17h55.41.376,empathy_intonation_perc,2020.2.10,Win32,60,,,,,,,,,,0,,,,,,,,,,,,,,,,,,,,,,,,,,,,,,,,,,,,,,,,33,pauca,,,0,1,2.618325,0,15,15,32,1,REAL,FAKE,,,,,,,,,,,,,,,,,,,,,
,,,,,,,5febbf353cc53cce4cec36e3,605b45a4d25f287719a41696,605bc2a98fcb0fd42c222b36,Costa Rica,Midwest,13 or older,no,2021-03-24_17h55.41.376,empathy_intonation_perc,2020.2.10,Win32,60,,,,,,,,,,1,,,,,,,,,,,,,,,,,,,,,,,,,,,,,,,,,,,,,,,,25,bisagra,,,1,1,2.71875,0,16,16,24,1,REAL,FAKE,,,,,,,,,,,,,,,,,,,,,
,,,,,,,5febbf353cc53cce4cec36e3,605b45a4d25f287719a41696,605bc2a98fcb0fd42c222b36,Costa Rica,Midwest,13 or older,no,2021-03-24_17h55.41.376,empathy_intonation_perc,2020.2.10,Win32,60,,,,,,,,,,1,,,,,,,,,,,,,,,,,,,,,,,,,,,,,,,,,,,,,,,,78,frondoso,,,1,1,1.81908,0,17,17,77,1,REAL,FAKE,,,,,,,,,,,,,,,,,,,,,
,,,,,,,5febbf353cc53cce4cec36e3,605b45a4d25f287719a41696,605bc2a98fcb0fd42c222b36,Costa Rica,Midwest,13 or older,no,2021-03-24_17h55.41.376,empathy_intonation_perc,2020.2.10,Win32,60,,,,,,,,,,1,,,,,,,,,,,,,,,,,,,,,,,,,,,,,,,,,,,,,,,,71,polvoriento,,,1,1,5.50093,0,18,18,70,1,REAL,FAKE,,,,,,,,,,,,,,,,,,,,,
,,,,,,,5febbf353cc53cce4cec36e3,605b45a4d25f287719a41696,605bc2a98fcb0fd42c222b36,Costa Rica,Midwest,13 or older,no,2021-03-24_17h55.41.376,empathy_intonation_perc,2020.2.10,Win32,60,,,,,,,,,,1,,,,,,,,,,,,,,,,,,,,,,,,,,,,,,,,,,,,,,,,36,loro,,,1,1,1.40531,0,19,19,35,1,REAL,FAKE,,,,,,,,,,,,,,,,,,,,,
,,,,,,,5febbf353cc53cce4cec36e3,605b45a4d25f287719a41696,605bc2a98fcb0fd42c222b36,Costa Rica,Midwest,13 or older,no,2021-03-24_17h55.41.376,empathy_intonation_perc,2020.2.10,Win32,60,,,,,,,,,,1,,,,,,,,,,,,,,,,,,,,,,,,,,,,,,,,,,,,,,,,64,orgulloso,,,0,0,1.241945,0,20,20,63,1,REAL,FAKE,,,,,,,,,,,,,,,,,,,,,
,,,,,,,5febbf353cc53cce4cec36e3,605b45a4d25f287719a41696,605bc2a98fcb0fd42c222b36,Costa Rica,Midwest,13 or older,no,2021-03-24_17h55.41.376,empathy_intonation_perc,2020.2.10,Win32,60,,,,,,,,,,1,,,,,,,,,,,,,,,,,,,,,,,,,,,,,,,,,,,,,,,,39,torpe,,,0,0,4.416545,0,21,21,38,1,REAL,FAKE,,,,,,,,,,,,,,,,,,,,,
,,,,,,,5febbf353cc53cce4cec36e3,605b45a4d25f287719a41696,605bc2a98fcb0fd42c222b36,Costa Rica,Midwest,13 or older,no,2021-03-24_17h55.41.376,empathy_intonation_perc,2020.2.10,Win32,60,,,,,,,,,,1,,,,,,,,,,,,,,,,,,,,,,,,,,,,,,,,,,,,,,,,62,flaco,,,1,1,1.066985,0,22,22,61,1,REAL,FAKE,,,,,,,,,,,,,,,,,,,,,
,,,,,,,5febbf353cc53cce4cec36e3,605b45a4d25f287719a41696,605bc2a98fcb0fd42c222b36,Costa Rica,Midwest,13 or older,no,2021-03-24_17h55.41.376,empathy_intonation_perc,2020.2.10,Win32,60,,,,,,,,,,1,,,,,,,,,,,,,,,,,,,,,,,,,,,,,,,,,,,,,,,,49,ganar,,,1,1,0.878685,0,23,23,48,1,REAL,FAKE,,,,,,,,,,,,,,,,,,,,,
,,,,,,,5febbf353cc53cce4cec36e3,605b45a4d25f287719a41696,605bc2a98fcb0fd42c222b36,Costa Rica,Midwest,13 or older,no,2021-03-24_17h55.41.376,empathy_intonation_perc,2020.2.10,Win32,60,,,,,,,,,,1,,,,,,,,,,,,,,,,,,,,,,,,,,,,,,,,,,,,,,,,89,prisa,,,1,1,2.202615,0,24,24,88,1,REAL,FAKE,,,,,,,,,,,,,,,,,,,,,
,,,,,,,5febbf353cc53cce4cec36e3,605b45a4d25f287719a41696,605bc2a98fcb0fd42c222b36,Costa Rica,Midwest,13 or older,no,2021-03-24_17h55.41.376,empathy_intonation_perc,2020.2.10,Win32,60,,,,,,,,,,1,,,,,,,,,,,,,,,,,,,,,,,,,,,,,,,,,,,,,,,,43,canela,,,1,1,1.38953,0,25,25,42,1,REAL,FAKE,,,,,,,,,,,,,,,,,,,,,
,,,,,,,5febbf353cc53cce4cec36e3,605b45a4d25f287719a41696,605bc2a98fcb0fd42c222b36,Costa Rica,Midwest,13 or older,no,2021-03-24_17h55.41.376,empathy_intonation_perc,2020.2.10,Win32,60,,,,,,,,,,1,,,,,,,,,,,,,,,,,,,,,,,,,,,,,,,,,,,,,,,,90,clavel,,,0,0,1.705,0,26,26,89,1,REAL,FAKE,,,,,,,,,,,,,,,,,,,,,
,,,,,,,5febbf353cc53cce4cec36e3,605b45a4d25f287719a41696,605bc2a98fcb0fd42c222b36,Costa Rica,Midwest,13 or older,no,2021-03-24_17h55.41.376,empathy_intonation_perc,2020.2.10,Win32,60,,,,,,,,,,1,,,,,,,,,,,,,,,,,,,,,,,,,,,,,,,,,,,,,,,,65,bizcocho,,,0,0,1.74814,0,27,27,64,1,REAL,FAKE,,,,,,,,,,,,,,,,,,,,,
,,,,,,,5febbf353cc53cce4cec36e3,605b45a4d25f287719a41696,605bc2a98fcb0fd42c222b36,Costa Rica,Midwest,13 or older,no,2021-03-24_17h55.41.376,empathy_intonation_perc,2020.2.10,Win32,60,,,,,,,,,,0,,,,,,,,,,,,,,,,,,,,,,,,,,,,,,,,,,,,,,,,42,cadallo,,,1,0,2.52773,0,28,28,41,1,REAL,FAKE,,,,,,,,,,,,,,,,,,,,,
,,,,,,,5febbf353cc53cce4cec36e3,605b45a4d25f287719a41696,605bc2a98fcb0fd42c222b36,Costa Rica,Midwest,13 or older,no,2021-03-24_17h55.41.376,empathy_intonation_perc,2020.2.10,Win32,60,,,,,,,,,,1,,,,,,,,,,,,,,,,,,,,,,,,,,,,,,,,,,,,,,,,40,alfombra,,,1,1,2.12228,0,29,29,39,1,REAL,FAKE,,,,,,,,,,,,,,,,,,,,,
,,,,,,,5febbf353cc53cce4cec36e3,605b45a4d25f287719a41696,605bc2a98fcb0fd42c222b36,Costa Rica,Midwest,13 or older,no,2021-03-24_17h55.41.376,empathy_intonation_perc,2020.2.10,Win32,60,,,,,,,,,,1,,,,,,,,,,,,,,,,,,,,,,,,,,,,,,,,,,,,,,,,67,cabello,,,1,1,1.812915,0,30,30,66,1,REAL,FAKE,,,,,,,,,,,,,,,,,,,,,
,,,,,,,5febbf353cc53cce4cec36e3,605b45a4d25f287719a41696,605bc2a98fcb0fd42c222b36,Costa Rica,Midwest,13 or older,no,2021-03-24_17h55.41.376,empathy_intonation_perc,2020.2.10,Win32,60,,,,,,,,,,1,,,,,,,,,,,,,,,,,,,,,,,,,,,,,,,,,,,,,,,,20,vido,,,1,1,1.01574,0,31,31,19,1,REAL,FAKE,,,,,,,,,,,,,,,,,,,,,
,,,,,,,5febbf353cc53cce4cec36e3,605b45a4d25f287719a41696,605bc2a98fcb0fd42c222b36,Costa Rica,Midwest,13 or older,no,2021-03-24_17h55.41.376,empathy_intonation_perc,2020.2.10,Win32,60,,,,,,,,,,0,,,,,,,,,,,,,,,,,,,,,,,,,,,,,,,,,,,,,,,,18,arsa,,,1,0,1.653005,0,32,32,17,1,REAL,FAKE,,,,,,,,,,,,,,,,,,,,,
,,,,,,,5febbf353cc53cce4cec36e3,605b45a4d25f287719a41696,605bc2a98fcb0fd42c222b36,Costa Rica,Midwest,13 or older,no,2021-03-24_17h55.41.376,empathy_intonation_perc,2020.2.10,Win32,60,,,,,,,,,,0,,,,,,,,,,,,,,,,,,,,,,,,,,,,,,,,,,,,,,,,32,fatacidad,,,0,1,1.452645,0,33,33,31,1,REAL,FAKE,,,,,,,,,,,,,,,,,,,,,
,,,,,,,5febbf353cc53cce4cec36e3,605b45a4d25f287719a41696,605bc2a98fcb0fd42c222b36,Costa Rica,Midwest,13 or older,no,2021-03-24_17h55.41.376,empathy_intonation_perc,2020.2.10,Win32,60,,,,,,,,,,1,,,,,,,,,,,,,,,,,,,,,,,,,,,,,,,,,,,,,,,,57,tacao,,,1,1,0.92233,0,34,34,56,1,REAL,FAKE,,,,,,,,,,,,,,,,,,,,,
,,,,,,,5febbf353cc53cce4cec36e3,605b45a4d25f287719a41696,605bc2a98fcb0fd42c222b36,Costa Rica,Midwest,13 or older,no,2021-03-24_17h55.41.376,empathy_intonation_perc,2020.2.10,Win32,60,,,,,,,,,,0,,,,,,,,,,,,,,,,,,,,,,,,,,,,,,,,,,,,,,,,72,pemicin,,,1,0,1.686915,0,35,35,71,1,REAL,FAKE,,,,,,,,,,,,,,,,,,,,,
,,,,,,,5febbf353cc53cce4cec36e3,605b45a4d25f287719a41696,605bc2a98fcb0fd42c222b36,Costa Rica,Midwest,13 or older,no,2021-03-24_17h55.41.376,empathy_intonation_perc,2020.2.10,Win32,60,,,,,,,,,,0,,,,,,,,,,,,,,,,,,,,,,,,,,,,,,,,,,,,,,,,29,decar,,,1,0,1.34496,0,36,36,28,1,REAL,FAKE,,,,,,,,,,,,,,,,,,,,,
,,,,,,,5febbf353cc53cce4cec36e3,605b45a4d25f287719a41696,605bc2a98fcb0fd42c222b36,Costa Rica,Midwest,13 or older,no,2021-03-24_17h55.41.376,empathy_intonation_perc,2020.2.10,Win32,60,,,,,,,,,,1,,,,,,,,,,,,,,,,,,,,,,,,,,,,,,,,,,,,,,,,75,yacer,,,0,0,2.84552,0,37,37,74,1,REAL,FAKE,,,,,,,,,,,,,,,,,,,,,
,,,,,,,5febbf353cc53cce4cec36e3,605b45a4d25f287719a41696,605bc2a98fcb0fd42c222b36,Costa Rica,Midwest,13 or older,no,2021-03-24_17h55.41.376,empathy_intonation_perc,2020.2.10,Win32,60,,,,,,,,,,1,,,,,,,,,,,,,,,,,,,,,,,,,,,,,,,,,,,,,,,,24,ltigo,,,1,1,3.10755,0,38,38,23,1,REAL,FAKE,,,,,,,,,,,,,,,,,,,,,
,,,,,,,5febbf353cc53cce4cec36e3,605b45a4d25f287719a41696,605bc2a98fcb0fd42c222b36,Costa Rica,Midwest,13 or older,no,2021-03-24_17h55.41.376,empathy_intonation_perc,2020.2.10,Win32,60,,,,,,,,,,1,,,,,,,,,,,,,,,,,,,,,,,,,,,,,,,,,,,,,,,,86,barato,,,1,1,1.119985,0,39,39,85,1,REAL,FAKE,,,,,,,,,,,,,,,,,,,,,
,,,,,,,5febbf353cc53cce4cec36e3,605b45a4d25f287719a41696,605bc2a98fcb0fd42c222b36,Costa Rica,Midwest,13 or older,no,2021-03-24_17h55.41.376,empathy_intonation_perc,2020.2.10,Win32,60,,,,,,,,,,1,,,,,,,,,,,,,,,,,,,,,,,,,,,,,,,,,,,,,,,,9,hacha,,,0,0,1.414215,0,40,40,8,1,REAL,FAKE,,,,,,,,,,,,,,,,,,,,,
,,,,,,,5febbf353cc53cce4cec36e3,605b45a4d25f287719a41696,605bc2a98fcb0fd42c222b36,Costa Rica,Midwest,13 or older,no,2021-03-24_17h55.41.376,empathy_intonation_perc,2020.2.10,Win32,60,,,,,,,,,,0,,,,,,,,,,,,,,,,,,,,,,,,,,,,,,,,,,,,,,,,50,flamida,,,1,0,0.983915,0,41,41,49,1,REAL,FAKE,,,,,,,,,,,,,,,,,,,,,
,,,,,,,5febbf353cc53cce4cec36e3,605b45a4d25f287719a41696,605bc2a98fcb0fd42c222b36,Costa Rica,Midwest,13 or older,no,2021-03-24_17h55.41.376,empathy_intonation_perc,2020.2.10,Win32,60,,,,,,,,,,0,,,,,,,,,,,,,,,,,,,,,,,,,,,,,,,,,,,,,,,,17,floroso,,,1,0,1.516895,0,42,42,16,1,REAL,FAKE,,,,,,,,,,,,,,,,,,,,,
,,,,,,,5febbf353cc53cce4cec36e3,605b45a4d25f287719a41696,605bc2a98fcb0fd42c222b36,Costa Rica,Midwest,13 or older,no,2021-03-24_17h55.41.376,empathy_intonation_perc,2020.2.10,Win32,60,,,,,,,,,,1,,,,,,,,,,,,,,,,,,,,,,,,,,,,,,,,,,,,,,,,56,musgo,,,0,0,1.215385,0,43,43,55,1,REAL,FAKE,,,,,,,,,,,,,,,,,,,,,
,,,,,,,5febbf353cc53cce4cec36e3,605b45a4d25f287719a41696,605bc2a98fcb0fd42c222b36,Costa Rica,Midwest,13 or older,no,2021-03-24_17h55.41.376,empathy_intonation_perc,2020.2.10,Win32,60,,,,,,,,,,1,,,,,,,,,,,,,,,,,,,,,,,,,,,,,,,,,,,,,,,,46,martillo,,,0,0,3.084485,0,44,44,45,1,REAL,FAKE,,,,,,,,,,,,,,,,,,,,,
,,,,,,,5febbf353cc53cce4cec36e3,605b45a4d25f287719a41696,605bc2a98fcb0fd42c222b36,Costa Rica,Midwest,13 or older,no,2021-03-24_17h55.41.376,empathy_intonation_perc,2020.2.10,Win32,60,,,,,,,,,,1,,,,,,,,,,,,,,,,,,,,,,,,,,,,,,,,,,,,,,,,73,hervidor,,,1,1,2.620295,0,45,45,72,1,REAL,FAKE,,,,,,,,,,,,,,,,,,,,,
,,,,,,,5febbf353cc53cce4cec36e3,605b45a4d25f287719a41696,605bc2a98fcb0fd42c222b36,Costa Rica,Midwest,13 or older,no,2021-03-24_17h55.41.376,empathy_intonation_perc,2020.2.10,Win32,60,,,,,,,,,,1,,,,,,,,,,,,,,,,,,,,,,,,,,,,,,,,,,,,,,,,41,rebuscar,,,1,1,2.149605,0,46,46,40,1,REAL,FAKE,,,,,,,,,,,,,,,,,,,,,
,,,,,,,5febbf353cc53cce4cec36e3,605b45a4d25f287719a41696,605bc2a98fcb0fd42c222b36,Costa Rica,Midwest,13 or older,no,2021-03-24_17h55.41.376,empathy_intonation_perc,2020.2.10,Win32,60,,,,,,,,,,1,,,,,,,,,,,,,,,,,,,,,,,,,,,,,,,,,,,,,,,,6,tergiversar,,,0,0,1.93658,0,47,47,5,1,REAL,FAKE,,,,,,,,,,,,,,,,,,,,,
,,,,,,,5febbf353cc53cce4cec36e3,605b45a4d25f287719a41696,605bc2a98fcb0fd42c222b36,Costa Rica,Midwest,13 or older,no,2021-03-24_17h55.41.376,empathy_intonation_perc,2020.2.10,Win32,60,,,,,,,,,,0,,,,,,,,,,,,,,,,,,,,,,,,,,,,,,,,,,,,,,,,8,cadea,,,1,0,1.1643,0,48,48,7,1,REAL,FAKE,,,,,,,,,,,,,,,,,,,,,
,,,,,,,5febbf353cc53cce4cec36e3,605b45a4d25f287719a41696,605bc2a98fcb0fd42c222b36,Costa Rica,Midwest,13 or older,no,2021-03-24_17h55.41.376,empathy_intonation_perc,2020.2.10,Win32,60,,,,,,,,,,1,,,,,,,,,,,,,,,,,,,,,,,,,,,,,,,,,,,,,,,,61,seda,,,1,1,1.75805,0,49,49,60,1,REAL,FAKE,,,,,,,,,,,,,,,,,,,,,
,,,,,,,5febbf353cc53cce4cec36e3,605b45a4d25f287719a41696,605bc2a98fcb0fd42c222b36,Costa Rica,Midwest,13 or older,no,2021-03-24_17h55.41.376,empathy_intonation_perc,2020.2.10,Win32,60,,,,,,,,,,1,,,,,,,,,,,,,,,,,,,,,,,,,,,,,,,,,,,,,,,,68,alegre,,,1,1,5.08047,0,50,50,67,1,REAL,FAKE,,,,,,,,,,,,,,,,,,,,,
,,,,,,,5febbf353cc53cce4cec36e3,605b45a4d25f287719a41696,605bc2a98fcb0fd42c222b36,Costa Rica,Midwest,13 or older,no,2021-03-24_17h55.41.376,empathy_intonation_perc,2020.2.10,Win32,60,,,,,,,,,,1,,,,,,,,,,,,,,,,,,,,,,,,,,,,,,,,,,,,,,,,45,jilguero,,,0,0,1.581765,0,51,51,44,1,REAL,FAKE,,,,,,,,,,,,,,,,,,,,,
,,,,,,,5febbf353cc53cce4cec36e3,605b45a4d25f287719a41696,605bc2a98fcb0fd42c222b36,Costa Rica,Midwest,13 or older,no,2021-03-24_17h55.41.376,empathy_intonation_perc,2020.2.10,Win32,60,,,,,,,,,,1,,,,,,,,,,,,,,,,,,,,,,,,,,,,,,,,,,,,,,,,7,psimo,,,1,1,1.34244,0,52,52,6,1,REAL,FAKE,,,,,,,,,,,,,,,,,,,,,
,,,,,,,5febbf353cc53cce4cec36e3,605b45a4d25f287719a41696,605bc2a98fcb0fd42c222b36,Costa Rica,Midwest,13 or older,no,2021-03-24_17h55.41.376,empathy_intonation_perc,2020.2.10,Win32,60,,,,,,,,,,1,,,,,,,,,,,,,,,,,,,,,,,,,,,,,,,,,,,,,,,,15,regar,,,1,1,2.062455,0,53,53,14,1,REAL,FAKE,,,,,,,,,,,,,,,,,,,,,
,,,,,,,5febbf353cc53cce4cec36e3,605b45a4d25f287719a41696,605bc2a98fcb0fd42c222b36,Costa Rica,Midwest,13 or older,no,2021-03-24_17h55.41.376,empathy_intonation_perc,2020.2.10,Win32,60,,,,,,,,,,1,,,,,,,,,,,,,,,,,,,,,,,,,,,,,,,,,,,,,,,,85,lad,,,0,0,0.81715,0,54,54,84,1,REAL,FAKE,,,,,,,,,,,,,,,,,,,,,
,,,,,,,5febbf353cc53cce4cec36e3,605b45a4d25f287719a41696,605bc2a98fcb0fd42c222b36,Costa Rica,Midwest,13 or older,no,2021-03-24_17h55.41.376,empathy_intonation_perc,2020.2.10,Win32,60,,,,,,,,,,0,,,,,,,,,,,,,,,,,,,,,,,,,,,,,,,,,,,,,,,,84,escuto,,,0,1,1.09949,0,55,55,83,1,REAL,FAKE,,,,,,,,,,,,,,,,,,,,,
,,,,,,,5febbf353cc53cce4cec36e3,605b45a4d25f287719a41696,605bc2a98fcb0fd42c222b36,Costa Rica,Midwest,13 or older,no,2021-03-24_17h55.41.376,empathy_intonation_perc,2020.2.10,Win32,60,,,,,,,,,,1,,,,,,,,,,,,,,,,,,,,,,,,,,,,,,,,,,,,,,,,52,camisa,,,1,1,1.1388,0,56,56,51,1,REAL,FAKE,,,,,,,,,,,,,,,,,,,,,
,,,,,,,5febbf353cc53cce4cec36e3,605b45a4d25f287719a41696,605bc2a98fcb0fd42c222b36,Costa Rica,Midwest,13 or older,no,2021-03-24_17h55.41.376,empathy_intonation_perc,2020.2.10,Win32,60,,,,,,,,,,0,,,,,,,,,,,,,,,,,,,,,,,,,,,,,,,,,,,,,,,,70,temblo,,,0,1,1.609995,0,57,57,69,1,REAL,FAKE,,,,,,,,,,,,,,,,,,,,,
,,,,,,,5febbf353cc53cce4cec36e3,605b45a4d25f287719a41696,605bc2a98fcb0fd42c222b36,Costa Rica,Midwest,13 or older,no,2021-03-24_17h55.41.376,empathy_intonation_perc,2020.2.10,Win32,60,,,,,,,,,,1,,,,,,,,,,,,,,,,,,,,,,,,,,,,,,,,,,,,,,,,44,cuchara,,,1,1,0.94837,0,58,58,43,1,REAL,FAKE,,,,,,,,,,,,,,,,,,,,,
,,,,,,,5febbf353cc53cce4cec36e3,605b45a4d25f287719a41696,605bc2a98fcb0fd42c222b36,Costa Rica,Midwest,13 or older,no,2021-03-24_17h55.41.376,empathy_intonation_perc,2020.2.10,Win32,60,,,,,,,,,,1,,,,,,,,,,,,,,,,,,,,,,,,,,,,,,,,,,,,,,,,11,cenefa,,,0,0,1.013185,0,59,59,10,1,REAL,FAKE,,,,,,,,,,,,,,,,,,,,,
,,,,,,,5febbf353cc53cce4cec36e3,605b45a4d25f287719a41696,605bc2a98fcb0fd42c222b36,Costa Rica,Midwest,13 or older,no,2021-03-24_17h55.41.376,empathy_intonation_perc,2020.2.10,Win32,60,,,,,,,,,,1,,,,,,,,,,,,,,,,,,,,,,,,,,,,,,,,,,,,,,,,59,besar,,,1,1,0.73433,0,60,60,58,1,REAL,FAKE,,,,,,,,,,,,,,,,,,,,,
,,,,,,,5febbf353cc53cce4cec36e3,605b45a4d25f287719a41696,605bc2a98fcb0fd42c222b36,Costa Rica,Midwest,13 or older,no,2021-03-24_17h55.41.376,empathy_intonation_perc,2020.2.10,Win32,60,,,,,,,,,,1,,,,,,,,,,,,,,,,,,,,,,,,,,,,,,,,,,,,,,,,26,secuestro,,,1,1,1.118295,0,61,61,25,1,REAL,FAKE,,,,,,,,,,,,,,,,,,,,,
,,,,,,,5febbf353cc53cce4cec36e3,605b45a4d25f287719a41696,605bc2a98fcb0fd42c222b36,Costa Rica,Midwest,13 or older,no,2021-03-24_17h55.41.376,empathy_intonation_perc,2020.2.10,Win32,60,,,,,,,,,,1,,,,,,,,,,,,,,,,,,,,,,,,,,,,,,,,,,,,,,,,38,estornudar,,,1,1,1.330385,0,62,62,37,1,REAL,FAKE,,,,,,,,,,,,,,,,,,,,,
,,,,,,,5febbf353cc53cce4cec36e3,605b45a4d25f287719a41696,605bc2a98fcb0fd42c222b36,Costa Rica,Midwest,13 or older,no,2021-03-24_17h55.41.376,empathy_intonation_perc,2020.2.10,Win32,60,,,,,,,,,,1,,,,,,,,,,,,,,,,,,,,,,,,,,,,,,,,,,,,,,,,83,guante,,,1,1,1.48131,0,63,63,82,1,REAL,FAKE,,,,,,,,,,,,,,,,,,,,,
,,,,,,,5febbf353cc53cce4cec36e3,605b45a4d25f287719a41696,605bc2a98fcb0fd42c222b36,Costa Rica,Midwest,13 or older,no,2021-03-24_17h55.41.376,empathy_intonation_perc,2020.2.10,Win32,60,,,,,,,,,,0,,,,,,,,,,,,,,,,,,,,,,,,,,,,,,,,,,,,,,,,82,empirador,,,1,0,1.001055,0,64,64,81,1,REAL,FAKE,,,,,,,,,,,,,,,,,,,,,
,,,,,,,5febbf353cc53cce4cec36e3,605b45a4d25f287719a41696,605bc2a98fcb0fd42c222b36,Costa Rica,Midwest,13 or older,no,2021-03-24_17h55.41.376,empathy_intonation_perc,2020.2.10,Win32,60,,,,,,,,,,1,,,,,,,,,,,,,,,,,,,,,,,,,,,,,,,,,,,,,,,,3,pulmones,,,1,1,1.15775,0,65,65,2,1,REAL,FAKE,,,,,,,,,,,,,,,,,,,,,
,,,,,,,5febbf353cc53cce4cec36e3,605b45a4d25f287719a41696,605bc2a98fcb0fd42c222b36,Costa Rica,Midwest,13 or older,no,2021-03-24_17h55.41.376,empathy_intonation_perc,2020.2.10,Win32,60,,,,,,,,,,1,,,,,,,,,,,,,,,,,,,,,,,,,,,,,,,,,,,,,,,,13,helar,,,1,1,2.58271,0,66,66,12,1,REAL,FAKE,,,,,,,,,,,,,,,,,,,,,
,,,,,,,5febbf353cc53cce4cec36e3,605b45a4d25f287719a41696,605bc2a98fcb0fd42c222b36,Costa Rica,Midwest,13 or older,no,2021-03-24_17h55.41.376,empathy_intonation_perc,2020.2.10,Win32,60,,,,,,,,,,0,,,,,,,,,,,,,,,,,,,,,,,,,,,,,,,,,,,,,,,,30,alardio,,,0,1,2.62057,0,67,67,29,1,REAL,FAKE,,,,,,,,,,,,,,,,,,,,,
,,,,,,,5febbf353cc53cce4cec36e3,605b45a4d25f287719a41696,605bc2a98fcb0fd42c222b36,Costa Rica,Midwest,13 or older,no,2021-03-24_17h55.41.376,empathy_intonation_perc,2020.2.10,Win32,60,,,,,,,,,,0,,,,,,,,,,,,,,,,,,,,,,,,,,,,,,,,,,,,,,,,79,tropaje,,,0,1,1.482155,0,68,68,78,1,REAL,FAKE,,,,,,,,,,,,,,,,,,,,,
,,,,,,,5febbf353cc53cce4cec36e3,605b45a4d25f287719a41696,605bc2a98fcb0fd42c222b36,Costa Rica,Midwest,13 or older,no,2021-03-24_17h55.41.376,empathy_intonation_perc,2020.2.10,Win32,60,,,,,,,,,,0,,,,,,,,,,,,,,,,,,,,,,,,,,,,,,,,,,,,,,,,74,cintro,,,0,1,1.406075,0,69,69,73,1,REAL,FAKE,,,,,,,,,,,,,,,,,,,,,
,,,,,,,5febbf353cc53cce4cec36e3,605b45a4d25f287719a41696,605bc2a98fcb0fd42c222b36,Costa Rica,Midwest,13 or older,no,2021-03-24_17h55.41.376,empathy_intonation_perc,2020.2.10,Win32,60,,,,,,,,,,1,,,,,,,,,,,,,,,,,,,,,,,,,,,,,,,,,,,,,,,,2,pellizcar,,,0,0,2.477345,0,70,70,1,1,REAL,FAKE,,,,,,,,,,,,,,,,,,,,,
,,,,,,,5febbf353cc53cce4cec36e3,605b45a4d25f287719a41696,605bc2a98fcb0fd42c222b36,Costa Rica,Midwest,13 or older,no,2021-03-24_17h55.41.376,empathy_intonation_perc,2020.2.10,Win32,60,,,,,,,,,,0,,,,,,,,,,,,,,,,,,,,,,,,,,,,,,,,,,,,,,,,27,acutacin,,,0,1,2.448435,0,71,71,26,1,REAL,FAKE,,,,,,,,,,,,,,,,,,,,,
,,,,,,,5febbf353cc53cce4cec36e3,605b45a4d25f287719a41696,605bc2a98fcb0fd42c222b36,Costa Rica,Midwest,13 or older,no,2021-03-24_17h55.41.376,empathy_intonation_perc,2020.2.10,Win32,60,,,,,,,,,,0,,,,,,,,,,,,,,,,,,,,,,,,,,,,,,,,,,,,,,,,66,hacido,,,1,0,0.73777,0,72,72,65,1,REAL,FAKE,,,,,,,,,,,,,,,,,,,,,
,,,,,,,5febbf353cc53cce4cec36e3,605b45a4d25f287719a41696,605bc2a98fcb0fd42c222b36,Costa Rica,Midwest,13 or older,no,2021-03-24_17h55.41.376,empathy_intonation_perc,2020.2.10,Win32,60,,,,,,,,,,0,,,,,,,,,,,,,,,,,,,,,,,,,,,,,,,,,,,,,,,,87,grodo,,,1,0,0.66526,0,73,73,86,1,REAL,FAKE,,,,,,,,,,,,,,,,,,,,,
,,,,,,,5febbf353cc53cce4cec36e3,605b45a4d25f287719a41696,605bc2a98fcb0fd42c222b36,Costa Rica,Midwest,13 or older,no,2021-03-24_17h55.41.376,empathy_intonation_perc,2020.2.10,Win32,60,,,,,,,,,,0,,,,,,,,,,,,,,,,,,,,,,,,,,,,,,,,,,,,,,,,63,esposante,,,1,0,2.03842,0,74,74,62,1,REAL,FAKE,,,,,,,,,,,,,,,,,,,,,
,,,,,,,5febbf353cc53cce4cec36e3,605b45a4d25f287719a41696,605bc2a98fcb0fd42c222b36,Costa Rica,Midwest,13 or older,no,2021-03-24_17h55.41.376,empathy_intonation_perc,2020.2.10,Win32,60,,,,,,,,,,0,,,,,,,,,,,,,,,,,,,,,,,,,,,,,,,,,,,,,,,,19,brecedad,,,0,1,2.658555,0,75,75,18,1,REAL,FAKE,,,,,,,,,,,,,,,,,,,,,
,,,,,,,5febbf353cc53cce4cec36e3,605b45a4d25f287719a41696,605bc2a98fcb0fd42c222b36,Costa Rica,Midwest,13 or older,no,2021-03-24_17h55.41.376,empathy_intonation_perc,2020.2.10,Win32,60,,,,,,,,,,1,,,,,,,,,,,,,,,,,,,,,,,,,,,,,,,,,,,,,,,,48,ladrn,,,0,0,0.969,0,76,76,47,1,REAL,FAKE,,,,,,,,,,,,,,,,,,,,,
,,,,,,,5febbf353cc53cce4cec36e3,605b45a4d25f287719a41696,605bc2a98fcb0fd42c222b36,Costa Rica,Midwest,13 or older,no,2021-03-24_17h55.41.376,empathy_intonation_perc,2020.2.10,Win32,60,,,,,,,,,,1,,,,,,,,,,,,,,,,,,,,,,,,,,,,,,,,,,,,,,,,34,aviso,,,1,1,0.63195,0,77,77,33,1,REAL,FAKE,,,,,,,,,,,,,,,,,,,,,
,,,,,,,5febbf353cc53cce4cec36e3,605b45a4d25f287719a41696,605bc2a98fcb0fd42c222b36,Costa Rica,Midwest,13 or older,no,2021-03-24_17h55.41.376,empathy_intonation_perc,2020.2.10,Win32,60,,,,,,,,,,1,,,,,,,,,,,,,,,,,,,,,,,,,,,,,,,,,,,,,,,,54,fomentar,,,1,1,1.575985,0,78,78,53,1,REAL,FAKE,,,,,,,,,,,,,,,,,,,,,
,,,,,,,5febbf353cc53cce4cec36e3,605b45a4d25f287719a41696,605bc2a98fcb0fd42c222b36,Costa Rica,Midwest,13 or older,no,2021-03-24_17h55.41.376,empathy_intonation_perc,2020.2.10,Win32,60,,,,,,,,,,1,,,,,,,,,,,,,,,,,,,,,,,,,,,,,,,,,,,,,,,,31,pandilla,,,0,0,1.8819,0,79,79,30,1,REAL,FAKE,,,,,,,,,,,,,,,,,,,,,
,,,,,,,5febbf353cc53cce4cec36e3,605b45a4d25f287719a41696,605bc2a98fcb0fd42c222b36,Costa Rica,Midwest,13 or older,no,2021-03-24_17h55.41.376,empathy_intonation_perc,2020.2.10,Win32,60,,,,,,,,,,1,,,,,,,,,,,,,,,,,,,,,,,,,,,,,,,,,,,,,,,,88,acantilado,,,1,1,1.00922,0,80,80,87,1,REAL,FAKE,,,,,,,,,,,,,,,,,,,,,
,,,,,,,5febbf353cc53cce4cec36e3,605b45a4d25f287719a41696,605bc2a98fcb0fd42c222b36,Costa Rica,Midwest,13 or older,no,2021-03-24_17h55.41.376,empathy_intonation_perc,2020.2.10,Win32,60,,,,,,,,,,0,,,,,,,,,,,,,,,,,,,,,,,,,,,,,,,,,,,,,,,,35,rompido,,,1,0,2.15856,0,81,81,34,1,REAL,FAKE,,,,,,,,,,,,,,,,,,,,,
,,,,,,,5febbf353cc53cce4cec36e3,605b45a4d25f287719a41696,605bc2a98fcb0fd42c222b36,Costa Rica,Midwest,13 or older,no,2021-03-24_17h55.41.376,empathy_intonation_perc,2020.2.10,Win32,60,,,,,,,,,,0,,,,,,,,,,,,,,,,,,,,,,,,,,,,,,,,,,,,,,,,4,batilln,,,1,0,0.91458,0,82,82,3,1,REAL,FAKE,,,,,,,,,,,,,,,,,,,,,
,,,,,,,5febbf353cc53cce4cec36e3,605b45a4d25f287719a41696,605bc2a98fcb0fd42c222b36,Costa Rica,Midwest,13 or older,no,2021-03-24_17h55.41.376,empathy_intonation_perc,2020.2.10,Win32,60,,,,,,,,,,0,,,,,,,,,,,,,,,,,,,,,,,,,,,,,,,,,,,,,,,,16,abracer,,,1,0,1.399025,0,83,83,15,1,REAL,FAKE,,,,,,,,,,,,,,,,,,,,,
,,,,,,,5febbf353cc53cce4cec36e3,605b45a4d25f287719a41696,605bc2a98fcb0fd42c222b36,Costa Rica,Midwest,13 or older,no,2021-03-24_17h55.41.376,empathy_intonation_perc,2020.2.10,Win32,60,,,,,,,,,,1,,,,,,,,,,,,,,,,,,,,,,,,,,,,,,,,,,,,,,,,60,matar,,,1,1,0.914795,0,84,84,59,1,REAL,FAKE,,,,,,,,,,,,,,,,,,,,,
,,,,,,,5febbf353cc53cce4cec36e3,605b45a4d25f287719a41696,605bc2a98fcb0fd42c222b36,Costa Rica,Midwest,13 or older,no,2021-03-24_17h55.41.376,empathy_intonation_perc,2020.2.10,Win32,60,,,,,,,,,,1,,,,,,,,,,,,,,,,,,,,,,,,,,,,,,,,,,,,,,,,37,granuja,,,0,0,3.428995,0,85,85,36,1,REAL,FAKE,,,,,,,,,,,,,,,,,,,,,
,,,,,,,5febbf353cc53cce4cec36e3,605b45a4d25f287719a41696,605bc2a98fcb0fd42c222b36,Costa Rica,Midwest,13 or older,no,2021-03-24_17h55.41.376,empathy_intonation_perc,2020.2.10,Win32,60,,,,,,,,,,0,,,,,,,,,,,,,,,,,,,,,,,,,,,,,,,,,,,,,,,,53,vegada,,,0,1,2.04681,0,86,86,52,1,REAL,FAKE,,,,,,,,,,,,,,,,,,,,,
,,,,,,,5febbf353cc53cce4cec36e3,605b45a4d25f287719a41696,605bc2a98fcb0fd42c222b36,Costa Rica,Midwest,13 or older,no,2021-03-24_17h55.41.376,empathy_intonation_perc,2020.2.10,Win32,60,,,,,,,,,,0,,,,,,,,,,,,,,,,,,,,,,,,,,,,,,,,,,,,,,,,47,cartinar,,,1,0,1.59834,0,87,87,46,1,REAL,FAKE,,,,,,,,,,,,,,,,,,,,,
,,,,,,,5febbf353cc53cce4cec36e3,605b45a4d25f287719a41696,605bc2a98fcb0fd42c222b36,Costa Rica,Midwest,13 or older,no,2021-03-24_17h55.41.376,empathy_intonation_perc,2020.2.10,Win32,60,,,,,,,,,,1,,,,,,,,,,,,,,,,,,,,,,,,,,,,,,,,,,,,,,,,14,yunque,,,0,0,4.003955,0,88,88,13,1,REAL,FAKE,,,,,,,,,,,,,,,,,,,,,
,,,,,,,5febbf353cc53cce4cec36e3,605b45a4d25f287719a41696,605bc2a98fcb0fd42c222b36,Costa Rica,Midwest,13 or older,no,2021-03-24_17h55.41.376,empathy_intonation_perc,2020.2.10,Win32,60,,,,,,,,,,1,,,,,,,,,,,,,,,,,,,,,,,,,,,,,,,,,,,,,,,,69,engatusar,,,0,0,1.74929,0,89,89,68,1,REAL,FAKE,,,,,,,,,,,,,,,,,,,,,
,,,,,,,5febbf353cc53cce4cec36e3,605b45a4d25f287719a41696,605bc2a98fcb0fd42c222b36,Costa Rica,Midwest,13 or older,no,2021-03-24_17h55.41.376,empathy_intonation_perc,2020.2.10,Win32,60,,,,,,,,,,,,,,,,,,,,,,,,,,,,,,,,,,,,,,,,,,,,,,,,,,,,,,,,,,,,,,,,4,1,4.126725,1,0,0,0,0,0,1,,,,,,,,,,,
,,,,,,,5febbf353cc53cce4cec36e3,605b45a4d25f287719a41696,605bc2a98fcb0fd42c222b36,Costa Rica,Midwest,13 or older,no,2021-03-24_17h55.41.376,empathy_intonation_perc,2020.2.10,Win32,60,,,,,,,,,,,,,,,,,,,,1,,,,,,,,,,,,,,,,,,,,,,,,,,,,,,,,,,,,,,,,,,,,,,,,,,,,,,2,0,0,0,0,1,I can easily tell if someone else wants to enter a conversation.,1,0,1,0
,,,,,,,5febbf353cc53cce4cec36e3,605b45a4d25f287719a41696,605bc2a98fcb0fd42c222b36,Costa Rica,Midwest,13 or older,no,2021-03-24_17h55.41.376,empathy_intonation_perc,2020.2.10,Win32,60,,,,,,,,,,,,,,,,,,,,2,,,,,,,,,,,,,,,,,,,,,,,,,,,,,,,,,,,,,,,,,,,,,,,,,,,,,,2,0,1,1,1,1,I prefer animals to humans.,0,1,0,0
,,,,,,,5febbf353cc53cce4cec36e3,605b45a4d25f287719a41696,605bc2a98fcb0fd42c222b36,Costa Rica,Midwest,13 or older,no,2021-03-24_17h55.41.376,empathy_intonation_perc,2020.2.10,Win32,60,,,,,,,,,,,,,,,,,,,,3,,,,,,,,,,,,,,,,,,,,,,,,,,,,,,,,,,,,,,,,,,,,,,,,,,,,,,4,0,2,2,2,1,I try to keep up with the current trends and fashions.,0,1,0,0
,,,,,,,5febbf353cc53cce4cec36e3,605b45a4d25f287719a41696,605bc2a98fcb0fd42c222b36,Costa Rica,Midwest,13 or older,no,2021-03-24_17h55.41.376,empathy_intonation_perc,2020.2.10,Win32,60,,,,,,,,,,,,,,,,,,,,4,,,,,,,,,,,,,,,,,,,,,,,,,,,,,,,,,,,,,,,,,,,,,,,,,,,,,,4,0,3,3,3,1,"I find it difficult to explain to others things that I understand easily, 
  when they dont understand it first time.",1,0,0,1
,,,,,,,5febbf353cc53cce4cec36e3,605b45a4d25f287719a41696,605bc2a98fcb0fd42c222b36,Costa Rica,Midwest,13 or older,no,2021-03-24_17h55.41.376,empathy_intonation_perc,2020.2.10,Win32,60,,,,,,,,,,,,,,,,,,,,5,,,,,,,,,,,,,,,,,,,,,,,,,,,,,,,,,,,,,,,,,,,,,,,,,,,,,,5,0,4,4,4,1,I dream most nights.,0,1,0,0
,,,,,,,5febbf353cc53cce4cec36e3,605b45a4d25f287719a41696,605bc2a98fcb0fd42c222b36,Costa Rica,Midwest,13 or older,no,2021-03-24_17h55.41.376,empathy_intonation_perc,2020.2.10,Win32,60,,,,,,,,,,,,,,,,,,,,6,,,,,,,,,,,,,,,,,,,,,,,,,,,,,,,,,,,,,,,,,,,,,,,,,,,,,,2,0,5,5,5,1,I really enjoy caring for other people.,1,0,1,0
,,,,,,,5febbf353cc53cce4cec36e3,605b45a4d25f287719a41696,605bc2a98fcb0fd42c222b36,Costa Rica,Midwest,13 or older,no,2021-03-24_17h55.41.376,empathy_intonation_perc,2020.2.10,Win32,60,,,,,,,,,,,,,,,,,,,,7,,,,,,,,,,,,,,,,,,,,,,,,,,,,,,,,,,,,,,,,,,,,,,,,,,,,,,2,0,6,6,6,1,I try to solve my own problems rather than discussing them with others.,0,1,0,0
