instructions_2afc_loop.thisRepN,instructions_2afc_loop.thisTrialN,instructions_2afc_loop.thisN,instructions_2afc_loop.thisIndex,instructions_2afc_loop.ran,instructions_text,continue_text,participant,study_id,session,I am most familiar with Spanish from...*,What part of the US are you from?*,At what age did you begin learning Spanish?*,Are you proficient in any languages other than English/Spanish?*,date,expName,psychopyVersion,OS,frameRate,key_resp_2afc_practice.keys,key_resp_2afc_practice.corr,key_resp_2afc_practice.rt,trials_2afc_practice_loop.thisRepN,trials_2afc_practice_loop.thisTrialN,trials_2afc_practice_loop.thisN,trials_2afc_practice_loop.thisIndex,trials_2afc_practice_loop.ran,path,correct_response,the_col,key_resp_2afc_trial.keys,key_resp_2afc_trial.corr,key_resp_2afc_trial.rt,trials_2afc_loop.thisRepN,trials_2afc_loop.thisTrialN,trials_2afc_loop.thisN,trials_2afc_loop.thisIndex,trials_2afc_loop.ran,item_num,andalusian,argentine,castilian,chilean,cuban,mexican,peruvian,puertorican,key_resp_ac1.keys,key_resp_ac1.corr,key_resp_ac1.rt,ac1_loop.thisRepN,ac1_loop.thisTrialN,ac1_loop.thisN,ac1_loop.thisIndex,ac1_loop.ran,instructions_lextale_loop.thisRepN,instructions_lextale_loop.thisTrialN,instructions_lextale_loop.thisN,instructions_lextale_loop.thisIndex,instructions_lextale_loop.ran,key_resp_lextale_practice.keys,key_resp_lextale_practice.corr,key_resp_lextale_practice.rt,trials_lextale_practice_loop.thisRepN,trials_lextale_practice_loop.thisTrialN,trials_lextale_practice_loop.thisN,trials_lextale_practice_loop.thisIndex,trials_lextale_practice_loop.ran,stim,word,prac_button_real,prac_button_false,key_resp_lextale_trial.keys,key_resp_lextale_trial.corr,key_resp_lextale_trial.rt,trials_lextale_loop.thisRepN,trials_lextale_loop.thisTrialN,trials_lextale_loop.thisN,trials_lextale_loop.thisIndex,trials_lextale_loop.ran,button_real,button_false,key_resp_ac2.keys,key_resp_ac2.corr,key_resp_ac2.rt,check_pass,check_fails,ac2_loop.thisRepN,ac2_loop.thisTrialN,ac2_loop.thisN,ac2_loop.thisIndex,ac2_loop.ran,slider_eq_trial.response,trials_eq_loop.thisRepN,trials_eq_loop.thisTrialN,trials_eq_loop.thisN,trials_eq_loop.thisIndex,trials_eq_loop.ran,item,is_test_item,is_distractor,is_agree_score,is_disagree_score
0,0,0,0,1,"In the following task you are going to hear a series of utterances. 

  You will decide if the utterances sound like questions or not using your keyboard.",(press the spacebar to continue),5fecd5fa7e067ae6bd9cc8d2,60568611ec04488a9e9da93b,6056b5822ef63f50abb25db5,I am not familiar with Spanish,South,NA,no,2021-03-20_19h55.39.618,empathy_intonation_perc,2020.2.10,Win32,60,,,,,,,,,,,,,,,,,,,,,,,,,,,,,,,,,,,,,,,,,,,,,,,,,,,,,,,,,,,,,,,,,,,,,,,,,,,,,,,,,,,,
0,1,1,1,1,"If you believe the utterance is a question, type '1' (for 'yes') and if you do not 
  believe it is a question type '0' (for 'no').

  Let's practice a bit...",(press the spacebar to continue),5fecd5fa7e067ae6bd9cc8d2,60568611ec04488a9e9da93b,6056b5822ef63f50abb25db5,I am not familiar with Spanish,South,NA,no,2021-03-20_19h55.39.618,empathy_intonation_perc,2020.2.10,Win32,60,,,,,,,,,,,,,,,,,,,,,,,,,,,,,,,,,,,,,,,,,,,,,,,,,,,,,,,,,,,,,,,,,,,,,,,,,,,,,,,,,,,,
,,,,,,,5fecd5fa7e067ae6bd9cc8d2,60568611ec04488a9e9da93b,6056b5822ef63f50abb25db5,I am not familiar with Spanish,South,NA,no,2021-03-20_19h55.39.618,empathy_intonation_perc,2020.2.10,Win32,60,1,1,2.7563,0,0,0,0,1,./stim/wavs/castilian_question_filler_Mi-esposo-conoce-al-chico.wav,1,,,,,,,,,,,,,,,,,,,,,,,,,,,,,,,,,,,,,,,,,,,,,,,,,,,,,,,,,,,,,,,,,,,,,,,,,,
,,,,,,,5fecd5fa7e067ae6bd9cc8d2,60568611ec04488a9e9da93b,6056b5822ef63f50abb25db5,I am not familiar with Spanish,South,NA,no,2021-03-20_19h55.39.618,empathy_intonation_perc,2020.2.10,Win32,60,0,0,4.23224,0,1,1,3,1,./stim/wavs/mexican_question_filler_Felipe-no-tiene-contrasena.wav,1,,,,,,,,,,,,,,,,,,,,,,,,,,,,,,,,,,,,,,,,,,,,,,,,,,,,,,,,,,,,,,,,,,,,,,,,,,
,,,,,,,5fecd5fa7e067ae6bd9cc8d2,60568611ec04488a9e9da93b,6056b5822ef63f50abb25db5,I am not familiar with Spanish,South,NA,no,2021-03-20_19h55.39.618,empathy_intonation_perc,2020.2.10,Win32,60,0,0,3.823755,0,2,2,2,1,./stim/wavs/chilean_question_filler_Mi-padre-cantaba-bien.wav,1,,,,,,,,,,,,,,,,,,,,,,,,,,,,,,,,,,,,,,,,,,,,,,,,,,,,,,,,,,,,,,,,,,,,,,,,,,
,,,,,,,5fecd5fa7e067ae6bd9cc8d2,60568611ec04488a9e9da93b,6056b5822ef63f50abb25db5,I am not familiar with Spanish,South,NA,no,2021-03-20_19h55.39.618,empathy_intonation_perc,2020.2.10,Win32,60,0,1,2.39717,0,3,3,6,1,./stim/wavs/peruvian_statement_filler_El-nino-habla-con-su-madre.wav,0,,,,,,,,,,,,,,,,,,,,,,,,,,,,,,,,,,,,,,,,,,,,,,,,,,,,,,,,,,,,,,,,,,,,,,,,,,
,,,,,,,5fecd5fa7e067ae6bd9cc8d2,60568611ec04488a9e9da93b,6056b5822ef63f50abb25db5,I am not familiar with Spanish,South,NA,no,2021-03-20_19h55.39.618,empathy_intonation_perc,2020.2.10,Win32,60,0,1,2.19042,0,4,4,5,1,./stim/wavs/andalusian_statement_filler_Alberto-nunca-se-afeita.wav,0,,,,,,,,,,,,,,,,,,,,,,,,,,,,,,,,,,,,,,,,,,,,,,,,,,,,,,,,,,,,,,,,,,,,,,,,,,
,,,,,,,5fecd5fa7e067ae6bd9cc8d2,60568611ec04488a9e9da93b,6056b5822ef63f50abb25db5,I am not familiar with Spanish,South,NA,no,2021-03-20_19h55.39.618,empathy_intonation_perc,2020.2.10,Win32,60,1,0,2.017735,0,5,5,7,1,./stim/wavs/puertorican_statement_filler_La-nina-pinta-con-su-amiga.wav,0,,,,,,,,,,,,,,,,,,,,,,,,,,,,,,,,,,,,,,,,,,,,,,,,,,,,,,,,,,,,,,,,,,,,,,,,,,
,,,,,,,5fecd5fa7e067ae6bd9cc8d2,60568611ec04488a9e9da93b,6056b5822ef63f50abb25db5,I am not familiar with Spanish,South,NA,no,2021-03-20_19h55.39.618,empathy_intonation_perc,2020.2.10,Win32,60,1,0,2.490265,0,6,6,4,1,./stim/wavs/cuban_statement_filler_Cocinabas-por-la-noche.wav,0,,,,,,,,,,,,,,,,,,,,,,,,,,,,,,,,,,,,,,,,,,,,,,,,,,,,,,,,,,,,,,,,,,,,,,,,,,
,,,,,,,5fecd5fa7e067ae6bd9cc8d2,60568611ec04488a9e9da93b,6056b5822ef63f50abb25db5,I am not familiar with Spanish,South,NA,no,2021-03-20_19h55.39.618,empathy_intonation_perc,2020.2.10,Win32,60,1,1,3.67013,0,7,7,1,1,./stim/wavs/argentine_question_filler_Mi-vecino-habla-mucho.wav,1,,,,,,,,,,,,,,,,,,,,,,,,,,,,,,,,,,,,,,,,,,,,,,,,,,,,,,,,,,,,,,,,,,,,,,,,,,
,,,,,,,5fecd5fa7e067ae6bd9cc8d2,60568611ec04488a9e9da93b,6056b5822ef63f50abb25db5,I am not familiar with Spanish,South,NA,no,2021-03-20_19h55.39.618,empathy_intonation_perc,2020.2.10,Win32,60,,,,,,,,,,1,argentine,1,1,1.58749,0,0,0,54,1,55,./stim/wavs/andalusian_mismatch_interrogative-partial-wh_Por-que-venia-del-lago.wav,./stim/wavs/argentine_mismatch_interrogative-partial-wh_Por-que-venia-del-lago.wav,./stim/wavs/castilian_mismatch_interrogative-partial-wh_Por-que-venia-del-lago.wav,./stim/wavs/chilean_mismatch_interrogative-partial-wh_Por-que-venia-del-lago.wav,./stim/wavs/cuban_mismatch_interrogative-partial-wh_Por-que-venia-del-lago.wav,./stim/wavs/mexican_mismatch_interrogative-partial-wh_Por-que-venia-del-lago.wav,./stim/wavs/peruvian_mismatch_interrogative-partial-wh_Por-que-venia-del-lago.wav,./stim/wavs/puertorican_mismatch_interrogative-partial-wh_Por-que-venia-del-lago.wav,,,,,,,,,,,,,,,,,,,,,,,,,,,,,,,,,,,,,,,,,,,,,,,,,,,,,,,,
,,,,,,,5fecd5fa7e067ae6bd9cc8d2,60568611ec04488a9e9da93b,6056b5822ef63f50abb25db5,I am not familiar with Spanish,South,NA,no,2021-03-20_19h55.39.618,empathy_intonation_perc,2020.2.10,Win32,60,,,,,,,,,,1,chilean,1,1,1.48511,0,1,1,31,1,32,./stim/wavs/andalusian_match_interrogative-total-yn_Marta-abre-el-regalo.wav,./stim/wavs/argentine_match_interrogative-total-yn_Marta-abre-el-regalo.wav,./stim/wavs/castilian_match_interrogative-total-yn_Marta-abre-el-regalo.wav,./stim/wavs/chilean_match_interrogative-total-yn_Marta-abre-el-regalo.wav,./stim/wavs/cuban_match_interrogative-total-yn_Marta-abre-el-regalo.wav,./stim/wavs/mexican_match_interrogative-total-yn_Marta-abre-el-regalo.wav,./stim/wavs/peruvian_match_interrogative-total-yn_Marta-abre-el-regalo.wav,./stim/wavs/puertorican_match_interrogative-total-yn_Marta-abre-el-regalo.wav,,,,,,,,,,,,,,,,,,,,,,,,,,,,,,,,,,,,,,,,,,,,,,,,,,,,,,,,
,,,,,,,5fecd5fa7e067ae6bd9cc8d2,60568611ec04488a9e9da93b,6056b5822ef63f50abb25db5,I am not familiar with Spanish,South,NA,no,2021-03-20_19h55.39.618,empathy_intonation_perc,2020.2.10,Win32,60,,,,,,,,,,0,cuban,0,1,1.58462,0,2,2,42,1,43,./stim/wavs/andalusian_mismatch_declarative-narrow-focus_El-nino-oye-el-rio.wav,./stim/wavs/argentine_mismatch_declarative-narrow-focus_El-nino-oye-el-rio.wav,./stim/wavs/castilian_mismatch_declarative-narrow-focus_El-nino-oye-el-rio.wav,./stim/wavs/chilean_mismatch_declarative-narrow-focus_El-nino-oye-el-rio.wav,./stim/wavs/cuban_mismatch_declarative-narrow-focus_El-nino-oye-el-rio.wav,./stim/wavs/mexican_mismatch_declarative-narrow-focus_El-nino-oye-el-rio.wav,./stim/wavs/peruvian_mismatch_declarative-narrow-focus_El-nino-oye-el-rio.wav,./stim/wavs/puertorican_mismatch_declarative-narrow-focus_El-nino-oye-el-rio.wav,,,,,,,,,,,,,,,,,,,,,,,,,,,,,,,,,,,,,,,,,,,,,,,,,,,,,,,,
,,,,,,,5fecd5fa7e067ae6bd9cc8d2,60568611ec04488a9e9da93b,6056b5822ef63f50abb25db5,I am not familiar with Spanish,South,NA,no,2021-03-20_19h55.39.618,empathy_intonation_perc,2020.2.10,Win32,60,,,,,,,,,,1,mexican,0,0,1.33699,0,3,3,50,1,51,./stim/wavs/andalusian_mismatch_interrogative-partial-wh_Cuando-miraba-la-luna.wav,./stim/wavs/argentine_mismatch_interrogative-partial-wh_Cuando-miraba-la-luna.wav,./stim/wavs/castilian_mismatch_interrogative-partial-wh_Cuando-miraba-la-luna.wav,./stim/wavs/chilean_mismatch_interrogative-partial-wh_Cuando-miraba-la-luna.wav,./stim/wavs/cuban_mismatch_interrogative-partial-wh_Cuando-miraba-la-luna.wav,./stim/wavs/mexican_mismatch_interrogative-partial-wh_Cuando-miraba-la-luna.wav,./stim/wavs/peruvian_mismatch_interrogative-partial-wh_Cuando-miraba-la-luna.wav,./stim/wavs/puertorican_mismatch_interrogative-partial-wh_Cuando-miraba-la-luna.wav,,,,,,,,,,,,,,,,,,,,,,,,,,,,,,,,,,,,,,,,,,,,,,,,,,,,,,,,
,,,,,,,5fecd5fa7e067ae6bd9cc8d2,60568611ec04488a9e9da93b,6056b5822ef63f50abb25db5,I am not familiar with Spanish,South,NA,no,2021-03-20_19h55.39.618,empathy_intonation_perc,2020.2.10,Win32,60,,,,,,,,,,0,castilian,0,1,2.46227,0,4,4,32,1,33,./stim/wavs/andalusian_mismatch_declarative-broad-focus_El-bebe-comia-muy-bien.wav,./stim/wavs/argentine_mismatch_declarative-broad-focus_El-bebe-comia-muy-bien.wav,./stim/wavs/castilian_mismatch_declarative-broad-focus_El-bebe-comia-muy-bien.wav,./stim/wavs/chilean_mismatch_declarative-broad-focus_El-bebe-comia-muy-bien.wav,./stim/wavs/cuban_mismatch_declarative-broad-focus_El-bebe-comia-muy-bien.wav,./stim/wavs/mexican_mismatch_declarative-broad-focus_El-bebe-comia-muy-bien.wav,./stim/wavs/peruvian_mismatch_declarative-broad-focus_El-bebe-comia-muy-bien.wav,./stim/wavs/puertorican_mismatch_declarative-broad-focus_El-bebe-comia-muy-bien.wav,,,,,,,,,,,,,,,,,,,,,,,,,,,,,,,,,,,,,,,,,,,,,,,,,,,,,,,,
,,,,,,,5fecd5fa7e067ae6bd9cc8d2,60568611ec04488a9e9da93b,6056b5822ef63f50abb25db5,I am not familiar with Spanish,South,NA,no,2021-03-20_19h55.39.618,empathy_intonation_perc,2020.2.10,Win32,60,,,,,,,,,,1,andalusian,1,1,2.31859,0,5,5,57,1,58,./stim/wavs/andalusian_mismatch_interrogative-total-yn_El-hombre-mira-la-luna.wav,./stim/wavs/argentine_mismatch_interrogative-total-yn_El-hombre-mira-la-luna.wav,./stim/wavs/castilian_mismatch_interrogative-total-yn_El-hombre-mira-la-luna.wav,./stim/wavs/chilean_mismatch_interrogative-total-yn_El-hombre-mira-la-luna.wav,./stim/wavs/cuban_mismatch_interrogative-total-yn_El-hombre-mira-la-luna.wav,./stim/wavs/mexican_mismatch_interrogative-total-yn_El-hombre-mira-la-luna.wav,./stim/wavs/peruvian_mismatch_interrogative-total-yn_El-hombre-mira-la-luna.wav,./stim/wavs/puertorican_mismatch_interrogative-total-yn_El-hombre-mira-la-luna.wav,,,,,,,,,,,,,,,,,,,,,,,,,,,,,,,,,,,,,,,,,,,,,,,,,,,,,,,,
,,,,,,,5fecd5fa7e067ae6bd9cc8d2,60568611ec04488a9e9da93b,6056b5822ef63f50abb25db5,I am not familiar with Spanish,South,NA,no,2021-03-20_19h55.39.618,empathy_intonation_perc,2020.2.10,Win32,60,,,,,,,,,,1,cuban,0,0,1.46499,0,6,6,24,1,25,./stim/wavs/andalusian_match_interrogative-total-yn_Ana-lleva-el-abrigo.wav,./stim/wavs/argentine_match_interrogative-total-yn_Ana-lleva-el-abrigo.wav,./stim/wavs/castilian_match_interrogative-total-yn_Ana-lleva-el-abrigo.wav,./stim/wavs/chilean_match_interrogative-total-yn_Ana-lleva-el-abrigo.wav,./stim/wavs/cuban_match_interrogative-total-yn_Ana-lleva-el-abrigo.wav,./stim/wavs/mexican_match_interrogative-total-yn_Ana-lleva-el-abrigo.wav,./stim/wavs/peruvian_match_interrogative-total-yn_Ana-lleva-el-abrigo.wav,./stim/wavs/puertorican_match_interrogative-total-yn_Ana-lleva-el-abrigo.wav,,,,,,,,,,,,,,,,,,,,,,,,,,,,,,,,,,,,,,,,,,,,,,,,,,,,,,,,
,,,,,,,5fecd5fa7e067ae6bd9cc8d2,60568611ec04488a9e9da93b,6056b5822ef63f50abb25db5,I am not familiar with Spanish,South,NA,no,2021-03-20_19h55.39.618,empathy_intonation_perc,2020.2.10,Win32,60,,,,,,,,,,0,puertorican,0,1,1.51845,0,7,7,40,1,41,./stim/wavs/andalusian_mismatch_declarative-narrow-focus_El-bebe-comia-muy-bien.wav,./stim/wavs/argentine_mismatch_declarative-narrow-focus_El-bebe-comia-muy-bien.wav,./stim/wavs/castilian_mismatch_declarative-narrow-focus_El-bebe-comia-muy-bien.wav,./stim/wavs/chilean_mismatch_declarative-narrow-focus_El-bebe-comia-muy-bien.wav,./stim/wavs/cuban_mismatch_declarative-narrow-focus_El-bebe-comia-muy-bien.wav,./stim/wavs/mexican_mismatch_declarative-narrow-focus_El-bebe-comia-muy-bien.wav,./stim/wavs/peruvian_mismatch_declarative-narrow-focus_El-bebe-comia-muy-bien.wav,./stim/wavs/puertorican_mismatch_declarative-narrow-focus_El-bebe-comia-muy-bien.wav,,,,,,,,,,,,,,,,,,,,,,,,,,,,,,,,,,,,,,,,,,,,,,,,,,,,,,,,
,,,,,,,5fecd5fa7e067ae6bd9cc8d2,60568611ec04488a9e9da93b,6056b5822ef63f50abb25db5,I am not familiar with Spanish,South,NA,no,2021-03-20_19h55.39.618,empathy_intonation_perc,2020.2.10,Win32,60,,,,,,,,,,0,puertorican,0,1,1.57944,0,8,8,11,1,12,./stim/wavs/andalusian_match_declarative-narrow-focus_Emilio-ama-la-marcha.wav,./stim/wavs/argentine_match_declarative-narrow-focus_Emilio-ama-la-marcha.wav,./stim/wavs/castilian_match_declarative-narrow-focus_Emilio-ama-la-marcha.wav,./stim/wavs/chilean_match_declarative-narrow-focus_Emilio-ama-la-marcha.wav,./stim/wavs/cuban_match_declarative-narrow-focus_Emilio-ama-la-marcha.wav,./stim/wavs/mexican_match_declarative-narrow-focus_Emilio-ama-la-marcha.wav,./stim/wavs/peruvian_match_declarative-narrow-focus_Emilio-ama-la-marcha.wav,./stim/wavs/puertorican_match_declarative-narrow-focus_Emilio-ama-la-marcha.wav,,,,,,,,,,,,,,,,,,,,,,,,,,,,,,,,,,,,,,,,,,,,,,,,,,,,,,,,
,,,,,,,5fecd5fa7e067ae6bd9cc8d2,60568611ec04488a9e9da93b,6056b5822ef63f50abb25db5,I am not familiar with Spanish,South,NA,no,2021-03-20_19h55.39.618,empathy_intonation_perc,2020.2.10,Win32,60,,,,,,,,,,1,cuban,1,1,1.184625,0,9,9,55,1,56,./stim/wavs/andalusian_mismatch_interrogative-partial-wh_Por-que-vivia-en-Paris.wav,./stim/wavs/argentine_mismatch_interrogative-partial-wh_Por-que-vivia-en-Paris.wav,./stim/wavs/castilian_mismatch_interrogative-partial-wh_Por-que-vivia-en-Paris.wav,./stim/wavs/chilean_mismatch_interrogative-partial-wh_Por-que-vivia-en-Paris.wav,./stim/wavs/cuban_mismatch_interrogative-partial-wh_Por-que-vivia-en-Paris.wav,./stim/wavs/mexican_mismatch_interrogative-partial-wh_Por-que-vivia-en-Paris.wav,./stim/wavs/peruvian_mismatch_interrogative-partial-wh_Por-que-vivia-en-Paris.wav,./stim/wavs/puertorican_mismatch_interrogative-partial-wh_Por-que-vivia-en-Paris.wav,,,,,,,,,,,,,,,,,,,,,,,,,,,,,,,,,,,,,,,,,,,,,,,,,,,,,,,,
,,,,,,,5fecd5fa7e067ae6bd9cc8d2,60568611ec04488a9e9da93b,6056b5822ef63f50abb25db5,I am not familiar with Spanish,South,NA,no,2021-03-20_19h55.39.618,empathy_intonation_perc,2020.2.10,Win32,60,,,,,,,,,,0,cuban,0,1,2.45566,0,10,10,10,1,11,./stim/wavs/andalusian_match_declarative-narrow-focus_David-leia-el-libro.wav,./stim/wavs/argentine_match_declarative-narrow-focus_David-leia-el-libro.wav,./stim/wavs/castilian_match_declarative-narrow-focus_David-leia-el-libro.wav,./stim/wavs/chilean_match_declarative-narrow-focus_David-leia-el-libro.wav,./stim/wavs/cuban_match_declarative-narrow-focus_David-leia-el-libro.wav,./stim/wavs/mexican_match_declarative-narrow-focus_David-leia-el-libro.wav,./stim/wavs/peruvian_match_declarative-narrow-focus_David-leia-el-libro.wav,./stim/wavs/puertorican_match_declarative-narrow-focus_David-leia-el-libro.wav,,,,,,,,,,,,,,,,,,,,,,,,,,,,,,,,,,,,,,,,,,,,,,,,,,,,,,,,
,,,,,,,5fecd5fa7e067ae6bd9cc8d2,60568611ec04488a9e9da93b,6056b5822ef63f50abb25db5,I am not familiar with Spanish,South,NA,no,2021-03-20_19h55.39.618,empathy_intonation_perc,2020.2.10,Win32,60,,,,,,,,,,1,argentine,0,0,2.230745,0,11,11,61,1,62,./stim/wavs/andalusian_mismatch_interrogative-total-yn_Mi-madre-come-la-fruta.wav,./stim/wavs/argentine_mismatch_interrogative-total-yn_Mi-madre-come-la-fruta.wav,./stim/wavs/castilian_mismatch_interrogative-total-yn_Mi-madre-come-la-fruta.wav,./stim/wavs/chilean_mismatch_interrogative-total-yn_Mi-madre-come-la-fruta.wav,./stim/wavs/cuban_mismatch_interrogative-total-yn_Mi-madre-come-la-fruta.wav,./stim/wavs/mexican_mismatch_interrogative-total-yn_Mi-madre-come-la-fruta.wav,./stim/wavs/peruvian_mismatch_interrogative-total-yn_Mi-madre-come-la-fruta.wav,./stim/wavs/puertorican_mismatch_interrogative-total-yn_Mi-madre-come-la-fruta.wav,,,,,,,,,,,,,,,,,,,,,,,,,,,,,,,,,,,,,,,,,,,,,,,,,,,,,,,,
,,,,,,,5fecd5fa7e067ae6bd9cc8d2,60568611ec04488a9e9da93b,6056b5822ef63f50abb25db5,I am not familiar with Spanish,South,NA,no,2021-03-20_19h55.39.618,empathy_intonation_perc,2020.2.10,Win32,60,,,,,,,,,,0,peruvian,0,1,2.102135,0,12,12,43,1,44,./stim/wavs/andalusian_mismatch_declarative-narrow-focus_La-maestra-vive-en-Paris.wav,./stim/wavs/argentine_mismatch_declarative-narrow-focus_La-maestra-vive-en-Paris.wav,./stim/wavs/castilian_mismatch_declarative-narrow-focus_La-maestra-vive-en-Paris.wav,./stim/wavs/chilean_mismatch_declarative-narrow-focus_La-maestra-vive-en-Paris.wav,./stim/wavs/cuban_mismatch_declarative-narrow-focus_La-maestra-vive-en-Paris.wav,./stim/wavs/mexican_mismatch_declarative-narrow-focus_La-maestra-vive-en-Paris.wav,./stim/wavs/peruvian_mismatch_declarative-narrow-focus_La-maestra-vive-en-Paris.wav,./stim/wavs/puertorican_mismatch_declarative-narrow-focus_La-maestra-vive-en-Paris.wav,,,,,,,,,,,,,,,,,,,,,,,,,,,,,,,,,,,,,,,,,,,,,,,,,,,,,,,,
,,,,,,,5fecd5fa7e067ae6bd9cc8d2,60568611ec04488a9e9da93b,6056b5822ef63f50abb25db5,I am not familiar with Spanish,South,NA,no,2021-03-20_19h55.39.618,empathy_intonation_perc,2020.2.10,Win32,60,,,,,,,,,,1,andalusian,0,0,1.442955,0,13,13,16,1,17,./stim/wavs/andalusian_match_interrogative-partial-wh_Cuando-bebia-el-vino.wav,./stim/wavs/argentine_match_interrogative-partial-wh_Cuando-bebia-el-vino.wav,./stim/wavs/castilian_match_interrogative-partial-wh_Cuando-bebia-el-vino.wav,./stim/wavs/chilean_match_interrogative-partial-wh_Cuando-bebia-el-vino.wav,./stim/wavs/cuban_match_interrogative-partial-wh_Cuando-bebia-el-vino.wav,./stim/wavs/mexican_match_interrogative-partial-wh_Cuando-bebia-el-vino.wav,./stim/wavs/peruvian_match_interrogative-partial-wh_Cuando-bebia-el-vino.wav,./stim/wavs/puertorican_match_interrogative-partial-wh_Cuando-bebia-el-vino.wav,,,,,,,,,,,,,,,,,,,,,,,,,,,,,,,,,,,,,,,,,,,,,,,,,,,,,,,,
,,,,,,,5fecd5fa7e067ae6bd9cc8d2,60568611ec04488a9e9da93b,6056b5822ef63f50abb25db5,I am not familiar with Spanish,South,NA,no,2021-03-20_19h55.39.618,empathy_intonation_perc,2020.2.10,Win32,60,,,,,,,,,,0,peruvian,0,1,2.19458,0,14,14,8,1,9,./stim/wavs/andalusian_match_declarative-narrow-focus_Ana-lleva-el-abrigo.wav,./stim/wavs/argentine_match_declarative-narrow-focus_Ana-lleva-el-abrigo.wav,./stim/wavs/castilian_match_declarative-narrow-focus_Ana-lleva-el-abrigo.wav,./stim/wavs/chilean_match_declarative-narrow-focus_Ana-lleva-el-abrigo.wav,./stim/wavs/cuban_match_declarative-narrow-focus_Ana-lleva-el-abrigo.wav,./stim/wavs/mexican_match_declarative-narrow-focus_Ana-lleva-el-abrigo.wav,./stim/wavs/peruvian_match_declarative-narrow-focus_Ana-lleva-el-abrigo.wav,./stim/wavs/puertorican_match_declarative-narrow-focus_Ana-lleva-el-abrigo.wav,,,,,,,,,,,,,,,,,,,,,,,,,,,,,,,,,,,,,,,,,,,,,,,,,,,,,,,,
,,,,,,,5fecd5fa7e067ae6bd9cc8d2,60568611ec04488a9e9da93b,6056b5822ef63f50abb25db5,I am not familiar with Spanish,South,NA,no,2021-03-20_19h55.39.618,empathy_intonation_perc,2020.2.10,Win32,60,,,,,,,,,,1,peruvian,1,1,1.603845,0,15,15,22,1,23,./stim/wavs/andalusian_match_interrogative-partial-wh_Por-que-hablaba-del-agua.wav,./stim/wavs/argentine_match_interrogative-partial-wh_Por-que-hablaba-del-agua.wav,./stim/wavs/castilian_match_interrogative-partial-wh_Por-que-hablaba-del-agua.wav,./stim/wavs/chilean_match_interrogative-partial-wh_Por-que-hablaba-del-agua.wav,./stim/wavs/cuban_match_interrogative-partial-wh_Por-que-hablaba-del-agua.wav,./stim/wavs/mexican_match_interrogative-partial-wh_Por-que-hablaba-del-agua.wav,./stim/wavs/peruvian_match_interrogative-partial-wh_Por-que-hablaba-del-agua.wav,./stim/wavs/puertorican_match_interrogative-partial-wh_Por-que-hablaba-del-agua.wav,,,,,,,,,,,,,,,,,,,,,,,,,,,,,,,,,,,,,,,,,,,,,,,,,,,,,,,,
,,,,,,,5fecd5fa7e067ae6bd9cc8d2,60568611ec04488a9e9da93b,6056b5822ef63f50abb25db5,I am not familiar with Spanish,South,NA,no,2021-03-20_19h55.39.618,empathy_intonation_perc,2020.2.10,Win32,60,,,,,,,,,,1,puertorican,1,1,1.55793,0,16,16,51,1,52,./stim/wavs/andalusian_mismatch_interrogative-partial-wh_Por-que-desayuna-muy-bien.wav,./stim/wavs/argentine_mismatch_interrogative-partial-wh_Por-que-desayuna-muy-bien.wav,./stim/wavs/castilian_mismatch_interrogative-partial-wh_Por-que-desayuna-muy-bien.wav,./stim/wavs/chilean_mismatch_interrogative-partial-wh_Por-que-desayuna-muy-bien.wav,./stim/wavs/cuban_mismatch_interrogative-partial-wh_Por-que-desayuna-muy-bien.wav,./stim/wavs/mexican_mismatch_interrogative-partial-wh_Por-que-desayuna-muy-bien.wav,./stim/wavs/peruvian_mismatch_interrogative-partial-wh_Por-que-desayuna-muy-bien.wav,./stim/wavs/puertorican_mismatch_interrogative-partial-wh_Por-que-desayuna-muy-bien.wav,,,,,,,,,,,,,,,,,,,,,,,,,,,,,,,,,,,,,,,,,,,,,,,,,,,,,,,,
,,,,,,,5fecd5fa7e067ae6bd9cc8d2,60568611ec04488a9e9da93b,6056b5822ef63f50abb25db5,I am not familiar with Spanish,South,NA,no,2021-03-20_19h55.39.618,empathy_intonation_perc,2020.2.10,Win32,60,,,,,,,,,,0,argentine,0,1,1.704535,0,17,17,14,1,15,./stim/wavs/andalusian_match_declarative-narrow-focus_Mariano-habla-del-tiempo.wav,./stim/wavs/argentine_match_declarative-narrow-focus_Mariano-habla-del-tiempo.wav,./stim/wavs/castilian_match_declarative-narrow-focus_Mariano-habla-del-tiempo.wav,./stim/wavs/chilean_match_declarative-narrow-focus_Mariano-habla-del-tiempo.wav,./stim/wavs/cuban_match_declarative-narrow-focus_Mariano-habla-del-tiempo.wav,./stim/wavs/mexican_match_declarative-narrow-focus_Mariano-habla-del-tiempo.wav,./stim/wavs/peruvian_match_declarative-narrow-focus_Mariano-habla-del-tiempo.wav,./stim/wavs/puertorican_match_declarative-narrow-focus_Mariano-habla-del-tiempo.wav,,,,,,,,,,,,,,,,,,,,,,,,,,,,,,,,,,,,,,,,,,,,,,,,,,,,,,,,
,,,,,,,5fecd5fa7e067ae6bd9cc8d2,60568611ec04488a9e9da93b,6056b5822ef63f50abb25db5,I am not familiar with Spanish,South,NA,no,2021-03-20_19h55.39.618,empathy_intonation_perc,2020.2.10,Win32,60,,,,,,,,,,1,chilean,0,0,1.421405,0,18,18,49,1,50,./stim/wavs/andalusian_mismatch_interrogative-partial-wh_Cuando-lavaba-el-plato.wav,./stim/wavs/argentine_mismatch_interrogative-partial-wh_Cuando-lavaba-el-plato.wav,./stim/wavs/castilian_mismatch_interrogative-partial-wh_Cuando-lavaba-el-plato.wav,./stim/wavs/chilean_mismatch_interrogative-partial-wh_Cuando-lavaba-el-plato.wav,./stim/wavs/cuban_mismatch_interrogative-partial-wh_Cuando-lavaba-el-plato.wav,./stim/wavs/mexican_mismatch_interrogative-partial-wh_Cuando-lavaba-el-plato.wav,./stim/wavs/peruvian_mismatch_interrogative-partial-wh_Cuando-lavaba-el-plato.wav,./stim/wavs/puertorican_mismatch_interrogative-partial-wh_Cuando-lavaba-el-plato.wav,,,,,,,,,,,,,,,,,,,,,,,,,,,,,,,,,,,,,,,,,,,,,,,,,,,,,,,,
,,,,,,,5fecd5fa7e067ae6bd9cc8d2,60568611ec04488a9e9da93b,6056b5822ef63f50abb25db5,I am not familiar with Spanish,South,NA,no,2021-03-20_19h55.39.618,empathy_intonation_perc,2020.2.10,Win32,60,,,,,,,,,,1,andalusian,0,0,1.454585,0,19,19,27,1,28,./stim/wavs/andalusian_match_interrogative-total-yn_Emilio-ama-la-marcha.wav,./stim/wavs/argentine_match_interrogative-total-yn_Emilio-ama-la-marcha.wav,./stim/wavs/castilian_match_interrogative-total-yn_Emilio-ama-la-marcha.wav,./stim/wavs/chilean_match_interrogative-total-yn_Emilio-ama-la-marcha.wav,./stim/wavs/cuban_match_interrogative-total-yn_Emilio-ama-la-marcha.wav,./stim/wavs/mexican_match_interrogative-total-yn_Emilio-ama-la-marcha.wav,./stim/wavs/peruvian_match_interrogative-total-yn_Emilio-ama-la-marcha.wav,./stim/wavs/puertorican_match_interrogative-total-yn_Emilio-ama-la-marcha.wav,,,,,,,,,,,,,,,,,,,,,,,,,,,,,,,,,,,,,,,,,,,,,,,,,,,,,,,,
,,,,,,,5fecd5fa7e067ae6bd9cc8d2,60568611ec04488a9e9da93b,6056b5822ef63f50abb25db5,I am not familiar with Spanish,South,NA,no,2021-03-20_19h55.39.618,empathy_intonation_perc,2020.2.10,Win32,60,,,,,,,,,,0,cuban,0,1,1.415945,0,20,20,36,1,37,./stim/wavs/andalusian_mismatch_declarative-broad-focus_La-nina-lava-el-plato.wav,./stim/wavs/argentine_mismatch_declarative-broad-focus_La-nina-lava-el-plato.wav,./stim/wavs/castilian_mismatch_declarative-broad-focus_La-nina-lava-el-plato.wav,./stim/wavs/chilean_mismatch_declarative-broad-focus_La-nina-lava-el-plato.wav,./stim/wavs/cuban_mismatch_declarative-broad-focus_La-nina-lava-el-plato.wav,./stim/wavs/mexican_mismatch_declarative-broad-focus_La-nina-lava-el-plato.wav,./stim/wavs/peruvian_mismatch_declarative-broad-focus_La-nina-lava-el-plato.wav,./stim/wavs/puertorican_mismatch_declarative-broad-focus_La-nina-lava-el-plato.wav,,,,,,,,,,,,,,,,,,,,,,,,,,,,,,,,,,,,,,,,,,,,,,,,,,,,,,,,
,,,,,,,5fecd5fa7e067ae6bd9cc8d2,60568611ec04488a9e9da93b,6056b5822ef63f50abb25db5,I am not familiar with Spanish,South,NA,no,2021-03-20_19h55.39.618,empathy_intonation_perc,2020.2.10,Win32,60,,,,,,,,,,0,mexican,0,1,1.31039,0,21,21,13,1,14,./stim/wavs/andalusian_match_declarative-narrow-focus_Maria-bebe-el-vino.wav,./stim/wavs/argentine_match_declarative-narrow-focus_Maria-bebe-el-vino.wav,./stim/wavs/castilian_match_declarative-narrow-focus_Maria-bebe-el-vino.wav,./stim/wavs/chilean_match_declarative-narrow-focus_Maria-bebe-el-vino.wav,./stim/wavs/cuban_match_declarative-narrow-focus_Maria-bebe-el-vino.wav,./stim/wavs/mexican_match_declarative-narrow-focus_Maria-bebe-el-vino.wav,./stim/wavs/peruvian_match_declarative-narrow-focus_Maria-bebe-el-vino.wav,./stim/wavs/puertorican_match_declarative-narrow-focus_Maria-bebe-el-vino.wav,,,,,,,,,,,,,,,,,,,,,,,,,,,,,,,,,,,,,,,,,,,,,,,,,,,,,,,,
,,,,,,,5fecd5fa7e067ae6bd9cc8d2,60568611ec04488a9e9da93b,6056b5822ef63f50abb25db5,I am not familiar with Spanish,South,NA,no,2021-03-20_19h55.39.618,empathy_intonation_perc,2020.2.10,Win32,60,,,,,,,,,,1,puertorican,0,0,1.61978,0,22,22,59,1,60,./stim/wavs/andalusian_mismatch_interrogative-total-yn_La-maestra-vive-en-Paris.wav,./stim/wavs/argentine_mismatch_interrogative-total-yn_La-maestra-vive-en-Paris.wav,./stim/wavs/castilian_mismatch_interrogative-total-yn_La-maestra-vive-en-Paris.wav,./stim/wavs/chilean_mismatch_interrogative-total-yn_La-maestra-vive-en-Paris.wav,./stim/wavs/cuban_mismatch_interrogative-total-yn_La-maestra-vive-en-Paris.wav,./stim/wavs/mexican_mismatch_interrogative-total-yn_La-maestra-vive-en-Paris.wav,./stim/wavs/peruvian_mismatch_interrogative-total-yn_La-maestra-vive-en-Paris.wav,./stim/wavs/puertorican_mismatch_interrogative-total-yn_La-maestra-vive-en-Paris.wav,,,,,,,,,,,,,,,,,,,,,,,,,,,,,,,,,,,,,,,,,,,,,,,,,,,,,,,,
,,,,,,,5fecd5fa7e067ae6bd9cc8d2,60568611ec04488a9e9da93b,6056b5822ef63f50abb25db5,I am not familiar with Spanish,South,NA,no,2021-03-20_19h55.39.618,empathy_intonation_perc,2020.2.10,Win32,60,,,,,,,,,,0,argentine,0,1,1.30827,0,23,23,5,1,6,./stim/wavs/andalusian_match_declarative-broad-focus_Maria-bebe-el-vino.wav,./stim/wavs/argentine_match_declarative-broad-focus_Maria-bebe-el-vino.wav,./stim/wavs/castilian_match_declarative-broad-focus_Maria-bebe-el-vino.wav,./stim/wavs/chilean_match_declarative-broad-focus_Maria-bebe-el-vino.wav,./stim/wavs/cuban_match_declarative-broad-focus_Maria-bebe-el-vino.wav,./stim/wavs/mexican_match_declarative-broad-focus_Maria-bebe-el-vino.wav,./stim/wavs/peruvian_match_declarative-broad-focus_Maria-bebe-el-vino.wav,./stim/wavs/puertorican_match_declarative-broad-focus_Maria-bebe-el-vino.wav,,,,,,,,,,,,,,,,,,,,,,,,,,,,,,,,,,,,,,,,,,,,,,,,,,,,,,,,
,,,,,,,5fecd5fa7e067ae6bd9cc8d2,60568611ec04488a9e9da93b,6056b5822ef63f50abb25db5,I am not familiar with Spanish,South,NA,no,2021-03-20_19h55.39.618,empathy_intonation_perc,2020.2.10,Win32,60,,,,,,,,,,0,peruvian,0,1,1.778775,0,24,24,44,1,45,./stim/wavs/andalusian_mismatch_declarative-narrow-focus_La-nina-lava-el-plato.wav,./stim/wavs/argentine_mismatch_declarative-narrow-focus_La-nina-lava-el-plato.wav,./stim/wavs/castilian_mismatch_declarative-narrow-focus_La-nina-lava-el-plato.wav,./stim/wavs/chilean_mismatch_declarative-narrow-focus_La-nina-lava-el-plato.wav,./stim/wavs/cuban_mismatch_declarative-narrow-focus_La-nina-lava-el-plato.wav,./stim/wavs/mexican_mismatch_declarative-narrow-focus_La-nina-lava-el-plato.wav,./stim/wavs/peruvian_mismatch_declarative-narrow-focus_La-nina-lava-el-plato.wav,./stim/wavs/puertorican_mismatch_declarative-narrow-focus_La-nina-lava-el-plato.wav,,,,,,,,,,,,,,,,,,,,,,,,,,,,,,,,,,,,,,,,,,,,,,,,,,,,,,,,
,,,,,,,5fecd5fa7e067ae6bd9cc8d2,60568611ec04488a9e9da93b,6056b5822ef63f50abb25db5,I am not familiar with Spanish,South,NA,no,2021-03-20_19h55.39.618,empathy_intonation_perc,2020.2.10,Win32,60,,,,,,,,,,1,peruvian,1,1,2.27681,0,25,25,63,1,64,./stim/wavs/andalusian_mismatch_interrogative-total-yn_Mi-tia-odia-la-lluvia.wav,./stim/wavs/argentine_mismatch_interrogative-total-yn_Mi-tia-odia-la-lluvia.wav,./stim/wavs/castilian_mismatch_interrogative-total-yn_Mi-tia-odia-la-lluvia.wav,./stim/wavs/chilean_mismatch_interrogative-total-yn_Mi-tia-odia-la-lluvia.wav,./stim/wavs/cuban_mismatch_interrogative-total-yn_Mi-tia-odia-la-lluvia.wav,./stim/wavs/mexican_mismatch_interrogative-total-yn_Mi-tia-odia-la-lluvia.wav,./stim/wavs/peruvian_mismatch_interrogative-total-yn_Mi-tia-odia-la-lluvia.wav,./stim/wavs/puertorican_mismatch_interrogative-total-yn_Mi-tia-odia-la-lluvia.wav,,,,,,,,,,,,,,,,,,,,,,,,,,,,,,,,,,,,,,,,,,,,,,,,,,,,,,,,
,,,,,,,5fecd5fa7e067ae6bd9cc8d2,60568611ec04488a9e9da93b,6056b5822ef63f50abb25db5,I am not familiar with Spanish,South,NA,no,2021-03-20_19h55.39.618,empathy_intonation_perc,2020.2.10,Win32,60,,,,,,,,,,0,cuban,1,0,1.75422,0,26,26,33,1,34,./stim/wavs/andalusian_mismatch_declarative-broad-focus_El-hombre-mira-la-luna.wav,./stim/wavs/argentine_mismatch_declarative-broad-focus_El-hombre-mira-la-luna.wav,./stim/wavs/castilian_mismatch_declarative-broad-focus_El-hombre-mira-la-luna.wav,./stim/wavs/chilean_mismatch_declarative-broad-focus_El-hombre-mira-la-luna.wav,./stim/wavs/cuban_mismatch_declarative-broad-focus_El-hombre-mira-la-luna.wav,./stim/wavs/mexican_mismatch_declarative-broad-focus_El-hombre-mira-la-luna.wav,./stim/wavs/peruvian_mismatch_declarative-broad-focus_El-hombre-mira-la-luna.wav,./stim/wavs/puertorican_mismatch_declarative-broad-focus_El-hombre-mira-la-luna.wav,,,,,,,,,,,,,,,,,,,,,,,,,,,,,,,,,,,,,,,,,,,,,,,,,,,,,,,,
,,,,,,,5fecd5fa7e067ae6bd9cc8d2,60568611ec04488a9e9da93b,6056b5822ef63f50abb25db5,I am not familiar with Spanish,South,NA,no,2021-03-20_19h55.39.618,empathy_intonation_perc,2020.2.10,Win32,60,,,,,,,,,,0,puertorican,0,1,1.56844,0,27,27,39,1,40,./stim/wavs/andalusian_mismatch_declarative-broad-focus_Mi-tia-odia-la-lluvia.wav,./stim/wavs/argentine_mismatch_declarative-broad-focus_Mi-tia-odia-la-lluvia.wav,./stim/wavs/castilian_mismatch_declarative-broad-focus_Mi-tia-odia-la-lluvia.wav,./stim/wavs/chilean_mismatch_declarative-broad-focus_Mi-tia-odia-la-lluvia.wav,./stim/wavs/cuban_mismatch_declarative-broad-focus_Mi-tia-odia-la-lluvia.wav,./stim/wavs/mexican_mismatch_declarative-broad-focus_Mi-tia-odia-la-lluvia.wav,./stim/wavs/peruvian_mismatch_declarative-broad-focus_Mi-tia-odia-la-lluvia.wav,./stim/wavs/puertorican_mismatch_declarative-broad-focus_Mi-tia-odia-la-lluvia.wav,,,,,,,,,,,,,,,,,,,,,,,,,,,,,,,,,,,,,,,,,,,,,,,,,,,,,,,,
,,,,,,,5fecd5fa7e067ae6bd9cc8d2,60568611ec04488a9e9da93b,6056b5822ef63f50abb25db5,I am not familiar with Spanish,South,NA,no,2021-03-20_19h55.39.618,empathy_intonation_perc,2020.2.10,Win32,60,,,,,,,,,,1,cuban,0,0,1.39314,0,28,28,58,1,59,./stim/wavs/andalusian_mismatch_interrogative-total-yn_El-nino-oye-el-rio.wav,./stim/wavs/argentine_mismatch_interrogative-total-yn_El-nino-oye-el-rio.wav,./stim/wavs/castilian_mismatch_interrogative-total-yn_El-nino-oye-el-rio.wav,./stim/wavs/chilean_mismatch_interrogative-total-yn_El-nino-oye-el-rio.wav,./stim/wavs/cuban_mismatch_interrogative-total-yn_El-nino-oye-el-rio.wav,./stim/wavs/mexican_mismatch_interrogative-total-yn_El-nino-oye-el-rio.wav,./stim/wavs/peruvian_mismatch_interrogative-total-yn_El-nino-oye-el-rio.wav,./stim/wavs/puertorican_mismatch_interrogative-total-yn_El-nino-oye-el-rio.wav,,,,,,,,,,,,,,,,,,,,,,,,,,,,,,,,,,,,,,,,,,,,,,,,,,,,,,,,
,,,,,,,5fecd5fa7e067ae6bd9cc8d2,60568611ec04488a9e9da93b,6056b5822ef63f50abb25db5,I am not familiar with Spanish,South,NA,no,2021-03-20_19h55.39.618,empathy_intonation_perc,2020.2.10,Win32,60,,,,,,,,,,0,castilian,0,1,1.810925,0,29,29,1,1,2,./stim/wavs/andalusian_match_declarative-broad-focus_Daniel-iba-a-Bolivia.wav,./stim/wavs/argentine_match_declarative-broad-focus_Daniel-iba-a-Bolivia.wav,./stim/wavs/castilian_match_declarative-broad-focus_Daniel-iba-a-Bolivia.wav,./stim/wavs/chilean_match_declarative-broad-focus_Daniel-iba-a-Bolivia.wav,./stim/wavs/cuban_match_declarative-broad-focus_Daniel-iba-a-Bolivia.wav,./stim/wavs/mexican_match_declarative-broad-focus_Daniel-iba-a-Bolivia.wav,./stim/wavs/peruvian_match_declarative-broad-focus_Daniel-iba-a-Bolivia.wav,./stim/wavs/puertorican_match_declarative-broad-focus_Daniel-iba-a-Bolivia.wav,,,,,,,,,,,,,,,,,,,,,,,,,,,,,,,,,,,,,,,,,,,,,,,,,,,,,,,,
,,,,,,,5fecd5fa7e067ae6bd9cc8d2,60568611ec04488a9e9da93b,6056b5822ef63f50abb25db5,I am not familiar with Spanish,South,NA,no,2021-03-20_19h55.39.618,empathy_intonation_perc,2020.2.10,Win32,60,,,,,,,,,,1,mexican,0,0,1.57147,0,30,30,25,1,26,./stim/wavs/andalusian_match_interrogative-total-yn_Daniel-iba-a-Bolivia.wav,./stim/wavs/argentine_match_interrogative-total-yn_Daniel-iba-a-Bolivia.wav,./stim/wavs/castilian_match_interrogative-total-yn_Daniel-iba-a-Bolivia.wav,./stim/wavs/chilean_match_interrogative-total-yn_Daniel-iba-a-Bolivia.wav,./stim/wavs/cuban_match_interrogative-total-yn_Daniel-iba-a-Bolivia.wav,./stim/wavs/mexican_match_interrogative-total-yn_Daniel-iba-a-Bolivia.wav,./stim/wavs/peruvian_match_interrogative-total-yn_Daniel-iba-a-Bolivia.wav,./stim/wavs/puertorican_match_interrogative-total-yn_Daniel-iba-a-Bolivia.wav,,,,,,,,,,,,,,,,,,,,,,,,,,,,,,,,,,,,,,,,,,,,,,,,,,,,,,,,
,,,,,,,5fecd5fa7e067ae6bd9cc8d2,60568611ec04488a9e9da93b,6056b5822ef63f50abb25db5,I am not familiar with Spanish,South,NA,no,2021-03-20_19h55.39.618,empathy_intonation_perc,2020.2.10,Win32,60,,,,,,,,,,0,puertorican,0,1,2.07879,0,31,31,35,1,36,./stim/wavs/andalusian_mismatch_declarative-broad-focus_La-maestra-vive-en-Paris.wav,./stim/wavs/argentine_mismatch_declarative-broad-focus_La-maestra-vive-en-Paris.wav,./stim/wavs/castilian_mismatch_declarative-broad-focus_La-maestra-vive-en-Paris.wav,./stim/wavs/chilean_mismatch_declarative-broad-focus_La-maestra-vive-en-Paris.wav,./stim/wavs/cuban_mismatch_declarative-broad-focus_La-maestra-vive-en-Paris.wav,./stim/wavs/mexican_mismatch_declarative-broad-focus_La-maestra-vive-en-Paris.wav,./stim/wavs/peruvian_mismatch_declarative-broad-focus_La-maestra-vive-en-Paris.wav,./stim/wavs/puertorican_mismatch_declarative-broad-focus_La-maestra-vive-en-Paris.wav,,,,,,,,,,,,,,,,,,,,,,,,,,,,,,,,,,,,,,,,,,,,,,,,,,,,,,,,
,,,,,,,5fecd5fa7e067ae6bd9cc8d2,60568611ec04488a9e9da93b,6056b5822ef63f50abb25db5,I am not familiar with Spanish,South,NA,no,2021-03-20_19h55.39.618,empathy_intonation_perc,2020.2.10,Win32,60,,,,,,,,,,0,andalusian,0,1,1.44554,0,32,32,9,1,10,./stim/wavs/andalusian_match_declarative-narrow-focus_Daniel-iba-a-Bolivia.wav,./stim/wavs/argentine_match_declarative-narrow-focus_Daniel-iba-a-Bolivia.wav,./stim/wavs/castilian_match_declarative-narrow-focus_Daniel-iba-a-Bolivia.wav,./stim/wavs/chilean_match_declarative-narrow-focus_Daniel-iba-a-Bolivia.wav,./stim/wavs/cuban_match_declarative-narrow-focus_Daniel-iba-a-Bolivia.wav,./stim/wavs/mexican_match_declarative-narrow-focus_Daniel-iba-a-Bolivia.wav,./stim/wavs/peruvian_match_declarative-narrow-focus_Daniel-iba-a-Bolivia.wav,./stim/wavs/puertorican_match_declarative-narrow-focus_Daniel-iba-a-Bolivia.wav,,,,,,,,,,,,,,,,,,,,,,,,,,,,,,,,,,,,,,,,,,,,,,,,,,,,,,,,
,,,,,,,5fecd5fa7e067ae6bd9cc8d2,60568611ec04488a9e9da93b,6056b5822ef63f50abb25db5,I am not familiar with Spanish,South,NA,no,2021-03-20_19h55.39.618,empathy_intonation_perc,2020.2.10,Win32,60,,,,,,,,,,0,puertorican,1,0,1.949455,0,33,33,45,1,46,./stim/wavs/andalusian_mismatch_declarative-narrow-focus_Mi-madre-come-la-fruta.wav,./stim/wavs/argentine_mismatch_declarative-narrow-focus_Mi-madre-come-la-fruta.wav,./stim/wavs/castilian_mismatch_declarative-narrow-focus_Mi-madre-come-la-fruta.wav,./stim/wavs/chilean_mismatch_declarative-narrow-focus_Mi-madre-come-la-fruta.wav,./stim/wavs/cuban_mismatch_declarative-narrow-focus_Mi-madre-come-la-fruta.wav,./stim/wavs/mexican_mismatch_declarative-narrow-focus_Mi-madre-come-la-fruta.wav,./stim/wavs/peruvian_mismatch_declarative-narrow-focus_Mi-madre-come-la-fruta.wav,./stim/wavs/puertorican_mismatch_declarative-narrow-focus_Mi-madre-come-la-fruta.wav,,,,,,,,,,,,,,,,,,,,,,,,,,,,,,,,,,,,,,,,,,,,,,,,,,,,,,,,
,,,,,,,5fecd5fa7e067ae6bd9cc8d2,60568611ec04488a9e9da93b,6056b5822ef63f50abb25db5,I am not familiar with Spanish,South,NA,no,2021-03-20_19h55.39.618,empathy_intonation_perc,2020.2.10,Win32,60,,,,,,,,,,0,cuban,0,1,1.61867,0,34,34,12,1,13,./stim/wavs/andalusian_match_declarative-narrow-focus_Manuela-vende-el-carro.wav,./stim/wavs/argentine_match_declarative-narrow-focus_Manuela-vende-el-carro.wav,./stim/wavs/castilian_match_declarative-narrow-focus_Manuela-vende-el-carro.wav,./stim/wavs/chilean_match_declarative-narrow-focus_Manuela-vende-el-carro.wav,./stim/wavs/cuban_match_declarative-narrow-focus_Manuela-vende-el-carro.wav,./stim/wavs/mexican_match_declarative-narrow-focus_Manuela-vende-el-carro.wav,./stim/wavs/peruvian_match_declarative-narrow-focus_Manuela-vende-el-carro.wav,./stim/wavs/puertorican_match_declarative-narrow-focus_Manuela-vende-el-carro.wav,,,,,,,,,,,,,,,,,,,,,,,,,,,,,,,,,,,,,,,,,,,,,,,,,,,,,,,,
,,,,,,,5fecd5fa7e067ae6bd9cc8d2,60568611ec04488a9e9da93b,6056b5822ef63f50abb25db5,I am not familiar with Spanish,South,NA,no,2021-03-20_19h55.39.618,empathy_intonation_perc,2020.2.10,Win32,60,,,,,,,,,,1,chilean,1,1,1.30287,0,35,35,21,1,22,./stim/wavs/andalusian_match_interrogative-partial-wh_Por-que-ama-la-navidad.wav,./stim/wavs/argentine_match_interrogative-partial-wh_Por-que-ama-la-navidad.wav,./stim/wavs/castilian_match_interrogative-partial-wh_Por-que-ama-la-navidad.wav,./stim/wavs/chilean_match_interrogative-partial-wh_Por-que-ama-la-navidad.wav,./stim/wavs/cuban_match_interrogative-partial-wh_Por-que-ama-la-navidad.wav,./stim/wavs/mexican_match_interrogative-partial-wh_Por-que-ama-la-navidad.wav,./stim/wavs/peruvian_match_interrogative-partial-wh_Por-que-ama-la-navidad.wav,./stim/wavs/puertorican_match_interrogative-partial-wh_Por-que-ama-la-navidad.wav,,,,,,,,,,,,,,,,,,,,,,,,,,,,,,,,,,,,,,,,,,,,,,,,,,,,,,,,
,,,,,,,5fecd5fa7e067ae6bd9cc8d2,60568611ec04488a9e9da93b,6056b5822ef63f50abb25db5,I am not familiar with Spanish,South,NA,no,2021-03-20_19h55.39.618,empathy_intonation_perc,2020.2.10,Win32,60,,,,,,,,,,0,puertorican,0,1,1.253325,0,36,36,6,1,7,./stim/wavs/andalusian_match_declarative-broad-focus_Mariano-habla-del-tiempo.wav,./stim/wavs/argentine_match_declarative-broad-focus_Mariano-habla-del-tiempo.wav,./stim/wavs/castilian_match_declarative-broad-focus_Mariano-habla-del-tiempo.wav,./stim/wavs/chilean_match_declarative-broad-focus_Mariano-habla-del-tiempo.wav,./stim/wavs/cuban_match_declarative-broad-focus_Mariano-habla-del-tiempo.wav,./stim/wavs/mexican_match_declarative-broad-focus_Mariano-habla-del-tiempo.wav,./stim/wavs/peruvian_match_declarative-broad-focus_Mariano-habla-del-tiempo.wav,./stim/wavs/puertorican_match_declarative-broad-focus_Mariano-habla-del-tiempo.wav,,,,,,,,,,,,,,,,,,,,,,,,,,,,,,,,,,,,,,,,,,,,,,,,,,,,,,,,
,,,,,,,5fecd5fa7e067ae6bd9cc8d2,60568611ec04488a9e9da93b,6056b5822ef63f50abb25db5,I am not familiar with Spanish,South,NA,no,2021-03-20_19h55.39.618,empathy_intonation_perc,2020.2.10,Win32,60,,,,,,,,,,1,andalusian,1,1,1.43015,0,37,37,18,1,19,./stim/wavs/andalusian_match_interrogative-partial-wh_Cuando-lleva-el-abrigo.wav,./stim/wavs/argentine_match_interrogative-partial-wh_Cuando-lleva-el-abrigo.wav,./stim/wavs/castilian_match_interrogative-partial-wh_Cuando-lleva-el-abrigo.wav,./stim/wavs/chilean_match_interrogative-partial-wh_Cuando-lleva-el-abrigo.wav,./stim/wavs/cuban_match_interrogative-partial-wh_Cuando-lleva-el-abrigo.wav,./stim/wavs/mexican_match_interrogative-partial-wh_Cuando-lleva-el-abrigo.wav,./stim/wavs/peruvian_match_interrogative-partial-wh_Cuando-lleva-el-abrigo.wav,./stim/wavs/puertorican_match_interrogative-partial-wh_Cuando-lleva-el-abrigo.wav,,,,,,,,,,,,,,,,,,,,,,,,,,,,,,,,,,,,,,,,,,,,,,,,,,,,,,,,
,,,,,,,5fecd5fa7e067ae6bd9cc8d2,60568611ec04488a9e9da93b,6056b5822ef63f50abb25db5,I am not familiar with Spanish,South,NA,no,2021-03-20_19h55.39.618,empathy_intonation_perc,2020.2.10,Win32,60,,,,,,,,,,0,peruvian,0,1,2.359535,0,38,38,4,1,5,./stim/wavs/andalusian_match_declarative-broad-focus_Manuela-vende-el-carro.wav,./stim/wavs/argentine_match_declarative-broad-focus_Manuela-vende-el-carro.wav,./stim/wavs/castilian_match_declarative-broad-focus_Manuela-vende-el-carro.wav,./stim/wavs/chilean_match_declarative-broad-focus_Manuela-vende-el-carro.wav,./stim/wavs/cuban_match_declarative-broad-focus_Manuela-vende-el-carro.wav,./stim/wavs/mexican_match_declarative-broad-focus_Manuela-vende-el-carro.wav,./stim/wavs/peruvian_match_declarative-broad-focus_Manuela-vende-el-carro.wav,./stim/wavs/puertorican_match_declarative-broad-focus_Manuela-vende-el-carro.wav,,,,,,,,,,,,,,,,,,,,,,,,,,,,,,,,,,,,,,,,,,,,,,,,,,,,,,,,
,,,,,,,5fecd5fa7e067ae6bd9cc8d2,60568611ec04488a9e9da93b,6056b5822ef63f50abb25db5,I am not familiar with Spanish,South,NA,no,2021-03-20_19h55.39.618,empathy_intonation_perc,2020.2.10,Win32,60,,,,,,,,,,1,mexican,1,1,1.440035,0,39,39,53,1,54,./stim/wavs/andalusian_mismatch_interrogative-partial-wh_Por-que-oia-el-rio.wav,./stim/wavs/argentine_mismatch_interrogative-partial-wh_Por-que-oia-el-rio.wav,./stim/wavs/castilian_mismatch_interrogative-partial-wh_Por-que-oia-el-rio.wav,./stim/wavs/chilean_mismatch_interrogative-partial-wh_Por-que-oia-el-rio.wav,./stim/wavs/cuban_mismatch_interrogative-partial-wh_Por-que-oia-el-rio.wav,./stim/wavs/mexican_mismatch_interrogative-partial-wh_Por-que-oia-el-rio.wav,./stim/wavs/peruvian_mismatch_interrogative-partial-wh_Por-que-oia-el-rio.wav,./stim/wavs/puertorican_mismatch_interrogative-partial-wh_Por-que-oia-el-rio.wav,,,,,,,,,,,,,,,,,,,,,,,,,,,,,,,,,,,,,,,,,,,,,,,,,,,,,,,,
,,,,,,,5fecd5fa7e067ae6bd9cc8d2,60568611ec04488a9e9da93b,6056b5822ef63f50abb25db5,I am not familiar with Spanish,South,NA,no,2021-03-20_19h55.39.618,empathy_intonation_perc,2020.2.10,Win32,60,,,,,,,,,,0,peruvian,0,1,2.007505,0,40,40,2,1,3,./stim/wavs/andalusian_match_declarative-broad-focus_David-leia-el-libro.wav,./stim/wavs/argentine_match_declarative-broad-focus_David-leia-el-libro.wav,./stim/wavs/castilian_match_declarative-broad-focus_David-leia-el-libro.wav,./stim/wavs/chilean_match_declarative-broad-focus_David-leia-el-libro.wav,./stim/wavs/cuban_match_declarative-broad-focus_David-leia-el-libro.wav,./stim/wavs/mexican_match_declarative-broad-focus_David-leia-el-libro.wav,./stim/wavs/peruvian_match_declarative-broad-focus_David-leia-el-libro.wav,./stim/wavs/puertorican_match_declarative-broad-focus_David-leia-el-libro.wav,,,,,,,,,,,,,,,,,,,,,,,,,,,,,,,,,,,,,,,,,,,,,,,,,,,,,,,,
,,,,,,,5fecd5fa7e067ae6bd9cc8d2,60568611ec04488a9e9da93b,6056b5822ef63f50abb25db5,I am not familiar with Spanish,South,NA,no,2021-03-20_19h55.39.618,empathy_intonation_perc,2020.2.10,Win32,60,,,,,,,,,,0,chilean,0,1,1.55234,0,41,41,15,1,16,./stim/wavs/andalusian_match_declarative-narrow-focus_Marta-abre-el-regalo.wav,./stim/wavs/argentine_match_declarative-narrow-focus_Marta-abre-el-regalo.wav,./stim/wavs/castilian_match_declarative-narrow-focus_Marta-abre-el-regalo.wav,./stim/wavs/chilean_match_declarative-narrow-focus_Marta-abre-el-regalo.wav,./stim/wavs/cuban_match_declarative-narrow-focus_Marta-abre-el-regalo.wav,./stim/wavs/mexican_match_declarative-narrow-focus_Marta-abre-el-regalo.wav,./stim/wavs/peruvian_match_declarative-narrow-focus_Marta-abre-el-regalo.wav,./stim/wavs/puertorican_match_declarative-narrow-focus_Marta-abre-el-regalo.wav,,,,,,,,,,,,,,,,,,,,,,,,,,,,,,,,,,,,,,,,,,,,,,,,,,,,,,,,
,,,,,,,5fecd5fa7e067ae6bd9cc8d2,60568611ec04488a9e9da93b,6056b5822ef63f50abb25db5,I am not familiar with Spanish,South,NA,no,2021-03-20_19h55.39.618,empathy_intonation_perc,2020.2.10,Win32,60,,,,,,,,,,1,cuban,1,1,1.52485,0,42,42,52,1,53,./stim/wavs/andalusian_mismatch_interrogative-partial-wh_Por-que-odiaba-la-lluvia.wav,./stim/wavs/argentine_mismatch_interrogative-partial-wh_Por-que-odiaba-la-lluvia.wav,./stim/wavs/castilian_mismatch_interrogative-partial-wh_Por-que-odiaba-la-lluvia.wav,./stim/wavs/chilean_mismatch_interrogative-partial-wh_Por-que-odiaba-la-lluvia.wav,./stim/wavs/cuban_mismatch_interrogative-partial-wh_Por-que-odiaba-la-lluvia.wav,./stim/wavs/mexican_mismatch_interrogative-partial-wh_Por-que-odiaba-la-lluvia.wav,./stim/wavs/peruvian_mismatch_interrogative-partial-wh_Por-que-odiaba-la-lluvia.wav,./stim/wavs/puertorican_mismatch_interrogative-partial-wh_Por-que-odiaba-la-lluvia.wav,,,,,,,,,,,,,,,,,,,,,,,,,,,,,,,,,,,,,,,,,,,,,,,,,,,,,,,,
,,,,,,,5fecd5fa7e067ae6bd9cc8d2,60568611ec04488a9e9da93b,6056b5822ef63f50abb25db5,I am not familiar with Spanish,South,NA,no,2021-03-20_19h55.39.618,empathy_intonation_perc,2020.2.10,Win32,60,,,,,,,,,,1,mexican,0,0,1.408265,0,43,43,29,1,30,./stim/wavs/andalusian_match_interrogative-total-yn_Maria-bebe-el-vino.wav,./stim/wavs/argentine_match_interrogative-total-yn_Maria-bebe-el-vino.wav,./stim/wavs/castilian_match_interrogative-total-yn_Maria-bebe-el-vino.wav,./stim/wavs/chilean_match_interrogative-total-yn_Maria-bebe-el-vino.wav,./stim/wavs/cuban_match_interrogative-total-yn_Maria-bebe-el-vino.wav,./stim/wavs/mexican_match_interrogative-total-yn_Maria-bebe-el-vino.wav,./stim/wavs/peruvian_match_interrogative-total-yn_Maria-bebe-el-vino.wav,./stim/wavs/puertorican_match_interrogative-total-yn_Maria-bebe-el-vino.wav,,,,,,,,,,,,,,,,,,,,,,,,,,,,,,,,,,,,,,,,,,,,,,,,,,,,,,,,
,,,,,,,5fecd5fa7e067ae6bd9cc8d2,60568611ec04488a9e9da93b,6056b5822ef63f50abb25db5,I am not familiar with Spanish,South,NA,no,2021-03-20_19h55.39.618,empathy_intonation_perc,2020.2.10,Win32,60,,,,,,,,,,0,argentine,0,1,2.45806,0,44,44,37,1,38,./stim/wavs/andalusian_mismatch_declarative-broad-focus_Mi-madre-come-la-fruta.wav,./stim/wavs/argentine_mismatch_declarative-broad-focus_Mi-madre-come-la-fruta.wav,./stim/wavs/castilian_mismatch_declarative-broad-focus_Mi-madre-come-la-fruta.wav,./stim/wavs/chilean_mismatch_declarative-broad-focus_Mi-madre-come-la-fruta.wav,./stim/wavs/cuban_mismatch_declarative-broad-focus_Mi-madre-come-la-fruta.wav,./stim/wavs/mexican_mismatch_declarative-broad-focus_Mi-madre-come-la-fruta.wav,./stim/wavs/peruvian_mismatch_declarative-broad-focus_Mi-madre-come-la-fruta.wav,./stim/wavs/puertorican_mismatch_declarative-broad-focus_Mi-madre-come-la-fruta.wav,,,,,,,,,,,,,,,,,,,,,,,,,,,,,,,,,,,,,,,,,,,,,,,,,,,,,,,,
,,,,,,,5fecd5fa7e067ae6bd9cc8d2,60568611ec04488a9e9da93b,6056b5822ef63f50abb25db5,I am not familiar with Spanish,South,NA,no,2021-03-20_19h55.39.618,empathy_intonation_perc,2020.2.10,Win32,60,,,,,,,,,,1,peruvian,1,1,1.40151,0,45,45,23,1,24,./stim/wavs/andalusian_match_interrogative-partial-wh_Por-que-iba-a-Bolivia.wav,./stim/wavs/argentine_match_interrogative-partial-wh_Por-que-iba-a-Bolivia.wav,./stim/wavs/castilian_match_interrogative-partial-wh_Por-que-iba-a-Bolivia.wav,./stim/wavs/chilean_match_interrogative-partial-wh_Por-que-iba-a-Bolivia.wav,./stim/wavs/cuban_match_interrogative-partial-wh_Por-que-iba-a-Bolivia.wav,./stim/wavs/mexican_match_interrogative-partial-wh_Por-que-iba-a-Bolivia.wav,./stim/wavs/peruvian_match_interrogative-partial-wh_Por-que-iba-a-Bolivia.wav,./stim/wavs/puertorican_match_interrogative-partial-wh_Por-que-iba-a-Bolivia.wav,,,,,,,,,,,,,,,,,,,,,,,,,,,,,,,,,,,,,,,,,,,,,,,,,,,,,,,,
,,,,,,,5fecd5fa7e067ae6bd9cc8d2,60568611ec04488a9e9da93b,6056b5822ef63f50abb25db5,I am not familiar with Spanish,South,NA,no,2021-03-20_19h55.39.618,empathy_intonation_perc,2020.2.10,Win32,60,,,,,,,,,,1,peruvian,0,0,1.986365,0,46,46,28,1,29,./stim/wavs/andalusian_match_interrogative-total-yn_Manuela-vende-el-carro.wav,./stim/wavs/argentine_match_interrogative-total-yn_Manuela-vende-el-carro.wav,./stim/wavs/castilian_match_interrogative-total-yn_Manuela-vende-el-carro.wav,./stim/wavs/chilean_match_interrogative-total-yn_Manuela-vende-el-carro.wav,./stim/wavs/cuban_match_interrogative-total-yn_Manuela-vende-el-carro.wav,./stim/wavs/mexican_match_interrogative-total-yn_Manuela-vende-el-carro.wav,./stim/wavs/peruvian_match_interrogative-total-yn_Manuela-vende-el-carro.wav,./stim/wavs/puertorican_match_interrogative-total-yn_Manuela-vende-el-carro.wav,,,,,,,,,,,,,,,,,,,,,,,,,,,,,,,,,,,,,,,,,,,,,,,,,,,,,,,,
,,,,,,,5fecd5fa7e067ae6bd9cc8d2,60568611ec04488a9e9da93b,6056b5822ef63f50abb25db5,I am not familiar with Spanish,South,NA,no,2021-03-20_19h55.39.618,empathy_intonation_perc,2020.2.10,Win32,60,,,,,,,,,,0,puertorican,0,1,3.022065,0,47,47,46,1,47,./stim/wavs/andalusian_mismatch_declarative-narrow-focus_Mi-novio-viene-del-lago.wav,./stim/wavs/argentine_mismatch_declarative-narrow-focus_Mi-novio-viene-del-lago.wav,./stim/wavs/castilian_mismatch_declarative-narrow-focus_Mi-novio-viene-del-lago.wav,./stim/wavs/chilean_mismatch_declarative-narrow-focus_Mi-novio-viene-del-lago.wav,./stim/wavs/cuban_mismatch_declarative-narrow-focus_Mi-novio-viene-del-lago.wav,./stim/wavs/mexican_mismatch_declarative-narrow-focus_Mi-novio-viene-del-lago.wav,./stim/wavs/peruvian_mismatch_declarative-narrow-focus_Mi-novio-viene-del-lago.wav,./stim/wavs/puertorican_mismatch_declarative-narrow-focus_Mi-novio-viene-del-lago.wav,,,,,,,,,,,,,,,,,,,,,,,,,,,,,,,,,,,,,,,,,,,,,,,,,,,,,,,,
,,,,,,,5fecd5fa7e067ae6bd9cc8d2,60568611ec04488a9e9da93b,6056b5822ef63f50abb25db5,I am not familiar with Spanish,South,NA,no,2021-03-20_19h55.39.618,empathy_intonation_perc,2020.2.10,Win32,60,,,,,,,,,,1,chilean,1,1,2.102005,0,48,48,56,1,57,./stim/wavs/andalusian_mismatch_interrogative-total-yn_El-bebe-comia-muy-bien.wav,./stim/wavs/argentine_mismatch_interrogative-total-yn_El-bebe-comia-muy-bien.wav,./stim/wavs/castilian_mismatch_interrogative-total-yn_El-bebe-comia-muy-bien.wav,./stim/wavs/chilean_mismatch_interrogative-total-yn_El-bebe-comia-muy-bien.wav,./stim/wavs/cuban_mismatch_interrogative-total-yn_El-bebe-comia-muy-bien.wav,./stim/wavs/mexican_mismatch_interrogative-total-yn_El-bebe-comia-muy-bien.wav,./stim/wavs/peruvian_mismatch_interrogative-total-yn_El-bebe-comia-muy-bien.wav,./stim/wavs/puertorican_mismatch_interrogative-total-yn_El-bebe-comia-muy-bien.wav,,,,,,,,,,,,,,,,,,,,,,,,,,,,,,,,,,,,,,,,,,,,,,,,,,,,,,,,
,,,,,,,5fecd5fa7e067ae6bd9cc8d2,60568611ec04488a9e9da93b,6056b5822ef63f50abb25db5,I am not familiar with Spanish,South,NA,no,2021-03-20_19h55.39.618,empathy_intonation_perc,2020.2.10,Win32,60,,,,,,,,,,0,argentine,0,1,1.729155,0,49,49,47,1,48,./stim/wavs/andalusian_mismatch_declarative-narrow-focus_Mi-tia-odia-la-lluvia.wav,./stim/wavs/argentine_mismatch_declarative-narrow-focus_Mi-tia-odia-la-lluvia.wav,./stim/wavs/castilian_mismatch_declarative-narrow-focus_Mi-tia-odia-la-lluvia.wav,./stim/wavs/chilean_mismatch_declarative-narrow-focus_Mi-tia-odia-la-lluvia.wav,./stim/wavs/cuban_mismatch_declarative-narrow-focus_Mi-tia-odia-la-lluvia.wav,./stim/wavs/mexican_mismatch_declarative-narrow-focus_Mi-tia-odia-la-lluvia.wav,./stim/wavs/peruvian_mismatch_declarative-narrow-focus_Mi-tia-odia-la-lluvia.wav,./stim/wavs/puertorican_mismatch_declarative-narrow-focus_Mi-tia-odia-la-lluvia.wav,,,,,,,,,,,,,,,,,,,,,,,,,,,,,,,,,,,,,,,,,,,,,,,,,,,,,,,,
,,,,,,,5fecd5fa7e067ae6bd9cc8d2,60568611ec04488a9e9da93b,6056b5822ef63f50abb25db5,I am not familiar with Spanish,South,NA,no,2021-03-20_19h55.39.618,empathy_intonation_perc,2020.2.10,Win32,60,,,,,,,,,,1,andalusian,0,0,3.293995,0,50,50,30,1,31,./stim/wavs/andalusian_match_interrogative-total-yn_Mariano-habla-del-tiempo.wav,./stim/wavs/argentine_match_interrogative-total-yn_Mariano-habla-del-tiempo.wav,./stim/wavs/castilian_match_interrogative-total-yn_Mariano-habla-del-tiempo.wav,./stim/wavs/chilean_match_interrogative-total-yn_Mariano-habla-del-tiempo.wav,./stim/wavs/cuban_match_interrogative-total-yn_Mariano-habla-del-tiempo.wav,./stim/wavs/mexican_match_interrogative-total-yn_Mariano-habla-del-tiempo.wav,./stim/wavs/peruvian_match_interrogative-total-yn_Mariano-habla-del-tiempo.wav,./stim/wavs/puertorican_match_interrogative-total-yn_Mariano-habla-del-tiempo.wav,,,,,,,,,,,,,,,,,,,,,,,,,,,,,,,,,,,,,,,,,,,,,,,,,,,,,,,,
,,,,,,,5fecd5fa7e067ae6bd9cc8d2,60568611ec04488a9e9da93b,6056b5822ef63f50abb25db5,I am not familiar with Spanish,South,NA,no,2021-03-20_19h55.39.618,empathy_intonation_perc,2020.2.10,Win32,60,,,,,,,,,,1,castilian,1,1,1.532835,0,51,51,48,1,49,./stim/wavs/andalusian_mismatch_interrogative-partial-wh_Cuando-comia-la-fruta.wav,./stim/wavs/argentine_mismatch_interrogative-partial-wh_Cuando-comia-la-fruta.wav,./stim/wavs/castilian_mismatch_interrogative-partial-wh_Cuando-comia-la-fruta.wav,./stim/wavs/chilean_mismatch_interrogative-partial-wh_Cuando-comia-la-fruta.wav,./stim/wavs/cuban_mismatch_interrogative-partial-wh_Cuando-comia-la-fruta.wav,./stim/wavs/mexican_mismatch_interrogative-partial-wh_Cuando-comia-la-fruta.wav,./stim/wavs/peruvian_mismatch_interrogative-partial-wh_Cuando-comia-la-fruta.wav,./stim/wavs/puertorican_mismatch_interrogative-partial-wh_Cuando-comia-la-fruta.wav,,,,,,,,,,,,,,,,,,,,,,,,,,,,,,,,,,,,,,,,,,,,,,,,,,,,,,,,
,,,,,,,5fecd5fa7e067ae6bd9cc8d2,60568611ec04488a9e9da93b,6056b5822ef63f50abb25db5,I am not familiar with Spanish,South,NA,no,2021-03-20_19h55.39.618,empathy_intonation_perc,2020.2.10,Win32,60,,,,,,,,,,1,puertorican,1,1,1.75341,0,52,52,19,1,20,./stim/wavs/andalusian_match_interrogative-partial-wh_Cuando-vendia-el-carro.wav,./stim/wavs/argentine_match_interrogative-partial-wh_Cuando-vendia-el-carro.wav,./stim/wavs/castilian_match_interrogative-partial-wh_Cuando-vendia-el-carro.wav,./stim/wavs/chilean_match_interrogative-partial-wh_Cuando-vendia-el-carro.wav,./stim/wavs/cuban_match_interrogative-partial-wh_Cuando-vendia-el-carro.wav,./stim/wavs/mexican_match_interrogative-partial-wh_Cuando-vendia-el-carro.wav,./stim/wavs/peruvian_match_interrogative-partial-wh_Cuando-vendia-el-carro.wav,./stim/wavs/puertorican_match_interrogative-partial-wh_Cuando-vendia-el-carro.wav,,,,,,,,,,,,,,,,,,,,,,,,,,,,,,,,,,,,,,,,,,,,,,,,,,,,,,,,
,,,,,,,5fecd5fa7e067ae6bd9cc8d2,60568611ec04488a9e9da93b,6056b5822ef63f50abb25db5,I am not familiar with Spanish,South,NA,no,2021-03-20_19h55.39.618,empathy_intonation_perc,2020.2.10,Win32,60,,,,,,,,,,0,argentine,0,1,1.18576,0,53,53,41,1,42,./stim/wavs/andalusian_mismatch_declarative-narrow-focus_El-hombre-mira-la-luna.wav,./stim/wavs/argentine_mismatch_declarative-narrow-focus_El-hombre-mira-la-luna.wav,./stim/wavs/castilian_mismatch_declarative-narrow-focus_El-hombre-mira-la-luna.wav,./stim/wavs/chilean_mismatch_declarative-narrow-focus_El-hombre-mira-la-luna.wav,./stim/wavs/cuban_mismatch_declarative-narrow-focus_El-hombre-mira-la-luna.wav,./stim/wavs/mexican_mismatch_declarative-narrow-focus_El-hombre-mira-la-luna.wav,./stim/wavs/peruvian_mismatch_declarative-narrow-focus_El-hombre-mira-la-luna.wav,./stim/wavs/puertorican_mismatch_declarative-narrow-focus_El-hombre-mira-la-luna.wav,,,,,,,,,,,,,,,,,,,,,,,,,,,,,,,,,,,,,,,,,,,,,,,,,,,,,,,,
,,,,,,,5fecd5fa7e067ae6bd9cc8d2,60568611ec04488a9e9da93b,6056b5822ef63f50abb25db5,I am not familiar with Spanish,South,NA,no,2021-03-20_19h55.39.618,empathy_intonation_perc,2020.2.10,Win32,60,,,,,,,,,,1,cuban,0,0,1.45939,0,54,54,62,1,63,./stim/wavs/andalusian_mismatch_interrogative-total-yn_Mi-novio-viene-del-lago.wav,./stim/wavs/argentine_mismatch_interrogative-total-yn_Mi-novio-viene-del-lago.wav,./stim/wavs/castilian_mismatch_interrogative-total-yn_Mi-novio-viene-del-lago.wav,./stim/wavs/chilean_mismatch_interrogative-total-yn_Mi-novio-viene-del-lago.wav,./stim/wavs/cuban_mismatch_interrogative-total-yn_Mi-novio-viene-del-lago.wav,./stim/wavs/mexican_mismatch_interrogative-total-yn_Mi-novio-viene-del-lago.wav,./stim/wavs/peruvian_mismatch_interrogative-total-yn_Mi-novio-viene-del-lago.wav,./stim/wavs/puertorican_mismatch_interrogative-total-yn_Mi-novio-viene-del-lago.wav,,,,,,,,,,,,,,,,,,,,,,,,,,,,,,,,,,,,,,,,,,,,,,,,,,,,,,,,
,,,,,,,5fecd5fa7e067ae6bd9cc8d2,60568611ec04488a9e9da93b,6056b5822ef63f50abb25db5,I am not familiar with Spanish,South,NA,no,2021-03-20_19h55.39.618,empathy_intonation_perc,2020.2.10,Win32,60,,,,,,,,,,0,andalusian,0,1,1.36284,0,55,55,0,1,1,./stim/wavs/andalusian_match_declarative-broad-focus_Ana-lleva-el-abrigo.wav,./stim/wavs/argentine_match_declarative-broad-focus_Ana-lleva-el-abrigo.wav,./stim/wavs/castilian_match_declarative-broad-focus_Ana-lleva-el-abrigo.wav,./stim/wavs/chilean_match_declarative-broad-focus_Ana-lleva-el-abrigo.wav,./stim/wavs/cuban_match_declarative-broad-focus_Ana-lleva-el-abrigo.wav,./stim/wavs/mexican_match_declarative-broad-focus_Ana-lleva-el-abrigo.wav,./stim/wavs/peruvian_match_declarative-broad-focus_Ana-lleva-el-abrigo.wav,./stim/wavs/puertorican_match_declarative-broad-focus_Ana-lleva-el-abrigo.wav,,,,,,,,,,,,,,,,,,,,,,,,,,,,,,,,,,,,,,,,,,,,,,,,,,,,,,,,
,,,,,,,5fecd5fa7e067ae6bd9cc8d2,60568611ec04488a9e9da93b,6056b5822ef63f50abb25db5,I am not familiar with Spanish,South,NA,no,2021-03-20_19h55.39.618,empathy_intonation_perc,2020.2.10,Win32,60,,,,,,,,,,1,andalusian,1,1,2.15135,0,56,56,17,1,18,./stim/wavs/andalusian_match_interrogative-partial-wh_Cuando-leia-el-libro.wav,./stim/wavs/argentine_match_interrogative-partial-wh_Cuando-leia-el-libro.wav,./stim/wavs/castilian_match_interrogative-partial-wh_Cuando-leia-el-libro.wav,./stim/wavs/chilean_match_interrogative-partial-wh_Cuando-leia-el-libro.wav,./stim/wavs/cuban_match_interrogative-partial-wh_Cuando-leia-el-libro.wav,./stim/wavs/mexican_match_interrogative-partial-wh_Cuando-leia-el-libro.wav,./stim/wavs/peruvian_match_interrogative-partial-wh_Cuando-leia-el-libro.wav,./stim/wavs/puertorican_match_interrogative-partial-wh_Cuando-leia-el-libro.wav,,,,,,,,,,,,,,,,,,,,,,,,,,,,,,,,,,,,,,,,,,,,,,,,,,,,,,,,
,,,,,,,5fecd5fa7e067ae6bd9cc8d2,60568611ec04488a9e9da93b,6056b5822ef63f50abb25db5,I am not familiar with Spanish,South,NA,no,2021-03-20_19h55.39.618,empathy_intonation_perc,2020.2.10,Win32,60,,,,,,,,,,1,castilian,0,0,1.569105,0,57,57,26,1,27,./stim/wavs/andalusian_match_interrogative-total-yn_David-leia-el-libro.wav,./stim/wavs/argentine_match_interrogative-total-yn_David-leia-el-libro.wav,./stim/wavs/castilian_match_interrogative-total-yn_David-leia-el-libro.wav,./stim/wavs/chilean_match_interrogative-total-yn_David-leia-el-libro.wav,./stim/wavs/cuban_match_interrogative-total-yn_David-leia-el-libro.wav,./stim/wavs/mexican_match_interrogative-total-yn_David-leia-el-libro.wav,./stim/wavs/peruvian_match_interrogative-total-yn_David-leia-el-libro.wav,./stim/wavs/puertorican_match_interrogative-total-yn_David-leia-el-libro.wav,,,,,,,,,,,,,,,,,,,,,,,,,,,,,,,,,,,,,,,,,,,,,,,,,,,,,,,,
,,,,,,,5fecd5fa7e067ae6bd9cc8d2,60568611ec04488a9e9da93b,6056b5822ef63f50abb25db5,I am not familiar with Spanish,South,NA,no,2021-03-20_19h55.39.618,empathy_intonation_perc,2020.2.10,Win32,60,,,,,,,,,,0,castilian,0,1,1.30743,0,58,58,38,1,39,./stim/wavs/andalusian_mismatch_declarative-broad-focus_Mi-novio-viene-del-lago.wav,./stim/wavs/argentine_mismatch_declarative-broad-focus_Mi-novio-viene-del-lago.wav,./stim/wavs/castilian_mismatch_declarative-broad-focus_Mi-novio-viene-del-lago.wav,./stim/wavs/chilean_mismatch_declarative-broad-focus_Mi-novio-viene-del-lago.wav,./stim/wavs/cuban_mismatch_declarative-broad-focus_Mi-novio-viene-del-lago.wav,./stim/wavs/mexican_mismatch_declarative-broad-focus_Mi-novio-viene-del-lago.wav,./stim/wavs/peruvian_mismatch_declarative-broad-focus_Mi-novio-viene-del-lago.wav,./stim/wavs/puertorican_mismatch_declarative-broad-focus_Mi-novio-viene-del-lago.wav,,,,,,,,,,,,,,,,,,,,,,,,,,,,,,,,,,,,,,,,,,,,,,,,,,,,,,,,
,,,,,,,5fecd5fa7e067ae6bd9cc8d2,60568611ec04488a9e9da93b,6056b5822ef63f50abb25db5,I am not familiar with Spanish,South,NA,no,2021-03-20_19h55.39.618,empathy_intonation_perc,2020.2.10,Win32,60,,,,,,,,,,0,argentine,0,1,1.4892,0,59,59,7,1,8,./stim/wavs/andalusian_match_declarative-broad-focus_Marta-abre-el-regalo.wav,./stim/wavs/argentine_match_declarative-broad-focus_Marta-abre-el-regalo.wav,./stim/wavs/castilian_match_declarative-broad-focus_Marta-abre-el-regalo.wav,./stim/wavs/chilean_match_declarative-broad-focus_Marta-abre-el-regalo.wav,./stim/wavs/cuban_match_declarative-broad-focus_Marta-abre-el-regalo.wav,./stim/wavs/mexican_match_declarative-broad-focus_Marta-abre-el-regalo.wav,./stim/wavs/peruvian_match_declarative-broad-focus_Marta-abre-el-regalo.wav,./stim/wavs/puertorican_match_declarative-broad-focus_Marta-abre-el-regalo.wav,,,,,,,,,,,,,,,,,,,,,,,,,,,,,,,,,,,,,,,,,,,,,,,,,,,,,,,,
,,,,,,,5fecd5fa7e067ae6bd9cc8d2,60568611ec04488a9e9da93b,6056b5822ef63f50abb25db5,I am not familiar with Spanish,South,NA,no,2021-03-20_19h55.39.618,empathy_intonation_perc,2020.2.10,Win32,60,,,,,,,,,,1,andalusian,0,0,1.791275,0,60,60,60,1,61,./stim/wavs/andalusian_mismatch_interrogative-total-yn_La-nina-lava-el-plato.wav,./stim/wavs/argentine_mismatch_interrogative-total-yn_La-nina-lava-el-plato.wav,./stim/wavs/castilian_mismatch_interrogative-total-yn_La-nina-lava-el-plato.wav,./stim/wavs/chilean_mismatch_interrogative-total-yn_La-nina-lava-el-plato.wav,./stim/wavs/cuban_mismatch_interrogative-total-yn_La-nina-lava-el-plato.wav,./stim/wavs/mexican_mismatch_interrogative-total-yn_La-nina-lava-el-plato.wav,./stim/wavs/peruvian_mismatch_interrogative-total-yn_La-nina-lava-el-plato.wav,./stim/wavs/puertorican_mismatch_interrogative-total-yn_La-nina-lava-el-plato.wav,,,,,,,,,,,,,,,,,,,,,,,,,,,,,,,,,,,,,,,,,,,,,,,,,,,,,,,,
,,,,,,,5fecd5fa7e067ae6bd9cc8d2,60568611ec04488a9e9da93b,6056b5822ef63f50abb25db5,I am not familiar with Spanish,South,NA,no,2021-03-20_19h55.39.618,empathy_intonation_perc,2020.2.10,Win32,60,,,,,,,,,,0,cuban,0,1,1.457045,0,61,61,3,1,4,./stim/wavs/andalusian_match_declarative-broad-focus_Emilio-ama-la-marcha.wav,./stim/wavs/argentine_match_declarative-broad-focus_Emilio-ama-la-marcha.wav,./stim/wavs/castilian_match_declarative-broad-focus_Emilio-ama-la-marcha.wav,./stim/wavs/chilean_match_declarative-broad-focus_Emilio-ama-la-marcha.wav,./stim/wavs/cuban_match_declarative-broad-focus_Emilio-ama-la-marcha.wav,./stim/wavs/mexican_match_declarative-broad-focus_Emilio-ama-la-marcha.wav,./stim/wavs/peruvian_match_declarative-broad-focus_Emilio-ama-la-marcha.wav,./stim/wavs/puertorican_match_declarative-broad-focus_Emilio-ama-la-marcha.wav,,,,,,,,,,,,,,,,,,,,,,,,,,,,,,,,,,,,,,,,,,,,,,,,,,,,,,,,
,,,,,,,5fecd5fa7e067ae6bd9cc8d2,60568611ec04488a9e9da93b,6056b5822ef63f50abb25db5,I am not familiar with Spanish,South,NA,no,2021-03-20_19h55.39.618,empathy_intonation_perc,2020.2.10,Win32,60,,,,,,,,,,1,castilian,1,1,1.5034,0,62,62,20,1,21,./stim/wavs/andalusian_match_interrogative-partial-wh_Por-que-abre-el-regalo.wav,./stim/wavs/argentine_match_interrogative-partial-wh_Por-que-abre-el-regalo.wav,./stim/wavs/castilian_match_interrogative-partial-wh_Por-que-abre-el-regalo.wav,./stim/wavs/chilean_match_interrogative-partial-wh_Por-que-abre-el-regalo.wav,./stim/wavs/cuban_match_interrogative-partial-wh_Por-que-abre-el-regalo.wav,./stim/wavs/mexican_match_interrogative-partial-wh_Por-que-abre-el-regalo.wav,./stim/wavs/peruvian_match_interrogative-partial-wh_Por-que-abre-el-regalo.wav,./stim/wavs/puertorican_match_interrogative-partial-wh_Por-que-abre-el-regalo.wav,,,,,,,,,,,,,,,,,,,,,,,,,,,,,,,,,,,,,,,,,,,,,,,,,,,,,,,,
,,,,,,,5fecd5fa7e067ae6bd9cc8d2,60568611ec04488a9e9da93b,6056b5822ef63f50abb25db5,I am not familiar with Spanish,South,NA,no,2021-03-20_19h55.39.618,empathy_intonation_perc,2020.2.10,Win32,60,,,,,,,,,,0,argentine,0,1,1.62858,0,63,63,34,1,35,./stim/wavs/andalusian_mismatch_declarative-broad-focus_El-nino-oye-el-rio.wav,./stim/wavs/argentine_mismatch_declarative-broad-focus_El-nino-oye-el-rio.wav,./stim/wavs/castilian_mismatch_declarative-broad-focus_El-nino-oye-el-rio.wav,./stim/wavs/chilean_mismatch_declarative-broad-focus_El-nino-oye-el-rio.wav,./stim/wavs/cuban_mismatch_declarative-broad-focus_El-nino-oye-el-rio.wav,./stim/wavs/mexican_mismatch_declarative-broad-focus_El-nino-oye-el-rio.wav,./stim/wavs/peruvian_mismatch_declarative-broad-focus_El-nino-oye-el-rio.wav,./stim/wavs/puertorican_mismatch_declarative-broad-focus_El-nino-oye-el-rio.wav,,,,,,,,,,,,,,,,,,,,,,,,,,,,,,,,,,,,,,,,,,,,,,,,,,,,,,,,
,,,,,,,5fecd5fa7e067ae6bd9cc8d2,60568611ec04488a9e9da93b,6056b5822ef63f50abb25db5,I am not familiar with Spanish,South,NA,no,2021-03-20_19h55.39.618,empathy_intonation_perc,2020.2.10,Win32,60,,,,,,,,,,,,,,,,,,,,,,,,,,,,,h,1,4.143485,0,0,0,0,1,,,,,,,,,,,,,,,,,,,,,,,,,,,,,,,,,,,,,,,,,,,,,,,,
,,,,,"Great! Now we will move on. The next task consists of about 60 trials, in each of which you will see a string of letters. 
  
  Your task is to decide whether this is a real Spanish word or not.",(press the spacebar to continue),5fecd5fa7e067ae6bd9cc8d2,60568611ec04488a9e9da93b,6056b5822ef63f50abb25db5,I am not familiar with Spanish,South,NA,no,2021-03-20_19h55.39.618,empathy_intonation_perc,2020.2.10,Win32,60,,,,,,,,,,,,,,,,,,,,,,,,,,,,,,,,,,,,,0,0,0,0,1,,,,,,,,,,,,,,,,,,,,,,,,,,,,,,,,,,,,,,,,,,,
,,,,,"If you think it is an existing Spanish word, you type '1' (for 'REAL'), and if you think it is not an existing Spanish word, you type '0' (for 'FAKE').",(press the spacebar to continue),5fecd5fa7e067ae6bd9cc8d2,60568611ec04488a9e9da93b,6056b5822ef63f50abb25db5,I am not familiar with Spanish,South,NA,no,2021-03-20_19h55.39.618,empathy_intonation_perc,2020.2.10,Win32,60,,,,,,,,,,,,,,,,,,,,,,,,,,,,,,,,,,,,,0,1,1,1,1,,,,,,,,,,,,,,,,,,,,,,,,,,,,,,,,,,,,,,,,,,,
,,,,,"If you are sure that the word exists, even though you dont know its exact meaning, you may still respond '1' (REAL). 
  
  But if you are not sure if it is an existing word, you should respond '0' (FAKE).
  
  Let's do a practice round...",(press the spacebar to continue),5fecd5fa7e067ae6bd9cc8d2,60568611ec04488a9e9da93b,6056b5822ef63f50abb25db5,I am not familiar with Spanish,South,NA,no,2021-03-20_19h55.39.618,empathy_intonation_perc,2020.2.10,Win32,60,,,,,,,,,,,,,,,,,,,,,,,,,,,,,,,,,,,,,0,2,2,2,1,,,,,,,,,,,,,,,,,,,,,,,,,,,,,,,,,,,,,,,,,,,
,,,,,,,5fecd5fa7e067ae6bd9cc8d2,60568611ec04488a9e9da93b,6056b5822ef63f50abb25db5,I am not familiar with Spanish,South,NA,no,2021-03-20_19h55.39.618,empathy_intonation_perc,2020.2.10,Win32,60,,,,,,,,,,0,,,,,,,,,,,,,,,,,,,,,,,,,,,,,,,,0,1,1.57242,0,0,0,0,1,0,depiste,REAL,FAKE,,,,,,,,,,,,,,,,,,,,,,,,,,,,,,,
,,,,,,,5fecd5fa7e067ae6bd9cc8d2,60568611ec04488a9e9da93b,6056b5822ef63f50abb25db5,I am not familiar with Spanish,South,NA,no,2021-03-20_19h55.39.618,empathy_intonation_perc,2020.2.10,Win32,60,,,,,,,,,,1,,,,,,,,,,,,,,,,,,,,,,,,,,,,,,,,1,1,0.76818,0,1,1,1,1,0,s,REAL,FAKE,,,,,,,,,,,,,,,,,,,,,,,,,,,,,,,
,,,,,,,5fecd5fa7e067ae6bd9cc8d2,60568611ec04488a9e9da93b,6056b5822ef63f50abb25db5,I am not familiar with Spanish,South,NA,no,2021-03-20_19h55.39.618,empathy_intonation_perc,2020.2.10,Win32,60,,,,,,,,,,0,,,,,,,,,,,,,,,,,,,,,,,,,,,,,,,,1,0,1.185415,0,2,2,2,1,0,con,REAL,FAKE,,,,,,,,,,,,,,,,,,,,,,,,,,,,,,,
,,,,,,,5fecd5fa7e067ae6bd9cc8d2,60568611ec04488a9e9da93b,6056b5822ef63f50abb25db5,I am not familiar with Spanish,South,NA,no,2021-03-20_19h55.39.618,empathy_intonation_perc,2020.2.10,Win32,60,,,,,,,,,,0,,,,,,,,,,,,,,,,,,,,,,,,,,,,,,,,0,1,1.347365,0,3,3,3,1,0,calpar,REAL,FAKE,,,,,,,,,,,,,,,,,,,,,,,,,,,,,,,
,,,,,,,5fecd5fa7e067ae6bd9cc8d2,60568611ec04488a9e9da93b,6056b5822ef63f50abb25db5,I am not familiar with Spanish,South,NA,no,2021-03-20_19h55.39.618,empathy_intonation_perc,2020.2.10,Win32,60,,,,,,,,,,0,,,,,,,,,,,,,,,,,,,,,,,,,,,,,,,,0,1,0.838305,0,4,4,4,1,0,joten,REAL,FAKE,,,,,,,,,,,,,,,,,,,,,,,,,,,,,,,
,,,,,,,5fecd5fa7e067ae6bd9cc8d2,60568611ec04488a9e9da93b,6056b5822ef63f50abb25db5,I am not familiar with Spanish,South,NA,no,2021-03-20_19h55.39.618,empathy_intonation_perc,2020.2.10,Win32,60,,,,,,,,,,1,,,,,,,,,,,,,,,,,,,,,,,,,,,,,,,,1,1,1.6865,0,5,5,5,1,0,sacapuntas,REAL,FAKE,,,,,,,,,,,,,,,,,,,,,,,,,,,,,,,
,,,,,,,5fecd5fa7e067ae6bd9cc8d2,60568611ec04488a9e9da93b,6056b5822ef63f50abb25db5,I am not familiar with Spanish,South,NA,no,2021-03-20_19h55.39.618,empathy_intonation_perc,2020.2.10,Win32,60,,,,,,,,,,0,,,,,,,,,,,,,,,,,,,,,,,,,,,,,,,,0,1,0.82659,0,6,6,6,1,0,priba,REAL,FAKE,,,,,,,,,,,,,,,,,,,,,,,,,,,,,,,
,,,,,,,5fecd5fa7e067ae6bd9cc8d2,60568611ec04488a9e9da93b,6056b5822ef63f50abb25db5,I am not familiar with Spanish,South,NA,no,2021-03-20_19h55.39.618,empathy_intonation_perc,2020.2.10,Win32,60,,,,,,,,,,0,,,,,,,,,,,,,,,,,,,,,,,,,,,,,,,,1,0,1.250545,0,7,7,7,1,0,pelasula,REAL,FAKE,,,,,,,,,,,,,,,,,,,,,,,,,,,,,,,
,,,,,,,5fecd5fa7e067ae6bd9cc8d2,60568611ec04488a9e9da93b,6056b5822ef63f50abb25db5,I am not familiar with Spanish,South,NA,no,2021-03-20_19h55.39.618,empathy_intonation_perc,2020.2.10,Win32,60,,,,,,,,,,1,,,,,,,,,,,,,,,,,,,,,,,,,,,,,,,,1,1,0.93782,0,8,8,8,1,0,bien,REAL,FAKE,,,,,,,,,,,,,,,,,,,,,,,,,,,,,,,
,,,,,,,5fecd5fa7e067ae6bd9cc8d2,60568611ec04488a9e9da93b,6056b5822ef63f50abb25db5,I am not familiar with Spanish,South,NA,no,2021-03-20_19h55.39.618,empathy_intonation_perc,2020.2.10,Win32,60,,,,,,,,,,1,,,,,,,,,,,,,,,,,,,,,,,,,,,,,,,,1,1,0.676165,0,9,9,9,1,0,casa,REAL,FAKE,,,,,,,,,,,,,,,,,,,,,,,,,,,,,,,
,,,,,,,5fecd5fa7e067ae6bd9cc8d2,60568611ec04488a9e9da93b,6056b5822ef63f50abb25db5,I am not familiar with Spanish,South,NA,no,2021-03-20_19h55.39.618,empathy_intonation_perc,2020.2.10,Win32,60,,,,,,,,,,0,,,,,,,,,,,,,,,,,,,,,,,,,,,,,,,,1,0,0.940995,0,10,10,10,1,0,lejo,REAL,FAKE,,,,,,,,,,,,,,,,,,,,,,,,,,,,,,,
,,,,,,,5fecd5fa7e067ae6bd9cc8d2,60568611ec04488a9e9da93b,6056b5822ef63f50abb25db5,I am not familiar with Spanish,South,NA,no,2021-03-20_19h55.39.618,empathy_intonation_perc,2020.2.10,Win32,60,,,,,,,,,,0,,,,,,,,,,,,,,,,,,,,,,,,,,,,,,,,0,1,0.9595,0,11,11,11,1,0,pretantas,REAL,FAKE,,,,,,,,,,,,,,,,,,,,,,,,,,,,,,,
,,,,,,,5fecd5fa7e067ae6bd9cc8d2,60568611ec04488a9e9da93b,6056b5822ef63f50abb25db5,I am not familiar with Spanish,South,NA,no,2021-03-20_19h55.39.618,empathy_intonation_perc,2020.2.10,Win32,60,,,,,,,,,,1,,,,,,,,,,,,,,,,,,,,,,,,,,,,,,,,,,,,,,,,51,candado,,,0,0,1.093625,0,0,0,50,1,REAL,FAKE,,,,,,,,,,,,,,,,,,,,,
,,,,,,,5fecd5fa7e067ae6bd9cc8d2,60568611ec04488a9e9da93b,6056b5822ef63f50abb25db5,I am not familiar with Spanish,South,NA,no,2021-03-20_19h55.39.618,empathy_intonation_perc,2020.2.10,Win32,60,,,,,,,,,,1,,,,,,,,,,,,,,,,,,,,,,,,,,,,,,,,,,,,,,,,39,torpe,,,0,0,1.036965,0,1,1,38,1,REAL,FAKE,,,,,,,,,,,,,,,,,,,,,
,,,,,,,5fecd5fa7e067ae6bd9cc8d2,60568611ec04488a9e9da93b,6056b5822ef63f50abb25db5,I am not familiar with Spanish,South,NA,no,2021-03-20_19h55.39.618,empathy_intonation_perc,2020.2.10,Win32,60,,,,,,,,,,1,,,,,,,,,,,,,,,,,,,,,,,,,,,,,,,,,,,,,,,,69,engatusar,,,1,1,1.692605,0,2,2,68,1,REAL,FAKE,,,,,,,,,,,,,,,,,,,,,
,,,,,,,5fecd5fa7e067ae6bd9cc8d2,60568611ec04488a9e9da93b,6056b5822ef63f50abb25db5,I am not familiar with Spanish,South,NA,no,2021-03-20_19h55.39.618,empathy_intonation_perc,2020.2.10,Win32,60,,,,,,,,,,1,,,,,,,,,,,,,,,,,,,,,,,,,,,,,,,,,,,,,,,,41,rebuscar,,,1,1,1.01946,0,3,3,40,1,REAL,FAKE,,,,,,,,,,,,,,,,,,,,,
,,,,,,,5fecd5fa7e067ae6bd9cc8d2,60568611ec04488a9e9da93b,6056b5822ef63f50abb25db5,I am not familiar with Spanish,South,NA,no,2021-03-20_19h55.39.618,empathy_intonation_perc,2020.2.10,Win32,60,,,,,,,,,,0,,,,,,,,,,,,,,,,,,,,,,,,,,,,,,,,,,,,,,,,17,floroso,,,1,0,2.371805,0,4,4,16,1,REAL,FAKE,,,,,,,,,,,,,,,,,,,,,
,,,,,,,5fecd5fa7e067ae6bd9cc8d2,60568611ec04488a9e9da93b,6056b5822ef63f50abb25db5,I am not familiar with Spanish,South,NA,no,2021-03-20_19h55.39.618,empathy_intonation_perc,2020.2.10,Win32,60,,,,,,,,,,1,,,,,,,,,,,,,,,,,,,,,,,,,,,,,,,,,,,,,,,,9,hacha,,,0,0,1.27748,0,5,5,8,1,REAL,FAKE,,,,,,,,,,,,,,,,,,,,,
,,,,,,,5fecd5fa7e067ae6bd9cc8d2,60568611ec04488a9e9da93b,6056b5822ef63f50abb25db5,I am not familiar with Spanish,South,NA,no,2021-03-20_19h55.39.618,empathy_intonation_perc,2020.2.10,Win32,60,,,,,,,,,,1,,,,,,,,,,,,,,,,,,,,,,,,,,,,,,,,,,,,,,,,36,loro,,,0,0,0.892215,0,6,6,35,1,REAL,FAKE,,,,,,,,,,,,,,,,,,,,,
,,,,,,,5fecd5fa7e067ae6bd9cc8d2,60568611ec04488a9e9da93b,6056b5822ef63f50abb25db5,I am not familiar with Spanish,South,NA,no,2021-03-20_19h55.39.618,empathy_intonation_perc,2020.2.10,Win32,60,,,,,,,,,,1,,,,,,,,,,,,,,,,,,,,,,,,,,,,,,,,,,,,,,,,89,prisa,,,0,0,0.554315,0,7,7,88,1,REAL,FAKE,,,,,,,,,,,,,,,,,,,,,
,,,,,,,5fecd5fa7e067ae6bd9cc8d2,60568611ec04488a9e9da93b,6056b5822ef63f50abb25db5,I am not familiar with Spanish,South,NA,no,2021-03-20_19h55.39.618,empathy_intonation_perc,2020.2.10,Win32,60,,,,,,,,,,1,,,,,,,,,,,,,,,,,,,,,,,,,,,,,,,,,,,,,,,,43,canela,,,0,0,1.117125,0,8,8,42,1,REAL,FAKE,,,,,,,,,,,,,,,,,,,,,
,,,,,,,5fecd5fa7e067ae6bd9cc8d2,60568611ec04488a9e9da93b,6056b5822ef63f50abb25db5,I am not familiar with Spanish,South,NA,no,2021-03-20_19h55.39.618,empathy_intonation_perc,2020.2.10,Win32,60,,,,,,,,,,0,,,,,,,,,,,,,,,,,,,,,,,,,,,,,,,,,,,,,,,,27,acutacin,,,1,0,1.803105,0,9,9,26,1,REAL,FAKE,,,,,,,,,,,,,,,,,,,,,
,,,,,,,5fecd5fa7e067ae6bd9cc8d2,60568611ec04488a9e9da93b,6056b5822ef63f50abb25db5,I am not familiar with Spanish,South,NA,no,2021-03-20_19h55.39.618,empathy_intonation_perc,2020.2.10,Win32,60,,,,,,,,,,1,,,,,,,,,,,,,,,,,,,,,,,,,,,,,,,,,,,,,,,,2,pellizcar,,,0,0,0.748065,0,10,10,1,1,REAL,FAKE,,,,,,,,,,,,,,,,,,,,,
,,,,,,,5fecd5fa7e067ae6bd9cc8d2,60568611ec04488a9e9da93b,6056b5822ef63f50abb25db5,I am not familiar with Spanish,South,NA,no,2021-03-20_19h55.39.618,empathy_intonation_perc,2020.2.10,Win32,60,,,,,,,,,,1,,,,,,,,,,,,,,,,,,,,,,,,,,,,,,,,,,,,,,,,57,tacao,,,0,0,0.784285,0,11,11,56,1,REAL,FAKE,,,,,,,,,,,,,,,,,,,,,
,,,,,,,5fecd5fa7e067ae6bd9cc8d2,60568611ec04488a9e9da93b,6056b5822ef63f50abb25db5,I am not familiar with Spanish,South,NA,no,2021-03-20_19h55.39.618,empathy_intonation_perc,2020.2.10,Win32,60,,,,,,,,,,1,,,,,,,,,,,,,,,,,,,,,,,,,,,,,,,,,,,,,,,,78,frondoso,,,0,0,0.618795,0,12,12,77,1,REAL,FAKE,,,,,,,,,,,,,,,,,,,,,
,,,,,,,5fecd5fa7e067ae6bd9cc8d2,60568611ec04488a9e9da93b,6056b5822ef63f50abb25db5,I am not familiar with Spanish,South,NA,no,2021-03-20_19h55.39.618,empathy_intonation_perc,2020.2.10,Win32,60,,,,,,,,,,1,,,,,,,,,,,,,,,,,,,,,,,,,,,,,,,,,,,,,,,,7,psimo,,,0,0,0.69135,0,13,13,6,1,REAL,FAKE,,,,,,,,,,,,,,,,,,,,,
,,,,,,,5fecd5fa7e067ae6bd9cc8d2,60568611ec04488a9e9da93b,6056b5822ef63f50abb25db5,I am not familiar with Spanish,South,NA,no,2021-03-20_19h55.39.618,empathy_intonation_perc,2020.2.10,Win32,60,,,,,,,,,,0,,,,,,,,,,,,,,,,,,,,,,,,,,,,,,,,,,,,,,,,29,decar,,,0,1,0.803165,0,14,14,28,1,REAL,FAKE,,,,,,,,,,,,,,,,,,,,,
,,,,,,,5fecd5fa7e067ae6bd9cc8d2,60568611ec04488a9e9da93b,6056b5822ef63f50abb25db5,I am not familiar with Spanish,South,NA,no,2021-03-20_19h55.39.618,empathy_intonation_perc,2020.2.10,Win32,60,,,,,,,,,,1,,,,,,,,,,,,,,,,,,,,,,,,,,,,,,,,,,,,,,,,34,aviso,,,0,0,0.5567,0,15,15,33,1,REAL,FAKE,,,,,,,,,,,,,,,,,,,,,
,,,,,,,5fecd5fa7e067ae6bd9cc8d2,60568611ec04488a9e9da93b,6056b5822ef63f50abb25db5,I am not familiar with Spanish,South,NA,no,2021-03-20_19h55.39.618,empathy_intonation_perc,2020.2.10,Win32,60,,,,,,,,,,1,,,,,,,,,,,,,,,,,,,,,,,,,,,,,,,,,,,,,,,,12,asesinato,,,0,0,0.560565,0,16,16,11,1,REAL,FAKE,,,,,,,,,,,,,,,,,,,,,
,,,,,,,5fecd5fa7e067ae6bd9cc8d2,60568611ec04488a9e9da93b,6056b5822ef63f50abb25db5,I am not familiar with Spanish,South,NA,no,2021-03-20_19h55.39.618,empathy_intonation_perc,2020.2.10,Win32,60,,,,,,,,,,1,,,,,,,,,,,,,,,,,,,,,,,,,,,,,,,,,,,,,,,,38,estornudar,,,0,0,0.563975,0,17,17,37,1,REAL,FAKE,,,,,,,,,,,,,,,,,,,,,
,,,,,,,5fecd5fa7e067ae6bd9cc8d2,60568611ec04488a9e9da93b,6056b5822ef63f50abb25db5,I am not familiar with Spanish,South,NA,no,2021-03-20_19h55.39.618,empathy_intonation_perc,2020.2.10,Win32,60,,,,,,,,,,0,,,,,,,,,,,,,,,,,,,,,,,,,,,,,,,,,,,,,,,,72,pemicin,,,0,1,0.633505,0,18,18,71,1,REAL,FAKE,,,,,,,,,,,,,,,,,,,,,
,,,,,,,5fecd5fa7e067ae6bd9cc8d2,60568611ec04488a9e9da93b,6056b5822ef63f50abb25db5,I am not familiar with Spanish,South,NA,no,2021-03-20_19h55.39.618,empathy_intonation_perc,2020.2.10,Win32,60,,,,,,,,,,1,,,,,,,,,,,,,,,,,,,,,,,,,,,,,,,,,,,,,,,,68,alegre,,,0,0,0.62453,0,19,19,67,1,REAL,FAKE,,,,,,,,,,,,,,,,,,,,,
,,,,,,,5fecd5fa7e067ae6bd9cc8d2,60568611ec04488a9e9da93b,6056b5822ef63f50abb25db5,I am not familiar with Spanish,South,NA,no,2021-03-20_19h55.39.618,empathy_intonation_perc,2020.2.10,Win32,60,,,,,,,,,,0,,,,,,,,,,,,,,,,,,,,,,,,,,,,,,,,,,,,,,,,10,antar,,,0,1,0.99301,0,20,20,9,1,REAL,FAKE,,,,,,,,,,,,,,,,,,,,,
,,,,,,,5fecd5fa7e067ae6bd9cc8d2,60568611ec04488a9e9da93b,6056b5822ef63f50abb25db5,I am not familiar with Spanish,South,NA,no,2021-03-20_19h55.39.618,empathy_intonation_perc,2020.2.10,Win32,60,,,,,,,,,,1,,,,,,,,,,,,,,,,,,,,,,,,,,,,,,,,,,,,,,,,80,hormiga,,,0,0,1.036105,0,21,21,79,1,REAL,FAKE,,,,,,,,,,,,,,,,,,,,,
,,,,,,,5fecd5fa7e067ae6bd9cc8d2,60568611ec04488a9e9da93b,6056b5822ef63f50abb25db5,I am not familiar with Spanish,South,NA,no,2021-03-20_19h55.39.618,empathy_intonation_perc,2020.2.10,Win32,60,,,,,,,,,,1,,,,,,,,,,,,,,,,,,,,,,,,,,,,,,,,,,,,,,,,25,bisagra,,,0,0,0.71738,0,22,22,24,1,REAL,FAKE,,,,,,,,,,,,,,,,,,,,,
,,,,,,,5fecd5fa7e067ae6bd9cc8d2,60568611ec04488a9e9da93b,6056b5822ef63f50abb25db5,I am not familiar with Spanish,South,NA,no,2021-03-20_19h55.39.618,empathy_intonation_perc,2020.2.10,Win32,60,,,,,,,,,,1,,,,,,,,,,,,,,,,,,,,,,,,,,,,,,,,,,,,,,,,20,vido,,,1,1,1.641945,0,23,23,19,1,REAL,FAKE,,,,,,,,,,,,,,,,,,,,,
,,,,,,,5fecd5fa7e067ae6bd9cc8d2,60568611ec04488a9e9da93b,6056b5822ef63f50abb25db5,I am not familiar with Spanish,South,NA,no,2021-03-20_19h55.39.618,empathy_intonation_perc,2020.2.10,Win32,60,,,,,,,,,,1,,,,,,,,,,,,,,,,,,,,,,,,,,,,,,,,,,,,,,,,65,bizcocho,,,0,0,0.96148,0,24,24,64,1,REAL,FAKE,,,,,,,,,,,,,,,,,,,,,
,,,,,,,5fecd5fa7e067ae6bd9cc8d2,60568611ec04488a9e9da93b,6056b5822ef63f50abb25db5,I am not familiar with Spanish,South,NA,no,2021-03-20_19h55.39.618,empathy_intonation_perc,2020.2.10,Win32,60,,,,,,,,,,0,,,,,,,,,,,,,,,,,,,,,,,,,,,,,,,,,,,,,,,,74,cintro,,,0,1,0.726725,0,25,25,73,1,REAL,FAKE,,,,,,,,,,,,,,,,,,,,,
,,,,,,,5fecd5fa7e067ae6bd9cc8d2,60568611ec04488a9e9da93b,6056b5822ef63f50abb25db5,I am not familiar with Spanish,South,NA,no,2021-03-20_19h55.39.618,empathy_intonation_perc,2020.2.10,Win32,60,,,,,,,,,,0,,,,,,,,,,,,,,,,,,,,,,,,,,,,,,,,,,,,,,,,53,vegada,,,1,0,1.178965,0,26,26,52,1,REAL,FAKE,,,,,,,,,,,,,,,,,,,,,
,,,,,,,5fecd5fa7e067ae6bd9cc8d2,60568611ec04488a9e9da93b,6056b5822ef63f50abb25db5,I am not familiar with Spanish,South,NA,no,2021-03-20_19h55.39.618,empathy_intonation_perc,2020.2.10,Win32,60,,,,,,,,,,1,,,,,,,,,,,,,,,,,,,,,,,,,,,,,,,,,,,,,,,,77,tiburn,,,1,1,0.941265,0,27,27,76,1,REAL,FAKE,,,,,,,,,,,,,,,,,,,,,
,,,,,,,5fecd5fa7e067ae6bd9cc8d2,60568611ec04488a9e9da93b,6056b5822ef63f50abb25db5,I am not familiar with Spanish,South,NA,no,2021-03-20_19h55.39.618,empathy_intonation_perc,2020.2.10,Win32,60,,,,,,,,,,1,,,,,,,,,,,,,,,,,,,,,,,,,,,,,,,,,,,,,,,,64,orgulloso,,,0,0,0.673595,0,28,28,63,1,REAL,FAKE,,,,,,,,,,,,,,,,,,,,,
,,,,,,,5fecd5fa7e067ae6bd9cc8d2,60568611ec04488a9e9da93b,6056b5822ef63f50abb25db5,I am not familiar with Spanish,South,NA,no,2021-03-20_19h55.39.618,empathy_intonation_perc,2020.2.10,Win32,60,,,,,,,,,,0,,,,,,,,,,,,,,,,,,,,,,,,,,,,,,,,,,,,,,,,23,lampera,,,0,1,0.84872,0,29,29,22,1,REAL,FAKE,,,,,,,,,,,,,,,,,,,,,
,,,,,,,5fecd5fa7e067ae6bd9cc8d2,60568611ec04488a9e9da93b,6056b5822ef63f50abb25db5,I am not familiar with Spanish,South,NA,no,2021-03-20_19h55.39.618,empathy_intonation_perc,2020.2.10,Win32,60,,,,,,,,,,1,,,,,,,,,,,,,,,,,,,,,,,,,,,,,,,,,,,,,,,,61,seda,,,0,0,0.680185,0,30,30,60,1,REAL,FAKE,,,,,,,,,,,,,,,,,,,,,
,,,,,,,5fecd5fa7e067ae6bd9cc8d2,60568611ec04488a9e9da93b,6056b5822ef63f50abb25db5,I am not familiar with Spanish,South,NA,no,2021-03-20_19h55.39.618,empathy_intonation_perc,2020.2.10,Win32,60,,,,,,,,,,0,,,,,,,,,,,,,,,,,,,,,,,,,,,,,,,,,,,,,,,,4,batilln,,,0,1,0.607275,0,31,31,3,1,REAL,FAKE,,,,,,,,,,,,,,,,,,,,,
,,,,,,,5fecd5fa7e067ae6bd9cc8d2,60568611ec04488a9e9da93b,6056b5822ef63f50abb25db5,I am not familiar with Spanish,South,NA,no,2021-03-20_19h55.39.618,empathy_intonation_perc,2020.2.10,Win32,60,,,,,,,,,,1,,,,,,,,,,,,,,,,,,,,,,,,,,,,,,,,,,,,,,,,45,jilguero,,,0,0,0.56105,0,32,32,44,1,REAL,FAKE,,,,,,,,,,,,,,,,,,,,,
,,,,,,,5fecd5fa7e067ae6bd9cc8d2,60568611ec04488a9e9da93b,6056b5822ef63f50abb25db5,I am not familiar with Spanish,South,NA,no,2021-03-20_19h55.39.618,empathy_intonation_perc,2020.2.10,Win32,60,,,,,,,,,,1,,,,,,,,,,,,,,,,,,,,,,,,,,,,,,,,,,,,,,,,83,guante,,,0,0,0.76722,0,33,33,82,1,REAL,FAKE,,,,,,,,,,,,,,,,,,,,,
,,,,,,,5fecd5fa7e067ae6bd9cc8d2,60568611ec04488a9e9da93b,6056b5822ef63f50abb25db5,I am not familiar with Spanish,South,NA,no,2021-03-20_19h55.39.618,empathy_intonation_perc,2020.2.10,Win32,60,,,,,,,,,,1,,,,,,,,,,,,,,,,,,,,,,,,,,,,,,,,,,,,,,,,28,merodear,,,0,0,0.519815,0,34,34,27,1,REAL,FAKE,,,,,,,,,,,,,,,,,,,,,
,,,,,,,5fecd5fa7e067ae6bd9cc8d2,60568611ec04488a9e9da93b,6056b5822ef63f50abb25db5,I am not familiar with Spanish,South,NA,no,2021-03-20_19h55.39.618,empathy_intonation_perc,2020.2.10,Win32,60,,,,,,,,,,1,,,,,,,,,,,,,,,,,,,,,,,,,,,,,,,,,,,,,,,,3,pulmones,,,0,0,0.526335,0,35,35,2,1,REAL,FAKE,,,,,,,,,,,,,,,,,,,,,
,,,,,,,5fecd5fa7e067ae6bd9cc8d2,60568611ec04488a9e9da93b,6056b5822ef63f50abb25db5,I am not familiar with Spanish,South,NA,no,2021-03-20_19h55.39.618,empathy_intonation_perc,2020.2.10,Win32,60,,,,,,,,,,1,,,,,,,,,,,,,,,,,,,,,,,,,,,,,,,,,,,,,,,,26,secuestro,,,0,0,0.50818,0,36,36,25,1,REAL,FAKE,,,,,,,,,,,,,,,,,,,,,
,,,,,,,5fecd5fa7e067ae6bd9cc8d2,60568611ec04488a9e9da93b,6056b5822ef63f50abb25db5,I am not familiar with Spanish,South,NA,no,2021-03-20_19h55.39.618,empathy_intonation_perc,2020.2.10,Win32,60,,,,,,,,,,1,,,,,,,,,,,,,,,,,,,,,,,,,,,,,,,,,,,,,,,,81,pozo,,,1,1,1.05061,0,37,37,80,1,REAL,FAKE,,,,,,,,,,,,,,,,,,,,,
,,,,,,,5fecd5fa7e067ae6bd9cc8d2,60568611ec04488a9e9da93b,6056b5822ef63f50abb25db5,I am not familiar with Spanish,South,NA,no,2021-03-20_19h55.39.618,empathy_intonation_perc,2020.2.10,Win32,60,,,,,,,,,,1,,,,,,,,,,,,,,,,,,,,,,,,,,,,,,,,,,,,,,,,37,granuja,,,0,0,1.06725,0,38,38,36,1,REAL,FAKE,,,,,,,,,,,,,,,,,,,,,
,,,,,,,5fecd5fa7e067ae6bd9cc8d2,60568611ec04488a9e9da93b,6056b5822ef63f50abb25db5,I am not familiar with Spanish,South,NA,no,2021-03-20_19h55.39.618,empathy_intonation_perc,2020.2.10,Win32,60,,,,,,,,,,1,,,,,,,,,,,,,,,,,,,,,,,,,,,,,,,,,,,,,,,,44,cuchara,,,0,0,0.70451,0,39,39,43,1,REAL,FAKE,,,,,,,,,,,,,,,,,,,,,
,,,,,,,5fecd5fa7e067ae6bd9cc8d2,60568611ec04488a9e9da93b,6056b5822ef63f50abb25db5,I am not familiar with Spanish,South,NA,no,2021-03-20_19h55.39.618,empathy_intonation_perc,2020.2.10,Win32,60,,,,,,,,,,1,,,,,,,,,,,,,,,,,,,,,,,,,,,,,,,,,,,,,,,,40,alfombra,,,0,0,0.71747,0,40,40,39,1,REAL,FAKE,,,,,,,,,,,,,,,,,,,,,
,,,,,,,5fecd5fa7e067ae6bd9cc8d2,60568611ec04488a9e9da93b,6056b5822ef63f50abb25db5,I am not familiar with Spanish,South,NA,no,2021-03-20_19h55.39.618,empathy_intonation_perc,2020.2.10,Win32,60,,,,,,,,,,0,,,,,,,,,,,,,,,,,,,,,,,,,,,,,,,,,,,,,,,,33,pauca,,,0,1,0.62851,0,41,41,32,1,REAL,FAKE,,,,,,,,,,,,,,,,,,,,,
,,,,,,,5fecd5fa7e067ae6bd9cc8d2,60568611ec04488a9e9da93b,6056b5822ef63f50abb25db5,I am not familiar with Spanish,South,NA,no,2021-03-20_19h55.39.618,empathy_intonation_perc,2020.2.10,Win32,60,,,,,,,,,,1,,,,,,,,,,,,,,,,,,,,,,,,,,,,,,,,,,,,,,,,48,ladrn,,,1,1,1.60121,0,42,42,47,1,REAL,FAKE,,,,,,,,,,,,,,,,,,,,,
,,,,,,,5fecd5fa7e067ae6bd9cc8d2,60568611ec04488a9e9da93b,6056b5822ef63f50abb25db5,I am not familiar with Spanish,South,NA,no,2021-03-20_19h55.39.618,empathy_intonation_perc,2020.2.10,Win32,60,,,,,,,,,,0,,,,,,,,,,,,,,,,,,,,,,,,,,,,,,,,,,,,,,,,63,esposante,,,1,0,1.432315,0,43,43,62,1,REAL,FAKE,,,,,,,,,,,,,,,,,,,,,
,,,,,,,5fecd5fa7e067ae6bd9cc8d2,60568611ec04488a9e9da93b,6056b5822ef63f50abb25db5,I am not familiar with Spanish,South,NA,no,2021-03-20_19h55.39.618,empathy_intonation_perc,2020.2.10,Win32,60,,,,,,,,,,0,,,,,,,,,,,,,,,,,,,,,,,,,,,,,,,,,,,,,,,,42,cadallo,,,0,1,0.703125,0,44,44,41,1,REAL,FAKE,,,,,,,,,,,,,,,,,,,,,
,,,,,,,5fecd5fa7e067ae6bd9cc8d2,60568611ec04488a9e9da93b,6056b5822ef63f50abb25db5,I am not familiar with Spanish,South,NA,no,2021-03-20_19h55.39.618,empathy_intonation_perc,2020.2.10,Win32,60,,,,,,,,,,1,,,,,,,,,,,,,,,,,,,,,,,,,,,,,,,,,,,,,,,,13,helar,,,0,0,0.75039,0,45,45,12,1,REAL,FAKE,,,,,,,,,,,,,,,,,,,,,
,,,,,,,5fecd5fa7e067ae6bd9cc8d2,60568611ec04488a9e9da93b,6056b5822ef63f50abb25db5,I am not familiar with Spanish,South,NA,no,2021-03-20_19h55.39.618,empathy_intonation_perc,2020.2.10,Win32,60,,,,,,,,,,1,,,,,,,,,,,,,,,,,,,,,,,,,,,,,,,,,,,,,,,,14,yunque,,,0,0,0.584015,0,46,46,13,1,REAL,FAKE,,,,,,,,,,,,,,,,,,,,,
,,,,,,,5fecd5fa7e067ae6bd9cc8d2,60568611ec04488a9e9da93b,6056b5822ef63f50abb25db5,I am not familiar with Spanish,South,NA,no,2021-03-20_19h55.39.618,empathy_intonation_perc,2020.2.10,Win32,60,,,,,,,,,,1,,,,,,,,,,,,,,,,,,,,,,,,,,,,,,,,,,,,,,,,49,ganar,,,0,0,0.56686,0,47,47,48,1,REAL,FAKE,,,,,,,,,,,,,,,,,,,,,
,,,,,,,5fecd5fa7e067ae6bd9cc8d2,60568611ec04488a9e9da93b,6056b5822ef63f50abb25db5,I am not familiar with Spanish,South,NA,no,2021-03-20_19h55.39.618,empathy_intonation_perc,2020.2.10,Win32,60,,,,,,,,,,1,,,,,,,,,,,,,,,,,,,,,,,,,,,,,,,,,,,,,,,,24,ltigo,,,1,1,0.968295,0,48,48,23,1,REAL,FAKE,,,,,,,,,,,,,,,,,,,,,
,,,,,,,5fecd5fa7e067ae6bd9cc8d2,60568611ec04488a9e9da93b,6056b5822ef63f50abb25db5,I am not familiar with Spanish,South,NA,no,2021-03-20_19h55.39.618,empathy_intonation_perc,2020.2.10,Win32,60,,,,,,,,,,1,,,,,,,,,,,,,,,,,,,,,,,,,,,,,,,,,,,,,,,,56,musgo,,,0,0,0.706955,0,49,49,55,1,REAL,FAKE,,,,,,,,,,,,,,,,,,,,,
,,,,,,,5fecd5fa7e067ae6bd9cc8d2,60568611ec04488a9e9da93b,6056b5822ef63f50abb25db5,I am not familiar with Spanish,South,NA,no,2021-03-20_19h55.39.618,empathy_intonation_perc,2020.2.10,Win32,60,,,,,,,,,,0,,,,,,,,,,,,,,,,,,,,,,,,,,,,,,,,,,,,,,,,18,arsa,,,0,1,0.532205,0,50,50,17,1,REAL,FAKE,,,,,,,,,,,,,,,,,,,,,
,,,,,,,5fecd5fa7e067ae6bd9cc8d2,60568611ec04488a9e9da93b,6056b5822ef63f50abb25db5,I am not familiar with Spanish,South,NA,no,2021-03-20_19h55.39.618,empathy_intonation_perc,2020.2.10,Win32,60,,,,,,,,,,0,,,,,,,,,,,,,,,,,,,,,,,,,,,,,,,,,,,,,,,,66,hacido,,,0,1,0.517715,0,51,51,65,1,REAL,FAKE,,,,,,,,,,,,,,,,,,,,,
,,,,,,,5fecd5fa7e067ae6bd9cc8d2,60568611ec04488a9e9da93b,6056b5822ef63f50abb25db5,I am not familiar with Spanish,South,NA,no,2021-03-20_19h55.39.618,empathy_intonation_perc,2020.2.10,Win32,60,,,,,,,,,,0,,,,,,,,,,,,,,,,,,,,,,,,,,,,,,,,,,,,,,,,19,brecedad,,,0,1,0.55345,0,52,52,18,1,REAL,FAKE,,,,,,,,,,,,,,,,,,,,,
,,,,,,,5fecd5fa7e067ae6bd9cc8d2,60568611ec04488a9e9da93b,6056b5822ef63f50abb25db5,I am not familiar with Spanish,South,NA,no,2021-03-20_19h55.39.618,empathy_intonation_perc,2020.2.10,Win32,60,,,,,,,,,,1,,,,,,,,,,,,,,,,,,,,,,,,,,,,,,,,,,,,,,,,54,fomentar,,,0,0,0.494835,0,53,53,53,1,REAL,FAKE,,,,,,,,,,,,,,,,,,,,,
,,,,,,,5fecd5fa7e067ae6bd9cc8d2,60568611ec04488a9e9da93b,6056b5822ef63f50abb25db5,I am not familiar with Spanish,South,NA,no,2021-03-20_19h55.39.618,empathy_intonation_perc,2020.2.10,Win32,60,,,,,,,,,,0,,,,,,,,,,,,,,,,,,,,,,,,,,,,,,,,,,,,,,,,47,cartinar,,,0,1,0.50193,0,54,54,46,1,REAL,FAKE,,,,,,,,,,,,,,,,,,,,,
,,,,,,,5fecd5fa7e067ae6bd9cc8d2,60568611ec04488a9e9da93b,6056b5822ef63f50abb25db5,I am not familiar with Spanish,South,NA,no,2021-03-20_19h55.39.618,empathy_intonation_perc,2020.2.10,Win32,60,,,,,,,,,,1,,,,,,,,,,,,,,,,,,,,,,,,,,,,,,,,,,,,,,,,22,lacayo,,,0,0,0.555875,0,55,55,21,1,REAL,FAKE,,,,,,,,,,,,,,,,,,,,,
,,,,,,,5fecd5fa7e067ae6bd9cc8d2,60568611ec04488a9e9da93b,6056b5822ef63f50abb25db5,I am not familiar with Spanish,South,NA,no,2021-03-20_19h55.39.618,empathy_intonation_perc,2020.2.10,Win32,60,,,,,,,,,,0,,,,,,,,,,,,,,,,,,,,,,,,,,,,,,,,,,,,,,,,32,fatacidad,,,0,1,0.799585,0,56,56,31,1,REAL,FAKE,,,,,,,,,,,,,,,,,,,,,
,,,,,,,5fecd5fa7e067ae6bd9cc8d2,60568611ec04488a9e9da93b,6056b5822ef63f50abb25db5,I am not familiar with Spanish,South,NA,no,2021-03-20_19h55.39.618,empathy_intonation_perc,2020.2.10,Win32,60,,,,,,,,,,1,,,,,,,,,,,,,,,,,,,,,,,,,,,,,,,,,,,,,,,,90,clavel,,,0,0,0.672445,0,57,57,89,1,REAL,FAKE,,,,,,,,,,,,,,,,,,,,,
,,,,,,,5fecd5fa7e067ae6bd9cc8d2,60568611ec04488a9e9da93b,6056b5822ef63f50abb25db5,I am not familiar with Spanish,South,NA,no,2021-03-20_19h55.39.618,empathy_intonation_perc,2020.2.10,Win32,60,,,,,,,,,,0,,,,,,,,,,,,,,,,,,,,,,,,,,,,,,,,,,,,,,,,35,rompido,,,0,1,0.61556,0,58,58,34,1,REAL,FAKE,,,,,,,,,,,,,,,,,,,,,
,,,,,,,5fecd5fa7e067ae6bd9cc8d2,60568611ec04488a9e9da93b,6056b5822ef63f50abb25db5,I am not familiar with Spanish,South,NA,no,2021-03-20_19h55.39.618,empathy_intonation_perc,2020.2.10,Win32,60,,,,,,,,,,1,,,,,,,,,,,,,,,,,,,,,,,,,,,,,,,,,,,,,,,,75,yacer,,,0,0,0.5775,0,59,59,74,1,REAL,FAKE,,,,,,,,,,,,,,,,,,,,,
,,,,,,,5fecd5fa7e067ae6bd9cc8d2,60568611ec04488a9e9da93b,6056b5822ef63f50abb25db5,I am not familiar with Spanish,South,NA,no,2021-03-20_19h55.39.618,empathy_intonation_perc,2020.2.10,Win32,60,,,,,,,,,,0,,,,,,,,,,,,,,,,,,,,,,,,,,,,,,,,,,,,,,,,82,empirador,,,1,0,1.036315,0,60,60,81,1,REAL,FAKE,,,,,,,,,,,,,,,,,,,,,
,,,,,,,5fecd5fa7e067ae6bd9cc8d2,60568611ec04488a9e9da93b,6056b5822ef63f50abb25db5,I am not familiar with Spanish,South,NA,no,2021-03-20_19h55.39.618,empathy_intonation_perc,2020.2.10,Win32,60,,,,,,,,,,1,,,,,,,,,,,,,,,,,,,,,,,,,,,,,,,,,,,,,,,,88,acantilado,,,0,0,0.660575,0,61,61,87,1,REAL,FAKE,,,,,,,,,,,,,,,,,,,,,
,,,,,,,5fecd5fa7e067ae6bd9cc8d2,60568611ec04488a9e9da93b,6056b5822ef63f50abb25db5,I am not familiar with Spanish,South,NA,no,2021-03-20_19h55.39.618,empathy_intonation_perc,2020.2.10,Win32,60,,,,,,,,,,0,,,,,,,,,,,,,,,,,,,,,,,,,,,,,,,,,,,,,,,,1,terzo,,,0,1,0.61135,0,62,62,0,1,REAL,FAKE,,,,,,,,,,,,,,,,,,,,,
,,,,,,,5fecd5fa7e067ae6bd9cc8d2,60568611ec04488a9e9da93b,6056b5822ef63f50abb25db5,I am not familiar with Spanish,South,NA,no,2021-03-20_19h55.39.618,empathy_intonation_perc,2020.2.10,Win32,60,,,,,,,,,,1,,,,,,,,,,,,,,,,,,,,,,,,,,,,,,,,,,,,,,,,62,flaco,,,1,1,0.984975,0,63,63,61,1,REAL,FAKE,,,,,,,,,,,,,,,,,,,,,
,,,,,,,5fecd5fa7e067ae6bd9cc8d2,60568611ec04488a9e9da93b,6056b5822ef63f50abb25db5,I am not familiar with Spanish,South,NA,no,2021-03-20_19h55.39.618,empathy_intonation_perc,2020.2.10,Win32,60,,,,,,,,,,0,,,,,,,,,,,,,,,,,,,,,,,,,,,,,,,,,,,,,,,,79,tropaje,,,0,1,1.135475,0,64,64,78,1,REAL,FAKE,,,,,,,,,,,,,,,,,,,,,
,,,,,,,5fecd5fa7e067ae6bd9cc8d2,60568611ec04488a9e9da93b,6056b5822ef63f50abb25db5,I am not familiar with Spanish,South,NA,no,2021-03-20_19h55.39.618,empathy_intonation_perc,2020.2.10,Win32,60,,,,,,,,,,0,,,,,,,,,,,,,,,,,,,,,,,,,,,,,,,,,,,,,,,,87,grodo,,,0,1,0.933855,0,65,65,86,1,REAL,FAKE,,,,,,,,,,,,,,,,,,,,,
,,,,,,,5fecd5fa7e067ae6bd9cc8d2,60568611ec04488a9e9da93b,6056b5822ef63f50abb25db5,I am not familiar with Spanish,South,NA,no,2021-03-20_19h55.39.618,empathy_intonation_perc,2020.2.10,Win32,60,,,,,,,,,,1,,,,,,,,,,,,,,,,,,,,,,,,,,,,,,,,,,,,,,,,6,tergiversar,,,0,0,0.57699,0,66,66,5,1,REAL,FAKE,,,,,,,,,,,,,,,,,,,,,
,,,,,,,5fecd5fa7e067ae6bd9cc8d2,60568611ec04488a9e9da93b,6056b5822ef63f50abb25db5,I am not familiar with Spanish,South,NA,no,2021-03-20_19h55.39.618,empathy_intonation_perc,2020.2.10,Win32,60,,,,,,,,,,0,,,,,,,,,,,,,,,,,,,,,,,,,,,,,,,,,,,,,,,,21,capillo,,,1,0,0.884255,0,67,67,20,1,REAL,FAKE,,,,,,,,,,,,,,,,,,,,,
,,,,,,,5fecd5fa7e067ae6bd9cc8d2,60568611ec04488a9e9da93b,6056b5822ef63f50abb25db5,I am not familiar with Spanish,South,NA,no,2021-03-20_19h55.39.618,empathy_intonation_perc,2020.2.10,Win32,60,,,,,,,,,,1,,,,,,,,,,,,,,,,,,,,,,,,,,,,,,,,,,,,,,,,52,camisa,,,0,0,0.63503,0,68,68,51,1,REAL,FAKE,,,,,,,,,,,,,,,,,,,,,
,,,,,,,5fecd5fa7e067ae6bd9cc8d2,60568611ec04488a9e9da93b,6056b5822ef63f50abb25db5,I am not familiar with Spanish,South,NA,no,2021-03-20_19h55.39.618,empathy_intonation_perc,2020.2.10,Win32,60,,,,,,,,,,1,,,,,,,,,,,,,,,,,,,,,,,,,,,,,,,,,,,,,,,,46,martillo,,,0,0,0.700745,0,69,69,45,1,REAL,FAKE,,,,,,,,,,,,,,,,,,,,,
,,,,,,,5fecd5fa7e067ae6bd9cc8d2,60568611ec04488a9e9da93b,6056b5822ef63f50abb25db5,I am not familiar with Spanish,South,NA,no,2021-03-20_19h55.39.618,empathy_intonation_perc,2020.2.10,Win32,60,,,,,,,,,,1,,,,,,,,,,,,,,,,,,,,,,,,,,,,,,,,,,,,,,,,86,barato,,,0,0,0.77758,0,70,70,85,1,REAL,FAKE,,,,,,,,,,,,,,,,,,,,,
,,,,,,,5fecd5fa7e067ae6bd9cc8d2,60568611ec04488a9e9da93b,6056b5822ef63f50abb25db5,I am not familiar with Spanish,South,NA,no,2021-03-20_19h55.39.618,empathy_intonation_perc,2020.2.10,Win32,60,,,,,,,,,,1,,,,,,,,,,,,,,,,,,,,,,,,,,,,,,,,,,,,,,,,85,lad,,,0,0,1.41268,0,71,71,84,1,REAL,FAKE,,,,,,,,,,,,,,,,,,,,,
,,,,,,,5fecd5fa7e067ae6bd9cc8d2,60568611ec04488a9e9da93b,6056b5822ef63f50abb25db5,I am not familiar with Spanish,South,NA,no,2021-03-20_19h55.39.618,empathy_intonation_perc,2020.2.10,Win32,60,,,,,,,,,,1,,,,,,,,,,,,,,,,,,,,,,,,,,,,,,,,,,,,,,,,55,nevar,,,0,0,0.646715,0,72,72,54,1,REAL,FAKE,,,,,,,,,,,,,,,,,,,,,
,,,,,,,5fecd5fa7e067ae6bd9cc8d2,60568611ec04488a9e9da93b,6056b5822ef63f50abb25db5,I am not familiar with Spanish,South,NA,no,2021-03-20_19h55.39.618,empathy_intonation_perc,2020.2.10,Win32,60,,,,,,,,,,0,,,,,,,,,,,,,,,,,,,,,,,,,,,,,,,,,,,,,,,,70,temblo,,,0,1,0.583525,0,73,73,69,1,REAL,FAKE,,,,,,,,,,,,,,,,,,,,,
,,,,,,,5fecd5fa7e067ae6bd9cc8d2,60568611ec04488a9e9da93b,6056b5822ef63f50abb25db5,I am not familiar with Spanish,South,NA,no,2021-03-20_19h55.39.618,empathy_intonation_perc,2020.2.10,Win32,60,,,,,,,,,,1,,,,,,,,,,,,,,,,,,,,,,,,,,,,,,,,,,,,,,,,5,zapato,,,1,1,0.78526,0,74,74,4,1,REAL,FAKE,,,,,,,,,,,,,,,,,,,,,
,,,,,,,5fecd5fa7e067ae6bd9cc8d2,60568611ec04488a9e9da93b,6056b5822ef63f50abb25db5,I am not familiar with Spanish,South,NA,no,2021-03-20_19h55.39.618,empathy_intonation_perc,2020.2.10,Win32,60,,,,,,,,,,1,,,,,,,,,,,,,,,,,,,,,,,,,,,,,,,,,,,,,,,,59,besar,,,1,1,0.96745,0,75,75,58,1,REAL,FAKE,,,,,,,,,,,,,,,,,,,,,
,,,,,,,5fecd5fa7e067ae6bd9cc8d2,60568611ec04488a9e9da93b,6056b5822ef63f50abb25db5,I am not familiar with Spanish,South,NA,no,2021-03-20_19h55.39.618,empathy_intonation_perc,2020.2.10,Win32,60,,,,,,,,,,1,,,,,,,,,,,,,,,,,,,,,,,,,,,,,,,,,,,,,,,,15,regar,,,0,0,0.743095,0,76,76,14,1,REAL,FAKE,,,,,,,,,,,,,,,,,,,,,
,,,,,,,5fecd5fa7e067ae6bd9cc8d2,60568611ec04488a9e9da93b,6056b5822ef63f50abb25db5,I am not familiar with Spanish,South,NA,no,2021-03-20_19h55.39.618,empathy_intonation_perc,2020.2.10,Win32,60,,,,,,,,,,0,,,,,,,,,,,,,,,,,,,,,,,,,,,,,,,,,,,,,,,,84,escuto,,,0,1,0.988065,0,77,77,83,1,REAL,FAKE,,,,,,,,,,,,,,,,,,,,,
,,,,,,,5fecd5fa7e067ae6bd9cc8d2,60568611ec04488a9e9da93b,6056b5822ef63f50abb25db5,I am not familiar with Spanish,South,NA,no,2021-03-20_19h55.39.618,empathy_intonation_perc,2020.2.10,Win32,60,,,,,,,,,,0,,,,,,,,,,,,,,,,,,,,,,,,,,,,,,,,,,,,,,,,16,abracer,,,0,1,0.700925,0,78,78,15,1,REAL,FAKE,,,,,,,,,,,,,,,,,,,,,
,,,,,,,5fecd5fa7e067ae6bd9cc8d2,60568611ec04488a9e9da93b,6056b5822ef63f50abb25db5,I am not familiar with Spanish,South,NA,no,2021-03-20_19h55.39.618,empathy_intonation_perc,2020.2.10,Win32,60,,,,,,,,,,0,,,,,,,,,,,,,,,,,,,,,,,,,,,,,,,,,,,,,,,,50,flamida,,,0,1,0.67582,0,79,79,49,1,REAL,FAKE,,,,,,,,,,,,,,,,,,,,,
,,,,,,,5fecd5fa7e067ae6bd9cc8d2,60568611ec04488a9e9da93b,6056b5822ef63f50abb25db5,I am not familiar with Spanish,South,NA,no,2021-03-20_19h55.39.618,empathy_intonation_perc,2020.2.10,Win32,60,,,,,,,,,,0,,,,,,,,,,,,,,,,,,,,,,,,,,,,,,,,,,,,,,,,58,plaudir,,,0,1,0.85093,0,80,80,57,1,REAL,FAKE,,,,,,,,,,,,,,,,,,,,,
,,,,,,,5fecd5fa7e067ae6bd9cc8d2,60568611ec04488a9e9da93b,6056b5822ef63f50abb25db5,I am not familiar with Spanish,South,NA,no,2021-03-20_19h55.39.618,empathy_intonation_perc,2020.2.10,Win32,60,,,,,,,,,,1,,,,,,,,,,,,,,,,,,,,,,,,,,,,,,,,,,,,,,,,71,polvoriento,,,0,0,0.65821,0,81,81,70,1,REAL,FAKE,,,,,,,,,,,,,,,,,,,,,
,,,,,,,5fecd5fa7e067ae6bd9cc8d2,60568611ec04488a9e9da93b,6056b5822ef63f50abb25db5,I am not familiar with Spanish,South,NA,no,2021-03-20_19h55.39.618,empathy_intonation_perc,2020.2.10,Win32,60,,,,,,,,,,1,,,,,,,,,,,,,,,,,,,,,,,,,,,,,,,,,,,,,,,,76,atar,,,0,0,0.77897,0,82,82,75,1,REAL,FAKE,,,,,,,,,,,,,,,,,,,,,
,,,,,,,5fecd5fa7e067ae6bd9cc8d2,60568611ec04488a9e9da93b,6056b5822ef63f50abb25db5,I am not familiar with Spanish,South,NA,no,2021-03-20_19h55.39.618,empathy_intonation_perc,2020.2.10,Win32,60,,,,,,,,,,1,,,,,,,,,,,,,,,,,,,,,,,,,,,,,,,,,,,,,,,,11,cenefa,,,0,0,0.63129,0,83,83,10,1,REAL,FAKE,,,,,,,,,,,,,,,,,,,,,
,,,,,,,5fecd5fa7e067ae6bd9cc8d2,60568611ec04488a9e9da93b,6056b5822ef63f50abb25db5,I am not familiar with Spanish,South,NA,no,2021-03-20_19h55.39.618,empathy_intonation_perc,2020.2.10,Win32,60,,,,,,,,,,1,,,,,,,,,,,,,,,,,,,,,,,,,,,,,,,,,,,,,,,,67,cabello,,,1,1,1.670105,0,84,84,66,1,REAL,FAKE,,,,,,,,,,,,,,,,,,,,,
,,,,,,,5fecd5fa7e067ae6bd9cc8d2,60568611ec04488a9e9da93b,6056b5822ef63f50abb25db5,I am not familiar with Spanish,South,NA,no,2021-03-20_19h55.39.618,empathy_intonation_perc,2020.2.10,Win32,60,,,,,,,,,,0,,,,,,,,,,,,,,,,,,,,,,,,,,,,,,,,,,,,,,,,30,alardio,,,0,1,0.724535,0,85,85,29,1,REAL,FAKE,,,,,,,,,,,,,,,,,,,,,
,,,,,,,5fecd5fa7e067ae6bd9cc8d2,60568611ec04488a9e9da93b,6056b5822ef63f50abb25db5,I am not familiar with Spanish,South,NA,no,2021-03-20_19h55.39.618,empathy_intonation_perc,2020.2.10,Win32,60,,,,,,,,,,1,,,,,,,,,,,,,,,,,,,,,,,,,,,,,,,,,,,,,,,,60,matar,,,0,0,0.633475,0,86,86,59,1,REAL,FAKE,,,,,,,,,,,,,,,,,,,,,
,,,,,,,5fecd5fa7e067ae6bd9cc8d2,60568611ec04488a9e9da93b,6056b5822ef63f50abb25db5,I am not familiar with Spanish,South,NA,no,2021-03-20_19h55.39.618,empathy_intonation_perc,2020.2.10,Win32,60,,,,,,,,,,0,,,,,,,,,,,,,,,,,,,,,,,,,,,,,,,,,,,,,,,,8,cadea,,,1,0,1.267605,0,87,87,7,1,REAL,FAKE,,,,,,,,,,,,,,,,,,,,,
,,,,,,,5fecd5fa7e067ae6bd9cc8d2,60568611ec04488a9e9da93b,6056b5822ef63f50abb25db5,I am not familiar with Spanish,South,NA,no,2021-03-20_19h55.39.618,empathy_intonation_perc,2020.2.10,Win32,60,,,,,,,,,,1,,,,,,,,,,,,,,,,,,,,,,,,,,,,,,,,,,,,,,,,73,hervidor,,,0,0,0.649135,0,88,88,72,1,REAL,FAKE,,,,,,,,,,,,,,,,,,,,,
,,,,,,,5fecd5fa7e067ae6bd9cc8d2,60568611ec04488a9e9da93b,6056b5822ef63f50abb25db5,I am not familiar with Spanish,South,NA,no,2021-03-20_19h55.39.618,empathy_intonation_perc,2020.2.10,Win32,60,,,,,,,,,,1,,,,,,,,,,,,,,,,,,,,,,,,,,,,,,,,,,,,,,,,31,pandilla,,,1,1,1.08874,0,89,89,30,1,REAL,FAKE,,,,,,,,,,,,,,,,,,,,,
,,,,,,,5fecd5fa7e067ae6bd9cc8d2,60568611ec04488a9e9da93b,6056b5822ef63f50abb25db5,I am not familiar with Spanish,South,NA,no,2021-03-20_19h55.39.618,empathy_intonation_perc,2020.2.10,Win32,60,,,,,,,,,,,,,,,,,,,,,,,,,,,,,,,,,,,,,,,,,,,,,,,,,,,,,,,,,,,,,,,,4,1,4.20146,1,0,0,0,0,0,1,,,,,,,,,,,
,,,,,,,5fecd5fa7e067ae6bd9cc8d2,60568611ec04488a9e9da93b,6056b5822ef63f50abb25db5,I am not familiar with Spanish,South,NA,no,2021-03-20_19h55.39.618,empathy_intonation_perc,2020.2.10,Win32,60,,,,,,,,,,,,,,,,,,,,1,,,,,,,,,,,,,,,,,,,,,,,,,,,,,,,,,,,,,,,,,,,,,,,,,,,,,,4,0,0,0,0,1,I can easily tell if someone else wants to enter a conversation.,1,0,1,0
,,,,,,,5fecd5fa7e067ae6bd9cc8d2,60568611ec04488a9e9da93b,6056b5822ef63f50abb25db5,I am not familiar with Spanish,South,NA,no,2021-03-20_19h55.39.618,empathy_intonation_perc,2020.2.10,Win32,60,,,,,,,,,,,,,,,,,,,,2,,,,,,,,,,,,,,,,,,,,,,,,,,,,,,,,,,,,,,,,,,,,,,,,,,,,,,1,0,1,1,1,1,I prefer animals to humans.,0,1,0,0
