instructions_2afc_loop.thisRepN,instructions_2afc_loop.thisTrialN,instructions_2afc_loop.thisN,instructions_2afc_loop.thisIndex,instructions_2afc_loop.ran,instructions_text,continue_text,participant,study_id,session,I am most familiar with Spanish from...*,What part of the US are you from?*,At what age did you begin learning Spanish?*,Are you proficient in any languages other than English/Spanish?*,date,expName,psychopyVersion,OS,frameRate,key_resp_2afc_practice.keys,key_resp_2afc_practice.corr,key_resp_2afc_practice.rt,trials_2afc_practice_loop.thisRepN,trials_2afc_practice_loop.thisTrialN,trials_2afc_practice_loop.thisN,trials_2afc_practice_loop.thisIndex,trials_2afc_practice_loop.ran,path,correct_response,the_col,key_resp_2afc_trial.keys,key_resp_2afc_trial.corr,key_resp_2afc_trial.rt,trials_2afc_loop.thisRepN,trials_2afc_loop.thisTrialN,trials_2afc_loop.thisN,trials_2afc_loop.thisIndex,trials_2afc_loop.ran,item_num,andalusian,argentine,castilian,chilean,cuban,mexican,peruvian,puertorican,key_resp_ac1.keys,key_resp_ac1.corr,key_resp_ac1.rt,ac1_loop.thisRepN,ac1_loop.thisTrialN,ac1_loop.thisN,ac1_loop.thisIndex,ac1_loop.ran,instructions_lextale_loop.thisRepN,instructions_lextale_loop.thisTrialN,instructions_lextale_loop.thisN,instructions_lextale_loop.thisIndex,instructions_lextale_loop.ran,key_resp_lextale_practice.keys,key_resp_lextale_practice.corr,key_resp_lextale_practice.rt,trials_lextale_practice_loop.thisRepN,trials_lextale_practice_loop.thisTrialN,trials_lextale_practice_loop.thisN,trials_lextale_practice_loop.thisIndex,trials_lextale_practice_loop.ran,stim,word,prac_button_real,prac_button_false,key_resp_lextale_trial.keys,key_resp_lextale_trial.corr,key_resp_lextale_trial.rt,trials_lextale_loop.thisRepN,trials_lextale_loop.thisTrialN,trials_lextale_loop.thisN,trials_lextale_loop.thisIndex,trials_lextale_loop.ran,button_real,button_false,key_resp_ac2.keys,key_resp_ac2.corr,key_resp_ac2.rt,check_pass,check_fails,ac2_loop.thisRepN,ac2_loop.thisTrialN,ac2_loop.thisN,ac2_loop.thisIndex,ac2_loop.ran,slider_eq_trial.response,trials_eq_loop.thisRepN,trials_eq_loop.thisTrialN,trials_eq_loop.thisN,trials_eq_loop.thisIndex,trials_eq_loop.ran,item,is_test_item,is_distractor,is_agree_score,is_disagree_score
0,0,0,0,1,"In the following task you are going to hear a series of utterances. 

  You will decide if the utterances sound like questions or not using your keyboard.",(press the spacebar to continue),5ffef0a1255d0c5fd3bdfd6a,6057c54e64b0b4e5c128b4f9,60596a01c57551d943ff1b00,Mexico,East coast,13 or older,no,2021-03-23_00h10.17.206,empathy_intonation_perc,2020.2.10,MacIntel,60,,,,,,,,,,,,,,,,,,,,,,,,,,,,,,,,,,,,,,,,,,,,,,,,,,,,,,,,,,,,,,,,,,,,,,,,,,,,,,,,,,,,
0,1,1,1,1,"If you believe the utterance is a question, type '1' (for 'yes') and if you do not 
  believe it is a question type '0' (for 'no').

  Let's practice a bit...",(press the spacebar to continue),5ffef0a1255d0c5fd3bdfd6a,6057c54e64b0b4e5c128b4f9,60596a01c57551d943ff1b00,Mexico,East coast,13 or older,no,2021-03-23_00h10.17.206,empathy_intonation_perc,2020.2.10,MacIntel,60,,,,,,,,,,,,,,,,,,,,,,,,,,,,,,,,,,,,,,,,,,,,,,,,,,,,,,,,,,,,,,,,,,,,,,,,,,,,,,,,,,,,
,,,,,,,5ffef0a1255d0c5fd3bdfd6a,6057c54e64b0b4e5c128b4f9,60596a01c57551d943ff1b00,Mexico,East coast,13 or older,no,2021-03-23_00h10.17.206,empathy_intonation_perc,2020.2.10,MacIntel,60,0,1,4.74776,0,0,0,4,1,./stim/wavs/cuban_statement_filler_Cocinabas-por-la-noche.wav,0,,,,,,,,,,,,,,,,,,,,,,,,,,,,,,,,,,,,,,,,,,,,,,,,,,,,,,,,,,,,,,,,,,,,,,,,,,
,,,,,,,5ffef0a1255d0c5fd3bdfd6a,6057c54e64b0b4e5c128b4f9,60596a01c57551d943ff1b00,Mexico,East coast,13 or older,no,2021-03-23_00h10.17.206,empathy_intonation_perc,2020.2.10,MacIntel,60,1,1,1.699945,0,1,1,2,1,./stim/wavs/chilean_question_filler_Mi-padre-cantaba-bien.wav,1,,,,,,,,,,,,,,,,,,,,,,,,,,,,,,,,,,,,,,,,,,,,,,,,,,,,,,,,,,,,,,,,,,,,,,,,,,
,,,,,,,5ffef0a1255d0c5fd3bdfd6a,6057c54e64b0b4e5c128b4f9,60596a01c57551d943ff1b00,Mexico,East coast,13 or older,no,2021-03-23_00h10.17.206,empathy_intonation_perc,2020.2.10,MacIntel,60,1,1,1.867045,0,2,2,0,1,./stim/wavs/castilian_question_filler_Mi-esposo-conoce-al-chico.wav,1,,,,,,,,,,,,,,,,,,,,,,,,,,,,,,,,,,,,,,,,,,,,,,,,,,,,,,,,,,,,,,,,,,,,,,,,,,
,,,,,,,5ffef0a1255d0c5fd3bdfd6a,6057c54e64b0b4e5c128b4f9,60596a01c57551d943ff1b00,Mexico,East coast,13 or older,no,2021-03-23_00h10.17.206,empathy_intonation_perc,2020.2.10,MacIntel,60,0,1,1.898905,0,3,3,5,1,./stim/wavs/andalusian_statement_filler_Alberto-nunca-se-afeita.wav,0,,,,,,,,,,,,,,,,,,,,,,,,,,,,,,,,,,,,,,,,,,,,,,,,,,,,,,,,,,,,,,,,,,,,,,,,,,
,,,,,,,5ffef0a1255d0c5fd3bdfd6a,6057c54e64b0b4e5c128b4f9,60596a01c57551d943ff1b00,Mexico,East coast,13 or older,no,2021-03-23_00h10.17.206,empathy_intonation_perc,2020.2.10,MacIntel,60,1,1,1.4674,0,4,4,1,1,./stim/wavs/argentine_question_filler_Mi-vecino-habla-mucho.wav,1,,,,,,,,,,,,,,,,,,,,,,,,,,,,,,,,,,,,,,,,,,,,,,,,,,,,,,,,,,,,,,,,,,,,,,,,,,
,,,,,,,5ffef0a1255d0c5fd3bdfd6a,6057c54e64b0b4e5c128b4f9,60596a01c57551d943ff1b00,Mexico,East coast,13 or older,no,2021-03-23_00h10.17.206,empathy_intonation_perc,2020.2.10,MacIntel,60,0,1,1.91725,0,5,5,6,1,./stim/wavs/peruvian_statement_filler_El-nino-habla-con-su-madre.wav,0,,,,,,,,,,,,,,,,,,,,,,,,,,,,,,,,,,,,,,,,,,,,,,,,,,,,,,,,,,,,,,,,,,,,,,,,,,
,,,,,,,5ffef0a1255d0c5fd3bdfd6a,6057c54e64b0b4e5c128b4f9,60596a01c57551d943ff1b00,Mexico,East coast,13 or older,no,2021-03-23_00h10.17.206,empathy_intonation_perc,2020.2.10,MacIntel,60,0,1,2.14809,0,6,6,7,1,./stim/wavs/puertorican_statement_filler_La-nina-pinta-con-su-amiga.wav,0,,,,,,,,,,,,,,,,,,,,,,,,,,,,,,,,,,,,,,,,,,,,,,,,,,,,,,,,,,,,,,,,,,,,,,,,,,
,,,,,,,5ffef0a1255d0c5fd3bdfd6a,6057c54e64b0b4e5c128b4f9,60596a01c57551d943ff1b00,Mexico,East coast,13 or older,no,2021-03-23_00h10.17.206,empathy_intonation_perc,2020.2.10,MacIntel,60,1,1,1.850865,0,7,7,3,1,./stim/wavs/mexican_question_filler_Felipe-no-tiene-contrasena.wav,1,,,,,,,,,,,,,,,,,,,,,,,,,,,,,,,,,,,,,,,,,,,,,,,,,,,,,,,,,,,,,,,,,,,,,,,,,,
,,,,,,,5ffef0a1255d0c5fd3bdfd6a,6057c54e64b0b4e5c128b4f9,60596a01c57551d943ff1b00,Mexico,East coast,13 or older,no,2021-03-23_00h10.17.206,empathy_intonation_perc,2020.2.10,MacIntel,60,,,,,,,,,,0,cuban,0,1,1.89912,0,0,0,4,1,5,./stim/wavs/andalusian_match_declarative-broad-focus_Manuela-vende-el-carro.wav,./stim/wavs/argentine_match_declarative-broad-focus_Manuela-vende-el-carro.wav,./stim/wavs/castilian_match_declarative-broad-focus_Manuela-vende-el-carro.wav,./stim/wavs/chilean_match_declarative-broad-focus_Manuela-vende-el-carro.wav,./stim/wavs/cuban_match_declarative-broad-focus_Manuela-vende-el-carro.wav,./stim/wavs/mexican_match_declarative-broad-focus_Manuela-vende-el-carro.wav,./stim/wavs/peruvian_match_declarative-broad-focus_Manuela-vende-el-carro.wav,./stim/wavs/puertorican_match_declarative-broad-focus_Manuela-vende-el-carro.wav,,,,,,,,,,,,,,,,,,,,,,,,,,,,,,,,,,,,,,,,,,,,,,,,,,,,,,,,
,,,,,,,5ffef0a1255d0c5fd3bdfd6a,6057c54e64b0b4e5c128b4f9,60596a01c57551d943ff1b00,Mexico,East coast,13 or older,no,2021-03-23_00h10.17.206,empathy_intonation_perc,2020.2.10,MacIntel,60,,,,,,,,,,1,andalusian,1,1,1.587535,0,1,1,16,1,17,./stim/wavs/andalusian_match_interrogative-partial-wh_Cuando-bebia-el-vino.wav,./stim/wavs/argentine_match_interrogative-partial-wh_Cuando-bebia-el-vino.wav,./stim/wavs/castilian_match_interrogative-partial-wh_Cuando-bebia-el-vino.wav,./stim/wavs/chilean_match_interrogative-partial-wh_Cuando-bebia-el-vino.wav,./stim/wavs/cuban_match_interrogative-partial-wh_Cuando-bebia-el-vino.wav,./stim/wavs/mexican_match_interrogative-partial-wh_Cuando-bebia-el-vino.wav,./stim/wavs/peruvian_match_interrogative-partial-wh_Cuando-bebia-el-vino.wav,./stim/wavs/puertorican_match_interrogative-partial-wh_Cuando-bebia-el-vino.wav,,,,,,,,,,,,,,,,,,,,,,,,,,,,,,,,,,,,,,,,,,,,,,,,,,,,,,,,
,,,,,,,5ffef0a1255d0c5fd3bdfd6a,6057c54e64b0b4e5c128b4f9,60596a01c57551d943ff1b00,Mexico,East coast,13 or older,no,2021-03-23_00h10.17.206,empathy_intonation_perc,2020.2.10,MacIntel,60,,,,,,,,,,0,cuban,0,1,1.712025,0,2,2,39,1,40,./stim/wavs/andalusian_mismatch_declarative-broad-focus_Mi-tia-odia-la-lluvia.wav,./stim/wavs/argentine_mismatch_declarative-broad-focus_Mi-tia-odia-la-lluvia.wav,./stim/wavs/castilian_mismatch_declarative-broad-focus_Mi-tia-odia-la-lluvia.wav,./stim/wavs/chilean_mismatch_declarative-broad-focus_Mi-tia-odia-la-lluvia.wav,./stim/wavs/cuban_mismatch_declarative-broad-focus_Mi-tia-odia-la-lluvia.wav,./stim/wavs/mexican_mismatch_declarative-broad-focus_Mi-tia-odia-la-lluvia.wav,./stim/wavs/peruvian_mismatch_declarative-broad-focus_Mi-tia-odia-la-lluvia.wav,./stim/wavs/puertorican_mismatch_declarative-broad-focus_Mi-tia-odia-la-lluvia.wav,,,,,,,,,,,,,,,,,,,,,,,,,,,,,,,,,,,,,,,,,,,,,,,,,,,,,,,,
,,,,,,,5ffef0a1255d0c5fd3bdfd6a,6057c54e64b0b4e5c128b4f9,60596a01c57551d943ff1b00,Mexico,East coast,13 or older,no,2021-03-23_00h10.17.206,empathy_intonation_perc,2020.2.10,MacIntel,60,,,,,,,,,,1,mexican,0,0,1.683825,0,3,3,31,1,32,./stim/wavs/andalusian_match_interrogative-total-yn_Marta-abre-el-regalo.wav,./stim/wavs/argentine_match_interrogative-total-yn_Marta-abre-el-regalo.wav,./stim/wavs/castilian_match_interrogative-total-yn_Marta-abre-el-regalo.wav,./stim/wavs/chilean_match_interrogative-total-yn_Marta-abre-el-regalo.wav,./stim/wavs/cuban_match_interrogative-total-yn_Marta-abre-el-regalo.wav,./stim/wavs/mexican_match_interrogative-total-yn_Marta-abre-el-regalo.wav,./stim/wavs/peruvian_match_interrogative-total-yn_Marta-abre-el-regalo.wav,./stim/wavs/puertorican_match_interrogative-total-yn_Marta-abre-el-regalo.wav,,,,,,,,,,,,,,,,,,,,,,,,,,,,,,,,,,,,,,,,,,,,,,,,,,,,,,,,
,,,,,,,5ffef0a1255d0c5fd3bdfd6a,6057c54e64b0b4e5c128b4f9,60596a01c57551d943ff1b00,Mexico,East coast,13 or older,no,2021-03-23_00h10.17.206,empathy_intonation_perc,2020.2.10,MacIntel,60,,,,,,,,,,1,andalusian,1,1,2.41734,0,4,4,54,1,55,./stim/wavs/andalusian_mismatch_interrogative-partial-wh_Por-que-venia-del-lago.wav,./stim/wavs/argentine_mismatch_interrogative-partial-wh_Por-que-venia-del-lago.wav,./stim/wavs/castilian_mismatch_interrogative-partial-wh_Por-que-venia-del-lago.wav,./stim/wavs/chilean_mismatch_interrogative-partial-wh_Por-que-venia-del-lago.wav,./stim/wavs/cuban_mismatch_interrogative-partial-wh_Por-que-venia-del-lago.wav,./stim/wavs/mexican_mismatch_interrogative-partial-wh_Por-que-venia-del-lago.wav,./stim/wavs/peruvian_mismatch_interrogative-partial-wh_Por-que-venia-del-lago.wav,./stim/wavs/puertorican_mismatch_interrogative-partial-wh_Por-que-venia-del-lago.wav,,,,,,,,,,,,,,,,,,,,,,,,,,,,,,,,,,,,,,,,,,,,,,,,,,,,,,,,
,,,,,,,5ffef0a1255d0c5fd3bdfd6a,6057c54e64b0b4e5c128b4f9,60596a01c57551d943ff1b00,Mexico,East coast,13 or older,no,2021-03-23_00h10.17.206,empathy_intonation_perc,2020.2.10,MacIntel,60,,,,,,,,,,0,andalusian,0,1,2.133755,0,5,5,47,1,48,./stim/wavs/andalusian_mismatch_declarative-narrow-focus_Mi-tia-odia-la-lluvia.wav,./stim/wavs/argentine_mismatch_declarative-narrow-focus_Mi-tia-odia-la-lluvia.wav,./stim/wavs/castilian_mismatch_declarative-narrow-focus_Mi-tia-odia-la-lluvia.wav,./stim/wavs/chilean_mismatch_declarative-narrow-focus_Mi-tia-odia-la-lluvia.wav,./stim/wavs/cuban_mismatch_declarative-narrow-focus_Mi-tia-odia-la-lluvia.wav,./stim/wavs/mexican_mismatch_declarative-narrow-focus_Mi-tia-odia-la-lluvia.wav,./stim/wavs/peruvian_mismatch_declarative-narrow-focus_Mi-tia-odia-la-lluvia.wav,./stim/wavs/puertorican_mismatch_declarative-narrow-focus_Mi-tia-odia-la-lluvia.wav,,,,,,,,,,,,,,,,,,,,,,,,,,,,,,,,,,,,,,,,,,,,,,,,,,,,,,,,
,,,,,,,5ffef0a1255d0c5fd3bdfd6a,6057c54e64b0b4e5c128b4f9,60596a01c57551d943ff1b00,Mexico,East coast,13 or older,no,2021-03-23_00h10.17.206,empathy_intonation_perc,2020.2.10,MacIntel,60,,,,,,,,,,1,peruvian,1,1,1.49318,0,6,6,48,1,49,./stim/wavs/andalusian_mismatch_interrogative-partial-wh_Cuando-comia-la-fruta.wav,./stim/wavs/argentine_mismatch_interrogative-partial-wh_Cuando-comia-la-fruta.wav,./stim/wavs/castilian_mismatch_interrogative-partial-wh_Cuando-comia-la-fruta.wav,./stim/wavs/chilean_mismatch_interrogative-partial-wh_Cuando-comia-la-fruta.wav,./stim/wavs/cuban_mismatch_interrogative-partial-wh_Cuando-comia-la-fruta.wav,./stim/wavs/mexican_mismatch_interrogative-partial-wh_Cuando-comia-la-fruta.wav,./stim/wavs/peruvian_mismatch_interrogative-partial-wh_Cuando-comia-la-fruta.wav,./stim/wavs/puertorican_mismatch_interrogative-partial-wh_Cuando-comia-la-fruta.wav,,,,,,,,,,,,,,,,,,,,,,,,,,,,,,,,,,,,,,,,,,,,,,,,,,,,,,,,
,,,,,,,5ffef0a1255d0c5fd3bdfd6a,6057c54e64b0b4e5c128b4f9,60596a01c57551d943ff1b00,Mexico,East coast,13 or older,no,2021-03-23_00h10.17.206,empathy_intonation_perc,2020.2.10,MacIntel,60,,,,,,,,,,0,chilean,0,1,1.88426,0,7,7,7,1,8,./stim/wavs/andalusian_match_declarative-broad-focus_Marta-abre-el-regalo.wav,./stim/wavs/argentine_match_declarative-broad-focus_Marta-abre-el-regalo.wav,./stim/wavs/castilian_match_declarative-broad-focus_Marta-abre-el-regalo.wav,./stim/wavs/chilean_match_declarative-broad-focus_Marta-abre-el-regalo.wav,./stim/wavs/cuban_match_declarative-broad-focus_Marta-abre-el-regalo.wav,./stim/wavs/mexican_match_declarative-broad-focus_Marta-abre-el-regalo.wav,./stim/wavs/peruvian_match_declarative-broad-focus_Marta-abre-el-regalo.wav,./stim/wavs/puertorican_match_declarative-broad-focus_Marta-abre-el-regalo.wav,,,,,,,,,,,,,,,,,,,,,,,,,,,,,,,,,,,,,,,,,,,,,,,,,,,,,,,,
,,,,,,,5ffef0a1255d0c5fd3bdfd6a,6057c54e64b0b4e5c128b4f9,60596a01c57551d943ff1b00,Mexico,East coast,13 or older,no,2021-03-23_00h10.17.206,empathy_intonation_perc,2020.2.10,MacIntel,60,,,,,,,,,,0,andalusian,0,1,2.04952,0,8,8,40,1,41,./stim/wavs/andalusian_mismatch_declarative-narrow-focus_El-bebe-comia-muy-bien.wav,./stim/wavs/argentine_mismatch_declarative-narrow-focus_El-bebe-comia-muy-bien.wav,./stim/wavs/castilian_mismatch_declarative-narrow-focus_El-bebe-comia-muy-bien.wav,./stim/wavs/chilean_mismatch_declarative-narrow-focus_El-bebe-comia-muy-bien.wav,./stim/wavs/cuban_mismatch_declarative-narrow-focus_El-bebe-comia-muy-bien.wav,./stim/wavs/mexican_mismatch_declarative-narrow-focus_El-bebe-comia-muy-bien.wav,./stim/wavs/peruvian_mismatch_declarative-narrow-focus_El-bebe-comia-muy-bien.wav,./stim/wavs/puertorican_mismatch_declarative-narrow-focus_El-bebe-comia-muy-bien.wav,,,,,,,,,,,,,,,,,,,,,,,,,,,,,,,,,,,,,,,,,,,,,,,,,,,,,,,,
,,,,,,,5ffef0a1255d0c5fd3bdfd6a,6057c54e64b0b4e5c128b4f9,60596a01c57551d943ff1b00,Mexico,East coast,13 or older,no,2021-03-23_00h10.17.206,empathy_intonation_perc,2020.2.10,MacIntel,60,,,,,,,,,,1,mexican,1,1,1.798555,0,9,9,59,1,60,./stim/wavs/andalusian_mismatch_interrogative-total-yn_La-maestra-vive-en-Paris.wav,./stim/wavs/argentine_mismatch_interrogative-total-yn_La-maestra-vive-en-Paris.wav,./stim/wavs/castilian_mismatch_interrogative-total-yn_La-maestra-vive-en-Paris.wav,./stim/wavs/chilean_mismatch_interrogative-total-yn_La-maestra-vive-en-Paris.wav,./stim/wavs/cuban_mismatch_interrogative-total-yn_La-maestra-vive-en-Paris.wav,./stim/wavs/mexican_mismatch_interrogative-total-yn_La-maestra-vive-en-Paris.wav,./stim/wavs/peruvian_mismatch_interrogative-total-yn_La-maestra-vive-en-Paris.wav,./stim/wavs/puertorican_mismatch_interrogative-total-yn_La-maestra-vive-en-Paris.wav,,,,,,,,,,,,,,,,,,,,,,,,,,,,,,,,,,,,,,,,,,,,,,,,,,,,,,,,
,,,,,,,5ffef0a1255d0c5fd3bdfd6a,6057c54e64b0b4e5c128b4f9,60596a01c57551d943ff1b00,Mexico,East coast,13 or older,no,2021-03-23_00h10.17.206,empathy_intonation_perc,2020.2.10,MacIntel,60,,,,,,,,,,1,chilean,1,1,1.25067,0,10,10,23,1,24,./stim/wavs/andalusian_match_interrogative-partial-wh_Por-que-iba-a-Bolivia.wav,./stim/wavs/argentine_match_interrogative-partial-wh_Por-que-iba-a-Bolivia.wav,./stim/wavs/castilian_match_interrogative-partial-wh_Por-que-iba-a-Bolivia.wav,./stim/wavs/chilean_match_interrogative-partial-wh_Por-que-iba-a-Bolivia.wav,./stim/wavs/cuban_match_interrogative-partial-wh_Por-que-iba-a-Bolivia.wav,./stim/wavs/mexican_match_interrogative-partial-wh_Por-que-iba-a-Bolivia.wav,./stim/wavs/peruvian_match_interrogative-partial-wh_Por-que-iba-a-Bolivia.wav,./stim/wavs/puertorican_match_interrogative-partial-wh_Por-que-iba-a-Bolivia.wav,,,,,,,,,,,,,,,,,,,,,,,,,,,,,,,,,,,,,,,,,,,,,,,,,,,,,,,,
,,,,,,,5ffef0a1255d0c5fd3bdfd6a,6057c54e64b0b4e5c128b4f9,60596a01c57551d943ff1b00,Mexico,East coast,13 or older,no,2021-03-23_00h10.17.206,empathy_intonation_perc,2020.2.10,MacIntel,60,,,,,,,,,,1,andalusian,1,1,1.88892,0,11,11,62,1,63,./stim/wavs/andalusian_mismatch_interrogative-total-yn_Mi-novio-viene-del-lago.wav,./stim/wavs/argentine_mismatch_interrogative-total-yn_Mi-novio-viene-del-lago.wav,./stim/wavs/castilian_mismatch_interrogative-total-yn_Mi-novio-viene-del-lago.wav,./stim/wavs/chilean_mismatch_interrogative-total-yn_Mi-novio-viene-del-lago.wav,./stim/wavs/cuban_mismatch_interrogative-total-yn_Mi-novio-viene-del-lago.wav,./stim/wavs/mexican_mismatch_interrogative-total-yn_Mi-novio-viene-del-lago.wav,./stim/wavs/peruvian_mismatch_interrogative-total-yn_Mi-novio-viene-del-lago.wav,./stim/wavs/puertorican_mismatch_interrogative-total-yn_Mi-novio-viene-del-lago.wav,,,,,,,,,,,,,,,,,,,,,,,,,,,,,,,,,,,,,,,,,,,,,,,,,,,,,,,,
,,,,,,,5ffef0a1255d0c5fd3bdfd6a,6057c54e64b0b4e5c128b4f9,60596a01c57551d943ff1b00,Mexico,East coast,13 or older,no,2021-03-23_00h10.17.206,empathy_intonation_perc,2020.2.10,MacIntel,60,,,,,,,,,,0,castilian,0,1,1.58401,0,12,12,38,1,39,./stim/wavs/andalusian_mismatch_declarative-broad-focus_Mi-novio-viene-del-lago.wav,./stim/wavs/argentine_mismatch_declarative-broad-focus_Mi-novio-viene-del-lago.wav,./stim/wavs/castilian_mismatch_declarative-broad-focus_Mi-novio-viene-del-lago.wav,./stim/wavs/chilean_mismatch_declarative-broad-focus_Mi-novio-viene-del-lago.wav,./stim/wavs/cuban_mismatch_declarative-broad-focus_Mi-novio-viene-del-lago.wav,./stim/wavs/mexican_mismatch_declarative-broad-focus_Mi-novio-viene-del-lago.wav,./stim/wavs/peruvian_mismatch_declarative-broad-focus_Mi-novio-viene-del-lago.wav,./stim/wavs/puertorican_mismatch_declarative-broad-focus_Mi-novio-viene-del-lago.wav,,,,,,,,,,,,,,,,,,,,,,,,,,,,,,,,,,,,,,,,,,,,,,,,,,,,,,,,
,,,,,,,5ffef0a1255d0c5fd3bdfd6a,6057c54e64b0b4e5c128b4f9,60596a01c57551d943ff1b00,Mexico,East coast,13 or older,no,2021-03-23_00h10.17.206,empathy_intonation_perc,2020.2.10,MacIntel,60,,,,,,,,,,1,cuban,1,1,1.948555,0,13,13,52,1,53,./stim/wavs/andalusian_mismatch_interrogative-partial-wh_Por-que-odiaba-la-lluvia.wav,./stim/wavs/argentine_mismatch_interrogative-partial-wh_Por-que-odiaba-la-lluvia.wav,./stim/wavs/castilian_mismatch_interrogative-partial-wh_Por-que-odiaba-la-lluvia.wav,./stim/wavs/chilean_mismatch_interrogative-partial-wh_Por-que-odiaba-la-lluvia.wav,./stim/wavs/cuban_mismatch_interrogative-partial-wh_Por-que-odiaba-la-lluvia.wav,./stim/wavs/mexican_mismatch_interrogative-partial-wh_Por-que-odiaba-la-lluvia.wav,./stim/wavs/peruvian_mismatch_interrogative-partial-wh_Por-que-odiaba-la-lluvia.wav,./stim/wavs/puertorican_mismatch_interrogative-partial-wh_Por-que-odiaba-la-lluvia.wav,,,,,,,,,,,,,,,,,,,,,,,,,,,,,,,,,,,,,,,,,,,,,,,,,,,,,,,,
,,,,,,,5ffef0a1255d0c5fd3bdfd6a,6057c54e64b0b4e5c128b4f9,60596a01c57551d943ff1b00,Mexico,East coast,13 or older,no,2021-03-23_00h10.17.206,empathy_intonation_perc,2020.2.10,MacIntel,60,,,,,,,,,,1,cuban,0,0,1.772345,0,14,14,27,1,28,./stim/wavs/andalusian_match_interrogative-total-yn_Emilio-ama-la-marcha.wav,./stim/wavs/argentine_match_interrogative-total-yn_Emilio-ama-la-marcha.wav,./stim/wavs/castilian_match_interrogative-total-yn_Emilio-ama-la-marcha.wav,./stim/wavs/chilean_match_interrogative-total-yn_Emilio-ama-la-marcha.wav,./stim/wavs/cuban_match_interrogative-total-yn_Emilio-ama-la-marcha.wav,./stim/wavs/mexican_match_interrogative-total-yn_Emilio-ama-la-marcha.wav,./stim/wavs/peruvian_match_interrogative-total-yn_Emilio-ama-la-marcha.wav,./stim/wavs/puertorican_match_interrogative-total-yn_Emilio-ama-la-marcha.wav,,,,,,,,,,,,,,,,,,,,,,,,,,,,,,,,,,,,,,,,,,,,,,,,,,,,,,,,
,,,,,,,5ffef0a1255d0c5fd3bdfd6a,6057c54e64b0b4e5c128b4f9,60596a01c57551d943ff1b00,Mexico,East coast,13 or older,no,2021-03-23_00h10.17.206,empathy_intonation_perc,2020.2.10,MacIntel,60,,,,,,,,,,1,andalusian,1,1,1.600405,0,15,15,57,1,58,./stim/wavs/andalusian_mismatch_interrogative-total-yn_El-hombre-mira-la-luna.wav,./stim/wavs/argentine_mismatch_interrogative-total-yn_El-hombre-mira-la-luna.wav,./stim/wavs/castilian_mismatch_interrogative-total-yn_El-hombre-mira-la-luna.wav,./stim/wavs/chilean_mismatch_interrogative-total-yn_El-hombre-mira-la-luna.wav,./stim/wavs/cuban_mismatch_interrogative-total-yn_El-hombre-mira-la-luna.wav,./stim/wavs/mexican_mismatch_interrogative-total-yn_El-hombre-mira-la-luna.wav,./stim/wavs/peruvian_mismatch_interrogative-total-yn_El-hombre-mira-la-luna.wav,./stim/wavs/puertorican_mismatch_interrogative-total-yn_El-hombre-mira-la-luna.wav,,,,,,,,,,,,,,,,,,,,,,,,,,,,,,,,,,,,,,,,,,,,,,,,,,,,,,,,
,,,,,,,5ffef0a1255d0c5fd3bdfd6a,6057c54e64b0b4e5c128b4f9,60596a01c57551d943ff1b00,Mexico,East coast,13 or older,no,2021-03-23_00h10.17.206,empathy_intonation_perc,2020.2.10,MacIntel,60,,,,,,,,,,0,puertorican,0,1,1.832995,0,16,16,46,1,47,./stim/wavs/andalusian_mismatch_declarative-narrow-focus_Mi-novio-viene-del-lago.wav,./stim/wavs/argentine_mismatch_declarative-narrow-focus_Mi-novio-viene-del-lago.wav,./stim/wavs/castilian_mismatch_declarative-narrow-focus_Mi-novio-viene-del-lago.wav,./stim/wavs/chilean_mismatch_declarative-narrow-focus_Mi-novio-viene-del-lago.wav,./stim/wavs/cuban_mismatch_declarative-narrow-focus_Mi-novio-viene-del-lago.wav,./stim/wavs/mexican_mismatch_declarative-narrow-focus_Mi-novio-viene-del-lago.wav,./stim/wavs/peruvian_mismatch_declarative-narrow-focus_Mi-novio-viene-del-lago.wav,./stim/wavs/puertorican_mismatch_declarative-narrow-focus_Mi-novio-viene-del-lago.wav,,,,,,,,,,,,,,,,,,,,,,,,,,,,,,,,,,,,,,,,,,,,,,,,,,,,,,,,
,,,,,,,5ffef0a1255d0c5fd3bdfd6a,6057c54e64b0b4e5c128b4f9,60596a01c57551d943ff1b00,Mexico,East coast,13 or older,no,2021-03-23_00h10.17.206,empathy_intonation_perc,2020.2.10,MacIntel,60,,,,,,,,,,0,peruvian,0,1,1.785325,0,17,17,42,1,43,./stim/wavs/andalusian_mismatch_declarative-narrow-focus_El-nino-oye-el-rio.wav,./stim/wavs/argentine_mismatch_declarative-narrow-focus_El-nino-oye-el-rio.wav,./stim/wavs/castilian_mismatch_declarative-narrow-focus_El-nino-oye-el-rio.wav,./stim/wavs/chilean_mismatch_declarative-narrow-focus_El-nino-oye-el-rio.wav,./stim/wavs/cuban_mismatch_declarative-narrow-focus_El-nino-oye-el-rio.wav,./stim/wavs/mexican_mismatch_declarative-narrow-focus_El-nino-oye-el-rio.wav,./stim/wavs/peruvian_mismatch_declarative-narrow-focus_El-nino-oye-el-rio.wav,./stim/wavs/puertorican_mismatch_declarative-narrow-focus_El-nino-oye-el-rio.wav,,,,,,,,,,,,,,,,,,,,,,,,,,,,,,,,,,,,,,,,,,,,,,,,,,,,,,,,
,,,,,,,5ffef0a1255d0c5fd3bdfd6a,6057c54e64b0b4e5c128b4f9,60596a01c57551d943ff1b00,Mexico,East coast,13 or older,no,2021-03-23_00h10.17.206,empathy_intonation_perc,2020.2.10,MacIntel,60,,,,,,,,,,1,peruvian,1,1,1.485495,0,18,18,53,1,54,./stim/wavs/andalusian_mismatch_interrogative-partial-wh_Por-que-oia-el-rio.wav,./stim/wavs/argentine_mismatch_interrogative-partial-wh_Por-que-oia-el-rio.wav,./stim/wavs/castilian_mismatch_interrogative-partial-wh_Por-que-oia-el-rio.wav,./stim/wavs/chilean_mismatch_interrogative-partial-wh_Por-que-oia-el-rio.wav,./stim/wavs/cuban_mismatch_interrogative-partial-wh_Por-que-oia-el-rio.wav,./stim/wavs/mexican_mismatch_interrogative-partial-wh_Por-que-oia-el-rio.wav,./stim/wavs/peruvian_mismatch_interrogative-partial-wh_Por-que-oia-el-rio.wav,./stim/wavs/puertorican_mismatch_interrogative-partial-wh_Por-que-oia-el-rio.wav,,,,,,,,,,,,,,,,,,,,,,,,,,,,,,,,,,,,,,,,,,,,,,,,,,,,,,,,
,,,,,,,5ffef0a1255d0c5fd3bdfd6a,6057c54e64b0b4e5c128b4f9,60596a01c57551d943ff1b00,Mexico,East coast,13 or older,no,2021-03-23_00h10.17.206,empathy_intonation_perc,2020.2.10,MacIntel,60,,,,,,,,,,0,peruvian,0,1,1.348785,0,19,19,3,1,4,./stim/wavs/andalusian_match_declarative-broad-focus_Emilio-ama-la-marcha.wav,./stim/wavs/argentine_match_declarative-broad-focus_Emilio-ama-la-marcha.wav,./stim/wavs/castilian_match_declarative-broad-focus_Emilio-ama-la-marcha.wav,./stim/wavs/chilean_match_declarative-broad-focus_Emilio-ama-la-marcha.wav,./stim/wavs/cuban_match_declarative-broad-focus_Emilio-ama-la-marcha.wav,./stim/wavs/mexican_match_declarative-broad-focus_Emilio-ama-la-marcha.wav,./stim/wavs/peruvian_match_declarative-broad-focus_Emilio-ama-la-marcha.wav,./stim/wavs/puertorican_match_declarative-broad-focus_Emilio-ama-la-marcha.wav,,,,,,,,,,,,,,,,,,,,,,,,,,,,,,,,,,,,,,,,,,,,,,,,,,,,,,,,
,,,,,,,5ffef0a1255d0c5fd3bdfd6a,6057c54e64b0b4e5c128b4f9,60596a01c57551d943ff1b00,Mexico,East coast,13 or older,no,2021-03-23_00h10.17.206,empathy_intonation_perc,2020.2.10,MacIntel,60,,,,,,,,,,1,andalusian,1,1,1.61423,0,20,20,50,1,51,./stim/wavs/andalusian_mismatch_interrogative-partial-wh_Cuando-miraba-la-luna.wav,./stim/wavs/argentine_mismatch_interrogative-partial-wh_Cuando-miraba-la-luna.wav,./stim/wavs/castilian_mismatch_interrogative-partial-wh_Cuando-miraba-la-luna.wav,./stim/wavs/chilean_mismatch_interrogative-partial-wh_Cuando-miraba-la-luna.wav,./stim/wavs/cuban_mismatch_interrogative-partial-wh_Cuando-miraba-la-luna.wav,./stim/wavs/mexican_mismatch_interrogative-partial-wh_Cuando-miraba-la-luna.wav,./stim/wavs/peruvian_mismatch_interrogative-partial-wh_Cuando-miraba-la-luna.wav,./stim/wavs/puertorican_mismatch_interrogative-partial-wh_Cuando-miraba-la-luna.wav,,,,,,,,,,,,,,,,,,,,,,,,,,,,,,,,,,,,,,,,,,,,,,,,,,,,,,,,
,,,,,,,5ffef0a1255d0c5fd3bdfd6a,6057c54e64b0b4e5c128b4f9,60596a01c57551d943ff1b00,Mexico,East coast,13 or older,no,2021-03-23_00h10.17.206,empathy_intonation_perc,2020.2.10,MacIntel,60,,,,,,,,,,1,mexican,1,1,1.530785,0,21,21,29,1,30,./stim/wavs/andalusian_match_interrogative-total-yn_Maria-bebe-el-vino.wav,./stim/wavs/argentine_match_interrogative-total-yn_Maria-bebe-el-vino.wav,./stim/wavs/castilian_match_interrogative-total-yn_Maria-bebe-el-vino.wav,./stim/wavs/chilean_match_interrogative-total-yn_Maria-bebe-el-vino.wav,./stim/wavs/cuban_match_interrogative-total-yn_Maria-bebe-el-vino.wav,./stim/wavs/mexican_match_interrogative-total-yn_Maria-bebe-el-vino.wav,./stim/wavs/peruvian_match_interrogative-total-yn_Maria-bebe-el-vino.wav,./stim/wavs/puertorican_match_interrogative-total-yn_Maria-bebe-el-vino.wav,,,,,,,,,,,,,,,,,,,,,,,,,,,,,,,,,,,,,,,,,,,,,,,,,,,,,,,,
,,,,,,,5ffef0a1255d0c5fd3bdfd6a,6057c54e64b0b4e5c128b4f9,60596a01c57551d943ff1b00,Mexico,East coast,13 or older,no,2021-03-23_00h10.17.206,empathy_intonation_perc,2020.2.10,MacIntel,60,,,,,,,,,,1,castilian,1,1,1.26749,0,22,22,18,1,19,./stim/wavs/andalusian_match_interrogative-partial-wh_Cuando-lleva-el-abrigo.wav,./stim/wavs/argentine_match_interrogative-partial-wh_Cuando-lleva-el-abrigo.wav,./stim/wavs/castilian_match_interrogative-partial-wh_Cuando-lleva-el-abrigo.wav,./stim/wavs/chilean_match_interrogative-partial-wh_Cuando-lleva-el-abrigo.wav,./stim/wavs/cuban_match_interrogative-partial-wh_Cuando-lleva-el-abrigo.wav,./stim/wavs/mexican_match_interrogative-partial-wh_Cuando-lleva-el-abrigo.wav,./stim/wavs/peruvian_match_interrogative-partial-wh_Cuando-lleva-el-abrigo.wav,./stim/wavs/puertorican_match_interrogative-partial-wh_Cuando-lleva-el-abrigo.wav,,,,,,,,,,,,,,,,,,,,,,,,,,,,,,,,,,,,,,,,,,,,,,,,,,,,,,,,
,,,,,,,5ffef0a1255d0c5fd3bdfd6a,6057c54e64b0b4e5c128b4f9,60596a01c57551d943ff1b00,Mexico,East coast,13 or older,no,2021-03-23_00h10.17.206,empathy_intonation_perc,2020.2.10,MacIntel,60,,,,,,,,,,0,chilean,0,1,1.534505,0,23,23,1,1,2,./stim/wavs/andalusian_match_declarative-broad-focus_Daniel-iba-a-Bolivia.wav,./stim/wavs/argentine_match_declarative-broad-focus_Daniel-iba-a-Bolivia.wav,./stim/wavs/castilian_match_declarative-broad-focus_Daniel-iba-a-Bolivia.wav,./stim/wavs/chilean_match_declarative-broad-focus_Daniel-iba-a-Bolivia.wav,./stim/wavs/cuban_match_declarative-broad-focus_Daniel-iba-a-Bolivia.wav,./stim/wavs/mexican_match_declarative-broad-focus_Daniel-iba-a-Bolivia.wav,./stim/wavs/peruvian_match_declarative-broad-focus_Daniel-iba-a-Bolivia.wav,./stim/wavs/puertorican_match_declarative-broad-focus_Daniel-iba-a-Bolivia.wav,,,,,,,,,,,,,,,,,,,,,,,,,,,,,,,,,,,,,,,,,,,,,,,,,,,,,,,,
,,,,,,,5ffef0a1255d0c5fd3bdfd6a,6057c54e64b0b4e5c128b4f9,60596a01c57551d943ff1b00,Mexico,East coast,13 or older,no,2021-03-23_00h10.17.206,empathy_intonation_perc,2020.2.10,MacIntel,60,,,,,,,,,,1,andalusian,1,1,1.067415,0,24,24,19,1,20,./stim/wavs/andalusian_match_interrogative-partial-wh_Cuando-vendia-el-carro.wav,./stim/wavs/argentine_match_interrogative-partial-wh_Cuando-vendia-el-carro.wav,./stim/wavs/castilian_match_interrogative-partial-wh_Cuando-vendia-el-carro.wav,./stim/wavs/chilean_match_interrogative-partial-wh_Cuando-vendia-el-carro.wav,./stim/wavs/cuban_match_interrogative-partial-wh_Cuando-vendia-el-carro.wav,./stim/wavs/mexican_match_interrogative-partial-wh_Cuando-vendia-el-carro.wav,./stim/wavs/peruvian_match_interrogative-partial-wh_Cuando-vendia-el-carro.wav,./stim/wavs/puertorican_match_interrogative-partial-wh_Cuando-vendia-el-carro.wav,,,,,,,,,,,,,,,,,,,,,,,,,,,,,,,,,,,,,,,,,,,,,,,,,,,,,,,,
,,,,,,,5ffef0a1255d0c5fd3bdfd6a,6057c54e64b0b4e5c128b4f9,60596a01c57551d943ff1b00,Mexico,East coast,13 or older,no,2021-03-23_00h10.17.206,empathy_intonation_perc,2020.2.10,MacIntel,60,,,,,,,,,,0,andalusian,0,1,1.713195,0,25,25,37,1,38,./stim/wavs/andalusian_mismatch_declarative-broad-focus_Mi-madre-come-la-fruta.wav,./stim/wavs/argentine_mismatch_declarative-broad-focus_Mi-madre-come-la-fruta.wav,./stim/wavs/castilian_mismatch_declarative-broad-focus_Mi-madre-come-la-fruta.wav,./stim/wavs/chilean_mismatch_declarative-broad-focus_Mi-madre-come-la-fruta.wav,./stim/wavs/cuban_mismatch_declarative-broad-focus_Mi-madre-come-la-fruta.wav,./stim/wavs/mexican_mismatch_declarative-broad-focus_Mi-madre-come-la-fruta.wav,./stim/wavs/peruvian_mismatch_declarative-broad-focus_Mi-madre-come-la-fruta.wav,./stim/wavs/puertorican_mismatch_declarative-broad-focus_Mi-madre-come-la-fruta.wav,,,,,,,,,,,,,,,,,,,,,,,,,,,,,,,,,,,,,,,,,,,,,,,,,,,,,,,,
,,,,,,,5ffef0a1255d0c5fd3bdfd6a,6057c54e64b0b4e5c128b4f9,60596a01c57551d943ff1b00,Mexico,East coast,13 or older,no,2021-03-23_00h10.17.206,empathy_intonation_perc,2020.2.10,MacIntel,60,,,,,,,,,,0,andalusian,0,1,2.16723,0,26,26,10,1,11,./stim/wavs/andalusian_match_declarative-narrow-focus_David-leia-el-libro.wav,./stim/wavs/argentine_match_declarative-narrow-focus_David-leia-el-libro.wav,./stim/wavs/castilian_match_declarative-narrow-focus_David-leia-el-libro.wav,./stim/wavs/chilean_match_declarative-narrow-focus_David-leia-el-libro.wav,./stim/wavs/cuban_match_declarative-narrow-focus_David-leia-el-libro.wav,./stim/wavs/mexican_match_declarative-narrow-focus_David-leia-el-libro.wav,./stim/wavs/peruvian_match_declarative-narrow-focus_David-leia-el-libro.wav,./stim/wavs/puertorican_match_declarative-narrow-focus_David-leia-el-libro.wav,,,,,,,,,,,,,,,,,,,,,,,,,,,,,,,,,,,,,,,,,,,,,,,,,,,,,,,,
,,,,,,,5ffef0a1255d0c5fd3bdfd6a,6057c54e64b0b4e5c128b4f9,60596a01c57551d943ff1b00,Mexico,East coast,13 or older,no,2021-03-23_00h10.17.206,empathy_intonation_perc,2020.2.10,MacIntel,60,,,,,,,,,,1,cuban,1,1,1.799685,0,27,27,49,1,50,./stim/wavs/andalusian_mismatch_interrogative-partial-wh_Cuando-lavaba-el-plato.wav,./stim/wavs/argentine_mismatch_interrogative-partial-wh_Cuando-lavaba-el-plato.wav,./stim/wavs/castilian_mismatch_interrogative-partial-wh_Cuando-lavaba-el-plato.wav,./stim/wavs/chilean_mismatch_interrogative-partial-wh_Cuando-lavaba-el-plato.wav,./stim/wavs/cuban_mismatch_interrogative-partial-wh_Cuando-lavaba-el-plato.wav,./stim/wavs/mexican_mismatch_interrogative-partial-wh_Cuando-lavaba-el-plato.wav,./stim/wavs/peruvian_mismatch_interrogative-partial-wh_Cuando-lavaba-el-plato.wav,./stim/wavs/puertorican_mismatch_interrogative-partial-wh_Cuando-lavaba-el-plato.wav,,,,,,,,,,,,,,,,,,,,,,,,,,,,,,,,,,,,,,,,,,,,,,,,,,,,,,,,
,,,,,,,5ffef0a1255d0c5fd3bdfd6a,6057c54e64b0b4e5c128b4f9,60596a01c57551d943ff1b00,Mexico,East coast,13 or older,no,2021-03-23_00h10.17.206,empathy_intonation_perc,2020.2.10,MacIntel,60,,,,,,,,,,1,castilian,1,1,2.07992,0,28,28,22,1,23,./stim/wavs/andalusian_match_interrogative-partial-wh_Por-que-hablaba-del-agua.wav,./stim/wavs/argentine_match_interrogative-partial-wh_Por-que-hablaba-del-agua.wav,./stim/wavs/castilian_match_interrogative-partial-wh_Por-que-hablaba-del-agua.wav,./stim/wavs/chilean_match_interrogative-partial-wh_Por-que-hablaba-del-agua.wav,./stim/wavs/cuban_match_interrogative-partial-wh_Por-que-hablaba-del-agua.wav,./stim/wavs/mexican_match_interrogative-partial-wh_Por-que-hablaba-del-agua.wav,./stim/wavs/peruvian_match_interrogative-partial-wh_Por-que-hablaba-del-agua.wav,./stim/wavs/puertorican_match_interrogative-partial-wh_Por-que-hablaba-del-agua.wav,,,,,,,,,,,,,,,,,,,,,,,,,,,,,,,,,,,,,,,,,,,,,,,,,,,,,,,,
,,,,,,,5ffef0a1255d0c5fd3bdfd6a,6057c54e64b0b4e5c128b4f9,60596a01c57551d943ff1b00,Mexico,East coast,13 or older,no,2021-03-23_00h10.17.206,empathy_intonation_perc,2020.2.10,MacIntel,60,,,,,,,,,,1,argentine,1,1,1.72763,0,29,29,26,1,27,./stim/wavs/andalusian_match_interrogative-total-yn_David-leia-el-libro.wav,./stim/wavs/argentine_match_interrogative-total-yn_David-leia-el-libro.wav,./stim/wavs/castilian_match_interrogative-total-yn_David-leia-el-libro.wav,./stim/wavs/chilean_match_interrogative-total-yn_David-leia-el-libro.wav,./stim/wavs/cuban_match_interrogative-total-yn_David-leia-el-libro.wav,./stim/wavs/mexican_match_interrogative-total-yn_David-leia-el-libro.wav,./stim/wavs/peruvian_match_interrogative-total-yn_David-leia-el-libro.wav,./stim/wavs/puertorican_match_interrogative-total-yn_David-leia-el-libro.wav,,,,,,,,,,,,,,,,,,,,,,,,,,,,,,,,,,,,,,,,,,,,,,,,,,,,,,,,
,,,,,,,5ffef0a1255d0c5fd3bdfd6a,6057c54e64b0b4e5c128b4f9,60596a01c57551d943ff1b00,Mexico,East coast,13 or older,no,2021-03-23_00h10.17.206,empathy_intonation_perc,2020.2.10,MacIntel,60,,,,,,,,,,0,cuban,0,1,2.035435,0,30,30,34,1,35,./stim/wavs/andalusian_mismatch_declarative-broad-focus_El-nino-oye-el-rio.wav,./stim/wavs/argentine_mismatch_declarative-broad-focus_El-nino-oye-el-rio.wav,./stim/wavs/castilian_mismatch_declarative-broad-focus_El-nino-oye-el-rio.wav,./stim/wavs/chilean_mismatch_declarative-broad-focus_El-nino-oye-el-rio.wav,./stim/wavs/cuban_mismatch_declarative-broad-focus_El-nino-oye-el-rio.wav,./stim/wavs/mexican_mismatch_declarative-broad-focus_El-nino-oye-el-rio.wav,./stim/wavs/peruvian_mismatch_declarative-broad-focus_El-nino-oye-el-rio.wav,./stim/wavs/puertorican_mismatch_declarative-broad-focus_El-nino-oye-el-rio.wav,,,,,,,,,,,,,,,,,,,,,,,,,,,,,,,,,,,,,,,,,,,,,,,,,,,,,,,,
,,,,,,,5ffef0a1255d0c5fd3bdfd6a,6057c54e64b0b4e5c128b4f9,60596a01c57551d943ff1b00,Mexico,East coast,13 or older,no,2021-03-23_00h10.17.206,empathy_intonation_perc,2020.2.10,MacIntel,60,,,,,,,,,,0,castilian,0,1,1.63413,0,31,31,36,1,37,./stim/wavs/andalusian_mismatch_declarative-broad-focus_La-nina-lava-el-plato.wav,./stim/wavs/argentine_mismatch_declarative-broad-focus_La-nina-lava-el-plato.wav,./stim/wavs/castilian_mismatch_declarative-broad-focus_La-nina-lava-el-plato.wav,./stim/wavs/chilean_mismatch_declarative-broad-focus_La-nina-lava-el-plato.wav,./stim/wavs/cuban_mismatch_declarative-broad-focus_La-nina-lava-el-plato.wav,./stim/wavs/mexican_mismatch_declarative-broad-focus_La-nina-lava-el-plato.wav,./stim/wavs/peruvian_mismatch_declarative-broad-focus_La-nina-lava-el-plato.wav,./stim/wavs/puertorican_mismatch_declarative-broad-focus_La-nina-lava-el-plato.wav,,,,,,,,,,,,,,,,,,,,,,,,,,,,,,,,,,,,,,,,,,,,,,,,,,,,,,,,
,,,,,,,5ffef0a1255d0c5fd3bdfd6a,6057c54e64b0b4e5c128b4f9,60596a01c57551d943ff1b00,Mexico,East coast,13 or older,no,2021-03-23_00h10.17.206,empathy_intonation_perc,2020.2.10,MacIntel,60,,,,,,,,,,0,puertorican,0,1,1.650645,0,32,32,13,1,14,./stim/wavs/andalusian_match_declarative-narrow-focus_Maria-bebe-el-vino.wav,./stim/wavs/argentine_match_declarative-narrow-focus_Maria-bebe-el-vino.wav,./stim/wavs/castilian_match_declarative-narrow-focus_Maria-bebe-el-vino.wav,./stim/wavs/chilean_match_declarative-narrow-focus_Maria-bebe-el-vino.wav,./stim/wavs/cuban_match_declarative-narrow-focus_Maria-bebe-el-vino.wav,./stim/wavs/mexican_match_declarative-narrow-focus_Maria-bebe-el-vino.wav,./stim/wavs/peruvian_match_declarative-narrow-focus_Maria-bebe-el-vino.wav,./stim/wavs/puertorican_match_declarative-narrow-focus_Maria-bebe-el-vino.wav,,,,,,,,,,,,,,,,,,,,,,,,,,,,,,,,,,,,,,,,,,,,,,,,,,,,,,,,
,,,,,,,5ffef0a1255d0c5fd3bdfd6a,6057c54e64b0b4e5c128b4f9,60596a01c57551d943ff1b00,Mexico,East coast,13 or older,no,2021-03-23_00h10.17.206,empathy_intonation_perc,2020.2.10,MacIntel,60,,,,,,,,,,1,argentine,1,1,1.80211,0,33,33,20,1,21,./stim/wavs/andalusian_match_interrogative-partial-wh_Por-que-abre-el-regalo.wav,./stim/wavs/argentine_match_interrogative-partial-wh_Por-que-abre-el-regalo.wav,./stim/wavs/castilian_match_interrogative-partial-wh_Por-que-abre-el-regalo.wav,./stim/wavs/chilean_match_interrogative-partial-wh_Por-que-abre-el-regalo.wav,./stim/wavs/cuban_match_interrogative-partial-wh_Por-que-abre-el-regalo.wav,./stim/wavs/mexican_match_interrogative-partial-wh_Por-que-abre-el-regalo.wav,./stim/wavs/peruvian_match_interrogative-partial-wh_Por-que-abre-el-regalo.wav,./stim/wavs/puertorican_match_interrogative-partial-wh_Por-que-abre-el-regalo.wav,,,,,,,,,,,,,,,,,,,,,,,,,,,,,,,,,,,,,,,,,,,,,,,,,,,,,,,,
,,,,,,,5ffef0a1255d0c5fd3bdfd6a,6057c54e64b0b4e5c128b4f9,60596a01c57551d943ff1b00,Mexico,East coast,13 or older,no,2021-03-23_00h10.17.206,empathy_intonation_perc,2020.2.10,MacIntel,60,,,,,,,,,,1,andalusian,0,0,1.751005,0,34,34,61,1,62,./stim/wavs/andalusian_mismatch_interrogative-total-yn_Mi-madre-come-la-fruta.wav,./stim/wavs/argentine_mismatch_interrogative-total-yn_Mi-madre-come-la-fruta.wav,./stim/wavs/castilian_mismatch_interrogative-total-yn_Mi-madre-come-la-fruta.wav,./stim/wavs/chilean_mismatch_interrogative-total-yn_Mi-madre-come-la-fruta.wav,./stim/wavs/cuban_mismatch_interrogative-total-yn_Mi-madre-come-la-fruta.wav,./stim/wavs/mexican_mismatch_interrogative-total-yn_Mi-madre-come-la-fruta.wav,./stim/wavs/peruvian_mismatch_interrogative-total-yn_Mi-madre-come-la-fruta.wav,./stim/wavs/puertorican_mismatch_interrogative-total-yn_Mi-madre-come-la-fruta.wav,,,,,,,,,,,,,,,,,,,,,,,,,,,,,,,,,,,,,,,,,,,,,,,,,,,,,,,,
,,,,,,,5ffef0a1255d0c5fd3bdfd6a,6057c54e64b0b4e5c128b4f9,60596a01c57551d943ff1b00,Mexico,East coast,13 or older,no,2021-03-23_00h10.17.206,empathy_intonation_perc,2020.2.10,MacIntel,60,,,,,,,,,,0,mexican,0,1,1.7203,0,35,35,9,1,10,./stim/wavs/andalusian_match_declarative-narrow-focus_Daniel-iba-a-Bolivia.wav,./stim/wavs/argentine_match_declarative-narrow-focus_Daniel-iba-a-Bolivia.wav,./stim/wavs/castilian_match_declarative-narrow-focus_Daniel-iba-a-Bolivia.wav,./stim/wavs/chilean_match_declarative-narrow-focus_Daniel-iba-a-Bolivia.wav,./stim/wavs/cuban_match_declarative-narrow-focus_Daniel-iba-a-Bolivia.wav,./stim/wavs/mexican_match_declarative-narrow-focus_Daniel-iba-a-Bolivia.wav,./stim/wavs/peruvian_match_declarative-narrow-focus_Daniel-iba-a-Bolivia.wav,./stim/wavs/puertorican_match_declarative-narrow-focus_Daniel-iba-a-Bolivia.wav,,,,,,,,,,,,,,,,,,,,,,,,,,,,,,,,,,,,,,,,,,,,,,,,,,,,,,,,
,,,,,,,5ffef0a1255d0c5fd3bdfd6a,6057c54e64b0b4e5c128b4f9,60596a01c57551d943ff1b00,Mexico,East coast,13 or older,no,2021-03-23_00h10.17.206,empathy_intonation_perc,2020.2.10,MacIntel,60,,,,,,,,,,1,peruvian,1,1,2.91776,0,36,36,55,1,56,./stim/wavs/andalusian_mismatch_interrogative-partial-wh_Por-que-vivia-en-Paris.wav,./stim/wavs/argentine_mismatch_interrogative-partial-wh_Por-que-vivia-en-Paris.wav,./stim/wavs/castilian_mismatch_interrogative-partial-wh_Por-que-vivia-en-Paris.wav,./stim/wavs/chilean_mismatch_interrogative-partial-wh_Por-que-vivia-en-Paris.wav,./stim/wavs/cuban_mismatch_interrogative-partial-wh_Por-que-vivia-en-Paris.wav,./stim/wavs/mexican_mismatch_interrogative-partial-wh_Por-que-vivia-en-Paris.wav,./stim/wavs/peruvian_mismatch_interrogative-partial-wh_Por-que-vivia-en-Paris.wav,./stim/wavs/puertorican_mismatch_interrogative-partial-wh_Por-que-vivia-en-Paris.wav,,,,,,,,,,,,,,,,,,,,,,,,,,,,,,,,,,,,,,,,,,,,,,,,,,,,,,,,
,,,,,,,5ffef0a1255d0c5fd3bdfd6a,6057c54e64b0b4e5c128b4f9,60596a01c57551d943ff1b00,Mexico,East coast,13 or older,no,2021-03-23_00h10.17.206,empathy_intonation_perc,2020.2.10,MacIntel,60,,,,,,,,,,0,castilian,0,1,1.616855,0,37,37,44,1,45,./stim/wavs/andalusian_mismatch_declarative-narrow-focus_La-nina-lava-el-plato.wav,./stim/wavs/argentine_mismatch_declarative-narrow-focus_La-nina-lava-el-plato.wav,./stim/wavs/castilian_mismatch_declarative-narrow-focus_La-nina-lava-el-plato.wav,./stim/wavs/chilean_mismatch_declarative-narrow-focus_La-nina-lava-el-plato.wav,./stim/wavs/cuban_mismatch_declarative-narrow-focus_La-nina-lava-el-plato.wav,./stim/wavs/mexican_mismatch_declarative-narrow-focus_La-nina-lava-el-plato.wav,./stim/wavs/peruvian_mismatch_declarative-narrow-focus_La-nina-lava-el-plato.wav,./stim/wavs/puertorican_mismatch_declarative-narrow-focus_La-nina-lava-el-plato.wav,,,,,,,,,,,,,,,,,,,,,,,,,,,,,,,,,,,,,,,,,,,,,,,,,,,,,,,,
,,,,,,,5ffef0a1255d0c5fd3bdfd6a,6057c54e64b0b4e5c128b4f9,60596a01c57551d943ff1b00,Mexico,East coast,13 or older,no,2021-03-23_00h10.17.206,empathy_intonation_perc,2020.2.10,MacIntel,60,,,,,,,,,,0,puertorican,0,1,1.51779,0,38,38,5,1,6,./stim/wavs/andalusian_match_declarative-broad-focus_Maria-bebe-el-vino.wav,./stim/wavs/argentine_match_declarative-broad-focus_Maria-bebe-el-vino.wav,./stim/wavs/castilian_match_declarative-broad-focus_Maria-bebe-el-vino.wav,./stim/wavs/chilean_match_declarative-broad-focus_Maria-bebe-el-vino.wav,./stim/wavs/cuban_match_declarative-broad-focus_Maria-bebe-el-vino.wav,./stim/wavs/mexican_match_declarative-broad-focus_Maria-bebe-el-vino.wav,./stim/wavs/peruvian_match_declarative-broad-focus_Maria-bebe-el-vino.wav,./stim/wavs/puertorican_match_declarative-broad-focus_Maria-bebe-el-vino.wav,,,,,,,,,,,,,,,,,,,,,,,,,,,,,,,,,,,,,,,,,,,,,,,,,,,,,,,,
,,,,,,,5ffef0a1255d0c5fd3bdfd6a,6057c54e64b0b4e5c128b4f9,60596a01c57551d943ff1b00,Mexico,East coast,13 or older,no,2021-03-23_00h10.17.206,empathy_intonation_perc,2020.2.10,MacIntel,60,,,,,,,,,,1,chilean,1,1,1.733795,0,39,39,25,1,26,./stim/wavs/andalusian_match_interrogative-total-yn_Daniel-iba-a-Bolivia.wav,./stim/wavs/argentine_match_interrogative-total-yn_Daniel-iba-a-Bolivia.wav,./stim/wavs/castilian_match_interrogative-total-yn_Daniel-iba-a-Bolivia.wav,./stim/wavs/chilean_match_interrogative-total-yn_Daniel-iba-a-Bolivia.wav,./stim/wavs/cuban_match_interrogative-total-yn_Daniel-iba-a-Bolivia.wav,./stim/wavs/mexican_match_interrogative-total-yn_Daniel-iba-a-Bolivia.wav,./stim/wavs/peruvian_match_interrogative-total-yn_Daniel-iba-a-Bolivia.wav,./stim/wavs/puertorican_match_interrogative-total-yn_Daniel-iba-a-Bolivia.wav,,,,,,,,,,,,,,,,,,,,,,,,,,,,,,,,,,,,,,,,,,,,,,,,,,,,,,,,
,,,,,,,5ffef0a1255d0c5fd3bdfd6a,6057c54e64b0b4e5c128b4f9,60596a01c57551d943ff1b00,Mexico,East coast,13 or older,no,2021-03-23_00h10.17.206,empathy_intonation_perc,2020.2.10,MacIntel,60,,,,,,,,,,0,puertorican,0,1,1.733945,0,40,40,0,1,1,./stim/wavs/andalusian_match_declarative-broad-focus_Ana-lleva-el-abrigo.wav,./stim/wavs/argentine_match_declarative-broad-focus_Ana-lleva-el-abrigo.wav,./stim/wavs/castilian_match_declarative-broad-focus_Ana-lleva-el-abrigo.wav,./stim/wavs/chilean_match_declarative-broad-focus_Ana-lleva-el-abrigo.wav,./stim/wavs/cuban_match_declarative-broad-focus_Ana-lleva-el-abrigo.wav,./stim/wavs/mexican_match_declarative-broad-focus_Ana-lleva-el-abrigo.wav,./stim/wavs/peruvian_match_declarative-broad-focus_Ana-lleva-el-abrigo.wav,./stim/wavs/puertorican_match_declarative-broad-focus_Ana-lleva-el-abrigo.wav,,,,,,,,,,,,,,,,,,,,,,,,,,,,,,,,,,,,,,,,,,,,,,,,,,,,,,,,
,,,,,,,5ffef0a1255d0c5fd3bdfd6a,6057c54e64b0b4e5c128b4f9,60596a01c57551d943ff1b00,Mexico,East coast,13 or older,no,2021-03-23_00h10.17.206,empathy_intonation_perc,2020.2.10,MacIntel,60,,,,,,,,,,0,mexican,0,1,1.38414,0,41,41,12,1,13,./stim/wavs/andalusian_match_declarative-narrow-focus_Manuela-vende-el-carro.wav,./stim/wavs/argentine_match_declarative-narrow-focus_Manuela-vende-el-carro.wav,./stim/wavs/castilian_match_declarative-narrow-focus_Manuela-vende-el-carro.wav,./stim/wavs/chilean_match_declarative-narrow-focus_Manuela-vende-el-carro.wav,./stim/wavs/cuban_match_declarative-narrow-focus_Manuela-vende-el-carro.wav,./stim/wavs/mexican_match_declarative-narrow-focus_Manuela-vende-el-carro.wav,./stim/wavs/peruvian_match_declarative-narrow-focus_Manuela-vende-el-carro.wav,./stim/wavs/puertorican_match_declarative-narrow-focus_Manuela-vende-el-carro.wav,,,,,,,,,,,,,,,,,,,,,,,,,,,,,,,,,,,,,,,,,,,,,,,,,,,,,,,,
,,,,,,,5ffef0a1255d0c5fd3bdfd6a,6057c54e64b0b4e5c128b4f9,60596a01c57551d943ff1b00,Mexico,East coast,13 or older,no,2021-03-23_00h10.17.206,empathy_intonation_perc,2020.2.10,MacIntel,60,,,,,,,,,,1,peruvian,1,1,1.900385,0,42,42,63,1,64,./stim/wavs/andalusian_mismatch_interrogative-total-yn_Mi-tia-odia-la-lluvia.wav,./stim/wavs/argentine_mismatch_interrogative-total-yn_Mi-tia-odia-la-lluvia.wav,./stim/wavs/castilian_mismatch_interrogative-total-yn_Mi-tia-odia-la-lluvia.wav,./stim/wavs/chilean_mismatch_interrogative-total-yn_Mi-tia-odia-la-lluvia.wav,./stim/wavs/cuban_mismatch_interrogative-total-yn_Mi-tia-odia-la-lluvia.wav,./stim/wavs/mexican_mismatch_interrogative-total-yn_Mi-tia-odia-la-lluvia.wav,./stim/wavs/peruvian_mismatch_interrogative-total-yn_Mi-tia-odia-la-lluvia.wav,./stim/wavs/puertorican_mismatch_interrogative-total-yn_Mi-tia-odia-la-lluvia.wav,,,,,,,,,,,,,,,,,,,,,,,,,,,,,,,,,,,,,,,,,,,,,,,,,,,,,,,,
,,,,,,,5ffef0a1255d0c5fd3bdfd6a,6057c54e64b0b4e5c128b4f9,60596a01c57551d943ff1b00,Mexico,East coast,13 or older,no,2021-03-23_00h10.17.206,empathy_intonation_perc,2020.2.10,MacIntel,60,,,,,,,,,,1,argentine,1,1,2.05279,0,43,43,58,1,59,./stim/wavs/andalusian_mismatch_interrogative-total-yn_El-nino-oye-el-rio.wav,./stim/wavs/argentine_mismatch_interrogative-total-yn_El-nino-oye-el-rio.wav,./stim/wavs/castilian_mismatch_interrogative-total-yn_El-nino-oye-el-rio.wav,./stim/wavs/chilean_mismatch_interrogative-total-yn_El-nino-oye-el-rio.wav,./stim/wavs/cuban_mismatch_interrogative-total-yn_El-nino-oye-el-rio.wav,./stim/wavs/mexican_mismatch_interrogative-total-yn_El-nino-oye-el-rio.wav,./stim/wavs/peruvian_mismatch_interrogative-total-yn_El-nino-oye-el-rio.wav,./stim/wavs/puertorican_mismatch_interrogative-total-yn_El-nino-oye-el-rio.wav,,,,,,,,,,,,,,,,,,,,,,,,,,,,,,,,,,,,,,,,,,,,,,,,,,,,,,,,
,,,,,,,5ffef0a1255d0c5fd3bdfd6a,6057c54e64b0b4e5c128b4f9,60596a01c57551d943ff1b00,Mexico,East coast,13 or older,no,2021-03-23_00h10.17.206,empathy_intonation_perc,2020.2.10,MacIntel,60,,,,,,,,,,1,andalusian,1,1,1.73446,0,44,44,21,1,22,./stim/wavs/andalusian_match_interrogative-partial-wh_Por-que-ama-la-navidad.wav,./stim/wavs/argentine_match_interrogative-partial-wh_Por-que-ama-la-navidad.wav,./stim/wavs/castilian_match_interrogative-partial-wh_Por-que-ama-la-navidad.wav,./stim/wavs/chilean_match_interrogative-partial-wh_Por-que-ama-la-navidad.wav,./stim/wavs/cuban_match_interrogative-partial-wh_Por-que-ama-la-navidad.wav,./stim/wavs/mexican_match_interrogative-partial-wh_Por-que-ama-la-navidad.wav,./stim/wavs/peruvian_match_interrogative-partial-wh_Por-que-ama-la-navidad.wav,./stim/wavs/puertorican_match_interrogative-partial-wh_Por-que-ama-la-navidad.wav,,,,,,,,,,,,,,,,,,,,,,,,,,,,,,,,,,,,,,,,,,,,,,,,,,,,,,,,
,,,,,,,5ffef0a1255d0c5fd3bdfd6a,6057c54e64b0b4e5c128b4f9,60596a01c57551d943ff1b00,Mexico,East coast,13 or older,no,2021-03-23_00h10.17.206,empathy_intonation_perc,2020.2.10,MacIntel,60,,,,,,,,,,0,chilean,0,1,1.85007,0,45,45,32,1,33,./stim/wavs/andalusian_mismatch_declarative-broad-focus_El-bebe-comia-muy-bien.wav,./stim/wavs/argentine_mismatch_declarative-broad-focus_El-bebe-comia-muy-bien.wav,./stim/wavs/castilian_mismatch_declarative-broad-focus_El-bebe-comia-muy-bien.wav,./stim/wavs/chilean_mismatch_declarative-broad-focus_El-bebe-comia-muy-bien.wav,./stim/wavs/cuban_mismatch_declarative-broad-focus_El-bebe-comia-muy-bien.wav,./stim/wavs/mexican_mismatch_declarative-broad-focus_El-bebe-comia-muy-bien.wav,./stim/wavs/peruvian_mismatch_declarative-broad-focus_El-bebe-comia-muy-bien.wav,./stim/wavs/puertorican_mismatch_declarative-broad-focus_El-bebe-comia-muy-bien.wav,,,,,,,,,,,,,,,,,,,,,,,,,,,,,,,,,,,,,,,,,,,,,,,,,,,,,,,,
,,,,,,,5ffef0a1255d0c5fd3bdfd6a,6057c54e64b0b4e5c128b4f9,60596a01c57551d943ff1b00,Mexico,East coast,13 or older,no,2021-03-23_00h10.17.206,empathy_intonation_perc,2020.2.10,MacIntel,60,,,,,,,,,,1,peruvian,1,1,2.320695,0,46,46,30,1,31,./stim/wavs/andalusian_match_interrogative-total-yn_Mariano-habla-del-tiempo.wav,./stim/wavs/argentine_match_interrogative-total-yn_Mariano-habla-del-tiempo.wav,./stim/wavs/castilian_match_interrogative-total-yn_Mariano-habla-del-tiempo.wav,./stim/wavs/chilean_match_interrogative-total-yn_Mariano-habla-del-tiempo.wav,./stim/wavs/cuban_match_interrogative-total-yn_Mariano-habla-del-tiempo.wav,./stim/wavs/mexican_match_interrogative-total-yn_Mariano-habla-del-tiempo.wav,./stim/wavs/peruvian_match_interrogative-total-yn_Mariano-habla-del-tiempo.wav,./stim/wavs/puertorican_match_interrogative-total-yn_Mariano-habla-del-tiempo.wav,,,,,,,,,,,,,,,,,,,,,,,,,,,,,,,,,,,,,,,,,,,,,,,,,,,,,,,,
,,,,,,,5ffef0a1255d0c5fd3bdfd6a,6057c54e64b0b4e5c128b4f9,60596a01c57551d943ff1b00,Mexico,East coast,13 or older,no,2021-03-23_00h10.17.206,empathy_intonation_perc,2020.2.10,MacIntel,60,,,,,,,,,,1,castilian,1,1,1.58434,0,47,47,24,1,25,./stim/wavs/andalusian_match_interrogative-total-yn_Ana-lleva-el-abrigo.wav,./stim/wavs/argentine_match_interrogative-total-yn_Ana-lleva-el-abrigo.wav,./stim/wavs/castilian_match_interrogative-total-yn_Ana-lleva-el-abrigo.wav,./stim/wavs/chilean_match_interrogative-total-yn_Ana-lleva-el-abrigo.wav,./stim/wavs/cuban_match_interrogative-total-yn_Ana-lleva-el-abrigo.wav,./stim/wavs/mexican_match_interrogative-total-yn_Ana-lleva-el-abrigo.wav,./stim/wavs/peruvian_match_interrogative-total-yn_Ana-lleva-el-abrigo.wav,./stim/wavs/puertorican_match_interrogative-total-yn_Ana-lleva-el-abrigo.wav,,,,,,,,,,,,,,,,,,,,,,,,,,,,,,,,,,,,,,,,,,,,,,,,,,,,,,,,
,,,,,,,5ffef0a1255d0c5fd3bdfd6a,6057c54e64b0b4e5c128b4f9,60596a01c57551d943ff1b00,Mexico,East coast,13 or older,no,2021-03-23_00h10.17.206,empathy_intonation_perc,2020.2.10,MacIntel,60,,,,,,,,,,1,andalusian,1,1,1.63415,0,48,48,51,1,52,./stim/wavs/andalusian_mismatch_interrogative-partial-wh_Por-que-desayuna-muy-bien.wav,./stim/wavs/argentine_mismatch_interrogative-partial-wh_Por-que-desayuna-muy-bien.wav,./stim/wavs/castilian_mismatch_interrogative-partial-wh_Por-que-desayuna-muy-bien.wav,./stim/wavs/chilean_mismatch_interrogative-partial-wh_Por-que-desayuna-muy-bien.wav,./stim/wavs/cuban_mismatch_interrogative-partial-wh_Por-que-desayuna-muy-bien.wav,./stim/wavs/mexican_mismatch_interrogative-partial-wh_Por-que-desayuna-muy-bien.wav,./stim/wavs/peruvian_mismatch_interrogative-partial-wh_Por-que-desayuna-muy-bien.wav,./stim/wavs/puertorican_mismatch_interrogative-partial-wh_Por-que-desayuna-muy-bien.wav,,,,,,,,,,,,,,,,,,,,,,,,,,,,,,,,,,,,,,,,,,,,,,,,,,,,,,,,
,,,,,,,5ffef0a1255d0c5fd3bdfd6a,6057c54e64b0b4e5c128b4f9,60596a01c57551d943ff1b00,Mexico,East coast,13 or older,no,2021-03-23_00h10.17.206,empathy_intonation_perc,2020.2.10,MacIntel,60,,,,,,,,,,0,puertorican,0,1,3.56738,0,49,49,41,1,42,./stim/wavs/andalusian_mismatch_declarative-narrow-focus_El-hombre-mira-la-luna.wav,./stim/wavs/argentine_mismatch_declarative-narrow-focus_El-hombre-mira-la-luna.wav,./stim/wavs/castilian_mismatch_declarative-narrow-focus_El-hombre-mira-la-luna.wav,./stim/wavs/chilean_mismatch_declarative-narrow-focus_El-hombre-mira-la-luna.wav,./stim/wavs/cuban_mismatch_declarative-narrow-focus_El-hombre-mira-la-luna.wav,./stim/wavs/mexican_mismatch_declarative-narrow-focus_El-hombre-mira-la-luna.wav,./stim/wavs/peruvian_mismatch_declarative-narrow-focus_El-hombre-mira-la-luna.wav,./stim/wavs/puertorican_mismatch_declarative-narrow-focus_El-hombre-mira-la-luna.wav,,,,,,,,,,,,,,,,,,,,,,,,,,,,,,,,,,,,,,,,,,,,,,,,,,,,,,,,
,,,,,,,5ffef0a1255d0c5fd3bdfd6a,6057c54e64b0b4e5c128b4f9,60596a01c57551d943ff1b00,Mexico,East coast,13 or older,no,2021-03-23_00h10.17.206,empathy_intonation_perc,2020.2.10,MacIntel,60,,,,,,,,,,0,chilean,0,1,2.12096,0,50,50,14,1,15,./stim/wavs/andalusian_match_declarative-narrow-focus_Mariano-habla-del-tiempo.wav,./stim/wavs/argentine_match_declarative-narrow-focus_Mariano-habla-del-tiempo.wav,./stim/wavs/castilian_match_declarative-narrow-focus_Mariano-habla-del-tiempo.wav,./stim/wavs/chilean_match_declarative-narrow-focus_Mariano-habla-del-tiempo.wav,./stim/wavs/cuban_match_declarative-narrow-focus_Mariano-habla-del-tiempo.wav,./stim/wavs/mexican_match_declarative-narrow-focus_Mariano-habla-del-tiempo.wav,./stim/wavs/peruvian_match_declarative-narrow-focus_Mariano-habla-del-tiempo.wav,./stim/wavs/puertorican_match_declarative-narrow-focus_Mariano-habla-del-tiempo.wav,,,,,,,,,,,,,,,,,,,,,,,,,,,,,,,,,,,,,,,,,,,,,,,,,,,,,,,,
,,,,,,,5ffef0a1255d0c5fd3bdfd6a,6057c54e64b0b4e5c128b4f9,60596a01c57551d943ff1b00,Mexico,East coast,13 or older,no,2021-03-23_00h10.17.206,empathy_intonation_perc,2020.2.10,MacIntel,60,,,,,,,,,,0,argentine,0,1,1.5195,0,51,51,8,1,9,./stim/wavs/andalusian_match_declarative-narrow-focus_Ana-lleva-el-abrigo.wav,./stim/wavs/argentine_match_declarative-narrow-focus_Ana-lleva-el-abrigo.wav,./stim/wavs/castilian_match_declarative-narrow-focus_Ana-lleva-el-abrigo.wav,./stim/wavs/chilean_match_declarative-narrow-focus_Ana-lleva-el-abrigo.wav,./stim/wavs/cuban_match_declarative-narrow-focus_Ana-lleva-el-abrigo.wav,./stim/wavs/mexican_match_declarative-narrow-focus_Ana-lleva-el-abrigo.wav,./stim/wavs/peruvian_match_declarative-narrow-focus_Ana-lleva-el-abrigo.wav,./stim/wavs/puertorican_match_declarative-narrow-focus_Ana-lleva-el-abrigo.wav,,,,,,,,,,,,,,,,,,,,,,,,,,,,,,,,,,,,,,,,,,,,,,,,,,,,,,,,
,,,,,,,5ffef0a1255d0c5fd3bdfd6a,6057c54e64b0b4e5c128b4f9,60596a01c57551d943ff1b00,Mexico,East coast,13 or older,no,2021-03-23_00h10.17.206,empathy_intonation_perc,2020.2.10,MacIntel,60,,,,,,,,,,1,cuban,1,1,1.401655,0,52,52,17,1,18,./stim/wavs/andalusian_match_interrogative-partial-wh_Cuando-leia-el-libro.wav,./stim/wavs/argentine_match_interrogative-partial-wh_Cuando-leia-el-libro.wav,./stim/wavs/castilian_match_interrogative-partial-wh_Cuando-leia-el-libro.wav,./stim/wavs/chilean_match_interrogative-partial-wh_Cuando-leia-el-libro.wav,./stim/wavs/cuban_match_interrogative-partial-wh_Cuando-leia-el-libro.wav,./stim/wavs/mexican_match_interrogative-partial-wh_Cuando-leia-el-libro.wav,./stim/wavs/peruvian_match_interrogative-partial-wh_Cuando-leia-el-libro.wav,./stim/wavs/puertorican_match_interrogative-partial-wh_Cuando-leia-el-libro.wav,,,,,,,,,,,,,,,,,,,,,,,,,,,,,,,,,,,,,,,,,,,,,,,,,,,,,,,,
,,,,,,,5ffef0a1255d0c5fd3bdfd6a,6057c54e64b0b4e5c128b4f9,60596a01c57551d943ff1b00,Mexico,East coast,13 or older,no,2021-03-23_00h10.17.206,empathy_intonation_perc,2020.2.10,MacIntel,60,,,,,,,,,,0,peruvian,0,1,2.067385,0,53,53,6,1,7,./stim/wavs/andalusian_match_declarative-broad-focus_Mariano-habla-del-tiempo.wav,./stim/wavs/argentine_match_declarative-broad-focus_Mariano-habla-del-tiempo.wav,./stim/wavs/castilian_match_declarative-broad-focus_Mariano-habla-del-tiempo.wav,./stim/wavs/chilean_match_declarative-broad-focus_Mariano-habla-del-tiempo.wav,./stim/wavs/cuban_match_declarative-broad-focus_Mariano-habla-del-tiempo.wav,./stim/wavs/mexican_match_declarative-broad-focus_Mariano-habla-del-tiempo.wav,./stim/wavs/peruvian_match_declarative-broad-focus_Mariano-habla-del-tiempo.wav,./stim/wavs/puertorican_match_declarative-broad-focus_Mariano-habla-del-tiempo.wav,,,,,,,,,,,,,,,,,,,,,,,,,,,,,,,,,,,,,,,,,,,,,,,,,,,,,,,,
,,,,,,,5ffef0a1255d0c5fd3bdfd6a,6057c54e64b0b4e5c128b4f9,60596a01c57551d943ff1b00,Mexico,East coast,13 or older,no,2021-03-23_00h10.17.206,empathy_intonation_perc,2020.2.10,MacIntel,60,,,,,,,,,,0,castilian,0,1,1.93061,0,54,54,2,1,3,./stim/wavs/andalusian_match_declarative-broad-focus_David-leia-el-libro.wav,./stim/wavs/argentine_match_declarative-broad-focus_David-leia-el-libro.wav,./stim/wavs/castilian_match_declarative-broad-focus_David-leia-el-libro.wav,./stim/wavs/chilean_match_declarative-broad-focus_David-leia-el-libro.wav,./stim/wavs/cuban_match_declarative-broad-focus_David-leia-el-libro.wav,./stim/wavs/mexican_match_declarative-broad-focus_David-leia-el-libro.wav,./stim/wavs/peruvian_match_declarative-broad-focus_David-leia-el-libro.wav,./stim/wavs/puertorican_match_declarative-broad-focus_David-leia-el-libro.wav,,,,,,,,,,,,,,,,,,,,,,,,,,,,,,,,,,,,,,,,,,,,,,,,,,,,,,,,
,,,,,,,5ffef0a1255d0c5fd3bdfd6a,6057c54e64b0b4e5c128b4f9,60596a01c57551d943ff1b00,Mexico,East coast,13 or older,no,2021-03-23_00h10.17.206,empathy_intonation_perc,2020.2.10,MacIntel,60,,,,,,,,,,0,cuban,0,1,1.656065,0,55,55,35,1,36,./stim/wavs/andalusian_mismatch_declarative-broad-focus_La-maestra-vive-en-Paris.wav,./stim/wavs/argentine_mismatch_declarative-broad-focus_La-maestra-vive-en-Paris.wav,./stim/wavs/castilian_mismatch_declarative-broad-focus_La-maestra-vive-en-Paris.wav,./stim/wavs/chilean_mismatch_declarative-broad-focus_La-maestra-vive-en-Paris.wav,./stim/wavs/cuban_mismatch_declarative-broad-focus_La-maestra-vive-en-Paris.wav,./stim/wavs/mexican_mismatch_declarative-broad-focus_La-maestra-vive-en-Paris.wav,./stim/wavs/peruvian_mismatch_declarative-broad-focus_La-maestra-vive-en-Paris.wav,./stim/wavs/puertorican_mismatch_declarative-broad-focus_La-maestra-vive-en-Paris.wav,,,,,,,,,,,,,,,,,,,,,,,,,,,,,,,,,,,,,,,,,,,,,,,,,,,,,,,,
,,,,,,,5ffef0a1255d0c5fd3bdfd6a,6057c54e64b0b4e5c128b4f9,60596a01c57551d943ff1b00,Mexico,East coast,13 or older,no,2021-03-23_00h10.17.206,empathy_intonation_perc,2020.2.10,MacIntel,60,,,,,,,,,,0,peruvian,0,1,1.868165,0,56,56,33,1,34,./stim/wavs/andalusian_mismatch_declarative-broad-focus_El-hombre-mira-la-luna.wav,./stim/wavs/argentine_mismatch_declarative-broad-focus_El-hombre-mira-la-luna.wav,./stim/wavs/castilian_mismatch_declarative-broad-focus_El-hombre-mira-la-luna.wav,./stim/wavs/chilean_mismatch_declarative-broad-focus_El-hombre-mira-la-luna.wav,./stim/wavs/cuban_mismatch_declarative-broad-focus_El-hombre-mira-la-luna.wav,./stim/wavs/mexican_mismatch_declarative-broad-focus_El-hombre-mira-la-luna.wav,./stim/wavs/peruvian_mismatch_declarative-broad-focus_El-hombre-mira-la-luna.wav,./stim/wavs/puertorican_mismatch_declarative-broad-focus_El-hombre-mira-la-luna.wav,,,,,,,,,,,,,,,,,,,,,,,,,,,,,,,,,,,,,,,,,,,,,,,,,,,,,,,,
,,,,,,,5ffef0a1255d0c5fd3bdfd6a,6057c54e64b0b4e5c128b4f9,60596a01c57551d943ff1b00,Mexico,East coast,13 or older,no,2021-03-23_00h10.17.206,empathy_intonation_perc,2020.2.10,MacIntel,60,,,,,,,,,,0,mexican,0,1,1.45123,0,57,57,11,1,12,./stim/wavs/andalusian_match_declarative-narrow-focus_Emilio-ama-la-marcha.wav,./stim/wavs/argentine_match_declarative-narrow-focus_Emilio-ama-la-marcha.wav,./stim/wavs/castilian_match_declarative-narrow-focus_Emilio-ama-la-marcha.wav,./stim/wavs/chilean_match_declarative-narrow-focus_Emilio-ama-la-marcha.wav,./stim/wavs/cuban_match_declarative-narrow-focus_Emilio-ama-la-marcha.wav,./stim/wavs/mexican_match_declarative-narrow-focus_Emilio-ama-la-marcha.wav,./stim/wavs/peruvian_match_declarative-narrow-focus_Emilio-ama-la-marcha.wav,./stim/wavs/puertorican_match_declarative-narrow-focus_Emilio-ama-la-marcha.wav,,,,,,,,,,,,,,,,,,,,,,,,,,,,,,,,,,,,,,,,,,,,,,,,,,,,,,,,
,,,,,,,5ffef0a1255d0c5fd3bdfd6a,6057c54e64b0b4e5c128b4f9,60596a01c57551d943ff1b00,Mexico,East coast,13 or older,no,2021-03-23_00h10.17.206,empathy_intonation_perc,2020.2.10,MacIntel,60,,,,,,,,,,0,chilean,0,1,1.535545,0,58,58,45,1,46,./stim/wavs/andalusian_mismatch_declarative-narrow-focus_Mi-madre-come-la-fruta.wav,./stim/wavs/argentine_mismatch_declarative-narrow-focus_Mi-madre-come-la-fruta.wav,./stim/wavs/castilian_mismatch_declarative-narrow-focus_Mi-madre-come-la-fruta.wav,./stim/wavs/chilean_mismatch_declarative-narrow-focus_Mi-madre-come-la-fruta.wav,./stim/wavs/cuban_mismatch_declarative-narrow-focus_Mi-madre-come-la-fruta.wav,./stim/wavs/mexican_mismatch_declarative-narrow-focus_Mi-madre-come-la-fruta.wav,./stim/wavs/peruvian_mismatch_declarative-narrow-focus_Mi-madre-come-la-fruta.wav,./stim/wavs/puertorican_mismatch_declarative-narrow-focus_Mi-madre-come-la-fruta.wav,,,,,,,,,,,,,,,,,,,,,,,,,,,,,,,,,,,,,,,,,,,,,,,,,,,,,,,,
,,,,,,,5ffef0a1255d0c5fd3bdfd6a,6057c54e64b0b4e5c128b4f9,60596a01c57551d943ff1b00,Mexico,East coast,13 or older,no,2021-03-23_00h10.17.206,empathy_intonation_perc,2020.2.10,MacIntel,60,,,,,,,,,,1,argentine,0,0,1.270555,0,59,59,28,1,29,./stim/wavs/andalusian_match_interrogative-total-yn_Manuela-vende-el-carro.wav,./stim/wavs/argentine_match_interrogative-total-yn_Manuela-vende-el-carro.wav,./stim/wavs/castilian_match_interrogative-total-yn_Manuela-vende-el-carro.wav,./stim/wavs/chilean_match_interrogative-total-yn_Manuela-vende-el-carro.wav,./stim/wavs/cuban_match_interrogative-total-yn_Manuela-vende-el-carro.wav,./stim/wavs/mexican_match_interrogative-total-yn_Manuela-vende-el-carro.wav,./stim/wavs/peruvian_match_interrogative-total-yn_Manuela-vende-el-carro.wav,./stim/wavs/puertorican_match_interrogative-total-yn_Manuela-vende-el-carro.wav,,,,,,,,,,,,,,,,,,,,,,,,,,,,,,,,,,,,,,,,,,,,,,,,,,,,,,,,
,,,,,,,5ffef0a1255d0c5fd3bdfd6a,6057c54e64b0b4e5c128b4f9,60596a01c57551d943ff1b00,Mexico,East coast,13 or older,no,2021-03-23_00h10.17.206,empathy_intonation_perc,2020.2.10,MacIntel,60,,,,,,,,,,1,puertorican,0,0,1.533705,0,60,60,56,1,57,./stim/wavs/andalusian_mismatch_interrogative-total-yn_El-bebe-comia-muy-bien.wav,./stim/wavs/argentine_mismatch_interrogative-total-yn_El-bebe-comia-muy-bien.wav,./stim/wavs/castilian_mismatch_interrogative-total-yn_El-bebe-comia-muy-bien.wav,./stim/wavs/chilean_mismatch_interrogative-total-yn_El-bebe-comia-muy-bien.wav,./stim/wavs/cuban_mismatch_interrogative-total-yn_El-bebe-comia-muy-bien.wav,./stim/wavs/mexican_mismatch_interrogative-total-yn_El-bebe-comia-muy-bien.wav,./stim/wavs/peruvian_mismatch_interrogative-total-yn_El-bebe-comia-muy-bien.wav,./stim/wavs/puertorican_mismatch_interrogative-total-yn_El-bebe-comia-muy-bien.wav,,,,,,,,,,,,,,,,,,,,,,,,,,,,,,,,,,,,,,,,,,,,,,,,,,,,,,,,
,,,,,,,5ffef0a1255d0c5fd3bdfd6a,6057c54e64b0b4e5c128b4f9,60596a01c57551d943ff1b00,Mexico,East coast,13 or older,no,2021-03-23_00h10.17.206,empathy_intonation_perc,2020.2.10,MacIntel,60,,,,,,,,,,1,andalusian,0,0,1.4337,0,61,61,60,1,61,./stim/wavs/andalusian_mismatch_interrogative-total-yn_La-nina-lava-el-plato.wav,./stim/wavs/argentine_mismatch_interrogative-total-yn_La-nina-lava-el-plato.wav,./stim/wavs/castilian_mismatch_interrogative-total-yn_La-nina-lava-el-plato.wav,./stim/wavs/chilean_mismatch_interrogative-total-yn_La-nina-lava-el-plato.wav,./stim/wavs/cuban_mismatch_interrogative-total-yn_La-nina-lava-el-plato.wav,./stim/wavs/mexican_mismatch_interrogative-total-yn_La-nina-lava-el-plato.wav,./stim/wavs/peruvian_mismatch_interrogative-total-yn_La-nina-lava-el-plato.wav,./stim/wavs/puertorican_mismatch_interrogative-total-yn_La-nina-lava-el-plato.wav,,,,,,,,,,,,,,,,,,,,,,,,,,,,,,,,,,,,,,,,,,,,,,,,,,,,,,,,
,,,,,,,5ffef0a1255d0c5fd3bdfd6a,6057c54e64b0b4e5c128b4f9,60596a01c57551d943ff1b00,Mexico,East coast,13 or older,no,2021-03-23_00h10.17.206,empathy_intonation_perc,2020.2.10,MacIntel,60,,,,,,,,,,0,chilean,1,0,1.639625,0,62,62,43,1,44,./stim/wavs/andalusian_mismatch_declarative-narrow-focus_La-maestra-vive-en-Paris.wav,./stim/wavs/argentine_mismatch_declarative-narrow-focus_La-maestra-vive-en-Paris.wav,./stim/wavs/castilian_mismatch_declarative-narrow-focus_La-maestra-vive-en-Paris.wav,./stim/wavs/chilean_mismatch_declarative-narrow-focus_La-maestra-vive-en-Paris.wav,./stim/wavs/cuban_mismatch_declarative-narrow-focus_La-maestra-vive-en-Paris.wav,./stim/wavs/mexican_mismatch_declarative-narrow-focus_La-maestra-vive-en-Paris.wav,./stim/wavs/peruvian_mismatch_declarative-narrow-focus_La-maestra-vive-en-Paris.wav,./stim/wavs/puertorican_mismatch_declarative-narrow-focus_La-maestra-vive-en-Paris.wav,,,,,,,,,,,,,,,,,,,,,,,,,,,,,,,,,,,,,,,,,,,,,,,,,,,,,,,,
,,,,,,,5ffef0a1255d0c5fd3bdfd6a,6057c54e64b0b4e5c128b4f9,60596a01c57551d943ff1b00,Mexico,East coast,13 or older,no,2021-03-23_00h10.17.206,empathy_intonation_perc,2020.2.10,MacIntel,60,,,,,,,,,,0,mexican,0,1,1.50104,0,63,63,15,1,16,./stim/wavs/andalusian_match_declarative-narrow-focus_Marta-abre-el-regalo.wav,./stim/wavs/argentine_match_declarative-narrow-focus_Marta-abre-el-regalo.wav,./stim/wavs/castilian_match_declarative-narrow-focus_Marta-abre-el-regalo.wav,./stim/wavs/chilean_match_declarative-narrow-focus_Marta-abre-el-regalo.wav,./stim/wavs/cuban_match_declarative-narrow-focus_Marta-abre-el-regalo.wav,./stim/wavs/mexican_match_declarative-narrow-focus_Marta-abre-el-regalo.wav,./stim/wavs/peruvian_match_declarative-narrow-focus_Marta-abre-el-regalo.wav,./stim/wavs/puertorican_match_declarative-narrow-focus_Marta-abre-el-regalo.wav,,,,,,,,,,,,,,,,,,,,,,,,,,,,,,,,,,,,,,,,,,,,,,,,,,,,,,,,
,,,,,,,5ffef0a1255d0c5fd3bdfd6a,6057c54e64b0b4e5c128b4f9,60596a01c57551d943ff1b00,Mexico,East coast,13 or older,no,2021-03-23_00h10.17.206,empathy_intonation_perc,2020.2.10,MacIntel,60,,,,,,,,,,,,,,,,,,,,,,,,,,,,,h,1,2.73284,0,0,0,0,1,,,,,,,,,,,,,,,,,,,,,,,,,,,,,,,,,,,,,,,,,,,,,,,,
,,,,,"Great! Now we will move on. The next task consists of about 60 trials, in each of which you will see a string of letters. 
  
  Your task is to decide whether this is a real Spanish word or not.",(press the spacebar to continue),5ffef0a1255d0c5fd3bdfd6a,6057c54e64b0b4e5c128b4f9,60596a01c57551d943ff1b00,Mexico,East coast,13 or older,no,2021-03-23_00h10.17.206,empathy_intonation_perc,2020.2.10,MacIntel,60,,,,,,,,,,,,,,,,,,,,,,,,,,,,,,,,,,,,,0,0,0,0,1,,,,,,,,,,,,,,,,,,,,,,,,,,,,,,,,,,,,,,,,,,,
,,,,,"If you think it is an existing Spanish word, you type '1' (for 'REAL'), and if you think it is not an existing Spanish word, you type '0' (for 'FAKE').",(press the spacebar to continue),5ffef0a1255d0c5fd3bdfd6a,6057c54e64b0b4e5c128b4f9,60596a01c57551d943ff1b00,Mexico,East coast,13 or older,no,2021-03-23_00h10.17.206,empathy_intonation_perc,2020.2.10,MacIntel,60,,,,,,,,,,,,,,,,,,,,,,,,,,,,,,,,,,,,,0,1,1,1,1,,,,,,,,,,,,,,,,,,,,,,,,,,,,,,,,,,,,,,,,,,,
,,,,,"If you are sure that the word exists, even though you dont know its exact meaning, you may still respond '1' (REAL). 
  
  But if you are not sure if it is an existing word, you should respond '0' (FAKE).
  
  Let's do a practice round...",(press the spacebar to continue),5ffef0a1255d0c5fd3bdfd6a,6057c54e64b0b4e5c128b4f9,60596a01c57551d943ff1b00,Mexico,East coast,13 or older,no,2021-03-23_00h10.17.206,empathy_intonation_perc,2020.2.10,MacIntel,60,,,,,,,,,,,,,,,,,,,,,,,,,,,,,,,,,,,,,0,2,2,2,1,,,,,,,,,,,,,,,,,,,,,,,,,,,,,,,,,,,,,,,,,,,
,,,,,,,5ffef0a1255d0c5fd3bdfd6a,6057c54e64b0b4e5c128b4f9,60596a01c57551d943ff1b00,Mexico,East coast,13 or older,no,2021-03-23_00h10.17.206,empathy_intonation_perc,2020.2.10,MacIntel,60,,,,,,,,,,0,,,,,,,,,,,,,,,,,,,,,,,,,,,,,,,,0,1,2.19545,0,0,0,0,1,0,depiste,REAL,FAKE,,,,,,,,,,,,,,,,,,,,,,,,,,,,,,,
,,,,,,,5ffef0a1255d0c5fd3bdfd6a,6057c54e64b0b4e5c128b4f9,60596a01c57551d943ff1b00,Mexico,East coast,13 or older,no,2021-03-23_00h10.17.206,empathy_intonation_perc,2020.2.10,MacIntel,60,,,,,,,,,,1,,,,,,,,,,,,,,,,,,,,,,,,,,,,,,,,1,1,0.82101,0,1,1,1,1,0,s,REAL,FAKE,,,,,,,,,,,,,,,,,,,,,,,,,,,,,,,
,,,,,,,5ffef0a1255d0c5fd3bdfd6a,6057c54e64b0b4e5c128b4f9,60596a01c57551d943ff1b00,Mexico,East coast,13 or older,no,2021-03-23_00h10.17.206,empathy_intonation_perc,2020.2.10,MacIntel,60,,,,,,,,,,0,,,,,,,,,,,,,,,,,,,,,,,,,,,,,,,,0,1,0.931945,0,2,2,2,1,0,con,REAL,FAKE,,,,,,,,,,,,,,,,,,,,,,,,,,,,,,,
,,,,,,,5ffef0a1255d0c5fd3bdfd6a,6057c54e64b0b4e5c128b4f9,60596a01c57551d943ff1b00,Mexico,East coast,13 or older,no,2021-03-23_00h10.17.206,empathy_intonation_perc,2020.2.10,MacIntel,60,,,,,,,,,,0,,,,,,,,,,,,,,,,,,,,,,,,,,,,,,,,0,1,1.04622,0,3,3,3,1,0,calpar,REAL,FAKE,,,,,,,,,,,,,,,,,,,,,,,,,,,,,,,
,,,,,,,5ffef0a1255d0c5fd3bdfd6a,6057c54e64b0b4e5c128b4f9,60596a01c57551d943ff1b00,Mexico,East coast,13 or older,no,2021-03-23_00h10.17.206,empathy_intonation_perc,2020.2.10,MacIntel,60,,,,,,,,,,0,,,,,,,,,,,,,,,,,,,,,,,,,,,,,,,,0,1,0.666865,0,4,4,4,1,0,joten,REAL,FAKE,,,,,,,,,,,,,,,,,,,,,,,,,,,,,,,
,,,,,,,5ffef0a1255d0c5fd3bdfd6a,6057c54e64b0b4e5c128b4f9,60596a01c57551d943ff1b00,Mexico,East coast,13 or older,no,2021-03-23_00h10.17.206,empathy_intonation_perc,2020.2.10,MacIntel,60,,,,,,,,,,1,,,,,,,,,,,,,,,,,,,,,,,,,,,,,,,,0,0,1.000855,0,5,5,5,1,0,sacapuntas,REAL,FAKE,,,,,,,,,,,,,,,,,,,,,,,,,,,,,,,
,,,,,,,5ffef0a1255d0c5fd3bdfd6a,6057c54e64b0b4e5c128b4f9,60596a01c57551d943ff1b00,Mexico,East coast,13 or older,no,2021-03-23_00h10.17.206,empathy_intonation_perc,2020.2.10,MacIntel,60,,,,,,,,,,0,,,,,,,,,,,,,,,,,,,,,,,,,,,,,,,,0,1,0.850015,0,6,6,6,1,0,priba,REAL,FAKE,,,,,,,,,,,,,,,,,,,,,,,,,,,,,,,
,,,,,,,5ffef0a1255d0c5fd3bdfd6a,6057c54e64b0b4e5c128b4f9,60596a01c57551d943ff1b00,Mexico,East coast,13 or older,no,2021-03-23_00h10.17.206,empathy_intonation_perc,2020.2.10,MacIntel,60,,,,,,,,,,0,,,,,,,,,,,,,,,,,,,,,,,,,,,,,,,,0,1,0.95024,0,7,7,7,1,0,pelasula,REAL,FAKE,,,,,,,,,,,,,,,,,,,,,,,,,,,,,,,
,,,,,,,5ffef0a1255d0c5fd3bdfd6a,6057c54e64b0b4e5c128b4f9,60596a01c57551d943ff1b00,Mexico,East coast,13 or older,no,2021-03-23_00h10.17.206,empathy_intonation_perc,2020.2.10,MacIntel,60,,,,,,,,,,1,,,,,,,,,,,,,,,,,,,,,,,,,,,,,,,,1,1,0.70045,0,8,8,8,1,0,bien,REAL,FAKE,,,,,,,,,,,,,,,,,,,,,,,,,,,,,,,
,,,,,,,5ffef0a1255d0c5fd3bdfd6a,6057c54e64b0b4e5c128b4f9,60596a01c57551d943ff1b00,Mexico,East coast,13 or older,no,2021-03-23_00h10.17.206,empathy_intonation_perc,2020.2.10,MacIntel,60,,,,,,,,,,1,,,,,,,,,,,,,,,,,,,,,,,,,,,,,,,,1,1,0.61873,0,9,9,9,1,0,casa,REAL,FAKE,,,,,,,,,,,,,,,,,,,,,,,,,,,,,,,
,,,,,,,5ffef0a1255d0c5fd3bdfd6a,6057c54e64b0b4e5c128b4f9,60596a01c57551d943ff1b00,Mexico,East coast,13 or older,no,2021-03-23_00h10.17.206,empathy_intonation_perc,2020.2.10,MacIntel,60,,,,,,,,,,0,,,,,,,,,,,,,,,,,,,,,,,,,,,,,,,,1,0,1.151155,0,10,10,10,1,0,lejo,REAL,FAKE,,,,,,,,,,,,,,,,,,,,,,,,,,,,,,,
,,,,,,,5ffef0a1255d0c5fd3bdfd6a,6057c54e64b0b4e5c128b4f9,60596a01c57551d943ff1b00,Mexico,East coast,13 or older,no,2021-03-23_00h10.17.206,empathy_intonation_perc,2020.2.10,MacIntel,60,,,,,,,,,,0,,,,,,,,,,,,,,,,,,,,,,,,,,,,,,,,0,1,0.86786,0,11,11,11,1,0,pretantas,REAL,FAKE,,,,,,,,,,,,,,,,,,,,,,,,,,,,,,,
,,,,,,,5ffef0a1255d0c5fd3bdfd6a,6057c54e64b0b4e5c128b4f9,60596a01c57551d943ff1b00,Mexico,East coast,13 or older,no,2021-03-23_00h10.17.206,empathy_intonation_perc,2020.2.10,MacIntel,60,,,,,,,,,,0,,,,,,,,,,,,,,,,,,,,,,,,,,,,,,,,,,,,,,,,53,vegada,,,0,1,0.9278,0,0,0,52,1,REAL,FAKE,,,,,,,,,,,,,,,,,,,,,
,,,,,,,5ffef0a1255d0c5fd3bdfd6a,6057c54e64b0b4e5c128b4f9,60596a01c57551d943ff1b00,Mexico,East coast,13 or older,no,2021-03-23_00h10.17.206,empathy_intonation_perc,2020.2.10,MacIntel,60,,,,,,,,,,1,,,,,,,,,,,,,,,,,,,,,,,,,,,,,,,,,,,,,,,,3,pulmones,,,1,1,0.964265,0,1,1,2,1,REAL,FAKE,,,,,,,,,,,,,,,,,,,,,
,,,,,,,5ffef0a1255d0c5fd3bdfd6a,6057c54e64b0b4e5c128b4f9,60596a01c57551d943ff1b00,Mexico,East coast,13 or older,no,2021-03-23_00h10.17.206,empathy_intonation_perc,2020.2.10,MacIntel,60,,,,,,,,,,1,,,,,,,,,,,,,,,,,,,,,,,,,,,,,,,,,,,,,,,,69,engatusar,,,0,0,1.24847,0,2,2,68,1,REAL,FAKE,,,,,,,,,,,,,,,,,,,,,
,,,,,,,5ffef0a1255d0c5fd3bdfd6a,6057c54e64b0b4e5c128b4f9,60596a01c57551d943ff1b00,Mexico,East coast,13 or older,no,2021-03-23_00h10.17.206,empathy_intonation_perc,2020.2.10,MacIntel,60,,,,,,,,,,1,,,,,,,,,,,,,,,,,,,,,,,,,,,,,,,,,,,,,,,,2,pellizcar,,,0,0,1.071075,0,3,3,1,1,REAL,FAKE,,,,,,,,,,,,,,,,,,,,,
,,,,,,,5ffef0a1255d0c5fd3bdfd6a,6057c54e64b0b4e5c128b4f9,60596a01c57551d943ff1b00,Mexico,East coast,13 or older,no,2021-03-23_00h10.17.206,empathy_intonation_perc,2020.2.10,MacIntel,60,,,,,,,,,,0,,,,,,,,,,,,,,,,,,,,,,,,,,,,,,,,,,,,,,,,87,grodo,,,0,1,0.81411,0,4,4,86,1,REAL,FAKE,,,,,,,,,,,,,,,,,,,,,
,,,,,,,5ffef0a1255d0c5fd3bdfd6a,6057c54e64b0b4e5c128b4f9,60596a01c57551d943ff1b00,Mexico,East coast,13 or older,no,2021-03-23_00h10.17.206,empathy_intonation_perc,2020.2.10,MacIntel,60,,,,,,,,,,1,,,,,,,,,,,,,,,,,,,,,,,,,,,,,,,,,,,,,,,,6,tergiversar,,,1,1,1.135995,0,5,5,5,1,REAL,FAKE,,,,,,,,,,,,,,,,,,,,,
,,,,,,,5ffef0a1255d0c5fd3bdfd6a,6057c54e64b0b4e5c128b4f9,60596a01c57551d943ff1b00,Mexico,East coast,13 or older,no,2021-03-23_00h10.17.206,empathy_intonation_perc,2020.2.10,MacIntel,60,,,,,,,,,,0,,,,,,,,,,,,,,,,,,,,,,,,,,,,,,,,,,,,,,,,63,esposante,,,0,1,1.16734,0,6,6,62,1,REAL,FAKE,,,,,,,,,,,,,,,,,,,,,
,,,,,,,5ffef0a1255d0c5fd3bdfd6a,6057c54e64b0b4e5c128b4f9,60596a01c57551d943ff1b00,Mexico,East coast,13 or older,no,2021-03-23_00h10.17.206,empathy_intonation_perc,2020.2.10,MacIntel,60,,,,,,,,,,1,,,,,,,,,,,,,,,,,,,,,,,,,,,,,,,,,,,,,,,,56,musgo,,,0,0,0.686345,0,7,7,55,1,REAL,FAKE,,,,,,,,,,,,,,,,,,,,,
,,,,,,,5ffef0a1255d0c5fd3bdfd6a,6057c54e64b0b4e5c128b4f9,60596a01c57551d943ff1b00,Mexico,East coast,13 or older,no,2021-03-23_00h10.17.206,empathy_intonation_perc,2020.2.10,MacIntel,60,,,,,,,,,,1,,,,,,,,,,,,,,,,,,,,,,,,,,,,,,,,,,,,,,,,71,polvoriento,,,0,0,0.70076,0,8,8,70,1,REAL,FAKE,,,,,,,,,,,,,,,,,,,,,
,,,,,,,5ffef0a1255d0c5fd3bdfd6a,6057c54e64b0b4e5c128b4f9,60596a01c57551d943ff1b00,Mexico,East coast,13 or older,no,2021-03-23_00h10.17.206,empathy_intonation_perc,2020.2.10,MacIntel,60,,,,,,,,,,0,,,,,,,,,,,,,,,,,,,,,,,,,,,,,,,,,,,,,,,,42,cadallo,,,0,1,0.629815,0,9,9,41,1,REAL,FAKE,,,,,,,,,,,,,,,,,,,,,
,,,,,,,5ffef0a1255d0c5fd3bdfd6a,6057c54e64b0b4e5c128b4f9,60596a01c57551d943ff1b00,Mexico,East coast,13 or older,no,2021-03-23_00h10.17.206,empathy_intonation_perc,2020.2.10,MacIntel,60,,,,,,,,,,0,,,,,,,,,,,,,,,,,,,,,,,,,,,,,,,,,,,,,,,,21,capillo,,,1,0,1.386305,0,10,10,20,1,REAL,FAKE,,,,,,,,,,,,,,,,,,,,,
,,,,,,,5ffef0a1255d0c5fd3bdfd6a,6057c54e64b0b4e5c128b4f9,60596a01c57551d943ff1b00,Mexico,East coast,13 or older,no,2021-03-23_00h10.17.206,empathy_intonation_perc,2020.2.10,MacIntel,60,,,,,,,,,,1,,,,,,,,,,,,,,,,,,,,,,,,,,,,,,,,,,,,,,,,80,hormiga,,,0,0,0.96876,0,11,11,79,1,REAL,FAKE,,,,,,,,,,,,,,,,,,,,,
,,,,,,,5ffef0a1255d0c5fd3bdfd6a,6057c54e64b0b4e5c128b4f9,60596a01c57551d943ff1b00,Mexico,East coast,13 or older,no,2021-03-23_00h10.17.206,empathy_intonation_perc,2020.2.10,MacIntel,60,,,,,,,,,,1,,,,,,,,,,,,,,,,,,,,,,,,,,,,,,,,,,,,,,,,85,lad,,,0,0,0.748385,0,12,12,84,1,REAL,FAKE,,,,,,,,,,,,,,,,,,,,,
,,,,,,,5ffef0a1255d0c5fd3bdfd6a,6057c54e64b0b4e5c128b4f9,60596a01c57551d943ff1b00,Mexico,East coast,13 or older,no,2021-03-23_00h10.17.206,empathy_intonation_perc,2020.2.10,MacIntel,60,,,,,,,,,,1,,,,,,,,,,,,,,,,,,,,,,,,,,,,,,,,,,,,,,,,65,bizcocho,,,0,0,0.54868,0,13,13,64,1,REAL,FAKE,,,,,,,,,,,,,,,,,,,,,
,,,,,,,5ffef0a1255d0c5fd3bdfd6a,6057c54e64b0b4e5c128b4f9,60596a01c57551d943ff1b00,Mexico,East coast,13 or older,no,2021-03-23_00h10.17.206,empathy_intonation_perc,2020.2.10,MacIntel,60,,,,,,,,,,1,,,,,,,,,,,,,,,,,,,,,,,,,,,,,,,,,,,,,,,,73,hervidor,,,0,0,0.9506,0,14,14,72,1,REAL,FAKE,,,,,,,,,,,,,,,,,,,,,
,,,,,,,5ffef0a1255d0c5fd3bdfd6a,6057c54e64b0b4e5c128b4f9,60596a01c57551d943ff1b00,Mexico,East coast,13 or older,no,2021-03-23_00h10.17.206,empathy_intonation_perc,2020.2.10,MacIntel,60,,,,,,,,,,0,,,,,,,,,,,,,,,,,,,,,,,,,,,,,,,,,,,,,,,,35,rompido,,,0,1,0.9839,0,15,15,34,1,REAL,FAKE,,,,,,,,,,,,,,,,,,,,,
,,,,,,,5ffef0a1255d0c5fd3bdfd6a,6057c54e64b0b4e5c128b4f9,60596a01c57551d943ff1b00,Mexico,East coast,13 or older,no,2021-03-23_00h10.17.206,empathy_intonation_perc,2020.2.10,MacIntel,60,,,,,,,,,,1,,,,,,,,,,,,,,,,,,,,,,,,,,,,,,,,,,,,,,,,62,flaco,,,1,1,0.78342,0,16,16,61,1,REAL,FAKE,,,,,,,,,,,,,,,,,,,,,
,,,,,,,5ffef0a1255d0c5fd3bdfd6a,6057c54e64b0b4e5c128b4f9,60596a01c57551d943ff1b00,Mexico,East coast,13 or older,no,2021-03-23_00h10.17.206,empathy_intonation_perc,2020.2.10,MacIntel,60,,,,,,,,,,1,,,,,,,,,,,,,,,,,,,,,,,,,,,,,,,,,,,,,,,,34,aviso,,,1,1,0.71318,0,17,17,33,1,REAL,FAKE,,,,,,,,,,,,,,,,,,,,,
,,,,,,,5ffef0a1255d0c5fd3bdfd6a,6057c54e64b0b4e5c128b4f9,60596a01c57551d943ff1b00,Mexico,East coast,13 or older,no,2021-03-23_00h10.17.206,empathy_intonation_perc,2020.2.10,MacIntel,60,,,,,,,,,,1,,,,,,,,,,,,,,,,,,,,,,,,,,,,,,,,,,,,,,,,48,ladrn,,,0,0,0.80544,0,18,18,47,1,REAL,FAKE,,,,,,,,,,,,,,,,,,,,,
,,,,,,,5ffef0a1255d0c5fd3bdfd6a,6057c54e64b0b4e5c128b4f9,60596a01c57551d943ff1b00,Mexico,East coast,13 or older,no,2021-03-23_00h10.17.206,empathy_intonation_perc,2020.2.10,MacIntel,60,,,,,,,,,,1,,,,,,,,,,,,,,,,,,,,,,,,,,,,,,,,,,,,,,,,77,tiburn,,,0,0,0.851965,0,19,19,76,1,REAL,FAKE,,,,,,,,,,,,,,,,,,,,,
,,,,,,,5ffef0a1255d0c5fd3bdfd6a,6057c54e64b0b4e5c128b4f9,60596a01c57551d943ff1b00,Mexico,East coast,13 or older,no,2021-03-23_00h10.17.206,empathy_intonation_perc,2020.2.10,MacIntel,60,,,,,,,,,,1,,,,,,,,,,,,,,,,,,,,,,,,,,,,,,,,,,,,,,,,44,cuchara,,,1,1,1.096905,0,20,20,43,1,REAL,FAKE,,,,,,,,,,,,,,,,,,,,,
,,,,,,,5ffef0a1255d0c5fd3bdfd6a,6057c54e64b0b4e5c128b4f9,60596a01c57551d943ff1b00,Mexico,East coast,13 or older,no,2021-03-23_00h10.17.206,empathy_intonation_perc,2020.2.10,MacIntel,60,,,,,,,,,,0,,,,,,,,,,,,,,,,,,,,,,,,,,,,,,,,,,,,,,,,47,cartinar,,,0,1,0.832185,0,21,21,46,1,REAL,FAKE,,,,,,,,,,,,,,,,,,,,,
,,,,,,,5ffef0a1255d0c5fd3bdfd6a,6057c54e64b0b4e5c128b4f9,60596a01c57551d943ff1b00,Mexico,East coast,13 or older,no,2021-03-23_00h10.17.206,empathy_intonation_perc,2020.2.10,MacIntel,60,,,,,,,,,,0,,,,,,,,,,,,,,,,,,,,,,,,,,,,,,,,,,,,,,,,79,tropaje,,,0,1,0.66703,0,22,22,78,1,REAL,FAKE,,,,,,,,,,,,,,,,,,,,,
,,,,,,,5ffef0a1255d0c5fd3bdfd6a,6057c54e64b0b4e5c128b4f9,60596a01c57551d943ff1b00,Mexico,East coast,13 or older,no,2021-03-23_00h10.17.206,empathy_intonation_perc,2020.2.10,MacIntel,60,,,,,,,,,,0,,,,,,,,,,,,,,,,,,,,,,,,,,,,,,,,,,,,,,,,10,antar,,,0,1,1.10296,0,23,23,9,1,REAL,FAKE,,,,,,,,,,,,,,,,,,,,,
,,,,,,,5ffef0a1255d0c5fd3bdfd6a,6057c54e64b0b4e5c128b4f9,60596a01c57551d943ff1b00,Mexico,East coast,13 or older,no,2021-03-23_00h10.17.206,empathy_intonation_perc,2020.2.10,MacIntel,60,,,,,,,,,,1,,,,,,,,,,,,,,,,,,,,,,,,,,,,,,,,,,,,,,,,15,regar,,,0,0,0.683855,0,24,24,14,1,REAL,FAKE,,,,,,,,,,,,,,,,,,,,,
,,,,,,,5ffef0a1255d0c5fd3bdfd6a,6057c54e64b0b4e5c128b4f9,60596a01c57551d943ff1b00,Mexico,East coast,13 or older,no,2021-03-23_00h10.17.206,empathy_intonation_perc,2020.2.10,MacIntel,60,,,,,,,,,,0,,,,,,,,,,,,,,,,,,,,,,,,,,,,,,,,,,,,,,,,27,acutacin,,,0,1,1.031915,0,25,25,26,1,REAL,FAKE,,,,,,,,,,,,,,,,,,,,,
,,,,,,,5ffef0a1255d0c5fd3bdfd6a,6057c54e64b0b4e5c128b4f9,60596a01c57551d943ff1b00,Mexico,East coast,13 or older,no,2021-03-23_00h10.17.206,empathy_intonation_perc,2020.2.10,MacIntel,60,,,,,,,,,,1,,,,,,,,,,,,,,,,,,,,,,,,,,,,,,,,,,,,,,,,5,zapato,,,1,1,0.766165,0,26,26,4,1,REAL,FAKE,,,,,,,,,,,,,,,,,,,,,
,,,,,,,5ffef0a1255d0c5fd3bdfd6a,6057c54e64b0b4e5c128b4f9,60596a01c57551d943ff1b00,Mexico,East coast,13 or older,no,2021-03-23_00h10.17.206,empathy_intonation_perc,2020.2.10,MacIntel,60,,,,,,,,,,1,,,,,,,,,,,,,,,,,,,,,,,,,,,,,,,,,,,,,,,,88,acantilado,,,0,0,0.7998,0,27,27,87,1,REAL,FAKE,,,,,,,,,,,,,,,,,,,,,
,,,,,,,5ffef0a1255d0c5fd3bdfd6a,6057c54e64b0b4e5c128b4f9,60596a01c57551d943ff1b00,Mexico,East coast,13 or older,no,2021-03-23_00h10.17.206,empathy_intonation_perc,2020.2.10,MacIntel,60,,,,,,,,,,1,,,,,,,,,,,,,,,,,,,,,,,,,,,,,,,,,,,,,,,,40,alfombra,,,0,0,1.181405,0,28,28,39,1,REAL,FAKE,,,,,,,,,,,,,,,,,,,,,
,,,,,,,5ffef0a1255d0c5fd3bdfd6a,6057c54e64b0b4e5c128b4f9,60596a01c57551d943ff1b00,Mexico,East coast,13 or older,no,2021-03-23_00h10.17.206,empathy_intonation_perc,2020.2.10,MacIntel,60,,,,,,,,,,1,,,,,,,,,,,,,,,,,,,,,,,,,,,,,,,,,,,,,,,,59,besar,,,1,1,1.20059,0,29,29,58,1,REAL,FAKE,,,,,,,,,,,,,,,,,,,,,
,,,,,,,5ffef0a1255d0c5fd3bdfd6a,6057c54e64b0b4e5c128b4f9,60596a01c57551d943ff1b00,Mexico,East coast,13 or older,no,2021-03-23_00h10.17.206,empathy_intonation_perc,2020.2.10,MacIntel,60,,,,,,,,,,0,,,,,,,,,,,,,,,,,,,,,,,,,,,,,,,,,,,,,,,,58,plaudir,,,1,0,1.03455,0,30,30,57,1,REAL,FAKE,,,,,,,,,,,,,,,,,,,,,
,,,,,,,5ffef0a1255d0c5fd3bdfd6a,6057c54e64b0b4e5c128b4f9,60596a01c57551d943ff1b00,Mexico,East coast,13 or older,no,2021-03-23_00h10.17.206,empathy_intonation_perc,2020.2.10,MacIntel,60,,,,,,,,,,1,,,,,,,,,,,,,,,,,,,,,,,,,,,,,,,,,,,,,,,,24,ltigo,,,0,0,1.250285,0,31,31,23,1,REAL,FAKE,,,,,,,,,,,,,,,,,,,,,
,,,,,,,5ffef0a1255d0c5fd3bdfd6a,6057c54e64b0b4e5c128b4f9,60596a01c57551d943ff1b00,Mexico,East coast,13 or older,no,2021-03-23_00h10.17.206,empathy_intonation_perc,2020.2.10,MacIntel,60,,,,,,,,,,1,,,,,,,,,,,,,,,,,,,,,,,,,,,,,,,,,,,,,,,,9,hacha,,,0,0,1.201075,0,32,32,8,1,REAL,FAKE,,,,,,,,,,,,,,,,,,,,,
,,,,,,,5ffef0a1255d0c5fd3bdfd6a,6057c54e64b0b4e5c128b4f9,60596a01c57551d943ff1b00,Mexico,East coast,13 or older,no,2021-03-23_00h10.17.206,empathy_intonation_perc,2020.2.10,MacIntel,60,,,,,,,,,,1,,,,,,,,,,,,,,,,,,,,,,,,,,,,,,,,,,,,,,,,25,bisagra,,,0,0,0.65123,0,33,33,24,1,REAL,FAKE,,,,,,,,,,,,,,,,,,,,,
,,,,,,,5ffef0a1255d0c5fd3bdfd6a,6057c54e64b0b4e5c128b4f9,60596a01c57551d943ff1b00,Mexico,East coast,13 or older,no,2021-03-23_00h10.17.206,empathy_intonation_perc,2020.2.10,MacIntel,60,,,,,,,,,,1,,,,,,,,,,,,,,,,,,,,,,,,,,,,,,,,,,,,,,,,12,asesinato,,,0,0,0.650015,0,34,34,11,1,REAL,FAKE,,,,,,,,,,,,,,,,,,,,,
,,,,,,,5ffef0a1255d0c5fd3bdfd6a,6057c54e64b0b4e5c128b4f9,60596a01c57551d943ff1b00,Mexico,East coast,13 or older,no,2021-03-23_00h10.17.206,empathy_intonation_perc,2020.2.10,MacIntel,60,,,,,,,,,,1,,,,,,,,,,,,,,,,,,,,,,,,,,,,,,,,,,,,,,,,7,psimo,,,0,0,0.519745,0,35,35,6,1,REAL,FAKE,,,,,,,,,,,,,,,,,,,,,
,,,,,,,5ffef0a1255d0c5fd3bdfd6a,6057c54e64b0b4e5c128b4f9,60596a01c57551d943ff1b00,Mexico,East coast,13 or older,no,2021-03-23_00h10.17.206,empathy_intonation_perc,2020.2.10,MacIntel,60,,,,,,,,,,1,,,,,,,,,,,,,,,,,,,,,,,,,,,,,,,,,,,,,,,,28,merodear,,,0,0,0.71578,0,36,36,27,1,REAL,FAKE,,,,,,,,,,,,,,,,,,,,,
,,,,,,,5ffef0a1255d0c5fd3bdfd6a,6057c54e64b0b4e5c128b4f9,60596a01c57551d943ff1b00,Mexico,East coast,13 or older,no,2021-03-23_00h10.17.206,empathy_intonation_perc,2020.2.10,MacIntel,60,,,,,,,,,,1,,,,,,,,,,,,,,,,,,,,,,,,,,,,,,,,,,,,,,,,75,yacer,,,0,0,0.74905,0,37,37,74,1,REAL,FAKE,,,,,,,,,,,,,,,,,,,,,
,,,,,,,5ffef0a1255d0c5fd3bdfd6a,6057c54e64b0b4e5c128b4f9,60596a01c57551d943ff1b00,Mexico,East coast,13 or older,no,2021-03-23_00h10.17.206,empathy_intonation_perc,2020.2.10,MacIntel,60,,,,,,,,,,0,,,,,,,,,,,,,,,,,,,,,,,,,,,,,,,,,,,,,,,,32,fatacidad,,,0,1,0.785105,0,38,38,31,1,REAL,FAKE,,,,,,,,,,,,,,,,,,,,,
,,,,,,,5ffef0a1255d0c5fd3bdfd6a,6057c54e64b0b4e5c128b4f9,60596a01c57551d943ff1b00,Mexico,East coast,13 or older,no,2021-03-23_00h10.17.206,empathy_intonation_perc,2020.2.10,MacIntel,60,,,,,,,,,,1,,,,,,,,,,,,,,,,,,,,,,,,,,,,,,,,,,,,,,,,64,orgulloso,,,1,1,0.86838,0,39,39,63,1,REAL,FAKE,,,,,,,,,,,,,,,,,,,,,
,,,,,,,5ffef0a1255d0c5fd3bdfd6a,6057c54e64b0b4e5c128b4f9,60596a01c57551d943ff1b00,Mexico,East coast,13 or older,no,2021-03-23_00h10.17.206,empathy_intonation_perc,2020.2.10,MacIntel,60,,,,,,,,,,0,,,,,,,,,,,,,,,,,,,,,,,,,,,,,,,,,,,,,,,,19,brecedad,,,0,1,0.73255,0,40,40,18,1,REAL,FAKE,,,,,,,,,,,,,,,,,,,,,
,,,,,,,5ffef0a1255d0c5fd3bdfd6a,6057c54e64b0b4e5c128b4f9,60596a01c57551d943ff1b00,Mexico,East coast,13 or older,no,2021-03-23_00h10.17.206,empathy_intonation_perc,2020.2.10,MacIntel,60,,,,,,,,,,1,,,,,,,,,,,,,,,,,,,,,,,,,,,,,,,,,,,,,,,,39,torpe,,,0,0,0.665315,0,41,41,38,1,REAL,FAKE,,,,,,,,,,,,,,,,,,,,,
,,,,,,,5ffef0a1255d0c5fd3bdfd6a,6057c54e64b0b4e5c128b4f9,60596a01c57551d943ff1b00,Mexico,East coast,13 or older,no,2021-03-23_00h10.17.206,empathy_intonation_perc,2020.2.10,MacIntel,60,,,,,,,,,,1,,,,,,,,,,,,,,,,,,,,,,,,,,,,,,,,,,,,,,,,45,jilguero,,,0,0,0.601285,0,42,42,44,1,REAL,FAKE,,,,,,,,,,,,,,,,,,,,,
,,,,,,,5ffef0a1255d0c5fd3bdfd6a,6057c54e64b0b4e5c128b4f9,60596a01c57551d943ff1b00,Mexico,East coast,13 or older,no,2021-03-23_00h10.17.206,empathy_intonation_perc,2020.2.10,MacIntel,60,,,,,,,,,,0,,,,,,,,,,,,,,,,,,,,,,,,,,,,,,,,,,,,,,,,66,hacido,,,0,1,0.69981,0,43,43,65,1,REAL,FAKE,,,,,,,,,,,,,,,,,,,,,
,,,,,,,5ffef0a1255d0c5fd3bdfd6a,6057c54e64b0b4e5c128b4f9,60596a01c57551d943ff1b00,Mexico,East coast,13 or older,no,2021-03-23_00h10.17.206,empathy_intonation_perc,2020.2.10,MacIntel,60,,,,,,,,,,1,,,,,,,,,,,,,,,,,,,,,,,,,,,,,,,,,,,,,,,,22,lacayo,,,0,0,0.504435,0,44,44,21,1,REAL,FAKE,,,,,,,,,,,,,,,,,,,,,
,,,,,,,5ffef0a1255d0c5fd3bdfd6a,6057c54e64b0b4e5c128b4f9,60596a01c57551d943ff1b00,Mexico,East coast,13 or older,no,2021-03-23_00h10.17.206,empathy_intonation_perc,2020.2.10,MacIntel,60,,,,,,,,,,1,,,,,,,,,,,,,,,,,,,,,,,,,,,,,,,,,,,,,,,,51,candado,,,0,0,0.72004,0,45,45,50,1,REAL,FAKE,,,,,,,,,,,,,,,,,,,,,
,,,,,,,5ffef0a1255d0c5fd3bdfd6a,6057c54e64b0b4e5c128b4f9,60596a01c57551d943ff1b00,Mexico,East coast,13 or older,no,2021-03-23_00h10.17.206,empathy_intonation_perc,2020.2.10,MacIntel,60,,,,,,,,,,1,,,,,,,,,,,,,,,,,,,,,,,,,,,,,,,,,,,,,,,,60,matar,,,1,1,1.21896,0,46,46,59,1,REAL,FAKE,,,,,,,,,,,,,,,,,,,,,
,,,,,,,5ffef0a1255d0c5fd3bdfd6a,6057c54e64b0b4e5c128b4f9,60596a01c57551d943ff1b00,Mexico,East coast,13 or older,no,2021-03-23_00h10.17.206,empathy_intonation_perc,2020.2.10,MacIntel,60,,,,,,,,,,1,,,,,,,,,,,,,,,,,,,,,,,,,,,,,,,,,,,,,,,,78,frondoso,,,0,0,0.784135,0,47,47,77,1,REAL,FAKE,,,,,,,,,,,,,,,,,,,,,
,,,,,,,5ffef0a1255d0c5fd3bdfd6a,6057c54e64b0b4e5c128b4f9,60596a01c57551d943ff1b00,Mexico,East coast,13 or older,no,2021-03-23_00h10.17.206,empathy_intonation_perc,2020.2.10,MacIntel,60,,,,,,,,,,0,,,,,,,,,,,,,,,,,,,,,,,,,,,,,,,,,,,,,,,,82,empirador,,,0,1,0.749715,0,48,48,81,1,REAL,FAKE,,,,,,,,,,,,,,,,,,,,,
,,,,,,,5ffef0a1255d0c5fd3bdfd6a,6057c54e64b0b4e5c128b4f9,60596a01c57551d943ff1b00,Mexico,East coast,13 or older,no,2021-03-23_00h10.17.206,empathy_intonation_perc,2020.2.10,MacIntel,60,,,,,,,,,,1,,,,,,,,,,,,,,,,,,,,,,,,,,,,,,,,,,,,,,,,38,estornudar,,,0,0,0.62125,0,49,49,37,1,REAL,FAKE,,,,,,,,,,,,,,,,,,,,,
,,,,,,,5ffef0a1255d0c5fd3bdfd6a,6057c54e64b0b4e5c128b4f9,60596a01c57551d943ff1b00,Mexico,East coast,13 or older,no,2021-03-23_00h10.17.206,empathy_intonation_perc,2020.2.10,MacIntel,60,,,,,,,,,,1,,,,,,,,,,,,,,,,,,,,,,,,,,,,,,,,,,,,,,,,68,alegre,,,1,1,0.766915,0,50,50,67,1,REAL,FAKE,,,,,,,,,,,,,,,,,,,,,
,,,,,,,5ffef0a1255d0c5fd3bdfd6a,6057c54e64b0b4e5c128b4f9,60596a01c57551d943ff1b00,Mexico,East coast,13 or older,no,2021-03-23_00h10.17.206,empathy_intonation_perc,2020.2.10,MacIntel,60,,,,,,,,,,1,,,,,,,,,,,,,,,,,,,,,,,,,,,,,,,,,,,,,,,,26,secuestro,,,1,1,1.16874,0,51,51,25,1,REAL,FAKE,,,,,,,,,,,,,,,,,,,,,
,,,,,,,5ffef0a1255d0c5fd3bdfd6a,6057c54e64b0b4e5c128b4f9,60596a01c57551d943ff1b00,Mexico,East coast,13 or older,no,2021-03-23_00h10.17.206,empathy_intonation_perc,2020.2.10,MacIntel,60,,,,,,,,,,1,,,,,,,,,,,,,,,,,,,,,,,,,,,,,,,,,,,,,,,,67,cabello,,,1,1,0.805785,0,52,52,66,1,REAL,FAKE,,,,,,,,,,,,,,,,,,,,,
,,,,,,,5ffef0a1255d0c5fd3bdfd6a,6057c54e64b0b4e5c128b4f9,60596a01c57551d943ff1b00,Mexico,East coast,13 or older,no,2021-03-23_00h10.17.206,empathy_intonation_perc,2020.2.10,MacIntel,60,,,,,,,,,,1,,,,,,,,,,,,,,,,,,,,,,,,,,,,,,,,,,,,,,,,55,nevar,,,0,0,0.7891,0,53,53,54,1,REAL,FAKE,,,,,,,,,,,,,,,,,,,,,
,,,,,,,5ffef0a1255d0c5fd3bdfd6a,6057c54e64b0b4e5c128b4f9,60596a01c57551d943ff1b00,Mexico,East coast,13 or older,no,2021-03-23_00h10.17.206,empathy_intonation_perc,2020.2.10,MacIntel,60,,,,,,,,,,0,,,,,,,,,,,,,,,,,,,,,,,,,,,,,,,,,,,,,,,,8,cadea,,,0,1,0.96843,0,54,54,7,1,REAL,FAKE,,,,,,,,,,,,,,,,,,,,,
,,,,,,,5ffef0a1255d0c5fd3bdfd6a,6057c54e64b0b4e5c128b4f9,60596a01c57551d943ff1b00,Mexico,East coast,13 or older,no,2021-03-23_00h10.17.206,empathy_intonation_perc,2020.2.10,MacIntel,60,,,,,,,,,,1,,,,,,,,,,,,,,,,,,,,,,,,,,,,,,,,,,,,,,,,76,atar,,,0,0,0.65071,0,55,55,75,1,REAL,FAKE,,,,,,,,,,,,,,,,,,,,,
,,,,,,,5ffef0a1255d0c5fd3bdfd6a,6057c54e64b0b4e5c128b4f9,60596a01c57551d943ff1b00,Mexico,East coast,13 or older,no,2021-03-23_00h10.17.206,empathy_intonation_perc,2020.2.10,MacIntel,60,,,,,,,,,,1,,,,,,,,,,,,,,,,,,,,,,,,,,,,,,,,,,,,,,,,43,canela,,,1,1,0.866945,0,56,56,42,1,REAL,FAKE,,,,,,,,,,,,,,,,,,,,,
,,,,,,,5ffef0a1255d0c5fd3bdfd6a,6057c54e64b0b4e5c128b4f9,60596a01c57551d943ff1b00,Mexico,East coast,13 or older,no,2021-03-23_00h10.17.206,empathy_intonation_perc,2020.2.10,MacIntel,60,,,,,,,,,,1,,,,,,,,,,,,,,,,,,,,,,,,,,,,,,,,,,,,,,,,31,pandilla,,,0,0,1.06721,0,57,57,30,1,REAL,FAKE,,,,,,,,,,,,,,,,,,,,,
,,,,,,,5ffef0a1255d0c5fd3bdfd6a,6057c54e64b0b4e5c128b4f9,60596a01c57551d943ff1b00,Mexico,East coast,13 or older,no,2021-03-23_00h10.17.206,empathy_intonation_perc,2020.2.10,MacIntel,60,,,,,,,,,,0,,,,,,,,,,,,,,,,,,,,,,,,,,,,,,,,,,,,,,,,23,lampera,,,1,0,1.266975,0,58,58,22,1,REAL,FAKE,,,,,,,,,,,,,,,,,,,,,
,,,,,,,5ffef0a1255d0c5fd3bdfd6a,6057c54e64b0b4e5c128b4f9,60596a01c57551d943ff1b00,Mexico,East coast,13 or older,no,2021-03-23_00h10.17.206,empathy_intonation_perc,2020.2.10,MacIntel,60,,,,,,,,,,1,,,,,,,,,,,,,,,,,,,,,,,,,,,,,,,,,,,,,,,,57,tacao,,,0,0,0.732405,0,59,59,56,1,REAL,FAKE,,,,,,,,,,,,,,,,,,,,,
,,,,,,,5ffef0a1255d0c5fd3bdfd6a,6057c54e64b0b4e5c128b4f9,60596a01c57551d943ff1b00,Mexico,East coast,13 or older,no,2021-03-23_00h10.17.206,empathy_intonation_perc,2020.2.10,MacIntel,60,,,,,,,,,,1,,,,,,,,,,,,,,,,,,,,,,,,,,,,,,,,,,,,,,,,54,fomentar,,,1,1,0.83789,0,60,60,53,1,REAL,FAKE,,,,,,,,,,,,,,,,,,,,,
,,,,,,,5ffef0a1255d0c5fd3bdfd6a,6057c54e64b0b4e5c128b4f9,60596a01c57551d943ff1b00,Mexico,East coast,13 or older,no,2021-03-23_00h10.17.206,empathy_intonation_perc,2020.2.10,MacIntel,60,,,,,,,,,,0,,,,,,,,,,,,,,,,,,,,,,,,,,,,,,,,,,,,,,,,72,pemicin,,,0,1,1.51741,0,61,61,71,1,REAL,FAKE,,,,,,,,,,,,,,,,,,,,,
,,,,,,,5ffef0a1255d0c5fd3bdfd6a,6057c54e64b0b4e5c128b4f9,60596a01c57551d943ff1b00,Mexico,East coast,13 or older,no,2021-03-23_00h10.17.206,empathy_intonation_perc,2020.2.10,MacIntel,60,,,,,,,,,,1,,,,,,,,,,,,,,,,,,,,,,,,,,,,,,,,,,,,,,,,81,pozo,,,0,0,1.095725,0,62,62,80,1,REAL,FAKE,,,,,,,,,,,,,,,,,,,,,
,,,,,,,5ffef0a1255d0c5fd3bdfd6a,6057c54e64b0b4e5c128b4f9,60596a01c57551d943ff1b00,Mexico,East coast,13 or older,no,2021-03-23_00h10.17.206,empathy_intonation_perc,2020.2.10,MacIntel,60,,,,,,,,,,0,,,,,,,,,,,,,,,,,,,,,,,,,,,,,,,,,,,,,,,,29,decar,,,0,1,0.82157,0,63,63,28,1,REAL,FAKE,,,,,,,,,,,,,,,,,,,,,
,,,,,,,5ffef0a1255d0c5fd3bdfd6a,6057c54e64b0b4e5c128b4f9,60596a01c57551d943ff1b00,Mexico,East coast,13 or older,no,2021-03-23_00h10.17.206,empathy_intonation_perc,2020.2.10,MacIntel,60,,,,,,,,,,0,,,,,,,,,,,,,,,,,,,,,,,,,,,,,,,,,,,,,,,,18,arsa,,,0,1,1.37081,0,64,64,17,1,REAL,FAKE,,,,,,,,,,,,,,,,,,,,,
,,,,,,,5ffef0a1255d0c5fd3bdfd6a,6057c54e64b0b4e5c128b4f9,60596a01c57551d943ff1b00,Mexico,East coast,13 or older,no,2021-03-23_00h10.17.206,empathy_intonation_perc,2020.2.10,MacIntel,60,,,,,,,,,,0,,,,,,,,,,,,,,,,,,,,,,,,,,,,,,,,,,,,,,,,50,flamida,,,0,1,0.850985,0,65,65,49,1,REAL,FAKE,,,,,,,,,,,,,,,,,,,,,
,,,,,,,5ffef0a1255d0c5fd3bdfd6a,6057c54e64b0b4e5c128b4f9,60596a01c57551d943ff1b00,Mexico,East coast,13 or older,no,2021-03-23_00h10.17.206,empathy_intonation_perc,2020.2.10,MacIntel,60,,,,,,,,,,1,,,,,,,,,,,,,,,,,,,,,,,,,,,,,,,,,,,,,,,,52,camisa,,,1,1,0.667065,0,66,66,51,1,REAL,FAKE,,,,,,,,,,,,,,,,,,,,,
,,,,,,,5ffef0a1255d0c5fd3bdfd6a,6057c54e64b0b4e5c128b4f9,60596a01c57551d943ff1b00,Mexico,East coast,13 or older,no,2021-03-23_00h10.17.206,empathy_intonation_perc,2020.2.10,MacIntel,60,,,,,,,,,,1,,,,,,,,,,,,,,,,,,,,,,,,,,,,,,,,,,,,,,,,36,loro,,,0,0,0.717165,0,67,67,35,1,REAL,FAKE,,,,,,,,,,,,,,,,,,,,,
,,,,,,,5ffef0a1255d0c5fd3bdfd6a,6057c54e64b0b4e5c128b4f9,60596a01c57551d943ff1b00,Mexico,East coast,13 or older,no,2021-03-23_00h10.17.206,empathy_intonation_perc,2020.2.10,MacIntel,60,,,,,,,,,,1,,,,,,,,,,,,,,,,,,,,,,,,,,,,,,,,,,,,,,,,49,ganar,,,1,1,0.96715,0,68,68,48,1,REAL,FAKE,,,,,,,,,,,,,,,,,,,,,
,,,,,,,5ffef0a1255d0c5fd3bdfd6a,6057c54e64b0b4e5c128b4f9,60596a01c57551d943ff1b00,Mexico,East coast,13 or older,no,2021-03-23_00h10.17.206,empathy_intonation_perc,2020.2.10,MacIntel,60,,,,,,,,,,1,,,,,,,,,,,,,,,,,,,,,,,,,,,,,,,,,,,,,,,,89,prisa,,,0,0,1.117485,0,69,69,88,1,REAL,FAKE,,,,,,,,,,,,,,,,,,,,,
,,,,,,,5ffef0a1255d0c5fd3bdfd6a,6057c54e64b0b4e5c128b4f9,60596a01c57551d943ff1b00,Mexico,East coast,13 or older,no,2021-03-23_00h10.17.206,empathy_intonation_perc,2020.2.10,MacIntel,60,,,,,,,,,,0,,,,,,,,,,,,,,,,,,,,,,,,,,,,,,,,,,,,,,,,1,terzo,,,0,1,1.00086,0,70,70,0,1,REAL,FAKE,,,,,,,,,,,,,,,,,,,,,
,,,,,,,5ffef0a1255d0c5fd3bdfd6a,6057c54e64b0b4e5c128b4f9,60596a01c57551d943ff1b00,Mexico,East coast,13 or older,no,2021-03-23_00h10.17.206,empathy_intonation_perc,2020.2.10,MacIntel,60,,,,,,,,,,0,,,,,,,,,,,,,,,,,,,,,,,,,,,,,,,,,,,,,,,,17,floroso,,,0,1,0.63385,0,71,71,16,1,REAL,FAKE,,,,,,,,,,,,,,,,,,,,,
,,,,,,,5ffef0a1255d0c5fd3bdfd6a,6057c54e64b0b4e5c128b4f9,60596a01c57551d943ff1b00,Mexico,East coast,13 or older,no,2021-03-23_00h10.17.206,empathy_intonation_perc,2020.2.10,MacIntel,60,,,,,,,,,,1,,,,,,,,,,,,,,,,,,,,,,,,,,,,,,,,,,,,,,,,83,guante,,,0,0,0.766945,0,72,72,82,1,REAL,FAKE,,,,,,,,,,,,,,,,,,,,,
,,,,,,,5ffef0a1255d0c5fd3bdfd6a,6057c54e64b0b4e5c128b4f9,60596a01c57551d943ff1b00,Mexico,East coast,13 or older,no,2021-03-23_00h10.17.206,empathy_intonation_perc,2020.2.10,MacIntel,60,,,,,,,,,,0,,,,,,,,,,,,,,,,,,,,,,,,,,,,,,,,,,,,,,,,74,cintro,,,1,0,1.02243,0,73,73,73,1,REAL,FAKE,,,,,,,,,,,,,,,,,,,,,
,,,,,,,5ffef0a1255d0c5fd3bdfd6a,6057c54e64b0b4e5c128b4f9,60596a01c57551d943ff1b00,Mexico,East coast,13 or older,no,2021-03-23_00h10.17.206,empathy_intonation_perc,2020.2.10,MacIntel,60,,,,,,,,,,0,,,,,,,,,,,,,,,,,,,,,,,,,,,,,,,,,,,,,,,,84,escuto,,,0,1,1.20082,0,74,74,83,1,REAL,FAKE,,,,,,,,,,,,,,,,,,,,,
,,,,,,,5ffef0a1255d0c5fd3bdfd6a,6057c54e64b0b4e5c128b4f9,60596a01c57551d943ff1b00,Mexico,East coast,13 or older,no,2021-03-23_00h10.17.206,empathy_intonation_perc,2020.2.10,MacIntel,60,,,,,,,,,,1,,,,,,,,,,,,,,,,,,,,,,,,,,,,,,,,,,,,,,,,86,barato,,,0,0,0.69978,0,75,75,85,1,REAL,FAKE,,,,,,,,,,,,,,,,,,,,,
,,,,,,,5ffef0a1255d0c5fd3bdfd6a,6057c54e64b0b4e5c128b4f9,60596a01c57551d943ff1b00,Mexico,East coast,13 or older,no,2021-03-23_00h10.17.206,empathy_intonation_perc,2020.2.10,MacIntel,60,,,,,,,,,,0,,,,,,,,,,,,,,,,,,,,,,,,,,,,,,,,,,,,,,,,70,temblo,,,0,1,0.61705,0,76,76,69,1,REAL,FAKE,,,,,,,,,,,,,,,,,,,,,
,,,,,,,5ffef0a1255d0c5fd3bdfd6a,6057c54e64b0b4e5c128b4f9,60596a01c57551d943ff1b00,Mexico,East coast,13 or older,no,2021-03-23_00h10.17.206,empathy_intonation_perc,2020.2.10,MacIntel,60,,,,,,,,,,1,,,,,,,,,,,,,,,,,,,,,,,,,,,,,,,,,,,,,,,,61,seda,,,0,0,0.50118,0,77,77,60,1,REAL,FAKE,,,,,,,,,,,,,,,,,,,,,
,,,,,,,5ffef0a1255d0c5fd3bdfd6a,6057c54e64b0b4e5c128b4f9,60596a01c57551d943ff1b00,Mexico,East coast,13 or older,no,2021-03-23_00h10.17.206,empathy_intonation_perc,2020.2.10,MacIntel,60,,,,,,,,,,0,,,,,,,,,,,,,,,,,,,,,,,,,,,,,,,,,,,,,,,,16,abracer,,,1,0,0.850945,0,78,78,15,1,REAL,FAKE,,,,,,,,,,,,,,,,,,,,,
,,,,,,,5ffef0a1255d0c5fd3bdfd6a,6057c54e64b0b4e5c128b4f9,60596a01c57551d943ff1b00,Mexico,East coast,13 or older,no,2021-03-23_00h10.17.206,empathy_intonation_perc,2020.2.10,MacIntel,60,,,,,,,,,,1,,,,,,,,,,,,,,,,,,,,,,,,,,,,,,,,,,,,,,,,37,granuja,,,0,0,0.85406,0,79,79,36,1,REAL,FAKE,,,,,,,,,,,,,,,,,,,,,
,,,,,,,5ffef0a1255d0c5fd3bdfd6a,6057c54e64b0b4e5c128b4f9,60596a01c57551d943ff1b00,Mexico,East coast,13 or older,no,2021-03-23_00h10.17.206,empathy_intonation_perc,2020.2.10,MacIntel,60,,,,,,,,,,1,,,,,,,,,,,,,,,,,,,,,,,,,,,,,,,,,,,,,,,,13,helar,,,1,1,0.867095,0,80,80,12,1,REAL,FAKE,,,,,,,,,,,,,,,,,,,,,
,,,,,,,5ffef0a1255d0c5fd3bdfd6a,6057c54e64b0b4e5c128b4f9,60596a01c57551d943ff1b00,Mexico,East coast,13 or older,no,2021-03-23_00h10.17.206,empathy_intonation_perc,2020.2.10,MacIntel,60,,,,,,,,,,0,,,,,,,,,,,,,,,,,,,,,,,,,,,,,,,,,,,,,,,,33,pauca,,,1,0,1.26742,0,81,81,32,1,REAL,FAKE,,,,,,,,,,,,,,,,,,,,,
,,,,,,,5ffef0a1255d0c5fd3bdfd6a,6057c54e64b0b4e5c128b4f9,60596a01c57551d943ff1b00,Mexico,East coast,13 or older,no,2021-03-23_00h10.17.206,empathy_intonation_perc,2020.2.10,MacIntel,60,,,,,,,,,,1,,,,,,,,,,,,,,,,,,,,,,,,,,,,,,,,,,,,,,,,46,martillo,,,1,1,0.920555,0,82,82,45,1,REAL,FAKE,,,,,,,,,,,,,,,,,,,,,
,,,,,,,5ffef0a1255d0c5fd3bdfd6a,6057c54e64b0b4e5c128b4f9,60596a01c57551d943ff1b00,Mexico,East coast,13 or older,no,2021-03-23_00h10.17.206,empathy_intonation_perc,2020.2.10,MacIntel,60,,,,,,,,,,1,,,,,,,,,,,,,,,,,,,,,,,,,,,,,,,,,,,,,,,,90,clavel,,,0,0,1.203645,0,83,83,89,1,REAL,FAKE,,,,,,,,,,,,,,,,,,,,,
,,,,,,,5ffef0a1255d0c5fd3bdfd6a,6057c54e64b0b4e5c128b4f9,60596a01c57551d943ff1b00,Mexico,East coast,13 or older,no,2021-03-23_00h10.17.206,empathy_intonation_perc,2020.2.10,MacIntel,60,,,,,,,,,,1,,,,,,,,,,,,,,,,,,,,,,,,,,,,,,,,,,,,,,,,11,cenefa,,,0,0,1.483575,0,84,84,10,1,REAL,FAKE,,,,,,,,,,,,,,,,,,,,,
,,,,,,,5ffef0a1255d0c5fd3bdfd6a,6057c54e64b0b4e5c128b4f9,60596a01c57551d943ff1b00,Mexico,East coast,13 or older,no,2021-03-23_00h10.17.206,empathy_intonation_perc,2020.2.10,MacIntel,60,,,,,,,,,,1,,,,,,,,,,,,,,,,,,,,,,,,,,,,,,,,,,,,,,,,14,yunque,,,0,0,0.488165,0,85,85,13,1,REAL,FAKE,,,,,,,,,,,,,,,,,,,,,
,,,,,,,5ffef0a1255d0c5fd3bdfd6a,6057c54e64b0b4e5c128b4f9,60596a01c57551d943ff1b00,Mexico,East coast,13 or older,no,2021-03-23_00h10.17.206,empathy_intonation_perc,2020.2.10,MacIntel,60,,,,,,,,,,1,,,,,,,,,,,,,,,,,,,,,,,,,,,,,,,,,,,,,,,,41,rebuscar,,,0,0,0.533815,0,86,86,40,1,REAL,FAKE,,,,,,,,,,,,,,,,,,,,,
,,,,,,,5ffef0a1255d0c5fd3bdfd6a,6057c54e64b0b4e5c128b4f9,60596a01c57551d943ff1b00,Mexico,East coast,13 or older,no,2021-03-23_00h10.17.206,empathy_intonation_perc,2020.2.10,MacIntel,60,,,,,,,,,,1,,,,,,,,,,,,,,,,,,,,,,,,,,,,,,,,,,,,,,,,20,vido,,,0,0,1.18418,0,87,87,19,1,REAL,FAKE,,,,,,,,,,,,,,,,,,,,,
,,,,,,,5ffef0a1255d0c5fd3bdfd6a,6057c54e64b0b4e5c128b4f9,60596a01c57551d943ff1b00,Mexico,East coast,13 or older,no,2021-03-23_00h10.17.206,empathy_intonation_perc,2020.2.10,MacIntel,60,,,,,,,,,,0,,,,,,,,,,,,,,,,,,,,,,,,,,,,,,,,,,,,,,,,4,batilln,,,0,1,1.050585,0,88,88,3,1,REAL,FAKE,,,,,,,,,,,,,,,,,,,,,
,,,,,,,5ffef0a1255d0c5fd3bdfd6a,6057c54e64b0b4e5c128b4f9,60596a01c57551d943ff1b00,Mexico,East coast,13 or older,no,2021-03-23_00h10.17.206,empathy_intonation_perc,2020.2.10,MacIntel,60,,,,,,,,,,0,,,,,,,,,,,,,,,,,,,,,,,,,,,,,,,,,,,,,,,,30,alardio,,,0,1,0.736815,0,89,89,29,1,REAL,FAKE,,,,,,,,,,,,,,,,,,,,,
,,,,,,,5ffef0a1255d0c5fd3bdfd6a,6057c54e64b0b4e5c128b4f9,60596a01c57551d943ff1b00,Mexico,East coast,13 or older,no,2021-03-23_00h10.17.206,empathy_intonation_perc,2020.2.10,MacIntel,60,,,,,,,,,,,,,,,,,,,,,,,,,,,,,,,,,,,,,,,,,,,,,,,,,,,,,,,,,,,,,,,,4,1,1.565235,1,0,0,0,0,0,1,,,,,,,,,,,
,,,,,,,5ffef0a1255d0c5fd3bdfd6a,6057c54e64b0b4e5c128b4f9,60596a01c57551d943ff1b00,Mexico,East coast,13 or older,no,2021-03-23_00h10.17.206,empathy_intonation_perc,2020.2.10,MacIntel,60,,,,,,,,,,,,,,,,,,,,1,,,,,,,,,,,,,,,,,,,,,,,,,,,,,,,,,,,,,,,,,,,,,,,,,,,,,,4,0,0,0,0,1,I can easily tell if someone else wants to enter a conversation.,1,0,1,0
,,,,,,,5ffef0a1255d0c5fd3bdfd6a,6057c54e64b0b4e5c128b4f9,60596a01c57551d943ff1b00,Mexico,East coast,13 or older,no,2021-03-23_00h10.17.206,empathy_intonation_perc,2020.2.10,MacIntel,60,,,,,,,,,,,,,,,,,,,,2,,,,,,,,,,,,,,,,,,,,,,,,,,,,,,,,,,,,,,,,,,,,,,,,,,,,,,2,0,1,1,1,1,I prefer animals to humans.,0,1,0,0
,,,,,,,5ffef0a1255d0c5fd3bdfd6a,6057c54e64b0b4e5c128b4f9,60596a01c57551d943ff1b00,Mexico,East coast,13 or older,no,2021-03-23_00h10.17.206,empathy_intonation_perc,2020.2.10,MacIntel,60,,,,,,,,,,,,,,,,,,,,3,,,,,,,,,,,,,,,,,,,,,,,,,,,,,,,,,,,,,,,,,,,,,,,,,,,,,,4,0,2,2,2,1,I try to keep up with the current trends and fashions.,0,1,0,0
,,,,,,,5ffef0a1255d0c5fd3bdfd6a,6057c54e64b0b4e5c128b4f9,60596a01c57551d943ff1b00,Mexico,East coast,13 or older,no,2021-03-23_00h10.17.206,empathy_intonation_perc,2020.2.10,MacIntel,60,,,,,,,,,,,,,,,,,,,,4,,,,,,,,,,,,,,,,,,,,,,,,,,,,,,,,,,,,,,,,,,,,,,,,,,,,,,2,0,3,3,3,1,"I find it difficult to explain to others things that I understand easily, 
  when they dont understand it first time.",1,0,0,1
,,,,,,,5ffef0a1255d0c5fd3bdfd6a,6057c54e64b0b4e5c128b4f9,60596a01c57551d943ff1b00,Mexico,East coast,13 or older,no,2021-03-23_00h10.17.206,empathy_intonation_perc,2020.2.10,MacIntel,60,,,,,,,,,,,,,,,,,,,,5,,,,,,,,,,,,,,,,,,,,,,,,,,,,,,,,,,,,,,,,,,,,,,,,,,,,,,2,0,4,4,4,1,I dream most nights.,0,1,0,0
,,,,,,,5ffef0a1255d0c5fd3bdfd6a,6057c54e64b0b4e5c128b4f9,60596a01c57551d943ff1b00,Mexico,East coast,13 or older,no,2021-03-23_00h10.17.206,empathy_intonation_perc,2020.2.10,MacIntel,60,,,,,,,,,,,,,,,,,,,,6,,,,,,,,,,,,,,,,,,,,,,,,,,,,,,,,,,,,,,,,,,,,,,,,,,,,,,1,0,5,5,5,1,I really enjoy caring for other people.,1,0,1,0
