instructions_2afc_loop.thisRepN,instructions_2afc_loop.thisTrialN,instructions_2afc_loop.thisN,instructions_2afc_loop.thisIndex,instructions_2afc_loop.ran,instructions_text,continue_text,participant,study_id,session,I am most familiar with Spanish from...*,What part of the US are you from?*,At what age did you begin learning Spanish?*,Are you proficient in any languages other than English/Spanish?*,date,expName,psychopyVersion,OS,frameRate,key_resp_2afc_practice.keys,key_resp_2afc_practice.corr,key_resp_2afc_practice.rt,trials_2afc_practice_loop.thisRepN,trials_2afc_practice_loop.thisTrialN,trials_2afc_practice_loop.thisN,trials_2afc_practice_loop.thisIndex,trials_2afc_practice_loop.ran,path,correct_response,the_col,key_resp_2afc_trial.keys,key_resp_2afc_trial.corr,key_resp_2afc_trial.rt,trials_2afc_loop.thisRepN,trials_2afc_loop.thisTrialN,trials_2afc_loop.thisN,trials_2afc_loop.thisIndex,trials_2afc_loop.ran,item_num,andalusian,argentine,castilian,chilean,cuban,mexican,peruvian,puertorican,key_resp_ac1.keys,key_resp_ac1.corr,key_resp_ac1.rt,ac1_loop.thisRepN,ac1_loop.thisTrialN,ac1_loop.thisN,ac1_loop.thisIndex,ac1_loop.ran,instructions_lextale_loop.thisRepN,instructions_lextale_loop.thisTrialN,instructions_lextale_loop.thisN,instructions_lextale_loop.thisIndex,instructions_lextale_loop.ran,key_resp_lextale_practice.keys,key_resp_lextale_practice.corr,key_resp_lextale_practice.rt,trials_lextale_practice_loop.thisRepN,trials_lextale_practice_loop.thisTrialN,trials_lextale_practice_loop.thisN,trials_lextale_practice_loop.thisIndex,trials_lextale_practice_loop.ran,stim,word,prac_button_real,prac_button_false,key_resp_lextale_trial.keys,key_resp_lextale_trial.corr,key_resp_lextale_trial.rt,trials_lextale_loop.thisRepN,trials_lextale_loop.thisTrialN,trials_lextale_loop.thisN,trials_lextale_loop.thisIndex,trials_lextale_loop.ran,button_real,button_false,key_resp_ac2.keys,key_resp_ac2.corr,key_resp_ac2.rt,check_pass,check_fails,ac2_loop.thisRepN,ac2_loop.thisTrialN,ac2_loop.thisN,ac2_loop.thisIndex,ac2_loop.ran,slider_eq_trial.response,trials_eq_loop.thisRepN,trials_eq_loop.thisTrialN,trials_eq_loop.thisN,trials_eq_loop.thisIndex,trials_eq_loop.ran,item,is_test_item,is_distractor,is_agree_score,is_disagree_score
0,0,0,0,1,"In the following task you are going to hear a series of utterances. 

  You will decide if the utterances sound like questions or not using your keyboard.",(press the spacebar to continue),600b0f7fa045ed0f806f01e2,605b45a4d25f287719a41696,605cec9a119b0f1124ba49f3,I am not familiar with Spanish,Northeast,13 or older,no,2021-03-25_16h04.12.878,empathy_intonation_perc,2020.2.10,MacIntel,60,,,,,,,,,,,,,,,,,,,,,,,,,,,,,,,,,,,,,,,,,,,,,,,,,,,,,,,,,,,,,,,,,,,,,,,,,,,,,,,,,,,,
0,1,1,1,1,"If you believe the utterance is a question, type '1' (for 'yes') and if you do not 
  believe it is a question type '0' (for 'no').

  Let's practice a bit...",(press the spacebar to continue),600b0f7fa045ed0f806f01e2,605b45a4d25f287719a41696,605cec9a119b0f1124ba49f3,I am not familiar with Spanish,Northeast,13 or older,no,2021-03-25_16h04.12.878,empathy_intonation_perc,2020.2.10,MacIntel,60,,,,,,,,,,,,,,,,,,,,,,,,,,,,,,,,,,,,,,,,,,,,,,,,,,,,,,,,,,,,,,,,,,,,,,,,,,,,,,,,,,,,
,,,,,,,600b0f7fa045ed0f806f01e2,605b45a4d25f287719a41696,605cec9a119b0f1124ba49f3,I am not familiar with Spanish,Northeast,13 or older,no,2021-03-25_16h04.12.878,empathy_intonation_perc,2020.2.10,MacIntel,60,1,1,2.18196,0,0,0,2,1,./stim/wavs/chilean_question_filler_Mi-padre-cantaba-bien.wav,1,,,,,,,,,,,,,,,,,,,,,,,,,,,,,,,,,,,,,,,,,,,,,,,,,,,,,,,,,,,,,,,,,,,,,,,,,,
,,,,,,,600b0f7fa045ed0f806f01e2,605b45a4d25f287719a41696,605cec9a119b0f1124ba49f3,I am not familiar with Spanish,Northeast,13 or older,no,2021-03-25_16h04.12.878,empathy_intonation_perc,2020.2.10,MacIntel,60,0,1,2.242455,0,1,1,6,1,./stim/wavs/peruvian_statement_filler_El-nino-habla-con-su-madre.wav,0,,,,,,,,,,,,,,,,,,,,,,,,,,,,,,,,,,,,,,,,,,,,,,,,,,,,,,,,,,,,,,,,,,,,,,,,,,
,,,,,,,600b0f7fa045ed0f806f01e2,605b45a4d25f287719a41696,605cec9a119b0f1124ba49f3,I am not familiar with Spanish,Northeast,13 or older,no,2021-03-25_16h04.12.878,empathy_intonation_perc,2020.2.10,MacIntel,60,1,1,1.89125,0,2,2,0,1,./stim/wavs/castilian_question_filler_Mi-esposo-conoce-al-chico.wav,1,,,,,,,,,,,,,,,,,,,,,,,,,,,,,,,,,,,,,,,,,,,,,,,,,,,,,,,,,,,,,,,,,,,,,,,,,,
,,,,,,,600b0f7fa045ed0f806f01e2,605b45a4d25f287719a41696,605cec9a119b0f1124ba49f3,I am not familiar with Spanish,Northeast,13 or older,no,2021-03-25_16h04.12.878,empathy_intonation_perc,2020.2.10,MacIntel,60,0,1,1.64508,0,3,3,7,1,./stim/wavs/puertorican_statement_filler_La-nina-pinta-con-su-amiga.wav,0,,,,,,,,,,,,,,,,,,,,,,,,,,,,,,,,,,,,,,,,,,,,,,,,,,,,,,,,,,,,,,,,,,,,,,,,,,
,,,,,,,600b0f7fa045ed0f806f01e2,605b45a4d25f287719a41696,605cec9a119b0f1124ba49f3,I am not familiar with Spanish,Northeast,13 or older,no,2021-03-25_16h04.12.878,empathy_intonation_perc,2020.2.10,MacIntel,60,0,1,1.618875,0,4,4,5,1,./stim/wavs/andalusian_statement_filler_Alberto-nunca-se-afeita.wav,0,,,,,,,,,,,,,,,,,,,,,,,,,,,,,,,,,,,,,,,,,,,,,,,,,,,,,,,,,,,,,,,,,,,,,,,,,,
,,,,,,,600b0f7fa045ed0f806f01e2,605b45a4d25f287719a41696,605cec9a119b0f1124ba49f3,I am not familiar with Spanish,Northeast,13 or older,no,2021-03-25_16h04.12.878,empathy_intonation_perc,2020.2.10,MacIntel,60,0,1,1.538335,0,5,5,4,1,./stim/wavs/cuban_statement_filler_Cocinabas-por-la-noche.wav,0,,,,,,,,,,,,,,,,,,,,,,,,,,,,,,,,,,,,,,,,,,,,,,,,,,,,,,,,,,,,,,,,,,,,,,,,,,
,,,,,,,600b0f7fa045ed0f806f01e2,605b45a4d25f287719a41696,605cec9a119b0f1124ba49f3,I am not familiar with Spanish,Northeast,13 or older,no,2021-03-25_16h04.12.878,empathy_intonation_perc,2020.2.10,MacIntel,60,1,1,1.281085,0,6,6,1,1,./stim/wavs/argentine_question_filler_Mi-vecino-habla-mucho.wav,1,,,,,,,,,,,,,,,,,,,,,,,,,,,,,,,,,,,,,,,,,,,,,,,,,,,,,,,,,,,,,,,,,,,,,,,,,,
,,,,,,,600b0f7fa045ed0f806f01e2,605b45a4d25f287719a41696,605cec9a119b0f1124ba49f3,I am not familiar with Spanish,Northeast,13 or older,no,2021-03-25_16h04.12.878,empathy_intonation_perc,2020.2.10,MacIntel,60,1,1,1.70308,0,7,7,3,1,./stim/wavs/mexican_question_filler_Felipe-no-tiene-contrasena.wav,1,,,,,,,,,,,,,,,,,,,,,,,,,,,,,,,,,,,,,,,,,,,,,,,,,,,,,,,,,,,,,,,,,,,,,,,,,,
,,,,,,,600b0f7fa045ed0f806f01e2,605b45a4d25f287719a41696,605cec9a119b0f1124ba49f3,I am not familiar with Spanish,Northeast,13 or older,no,2021-03-25_16h04.12.878,empathy_intonation_perc,2020.2.10,MacIntel,60,,,,,,,,,,1,peruvian,0,0,1.505205,0,0,0,25,1,26,./stim/wavs/andalusian_match_interrogative-total-yn_Daniel-iba-a-Bolivia.wav,./stim/wavs/argentine_match_interrogative-total-yn_Daniel-iba-a-Bolivia.wav,./stim/wavs/castilian_match_interrogative-total-yn_Daniel-iba-a-Bolivia.wav,./stim/wavs/chilean_match_interrogative-total-yn_Daniel-iba-a-Bolivia.wav,./stim/wavs/cuban_match_interrogative-total-yn_Daniel-iba-a-Bolivia.wav,./stim/wavs/mexican_match_interrogative-total-yn_Daniel-iba-a-Bolivia.wav,./stim/wavs/peruvian_match_interrogative-total-yn_Daniel-iba-a-Bolivia.wav,./stim/wavs/puertorican_match_interrogative-total-yn_Daniel-iba-a-Bolivia.wav,,,,,,,,,,,,,,,,,,,,,,,,,,,,,,,,,,,,,,,,,,,,,,,,,,,,,,,,
,,,,,,,600b0f7fa045ed0f806f01e2,605b45a4d25f287719a41696,605cec9a119b0f1124ba49f3,I am not familiar with Spanish,Northeast,13 or older,no,2021-03-25_16h04.12.878,empathy_intonation_perc,2020.2.10,MacIntel,60,,,,,,,,,,0,chilean,0,1,1.722375,0,1,1,34,1,35,./stim/wavs/andalusian_mismatch_declarative-broad-focus_El-nino-oye-el-rio.wav,./stim/wavs/argentine_mismatch_declarative-broad-focus_El-nino-oye-el-rio.wav,./stim/wavs/castilian_mismatch_declarative-broad-focus_El-nino-oye-el-rio.wav,./stim/wavs/chilean_mismatch_declarative-broad-focus_El-nino-oye-el-rio.wav,./stim/wavs/cuban_mismatch_declarative-broad-focus_El-nino-oye-el-rio.wav,./stim/wavs/mexican_mismatch_declarative-broad-focus_El-nino-oye-el-rio.wav,./stim/wavs/peruvian_mismatch_declarative-broad-focus_El-nino-oye-el-rio.wav,./stim/wavs/puertorican_mismatch_declarative-broad-focus_El-nino-oye-el-rio.wav,,,,,,,,,,,,,,,,,,,,,,,,,,,,,,,,,,,,,,,,,,,,,,,,,,,,,,,,
,,,,,,,600b0f7fa045ed0f806f01e2,605b45a4d25f287719a41696,605cec9a119b0f1124ba49f3,I am not familiar with Spanish,Northeast,13 or older,no,2021-03-25_16h04.12.878,empathy_intonation_perc,2020.2.10,MacIntel,60,,,,,,,,,,1,cuban,0,0,1.454,0,2,2,31,1,32,./stim/wavs/andalusian_match_interrogative-total-yn_Marta-abre-el-regalo.wav,./stim/wavs/argentine_match_interrogative-total-yn_Marta-abre-el-regalo.wav,./stim/wavs/castilian_match_interrogative-total-yn_Marta-abre-el-regalo.wav,./stim/wavs/chilean_match_interrogative-total-yn_Marta-abre-el-regalo.wav,./stim/wavs/cuban_match_interrogative-total-yn_Marta-abre-el-regalo.wav,./stim/wavs/mexican_match_interrogative-total-yn_Marta-abre-el-regalo.wav,./stim/wavs/peruvian_match_interrogative-total-yn_Marta-abre-el-regalo.wav,./stim/wavs/puertorican_match_interrogative-total-yn_Marta-abre-el-regalo.wav,,,,,,,,,,,,,,,,,,,,,,,,,,,,,,,,,,,,,,,,,,,,,,,,,,,,,,,,
,,,,,,,600b0f7fa045ed0f806f01e2,605b45a4d25f287719a41696,605cec9a119b0f1124ba49f3,I am not familiar with Spanish,Northeast,13 or older,no,2021-03-25_16h04.12.878,empathy_intonation_perc,2020.2.10,MacIntel,60,,,,,,,,,,0,andalusian,0,1,1.73987,0,3,3,32,1,33,./stim/wavs/andalusian_mismatch_declarative-broad-focus_El-bebe-comia-muy-bien.wav,./stim/wavs/argentine_mismatch_declarative-broad-focus_El-bebe-comia-muy-bien.wav,./stim/wavs/castilian_mismatch_declarative-broad-focus_El-bebe-comia-muy-bien.wav,./stim/wavs/chilean_mismatch_declarative-broad-focus_El-bebe-comia-muy-bien.wav,./stim/wavs/cuban_mismatch_declarative-broad-focus_El-bebe-comia-muy-bien.wav,./stim/wavs/mexican_mismatch_declarative-broad-focus_El-bebe-comia-muy-bien.wav,./stim/wavs/peruvian_mismatch_declarative-broad-focus_El-bebe-comia-muy-bien.wav,./stim/wavs/puertorican_mismatch_declarative-broad-focus_El-bebe-comia-muy-bien.wav,,,,,,,,,,,,,,,,,,,,,,,,,,,,,,,,,,,,,,,,,,,,,,,,,,,,,,,,
,,,,,,,600b0f7fa045ed0f806f01e2,605b45a4d25f287719a41696,605cec9a119b0f1124ba49f3,I am not familiar with Spanish,Northeast,13 or older,no,2021-03-25_16h04.12.878,empathy_intonation_perc,2020.2.10,MacIntel,60,,,,,,,,,,0,andalusian,0,1,1.467835,0,4,4,40,1,41,./stim/wavs/andalusian_mismatch_declarative-narrow-focus_El-bebe-comia-muy-bien.wav,./stim/wavs/argentine_mismatch_declarative-narrow-focus_El-bebe-comia-muy-bien.wav,./stim/wavs/castilian_mismatch_declarative-narrow-focus_El-bebe-comia-muy-bien.wav,./stim/wavs/chilean_mismatch_declarative-narrow-focus_El-bebe-comia-muy-bien.wav,./stim/wavs/cuban_mismatch_declarative-narrow-focus_El-bebe-comia-muy-bien.wav,./stim/wavs/mexican_mismatch_declarative-narrow-focus_El-bebe-comia-muy-bien.wav,./stim/wavs/peruvian_mismatch_declarative-narrow-focus_El-bebe-comia-muy-bien.wav,./stim/wavs/puertorican_mismatch_declarative-narrow-focus_El-bebe-comia-muy-bien.wav,,,,,,,,,,,,,,,,,,,,,,,,,,,,,,,,,,,,,,,,,,,,,,,,,,,,,,,,
,,,,,,,600b0f7fa045ed0f806f01e2,605b45a4d25f287719a41696,605cec9a119b0f1124ba49f3,I am not familiar with Spanish,Northeast,13 or older,no,2021-03-25_16h04.12.878,empathy_intonation_perc,2020.2.10,MacIntel,60,,,,,,,,,,1,cuban,1,1,1.48558,0,5,5,48,1,49,./stim/wavs/andalusian_mismatch_interrogative-partial-wh_Cuando-comia-la-fruta.wav,./stim/wavs/argentine_mismatch_interrogative-partial-wh_Cuando-comia-la-fruta.wav,./stim/wavs/castilian_mismatch_interrogative-partial-wh_Cuando-comia-la-fruta.wav,./stim/wavs/chilean_mismatch_interrogative-partial-wh_Cuando-comia-la-fruta.wav,./stim/wavs/cuban_mismatch_interrogative-partial-wh_Cuando-comia-la-fruta.wav,./stim/wavs/mexican_mismatch_interrogative-partial-wh_Cuando-comia-la-fruta.wav,./stim/wavs/peruvian_mismatch_interrogative-partial-wh_Cuando-comia-la-fruta.wav,./stim/wavs/puertorican_mismatch_interrogative-partial-wh_Cuando-comia-la-fruta.wav,,,,,,,,,,,,,,,,,,,,,,,,,,,,,,,,,,,,,,,,,,,,,,,,,,,,,,,,
,,,,,,,600b0f7fa045ed0f806f01e2,605b45a4d25f287719a41696,605cec9a119b0f1124ba49f3,I am not familiar with Spanish,Northeast,13 or older,no,2021-03-25_16h04.12.878,empathy_intonation_perc,2020.2.10,MacIntel,60,,,,,,,,,,0,castilian,0,1,1.568455,0,6,6,33,1,34,./stim/wavs/andalusian_mismatch_declarative-broad-focus_El-hombre-mira-la-luna.wav,./stim/wavs/argentine_mismatch_declarative-broad-focus_El-hombre-mira-la-luna.wav,./stim/wavs/castilian_mismatch_declarative-broad-focus_El-hombre-mira-la-luna.wav,./stim/wavs/chilean_mismatch_declarative-broad-focus_El-hombre-mira-la-luna.wav,./stim/wavs/cuban_mismatch_declarative-broad-focus_El-hombre-mira-la-luna.wav,./stim/wavs/mexican_mismatch_declarative-broad-focus_El-hombre-mira-la-luna.wav,./stim/wavs/peruvian_mismatch_declarative-broad-focus_El-hombre-mira-la-luna.wav,./stim/wavs/puertorican_mismatch_declarative-broad-focus_El-hombre-mira-la-luna.wav,,,,,,,,,,,,,,,,,,,,,,,,,,,,,,,,,,,,,,,,,,,,,,,,,,,,,,,,
,,,,,,,600b0f7fa045ed0f806f01e2,605b45a4d25f287719a41696,605cec9a119b0f1124ba49f3,I am not familiar with Spanish,Northeast,13 or older,no,2021-03-25_16h04.12.878,empathy_intonation_perc,2020.2.10,MacIntel,60,,,,,,,,,,0,castilian,0,1,1.81887,0,7,7,3,1,4,./stim/wavs/andalusian_match_declarative-broad-focus_Emilio-ama-la-marcha.wav,./stim/wavs/argentine_match_declarative-broad-focus_Emilio-ama-la-marcha.wav,./stim/wavs/castilian_match_declarative-broad-focus_Emilio-ama-la-marcha.wav,./stim/wavs/chilean_match_declarative-broad-focus_Emilio-ama-la-marcha.wav,./stim/wavs/cuban_match_declarative-broad-focus_Emilio-ama-la-marcha.wav,./stim/wavs/mexican_match_declarative-broad-focus_Emilio-ama-la-marcha.wav,./stim/wavs/peruvian_match_declarative-broad-focus_Emilio-ama-la-marcha.wav,./stim/wavs/puertorican_match_declarative-broad-focus_Emilio-ama-la-marcha.wav,,,,,,,,,,,,,,,,,,,,,,,,,,,,,,,,,,,,,,,,,,,,,,,,,,,,,,,,
,,,,,,,600b0f7fa045ed0f806f01e2,605b45a4d25f287719a41696,605cec9a119b0f1124ba49f3,I am not familiar with Spanish,Northeast,13 or older,no,2021-03-25_16h04.12.878,empathy_intonation_perc,2020.2.10,MacIntel,60,,,,,,,,,,1,mexican,1,1,1.57129,0,8,8,28,1,29,./stim/wavs/andalusian_match_interrogative-total-yn_Manuela-vende-el-carro.wav,./stim/wavs/argentine_match_interrogative-total-yn_Manuela-vende-el-carro.wav,./stim/wavs/castilian_match_interrogative-total-yn_Manuela-vende-el-carro.wav,./stim/wavs/chilean_match_interrogative-total-yn_Manuela-vende-el-carro.wav,./stim/wavs/cuban_match_interrogative-total-yn_Manuela-vende-el-carro.wav,./stim/wavs/mexican_match_interrogative-total-yn_Manuela-vende-el-carro.wav,./stim/wavs/peruvian_match_interrogative-total-yn_Manuela-vende-el-carro.wav,./stim/wavs/puertorican_match_interrogative-total-yn_Manuela-vende-el-carro.wav,,,,,,,,,,,,,,,,,,,,,,,,,,,,,,,,,,,,,,,,,,,,,,,,,,,,,,,,
,,,,,,,600b0f7fa045ed0f806f01e2,605b45a4d25f287719a41696,605cec9a119b0f1124ba49f3,I am not familiar with Spanish,Northeast,13 or older,no,2021-03-25_16h04.12.878,empathy_intonation_perc,2020.2.10,MacIntel,60,,,,,,,,,,1,chilean,0,0,1.53521,0,9,9,61,1,62,./stim/wavs/andalusian_mismatch_interrogative-total-yn_Mi-madre-come-la-fruta.wav,./stim/wavs/argentine_mismatch_interrogative-total-yn_Mi-madre-come-la-fruta.wav,./stim/wavs/castilian_mismatch_interrogative-total-yn_Mi-madre-come-la-fruta.wav,./stim/wavs/chilean_mismatch_interrogative-total-yn_Mi-madre-come-la-fruta.wav,./stim/wavs/cuban_mismatch_interrogative-total-yn_Mi-madre-come-la-fruta.wav,./stim/wavs/mexican_mismatch_interrogative-total-yn_Mi-madre-come-la-fruta.wav,./stim/wavs/peruvian_mismatch_interrogative-total-yn_Mi-madre-come-la-fruta.wav,./stim/wavs/puertorican_mismatch_interrogative-total-yn_Mi-madre-come-la-fruta.wav,,,,,,,,,,,,,,,,,,,,,,,,,,,,,,,,,,,,,,,,,,,,,,,,,,,,,,,,
,,,,,,,600b0f7fa045ed0f806f01e2,605b45a4d25f287719a41696,605cec9a119b0f1124ba49f3,I am not familiar with Spanish,Northeast,13 or older,no,2021-03-25_16h04.12.878,empathy_intonation_perc,2020.2.10,MacIntel,60,,,,,,,,,,1,andalusian,1,1,1.436455,0,10,10,51,1,52,./stim/wavs/andalusian_mismatch_interrogative-partial-wh_Por-que-desayuna-muy-bien.wav,./stim/wavs/argentine_mismatch_interrogative-partial-wh_Por-que-desayuna-muy-bien.wav,./stim/wavs/castilian_mismatch_interrogative-partial-wh_Por-que-desayuna-muy-bien.wav,./stim/wavs/chilean_mismatch_interrogative-partial-wh_Por-que-desayuna-muy-bien.wav,./stim/wavs/cuban_mismatch_interrogative-partial-wh_Por-que-desayuna-muy-bien.wav,./stim/wavs/mexican_mismatch_interrogative-partial-wh_Por-que-desayuna-muy-bien.wav,./stim/wavs/peruvian_mismatch_interrogative-partial-wh_Por-que-desayuna-muy-bien.wav,./stim/wavs/puertorican_mismatch_interrogative-partial-wh_Por-que-desayuna-muy-bien.wav,,,,,,,,,,,,,,,,,,,,,,,,,,,,,,,,,,,,,,,,,,,,,,,,,,,,,,,,
,,,,,,,600b0f7fa045ed0f806f01e2,605b45a4d25f287719a41696,605cec9a119b0f1124ba49f3,I am not familiar with Spanish,Northeast,13 or older,no,2021-03-25_16h04.12.878,empathy_intonation_perc,2020.2.10,MacIntel,60,,,,,,,,,,1,chilean,1,1,1.52163,0,11,11,20,1,21,./stim/wavs/andalusian_match_interrogative-partial-wh_Por-que-abre-el-regalo.wav,./stim/wavs/argentine_match_interrogative-partial-wh_Por-que-abre-el-regalo.wav,./stim/wavs/castilian_match_interrogative-partial-wh_Por-que-abre-el-regalo.wav,./stim/wavs/chilean_match_interrogative-partial-wh_Por-que-abre-el-regalo.wav,./stim/wavs/cuban_match_interrogative-partial-wh_Por-que-abre-el-regalo.wav,./stim/wavs/mexican_match_interrogative-partial-wh_Por-que-abre-el-regalo.wav,./stim/wavs/peruvian_match_interrogative-partial-wh_Por-que-abre-el-regalo.wav,./stim/wavs/puertorican_match_interrogative-partial-wh_Por-que-abre-el-regalo.wav,,,,,,,,,,,,,,,,,,,,,,,,,,,,,,,,,,,,,,,,,,,,,,,,,,,,,,,,
,,,,,,,600b0f7fa045ed0f806f01e2,605b45a4d25f287719a41696,605cec9a119b0f1124ba49f3,I am not familiar with Spanish,Northeast,13 or older,no,2021-03-25_16h04.12.878,empathy_intonation_perc,2020.2.10,MacIntel,60,,,,,,,,,,1,puertorican,0,0,1.46925,0,12,12,23,1,24,./stim/wavs/andalusian_match_interrogative-partial-wh_Por-que-iba-a-Bolivia.wav,./stim/wavs/argentine_match_interrogative-partial-wh_Por-que-iba-a-Bolivia.wav,./stim/wavs/castilian_match_interrogative-partial-wh_Por-que-iba-a-Bolivia.wav,./stim/wavs/chilean_match_interrogative-partial-wh_Por-que-iba-a-Bolivia.wav,./stim/wavs/cuban_match_interrogative-partial-wh_Por-que-iba-a-Bolivia.wav,./stim/wavs/mexican_match_interrogative-partial-wh_Por-que-iba-a-Bolivia.wav,./stim/wavs/peruvian_match_interrogative-partial-wh_Por-que-iba-a-Bolivia.wav,./stim/wavs/puertorican_match_interrogative-partial-wh_Por-que-iba-a-Bolivia.wav,,,,,,,,,,,,,,,,,,,,,,,,,,,,,,,,,,,,,,,,,,,,,,,,,,,,,,,,
,,,,,,,600b0f7fa045ed0f806f01e2,605b45a4d25f287719a41696,605cec9a119b0f1124ba49f3,I am not familiar with Spanish,Northeast,13 or older,no,2021-03-25_16h04.12.878,empathy_intonation_perc,2020.2.10,MacIntel,60,,,,,,,,,,0,peruvian,0,1,1.973875,0,13,13,6,1,7,./stim/wavs/andalusian_match_declarative-broad-focus_Mariano-habla-del-tiempo.wav,./stim/wavs/argentine_match_declarative-broad-focus_Mariano-habla-del-tiempo.wav,./stim/wavs/castilian_match_declarative-broad-focus_Mariano-habla-del-tiempo.wav,./stim/wavs/chilean_match_declarative-broad-focus_Mariano-habla-del-tiempo.wav,./stim/wavs/cuban_match_declarative-broad-focus_Mariano-habla-del-tiempo.wav,./stim/wavs/mexican_match_declarative-broad-focus_Mariano-habla-del-tiempo.wav,./stim/wavs/peruvian_match_declarative-broad-focus_Mariano-habla-del-tiempo.wav,./stim/wavs/puertorican_match_declarative-broad-focus_Mariano-habla-del-tiempo.wav,,,,,,,,,,,,,,,,,,,,,,,,,,,,,,,,,,,,,,,,,,,,,,,,,,,,,,,,
,,,,,,,600b0f7fa045ed0f806f01e2,605b45a4d25f287719a41696,605cec9a119b0f1124ba49f3,I am not familiar with Spanish,Northeast,13 or older,no,2021-03-25_16h04.12.878,empathy_intonation_perc,2020.2.10,MacIntel,60,,,,,,,,,,1,andalusian,0,0,1.562375,0,14,14,49,1,50,./stim/wavs/andalusian_mismatch_interrogative-partial-wh_Cuando-lavaba-el-plato.wav,./stim/wavs/argentine_mismatch_interrogative-partial-wh_Cuando-lavaba-el-plato.wav,./stim/wavs/castilian_mismatch_interrogative-partial-wh_Cuando-lavaba-el-plato.wav,./stim/wavs/chilean_mismatch_interrogative-partial-wh_Cuando-lavaba-el-plato.wav,./stim/wavs/cuban_mismatch_interrogative-partial-wh_Cuando-lavaba-el-plato.wav,./stim/wavs/mexican_mismatch_interrogative-partial-wh_Cuando-lavaba-el-plato.wav,./stim/wavs/peruvian_mismatch_interrogative-partial-wh_Cuando-lavaba-el-plato.wav,./stim/wavs/puertorican_mismatch_interrogative-partial-wh_Cuando-lavaba-el-plato.wav,,,,,,,,,,,,,,,,,,,,,,,,,,,,,,,,,,,,,,,,,,,,,,,,,,,,,,,,
,,,,,,,600b0f7fa045ed0f806f01e2,605b45a4d25f287719a41696,605cec9a119b0f1124ba49f3,I am not familiar with Spanish,Northeast,13 or older,no,2021-03-25_16h04.12.878,empathy_intonation_perc,2020.2.10,MacIntel,60,,,,,,,,,,1,mexican,1,1,1.272335,0,15,15,53,1,54,./stim/wavs/andalusian_mismatch_interrogative-partial-wh_Por-que-oia-el-rio.wav,./stim/wavs/argentine_mismatch_interrogative-partial-wh_Por-que-oia-el-rio.wav,./stim/wavs/castilian_mismatch_interrogative-partial-wh_Por-que-oia-el-rio.wav,./stim/wavs/chilean_mismatch_interrogative-partial-wh_Por-que-oia-el-rio.wav,./stim/wavs/cuban_mismatch_interrogative-partial-wh_Por-que-oia-el-rio.wav,./stim/wavs/mexican_mismatch_interrogative-partial-wh_Por-que-oia-el-rio.wav,./stim/wavs/peruvian_mismatch_interrogative-partial-wh_Por-que-oia-el-rio.wav,./stim/wavs/puertorican_mismatch_interrogative-partial-wh_Por-que-oia-el-rio.wav,,,,,,,,,,,,,,,,,,,,,,,,,,,,,,,,,,,,,,,,,,,,,,,,,,,,,,,,
,,,,,,,600b0f7fa045ed0f806f01e2,605b45a4d25f287719a41696,605cec9a119b0f1124ba49f3,I am not familiar with Spanish,Northeast,13 or older,no,2021-03-25_16h04.12.878,empathy_intonation_perc,2020.2.10,MacIntel,60,,,,,,,,,,0,argentine,0,1,1.871375,0,16,16,14,1,15,./stim/wavs/andalusian_match_declarative-narrow-focus_Mariano-habla-del-tiempo.wav,./stim/wavs/argentine_match_declarative-narrow-focus_Mariano-habla-del-tiempo.wav,./stim/wavs/castilian_match_declarative-narrow-focus_Mariano-habla-del-tiempo.wav,./stim/wavs/chilean_match_declarative-narrow-focus_Mariano-habla-del-tiempo.wav,./stim/wavs/cuban_match_declarative-narrow-focus_Mariano-habla-del-tiempo.wav,./stim/wavs/mexican_match_declarative-narrow-focus_Mariano-habla-del-tiempo.wav,./stim/wavs/peruvian_match_declarative-narrow-focus_Mariano-habla-del-tiempo.wav,./stim/wavs/puertorican_match_declarative-narrow-focus_Mariano-habla-del-tiempo.wav,,,,,,,,,,,,,,,,,,,,,,,,,,,,,,,,,,,,,,,,,,,,,,,,,,,,,,,,
,,,,,,,600b0f7fa045ed0f806f01e2,605b45a4d25f287719a41696,605cec9a119b0f1124ba49f3,I am not familiar with Spanish,Northeast,13 or older,no,2021-03-25_16h04.12.878,empathy_intonation_perc,2020.2.10,MacIntel,60,,,,,,,,,,1,peruvian,1,1,1.671625,0,17,17,52,1,53,./stim/wavs/andalusian_mismatch_interrogative-partial-wh_Por-que-odiaba-la-lluvia.wav,./stim/wavs/argentine_mismatch_interrogative-partial-wh_Por-que-odiaba-la-lluvia.wav,./stim/wavs/castilian_mismatch_interrogative-partial-wh_Por-que-odiaba-la-lluvia.wav,./stim/wavs/chilean_mismatch_interrogative-partial-wh_Por-que-odiaba-la-lluvia.wav,./stim/wavs/cuban_mismatch_interrogative-partial-wh_Por-que-odiaba-la-lluvia.wav,./stim/wavs/mexican_mismatch_interrogative-partial-wh_Por-que-odiaba-la-lluvia.wav,./stim/wavs/peruvian_mismatch_interrogative-partial-wh_Por-que-odiaba-la-lluvia.wav,./stim/wavs/puertorican_mismatch_interrogative-partial-wh_Por-que-odiaba-la-lluvia.wav,,,,,,,,,,,,,,,,,,,,,,,,,,,,,,,,,,,,,,,,,,,,,,,,,,,,,,,,
,,,,,,,600b0f7fa045ed0f806f01e2,605b45a4d25f287719a41696,605cec9a119b0f1124ba49f3,I am not familiar with Spanish,Northeast,13 or older,no,2021-03-25_16h04.12.878,empathy_intonation_perc,2020.2.10,MacIntel,60,,,,,,,,,,1,puertorican,1,1,1.6025,0,18,18,22,1,23,./stim/wavs/andalusian_match_interrogative-partial-wh_Por-que-hablaba-del-agua.wav,./stim/wavs/argentine_match_interrogative-partial-wh_Por-que-hablaba-del-agua.wav,./stim/wavs/castilian_match_interrogative-partial-wh_Por-que-hablaba-del-agua.wav,./stim/wavs/chilean_match_interrogative-partial-wh_Por-que-hablaba-del-agua.wav,./stim/wavs/cuban_match_interrogative-partial-wh_Por-que-hablaba-del-agua.wav,./stim/wavs/mexican_match_interrogative-partial-wh_Por-que-hablaba-del-agua.wav,./stim/wavs/peruvian_match_interrogative-partial-wh_Por-que-hablaba-del-agua.wav,./stim/wavs/puertorican_match_interrogative-partial-wh_Por-que-hablaba-del-agua.wav,,,,,,,,,,,,,,,,,,,,,,,,,,,,,,,,,,,,,,,,,,,,,,,,,,,,,,,,
,,,,,,,600b0f7fa045ed0f806f01e2,605b45a4d25f287719a41696,605cec9a119b0f1124ba49f3,I am not familiar with Spanish,Northeast,13 or older,no,2021-03-25_16h04.12.878,empathy_intonation_perc,2020.2.10,MacIntel,60,,,,,,,,,,0,argentine,0,1,2.08704,0,19,19,35,1,36,./stim/wavs/andalusian_mismatch_declarative-broad-focus_La-maestra-vive-en-Paris.wav,./stim/wavs/argentine_mismatch_declarative-broad-focus_La-maestra-vive-en-Paris.wav,./stim/wavs/castilian_mismatch_declarative-broad-focus_La-maestra-vive-en-Paris.wav,./stim/wavs/chilean_mismatch_declarative-broad-focus_La-maestra-vive-en-Paris.wav,./stim/wavs/cuban_mismatch_declarative-broad-focus_La-maestra-vive-en-Paris.wav,./stim/wavs/mexican_mismatch_declarative-broad-focus_La-maestra-vive-en-Paris.wav,./stim/wavs/peruvian_mismatch_declarative-broad-focus_La-maestra-vive-en-Paris.wav,./stim/wavs/puertorican_mismatch_declarative-broad-focus_La-maestra-vive-en-Paris.wav,,,,,,,,,,,,,,,,,,,,,,,,,,,,,,,,,,,,,,,,,,,,,,,,,,,,,,,,
,,,,,,,600b0f7fa045ed0f806f01e2,605b45a4d25f287719a41696,605cec9a119b0f1124ba49f3,I am not familiar with Spanish,Northeast,13 or older,no,2021-03-25_16h04.12.878,empathy_intonation_perc,2020.2.10,MacIntel,60,,,,,,,,,,0,puertorican,0,1,1.278205,0,20,20,36,1,37,./stim/wavs/andalusian_mismatch_declarative-broad-focus_La-nina-lava-el-plato.wav,./stim/wavs/argentine_mismatch_declarative-broad-focus_La-nina-lava-el-plato.wav,./stim/wavs/castilian_mismatch_declarative-broad-focus_La-nina-lava-el-plato.wav,./stim/wavs/chilean_mismatch_declarative-broad-focus_La-nina-lava-el-plato.wav,./stim/wavs/cuban_mismatch_declarative-broad-focus_La-nina-lava-el-plato.wav,./stim/wavs/mexican_mismatch_declarative-broad-focus_La-nina-lava-el-plato.wav,./stim/wavs/peruvian_mismatch_declarative-broad-focus_La-nina-lava-el-plato.wav,./stim/wavs/puertorican_mismatch_declarative-broad-focus_La-nina-lava-el-plato.wav,,,,,,,,,,,,,,,,,,,,,,,,,,,,,,,,,,,,,,,,,,,,,,,,,,,,,,,,
,,,,,,,600b0f7fa045ed0f806f01e2,605b45a4d25f287719a41696,605cec9a119b0f1124ba49f3,I am not familiar with Spanish,Northeast,13 or older,no,2021-03-25_16h04.12.878,empathy_intonation_perc,2020.2.10,MacIntel,60,,,,,,,,,,0,peruvian,0,1,1.723505,0,21,21,12,1,13,./stim/wavs/andalusian_match_declarative-narrow-focus_Manuela-vende-el-carro.wav,./stim/wavs/argentine_match_declarative-narrow-focus_Manuela-vende-el-carro.wav,./stim/wavs/castilian_match_declarative-narrow-focus_Manuela-vende-el-carro.wav,./stim/wavs/chilean_match_declarative-narrow-focus_Manuela-vende-el-carro.wav,./stim/wavs/cuban_match_declarative-narrow-focus_Manuela-vende-el-carro.wav,./stim/wavs/mexican_match_declarative-narrow-focus_Manuela-vende-el-carro.wav,./stim/wavs/peruvian_match_declarative-narrow-focus_Manuela-vende-el-carro.wav,./stim/wavs/puertorican_match_declarative-narrow-focus_Manuela-vende-el-carro.wav,,,,,,,,,,,,,,,,,,,,,,,,,,,,,,,,,,,,,,,,,,,,,,,,,,,,,,,,
,,,,,,,600b0f7fa045ed0f806f01e2,605b45a4d25f287719a41696,605cec9a119b0f1124ba49f3,I am not familiar with Spanish,Northeast,13 or older,no,2021-03-25_16h04.12.878,empathy_intonation_perc,2020.2.10,MacIntel,60,,,,,,,,,,1,argentine,0,0,1.80679,0,22,22,30,1,31,./stim/wavs/andalusian_match_interrogative-total-yn_Mariano-habla-del-tiempo.wav,./stim/wavs/argentine_match_interrogative-total-yn_Mariano-habla-del-tiempo.wav,./stim/wavs/castilian_match_interrogative-total-yn_Mariano-habla-del-tiempo.wav,./stim/wavs/chilean_match_interrogative-total-yn_Mariano-habla-del-tiempo.wav,./stim/wavs/cuban_match_interrogative-total-yn_Mariano-habla-del-tiempo.wav,./stim/wavs/mexican_match_interrogative-total-yn_Mariano-habla-del-tiempo.wav,./stim/wavs/peruvian_match_interrogative-total-yn_Mariano-habla-del-tiempo.wav,./stim/wavs/puertorican_match_interrogative-total-yn_Mariano-habla-del-tiempo.wav,,,,,,,,,,,,,,,,,,,,,,,,,,,,,,,,,,,,,,,,,,,,,,,,,,,,,,,,
,,,,,,,600b0f7fa045ed0f806f01e2,605b45a4d25f287719a41696,605cec9a119b0f1124ba49f3,I am not familiar with Spanish,Northeast,13 or older,no,2021-03-25_16h04.12.878,empathy_intonation_perc,2020.2.10,MacIntel,60,,,,,,,,,,1,argentine,0,0,1.41946,0,23,23,17,1,18,./stim/wavs/andalusian_match_interrogative-partial-wh_Cuando-leia-el-libro.wav,./stim/wavs/argentine_match_interrogative-partial-wh_Cuando-leia-el-libro.wav,./stim/wavs/castilian_match_interrogative-partial-wh_Cuando-leia-el-libro.wav,./stim/wavs/chilean_match_interrogative-partial-wh_Cuando-leia-el-libro.wav,./stim/wavs/cuban_match_interrogative-partial-wh_Cuando-leia-el-libro.wav,./stim/wavs/mexican_match_interrogative-partial-wh_Cuando-leia-el-libro.wav,./stim/wavs/peruvian_match_interrogative-partial-wh_Cuando-leia-el-libro.wav,./stim/wavs/puertorican_match_interrogative-partial-wh_Cuando-leia-el-libro.wav,,,,,,,,,,,,,,,,,,,,,,,,,,,,,,,,,,,,,,,,,,,,,,,,,,,,,,,,
,,,,,,,600b0f7fa045ed0f806f01e2,605b45a4d25f287719a41696,605cec9a119b0f1124ba49f3,I am not familiar with Spanish,Northeast,13 or older,no,2021-03-25_16h04.12.878,empathy_intonation_perc,2020.2.10,MacIntel,60,,,,,,,,,,1,puertorican,1,1,1.67238,0,24,24,26,1,27,./stim/wavs/andalusian_match_interrogative-total-yn_David-leia-el-libro.wav,./stim/wavs/argentine_match_interrogative-total-yn_David-leia-el-libro.wav,./stim/wavs/castilian_match_interrogative-total-yn_David-leia-el-libro.wav,./stim/wavs/chilean_match_interrogative-total-yn_David-leia-el-libro.wav,./stim/wavs/cuban_match_interrogative-total-yn_David-leia-el-libro.wav,./stim/wavs/mexican_match_interrogative-total-yn_David-leia-el-libro.wav,./stim/wavs/peruvian_match_interrogative-total-yn_David-leia-el-libro.wav,./stim/wavs/puertorican_match_interrogative-total-yn_David-leia-el-libro.wav,,,,,,,,,,,,,,,,,,,,,,,,,,,,,,,,,,,,,,,,,,,,,,,,,,,,,,,,
,,,,,,,600b0f7fa045ed0f806f01e2,605b45a4d25f287719a41696,605cec9a119b0f1124ba49f3,I am not familiar with Spanish,Northeast,13 or older,no,2021-03-25_16h04.12.878,empathy_intonation_perc,2020.2.10,MacIntel,60,,,,,,,,,,0,castilian,0,1,1.387755,0,25,25,8,1,9,./stim/wavs/andalusian_match_declarative-narrow-focus_Ana-lleva-el-abrigo.wav,./stim/wavs/argentine_match_declarative-narrow-focus_Ana-lleva-el-abrigo.wav,./stim/wavs/castilian_match_declarative-narrow-focus_Ana-lleva-el-abrigo.wav,./stim/wavs/chilean_match_declarative-narrow-focus_Ana-lleva-el-abrigo.wav,./stim/wavs/cuban_match_declarative-narrow-focus_Ana-lleva-el-abrigo.wav,./stim/wavs/mexican_match_declarative-narrow-focus_Ana-lleva-el-abrigo.wav,./stim/wavs/peruvian_match_declarative-narrow-focus_Ana-lleva-el-abrigo.wav,./stim/wavs/puertorican_match_declarative-narrow-focus_Ana-lleva-el-abrigo.wav,,,,,,,,,,,,,,,,,,,,,,,,,,,,,,,,,,,,,,,,,,,,,,,,,,,,,,,,
,,,,,,,600b0f7fa045ed0f806f01e2,605b45a4d25f287719a41696,605cec9a119b0f1124ba49f3,I am not familiar with Spanish,Northeast,13 or older,no,2021-03-25_16h04.12.878,empathy_intonation_perc,2020.2.10,MacIntel,60,,,,,,,,,,0,peruvian,0,1,1.787085,0,26,26,38,1,39,./stim/wavs/andalusian_mismatch_declarative-broad-focus_Mi-novio-viene-del-lago.wav,./stim/wavs/argentine_mismatch_declarative-broad-focus_Mi-novio-viene-del-lago.wav,./stim/wavs/castilian_mismatch_declarative-broad-focus_Mi-novio-viene-del-lago.wav,./stim/wavs/chilean_mismatch_declarative-broad-focus_Mi-novio-viene-del-lago.wav,./stim/wavs/cuban_mismatch_declarative-broad-focus_Mi-novio-viene-del-lago.wav,./stim/wavs/mexican_mismatch_declarative-broad-focus_Mi-novio-viene-del-lago.wav,./stim/wavs/peruvian_mismatch_declarative-broad-focus_Mi-novio-viene-del-lago.wav,./stim/wavs/puertorican_mismatch_declarative-broad-focus_Mi-novio-viene-del-lago.wav,,,,,,,,,,,,,,,,,,,,,,,,,,,,,,,,,,,,,,,,,,,,,,,,,,,,,,,,
,,,,,,,600b0f7fa045ed0f806f01e2,605b45a4d25f287719a41696,605cec9a119b0f1124ba49f3,I am not familiar with Spanish,Northeast,13 or older,no,2021-03-25_16h04.12.878,empathy_intonation_perc,2020.2.10,MacIntel,60,,,,,,,,,,0,andalusian,0,1,1.78596,0,27,27,47,1,48,./stim/wavs/andalusian_mismatch_declarative-narrow-focus_Mi-tia-odia-la-lluvia.wav,./stim/wavs/argentine_mismatch_declarative-narrow-focus_Mi-tia-odia-la-lluvia.wav,./stim/wavs/castilian_mismatch_declarative-narrow-focus_Mi-tia-odia-la-lluvia.wav,./stim/wavs/chilean_mismatch_declarative-narrow-focus_Mi-tia-odia-la-lluvia.wav,./stim/wavs/cuban_mismatch_declarative-narrow-focus_Mi-tia-odia-la-lluvia.wav,./stim/wavs/mexican_mismatch_declarative-narrow-focus_Mi-tia-odia-la-lluvia.wav,./stim/wavs/peruvian_mismatch_declarative-narrow-focus_Mi-tia-odia-la-lluvia.wav,./stim/wavs/puertorican_mismatch_declarative-narrow-focus_Mi-tia-odia-la-lluvia.wav,,,,,,,,,,,,,,,,,,,,,,,,,,,,,,,,,,,,,,,,,,,,,,,,,,,,,,,,
,,,,,,,600b0f7fa045ed0f806f01e2,605b45a4d25f287719a41696,605cec9a119b0f1124ba49f3,I am not familiar with Spanish,Northeast,13 or older,no,2021-03-25_16h04.12.878,empathy_intonation_perc,2020.2.10,MacIntel,60,,,,,,,,,,0,andalusian,0,1,1.98771,0,28,28,1,1,2,./stim/wavs/andalusian_match_declarative-broad-focus_Daniel-iba-a-Bolivia.wav,./stim/wavs/argentine_match_declarative-broad-focus_Daniel-iba-a-Bolivia.wav,./stim/wavs/castilian_match_declarative-broad-focus_Daniel-iba-a-Bolivia.wav,./stim/wavs/chilean_match_declarative-broad-focus_Daniel-iba-a-Bolivia.wav,./stim/wavs/cuban_match_declarative-broad-focus_Daniel-iba-a-Bolivia.wav,./stim/wavs/mexican_match_declarative-broad-focus_Daniel-iba-a-Bolivia.wav,./stim/wavs/peruvian_match_declarative-broad-focus_Daniel-iba-a-Bolivia.wav,./stim/wavs/puertorican_match_declarative-broad-focus_Daniel-iba-a-Bolivia.wav,,,,,,,,,,,,,,,,,,,,,,,,,,,,,,,,,,,,,,,,,,,,,,,,,,,,,,,,
,,,,,,,600b0f7fa045ed0f806f01e2,605b45a4d25f287719a41696,605cec9a119b0f1124ba49f3,I am not familiar with Spanish,Northeast,13 or older,no,2021-03-25_16h04.12.878,empathy_intonation_perc,2020.2.10,MacIntel,60,,,,,,,,,,1,puertorican,0,0,2.599705,0,29,29,62,1,63,./stim/wavs/andalusian_mismatch_interrogative-total-yn_Mi-novio-viene-del-lago.wav,./stim/wavs/argentine_mismatch_interrogative-total-yn_Mi-novio-viene-del-lago.wav,./stim/wavs/castilian_mismatch_interrogative-total-yn_Mi-novio-viene-del-lago.wav,./stim/wavs/chilean_mismatch_interrogative-total-yn_Mi-novio-viene-del-lago.wav,./stim/wavs/cuban_mismatch_interrogative-total-yn_Mi-novio-viene-del-lago.wav,./stim/wavs/mexican_mismatch_interrogative-total-yn_Mi-novio-viene-del-lago.wav,./stim/wavs/peruvian_mismatch_interrogative-total-yn_Mi-novio-viene-del-lago.wav,./stim/wavs/puertorican_mismatch_interrogative-total-yn_Mi-novio-viene-del-lago.wav,,,,,,,,,,,,,,,,,,,,,,,,,,,,,,,,,,,,,,,,,,,,,,,,,,,,,,,,
,,,,,,,600b0f7fa045ed0f806f01e2,605b45a4d25f287719a41696,605cec9a119b0f1124ba49f3,I am not familiar with Spanish,Northeast,13 or older,no,2021-03-25_16h04.12.878,empathy_intonation_perc,2020.2.10,MacIntel,60,,,,,,,,,,0,argentine,0,1,1.50775,0,30,30,41,1,42,./stim/wavs/andalusian_mismatch_declarative-narrow-focus_El-hombre-mira-la-luna.wav,./stim/wavs/argentine_mismatch_declarative-narrow-focus_El-hombre-mira-la-luna.wav,./stim/wavs/castilian_mismatch_declarative-narrow-focus_El-hombre-mira-la-luna.wav,./stim/wavs/chilean_mismatch_declarative-narrow-focus_El-hombre-mira-la-luna.wav,./stim/wavs/cuban_mismatch_declarative-narrow-focus_El-hombre-mira-la-luna.wav,./stim/wavs/mexican_mismatch_declarative-narrow-focus_El-hombre-mira-la-luna.wav,./stim/wavs/peruvian_mismatch_declarative-narrow-focus_El-hombre-mira-la-luna.wav,./stim/wavs/puertorican_mismatch_declarative-narrow-focus_El-hombre-mira-la-luna.wav,,,,,,,,,,,,,,,,,,,,,,,,,,,,,,,,,,,,,,,,,,,,,,,,,,,,,,,,
,,,,,,,600b0f7fa045ed0f806f01e2,605b45a4d25f287719a41696,605cec9a119b0f1124ba49f3,I am not familiar with Spanish,Northeast,13 or older,no,2021-03-25_16h04.12.878,empathy_intonation_perc,2020.2.10,MacIntel,60,,,,,,,,,,0,mexican,0,1,1.53396,0,31,31,9,1,10,./stim/wavs/andalusian_match_declarative-narrow-focus_Daniel-iba-a-Bolivia.wav,./stim/wavs/argentine_match_declarative-narrow-focus_Daniel-iba-a-Bolivia.wav,./stim/wavs/castilian_match_declarative-narrow-focus_Daniel-iba-a-Bolivia.wav,./stim/wavs/chilean_match_declarative-narrow-focus_Daniel-iba-a-Bolivia.wav,./stim/wavs/cuban_match_declarative-narrow-focus_Daniel-iba-a-Bolivia.wav,./stim/wavs/mexican_match_declarative-narrow-focus_Daniel-iba-a-Bolivia.wav,./stim/wavs/peruvian_match_declarative-narrow-focus_Daniel-iba-a-Bolivia.wav,./stim/wavs/puertorican_match_declarative-narrow-focus_Daniel-iba-a-Bolivia.wav,,,,,,,,,,,,,,,,,,,,,,,,,,,,,,,,,,,,,,,,,,,,,,,,,,,,,,,,
,,,,,,,600b0f7fa045ed0f806f01e2,605b45a4d25f287719a41696,605cec9a119b0f1124ba49f3,I am not familiar with Spanish,Northeast,13 or older,no,2021-03-25_16h04.12.878,empathy_intonation_perc,2020.2.10,MacIntel,60,,,,,,,,,,1,peruvian,1,1,1.93675,0,32,32,56,1,57,./stim/wavs/andalusian_mismatch_interrogative-total-yn_El-bebe-comia-muy-bien.wav,./stim/wavs/argentine_mismatch_interrogative-total-yn_El-bebe-comia-muy-bien.wav,./stim/wavs/castilian_mismatch_interrogative-total-yn_El-bebe-comia-muy-bien.wav,./stim/wavs/chilean_mismatch_interrogative-total-yn_El-bebe-comia-muy-bien.wav,./stim/wavs/cuban_mismatch_interrogative-total-yn_El-bebe-comia-muy-bien.wav,./stim/wavs/mexican_mismatch_interrogative-total-yn_El-bebe-comia-muy-bien.wav,./stim/wavs/peruvian_mismatch_interrogative-total-yn_El-bebe-comia-muy-bien.wav,./stim/wavs/puertorican_mismatch_interrogative-total-yn_El-bebe-comia-muy-bien.wav,,,,,,,,,,,,,,,,,,,,,,,,,,,,,,,,,,,,,,,,,,,,,,,,,,,,,,,,
,,,,,,,600b0f7fa045ed0f806f01e2,605b45a4d25f287719a41696,605cec9a119b0f1124ba49f3,I am not familiar with Spanish,Northeast,13 or older,no,2021-03-25_16h04.12.878,empathy_intonation_perc,2020.2.10,MacIntel,60,,,,,,,,,,1,argentine,1,1,1.62529,0,33,33,63,1,64,./stim/wavs/andalusian_mismatch_interrogative-total-yn_Mi-tia-odia-la-lluvia.wav,./stim/wavs/argentine_mismatch_interrogative-total-yn_Mi-tia-odia-la-lluvia.wav,./stim/wavs/castilian_mismatch_interrogative-total-yn_Mi-tia-odia-la-lluvia.wav,./stim/wavs/chilean_mismatch_interrogative-total-yn_Mi-tia-odia-la-lluvia.wav,./stim/wavs/cuban_mismatch_interrogative-total-yn_Mi-tia-odia-la-lluvia.wav,./stim/wavs/mexican_mismatch_interrogative-total-yn_Mi-tia-odia-la-lluvia.wav,./stim/wavs/peruvian_mismatch_interrogative-total-yn_Mi-tia-odia-la-lluvia.wav,./stim/wavs/puertorican_mismatch_interrogative-total-yn_Mi-tia-odia-la-lluvia.wav,,,,,,,,,,,,,,,,,,,,,,,,,,,,,,,,,,,,,,,,,,,,,,,,,,,,,,,,
,,,,,,,600b0f7fa045ed0f806f01e2,605b45a4d25f287719a41696,605cec9a119b0f1124ba49f3,I am not familiar with Spanish,Northeast,13 or older,no,2021-03-25_16h04.12.878,empathy_intonation_perc,2020.2.10,MacIntel,60,,,,,,,,,,0,puertorican,0,1,1.690335,0,34,34,45,1,46,./stim/wavs/andalusian_mismatch_declarative-narrow-focus_Mi-madre-come-la-fruta.wav,./stim/wavs/argentine_mismatch_declarative-narrow-focus_Mi-madre-come-la-fruta.wav,./stim/wavs/castilian_mismatch_declarative-narrow-focus_Mi-madre-come-la-fruta.wav,./stim/wavs/chilean_mismatch_declarative-narrow-focus_Mi-madre-come-la-fruta.wav,./stim/wavs/cuban_mismatch_declarative-narrow-focus_Mi-madre-come-la-fruta.wav,./stim/wavs/mexican_mismatch_declarative-narrow-focus_Mi-madre-come-la-fruta.wav,./stim/wavs/peruvian_mismatch_declarative-narrow-focus_Mi-madre-come-la-fruta.wav,./stim/wavs/puertorican_mismatch_declarative-narrow-focus_Mi-madre-come-la-fruta.wav,,,,,,,,,,,,,,,,,,,,,,,,,,,,,,,,,,,,,,,,,,,,,,,,,,,,,,,,
,,,,,,,600b0f7fa045ed0f806f01e2,605b45a4d25f287719a41696,605cec9a119b0f1124ba49f3,I am not familiar with Spanish,Northeast,13 or older,no,2021-03-25_16h04.12.878,empathy_intonation_perc,2020.2.10,MacIntel,60,,,,,,,,,,0,peruvian,0,1,1.685585,0,35,35,10,1,11,./stim/wavs/andalusian_match_declarative-narrow-focus_David-leia-el-libro.wav,./stim/wavs/argentine_match_declarative-narrow-focus_David-leia-el-libro.wav,./stim/wavs/castilian_match_declarative-narrow-focus_David-leia-el-libro.wav,./stim/wavs/chilean_match_declarative-narrow-focus_David-leia-el-libro.wav,./stim/wavs/cuban_match_declarative-narrow-focus_David-leia-el-libro.wav,./stim/wavs/mexican_match_declarative-narrow-focus_David-leia-el-libro.wav,./stim/wavs/peruvian_match_declarative-narrow-focus_David-leia-el-libro.wav,./stim/wavs/puertorican_match_declarative-narrow-focus_David-leia-el-libro.wav,,,,,,,,,,,,,,,,,,,,,,,,,,,,,,,,,,,,,,,,,,,,,,,,,,,,,,,,
,,,,,,,600b0f7fa045ed0f806f01e2,605b45a4d25f287719a41696,605cec9a119b0f1124ba49f3,I am not familiar with Spanish,Northeast,13 or older,no,2021-03-25_16h04.12.878,empathy_intonation_perc,2020.2.10,MacIntel,60,,,,,,,,,,0,mexican,0,1,1.319,0,36,36,5,1,6,./stim/wavs/andalusian_match_declarative-broad-focus_Maria-bebe-el-vino.wav,./stim/wavs/argentine_match_declarative-broad-focus_Maria-bebe-el-vino.wav,./stim/wavs/castilian_match_declarative-broad-focus_Maria-bebe-el-vino.wav,./stim/wavs/chilean_match_declarative-broad-focus_Maria-bebe-el-vino.wav,./stim/wavs/cuban_match_declarative-broad-focus_Maria-bebe-el-vino.wav,./stim/wavs/mexican_match_declarative-broad-focus_Maria-bebe-el-vino.wav,./stim/wavs/peruvian_match_declarative-broad-focus_Maria-bebe-el-vino.wav,./stim/wavs/puertorican_match_declarative-broad-focus_Maria-bebe-el-vino.wav,,,,,,,,,,,,,,,,,,,,,,,,,,,,,,,,,,,,,,,,,,,,,,,,,,,,,,,,
,,,,,,,600b0f7fa045ed0f806f01e2,605b45a4d25f287719a41696,605cec9a119b0f1124ba49f3,I am not familiar with Spanish,Northeast,13 or older,no,2021-03-25_16h04.12.878,empathy_intonation_perc,2020.2.10,MacIntel,60,,,,,,,,,,1,cuban,0,0,1.47746,0,37,37,60,1,61,./stim/wavs/andalusian_mismatch_interrogative-total-yn_La-nina-lava-el-plato.wav,./stim/wavs/argentine_mismatch_interrogative-total-yn_La-nina-lava-el-plato.wav,./stim/wavs/castilian_mismatch_interrogative-total-yn_La-nina-lava-el-plato.wav,./stim/wavs/chilean_mismatch_interrogative-total-yn_La-nina-lava-el-plato.wav,./stim/wavs/cuban_mismatch_interrogative-total-yn_La-nina-lava-el-plato.wav,./stim/wavs/mexican_mismatch_interrogative-total-yn_La-nina-lava-el-plato.wav,./stim/wavs/peruvian_mismatch_interrogative-total-yn_La-nina-lava-el-plato.wav,./stim/wavs/puertorican_mismatch_interrogative-total-yn_La-nina-lava-el-plato.wav,,,,,,,,,,,,,,,,,,,,,,,,,,,,,,,,,,,,,,,,,,,,,,,,,,,,,,,,
,,,,,,,600b0f7fa045ed0f806f01e2,605b45a4d25f287719a41696,605cec9a119b0f1124ba49f3,I am not familiar with Spanish,Northeast,13 or older,no,2021-03-25_16h04.12.878,empathy_intonation_perc,2020.2.10,MacIntel,60,,,,,,,,,,1,puertorican,1,1,1.605165,0,38,38,57,1,58,./stim/wavs/andalusian_mismatch_interrogative-total-yn_El-hombre-mira-la-luna.wav,./stim/wavs/argentine_mismatch_interrogative-total-yn_El-hombre-mira-la-luna.wav,./stim/wavs/castilian_mismatch_interrogative-total-yn_El-hombre-mira-la-luna.wav,./stim/wavs/chilean_mismatch_interrogative-total-yn_El-hombre-mira-la-luna.wav,./stim/wavs/cuban_mismatch_interrogative-total-yn_El-hombre-mira-la-luna.wav,./stim/wavs/mexican_mismatch_interrogative-total-yn_El-hombre-mira-la-luna.wav,./stim/wavs/peruvian_mismatch_interrogative-total-yn_El-hombre-mira-la-luna.wav,./stim/wavs/puertorican_mismatch_interrogative-total-yn_El-hombre-mira-la-luna.wav,,,,,,,,,,,,,,,,,,,,,,,,,,,,,,,,,,,,,,,,,,,,,,,,,,,,,,,,
,,,,,,,600b0f7fa045ed0f806f01e2,605b45a4d25f287719a41696,605cec9a119b0f1124ba49f3,I am not familiar with Spanish,Northeast,13 or older,no,2021-03-25_16h04.12.878,empathy_intonation_perc,2020.2.10,MacIntel,60,,,,,,,,,,0,chilean,0,1,1.793625,0,39,39,7,1,8,./stim/wavs/andalusian_match_declarative-broad-focus_Marta-abre-el-regalo.wav,./stim/wavs/argentine_match_declarative-broad-focus_Marta-abre-el-regalo.wav,./stim/wavs/castilian_match_declarative-broad-focus_Marta-abre-el-regalo.wav,./stim/wavs/chilean_match_declarative-broad-focus_Marta-abre-el-regalo.wav,./stim/wavs/cuban_match_declarative-broad-focus_Marta-abre-el-regalo.wav,./stim/wavs/mexican_match_declarative-broad-focus_Marta-abre-el-regalo.wav,./stim/wavs/peruvian_match_declarative-broad-focus_Marta-abre-el-regalo.wav,./stim/wavs/puertorican_match_declarative-broad-focus_Marta-abre-el-regalo.wav,,,,,,,,,,,,,,,,,,,,,,,,,,,,,,,,,,,,,,,,,,,,,,,,,,,,,,,,
,,,,,,,600b0f7fa045ed0f806f01e2,605b45a4d25f287719a41696,605cec9a119b0f1124ba49f3,I am not familiar with Spanish,Northeast,13 or older,no,2021-03-25_16h04.12.878,empathy_intonation_perc,2020.2.10,MacIntel,60,,,,,,,,,,1,argentine,1,1,1.85317,0,40,40,54,1,55,./stim/wavs/andalusian_mismatch_interrogative-partial-wh_Por-que-venia-del-lago.wav,./stim/wavs/argentine_mismatch_interrogative-partial-wh_Por-que-venia-del-lago.wav,./stim/wavs/castilian_mismatch_interrogative-partial-wh_Por-que-venia-del-lago.wav,./stim/wavs/chilean_mismatch_interrogative-partial-wh_Por-que-venia-del-lago.wav,./stim/wavs/cuban_mismatch_interrogative-partial-wh_Por-que-venia-del-lago.wav,./stim/wavs/mexican_mismatch_interrogative-partial-wh_Por-que-venia-del-lago.wav,./stim/wavs/peruvian_mismatch_interrogative-partial-wh_Por-que-venia-del-lago.wav,./stim/wavs/puertorican_mismatch_interrogative-partial-wh_Por-que-venia-del-lago.wav,,,,,,,,,,,,,,,,,,,,,,,,,,,,,,,,,,,,,,,,,,,,,,,,,,,,,,,,
,,,,,,,600b0f7fa045ed0f806f01e2,605b45a4d25f287719a41696,605cec9a119b0f1124ba49f3,I am not familiar with Spanish,Northeast,13 or older,no,2021-03-25_16h04.12.878,empathy_intonation_perc,2020.2.10,MacIntel,60,,,,,,,,,,0,peruvian,0,1,1.44937,0,41,41,13,1,14,./stim/wavs/andalusian_match_declarative-narrow-focus_Maria-bebe-el-vino.wav,./stim/wavs/argentine_match_declarative-narrow-focus_Maria-bebe-el-vino.wav,./stim/wavs/castilian_match_declarative-narrow-focus_Maria-bebe-el-vino.wav,./stim/wavs/chilean_match_declarative-narrow-focus_Maria-bebe-el-vino.wav,./stim/wavs/cuban_match_declarative-narrow-focus_Maria-bebe-el-vino.wav,./stim/wavs/mexican_match_declarative-narrow-focus_Maria-bebe-el-vino.wav,./stim/wavs/peruvian_match_declarative-narrow-focus_Maria-bebe-el-vino.wav,./stim/wavs/puertorican_match_declarative-narrow-focus_Maria-bebe-el-vino.wav,,,,,,,,,,,,,,,,,,,,,,,,,,,,,,,,,,,,,,,,,,,,,,,,,,,,,,,,
,,,,,,,600b0f7fa045ed0f806f01e2,605b45a4d25f287719a41696,605cec9a119b0f1124ba49f3,I am not familiar with Spanish,Northeast,13 or older,no,2021-03-25_16h04.12.878,empathy_intonation_perc,2020.2.10,MacIntel,60,,,,,,,,,,0,puertorican,0,1,1.36158,0,42,42,42,1,43,./stim/wavs/andalusian_mismatch_declarative-narrow-focus_El-nino-oye-el-rio.wav,./stim/wavs/argentine_mismatch_declarative-narrow-focus_El-nino-oye-el-rio.wav,./stim/wavs/castilian_mismatch_declarative-narrow-focus_El-nino-oye-el-rio.wav,./stim/wavs/chilean_mismatch_declarative-narrow-focus_El-nino-oye-el-rio.wav,./stim/wavs/cuban_mismatch_declarative-narrow-focus_El-nino-oye-el-rio.wav,./stim/wavs/mexican_mismatch_declarative-narrow-focus_El-nino-oye-el-rio.wav,./stim/wavs/peruvian_mismatch_declarative-narrow-focus_El-nino-oye-el-rio.wav,./stim/wavs/puertorican_mismatch_declarative-narrow-focus_El-nino-oye-el-rio.wav,,,,,,,,,,,,,,,,,,,,,,,,,,,,,,,,,,,,,,,,,,,,,,,,,,,,,,,,
,,,,,,,600b0f7fa045ed0f806f01e2,605b45a4d25f287719a41696,605cec9a119b0f1124ba49f3,I am not familiar with Spanish,Northeast,13 or older,no,2021-03-25_16h04.12.878,empathy_intonation_perc,2020.2.10,MacIntel,60,,,,,,,,,,1,chilean,1,1,1.60204,0,43,43,55,1,56,./stim/wavs/andalusian_mismatch_interrogative-partial-wh_Por-que-vivia-en-Paris.wav,./stim/wavs/argentine_mismatch_interrogative-partial-wh_Por-que-vivia-en-Paris.wav,./stim/wavs/castilian_mismatch_interrogative-partial-wh_Por-que-vivia-en-Paris.wav,./stim/wavs/chilean_mismatch_interrogative-partial-wh_Por-que-vivia-en-Paris.wav,./stim/wavs/cuban_mismatch_interrogative-partial-wh_Por-que-vivia-en-Paris.wav,./stim/wavs/mexican_mismatch_interrogative-partial-wh_Por-que-vivia-en-Paris.wav,./stim/wavs/peruvian_mismatch_interrogative-partial-wh_Por-que-vivia-en-Paris.wav,./stim/wavs/puertorican_mismatch_interrogative-partial-wh_Por-que-vivia-en-Paris.wav,,,,,,,,,,,,,,,,,,,,,,,,,,,,,,,,,,,,,,,,,,,,,,,,,,,,,,,,
,,,,,,,600b0f7fa045ed0f806f01e2,605b45a4d25f287719a41696,605cec9a119b0f1124ba49f3,I am not familiar with Spanish,Northeast,13 or older,no,2021-03-25_16h04.12.878,empathy_intonation_perc,2020.2.10,MacIntel,60,,,,,,,,,,0,peruvian,0,1,1.66496,0,44,44,37,1,38,./stim/wavs/andalusian_mismatch_declarative-broad-focus_Mi-madre-come-la-fruta.wav,./stim/wavs/argentine_mismatch_declarative-broad-focus_Mi-madre-come-la-fruta.wav,./stim/wavs/castilian_mismatch_declarative-broad-focus_Mi-madre-come-la-fruta.wav,./stim/wavs/chilean_mismatch_declarative-broad-focus_Mi-madre-come-la-fruta.wav,./stim/wavs/cuban_mismatch_declarative-broad-focus_Mi-madre-come-la-fruta.wav,./stim/wavs/mexican_mismatch_declarative-broad-focus_Mi-madre-come-la-fruta.wav,./stim/wavs/peruvian_mismatch_declarative-broad-focus_Mi-madre-come-la-fruta.wav,./stim/wavs/puertorican_mismatch_declarative-broad-focus_Mi-madre-come-la-fruta.wav,,,,,,,,,,,,,,,,,,,,,,,,,,,,,,,,,,,,,,,,,,,,,,,,,,,,,,,,
,,,,,,,600b0f7fa045ed0f806f01e2,605b45a4d25f287719a41696,605cec9a119b0f1124ba49f3,I am not familiar with Spanish,Northeast,13 or older,no,2021-03-25_16h04.12.878,empathy_intonation_perc,2020.2.10,MacIntel,60,,,,,,,,,,0,cuban,0,1,1.84304,0,45,45,39,1,40,./stim/wavs/andalusian_mismatch_declarative-broad-focus_Mi-tia-odia-la-lluvia.wav,./stim/wavs/argentine_mismatch_declarative-broad-focus_Mi-tia-odia-la-lluvia.wav,./stim/wavs/castilian_mismatch_declarative-broad-focus_Mi-tia-odia-la-lluvia.wav,./stim/wavs/chilean_mismatch_declarative-broad-focus_Mi-tia-odia-la-lluvia.wav,./stim/wavs/cuban_mismatch_declarative-broad-focus_Mi-tia-odia-la-lluvia.wav,./stim/wavs/mexican_mismatch_declarative-broad-focus_Mi-tia-odia-la-lluvia.wav,./stim/wavs/peruvian_mismatch_declarative-broad-focus_Mi-tia-odia-la-lluvia.wav,./stim/wavs/puertorican_mismatch_declarative-broad-focus_Mi-tia-odia-la-lluvia.wav,,,,,,,,,,,,,,,,,,,,,,,,,,,,,,,,,,,,,,,,,,,,,,,,,,,,,,,,
,,,,,,,600b0f7fa045ed0f806f01e2,605b45a4d25f287719a41696,605cec9a119b0f1124ba49f3,I am not familiar with Spanish,Northeast,13 or older,no,2021-03-25_16h04.12.878,empathy_intonation_perc,2020.2.10,MacIntel,60,,,,,,,,,,1,peruvian,1,1,1.676665,0,46,46,24,1,25,./stim/wavs/andalusian_match_interrogative-total-yn_Ana-lleva-el-abrigo.wav,./stim/wavs/argentine_match_interrogative-total-yn_Ana-lleva-el-abrigo.wav,./stim/wavs/castilian_match_interrogative-total-yn_Ana-lleva-el-abrigo.wav,./stim/wavs/chilean_match_interrogative-total-yn_Ana-lleva-el-abrigo.wav,./stim/wavs/cuban_match_interrogative-total-yn_Ana-lleva-el-abrigo.wav,./stim/wavs/mexican_match_interrogative-total-yn_Ana-lleva-el-abrigo.wav,./stim/wavs/peruvian_match_interrogative-total-yn_Ana-lleva-el-abrigo.wav,./stim/wavs/puertorican_match_interrogative-total-yn_Ana-lleva-el-abrigo.wav,,,,,,,,,,,,,,,,,,,,,,,,,,,,,,,,,,,,,,,,,,,,,,,,,,,,,,,,
,,,,,,,600b0f7fa045ed0f806f01e2,605b45a4d25f287719a41696,605cec9a119b0f1124ba49f3,I am not familiar with Spanish,Northeast,13 or older,no,2021-03-25_16h04.12.878,empathy_intonation_perc,2020.2.10,MacIntel,60,,,,,,,,,,1,chilean,1,1,1.619295,0,47,47,27,1,28,./stim/wavs/andalusian_match_interrogative-total-yn_Emilio-ama-la-marcha.wav,./stim/wavs/argentine_match_interrogative-total-yn_Emilio-ama-la-marcha.wav,./stim/wavs/castilian_match_interrogative-total-yn_Emilio-ama-la-marcha.wav,./stim/wavs/chilean_match_interrogative-total-yn_Emilio-ama-la-marcha.wav,./stim/wavs/cuban_match_interrogative-total-yn_Emilio-ama-la-marcha.wav,./stim/wavs/mexican_match_interrogative-total-yn_Emilio-ama-la-marcha.wav,./stim/wavs/peruvian_match_interrogative-total-yn_Emilio-ama-la-marcha.wav,./stim/wavs/puertorican_match_interrogative-total-yn_Emilio-ama-la-marcha.wav,,,,,,,,,,,,,,,,,,,,,,,,,,,,,,,,,,,,,,,,,,,,,,,,,,,,,,,,
,,,,,,,600b0f7fa045ed0f806f01e2,605b45a4d25f287719a41696,605cec9a119b0f1124ba49f3,I am not familiar with Spanish,Northeast,13 or older,no,2021-03-25_16h04.12.878,empathy_intonation_perc,2020.2.10,MacIntel,60,,,,,,,,,,1,castilian,1,1,1.770625,0,48,48,29,1,30,./stim/wavs/andalusian_match_interrogative-total-yn_Maria-bebe-el-vino.wav,./stim/wavs/argentine_match_interrogative-total-yn_Maria-bebe-el-vino.wav,./stim/wavs/castilian_match_interrogative-total-yn_Maria-bebe-el-vino.wav,./stim/wavs/chilean_match_interrogative-total-yn_Maria-bebe-el-vino.wav,./stim/wavs/cuban_match_interrogative-total-yn_Maria-bebe-el-vino.wav,./stim/wavs/mexican_match_interrogative-total-yn_Maria-bebe-el-vino.wav,./stim/wavs/peruvian_match_interrogative-total-yn_Maria-bebe-el-vino.wav,./stim/wavs/puertorican_match_interrogative-total-yn_Maria-bebe-el-vino.wav,,,,,,,,,,,,,,,,,,,,,,,,,,,,,,,,,,,,,,,,,,,,,,,,,,,,,,,,
,,,,,,,600b0f7fa045ed0f806f01e2,605b45a4d25f287719a41696,605cec9a119b0f1124ba49f3,I am not familiar with Spanish,Northeast,13 or older,no,2021-03-25_16h04.12.878,empathy_intonation_perc,2020.2.10,MacIntel,60,,,,,,,,,,1,mexican,1,1,1.387835,0,49,49,19,1,20,./stim/wavs/andalusian_match_interrogative-partial-wh_Cuando-vendia-el-carro.wav,./stim/wavs/argentine_match_interrogative-partial-wh_Cuando-vendia-el-carro.wav,./stim/wavs/castilian_match_interrogative-partial-wh_Cuando-vendia-el-carro.wav,./stim/wavs/chilean_match_interrogative-partial-wh_Cuando-vendia-el-carro.wav,./stim/wavs/cuban_match_interrogative-partial-wh_Cuando-vendia-el-carro.wav,./stim/wavs/mexican_match_interrogative-partial-wh_Cuando-vendia-el-carro.wav,./stim/wavs/peruvian_match_interrogative-partial-wh_Cuando-vendia-el-carro.wav,./stim/wavs/puertorican_match_interrogative-partial-wh_Cuando-vendia-el-carro.wav,,,,,,,,,,,,,,,,,,,,,,,,,,,,,,,,,,,,,,,,,,,,,,,,,,,,,,,,
,,,,,,,600b0f7fa045ed0f806f01e2,605b45a4d25f287719a41696,605cec9a119b0f1124ba49f3,I am not familiar with Spanish,Northeast,13 or older,no,2021-03-25_16h04.12.878,empathy_intonation_perc,2020.2.10,MacIntel,60,,,,,,,,,,0,castilian,0,1,1.757625,0,50,50,2,1,3,./stim/wavs/andalusian_match_declarative-broad-focus_David-leia-el-libro.wav,./stim/wavs/argentine_match_declarative-broad-focus_David-leia-el-libro.wav,./stim/wavs/castilian_match_declarative-broad-focus_David-leia-el-libro.wav,./stim/wavs/chilean_match_declarative-broad-focus_David-leia-el-libro.wav,./stim/wavs/cuban_match_declarative-broad-focus_David-leia-el-libro.wav,./stim/wavs/mexican_match_declarative-broad-focus_David-leia-el-libro.wav,./stim/wavs/peruvian_match_declarative-broad-focus_David-leia-el-libro.wav,./stim/wavs/puertorican_match_declarative-broad-focus_David-leia-el-libro.wav,,,,,,,,,,,,,,,,,,,,,,,,,,,,,,,,,,,,,,,,,,,,,,,,,,,,,,,,
,,,,,,,600b0f7fa045ed0f806f01e2,605b45a4d25f287719a41696,605cec9a119b0f1124ba49f3,I am not familiar with Spanish,Northeast,13 or older,no,2021-03-25_16h04.12.878,empathy_intonation_perc,2020.2.10,MacIntel,60,,,,,,,,,,1,mexican,0,0,1.42071,0,51,51,50,1,51,./stim/wavs/andalusian_mismatch_interrogative-partial-wh_Cuando-miraba-la-luna.wav,./stim/wavs/argentine_mismatch_interrogative-partial-wh_Cuando-miraba-la-luna.wav,./stim/wavs/castilian_mismatch_interrogative-partial-wh_Cuando-miraba-la-luna.wav,./stim/wavs/chilean_mismatch_interrogative-partial-wh_Cuando-miraba-la-luna.wav,./stim/wavs/cuban_mismatch_interrogative-partial-wh_Cuando-miraba-la-luna.wav,./stim/wavs/mexican_mismatch_interrogative-partial-wh_Cuando-miraba-la-luna.wav,./stim/wavs/peruvian_mismatch_interrogative-partial-wh_Cuando-miraba-la-luna.wav,./stim/wavs/puertorican_mismatch_interrogative-partial-wh_Cuando-miraba-la-luna.wav,,,,,,,,,,,,,,,,,,,,,,,,,,,,,,,,,,,,,,,,,,,,,,,,,,,,,,,,
,,,,,,,600b0f7fa045ed0f806f01e2,605b45a4d25f287719a41696,605cec9a119b0f1124ba49f3,I am not familiar with Spanish,Northeast,13 or older,no,2021-03-25_16h04.12.878,empathy_intonation_perc,2020.2.10,MacIntel,60,,,,,,,,,,0,castilian,0,1,1.482415,0,52,52,44,1,45,./stim/wavs/andalusian_mismatch_declarative-narrow-focus_La-nina-lava-el-plato.wav,./stim/wavs/argentine_mismatch_declarative-narrow-focus_La-nina-lava-el-plato.wav,./stim/wavs/castilian_mismatch_declarative-narrow-focus_La-nina-lava-el-plato.wav,./stim/wavs/chilean_mismatch_declarative-narrow-focus_La-nina-lava-el-plato.wav,./stim/wavs/cuban_mismatch_declarative-narrow-focus_La-nina-lava-el-plato.wav,./stim/wavs/mexican_mismatch_declarative-narrow-focus_La-nina-lava-el-plato.wav,./stim/wavs/peruvian_mismatch_declarative-narrow-focus_La-nina-lava-el-plato.wav,./stim/wavs/puertorican_mismatch_declarative-narrow-focus_La-nina-lava-el-plato.wav,,,,,,,,,,,,,,,,,,,,,,,,,,,,,,,,,,,,,,,,,,,,,,,,,,,,,,,,
,,,,,,,600b0f7fa045ed0f806f01e2,605b45a4d25f287719a41696,605cec9a119b0f1124ba49f3,I am not familiar with Spanish,Northeast,13 or older,no,2021-03-25_16h04.12.878,empathy_intonation_perc,2020.2.10,MacIntel,60,,,,,,,,,,1,cuban,1,1,1.632085,0,53,53,16,1,17,./stim/wavs/andalusian_match_interrogative-partial-wh_Cuando-bebia-el-vino.wav,./stim/wavs/argentine_match_interrogative-partial-wh_Cuando-bebia-el-vino.wav,./stim/wavs/castilian_match_interrogative-partial-wh_Cuando-bebia-el-vino.wav,./stim/wavs/chilean_match_interrogative-partial-wh_Cuando-bebia-el-vino.wav,./stim/wavs/cuban_match_interrogative-partial-wh_Cuando-bebia-el-vino.wav,./stim/wavs/mexican_match_interrogative-partial-wh_Cuando-bebia-el-vino.wav,./stim/wavs/peruvian_match_interrogative-partial-wh_Cuando-bebia-el-vino.wav,./stim/wavs/puertorican_match_interrogative-partial-wh_Cuando-bebia-el-vino.wav,,,,,,,,,,,,,,,,,,,,,,,,,,,,,,,,,,,,,,,,,,,,,,,,,,,,,,,,
,,,,,,,600b0f7fa045ed0f806f01e2,605b45a4d25f287719a41696,605cec9a119b0f1124ba49f3,I am not familiar with Spanish,Northeast,13 or older,no,2021-03-25_16h04.12.878,empathy_intonation_perc,2020.2.10,MacIntel,60,,,,,,,,,,1,castilian,1,1,1.688165,0,54,54,58,1,59,./stim/wavs/andalusian_mismatch_interrogative-total-yn_El-nino-oye-el-rio.wav,./stim/wavs/argentine_mismatch_interrogative-total-yn_El-nino-oye-el-rio.wav,./stim/wavs/castilian_mismatch_interrogative-total-yn_El-nino-oye-el-rio.wav,./stim/wavs/chilean_mismatch_interrogative-total-yn_El-nino-oye-el-rio.wav,./stim/wavs/cuban_mismatch_interrogative-total-yn_El-nino-oye-el-rio.wav,./stim/wavs/mexican_mismatch_interrogative-total-yn_El-nino-oye-el-rio.wav,./stim/wavs/peruvian_mismatch_interrogative-total-yn_El-nino-oye-el-rio.wav,./stim/wavs/puertorican_mismatch_interrogative-total-yn_El-nino-oye-el-rio.wav,,,,,,,,,,,,,,,,,,,,,,,,,,,,,,,,,,,,,,,,,,,,,,,,,,,,,,,,
,,,,,,,600b0f7fa045ed0f806f01e2,605b45a4d25f287719a41696,605cec9a119b0f1124ba49f3,I am not familiar with Spanish,Northeast,13 or older,no,2021-03-25_16h04.12.878,empathy_intonation_perc,2020.2.10,MacIntel,60,,,,,,,,,,1,mexican,1,1,1.633795,0,55,55,59,1,60,./stim/wavs/andalusian_mismatch_interrogative-total-yn_La-maestra-vive-en-Paris.wav,./stim/wavs/argentine_mismatch_interrogative-total-yn_La-maestra-vive-en-Paris.wav,./stim/wavs/castilian_mismatch_interrogative-total-yn_La-maestra-vive-en-Paris.wav,./stim/wavs/chilean_mismatch_interrogative-total-yn_La-maestra-vive-en-Paris.wav,./stim/wavs/cuban_mismatch_interrogative-total-yn_La-maestra-vive-en-Paris.wav,./stim/wavs/mexican_mismatch_interrogative-total-yn_La-maestra-vive-en-Paris.wav,./stim/wavs/peruvian_mismatch_interrogative-total-yn_La-maestra-vive-en-Paris.wav,./stim/wavs/puertorican_mismatch_interrogative-total-yn_La-maestra-vive-en-Paris.wav,,,,,,,,,,,,,,,,,,,,,,,,,,,,,,,,,,,,,,,,,,,,,,,,,,,,,,,,
,,,,,,,600b0f7fa045ed0f806f01e2,605b45a4d25f287719a41696,605cec9a119b0f1124ba49f3,I am not familiar with Spanish,Northeast,13 or older,no,2021-03-25_16h04.12.878,empathy_intonation_perc,2020.2.10,MacIntel,60,,,,,,,,,,1,cuban,0,0,1.70408,0,56,56,18,1,19,./stim/wavs/andalusian_match_interrogative-partial-wh_Cuando-lleva-el-abrigo.wav,./stim/wavs/argentine_match_interrogative-partial-wh_Cuando-lleva-el-abrigo.wav,./stim/wavs/castilian_match_interrogative-partial-wh_Cuando-lleva-el-abrigo.wav,./stim/wavs/chilean_match_interrogative-partial-wh_Cuando-lleva-el-abrigo.wav,./stim/wavs/cuban_match_interrogative-partial-wh_Cuando-lleva-el-abrigo.wav,./stim/wavs/mexican_match_interrogative-partial-wh_Cuando-lleva-el-abrigo.wav,./stim/wavs/peruvian_match_interrogative-partial-wh_Cuando-lleva-el-abrigo.wav,./stim/wavs/puertorican_match_interrogative-partial-wh_Cuando-lleva-el-abrigo.wav,,,,,,,,,,,,,,,,,,,,,,,,,,,,,,,,,,,,,,,,,,,,,,,,,,,,,,,,
,,,,,,,600b0f7fa045ed0f806f01e2,605b45a4d25f287719a41696,605cec9a119b0f1124ba49f3,I am not familiar with Spanish,Northeast,13 or older,no,2021-03-25_16h04.12.878,empathy_intonation_perc,2020.2.10,MacIntel,60,,,,,,,,,,0,mexican,0,1,1.590505,0,57,57,43,1,44,./stim/wavs/andalusian_mismatch_declarative-narrow-focus_La-maestra-vive-en-Paris.wav,./stim/wavs/argentine_mismatch_declarative-narrow-focus_La-maestra-vive-en-Paris.wav,./stim/wavs/castilian_mismatch_declarative-narrow-focus_La-maestra-vive-en-Paris.wav,./stim/wavs/chilean_mismatch_declarative-narrow-focus_La-maestra-vive-en-Paris.wav,./stim/wavs/cuban_mismatch_declarative-narrow-focus_La-maestra-vive-en-Paris.wav,./stim/wavs/mexican_mismatch_declarative-narrow-focus_La-maestra-vive-en-Paris.wav,./stim/wavs/peruvian_mismatch_declarative-narrow-focus_La-maestra-vive-en-Paris.wav,./stim/wavs/puertorican_mismatch_declarative-narrow-focus_La-maestra-vive-en-Paris.wav,,,,,,,,,,,,,,,,,,,,,,,,,,,,,,,,,,,,,,,,,,,,,,,,,,,,,,,,
,,,,,,,600b0f7fa045ed0f806f01e2,605b45a4d25f287719a41696,605cec9a119b0f1124ba49f3,I am not familiar with Spanish,Northeast,13 or older,no,2021-03-25_16h04.12.878,empathy_intonation_perc,2020.2.10,MacIntel,60,,,,,,,,,,0,castilian,0,1,1.590165,0,58,58,11,1,12,./stim/wavs/andalusian_match_declarative-narrow-focus_Emilio-ama-la-marcha.wav,./stim/wavs/argentine_match_declarative-narrow-focus_Emilio-ama-la-marcha.wav,./stim/wavs/castilian_match_declarative-narrow-focus_Emilio-ama-la-marcha.wav,./stim/wavs/chilean_match_declarative-narrow-focus_Emilio-ama-la-marcha.wav,./stim/wavs/cuban_match_declarative-narrow-focus_Emilio-ama-la-marcha.wav,./stim/wavs/mexican_match_declarative-narrow-focus_Emilio-ama-la-marcha.wav,./stim/wavs/peruvian_match_declarative-narrow-focus_Emilio-ama-la-marcha.wav,./stim/wavs/puertorican_match_declarative-narrow-focus_Emilio-ama-la-marcha.wav,,,,,,,,,,,,,,,,,,,,,,,,,,,,,,,,,,,,,,,,,,,,,,,,,,,,,,,,
,,,,,,,600b0f7fa045ed0f806f01e2,605b45a4d25f287719a41696,605cec9a119b0f1124ba49f3,I am not familiar with Spanish,Northeast,13 or older,no,2021-03-25_16h04.12.878,empathy_intonation_perc,2020.2.10,MacIntel,60,,,,,,,,,,1,argentine,0,0,1.725045,0,59,59,21,1,22,./stim/wavs/andalusian_match_interrogative-partial-wh_Por-que-ama-la-navidad.wav,./stim/wavs/argentine_match_interrogative-partial-wh_Por-que-ama-la-navidad.wav,./stim/wavs/castilian_match_interrogative-partial-wh_Por-que-ama-la-navidad.wav,./stim/wavs/chilean_match_interrogative-partial-wh_Por-que-ama-la-navidad.wav,./stim/wavs/cuban_match_interrogative-partial-wh_Por-que-ama-la-navidad.wav,./stim/wavs/mexican_match_interrogative-partial-wh_Por-que-ama-la-navidad.wav,./stim/wavs/peruvian_match_interrogative-partial-wh_Por-que-ama-la-navidad.wav,./stim/wavs/puertorican_match_interrogative-partial-wh_Por-que-ama-la-navidad.wav,,,,,,,,,,,,,,,,,,,,,,,,,,,,,,,,,,,,,,,,,,,,,,,,,,,,,,,,
,,,,,,,600b0f7fa045ed0f806f01e2,605b45a4d25f287719a41696,605cec9a119b0f1124ba49f3,I am not familiar with Spanish,Northeast,13 or older,no,2021-03-25_16h04.12.878,empathy_intonation_perc,2020.2.10,MacIntel,60,,,,,,,,,,0,chilean,0,1,1.820835,0,60,60,0,1,1,./stim/wavs/andalusian_match_declarative-broad-focus_Ana-lleva-el-abrigo.wav,./stim/wavs/argentine_match_declarative-broad-focus_Ana-lleva-el-abrigo.wav,./stim/wavs/castilian_match_declarative-broad-focus_Ana-lleva-el-abrigo.wav,./stim/wavs/chilean_match_declarative-broad-focus_Ana-lleva-el-abrigo.wav,./stim/wavs/cuban_match_declarative-broad-focus_Ana-lleva-el-abrigo.wav,./stim/wavs/mexican_match_declarative-broad-focus_Ana-lleva-el-abrigo.wav,./stim/wavs/peruvian_match_declarative-broad-focus_Ana-lleva-el-abrigo.wav,./stim/wavs/puertorican_match_declarative-broad-focus_Ana-lleva-el-abrigo.wav,,,,,,,,,,,,,,,,,,,,,,,,,,,,,,,,,,,,,,,,,,,,,,,,,,,,,,,,
,,,,,,,600b0f7fa045ed0f806f01e2,605b45a4d25f287719a41696,605cec9a119b0f1124ba49f3,I am not familiar with Spanish,Northeast,13 or older,no,2021-03-25_16h04.12.878,empathy_intonation_perc,2020.2.10,MacIntel,60,,,,,,,,,,0,argentine,0,1,1.57013,0,61,61,15,1,16,./stim/wavs/andalusian_match_declarative-narrow-focus_Marta-abre-el-regalo.wav,./stim/wavs/argentine_match_declarative-narrow-focus_Marta-abre-el-regalo.wav,./stim/wavs/castilian_match_declarative-narrow-focus_Marta-abre-el-regalo.wav,./stim/wavs/chilean_match_declarative-narrow-focus_Marta-abre-el-regalo.wav,./stim/wavs/cuban_match_declarative-narrow-focus_Marta-abre-el-regalo.wav,./stim/wavs/mexican_match_declarative-narrow-focus_Marta-abre-el-regalo.wav,./stim/wavs/peruvian_match_declarative-narrow-focus_Marta-abre-el-regalo.wav,./stim/wavs/puertorican_match_declarative-narrow-focus_Marta-abre-el-regalo.wav,,,,,,,,,,,,,,,,,,,,,,,,,,,,,,,,,,,,,,,,,,,,,,,,,,,,,,,,
,,,,,,,600b0f7fa045ed0f806f01e2,605b45a4d25f287719a41696,605cec9a119b0f1124ba49f3,I am not familiar with Spanish,Northeast,13 or older,no,2021-03-25_16h04.12.878,empathy_intonation_perc,2020.2.10,MacIntel,60,,,,,,,,,,0,mexican,0,1,1.419415,0,62,62,46,1,47,./stim/wavs/andalusian_mismatch_declarative-narrow-focus_Mi-novio-viene-del-lago.wav,./stim/wavs/argentine_mismatch_declarative-narrow-focus_Mi-novio-viene-del-lago.wav,./stim/wavs/castilian_mismatch_declarative-narrow-focus_Mi-novio-viene-del-lago.wav,./stim/wavs/chilean_mismatch_declarative-narrow-focus_Mi-novio-viene-del-lago.wav,./stim/wavs/cuban_mismatch_declarative-narrow-focus_Mi-novio-viene-del-lago.wav,./stim/wavs/mexican_mismatch_declarative-narrow-focus_Mi-novio-viene-del-lago.wav,./stim/wavs/peruvian_mismatch_declarative-narrow-focus_Mi-novio-viene-del-lago.wav,./stim/wavs/puertorican_mismatch_declarative-narrow-focus_Mi-novio-viene-del-lago.wav,,,,,,,,,,,,,,,,,,,,,,,,,,,,,,,,,,,,,,,,,,,,,,,,,,,,,,,,
,,,,,,,600b0f7fa045ed0f806f01e2,605b45a4d25f287719a41696,605cec9a119b0f1124ba49f3,I am not familiar with Spanish,Northeast,13 or older,no,2021-03-25_16h04.12.878,empathy_intonation_perc,2020.2.10,MacIntel,60,,,,,,,,,,0,peruvian,0,1,1.673,0,63,63,4,1,5,./stim/wavs/andalusian_match_declarative-broad-focus_Manuela-vende-el-carro.wav,./stim/wavs/argentine_match_declarative-broad-focus_Manuela-vende-el-carro.wav,./stim/wavs/castilian_match_declarative-broad-focus_Manuela-vende-el-carro.wav,./stim/wavs/chilean_match_declarative-broad-focus_Manuela-vende-el-carro.wav,./stim/wavs/cuban_match_declarative-broad-focus_Manuela-vende-el-carro.wav,./stim/wavs/mexican_match_declarative-broad-focus_Manuela-vende-el-carro.wav,./stim/wavs/peruvian_match_declarative-broad-focus_Manuela-vende-el-carro.wav,./stim/wavs/puertorican_match_declarative-broad-focus_Manuela-vende-el-carro.wav,,,,,,,,,,,,,,,,,,,,,,,,,,,,,,,,,,,,,,,,,,,,,,,,,,,,,,,,
,,,,,,,600b0f7fa045ed0f806f01e2,605b45a4d25f287719a41696,605cec9a119b0f1124ba49f3,I am not familiar with Spanish,Northeast,13 or older,no,2021-03-25_16h04.12.878,empathy_intonation_perc,2020.2.10,MacIntel,60,,,,,,,,,,,,,,,,,,,,,,,,,,,,,h,1,1.75337,0,0,0,0,1,,,,,,,,,,,,,,,,,,,,,,,,,,,,,,,,,,,,,,,,,,,,,,,,
,,,,,"Great! Now we will move on. The next task consists of about 60 trials, in each of which you will see a string of letters. 
  
  Your task is to decide whether this is a real Spanish word or not.",(press the spacebar to continue),600b0f7fa045ed0f806f01e2,605b45a4d25f287719a41696,605cec9a119b0f1124ba49f3,I am not familiar with Spanish,Northeast,13 or older,no,2021-03-25_16h04.12.878,empathy_intonation_perc,2020.2.10,MacIntel,60,,,,,,,,,,,,,,,,,,,,,,,,,,,,,,,,,,,,,0,0,0,0,1,,,,,,,,,,,,,,,,,,,,,,,,,,,,,,,,,,,,,,,,,,,
,,,,,"If you think it is an existing Spanish word, you type '1' (for 'REAL'), and if you think it is not an existing Spanish word, you type '0' (for 'FAKE').",(press the spacebar to continue),600b0f7fa045ed0f806f01e2,605b45a4d25f287719a41696,605cec9a119b0f1124ba49f3,I am not familiar with Spanish,Northeast,13 or older,no,2021-03-25_16h04.12.878,empathy_intonation_perc,2020.2.10,MacIntel,60,,,,,,,,,,,,,,,,,,,,,,,,,,,,,,,,,,,,,0,1,1,1,1,,,,,,,,,,,,,,,,,,,,,,,,,,,,,,,,,,,,,,,,,,,
,,,,,"If you are sure that the word exists, even though you dont know its exact meaning, you may still respond '1' (REAL). 
  
  But if you are not sure if it is an existing word, you should respond '0' (FAKE).
  
  Let's do a practice round...",(press the spacebar to continue),600b0f7fa045ed0f806f01e2,605b45a4d25f287719a41696,605cec9a119b0f1124ba49f3,I am not familiar with Spanish,Northeast,13 or older,no,2021-03-25_16h04.12.878,empathy_intonation_perc,2020.2.10,MacIntel,60,,,,,,,,,,,,,,,,,,,,,,,,,,,,,,,,,,,,,0,2,2,2,1,,,,,,,,,,,,,,,,,,,,,,,,,,,,,,,,,,,,,,,,,,,
,,,,,,,600b0f7fa045ed0f806f01e2,605b45a4d25f287719a41696,605cec9a119b0f1124ba49f3,I am not familiar with Spanish,Northeast,13 or older,no,2021-03-25_16h04.12.878,empathy_intonation_perc,2020.2.10,MacIntel,60,,,,,,,,,,0,,,,,,,,,,,,,,,,,,,,,,,,,,,,,,,,1,0,1.15875,0,0,0,0,1,0,depiste,REAL,FAKE,,,,,,,,,,,,,,,,,,,,,,,,,,,,,,,
,,,,,,,600b0f7fa045ed0f806f01e2,605b45a4d25f287719a41696,605cec9a119b0f1124ba49f3,I am not familiar with Spanish,Northeast,13 or older,no,2021-03-25_16h04.12.878,empathy_intonation_perc,2020.2.10,MacIntel,60,,,,,,,,,,1,,,,,,,,,,,,,,,,,,,,,,,,,,,,,,,,1,1,0.788585,0,1,1,1,1,0,s,REAL,FAKE,,,,,,,,,,,,,,,,,,,,,,,,,,,,,,,
,,,,,,,600b0f7fa045ed0f806f01e2,605b45a4d25f287719a41696,605cec9a119b0f1124ba49f3,I am not familiar with Spanish,Northeast,13 or older,no,2021-03-25_16h04.12.878,empathy_intonation_perc,2020.2.10,MacIntel,60,,,,,,,,,,0,,,,,,,,,,,,,,,,,,,,,,,,,,,,,,,,0,1,1.265165,0,2,2,2,1,0,con,REAL,FAKE,,,,,,,,,,,,,,,,,,,,,,,,,,,,,,,
,,,,,,,600b0f7fa045ed0f806f01e2,605b45a4d25f287719a41696,605cec9a119b0f1124ba49f3,I am not familiar with Spanish,Northeast,13 or older,no,2021-03-25_16h04.12.878,empathy_intonation_perc,2020.2.10,MacIntel,60,,,,,,,,,,0,,,,,,,,,,,,,,,,,,,,,,,,,,,,,,,,1,0,0.9485,0,3,3,3,1,0,calpar,REAL,FAKE,,,,,,,,,,,,,,,,,,,,,,,,,,,,,,,
,,,,,,,600b0f7fa045ed0f806f01e2,605b45a4d25f287719a41696,605cec9a119b0f1124ba49f3,I am not familiar with Spanish,Northeast,13 or older,no,2021-03-25_16h04.12.878,empathy_intonation_perc,2020.2.10,MacIntel,60,,,,,,,,,,0,,,,,,,,,,,,,,,,,,,,,,,,,,,,,,,,1,0,0.933,0,4,4,4,1,0,joten,REAL,FAKE,,,,,,,,,,,,,,,,,,,,,,,,,,,,,,,
,,,,,,,600b0f7fa045ed0f806f01e2,605b45a4d25f287719a41696,605cec9a119b0f1124ba49f3,I am not familiar with Spanish,Northeast,13 or older,no,2021-03-25_16h04.12.878,empathy_intonation_perc,2020.2.10,MacIntel,60,,,,,,,,,,1,,,,,,,,,,,,,,,,,,,,,,,,,,,,,,,,0,0,0.9535,0,5,5,5,1,0,sacapuntas,REAL,FAKE,,,,,,,,,,,,,,,,,,,,,,,,,,,,,,,
,,,,,,,600b0f7fa045ed0f806f01e2,605b45a4d25f287719a41696,605cec9a119b0f1124ba49f3,I am not familiar with Spanish,Northeast,13 or older,no,2021-03-25_16h04.12.878,empathy_intonation_perc,2020.2.10,MacIntel,60,,,,,,,,,,0,,,,,,,,,,,,,,,,,,,,,,,,,,,,,,,,0,1,1.25625,0,6,6,6,1,0,priba,REAL,FAKE,,,,,,,,,,,,,,,,,,,,,,,,,,,,,,,
,,,,,,,600b0f7fa045ed0f806f01e2,605b45a4d25f287719a41696,605cec9a119b0f1124ba49f3,I am not familiar with Spanish,Northeast,13 or older,no,2021-03-25_16h04.12.878,empathy_intonation_perc,2020.2.10,MacIntel,60,,,,,,,,,,0,,,,,,,,,,,,,,,,,,,,,,,,,,,,,,,,0,1,0.74017,0,7,7,7,1,0,pelasula,REAL,FAKE,,,,,,,,,,,,,,,,,,,,,,,,,,,,,,,
,,,,,,,600b0f7fa045ed0f806f01e2,605b45a4d25f287719a41696,605cec9a119b0f1124ba49f3,I am not familiar with Spanish,Northeast,13 or older,no,2021-03-25_16h04.12.878,empathy_intonation_perc,2020.2.10,MacIntel,60,,,,,,,,,,1,,,,,,,,,,,,,,,,,,,,,,,,,,,,,,,,1,1,0.58175,0,8,8,8,1,0,bien,REAL,FAKE,,,,,,,,,,,,,,,,,,,,,,,,,,,,,,,
,,,,,,,600b0f7fa045ed0f806f01e2,605b45a4d25f287719a41696,605cec9a119b0f1124ba49f3,I am not familiar with Spanish,Northeast,13 or older,no,2021-03-25_16h04.12.878,empathy_intonation_perc,2020.2.10,MacIntel,60,,,,,,,,,,1,,,,,,,,,,,,,,,,,,,,,,,,,,,,,,,,1,1,0.758165,0,9,9,9,1,0,casa,REAL,FAKE,,,,,,,,,,,,,,,,,,,,,,,,,,,,,,,
,,,,,,,600b0f7fa045ed0f806f01e2,605b45a4d25f287719a41696,605cec9a119b0f1124ba49f3,I am not familiar with Spanish,Northeast,13 or older,no,2021-03-25_16h04.12.878,empathy_intonation_perc,2020.2.10,MacIntel,60,,,,,,,,,,0,,,,,,,,,,,,,,,,,,,,,,,,,,,,,,,,0,1,0.857915,0,10,10,10,1,0,lejo,REAL,FAKE,,,,,,,,,,,,,,,,,,,,,,,,,,,,,,,
,,,,,,,600b0f7fa045ed0f806f01e2,605b45a4d25f287719a41696,605cec9a119b0f1124ba49f3,I am not familiar with Spanish,Northeast,13 or older,no,2021-03-25_16h04.12.878,empathy_intonation_perc,2020.2.10,MacIntel,60,,,,,,,,,,0,,,,,,,,,,,,,,,,,,,,,,,,,,,,,,,,1,0,0.830585,0,11,11,11,1,0,pretantas,REAL,FAKE,,,,,,,,,,,,,,,,,,,,,,,,,,,,,,,
,,,,,,,600b0f7fa045ed0f806f01e2,605b45a4d25f287719a41696,605cec9a119b0f1124ba49f3,I am not familiar with Spanish,Northeast,13 or older,no,2021-03-25_16h04.12.878,empathy_intonation_perc,2020.2.10,MacIntel,60,,,,,,,,,,1,,,,,,,,,,,,,,,,,,,,,,,,,,,,,,,,,,,,,,,,49,ganar,,,0,0,0.49112,0,0,0,48,1,REAL,FAKE,,,,,,,,,,,,,,,,,,,,,
,,,,,,,600b0f7fa045ed0f806f01e2,605b45a4d25f287719a41696,605cec9a119b0f1124ba49f3,I am not familiar with Spanish,Northeast,13 or older,no,2021-03-25_16h04.12.878,empathy_intonation_perc,2020.2.10,MacIntel,60,,,,,,,,,,1,,,,,,,,,,,,,,,,,,,,,,,,,,,,,,,,,,,,,,,,57,tacao,,,1,1,0.53504,0,1,1,56,1,REAL,FAKE,,,,,,,,,,,,,,,,,,,,,
,,,,,,,600b0f7fa045ed0f806f01e2,605b45a4d25f287719a41696,605cec9a119b0f1124ba49f3,I am not familiar with Spanish,Northeast,13 or older,no,2021-03-25_16h04.12.878,empathy_intonation_perc,2020.2.10,MacIntel,60,,,,,,,,,,1,,,,,,,,,,,,,,,,,,,,,,,,,,,,,,,,,,,,,,,,20,vido,,,1,1,0.52904,0,2,2,19,1,REAL,FAKE,,,,,,,,,,,,,,,,,,,,,
,,,,,,,600b0f7fa045ed0f806f01e2,605b45a4d25f287719a41696,605cec9a119b0f1124ba49f3,I am not familiar with Spanish,Northeast,13 or older,no,2021-03-25_16h04.12.878,empathy_intonation_perc,2020.2.10,MacIntel,60,,,,,,,,,,0,,,,,,,,,,,,,,,,,,,,,,,,,,,,,,,,,,,,,,,,8,cadea,,,0,1,0.564415,0,3,3,7,1,REAL,FAKE,,,,,,,,,,,,,,,,,,,,,
,,,,,,,600b0f7fa045ed0f806f01e2,605b45a4d25f287719a41696,605cec9a119b0f1124ba49f3,I am not familiar with Spanish,Northeast,13 or older,no,2021-03-25_16h04.12.878,empathy_intonation_perc,2020.2.10,MacIntel,60,,,,,,,,,,1,,,,,,,,,,,,,,,,,,,,,,,,,,,,,,,,,,,,,,,,54,fomentar,,,1,1,0.644295,0,4,4,53,1,REAL,FAKE,,,,,,,,,,,,,,,,,,,,,
,,,,,,,600b0f7fa045ed0f806f01e2,605b45a4d25f287719a41696,605cec9a119b0f1124ba49f3,I am not familiar with Spanish,Northeast,13 or older,no,2021-03-25_16h04.12.878,empathy_intonation_perc,2020.2.10,MacIntel,60,,,,,,,,,,1,,,,,,,,,,,,,,,,,,,,,,,,,,,,,,,,,,,,,,,,52,camisa,,,1,1,0.61433,0,5,5,51,1,REAL,FAKE,,,,,,,,,,,,,,,,,,,,,
,,,,,,,600b0f7fa045ed0f806f01e2,605b45a4d25f287719a41696,605cec9a119b0f1124ba49f3,I am not familiar with Spanish,Northeast,13 or older,no,2021-03-25_16h04.12.878,empathy_intonation_perc,2020.2.10,MacIntel,60,,,,,,,,,,1,,,,,,,,,,,,,,,,,,,,,,,,,,,,,,,,,,,,,,,,81,pozo,,,0,0,0.607375,0,6,6,80,1,REAL,FAKE,,,,,,,,,,,,,,,,,,,,,
,,,,,,,600b0f7fa045ed0f806f01e2,605b45a4d25f287719a41696,605cec9a119b0f1124ba49f3,I am not familiar with Spanish,Northeast,13 or older,no,2021-03-25_16h04.12.878,empathy_intonation_perc,2020.2.10,MacIntel,60,,,,,,,,,,1,,,,,,,,,,,,,,,,,,,,,,,,,,,,,,,,,,,,,,,,9,hacha,,,1,1,0.50704,0,7,7,8,1,REAL,FAKE,,,,,,,,,,,,,,,,,,,,,
,,,,,,,600b0f7fa045ed0f806f01e2,605b45a4d25f287719a41696,605cec9a119b0f1124ba49f3,I am not familiar with Spanish,Northeast,13 or older,no,2021-03-25_16h04.12.878,empathy_intonation_perc,2020.2.10,MacIntel,60,,,,,,,,,,1,,,,,,,,,,,,,,,,,,,,,,,,,,,,,,,,,,,,,,,,12,asesinato,,,1,1,0.88396,0,8,8,11,1,REAL,FAKE,,,,,,,,,,,,,,,,,,,,,
,,,,,,,600b0f7fa045ed0f806f01e2,605b45a4d25f287719a41696,605cec9a119b0f1124ba49f3,I am not familiar with Spanish,Northeast,13 or older,no,2021-03-25_16h04.12.878,empathy_intonation_perc,2020.2.10,MacIntel,60,,,,,,,,,,0,,,,,,,,,,,,,,,,,,,,,,,,,,,,,,,,,,,,,,,,29,decar,,,1,0,0.933705,0,9,9,28,1,REAL,FAKE,,,,,,,,,,,,,,,,,,,,,
,,,,,,,600b0f7fa045ed0f806f01e2,605b45a4d25f287719a41696,605cec9a119b0f1124ba49f3,I am not familiar with Spanish,Northeast,13 or older,no,2021-03-25_16h04.12.878,empathy_intonation_perc,2020.2.10,MacIntel,60,,,,,,,,,,1,,,,,,,,,,,,,,,,,,,,,,,,,,,,,,,,,,,,,,,,11,cenefa,,,0,0,0.54554,0,10,10,10,1,REAL,FAKE,,,,,,,,,,,,,,,,,,,,,
,,,,,,,600b0f7fa045ed0f806f01e2,605b45a4d25f287719a41696,605cec9a119b0f1124ba49f3,I am not familiar with Spanish,Northeast,13 or older,no,2021-03-25_16h04.12.878,empathy_intonation_perc,2020.2.10,MacIntel,60,,,,,,,,,,0,,,,,,,,,,,,,,,,,,,,,,,,,,,,,,,,,,,,,,,,35,rompido,,,1,0,0.80446,0,11,11,34,1,REAL,FAKE,,,,,,,,,,,,,,,,,,,,,
,,,,,,,600b0f7fa045ed0f806f01e2,605b45a4d25f287719a41696,605cec9a119b0f1124ba49f3,I am not familiar with Spanish,Northeast,13 or older,no,2021-03-25_16h04.12.878,empathy_intonation_perc,2020.2.10,MacIntel,60,,,,,,,,,,1,,,,,,,,,,,,,,,,,,,,,,,,,,,,,,,,,,,,,,,,13,helar,,,1,1,0.948,0,12,12,12,1,REAL,FAKE,,,,,,,,,,,,,,,,,,,,,
,,,,,,,600b0f7fa045ed0f806f01e2,605b45a4d25f287719a41696,605cec9a119b0f1124ba49f3,I am not familiar with Spanish,Northeast,13 or older,no,2021-03-25_16h04.12.878,empathy_intonation_perc,2020.2.10,MacIntel,60,,,,,,,,,,0,,,,,,,,,,,,,,,,,,,,,,,,,,,,,,,,,,,,,,,,87,grodo,,,0,1,0.61196,0,13,13,86,1,REAL,FAKE,,,,,,,,,,,,,,,,,,,,,
,,,,,,,600b0f7fa045ed0f806f01e2,605b45a4d25f287719a41696,605cec9a119b0f1124ba49f3,I am not familiar with Spanish,Northeast,13 or older,no,2021-03-25_16h04.12.878,empathy_intonation_perc,2020.2.10,MacIntel,60,,,,,,,,,,1,,,,,,,,,,,,,,,,,,,,,,,,,,,,,,,,,,,,,,,,88,acantilado,,,0,0,0.716995,0,14,14,87,1,REAL,FAKE,,,,,,,,,,,,,,,,,,,,,
,,,,,,,600b0f7fa045ed0f806f01e2,605b45a4d25f287719a41696,605cec9a119b0f1124ba49f3,I am not familiar with Spanish,Northeast,13 or older,no,2021-03-25_16h04.12.878,empathy_intonation_perc,2020.2.10,MacIntel,60,,,,,,,,,,1,,,,,,,,,,,,,,,,,,,,,,,,,,,,,,,,,,,,,,,,77,tiburn,,,1,1,0.529835,0,15,15,76,1,REAL,FAKE,,,,,,,,,,,,,,,,,,,,,
,,,,,,,600b0f7fa045ed0f806f01e2,605b45a4d25f287719a41696,605cec9a119b0f1124ba49f3,I am not familiar with Spanish,Northeast,13 or older,no,2021-03-25_16h04.12.878,empathy_intonation_perc,2020.2.10,MacIntel,60,,,,,,,,,,1,,,,,,,,,,,,,,,,,,,,,,,,,,,,,,,,,,,,,,,,41,rebuscar,,,1,1,0.68825,0,16,16,40,1,REAL,FAKE,,,,,,,,,,,,,,,,,,,,,
,,,,,,,600b0f7fa045ed0f806f01e2,605b45a4d25f287719a41696,605cec9a119b0f1124ba49f3,I am not familiar with Spanish,Northeast,13 or older,no,2021-03-25_16h04.12.878,empathy_intonation_perc,2020.2.10,MacIntel,60,,,,,,,,,,1,,,,,,,,,,,,,,,,,,,,,,,,,,,,,,,,,,,,,,,,31,pandilla,,,1,1,0.896,0,17,17,30,1,REAL,FAKE,,,,,,,,,,,,,,,,,,,,,
,,,,,,,600b0f7fa045ed0f806f01e2,605b45a4d25f287719a41696,605cec9a119b0f1124ba49f3,I am not familiar with Spanish,Northeast,13 or older,no,2021-03-25_16h04.12.878,empathy_intonation_perc,2020.2.10,MacIntel,60,,,,,,,,,,1,,,,,,,,,,,,,,,,,,,,,,,,,,,,,,,,,,,,,,,,62,flaco,,,0,0,0.73408,0,18,18,61,1,REAL,FAKE,,,,,,,,,,,,,,,,,,,,,
,,,,,,,600b0f7fa045ed0f806f01e2,605b45a4d25f287719a41696,605cec9a119b0f1124ba49f3,I am not familiar with Spanish,Northeast,13 or older,no,2021-03-25_16h04.12.878,empathy_intonation_perc,2020.2.10,MacIntel,60,,,,,,,,,,1,,,,,,,,,,,,,,,,,,,,,,,,,,,,,,,,,,,,,,,,85,lad,,,1,1,0.777915,0,19,19,84,1,REAL,FAKE,,,,,,,,,,,,,,,,,,,,,
,,,,,,,600b0f7fa045ed0f806f01e2,605b45a4d25f287719a41696,605cec9a119b0f1124ba49f3,I am not familiar with Spanish,Northeast,13 or older,no,2021-03-25_16h04.12.878,empathy_intonation_perc,2020.2.10,MacIntel,60,,,,,,,,,,1,,,,,,,,,,,,,,,,,,,,,,,,,,,,,,,,,,,,,,,,59,besar,,,0,0,0.76992,0,20,20,58,1,REAL,FAKE,,,,,,,,,,,,,,,,,,,,,
,,,,,,,600b0f7fa045ed0f806f01e2,605b45a4d25f287719a41696,605cec9a119b0f1124ba49f3,I am not familiar with Spanish,Northeast,13 or older,no,2021-03-25_16h04.12.878,empathy_intonation_perc,2020.2.10,MacIntel,60,,,,,,,,,,1,,,,,,,,,,,,,,,,,,,,,,,,,,,,,,,,,,,,,,,,43,canela,,,1,1,0.707665,0,21,21,42,1,REAL,FAKE,,,,,,,,,,,,,,,,,,,,,
,,,,,,,600b0f7fa045ed0f806f01e2,605b45a4d25f287719a41696,605cec9a119b0f1124ba49f3,I am not familiar with Spanish,Northeast,13 or older,no,2021-03-25_16h04.12.878,empathy_intonation_perc,2020.2.10,MacIntel,60,,,,,,,,,,0,,,,,,,,,,,,,,,,,,,,,,,,,,,,,,,,,,,,,,,,21,capillo,,,0,1,0.765085,0,22,22,20,1,REAL,FAKE,,,,,,,,,,,,,,,,,,,,,
,,,,,,,600b0f7fa045ed0f806f01e2,605b45a4d25f287719a41696,605cec9a119b0f1124ba49f3,I am not familiar with Spanish,Northeast,13 or older,no,2021-03-25_16h04.12.878,empathy_intonation_perc,2020.2.10,MacIntel,60,,,,,,,,,,1,,,,,,,,,,,,,,,,,,,,,,,,,,,,,,,,,,,,,,,,71,polvoriento,,,1,1,0.73696,0,23,23,70,1,REAL,FAKE,,,,,,,,,,,,,,,,,,,,,
,,,,,,,600b0f7fa045ed0f806f01e2,605b45a4d25f287719a41696,605cec9a119b0f1124ba49f3,I am not familiar with Spanish,Northeast,13 or older,no,2021-03-25_16h04.12.878,empathy_intonation_perc,2020.2.10,MacIntel,60,,,,,,,,,,0,,,,,,,,,,,,,,,,,,,,,,,,,,,,,,,,,,,,,,,,70,temblo,,,1,0,0.597835,0,24,24,69,1,REAL,FAKE,,,,,,,,,,,,,,,,,,,,,
,,,,,,,600b0f7fa045ed0f806f01e2,605b45a4d25f287719a41696,605cec9a119b0f1124ba49f3,I am not familiar with Spanish,Northeast,13 or older,no,2021-03-25_16h04.12.878,empathy_intonation_perc,2020.2.10,MacIntel,60,,,,,,,,,,1,,,,,,,,,,,,,,,,,,,,,,,,,,,,,,,,,,,,,,,,7,psimo,,,1,1,0.68308,0,25,25,6,1,REAL,FAKE,,,,,,,,,,,,,,,,,,,,,
,,,,,,,600b0f7fa045ed0f806f01e2,605b45a4d25f287719a41696,605cec9a119b0f1124ba49f3,I am not familiar with Spanish,Northeast,13 or older,no,2021-03-25_16h04.12.878,empathy_intonation_perc,2020.2.10,MacIntel,60,,,,,,,,,,1,,,,,,,,,,,,,,,,,,,,,,,,,,,,,,,,,,,,,,,,73,hervidor,,,0,0,0.55029,0,26,26,72,1,REAL,FAKE,,,,,,,,,,,,,,,,,,,,,
,,,,,,,600b0f7fa045ed0f806f01e2,605b45a4d25f287719a41696,605cec9a119b0f1124ba49f3,I am not familiar with Spanish,Northeast,13 or older,no,2021-03-25_16h04.12.878,empathy_intonation_perc,2020.2.10,MacIntel,60,,,,,,,,,,1,,,,,,,,,,,,,,,,,,,,,,,,,,,,,,,,,,,,,,,,83,guante,,,1,1,0.532005,0,27,27,82,1,REAL,FAKE,,,,,,,,,,,,,,,,,,,,,
,,,,,,,600b0f7fa045ed0f806f01e2,605b45a4d25f287719a41696,605cec9a119b0f1124ba49f3,I am not familiar with Spanish,Northeast,13 or older,no,2021-03-25_16h04.12.878,empathy_intonation_perc,2020.2.10,MacIntel,60,,,,,,,,,,1,,,,,,,,,,,,,,,,,,,,,,,,,,,,,,,,,,,,,,,,67,cabello,,,1,1,0.873585,0,28,28,66,1,REAL,FAKE,,,,,,,,,,,,,,,,,,,,,
,,,,,,,600b0f7fa045ed0f806f01e2,605b45a4d25f287719a41696,605cec9a119b0f1124ba49f3,I am not familiar with Spanish,Northeast,13 or older,no,2021-03-25_16h04.12.878,empathy_intonation_perc,2020.2.10,MacIntel,60,,,,,,,,,,1,,,,,,,,,,,,,,,,,,,,,,,,,,,,,,,,,,,,,,,,78,frondoso,,,1,1,0.93121,0,29,29,77,1,REAL,FAKE,,,,,,,,,,,,,,,,,,,,,
,,,,,,,600b0f7fa045ed0f806f01e2,605b45a4d25f287719a41696,605cec9a119b0f1124ba49f3,I am not familiar with Spanish,Northeast,13 or older,no,2021-03-25_16h04.12.878,empathy_intonation_perc,2020.2.10,MacIntel,60,,,,,,,,,,1,,,,,,,,,,,,,,,,,,,,,,,,,,,,,,,,,,,,,,,,26,secuestro,,,1,1,1.218625,0,30,30,25,1,REAL,FAKE,,,,,,,,,,,,,,,,,,,,,
,,,,,,,600b0f7fa045ed0f806f01e2,605b45a4d25f287719a41696,605cec9a119b0f1124ba49f3,I am not familiar with Spanish,Northeast,13 or older,no,2021-03-25_16h04.12.878,empathy_intonation_perc,2020.2.10,MacIntel,60,,,,,,,,,,0,,,,,,,,,,,,,,,,,,,,,,,,,,,,,,,,,,,,,,,,32,fatacidad,,,0,1,0.91637,0,31,31,31,1,REAL,FAKE,,,,,,,,,,,,,,,,,,,,,
,,,,,,,600b0f7fa045ed0f806f01e2,605b45a4d25f287719a41696,605cec9a119b0f1124ba49f3,I am not familiar with Spanish,Northeast,13 or older,no,2021-03-25_16h04.12.878,empathy_intonation_perc,2020.2.10,MacIntel,60,,,,,,,,,,0,,,,,,,,,,,,,,,,,,,,,,,,,,,,,,,,,,,,,,,,50,flamida,,,0,1,1.23325,0,32,32,49,1,REAL,FAKE,,,,,,,,,,,,,,,,,,,,,
,,,,,,,600b0f7fa045ed0f806f01e2,605b45a4d25f287719a41696,605cec9a119b0f1124ba49f3,I am not familiar with Spanish,Northeast,13 or older,no,2021-03-25_16h04.12.878,empathy_intonation_perc,2020.2.10,MacIntel,60,,,,,,,,,,1,,,,,,,,,,,,,,,,,,,,,,,,,,,,,,,,,,,,,,,,28,merodear,,,0,0,0.778955,0,33,33,27,1,REAL,FAKE,,,,,,,,,,,,,,,,,,,,,
,,,,,,,600b0f7fa045ed0f806f01e2,605b45a4d25f287719a41696,605cec9a119b0f1124ba49f3,I am not familiar with Spanish,Northeast,13 or older,no,2021-03-25_16h04.12.878,empathy_intonation_perc,2020.2.10,MacIntel,60,,,,,,,,,,0,,,,,,,,,,,,,,,,,,,,,,,,,,,,,,,,,,,,,,,,84,escuto,,,1,0,0.752545,0,34,34,83,1,REAL,FAKE,,,,,,,,,,,,,,,,,,,,,
,,,,,,,600b0f7fa045ed0f806f01e2,605b45a4d25f287719a41696,605cec9a119b0f1124ba49f3,I am not familiar with Spanish,Northeast,13 or older,no,2021-03-25_16h04.12.878,empathy_intonation_perc,2020.2.10,MacIntel,60,,,,,,,,,,1,,,,,,,,,,,,,,,,,,,,,,,,,,,,,,,,,,,,,,,,89,prisa,,,1,1,0.71846,0,35,35,88,1,REAL,FAKE,,,,,,,,,,,,,,,,,,,,,
,,,,,,,600b0f7fa045ed0f806f01e2,605b45a4d25f287719a41696,605cec9a119b0f1124ba49f3,I am not familiar with Spanish,Northeast,13 or older,no,2021-03-25_16h04.12.878,empathy_intonation_perc,2020.2.10,MacIntel,60,,,,,,,,,,0,,,,,,,,,,,,,,,,,,,,,,,,,,,,,,,,,,,,,,,,79,tropaje,,,0,1,1.18258,0,36,36,78,1,REAL,FAKE,,,,,,,,,,,,,,,,,,,,,
,,,,,,,600b0f7fa045ed0f806f01e2,605b45a4d25f287719a41696,605cec9a119b0f1124ba49f3,I am not familiar with Spanish,Northeast,13 or older,no,2021-03-25_16h04.12.878,empathy_intonation_perc,2020.2.10,MacIntel,60,,,,,,,,,,1,,,,,,,,,,,,,,,,,,,,,,,,,,,,,,,,,,,,,,,,3,pulmones,,,1,1,1.224915,0,37,37,2,1,REAL,FAKE,,,,,,,,,,,,,,,,,,,,,
,,,,,,,600b0f7fa045ed0f806f01e2,605b45a4d25f287719a41696,605cec9a119b0f1124ba49f3,I am not familiar with Spanish,Northeast,13 or older,no,2021-03-25_16h04.12.878,empathy_intonation_perc,2020.2.10,MacIntel,60,,,,,,,,,,1,,,,,,,,,,,,,,,,,,,,,,,,,,,,,,,,,,,,,,,,48,ladrn,,,1,1,0.865545,0,38,38,47,1,REAL,FAKE,,,,,,,,,,,,,,,,,,,,,
,,,,,,,600b0f7fa045ed0f806f01e2,605b45a4d25f287719a41696,605cec9a119b0f1124ba49f3,I am not familiar with Spanish,Northeast,13 or older,no,2021-03-25_16h04.12.878,empathy_intonation_perc,2020.2.10,MacIntel,60,,,,,,,,,,1,,,,,,,,,,,,,,,,,,,,,,,,,,,,,,,,,,,,,,,,37,granuja,,,0,0,0.88762,0,39,39,36,1,REAL,FAKE,,,,,,,,,,,,,,,,,,,,,
,,,,,,,600b0f7fa045ed0f806f01e2,605b45a4d25f287719a41696,605cec9a119b0f1124ba49f3,I am not familiar with Spanish,Northeast,13 or older,no,2021-03-25_16h04.12.878,empathy_intonation_perc,2020.2.10,MacIntel,60,,,,,,,,,,1,,,,,,,,,,,,,,,,,,,,,,,,,,,,,,,,,,,,,,,,60,matar,,,1,1,0.586125,0,40,40,59,1,REAL,FAKE,,,,,,,,,,,,,,,,,,,,,
,,,,,,,600b0f7fa045ed0f806f01e2,605b45a4d25f287719a41696,605cec9a119b0f1124ba49f3,I am not familiar with Spanish,Northeast,13 or older,no,2021-03-25_16h04.12.878,empathy_intonation_perc,2020.2.10,MacIntel,60,,,,,,,,,,1,,,,,,,,,,,,,,,,,,,,,,,,,,,,,,,,,,,,,,,,76,atar,,,0,0,0.78392,0,41,41,75,1,REAL,FAKE,,,,,,,,,,,,,,,,,,,,,
,,,,,,,600b0f7fa045ed0f806f01e2,605b45a4d25f287719a41696,605cec9a119b0f1124ba49f3,I am not familiar with Spanish,Northeast,13 or older,no,2021-03-25_16h04.12.878,empathy_intonation_perc,2020.2.10,MacIntel,60,,,,,,,,,,0,,,,,,,,,,,,,,,,,,,,,,,,,,,,,,,,,,,,,,,,19,brecedad,,,0,1,0.833205,0,42,42,18,1,REAL,FAKE,,,,,,,,,,,,,,,,,,,,,
,,,,,,,600b0f7fa045ed0f806f01e2,605b45a4d25f287719a41696,605cec9a119b0f1124ba49f3,I am not familiar with Spanish,Northeast,13 or older,no,2021-03-25_16h04.12.878,empathy_intonation_perc,2020.2.10,MacIntel,60,,,,,,,,,,1,,,,,,,,,,,,,,,,,,,,,,,,,,,,,,,,,,,,,,,,34,aviso,,,1,1,0.834,0,43,43,33,1,REAL,FAKE,,,,,,,,,,,,,,,,,,,,,
,,,,,,,600b0f7fa045ed0f806f01e2,605b45a4d25f287719a41696,605cec9a119b0f1124ba49f3,I am not familiar with Spanish,Northeast,13 or older,no,2021-03-25_16h04.12.878,empathy_intonation_perc,2020.2.10,MacIntel,60,,,,,,,,,,1,,,,,,,,,,,,,,,,,,,,,,,,,,,,,,,,,,,,,,,,45,jilguero,,,0,0,1.11921,0,44,44,44,1,REAL,FAKE,,,,,,,,,,,,,,,,,,,,,
,,,,,,,600b0f7fa045ed0f806f01e2,605b45a4d25f287719a41696,605cec9a119b0f1124ba49f3,I am not familiar with Spanish,Northeast,13 or older,no,2021-03-25_16h04.12.878,empathy_intonation_perc,2020.2.10,MacIntel,60,,,,,,,,,,0,,,,,,,,,,,,,,,,,,,,,,,,,,,,,,,,,,,,,,,,10,antar,,,1,0,0.78229,0,45,45,9,1,REAL,FAKE,,,,,,,,,,,,,,,,,,,,,
,,,,,,,600b0f7fa045ed0f806f01e2,605b45a4d25f287719a41696,605cec9a119b0f1124ba49f3,I am not familiar with Spanish,Northeast,13 or older,no,2021-03-25_16h04.12.878,empathy_intonation_perc,2020.2.10,MacIntel,60,,,,,,,,,,1,,,,,,,,,,,,,,,,,,,,,,,,,,,,,,,,,,,,,,,,2,pellizcar,,,0,0,0.77379,0,46,46,1,1,REAL,FAKE,,,,,,,,,,,,,,,,,,,,,
,,,,,,,600b0f7fa045ed0f806f01e2,605b45a4d25f287719a41696,605cec9a119b0f1124ba49f3,I am not familiar with Spanish,Northeast,13 or older,no,2021-03-25_16h04.12.878,empathy_intonation_perc,2020.2.10,MacIntel,60,,,,,,,,,,0,,,,,,,,,,,,,,,,,,,,,,,,,,,,,,,,,,,,,,,,72,pemicin,,,0,1,0.93279,0,47,47,71,1,REAL,FAKE,,,,,,,,,,,,,,,,,,,,,
,,,,,,,600b0f7fa045ed0f806f01e2,605b45a4d25f287719a41696,605cec9a119b0f1124ba49f3,I am not familiar with Spanish,Northeast,13 or older,no,2021-03-25_16h04.12.878,empathy_intonation_perc,2020.2.10,MacIntel,60,,,,,,,,,,0,,,,,,,,,,,,,,,,,,,,,,,,,,,,,,,,,,,,,,,,42,cadallo,,,1,0,0.814125,0,48,48,41,1,REAL,FAKE,,,,,,,,,,,,,,,,,,,,,
,,,,,,,600b0f7fa045ed0f806f01e2,605b45a4d25f287719a41696,605cec9a119b0f1124ba49f3,I am not familiar with Spanish,Northeast,13 or older,no,2021-03-25_16h04.12.878,empathy_intonation_perc,2020.2.10,MacIntel,60,,,,,,,,,,1,,,,,,,,,,,,,,,,,,,,,,,,,,,,,,,,,,,,,,,,38,estornudar,,,1,1,1.13088,0,49,49,37,1,REAL,FAKE,,,,,,,,,,,,,,,,,,,,,
,,,,,,,600b0f7fa045ed0f806f01e2,605b45a4d25f287719a41696,605cec9a119b0f1124ba49f3,I am not familiar with Spanish,Northeast,13 or older,no,2021-03-25_16h04.12.878,empathy_intonation_perc,2020.2.10,MacIntel,60,,,,,,,,,,1,,,,,,,,,,,,,,,,,,,,,,,,,,,,,,,,,,,,,,,,5,zapato,,,1,1,0.65675,0,50,50,4,1,REAL,FAKE,,,,,,,,,,,,,,,,,,,,,
,,,,,,,600b0f7fa045ed0f806f01e2,605b45a4d25f287719a41696,605cec9a119b0f1124ba49f3,I am not familiar with Spanish,Northeast,13 or older,no,2021-03-25_16h04.12.878,empathy_intonation_perc,2020.2.10,MacIntel,60,,,,,,,,,,1,,,,,,,,,,,,,,,,,,,,,,,,,,,,,,,,,,,,,,,,44,cuchara,,,1,1,1.018255,0,51,51,43,1,REAL,FAKE,,,,,,,,,,,,,,,,,,,,,
,,,,,,,600b0f7fa045ed0f806f01e2,605b45a4d25f287719a41696,605cec9a119b0f1124ba49f3,I am not familiar with Spanish,Northeast,13 or older,no,2021-03-25_16h04.12.878,empathy_intonation_perc,2020.2.10,MacIntel,60,,,,,,,,,,0,,,,,,,,,,,,,,,,,,,,,,,,,,,,,,,,,,,,,,,,58,plaudir,,,0,1,0.780835,0,52,52,57,1,REAL,FAKE,,,,,,,,,,,,,,,,,,,,,
,,,,,,,600b0f7fa045ed0f806f01e2,605b45a4d25f287719a41696,605cec9a119b0f1124ba49f3,I am not familiar with Spanish,Northeast,13 or older,no,2021-03-25_16h04.12.878,empathy_intonation_perc,2020.2.10,MacIntel,60,,,,,,,,,,0,,,,,,,,,,,,,,,,,,,,,,,,,,,,,,,,,,,,,,,,17,floroso,,,0,1,0.632545,0,53,53,16,1,REAL,FAKE,,,,,,,,,,,,,,,,,,,,,
,,,,,,,600b0f7fa045ed0f806f01e2,605b45a4d25f287719a41696,605cec9a119b0f1124ba49f3,I am not familiar with Spanish,Northeast,13 or older,no,2021-03-25_16h04.12.878,empathy_intonation_perc,2020.2.10,MacIntel,60,,,,,,,,,,0,,,,,,,,,,,,,,,,,,,,,,,,,,,,,,,,,,,,,,,,82,empirador,,,1,0,0.705,0,54,54,81,1,REAL,FAKE,,,,,,,,,,,,,,,,,,,,,
,,,,,,,600b0f7fa045ed0f806f01e2,605b45a4d25f287719a41696,605cec9a119b0f1124ba49f3,I am not familiar with Spanish,Northeast,13 or older,no,2021-03-25_16h04.12.878,empathy_intonation_perc,2020.2.10,MacIntel,60,,,,,,,,,,1,,,,,,,,,,,,,,,,,,,,,,,,,,,,,,,,,,,,,,,,90,clavel,,,1,1,0.68425,0,55,55,89,1,REAL,FAKE,,,,,,,,,,,,,,,,,,,,,
,,,,,,,600b0f7fa045ed0f806f01e2,605b45a4d25f287719a41696,605cec9a119b0f1124ba49f3,I am not familiar with Spanish,Northeast,13 or older,no,2021-03-25_16h04.12.878,empathy_intonation_perc,2020.2.10,MacIntel,60,,,,,,,,,,1,,,,,,,,,,,,,,,,,,,,,,,,,,,,,,,,,,,,,,,,51,candado,,,0,0,0.78146,0,56,56,50,1,REAL,FAKE,,,,,,,,,,,,,,,,,,,,,
,,,,,,,600b0f7fa045ed0f806f01e2,605b45a4d25f287719a41696,605cec9a119b0f1124ba49f3,I am not familiar with Spanish,Northeast,13 or older,no,2021-03-25_16h04.12.878,empathy_intonation_perc,2020.2.10,MacIntel,60,,,,,,,,,,1,,,,,,,,,,,,,,,,,,,,,,,,,,,,,,,,,,,,,,,,69,engatusar,,,1,1,0.633085,0,57,57,68,1,REAL,FAKE,,,,,,,,,,,,,,,,,,,,,
,,,,,,,600b0f7fa045ed0f806f01e2,605b45a4d25f287719a41696,605cec9a119b0f1124ba49f3,I am not familiar with Spanish,Northeast,13 or older,no,2021-03-25_16h04.12.878,empathy_intonation_perc,2020.2.10,MacIntel,60,,,,,,,,,,0,,,,,,,,,,,,,,,,,,,,,,,,,,,,,,,,,,,,,,,,27,acutacin,,,1,0,0.683705,0,58,58,26,1,REAL,FAKE,,,,,,,,,,,,,,,,,,,,,
,,,,,,,600b0f7fa045ed0f806f01e2,605b45a4d25f287719a41696,605cec9a119b0f1124ba49f3,I am not familiar with Spanish,Northeast,13 or older,no,2021-03-25_16h04.12.878,empathy_intonation_perc,2020.2.10,MacIntel,60,,,,,,,,,,1,,,,,,,,,,,,,,,,,,,,,,,,,,,,,,,,,,,,,,,,40,alfombra,,,0,0,0.738415,0,59,59,39,1,REAL,FAKE,,,,,,,,,,,,,,,,,,,,,
,,,,,,,600b0f7fa045ed0f806f01e2,605b45a4d25f287719a41696,605cec9a119b0f1124ba49f3,I am not familiar with Spanish,Northeast,13 or older,no,2021-03-25_16h04.12.878,empathy_intonation_perc,2020.2.10,MacIntel,60,,,,,,,,,,1,,,,,,,,,,,,,,,,,,,,,,,,,,,,,,,,,,,,,,,,75,yacer,,,0,0,0.85446,0,60,60,74,1,REAL,FAKE,,,,,,,,,,,,,,,,,,,,,
,,,,,,,600b0f7fa045ed0f806f01e2,605b45a4d25f287719a41696,605cec9a119b0f1124ba49f3,I am not familiar with Spanish,Northeast,13 or older,no,2021-03-25_16h04.12.878,empathy_intonation_perc,2020.2.10,MacIntel,60,,,,,,,,,,1,,,,,,,,,,,,,,,,,,,,,,,,,,,,,,,,,,,,,,,,61,seda,,,1,1,0.586915,0,61,61,60,1,REAL,FAKE,,,,,,,,,,,,,,,,,,,,,
,,,,,,,600b0f7fa045ed0f806f01e2,605b45a4d25f287719a41696,605cec9a119b0f1124ba49f3,I am not familiar with Spanish,Northeast,13 or older,no,2021-03-25_16h04.12.878,empathy_intonation_perc,2020.2.10,MacIntel,60,,,,,,,,,,1,,,,,,,,,,,,,,,,,,,,,,,,,,,,,,,,,,,,,,,,25,bisagra,,,1,1,0.702,0,62,62,24,1,REAL,FAKE,,,,,,,,,,,,,,,,,,,,,
,,,,,,,600b0f7fa045ed0f806f01e2,605b45a4d25f287719a41696,605cec9a119b0f1124ba49f3,I am not familiar with Spanish,Northeast,13 or older,no,2021-03-25_16h04.12.878,empathy_intonation_perc,2020.2.10,MacIntel,60,,,,,,,,,,1,,,,,,,,,,,,,,,,,,,,,,,,,,,,,,,,,,,,,,,,24,ltigo,,,0,0,1.20958,0,63,63,23,1,REAL,FAKE,,,,,,,,,,,,,,,,,,,,,
,,,,,,,600b0f7fa045ed0f806f01e2,605b45a4d25f287719a41696,605cec9a119b0f1124ba49f3,I am not familiar with Spanish,Northeast,13 or older,no,2021-03-25_16h04.12.878,empathy_intonation_perc,2020.2.10,MacIntel,60,,,,,,,,,,1,,,,,,,,,,,,,,,,,,,,,,,,,,,,,,,,,,,,,,,,36,loro,,,0,0,0.871415,0,64,64,35,1,REAL,FAKE,,,,,,,,,,,,,,,,,,,,,
,,,,,,,600b0f7fa045ed0f806f01e2,605b45a4d25f287719a41696,605cec9a119b0f1124ba49f3,I am not familiar with Spanish,Northeast,13 or older,no,2021-03-25_16h04.12.878,empathy_intonation_perc,2020.2.10,MacIntel,60,,,,,,,,,,1,,,,,,,,,,,,,,,,,,,,,,,,,,,,,,,,,,,,,,,,80,hormiga,,,1,1,0.971585,0,65,65,79,1,REAL,FAKE,,,,,,,,,,,,,,,,,,,,,
,,,,,,,600b0f7fa045ed0f806f01e2,605b45a4d25f287719a41696,605cec9a119b0f1124ba49f3,I am not familiar with Spanish,Northeast,13 or older,no,2021-03-25_16h04.12.878,empathy_intonation_perc,2020.2.10,MacIntel,60,,,,,,,,,,0,,,,,,,,,,,,,,,,,,,,,,,,,,,,,,,,,,,,,,,,16,abracer,,,1,0,0.58429,0,66,66,15,1,REAL,FAKE,,,,,,,,,,,,,,,,,,,,,
,,,,,,,600b0f7fa045ed0f806f01e2,605b45a4d25f287719a41696,605cec9a119b0f1124ba49f3,I am not familiar with Spanish,Northeast,13 or older,no,2021-03-25_16h04.12.878,empathy_intonation_perc,2020.2.10,MacIntel,60,,,,,,,,,,0,,,,,,,,,,,,,,,,,,,,,,,,,,,,,,,,,,,,,,,,47,cartinar,,,1,0,0.73304,0,67,67,46,1,REAL,FAKE,,,,,,,,,,,,,,,,,,,,,
,,,,,,,600b0f7fa045ed0f806f01e2,605b45a4d25f287719a41696,605cec9a119b0f1124ba49f3,I am not familiar with Spanish,Northeast,13 or older,no,2021-03-25_16h04.12.878,empathy_intonation_perc,2020.2.10,MacIntel,60,,,,,,,,,,1,,,,,,,,,,,,,,,,,,,,,,,,,,,,,,,,,,,,,,,,64,orgulloso,,,0,0,0.501415,0,68,68,63,1,REAL,FAKE,,,,,,,,,,,,,,,,,,,,,
,,,,,,,600b0f7fa045ed0f806f01e2,605b45a4d25f287719a41696,605cec9a119b0f1124ba49f3,I am not familiar with Spanish,Northeast,13 or older,no,2021-03-25_16h04.12.878,empathy_intonation_perc,2020.2.10,MacIntel,60,,,,,,,,,,1,,,,,,,,,,,,,,,,,,,,,,,,,,,,,,,,,,,,,,,,46,martillo,,,1,1,0.70625,0,69,69,45,1,REAL,FAKE,,,,,,,,,,,,,,,,,,,,,
,,,,,,,600b0f7fa045ed0f806f01e2,605b45a4d25f287719a41696,605cec9a119b0f1124ba49f3,I am not familiar with Spanish,Northeast,13 or older,no,2021-03-25_16h04.12.878,empathy_intonation_perc,2020.2.10,MacIntel,60,,,,,,,,,,0,,,,,,,,,,,,,,,,,,,,,,,,,,,,,,,,,,,,,,,,1,terzo,,,0,1,0.901335,0,70,70,0,1,REAL,FAKE,,,,,,,,,,,,,,,,,,,,,
,,,,,,,600b0f7fa045ed0f806f01e2,605b45a4d25f287719a41696,605cec9a119b0f1124ba49f3,I am not familiar with Spanish,Northeast,13 or older,no,2021-03-25_16h04.12.878,empathy_intonation_perc,2020.2.10,MacIntel,60,,,,,,,,,,0,,,,,,,,,,,,,,,,,,,,,,,,,,,,,,,,,,,,,,,,33,pauca,,,0,1,0.630375,0,71,71,32,1,REAL,FAKE,,,,,,,,,,,,,,,,,,,,,
,,,,,,,600b0f7fa045ed0f806f01e2,605b45a4d25f287719a41696,605cec9a119b0f1124ba49f3,I am not familiar with Spanish,Northeast,13 or older,no,2021-03-25_16h04.12.878,empathy_intonation_perc,2020.2.10,MacIntel,60,,,,,,,,,,1,,,,,,,,,,,,,,,,,,,,,,,,,,,,,,,,,,,,,,,,65,bizcocho,,,1,1,0.670835,0,72,72,64,1,REAL,FAKE,,,,,,,,,,,,,,,,,,,,,
,,,,,,,600b0f7fa045ed0f806f01e2,605b45a4d25f287719a41696,605cec9a119b0f1124ba49f3,I am not familiar with Spanish,Northeast,13 or older,no,2021-03-25_16h04.12.878,empathy_intonation_perc,2020.2.10,MacIntel,60,,,,,,,,,,1,,,,,,,,,,,,,,,,,,,,,,,,,,,,,,,,,,,,,,,,15,regar,,,0,0,0.56604,0,73,73,14,1,REAL,FAKE,,,,,,,,,,,,,,,,,,,,,
,,,,,,,600b0f7fa045ed0f806f01e2,605b45a4d25f287719a41696,605cec9a119b0f1124ba49f3,I am not familiar with Spanish,Northeast,13 or older,no,2021-03-25_16h04.12.878,empathy_intonation_perc,2020.2.10,MacIntel,60,,,,,,,,,,0,,,,,,,,,,,,,,,,,,,,,,,,,,,,,,,,,,,,,,,,30,alardio,,,0,1,0.84891,0,74,74,29,1,REAL,FAKE,,,,,,,,,,,,,,,,,,,,,
,,,,,,,600b0f7fa045ed0f806f01e2,605b45a4d25f287719a41696,605cec9a119b0f1124ba49f3,I am not familiar with Spanish,Northeast,13 or older,no,2021-03-25_16h04.12.878,empathy_intonation_perc,2020.2.10,MacIntel,60,,,,,,,,,,1,,,,,,,,,,,,,,,,,,,,,,,,,,,,,,,,,,,,,,,,6,tergiversar,,,1,1,0.515,0,75,75,5,1,REAL,FAKE,,,,,,,,,,,,,,,,,,,,,
,,,,,,,600b0f7fa045ed0f806f01e2,605b45a4d25f287719a41696,605cec9a119b0f1124ba49f3,I am not familiar with Spanish,Northeast,13 or older,no,2021-03-25_16h04.12.878,empathy_intonation_perc,2020.2.10,MacIntel,60,,,,,,,,,,0,,,,,,,,,,,,,,,,,,,,,,,,,,,,,,,,,,,,,,,,74,cintro,,,1,0,0.516125,0,76,76,73,1,REAL,FAKE,,,,,,,,,,,,,,,,,,,,,
,,,,,,,600b0f7fa045ed0f806f01e2,605b45a4d25f287719a41696,605cec9a119b0f1124ba49f3,I am not familiar with Spanish,Northeast,13 or older,no,2021-03-25_16h04.12.878,empathy_intonation_perc,2020.2.10,MacIntel,60,,,,,,,,,,1,,,,,,,,,,,,,,,,,,,,,,,,,,,,,,,,,,,,,,,,39,torpe,,,0,0,0.717625,0,77,77,38,1,REAL,FAKE,,,,,,,,,,,,,,,,,,,,,
,,,,,,,600b0f7fa045ed0f806f01e2,605b45a4d25f287719a41696,605cec9a119b0f1124ba49f3,I am not familiar with Spanish,Northeast,13 or older,no,2021-03-25_16h04.12.878,empathy_intonation_perc,2020.2.10,MacIntel,60,,,,,,,,,,0,,,,,,,,,,,,,,,,,,,,,,,,,,,,,,,,,,,,,,,,53,vegada,,,1,0,0.673875,0,78,78,52,1,REAL,FAKE,,,,,,,,,,,,,,,,,,,,,
,,,,,,,600b0f7fa045ed0f806f01e2,605b45a4d25f287719a41696,605cec9a119b0f1124ba49f3,I am not familiar with Spanish,Northeast,13 or older,no,2021-03-25_16h04.12.878,empathy_intonation_perc,2020.2.10,MacIntel,60,,,,,,,,,,0,,,,,,,,,,,,,,,,,,,,,,,,,,,,,,,,,,,,,,,,66,hacido,,,1,0,0.75125,0,79,79,65,1,REAL,FAKE,,,,,,,,,,,,,,,,,,,,,
,,,,,,,600b0f7fa045ed0f806f01e2,605b45a4d25f287719a41696,605cec9a119b0f1124ba49f3,I am not familiar with Spanish,Northeast,13 or older,no,2021-03-25_16h04.12.878,empathy_intonation_perc,2020.2.10,MacIntel,60,,,,,,,,,,1,,,,,,,,,,,,,,,,,,,,,,,,,,,,,,,,,,,,,,,,22,lacayo,,,0,0,0.698875,0,80,80,21,1,REAL,FAKE,,,,,,,,,,,,,,,,,,,,,
,,,,,,,600b0f7fa045ed0f806f01e2,605b45a4d25f287719a41696,605cec9a119b0f1124ba49f3,I am not familiar with Spanish,Northeast,13 or older,no,2021-03-25_16h04.12.878,empathy_intonation_perc,2020.2.10,MacIntel,60,,,,,,,,,,0,,,,,,,,,,,,,,,,,,,,,,,,,,,,,,,,,,,,,,,,23,lampera,,,1,0,0.598915,0,81,81,22,1,REAL,FAKE,,,,,,,,,,,,,,,,,,,,,
,,,,,,,600b0f7fa045ed0f806f01e2,605b45a4d25f287719a41696,605cec9a119b0f1124ba49f3,I am not familiar with Spanish,Northeast,13 or older,no,2021-03-25_16h04.12.878,empathy_intonation_perc,2020.2.10,MacIntel,60,,,,,,,,,,1,,,,,,,,,,,,,,,,,,,,,,,,,,,,,,,,,,,,,,,,55,nevar,,,1,1,1.202125,0,82,82,54,1,REAL,FAKE,,,,,,,,,,,,,,,,,,,,,
,,,,,,,600b0f7fa045ed0f806f01e2,605b45a4d25f287719a41696,605cec9a119b0f1124ba49f3,I am not familiar with Spanish,Northeast,13 or older,no,2021-03-25_16h04.12.878,empathy_intonation_perc,2020.2.10,MacIntel,60,,,,,,,,,,0,,,,,,,,,,,,,,,,,,,,,,,,,,,,,,,,,,,,,,,,18,arsa,,,0,1,0.88342,0,83,83,17,1,REAL,FAKE,,,,,,,,,,,,,,,,,,,,,
