instructions_2afc_loop.thisRepN,instructions_2afc_loop.thisTrialN,instructions_2afc_loop.thisN,instructions_2afc_loop.thisIndex,instructions_2afc_loop.ran,instructions_text,continue_text,participant,study_id,session,I am most familiar with Spanish from...*,What part of the US are you from?*,At what age did you begin learning Spanish?*,Are you proficient in any languages other than English/Spanish?*,date,expName,psychopyVersion,OS,frameRate,key_resp_2afc_practice.keys,key_resp_2afc_practice.corr,key_resp_2afc_practice.rt,trials_2afc_practice_loop.thisRepN,trials_2afc_practice_loop.thisTrialN,trials_2afc_practice_loop.thisN,trials_2afc_practice_loop.thisIndex,trials_2afc_practice_loop.ran,path,correct_response,the_col,key_resp_2afc_trial.keys,key_resp_2afc_trial.corr,key_resp_2afc_trial.rt,trials_2afc_loop.thisRepN,trials_2afc_loop.thisTrialN,trials_2afc_loop.thisN,trials_2afc_loop.thisIndex,trials_2afc_loop.ran,item_num,andalusian,argentine,castilian,chilean,cuban,mexican,peruvian,puertorican,key_resp_ac1.keys,key_resp_ac1.corr,key_resp_ac1.rt,ac1_loop.thisRepN,ac1_loop.thisTrialN,ac1_loop.thisN,ac1_loop.thisIndex,ac1_loop.ran,instructions_lextale_loop.thisRepN,instructions_lextale_loop.thisTrialN,instructions_lextale_loop.thisN,instructions_lextale_loop.thisIndex,instructions_lextale_loop.ran,key_resp_lextale_practice.keys,key_resp_lextale_practice.corr,key_resp_lextale_practice.rt,trials_lextale_practice_loop.thisRepN,trials_lextale_practice_loop.thisTrialN,trials_lextale_practice_loop.thisN,trials_lextale_practice_loop.thisIndex,trials_lextale_practice_loop.ran,stim,word,prac_button_real,prac_button_false,key_resp_lextale_trial.keys,key_resp_lextale_trial.corr,key_resp_lextale_trial.rt,trials_lextale_loop.thisRepN,trials_lextale_loop.thisTrialN,trials_lextale_loop.thisN,trials_lextale_loop.thisIndex,trials_lextale_loop.ran,button_real,button_false,key_resp_ac2.keys,key_resp_ac2.corr,key_resp_ac2.rt,check_pass,check_fails,ac2_loop.thisRepN,ac2_loop.thisTrialN,ac2_loop.thisN,ac2_loop.thisIndex,ac2_loop.ran,slider_eq_trial.response,trials_eq_loop.thisRepN,trials_eq_loop.thisTrialN,trials_eq_loop.thisN,trials_eq_loop.thisIndex,trials_eq_loop.ran,item,is_test_item,is_distractor,is_agree_score,is_disagree_score
0,0,0,0,1,"In the following task you are going to hear a series of utterances. 

  You will decide if the utterances sound like questions or not using your keyboard.",(press the spacebar to continue),600be42e32909325b20ab5f0,605b45a4d25f287719a41696,605bd8172e9e8df228163db0,Mexico,Midwest,13 or older,no,2021-03-24_20h24.37.461,empathy_intonation_perc,2020.2.10,Linux x86_64,60,,,,,,,,,,,,,,,,,,,,,,,,,,,,,,,,,,,,,,,,,,,,,,,,,,,,,,,,,,,,,,,,,,,,,,,,,,,,,,,,,,,,
0,1,1,1,1,"If you believe the utterance is a question, type '1' (for 'yes') and if you do not 
  believe it is a question type '0' (for 'no').

  Let's practice a bit...",(press the spacebar to continue),600be42e32909325b20ab5f0,605b45a4d25f287719a41696,605bd8172e9e8df228163db0,Mexico,Midwest,13 or older,no,2021-03-24_20h24.37.461,empathy_intonation_perc,2020.2.10,Linux x86_64,60,,,,,,,,,,,,,,,,,,,,,,,,,,,,,,,,,,,,,,,,,,,,,,,,,,,,,,,,,,,,,,,,,,,,,,,,,,,,,,,,,,,,
,,,,,,,600be42e32909325b20ab5f0,605b45a4d25f287719a41696,605bd8172e9e8df228163db0,Mexico,Midwest,13 or older,no,2021-03-24_20h24.37.461,empathy_intonation_perc,2020.2.10,Linux x86_64,60,1,1,2.781385,0,0,0,0,1,./stim/wavs/castilian_question_filler_Mi-esposo-conoce-al-chico.wav,1,,,,,,,,,,,,,,,,,,,,,,,,,,,,,,,,,,,,,,,,,,,,,,,,,,,,,,,,,,,,,,,,,,,,,,,,,,
,,,,,,,600be42e32909325b20ab5f0,605b45a4d25f287719a41696,605bd8172e9e8df228163db0,Mexico,Midwest,13 or older,no,2021-03-24_20h24.37.461,empathy_intonation_perc,2020.2.10,Linux x86_64,60,0,1,3.647725,0,1,1,4,1,./stim/wavs/cuban_statement_filler_Cocinabas-por-la-noche.wav,0,,,,,,,,,,,,,,,,,,,,,,,,,,,,,,,,,,,,,,,,,,,,,,,,,,,,,,,,,,,,,,,,,,,,,,,,,,
,,,,,,,600be42e32909325b20ab5f0,605b45a4d25f287719a41696,605bd8172e9e8df228163db0,Mexico,Midwest,13 or older,no,2021-03-24_20h24.37.461,empathy_intonation_perc,2020.2.10,Linux x86_64,60,0,0,1.782155,0,2,2,1,1,./stim/wavs/argentine_question_filler_Mi-vecino-habla-mucho.wav,1,,,,,,,,,,,,,,,,,,,,,,,,,,,,,,,,,,,,,,,,,,,,,,,,,,,,,,,,,,,,,,,,,,,,,,,,,,
,,,,,,,600be42e32909325b20ab5f0,605b45a4d25f287719a41696,605bd8172e9e8df228163db0,Mexico,Midwest,13 or older,no,2021-03-24_20h24.37.461,empathy_intonation_perc,2020.2.10,Linux x86_64,60,0,0,1.76605,0,3,3,2,1,./stim/wavs/chilean_question_filler_Mi-padre-cantaba-bien.wav,1,,,,,,,,,,,,,,,,,,,,,,,,,,,,,,,,,,,,,,,,,,,,,,,,,,,,,,,,,,,,,,,,,,,,,,,,,,
,,,,,,,600be42e32909325b20ab5f0,605b45a4d25f287719a41696,605bd8172e9e8df228163db0,Mexico,Midwest,13 or older,no,2021-03-24_20h24.37.461,empathy_intonation_perc,2020.2.10,Linux x86_64,60,0,1,1.750195,0,4,4,7,1,./stim/wavs/puertorican_statement_filler_La-nina-pinta-con-su-amiga.wav,0,,,,,,,,,,,,,,,,,,,,,,,,,,,,,,,,,,,,,,,,,,,,,,,,,,,,,,,,,,,,,,,,,,,,,,,,,,
,,,,,,,600be42e32909325b20ab5f0,605b45a4d25f287719a41696,605bd8172e9e8df228163db0,Mexico,Midwest,13 or older,no,2021-03-24_20h24.37.461,empathy_intonation_perc,2020.2.10,Linux x86_64,60,1,1,2.148875,0,5,5,3,1,./stim/wavs/mexican_question_filler_Felipe-no-tiene-contrasena.wav,1,,,,,,,,,,,,,,,,,,,,,,,,,,,,,,,,,,,,,,,,,,,,,,,,,,,,,,,,,,,,,,,,,,,,,,,,,,
,,,,,,,600be42e32909325b20ab5f0,605b45a4d25f287719a41696,605bd8172e9e8df228163db0,Mexico,Midwest,13 or older,no,2021-03-24_20h24.37.461,empathy_intonation_perc,2020.2.10,Linux x86_64,60,0,1,2.10481,0,6,6,6,1,./stim/wavs/peruvian_statement_filler_El-nino-habla-con-su-madre.wav,0,,,,,,,,,,,,,,,,,,,,,,,,,,,,,,,,,,,,,,,,,,,,,,,,,,,,,,,,,,,,,,,,,,,,,,,,,,
,,,,,,,600be42e32909325b20ab5f0,605b45a4d25f287719a41696,605bd8172e9e8df228163db0,Mexico,Midwest,13 or older,no,2021-03-24_20h24.37.461,empathy_intonation_perc,2020.2.10,Linux x86_64,60,0,1,1.7325,0,7,7,5,1,./stim/wavs/andalusian_statement_filler_Alberto-nunca-se-afeita.wav,0,,,,,,,,,,,,,,,,,,,,,,,,,,,,,,,,,,,,,,,,,,,,,,,,,,,,,,,,,,,,,,,,,,,,,,,,,,
,,,,,,,600be42e32909325b20ab5f0,605b45a4d25f287719a41696,605bd8172e9e8df228163db0,Mexico,Midwest,13 or older,no,2021-03-24_20h24.37.461,empathy_intonation_perc,2020.2.10,Linux x86_64,60,,,,,,,,,,0,puertorican,0,1,1.93345,0,0,0,43,1,44,./stim/wavs/andalusian_mismatch_declarative-narrow-focus_La-maestra-vive-en-Paris.wav,./stim/wavs/argentine_mismatch_declarative-narrow-focus_La-maestra-vive-en-Paris.wav,./stim/wavs/castilian_mismatch_declarative-narrow-focus_La-maestra-vive-en-Paris.wav,./stim/wavs/chilean_mismatch_declarative-narrow-focus_La-maestra-vive-en-Paris.wav,./stim/wavs/cuban_mismatch_declarative-narrow-focus_La-maestra-vive-en-Paris.wav,./stim/wavs/mexican_mismatch_declarative-narrow-focus_La-maestra-vive-en-Paris.wav,./stim/wavs/peruvian_mismatch_declarative-narrow-focus_La-maestra-vive-en-Paris.wav,./stim/wavs/puertorican_mismatch_declarative-narrow-focus_La-maestra-vive-en-Paris.wav,,,,,,,,,,,,,,,,,,,,,,,,,,,,,,,,,,,,,,,,,,,,,,,,,,,,,,,,
,,,,,,,600be42e32909325b20ab5f0,605b45a4d25f287719a41696,605bd8172e9e8df228163db0,Mexico,Midwest,13 or older,no,2021-03-24_20h24.37.461,empathy_intonation_perc,2020.2.10,Linux x86_64,60,,,,,,,,,,0,puertorican,1,0,1.46746,0,1,1,9,1,10,./stim/wavs/andalusian_match_declarative-narrow-focus_Daniel-iba-a-Bolivia.wav,./stim/wavs/argentine_match_declarative-narrow-focus_Daniel-iba-a-Bolivia.wav,./stim/wavs/castilian_match_declarative-narrow-focus_Daniel-iba-a-Bolivia.wav,./stim/wavs/chilean_match_declarative-narrow-focus_Daniel-iba-a-Bolivia.wav,./stim/wavs/cuban_match_declarative-narrow-focus_Daniel-iba-a-Bolivia.wav,./stim/wavs/mexican_match_declarative-narrow-focus_Daniel-iba-a-Bolivia.wav,./stim/wavs/peruvian_match_declarative-narrow-focus_Daniel-iba-a-Bolivia.wav,./stim/wavs/puertorican_match_declarative-narrow-focus_Daniel-iba-a-Bolivia.wav,,,,,,,,,,,,,,,,,,,,,,,,,,,,,,,,,,,,,,,,,,,,,,,,,,,,,,,,
,,,,,,,600be42e32909325b20ab5f0,605b45a4d25f287719a41696,605bd8172e9e8df228163db0,Mexico,Midwest,13 or older,no,2021-03-24_20h24.37.461,empathy_intonation_perc,2020.2.10,Linux x86_64,60,,,,,,,,,,0,mexican,0,1,1.471445,0,2,2,42,1,43,./stim/wavs/andalusian_mismatch_declarative-narrow-focus_El-nino-oye-el-rio.wav,./stim/wavs/argentine_mismatch_declarative-narrow-focus_El-nino-oye-el-rio.wav,./stim/wavs/castilian_mismatch_declarative-narrow-focus_El-nino-oye-el-rio.wav,./stim/wavs/chilean_mismatch_declarative-narrow-focus_El-nino-oye-el-rio.wav,./stim/wavs/cuban_mismatch_declarative-narrow-focus_El-nino-oye-el-rio.wav,./stim/wavs/mexican_mismatch_declarative-narrow-focus_El-nino-oye-el-rio.wav,./stim/wavs/peruvian_mismatch_declarative-narrow-focus_El-nino-oye-el-rio.wav,./stim/wavs/puertorican_mismatch_declarative-narrow-focus_El-nino-oye-el-rio.wav,,,,,,,,,,,,,,,,,,,,,,,,,,,,,,,,,,,,,,,,,,,,,,,,,,,,,,,,
,,,,,,,600be42e32909325b20ab5f0,605b45a4d25f287719a41696,605bd8172e9e8df228163db0,Mexico,Midwest,13 or older,no,2021-03-24_20h24.37.461,empathy_intonation_perc,2020.2.10,Linux x86_64,60,,,,,,,,,,1,peruvian,1,1,1.966625,0,3,3,51,1,52,./stim/wavs/andalusian_mismatch_interrogative-partial-wh_Por-que-desayuna-muy-bien.wav,./stim/wavs/argentine_mismatch_interrogative-partial-wh_Por-que-desayuna-muy-bien.wav,./stim/wavs/castilian_mismatch_interrogative-partial-wh_Por-que-desayuna-muy-bien.wav,./stim/wavs/chilean_mismatch_interrogative-partial-wh_Por-que-desayuna-muy-bien.wav,./stim/wavs/cuban_mismatch_interrogative-partial-wh_Por-que-desayuna-muy-bien.wav,./stim/wavs/mexican_mismatch_interrogative-partial-wh_Por-que-desayuna-muy-bien.wav,./stim/wavs/peruvian_mismatch_interrogative-partial-wh_Por-que-desayuna-muy-bien.wav,./stim/wavs/puertorican_mismatch_interrogative-partial-wh_Por-que-desayuna-muy-bien.wav,,,,,,,,,,,,,,,,,,,,,,,,,,,,,,,,,,,,,,,,,,,,,,,,,,,,,,,,
,,,,,,,600be42e32909325b20ab5f0,605b45a4d25f287719a41696,605bd8172e9e8df228163db0,Mexico,Midwest,13 or older,no,2021-03-24_20h24.37.461,empathy_intonation_perc,2020.2.10,Linux x86_64,60,,,,,,,,,,1,cuban,1,1,1.71507,0,4,4,23,1,24,./stim/wavs/andalusian_match_interrogative-partial-wh_Por-que-iba-a-Bolivia.wav,./stim/wavs/argentine_match_interrogative-partial-wh_Por-que-iba-a-Bolivia.wav,./stim/wavs/castilian_match_interrogative-partial-wh_Por-que-iba-a-Bolivia.wav,./stim/wavs/chilean_match_interrogative-partial-wh_Por-que-iba-a-Bolivia.wav,./stim/wavs/cuban_match_interrogative-partial-wh_Por-que-iba-a-Bolivia.wav,./stim/wavs/mexican_match_interrogative-partial-wh_Por-que-iba-a-Bolivia.wav,./stim/wavs/peruvian_match_interrogative-partial-wh_Por-que-iba-a-Bolivia.wav,./stim/wavs/puertorican_match_interrogative-partial-wh_Por-que-iba-a-Bolivia.wav,,,,,,,,,,,,,,,,,,,,,,,,,,,,,,,,,,,,,,,,,,,,,,,,,,,,,,,,
,,,,,,,600be42e32909325b20ab5f0,605b45a4d25f287719a41696,605bd8172e9e8df228163db0,Mexico,Midwest,13 or older,no,2021-03-24_20h24.37.461,empathy_intonation_perc,2020.2.10,Linux x86_64,60,,,,,,,,,,0,argentine,0,1,1.35635,0,5,5,0,1,1,./stim/wavs/andalusian_match_declarative-broad-focus_Ana-lleva-el-abrigo.wav,./stim/wavs/argentine_match_declarative-broad-focus_Ana-lleva-el-abrigo.wav,./stim/wavs/castilian_match_declarative-broad-focus_Ana-lleva-el-abrigo.wav,./stim/wavs/chilean_match_declarative-broad-focus_Ana-lleva-el-abrigo.wav,./stim/wavs/cuban_match_declarative-broad-focus_Ana-lleva-el-abrigo.wav,./stim/wavs/mexican_match_declarative-broad-focus_Ana-lleva-el-abrigo.wav,./stim/wavs/peruvian_match_declarative-broad-focus_Ana-lleva-el-abrigo.wav,./stim/wavs/puertorican_match_declarative-broad-focus_Ana-lleva-el-abrigo.wav,,,,,,,,,,,,,,,,,,,,,,,,,,,,,,,,,,,,,,,,,,,,,,,,,,,,,,,,
,,,,,,,600be42e32909325b20ab5f0,605b45a4d25f287719a41696,605bd8172e9e8df228163db0,Mexico,Midwest,13 or older,no,2021-03-24_20h24.37.461,empathy_intonation_perc,2020.2.10,Linux x86_64,60,,,,,,,,,,0,puertorican,0,1,1.43261,0,6,6,41,1,42,./stim/wavs/andalusian_mismatch_declarative-narrow-focus_El-hombre-mira-la-luna.wav,./stim/wavs/argentine_mismatch_declarative-narrow-focus_El-hombre-mira-la-luna.wav,./stim/wavs/castilian_mismatch_declarative-narrow-focus_El-hombre-mira-la-luna.wav,./stim/wavs/chilean_mismatch_declarative-narrow-focus_El-hombre-mira-la-luna.wav,./stim/wavs/cuban_mismatch_declarative-narrow-focus_El-hombre-mira-la-luna.wav,./stim/wavs/mexican_mismatch_declarative-narrow-focus_El-hombre-mira-la-luna.wav,./stim/wavs/peruvian_mismatch_declarative-narrow-focus_El-hombre-mira-la-luna.wav,./stim/wavs/puertorican_mismatch_declarative-narrow-focus_El-hombre-mira-la-luna.wav,,,,,,,,,,,,,,,,,,,,,,,,,,,,,,,,,,,,,,,,,,,,,,,,,,,,,,,,
,,,,,,,600be42e32909325b20ab5f0,605b45a4d25f287719a41696,605bd8172e9e8df228163db0,Mexico,Midwest,13 or older,no,2021-03-24_20h24.37.461,empathy_intonation_perc,2020.2.10,Linux x86_64,60,,,,,,,,,,1,mexican,1,1,1.66729,0,7,7,63,1,64,./stim/wavs/andalusian_mismatch_interrogative-total-yn_Mi-tia-odia-la-lluvia.wav,./stim/wavs/argentine_mismatch_interrogative-total-yn_Mi-tia-odia-la-lluvia.wav,./stim/wavs/castilian_mismatch_interrogative-total-yn_Mi-tia-odia-la-lluvia.wav,./stim/wavs/chilean_mismatch_interrogative-total-yn_Mi-tia-odia-la-lluvia.wav,./stim/wavs/cuban_mismatch_interrogative-total-yn_Mi-tia-odia-la-lluvia.wav,./stim/wavs/mexican_mismatch_interrogative-total-yn_Mi-tia-odia-la-lluvia.wav,./stim/wavs/peruvian_mismatch_interrogative-total-yn_Mi-tia-odia-la-lluvia.wav,./stim/wavs/puertorican_mismatch_interrogative-total-yn_Mi-tia-odia-la-lluvia.wav,,,,,,,,,,,,,,,,,,,,,,,,,,,,,,,,,,,,,,,,,,,,,,,,,,,,,,,,
,,,,,,,600be42e32909325b20ab5f0,605b45a4d25f287719a41696,605bd8172e9e8df228163db0,Mexico,Midwest,13 or older,no,2021-03-24_20h24.37.461,empathy_intonation_perc,2020.2.10,Linux x86_64,60,,,,,,,,,,1,mexican,1,1,1.382595,0,8,8,31,1,32,./stim/wavs/andalusian_match_interrogative-total-yn_Marta-abre-el-regalo.wav,./stim/wavs/argentine_match_interrogative-total-yn_Marta-abre-el-regalo.wav,./stim/wavs/castilian_match_interrogative-total-yn_Marta-abre-el-regalo.wav,./stim/wavs/chilean_match_interrogative-total-yn_Marta-abre-el-regalo.wav,./stim/wavs/cuban_match_interrogative-total-yn_Marta-abre-el-regalo.wav,./stim/wavs/mexican_match_interrogative-total-yn_Marta-abre-el-regalo.wav,./stim/wavs/peruvian_match_interrogative-total-yn_Marta-abre-el-regalo.wav,./stim/wavs/puertorican_match_interrogative-total-yn_Marta-abre-el-regalo.wav,,,,,,,,,,,,,,,,,,,,,,,,,,,,,,,,,,,,,,,,,,,,,,,,,,,,,,,,
,,,,,,,600be42e32909325b20ab5f0,605b45a4d25f287719a41696,605bd8172e9e8df228163db0,Mexico,Midwest,13 or older,no,2021-03-24_20h24.37.461,empathy_intonation_perc,2020.2.10,Linux x86_64,60,,,,,,,,,,0,chilean,0,1,1.478945,0,9,9,5,1,6,./stim/wavs/andalusian_match_declarative-broad-focus_Maria-bebe-el-vino.wav,./stim/wavs/argentine_match_declarative-broad-focus_Maria-bebe-el-vino.wav,./stim/wavs/castilian_match_declarative-broad-focus_Maria-bebe-el-vino.wav,./stim/wavs/chilean_match_declarative-broad-focus_Maria-bebe-el-vino.wav,./stim/wavs/cuban_match_declarative-broad-focus_Maria-bebe-el-vino.wav,./stim/wavs/mexican_match_declarative-broad-focus_Maria-bebe-el-vino.wav,./stim/wavs/peruvian_match_declarative-broad-focus_Maria-bebe-el-vino.wav,./stim/wavs/puertorican_match_declarative-broad-focus_Maria-bebe-el-vino.wav,,,,,,,,,,,,,,,,,,,,,,,,,,,,,,,,,,,,,,,,,,,,,,,,,,,,,,,,
,,,,,,,600be42e32909325b20ab5f0,605b45a4d25f287719a41696,605bd8172e9e8df228163db0,Mexico,Midwest,13 or older,no,2021-03-24_20h24.37.461,empathy_intonation_perc,2020.2.10,Linux x86_64,60,,,,,,,,,,0,castilian,0,1,1.732275,0,10,10,15,1,16,./stim/wavs/andalusian_match_declarative-narrow-focus_Marta-abre-el-regalo.wav,./stim/wavs/argentine_match_declarative-narrow-focus_Marta-abre-el-regalo.wav,./stim/wavs/castilian_match_declarative-narrow-focus_Marta-abre-el-regalo.wav,./stim/wavs/chilean_match_declarative-narrow-focus_Marta-abre-el-regalo.wav,./stim/wavs/cuban_match_declarative-narrow-focus_Marta-abre-el-regalo.wav,./stim/wavs/mexican_match_declarative-narrow-focus_Marta-abre-el-regalo.wav,./stim/wavs/peruvian_match_declarative-narrow-focus_Marta-abre-el-regalo.wav,./stim/wavs/puertorican_match_declarative-narrow-focus_Marta-abre-el-regalo.wav,,,,,,,,,,,,,,,,,,,,,,,,,,,,,,,,,,,,,,,,,,,,,,,,,,,,,,,,
,,,,,,,600be42e32909325b20ab5f0,605b45a4d25f287719a41696,605bd8172e9e8df228163db0,Mexico,Midwest,13 or older,no,2021-03-24_20h24.37.461,empathy_intonation_perc,2020.2.10,Linux x86_64,60,,,,,,,,,,0,castilian,0,1,1.29987,0,11,11,8,1,9,./stim/wavs/andalusian_match_declarative-narrow-focus_Ana-lleva-el-abrigo.wav,./stim/wavs/argentine_match_declarative-narrow-focus_Ana-lleva-el-abrigo.wav,./stim/wavs/castilian_match_declarative-narrow-focus_Ana-lleva-el-abrigo.wav,./stim/wavs/chilean_match_declarative-narrow-focus_Ana-lleva-el-abrigo.wav,./stim/wavs/cuban_match_declarative-narrow-focus_Ana-lleva-el-abrigo.wav,./stim/wavs/mexican_match_declarative-narrow-focus_Ana-lleva-el-abrigo.wav,./stim/wavs/peruvian_match_declarative-narrow-focus_Ana-lleva-el-abrigo.wav,./stim/wavs/puertorican_match_declarative-narrow-focus_Ana-lleva-el-abrigo.wav,,,,,,,,,,,,,,,,,,,,,,,,,,,,,,,,,,,,,,,,,,,,,,,,,,,,,,,,
,,,,,,,600be42e32909325b20ab5f0,605b45a4d25f287719a41696,605bd8172e9e8df228163db0,Mexico,Midwest,13 or older,no,2021-03-24_20h24.37.461,empathy_intonation_perc,2020.2.10,Linux x86_64,60,,,,,,,,,,1,mexican,1,1,1.353995,0,12,12,26,1,27,./stim/wavs/andalusian_match_interrogative-total-yn_David-leia-el-libro.wav,./stim/wavs/argentine_match_interrogative-total-yn_David-leia-el-libro.wav,./stim/wavs/castilian_match_interrogative-total-yn_David-leia-el-libro.wav,./stim/wavs/chilean_match_interrogative-total-yn_David-leia-el-libro.wav,./stim/wavs/cuban_match_interrogative-total-yn_David-leia-el-libro.wav,./stim/wavs/mexican_match_interrogative-total-yn_David-leia-el-libro.wav,./stim/wavs/peruvian_match_interrogative-total-yn_David-leia-el-libro.wav,./stim/wavs/puertorican_match_interrogative-total-yn_David-leia-el-libro.wav,,,,,,,,,,,,,,,,,,,,,,,,,,,,,,,,,,,,,,,,,,,,,,,,,,,,,,,,
,,,,,,,600be42e32909325b20ab5f0,605b45a4d25f287719a41696,605bd8172e9e8df228163db0,Mexico,Midwest,13 or older,no,2021-03-24_20h24.37.461,empathy_intonation_perc,2020.2.10,Linux x86_64,60,,,,,,,,,,1,puertorican,0,0,1.50174,0,13,13,22,1,23,./stim/wavs/andalusian_match_interrogative-partial-wh_Por-que-hablaba-del-agua.wav,./stim/wavs/argentine_match_interrogative-partial-wh_Por-que-hablaba-del-agua.wav,./stim/wavs/castilian_match_interrogative-partial-wh_Por-que-hablaba-del-agua.wav,./stim/wavs/chilean_match_interrogative-partial-wh_Por-que-hablaba-del-agua.wav,./stim/wavs/cuban_match_interrogative-partial-wh_Por-que-hablaba-del-agua.wav,./stim/wavs/mexican_match_interrogative-partial-wh_Por-que-hablaba-del-agua.wav,./stim/wavs/peruvian_match_interrogative-partial-wh_Por-que-hablaba-del-agua.wav,./stim/wavs/puertorican_match_interrogative-partial-wh_Por-que-hablaba-del-agua.wav,,,,,,,,,,,,,,,,,,,,,,,,,,,,,,,,,,,,,,,,,,,,,,,,,,,,,,,,
,,,,,,,600be42e32909325b20ab5f0,605b45a4d25f287719a41696,605bd8172e9e8df228163db0,Mexico,Midwest,13 or older,no,2021-03-24_20h24.37.461,empathy_intonation_perc,2020.2.10,Linux x86_64,60,,,,,,,,,,1,argentine,1,1,1.387495,0,14,14,49,1,50,./stim/wavs/andalusian_mismatch_interrogative-partial-wh_Cuando-lavaba-el-plato.wav,./stim/wavs/argentine_mismatch_interrogative-partial-wh_Cuando-lavaba-el-plato.wav,./stim/wavs/castilian_mismatch_interrogative-partial-wh_Cuando-lavaba-el-plato.wav,./stim/wavs/chilean_mismatch_interrogative-partial-wh_Cuando-lavaba-el-plato.wav,./stim/wavs/cuban_mismatch_interrogative-partial-wh_Cuando-lavaba-el-plato.wav,./stim/wavs/mexican_mismatch_interrogative-partial-wh_Cuando-lavaba-el-plato.wav,./stim/wavs/peruvian_mismatch_interrogative-partial-wh_Cuando-lavaba-el-plato.wav,./stim/wavs/puertorican_mismatch_interrogative-partial-wh_Cuando-lavaba-el-plato.wav,,,,,,,,,,,,,,,,,,,,,,,,,,,,,,,,,,,,,,,,,,,,,,,,,,,,,,,,
,,,,,,,600be42e32909325b20ab5f0,605b45a4d25f287719a41696,605bd8172e9e8df228163db0,Mexico,Midwest,13 or older,no,2021-03-24_20h24.37.461,empathy_intonation_perc,2020.2.10,Linux x86_64,60,,,,,,,,,,0,chilean,0,1,1.487865,0,15,15,44,1,45,./stim/wavs/andalusian_mismatch_declarative-narrow-focus_La-nina-lava-el-plato.wav,./stim/wavs/argentine_mismatch_declarative-narrow-focus_La-nina-lava-el-plato.wav,./stim/wavs/castilian_mismatch_declarative-narrow-focus_La-nina-lava-el-plato.wav,./stim/wavs/chilean_mismatch_declarative-narrow-focus_La-nina-lava-el-plato.wav,./stim/wavs/cuban_mismatch_declarative-narrow-focus_La-nina-lava-el-plato.wav,./stim/wavs/mexican_mismatch_declarative-narrow-focus_La-nina-lava-el-plato.wav,./stim/wavs/peruvian_mismatch_declarative-narrow-focus_La-nina-lava-el-plato.wav,./stim/wavs/puertorican_mismatch_declarative-narrow-focus_La-nina-lava-el-plato.wav,,,,,,,,,,,,,,,,,,,,,,,,,,,,,,,,,,,,,,,,,,,,,,,,,,,,,,,,
,,,,,,,600be42e32909325b20ab5f0,605b45a4d25f287719a41696,605bd8172e9e8df228163db0,Mexico,Midwest,13 or older,no,2021-03-24_20h24.37.461,empathy_intonation_perc,2020.2.10,Linux x86_64,60,,,,,,,,,,0,castilian,0,1,1.302865,0,16,16,11,1,12,./stim/wavs/andalusian_match_declarative-narrow-focus_Emilio-ama-la-marcha.wav,./stim/wavs/argentine_match_declarative-narrow-focus_Emilio-ama-la-marcha.wav,./stim/wavs/castilian_match_declarative-narrow-focus_Emilio-ama-la-marcha.wav,./stim/wavs/chilean_match_declarative-narrow-focus_Emilio-ama-la-marcha.wav,./stim/wavs/cuban_match_declarative-narrow-focus_Emilio-ama-la-marcha.wav,./stim/wavs/mexican_match_declarative-narrow-focus_Emilio-ama-la-marcha.wav,./stim/wavs/peruvian_match_declarative-narrow-focus_Emilio-ama-la-marcha.wav,./stim/wavs/puertorican_match_declarative-narrow-focus_Emilio-ama-la-marcha.wav,,,,,,,,,,,,,,,,,,,,,,,,,,,,,,,,,,,,,,,,,,,,,,,,,,,,,,,,
,,,,,,,600be42e32909325b20ab5f0,605b45a4d25f287719a41696,605bd8172e9e8df228163db0,Mexico,Midwest,13 or older,no,2021-03-24_20h24.37.461,empathy_intonation_perc,2020.2.10,Linux x86_64,60,,,,,,,,,,1,cuban,0,0,1.561615,0,17,17,56,1,57,./stim/wavs/andalusian_mismatch_interrogative-total-yn_El-bebe-comia-muy-bien.wav,./stim/wavs/argentine_mismatch_interrogative-total-yn_El-bebe-comia-muy-bien.wav,./stim/wavs/castilian_mismatch_interrogative-total-yn_El-bebe-comia-muy-bien.wav,./stim/wavs/chilean_mismatch_interrogative-total-yn_El-bebe-comia-muy-bien.wav,./stim/wavs/cuban_mismatch_interrogative-total-yn_El-bebe-comia-muy-bien.wav,./stim/wavs/mexican_mismatch_interrogative-total-yn_El-bebe-comia-muy-bien.wav,./stim/wavs/peruvian_mismatch_interrogative-total-yn_El-bebe-comia-muy-bien.wav,./stim/wavs/puertorican_mismatch_interrogative-total-yn_El-bebe-comia-muy-bien.wav,,,,,,,,,,,,,,,,,,,,,,,,,,,,,,,,,,,,,,,,,,,,,,,,,,,,,,,,
,,,,,,,600be42e32909325b20ab5f0,605b45a4d25f287719a41696,605bd8172e9e8df228163db0,Mexico,Midwest,13 or older,no,2021-03-24_20h24.37.461,empathy_intonation_perc,2020.2.10,Linux x86_64,60,,,,,,,,,,1,cuban,1,1,1.384445,0,18,18,17,1,18,./stim/wavs/andalusian_match_interrogative-partial-wh_Cuando-leia-el-libro.wav,./stim/wavs/argentine_match_interrogative-partial-wh_Cuando-leia-el-libro.wav,./stim/wavs/castilian_match_interrogative-partial-wh_Cuando-leia-el-libro.wav,./stim/wavs/chilean_match_interrogative-partial-wh_Cuando-leia-el-libro.wav,./stim/wavs/cuban_match_interrogative-partial-wh_Cuando-leia-el-libro.wav,./stim/wavs/mexican_match_interrogative-partial-wh_Cuando-leia-el-libro.wav,./stim/wavs/peruvian_match_interrogative-partial-wh_Cuando-leia-el-libro.wav,./stim/wavs/puertorican_match_interrogative-partial-wh_Cuando-leia-el-libro.wav,,,,,,,,,,,,,,,,,,,,,,,,,,,,,,,,,,,,,,,,,,,,,,,,,,,,,,,,
,,,,,,,600be42e32909325b20ab5f0,605b45a4d25f287719a41696,605bd8172e9e8df228163db0,Mexico,Midwest,13 or older,no,2021-03-24_20h24.37.461,empathy_intonation_perc,2020.2.10,Linux x86_64,60,,,,,,,,,,0,mexican,0,1,1.332645,0,19,19,38,1,39,./stim/wavs/andalusian_mismatch_declarative-broad-focus_Mi-novio-viene-del-lago.wav,./stim/wavs/argentine_mismatch_declarative-broad-focus_Mi-novio-viene-del-lago.wav,./stim/wavs/castilian_mismatch_declarative-broad-focus_Mi-novio-viene-del-lago.wav,./stim/wavs/chilean_mismatch_declarative-broad-focus_Mi-novio-viene-del-lago.wav,./stim/wavs/cuban_mismatch_declarative-broad-focus_Mi-novio-viene-del-lago.wav,./stim/wavs/mexican_mismatch_declarative-broad-focus_Mi-novio-viene-del-lago.wav,./stim/wavs/peruvian_mismatch_declarative-broad-focus_Mi-novio-viene-del-lago.wav,./stim/wavs/puertorican_mismatch_declarative-broad-focus_Mi-novio-viene-del-lago.wav,,,,,,,,,,,,,,,,,,,,,,,,,,,,,,,,,,,,,,,,,,,,,,,,,,,,,,,,
,,,,,,,600be42e32909325b20ab5f0,605b45a4d25f287719a41696,605bd8172e9e8df228163db0,Mexico,Midwest,13 or older,no,2021-03-24_20h24.37.461,empathy_intonation_perc,2020.2.10,Linux x86_64,60,,,,,,,,,,1,castilian,1,1,1.684555,0,20,20,52,1,53,./stim/wavs/andalusian_mismatch_interrogative-partial-wh_Por-que-odiaba-la-lluvia.wav,./stim/wavs/argentine_mismatch_interrogative-partial-wh_Por-que-odiaba-la-lluvia.wav,./stim/wavs/castilian_mismatch_interrogative-partial-wh_Por-que-odiaba-la-lluvia.wav,./stim/wavs/chilean_mismatch_interrogative-partial-wh_Por-que-odiaba-la-lluvia.wav,./stim/wavs/cuban_mismatch_interrogative-partial-wh_Por-que-odiaba-la-lluvia.wav,./stim/wavs/mexican_mismatch_interrogative-partial-wh_Por-que-odiaba-la-lluvia.wav,./stim/wavs/peruvian_mismatch_interrogative-partial-wh_Por-que-odiaba-la-lluvia.wav,./stim/wavs/puertorican_mismatch_interrogative-partial-wh_Por-que-odiaba-la-lluvia.wav,,,,,,,,,,,,,,,,,,,,,,,,,,,,,,,,,,,,,,,,,,,,,,,,,,,,,,,,
,,,,,,,600be42e32909325b20ab5f0,605b45a4d25f287719a41696,605bd8172e9e8df228163db0,Mexico,Midwest,13 or older,no,2021-03-24_20h24.37.461,empathy_intonation_perc,2020.2.10,Linux x86_64,60,,,,,,,,,,1,mexican,1,1,1.24834,0,21,21,50,1,51,./stim/wavs/andalusian_mismatch_interrogative-partial-wh_Cuando-miraba-la-luna.wav,./stim/wavs/argentine_mismatch_interrogative-partial-wh_Cuando-miraba-la-luna.wav,./stim/wavs/castilian_mismatch_interrogative-partial-wh_Cuando-miraba-la-luna.wav,./stim/wavs/chilean_mismatch_interrogative-partial-wh_Cuando-miraba-la-luna.wav,./stim/wavs/cuban_mismatch_interrogative-partial-wh_Cuando-miraba-la-luna.wav,./stim/wavs/mexican_mismatch_interrogative-partial-wh_Cuando-miraba-la-luna.wav,./stim/wavs/peruvian_mismatch_interrogative-partial-wh_Cuando-miraba-la-luna.wav,./stim/wavs/puertorican_mismatch_interrogative-partial-wh_Cuando-miraba-la-luna.wav,,,,,,,,,,,,,,,,,,,,,,,,,,,,,,,,,,,,,,,,,,,,,,,,,,,,,,,,
,,,,,,,600be42e32909325b20ab5f0,605b45a4d25f287719a41696,605bd8172e9e8df228163db0,Mexico,Midwest,13 or older,no,2021-03-24_20h24.37.461,empathy_intonation_perc,2020.2.10,Linux x86_64,60,,,,,,,,,,1,castilian,0,0,1.58378,0,22,22,28,1,29,./stim/wavs/andalusian_match_interrogative-total-yn_Manuela-vende-el-carro.wav,./stim/wavs/argentine_match_interrogative-total-yn_Manuela-vende-el-carro.wav,./stim/wavs/castilian_match_interrogative-total-yn_Manuela-vende-el-carro.wav,./stim/wavs/chilean_match_interrogative-total-yn_Manuela-vende-el-carro.wav,./stim/wavs/cuban_match_interrogative-total-yn_Manuela-vende-el-carro.wav,./stim/wavs/mexican_match_interrogative-total-yn_Manuela-vende-el-carro.wav,./stim/wavs/peruvian_match_interrogative-total-yn_Manuela-vende-el-carro.wav,./stim/wavs/puertorican_match_interrogative-total-yn_Manuela-vende-el-carro.wav,,,,,,,,,,,,,,,,,,,,,,,,,,,,,,,,,,,,,,,,,,,,,,,,,,,,,,,,
,,,,,,,600be42e32909325b20ab5f0,605b45a4d25f287719a41696,605bd8172e9e8df228163db0,Mexico,Midwest,13 or older,no,2021-03-24_20h24.37.461,empathy_intonation_perc,2020.2.10,Linux x86_64,60,,,,,,,,,,1,argentine,0,0,1.299855,0,23,23,58,1,59,./stim/wavs/andalusian_mismatch_interrogative-total-yn_El-nino-oye-el-rio.wav,./stim/wavs/argentine_mismatch_interrogative-total-yn_El-nino-oye-el-rio.wav,./stim/wavs/castilian_mismatch_interrogative-total-yn_El-nino-oye-el-rio.wav,./stim/wavs/chilean_mismatch_interrogative-total-yn_El-nino-oye-el-rio.wav,./stim/wavs/cuban_mismatch_interrogative-total-yn_El-nino-oye-el-rio.wav,./stim/wavs/mexican_mismatch_interrogative-total-yn_El-nino-oye-el-rio.wav,./stim/wavs/peruvian_mismatch_interrogative-total-yn_El-nino-oye-el-rio.wav,./stim/wavs/puertorican_mismatch_interrogative-total-yn_El-nino-oye-el-rio.wav,,,,,,,,,,,,,,,,,,,,,,,,,,,,,,,,,,,,,,,,,,,,,,,,,,,,,,,,
,,,,,,,600be42e32909325b20ab5f0,605b45a4d25f287719a41696,605bd8172e9e8df228163db0,Mexico,Midwest,13 or older,no,2021-03-24_20h24.37.461,empathy_intonation_perc,2020.2.10,Linux x86_64,60,,,,,,,,,,1,mexican,0,0,1.40578,0,24,24,62,1,63,./stim/wavs/andalusian_mismatch_interrogative-total-yn_Mi-novio-viene-del-lago.wav,./stim/wavs/argentine_mismatch_interrogative-total-yn_Mi-novio-viene-del-lago.wav,./stim/wavs/castilian_mismatch_interrogative-total-yn_Mi-novio-viene-del-lago.wav,./stim/wavs/chilean_mismatch_interrogative-total-yn_Mi-novio-viene-del-lago.wav,./stim/wavs/cuban_mismatch_interrogative-total-yn_Mi-novio-viene-del-lago.wav,./stim/wavs/mexican_mismatch_interrogative-total-yn_Mi-novio-viene-del-lago.wav,./stim/wavs/peruvian_mismatch_interrogative-total-yn_Mi-novio-viene-del-lago.wav,./stim/wavs/puertorican_mismatch_interrogative-total-yn_Mi-novio-viene-del-lago.wav,,,,,,,,,,,,,,,,,,,,,,,,,,,,,,,,,,,,,,,,,,,,,,,,,,,,,,,,
,,,,,,,600be42e32909325b20ab5f0,605b45a4d25f287719a41696,605bd8172e9e8df228163db0,Mexico,Midwest,13 or older,no,2021-03-24_20h24.37.461,empathy_intonation_perc,2020.2.10,Linux x86_64,60,,,,,,,,,,0,chilean,0,1,1.281905,0,25,25,12,1,13,./stim/wavs/andalusian_match_declarative-narrow-focus_Manuela-vende-el-carro.wav,./stim/wavs/argentine_match_declarative-narrow-focus_Manuela-vende-el-carro.wav,./stim/wavs/castilian_match_declarative-narrow-focus_Manuela-vende-el-carro.wav,./stim/wavs/chilean_match_declarative-narrow-focus_Manuela-vende-el-carro.wav,./stim/wavs/cuban_match_declarative-narrow-focus_Manuela-vende-el-carro.wav,./stim/wavs/mexican_match_declarative-narrow-focus_Manuela-vende-el-carro.wav,./stim/wavs/peruvian_match_declarative-narrow-focus_Manuela-vende-el-carro.wav,./stim/wavs/puertorican_match_declarative-narrow-focus_Manuela-vende-el-carro.wav,,,,,,,,,,,,,,,,,,,,,,,,,,,,,,,,,,,,,,,,,,,,,,,,,,,,,,,,
,,,,,,,600be42e32909325b20ab5f0,605b45a4d25f287719a41696,605bd8172e9e8df228163db0,Mexico,Midwest,13 or older,no,2021-03-24_20h24.37.461,empathy_intonation_perc,2020.2.10,Linux x86_64,60,,,,,,,,,,1,mexican,1,1,1.500375,0,26,26,24,1,25,./stim/wavs/andalusian_match_interrogative-total-yn_Ana-lleva-el-abrigo.wav,./stim/wavs/argentine_match_interrogative-total-yn_Ana-lleva-el-abrigo.wav,./stim/wavs/castilian_match_interrogative-total-yn_Ana-lleva-el-abrigo.wav,./stim/wavs/chilean_match_interrogative-total-yn_Ana-lleva-el-abrigo.wav,./stim/wavs/cuban_match_interrogative-total-yn_Ana-lleva-el-abrigo.wav,./stim/wavs/mexican_match_interrogative-total-yn_Ana-lleva-el-abrigo.wav,./stim/wavs/peruvian_match_interrogative-total-yn_Ana-lleva-el-abrigo.wav,./stim/wavs/puertorican_match_interrogative-total-yn_Ana-lleva-el-abrigo.wav,,,,,,,,,,,,,,,,,,,,,,,,,,,,,,,,,,,,,,,,,,,,,,,,,,,,,,,,
,,,,,,,600be42e32909325b20ab5f0,605b45a4d25f287719a41696,605bd8172e9e8df228163db0,Mexico,Midwest,13 or older,no,2021-03-24_20h24.37.461,empathy_intonation_perc,2020.2.10,Linux x86_64,60,,,,,,,,,,0,cuban,0,1,1.348235,0,27,27,32,1,33,./stim/wavs/andalusian_mismatch_declarative-broad-focus_El-bebe-comia-muy-bien.wav,./stim/wavs/argentine_mismatch_declarative-broad-focus_El-bebe-comia-muy-bien.wav,./stim/wavs/castilian_mismatch_declarative-broad-focus_El-bebe-comia-muy-bien.wav,./stim/wavs/chilean_mismatch_declarative-broad-focus_El-bebe-comia-muy-bien.wav,./stim/wavs/cuban_mismatch_declarative-broad-focus_El-bebe-comia-muy-bien.wav,./stim/wavs/mexican_mismatch_declarative-broad-focus_El-bebe-comia-muy-bien.wav,./stim/wavs/peruvian_mismatch_declarative-broad-focus_El-bebe-comia-muy-bien.wav,./stim/wavs/puertorican_mismatch_declarative-broad-focus_El-bebe-comia-muy-bien.wav,,,,,,,,,,,,,,,,,,,,,,,,,,,,,,,,,,,,,,,,,,,,,,,,,,,,,,,,
,,,,,,,600be42e32909325b20ab5f0,605b45a4d25f287719a41696,605bd8172e9e8df228163db0,Mexico,Midwest,13 or older,no,2021-03-24_20h24.37.461,empathy_intonation_perc,2020.2.10,Linux x86_64,60,,,,,,,,,,0,andalusian,0,1,1.782595,0,28,28,14,1,15,./stim/wavs/andalusian_match_declarative-narrow-focus_Mariano-habla-del-tiempo.wav,./stim/wavs/argentine_match_declarative-narrow-focus_Mariano-habla-del-tiempo.wav,./stim/wavs/castilian_match_declarative-narrow-focus_Mariano-habla-del-tiempo.wav,./stim/wavs/chilean_match_declarative-narrow-focus_Mariano-habla-del-tiempo.wav,./stim/wavs/cuban_match_declarative-narrow-focus_Mariano-habla-del-tiempo.wav,./stim/wavs/mexican_match_declarative-narrow-focus_Mariano-habla-del-tiempo.wav,./stim/wavs/peruvian_match_declarative-narrow-focus_Mariano-habla-del-tiempo.wav,./stim/wavs/puertorican_match_declarative-narrow-focus_Mariano-habla-del-tiempo.wav,,,,,,,,,,,,,,,,,,,,,,,,,,,,,,,,,,,,,,,,,,,,,,,,,,,,,,,,
,,,,,,,600be42e32909325b20ab5f0,605b45a4d25f287719a41696,605bd8172e9e8df228163db0,Mexico,Midwest,13 or older,no,2021-03-24_20h24.37.461,empathy_intonation_perc,2020.2.10,Linux x86_64,60,,,,,,,,,,0,mexican,0,1,1.20313,0,29,29,10,1,11,./stim/wavs/andalusian_match_declarative-narrow-focus_David-leia-el-libro.wav,./stim/wavs/argentine_match_declarative-narrow-focus_David-leia-el-libro.wav,./stim/wavs/castilian_match_declarative-narrow-focus_David-leia-el-libro.wav,./stim/wavs/chilean_match_declarative-narrow-focus_David-leia-el-libro.wav,./stim/wavs/cuban_match_declarative-narrow-focus_David-leia-el-libro.wav,./stim/wavs/mexican_match_declarative-narrow-focus_David-leia-el-libro.wav,./stim/wavs/peruvian_match_declarative-narrow-focus_David-leia-el-libro.wav,./stim/wavs/puertorican_match_declarative-narrow-focus_David-leia-el-libro.wav,,,,,,,,,,,,,,,,,,,,,,,,,,,,,,,,,,,,,,,,,,,,,,,,,,,,,,,,
,,,,,,,600be42e32909325b20ab5f0,605b45a4d25f287719a41696,605bd8172e9e8df228163db0,Mexico,Midwest,13 or older,no,2021-03-24_20h24.37.461,empathy_intonation_perc,2020.2.10,Linux x86_64,60,,,,,,,,,,1,chilean,0,0,1.499785,0,30,30,59,1,60,./stim/wavs/andalusian_mismatch_interrogative-total-yn_La-maestra-vive-en-Paris.wav,./stim/wavs/argentine_mismatch_interrogative-total-yn_La-maestra-vive-en-Paris.wav,./stim/wavs/castilian_mismatch_interrogative-total-yn_La-maestra-vive-en-Paris.wav,./stim/wavs/chilean_mismatch_interrogative-total-yn_La-maestra-vive-en-Paris.wav,./stim/wavs/cuban_mismatch_interrogative-total-yn_La-maestra-vive-en-Paris.wav,./stim/wavs/mexican_mismatch_interrogative-total-yn_La-maestra-vive-en-Paris.wav,./stim/wavs/peruvian_mismatch_interrogative-total-yn_La-maestra-vive-en-Paris.wav,./stim/wavs/puertorican_mismatch_interrogative-total-yn_La-maestra-vive-en-Paris.wav,,,,,,,,,,,,,,,,,,,,,,,,,,,,,,,,,,,,,,,,,,,,,,,,,,,,,,,,
,,,,,,,600be42e32909325b20ab5f0,605b45a4d25f287719a41696,605bd8172e9e8df228163db0,Mexico,Midwest,13 or older,no,2021-03-24_20h24.37.461,empathy_intonation_perc,2020.2.10,Linux x86_64,60,,,,,,,,,,0,chilean,0,1,1.350715,0,31,31,33,1,34,./stim/wavs/andalusian_mismatch_declarative-broad-focus_El-hombre-mira-la-luna.wav,./stim/wavs/argentine_mismatch_declarative-broad-focus_El-hombre-mira-la-luna.wav,./stim/wavs/castilian_mismatch_declarative-broad-focus_El-hombre-mira-la-luna.wav,./stim/wavs/chilean_mismatch_declarative-broad-focus_El-hombre-mira-la-luna.wav,./stim/wavs/cuban_mismatch_declarative-broad-focus_El-hombre-mira-la-luna.wav,./stim/wavs/mexican_mismatch_declarative-broad-focus_El-hombre-mira-la-luna.wav,./stim/wavs/peruvian_mismatch_declarative-broad-focus_El-hombre-mira-la-luna.wav,./stim/wavs/puertorican_mismatch_declarative-broad-focus_El-hombre-mira-la-luna.wav,,,,,,,,,,,,,,,,,,,,,,,,,,,,,,,,,,,,,,,,,,,,,,,,,,,,,,,,
,,,,,,,600be42e32909325b20ab5f0,605b45a4d25f287719a41696,605bd8172e9e8df228163db0,Mexico,Midwest,13 or older,no,2021-03-24_20h24.37.461,empathy_intonation_perc,2020.2.10,Linux x86_64,60,,,,,,,,,,1,andalusian,1,1,1.277905,0,32,32,61,1,62,./stim/wavs/andalusian_mismatch_interrogative-total-yn_Mi-madre-come-la-fruta.wav,./stim/wavs/argentine_mismatch_interrogative-total-yn_Mi-madre-come-la-fruta.wav,./stim/wavs/castilian_mismatch_interrogative-total-yn_Mi-madre-come-la-fruta.wav,./stim/wavs/chilean_mismatch_interrogative-total-yn_Mi-madre-come-la-fruta.wav,./stim/wavs/cuban_mismatch_interrogative-total-yn_Mi-madre-come-la-fruta.wav,./stim/wavs/mexican_mismatch_interrogative-total-yn_Mi-madre-come-la-fruta.wav,./stim/wavs/peruvian_mismatch_interrogative-total-yn_Mi-madre-come-la-fruta.wav,./stim/wavs/puertorican_mismatch_interrogative-total-yn_Mi-madre-come-la-fruta.wav,,,,,,,,,,,,,,,,,,,,,,,,,,,,,,,,,,,,,,,,,,,,,,,,,,,,,,,,
,,,,,,,600be42e32909325b20ab5f0,605b45a4d25f287719a41696,605bd8172e9e8df228163db0,Mexico,Midwest,13 or older,no,2021-03-24_20h24.37.461,empathy_intonation_perc,2020.2.10,Linux x86_64,60,,,,,,,,,,1,argentine,1,1,1.33227,0,33,33,55,1,56,./stim/wavs/andalusian_mismatch_interrogative-partial-wh_Por-que-vivia-en-Paris.wav,./stim/wavs/argentine_mismatch_interrogative-partial-wh_Por-que-vivia-en-Paris.wav,./stim/wavs/castilian_mismatch_interrogative-partial-wh_Por-que-vivia-en-Paris.wav,./stim/wavs/chilean_mismatch_interrogative-partial-wh_Por-que-vivia-en-Paris.wav,./stim/wavs/cuban_mismatch_interrogative-partial-wh_Por-que-vivia-en-Paris.wav,./stim/wavs/mexican_mismatch_interrogative-partial-wh_Por-que-vivia-en-Paris.wav,./stim/wavs/peruvian_mismatch_interrogative-partial-wh_Por-que-vivia-en-Paris.wav,./stim/wavs/puertorican_mismatch_interrogative-partial-wh_Por-que-vivia-en-Paris.wav,,,,,,,,,,,,,,,,,,,,,,,,,,,,,,,,,,,,,,,,,,,,,,,,,,,,,,,,
,,,,,,,600be42e32909325b20ab5f0,605b45a4d25f287719a41696,605bd8172e9e8df228163db0,Mexico,Midwest,13 or older,no,2021-03-24_20h24.37.461,empathy_intonation_perc,2020.2.10,Linux x86_64,60,,,,,,,,,,0,castilian,0,1,1.838185,0,34,34,3,1,4,./stim/wavs/andalusian_match_declarative-broad-focus_Emilio-ama-la-marcha.wav,./stim/wavs/argentine_match_declarative-broad-focus_Emilio-ama-la-marcha.wav,./stim/wavs/castilian_match_declarative-broad-focus_Emilio-ama-la-marcha.wav,./stim/wavs/chilean_match_declarative-broad-focus_Emilio-ama-la-marcha.wav,./stim/wavs/cuban_match_declarative-broad-focus_Emilio-ama-la-marcha.wav,./stim/wavs/mexican_match_declarative-broad-focus_Emilio-ama-la-marcha.wav,./stim/wavs/peruvian_match_declarative-broad-focus_Emilio-ama-la-marcha.wav,./stim/wavs/puertorican_match_declarative-broad-focus_Emilio-ama-la-marcha.wav,,,,,,,,,,,,,,,,,,,,,,,,,,,,,,,,,,,,,,,,,,,,,,,,,,,,,,,,
,,,,,,,600be42e32909325b20ab5f0,605b45a4d25f287719a41696,605bd8172e9e8df228163db0,Mexico,Midwest,13 or older,no,2021-03-24_20h24.37.461,empathy_intonation_perc,2020.2.10,Linux x86_64,60,,,,,,,,,,0,andalusian,0,1,1.517365,0,35,35,4,1,5,./stim/wavs/andalusian_match_declarative-broad-focus_Manuela-vende-el-carro.wav,./stim/wavs/argentine_match_declarative-broad-focus_Manuela-vende-el-carro.wav,./stim/wavs/castilian_match_declarative-broad-focus_Manuela-vende-el-carro.wav,./stim/wavs/chilean_match_declarative-broad-focus_Manuela-vende-el-carro.wav,./stim/wavs/cuban_match_declarative-broad-focus_Manuela-vende-el-carro.wav,./stim/wavs/mexican_match_declarative-broad-focus_Manuela-vende-el-carro.wav,./stim/wavs/peruvian_match_declarative-broad-focus_Manuela-vende-el-carro.wav,./stim/wavs/puertorican_match_declarative-broad-focus_Manuela-vende-el-carro.wav,,,,,,,,,,,,,,,,,,,,,,,,,,,,,,,,,,,,,,,,,,,,,,,,,,,,,,,,
,,,,,,,600be42e32909325b20ab5f0,605b45a4d25f287719a41696,605bd8172e9e8df228163db0,Mexico,Midwest,13 or older,no,2021-03-24_20h24.37.461,empathy_intonation_perc,2020.2.10,Linux x86_64,60,,,,,,,,,,0,cuban,0,1,2.24863,0,36,36,1,1,2,./stim/wavs/andalusian_match_declarative-broad-focus_Daniel-iba-a-Bolivia.wav,./stim/wavs/argentine_match_declarative-broad-focus_Daniel-iba-a-Bolivia.wav,./stim/wavs/castilian_match_declarative-broad-focus_Daniel-iba-a-Bolivia.wav,./stim/wavs/chilean_match_declarative-broad-focus_Daniel-iba-a-Bolivia.wav,./stim/wavs/cuban_match_declarative-broad-focus_Daniel-iba-a-Bolivia.wav,./stim/wavs/mexican_match_declarative-broad-focus_Daniel-iba-a-Bolivia.wav,./stim/wavs/peruvian_match_declarative-broad-focus_Daniel-iba-a-Bolivia.wav,./stim/wavs/puertorican_match_declarative-broad-focus_Daniel-iba-a-Bolivia.wav,,,,,,,,,,,,,,,,,,,,,,,,,,,,,,,,,,,,,,,,,,,,,,,,,,,,,,,,
,,,,,,,600be42e32909325b20ab5f0,605b45a4d25f287719a41696,605bd8172e9e8df228163db0,Mexico,Midwest,13 or older,no,2021-03-24_20h24.37.461,empathy_intonation_perc,2020.2.10,Linux x86_64,60,,,,,,,,,,0,peruvian,0,1,1.68196,0,37,37,46,1,47,./stim/wavs/andalusian_mismatch_declarative-narrow-focus_Mi-novio-viene-del-lago.wav,./stim/wavs/argentine_mismatch_declarative-narrow-focus_Mi-novio-viene-del-lago.wav,./stim/wavs/castilian_mismatch_declarative-narrow-focus_Mi-novio-viene-del-lago.wav,./stim/wavs/chilean_mismatch_declarative-narrow-focus_Mi-novio-viene-del-lago.wav,./stim/wavs/cuban_mismatch_declarative-narrow-focus_Mi-novio-viene-del-lago.wav,./stim/wavs/mexican_mismatch_declarative-narrow-focus_Mi-novio-viene-del-lago.wav,./stim/wavs/peruvian_mismatch_declarative-narrow-focus_Mi-novio-viene-del-lago.wav,./stim/wavs/puertorican_mismatch_declarative-narrow-focus_Mi-novio-viene-del-lago.wav,,,,,,,,,,,,,,,,,,,,,,,,,,,,,,,,,,,,,,,,,,,,,,,,,,,,,,,,
,,,,,,,600be42e32909325b20ab5f0,605b45a4d25f287719a41696,605bd8172e9e8df228163db0,Mexico,Midwest,13 or older,no,2021-03-24_20h24.37.461,empathy_intonation_perc,2020.2.10,Linux x86_64,60,,,,,,,,,,1,cuban,1,1,1.465415,0,38,38,20,1,21,./stim/wavs/andalusian_match_interrogative-partial-wh_Por-que-abre-el-regalo.wav,./stim/wavs/argentine_match_interrogative-partial-wh_Por-que-abre-el-regalo.wav,./stim/wavs/castilian_match_interrogative-partial-wh_Por-que-abre-el-regalo.wav,./stim/wavs/chilean_match_interrogative-partial-wh_Por-que-abre-el-regalo.wav,./stim/wavs/cuban_match_interrogative-partial-wh_Por-que-abre-el-regalo.wav,./stim/wavs/mexican_match_interrogative-partial-wh_Por-que-abre-el-regalo.wav,./stim/wavs/peruvian_match_interrogative-partial-wh_Por-que-abre-el-regalo.wav,./stim/wavs/puertorican_match_interrogative-partial-wh_Por-que-abre-el-regalo.wav,,,,,,,,,,,,,,,,,,,,,,,,,,,,,,,,,,,,,,,,,,,,,,,,,,,,,,,,
,,,,,,,600be42e32909325b20ab5f0,605b45a4d25f287719a41696,605bd8172e9e8df228163db0,Mexico,Midwest,13 or older,no,2021-03-24_20h24.37.461,empathy_intonation_perc,2020.2.10,Linux x86_64,60,,,,,,,,,,0,puertorican,0,1,1.48225,0,39,39,37,1,38,./stim/wavs/andalusian_mismatch_declarative-broad-focus_Mi-madre-come-la-fruta.wav,./stim/wavs/argentine_mismatch_declarative-broad-focus_Mi-madre-come-la-fruta.wav,./stim/wavs/castilian_mismatch_declarative-broad-focus_Mi-madre-come-la-fruta.wav,./stim/wavs/chilean_mismatch_declarative-broad-focus_Mi-madre-come-la-fruta.wav,./stim/wavs/cuban_mismatch_declarative-broad-focus_Mi-madre-come-la-fruta.wav,./stim/wavs/mexican_mismatch_declarative-broad-focus_Mi-madre-come-la-fruta.wav,./stim/wavs/peruvian_mismatch_declarative-broad-focus_Mi-madre-come-la-fruta.wav,./stim/wavs/puertorican_mismatch_declarative-broad-focus_Mi-madre-come-la-fruta.wav,,,,,,,,,,,,,,,,,,,,,,,,,,,,,,,,,,,,,,,,,,,,,,,,,,,,,,,,
,,,,,,,600be42e32909325b20ab5f0,605b45a4d25f287719a41696,605bd8172e9e8df228163db0,Mexico,Midwest,13 or older,no,2021-03-24_20h24.37.461,empathy_intonation_perc,2020.2.10,Linux x86_64,60,,,,,,,,,,0,chilean,0,1,1.53231,0,40,40,35,1,36,./stim/wavs/andalusian_mismatch_declarative-broad-focus_La-maestra-vive-en-Paris.wav,./stim/wavs/argentine_mismatch_declarative-broad-focus_La-maestra-vive-en-Paris.wav,./stim/wavs/castilian_mismatch_declarative-broad-focus_La-maestra-vive-en-Paris.wav,./stim/wavs/chilean_mismatch_declarative-broad-focus_La-maestra-vive-en-Paris.wav,./stim/wavs/cuban_mismatch_declarative-broad-focus_La-maestra-vive-en-Paris.wav,./stim/wavs/mexican_mismatch_declarative-broad-focus_La-maestra-vive-en-Paris.wav,./stim/wavs/peruvian_mismatch_declarative-broad-focus_La-maestra-vive-en-Paris.wav,./stim/wavs/puertorican_mismatch_declarative-broad-focus_La-maestra-vive-en-Paris.wav,,,,,,,,,,,,,,,,,,,,,,,,,,,,,,,,,,,,,,,,,,,,,,,,,,,,,,,,
,,,,,,,600be42e32909325b20ab5f0,605b45a4d25f287719a41696,605bd8172e9e8df228163db0,Mexico,Midwest,13 or older,no,2021-03-24_20h24.37.461,empathy_intonation_perc,2020.2.10,Linux x86_64,60,,,,,,,,,,1,peruvian,0,0,1.376715,0,41,41,29,1,30,./stim/wavs/andalusian_match_interrogative-total-yn_Maria-bebe-el-vino.wav,./stim/wavs/argentine_match_interrogative-total-yn_Maria-bebe-el-vino.wav,./stim/wavs/castilian_match_interrogative-total-yn_Maria-bebe-el-vino.wav,./stim/wavs/chilean_match_interrogative-total-yn_Maria-bebe-el-vino.wav,./stim/wavs/cuban_match_interrogative-total-yn_Maria-bebe-el-vino.wav,./stim/wavs/mexican_match_interrogative-total-yn_Maria-bebe-el-vino.wav,./stim/wavs/peruvian_match_interrogative-total-yn_Maria-bebe-el-vino.wav,./stim/wavs/puertorican_match_interrogative-total-yn_Maria-bebe-el-vino.wav,,,,,,,,,,,,,,,,,,,,,,,,,,,,,,,,,,,,,,,,,,,,,,,,,,,,,,,,
,,,,,,,600be42e32909325b20ab5f0,605b45a4d25f287719a41696,605bd8172e9e8df228163db0,Mexico,Midwest,13 or older,no,2021-03-24_20h24.37.461,empathy_intonation_perc,2020.2.10,Linux x86_64,60,,,,,,,,,,1,argentine,0,0,1.36577,0,42,42,30,1,31,./stim/wavs/andalusian_match_interrogative-total-yn_Mariano-habla-del-tiempo.wav,./stim/wavs/argentine_match_interrogative-total-yn_Mariano-habla-del-tiempo.wav,./stim/wavs/castilian_match_interrogative-total-yn_Mariano-habla-del-tiempo.wav,./stim/wavs/chilean_match_interrogative-total-yn_Mariano-habla-del-tiempo.wav,./stim/wavs/cuban_match_interrogative-total-yn_Mariano-habla-del-tiempo.wav,./stim/wavs/mexican_match_interrogative-total-yn_Mariano-habla-del-tiempo.wav,./stim/wavs/peruvian_match_interrogative-total-yn_Mariano-habla-del-tiempo.wav,./stim/wavs/puertorican_match_interrogative-total-yn_Mariano-habla-del-tiempo.wav,,,,,,,,,,,,,,,,,,,,,,,,,,,,,,,,,,,,,,,,,,,,,,,,,,,,,,,,
,,,,,,,600be42e32909325b20ab5f0,605b45a4d25f287719a41696,605bd8172e9e8df228163db0,Mexico,Midwest,13 or older,no,2021-03-24_20h24.37.461,empathy_intonation_perc,2020.2.10,Linux x86_64,60,,,,,,,,,,0,chilean,0,1,1.550755,0,43,43,13,1,14,./stim/wavs/andalusian_match_declarative-narrow-focus_Maria-bebe-el-vino.wav,./stim/wavs/argentine_match_declarative-narrow-focus_Maria-bebe-el-vino.wav,./stim/wavs/castilian_match_declarative-narrow-focus_Maria-bebe-el-vino.wav,./stim/wavs/chilean_match_declarative-narrow-focus_Maria-bebe-el-vino.wav,./stim/wavs/cuban_match_declarative-narrow-focus_Maria-bebe-el-vino.wav,./stim/wavs/mexican_match_declarative-narrow-focus_Maria-bebe-el-vino.wav,./stim/wavs/peruvian_match_declarative-narrow-focus_Maria-bebe-el-vino.wav,./stim/wavs/puertorican_match_declarative-narrow-focus_Maria-bebe-el-vino.wav,,,,,,,,,,,,,,,,,,,,,,,,,,,,,,,,,,,,,,,,,,,,,,,,,,,,,,,,
,,,,,,,600be42e32909325b20ab5f0,605b45a4d25f287719a41696,605bd8172e9e8df228163db0,Mexico,Midwest,13 or older,no,2021-03-24_20h24.37.461,empathy_intonation_perc,2020.2.10,Linux x86_64,60,,,,,,,,,,1,cuban,1,1,1.309365,0,44,44,18,1,19,./stim/wavs/andalusian_match_interrogative-partial-wh_Cuando-lleva-el-abrigo.wav,./stim/wavs/argentine_match_interrogative-partial-wh_Cuando-lleva-el-abrigo.wav,./stim/wavs/castilian_match_interrogative-partial-wh_Cuando-lleva-el-abrigo.wav,./stim/wavs/chilean_match_interrogative-partial-wh_Cuando-lleva-el-abrigo.wav,./stim/wavs/cuban_match_interrogative-partial-wh_Cuando-lleva-el-abrigo.wav,./stim/wavs/mexican_match_interrogative-partial-wh_Cuando-lleva-el-abrigo.wav,./stim/wavs/peruvian_match_interrogative-partial-wh_Cuando-lleva-el-abrigo.wav,./stim/wavs/puertorican_match_interrogative-partial-wh_Cuando-lleva-el-abrigo.wav,,,,,,,,,,,,,,,,,,,,,,,,,,,,,,,,,,,,,,,,,,,,,,,,,,,,,,,,
,,,,,,,600be42e32909325b20ab5f0,605b45a4d25f287719a41696,605bd8172e9e8df228163db0,Mexico,Midwest,13 or older,no,2021-03-24_20h24.37.461,empathy_intonation_perc,2020.2.10,Linux x86_64,60,,,,,,,,,,0,chilean,0,1,1.683635,0,45,45,34,1,35,./stim/wavs/andalusian_mismatch_declarative-broad-focus_El-nino-oye-el-rio.wav,./stim/wavs/argentine_mismatch_declarative-broad-focus_El-nino-oye-el-rio.wav,./stim/wavs/castilian_mismatch_declarative-broad-focus_El-nino-oye-el-rio.wav,./stim/wavs/chilean_mismatch_declarative-broad-focus_El-nino-oye-el-rio.wav,./stim/wavs/cuban_mismatch_declarative-broad-focus_El-nino-oye-el-rio.wav,./stim/wavs/mexican_mismatch_declarative-broad-focus_El-nino-oye-el-rio.wav,./stim/wavs/peruvian_mismatch_declarative-broad-focus_El-nino-oye-el-rio.wav,./stim/wavs/puertorican_mismatch_declarative-broad-focus_El-nino-oye-el-rio.wav,,,,,,,,,,,,,,,,,,,,,,,,,,,,,,,,,,,,,,,,,,,,,,,,,,,,,,,,
,,,,,,,600be42e32909325b20ab5f0,605b45a4d25f287719a41696,605bd8172e9e8df228163db0,Mexico,Midwest,13 or older,no,2021-03-24_20h24.37.461,empathy_intonation_perc,2020.2.10,Linux x86_64,60,,,,,,,,,,1,puertorican,1,1,1.497845,0,46,46,48,1,49,./stim/wavs/andalusian_mismatch_interrogative-partial-wh_Cuando-comia-la-fruta.wav,./stim/wavs/argentine_mismatch_interrogative-partial-wh_Cuando-comia-la-fruta.wav,./stim/wavs/castilian_mismatch_interrogative-partial-wh_Cuando-comia-la-fruta.wav,./stim/wavs/chilean_mismatch_interrogative-partial-wh_Cuando-comia-la-fruta.wav,./stim/wavs/cuban_mismatch_interrogative-partial-wh_Cuando-comia-la-fruta.wav,./stim/wavs/mexican_mismatch_interrogative-partial-wh_Cuando-comia-la-fruta.wav,./stim/wavs/peruvian_mismatch_interrogative-partial-wh_Cuando-comia-la-fruta.wav,./stim/wavs/puertorican_mismatch_interrogative-partial-wh_Cuando-comia-la-fruta.wav,,,,,,,,,,,,,,,,,,,,,,,,,,,,,,,,,,,,,,,,,,,,,,,,,,,,,,,,
,,,,,,,600be42e32909325b20ab5f0,605b45a4d25f287719a41696,605bd8172e9e8df228163db0,Mexico,Midwest,13 or older,no,2021-03-24_20h24.37.461,empathy_intonation_perc,2020.2.10,Linux x86_64,60,,,,,,,,,,1,castilian,0,0,1.55038,0,47,47,27,1,28,./stim/wavs/andalusian_match_interrogative-total-yn_Emilio-ama-la-marcha.wav,./stim/wavs/argentine_match_interrogative-total-yn_Emilio-ama-la-marcha.wav,./stim/wavs/castilian_match_interrogative-total-yn_Emilio-ama-la-marcha.wav,./stim/wavs/chilean_match_interrogative-total-yn_Emilio-ama-la-marcha.wav,./stim/wavs/cuban_match_interrogative-total-yn_Emilio-ama-la-marcha.wav,./stim/wavs/mexican_match_interrogative-total-yn_Emilio-ama-la-marcha.wav,./stim/wavs/peruvian_match_interrogative-total-yn_Emilio-ama-la-marcha.wav,./stim/wavs/puertorican_match_interrogative-total-yn_Emilio-ama-la-marcha.wav,,,,,,,,,,,,,,,,,,,,,,,,,,,,,,,,,,,,,,,,,,,,,,,,,,,,,,,,
,,,,,,,600be42e32909325b20ab5f0,605b45a4d25f287719a41696,605bd8172e9e8df228163db0,Mexico,Midwest,13 or older,no,2021-03-24_20h24.37.461,empathy_intonation_perc,2020.2.10,Linux x86_64,60,,,,,,,,,,0,chilean,0,1,1.589305,0,48,48,47,1,48,./stim/wavs/andalusian_mismatch_declarative-narrow-focus_Mi-tia-odia-la-lluvia.wav,./stim/wavs/argentine_mismatch_declarative-narrow-focus_Mi-tia-odia-la-lluvia.wav,./stim/wavs/castilian_mismatch_declarative-narrow-focus_Mi-tia-odia-la-lluvia.wav,./stim/wavs/chilean_mismatch_declarative-narrow-focus_Mi-tia-odia-la-lluvia.wav,./stim/wavs/cuban_mismatch_declarative-narrow-focus_Mi-tia-odia-la-lluvia.wav,./stim/wavs/mexican_mismatch_declarative-narrow-focus_Mi-tia-odia-la-lluvia.wav,./stim/wavs/peruvian_mismatch_declarative-narrow-focus_Mi-tia-odia-la-lluvia.wav,./stim/wavs/puertorican_mismatch_declarative-narrow-focus_Mi-tia-odia-la-lluvia.wav,,,,,,,,,,,,,,,,,,,,,,,,,,,,,,,,,,,,,,,,,,,,,,,,,,,,,,,,
,,,,,,,600be42e32909325b20ab5f0,605b45a4d25f287719a41696,605bd8172e9e8df228163db0,Mexico,Midwest,13 or older,no,2021-03-24_20h24.37.461,empathy_intonation_perc,2020.2.10,Linux x86_64,60,,,,,,,,,,0,mexican,0,1,1.51558,0,49,49,6,1,7,./stim/wavs/andalusian_match_declarative-broad-focus_Mariano-habla-del-tiempo.wav,./stim/wavs/argentine_match_declarative-broad-focus_Mariano-habla-del-tiempo.wav,./stim/wavs/castilian_match_declarative-broad-focus_Mariano-habla-del-tiempo.wav,./stim/wavs/chilean_match_declarative-broad-focus_Mariano-habla-del-tiempo.wav,./stim/wavs/cuban_match_declarative-broad-focus_Mariano-habla-del-tiempo.wav,./stim/wavs/mexican_match_declarative-broad-focus_Mariano-habla-del-tiempo.wav,./stim/wavs/peruvian_match_declarative-broad-focus_Mariano-habla-del-tiempo.wav,./stim/wavs/puertorican_match_declarative-broad-focus_Mariano-habla-del-tiempo.wav,,,,,,,,,,,,,,,,,,,,,,,,,,,,,,,,,,,,,,,,,,,,,,,,,,,,,,,,
,,,,,,,600be42e32909325b20ab5f0,605b45a4d25f287719a41696,605bd8172e9e8df228163db0,Mexico,Midwest,13 or older,no,2021-03-24_20h24.37.461,empathy_intonation_perc,2020.2.10,Linux x86_64,60,,,,,,,,,,0,cuban,0,1,1.96556,0,50,50,2,1,3,./stim/wavs/andalusian_match_declarative-broad-focus_David-leia-el-libro.wav,./stim/wavs/argentine_match_declarative-broad-focus_David-leia-el-libro.wav,./stim/wavs/castilian_match_declarative-broad-focus_David-leia-el-libro.wav,./stim/wavs/chilean_match_declarative-broad-focus_David-leia-el-libro.wav,./stim/wavs/cuban_match_declarative-broad-focus_David-leia-el-libro.wav,./stim/wavs/mexican_match_declarative-broad-focus_David-leia-el-libro.wav,./stim/wavs/peruvian_match_declarative-broad-focus_David-leia-el-libro.wav,./stim/wavs/puertorican_match_declarative-broad-focus_David-leia-el-libro.wav,,,,,,,,,,,,,,,,,,,,,,,,,,,,,,,,,,,,,,,,,,,,,,,,,,,,,,,,
,,,,,,,600be42e32909325b20ab5f0,605b45a4d25f287719a41696,605bd8172e9e8df228163db0,Mexico,Midwest,13 or older,no,2021-03-24_20h24.37.461,empathy_intonation_perc,2020.2.10,Linux x86_64,60,,,,,,,,,,0,chilean,0,1,1.418245,0,51,51,39,1,40,./stim/wavs/andalusian_mismatch_declarative-broad-focus_Mi-tia-odia-la-lluvia.wav,./stim/wavs/argentine_mismatch_declarative-broad-focus_Mi-tia-odia-la-lluvia.wav,./stim/wavs/castilian_mismatch_declarative-broad-focus_Mi-tia-odia-la-lluvia.wav,./stim/wavs/chilean_mismatch_declarative-broad-focus_Mi-tia-odia-la-lluvia.wav,./stim/wavs/cuban_mismatch_declarative-broad-focus_Mi-tia-odia-la-lluvia.wav,./stim/wavs/mexican_mismatch_declarative-broad-focus_Mi-tia-odia-la-lluvia.wav,./stim/wavs/peruvian_mismatch_declarative-broad-focus_Mi-tia-odia-la-lluvia.wav,./stim/wavs/puertorican_mismatch_declarative-broad-focus_Mi-tia-odia-la-lluvia.wav,,,,,,,,,,,,,,,,,,,,,,,,,,,,,,,,,,,,,,,,,,,,,,,,,,,,,,,,
,,,,,,,600be42e32909325b20ab5f0,605b45a4d25f287719a41696,605bd8172e9e8df228163db0,Mexico,Midwest,13 or older,no,2021-03-24_20h24.37.461,empathy_intonation_perc,2020.2.10,Linux x86_64,60,,,,,,,,,,1,andalusian,1,1,1.68215,0,52,52,21,1,22,./stim/wavs/andalusian_match_interrogative-partial-wh_Por-que-ama-la-navidad.wav,./stim/wavs/argentine_match_interrogative-partial-wh_Por-que-ama-la-navidad.wav,./stim/wavs/castilian_match_interrogative-partial-wh_Por-que-ama-la-navidad.wav,./stim/wavs/chilean_match_interrogative-partial-wh_Por-que-ama-la-navidad.wav,./stim/wavs/cuban_match_interrogative-partial-wh_Por-que-ama-la-navidad.wav,./stim/wavs/mexican_match_interrogative-partial-wh_Por-que-ama-la-navidad.wav,./stim/wavs/peruvian_match_interrogative-partial-wh_Por-que-ama-la-navidad.wav,./stim/wavs/puertorican_match_interrogative-partial-wh_Por-que-ama-la-navidad.wav,,,,,,,,,,,,,,,,,,,,,,,,,,,,,,,,,,,,,,,,,,,,,,,,,,,,,,,,
,,,,,,,600be42e32909325b20ab5f0,605b45a4d25f287719a41696,605bd8172e9e8df228163db0,Mexico,Midwest,13 or older,no,2021-03-24_20h24.37.461,empathy_intonation_perc,2020.2.10,Linux x86_64,60,,,,,,,,,,1,chilean,1,1,1.4506,0,53,53,19,1,20,./stim/wavs/andalusian_match_interrogative-partial-wh_Cuando-vendia-el-carro.wav,./stim/wavs/argentine_match_interrogative-partial-wh_Cuando-vendia-el-carro.wav,./stim/wavs/castilian_match_interrogative-partial-wh_Cuando-vendia-el-carro.wav,./stim/wavs/chilean_match_interrogative-partial-wh_Cuando-vendia-el-carro.wav,./stim/wavs/cuban_match_interrogative-partial-wh_Cuando-vendia-el-carro.wav,./stim/wavs/mexican_match_interrogative-partial-wh_Cuando-vendia-el-carro.wav,./stim/wavs/peruvian_match_interrogative-partial-wh_Cuando-vendia-el-carro.wav,./stim/wavs/puertorican_match_interrogative-partial-wh_Cuando-vendia-el-carro.wav,,,,,,,,,,,,,,,,,,,,,,,,,,,,,,,,,,,,,,,,,,,,,,,,,,,,,,,,
,,,,,,,600be42e32909325b20ab5f0,605b45a4d25f287719a41696,605bd8172e9e8df228163db0,Mexico,Midwest,13 or older,no,2021-03-24_20h24.37.461,empathy_intonation_perc,2020.2.10,Linux x86_64,60,,,,,,,,,,0,castilian,0,1,1.80367,0,54,54,36,1,37,./stim/wavs/andalusian_mismatch_declarative-broad-focus_La-nina-lava-el-plato.wav,./stim/wavs/argentine_mismatch_declarative-broad-focus_La-nina-lava-el-plato.wav,./stim/wavs/castilian_mismatch_declarative-broad-focus_La-nina-lava-el-plato.wav,./stim/wavs/chilean_mismatch_declarative-broad-focus_La-nina-lava-el-plato.wav,./stim/wavs/cuban_mismatch_declarative-broad-focus_La-nina-lava-el-plato.wav,./stim/wavs/mexican_mismatch_declarative-broad-focus_La-nina-lava-el-plato.wav,./stim/wavs/peruvian_mismatch_declarative-broad-focus_La-nina-lava-el-plato.wav,./stim/wavs/puertorican_mismatch_declarative-broad-focus_La-nina-lava-el-plato.wav,,,,,,,,,,,,,,,,,,,,,,,,,,,,,,,,,,,,,,,,,,,,,,,,,,,,,,,,
,,,,,,,600be42e32909325b20ab5f0,605b45a4d25f287719a41696,605bd8172e9e8df228163db0,Mexico,Midwest,13 or older,no,2021-03-24_20h24.37.461,empathy_intonation_perc,2020.2.10,Linux x86_64,60,,,,,,,,,,1,cuban,1,1,1.294825,0,55,55,16,1,17,./stim/wavs/andalusian_match_interrogative-partial-wh_Cuando-bebia-el-vino.wav,./stim/wavs/argentine_match_interrogative-partial-wh_Cuando-bebia-el-vino.wav,./stim/wavs/castilian_match_interrogative-partial-wh_Cuando-bebia-el-vino.wav,./stim/wavs/chilean_match_interrogative-partial-wh_Cuando-bebia-el-vino.wav,./stim/wavs/cuban_match_interrogative-partial-wh_Cuando-bebia-el-vino.wav,./stim/wavs/mexican_match_interrogative-partial-wh_Cuando-bebia-el-vino.wav,./stim/wavs/peruvian_match_interrogative-partial-wh_Cuando-bebia-el-vino.wav,./stim/wavs/puertorican_match_interrogative-partial-wh_Cuando-bebia-el-vino.wav,,,,,,,,,,,,,,,,,,,,,,,,,,,,,,,,,,,,,,,,,,,,,,,,,,,,,,,,
,,,,,,,600be42e32909325b20ab5f0,605b45a4d25f287719a41696,605bd8172e9e8df228163db0,Mexico,Midwest,13 or older,no,2021-03-24_20h24.37.461,empathy_intonation_perc,2020.2.10,Linux x86_64,60,,,,,,,,,,1,andalusian,0,0,1.416345,0,56,56,57,1,58,./stim/wavs/andalusian_mismatch_interrogative-total-yn_El-hombre-mira-la-luna.wav,./stim/wavs/argentine_mismatch_interrogative-total-yn_El-hombre-mira-la-luna.wav,./stim/wavs/castilian_mismatch_interrogative-total-yn_El-hombre-mira-la-luna.wav,./stim/wavs/chilean_mismatch_interrogative-total-yn_El-hombre-mira-la-luna.wav,./stim/wavs/cuban_mismatch_interrogative-total-yn_El-hombre-mira-la-luna.wav,./stim/wavs/mexican_mismatch_interrogative-total-yn_El-hombre-mira-la-luna.wav,./stim/wavs/peruvian_mismatch_interrogative-total-yn_El-hombre-mira-la-luna.wav,./stim/wavs/puertorican_mismatch_interrogative-total-yn_El-hombre-mira-la-luna.wav,,,,,,,,,,,,,,,,,,,,,,,,,,,,,,,,,,,,,,,,,,,,,,,,,,,,,,,,
,,,,,,,600be42e32909325b20ab5f0,605b45a4d25f287719a41696,605bd8172e9e8df228163db0,Mexico,Midwest,13 or older,no,2021-03-24_20h24.37.461,empathy_intonation_perc,2020.2.10,Linux x86_64,60,,,,,,,,,,1,chilean,1,1,1.71477,0,57,57,53,1,54,./stim/wavs/andalusian_mismatch_interrogative-partial-wh_Por-que-oia-el-rio.wav,./stim/wavs/argentine_mismatch_interrogative-partial-wh_Por-que-oia-el-rio.wav,./stim/wavs/castilian_mismatch_interrogative-partial-wh_Por-que-oia-el-rio.wav,./stim/wavs/chilean_mismatch_interrogative-partial-wh_Por-que-oia-el-rio.wav,./stim/wavs/cuban_mismatch_interrogative-partial-wh_Por-que-oia-el-rio.wav,./stim/wavs/mexican_mismatch_interrogative-partial-wh_Por-que-oia-el-rio.wav,./stim/wavs/peruvian_mismatch_interrogative-partial-wh_Por-que-oia-el-rio.wav,./stim/wavs/puertorican_mismatch_interrogative-partial-wh_Por-que-oia-el-rio.wav,,,,,,,,,,,,,,,,,,,,,,,,,,,,,,,,,,,,,,,,,,,,,,,,,,,,,,,,
,,,,,,,600be42e32909325b20ab5f0,605b45a4d25f287719a41696,605bd8172e9e8df228163db0,Mexico,Midwest,13 or older,no,2021-03-24_20h24.37.461,empathy_intonation_perc,2020.2.10,Linux x86_64,60,,,,,,,,,,0,andalusian,0,1,1.489565,0,58,58,45,1,46,./stim/wavs/andalusian_mismatch_declarative-narrow-focus_Mi-madre-come-la-fruta.wav,./stim/wavs/argentine_mismatch_declarative-narrow-focus_Mi-madre-come-la-fruta.wav,./stim/wavs/castilian_mismatch_declarative-narrow-focus_Mi-madre-come-la-fruta.wav,./stim/wavs/chilean_mismatch_declarative-narrow-focus_Mi-madre-come-la-fruta.wav,./stim/wavs/cuban_mismatch_declarative-narrow-focus_Mi-madre-come-la-fruta.wav,./stim/wavs/mexican_mismatch_declarative-narrow-focus_Mi-madre-come-la-fruta.wav,./stim/wavs/peruvian_mismatch_declarative-narrow-focus_Mi-madre-come-la-fruta.wav,./stim/wavs/puertorican_mismatch_declarative-narrow-focus_Mi-madre-come-la-fruta.wav,,,,,,,,,,,,,,,,,,,,,,,,,,,,,,,,,,,,,,,,,,,,,,,,,,,,,,,,
,,,,,,,600be42e32909325b20ab5f0,605b45a4d25f287719a41696,605bd8172e9e8df228163db0,Mexico,Midwest,13 or older,no,2021-03-24_20h24.37.461,empathy_intonation_perc,2020.2.10,Linux x86_64,60,,,,,,,,,,1,argentine,0,0,1.464775,0,59,59,60,1,61,./stim/wavs/andalusian_mismatch_interrogative-total-yn_La-nina-lava-el-plato.wav,./stim/wavs/argentine_mismatch_interrogative-total-yn_La-nina-lava-el-plato.wav,./stim/wavs/castilian_mismatch_interrogative-total-yn_La-nina-lava-el-plato.wav,./stim/wavs/chilean_mismatch_interrogative-total-yn_La-nina-lava-el-plato.wav,./stim/wavs/cuban_mismatch_interrogative-total-yn_La-nina-lava-el-plato.wav,./stim/wavs/mexican_mismatch_interrogative-total-yn_La-nina-lava-el-plato.wav,./stim/wavs/peruvian_mismatch_interrogative-total-yn_La-nina-lava-el-plato.wav,./stim/wavs/puertorican_mismatch_interrogative-total-yn_La-nina-lava-el-plato.wav,,,,,,,,,,,,,,,,,,,,,,,,,,,,,,,,,,,,,,,,,,,,,,,,,,,,,,,,
,,,,,,,600be42e32909325b20ab5f0,605b45a4d25f287719a41696,605bd8172e9e8df228163db0,Mexico,Midwest,13 or older,no,2021-03-24_20h24.37.461,empathy_intonation_perc,2020.2.10,Linux x86_64,60,,,,,,,,,,0,mexican,0,1,1.578615,0,60,60,40,1,41,./stim/wavs/andalusian_mismatch_declarative-narrow-focus_El-bebe-comia-muy-bien.wav,./stim/wavs/argentine_mismatch_declarative-narrow-focus_El-bebe-comia-muy-bien.wav,./stim/wavs/castilian_mismatch_declarative-narrow-focus_El-bebe-comia-muy-bien.wav,./stim/wavs/chilean_mismatch_declarative-narrow-focus_El-bebe-comia-muy-bien.wav,./stim/wavs/cuban_mismatch_declarative-narrow-focus_El-bebe-comia-muy-bien.wav,./stim/wavs/mexican_mismatch_declarative-narrow-focus_El-bebe-comia-muy-bien.wav,./stim/wavs/peruvian_mismatch_declarative-narrow-focus_El-bebe-comia-muy-bien.wav,./stim/wavs/puertorican_mismatch_declarative-narrow-focus_El-bebe-comia-muy-bien.wav,,,,,,,,,,,,,,,,,,,,,,,,,,,,,,,,,,,,,,,,,,,,,,,,,,,,,,,,
,,,,,,,600be42e32909325b20ab5f0,605b45a4d25f287719a41696,605bd8172e9e8df228163db0,Mexico,Midwest,13 or older,no,2021-03-24_20h24.37.461,empathy_intonation_perc,2020.2.10,Linux x86_64,60,,,,,,,,,,1,peruvian,1,1,1.647035,0,61,61,25,1,26,./stim/wavs/andalusian_match_interrogative-total-yn_Daniel-iba-a-Bolivia.wav,./stim/wavs/argentine_match_interrogative-total-yn_Daniel-iba-a-Bolivia.wav,./stim/wavs/castilian_match_interrogative-total-yn_Daniel-iba-a-Bolivia.wav,./stim/wavs/chilean_match_interrogative-total-yn_Daniel-iba-a-Bolivia.wav,./stim/wavs/cuban_match_interrogative-total-yn_Daniel-iba-a-Bolivia.wav,./stim/wavs/mexican_match_interrogative-total-yn_Daniel-iba-a-Bolivia.wav,./stim/wavs/peruvian_match_interrogative-total-yn_Daniel-iba-a-Bolivia.wav,./stim/wavs/puertorican_match_interrogative-total-yn_Daniel-iba-a-Bolivia.wav,,,,,,,,,,,,,,,,,,,,,,,,,,,,,,,,,,,,,,,,,,,,,,,,,,,,,,,,
,,,,,,,600be42e32909325b20ab5f0,605b45a4d25f287719a41696,605bd8172e9e8df228163db0,Mexico,Midwest,13 or older,no,2021-03-24_20h24.37.461,empathy_intonation_perc,2020.2.10,Linux x86_64,60,,,,,,,,,,0,castilian,0,1,2.483875,0,62,62,7,1,8,./stim/wavs/andalusian_match_declarative-broad-focus_Marta-abre-el-regalo.wav,./stim/wavs/argentine_match_declarative-broad-focus_Marta-abre-el-regalo.wav,./stim/wavs/castilian_match_declarative-broad-focus_Marta-abre-el-regalo.wav,./stim/wavs/chilean_match_declarative-broad-focus_Marta-abre-el-regalo.wav,./stim/wavs/cuban_match_declarative-broad-focus_Marta-abre-el-regalo.wav,./stim/wavs/mexican_match_declarative-broad-focus_Marta-abre-el-regalo.wav,./stim/wavs/peruvian_match_declarative-broad-focus_Marta-abre-el-regalo.wav,./stim/wavs/puertorican_match_declarative-broad-focus_Marta-abre-el-regalo.wav,,,,,,,,,,,,,,,,,,,,,,,,,,,,,,,,,,,,,,,,,,,,,,,,,,,,,,,,
,,,,,,,600be42e32909325b20ab5f0,605b45a4d25f287719a41696,605bd8172e9e8df228163db0,Mexico,Midwest,13 or older,no,2021-03-24_20h24.37.461,empathy_intonation_perc,2020.2.10,Linux x86_64,60,,,,,,,,,,1,puertorican,1,1,1.25021,0,63,63,54,1,55,./stim/wavs/andalusian_mismatch_interrogative-partial-wh_Por-que-venia-del-lago.wav,./stim/wavs/argentine_mismatch_interrogative-partial-wh_Por-que-venia-del-lago.wav,./stim/wavs/castilian_mismatch_interrogative-partial-wh_Por-que-venia-del-lago.wav,./stim/wavs/chilean_mismatch_interrogative-partial-wh_Por-que-venia-del-lago.wav,./stim/wavs/cuban_mismatch_interrogative-partial-wh_Por-que-venia-del-lago.wav,./stim/wavs/mexican_mismatch_interrogative-partial-wh_Por-que-venia-del-lago.wav,./stim/wavs/peruvian_mismatch_interrogative-partial-wh_Por-que-venia-del-lago.wav,./stim/wavs/puertorican_mismatch_interrogative-partial-wh_Por-que-venia-del-lago.wav,,,,,,,,,,,,,,,,,,,,,,,,,,,,,,,,,,,,,,,,,,,,,,,,,,,,,,,,
,,,,,,,600be42e32909325b20ab5f0,605b45a4d25f287719a41696,605bd8172e9e8df228163db0,Mexico,Midwest,13 or older,no,2021-03-24_20h24.37.461,empathy_intonation_perc,2020.2.10,Linux x86_64,60,,,,,,,,,,,,,,,,,,,,,,,,,,,,,h,1,6.699475,0,0,0,0,1,,,,,,,,,,,,,,,,,,,,,,,,,,,,,,,,,,,,,,,,,,,,,,,,
,,,,,"Great! Now we will move on. The next task consists of about 60 trials, in each of which you will see a string of letters. 
  
  Your task is to decide whether this is a real Spanish word or not.",(press the spacebar to continue),600be42e32909325b20ab5f0,605b45a4d25f287719a41696,605bd8172e9e8df228163db0,Mexico,Midwest,13 or older,no,2021-03-24_20h24.37.461,empathy_intonation_perc,2020.2.10,Linux x86_64,60,,,,,,,,,,,,,,,,,,,,,,,,,,,,,,,,,,,,,0,0,0,0,1,,,,,,,,,,,,,,,,,,,,,,,,,,,,,,,,,,,,,,,,,,,
,,,,,"If you think it is an existing Spanish word, you type '1' (for 'REAL'), and if you think it is not an existing Spanish word, you type '0' (for 'FAKE').",(press the spacebar to continue),600be42e32909325b20ab5f0,605b45a4d25f287719a41696,605bd8172e9e8df228163db0,Mexico,Midwest,13 or older,no,2021-03-24_20h24.37.461,empathy_intonation_perc,2020.2.10,Linux x86_64,60,,,,,,,,,,,,,,,,,,,,,,,,,,,,,,,,,,,,,0,1,1,1,1,,,,,,,,,,,,,,,,,,,,,,,,,,,,,,,,,,,,,,,,,,,
,,,,,"If you are sure that the word exists, even though you dont know its exact meaning, you may still respond '1' (REAL). 
  
  But if you are not sure if it is an existing word, you should respond '0' (FAKE).
  
  Let's do a practice round...",(press the spacebar to continue),600be42e32909325b20ab5f0,605b45a4d25f287719a41696,605bd8172e9e8df228163db0,Mexico,Midwest,13 or older,no,2021-03-24_20h24.37.461,empathy_intonation_perc,2020.2.10,Linux x86_64,60,,,,,,,,,,,,,,,,,,,,,,,,,,,,,,,,,,,,,0,2,2,2,1,,,,,,,,,,,,,,,,,,,,,,,,,,,,,,,,,,,,,,,,,,,
,,,,,,,600be42e32909325b20ab5f0,605b45a4d25f287719a41696,605bd8172e9e8df228163db0,Mexico,Midwest,13 or older,no,2021-03-24_20h24.37.461,empathy_intonation_perc,2020.2.10,Linux x86_64,60,,,,,,,,,,0,,,,,,,,,,,,,,,,,,,,,,,,,,,,,,,,0,1,2.52675,0,0,0,0,1,0,depiste,REAL,FAKE,,,,,,,,,,,,,,,,,,,,,,,,,,,,,,,
,,,,,,,600be42e32909325b20ab5f0,605b45a4d25f287719a41696,605bd8172e9e8df228163db0,Mexico,Midwest,13 or older,no,2021-03-24_20h24.37.461,empathy_intonation_perc,2020.2.10,Linux x86_64,60,,,,,,,,,,1,,,,,,,,,,,,,,,,,,,,,,,,,,,,,,,,1,1,0.916135,0,1,1,1,1,0,s,REAL,FAKE,,,,,,,,,,,,,,,,,,,,,,,,,,,,,,,
,,,,,,,600be42e32909325b20ab5f0,605b45a4d25f287719a41696,605bd8172e9e8df228163db0,Mexico,Midwest,13 or older,no,2021-03-24_20h24.37.461,empathy_intonation_perc,2020.2.10,Linux x86_64,60,,,,,,,,,,0,,,,,,,,,,,,,,,,,,,,,,,,,,,,,,,,1,0,1.4433,0,2,2,2,1,0,con,REAL,FAKE,,,,,,,,,,,,,,,,,,,,,,,,,,,,,,,
,,,,,,,600be42e32909325b20ab5f0,605b45a4d25f287719a41696,605bd8172e9e8df228163db0,Mexico,Midwest,13 or older,no,2021-03-24_20h24.37.461,empathy_intonation_perc,2020.2.10,Linux x86_64,60,,,,,,,,,,0,,,,,,,,,,,,,,,,,,,,,,,,,,,,,,,,0,1,1.362695,0,3,3,3,1,0,calpar,REAL,FAKE,,,,,,,,,,,,,,,,,,,,,,,,,,,,,,,
,,,,,,,600be42e32909325b20ab5f0,605b45a4d25f287719a41696,605bd8172e9e8df228163db0,Mexico,Midwest,13 or older,no,2021-03-24_20h24.37.461,empathy_intonation_perc,2020.2.10,Linux x86_64,60,,,,,,,,,,0,,,,,,,,,,,,,,,,,,,,,,,,,,,,,,,,0,1,0.763255,0,4,4,4,1,0,joten,REAL,FAKE,,,,,,,,,,,,,,,,,,,,,,,,,,,,,,,
,,,,,,,600be42e32909325b20ab5f0,605b45a4d25f287719a41696,605bd8172e9e8df228163db0,Mexico,Midwest,13 or older,no,2021-03-24_20h24.37.461,empathy_intonation_perc,2020.2.10,Linux x86_64,60,,,,,,,,,,1,,,,,,,,,,,,,,,,,,,,,,,,,,,,,,,,1,1,1.762565,0,5,5,5,1,0,sacapuntas,REAL,FAKE,,,,,,,,,,,,,,,,,,,,,,,,,,,,,,,
,,,,,,,600be42e32909325b20ab5f0,605b45a4d25f287719a41696,605bd8172e9e8df228163db0,Mexico,Midwest,13 or older,no,2021-03-24_20h24.37.461,empathy_intonation_perc,2020.2.10,Linux x86_64,60,,,,,,,,,,0,,,,,,,,,,,,,,,,,,,,,,,,,,,,,,,,1,0,0.715925,0,6,6,6,1,0,priba,REAL,FAKE,,,,,,,,,,,,,,,,,,,,,,,,,,,,,,,
,,,,,,,600be42e32909325b20ab5f0,605b45a4d25f287719a41696,605bd8172e9e8df228163db0,Mexico,Midwest,13 or older,no,2021-03-24_20h24.37.461,empathy_intonation_perc,2020.2.10,Linux x86_64,60,,,,,,,,,,0,,,,,,,,,,,,,,,,,,,,,,,,,,,,,,,,0,1,1.159875,0,7,7,7,1,0,pelasula,REAL,FAKE,,,,,,,,,,,,,,,,,,,,,,,,,,,,,,,
,,,,,,,600be42e32909325b20ab5f0,605b45a4d25f287719a41696,605bd8172e9e8df228163db0,Mexico,Midwest,13 or older,no,2021-03-24_20h24.37.461,empathy_intonation_perc,2020.2.10,Linux x86_64,60,,,,,,,,,,1,,,,,,,,,,,,,,,,,,,,,,,,,,,,,,,,1,1,0.698045,0,8,8,8,1,0,bien,REAL,FAKE,,,,,,,,,,,,,,,,,,,,,,,,,,,,,,,
,,,,,,,600be42e32909325b20ab5f0,605b45a4d25f287719a41696,605bd8172e9e8df228163db0,Mexico,Midwest,13 or older,no,2021-03-24_20h24.37.461,empathy_intonation_perc,2020.2.10,Linux x86_64,60,,,,,,,,,,1,,,,,,,,,,,,,,,,,,,,,,,,,,,,,,,,1,1,0.63376,0,9,9,9,1,0,casa,REAL,FAKE,,,,,,,,,,,,,,,,,,,,,,,,,,,,,,,
,,,,,,,600be42e32909325b20ab5f0,605b45a4d25f287719a41696,605bd8172e9e8df228163db0,Mexico,Midwest,13 or older,no,2021-03-24_20h24.37.461,empathy_intonation_perc,2020.2.10,Linux x86_64,60,,,,,,,,,,0,,,,,,,,,,,,,,,,,,,,,,,,,,,,,,,,1,0,0.616255,0,10,10,10,1,0,lejo,REAL,FAKE,,,,,,,,,,,,,,,,,,,,,,,,,,,,,,,
,,,,,,,600be42e32909325b20ab5f0,605b45a4d25f287719a41696,605bd8172e9e8df228163db0,Mexico,Midwest,13 or older,no,2021-03-24_20h24.37.461,empathy_intonation_perc,2020.2.10,Linux x86_64,60,,,,,,,,,,0,,,,,,,,,,,,,,,,,,,,,,,,,,,,,,,,0,1,0.97963,0,11,11,11,1,0,pretantas,REAL,FAKE,,,,,,,,,,,,,,,,,,,,,,,,,,,,,,,
,,,,,,,600be42e32909325b20ab5f0,605b45a4d25f287719a41696,605bd8172e9e8df228163db0,Mexico,Midwest,13 or older,no,2021-03-24_20h24.37.461,empathy_intonation_perc,2020.2.10,Linux x86_64,60,,,,,,,,,,1,,,,,,,,,,,,,,,,,,,,,,,,,,,,,,,,,,,,,,,,52,camisa,,,1,1,1.1987,0,0,0,51,1,REAL,FAKE,,,,,,,,,,,,,,,,,,,,,
,,,,,,,600be42e32909325b20ab5f0,605b45a4d25f287719a41696,605bd8172e9e8df228163db0,Mexico,Midwest,13 or older,no,2021-03-24_20h24.37.461,empathy_intonation_perc,2020.2.10,Linux x86_64,60,,,,,,,,,,0,,,,,,,,,,,,,,,,,,,,,,,,,,,,,,,,,,,,,,,,42,cadallo,,,0,1,0.896105,0,1,1,41,1,REAL,FAKE,,,,,,,,,,,,,,,,,,,,,
,,,,,,,600be42e32909325b20ab5f0,605b45a4d25f287719a41696,605bd8172e9e8df228163db0,Mexico,Midwest,13 or older,no,2021-03-24_20h24.37.461,empathy_intonation_perc,2020.2.10,Linux x86_64,60,,,,,,,,,,0,,,,,,,,,,,,,,,,,,,,,,,,,,,,,,,,,,,,,,,,1,terzo,,,1,0,1.3684,0,2,2,0,1,REAL,FAKE,,,,,,,,,,,,,,,,,,,,,
,,,,,,,600be42e32909325b20ab5f0,605b45a4d25f287719a41696,605bd8172e9e8df228163db0,Mexico,Midwest,13 or older,no,2021-03-24_20h24.37.461,empathy_intonation_perc,2020.2.10,Linux x86_64,60,,,,,,,,,,1,,,,,,,,,,,,,,,,,,,,,,,,,,,,,,,,,,,,,,,,54,fomentar,,,1,1,1.548915,0,3,3,53,1,REAL,FAKE,,,,,,,,,,,,,,,,,,,,,
,,,,,,,600be42e32909325b20ab5f0,605b45a4d25f287719a41696,605bd8172e9e8df228163db0,Mexico,Midwest,13 or older,no,2021-03-24_20h24.37.461,empathy_intonation_perc,2020.2.10,Linux x86_64,60,,,,,,,,,,0,,,,,,,,,,,,,,,,,,,,,,,,,,,,,,,,,,,,,,,,16,abracer,,,1,0,1.28224,0,4,4,15,1,REAL,FAKE,,,,,,,,,,,,,,,,,,,,,
,,,,,,,600be42e32909325b20ab5f0,605b45a4d25f287719a41696,605bd8172e9e8df228163db0,Mexico,Midwest,13 or older,no,2021-03-24_20h24.37.461,empathy_intonation_perc,2020.2.10,Linux x86_64,60,,,,,,,,,,1,,,,,,,,,,,,,,,,,,,,,,,,,,,,,,,,,,,,,,,,43,canela,,,0,0,0.79841,0,5,5,42,1,REAL,FAKE,,,,,,,,,,,,,,,,,,,,,
,,,,,,,600be42e32909325b20ab5f0,605b45a4d25f287719a41696,605bd8172e9e8df228163db0,Mexico,Midwest,13 or older,no,2021-03-24_20h24.37.461,empathy_intonation_perc,2020.2.10,Linux x86_64,60,,,,,,,,,,1,,,,,,,,,,,,,,,,,,,,,,,,,,,,,,,,,,,,,,,,41,rebuscar,,,0,0,0.91699,0,6,6,40,1,REAL,FAKE,,,,,,,,,,,,,,,,,,,,,
,,,,,,,600be42e32909325b20ab5f0,605b45a4d25f287719a41696,605bd8172e9e8df228163db0,Mexico,Midwest,13 or older,no,2021-03-24_20h24.37.461,empathy_intonation_perc,2020.2.10,Linux x86_64,60,,,,,,,,,,0,,,,,,,,,,,,,,,,,,,,,,,,,,,,,,,,,,,,,,,,74,cintro,,,0,1,0.764245,0,7,7,73,1,REAL,FAKE,,,,,,,,,,,,,,,,,,,,,
,,,,,,,600be42e32909325b20ab5f0,605b45a4d25f287719a41696,605bd8172e9e8df228163db0,Mexico,Midwest,13 or older,no,2021-03-24_20h24.37.461,empathy_intonation_perc,2020.2.10,Linux x86_64,60,,,,,,,,,,1,,,,,,,,,,,,,,,,,,,,,,,,,,,,,,,,,,,,,,,,6,tergiversar,,,0,0,0.77713,0,8,8,5,1,REAL,FAKE,,,,,,,,,,,,,,,,,,,,,
,,,,,,,600be42e32909325b20ab5f0,605b45a4d25f287719a41696,605bd8172e9e8df228163db0,Mexico,Midwest,13 or older,no,2021-03-24_20h24.37.461,empathy_intonation_perc,2020.2.10,Linux x86_64,60,,,,,,,,,,1,,,,,,,,,,,,,,,,,,,,,,,,,,,,,,,,,,,,,,,,48,ladrn,,,1,1,0.881485,0,9,9,47,1,REAL,FAKE,,,,,,,,,,,,,,,,,,,,,
,,,,,,,600be42e32909325b20ab5f0,605b45a4d25f287719a41696,605bd8172e9e8df228163db0,Mexico,Midwest,13 or older,no,2021-03-24_20h24.37.461,empathy_intonation_perc,2020.2.10,Linux x86_64,60,,,,,,,,,,1,,,,,,,,,,,,,,,,,,,,,,,,,,,,,,,,,,,,,,,,15,regar,,,0,0,0.967025,0,10,10,14,1,REAL,FAKE,,,,,,,,,,,,,,,,,,,,,
,,,,,,,600be42e32909325b20ab5f0,605b45a4d25f287719a41696,605bd8172e9e8df228163db0,Mexico,Midwest,13 or older,no,2021-03-24_20h24.37.461,empathy_intonation_perc,2020.2.10,Linux x86_64,60,,,,,,,,,,1,,,,,,,,,,,,,,,,,,,,,,,,,,,,,,,,,,,,,,,,22,lacayo,,,0,0,0.59811,0,11,11,21,1,REAL,FAKE,,,,,,,,,,,,,,,,,,,,,
,,,,,,,600be42e32909325b20ab5f0,605b45a4d25f287719a41696,605bd8172e9e8df228163db0,Mexico,Midwest,13 or older,no,2021-03-24_20h24.37.461,empathy_intonation_perc,2020.2.10,Linux x86_64,60,,,,,,,,,,1,,,,,,,,,,,,,,,,,,,,,,,,,,,,,,,,,,,,,,,,78,frondoso,,,0,0,0.78148,0,12,12,77,1,REAL,FAKE,,,,,,,,,,,,,,,,,,,,,
,,,,,,,600be42e32909325b20ab5f0,605b45a4d25f287719a41696,605bd8172e9e8df228163db0,Mexico,Midwest,13 or older,no,2021-03-24_20h24.37.461,empathy_intonation_perc,2020.2.10,Linux x86_64,60,,,,,,,,,,1,,,,,,,,,,,,,,,,,,,,,,,,,,,,,,,,,,,,,,,,28,merodear,,,0,0,1.133565,0,13,13,27,1,REAL,FAKE,,,,,,,,,,,,,,,,,,,,,
,,,,,,,600be42e32909325b20ab5f0,605b45a4d25f287719a41696,605bd8172e9e8df228163db0,Mexico,Midwest,13 or older,no,2021-03-24_20h24.37.461,empathy_intonation_perc,2020.2.10,Linux x86_64,60,,,,,,,,,,0,,,,,,,,,,,,,,,,,,,,,,,,,,,,,,,,,,,,,,,,27,acutacin,,,0,1,1.364995,0,14,14,26,1,REAL,FAKE,,,,,,,,,,,,,,,,,,,,,
,,,,,,,600be42e32909325b20ab5f0,605b45a4d25f287719a41696,605bd8172e9e8df228163db0,Mexico,Midwest,13 or older,no,2021-03-24_20h24.37.461,empathy_intonation_perc,2020.2.10,Linux x86_64,60,,,,,,,,,,0,,,,,,,,,,,,,,,,,,,,,,,,,,,,,,,,,,,,,,,,21,capillo,,,0,1,1.214175,0,15,15,20,1,REAL,FAKE,,,,,,,,,,,,,,,,,,,,,
,,,,,,,600be42e32909325b20ab5f0,605b45a4d25f287719a41696,605bd8172e9e8df228163db0,Mexico,Midwest,13 or older,no,2021-03-24_20h24.37.461,empathy_intonation_perc,2020.2.10,Linux x86_64,60,,,,,,,,,,1,,,,,,,,,,,,,,,,,,,,,,,,,,,,,,,,,,,,,,,,20,vido,,,1,1,0.66874,0,16,16,19,1,REAL,FAKE,,,,,,,,,,,,,,,,,,,,,
,,,,,,,600be42e32909325b20ab5f0,605b45a4d25f287719a41696,605bd8172e9e8df228163db0,Mexico,Midwest,13 or older,no,2021-03-24_20h24.37.461,empathy_intonation_perc,2020.2.10,Linux x86_64,60,,,,,,,,,,0,,,,,,,,,,,,,,,,,,,,,,,,,,,,,,,,,,,,,,,,35,rompido,,,0,1,0.53268,0,17,17,34,1,REAL,FAKE,,,,,,,,,,,,,,,,,,,,,
,,,,,,,600be42e32909325b20ab5f0,605b45a4d25f287719a41696,605bd8172e9e8df228163db0,Mexico,Midwest,13 or older,no,2021-03-24_20h24.37.461,empathy_intonation_perc,2020.2.10,Linux x86_64,60,,,,,,,,,,1,,,,,,,,,,,,,,,,,,,,,,,,,,,,,,,,,,,,,,,,44,cuchara,,,1,1,1.432905,0,18,18,43,1,REAL,FAKE,,,,,,,,,,,,,,,,,,,,,
,,,,,,,600be42e32909325b20ab5f0,605b45a4d25f287719a41696,605bd8172e9e8df228163db0,Mexico,Midwest,13 or older,no,2021-03-24_20h24.37.461,empathy_intonation_perc,2020.2.10,Linux x86_64,60,,,,,,,,,,1,,,,,,,,,,,,,,,,,,,,,,,,,,,,,,,,,,,,,,,,69,engatusar,,,0,0,0.56301,0,19,19,68,1,REAL,FAKE,,,,,,,,,,,,,,,,,,,,,
,,,,,,,600be42e32909325b20ab5f0,605b45a4d25f287719a41696,605bd8172e9e8df228163db0,Mexico,Midwest,13 or older,no,2021-03-24_20h24.37.461,empathy_intonation_perc,2020.2.10,Linux x86_64,60,,,,,,,,,,1,,,,,,,,,,,,,,,,,,,,,,,,,,,,,,,,,,,,,,,,40,alfombra,,,1,1,1.9282,0,20,20,39,1,REAL,FAKE,,,,,,,,,,,,,,,,,,,,,
,,,,,,,600be42e32909325b20ab5f0,605b45a4d25f287719a41696,605bd8172e9e8df228163db0,Mexico,Midwest,13 or older,no,2021-03-24_20h24.37.461,empathy_intonation_perc,2020.2.10,Linux x86_64,60,,,,,,,,,,0,,,,,,,,,,,,,,,,,,,,,,,,,,,,,,,,,,,,,,,,47,cartinar,,,0,1,0.84982,0,21,21,46,1,REAL,FAKE,,,,,,,,,,,,,,,,,,,,,
,,,,,,,600be42e32909325b20ab5f0,605b45a4d25f287719a41696,605bd8172e9e8df228163db0,Mexico,Midwest,13 or older,no,2021-03-24_20h24.37.461,empathy_intonation_perc,2020.2.10,Linux x86_64,60,,,,,,,,,,1,,,,,,,,,,,,,,,,,,,,,,,,,,,,,,,,,,,,,,,,37,granuja,,,0,0,0.76755,0,22,22,36,1,REAL,FAKE,,,,,,,,,,,,,,,,,,,,,
,,,,,,,600be42e32909325b20ab5f0,605b45a4d25f287719a41696,605bd8172e9e8df228163db0,Mexico,Midwest,13 or older,no,2021-03-24_20h24.37.461,empathy_intonation_perc,2020.2.10,Linux x86_64,60,,,,,,,,,,1,,,,,,,,,,,,,,,,,,,,,,,,,,,,,,,,,,,,,,,,57,tacao,,,0,0,1.250335,0,23,23,56,1,REAL,FAKE,,,,,,,,,,,,,,,,,,,,,
,,,,,,,600be42e32909325b20ab5f0,605b45a4d25f287719a41696,605bd8172e9e8df228163db0,Mexico,Midwest,13 or older,no,2021-03-24_20h24.37.461,empathy_intonation_perc,2020.2.10,Linux x86_64,60,,,,,,,,,,1,,,,,,,,,,,,,,,,,,,,,,,,,,,,,,,,,,,,,,,,3,pulmones,,,1,1,1.013945,0,24,24,2,1,REAL,FAKE,,,,,,,,,,,,,,,,,,,,,
,,,,,,,600be42e32909325b20ab5f0,605b45a4d25f287719a41696,605bd8172e9e8df228163db0,Mexico,Midwest,13 or older,no,2021-03-24_20h24.37.461,empathy_intonation_perc,2020.2.10,Linux x86_64,60,,,,,,,,,,1,,,,,,,,,,,,,,,,,,,,,,,,,,,,,,,,,,,,,,,,26,secuestro,,,0,0,1.33034,0,25,25,25,1,REAL,FAKE,,,,,,,,,,,,,,,,,,,,,
,,,,,,,600be42e32909325b20ab5f0,605b45a4d25f287719a41696,605bd8172e9e8df228163db0,Mexico,Midwest,13 or older,no,2021-03-24_20h24.37.461,empathy_intonation_perc,2020.2.10,Linux x86_64,60,,,,,,,,,,1,,,,,,,,,,,,,,,,,,,,,,,,,,,,,,,,,,,,,,,,56,musgo,,,0,0,1.24973,0,26,26,55,1,REAL,FAKE,,,,,,,,,,,,,,,,,,,,,
,,,,,,,600be42e32909325b20ab5f0,605b45a4d25f287719a41696,605bd8172e9e8df228163db0,Mexico,Midwest,13 or older,no,2021-03-24_20h24.37.461,empathy_intonation_perc,2020.2.10,Linux x86_64,60,,,,,,,,,,1,,,,,,,,,,,,,,,,,,,,,,,,,,,,,,,,,,,,,,,,76,atar,,,0,0,0.80327,0,27,27,75,1,REAL,FAKE,,,,,,,,,,,,,,,,,,,,,
,,,,,,,600be42e32909325b20ab5f0,605b45a4d25f287719a41696,605bd8172e9e8df228163db0,Mexico,Midwest,13 or older,no,2021-03-24_20h24.37.461,empathy_intonation_perc,2020.2.10,Linux x86_64,60,,,,,,,,,,0,,,,,,,,,,,,,,,,,,,,,,,,,,,,,,,,,,,,,,,,82,empirador,,,1,0,1.548125,0,28,28,81,1,REAL,FAKE,,,,,,,,,,,,,,,,,,,,,
,,,,,,,600be42e32909325b20ab5f0,605b45a4d25f287719a41696,605bd8172e9e8df228163db0,Mexico,Midwest,13 or older,no,2021-03-24_20h24.37.461,empathy_intonation_perc,2020.2.10,Linux x86_64,60,,,,,,,,,,1,,,,,,,,,,,,,,,,,,,,,,,,,,,,,,,,,,,,,,,,83,guante,,,0,0,1.597815,0,29,29,82,1,REAL,FAKE,,,,,,,,,,,,,,,,,,,,,
,,,,,,,600be42e32909325b20ab5f0,605b45a4d25f287719a41696,605bd8172e9e8df228163db0,Mexico,Midwest,13 or older,no,2021-03-24_20h24.37.461,empathy_intonation_perc,2020.2.10,Linux x86_64,60,,,,,,,,,,1,,,,,,,,,,,,,,,,,,,,,,,,,,,,,,,,,,,,,,,,12,asesinato,,,0,0,1.89703,0,30,30,11,1,REAL,FAKE,,,,,,,,,,,,,,,,,,,,,
,,,,,,,600be42e32909325b20ab5f0,605b45a4d25f287719a41696,605bd8172e9e8df228163db0,Mexico,Midwest,13 or older,no,2021-03-24_20h24.37.461,empathy_intonation_perc,2020.2.10,Linux x86_64,60,,,,,,,,,,0,,,,,,,,,,,,,,,,,,,,,,,,,,,,,,,,,,,,,,,,4,batilln,,,1,0,0.8004,0,31,31,3,1,REAL,FAKE,,,,,,,,,,,,,,,,,,,,,
,,,,,,,600be42e32909325b20ab5f0,605b45a4d25f287719a41696,605bd8172e9e8df228163db0,Mexico,Midwest,13 or older,no,2021-03-24_20h24.37.461,empathy_intonation_perc,2020.2.10,Linux x86_64,60,,,,,,,,,,1,,,,,,,,,,,,,,,,,,,,,,,,,,,,,,,,,,,,,,,,65,bizcocho,,,0,0,0.717645,0,32,32,64,1,REAL,FAKE,,,,,,,,,,,,,,,,,,,,,
,,,,,,,600be42e32909325b20ab5f0,605b45a4d25f287719a41696,605bd8172e9e8df228163db0,Mexico,Midwest,13 or older,no,2021-03-24_20h24.37.461,empathy_intonation_perc,2020.2.10,Linux x86_64,60,,,,,,,,,,1,,,,,,,,,,,,,,,,,,,,,,,,,,,,,,,,,,,,,,,,36,loro,,,0,0,0.720695,0,33,33,35,1,REAL,FAKE,,,,,,,,,,,,,,,,,,,,,
,,,,,,,600be42e32909325b20ab5f0,605b45a4d25f287719a41696,605bd8172e9e8df228163db0,Mexico,Midwest,13 or older,no,2021-03-24_20h24.37.461,empathy_intonation_perc,2020.2.10,Linux x86_64,60,,,,,,,,,,1,,,,,,,,,,,,,,,,,,,,,,,,,,,,,,,,,,,,,,,,89,prisa,,,0,0,1.133045,0,34,34,88,1,REAL,FAKE,,,,,,,,,,,,,,,,,,,,,
,,,,,,,600be42e32909325b20ab5f0,605b45a4d25f287719a41696,605bd8172e9e8df228163db0,Mexico,Midwest,13 or older,no,2021-03-24_20h24.37.461,empathy_intonation_perc,2020.2.10,Linux x86_64,60,,,,,,,,,,1,,,,,,,,,,,,,,,,,,,,,,,,,,,,,,,,,,,,,,,,46,martillo,,,0,0,0.92923,0,35,35,45,1,REAL,FAKE,,,,,,,,,,,,,,,,,,,,,
,,,,,,,600be42e32909325b20ab5f0,605b45a4d25f287719a41696,605bd8172e9e8df228163db0,Mexico,Midwest,13 or older,no,2021-03-24_20h24.37.461,empathy_intonation_perc,2020.2.10,Linux x86_64,60,,,,,,,,,,1,,,,,,,,,,,,,,,,,,,,,,,,,,,,,,,,,,,,,,,,51,candado,,,1,1,1.01414,0,36,36,50,1,REAL,FAKE,,,,,,,,,,,,,,,,,,,,,
,,,,,,,600be42e32909325b20ab5f0,605b45a4d25f287719a41696,605bd8172e9e8df228163db0,Mexico,Midwest,13 or older,no,2021-03-24_20h24.37.461,empathy_intonation_perc,2020.2.10,Linux x86_64,60,,,,,,,,,,1,,,,,,,,,,,,,,,,,,,,,,,,,,,,,,,,,,,,,,,,13,helar,,,1,1,1.832935,0,37,37,12,1,REAL,FAKE,,,,,,,,,,,,,,,,,,,,,
,,,,,,,600be42e32909325b20ab5f0,605b45a4d25f287719a41696,605bd8172e9e8df228163db0,Mexico,Midwest,13 or older,no,2021-03-24_20h24.37.461,empathy_intonation_perc,2020.2.10,Linux x86_64,60,,,,,,,,,,0,,,,,,,,,,,,,,,,,,,,,,,,,,,,,,,,,,,,,,,,18,arsa,,,0,1,0.945595,0,38,38,17,1,REAL,FAKE,,,,,,,,,,,,,,,,,,,,,
,,,,,,,600be42e32909325b20ab5f0,605b45a4d25f287719a41696,605bd8172e9e8df228163db0,Mexico,Midwest,13 or older,no,2021-03-24_20h24.37.461,empathy_intonation_perc,2020.2.10,Linux x86_64,60,,,,,,,,,,1,,,,,,,,,,,,,,,,,,,,,,,,,,,,,,,,,,,,,,,,86,barato,,,1,1,0.91425,0,39,39,85,1,REAL,FAKE,,,,,,,,,,,,,,,,,,,,,
,,,,,,,600be42e32909325b20ab5f0,605b45a4d25f287719a41696,605bd8172e9e8df228163db0,Mexico,Midwest,13 or older,no,2021-03-24_20h24.37.461,empathy_intonation_perc,2020.2.10,Linux x86_64,60,,,,,,,,,,0,,,,,,,,,,,,,,,,,,,,,,,,,,,,,,,,,,,,,,,,58,plaudir,,,0,1,0.80036,0,40,40,57,1,REAL,FAKE,,,,,,,,,,,,,,,,,,,,,
,,,,,,,600be42e32909325b20ab5f0,605b45a4d25f287719a41696,605bd8172e9e8df228163db0,Mexico,Midwest,13 or older,no,2021-03-24_20h24.37.461,empathy_intonation_perc,2020.2.10,Linux x86_64,60,,,,,,,,,,1,,,,,,,,,,,,,,,,,,,,,,,,,,,,,,,,,,,,,,,,5,zapato,,,1,1,0.735415,0,41,41,4,1,REAL,FAKE,,,,,,,,,,,,,,,,,,,,,
,,,,,,,600be42e32909325b20ab5f0,605b45a4d25f287719a41696,605bd8172e9e8df228163db0,Mexico,Midwest,13 or older,no,2021-03-24_20h24.37.461,empathy_intonation_perc,2020.2.10,Linux x86_64,60,,,,,,,,,,1,,,,,,,,,,,,,,,,,,,,,,,,,,,,,,,,,,,,,,,,45,jilguero,,,0,0,0.632715,0,42,42,44,1,REAL,FAKE,,,,,,,,,,,,,,,,,,,,,
,,,,,,,600be42e32909325b20ab5f0,605b45a4d25f287719a41696,605bd8172e9e8df228163db0,Mexico,Midwest,13 or older,no,2021-03-24_20h24.37.461,empathy_intonation_perc,2020.2.10,Linux x86_64,60,,,,,,,,,,0,,,,,,,,,,,,,,,,,,,,,,,,,,,,,,,,,,,,,,,,63,esposante,,,0,1,1.01634,0,43,43,62,1,REAL,FAKE,,,,,,,,,,,,,,,,,,,,,
,,,,,,,600be42e32909325b20ab5f0,605b45a4d25f287719a41696,605bd8172e9e8df228163db0,Mexico,Midwest,13 or older,no,2021-03-24_20h24.37.461,empathy_intonation_perc,2020.2.10,Linux x86_64,60,,,,,,,,,,1,,,,,,,,,,,,,,,,,,,,,,,,,,,,,,,,,,,,,,,,7,psimo,,,1,1,0.848135,0,44,44,6,1,REAL,FAKE,,,,,,,,,,,,,,,,,,,,,
,,,,,,,600be42e32909325b20ab5f0,605b45a4d25f287719a41696,605bd8172e9e8df228163db0,Mexico,Midwest,13 or older,no,2021-03-24_20h24.37.461,empathy_intonation_perc,2020.2.10,Linux x86_64,60,,,,,,,,,,1,,,,,,,,,,,,,,,,,,,,,,,,,,,,,,,,,,,,,,,,55,nevar,,,1,1,1.04851,0,45,45,54,1,REAL,FAKE,,,,,,,,,,,,,,,,,,,,,
,,,,,,,600be42e32909325b20ab5f0,605b45a4d25f287719a41696,605bd8172e9e8df228163db0,Mexico,Midwest,13 or older,no,2021-03-24_20h24.37.461,empathy_intonation_perc,2020.2.10,Linux x86_64,60,,,,,,,,,,1,,,,,,,,,,,,,,,,,,,,,,,,,,,,,,,,,,,,,,,,24,ltigo,,,0,0,0.79983,0,46,46,23,1,REAL,FAKE,,,,,,,,,,,,,,,,,,,,,
,,,,,,,600be42e32909325b20ab5f0,605b45a4d25f287719a41696,605bd8172e9e8df228163db0,Mexico,Midwest,13 or older,no,2021-03-24_20h24.37.461,empathy_intonation_perc,2020.2.10,Linux x86_64,60,,,,,,,,,,1,,,,,,,,,,,,,,,,,,,,,,,,,,,,,,,,,,,,,,,,73,hervidor,,,0,0,0.59704,0,47,47,72,1,REAL,FAKE,,,,,,,,,,,,,,,,,,,,,
,,,,,,,600be42e32909325b20ab5f0,605b45a4d25f287719a41696,605bd8172e9e8df228163db0,Mexico,Midwest,13 or older,no,2021-03-24_20h24.37.461,empathy_intonation_perc,2020.2.10,Linux x86_64,60,,,,,,,,,,1,,,,,,,,,,,,,,,,,,,,,,,,,,,,,,,,,,,,,,,,61,seda,,,0,0,0.550575,0,48,48,60,1,REAL,FAKE,,,,,,,,,,,,,,,,,,,,,
,,,,,,,600be42e32909325b20ab5f0,605b45a4d25f287719a41696,605bd8172e9e8df228163db0,Mexico,Midwest,13 or older,no,2021-03-24_20h24.37.461,empathy_intonation_perc,2020.2.10,Linux x86_64,60,,,,,,,,,,1,,,,,,,,,,,,,,,,,,,,,,,,,,,,,,,,,,,,,,,,9,hacha,,,0,0,0.61864,0,49,49,8,1,REAL,FAKE,,,,,,,,,,,,,,,,,,,,,
,,,,,,,600be42e32909325b20ab5f0,605b45a4d25f287719a41696,605bd8172e9e8df228163db0,Mexico,Midwest,13 or older,no,2021-03-24_20h24.37.461,empathy_intonation_perc,2020.2.10,Linux x86_64,60,,,,,,,,,,1,,,,,,,,,,,,,,,,,,,,,,,,,,,,,,,,,,,,,,,,2,pellizcar,,,0,0,0.567305,0,50,50,1,1,REAL,FAKE,,,,,,,,,,,,,,,,,,,,,
,,,,,,,600be42e32909325b20ab5f0,605b45a4d25f287719a41696,605bd8172e9e8df228163db0,Mexico,Midwest,13 or older,no,2021-03-24_20h24.37.461,empathy_intonation_perc,2020.2.10,Linux x86_64,60,,,,,,,,,,1,,,,,,,,,,,,,,,,,,,,,,,,,,,,,,,,,,,,,,,,60,matar,,,1,1,0.635205,0,51,51,59,1,REAL,FAKE,,,,,,,,,,,,,,,,,,,,,
,,,,,,,600be42e32909325b20ab5f0,605b45a4d25f287719a41696,605bd8172e9e8df228163db0,Mexico,Midwest,13 or older,no,2021-03-24_20h24.37.461,empathy_intonation_perc,2020.2.10,Linux x86_64,60,,,,,,,,,,1,,,,,,,,,,,,,,,,,,,,,,,,,,,,,,,,,,,,,,,,39,torpe,,,0,0,0.848105,0,52,52,38,1,REAL,FAKE,,,,,,,,,,,,,,,,,,,,,
,,,,,,,600be42e32909325b20ab5f0,605b45a4d25f287719a41696,605bd8172e9e8df228163db0,Mexico,Midwest,13 or older,no,2021-03-24_20h24.37.461,empathy_intonation_perc,2020.2.10,Linux x86_64,60,,,,,,,,,,1,,,,,,,,,,,,,,,,,,,,,,,,,,,,,,,,,,,,,,,,62,flaco,,,1,1,0.732295,0,53,53,61,1,REAL,FAKE,,,,,,,,,,,,,,,,,,,,,
,,,,,,,600be42e32909325b20ab5f0,605b45a4d25f287719a41696,605bd8172e9e8df228163db0,Mexico,Midwest,13 or older,no,2021-03-24_20h24.37.461,empathy_intonation_perc,2020.2.10,Linux x86_64,60,,,,,,,,,,1,,,,,,,,,,,,,,,,,,,,,,,,,,,,,,,,,,,,,,,,31,pandilla,,,1,1,1.04914,0,54,54,30,1,REAL,FAKE,,,,,,,,,,,,,,,,,,,,,
,,,,,,,600be42e32909325b20ab5f0,605b45a4d25f287719a41696,605bd8172e9e8df228163db0,Mexico,Midwest,13 or older,no,2021-03-24_20h24.37.461,empathy_intonation_perc,2020.2.10,Linux x86_64,60,,,,,,,,,,0,,,,,,,,,,,,,,,,,,,,,,,,,,,,,,,,,,,,,,,,8,cadea,,,0,1,0.628345,0,55,55,7,1,REAL,FAKE,,,,,,,,,,,,,,,,,,,,,
,,,,,,,600be42e32909325b20ab5f0,605b45a4d25f287719a41696,605bd8172e9e8df228163db0,Mexico,Midwest,13 or older,no,2021-03-24_20h24.37.461,empathy_intonation_perc,2020.2.10,Linux x86_64,60,,,,,,,,,,0,,,,,,,,,,,,,,,,,,,,,,,,,,,,,,,,,,,,,,,,10,antar,,,0,1,0.52152,0,56,56,9,1,REAL,FAKE,,,,,,,,,,,,,,,,,,,,,
,,,,,,,600be42e32909325b20ab5f0,605b45a4d25f287719a41696,605bd8172e9e8df228163db0,Mexico,Midwest,13 or older,no,2021-03-24_20h24.37.461,empathy_intonation_perc,2020.2.10,Linux x86_64,60,,,,,,,,,,0,,,,,,,,,,,,,,,,,,,,,,,,,,,,,,,,,,,,,,,,66,hacido,,,0,1,0.81756,0,57,57,65,1,REAL,FAKE,,,,,,,,,,,,,,,,,,,,,
,,,,,,,600be42e32909325b20ab5f0,605b45a4d25f287719a41696,605bd8172e9e8df228163db0,Mexico,Midwest,13 or older,no,2021-03-24_20h24.37.461,empathy_intonation_perc,2020.2.10,Linux x86_64,60,,,,,,,,,,1,,,,,,,,,,,,,,,,,,,,,,,,,,,,,,,,,,,,,,,,34,aviso,,,1,1,0.666255,0,58,58,33,1,REAL,FAKE,,,,,,,,,,,,,,,,,,,,,
,,,,,,,600be42e32909325b20ab5f0,605b45a4d25f287719a41696,605bd8172e9e8df228163db0,Mexico,Midwest,13 or older,no,2021-03-24_20h24.37.461,empathy_intonation_perc,2020.2.10,Linux x86_64,60,,,,,,,,,,1,,,,,,,,,,,,,,,,,,,,,,,,,,,,,,,,,,,,,,,,49,ganar,,,1,1,0.7677,0,59,59,48,1,REAL,FAKE,,,,,,,,,,,,,,,,,,,,,
,,,,,,,600be42e32909325b20ab5f0,605b45a4d25f287719a41696,605bd8172e9e8df228163db0,Mexico,Midwest,13 or older,no,2021-03-24_20h24.37.461,empathy_intonation_perc,2020.2.10,Linux x86_64,60,,,,,,,,,,1,,,,,,,,,,,,,,,,,,,,,,,,,,,,,,,,,,,,,,,,80,hormiga,,,0,0,0.56702,0,60,60,79,1,REAL,FAKE,,,,,,,,,,,,,,,,,,,,,
,,,,,,,600be42e32909325b20ab5f0,605b45a4d25f287719a41696,605bd8172e9e8df228163db0,Mexico,Midwest,13 or older,no,2021-03-24_20h24.37.461,empathy_intonation_perc,2020.2.10,Linux x86_64,60,,,,,,,,,,1,,,,,,,,,,,,,,,,,,,,,,,,,,,,,,,,,,,,,,,,68,alegre,,,1,1,1.266115,0,61,61,67,1,REAL,FAKE,,,,,,,,,,,,,,,,,,,,,
,,,,,,,600be42e32909325b20ab5f0,605b45a4d25f287719a41696,605bd8172e9e8df228163db0,Mexico,Midwest,13 or older,no,2021-03-24_20h24.37.461,empathy_intonation_perc,2020.2.10,Linux x86_64,60,,,,,,,,,,0,,,,,,,,,,,,,,,,,,,,,,,,,,,,,,,,,,,,,,,,29,decar,,,1,0,2.01724,0,62,62,28,1,REAL,FAKE,,,,,,,,,,,,,,,,,,,,,
,,,,,,,600be42e32909325b20ab5f0,605b45a4d25f287719a41696,605bd8172e9e8df228163db0,Mexico,Midwest,13 or older,no,2021-03-24_20h24.37.461,empathy_intonation_perc,2020.2.10,Linux x86_64,60,,,,,,,,,,1,,,,,,,,,,,,,,,,,,,,,,,,,,,,,,,,,,,,,,,,11,cenefa,,,0,0,0.520215,0,63,63,10,1,REAL,FAKE,,,,,,,,,,,,,,,,,,,,,
,,,,,,,600be42e32909325b20ab5f0,605b45a4d25f287719a41696,605bd8172e9e8df228163db0,Mexico,Midwest,13 or older,no,2021-03-24_20h24.37.461,empathy_intonation_perc,2020.2.10,Linux x86_64,60,,,,,,,,,,0,,,,,,,,,,,,,,,,,,,,,,,,,,,,,,,,,,,,,,,,53,vegada,,,0,1,0.816755,0,64,64,52,1,REAL,FAKE,,,,,,,,,,,,,,,,,,,,,
,,,,,,,600be42e32909325b20ab5f0,605b45a4d25f287719a41696,605bd8172e9e8df228163db0,Mexico,Midwest,13 or older,no,2021-03-24_20h24.37.461,empathy_intonation_perc,2020.2.10,Linux x86_64,60,,,,,,,,,,1,,,,,,,,,,,,,,,,,,,,,,,,,,,,,,,,,,,,,,,,71,polvoriento,,,0,0,0.532545,0,65,65,70,1,REAL,FAKE,,,,,,,,,,,,,,,,,,,,,
,,,,,,,600be42e32909325b20ab5f0,605b45a4d25f287719a41696,605bd8172e9e8df228163db0,Mexico,Midwest,13 or older,no,2021-03-24_20h24.37.461,empathy_intonation_perc,2020.2.10,Linux x86_64,60,,,,,,,,,,0,,,,,,,,,,,,,,,,,,,,,,,,,,,,,,,,,,,,,,,,23,lampera,,,1,0,0.84446,0,66,66,22,1,REAL,FAKE,,,,,,,,,,,,,,,,,,,,,
,,,,,,,600be42e32909325b20ab5f0,605b45a4d25f287719a41696,605bd8172e9e8df228163db0,Mexico,Midwest,13 or older,no,2021-03-24_20h24.37.461,empathy_intonation_perc,2020.2.10,Linux x86_64,60,,,,,,,,,,0,,,,,,,,,,,,,,,,,,,,,,,,,,,,,,,,,,,,,,,,72,pemicin,,,0,1,0.58496,0,67,67,71,1,REAL,FAKE,,,,,,,,,,,,,,,,,,,,,
,,,,,,,600be42e32909325b20ab5f0,605b45a4d25f287719a41696,605bd8172e9e8df228163db0,Mexico,Midwest,13 or older,no,2021-03-24_20h24.37.461,empathy_intonation_perc,2020.2.10,Linux x86_64,60,,,,,,,,,,0,,,,,,,,,,,,,,,,,,,,,,,,,,,,,,,,,,,,,,,,19,brecedad,,,0,1,0.8653,0,68,68,18,1,REAL,FAKE,,,,,,,,,,,,,,,,,,,,,
,,,,,,,600be42e32909325b20ab5f0,605b45a4d25f287719a41696,605bd8172e9e8df228163db0,Mexico,Midwest,13 or older,no,2021-03-24_20h24.37.461,empathy_intonation_perc,2020.2.10,Linux x86_64,60,,,,,,,,,,1,,,,,,,,,,,,,,,,,,,,,,,,,,,,,,,,,,,,,,,,77,tiburn,,,0,0,0.547135,0,69,69,76,1,REAL,FAKE,,,,,,,,,,,,,,,,,,,,,
,,,,,,,600be42e32909325b20ab5f0,605b45a4d25f287719a41696,605bd8172e9e8df228163db0,Mexico,Midwest,13 or older,no,2021-03-24_20h24.37.461,empathy_intonation_perc,2020.2.10,Linux x86_64,60,,,,,,,,,,1,,,,,,,,,,,,,,,,,,,,,,,,,,,,,,,,,,,,,,,,64,orgulloso,,,1,1,1.44816,0,70,70,63,1,REAL,FAKE,,,,,,,,,,,,,,,,,,,,,
,,,,,,,600be42e32909325b20ab5f0,605b45a4d25f287719a41696,605bd8172e9e8df228163db0,Mexico,Midwest,13 or older,no,2021-03-24_20h24.37.461,empathy_intonation_perc,2020.2.10,Linux x86_64,60,,,,,,,,,,0,,,,,,,,,,,,,,,,,,,,,,,,,,,,,,,,,,,,,,,,50,flamida,,,0,1,0.787205,0,71,71,49,1,REAL,FAKE,,,,,,,,,,,,,,,,,,,,,
,,,,,,,600be42e32909325b20ab5f0,605b45a4d25f287719a41696,605bd8172e9e8df228163db0,Mexico,Midwest,13 or older,no,2021-03-24_20h24.37.461,empathy_intonation_perc,2020.2.10,Linux x86_64,60,,,,,,,,,,0,,,,,,,,,,,,,,,,,,,,,,,,,,,,,,,,,,,,,,,,32,fatacidad,,,0,1,0.866045,0,72,72,31,1,REAL,FAKE,,,,,,,,,,,,,,,,,,,,,
,,,,,,,600be42e32909325b20ab5f0,605b45a4d25f287719a41696,605bd8172e9e8df228163db0,Mexico,Midwest,13 or older,no,2021-03-24_20h24.37.461,empathy_intonation_perc,2020.2.10,Linux x86_64,60,,,,,,,,,,1,,,,,,,,,,,,,,,,,,,,,,,,,,,,,,,,,,,,,,,,90,clavel,,,0,0,0.564945,0,73,73,89,1,REAL,FAKE,,,,,,,,,,,,,,,,,,,,,
,,,,,,,600be42e32909325b20ab5f0,605b45a4d25f287719a41696,605bd8172e9e8df228163db0,Mexico,Midwest,13 or older,no,2021-03-24_20h24.37.461,empathy_intonation_perc,2020.2.10,Linux x86_64,60,,,,,,,,,,0,,,,,,,,,,,,,,,,,,,,,,,,,,,,,,,,,,,,,,,,30,alardio,,,0,1,0.93285,0,74,74,29,1,REAL,FAKE,,,,,,,,,,,,,,,,,,,,,
,,,,,,,600be42e32909325b20ab5f0,605b45a4d25f287719a41696,605bd8172e9e8df228163db0,Mexico,Midwest,13 or older,no,2021-03-24_20h24.37.461,empathy_intonation_perc,2020.2.10,Linux x86_64,60,,,,,,,,,,1,,,,,,,,,,,,,,,,,,,,,,,,,,,,,,,,,,,,,,,,38,estornudar,,,0,0,0.649445,0,75,75,37,1,REAL,FAKE,,,,,,,,,,,,,,,,,,,,,
,,,,,,,600be42e32909325b20ab5f0,605b45a4d25f287719a41696,605bd8172e9e8df228163db0,Mexico,Midwest,13 or older,no,2021-03-24_20h24.37.461,empathy_intonation_perc,2020.2.10,Linux x86_64,60,,,,,,,,,,1,,,,,,,,,,,,,,,,,,,,,,,,,,,,,,,,,,,,,,,,88,acantilado,,,0,0,1.22207,0,76,76,87,1,REAL,FAKE,,,,,,,,,,,,,,,,,,,,,
,,,,,,,600be42e32909325b20ab5f0,605b45a4d25f287719a41696,605bd8172e9e8df228163db0,Mexico,Midwest,13 or older,no,2021-03-24_20h24.37.461,empathy_intonation_perc,2020.2.10,Linux x86_64,60,,,,,,,,,,1,,,,,,,,,,,,,,,,,,,,,,,,,,,,,,,,,,,,,,,,14,yunque,,,0,0,0.5158,0,77,77,13,1,REAL,FAKE,,,,,,,,,,,,,,,,,,,,,
,,,,,,,600be42e32909325b20ab5f0,605b45a4d25f287719a41696,605bd8172e9e8df228163db0,Mexico,Midwest,13 or older,no,2021-03-24_20h24.37.461,empathy_intonation_perc,2020.2.10,Linux x86_64,60,,,,,,,,,,1,,,,,,,,,,,,,,,,,,,,,,,,,,,,,,,,,,,,,,,,59,besar,,,1,1,0.667255,0,78,78,58,1,REAL,FAKE,,,,,,,,,,,,,,,,,,,,,
,,,,,,,600be42e32909325b20ab5f0,605b45a4d25f287719a41696,605bd8172e9e8df228163db0,Mexico,Midwest,13 or older,no,2021-03-24_20h24.37.461,empathy_intonation_perc,2020.2.10,Linux x86_64,60,,,,,,,,,,0,,,,,,,,,,,,,,,,,,,,,,,,,,,,,,,,,,,,,,,,79,tropaje,,,0,1,0.611615,0,79,79,78,1,REAL,FAKE,,,,,,,,,,,,,,,,,,,,,
,,,,,,,600be42e32909325b20ab5f0,605b45a4d25f287719a41696,605bd8172e9e8df228163db0,Mexico,Midwest,13 or older,no,2021-03-24_20h24.37.461,empathy_intonation_perc,2020.2.10,Linux x86_64,60,,,,,,,,,,1,,,,,,,,,,,,,,,,,,,,,,,,,,,,,,,,,,,,,,,,75,yacer,,,0,0,0.58596,0,80,80,74,1,REAL,FAKE,,,,,,,,,,,,,,,,,,,,,
,,,,,,,600be42e32909325b20ab5f0,605b45a4d25f287719a41696,605bd8172e9e8df228163db0,Mexico,Midwest,13 or older,no,2021-03-24_20h24.37.461,empathy_intonation_perc,2020.2.10,Linux x86_64,60,,,,,,,,,,0,,,,,,,,,,,,,,,,,,,,,,,,,,,,,,,,,,,,,,,,70,temblo,,,0,1,0.68368,0,81,81,69,1,REAL,FAKE,,,,,,,,,,,,,,,,,,,,,
,,,,,,,600be42e32909325b20ab5f0,605b45a4d25f287719a41696,605bd8172e9e8df228163db0,Mexico,Midwest,13 or older,no,2021-03-24_20h24.37.461,empathy_intonation_perc,2020.2.10,Linux x86_64,60,,,,,,,,,,0,,,,,,,,,,,,,,,,,,,,,,,,,,,,,,,,,,,,,,,,84,escuto,,,0,1,0.500535,0,82,82,83,1,REAL,FAKE,,,,,,,,,,,,,,,,,,,,,
,,,,,,,600be42e32909325b20ab5f0,605b45a4d25f287719a41696,605bd8172e9e8df228163db0,Mexico,Midwest,13 or older,no,2021-03-24_20h24.37.461,empathy_intonation_perc,2020.2.10,Linux x86_64,60,,,,,,,,,,0,,,,,,,,,,,,,,,,,,,,,,,,,,,,,,,,,,,,,,,,87,grodo,,,0,1,0.48886,0,83,83,86,1,REAL,FAKE,,,,,,,,,,,,,,,,,,,,,
,,,,,,,600be42e32909325b20ab5f0,605b45a4d25f287719a41696,605bd8172e9e8df228163db0,Mexico,Midwest,13 or older,no,2021-03-24_20h24.37.461,empathy_intonation_perc,2020.2.10,Linux x86_64,60,,,,,,,,,,1,,,,,,,,,,,,,,,,,,,,,,,,,,,,,,,,,,,,,,,,67,cabello,,,1,1,1.198745,0,84,84,66,1,REAL,FAKE,,,,,,,,,,,,,,,,,,,,,
,,,,,,,600be42e32909325b20ab5f0,605b45a4d25f287719a41696,605bd8172e9e8df228163db0,Mexico,Midwest,13 or older,no,2021-03-24_20h24.37.461,empathy_intonation_perc,2020.2.10,Linux x86_64,60,,,,,,,,,,1,,,,,,,,,,,,,,,,,,,,,,,,,,,,,,,,,,,,,,,,81,pozo,,,0,0,0.59869,0,85,85,80,1,REAL,FAKE,,,,,,,,,,,,,,,,,,,,,
,,,,,,,600be42e32909325b20ab5f0,605b45a4d25f287719a41696,605bd8172e9e8df228163db0,Mexico,Midwest,13 or older,no,2021-03-24_20h24.37.461,empathy_intonation_perc,2020.2.10,Linux x86_64,60,,,,,,,,,,0,,,,,,,,,,,,,,,,,,,,,,,,,,,,,,,,,,,,,,,,17,floroso,,,0,1,0.7465,0,86,86,16,1,REAL,FAKE,,,,,,,,,,,,,,,,,,,,,
,,,,,,,600be42e32909325b20ab5f0,605b45a4d25f287719a41696,605bd8172e9e8df228163db0,Mexico,Midwest,13 or older,no,2021-03-24_20h24.37.461,empathy_intonation_perc,2020.2.10,Linux x86_64,60,,,,,,,,,,0,,,,,,,,,,,,,,,,,,,,,,,,,,,,,,,,,,,,,,,,33,pauca,,,0,1,0.483785,0,87,87,32,1,REAL,FAKE,,,,,,,,,,,,,,,,,,,,,
,,,,,,,600be42e32909325b20ab5f0,605b45a4d25f287719a41696,605bd8172e9e8df228163db0,Mexico,Midwest,13 or older,no,2021-03-24_20h24.37.461,empathy_intonation_perc,2020.2.10,Linux x86_64,60,,,,,,,,,,1,,,,,,,,,,,,,,,,,,,,,,,,,,,,,,,,,,,,,,,,25,bisagra,,,0,0,0.44917,0,88,88,24,1,REAL,FAKE,,,,,,,,,,,,,,,,,,,,,
,,,,,,,600be42e32909325b20ab5f0,605b45a4d25f287719a41696,605bd8172e9e8df228163db0,Mexico,Midwest,13 or older,no,2021-03-24_20h24.37.461,empathy_intonation_perc,2020.2.10,Linux x86_64,60,,,,,,,,,,1,,,,,,,,,,,,,,,,,,,,,,,,,,,,,,,,,,,,,,,,85,lad,,,0,0,0.469205,0,89,89,84,1,REAL,FAKE,,,,,,,,,,,,,,,,,,,,,
,,,,,,,600be42e32909325b20ab5f0,605b45a4d25f287719a41696,605bd8172e9e8df228163db0,Mexico,Midwest,13 or older,no,2021-03-24_20h24.37.461,empathy_intonation_perc,2020.2.10,Linux x86_64,60,,,,,,,,,,,,,,,,,,,,,,,,,,,,,,,,,,,,,,,,,,,,,,,,,,,,,,,,,,,,,,,,4,1,2.342745,1,0,0,0,0,0,1,,,,,,,,,,,
,,,,,,,600be42e32909325b20ab5f0,605b45a4d25f287719a41696,605bd8172e9e8df228163db0,Mexico,Midwest,13 or older,no,2021-03-24_20h24.37.461,empathy_intonation_perc,2020.2.10,Linux x86_64,60,,,,,,,,,,,,,,,,,,,,1,,,,,,,,,,,,,,,,,,,,,,,,,,,,,,,,,,,,,,,,,,,,,,,,,,,,,,2,0,0,0,0,1,I can easily tell if someone else wants to enter a conversation.,1,0,1,0
,,,,,,,600be42e32909325b20ab5f0,605b45a4d25f287719a41696,605bd8172e9e8df228163db0,Mexico,Midwest,13 or older,no,2021-03-24_20h24.37.461,empathy_intonation_perc,2020.2.10,Linux x86_64,60,,,,,,,,,,,,,,,,,,,,2,,,,,,,,,,,,,,,,,,,,,,,,,,,,,,,,,,,,,,,,,,,,,,,,,,,,,,2,0,1,1,1,1,I prefer animals to humans.,0,1,0,0
,,,,,,,600be42e32909325b20ab5f0,605b45a4d25f287719a41696,605bd8172e9e8df228163db0,Mexico,Midwest,13 or older,no,2021-03-24_20h24.37.461,empathy_intonation_perc,2020.2.10,Linux x86_64,60,,,,,,,,,,,,,,,,,,,,3,,,,,,,,,,,,,,,,,,,,,,,,,,,,,,,,,,,,,,,,,,,,,,,,,,,,,,3,0,2,2,2,1,I try to keep up with the current trends and fashions.,0,1,0,0
,,,,,,,600be42e32909325b20ab5f0,605b45a4d25f287719a41696,605bd8172e9e8df228163db0,Mexico,Midwest,13 or older,no,2021-03-24_20h24.37.461,empathy_intonation_perc,2020.2.10,Linux x86_64,60,,,,,,,,,,,,,,,,,,,,4,,,,,,,,,,,,,,,,,,,,,,,,,,,,,,,,,,,,,,,,,,,,,,,,,,,,,,4,0,3,3,3,1,"I find it difficult to explain to others things that I understand easily, 
  when they dont understand it first time.",1,0,0,1
,,,,,,,600be42e32909325b20ab5f0,605b45a4d25f287719a41696,605bd8172e9e8df228163db0,Mexico,Midwest,13 or older,no,2021-03-24_20h24.37.461,empathy_intonation_perc,2020.2.10,Linux x86_64,60,,,,,,,,,,,,,,,,,,,,5,,,,,,,,,,,,,,,,,,,,,,,,,,,,,,,,,,,,,,,,,,,,,,,,,,,,,,5,0,4,4,4,1,I dream most nights.,0,1,0,0
