instructions_2afc_loop.thisRepN,instructions_2afc_loop.thisTrialN,instructions_2afc_loop.thisN,instructions_2afc_loop.thisIndex,instructions_2afc_loop.ran,instructions_text,continue_text,participant,study_id,session,I am most familiar with Spanish from...*,What part of the US are you from?*,At what age did you begin learning Spanish?*,Are you proficient in any languages other than English/Spanish?*,date,expName,psychopyVersion,OS,frameRate,key_resp_2afc_practice.keys,key_resp_2afc_practice.corr,key_resp_2afc_practice.rt,trials_2afc_practice_loop.thisRepN,trials_2afc_practice_loop.thisTrialN,trials_2afc_practice_loop.thisN,trials_2afc_practice_loop.thisIndex,trials_2afc_practice_loop.ran,path,correct_response,the_col,key_resp_2afc_trial.keys,key_resp_2afc_trial.corr,key_resp_2afc_trial.rt,trials_2afc_loop.thisRepN,trials_2afc_loop.thisTrialN,trials_2afc_loop.thisN,trials_2afc_loop.thisIndex,trials_2afc_loop.ran,item_num,andalusian,argentine,castilian,chilean,cuban,mexican,peruvian,puertorican,key_resp_ac1.keys,key_resp_ac1.corr,key_resp_ac1.rt,ac1_loop.thisRepN,ac1_loop.thisTrialN,ac1_loop.thisN,ac1_loop.thisIndex,ac1_loop.ran,instructions_lextale_loop.thisRepN,instructions_lextale_loop.thisTrialN,instructions_lextale_loop.thisN,instructions_lextale_loop.thisIndex,instructions_lextale_loop.ran,key_resp_lextale_practice.keys,key_resp_lextale_practice.corr,key_resp_lextale_practice.rt,trials_lextale_practice_loop.thisRepN,trials_lextale_practice_loop.thisTrialN,trials_lextale_practice_loop.thisN,trials_lextale_practice_loop.thisIndex,trials_lextale_practice_loop.ran,stim,word,prac_button_real,prac_button_false,key_resp_lextale_trial.keys,key_resp_lextale_trial.corr,key_resp_lextale_trial.rt,trials_lextale_loop.thisRepN,trials_lextale_loop.thisTrialN,trials_lextale_loop.thisN,trials_lextale_loop.thisIndex,trials_lextale_loop.ran,button_real,button_false,key_resp_ac2.keys,key_resp_ac2.corr,key_resp_ac2.rt,check_pass,check_fails,ac2_loop.thisRepN,ac2_loop.thisTrialN,ac2_loop.thisN,ac2_loop.thisIndex,ac2_loop.ran,slider_eq_trial.response,trials_eq_loop.thisRepN,trials_eq_loop.thisTrialN,trials_eq_loop.thisN,trials_eq_loop.thisIndex,trials_eq_loop.ran,item,is_test_item,is_distractor,is_agree_score,is_disagree_score
0,0,0,0,1,"In the following task you are going to hear a series of utterances. 

  You will decide if the utterances sound like questions or not using your keyboard.",(press the spacebar to continue),600f3bb4c3125f0d2a2f0d36,605b45a4d25f287719a41696,605b80b8a0bee85eca1e106d,Mexico,East coast,13 or older,no,2021-03-24_14h11.40.043,empathy_intonation_perc,2020.2.10,Win32,60,,,,,,,,,,,,,,,,,,,,,,,,,,,,,,,,,,,,,,,,,,,,,,,,,,,,,,,,,,,,,,,,,,,,,,,,,,,,,,,,,,,,
0,1,1,1,1,"If you believe the utterance is a question, type '1' (for 'yes') and if you do not 
  believe it is a question type '0' (for 'no').

  Let's practice a bit...",(press the spacebar to continue),600f3bb4c3125f0d2a2f0d36,605b45a4d25f287719a41696,605b80b8a0bee85eca1e106d,Mexico,East coast,13 or older,no,2021-03-24_14h11.40.043,empathy_intonation_perc,2020.2.10,Win32,60,,,,,,,,,,,,,,,,,,,,,,,,,,,,,,,,,,,,,,,,,,,,,,,,,,,,,,,,,,,,,,,,,,,,,,,,,,,,,,,,,,,,
,,,,,,,600f3bb4c3125f0d2a2f0d36,605b45a4d25f287719a41696,605b80b8a0bee85eca1e106d,Mexico,East coast,13 or older,no,2021-03-24_14h11.40.043,empathy_intonation_perc,2020.2.10,Win32,60,1,1,1.815255,0,0,0,1,1,./stim/wavs/argentine_question_filler_Mi-vecino-habla-mucho.wav,1,,,,,,,,,,,,,,,,,,,,,,,,,,,,,,,,,,,,,,,,,,,,,,,,,,,,,,,,,,,,,,,,,,,,,,,,,,
,,,,,,,600f3bb4c3125f0d2a2f0d36,605b45a4d25f287719a41696,605b80b8a0bee85eca1e106d,Mexico,East coast,13 or older,no,2021-03-24_14h11.40.043,empathy_intonation_perc,2020.2.10,Win32,60,0,1,2.60906,0,1,1,5,1,./stim/wavs/andalusian_statement_filler_Alberto-nunca-se-afeita.wav,0,,,,,,,,,,,,,,,,,,,,,,,,,,,,,,,,,,,,,,,,,,,,,,,,,,,,,,,,,,,,,,,,,,,,,,,,,,
,,,,,,,600f3bb4c3125f0d2a2f0d36,605b45a4d25f287719a41696,605b80b8a0bee85eca1e106d,Mexico,East coast,13 or older,no,2021-03-24_14h11.40.043,empathy_intonation_perc,2020.2.10,Win32,60,0,1,2.16582,0,2,2,7,1,./stim/wavs/puertorican_statement_filler_La-nina-pinta-con-su-amiga.wav,0,,,,,,,,,,,,,,,,,,,,,,,,,,,,,,,,,,,,,,,,,,,,,,,,,,,,,,,,,,,,,,,,,,,,,,,,,,
,,,,,,,600f3bb4c3125f0d2a2f0d36,605b45a4d25f287719a41696,605b80b8a0bee85eca1e106d,Mexico,East coast,13 or older,no,2021-03-24_14h11.40.043,empathy_intonation_perc,2020.2.10,Win32,60,0,0,2.133525,0,3,3,0,1,./stim/wavs/castilian_question_filler_Mi-esposo-conoce-al-chico.wav,1,,,,,,,,,,,,,,,,,,,,,,,,,,,,,,,,,,,,,,,,,,,,,,,,,,,,,,,,,,,,,,,,,,,,,,,,,,
,,,,,,,600f3bb4c3125f0d2a2f0d36,605b45a4d25f287719a41696,605b80b8a0bee85eca1e106d,Mexico,East coast,13 or older,no,2021-03-24_14h11.40.043,empathy_intonation_perc,2020.2.10,Win32,60,1,1,2.752935,0,4,4,3,1,./stim/wavs/mexican_question_filler_Felipe-no-tiene-contrasena.wav,1,,,,,,,,,,,,,,,,,,,,,,,,,,,,,,,,,,,,,,,,,,,,,,,,,,,,,,,,,,,,,,,,,,,,,,,,,,
,,,,,,,600f3bb4c3125f0d2a2f0d36,605b45a4d25f287719a41696,605b80b8a0bee85eca1e106d,Mexico,East coast,13 or older,no,2021-03-24_14h11.40.043,empathy_intonation_perc,2020.2.10,Win32,60,1,1,1.79665,0,5,5,2,1,./stim/wavs/chilean_question_filler_Mi-padre-cantaba-bien.wav,1,,,,,,,,,,,,,,,,,,,,,,,,,,,,,,,,,,,,,,,,,,,,,,,,,,,,,,,,,,,,,,,,,,,,,,,,,,
,,,,,,,600f3bb4c3125f0d2a2f0d36,605b45a4d25f287719a41696,605b80b8a0bee85eca1e106d,Mexico,East coast,13 or older,no,2021-03-24_14h11.40.043,empathy_intonation_perc,2020.2.10,Win32,60,0,1,1.81311,0,6,6,4,1,./stim/wavs/cuban_statement_filler_Cocinabas-por-la-noche.wav,0,,,,,,,,,,,,,,,,,,,,,,,,,,,,,,,,,,,,,,,,,,,,,,,,,,,,,,,,,,,,,,,,,,,,,,,,,,
,,,,,,,600f3bb4c3125f0d2a2f0d36,605b45a4d25f287719a41696,605b80b8a0bee85eca1e106d,Mexico,East coast,13 or older,no,2021-03-24_14h11.40.043,empathy_intonation_perc,2020.2.10,Win32,60,0,1,2.92296,0,7,7,6,1,./stim/wavs/peruvian_statement_filler_El-nino-habla-con-su-madre.wav,0,,,,,,,,,,,,,,,,,,,,,,,,,,,,,,,,,,,,,,,,,,,,,,,,,,,,,,,,,,,,,,,,,,,,,,,,,,
,,,,,,,600f3bb4c3125f0d2a2f0d36,605b45a4d25f287719a41696,605b80b8a0bee85eca1e106d,Mexico,East coast,13 or older,no,2021-03-24_14h11.40.043,empathy_intonation_perc,2020.2.10,Win32,60,,,,,,,,,,1,puertorican,1,1,8.445675,0,0,0,25,1,26,./stim/wavs/andalusian_match_interrogative-total-yn_Daniel-iba-a-Bolivia.wav,./stim/wavs/argentine_match_interrogative-total-yn_Daniel-iba-a-Bolivia.wav,./stim/wavs/castilian_match_interrogative-total-yn_Daniel-iba-a-Bolivia.wav,./stim/wavs/chilean_match_interrogative-total-yn_Daniel-iba-a-Bolivia.wav,./stim/wavs/cuban_match_interrogative-total-yn_Daniel-iba-a-Bolivia.wav,./stim/wavs/mexican_match_interrogative-total-yn_Daniel-iba-a-Bolivia.wav,./stim/wavs/peruvian_match_interrogative-total-yn_Daniel-iba-a-Bolivia.wav,./stim/wavs/puertorican_match_interrogative-total-yn_Daniel-iba-a-Bolivia.wav,,,,,,,,,,,,,,,,,,,,,,,,,,,,,,,,,,,,,,,,,,,,,,,,,,,,,,,,
,,,,,,,600f3bb4c3125f0d2a2f0d36,605b45a4d25f287719a41696,605b80b8a0bee85eca1e106d,Mexico,East coast,13 or older,no,2021-03-24_14h11.40.043,empathy_intonation_perc,2020.2.10,Win32,60,,,,,,,,,,0,mexican,0,1,1.98508,0,1,1,37,1,38,./stim/wavs/andalusian_mismatch_declarative-broad-focus_Mi-madre-come-la-fruta.wav,./stim/wavs/argentine_mismatch_declarative-broad-focus_Mi-madre-come-la-fruta.wav,./stim/wavs/castilian_mismatch_declarative-broad-focus_Mi-madre-come-la-fruta.wav,./stim/wavs/chilean_mismatch_declarative-broad-focus_Mi-madre-come-la-fruta.wav,./stim/wavs/cuban_mismatch_declarative-broad-focus_Mi-madre-come-la-fruta.wav,./stim/wavs/mexican_mismatch_declarative-broad-focus_Mi-madre-come-la-fruta.wav,./stim/wavs/peruvian_mismatch_declarative-broad-focus_Mi-madre-come-la-fruta.wav,./stim/wavs/puertorican_mismatch_declarative-broad-focus_Mi-madre-come-la-fruta.wav,,,,,,,,,,,,,,,,,,,,,,,,,,,,,,,,,,,,,,,,,,,,,,,,,,,,,,,,
,,,,,,,600f3bb4c3125f0d2a2f0d36,605b45a4d25f287719a41696,605b80b8a0bee85eca1e106d,Mexico,East coast,13 or older,no,2021-03-24_14h11.40.043,empathy_intonation_perc,2020.2.10,Win32,60,,,,,,,,,,0,cuban,0,1,1.98972,0,2,2,46,1,47,./stim/wavs/andalusian_mismatch_declarative-narrow-focus_Mi-novio-viene-del-lago.wav,./stim/wavs/argentine_mismatch_declarative-narrow-focus_Mi-novio-viene-del-lago.wav,./stim/wavs/castilian_mismatch_declarative-narrow-focus_Mi-novio-viene-del-lago.wav,./stim/wavs/chilean_mismatch_declarative-narrow-focus_Mi-novio-viene-del-lago.wav,./stim/wavs/cuban_mismatch_declarative-narrow-focus_Mi-novio-viene-del-lago.wav,./stim/wavs/mexican_mismatch_declarative-narrow-focus_Mi-novio-viene-del-lago.wav,./stim/wavs/peruvian_mismatch_declarative-narrow-focus_Mi-novio-viene-del-lago.wav,./stim/wavs/puertorican_mismatch_declarative-narrow-focus_Mi-novio-viene-del-lago.wav,,,,,,,,,,,,,,,,,,,,,,,,,,,,,,,,,,,,,,,,,,,,,,,,,,,,,,,,
,,,,,,,600f3bb4c3125f0d2a2f0d36,605b45a4d25f287719a41696,605b80b8a0bee85eca1e106d,Mexico,East coast,13 or older,no,2021-03-24_14h11.40.043,empathy_intonation_perc,2020.2.10,Win32,60,,,,,,,,,,0,castilian,0,1,1.836545,0,3,3,13,1,14,./stim/wavs/andalusian_match_declarative-narrow-focus_Maria-bebe-el-vino.wav,./stim/wavs/argentine_match_declarative-narrow-focus_Maria-bebe-el-vino.wav,./stim/wavs/castilian_match_declarative-narrow-focus_Maria-bebe-el-vino.wav,./stim/wavs/chilean_match_declarative-narrow-focus_Maria-bebe-el-vino.wav,./stim/wavs/cuban_match_declarative-narrow-focus_Maria-bebe-el-vino.wav,./stim/wavs/mexican_match_declarative-narrow-focus_Maria-bebe-el-vino.wav,./stim/wavs/peruvian_match_declarative-narrow-focus_Maria-bebe-el-vino.wav,./stim/wavs/puertorican_match_declarative-narrow-focus_Maria-bebe-el-vino.wav,,,,,,,,,,,,,,,,,,,,,,,,,,,,,,,,,,,,,,,,,,,,,,,,,,,,,,,,
,,,,,,,600f3bb4c3125f0d2a2f0d36,605b45a4d25f287719a41696,605b80b8a0bee85eca1e106d,Mexico,East coast,13 or older,no,2021-03-24_14h11.40.043,empathy_intonation_perc,2020.2.10,Win32,60,,,,,,,,,,0,andalusian,1,0,1.459775,0,4,4,47,1,48,./stim/wavs/andalusian_mismatch_declarative-narrow-focus_Mi-tia-odia-la-lluvia.wav,./stim/wavs/argentine_mismatch_declarative-narrow-focus_Mi-tia-odia-la-lluvia.wav,./stim/wavs/castilian_mismatch_declarative-narrow-focus_Mi-tia-odia-la-lluvia.wav,./stim/wavs/chilean_mismatch_declarative-narrow-focus_Mi-tia-odia-la-lluvia.wav,./stim/wavs/cuban_mismatch_declarative-narrow-focus_Mi-tia-odia-la-lluvia.wav,./stim/wavs/mexican_mismatch_declarative-narrow-focus_Mi-tia-odia-la-lluvia.wav,./stim/wavs/peruvian_mismatch_declarative-narrow-focus_Mi-tia-odia-la-lluvia.wav,./stim/wavs/puertorican_mismatch_declarative-narrow-focus_Mi-tia-odia-la-lluvia.wav,,,,,,,,,,,,,,,,,,,,,,,,,,,,,,,,,,,,,,,,,,,,,,,,,,,,,,,,
,,,,,,,600f3bb4c3125f0d2a2f0d36,605b45a4d25f287719a41696,605b80b8a0bee85eca1e106d,Mexico,East coast,13 or older,no,2021-03-24_14h11.40.043,empathy_intonation_perc,2020.2.10,Win32,60,,,,,,,,,,1,andalusian,1,1,2.23519,0,5,5,60,1,61,./stim/wavs/andalusian_mismatch_interrogative-total-yn_La-nina-lava-el-plato.wav,./stim/wavs/argentine_mismatch_interrogative-total-yn_La-nina-lava-el-plato.wav,./stim/wavs/castilian_mismatch_interrogative-total-yn_La-nina-lava-el-plato.wav,./stim/wavs/chilean_mismatch_interrogative-total-yn_La-nina-lava-el-plato.wav,./stim/wavs/cuban_mismatch_interrogative-total-yn_La-nina-lava-el-plato.wav,./stim/wavs/mexican_mismatch_interrogative-total-yn_La-nina-lava-el-plato.wav,./stim/wavs/peruvian_mismatch_interrogative-total-yn_La-nina-lava-el-plato.wav,./stim/wavs/puertorican_mismatch_interrogative-total-yn_La-nina-lava-el-plato.wav,,,,,,,,,,,,,,,,,,,,,,,,,,,,,,,,,,,,,,,,,,,,,,,,,,,,,,,,
,,,,,,,600f3bb4c3125f0d2a2f0d36,605b45a4d25f287719a41696,605b80b8a0bee85eca1e106d,Mexico,East coast,13 or older,no,2021-03-24_14h11.40.043,empathy_intonation_perc,2020.2.10,Win32,60,,,,,,,,,,1,chilean,1,1,1.674355,0,6,6,55,1,56,./stim/wavs/andalusian_mismatch_interrogative-partial-wh_Por-que-vivia-en-Paris.wav,./stim/wavs/argentine_mismatch_interrogative-partial-wh_Por-que-vivia-en-Paris.wav,./stim/wavs/castilian_mismatch_interrogative-partial-wh_Por-que-vivia-en-Paris.wav,./stim/wavs/chilean_mismatch_interrogative-partial-wh_Por-que-vivia-en-Paris.wav,./stim/wavs/cuban_mismatch_interrogative-partial-wh_Por-que-vivia-en-Paris.wav,./stim/wavs/mexican_mismatch_interrogative-partial-wh_Por-que-vivia-en-Paris.wav,./stim/wavs/peruvian_mismatch_interrogative-partial-wh_Por-que-vivia-en-Paris.wav,./stim/wavs/puertorican_mismatch_interrogative-partial-wh_Por-que-vivia-en-Paris.wav,,,,,,,,,,,,,,,,,,,,,,,,,,,,,,,,,,,,,,,,,,,,,,,,,,,,,,,,
,,,,,,,600f3bb4c3125f0d2a2f0d36,605b45a4d25f287719a41696,605b80b8a0bee85eca1e106d,Mexico,East coast,13 or older,no,2021-03-24_14h11.40.043,empathy_intonation_perc,2020.2.10,Win32,60,,,,,,,,,,0,castilian,0,1,1.80178,0,7,7,3,1,4,./stim/wavs/andalusian_match_declarative-broad-focus_Emilio-ama-la-marcha.wav,./stim/wavs/argentine_match_declarative-broad-focus_Emilio-ama-la-marcha.wav,./stim/wavs/castilian_match_declarative-broad-focus_Emilio-ama-la-marcha.wav,./stim/wavs/chilean_match_declarative-broad-focus_Emilio-ama-la-marcha.wav,./stim/wavs/cuban_match_declarative-broad-focus_Emilio-ama-la-marcha.wav,./stim/wavs/mexican_match_declarative-broad-focus_Emilio-ama-la-marcha.wav,./stim/wavs/peruvian_match_declarative-broad-focus_Emilio-ama-la-marcha.wav,./stim/wavs/puertorican_match_declarative-broad-focus_Emilio-ama-la-marcha.wav,,,,,,,,,,,,,,,,,,,,,,,,,,,,,,,,,,,,,,,,,,,,,,,,,,,,,,,,
,,,,,,,600f3bb4c3125f0d2a2f0d36,605b45a4d25f287719a41696,605b80b8a0bee85eca1e106d,Mexico,East coast,13 or older,no,2021-03-24_14h11.40.043,empathy_intonation_perc,2020.2.10,Win32,60,,,,,,,,,,0,andalusian,1,0,2.60253,0,8,8,43,1,44,./stim/wavs/andalusian_mismatch_declarative-narrow-focus_La-maestra-vive-en-Paris.wav,./stim/wavs/argentine_mismatch_declarative-narrow-focus_La-maestra-vive-en-Paris.wav,./stim/wavs/castilian_mismatch_declarative-narrow-focus_La-maestra-vive-en-Paris.wav,./stim/wavs/chilean_mismatch_declarative-narrow-focus_La-maestra-vive-en-Paris.wav,./stim/wavs/cuban_mismatch_declarative-narrow-focus_La-maestra-vive-en-Paris.wav,./stim/wavs/mexican_mismatch_declarative-narrow-focus_La-maestra-vive-en-Paris.wav,./stim/wavs/peruvian_mismatch_declarative-narrow-focus_La-maestra-vive-en-Paris.wav,./stim/wavs/puertorican_mismatch_declarative-narrow-focus_La-maestra-vive-en-Paris.wav,,,,,,,,,,,,,,,,,,,,,,,,,,,,,,,,,,,,,,,,,,,,,,,,,,,,,,,,
,,,,,,,600f3bb4c3125f0d2a2f0d36,605b45a4d25f287719a41696,605b80b8a0bee85eca1e106d,Mexico,East coast,13 or older,no,2021-03-24_14h11.40.043,empathy_intonation_perc,2020.2.10,Win32,60,,,,,,,,,,1,puertorican,1,1,1.981775,0,9,9,56,1,57,./stim/wavs/andalusian_mismatch_interrogative-total-yn_El-bebe-comia-muy-bien.wav,./stim/wavs/argentine_mismatch_interrogative-total-yn_El-bebe-comia-muy-bien.wav,./stim/wavs/castilian_mismatch_interrogative-total-yn_El-bebe-comia-muy-bien.wav,./stim/wavs/chilean_mismatch_interrogative-total-yn_El-bebe-comia-muy-bien.wav,./stim/wavs/cuban_mismatch_interrogative-total-yn_El-bebe-comia-muy-bien.wav,./stim/wavs/mexican_mismatch_interrogative-total-yn_El-bebe-comia-muy-bien.wav,./stim/wavs/peruvian_mismatch_interrogative-total-yn_El-bebe-comia-muy-bien.wav,./stim/wavs/puertorican_mismatch_interrogative-total-yn_El-bebe-comia-muy-bien.wav,,,,,,,,,,,,,,,,,,,,,,,,,,,,,,,,,,,,,,,,,,,,,,,,,,,,,,,,
,,,,,,,600f3bb4c3125f0d2a2f0d36,605b45a4d25f287719a41696,605b80b8a0bee85eca1e106d,Mexico,East coast,13 or older,no,2021-03-24_14h11.40.043,empathy_intonation_perc,2020.2.10,Win32,60,,,,,,,,,,0,puertorican,0,1,1.76488,0,10,10,38,1,39,./stim/wavs/andalusian_mismatch_declarative-broad-focus_Mi-novio-viene-del-lago.wav,./stim/wavs/argentine_mismatch_declarative-broad-focus_Mi-novio-viene-del-lago.wav,./stim/wavs/castilian_mismatch_declarative-broad-focus_Mi-novio-viene-del-lago.wav,./stim/wavs/chilean_mismatch_declarative-broad-focus_Mi-novio-viene-del-lago.wav,./stim/wavs/cuban_mismatch_declarative-broad-focus_Mi-novio-viene-del-lago.wav,./stim/wavs/mexican_mismatch_declarative-broad-focus_Mi-novio-viene-del-lago.wav,./stim/wavs/peruvian_mismatch_declarative-broad-focus_Mi-novio-viene-del-lago.wav,./stim/wavs/puertorican_mismatch_declarative-broad-focus_Mi-novio-viene-del-lago.wav,,,,,,,,,,,,,,,,,,,,,,,,,,,,,,,,,,,,,,,,,,,,,,,,,,,,,,,,
,,,,,,,600f3bb4c3125f0d2a2f0d36,605b45a4d25f287719a41696,605b80b8a0bee85eca1e106d,Mexico,East coast,13 or older,no,2021-03-24_14h11.40.043,empathy_intonation_perc,2020.2.10,Win32,60,,,,,,,,,,0,cuban,0,1,2.77363,0,11,11,33,1,34,./stim/wavs/andalusian_mismatch_declarative-broad-focus_El-hombre-mira-la-luna.wav,./stim/wavs/argentine_mismatch_declarative-broad-focus_El-hombre-mira-la-luna.wav,./stim/wavs/castilian_mismatch_declarative-broad-focus_El-hombre-mira-la-luna.wav,./stim/wavs/chilean_mismatch_declarative-broad-focus_El-hombre-mira-la-luna.wav,./stim/wavs/cuban_mismatch_declarative-broad-focus_El-hombre-mira-la-luna.wav,./stim/wavs/mexican_mismatch_declarative-broad-focus_El-hombre-mira-la-luna.wav,./stim/wavs/peruvian_mismatch_declarative-broad-focus_El-hombre-mira-la-luna.wav,./stim/wavs/puertorican_mismatch_declarative-broad-focus_El-hombre-mira-la-luna.wav,,,,,,,,,,,,,,,,,,,,,,,,,,,,,,,,,,,,,,,,,,,,,,,,,,,,,,,,
,,,,,,,600f3bb4c3125f0d2a2f0d36,605b45a4d25f287719a41696,605b80b8a0bee85eca1e106d,Mexico,East coast,13 or older,no,2021-03-24_14h11.40.043,empathy_intonation_perc,2020.2.10,Win32,60,,,,,,,,,,1,peruvian,1,1,0.8561,0,12,12,22,1,23,./stim/wavs/andalusian_match_interrogative-partial-wh_Por-que-hablaba-del-agua.wav,./stim/wavs/argentine_match_interrogative-partial-wh_Por-que-hablaba-del-agua.wav,./stim/wavs/castilian_match_interrogative-partial-wh_Por-que-hablaba-del-agua.wav,./stim/wavs/chilean_match_interrogative-partial-wh_Por-que-hablaba-del-agua.wav,./stim/wavs/cuban_match_interrogative-partial-wh_Por-que-hablaba-del-agua.wav,./stim/wavs/mexican_match_interrogative-partial-wh_Por-que-hablaba-del-agua.wav,./stim/wavs/peruvian_match_interrogative-partial-wh_Por-que-hablaba-del-agua.wav,./stim/wavs/puertorican_match_interrogative-partial-wh_Por-que-hablaba-del-agua.wav,,,,,,,,,,,,,,,,,,,,,,,,,,,,,,,,,,,,,,,,,,,,,,,,,,,,,,,,
,,,,,,,600f3bb4c3125f0d2a2f0d36,605b45a4d25f287719a41696,605b80b8a0bee85eca1e106d,Mexico,East coast,13 or older,no,2021-03-24_14h11.40.043,empathy_intonation_perc,2020.2.10,Win32,60,,,,,,,,,,1,chilean,0,0,1.6546,0,13,13,31,1,32,./stim/wavs/andalusian_match_interrogative-total-yn_Marta-abre-el-regalo.wav,./stim/wavs/argentine_match_interrogative-total-yn_Marta-abre-el-regalo.wav,./stim/wavs/castilian_match_interrogative-total-yn_Marta-abre-el-regalo.wav,./stim/wavs/chilean_match_interrogative-total-yn_Marta-abre-el-regalo.wav,./stim/wavs/cuban_match_interrogative-total-yn_Marta-abre-el-regalo.wav,./stim/wavs/mexican_match_interrogative-total-yn_Marta-abre-el-regalo.wav,./stim/wavs/peruvian_match_interrogative-total-yn_Marta-abre-el-regalo.wav,./stim/wavs/puertorican_match_interrogative-total-yn_Marta-abre-el-regalo.wav,,,,,,,,,,,,,,,,,,,,,,,,,,,,,,,,,,,,,,,,,,,,,,,,,,,,,,,,
,,,,,,,600f3bb4c3125f0d2a2f0d36,605b45a4d25f287719a41696,605b80b8a0bee85eca1e106d,Mexico,East coast,13 or older,no,2021-03-24_14h11.40.043,empathy_intonation_perc,2020.2.10,Win32,60,,,,,,,,,,1,peruvian,1,1,1.88834,0,14,14,24,1,25,./stim/wavs/andalusian_match_interrogative-total-yn_Ana-lleva-el-abrigo.wav,./stim/wavs/argentine_match_interrogative-total-yn_Ana-lleva-el-abrigo.wav,./stim/wavs/castilian_match_interrogative-total-yn_Ana-lleva-el-abrigo.wav,./stim/wavs/chilean_match_interrogative-total-yn_Ana-lleva-el-abrigo.wav,./stim/wavs/cuban_match_interrogative-total-yn_Ana-lleva-el-abrigo.wav,./stim/wavs/mexican_match_interrogative-total-yn_Ana-lleva-el-abrigo.wav,./stim/wavs/peruvian_match_interrogative-total-yn_Ana-lleva-el-abrigo.wav,./stim/wavs/puertorican_match_interrogative-total-yn_Ana-lleva-el-abrigo.wav,,,,,,,,,,,,,,,,,,,,,,,,,,,,,,,,,,,,,,,,,,,,,,,,,,,,,,,,
,,,,,,,600f3bb4c3125f0d2a2f0d36,605b45a4d25f287719a41696,605b80b8a0bee85eca1e106d,Mexico,East coast,13 or older,no,2021-03-24_14h11.40.043,empathy_intonation_perc,2020.2.10,Win32,60,,,,,,,,,,1,puertorican,1,1,2.744805,0,15,15,19,1,20,./stim/wavs/andalusian_match_interrogative-partial-wh_Cuando-vendia-el-carro.wav,./stim/wavs/argentine_match_interrogative-partial-wh_Cuando-vendia-el-carro.wav,./stim/wavs/castilian_match_interrogative-partial-wh_Cuando-vendia-el-carro.wav,./stim/wavs/chilean_match_interrogative-partial-wh_Cuando-vendia-el-carro.wav,./stim/wavs/cuban_match_interrogative-partial-wh_Cuando-vendia-el-carro.wav,./stim/wavs/mexican_match_interrogative-partial-wh_Cuando-vendia-el-carro.wav,./stim/wavs/peruvian_match_interrogative-partial-wh_Cuando-vendia-el-carro.wav,./stim/wavs/puertorican_match_interrogative-partial-wh_Cuando-vendia-el-carro.wav,,,,,,,,,,,,,,,,,,,,,,,,,,,,,,,,,,,,,,,,,,,,,,,,,,,,,,,,
,,,,,,,600f3bb4c3125f0d2a2f0d36,605b45a4d25f287719a41696,605b80b8a0bee85eca1e106d,Mexico,East coast,13 or older,no,2021-03-24_14h11.40.043,empathy_intonation_perc,2020.2.10,Win32,60,,,,,,,,,,0,peruvian,0,1,1.438965,0,16,16,1,1,2,./stim/wavs/andalusian_match_declarative-broad-focus_Daniel-iba-a-Bolivia.wav,./stim/wavs/argentine_match_declarative-broad-focus_Daniel-iba-a-Bolivia.wav,./stim/wavs/castilian_match_declarative-broad-focus_Daniel-iba-a-Bolivia.wav,./stim/wavs/chilean_match_declarative-broad-focus_Daniel-iba-a-Bolivia.wav,./stim/wavs/cuban_match_declarative-broad-focus_Daniel-iba-a-Bolivia.wav,./stim/wavs/mexican_match_declarative-broad-focus_Daniel-iba-a-Bolivia.wav,./stim/wavs/peruvian_match_declarative-broad-focus_Daniel-iba-a-Bolivia.wav,./stim/wavs/puertorican_match_declarative-broad-focus_Daniel-iba-a-Bolivia.wav,,,,,,,,,,,,,,,,,,,,,,,,,,,,,,,,,,,,,,,,,,,,,,,,,,,,,,,,
,,,,,,,600f3bb4c3125f0d2a2f0d36,605b45a4d25f287719a41696,605b80b8a0bee85eca1e106d,Mexico,East coast,13 or older,no,2021-03-24_14h11.40.043,empathy_intonation_perc,2020.2.10,Win32,60,,,,,,,,,,1,cuban,0,0,2.12178,0,17,17,51,1,52,./stim/wavs/andalusian_mismatch_interrogative-partial-wh_Por-que-desayuna-muy-bien.wav,./stim/wavs/argentine_mismatch_interrogative-partial-wh_Por-que-desayuna-muy-bien.wav,./stim/wavs/castilian_mismatch_interrogative-partial-wh_Por-que-desayuna-muy-bien.wav,./stim/wavs/chilean_mismatch_interrogative-partial-wh_Por-que-desayuna-muy-bien.wav,./stim/wavs/cuban_mismatch_interrogative-partial-wh_Por-que-desayuna-muy-bien.wav,./stim/wavs/mexican_mismatch_interrogative-partial-wh_Por-que-desayuna-muy-bien.wav,./stim/wavs/peruvian_mismatch_interrogative-partial-wh_Por-que-desayuna-muy-bien.wav,./stim/wavs/puertorican_mismatch_interrogative-partial-wh_Por-que-desayuna-muy-bien.wav,,,,,,,,,,,,,,,,,,,,,,,,,,,,,,,,,,,,,,,,,,,,,,,,,,,,,,,,
,,,,,,,600f3bb4c3125f0d2a2f0d36,605b45a4d25f287719a41696,605b80b8a0bee85eca1e106d,Mexico,East coast,13 or older,no,2021-03-24_14h11.40.043,empathy_intonation_perc,2020.2.10,Win32,60,,,,,,,,,,0,castilian,1,0,2.07515,0,18,18,34,1,35,./stim/wavs/andalusian_mismatch_declarative-broad-focus_El-nino-oye-el-rio.wav,./stim/wavs/argentine_mismatch_declarative-broad-focus_El-nino-oye-el-rio.wav,./stim/wavs/castilian_mismatch_declarative-broad-focus_El-nino-oye-el-rio.wav,./stim/wavs/chilean_mismatch_declarative-broad-focus_El-nino-oye-el-rio.wav,./stim/wavs/cuban_mismatch_declarative-broad-focus_El-nino-oye-el-rio.wav,./stim/wavs/mexican_mismatch_declarative-broad-focus_El-nino-oye-el-rio.wav,./stim/wavs/peruvian_mismatch_declarative-broad-focus_El-nino-oye-el-rio.wav,./stim/wavs/puertorican_mismatch_declarative-broad-focus_El-nino-oye-el-rio.wav,,,,,,,,,,,,,,,,,,,,,,,,,,,,,,,,,,,,,,,,,,,,,,,,,,,,,,,,
,,,,,,,600f3bb4c3125f0d2a2f0d36,605b45a4d25f287719a41696,605b80b8a0bee85eca1e106d,Mexico,East coast,13 or older,no,2021-03-24_14h11.40.043,empathy_intonation_perc,2020.2.10,Win32,60,,,,,,,,,,0,argentine,0,1,3.21223,0,19,19,39,1,40,./stim/wavs/andalusian_mismatch_declarative-broad-focus_Mi-tia-odia-la-lluvia.wav,./stim/wavs/argentine_mismatch_declarative-broad-focus_Mi-tia-odia-la-lluvia.wav,./stim/wavs/castilian_mismatch_declarative-broad-focus_Mi-tia-odia-la-lluvia.wav,./stim/wavs/chilean_mismatch_declarative-broad-focus_Mi-tia-odia-la-lluvia.wav,./stim/wavs/cuban_mismatch_declarative-broad-focus_Mi-tia-odia-la-lluvia.wav,./stim/wavs/mexican_mismatch_declarative-broad-focus_Mi-tia-odia-la-lluvia.wav,./stim/wavs/peruvian_mismatch_declarative-broad-focus_Mi-tia-odia-la-lluvia.wav,./stim/wavs/puertorican_mismatch_declarative-broad-focus_Mi-tia-odia-la-lluvia.wav,,,,,,,,,,,,,,,,,,,,,,,,,,,,,,,,,,,,,,,,,,,,,,,,,,,,,,,,
,,,,,,,600f3bb4c3125f0d2a2f0d36,605b45a4d25f287719a41696,605b80b8a0bee85eca1e106d,Mexico,East coast,13 or older,no,2021-03-24_14h11.40.043,empathy_intonation_perc,2020.2.10,Win32,60,,,,,,,,,,0,cuban,0,1,1.721115,0,20,20,44,1,45,./stim/wavs/andalusian_mismatch_declarative-narrow-focus_La-nina-lava-el-plato.wav,./stim/wavs/argentine_mismatch_declarative-narrow-focus_La-nina-lava-el-plato.wav,./stim/wavs/castilian_mismatch_declarative-narrow-focus_La-nina-lava-el-plato.wav,./stim/wavs/chilean_mismatch_declarative-narrow-focus_La-nina-lava-el-plato.wav,./stim/wavs/cuban_mismatch_declarative-narrow-focus_La-nina-lava-el-plato.wav,./stim/wavs/mexican_mismatch_declarative-narrow-focus_La-nina-lava-el-plato.wav,./stim/wavs/peruvian_mismatch_declarative-narrow-focus_La-nina-lava-el-plato.wav,./stim/wavs/puertorican_mismatch_declarative-narrow-focus_La-nina-lava-el-plato.wav,,,,,,,,,,,,,,,,,,,,,,,,,,,,,,,,,,,,,,,,,,,,,,,,,,,,,,,,
,,,,,,,600f3bb4c3125f0d2a2f0d36,605b45a4d25f287719a41696,605b80b8a0bee85eca1e106d,Mexico,East coast,13 or older,no,2021-03-24_14h11.40.043,empathy_intonation_perc,2020.2.10,Win32,60,,,,,,,,,,0,puertorican,0,1,1.771815,0,21,21,45,1,46,./stim/wavs/andalusian_mismatch_declarative-narrow-focus_Mi-madre-come-la-fruta.wav,./stim/wavs/argentine_mismatch_declarative-narrow-focus_Mi-madre-come-la-fruta.wav,./stim/wavs/castilian_mismatch_declarative-narrow-focus_Mi-madre-come-la-fruta.wav,./stim/wavs/chilean_mismatch_declarative-narrow-focus_Mi-madre-come-la-fruta.wav,./stim/wavs/cuban_mismatch_declarative-narrow-focus_Mi-madre-come-la-fruta.wav,./stim/wavs/mexican_mismatch_declarative-narrow-focus_Mi-madre-come-la-fruta.wav,./stim/wavs/peruvian_mismatch_declarative-narrow-focus_Mi-madre-come-la-fruta.wav,./stim/wavs/puertorican_mismatch_declarative-narrow-focus_Mi-madre-come-la-fruta.wav,,,,,,,,,,,,,,,,,,,,,,,,,,,,,,,,,,,,,,,,,,,,,,,,,,,,,,,,
,,,,,,,600f3bb4c3125f0d2a2f0d36,605b45a4d25f287719a41696,605b80b8a0bee85eca1e106d,Mexico,East coast,13 or older,no,2021-03-24_14h11.40.043,empathy_intonation_perc,2020.2.10,Win32,60,,,,,,,,,,0,peruvian,1,0,2.61836,0,22,22,9,1,10,./stim/wavs/andalusian_match_declarative-narrow-focus_Daniel-iba-a-Bolivia.wav,./stim/wavs/argentine_match_declarative-narrow-focus_Daniel-iba-a-Bolivia.wav,./stim/wavs/castilian_match_declarative-narrow-focus_Daniel-iba-a-Bolivia.wav,./stim/wavs/chilean_match_declarative-narrow-focus_Daniel-iba-a-Bolivia.wav,./stim/wavs/cuban_match_declarative-narrow-focus_Daniel-iba-a-Bolivia.wav,./stim/wavs/mexican_match_declarative-narrow-focus_Daniel-iba-a-Bolivia.wav,./stim/wavs/peruvian_match_declarative-narrow-focus_Daniel-iba-a-Bolivia.wav,./stim/wavs/puertorican_match_declarative-narrow-focus_Daniel-iba-a-Bolivia.wav,,,,,,,,,,,,,,,,,,,,,,,,,,,,,,,,,,,,,,,,,,,,,,,,,,,,,,,,
,,,,,,,600f3bb4c3125f0d2a2f0d36,605b45a4d25f287719a41696,605b80b8a0bee85eca1e106d,Mexico,East coast,13 or older,no,2021-03-24_14h11.40.043,empathy_intonation_perc,2020.2.10,Win32,60,,,,,,,,,,0,puertorican,0,1,1.57402,0,23,23,35,1,36,./stim/wavs/andalusian_mismatch_declarative-broad-focus_La-maestra-vive-en-Paris.wav,./stim/wavs/argentine_mismatch_declarative-broad-focus_La-maestra-vive-en-Paris.wav,./stim/wavs/castilian_mismatch_declarative-broad-focus_La-maestra-vive-en-Paris.wav,./stim/wavs/chilean_mismatch_declarative-broad-focus_La-maestra-vive-en-Paris.wav,./stim/wavs/cuban_mismatch_declarative-broad-focus_La-maestra-vive-en-Paris.wav,./stim/wavs/mexican_mismatch_declarative-broad-focus_La-maestra-vive-en-Paris.wav,./stim/wavs/peruvian_mismatch_declarative-broad-focus_La-maestra-vive-en-Paris.wav,./stim/wavs/puertorican_mismatch_declarative-broad-focus_La-maestra-vive-en-Paris.wav,,,,,,,,,,,,,,,,,,,,,,,,,,,,,,,,,,,,,,,,,,,,,,,,,,,,,,,,
,,,,,,,600f3bb4c3125f0d2a2f0d36,605b45a4d25f287719a41696,605b80b8a0bee85eca1e106d,Mexico,East coast,13 or older,no,2021-03-24_14h11.40.043,empathy_intonation_perc,2020.2.10,Win32,60,,,,,,,,,,0,chilean,0,1,1.515955,0,24,24,0,1,1,./stim/wavs/andalusian_match_declarative-broad-focus_Ana-lleva-el-abrigo.wav,./stim/wavs/argentine_match_declarative-broad-focus_Ana-lleva-el-abrigo.wav,./stim/wavs/castilian_match_declarative-broad-focus_Ana-lleva-el-abrigo.wav,./stim/wavs/chilean_match_declarative-broad-focus_Ana-lleva-el-abrigo.wav,./stim/wavs/cuban_match_declarative-broad-focus_Ana-lleva-el-abrigo.wav,./stim/wavs/mexican_match_declarative-broad-focus_Ana-lleva-el-abrigo.wav,./stim/wavs/peruvian_match_declarative-broad-focus_Ana-lleva-el-abrigo.wav,./stim/wavs/puertorican_match_declarative-broad-focus_Ana-lleva-el-abrigo.wav,,,,,,,,,,,,,,,,,,,,,,,,,,,,,,,,,,,,,,,,,,,,,,,,,,,,,,,,
,,,,,,,600f3bb4c3125f0d2a2f0d36,605b45a4d25f287719a41696,605b80b8a0bee85eca1e106d,Mexico,East coast,13 or older,no,2021-03-24_14h11.40.043,empathy_intonation_perc,2020.2.10,Win32,60,,,,,,,,,,0,mexican,1,0,1.883865,0,25,25,6,1,7,./stim/wavs/andalusian_match_declarative-broad-focus_Mariano-habla-del-tiempo.wav,./stim/wavs/argentine_match_declarative-broad-focus_Mariano-habla-del-tiempo.wav,./stim/wavs/castilian_match_declarative-broad-focus_Mariano-habla-del-tiempo.wav,./stim/wavs/chilean_match_declarative-broad-focus_Mariano-habla-del-tiempo.wav,./stim/wavs/cuban_match_declarative-broad-focus_Mariano-habla-del-tiempo.wav,./stim/wavs/mexican_match_declarative-broad-focus_Mariano-habla-del-tiempo.wav,./stim/wavs/peruvian_match_declarative-broad-focus_Mariano-habla-del-tiempo.wav,./stim/wavs/puertorican_match_declarative-broad-focus_Mariano-habla-del-tiempo.wav,,,,,,,,,,,,,,,,,,,,,,,,,,,,,,,,,,,,,,,,,,,,,,,,,,,,,,,,
,,,,,,,600f3bb4c3125f0d2a2f0d36,605b45a4d25f287719a41696,605b80b8a0bee85eca1e106d,Mexico,East coast,13 or older,no,2021-03-24_14h11.40.043,empathy_intonation_perc,2020.2.10,Win32,60,,,,,,,,,,0,argentine,0,1,1.58508,0,26,26,40,1,41,./stim/wavs/andalusian_mismatch_declarative-narrow-focus_El-bebe-comia-muy-bien.wav,./stim/wavs/argentine_mismatch_declarative-narrow-focus_El-bebe-comia-muy-bien.wav,./stim/wavs/castilian_mismatch_declarative-narrow-focus_El-bebe-comia-muy-bien.wav,./stim/wavs/chilean_mismatch_declarative-narrow-focus_El-bebe-comia-muy-bien.wav,./stim/wavs/cuban_mismatch_declarative-narrow-focus_El-bebe-comia-muy-bien.wav,./stim/wavs/mexican_mismatch_declarative-narrow-focus_El-bebe-comia-muy-bien.wav,./stim/wavs/peruvian_mismatch_declarative-narrow-focus_El-bebe-comia-muy-bien.wav,./stim/wavs/puertorican_mismatch_declarative-narrow-focus_El-bebe-comia-muy-bien.wav,,,,,,,,,,,,,,,,,,,,,,,,,,,,,,,,,,,,,,,,,,,,,,,,,,,,,,,,
,,,,,,,600f3bb4c3125f0d2a2f0d36,605b45a4d25f287719a41696,605b80b8a0bee85eca1e106d,Mexico,East coast,13 or older,no,2021-03-24_14h11.40.043,empathy_intonation_perc,2020.2.10,Win32,60,,,,,,,,,,1,andalusian,0,0,2.157655,0,27,27,30,1,31,./stim/wavs/andalusian_match_interrogative-total-yn_Mariano-habla-del-tiempo.wav,./stim/wavs/argentine_match_interrogative-total-yn_Mariano-habla-del-tiempo.wav,./stim/wavs/castilian_match_interrogative-total-yn_Mariano-habla-del-tiempo.wav,./stim/wavs/chilean_match_interrogative-total-yn_Mariano-habla-del-tiempo.wav,./stim/wavs/cuban_match_interrogative-total-yn_Mariano-habla-del-tiempo.wav,./stim/wavs/mexican_match_interrogative-total-yn_Mariano-habla-del-tiempo.wav,./stim/wavs/peruvian_match_interrogative-total-yn_Mariano-habla-del-tiempo.wav,./stim/wavs/puertorican_match_interrogative-total-yn_Mariano-habla-del-tiempo.wav,,,,,,,,,,,,,,,,,,,,,,,,,,,,,,,,,,,,,,,,,,,,,,,,,,,,,,,,
,,,,,,,600f3bb4c3125f0d2a2f0d36,605b45a4d25f287719a41696,605b80b8a0bee85eca1e106d,Mexico,East coast,13 or older,no,2021-03-24_14h11.40.043,empathy_intonation_perc,2020.2.10,Win32,60,,,,,,,,,,0,argentine,0,1,1.751265,0,28,28,11,1,12,./stim/wavs/andalusian_match_declarative-narrow-focus_Emilio-ama-la-marcha.wav,./stim/wavs/argentine_match_declarative-narrow-focus_Emilio-ama-la-marcha.wav,./stim/wavs/castilian_match_declarative-narrow-focus_Emilio-ama-la-marcha.wav,./stim/wavs/chilean_match_declarative-narrow-focus_Emilio-ama-la-marcha.wav,./stim/wavs/cuban_match_declarative-narrow-focus_Emilio-ama-la-marcha.wav,./stim/wavs/mexican_match_declarative-narrow-focus_Emilio-ama-la-marcha.wav,./stim/wavs/peruvian_match_declarative-narrow-focus_Emilio-ama-la-marcha.wav,./stim/wavs/puertorican_match_declarative-narrow-focus_Emilio-ama-la-marcha.wav,,,,,,,,,,,,,,,,,,,,,,,,,,,,,,,,,,,,,,,,,,,,,,,,,,,,,,,,
,,,,,,,600f3bb4c3125f0d2a2f0d36,605b45a4d25f287719a41696,605b80b8a0bee85eca1e106d,Mexico,East coast,13 or older,no,2021-03-24_14h11.40.043,empathy_intonation_perc,2020.2.10,Win32,60,,,,,,,,,,1,chilean,1,1,1.118795,0,29,29,16,1,17,./stim/wavs/andalusian_match_interrogative-partial-wh_Cuando-bebia-el-vino.wav,./stim/wavs/argentine_match_interrogative-partial-wh_Cuando-bebia-el-vino.wav,./stim/wavs/castilian_match_interrogative-partial-wh_Cuando-bebia-el-vino.wav,./stim/wavs/chilean_match_interrogative-partial-wh_Cuando-bebia-el-vino.wav,./stim/wavs/cuban_match_interrogative-partial-wh_Cuando-bebia-el-vino.wav,./stim/wavs/mexican_match_interrogative-partial-wh_Cuando-bebia-el-vino.wav,./stim/wavs/peruvian_match_interrogative-partial-wh_Cuando-bebia-el-vino.wav,./stim/wavs/puertorican_match_interrogative-partial-wh_Cuando-bebia-el-vino.wav,,,,,,,,,,,,,,,,,,,,,,,,,,,,,,,,,,,,,,,,,,,,,,,,,,,,,,,,
,,,,,,,600f3bb4c3125f0d2a2f0d36,605b45a4d25f287719a41696,605b80b8a0bee85eca1e106d,Mexico,East coast,13 or older,no,2021-03-24_14h11.40.043,empathy_intonation_perc,2020.2.10,Win32,60,,,,,,,,,,1,peruvian,1,1,1.805155,0,30,30,57,1,58,./stim/wavs/andalusian_mismatch_interrogative-total-yn_El-hombre-mira-la-luna.wav,./stim/wavs/argentine_mismatch_interrogative-total-yn_El-hombre-mira-la-luna.wav,./stim/wavs/castilian_mismatch_interrogative-total-yn_El-hombre-mira-la-luna.wav,./stim/wavs/chilean_mismatch_interrogative-total-yn_El-hombre-mira-la-luna.wav,./stim/wavs/cuban_mismatch_interrogative-total-yn_El-hombre-mira-la-luna.wav,./stim/wavs/mexican_mismatch_interrogative-total-yn_El-hombre-mira-la-luna.wav,./stim/wavs/peruvian_mismatch_interrogative-total-yn_El-hombre-mira-la-luna.wav,./stim/wavs/puertorican_mismatch_interrogative-total-yn_El-hombre-mira-la-luna.wav,,,,,,,,,,,,,,,,,,,,,,,,,,,,,,,,,,,,,,,,,,,,,,,,,,,,,,,,
,,,,,,,600f3bb4c3125f0d2a2f0d36,605b45a4d25f287719a41696,605b80b8a0bee85eca1e106d,Mexico,East coast,13 or older,no,2021-03-24_14h11.40.043,empathy_intonation_perc,2020.2.10,Win32,60,,,,,,,,,,1,peruvian,0,0,7.966315,0,31,31,21,1,22,./stim/wavs/andalusian_match_interrogative-partial-wh_Por-que-ama-la-navidad.wav,./stim/wavs/argentine_match_interrogative-partial-wh_Por-que-ama-la-navidad.wav,./stim/wavs/castilian_match_interrogative-partial-wh_Por-que-ama-la-navidad.wav,./stim/wavs/chilean_match_interrogative-partial-wh_Por-que-ama-la-navidad.wav,./stim/wavs/cuban_match_interrogative-partial-wh_Por-que-ama-la-navidad.wav,./stim/wavs/mexican_match_interrogative-partial-wh_Por-que-ama-la-navidad.wav,./stim/wavs/peruvian_match_interrogative-partial-wh_Por-que-ama-la-navidad.wav,./stim/wavs/puertorican_match_interrogative-partial-wh_Por-que-ama-la-navidad.wav,,,,,,,,,,,,,,,,,,,,,,,,,,,,,,,,,,,,,,,,,,,,,,,,,,,,,,,,
,,,,,,,600f3bb4c3125f0d2a2f0d36,605b45a4d25f287719a41696,605b80b8a0bee85eca1e106d,Mexico,East coast,13 or older,no,2021-03-24_14h11.40.043,empathy_intonation_perc,2020.2.10,Win32,60,,,,,,,,,,1,mexican,1,1,3.79275,0,32,32,28,1,29,./stim/wavs/andalusian_match_interrogative-total-yn_Manuela-vende-el-carro.wav,./stim/wavs/argentine_match_interrogative-total-yn_Manuela-vende-el-carro.wav,./stim/wavs/castilian_match_interrogative-total-yn_Manuela-vende-el-carro.wav,./stim/wavs/chilean_match_interrogative-total-yn_Manuela-vende-el-carro.wav,./stim/wavs/cuban_match_interrogative-total-yn_Manuela-vende-el-carro.wav,./stim/wavs/mexican_match_interrogative-total-yn_Manuela-vende-el-carro.wav,./stim/wavs/peruvian_match_interrogative-total-yn_Manuela-vende-el-carro.wav,./stim/wavs/puertorican_match_interrogative-total-yn_Manuela-vende-el-carro.wav,,,,,,,,,,,,,,,,,,,,,,,,,,,,,,,,,,,,,,,,,,,,,,,,,,,,,,,,
,,,,,,,600f3bb4c3125f0d2a2f0d36,605b45a4d25f287719a41696,605b80b8a0bee85eca1e106d,Mexico,East coast,13 or older,no,2021-03-24_14h11.40.043,empathy_intonation_perc,2020.2.10,Win32,60,,,,,,,,,,1,peruvian,1,1,1.150705,0,33,33,20,1,21,./stim/wavs/andalusian_match_interrogative-partial-wh_Por-que-abre-el-regalo.wav,./stim/wavs/argentine_match_interrogative-partial-wh_Por-que-abre-el-regalo.wav,./stim/wavs/castilian_match_interrogative-partial-wh_Por-que-abre-el-regalo.wav,./stim/wavs/chilean_match_interrogative-partial-wh_Por-que-abre-el-regalo.wav,./stim/wavs/cuban_match_interrogative-partial-wh_Por-que-abre-el-regalo.wav,./stim/wavs/mexican_match_interrogative-partial-wh_Por-que-abre-el-regalo.wav,./stim/wavs/peruvian_match_interrogative-partial-wh_Por-que-abre-el-regalo.wav,./stim/wavs/puertorican_match_interrogative-partial-wh_Por-que-abre-el-regalo.wav,,,,,,,,,,,,,,,,,,,,,,,,,,,,,,,,,,,,,,,,,,,,,,,,,,,,,,,,
,,,,,,,600f3bb4c3125f0d2a2f0d36,605b45a4d25f287719a41696,605b80b8a0bee85eca1e106d,Mexico,East coast,13 or older,no,2021-03-24_14h11.40.043,empathy_intonation_perc,2020.2.10,Win32,60,,,,,,,,,,1,argentine,0,0,1.18648,0,34,34,26,1,27,./stim/wavs/andalusian_match_interrogative-total-yn_David-leia-el-libro.wav,./stim/wavs/argentine_match_interrogative-total-yn_David-leia-el-libro.wav,./stim/wavs/castilian_match_interrogative-total-yn_David-leia-el-libro.wav,./stim/wavs/chilean_match_interrogative-total-yn_David-leia-el-libro.wav,./stim/wavs/cuban_match_interrogative-total-yn_David-leia-el-libro.wav,./stim/wavs/mexican_match_interrogative-total-yn_David-leia-el-libro.wav,./stim/wavs/peruvian_match_interrogative-total-yn_David-leia-el-libro.wav,./stim/wavs/puertorican_match_interrogative-total-yn_David-leia-el-libro.wav,,,,,,,,,,,,,,,,,,,,,,,,,,,,,,,,,,,,,,,,,,,,,,,,,,,,,,,,
,,,,,,,600f3bb4c3125f0d2a2f0d36,605b45a4d25f287719a41696,605b80b8a0bee85eca1e106d,Mexico,East coast,13 or older,no,2021-03-24_14h11.40.043,empathy_intonation_perc,2020.2.10,Win32,60,,,,,,,,,,1,argentine,1,1,1.083005,0,35,35,49,1,50,./stim/wavs/andalusian_mismatch_interrogative-partial-wh_Cuando-lavaba-el-plato.wav,./stim/wavs/argentine_mismatch_interrogative-partial-wh_Cuando-lavaba-el-plato.wav,./stim/wavs/castilian_mismatch_interrogative-partial-wh_Cuando-lavaba-el-plato.wav,./stim/wavs/chilean_mismatch_interrogative-partial-wh_Cuando-lavaba-el-plato.wav,./stim/wavs/cuban_mismatch_interrogative-partial-wh_Cuando-lavaba-el-plato.wav,./stim/wavs/mexican_mismatch_interrogative-partial-wh_Cuando-lavaba-el-plato.wav,./stim/wavs/peruvian_mismatch_interrogative-partial-wh_Cuando-lavaba-el-plato.wav,./stim/wavs/puertorican_mismatch_interrogative-partial-wh_Cuando-lavaba-el-plato.wav,,,,,,,,,,,,,,,,,,,,,,,,,,,,,,,,,,,,,,,,,,,,,,,,,,,,,,,,
,,,,,,,600f3bb4c3125f0d2a2f0d36,605b45a4d25f287719a41696,605b80b8a0bee85eca1e106d,Mexico,East coast,13 or older,no,2021-03-24_14h11.40.043,empathy_intonation_perc,2020.2.10,Win32,60,,,,,,,,,,1,chilean,0,0,0.852525,0,36,36,29,1,30,./stim/wavs/andalusian_match_interrogative-total-yn_Maria-bebe-el-vino.wav,./stim/wavs/argentine_match_interrogative-total-yn_Maria-bebe-el-vino.wav,./stim/wavs/castilian_match_interrogative-total-yn_Maria-bebe-el-vino.wav,./stim/wavs/chilean_match_interrogative-total-yn_Maria-bebe-el-vino.wav,./stim/wavs/cuban_match_interrogative-total-yn_Maria-bebe-el-vino.wav,./stim/wavs/mexican_match_interrogative-total-yn_Maria-bebe-el-vino.wav,./stim/wavs/peruvian_match_interrogative-total-yn_Maria-bebe-el-vino.wav,./stim/wavs/puertorican_match_interrogative-total-yn_Maria-bebe-el-vino.wav,,,,,,,,,,,,,,,,,,,,,,,,,,,,,,,,,,,,,,,,,,,,,,,,,,,,,,,,
,,,,,,,600f3bb4c3125f0d2a2f0d36,605b45a4d25f287719a41696,605b80b8a0bee85eca1e106d,Mexico,East coast,13 or older,no,2021-03-24_14h11.40.043,empathy_intonation_perc,2020.2.10,Win32,60,,,,,,,,,,1,puertorican,1,1,1.461605,0,37,37,18,1,19,./stim/wavs/andalusian_match_interrogative-partial-wh_Cuando-lleva-el-abrigo.wav,./stim/wavs/argentine_match_interrogative-partial-wh_Cuando-lleva-el-abrigo.wav,./stim/wavs/castilian_match_interrogative-partial-wh_Cuando-lleva-el-abrigo.wav,./stim/wavs/chilean_match_interrogative-partial-wh_Cuando-lleva-el-abrigo.wav,./stim/wavs/cuban_match_interrogative-partial-wh_Cuando-lleva-el-abrigo.wav,./stim/wavs/mexican_match_interrogative-partial-wh_Cuando-lleva-el-abrigo.wav,./stim/wavs/peruvian_match_interrogative-partial-wh_Cuando-lleva-el-abrigo.wav,./stim/wavs/puertorican_match_interrogative-partial-wh_Cuando-lleva-el-abrigo.wav,,,,,,,,,,,,,,,,,,,,,,,,,,,,,,,,,,,,,,,,,,,,,,,,,,,,,,,,
,,,,,,,600f3bb4c3125f0d2a2f0d36,605b45a4d25f287719a41696,605b80b8a0bee85eca1e106d,Mexico,East coast,13 or older,no,2021-03-24_14h11.40.043,empathy_intonation_perc,2020.2.10,Win32,60,,,,,,,,,,0,puertorican,0,1,1.84319,0,38,38,41,1,42,./stim/wavs/andalusian_mismatch_declarative-narrow-focus_El-hombre-mira-la-luna.wav,./stim/wavs/argentine_mismatch_declarative-narrow-focus_El-hombre-mira-la-luna.wav,./stim/wavs/castilian_mismatch_declarative-narrow-focus_El-hombre-mira-la-luna.wav,./stim/wavs/chilean_mismatch_declarative-narrow-focus_El-hombre-mira-la-luna.wav,./stim/wavs/cuban_mismatch_declarative-narrow-focus_El-hombre-mira-la-luna.wav,./stim/wavs/mexican_mismatch_declarative-narrow-focus_El-hombre-mira-la-luna.wav,./stim/wavs/peruvian_mismatch_declarative-narrow-focus_El-hombre-mira-la-luna.wav,./stim/wavs/puertorican_mismatch_declarative-narrow-focus_El-hombre-mira-la-luna.wav,,,,,,,,,,,,,,,,,,,,,,,,,,,,,,,,,,,,,,,,,,,,,,,,,,,,,,,,
,,,,,,,600f3bb4c3125f0d2a2f0d36,605b45a4d25f287719a41696,605b80b8a0bee85eca1e106d,Mexico,East coast,13 or older,no,2021-03-24_14h11.40.043,empathy_intonation_perc,2020.2.10,Win32,60,,,,,,,,,,0,peruvian,0,1,1.782845,0,39,39,8,1,9,./stim/wavs/andalusian_match_declarative-narrow-focus_Ana-lleva-el-abrigo.wav,./stim/wavs/argentine_match_declarative-narrow-focus_Ana-lleva-el-abrigo.wav,./stim/wavs/castilian_match_declarative-narrow-focus_Ana-lleva-el-abrigo.wav,./stim/wavs/chilean_match_declarative-narrow-focus_Ana-lleva-el-abrigo.wav,./stim/wavs/cuban_match_declarative-narrow-focus_Ana-lleva-el-abrigo.wav,./stim/wavs/mexican_match_declarative-narrow-focus_Ana-lleva-el-abrigo.wav,./stim/wavs/peruvian_match_declarative-narrow-focus_Ana-lleva-el-abrigo.wav,./stim/wavs/puertorican_match_declarative-narrow-focus_Ana-lleva-el-abrigo.wav,,,,,,,,,,,,,,,,,,,,,,,,,,,,,,,,,,,,,,,,,,,,,,,,,,,,,,,,
,,,,,,,600f3bb4c3125f0d2a2f0d36,605b45a4d25f287719a41696,605b80b8a0bee85eca1e106d,Mexico,East coast,13 or older,no,2021-03-24_14h11.40.043,empathy_intonation_perc,2020.2.10,Win32,60,,,,,,,,,,1,mexican,1,1,2.5445,0,40,40,27,1,28,./stim/wavs/andalusian_match_interrogative-total-yn_Emilio-ama-la-marcha.wav,./stim/wavs/argentine_match_interrogative-total-yn_Emilio-ama-la-marcha.wav,./stim/wavs/castilian_match_interrogative-total-yn_Emilio-ama-la-marcha.wav,./stim/wavs/chilean_match_interrogative-total-yn_Emilio-ama-la-marcha.wav,./stim/wavs/cuban_match_interrogative-total-yn_Emilio-ama-la-marcha.wav,./stim/wavs/mexican_match_interrogative-total-yn_Emilio-ama-la-marcha.wav,./stim/wavs/peruvian_match_interrogative-total-yn_Emilio-ama-la-marcha.wav,./stim/wavs/puertorican_match_interrogative-total-yn_Emilio-ama-la-marcha.wav,,,,,,,,,,,,,,,,,,,,,,,,,,,,,,,,,,,,,,,,,,,,,,,,,,,,,,,,
,,,,,,,600f3bb4c3125f0d2a2f0d36,605b45a4d25f287719a41696,605b80b8a0bee85eca1e106d,Mexico,East coast,13 or older,no,2021-03-24_14h11.40.043,empathy_intonation_perc,2020.2.10,Win32,60,,,,,,,,,,1,peruvian,0,0,1.80085,0,41,41,62,1,63,./stim/wavs/andalusian_mismatch_interrogative-total-yn_Mi-novio-viene-del-lago.wav,./stim/wavs/argentine_mismatch_interrogative-total-yn_Mi-novio-viene-del-lago.wav,./stim/wavs/castilian_mismatch_interrogative-total-yn_Mi-novio-viene-del-lago.wav,./stim/wavs/chilean_mismatch_interrogative-total-yn_Mi-novio-viene-del-lago.wav,./stim/wavs/cuban_mismatch_interrogative-total-yn_Mi-novio-viene-del-lago.wav,./stim/wavs/mexican_mismatch_interrogative-total-yn_Mi-novio-viene-del-lago.wav,./stim/wavs/peruvian_mismatch_interrogative-total-yn_Mi-novio-viene-del-lago.wav,./stim/wavs/puertorican_mismatch_interrogative-total-yn_Mi-novio-viene-del-lago.wav,,,,,,,,,,,,,,,,,,,,,,,,,,,,,,,,,,,,,,,,,,,,,,,,,,,,,,,,
,,,,,,,600f3bb4c3125f0d2a2f0d36,605b45a4d25f287719a41696,605b80b8a0bee85eca1e106d,Mexico,East coast,13 or older,no,2021-03-24_14h11.40.043,empathy_intonation_perc,2020.2.10,Win32,60,,,,,,,,,,0,puertorican,0,1,1.904875,0,42,42,2,1,3,./stim/wavs/andalusian_match_declarative-broad-focus_David-leia-el-libro.wav,./stim/wavs/argentine_match_declarative-broad-focus_David-leia-el-libro.wav,./stim/wavs/castilian_match_declarative-broad-focus_David-leia-el-libro.wav,./stim/wavs/chilean_match_declarative-broad-focus_David-leia-el-libro.wav,./stim/wavs/cuban_match_declarative-broad-focus_David-leia-el-libro.wav,./stim/wavs/mexican_match_declarative-broad-focus_David-leia-el-libro.wav,./stim/wavs/peruvian_match_declarative-broad-focus_David-leia-el-libro.wav,./stim/wavs/puertorican_match_declarative-broad-focus_David-leia-el-libro.wav,,,,,,,,,,,,,,,,,,,,,,,,,,,,,,,,,,,,,,,,,,,,,,,,,,,,,,,,
,,,,,,,600f3bb4c3125f0d2a2f0d36,605b45a4d25f287719a41696,605b80b8a0bee85eca1e106d,Mexico,East coast,13 or older,no,2021-03-24_14h11.40.043,empathy_intonation_perc,2020.2.10,Win32,60,,,,,,,,,,0,argentine,0,1,1.92295,0,43,43,15,1,16,./stim/wavs/andalusian_match_declarative-narrow-focus_Marta-abre-el-regalo.wav,./stim/wavs/argentine_match_declarative-narrow-focus_Marta-abre-el-regalo.wav,./stim/wavs/castilian_match_declarative-narrow-focus_Marta-abre-el-regalo.wav,./stim/wavs/chilean_match_declarative-narrow-focus_Marta-abre-el-regalo.wav,./stim/wavs/cuban_match_declarative-narrow-focus_Marta-abre-el-regalo.wav,./stim/wavs/mexican_match_declarative-narrow-focus_Marta-abre-el-regalo.wav,./stim/wavs/peruvian_match_declarative-narrow-focus_Marta-abre-el-regalo.wav,./stim/wavs/puertorican_match_declarative-narrow-focus_Marta-abre-el-regalo.wav,,,,,,,,,,,,,,,,,,,,,,,,,,,,,,,,,,,,,,,,,,,,,,,,,,,,,,,,
,,,,,,,600f3bb4c3125f0d2a2f0d36,605b45a4d25f287719a41696,605b80b8a0bee85eca1e106d,Mexico,East coast,13 or older,no,2021-03-24_14h11.40.043,empathy_intonation_perc,2020.2.10,Win32,60,,,,,,,,,,1,andalusian,1,1,2.004685,0,44,44,59,1,60,./stim/wavs/andalusian_mismatch_interrogative-total-yn_La-maestra-vive-en-Paris.wav,./stim/wavs/argentine_mismatch_interrogative-total-yn_La-maestra-vive-en-Paris.wav,./stim/wavs/castilian_mismatch_interrogative-total-yn_La-maestra-vive-en-Paris.wav,./stim/wavs/chilean_mismatch_interrogative-total-yn_La-maestra-vive-en-Paris.wav,./stim/wavs/cuban_mismatch_interrogative-total-yn_La-maestra-vive-en-Paris.wav,./stim/wavs/mexican_mismatch_interrogative-total-yn_La-maestra-vive-en-Paris.wav,./stim/wavs/peruvian_mismatch_interrogative-total-yn_La-maestra-vive-en-Paris.wav,./stim/wavs/puertorican_mismatch_interrogative-total-yn_La-maestra-vive-en-Paris.wav,,,,,,,,,,,,,,,,,,,,,,,,,,,,,,,,,,,,,,,,,,,,,,,,,,,,,,,,
,,,,,,,600f3bb4c3125f0d2a2f0d36,605b45a4d25f287719a41696,605b80b8a0bee85eca1e106d,Mexico,East coast,13 or older,no,2021-03-24_14h11.40.043,empathy_intonation_perc,2020.2.10,Win32,60,,,,,,,,,,0,cuban,0,1,1.48686,0,45,45,14,1,15,./stim/wavs/andalusian_match_declarative-narrow-focus_Mariano-habla-del-tiempo.wav,./stim/wavs/argentine_match_declarative-narrow-focus_Mariano-habla-del-tiempo.wav,./stim/wavs/castilian_match_declarative-narrow-focus_Mariano-habla-del-tiempo.wav,./stim/wavs/chilean_match_declarative-narrow-focus_Mariano-habla-del-tiempo.wav,./stim/wavs/cuban_match_declarative-narrow-focus_Mariano-habla-del-tiempo.wav,./stim/wavs/mexican_match_declarative-narrow-focus_Mariano-habla-del-tiempo.wav,./stim/wavs/peruvian_match_declarative-narrow-focus_Mariano-habla-del-tiempo.wav,./stim/wavs/puertorican_match_declarative-narrow-focus_Mariano-habla-del-tiempo.wav,,,,,,,,,,,,,,,,,,,,,,,,,,,,,,,,,,,,,,,,,,,,,,,,,,,,,,,,
,,,,,,,600f3bb4c3125f0d2a2f0d36,605b45a4d25f287719a41696,605b80b8a0bee85eca1e106d,Mexico,East coast,13 or older,no,2021-03-24_14h11.40.043,empathy_intonation_perc,2020.2.10,Win32,60,,,,,,,,,,0,chilean,1,0,5.50042,0,46,46,12,1,13,./stim/wavs/andalusian_match_declarative-narrow-focus_Manuela-vende-el-carro.wav,./stim/wavs/argentine_match_declarative-narrow-focus_Manuela-vende-el-carro.wav,./stim/wavs/castilian_match_declarative-narrow-focus_Manuela-vende-el-carro.wav,./stim/wavs/chilean_match_declarative-narrow-focus_Manuela-vende-el-carro.wav,./stim/wavs/cuban_match_declarative-narrow-focus_Manuela-vende-el-carro.wav,./stim/wavs/mexican_match_declarative-narrow-focus_Manuela-vende-el-carro.wav,./stim/wavs/peruvian_match_declarative-narrow-focus_Manuela-vende-el-carro.wav,./stim/wavs/puertorican_match_declarative-narrow-focus_Manuela-vende-el-carro.wav,,,,,,,,,,,,,,,,,,,,,,,,,,,,,,,,,,,,,,,,,,,,,,,,,,,,,,,,
,,,,,,,600f3bb4c3125f0d2a2f0d36,605b45a4d25f287719a41696,605b80b8a0bee85eca1e106d,Mexico,East coast,13 or older,no,2021-03-24_14h11.40.043,empathy_intonation_perc,2020.2.10,Win32,60,,,,,,,,,,0,cuban,0,1,2.234835,0,47,47,7,1,8,./stim/wavs/andalusian_match_declarative-broad-focus_Marta-abre-el-regalo.wav,./stim/wavs/argentine_match_declarative-broad-focus_Marta-abre-el-regalo.wav,./stim/wavs/castilian_match_declarative-broad-focus_Marta-abre-el-regalo.wav,./stim/wavs/chilean_match_declarative-broad-focus_Marta-abre-el-regalo.wav,./stim/wavs/cuban_match_declarative-broad-focus_Marta-abre-el-regalo.wav,./stim/wavs/mexican_match_declarative-broad-focus_Marta-abre-el-regalo.wav,./stim/wavs/peruvian_match_declarative-broad-focus_Marta-abre-el-regalo.wav,./stim/wavs/puertorican_match_declarative-broad-focus_Marta-abre-el-regalo.wav,,,,,,,,,,,,,,,,,,,,,,,,,,,,,,,,,,,,,,,,,,,,,,,,,,,,,,,,
,,,,,,,600f3bb4c3125f0d2a2f0d36,605b45a4d25f287719a41696,605b80b8a0bee85eca1e106d,Mexico,East coast,13 or older,no,2021-03-24_14h11.40.043,empathy_intonation_perc,2020.2.10,Win32,60,,,,,,,,,,1,argentine,1,1,2.191665,0,48,48,48,1,49,./stim/wavs/andalusian_mismatch_interrogative-partial-wh_Cuando-comia-la-fruta.wav,./stim/wavs/argentine_mismatch_interrogative-partial-wh_Cuando-comia-la-fruta.wav,./stim/wavs/castilian_mismatch_interrogative-partial-wh_Cuando-comia-la-fruta.wav,./stim/wavs/chilean_mismatch_interrogative-partial-wh_Cuando-comia-la-fruta.wav,./stim/wavs/cuban_mismatch_interrogative-partial-wh_Cuando-comia-la-fruta.wav,./stim/wavs/mexican_mismatch_interrogative-partial-wh_Cuando-comia-la-fruta.wav,./stim/wavs/peruvian_mismatch_interrogative-partial-wh_Cuando-comia-la-fruta.wav,./stim/wavs/puertorican_mismatch_interrogative-partial-wh_Cuando-comia-la-fruta.wav,,,,,,,,,,,,,,,,,,,,,,,,,,,,,,,,,,,,,,,,,,,,,,,,,,,,,,,,
,,,,,,,600f3bb4c3125f0d2a2f0d36,605b45a4d25f287719a41696,605b80b8a0bee85eca1e106d,Mexico,East coast,13 or older,no,2021-03-24_14h11.40.043,empathy_intonation_perc,2020.2.10,Win32,60,,,,,,,,,,1,castilian,1,1,1.402575,0,49,49,17,1,18,./stim/wavs/andalusian_match_interrogative-partial-wh_Cuando-leia-el-libro.wav,./stim/wavs/argentine_match_interrogative-partial-wh_Cuando-leia-el-libro.wav,./stim/wavs/castilian_match_interrogative-partial-wh_Cuando-leia-el-libro.wav,./stim/wavs/chilean_match_interrogative-partial-wh_Cuando-leia-el-libro.wav,./stim/wavs/cuban_match_interrogative-partial-wh_Cuando-leia-el-libro.wav,./stim/wavs/mexican_match_interrogative-partial-wh_Cuando-leia-el-libro.wav,./stim/wavs/peruvian_match_interrogative-partial-wh_Cuando-leia-el-libro.wav,./stim/wavs/puertorican_match_interrogative-partial-wh_Cuando-leia-el-libro.wav,,,,,,,,,,,,,,,,,,,,,,,,,,,,,,,,,,,,,,,,,,,,,,,,,,,,,,,,
,,,,,,,600f3bb4c3125f0d2a2f0d36,605b45a4d25f287719a41696,605b80b8a0bee85eca1e106d,Mexico,East coast,13 or older,no,2021-03-24_14h11.40.043,empathy_intonation_perc,2020.2.10,Win32,60,,,,,,,,,,0,mexican,0,1,1.96586,0,50,50,32,1,33,./stim/wavs/andalusian_mismatch_declarative-broad-focus_El-bebe-comia-muy-bien.wav,./stim/wavs/argentine_mismatch_declarative-broad-focus_El-bebe-comia-muy-bien.wav,./stim/wavs/castilian_mismatch_declarative-broad-focus_El-bebe-comia-muy-bien.wav,./stim/wavs/chilean_mismatch_declarative-broad-focus_El-bebe-comia-muy-bien.wav,./stim/wavs/cuban_mismatch_declarative-broad-focus_El-bebe-comia-muy-bien.wav,./stim/wavs/mexican_mismatch_declarative-broad-focus_El-bebe-comia-muy-bien.wav,./stim/wavs/peruvian_mismatch_declarative-broad-focus_El-bebe-comia-muy-bien.wav,./stim/wavs/puertorican_mismatch_declarative-broad-focus_El-bebe-comia-muy-bien.wav,,,,,,,,,,,,,,,,,,,,,,,,,,,,,,,,,,,,,,,,,,,,,,,,,,,,,,,,
,,,,,,,600f3bb4c3125f0d2a2f0d36,605b45a4d25f287719a41696,605b80b8a0bee85eca1e106d,Mexico,East coast,13 or older,no,2021-03-24_14h11.40.043,empathy_intonation_perc,2020.2.10,Win32,60,,,,,,,,,,1,andalusian,1,1,3.08382,0,51,51,54,1,55,./stim/wavs/andalusian_mismatch_interrogative-partial-wh_Por-que-venia-del-lago.wav,./stim/wavs/argentine_mismatch_interrogative-partial-wh_Por-que-venia-del-lago.wav,./stim/wavs/castilian_mismatch_interrogative-partial-wh_Por-que-venia-del-lago.wav,./stim/wavs/chilean_mismatch_interrogative-partial-wh_Por-que-venia-del-lago.wav,./stim/wavs/cuban_mismatch_interrogative-partial-wh_Por-que-venia-del-lago.wav,./stim/wavs/mexican_mismatch_interrogative-partial-wh_Por-que-venia-del-lago.wav,./stim/wavs/peruvian_mismatch_interrogative-partial-wh_Por-que-venia-del-lago.wav,./stim/wavs/puertorican_mismatch_interrogative-partial-wh_Por-que-venia-del-lago.wav,,,,,,,,,,,,,,,,,,,,,,,,,,,,,,,,,,,,,,,,,,,,,,,,,,,,,,,,
,,,,,,,600f3bb4c3125f0d2a2f0d36,605b45a4d25f287719a41696,605b80b8a0bee85eca1e106d,Mexico,East coast,13 or older,no,2021-03-24_14h11.40.043,empathy_intonation_perc,2020.2.10,Win32,60,,,,,,,,,,1,mexican,0,0,2.440745,0,52,52,61,1,62,./stim/wavs/andalusian_mismatch_interrogative-total-yn_Mi-madre-come-la-fruta.wav,./stim/wavs/argentine_mismatch_interrogative-total-yn_Mi-madre-come-la-fruta.wav,./stim/wavs/castilian_mismatch_interrogative-total-yn_Mi-madre-come-la-fruta.wav,./stim/wavs/chilean_mismatch_interrogative-total-yn_Mi-madre-come-la-fruta.wav,./stim/wavs/cuban_mismatch_interrogative-total-yn_Mi-madre-come-la-fruta.wav,./stim/wavs/mexican_mismatch_interrogative-total-yn_Mi-madre-come-la-fruta.wav,./stim/wavs/peruvian_mismatch_interrogative-total-yn_Mi-madre-come-la-fruta.wav,./stim/wavs/puertorican_mismatch_interrogative-total-yn_Mi-madre-come-la-fruta.wav,,,,,,,,,,,,,,,,,,,,,,,,,,,,,,,,,,,,,,,,,,,,,,,,,,,,,,,,
,,,,,,,600f3bb4c3125f0d2a2f0d36,605b45a4d25f287719a41696,605b80b8a0bee85eca1e106d,Mexico,East coast,13 or older,no,2021-03-24_14h11.40.043,empathy_intonation_perc,2020.2.10,Win32,60,,,,,,,,,,0,peruvian,1,0,2.01962,0,53,53,4,1,5,./stim/wavs/andalusian_match_declarative-broad-focus_Manuela-vende-el-carro.wav,./stim/wavs/argentine_match_declarative-broad-focus_Manuela-vende-el-carro.wav,./stim/wavs/castilian_match_declarative-broad-focus_Manuela-vende-el-carro.wav,./stim/wavs/chilean_match_declarative-broad-focus_Manuela-vende-el-carro.wav,./stim/wavs/cuban_match_declarative-broad-focus_Manuela-vende-el-carro.wav,./stim/wavs/mexican_match_declarative-broad-focus_Manuela-vende-el-carro.wav,./stim/wavs/peruvian_match_declarative-broad-focus_Manuela-vende-el-carro.wav,./stim/wavs/puertorican_match_declarative-broad-focus_Manuela-vende-el-carro.wav,,,,,,,,,,,,,,,,,,,,,,,,,,,,,,,,,,,,,,,,,,,,,,,,,,,,,,,,
,,,,,,,600f3bb4c3125f0d2a2f0d36,605b45a4d25f287719a41696,605b80b8a0bee85eca1e106d,Mexico,East coast,13 or older,no,2021-03-24_14h11.40.043,empathy_intonation_perc,2020.2.10,Win32,60,,,,,,,,,,0,castilian,0,1,1.56466,0,54,54,36,1,37,./stim/wavs/andalusian_mismatch_declarative-broad-focus_La-nina-lava-el-plato.wav,./stim/wavs/argentine_mismatch_declarative-broad-focus_La-nina-lava-el-plato.wav,./stim/wavs/castilian_mismatch_declarative-broad-focus_La-nina-lava-el-plato.wav,./stim/wavs/chilean_mismatch_declarative-broad-focus_La-nina-lava-el-plato.wav,./stim/wavs/cuban_mismatch_declarative-broad-focus_La-nina-lava-el-plato.wav,./stim/wavs/mexican_mismatch_declarative-broad-focus_La-nina-lava-el-plato.wav,./stim/wavs/peruvian_mismatch_declarative-broad-focus_La-nina-lava-el-plato.wav,./stim/wavs/puertorican_mismatch_declarative-broad-focus_La-nina-lava-el-plato.wav,,,,,,,,,,,,,,,,,,,,,,,,,,,,,,,,,,,,,,,,,,,,,,,,,,,,,,,,
,,,,,,,600f3bb4c3125f0d2a2f0d36,605b45a4d25f287719a41696,605b80b8a0bee85eca1e106d,Mexico,East coast,13 or older,no,2021-03-24_14h11.40.043,empathy_intonation_perc,2020.2.10,Win32,60,,,,,,,,,,0,castilian,0,1,1.531245,0,55,55,5,1,6,./stim/wavs/andalusian_match_declarative-broad-focus_Maria-bebe-el-vino.wav,./stim/wavs/argentine_match_declarative-broad-focus_Maria-bebe-el-vino.wav,./stim/wavs/castilian_match_declarative-broad-focus_Maria-bebe-el-vino.wav,./stim/wavs/chilean_match_declarative-broad-focus_Maria-bebe-el-vino.wav,./stim/wavs/cuban_match_declarative-broad-focus_Maria-bebe-el-vino.wav,./stim/wavs/mexican_match_declarative-broad-focus_Maria-bebe-el-vino.wav,./stim/wavs/peruvian_match_declarative-broad-focus_Maria-bebe-el-vino.wav,./stim/wavs/puertorican_match_declarative-broad-focus_Maria-bebe-el-vino.wav,,,,,,,,,,,,,,,,,,,,,,,,,,,,,,,,,,,,,,,,,,,,,,,,,,,,,,,,
,,,,,,,600f3bb4c3125f0d2a2f0d36,605b45a4d25f287719a41696,605b80b8a0bee85eca1e106d,Mexico,East coast,13 or older,no,2021-03-24_14h11.40.043,empathy_intonation_perc,2020.2.10,Win32,60,,,,,,,,,,0,peruvian,0,1,1.70431,0,56,56,42,1,43,./stim/wavs/andalusian_mismatch_declarative-narrow-focus_El-nino-oye-el-rio.wav,./stim/wavs/argentine_mismatch_declarative-narrow-focus_El-nino-oye-el-rio.wav,./stim/wavs/castilian_mismatch_declarative-narrow-focus_El-nino-oye-el-rio.wav,./stim/wavs/chilean_mismatch_declarative-narrow-focus_El-nino-oye-el-rio.wav,./stim/wavs/cuban_mismatch_declarative-narrow-focus_El-nino-oye-el-rio.wav,./stim/wavs/mexican_mismatch_declarative-narrow-focus_El-nino-oye-el-rio.wav,./stim/wavs/peruvian_mismatch_declarative-narrow-focus_El-nino-oye-el-rio.wav,./stim/wavs/puertorican_mismatch_declarative-narrow-focus_El-nino-oye-el-rio.wav,,,,,,,,,,,,,,,,,,,,,,,,,,,,,,,,,,,,,,,,,,,,,,,,,,,,,,,,
,,,,,,,600f3bb4c3125f0d2a2f0d36,605b45a4d25f287719a41696,605b80b8a0bee85eca1e106d,Mexico,East coast,13 or older,no,2021-03-24_14h11.40.043,empathy_intonation_perc,2020.2.10,Win32,60,,,,,,,,,,1,mexican,1,1,1.10069,0,57,57,23,1,24,./stim/wavs/andalusian_match_interrogative-partial-wh_Por-que-iba-a-Bolivia.wav,./stim/wavs/argentine_match_interrogative-partial-wh_Por-que-iba-a-Bolivia.wav,./stim/wavs/castilian_match_interrogative-partial-wh_Por-que-iba-a-Bolivia.wav,./stim/wavs/chilean_match_interrogative-partial-wh_Por-que-iba-a-Bolivia.wav,./stim/wavs/cuban_match_interrogative-partial-wh_Por-que-iba-a-Bolivia.wav,./stim/wavs/mexican_match_interrogative-partial-wh_Por-que-iba-a-Bolivia.wav,./stim/wavs/peruvian_match_interrogative-partial-wh_Por-que-iba-a-Bolivia.wav,./stim/wavs/puertorican_match_interrogative-partial-wh_Por-que-iba-a-Bolivia.wav,,,,,,,,,,,,,,,,,,,,,,,,,,,,,,,,,,,,,,,,,,,,,,,,,,,,,,,,
,,,,,,,600f3bb4c3125f0d2a2f0d36,605b45a4d25f287719a41696,605b80b8a0bee85eca1e106d,Mexico,East coast,13 or older,no,2021-03-24_14h11.40.043,empathy_intonation_perc,2020.2.10,Win32,60,,,,,,,,,,1,chilean,1,1,1.20427,0,58,58,53,1,54,./stim/wavs/andalusian_mismatch_interrogative-partial-wh_Por-que-oia-el-rio.wav,./stim/wavs/argentine_mismatch_interrogative-partial-wh_Por-que-oia-el-rio.wav,./stim/wavs/castilian_mismatch_interrogative-partial-wh_Por-que-oia-el-rio.wav,./stim/wavs/chilean_mismatch_interrogative-partial-wh_Por-que-oia-el-rio.wav,./stim/wavs/cuban_mismatch_interrogative-partial-wh_Por-que-oia-el-rio.wav,./stim/wavs/mexican_mismatch_interrogative-partial-wh_Por-que-oia-el-rio.wav,./stim/wavs/peruvian_mismatch_interrogative-partial-wh_Por-que-oia-el-rio.wav,./stim/wavs/puertorican_mismatch_interrogative-partial-wh_Por-que-oia-el-rio.wav,,,,,,,,,,,,,,,,,,,,,,,,,,,,,,,,,,,,,,,,,,,,,,,,,,,,,,,,
,,,,,,,600f3bb4c3125f0d2a2f0d36,605b45a4d25f287719a41696,605b80b8a0bee85eca1e106d,Mexico,East coast,13 or older,no,2021-03-24_14h11.40.043,empathy_intonation_perc,2020.2.10,Win32,60,,,,,,,,,,1,peruvian,1,1,0.754705,0,59,59,50,1,51,./stim/wavs/andalusian_mismatch_interrogative-partial-wh_Cuando-miraba-la-luna.wav,./stim/wavs/argentine_mismatch_interrogative-partial-wh_Cuando-miraba-la-luna.wav,./stim/wavs/castilian_mismatch_interrogative-partial-wh_Cuando-miraba-la-luna.wav,./stim/wavs/chilean_mismatch_interrogative-partial-wh_Cuando-miraba-la-luna.wav,./stim/wavs/cuban_mismatch_interrogative-partial-wh_Cuando-miraba-la-luna.wav,./stim/wavs/mexican_mismatch_interrogative-partial-wh_Cuando-miraba-la-luna.wav,./stim/wavs/peruvian_mismatch_interrogative-partial-wh_Cuando-miraba-la-luna.wav,./stim/wavs/puertorican_mismatch_interrogative-partial-wh_Cuando-miraba-la-luna.wav,,,,,,,,,,,,,,,,,,,,,,,,,,,,,,,,,,,,,,,,,,,,,,,,,,,,,,,,
,,,,,,,600f3bb4c3125f0d2a2f0d36,605b45a4d25f287719a41696,605b80b8a0bee85eca1e106d,Mexico,East coast,13 or older,no,2021-03-24_14h11.40.043,empathy_intonation_perc,2020.2.10,Win32,60,,,,,,,,,,0,cuban,0,1,1.45206,0,60,60,10,1,11,./stim/wavs/andalusian_match_declarative-narrow-focus_David-leia-el-libro.wav,./stim/wavs/argentine_match_declarative-narrow-focus_David-leia-el-libro.wav,./stim/wavs/castilian_match_declarative-narrow-focus_David-leia-el-libro.wav,./stim/wavs/chilean_match_declarative-narrow-focus_David-leia-el-libro.wav,./stim/wavs/cuban_match_declarative-narrow-focus_David-leia-el-libro.wav,./stim/wavs/mexican_match_declarative-narrow-focus_David-leia-el-libro.wav,./stim/wavs/peruvian_match_declarative-narrow-focus_David-leia-el-libro.wav,./stim/wavs/puertorican_match_declarative-narrow-focus_David-leia-el-libro.wav,,,,,,,,,,,,,,,,,,,,,,,,,,,,,,,,,,,,,,,,,,,,,,,,,,,,,,,,
,,,,,,,600f3bb4c3125f0d2a2f0d36,605b45a4d25f287719a41696,605b80b8a0bee85eca1e106d,Mexico,East coast,13 or older,no,2021-03-24_14h11.40.043,empathy_intonation_perc,2020.2.10,Win32,60,,,,,,,,,,1,mexican,0,0,1.303605,0,61,61,63,1,64,./stim/wavs/andalusian_mismatch_interrogative-total-yn_Mi-tia-odia-la-lluvia.wav,./stim/wavs/argentine_mismatch_interrogative-total-yn_Mi-tia-odia-la-lluvia.wav,./stim/wavs/castilian_mismatch_interrogative-total-yn_Mi-tia-odia-la-lluvia.wav,./stim/wavs/chilean_mismatch_interrogative-total-yn_Mi-tia-odia-la-lluvia.wav,./stim/wavs/cuban_mismatch_interrogative-total-yn_Mi-tia-odia-la-lluvia.wav,./stim/wavs/mexican_mismatch_interrogative-total-yn_Mi-tia-odia-la-lluvia.wav,./stim/wavs/peruvian_mismatch_interrogative-total-yn_Mi-tia-odia-la-lluvia.wav,./stim/wavs/puertorican_mismatch_interrogative-total-yn_Mi-tia-odia-la-lluvia.wav,,,,,,,,,,,,,,,,,,,,,,,,,,,,,,,,,,,,,,,,,,,,,,,,,,,,,,,,
,,,,,,,600f3bb4c3125f0d2a2f0d36,605b45a4d25f287719a41696,605b80b8a0bee85eca1e106d,Mexico,East coast,13 or older,no,2021-03-24_14h11.40.043,empathy_intonation_perc,2020.2.10,Win32,60,,,,,,,,,,1,cuban,0,0,1.393,0,62,62,58,1,59,./stim/wavs/andalusian_mismatch_interrogative-total-yn_El-nino-oye-el-rio.wav,./stim/wavs/argentine_mismatch_interrogative-total-yn_El-nino-oye-el-rio.wav,./stim/wavs/castilian_mismatch_interrogative-total-yn_El-nino-oye-el-rio.wav,./stim/wavs/chilean_mismatch_interrogative-total-yn_El-nino-oye-el-rio.wav,./stim/wavs/cuban_mismatch_interrogative-total-yn_El-nino-oye-el-rio.wav,./stim/wavs/mexican_mismatch_interrogative-total-yn_El-nino-oye-el-rio.wav,./stim/wavs/peruvian_mismatch_interrogative-total-yn_El-nino-oye-el-rio.wav,./stim/wavs/puertorican_mismatch_interrogative-total-yn_El-nino-oye-el-rio.wav,,,,,,,,,,,,,,,,,,,,,,,,,,,,,,,,,,,,,,,,,,,,,,,,,,,,,,,,
,,,,,,,600f3bb4c3125f0d2a2f0d36,605b45a4d25f287719a41696,605b80b8a0bee85eca1e106d,Mexico,East coast,13 or older,no,2021-03-24_14h11.40.043,empathy_intonation_perc,2020.2.10,Win32,60,,,,,,,,,,1,mexican,0,0,1.618755,0,63,63,52,1,53,./stim/wavs/andalusian_mismatch_interrogative-partial-wh_Por-que-odiaba-la-lluvia.wav,./stim/wavs/argentine_mismatch_interrogative-partial-wh_Por-que-odiaba-la-lluvia.wav,./stim/wavs/castilian_mismatch_interrogative-partial-wh_Por-que-odiaba-la-lluvia.wav,./stim/wavs/chilean_mismatch_interrogative-partial-wh_Por-que-odiaba-la-lluvia.wav,./stim/wavs/cuban_mismatch_interrogative-partial-wh_Por-que-odiaba-la-lluvia.wav,./stim/wavs/mexican_mismatch_interrogative-partial-wh_Por-que-odiaba-la-lluvia.wav,./stim/wavs/peruvian_mismatch_interrogative-partial-wh_Por-que-odiaba-la-lluvia.wav,./stim/wavs/puertorican_mismatch_interrogative-partial-wh_Por-que-odiaba-la-lluvia.wav,,,,,,,,,,,,,,,,,,,,,,,,,,,,,,,,,,,,,,,,,,,,,,,,,,,,,,,,
,,,,,,,600f3bb4c3125f0d2a2f0d36,605b45a4d25f287719a41696,605b80b8a0bee85eca1e106d,Mexico,East coast,13 or older,no,2021-03-24_14h11.40.043,empathy_intonation_perc,2020.2.10,Win32,60,,,,,,,,,,,,,,,,,,,,,,,,,,,,,h,1,7.238815,0,0,0,0,1,,,,,,,,,,,,,,,,,,,,,,,,,,,,,,,,,,,,,,,,,,,,,,,,
,,,,,"Great! Now we will move on. The next task consists of about 60 trials, in each of which you will see a string of letters. 
  
  Your task is to decide whether this is a real Spanish word or not.",(press the spacebar to continue),600f3bb4c3125f0d2a2f0d36,605b45a4d25f287719a41696,605b80b8a0bee85eca1e106d,Mexico,East coast,13 or older,no,2021-03-24_14h11.40.043,empathy_intonation_perc,2020.2.10,Win32,60,,,,,,,,,,,,,,,,,,,,,,,,,,,,,,,,,,,,,0,0,0,0,1,,,,,,,,,,,,,,,,,,,,,,,,,,,,,,,,,,,,,,,,,,,
,,,,,"If you think it is an existing Spanish word, you type '1' (for 'REAL'), and if you think it is not an existing Spanish word, you type '0' (for 'FAKE').",(press the spacebar to continue),600f3bb4c3125f0d2a2f0d36,605b45a4d25f287719a41696,605b80b8a0bee85eca1e106d,Mexico,East coast,13 or older,no,2021-03-24_14h11.40.043,empathy_intonation_perc,2020.2.10,Win32,60,,,,,,,,,,,,,,,,,,,,,,,,,,,,,,,,,,,,,0,1,1,1,1,,,,,,,,,,,,,,,,,,,,,,,,,,,,,,,,,,,,,,,,,,,
,,,,,"If you are sure that the word exists, even though you dont know its exact meaning, you may still respond '1' (REAL). 
  
  But if you are not sure if it is an existing word, you should respond '0' (FAKE).
  
  Let's do a practice round...",(press the spacebar to continue),600f3bb4c3125f0d2a2f0d36,605b45a4d25f287719a41696,605b80b8a0bee85eca1e106d,Mexico,East coast,13 or older,no,2021-03-24_14h11.40.043,empathy_intonation_perc,2020.2.10,Win32,60,,,,,,,,,,,,,,,,,,,,,,,,,,,,,,,,,,,,,0,2,2,2,1,,,,,,,,,,,,,,,,,,,,,,,,,,,,,,,,,,,,,,,,,,,
,,,,,,,600f3bb4c3125f0d2a2f0d36,605b45a4d25f287719a41696,605b80b8a0bee85eca1e106d,Mexico,East coast,13 or older,no,2021-03-24_14h11.40.043,empathy_intonation_perc,2020.2.10,Win32,60,,,,,,,,,,0,,,,,,,,,,,,,,,,,,,,,,,,,,,,,,,,0,1,1.6803,0,0,0,0,1,0,depiste,REAL,FAKE,,,,,,,,,,,,,,,,,,,,,,,,,,,,,,,
,,,,,,,600f3bb4c3125f0d2a2f0d36,605b45a4d25f287719a41696,605b80b8a0bee85eca1e106d,Mexico,East coast,13 or older,no,2021-03-24_14h11.40.043,empathy_intonation_perc,2020.2.10,Win32,60,,,,,,,,,,1,,,,,,,,,,,,,,,,,,,,,,,,,,,,,,,,1,1,1.380705,0,1,1,1,1,0,s,REAL,FAKE,,,,,,,,,,,,,,,,,,,,,,,,,,,,,,,
,,,,,,,600f3bb4c3125f0d2a2f0d36,605b45a4d25f287719a41696,605b80b8a0bee85eca1e106d,Mexico,East coast,13 or older,no,2021-03-24_14h11.40.043,empathy_intonation_perc,2020.2.10,Win32,60,,,,,,,,,,0,,,,,,,,,,,,,,,,,,,,,,,,,,,,,,,,0,1,0.767155,0,2,2,2,1,0,con,REAL,FAKE,,,,,,,,,,,,,,,,,,,,,,,,,,,,,,,
,,,,,,,600f3bb4c3125f0d2a2f0d36,605b45a4d25f287719a41696,605b80b8a0bee85eca1e106d,Mexico,East coast,13 or older,no,2021-03-24_14h11.40.043,empathy_intonation_perc,2020.2.10,Win32,60,,,,,,,,,,0,,,,,,,,,,,,,,,,,,,,,,,,,,,,,,,,0,1,0.79621,0,3,3,3,1,0,calpar,REAL,FAKE,,,,,,,,,,,,,,,,,,,,,,,,,,,,,,,
,,,,,,,600f3bb4c3125f0d2a2f0d36,605b45a4d25f287719a41696,605b80b8a0bee85eca1e106d,Mexico,East coast,13 or older,no,2021-03-24_14h11.40.043,empathy_intonation_perc,2020.2.10,Win32,60,,,,,,,,,,0,,,,,,,,,,,,,,,,,,,,,,,,,,,,,,,,0,1,0.765805,0,4,4,4,1,0,joten,REAL,FAKE,,,,,,,,,,,,,,,,,,,,,,,,,,,,,,,
,,,,,,,600f3bb4c3125f0d2a2f0d36,605b45a4d25f287719a41696,605b80b8a0bee85eca1e106d,Mexico,East coast,13 or older,no,2021-03-24_14h11.40.043,empathy_intonation_perc,2020.2.10,Win32,60,,,,,,,,,,1,,,,,,,,,,,,,,,,,,,,,,,,,,,,,,,,0,0,0.71812,0,5,5,5,1,0,sacapuntas,REAL,FAKE,,,,,,,,,,,,,,,,,,,,,,,,,,,,,,,
,,,,,,,600f3bb4c3125f0d2a2f0d36,605b45a4d25f287719a41696,605b80b8a0bee85eca1e106d,Mexico,East coast,13 or older,no,2021-03-24_14h11.40.043,empathy_intonation_perc,2020.2.10,Win32,60,,,,,,,,,,0,,,,,,,,,,,,,,,,,,,,,,,,,,,,,,,,1,0,0.57702,0,6,6,6,1,0,priba,REAL,FAKE,,,,,,,,,,,,,,,,,,,,,,,,,,,,,,,
,,,,,,,600f3bb4c3125f0d2a2f0d36,605b45a4d25f287719a41696,605b80b8a0bee85eca1e106d,Mexico,East coast,13 or older,no,2021-03-24_14h11.40.043,empathy_intonation_perc,2020.2.10,Win32,60,,,,,,,,,,0,,,,,,,,,,,,,,,,,,,,,,,,,,,,,,,,1,0,0.79506,0,7,7,7,1,0,pelasula,REAL,FAKE,,,,,,,,,,,,,,,,,,,,,,,,,,,,,,,
,,,,,,,600f3bb4c3125f0d2a2f0d36,605b45a4d25f287719a41696,605b80b8a0bee85eca1e106d,Mexico,East coast,13 or older,no,2021-03-24_14h11.40.043,empathy_intonation_perc,2020.2.10,Win32,60,,,,,,,,,,1,,,,,,,,,,,,,,,,,,,,,,,,,,,,,,,,1,1,0.764805,0,8,8,8,1,0,bien,REAL,FAKE,,,,,,,,,,,,,,,,,,,,,,,,,,,,,,,
,,,,,,,600f3bb4c3125f0d2a2f0d36,605b45a4d25f287719a41696,605b80b8a0bee85eca1e106d,Mexico,East coast,13 or older,no,2021-03-24_14h11.40.043,empathy_intonation_perc,2020.2.10,Win32,60,,,,,,,,,,1,,,,,,,,,,,,,,,,,,,,,,,,,,,,,,,,1,1,0.6967,0,9,9,9,1,0,casa,REAL,FAKE,,,,,,,,,,,,,,,,,,,,,,,,,,,,,,,
,,,,,,,600f3bb4c3125f0d2a2f0d36,605b45a4d25f287719a41696,605b80b8a0bee85eca1e106d,Mexico,East coast,13 or older,no,2021-03-24_14h11.40.043,empathy_intonation_perc,2020.2.10,Win32,60,,,,,,,,,,0,,,,,,,,,,,,,,,,,,,,,,,,,,,,,,,,0,1,0.78962,0,10,10,10,1,0,lejo,REAL,FAKE,,,,,,,,,,,,,,,,,,,,,,,,,,,,,,,
,,,,,,,600f3bb4c3125f0d2a2f0d36,605b45a4d25f287719a41696,605b80b8a0bee85eca1e106d,Mexico,East coast,13 or older,no,2021-03-24_14h11.40.043,empathy_intonation_perc,2020.2.10,Win32,60,,,,,,,,,,0,,,,,,,,,,,,,,,,,,,,,,,,,,,,,,,,0,1,0.937375,0,11,11,11,1,0,pretantas,REAL,FAKE,,,,,,,,,,,,,,,,,,,,,,,,,,,,,,,
,,,,,,,600f3bb4c3125f0d2a2f0d36,605b45a4d25f287719a41696,605b80b8a0bee85eca1e106d,Mexico,East coast,13 or older,no,2021-03-24_14h11.40.043,empathy_intonation_perc,2020.2.10,Win32,60,,,,,,,,,,0,,,,,,,,,,,,,,,,,,,,,,,,,,,,,,,,,,,,,,,,21,capillo,,,0,1,0.902235,0,0,0,20,1,REAL,FAKE,,,,,,,,,,,,,,,,,,,,,
,,,,,,,600f3bb4c3125f0d2a2f0d36,605b45a4d25f287719a41696,605b80b8a0bee85eca1e106d,Mexico,East coast,13 or older,no,2021-03-24_14h11.40.043,empathy_intonation_perc,2020.2.10,Win32,60,,,,,,,,,,1,,,,,,,,,,,,,,,,,,,,,,,,,,,,,,,,,,,,,,,,31,pandilla,,,1,1,0.953245,0,1,1,30,1,REAL,FAKE,,,,,,,,,,,,,,,,,,,,,
,,,,,,,600f3bb4c3125f0d2a2f0d36,605b45a4d25f287719a41696,605b80b8a0bee85eca1e106d,Mexico,East coast,13 or older,no,2021-03-24_14h11.40.043,empathy_intonation_perc,2020.2.10,Win32,60,,,,,,,,,,1,,,,,,,,,,,,,,,,,,,,,,,,,,,,,,,,,,,,,,,,57,tacao,,,0,0,1.168315,0,2,2,56,1,REAL,FAKE,,,,,,,,,,,,,,,,,,,,,
,,,,,,,600f3bb4c3125f0d2a2f0d36,605b45a4d25f287719a41696,605b80b8a0bee85eca1e106d,Mexico,East coast,13 or older,no,2021-03-24_14h11.40.043,empathy_intonation_perc,2020.2.10,Win32,60,,,,,,,,,,0,,,,,,,,,,,,,,,,,,,,,,,,,,,,,,,,,,,,,,,,16,abracer,,,1,0,1.21002,0,3,3,15,1,REAL,FAKE,,,,,,,,,,,,,,,,,,,,,
,,,,,,,600f3bb4c3125f0d2a2f0d36,605b45a4d25f287719a41696,605b80b8a0bee85eca1e106d,Mexico,East coast,13 or older,no,2021-03-24_14h11.40.043,empathy_intonation_perc,2020.2.10,Win32,60,,,,,,,,,,0,,,,,,,,,,,,,,,,,,,,,,,,,,,,,,,,,,,,,,,,17,floroso,,,0,1,1.619025,0,4,4,16,1,REAL,FAKE,,,,,,,,,,,,,,,,,,,,,
,,,,,,,600f3bb4c3125f0d2a2f0d36,605b45a4d25f287719a41696,605b80b8a0bee85eca1e106d,Mexico,East coast,13 or older,no,2021-03-24_14h11.40.043,empathy_intonation_perc,2020.2.10,Win32,60,,,,,,,,,,1,,,,,,,,,,,,,,,,,,,,,,,,,,,,,,,,,,,,,,,,36,loro,,,0,0,2.291875,0,5,5,35,1,REAL,FAKE,,,,,,,,,,,,,,,,,,,,,
,,,,,,,600f3bb4c3125f0d2a2f0d36,605b45a4d25f287719a41696,605b80b8a0bee85eca1e106d,Mexico,East coast,13 or older,no,2021-03-24_14h11.40.043,empathy_intonation_perc,2020.2.10,Win32,60,,,,,,,,,,1,,,,,,,,,,,,,,,,,,,,,,,,,,,,,,,,,,,,,,,,46,martillo,,,1,1,2.255715,0,6,6,45,1,REAL,FAKE,,,,,,,,,,,,,,,,,,,,,
,,,,,,,600f3bb4c3125f0d2a2f0d36,605b45a4d25f287719a41696,605b80b8a0bee85eca1e106d,Mexico,East coast,13 or older,no,2021-03-24_14h11.40.043,empathy_intonation_perc,2020.2.10,Win32,60,,,,,,,,,,1,,,,,,,,,,,,,,,,,,,,,,,,,,,,,,,,,,,,,,,,73,hervidor,,,0,0,0.986295,0,7,7,72,1,REAL,FAKE,,,,,,,,,,,,,,,,,,,,,
,,,,,,,600f3bb4c3125f0d2a2f0d36,605b45a4d25f287719a41696,605b80b8a0bee85eca1e106d,Mexico,East coast,13 or older,no,2021-03-24_14h11.40.043,empathy_intonation_perc,2020.2.10,Win32,60,,,,,,,,,,0,,,,,,,,,,,,,,,,,,,,,,,,,,,,,,,,,,,,,,,,47,cartinar,,,0,1,0.886055,0,8,8,46,1,REAL,FAKE,,,,,,,,,,,,,,,,,,,,,
,,,,,,,600f3bb4c3125f0d2a2f0d36,605b45a4d25f287719a41696,605b80b8a0bee85eca1e106d,Mexico,East coast,13 or older,no,2021-03-24_14h11.40.043,empathy_intonation_perc,2020.2.10,Win32,60,,,,,,,,,,0,,,,,,,,,,,,,,,,,,,,,,,,,,,,,,,,,,,,,,,,66,hacido,,,0,1,1.367365,0,9,9,65,1,REAL,FAKE,,,,,,,,,,,,,,,,,,,,,
,,,,,,,600f3bb4c3125f0d2a2f0d36,605b45a4d25f287719a41696,605b80b8a0bee85eca1e106d,Mexico,East coast,13 or older,no,2021-03-24_14h11.40.043,empathy_intonation_perc,2020.2.10,Win32,60,,,,,,,,,,1,,,,,,,,,,,,,,,,,,,,,,,,,,,,,,,,,,,,,,,,65,bizcocho,,,0,0,0.885315,0,10,10,64,1,REAL,FAKE,,,,,,,,,,,,,,,,,,,,,
,,,,,,,600f3bb4c3125f0d2a2f0d36,605b45a4d25f287719a41696,605b80b8a0bee85eca1e106d,Mexico,East coast,13 or older,no,2021-03-24_14h11.40.043,empathy_intonation_perc,2020.2.10,Win32,60,,,,,,,,,,1,,,,,,,,,,,,,,,,,,,,,,,,,,,,,,,,,,,,,,,,77,tiburn,,,0,0,1.707385,0,11,11,76,1,REAL,FAKE,,,,,,,,,,,,,,,,,,,,,
,,,,,,,600f3bb4c3125f0d2a2f0d36,605b45a4d25f287719a41696,605b80b8a0bee85eca1e106d,Mexico,East coast,13 or older,no,2021-03-24_14h11.40.043,empathy_intonation_perc,2020.2.10,Win32,60,,,,,,,,,,1,,,,,,,,,,,,,,,,,,,,,,,,,,,,,,,,,,,,,,,,81,pozo,,,0,0,1.174635,0,12,12,80,1,REAL,FAKE,,,,,,,,,,,,,,,,,,,,,
,,,,,,,600f3bb4c3125f0d2a2f0d36,605b45a4d25f287719a41696,605b80b8a0bee85eca1e106d,Mexico,East coast,13 or older,no,2021-03-24_14h11.40.043,empathy_intonation_perc,2020.2.10,Win32,60,,,,,,,,,,1,,,,,,,,,,,,,,,,,,,,,,,,,,,,,,,,,,,,,,,,24,ltigo,,,0,0,0.90265,0,13,13,23,1,REAL,FAKE,,,,,,,,,,,,,,,,,,,,,
,,,,,,,600f3bb4c3125f0d2a2f0d36,605b45a4d25f287719a41696,605b80b8a0bee85eca1e106d,Mexico,East coast,13 or older,no,2021-03-24_14h11.40.043,empathy_intonation_perc,2020.2.10,Win32,60,,,,,,,,,,1,,,,,,,,,,,,,,,,,,,,,,,,,,,,,,,,,,,,,,,,88,acantilado,,,0,0,1.302205,0,14,14,87,1,REAL,FAKE,,,,,,,,,,,,,,,,,,,,,
,,,,,,,600f3bb4c3125f0d2a2f0d36,605b45a4d25f287719a41696,605b80b8a0bee85eca1e106d,Mexico,East coast,13 or older,no,2021-03-24_14h11.40.043,empathy_intonation_perc,2020.2.10,Win32,60,,,,,,,,,,0,,,,,,,,,,,,,,,,,,,,,,,,,,,,,,,,,,,,,,,,42,cadallo,,,1,0,0.890635,0,15,15,41,1,REAL,FAKE,,,,,,,,,,,,,,,,,,,,,
,,,,,,,600f3bb4c3125f0d2a2f0d36,605b45a4d25f287719a41696,605b80b8a0bee85eca1e106d,Mexico,East coast,13 or older,no,2021-03-24_14h11.40.043,empathy_intonation_perc,2020.2.10,Win32,60,,,,,,,,,,0,,,,,,,,,,,,,,,,,,,,,,,,,,,,,,,,,,,,,,,,29,decar,,,0,1,1.04204,0,16,16,28,1,REAL,FAKE,,,,,,,,,,,,,,,,,,,,,
,,,,,,,600f3bb4c3125f0d2a2f0d36,605b45a4d25f287719a41696,605b80b8a0bee85eca1e106d,Mexico,East coast,13 or older,no,2021-03-24_14h11.40.043,empathy_intonation_perc,2020.2.10,Win32,60,,,,,,,,,,1,,,,,,,,,,,,,,,,,,,,,,,,,,,,,,,,,,,,,,,,69,engatusar,,,0,0,1.461265,0,17,17,68,1,REAL,FAKE,,,,,,,,,,,,,,,,,,,,,
,,,,,,,600f3bb4c3125f0d2a2f0d36,605b45a4d25f287719a41696,605b80b8a0bee85eca1e106d,Mexico,East coast,13 or older,no,2021-03-24_14h11.40.043,empathy_intonation_perc,2020.2.10,Win32,60,,,,,,,,,,1,,,,,,,,,,,,,,,,,,,,,,,,,,,,,,,,,,,,,,,,20,vido,,,1,1,1.03556,0,18,18,19,1,REAL,FAKE,,,,,,,,,,,,,,,,,,,,,
,,,,,,,600f3bb4c3125f0d2a2f0d36,605b45a4d25f287719a41696,605b80b8a0bee85eca1e106d,Mexico,East coast,13 or older,no,2021-03-24_14h11.40.043,empathy_intonation_perc,2020.2.10,Win32,60,,,,,,,,,,0,,,,,,,,,,,,,,,,,,,,,,,,,,,,,,,,,,,,,,,,1,terzo,,,0,1,0.785,0,19,19,0,1,REAL,FAKE,,,,,,,,,,,,,,,,,,,,,
,,,,,,,600f3bb4c3125f0d2a2f0d36,605b45a4d25f287719a41696,605b80b8a0bee85eca1e106d,Mexico,East coast,13 or older,no,2021-03-24_14h11.40.043,empathy_intonation_perc,2020.2.10,Win32,60,,,,,,,,,,0,,,,,,,,,,,,,,,,,,,,,,,,,,,,,,,,,,,,,,,,27,acutacin,,,0,1,0.95783,0,20,20,26,1,REAL,FAKE,,,,,,,,,,,,,,,,,,,,,
,,,,,,,600f3bb4c3125f0d2a2f0d36,605b45a4d25f287719a41696,605b80b8a0bee85eca1e106d,Mexico,East coast,13 or older,no,2021-03-24_14h11.40.043,empathy_intonation_perc,2020.2.10,Win32,60,,,,,,,,,,0,,,,,,,,,,,,,,,,,,,,,,,,,,,,,,,,,,,,,,,,10,antar,,,1,0,0.885685,0,21,21,9,1,REAL,FAKE,,,,,,,,,,,,,,,,,,,,,
,,,,,,,600f3bb4c3125f0d2a2f0d36,605b45a4d25f287719a41696,605b80b8a0bee85eca1e106d,Mexico,East coast,13 or older,no,2021-03-24_14h11.40.043,empathy_intonation_perc,2020.2.10,Win32,60,,,,,,,,,,1,,,,,,,,,,,,,,,,,,,,,,,,,,,,,,,,,,,,,,,,39,torpe,,,0,0,0.705325,0,22,22,38,1,REAL,FAKE,,,,,,,,,,,,,,,,,,,,,
,,,,,,,600f3bb4c3125f0d2a2f0d36,605b45a4d25f287719a41696,605b80b8a0bee85eca1e106d,Mexico,East coast,13 or older,no,2021-03-24_14h11.40.043,empathy_intonation_perc,2020.2.10,Win32,60,,,,,,,,,,1,,,,,,,,,,,,,,,,,,,,,,,,,,,,,,,,,,,,,,,,40,alfombra,,,0,0,1.64,0,23,23,39,1,REAL,FAKE,,,,,,,,,,,,,,,,,,,,,
,,,,,,,600f3bb4c3125f0d2a2f0d36,605b45a4d25f287719a41696,605b80b8a0bee85eca1e106d,Mexico,East coast,13 or older,no,2021-03-24_14h11.40.043,empathy_intonation_perc,2020.2.10,Win32,60,,,,,,,,,,1,,,,,,,,,,,,,,,,,,,,,,,,,,,,,,,,,,,,,,,,25,bisagra,,,0,0,0.82101,0,24,24,24,1,REAL,FAKE,,,,,,,,,,,,,,,,,,,,,
,,,,,,,600f3bb4c3125f0d2a2f0d36,605b45a4d25f287719a41696,605b80b8a0bee85eca1e106d,Mexico,East coast,13 or older,no,2021-03-24_14h11.40.043,empathy_intonation_perc,2020.2.10,Win32,60,,,,,,,,,,1,,,,,,,,,,,,,,,,,,,,,,,,,,,,,,,,,,,,,,,,26,secuestro,,,0,0,1.85214,0,25,25,25,1,REAL,FAKE,,,,,,,,,,,,,,,,,,,,,
,,,,,,,600f3bb4c3125f0d2a2f0d36,605b45a4d25f287719a41696,605b80b8a0bee85eca1e106d,Mexico,East coast,13 or older,no,2021-03-24_14h11.40.043,empathy_intonation_perc,2020.2.10,Win32,60,,,,,,,,,,0,,,,,,,,,,,,,,,,,,,,,,,,,,,,,,,,,,,,,,,,8,cadea,,,1,0,0.887605,0,26,26,7,1,REAL,FAKE,,,,,,,,,,,,,,,,,,,,,
,,,,,,,600f3bb4c3125f0d2a2f0d36,605b45a4d25f287719a41696,605b80b8a0bee85eca1e106d,Mexico,East coast,13 or older,no,2021-03-24_14h11.40.043,empathy_intonation_perc,2020.2.10,Win32,60,,,,,,,,,,1,,,,,,,,,,,,,,,,,,,,,,,,,,,,,,,,,,,,,,,,49,ganar,,,0,0,0.66868,0,27,27,48,1,REAL,FAKE,,,,,,,,,,,,,,,,,,,,,
,,,,,,,600f3bb4c3125f0d2a2f0d36,605b45a4d25f287719a41696,605b80b8a0bee85eca1e106d,Mexico,East coast,13 or older,no,2021-03-24_14h11.40.043,empathy_intonation_perc,2020.2.10,Win32,60,,,,,,,,,,1,,,,,,,,,,,,,,,,,,,,,,,,,,,,,,,,,,,,,,,,55,nevar,,,0,0,0.729615,0,28,28,54,1,REAL,FAKE,,,,,,,,,,,,,,,,,,,,,
,,,,,,,600f3bb4c3125f0d2a2f0d36,605b45a4d25f287719a41696,605b80b8a0bee85eca1e106d,Mexico,East coast,13 or older,no,2021-03-24_14h11.40.043,empathy_intonation_perc,2020.2.10,Win32,60,,,,,,,,,,0,,,,,,,,,,,,,,,,,,,,,,,,,,,,,,,,,,,,,,,,84,escuto,,,1,0,0.752215,0,29,29,83,1,REAL,FAKE,,,,,,,,,,,,,,,,,,,,,
,,,,,,,600f3bb4c3125f0d2a2f0d36,605b45a4d25f287719a41696,605b80b8a0bee85eca1e106d,Mexico,East coast,13 or older,no,2021-03-24_14h11.40.043,empathy_intonation_perc,2020.2.10,Win32,60,,,,,,,,,,0,,,,,,,,,,,,,,,,,,,,,,,,,,,,,,,,,,,,,,,,4,batilln,,,0,1,0.760325,0,30,30,3,1,REAL,FAKE,,,,,,,,,,,,,,,,,,,,,
,,,,,,,600f3bb4c3125f0d2a2f0d36,605b45a4d25f287719a41696,605b80b8a0bee85eca1e106d,Mexico,East coast,13 or older,no,2021-03-24_14h11.40.043,empathy_intonation_perc,2020.2.10,Win32,60,,,,,,,,,,0,,,,,,,,,,,,,,,,,,,,,,,,,,,,,,,,,,,,,,,,33,pauca,,,0,1,0.88572,0,31,31,32,1,REAL,FAKE,,,,,,,,,,,,,,,,,,,,,
,,,,,,,600f3bb4c3125f0d2a2f0d36,605b45a4d25f287719a41696,605b80b8a0bee85eca1e106d,Mexico,East coast,13 or older,no,2021-03-24_14h11.40.043,empathy_intonation_perc,2020.2.10,Win32,60,,,,,,,,,,1,,,,,,,,,,,,,,,,,,,,,,,,,,,,,,,,,,,,,,,,12,asesinato,,,1,1,0.70288,0,32,32,11,1,REAL,FAKE,,,,,,,,,,,,,,,,,,,,,
,,,,,,,600f3bb4c3125f0d2a2f0d36,605b45a4d25f287719a41696,605b80b8a0bee85eca1e106d,Mexico,East coast,13 or older,no,2021-03-24_14h11.40.043,empathy_intonation_perc,2020.2.10,Win32,60,,,,,,,,,,1,,,,,,,,,,,,,,,,,,,,,,,,,,,,,,,,,,,,,,,,14,yunque,,,0,0,0.542075,0,33,33,13,1,REAL,FAKE,,,,,,,,,,,,,,,,,,,,,
,,,,,,,600f3bb4c3125f0d2a2f0d36,605b45a4d25f287719a41696,605b80b8a0bee85eca1e106d,Mexico,East coast,13 or older,no,2021-03-24_14h11.40.043,empathy_intonation_perc,2020.2.10,Win32,60,,,,,,,,,,0,,,,,,,,,,,,,,,,,,,,,,,,,,,,,,,,,,,,,,,,87,grodo,,,0,1,0.85396,0,34,34,86,1,REAL,FAKE,,,,,,,,,,,,,,,,,,,,,
,,,,,,,600f3bb4c3125f0d2a2f0d36,605b45a4d25f287719a41696,605b80b8a0bee85eca1e106d,Mexico,East coast,13 or older,no,2021-03-24_14h11.40.043,empathy_intonation_perc,2020.2.10,Win32,60,,,,,,,,,,0,,,,,,,,,,,,,,,,,,,,,,,,,,,,,,,,,,,,,,,,82,empirador,,,0,1,1.403435,0,35,35,81,1,REAL,FAKE,,,,,,,,,,,,,,,,,,,,,
,,,,,,,600f3bb4c3125f0d2a2f0d36,605b45a4d25f287719a41696,605b80b8a0bee85eca1e106d,Mexico,East coast,13 or older,no,2021-03-24_14h11.40.043,empathy_intonation_perc,2020.2.10,Win32,60,,,,,,,,,,1,,,,,,,,,,,,,,,,,,,,,,,,,,,,,,,,,,,,,,,,5,zapato,,,0,0,1.351795,0,36,36,4,1,REAL,FAKE,,,,,,,,,,,,,,,,,,,,,
,,,,,,,600f3bb4c3125f0d2a2f0d36,605b45a4d25f287719a41696,605b80b8a0bee85eca1e106d,Mexico,East coast,13 or older,no,2021-03-24_14h11.40.043,empathy_intonation_perc,2020.2.10,Win32,60,,,,,,,,,,1,,,,,,,,,,,,,,,,,,,,,,,,,,,,,,,,,,,,,,,,68,alegre,,,1,1,1.06952,0,37,37,67,1,REAL,FAKE,,,,,,,,,,,,,,,,,,,,,
,,,,,,,600f3bb4c3125f0d2a2f0d36,605b45a4d25f287719a41696,605b80b8a0bee85eca1e106d,Mexico,East coast,13 or older,no,2021-03-24_14h11.40.043,empathy_intonation_perc,2020.2.10,Win32,60,,,,,,,,,,1,,,,,,,,,,,,,,,,,,,,,,,,,,,,,,,,,,,,,,,,6,tergiversar,,,0,0,0.68895,0,38,38,5,1,REAL,FAKE,,,,,,,,,,,,,,,,,,,,,
,,,,,,,600f3bb4c3125f0d2a2f0d36,605b45a4d25f287719a41696,605b80b8a0bee85eca1e106d,Mexico,East coast,13 or older,no,2021-03-24_14h11.40.043,empathy_intonation_perc,2020.2.10,Win32,60,,,,,,,,,,1,,,,,,,,,,,,,,,,,,,,,,,,,,,,,,,,,,,,,,,,86,barato,,,1,1,0.655985,0,39,39,85,1,REAL,FAKE,,,,,,,,,,,,,,,,,,,,,
,,,,,,,600f3bb4c3125f0d2a2f0d36,605b45a4d25f287719a41696,605b80b8a0bee85eca1e106d,Mexico,East coast,13 or older,no,2021-03-24_14h11.40.043,empathy_intonation_perc,2020.2.10,Win32,60,,,,,,,,,,1,,,,,,,,,,,,,,,,,,,,,,,,,,,,,,,,,,,,,,,,61,seda,,,0,0,0.38427,0,40,40,60,1,REAL,FAKE,,,,,,,,,,,,,,,,,,,,,
,,,,,,,600f3bb4c3125f0d2a2f0d36,605b45a4d25f287719a41696,605b80b8a0bee85eca1e106d,Mexico,East coast,13 or older,no,2021-03-24_14h11.40.043,empathy_intonation_perc,2020.2.10,Win32,60,,,,,,,,,,1,,,,,,,,,,,,,,,,,,,,,,,,,,,,,,,,,,,,,,,,56,musgo,,,0,0,2.302315,0,41,41,55,1,REAL,FAKE,,,,,,,,,,,,,,,,,,,,,
,,,,,,,600f3bb4c3125f0d2a2f0d36,605b45a4d25f287719a41696,605b80b8a0bee85eca1e106d,Mexico,East coast,13 or older,no,2021-03-24_14h11.40.043,empathy_intonation_perc,2020.2.10,Win32,60,,,,,,,,,,1,,,,,,,,,,,,,,,,,,,,,,,,,,,,,,,,,,,,,,,,45,jilguero,,,1,1,1.12141,0,42,42,44,1,REAL,FAKE,,,,,,,,,,,,,,,,,,,,,
,,,,,,,600f3bb4c3125f0d2a2f0d36,605b45a4d25f287719a41696,605b80b8a0bee85eca1e106d,Mexico,East coast,13 or older,no,2021-03-24_14h11.40.043,empathy_intonation_perc,2020.2.10,Win32,60,,,,,,,,,,1,,,,,,,,,,,,,,,,,,,,,,,,,,,,,,,,,,,,,,,,7,psimo,,,1,1,0.835165,0,43,43,6,1,REAL,FAKE,,,,,,,,,,,,,,,,,,,,,
,,,,,,,600f3bb4c3125f0d2a2f0d36,605b45a4d25f287719a41696,605b80b8a0bee85eca1e106d,Mexico,East coast,13 or older,no,2021-03-24_14h11.40.043,empathy_intonation_perc,2020.2.10,Win32,60,,,,,,,,,,0,,,,,,,,,,,,,,,,,,,,,,,,,,,,,,,,,,,,,,,,30,alardio,,,0,1,0.585865,0,44,44,29,1,REAL,FAKE,,,,,,,,,,,,,,,,,,,,,
,,,,,,,600f3bb4c3125f0d2a2f0d36,605b45a4d25f287719a41696,605b80b8a0bee85eca1e106d,Mexico,East coast,13 or older,no,2021-03-24_14h11.40.043,empathy_intonation_perc,2020.2.10,Win32,60,,,,,,,,,,1,,,,,,,,,,,,,,,,,,,,,,,,,,,,,,,,,,,,,,,,83,guante,,,1,1,0.83743,0,45,45,82,1,REAL,FAKE,,,,,,,,,,,,,,,,,,,,,
,,,,,,,600f3bb4c3125f0d2a2f0d36,605b45a4d25f287719a41696,605b80b8a0bee85eca1e106d,Mexico,East coast,13 or older,no,2021-03-24_14h11.40.043,empathy_intonation_perc,2020.2.10,Win32,60,,,,,,,,,,1,,,,,,,,,,,,,,,,,,,,,,,,,,,,,,,,,,,,,,,,80,hormiga,,,0,0,0.626575,0,46,46,79,1,REAL,FAKE,,,,,,,,,,,,,,,,,,,,,
,,,,,,,600f3bb4c3125f0d2a2f0d36,605b45a4d25f287719a41696,605b80b8a0bee85eca1e106d,Mexico,East coast,13 or older,no,2021-03-24_14h11.40.043,empathy_intonation_perc,2020.2.10,Win32,60,,,,,,,,,,0,,,,,,,,,,,,,,,,,,,,,,,,,,,,,,,,,,,,,,,,72,pemicin,,,0,1,1.219925,0,47,47,71,1,REAL,FAKE,,,,,,,,,,,,,,,,,,,,,
,,,,,,,600f3bb4c3125f0d2a2f0d36,605b45a4d25f287719a41696,605b80b8a0bee85eca1e106d,Mexico,East coast,13 or older,no,2021-03-24_14h11.40.043,empathy_intonation_perc,2020.2.10,Win32,60,,,,,,,,,,1,,,,,,,,,,,,,,,,,,,,,,,,,,,,,,,,,,,,,,,,11,cenefa,,,0,0,1.525905,0,48,48,10,1,REAL,FAKE,,,,,,,,,,,,,,,,,,,,,
,,,,,,,600f3bb4c3125f0d2a2f0d36,605b45a4d25f287719a41696,605b80b8a0bee85eca1e106d,Mexico,East coast,13 or older,no,2021-03-24_14h11.40.043,empathy_intonation_perc,2020.2.10,Win32,60,,,,,,,,,,1,,,,,,,,,,,,,,,,,,,,,,,,,,,,,,,,,,,,,,,,9,hacha,,,0,0,0.94319,0,49,49,8,1,REAL,FAKE,,,,,,,,,,,,,,,,,,,,,
,,,,,,,600f3bb4c3125f0d2a2f0d36,605b45a4d25f287719a41696,605b80b8a0bee85eca1e106d,Mexico,East coast,13 or older,no,2021-03-24_14h11.40.043,empathy_intonation_perc,2020.2.10,Win32,60,,,,,,,,,,1,,,,,,,,,,,,,,,,,,,,,,,,,,,,,,,,,,,,,,,,60,matar,,,0,0,0.784005,0,50,50,59,1,REAL,FAKE,,,,,,,,,,,,,,,,,,,,,
,,,,,,,600f3bb4c3125f0d2a2f0d36,605b45a4d25f287719a41696,605b80b8a0bee85eca1e106d,Mexico,East coast,13 or older,no,2021-03-24_14h11.40.043,empathy_intonation_perc,2020.2.10,Win32,60,,,,,,,,,,1,,,,,,,,,,,,,,,,,,,,,,,,,,,,,,,,,,,,,,,,64,orgulloso,,,0,0,0.888615,0,51,51,63,1,REAL,FAKE,,,,,,,,,,,,,,,,,,,,,
,,,,,,,600f3bb4c3125f0d2a2f0d36,605b45a4d25f287719a41696,605b80b8a0bee85eca1e106d,Mexico,East coast,13 or older,no,2021-03-24_14h11.40.043,empathy_intonation_perc,2020.2.10,Win32,60,,,,,,,,,,1,,,,,,,,,,,,,,,,,,,,,,,,,,,,,,,,,,,,,,,,90,clavel,,,0,0,0.65571,0,52,52,89,1,REAL,FAKE,,,,,,,,,,,,,,,,,,,,,
,,,,,,,600f3bb4c3125f0d2a2f0d36,605b45a4d25f287719a41696,605b80b8a0bee85eca1e106d,Mexico,East coast,13 or older,no,2021-03-24_14h11.40.043,empathy_intonation_perc,2020.2.10,Win32,60,,,,,,,,,,1,,,,,,,,,,,,,,,,,,,,,,,,,,,,,,,,,,,,,,,,41,rebuscar,,,1,1,0.840925,0,53,53,40,1,REAL,FAKE,,,,,,,,,,,,,,,,,,,,,
,,,,,,,600f3bb4c3125f0d2a2f0d36,605b45a4d25f287719a41696,605b80b8a0bee85eca1e106d,Mexico,East coast,13 or older,no,2021-03-24_14h11.40.043,empathy_intonation_perc,2020.2.10,Win32,60,,,,,,,,,,0,,,,,,,,,,,,,,,,,,,,,,,,,,,,,,,,,,,,,,,,35,rompido,,,0,1,0.55234,0,54,54,34,1,REAL,FAKE,,,,,,,,,,,,,,,,,,,,,
,,,,,,,600f3bb4c3125f0d2a2f0d36,605b45a4d25f287719a41696,605b80b8a0bee85eca1e106d,Mexico,East coast,13 or older,no,2021-03-24_14h11.40.043,empathy_intonation_perc,2020.2.10,Win32,60,,,,,,,,,,0,,,,,,,,,,,,,,,,,,,,,,,,,,,,,,,,,,,,,,,,50,flamida,,,0,1,1.085595,0,55,55,49,1,REAL,FAKE,,,,,,,,,,,,,,,,,,,,,
,,,,,,,600f3bb4c3125f0d2a2f0d36,605b45a4d25f287719a41696,605b80b8a0bee85eca1e106d,Mexico,East coast,13 or older,no,2021-03-24_14h11.40.043,empathy_intonation_perc,2020.2.10,Win32,60,,,,,,,,,,0,,,,,,,,,,,,,,,,,,,,,,,,,,,,,,,,,,,,,,,,18,arsa,,,0,1,1.136285,0,56,56,17,1,REAL,FAKE,,,,,,,,,,,,,,,,,,,,,
,,,,,,,600f3bb4c3125f0d2a2f0d36,605b45a4d25f287719a41696,605b80b8a0bee85eca1e106d,Mexico,East coast,13 or older,no,2021-03-24_14h11.40.043,empathy_intonation_perc,2020.2.10,Win32,60,,,,,,,,,,1,,,,,,,,,,,,,,,,,,,,,,,,,,,,,,,,,,,,,,,,2,pellizcar,,,0,0,0.95366,0,57,57,1,1,REAL,FAKE,,,,,,,,,,,,,,,,,,,,,
,,,,,,,600f3bb4c3125f0d2a2f0d36,605b45a4d25f287719a41696,605b80b8a0bee85eca1e106d,Mexico,East coast,13 or older,no,2021-03-24_14h11.40.043,empathy_intonation_perc,2020.2.10,Win32,60,,,,,,,,,,0,,,,,,,,,,,,,,,,,,,,,,,,,,,,,,,,,,,,,,,,74,cintro,,,0,1,1.093675,0,58,58,73,1,REAL,FAKE,,,,,,,,,,,,,,,,,,,,,
,,,,,,,600f3bb4c3125f0d2a2f0d36,605b45a4d25f287719a41696,605b80b8a0bee85eca1e106d,Mexico,East coast,13 or older,no,2021-03-24_14h11.40.043,empathy_intonation_perc,2020.2.10,Win32,60,,,,,,,,,,1,,,,,,,,,,,,,,,,,,,,,,,,,,,,,,,,,,,,,,,,34,aviso,,,0,0,1.68579,0,59,59,33,1,REAL,FAKE,,,,,,,,,,,,,,,,,,,,,
,,,,,,,600f3bb4c3125f0d2a2f0d36,605b45a4d25f287719a41696,605b80b8a0bee85eca1e106d,Mexico,East coast,13 or older,no,2021-03-24_14h11.40.043,empathy_intonation_perc,2020.2.10,Win32,60,,,,,,,,,,1,,,,,,,,,,,,,,,,,,,,,,,,,,,,,,,,,,,,,,,,13,helar,,,0,0,0.719145,0,60,60,12,1,REAL,FAKE,,,,,,,,,,,,,,,,,,,,,
,,,,,,,600f3bb4c3125f0d2a2f0d36,605b45a4d25f287719a41696,605b80b8a0bee85eca1e106d,Mexico,East coast,13 or older,no,2021-03-24_14h11.40.043,empathy_intonation_perc,2020.2.10,Win32,60,,,,,,,,,,1,,,,,,,,,,,,,,,,,,,,,,,,,,,,,,,,,,,,,,,,62,flaco,,,0,0,0.76874,0,61,61,61,1,REAL,FAKE,,,,,,,,,,,,,,,,,,,,,
,,,,,,,600f3bb4c3125f0d2a2f0d36,605b45a4d25f287719a41696,605b80b8a0bee85eca1e106d,Mexico,East coast,13 or older,no,2021-03-24_14h11.40.043,empathy_intonation_perc,2020.2.10,Win32,60,,,,,,,,,,1,,,,,,,,,,,,,,,,,,,,,,,,,,,,,,,,,,,,,,,,85,lad,,,1,1,0.6687,0,62,62,84,1,REAL,FAKE,,,,,,,,,,,,,,,,,,,,,
,,,,,,,600f3bb4c3125f0d2a2f0d36,605b45a4d25f287719a41696,605b80b8a0bee85eca1e106d,Mexico,East coast,13 or older,no,2021-03-24_14h11.40.043,empathy_intonation_perc,2020.2.10,Win32,60,,,,,,,,,,0,,,,,,,,,,,,,,,,,,,,,,,,,,,,,,,,,,,,,,,,79,tropaje,,,0,1,0.686065,0,63,63,78,1,REAL,FAKE,,,,,,,,,,,,,,,,,,,,,
,,,,,,,600f3bb4c3125f0d2a2f0d36,605b45a4d25f287719a41696,605b80b8a0bee85eca1e106d,Mexico,East coast,13 or older,no,2021-03-24_14h11.40.043,empathy_intonation_perc,2020.2.10,Win32,60,,,,,,,,,,1,,,,,,,,,,,,,,,,,,,,,,,,,,,,,,,,,,,,,,,,78,frondoso,,,1,1,1.018945,0,64,64,77,1,REAL,FAKE,,,,,,,,,,,,,,,,,,,,,
,,,,,,,600f3bb4c3125f0d2a2f0d36,605b45a4d25f287719a41696,605b80b8a0bee85eca1e106d,Mexico,East coast,13 or older,no,2021-03-24_14h11.40.043,empathy_intonation_perc,2020.2.10,Win32,60,,,,,,,,,,0,,,,,,,,,,,,,,,,,,,,,,,,,,,,,,,,,,,,,,,,58,plaudir,,,1,0,1.485655,0,65,65,57,1,REAL,FAKE,,,,,,,,,,,,,,,,,,,,,
,,,,,,,600f3bb4c3125f0d2a2f0d36,605b45a4d25f287719a41696,605b80b8a0bee85eca1e106d,Mexico,East coast,13 or older,no,2021-03-24_14h11.40.043,empathy_intonation_perc,2020.2.10,Win32,60,,,,,,,,,,1,,,,,,,,,,,,,,,,,,,,,,,,,,,,,,,,,,,,,,,,89,prisa,,,0,0,0.490125,0,66,66,88,1,REAL,FAKE,,,,,,,,,,,,,,,,,,,,,
,,,,,,,600f3bb4c3125f0d2a2f0d36,605b45a4d25f287719a41696,605b80b8a0bee85eca1e106d,Mexico,East coast,13 or older,no,2021-03-24_14h11.40.043,empathy_intonation_perc,2020.2.10,Win32,60,,,,,,,,,,1,,,,,,,,,,,,,,,,,,,,,,,,,,,,,,,,,,,,,,,,59,besar,,,1,1,0.95959,0,67,67,58,1,REAL,FAKE,,,,,,,,,,,,,,,,,,,,,
,,,,,,,600f3bb4c3125f0d2a2f0d36,605b45a4d25f287719a41696,605b80b8a0bee85eca1e106d,Mexico,East coast,13 or older,no,2021-03-24_14h11.40.043,empathy_intonation_perc,2020.2.10,Win32,60,,,,,,,,,,1,,,,,,,,,,,,,,,,,,,,,,,,,,,,,,,,,,,,,,,,67,cabello,,,0,0,0.84623,0,68,68,66,1,REAL,FAKE,,,,,,,,,,,,,,,,,,,,,
,,,,,,,600f3bb4c3125f0d2a2f0d36,605b45a4d25f287719a41696,605b80b8a0bee85eca1e106d,Mexico,East coast,13 or older,no,2021-03-24_14h11.40.043,empathy_intonation_perc,2020.2.10,Win32,60,,,,,,,,,,1,,,,,,,,,,,,,,,,,,,,,,,,,,,,,,,,,,,,,,,,54,fomentar,,,0,0,1.052495,0,69,69,53,1,REAL,FAKE,,,,,,,,,,,,,,,,,,,,,
,,,,,,,600f3bb4c3125f0d2a2f0d36,605b45a4d25f287719a41696,605b80b8a0bee85eca1e106d,Mexico,East coast,13 or older,no,2021-03-24_14h11.40.043,empathy_intonation_perc,2020.2.10,Win32,60,,,,,,,,,,1,,,,,,,,,,,,,,,,,,,,,,,,,,,,,,,,,,,,,,,,22,lacayo,,,1,1,0.75472,0,70,70,21,1,REAL,FAKE,,,,,,,,,,,,,,,,,,,,,
,,,,,,,600f3bb4c3125f0d2a2f0d36,605b45a4d25f287719a41696,605b80b8a0bee85eca1e106d,Mexico,East coast,13 or older,no,2021-03-24_14h11.40.043,empathy_intonation_perc,2020.2.10,Win32,60,,,,,,,,,,1,,,,,,,,,,,,,,,,,,,,,,,,,,,,,,,,,,,,,,,,76,atar,,,0,0,0.596875,0,71,71,75,1,REAL,FAKE,,,,,,,,,,,,,,,,,,,,,
,,,,,,,600f3bb4c3125f0d2a2f0d36,605b45a4d25f287719a41696,605b80b8a0bee85eca1e106d,Mexico,East coast,13 or older,no,2021-03-24_14h11.40.043,empathy_intonation_perc,2020.2.10,Win32,60,,,,,,,,,,1,,,,,,,,,,,,,,,,,,,,,,,,,,,,,,,,,,,,,,,,15,regar,,,0,0,0.55525,0,72,72,14,1,REAL,FAKE,,,,,,,,,,,,,,,,,,,,,
,,,,,,,600f3bb4c3125f0d2a2f0d36,605b45a4d25f287719a41696,605b80b8a0bee85eca1e106d,Mexico,East coast,13 or older,no,2021-03-24_14h11.40.043,empathy_intonation_perc,2020.2.10,Win32,60,,,,,,,,,,0,,,,,,,,,,,,,,,,,,,,,,,,,,,,,,,,,,,,,,,,23,lampera,,,0,1,0.819005,0,73,73,22,1,REAL,FAKE,,,,,,,,,,,,,,,,,,,,,
,,,,,,,600f3bb4c3125f0d2a2f0d36,605b45a4d25f287719a41696,605b80b8a0bee85eca1e106d,Mexico,East coast,13 or older,no,2021-03-24_14h11.40.043,empathy_intonation_perc,2020.2.10,Win32,60,,,,,,,,,,0,,,,,,,,,,,,,,,,,,,,,,,,,,,,,,,,,,,,,,,,53,vegada,,,1,0,1.591925,0,74,74,52,1,REAL,FAKE,,,,,,,,,,,,,,,,,,,,,
,,,,,,,600f3bb4c3125f0d2a2f0d36,605b45a4d25f287719a41696,605b80b8a0bee85eca1e106d,Mexico,East coast,13 or older,no,2021-03-24_14h11.40.043,empathy_intonation_perc,2020.2.10,Win32,60,,,,,,,,,,0,,,,,,,,,,,,,,,,,,,,,,,,,,,,,,,,,,,,,,,,70,temblo,,,0,1,1.322425,0,75,75,69,1,REAL,FAKE,,,,,,,,,,,,,,,,,,,,,
,,,,,,,600f3bb4c3125f0d2a2f0d36,605b45a4d25f287719a41696,605b80b8a0bee85eca1e106d,Mexico,East coast,13 or older,no,2021-03-24_14h11.40.043,empathy_intonation_perc,2020.2.10,Win32,60,,,,,,,,,,0,,,,,,,,,,,,,,,,,,,,,,,,,,,,,,,,,,,,,,,,63,esposante,,,0,1,0.87673,0,76,76,62,1,REAL,FAKE,,,,,,,,,,,,,,,,,,,,,
,,,,,,,600f3bb4c3125f0d2a2f0d36,605b45a4d25f287719a41696,605b80b8a0bee85eca1e106d,Mexico,East coast,13 or older,no,2021-03-24_14h11.40.043,empathy_intonation_perc,2020.2.10,Win32,60,,,,,,,,,,0,,,,,,,,,,,,,,,,,,,,,,,,,,,,,,,,,,,,,,,,32,fatacidad,,,0,1,0.952945,0,77,77,31,1,REAL,FAKE,,,,,,,,,,,,,,,,,,,,,
,,,,,,,600f3bb4c3125f0d2a2f0d36,605b45a4d25f287719a41696,605b80b8a0bee85eca1e106d,Mexico,East coast,13 or older,no,2021-03-24_14h11.40.043,empathy_intonation_perc,2020.2.10,Win32,60,,,,,,,,,,1,,,,,,,,,,,,,,,,,,,,,,,,,,,,,,,,,,,,,,,,48,ladrn,,,0,0,0.569075,0,78,78,47,1,REAL,FAKE,,,,,,,,,,,,,,,,,,,,,
,,,,,,,600f3bb4c3125f0d2a2f0d36,605b45a4d25f287719a41696,605b80b8a0bee85eca1e106d,Mexico,East coast,13 or older,no,2021-03-24_14h11.40.043,empathy_intonation_perc,2020.2.10,Win32,60,,,,,,,,,,1,,,,,,,,,,,,,,,,,,,,,,,,,,,,,,,,,,,,,,,,3,pulmones,,,0,0,0.844125,0,79,79,2,1,REAL,FAKE,,,,,,,,,,,,,,,,,,,,,
,,,,,,,600f3bb4c3125f0d2a2f0d36,605b45a4d25f287719a41696,605b80b8a0bee85eca1e106d,Mexico,East coast,13 or older,no,2021-03-24_14h11.40.043,empathy_intonation_perc,2020.2.10,Win32,60,,,,,,,,,,1,,,,,,,,,,,,,,,,,,,,,,,,,,,,,,,,,,,,,,,,75,yacer,,,0,0,0.935615,0,80,80,74,1,REAL,FAKE,,,,,,,,,,,,,,,,,,,,,
,,,,,,,600f3bb4c3125f0d2a2f0d36,605b45a4d25f287719a41696,605b80b8a0bee85eca1e106d,Mexico,East coast,13 or older,no,2021-03-24_14h11.40.043,empathy_intonation_perc,2020.2.10,Win32,60,,,,,,,,,,1,,,,,,,,,,,,,,,,,,,,,,,,,,,,,,,,,,,,,,,,52,camisa,,,1,1,0.575575,0,81,81,51,1,REAL,FAKE,,,,,,,,,,,,,,,,,,,,,
,,,,,,,600f3bb4c3125f0d2a2f0d36,605b45a4d25f287719a41696,605b80b8a0bee85eca1e106d,Mexico,East coast,13 or older,no,2021-03-24_14h11.40.043,empathy_intonation_perc,2020.2.10,Win32,60,,,,,,,,,,1,,,,,,,,,,,,,,,,,,,,,,,,,,,,,,,,,,,,,,,,71,polvoriento,,,0,0,0.68516,0,82,82,70,1,REAL,FAKE,,,,,,,,,,,,,,,,,,,,,
,,,,,,,600f3bb4c3125f0d2a2f0d36,605b45a4d25f287719a41696,605b80b8a0bee85eca1e106d,Mexico,East coast,13 or older,no,2021-03-24_14h11.40.043,empathy_intonation_perc,2020.2.10,Win32,60,,,,,,,,,,1,,,,,,,,,,,,,,,,,,,,,,,,,,,,,,,,,,,,,,,,37,granuja,,,0,0,0.9605,0,83,83,36,1,REAL,FAKE,,,,,,,,,,,,,,,,,,,,,
,,,,,,,600f3bb4c3125f0d2a2f0d36,605b45a4d25f287719a41696,605b80b8a0bee85eca1e106d,Mexico,East coast,13 or older,no,2021-03-24_14h11.40.043,empathy_intonation_perc,2020.2.10,Win32,60,,,,,,,,,,1,,,,,,,,,,,,,,,,,,,,,,,,,,,,,,,,,,,,,,,,38,estornudar,,,1,1,0.62525,0,84,84,37,1,REAL,FAKE,,,,,,,,,,,,,,,,,,,,,
,,,,,,,600f3bb4c3125f0d2a2f0d36,605b45a4d25f287719a41696,605b80b8a0bee85eca1e106d,Mexico,East coast,13 or older,no,2021-03-24_14h11.40.043,empathy_intonation_perc,2020.2.10,Win32,60,,,,,,,,,,0,,,,,,,,,,,,,,,,,,,,,,,,,,,,,,,,,,,,,,,,19,brecedad,,,0,1,0.74012,0,85,85,18,1,REAL,FAKE,,,,,,,,,,,,,,,,,,,,,
,,,,,,,600f3bb4c3125f0d2a2f0d36,605b45a4d25f287719a41696,605b80b8a0bee85eca1e106d,Mexico,East coast,13 or older,no,2021-03-24_14h11.40.043,empathy_intonation_perc,2020.2.10,Win32,60,,,,,,,,,,1,,,,,,,,,,,,,,,,,,,,,,,,,,,,,,,,,,,,,,,,44,cuchara,,,1,1,0.852195,0,86,86,43,1,REAL,FAKE,,,,,,,,,,,,,,,,,,,,,
,,,,,,,600f3bb4c3125f0d2a2f0d36,605b45a4d25f287719a41696,605b80b8a0bee85eca1e106d,Mexico,East coast,13 or older,no,2021-03-24_14h11.40.043,empathy_intonation_perc,2020.2.10,Win32,60,,,,,,,,,,1,,,,,,,,,,,,,,,,,,,,,,,,,,,,,,,,,,,,,,,,28,merodear,,,0,0,0.55574,0,87,87,27,1,REAL,FAKE,,,,,,,,,,,,,,,,,,,,,
,,,,,,,600f3bb4c3125f0d2a2f0d36,605b45a4d25f287719a41696,605b80b8a0bee85eca1e106d,Mexico,East coast,13 or older,no,2021-03-24_14h11.40.043,empathy_intonation_perc,2020.2.10,Win32,60,,,,,,,,,,1,,,,,,,,,,,,,,,,,,,,,,,,,,,,,,,,,,,,,,,,51,candado,,,0,0,0.55204,0,88,88,50,1,REAL,FAKE,,,,,,,,,,,,,,,,,,,,,
,,,,,,,600f3bb4c3125f0d2a2f0d36,605b45a4d25f287719a41696,605b80b8a0bee85eca1e106d,Mexico,East coast,13 or older,no,2021-03-24_14h11.40.043,empathy_intonation_perc,2020.2.10,Win32,60,,,,,,,,,,1,,,,,,,,,,,,,,,,,,,,,,,,,,,,,,,,,,,,,,,,43,canela,,,0,0,0.554085,0,89,89,42,1,REAL,FAKE,,,,,,,,,,,,,,,,,,,,,
,,,,,,,600f3bb4c3125f0d2a2f0d36,605b45a4d25f287719a41696,605b80b8a0bee85eca1e106d,Mexico,East coast,13 or older,no,2021-03-24_14h11.40.043,empathy_intonation_perc,2020.2.10,Win32,60,,,,,,,,,,,,,,,,,,,,,,,,,,,,,,,,,,,,,,,,,,,,,,,,,,,,,,,,,,,,,,,,4,1,5.02677,1,0,0,0,0,0,1,,,,,,,,,,,
,,,,,,,600f3bb4c3125f0d2a2f0d36,605b45a4d25f287719a41696,605b80b8a0bee85eca1e106d,Mexico,East coast,13 or older,no,2021-03-24_14h11.40.043,empathy_intonation_perc,2020.2.10,Win32,60,,,,,,,,,,,,,,,,,,,,1,,,,,,,,,,,,,,,,,,,,,,,,,,,,,,,,,,,,,,,,,,,,,,,,,,,,,,3,0,0,0,0,1,I can easily tell if someone else wants to enter a conversation.,1,0,1,0
,,,,,,,600f3bb4c3125f0d2a2f0d36,605b45a4d25f287719a41696,605b80b8a0bee85eca1e106d,Mexico,East coast,13 or older,no,2021-03-24_14h11.40.043,empathy_intonation_perc,2020.2.10,Win32,60,,,,,,,,,,,,,,,,,,,,2,,,,,,,,,,,,,,,,,,,,,,,,,,,,,,,,,,,,,,,,,,,,,,,,,,,,,,2,0,1,1,1,1,I prefer animals to humans.,0,1,0,0
,,,,,,,600f3bb4c3125f0d2a2f0d36,605b45a4d25f287719a41696,605b80b8a0bee85eca1e106d,Mexico,East coast,13 or older,no,2021-03-24_14h11.40.043,empathy_intonation_perc,2020.2.10,Win32,60,,,,,,,,,,,,,,,,,,,,3,,,,,,,,,,,,,,,,,,,,,,,,,,,,,,,,,,,,,,,,,,,,,,,,,,,,,,4,0,2,2,2,1,I try to keep up with the current trends and fashions.,0,1,0,0
,,,,,,,600f3bb4c3125f0d2a2f0d36,605b45a4d25f287719a41696,605b80b8a0bee85eca1e106d,Mexico,East coast,13 or older,no,2021-03-24_14h11.40.043,empathy_intonation_perc,2020.2.10,Win32,60,,,,,,,,,,,,,,,,,,,,4,,,,,,,,,,,,,,,,,,,,,,,,,,,,,,,,,,,,,,,,,,,,,,,,,,,,,,4,0,3,3,3,1,"I find it difficult to explain to others things that I understand easily, 
  when they dont understand it first time.",1,0,0,1
,,,,,,,600f3bb4c3125f0d2a2f0d36,605b45a4d25f287719a41696,605b80b8a0bee85eca1e106d,Mexico,East coast,13 or older,no,2021-03-24_14h11.40.043,empathy_intonation_perc,2020.2.10,Win32,60,,,,,,,,,,,,,,,,,,,,5,,,,,,,,,,,,,,,,,,,,,,,,,,,,,,,,,,,,,,,,,,,,,,,,,,,,,,5,0,4,4,4,1,I dream most nights.,0,1,0,0
,,,,,,,600f3bb4c3125f0d2a2f0d36,605b45a4d25f287719a41696,605b80b8a0bee85eca1e106d,Mexico,East coast,13 or older,no,2021-03-24_14h11.40.043,empathy_intonation_perc,2020.2.10,Win32,60,,,,,,,,,,,,,,,,,,,,6,,,,,,,,,,,,,,,,,,,,,,,,,,,,,,,,,,,,,,,,,,,,,,,,,,,,,,4,0,5,5,5,1,I really enjoy caring for other people.,1,0,1,0
,,,,,,,600f3bb4c3125f0d2a2f0d36,605b45a4d25f287719a41696,605b80b8a0bee85eca1e106d,Mexico,East coast,13 or older,no,2021-03-24_14h11.40.043,empathy_intonation_perc,2020.2.10,Win32,60,,,,,,,,,,,,,,,,,,,,7,,,,,,,,,,,,,,,,,,,,,,,,,,,,,,,,,,,,,,,,,,,,,,,,,,,,,,1,0,6,6,6,1,I try to solve my own problems rather than discussing them with others.,0,1,0,0
