instructions_2afc_loop.thisRepN,instructions_2afc_loop.thisTrialN,instructions_2afc_loop.thisN,instructions_2afc_loop.thisIndex,instructions_2afc_loop.ran,instructions_text,continue_text,participant,study_id,session,I am most familiar with Spanish from...*,What part of the US are you from?*,At what age did you begin learning Spanish?*,Are you proficient in any languages other than English/Spanish?*,date,expName,psychopyVersion,OS,frameRate,key_resp_2afc_practice.keys,key_resp_2afc_practice.corr,key_resp_2afc_practice.rt,trials_2afc_practice_loop.thisRepN,trials_2afc_practice_loop.thisTrialN,trials_2afc_practice_loop.thisN,trials_2afc_practice_loop.thisIndex,trials_2afc_practice_loop.ran,path,correct_response,the_col,key_resp_2afc_trial.keys,key_resp_2afc_trial.corr,key_resp_2afc_trial.rt,trials_2afc_loop.thisRepN,trials_2afc_loop.thisTrialN,trials_2afc_loop.thisN,trials_2afc_loop.thisIndex,trials_2afc_loop.ran,item_num,andalusian,argentine,castilian,chilean,cuban,mexican,peruvian,puertorican,key_resp_ac1.keys,key_resp_ac1.corr,key_resp_ac1.rt,ac1_loop.thisRepN,ac1_loop.thisTrialN,ac1_loop.thisN,ac1_loop.thisIndex,ac1_loop.ran,instructions_lextale_loop.thisRepN,instructions_lextale_loop.thisTrialN,instructions_lextale_loop.thisN,instructions_lextale_loop.thisIndex,instructions_lextale_loop.ran,key_resp_lextale_practice.keys,key_resp_lextale_practice.corr,key_resp_lextale_practice.rt,trials_lextale_practice_loop.thisRepN,trials_lextale_practice_loop.thisTrialN,trials_lextale_practice_loop.thisN,trials_lextale_practice_loop.thisIndex,trials_lextale_practice_loop.ran,stim,word,prac_button_real,prac_button_false,key_resp_lextale_trial.keys,key_resp_lextale_trial.corr,key_resp_lextale_trial.rt,trials_lextale_loop.thisRepN,trials_lextale_loop.thisTrialN,trials_lextale_loop.thisN,trials_lextale_loop.thisIndex,trials_lextale_loop.ran,button_real,button_false,key_resp_ac2.keys,key_resp_ac2.corr,key_resp_ac2.rt,check_pass,check_fails,ac2_loop.thisRepN,ac2_loop.thisTrialN,ac2_loop.thisN,ac2_loop.thisIndex,ac2_loop.ran,slider_eq_trial.response,trials_eq_loop.thisRepN,trials_eq_loop.thisTrialN,trials_eq_loop.thisN,trials_eq_loop.thisIndex,trials_eq_loop.ran,item,is_test_item,is_distractor,is_agree_score,is_disagree_score
0,0,0,0,1,"In the following task you are going to hear a series of utterances. 

  You will decide if the utterances sound like questions or not using your keyboard.",(press the spacebar to continue),60105552a0d121342846b31a,605b45a4d25f287719a41696,605cc41669c8f13d7e3ca78b,Mexico,Northeast,13 or older,no,2021-03-25_13h11.35.511,empathy_intonation_perc,2020.2.10,Win32,60,,,,,,,,,,,,,,,,,,,,,,,,,,,,,,,,,,,,,,,,,,,,,,,,,,,,,,,,,,,,,,,,,,,,,,,,,,,,,,,,,,,,
0,1,1,1,1,"If you believe the utterance is a question, type '1' (for 'yes') and if you do not 
  believe it is a question type '0' (for 'no').

  Let's practice a bit...",(press the spacebar to continue),60105552a0d121342846b31a,605b45a4d25f287719a41696,605cc41669c8f13d7e3ca78b,Mexico,Northeast,13 or older,no,2021-03-25_13h11.35.511,empathy_intonation_perc,2020.2.10,Win32,60,,,,,,,,,,,,,,,,,,,,,,,,,,,,,,,,,,,,,,,,,,,,,,,,,,,,,,,,,,,,,,,,,,,,,,,,,,,,,,,,,,,,
,,,,,,,60105552a0d121342846b31a,605b45a4d25f287719a41696,605cc41669c8f13d7e3ca78b,Mexico,Northeast,13 or older,no,2021-03-25_13h11.35.511,empathy_intonation_perc,2020.2.10,Win32,60,0,1,3.412705,0,0,0,7,1,./stim/wavs/puertorican_statement_filler_La-nina-pinta-con-su-amiga.wav,0,,,,,,,,,,,,,,,,,,,,,,,,,,,,,,,,,,,,,,,,,,,,,,,,,,,,,,,,,,,,,,,,,,,,,,,,,,
,,,,,,,60105552a0d121342846b31a,605b45a4d25f287719a41696,605cc41669c8f13d7e3ca78b,Mexico,Northeast,13 or older,no,2021-03-25_13h11.35.511,empathy_intonation_perc,2020.2.10,Win32,60,1,1,2.40689,0,1,1,1,1,./stim/wavs/argentine_question_filler_Mi-vecino-habla-mucho.wav,1,,,,,,,,,,,,,,,,,,,,,,,,,,,,,,,,,,,,,,,,,,,,,,,,,,,,,,,,,,,,,,,,,,,,,,,,,,
,,,,,,,60105552a0d121342846b31a,605b45a4d25f287719a41696,605cc41669c8f13d7e3ca78b,Mexico,Northeast,13 or older,no,2021-03-25_13h11.35.511,empathy_intonation_perc,2020.2.10,Win32,60,0,1,2.474415,0,2,2,6,1,./stim/wavs/peruvian_statement_filler_El-nino-habla-con-su-madre.wav,0,,,,,,,,,,,,,,,,,,,,,,,,,,,,,,,,,,,,,,,,,,,,,,,,,,,,,,,,,,,,,,,,,,,,,,,,,,
,,,,,,,60105552a0d121342846b31a,605b45a4d25f287719a41696,605cc41669c8f13d7e3ca78b,Mexico,Northeast,13 or older,no,2021-03-25_13h11.35.511,empathy_intonation_perc,2020.2.10,Win32,60,0,0,1.70965,0,3,3,2,1,./stim/wavs/chilean_question_filler_Mi-padre-cantaba-bien.wav,1,,,,,,,,,,,,,,,,,,,,,,,,,,,,,,,,,,,,,,,,,,,,,,,,,,,,,,,,,,,,,,,,,,,,,,,,,,
,,,,,,,60105552a0d121342846b31a,605b45a4d25f287719a41696,605cc41669c8f13d7e3ca78b,Mexico,Northeast,13 or older,no,2021-03-25_13h11.35.511,empathy_intonation_perc,2020.2.10,Win32,60,0,1,1.617725,0,4,4,5,1,./stim/wavs/andalusian_statement_filler_Alberto-nunca-se-afeita.wav,0,,,,,,,,,,,,,,,,,,,,,,,,,,,,,,,,,,,,,,,,,,,,,,,,,,,,,,,,,,,,,,,,,,,,,,,,,,
,,,,,,,60105552a0d121342846b31a,605b45a4d25f287719a41696,605cc41669c8f13d7e3ca78b,Mexico,Northeast,13 or older,no,2021-03-25_13h11.35.511,empathy_intonation_perc,2020.2.10,Win32,60,1,1,1.81683,0,5,5,3,1,./stim/wavs/mexican_question_filler_Felipe-no-tiene-contrasena.wav,1,,,,,,,,,,,,,,,,,,,,,,,,,,,,,,,,,,,,,,,,,,,,,,,,,,,,,,,,,,,,,,,,,,,,,,,,,,
,,,,,,,60105552a0d121342846b31a,605b45a4d25f287719a41696,605cc41669c8f13d7e3ca78b,Mexico,Northeast,13 or older,no,2021-03-25_13h11.35.511,empathy_intonation_perc,2020.2.10,Win32,60,1,1,1.954905,0,6,6,0,1,./stim/wavs/castilian_question_filler_Mi-esposo-conoce-al-chico.wav,1,,,,,,,,,,,,,,,,,,,,,,,,,,,,,,,,,,,,,,,,,,,,,,,,,,,,,,,,,,,,,,,,,,,,,,,,,,
,,,,,,,60105552a0d121342846b31a,605b45a4d25f287719a41696,605cc41669c8f13d7e3ca78b,Mexico,Northeast,13 or older,no,2021-03-25_13h11.35.511,empathy_intonation_perc,2020.2.10,Win32,60,0,1,1.636665,0,7,7,4,1,./stim/wavs/cuban_statement_filler_Cocinabas-por-la-noche.wav,0,,,,,,,,,,,,,,,,,,,,,,,,,,,,,,,,,,,,,,,,,,,,,,,,,,,,,,,,,,,,,,,,,,,,,,,,,,
,,,,,,,60105552a0d121342846b31a,605b45a4d25f287719a41696,605cc41669c8f13d7e3ca78b,Mexico,Northeast,13 or older,no,2021-03-25_13h11.35.511,empathy_intonation_perc,2020.2.10,Win32,60,,,,,,,,,,1,andalusian,1,1,1.38575,0,0,0,55,1,56,./stim/wavs/andalusian_mismatch_interrogative-partial-wh_Por-que-vivia-en-Paris.wav,./stim/wavs/argentine_mismatch_interrogative-partial-wh_Por-que-vivia-en-Paris.wav,./stim/wavs/castilian_mismatch_interrogative-partial-wh_Por-que-vivia-en-Paris.wav,./stim/wavs/chilean_mismatch_interrogative-partial-wh_Por-que-vivia-en-Paris.wav,./stim/wavs/cuban_mismatch_interrogative-partial-wh_Por-que-vivia-en-Paris.wav,./stim/wavs/mexican_mismatch_interrogative-partial-wh_Por-que-vivia-en-Paris.wav,./stim/wavs/peruvian_mismatch_interrogative-partial-wh_Por-que-vivia-en-Paris.wav,./stim/wavs/puertorican_mismatch_interrogative-partial-wh_Por-que-vivia-en-Paris.wav,,,,,,,,,,,,,,,,,,,,,,,,,,,,,,,,,,,,,,,,,,,,,,,,,,,,,,,,
,,,,,,,60105552a0d121342846b31a,605b45a4d25f287719a41696,605cc41669c8f13d7e3ca78b,Mexico,Northeast,13 or older,no,2021-03-25_13h11.35.511,empathy_intonation_perc,2020.2.10,Win32,60,,,,,,,,,,1,puertorican,0,0,1.70805,0,1,1,30,1,31,./stim/wavs/andalusian_match_interrogative-total-yn_Mariano-habla-del-tiempo.wav,./stim/wavs/argentine_match_interrogative-total-yn_Mariano-habla-del-tiempo.wav,./stim/wavs/castilian_match_interrogative-total-yn_Mariano-habla-del-tiempo.wav,./stim/wavs/chilean_match_interrogative-total-yn_Mariano-habla-del-tiempo.wav,./stim/wavs/cuban_match_interrogative-total-yn_Mariano-habla-del-tiempo.wav,./stim/wavs/mexican_match_interrogative-total-yn_Mariano-habla-del-tiempo.wav,./stim/wavs/peruvian_match_interrogative-total-yn_Mariano-habla-del-tiempo.wav,./stim/wavs/puertorican_match_interrogative-total-yn_Mariano-habla-del-tiempo.wav,,,,,,,,,,,,,,,,,,,,,,,,,,,,,,,,,,,,,,,,,,,,,,,,,,,,,,,,
,,,,,,,60105552a0d121342846b31a,605b45a4d25f287719a41696,605cc41669c8f13d7e3ca78b,Mexico,Northeast,13 or older,no,2021-03-25_13h11.35.511,empathy_intonation_perc,2020.2.10,Win32,60,,,,,,,,,,0,andalusian,0,1,1.583335,0,2,2,4,1,5,./stim/wavs/andalusian_match_declarative-broad-focus_Manuela-vende-el-carro.wav,./stim/wavs/argentine_match_declarative-broad-focus_Manuela-vende-el-carro.wav,./stim/wavs/castilian_match_declarative-broad-focus_Manuela-vende-el-carro.wav,./stim/wavs/chilean_match_declarative-broad-focus_Manuela-vende-el-carro.wav,./stim/wavs/cuban_match_declarative-broad-focus_Manuela-vende-el-carro.wav,./stim/wavs/mexican_match_declarative-broad-focus_Manuela-vende-el-carro.wav,./stim/wavs/peruvian_match_declarative-broad-focus_Manuela-vende-el-carro.wav,./stim/wavs/puertorican_match_declarative-broad-focus_Manuela-vende-el-carro.wav,,,,,,,,,,,,,,,,,,,,,,,,,,,,,,,,,,,,,,,,,,,,,,,,,,,,,,,,
,,,,,,,60105552a0d121342846b31a,605b45a4d25f287719a41696,605cc41669c8f13d7e3ca78b,Mexico,Northeast,13 or older,no,2021-03-25_13h11.35.511,empathy_intonation_perc,2020.2.10,Win32,60,,,,,,,,,,0,mexican,0,1,1.835405,0,3,3,40,1,41,./stim/wavs/andalusian_mismatch_declarative-narrow-focus_El-bebe-comia-muy-bien.wav,./stim/wavs/argentine_mismatch_declarative-narrow-focus_El-bebe-comia-muy-bien.wav,./stim/wavs/castilian_mismatch_declarative-narrow-focus_El-bebe-comia-muy-bien.wav,./stim/wavs/chilean_mismatch_declarative-narrow-focus_El-bebe-comia-muy-bien.wav,./stim/wavs/cuban_mismatch_declarative-narrow-focus_El-bebe-comia-muy-bien.wav,./stim/wavs/mexican_mismatch_declarative-narrow-focus_El-bebe-comia-muy-bien.wav,./stim/wavs/peruvian_mismatch_declarative-narrow-focus_El-bebe-comia-muy-bien.wav,./stim/wavs/puertorican_mismatch_declarative-narrow-focus_El-bebe-comia-muy-bien.wav,,,,,,,,,,,,,,,,,,,,,,,,,,,,,,,,,,,,,,,,,,,,,,,,,,,,,,,,
,,,,,,,60105552a0d121342846b31a,605b45a4d25f287719a41696,605cc41669c8f13d7e3ca78b,Mexico,Northeast,13 or older,no,2021-03-25_13h11.35.511,empathy_intonation_perc,2020.2.10,Win32,60,,,,,,,,,,0,puertorican,0,1,1.44251,0,4,4,1,1,2,./stim/wavs/andalusian_match_declarative-broad-focus_Daniel-iba-a-Bolivia.wav,./stim/wavs/argentine_match_declarative-broad-focus_Daniel-iba-a-Bolivia.wav,./stim/wavs/castilian_match_declarative-broad-focus_Daniel-iba-a-Bolivia.wav,./stim/wavs/chilean_match_declarative-broad-focus_Daniel-iba-a-Bolivia.wav,./stim/wavs/cuban_match_declarative-broad-focus_Daniel-iba-a-Bolivia.wav,./stim/wavs/mexican_match_declarative-broad-focus_Daniel-iba-a-Bolivia.wav,./stim/wavs/peruvian_match_declarative-broad-focus_Daniel-iba-a-Bolivia.wav,./stim/wavs/puertorican_match_declarative-broad-focus_Daniel-iba-a-Bolivia.wav,,,,,,,,,,,,,,,,,,,,,,,,,,,,,,,,,,,,,,,,,,,,,,,,,,,,,,,,
,,,,,,,60105552a0d121342846b31a,605b45a4d25f287719a41696,605cc41669c8f13d7e3ca78b,Mexico,Northeast,13 or older,no,2021-03-25_13h11.35.511,empathy_intonation_perc,2020.2.10,Win32,60,,,,,,,,,,0,puertorican,0,1,1.529005,0,5,5,5,1,6,./stim/wavs/andalusian_match_declarative-broad-focus_Maria-bebe-el-vino.wav,./stim/wavs/argentine_match_declarative-broad-focus_Maria-bebe-el-vino.wav,./stim/wavs/castilian_match_declarative-broad-focus_Maria-bebe-el-vino.wav,./stim/wavs/chilean_match_declarative-broad-focus_Maria-bebe-el-vino.wav,./stim/wavs/cuban_match_declarative-broad-focus_Maria-bebe-el-vino.wav,./stim/wavs/mexican_match_declarative-broad-focus_Maria-bebe-el-vino.wav,./stim/wavs/peruvian_match_declarative-broad-focus_Maria-bebe-el-vino.wav,./stim/wavs/puertorican_match_declarative-broad-focus_Maria-bebe-el-vino.wav,,,,,,,,,,,,,,,,,,,,,,,,,,,,,,,,,,,,,,,,,,,,,,,,,,,,,,,,
,,,,,,,60105552a0d121342846b31a,605b45a4d25f287719a41696,605cc41669c8f13d7e3ca78b,Mexico,Northeast,13 or older,no,2021-03-25_13h11.35.511,empathy_intonation_perc,2020.2.10,Win32,60,,,,,,,,,,1,puertorican,0,0,1.457945,0,6,6,56,1,57,./stim/wavs/andalusian_mismatch_interrogative-total-yn_El-bebe-comia-muy-bien.wav,./stim/wavs/argentine_mismatch_interrogative-total-yn_El-bebe-comia-muy-bien.wav,./stim/wavs/castilian_mismatch_interrogative-total-yn_El-bebe-comia-muy-bien.wav,./stim/wavs/chilean_mismatch_interrogative-total-yn_El-bebe-comia-muy-bien.wav,./stim/wavs/cuban_mismatch_interrogative-total-yn_El-bebe-comia-muy-bien.wav,./stim/wavs/mexican_mismatch_interrogative-total-yn_El-bebe-comia-muy-bien.wav,./stim/wavs/peruvian_mismatch_interrogative-total-yn_El-bebe-comia-muy-bien.wav,./stim/wavs/puertorican_mismatch_interrogative-total-yn_El-bebe-comia-muy-bien.wav,,,,,,,,,,,,,,,,,,,,,,,,,,,,,,,,,,,,,,,,,,,,,,,,,,,,,,,,
,,,,,,,60105552a0d121342846b31a,605b45a4d25f287719a41696,605cc41669c8f13d7e3ca78b,Mexico,Northeast,13 or older,no,2021-03-25_13h11.35.511,empathy_intonation_perc,2020.2.10,Win32,60,,,,,,,,,,1,argentine,0,0,1.73982,0,7,7,63,1,64,./stim/wavs/andalusian_mismatch_interrogative-total-yn_Mi-tia-odia-la-lluvia.wav,./stim/wavs/argentine_mismatch_interrogative-total-yn_Mi-tia-odia-la-lluvia.wav,./stim/wavs/castilian_mismatch_interrogative-total-yn_Mi-tia-odia-la-lluvia.wav,./stim/wavs/chilean_mismatch_interrogative-total-yn_Mi-tia-odia-la-lluvia.wav,./stim/wavs/cuban_mismatch_interrogative-total-yn_Mi-tia-odia-la-lluvia.wav,./stim/wavs/mexican_mismatch_interrogative-total-yn_Mi-tia-odia-la-lluvia.wav,./stim/wavs/peruvian_mismatch_interrogative-total-yn_Mi-tia-odia-la-lluvia.wav,./stim/wavs/puertorican_mismatch_interrogative-total-yn_Mi-tia-odia-la-lluvia.wav,,,,,,,,,,,,,,,,,,,,,,,,,,,,,,,,,,,,,,,,,,,,,,,,,,,,,,,,
,,,,,,,60105552a0d121342846b31a,605b45a4d25f287719a41696,605cc41669c8f13d7e3ca78b,Mexico,Northeast,13 or older,no,2021-03-25_13h11.35.511,empathy_intonation_perc,2020.2.10,Win32,60,,,,,,,,,,0,mexican,0,1,1.47659,0,8,8,36,1,37,./stim/wavs/andalusian_mismatch_declarative-broad-focus_La-nina-lava-el-plato.wav,./stim/wavs/argentine_mismatch_declarative-broad-focus_La-nina-lava-el-plato.wav,./stim/wavs/castilian_mismatch_declarative-broad-focus_La-nina-lava-el-plato.wav,./stim/wavs/chilean_mismatch_declarative-broad-focus_La-nina-lava-el-plato.wav,./stim/wavs/cuban_mismatch_declarative-broad-focus_La-nina-lava-el-plato.wav,./stim/wavs/mexican_mismatch_declarative-broad-focus_La-nina-lava-el-plato.wav,./stim/wavs/peruvian_mismatch_declarative-broad-focus_La-nina-lava-el-plato.wav,./stim/wavs/puertorican_mismatch_declarative-broad-focus_La-nina-lava-el-plato.wav,,,,,,,,,,,,,,,,,,,,,,,,,,,,,,,,,,,,,,,,,,,,,,,,,,,,,,,,
,,,,,,,60105552a0d121342846b31a,605b45a4d25f287719a41696,605cc41669c8f13d7e3ca78b,Mexico,Northeast,13 or older,no,2021-03-25_13h11.35.511,empathy_intonation_perc,2020.2.10,Win32,60,,,,,,,,,,0,chilean,0,1,1.454485,0,9,9,15,1,16,./stim/wavs/andalusian_match_declarative-narrow-focus_Marta-abre-el-regalo.wav,./stim/wavs/argentine_match_declarative-narrow-focus_Marta-abre-el-regalo.wav,./stim/wavs/castilian_match_declarative-narrow-focus_Marta-abre-el-regalo.wav,./stim/wavs/chilean_match_declarative-narrow-focus_Marta-abre-el-regalo.wav,./stim/wavs/cuban_match_declarative-narrow-focus_Marta-abre-el-regalo.wav,./stim/wavs/mexican_match_declarative-narrow-focus_Marta-abre-el-regalo.wav,./stim/wavs/peruvian_match_declarative-narrow-focus_Marta-abre-el-regalo.wav,./stim/wavs/puertorican_match_declarative-narrow-focus_Marta-abre-el-regalo.wav,,,,,,,,,,,,,,,,,,,,,,,,,,,,,,,,,,,,,,,,,,,,,,,,,,,,,,,,
,,,,,,,60105552a0d121342846b31a,605b45a4d25f287719a41696,605cc41669c8f13d7e3ca78b,Mexico,Northeast,13 or older,no,2021-03-25_13h11.35.511,empathy_intonation_perc,2020.2.10,Win32,60,,,,,,,,,,1,chilean,0,0,1.051115,0,10,10,24,1,25,./stim/wavs/andalusian_match_interrogative-total-yn_Ana-lleva-el-abrigo.wav,./stim/wavs/argentine_match_interrogative-total-yn_Ana-lleva-el-abrigo.wav,./stim/wavs/castilian_match_interrogative-total-yn_Ana-lleva-el-abrigo.wav,./stim/wavs/chilean_match_interrogative-total-yn_Ana-lleva-el-abrigo.wav,./stim/wavs/cuban_match_interrogative-total-yn_Ana-lleva-el-abrigo.wav,./stim/wavs/mexican_match_interrogative-total-yn_Ana-lleva-el-abrigo.wav,./stim/wavs/peruvian_match_interrogative-total-yn_Ana-lleva-el-abrigo.wav,./stim/wavs/puertorican_match_interrogative-total-yn_Ana-lleva-el-abrigo.wav,,,,,,,,,,,,,,,,,,,,,,,,,,,,,,,,,,,,,,,,,,,,,,,,,,,,,,,,
,,,,,,,60105552a0d121342846b31a,605b45a4d25f287719a41696,605cc41669c8f13d7e3ca78b,Mexico,Northeast,13 or older,no,2021-03-25_13h11.35.511,empathy_intonation_perc,2020.2.10,Win32,60,,,,,,,,,,0,peruvian,0,1,1.57795,0,11,11,13,1,14,./stim/wavs/andalusian_match_declarative-narrow-focus_Maria-bebe-el-vino.wav,./stim/wavs/argentine_match_declarative-narrow-focus_Maria-bebe-el-vino.wav,./stim/wavs/castilian_match_declarative-narrow-focus_Maria-bebe-el-vino.wav,./stim/wavs/chilean_match_declarative-narrow-focus_Maria-bebe-el-vino.wav,./stim/wavs/cuban_match_declarative-narrow-focus_Maria-bebe-el-vino.wav,./stim/wavs/mexican_match_declarative-narrow-focus_Maria-bebe-el-vino.wav,./stim/wavs/peruvian_match_declarative-narrow-focus_Maria-bebe-el-vino.wav,./stim/wavs/puertorican_match_declarative-narrow-focus_Maria-bebe-el-vino.wav,,,,,,,,,,,,,,,,,,,,,,,,,,,,,,,,,,,,,,,,,,,,,,,,,,,,,,,,
,,,,,,,60105552a0d121342846b31a,605b45a4d25f287719a41696,605cc41669c8f13d7e3ca78b,Mexico,Northeast,13 or older,no,2021-03-25_13h11.35.511,empathy_intonation_perc,2020.2.10,Win32,60,,,,,,,,,,1,mexican,0,0,1.608315,0,12,12,20,1,21,./stim/wavs/andalusian_match_interrogative-partial-wh_Por-que-abre-el-regalo.wav,./stim/wavs/argentine_match_interrogative-partial-wh_Por-que-abre-el-regalo.wav,./stim/wavs/castilian_match_interrogative-partial-wh_Por-que-abre-el-regalo.wav,./stim/wavs/chilean_match_interrogative-partial-wh_Por-que-abre-el-regalo.wav,./stim/wavs/cuban_match_interrogative-partial-wh_Por-que-abre-el-regalo.wav,./stim/wavs/mexican_match_interrogative-partial-wh_Por-que-abre-el-regalo.wav,./stim/wavs/peruvian_match_interrogative-partial-wh_Por-que-abre-el-regalo.wav,./stim/wavs/puertorican_match_interrogative-partial-wh_Por-que-abre-el-regalo.wav,,,,,,,,,,,,,,,,,,,,,,,,,,,,,,,,,,,,,,,,,,,,,,,,,,,,,,,,
,,,,,,,60105552a0d121342846b31a,605b45a4d25f287719a41696,605cc41669c8f13d7e3ca78b,Mexico,Northeast,13 or older,no,2021-03-25_13h11.35.511,empathy_intonation_perc,2020.2.10,Win32,60,,,,,,,,,,0,argentine,0,1,1.184245,0,13,13,8,1,9,./stim/wavs/andalusian_match_declarative-narrow-focus_Ana-lleva-el-abrigo.wav,./stim/wavs/argentine_match_declarative-narrow-focus_Ana-lleva-el-abrigo.wav,./stim/wavs/castilian_match_declarative-narrow-focus_Ana-lleva-el-abrigo.wav,./stim/wavs/chilean_match_declarative-narrow-focus_Ana-lleva-el-abrigo.wav,./stim/wavs/cuban_match_declarative-narrow-focus_Ana-lleva-el-abrigo.wav,./stim/wavs/mexican_match_declarative-narrow-focus_Ana-lleva-el-abrigo.wav,./stim/wavs/peruvian_match_declarative-narrow-focus_Ana-lleva-el-abrigo.wav,./stim/wavs/puertorican_match_declarative-narrow-focus_Ana-lleva-el-abrigo.wav,,,,,,,,,,,,,,,,,,,,,,,,,,,,,,,,,,,,,,,,,,,,,,,,,,,,,,,,
,,,,,,,60105552a0d121342846b31a,605b45a4d25f287719a41696,605cc41669c8f13d7e3ca78b,Mexico,Northeast,13 or older,no,2021-03-25_13h11.35.511,empathy_intonation_perc,2020.2.10,Win32,60,,,,,,,,,,0,peruvian,0,1,1.73741,0,14,14,46,1,47,./stim/wavs/andalusian_mismatch_declarative-narrow-focus_Mi-novio-viene-del-lago.wav,./stim/wavs/argentine_mismatch_declarative-narrow-focus_Mi-novio-viene-del-lago.wav,./stim/wavs/castilian_mismatch_declarative-narrow-focus_Mi-novio-viene-del-lago.wav,./stim/wavs/chilean_mismatch_declarative-narrow-focus_Mi-novio-viene-del-lago.wav,./stim/wavs/cuban_mismatch_declarative-narrow-focus_Mi-novio-viene-del-lago.wav,./stim/wavs/mexican_mismatch_declarative-narrow-focus_Mi-novio-viene-del-lago.wav,./stim/wavs/peruvian_mismatch_declarative-narrow-focus_Mi-novio-viene-del-lago.wav,./stim/wavs/puertorican_mismatch_declarative-narrow-focus_Mi-novio-viene-del-lago.wav,,,,,,,,,,,,,,,,,,,,,,,,,,,,,,,,,,,,,,,,,,,,,,,,,,,,,,,,
,,,,,,,60105552a0d121342846b31a,605b45a4d25f287719a41696,605cc41669c8f13d7e3ca78b,Mexico,Northeast,13 or older,no,2021-03-25_13h11.35.511,empathy_intonation_perc,2020.2.10,Win32,60,,,,,,,,,,1,argentine,0,0,2.33835,0,15,15,16,1,17,./stim/wavs/andalusian_match_interrogative-partial-wh_Cuando-bebia-el-vino.wav,./stim/wavs/argentine_match_interrogative-partial-wh_Cuando-bebia-el-vino.wav,./stim/wavs/castilian_match_interrogative-partial-wh_Cuando-bebia-el-vino.wav,./stim/wavs/chilean_match_interrogative-partial-wh_Cuando-bebia-el-vino.wav,./stim/wavs/cuban_match_interrogative-partial-wh_Cuando-bebia-el-vino.wav,./stim/wavs/mexican_match_interrogative-partial-wh_Cuando-bebia-el-vino.wav,./stim/wavs/peruvian_match_interrogative-partial-wh_Cuando-bebia-el-vino.wav,./stim/wavs/puertorican_match_interrogative-partial-wh_Cuando-bebia-el-vino.wav,,,,,,,,,,,,,,,,,,,,,,,,,,,,,,,,,,,,,,,,,,,,,,,,,,,,,,,,
,,,,,,,60105552a0d121342846b31a,605b45a4d25f287719a41696,605cc41669c8f13d7e3ca78b,Mexico,Northeast,13 or older,no,2021-03-25_13h11.35.511,empathy_intonation_perc,2020.2.10,Win32,60,,,,,,,,,,1,chilean,1,1,2.13093,0,16,16,28,1,29,./stim/wavs/andalusian_match_interrogative-total-yn_Manuela-vende-el-carro.wav,./stim/wavs/argentine_match_interrogative-total-yn_Manuela-vende-el-carro.wav,./stim/wavs/castilian_match_interrogative-total-yn_Manuela-vende-el-carro.wav,./stim/wavs/chilean_match_interrogative-total-yn_Manuela-vende-el-carro.wav,./stim/wavs/cuban_match_interrogative-total-yn_Manuela-vende-el-carro.wav,./stim/wavs/mexican_match_interrogative-total-yn_Manuela-vende-el-carro.wav,./stim/wavs/peruvian_match_interrogative-total-yn_Manuela-vende-el-carro.wav,./stim/wavs/puertorican_match_interrogative-total-yn_Manuela-vende-el-carro.wav,,,,,,,,,,,,,,,,,,,,,,,,,,,,,,,,,,,,,,,,,,,,,,,,,,,,,,,,
,,,,,,,60105552a0d121342846b31a,605b45a4d25f287719a41696,605cc41669c8f13d7e3ca78b,Mexico,Northeast,13 or older,no,2021-03-25_13h11.35.511,empathy_intonation_perc,2020.2.10,Win32,60,,,,,,,,,,0,mexican,0,1,1.42228,0,17,17,0,1,1,./stim/wavs/andalusian_match_declarative-broad-focus_Ana-lleva-el-abrigo.wav,./stim/wavs/argentine_match_declarative-broad-focus_Ana-lleva-el-abrigo.wav,./stim/wavs/castilian_match_declarative-broad-focus_Ana-lleva-el-abrigo.wav,./stim/wavs/chilean_match_declarative-broad-focus_Ana-lleva-el-abrigo.wav,./stim/wavs/cuban_match_declarative-broad-focus_Ana-lleva-el-abrigo.wav,./stim/wavs/mexican_match_declarative-broad-focus_Ana-lleva-el-abrigo.wav,./stim/wavs/peruvian_match_declarative-broad-focus_Ana-lleva-el-abrigo.wav,./stim/wavs/puertorican_match_declarative-broad-focus_Ana-lleva-el-abrigo.wav,,,,,,,,,,,,,,,,,,,,,,,,,,,,,,,,,,,,,,,,,,,,,,,,,,,,,,,,
,,,,,,,60105552a0d121342846b31a,605b45a4d25f287719a41696,605cc41669c8f13d7e3ca78b,Mexico,Northeast,13 or older,no,2021-03-25_13h11.35.511,empathy_intonation_perc,2020.2.10,Win32,60,,,,,,,,,,0,peruvian,0,1,1.94746,0,18,18,35,1,36,./stim/wavs/andalusian_mismatch_declarative-broad-focus_La-maestra-vive-en-Paris.wav,./stim/wavs/argentine_mismatch_declarative-broad-focus_La-maestra-vive-en-Paris.wav,./stim/wavs/castilian_mismatch_declarative-broad-focus_La-maestra-vive-en-Paris.wav,./stim/wavs/chilean_mismatch_declarative-broad-focus_La-maestra-vive-en-Paris.wav,./stim/wavs/cuban_mismatch_declarative-broad-focus_La-maestra-vive-en-Paris.wav,./stim/wavs/mexican_mismatch_declarative-broad-focus_La-maestra-vive-en-Paris.wav,./stim/wavs/peruvian_mismatch_declarative-broad-focus_La-maestra-vive-en-Paris.wav,./stim/wavs/puertorican_mismatch_declarative-broad-focus_La-maestra-vive-en-Paris.wav,,,,,,,,,,,,,,,,,,,,,,,,,,,,,,,,,,,,,,,,,,,,,,,,,,,,,,,,
,,,,,,,60105552a0d121342846b31a,605b45a4d25f287719a41696,605cc41669c8f13d7e3ca78b,Mexico,Northeast,13 or older,no,2021-03-25_13h11.35.511,empathy_intonation_perc,2020.2.10,Win32,60,,,,,,,,,,1,mexican,0,0,1.424865,0,19,19,60,1,61,./stim/wavs/andalusian_mismatch_interrogative-total-yn_La-nina-lava-el-plato.wav,./stim/wavs/argentine_mismatch_interrogative-total-yn_La-nina-lava-el-plato.wav,./stim/wavs/castilian_mismatch_interrogative-total-yn_La-nina-lava-el-plato.wav,./stim/wavs/chilean_mismatch_interrogative-total-yn_La-nina-lava-el-plato.wav,./stim/wavs/cuban_mismatch_interrogative-total-yn_La-nina-lava-el-plato.wav,./stim/wavs/mexican_mismatch_interrogative-total-yn_La-nina-lava-el-plato.wav,./stim/wavs/peruvian_mismatch_interrogative-total-yn_La-nina-lava-el-plato.wav,./stim/wavs/puertorican_mismatch_interrogative-total-yn_La-nina-lava-el-plato.wav,,,,,,,,,,,,,,,,,,,,,,,,,,,,,,,,,,,,,,,,,,,,,,,,,,,,,,,,
,,,,,,,60105552a0d121342846b31a,605b45a4d25f287719a41696,605cc41669c8f13d7e3ca78b,Mexico,Northeast,13 or older,no,2021-03-25_13h11.35.511,empathy_intonation_perc,2020.2.10,Win32,60,,,,,,,,,,1,castilian,1,1,1.68402,0,20,20,31,1,32,./stim/wavs/andalusian_match_interrogative-total-yn_Marta-abre-el-regalo.wav,./stim/wavs/argentine_match_interrogative-total-yn_Marta-abre-el-regalo.wav,./stim/wavs/castilian_match_interrogative-total-yn_Marta-abre-el-regalo.wav,./stim/wavs/chilean_match_interrogative-total-yn_Marta-abre-el-regalo.wav,./stim/wavs/cuban_match_interrogative-total-yn_Marta-abre-el-regalo.wav,./stim/wavs/mexican_match_interrogative-total-yn_Marta-abre-el-regalo.wav,./stim/wavs/peruvian_match_interrogative-total-yn_Marta-abre-el-regalo.wav,./stim/wavs/puertorican_match_interrogative-total-yn_Marta-abre-el-regalo.wav,,,,,,,,,,,,,,,,,,,,,,,,,,,,,,,,,,,,,,,,,,,,,,,,,,,,,,,,
,,,,,,,60105552a0d121342846b31a,605b45a4d25f287719a41696,605cc41669c8f13d7e3ca78b,Mexico,Northeast,13 or older,no,2021-03-25_13h11.35.511,empathy_intonation_perc,2020.2.10,Win32,60,,,,,,,,,,0,puertorican,0,1,1.72328,0,21,21,42,1,43,./stim/wavs/andalusian_mismatch_declarative-narrow-focus_El-nino-oye-el-rio.wav,./stim/wavs/argentine_mismatch_declarative-narrow-focus_El-nino-oye-el-rio.wav,./stim/wavs/castilian_mismatch_declarative-narrow-focus_El-nino-oye-el-rio.wav,./stim/wavs/chilean_mismatch_declarative-narrow-focus_El-nino-oye-el-rio.wav,./stim/wavs/cuban_mismatch_declarative-narrow-focus_El-nino-oye-el-rio.wav,./stim/wavs/mexican_mismatch_declarative-narrow-focus_El-nino-oye-el-rio.wav,./stim/wavs/peruvian_mismatch_declarative-narrow-focus_El-nino-oye-el-rio.wav,./stim/wavs/puertorican_mismatch_declarative-narrow-focus_El-nino-oye-el-rio.wav,,,,,,,,,,,,,,,,,,,,,,,,,,,,,,,,,,,,,,,,,,,,,,,,,,,,,,,,
,,,,,,,60105552a0d121342846b31a,605b45a4d25f287719a41696,605cc41669c8f13d7e3ca78b,Mexico,Northeast,13 or older,no,2021-03-25_13h11.35.511,empathy_intonation_perc,2020.2.10,Win32,60,,,,,,,,,,1,peruvian,1,1,1.576695,0,22,22,25,1,26,./stim/wavs/andalusian_match_interrogative-total-yn_Daniel-iba-a-Bolivia.wav,./stim/wavs/argentine_match_interrogative-total-yn_Daniel-iba-a-Bolivia.wav,./stim/wavs/castilian_match_interrogative-total-yn_Daniel-iba-a-Bolivia.wav,./stim/wavs/chilean_match_interrogative-total-yn_Daniel-iba-a-Bolivia.wav,./stim/wavs/cuban_match_interrogative-total-yn_Daniel-iba-a-Bolivia.wav,./stim/wavs/mexican_match_interrogative-total-yn_Daniel-iba-a-Bolivia.wav,./stim/wavs/peruvian_match_interrogative-total-yn_Daniel-iba-a-Bolivia.wav,./stim/wavs/puertorican_match_interrogative-total-yn_Daniel-iba-a-Bolivia.wav,,,,,,,,,,,,,,,,,,,,,,,,,,,,,,,,,,,,,,,,,,,,,,,,,,,,,,,,
,,,,,,,60105552a0d121342846b31a,605b45a4d25f287719a41696,605cc41669c8f13d7e3ca78b,Mexico,Northeast,13 or older,no,2021-03-25_13h11.35.511,empathy_intonation_perc,2020.2.10,Win32,60,,,,,,,,,,0,peruvian,0,1,1.87596,0,23,23,43,1,44,./stim/wavs/andalusian_mismatch_declarative-narrow-focus_La-maestra-vive-en-Paris.wav,./stim/wavs/argentine_mismatch_declarative-narrow-focus_La-maestra-vive-en-Paris.wav,./stim/wavs/castilian_mismatch_declarative-narrow-focus_La-maestra-vive-en-Paris.wav,./stim/wavs/chilean_mismatch_declarative-narrow-focus_La-maestra-vive-en-Paris.wav,./stim/wavs/cuban_mismatch_declarative-narrow-focus_La-maestra-vive-en-Paris.wav,./stim/wavs/mexican_mismatch_declarative-narrow-focus_La-maestra-vive-en-Paris.wav,./stim/wavs/peruvian_mismatch_declarative-narrow-focus_La-maestra-vive-en-Paris.wav,./stim/wavs/puertorican_mismatch_declarative-narrow-focus_La-maestra-vive-en-Paris.wav,,,,,,,,,,,,,,,,,,,,,,,,,,,,,,,,,,,,,,,,,,,,,,,,,,,,,,,,
,,,,,,,60105552a0d121342846b31a,605b45a4d25f287719a41696,605cc41669c8f13d7e3ca78b,Mexico,Northeast,13 or older,no,2021-03-25_13h11.35.511,empathy_intonation_perc,2020.2.10,Win32,60,,,,,,,,,,0,peruvian,0,1,1.914495,0,24,24,39,1,40,./stim/wavs/andalusian_mismatch_declarative-broad-focus_Mi-tia-odia-la-lluvia.wav,./stim/wavs/argentine_mismatch_declarative-broad-focus_Mi-tia-odia-la-lluvia.wav,./stim/wavs/castilian_mismatch_declarative-broad-focus_Mi-tia-odia-la-lluvia.wav,./stim/wavs/chilean_mismatch_declarative-broad-focus_Mi-tia-odia-la-lluvia.wav,./stim/wavs/cuban_mismatch_declarative-broad-focus_Mi-tia-odia-la-lluvia.wav,./stim/wavs/mexican_mismatch_declarative-broad-focus_Mi-tia-odia-la-lluvia.wav,./stim/wavs/peruvian_mismatch_declarative-broad-focus_Mi-tia-odia-la-lluvia.wav,./stim/wavs/puertorican_mismatch_declarative-broad-focus_Mi-tia-odia-la-lluvia.wav,,,,,,,,,,,,,,,,,,,,,,,,,,,,,,,,,,,,,,,,,,,,,,,,,,,,,,,,
,,,,,,,60105552a0d121342846b31a,605b45a4d25f287719a41696,605cc41669c8f13d7e3ca78b,Mexico,Northeast,13 or older,no,2021-03-25_13h11.35.511,empathy_intonation_perc,2020.2.10,Win32,60,,,,,,,,,,0,mexican,0,1,1.676685,0,25,25,45,1,46,./stim/wavs/andalusian_mismatch_declarative-narrow-focus_Mi-madre-come-la-fruta.wav,./stim/wavs/argentine_mismatch_declarative-narrow-focus_Mi-madre-come-la-fruta.wav,./stim/wavs/castilian_mismatch_declarative-narrow-focus_Mi-madre-come-la-fruta.wav,./stim/wavs/chilean_mismatch_declarative-narrow-focus_Mi-madre-come-la-fruta.wav,./stim/wavs/cuban_mismatch_declarative-narrow-focus_Mi-madre-come-la-fruta.wav,./stim/wavs/mexican_mismatch_declarative-narrow-focus_Mi-madre-come-la-fruta.wav,./stim/wavs/peruvian_mismatch_declarative-narrow-focus_Mi-madre-come-la-fruta.wav,./stim/wavs/puertorican_mismatch_declarative-narrow-focus_Mi-madre-come-la-fruta.wav,,,,,,,,,,,,,,,,,,,,,,,,,,,,,,,,,,,,,,,,,,,,,,,,,,,,,,,,
,,,,,,,60105552a0d121342846b31a,605b45a4d25f287719a41696,605cc41669c8f13d7e3ca78b,Mexico,Northeast,13 or older,no,2021-03-25_13h11.35.511,empathy_intonation_perc,2020.2.10,Win32,60,,,,,,,,,,1,andalusian,1,1,1.4315,0,26,26,61,1,62,./stim/wavs/andalusian_mismatch_interrogative-total-yn_Mi-madre-come-la-fruta.wav,./stim/wavs/argentine_mismatch_interrogative-total-yn_Mi-madre-come-la-fruta.wav,./stim/wavs/castilian_mismatch_interrogative-total-yn_Mi-madre-come-la-fruta.wav,./stim/wavs/chilean_mismatch_interrogative-total-yn_Mi-madre-come-la-fruta.wav,./stim/wavs/cuban_mismatch_interrogative-total-yn_Mi-madre-come-la-fruta.wav,./stim/wavs/mexican_mismatch_interrogative-total-yn_Mi-madre-come-la-fruta.wav,./stim/wavs/peruvian_mismatch_interrogative-total-yn_Mi-madre-come-la-fruta.wav,./stim/wavs/puertorican_mismatch_interrogative-total-yn_Mi-madre-come-la-fruta.wav,,,,,,,,,,,,,,,,,,,,,,,,,,,,,,,,,,,,,,,,,,,,,,,,,,,,,,,,
,,,,,,,60105552a0d121342846b31a,605b45a4d25f287719a41696,605cc41669c8f13d7e3ca78b,Mexico,Northeast,13 or older,no,2021-03-25_13h11.35.511,empathy_intonation_perc,2020.2.10,Win32,60,,,,,,,,,,1,castilian,1,1,1.654985,0,27,27,17,1,18,./stim/wavs/andalusian_match_interrogative-partial-wh_Cuando-leia-el-libro.wav,./stim/wavs/argentine_match_interrogative-partial-wh_Cuando-leia-el-libro.wav,./stim/wavs/castilian_match_interrogative-partial-wh_Cuando-leia-el-libro.wav,./stim/wavs/chilean_match_interrogative-partial-wh_Cuando-leia-el-libro.wav,./stim/wavs/cuban_match_interrogative-partial-wh_Cuando-leia-el-libro.wav,./stim/wavs/mexican_match_interrogative-partial-wh_Cuando-leia-el-libro.wav,./stim/wavs/peruvian_match_interrogative-partial-wh_Cuando-leia-el-libro.wav,./stim/wavs/puertorican_match_interrogative-partial-wh_Cuando-leia-el-libro.wav,,,,,,,,,,,,,,,,,,,,,,,,,,,,,,,,,,,,,,,,,,,,,,,,,,,,,,,,
,,,,,,,60105552a0d121342846b31a,605b45a4d25f287719a41696,605cc41669c8f13d7e3ca78b,Mexico,Northeast,13 or older,no,2021-03-25_13h11.35.511,empathy_intonation_perc,2020.2.10,Win32,60,,,,,,,,,,0,argentine,0,1,1.332985,0,28,28,41,1,42,./stim/wavs/andalusian_mismatch_declarative-narrow-focus_El-hombre-mira-la-luna.wav,./stim/wavs/argentine_mismatch_declarative-narrow-focus_El-hombre-mira-la-luna.wav,./stim/wavs/castilian_mismatch_declarative-narrow-focus_El-hombre-mira-la-luna.wav,./stim/wavs/chilean_mismatch_declarative-narrow-focus_El-hombre-mira-la-luna.wav,./stim/wavs/cuban_mismatch_declarative-narrow-focus_El-hombre-mira-la-luna.wav,./stim/wavs/mexican_mismatch_declarative-narrow-focus_El-hombre-mira-la-luna.wav,./stim/wavs/peruvian_mismatch_declarative-narrow-focus_El-hombre-mira-la-luna.wav,./stim/wavs/puertorican_mismatch_declarative-narrow-focus_El-hombre-mira-la-luna.wav,,,,,,,,,,,,,,,,,,,,,,,,,,,,,,,,,,,,,,,,,,,,,,,,,,,,,,,,
,,,,,,,60105552a0d121342846b31a,605b45a4d25f287719a41696,605cc41669c8f13d7e3ca78b,Mexico,Northeast,13 or older,no,2021-03-25_13h11.35.511,empathy_intonation_perc,2020.2.10,Win32,60,,,,,,,,,,1,mexican,0,0,1.599275,0,29,29,51,1,52,./stim/wavs/andalusian_mismatch_interrogative-partial-wh_Por-que-desayuna-muy-bien.wav,./stim/wavs/argentine_mismatch_interrogative-partial-wh_Por-que-desayuna-muy-bien.wav,./stim/wavs/castilian_mismatch_interrogative-partial-wh_Por-que-desayuna-muy-bien.wav,./stim/wavs/chilean_mismatch_interrogative-partial-wh_Por-que-desayuna-muy-bien.wav,./stim/wavs/cuban_mismatch_interrogative-partial-wh_Por-que-desayuna-muy-bien.wav,./stim/wavs/mexican_mismatch_interrogative-partial-wh_Por-que-desayuna-muy-bien.wav,./stim/wavs/peruvian_mismatch_interrogative-partial-wh_Por-que-desayuna-muy-bien.wav,./stim/wavs/puertorican_mismatch_interrogative-partial-wh_Por-que-desayuna-muy-bien.wav,,,,,,,,,,,,,,,,,,,,,,,,,,,,,,,,,,,,,,,,,,,,,,,,,,,,,,,,
,,,,,,,60105552a0d121342846b31a,605b45a4d25f287719a41696,605cc41669c8f13d7e3ca78b,Mexico,Northeast,13 or older,no,2021-03-25_13h11.35.511,empathy_intonation_perc,2020.2.10,Win32,60,,,,,,,,,,1,mexican,0,0,1.58352,0,30,30,22,1,23,./stim/wavs/andalusian_match_interrogative-partial-wh_Por-que-hablaba-del-agua.wav,./stim/wavs/argentine_match_interrogative-partial-wh_Por-que-hablaba-del-agua.wav,./stim/wavs/castilian_match_interrogative-partial-wh_Por-que-hablaba-del-agua.wav,./stim/wavs/chilean_match_interrogative-partial-wh_Por-que-hablaba-del-agua.wav,./stim/wavs/cuban_match_interrogative-partial-wh_Por-que-hablaba-del-agua.wav,./stim/wavs/mexican_match_interrogative-partial-wh_Por-que-hablaba-del-agua.wav,./stim/wavs/peruvian_match_interrogative-partial-wh_Por-que-hablaba-del-agua.wav,./stim/wavs/puertorican_match_interrogative-partial-wh_Por-que-hablaba-del-agua.wav,,,,,,,,,,,,,,,,,,,,,,,,,,,,,,,,,,,,,,,,,,,,,,,,,,,,,,,,
,,,,,,,60105552a0d121342846b31a,605b45a4d25f287719a41696,605cc41669c8f13d7e3ca78b,Mexico,Northeast,13 or older,no,2021-03-25_13h11.35.511,empathy_intonation_perc,2020.2.10,Win32,60,,,,,,,,,,1,puertorican,1,1,1.28333,0,31,31,53,1,54,./stim/wavs/andalusian_mismatch_interrogative-partial-wh_Por-que-oia-el-rio.wav,./stim/wavs/argentine_mismatch_interrogative-partial-wh_Por-que-oia-el-rio.wav,./stim/wavs/castilian_mismatch_interrogative-partial-wh_Por-que-oia-el-rio.wav,./stim/wavs/chilean_mismatch_interrogative-partial-wh_Por-que-oia-el-rio.wav,./stim/wavs/cuban_mismatch_interrogative-partial-wh_Por-que-oia-el-rio.wav,./stim/wavs/mexican_mismatch_interrogative-partial-wh_Por-que-oia-el-rio.wav,./stim/wavs/peruvian_mismatch_interrogative-partial-wh_Por-que-oia-el-rio.wav,./stim/wavs/puertorican_mismatch_interrogative-partial-wh_Por-que-oia-el-rio.wav,,,,,,,,,,,,,,,,,,,,,,,,,,,,,,,,,,,,,,,,,,,,,,,,,,,,,,,,
,,,,,,,60105552a0d121342846b31a,605b45a4d25f287719a41696,605cc41669c8f13d7e3ca78b,Mexico,Northeast,13 or older,no,2021-03-25_13h11.35.511,empathy_intonation_perc,2020.2.10,Win32,60,,,,,,,,,,1,chilean,1,1,1.35107,0,32,32,18,1,19,./stim/wavs/andalusian_match_interrogative-partial-wh_Cuando-lleva-el-abrigo.wav,./stim/wavs/argentine_match_interrogative-partial-wh_Cuando-lleva-el-abrigo.wav,./stim/wavs/castilian_match_interrogative-partial-wh_Cuando-lleva-el-abrigo.wav,./stim/wavs/chilean_match_interrogative-partial-wh_Cuando-lleva-el-abrigo.wav,./stim/wavs/cuban_match_interrogative-partial-wh_Cuando-lleva-el-abrigo.wav,./stim/wavs/mexican_match_interrogative-partial-wh_Cuando-lleva-el-abrigo.wav,./stim/wavs/peruvian_match_interrogative-partial-wh_Cuando-lleva-el-abrigo.wav,./stim/wavs/puertorican_match_interrogative-partial-wh_Cuando-lleva-el-abrigo.wav,,,,,,,,,,,,,,,,,,,,,,,,,,,,,,,,,,,,,,,,,,,,,,,,,,,,,,,,
,,,,,,,60105552a0d121342846b31a,605b45a4d25f287719a41696,605cc41669c8f13d7e3ca78b,Mexico,Northeast,13 or older,no,2021-03-25_13h11.35.511,empathy_intonation_perc,2020.2.10,Win32,60,,,,,,,,,,1,peruvian,0,0,1.53177,0,33,33,23,1,24,./stim/wavs/andalusian_match_interrogative-partial-wh_Por-que-iba-a-Bolivia.wav,./stim/wavs/argentine_match_interrogative-partial-wh_Por-que-iba-a-Bolivia.wav,./stim/wavs/castilian_match_interrogative-partial-wh_Por-que-iba-a-Bolivia.wav,./stim/wavs/chilean_match_interrogative-partial-wh_Por-que-iba-a-Bolivia.wav,./stim/wavs/cuban_match_interrogative-partial-wh_Por-que-iba-a-Bolivia.wav,./stim/wavs/mexican_match_interrogative-partial-wh_Por-que-iba-a-Bolivia.wav,./stim/wavs/peruvian_match_interrogative-partial-wh_Por-que-iba-a-Bolivia.wav,./stim/wavs/puertorican_match_interrogative-partial-wh_Por-que-iba-a-Bolivia.wav,,,,,,,,,,,,,,,,,,,,,,,,,,,,,,,,,,,,,,,,,,,,,,,,,,,,,,,,
,,,,,,,60105552a0d121342846b31a,605b45a4d25f287719a41696,605cc41669c8f13d7e3ca78b,Mexico,Northeast,13 or older,no,2021-03-25_13h11.35.511,empathy_intonation_perc,2020.2.10,Win32,60,,,,,,,,,,1,cuban,1,1,1.36061,0,34,34,19,1,20,./stim/wavs/andalusian_match_interrogative-partial-wh_Cuando-vendia-el-carro.wav,./stim/wavs/argentine_match_interrogative-partial-wh_Cuando-vendia-el-carro.wav,./stim/wavs/castilian_match_interrogative-partial-wh_Cuando-vendia-el-carro.wav,./stim/wavs/chilean_match_interrogative-partial-wh_Cuando-vendia-el-carro.wav,./stim/wavs/cuban_match_interrogative-partial-wh_Cuando-vendia-el-carro.wav,./stim/wavs/mexican_match_interrogative-partial-wh_Cuando-vendia-el-carro.wav,./stim/wavs/peruvian_match_interrogative-partial-wh_Cuando-vendia-el-carro.wav,./stim/wavs/puertorican_match_interrogative-partial-wh_Cuando-vendia-el-carro.wav,,,,,,,,,,,,,,,,,,,,,,,,,,,,,,,,,,,,,,,,,,,,,,,,,,,,,,,,
,,,,,,,60105552a0d121342846b31a,605b45a4d25f287719a41696,605cc41669c8f13d7e3ca78b,Mexico,Northeast,13 or older,no,2021-03-25_13h11.35.511,empathy_intonation_perc,2020.2.10,Win32,60,,,,,,,,,,0,peruvian,0,1,1.75964,0,35,35,38,1,39,./stim/wavs/andalusian_mismatch_declarative-broad-focus_Mi-novio-viene-del-lago.wav,./stim/wavs/argentine_mismatch_declarative-broad-focus_Mi-novio-viene-del-lago.wav,./stim/wavs/castilian_mismatch_declarative-broad-focus_Mi-novio-viene-del-lago.wav,./stim/wavs/chilean_mismatch_declarative-broad-focus_Mi-novio-viene-del-lago.wav,./stim/wavs/cuban_mismatch_declarative-broad-focus_Mi-novio-viene-del-lago.wav,./stim/wavs/mexican_mismatch_declarative-broad-focus_Mi-novio-viene-del-lago.wav,./stim/wavs/peruvian_mismatch_declarative-broad-focus_Mi-novio-viene-del-lago.wav,./stim/wavs/puertorican_mismatch_declarative-broad-focus_Mi-novio-viene-del-lago.wav,,,,,,,,,,,,,,,,,,,,,,,,,,,,,,,,,,,,,,,,,,,,,,,,,,,,,,,,
,,,,,,,60105552a0d121342846b31a,605b45a4d25f287719a41696,605cc41669c8f13d7e3ca78b,Mexico,Northeast,13 or older,no,2021-03-25_13h11.35.511,empathy_intonation_perc,2020.2.10,Win32,60,,,,,,,,,,1,cuban,0,0,1.7016,0,36,36,26,1,27,./stim/wavs/andalusian_match_interrogative-total-yn_David-leia-el-libro.wav,./stim/wavs/argentine_match_interrogative-total-yn_David-leia-el-libro.wav,./stim/wavs/castilian_match_interrogative-total-yn_David-leia-el-libro.wav,./stim/wavs/chilean_match_interrogative-total-yn_David-leia-el-libro.wav,./stim/wavs/cuban_match_interrogative-total-yn_David-leia-el-libro.wav,./stim/wavs/mexican_match_interrogative-total-yn_David-leia-el-libro.wav,./stim/wavs/peruvian_match_interrogative-total-yn_David-leia-el-libro.wav,./stim/wavs/puertorican_match_interrogative-total-yn_David-leia-el-libro.wav,,,,,,,,,,,,,,,,,,,,,,,,,,,,,,,,,,,,,,,,,,,,,,,,,,,,,,,,
,,,,,,,60105552a0d121342846b31a,605b45a4d25f287719a41696,605cc41669c8f13d7e3ca78b,Mexico,Northeast,13 or older,no,2021-03-25_13h11.35.511,empathy_intonation_perc,2020.2.10,Win32,60,,,,,,,,,,0,castilian,0,1,1.641755,0,37,37,34,1,35,./stim/wavs/andalusian_mismatch_declarative-broad-focus_El-nino-oye-el-rio.wav,./stim/wavs/argentine_mismatch_declarative-broad-focus_El-nino-oye-el-rio.wav,./stim/wavs/castilian_mismatch_declarative-broad-focus_El-nino-oye-el-rio.wav,./stim/wavs/chilean_mismatch_declarative-broad-focus_El-nino-oye-el-rio.wav,./stim/wavs/cuban_mismatch_declarative-broad-focus_El-nino-oye-el-rio.wav,./stim/wavs/mexican_mismatch_declarative-broad-focus_El-nino-oye-el-rio.wav,./stim/wavs/peruvian_mismatch_declarative-broad-focus_El-nino-oye-el-rio.wav,./stim/wavs/puertorican_mismatch_declarative-broad-focus_El-nino-oye-el-rio.wav,,,,,,,,,,,,,,,,,,,,,,,,,,,,,,,,,,,,,,,,,,,,,,,,,,,,,,,,
,,,,,,,60105552a0d121342846b31a,605b45a4d25f287719a41696,605cc41669c8f13d7e3ca78b,Mexico,Northeast,13 or older,no,2021-03-25_13h11.35.511,empathy_intonation_perc,2020.2.10,Win32,60,,,,,,,,,,1,andalusian,1,1,1.451435,0,38,38,27,1,28,./stim/wavs/andalusian_match_interrogative-total-yn_Emilio-ama-la-marcha.wav,./stim/wavs/argentine_match_interrogative-total-yn_Emilio-ama-la-marcha.wav,./stim/wavs/castilian_match_interrogative-total-yn_Emilio-ama-la-marcha.wav,./stim/wavs/chilean_match_interrogative-total-yn_Emilio-ama-la-marcha.wav,./stim/wavs/cuban_match_interrogative-total-yn_Emilio-ama-la-marcha.wav,./stim/wavs/mexican_match_interrogative-total-yn_Emilio-ama-la-marcha.wav,./stim/wavs/peruvian_match_interrogative-total-yn_Emilio-ama-la-marcha.wav,./stim/wavs/puertorican_match_interrogative-total-yn_Emilio-ama-la-marcha.wav,,,,,,,,,,,,,,,,,,,,,,,,,,,,,,,,,,,,,,,,,,,,,,,,,,,,,,,,
,,,,,,,60105552a0d121342846b31a,605b45a4d25f287719a41696,605cc41669c8f13d7e3ca78b,Mexico,Northeast,13 or older,no,2021-03-25_13h11.35.511,empathy_intonation_perc,2020.2.10,Win32,60,,,,,,,,,,0,chilean,0,1,1.39919,0,39,39,7,1,8,./stim/wavs/andalusian_match_declarative-broad-focus_Marta-abre-el-regalo.wav,./stim/wavs/argentine_match_declarative-broad-focus_Marta-abre-el-regalo.wav,./stim/wavs/castilian_match_declarative-broad-focus_Marta-abre-el-regalo.wav,./stim/wavs/chilean_match_declarative-broad-focus_Marta-abre-el-regalo.wav,./stim/wavs/cuban_match_declarative-broad-focus_Marta-abre-el-regalo.wav,./stim/wavs/mexican_match_declarative-broad-focus_Marta-abre-el-regalo.wav,./stim/wavs/peruvian_match_declarative-broad-focus_Marta-abre-el-regalo.wav,./stim/wavs/puertorican_match_declarative-broad-focus_Marta-abre-el-regalo.wav,,,,,,,,,,,,,,,,,,,,,,,,,,,,,,,,,,,,,,,,,,,,,,,,,,,,,,,,
,,,,,,,60105552a0d121342846b31a,605b45a4d25f287719a41696,605cc41669c8f13d7e3ca78b,Mexico,Northeast,13 or older,no,2021-03-25_13h11.35.511,empathy_intonation_perc,2020.2.10,Win32,60,,,,,,,,,,1,mexican,0,0,1.20095,0,40,40,54,1,55,./stim/wavs/andalusian_mismatch_interrogative-partial-wh_Por-que-venia-del-lago.wav,./stim/wavs/argentine_mismatch_interrogative-partial-wh_Por-que-venia-del-lago.wav,./stim/wavs/castilian_mismatch_interrogative-partial-wh_Por-que-venia-del-lago.wav,./stim/wavs/chilean_mismatch_interrogative-partial-wh_Por-que-venia-del-lago.wav,./stim/wavs/cuban_mismatch_interrogative-partial-wh_Por-que-venia-del-lago.wav,./stim/wavs/mexican_mismatch_interrogative-partial-wh_Por-que-venia-del-lago.wav,./stim/wavs/peruvian_mismatch_interrogative-partial-wh_Por-que-venia-del-lago.wav,./stim/wavs/puertorican_mismatch_interrogative-partial-wh_Por-que-venia-del-lago.wav,,,,,,,,,,,,,,,,,,,,,,,,,,,,,,,,,,,,,,,,,,,,,,,,,,,,,,,,
,,,,,,,60105552a0d121342846b31a,605b45a4d25f287719a41696,605cc41669c8f13d7e3ca78b,Mexico,Northeast,13 or older,no,2021-03-25_13h11.35.511,empathy_intonation_perc,2020.2.10,Win32,60,,,,,,,,,,0,andalusian,0,1,1.50145,0,41,41,2,1,3,./stim/wavs/andalusian_match_declarative-broad-focus_David-leia-el-libro.wav,./stim/wavs/argentine_match_declarative-broad-focus_David-leia-el-libro.wav,./stim/wavs/castilian_match_declarative-broad-focus_David-leia-el-libro.wav,./stim/wavs/chilean_match_declarative-broad-focus_David-leia-el-libro.wav,./stim/wavs/cuban_match_declarative-broad-focus_David-leia-el-libro.wav,./stim/wavs/mexican_match_declarative-broad-focus_David-leia-el-libro.wav,./stim/wavs/peruvian_match_declarative-broad-focus_David-leia-el-libro.wav,./stim/wavs/puertorican_match_declarative-broad-focus_David-leia-el-libro.wav,,,,,,,,,,,,,,,,,,,,,,,,,,,,,,,,,,,,,,,,,,,,,,,,,,,,,,,,
,,,,,,,60105552a0d121342846b31a,605b45a4d25f287719a41696,605cc41669c8f13d7e3ca78b,Mexico,Northeast,13 or older,no,2021-03-25_13h11.35.511,empathy_intonation_perc,2020.2.10,Win32,60,,,,,,,,,,0,cuban,0,1,1.29537,0,42,42,14,1,15,./stim/wavs/andalusian_match_declarative-narrow-focus_Mariano-habla-del-tiempo.wav,./stim/wavs/argentine_match_declarative-narrow-focus_Mariano-habla-del-tiempo.wav,./stim/wavs/castilian_match_declarative-narrow-focus_Mariano-habla-del-tiempo.wav,./stim/wavs/chilean_match_declarative-narrow-focus_Mariano-habla-del-tiempo.wav,./stim/wavs/cuban_match_declarative-narrow-focus_Mariano-habla-del-tiempo.wav,./stim/wavs/mexican_match_declarative-narrow-focus_Mariano-habla-del-tiempo.wav,./stim/wavs/peruvian_match_declarative-narrow-focus_Mariano-habla-del-tiempo.wav,./stim/wavs/puertorican_match_declarative-narrow-focus_Mariano-habla-del-tiempo.wav,,,,,,,,,,,,,,,,,,,,,,,,,,,,,,,,,,,,,,,,,,,,,,,,,,,,,,,,
,,,,,,,60105552a0d121342846b31a,605b45a4d25f287719a41696,605cc41669c8f13d7e3ca78b,Mexico,Northeast,13 or older,no,2021-03-25_13h11.35.511,empathy_intonation_perc,2020.2.10,Win32,60,,,,,,,,,,0,peruvian,0,1,1.64987,0,43,43,3,1,4,./stim/wavs/andalusian_match_declarative-broad-focus_Emilio-ama-la-marcha.wav,./stim/wavs/argentine_match_declarative-broad-focus_Emilio-ama-la-marcha.wav,./stim/wavs/castilian_match_declarative-broad-focus_Emilio-ama-la-marcha.wav,./stim/wavs/chilean_match_declarative-broad-focus_Emilio-ama-la-marcha.wav,./stim/wavs/cuban_match_declarative-broad-focus_Emilio-ama-la-marcha.wav,./stim/wavs/mexican_match_declarative-broad-focus_Emilio-ama-la-marcha.wav,./stim/wavs/peruvian_match_declarative-broad-focus_Emilio-ama-la-marcha.wav,./stim/wavs/puertorican_match_declarative-broad-focus_Emilio-ama-la-marcha.wav,,,,,,,,,,,,,,,,,,,,,,,,,,,,,,,,,,,,,,,,,,,,,,,,,,,,,,,,
,,,,,,,60105552a0d121342846b31a,605b45a4d25f287719a41696,605cc41669c8f13d7e3ca78b,Mexico,Northeast,13 or older,no,2021-03-25_13h11.35.511,empathy_intonation_perc,2020.2.10,Win32,60,,,,,,,,,,0,andalusian,0,1,1.575635,0,44,44,6,1,7,./stim/wavs/andalusian_match_declarative-broad-focus_Mariano-habla-del-tiempo.wav,./stim/wavs/argentine_match_declarative-broad-focus_Mariano-habla-del-tiempo.wav,./stim/wavs/castilian_match_declarative-broad-focus_Mariano-habla-del-tiempo.wav,./stim/wavs/chilean_match_declarative-broad-focus_Mariano-habla-del-tiempo.wav,./stim/wavs/cuban_match_declarative-broad-focus_Mariano-habla-del-tiempo.wav,./stim/wavs/mexican_match_declarative-broad-focus_Mariano-habla-del-tiempo.wav,./stim/wavs/peruvian_match_declarative-broad-focus_Mariano-habla-del-tiempo.wav,./stim/wavs/puertorican_match_declarative-broad-focus_Mariano-habla-del-tiempo.wav,,,,,,,,,,,,,,,,,,,,,,,,,,,,,,,,,,,,,,,,,,,,,,,,,,,,,,,,
,,,,,,,60105552a0d121342846b31a,605b45a4d25f287719a41696,605cc41669c8f13d7e3ca78b,Mexico,Northeast,13 or older,no,2021-03-25_13h11.35.511,empathy_intonation_perc,2020.2.10,Win32,60,,,,,,,,,,1,peruvian,1,1,1.667855,0,45,45,48,1,49,./stim/wavs/andalusian_mismatch_interrogative-partial-wh_Cuando-comia-la-fruta.wav,./stim/wavs/argentine_mismatch_interrogative-partial-wh_Cuando-comia-la-fruta.wav,./stim/wavs/castilian_mismatch_interrogative-partial-wh_Cuando-comia-la-fruta.wav,./stim/wavs/chilean_mismatch_interrogative-partial-wh_Cuando-comia-la-fruta.wav,./stim/wavs/cuban_mismatch_interrogative-partial-wh_Cuando-comia-la-fruta.wav,./stim/wavs/mexican_mismatch_interrogative-partial-wh_Cuando-comia-la-fruta.wav,./stim/wavs/peruvian_mismatch_interrogative-partial-wh_Cuando-comia-la-fruta.wav,./stim/wavs/puertorican_mismatch_interrogative-partial-wh_Cuando-comia-la-fruta.wav,,,,,,,,,,,,,,,,,,,,,,,,,,,,,,,,,,,,,,,,,,,,,,,,,,,,,,,,
,,,,,,,60105552a0d121342846b31a,605b45a4d25f287719a41696,605cc41669c8f13d7e3ca78b,Mexico,Northeast,13 or older,no,2021-03-25_13h11.35.511,empathy_intonation_perc,2020.2.10,Win32,60,,,,,,,,,,0,puertorican,0,1,1.36158,0,46,46,44,1,45,./stim/wavs/andalusian_mismatch_declarative-narrow-focus_La-nina-lava-el-plato.wav,./stim/wavs/argentine_mismatch_declarative-narrow-focus_La-nina-lava-el-plato.wav,./stim/wavs/castilian_mismatch_declarative-narrow-focus_La-nina-lava-el-plato.wav,./stim/wavs/chilean_mismatch_declarative-narrow-focus_La-nina-lava-el-plato.wav,./stim/wavs/cuban_mismatch_declarative-narrow-focus_La-nina-lava-el-plato.wav,./stim/wavs/mexican_mismatch_declarative-narrow-focus_La-nina-lava-el-plato.wav,./stim/wavs/peruvian_mismatch_declarative-narrow-focus_La-nina-lava-el-plato.wav,./stim/wavs/puertorican_mismatch_declarative-narrow-focus_La-nina-lava-el-plato.wav,,,,,,,,,,,,,,,,,,,,,,,,,,,,,,,,,,,,,,,,,,,,,,,,,,,,,,,,
,,,,,,,60105552a0d121342846b31a,605b45a4d25f287719a41696,605cc41669c8f13d7e3ca78b,Mexico,Northeast,13 or older,no,2021-03-25_13h11.35.511,empathy_intonation_perc,2020.2.10,Win32,60,,,,,,,,,,0,argentine,0,1,1.61389,0,47,47,37,1,38,./stim/wavs/andalusian_mismatch_declarative-broad-focus_Mi-madre-come-la-fruta.wav,./stim/wavs/argentine_mismatch_declarative-broad-focus_Mi-madre-come-la-fruta.wav,./stim/wavs/castilian_mismatch_declarative-broad-focus_Mi-madre-come-la-fruta.wav,./stim/wavs/chilean_mismatch_declarative-broad-focus_Mi-madre-come-la-fruta.wav,./stim/wavs/cuban_mismatch_declarative-broad-focus_Mi-madre-come-la-fruta.wav,./stim/wavs/mexican_mismatch_declarative-broad-focus_Mi-madre-come-la-fruta.wav,./stim/wavs/peruvian_mismatch_declarative-broad-focus_Mi-madre-come-la-fruta.wav,./stim/wavs/puertorican_mismatch_declarative-broad-focus_Mi-madre-come-la-fruta.wav,,,,,,,,,,,,,,,,,,,,,,,,,,,,,,,,,,,,,,,,,,,,,,,,,,,,,,,,
,,,,,,,60105552a0d121342846b31a,605b45a4d25f287719a41696,605cc41669c8f13d7e3ca78b,Mexico,Northeast,13 or older,no,2021-03-25_13h11.35.511,empathy_intonation_perc,2020.2.10,Win32,60,,,,,,,,,,1,argentine,1,1,1.10066,0,48,48,49,1,50,./stim/wavs/andalusian_mismatch_interrogative-partial-wh_Cuando-lavaba-el-plato.wav,./stim/wavs/argentine_mismatch_interrogative-partial-wh_Cuando-lavaba-el-plato.wav,./stim/wavs/castilian_mismatch_interrogative-partial-wh_Cuando-lavaba-el-plato.wav,./stim/wavs/chilean_mismatch_interrogative-partial-wh_Cuando-lavaba-el-plato.wav,./stim/wavs/cuban_mismatch_interrogative-partial-wh_Cuando-lavaba-el-plato.wav,./stim/wavs/mexican_mismatch_interrogative-partial-wh_Cuando-lavaba-el-plato.wav,./stim/wavs/peruvian_mismatch_interrogative-partial-wh_Cuando-lavaba-el-plato.wav,./stim/wavs/puertorican_mismatch_interrogative-partial-wh_Cuando-lavaba-el-plato.wav,,,,,,,,,,,,,,,,,,,,,,,,,,,,,,,,,,,,,,,,,,,,,,,,,,,,,,,,
,,,,,,,60105552a0d121342846b31a,605b45a4d25f287719a41696,605cc41669c8f13d7e3ca78b,Mexico,Northeast,13 or older,no,2021-03-25_13h11.35.511,empathy_intonation_perc,2020.2.10,Win32,60,,,,,,,,,,0,peruvian,0,1,1.492705,0,49,49,10,1,11,./stim/wavs/andalusian_match_declarative-narrow-focus_David-leia-el-libro.wav,./stim/wavs/argentine_match_declarative-narrow-focus_David-leia-el-libro.wav,./stim/wavs/castilian_match_declarative-narrow-focus_David-leia-el-libro.wav,./stim/wavs/chilean_match_declarative-narrow-focus_David-leia-el-libro.wav,./stim/wavs/cuban_match_declarative-narrow-focus_David-leia-el-libro.wav,./stim/wavs/mexican_match_declarative-narrow-focus_David-leia-el-libro.wav,./stim/wavs/peruvian_match_declarative-narrow-focus_David-leia-el-libro.wav,./stim/wavs/puertorican_match_declarative-narrow-focus_David-leia-el-libro.wav,,,,,,,,,,,,,,,,,,,,,,,,,,,,,,,,,,,,,,,,,,,,,,,,,,,,,,,,
,,,,,,,60105552a0d121342846b31a,605b45a4d25f287719a41696,605cc41669c8f13d7e3ca78b,Mexico,Northeast,13 or older,no,2021-03-25_13h11.35.511,empathy_intonation_perc,2020.2.10,Win32,60,,,,,,,,,,0,argentine,0,1,1.65058,0,50,50,12,1,13,./stim/wavs/andalusian_match_declarative-narrow-focus_Manuela-vende-el-carro.wav,./stim/wavs/argentine_match_declarative-narrow-focus_Manuela-vende-el-carro.wav,./stim/wavs/castilian_match_declarative-narrow-focus_Manuela-vende-el-carro.wav,./stim/wavs/chilean_match_declarative-narrow-focus_Manuela-vende-el-carro.wav,./stim/wavs/cuban_match_declarative-narrow-focus_Manuela-vende-el-carro.wav,./stim/wavs/mexican_match_declarative-narrow-focus_Manuela-vende-el-carro.wav,./stim/wavs/peruvian_match_declarative-narrow-focus_Manuela-vende-el-carro.wav,./stim/wavs/puertorican_match_declarative-narrow-focus_Manuela-vende-el-carro.wav,,,,,,,,,,,,,,,,,,,,,,,,,,,,,,,,,,,,,,,,,,,,,,,,,,,,,,,,
,,,,,,,60105552a0d121342846b31a,605b45a4d25f287719a41696,605cc41669c8f13d7e3ca78b,Mexico,Northeast,13 or older,no,2021-03-25_13h11.35.511,empathy_intonation_perc,2020.2.10,Win32,60,,,,,,,,,,1,cuban,1,1,1.382755,0,51,51,52,1,53,./stim/wavs/andalusian_mismatch_interrogative-partial-wh_Por-que-odiaba-la-lluvia.wav,./stim/wavs/argentine_mismatch_interrogative-partial-wh_Por-que-odiaba-la-lluvia.wav,./stim/wavs/castilian_mismatch_interrogative-partial-wh_Por-que-odiaba-la-lluvia.wav,./stim/wavs/chilean_mismatch_interrogative-partial-wh_Por-que-odiaba-la-lluvia.wav,./stim/wavs/cuban_mismatch_interrogative-partial-wh_Por-que-odiaba-la-lluvia.wav,./stim/wavs/mexican_mismatch_interrogative-partial-wh_Por-que-odiaba-la-lluvia.wav,./stim/wavs/peruvian_mismatch_interrogative-partial-wh_Por-que-odiaba-la-lluvia.wav,./stim/wavs/puertorican_mismatch_interrogative-partial-wh_Por-que-odiaba-la-lluvia.wav,,,,,,,,,,,,,,,,,,,,,,,,,,,,,,,,,,,,,,,,,,,,,,,,,,,,,,,,
,,,,,,,60105552a0d121342846b31a,605b45a4d25f287719a41696,605cc41669c8f13d7e3ca78b,Mexico,Northeast,13 or older,no,2021-03-25_13h11.35.511,empathy_intonation_perc,2020.2.10,Win32,60,,,,,,,,,,1,andalusian,1,1,1.376255,0,52,52,21,1,22,./stim/wavs/andalusian_match_interrogative-partial-wh_Por-que-ama-la-navidad.wav,./stim/wavs/argentine_match_interrogative-partial-wh_Por-que-ama-la-navidad.wav,./stim/wavs/castilian_match_interrogative-partial-wh_Por-que-ama-la-navidad.wav,./stim/wavs/chilean_match_interrogative-partial-wh_Por-que-ama-la-navidad.wav,./stim/wavs/cuban_match_interrogative-partial-wh_Por-que-ama-la-navidad.wav,./stim/wavs/mexican_match_interrogative-partial-wh_Por-que-ama-la-navidad.wav,./stim/wavs/peruvian_match_interrogative-partial-wh_Por-que-ama-la-navidad.wav,./stim/wavs/puertorican_match_interrogative-partial-wh_Por-que-ama-la-navidad.wav,,,,,,,,,,,,,,,,,,,,,,,,,,,,,,,,,,,,,,,,,,,,,,,,,,,,,,,,
,,,,,,,60105552a0d121342846b31a,605b45a4d25f287719a41696,605cc41669c8f13d7e3ca78b,Mexico,Northeast,13 or older,no,2021-03-25_13h11.35.511,empathy_intonation_perc,2020.2.10,Win32,60,,,,,,,,,,1,peruvian,0,0,0.634585,0,53,53,57,1,58,./stim/wavs/andalusian_mismatch_interrogative-total-yn_El-hombre-mira-la-luna.wav,./stim/wavs/argentine_mismatch_interrogative-total-yn_El-hombre-mira-la-luna.wav,./stim/wavs/castilian_mismatch_interrogative-total-yn_El-hombre-mira-la-luna.wav,./stim/wavs/chilean_mismatch_interrogative-total-yn_El-hombre-mira-la-luna.wav,./stim/wavs/cuban_mismatch_interrogative-total-yn_El-hombre-mira-la-luna.wav,./stim/wavs/mexican_mismatch_interrogative-total-yn_El-hombre-mira-la-luna.wav,./stim/wavs/peruvian_mismatch_interrogative-total-yn_El-hombre-mira-la-luna.wav,./stim/wavs/puertorican_mismatch_interrogative-total-yn_El-hombre-mira-la-luna.wav,,,,,,,,,,,,,,,,,,,,,,,,,,,,,,,,,,,,,,,,,,,,,,,,,,,,,,,,
,,,,,,,60105552a0d121342846b31a,605b45a4d25f287719a41696,605cc41669c8f13d7e3ca78b,Mexico,Northeast,13 or older,no,2021-03-25_13h11.35.511,empathy_intonation_perc,2020.2.10,Win32,60,,,,,,,,,,0,andalusian,0,1,0.70556,0,54,54,47,1,48,./stim/wavs/andalusian_mismatch_declarative-narrow-focus_Mi-tia-odia-la-lluvia.wav,./stim/wavs/argentine_mismatch_declarative-narrow-focus_Mi-tia-odia-la-lluvia.wav,./stim/wavs/castilian_mismatch_declarative-narrow-focus_Mi-tia-odia-la-lluvia.wav,./stim/wavs/chilean_mismatch_declarative-narrow-focus_Mi-tia-odia-la-lluvia.wav,./stim/wavs/cuban_mismatch_declarative-narrow-focus_Mi-tia-odia-la-lluvia.wav,./stim/wavs/mexican_mismatch_declarative-narrow-focus_Mi-tia-odia-la-lluvia.wav,./stim/wavs/peruvian_mismatch_declarative-narrow-focus_Mi-tia-odia-la-lluvia.wav,./stim/wavs/puertorican_mismatch_declarative-narrow-focus_Mi-tia-odia-la-lluvia.wav,,,,,,,,,,,,,,,,,,,,,,,,,,,,,,,,,,,,,,,,,,,,,,,,,,,,,,,,
,,,,,,,60105552a0d121342846b31a,605b45a4d25f287719a41696,605cc41669c8f13d7e3ca78b,Mexico,Northeast,13 or older,no,2021-03-25_13h11.35.511,empathy_intonation_perc,2020.2.10,Win32,60,,,,,,,,,,0,cuban,0,1,0.6792,0,55,55,9,1,10,./stim/wavs/andalusian_match_declarative-narrow-focus_Daniel-iba-a-Bolivia.wav,./stim/wavs/argentine_match_declarative-narrow-focus_Daniel-iba-a-Bolivia.wav,./stim/wavs/castilian_match_declarative-narrow-focus_Daniel-iba-a-Bolivia.wav,./stim/wavs/chilean_match_declarative-narrow-focus_Daniel-iba-a-Bolivia.wav,./stim/wavs/cuban_match_declarative-narrow-focus_Daniel-iba-a-Bolivia.wav,./stim/wavs/mexican_match_declarative-narrow-focus_Daniel-iba-a-Bolivia.wav,./stim/wavs/peruvian_match_declarative-narrow-focus_Daniel-iba-a-Bolivia.wav,./stim/wavs/puertorican_match_declarative-narrow-focus_Daniel-iba-a-Bolivia.wav,,,,,,,,,,,,,,,,,,,,,,,,,,,,,,,,,,,,,,,,,,,,,,,,,,,,,,,,
,,,,,,,60105552a0d121342846b31a,605b45a4d25f287719a41696,605cc41669c8f13d7e3ca78b,Mexico,Northeast,13 or older,no,2021-03-25_13h11.35.511,empathy_intonation_perc,2020.2.10,Win32,60,,,,,,,,,,1,castilian,0,0,0.736245,0,56,56,29,1,30,./stim/wavs/andalusian_match_interrogative-total-yn_Maria-bebe-el-vino.wav,./stim/wavs/argentine_match_interrogative-total-yn_Maria-bebe-el-vino.wav,./stim/wavs/castilian_match_interrogative-total-yn_Maria-bebe-el-vino.wav,./stim/wavs/chilean_match_interrogative-total-yn_Maria-bebe-el-vino.wav,./stim/wavs/cuban_match_interrogative-total-yn_Maria-bebe-el-vino.wav,./stim/wavs/mexican_match_interrogative-total-yn_Maria-bebe-el-vino.wav,./stim/wavs/peruvian_match_interrogative-total-yn_Maria-bebe-el-vino.wav,./stim/wavs/puertorican_match_interrogative-total-yn_Maria-bebe-el-vino.wav,,,,,,,,,,,,,,,,,,,,,,,,,,,,,,,,,,,,,,,,,,,,,,,,,,,,,,,,
,,,,,,,60105552a0d121342846b31a,605b45a4d25f287719a41696,605cc41669c8f13d7e3ca78b,Mexico,Northeast,13 or older,no,2021-03-25_13h11.35.511,empathy_intonation_perc,2020.2.10,Win32,60,,,,,,,,,,0,castilian,0,1,0.934015,0,57,57,33,1,34,./stim/wavs/andalusian_mismatch_declarative-broad-focus_El-hombre-mira-la-luna.wav,./stim/wavs/argentine_mismatch_declarative-broad-focus_El-hombre-mira-la-luna.wav,./stim/wavs/castilian_mismatch_declarative-broad-focus_El-hombre-mira-la-luna.wav,./stim/wavs/chilean_mismatch_declarative-broad-focus_El-hombre-mira-la-luna.wav,./stim/wavs/cuban_mismatch_declarative-broad-focus_El-hombre-mira-la-luna.wav,./stim/wavs/mexican_mismatch_declarative-broad-focus_El-hombre-mira-la-luna.wav,./stim/wavs/peruvian_mismatch_declarative-broad-focus_El-hombre-mira-la-luna.wav,./stim/wavs/puertorican_mismatch_declarative-broad-focus_El-hombre-mira-la-luna.wav,,,,,,,,,,,,,,,,,,,,,,,,,,,,,,,,,,,,,,,,,,,,,,,,,,,,,,,,
,,,,,,,60105552a0d121342846b31a,605b45a4d25f287719a41696,605cc41669c8f13d7e3ca78b,Mexico,Northeast,13 or older,no,2021-03-25_13h11.35.511,empathy_intonation_perc,2020.2.10,Win32,60,,,,,,,,,,0,puertorican,0,1,1.15101,0,58,58,32,1,33,./stim/wavs/andalusian_mismatch_declarative-broad-focus_El-bebe-comia-muy-bien.wav,./stim/wavs/argentine_mismatch_declarative-broad-focus_El-bebe-comia-muy-bien.wav,./stim/wavs/castilian_mismatch_declarative-broad-focus_El-bebe-comia-muy-bien.wav,./stim/wavs/chilean_mismatch_declarative-broad-focus_El-bebe-comia-muy-bien.wav,./stim/wavs/cuban_mismatch_declarative-broad-focus_El-bebe-comia-muy-bien.wav,./stim/wavs/mexican_mismatch_declarative-broad-focus_El-bebe-comia-muy-bien.wav,./stim/wavs/peruvian_mismatch_declarative-broad-focus_El-bebe-comia-muy-bien.wav,./stim/wavs/puertorican_mismatch_declarative-broad-focus_El-bebe-comia-muy-bien.wav,,,,,,,,,,,,,,,,,,,,,,,,,,,,,,,,,,,,,,,,,,,,,,,,,,,,,,,,
,,,,,,,60105552a0d121342846b31a,605b45a4d25f287719a41696,605cc41669c8f13d7e3ca78b,Mexico,Northeast,13 or older,no,2021-03-25_13h11.35.511,empathy_intonation_perc,2020.2.10,Win32,60,,,,,,,,,,0,puertorican,0,1,1.199335,0,59,59,11,1,12,./stim/wavs/andalusian_match_declarative-narrow-focus_Emilio-ama-la-marcha.wav,./stim/wavs/argentine_match_declarative-narrow-focus_Emilio-ama-la-marcha.wav,./stim/wavs/castilian_match_declarative-narrow-focus_Emilio-ama-la-marcha.wav,./stim/wavs/chilean_match_declarative-narrow-focus_Emilio-ama-la-marcha.wav,./stim/wavs/cuban_match_declarative-narrow-focus_Emilio-ama-la-marcha.wav,./stim/wavs/mexican_match_declarative-narrow-focus_Emilio-ama-la-marcha.wav,./stim/wavs/peruvian_match_declarative-narrow-focus_Emilio-ama-la-marcha.wav,./stim/wavs/puertorican_match_declarative-narrow-focus_Emilio-ama-la-marcha.wav,,,,,,,,,,,,,,,,,,,,,,,,,,,,,,,,,,,,,,,,,,,,,,,,,,,,,,,,
,,,,,,,60105552a0d121342846b31a,605b45a4d25f287719a41696,605cc41669c8f13d7e3ca78b,Mexico,Northeast,13 or older,no,2021-03-25_13h11.35.511,empathy_intonation_perc,2020.2.10,Win32,60,,,,,,,,,,1,argentine,1,1,0.96634,0,60,60,50,1,51,./stim/wavs/andalusian_mismatch_interrogative-partial-wh_Cuando-miraba-la-luna.wav,./stim/wavs/argentine_mismatch_interrogative-partial-wh_Cuando-miraba-la-luna.wav,./stim/wavs/castilian_mismatch_interrogative-partial-wh_Cuando-miraba-la-luna.wav,./stim/wavs/chilean_mismatch_interrogative-partial-wh_Cuando-miraba-la-luna.wav,./stim/wavs/cuban_mismatch_interrogative-partial-wh_Cuando-miraba-la-luna.wav,./stim/wavs/mexican_mismatch_interrogative-partial-wh_Cuando-miraba-la-luna.wav,./stim/wavs/peruvian_mismatch_interrogative-partial-wh_Cuando-miraba-la-luna.wav,./stim/wavs/puertorican_mismatch_interrogative-partial-wh_Cuando-miraba-la-luna.wav,,,,,,,,,,,,,,,,,,,,,,,,,,,,,,,,,,,,,,,,,,,,,,,,,,,,,,,,
,,,,,,,60105552a0d121342846b31a,605b45a4d25f287719a41696,605cc41669c8f13d7e3ca78b,Mexico,Northeast,13 or older,no,2021-03-25_13h11.35.511,empathy_intonation_perc,2020.2.10,Win32,60,,,,,,,,,,1,castilian,0,0,1.098435,0,61,61,59,1,60,./stim/wavs/andalusian_mismatch_interrogative-total-yn_La-maestra-vive-en-Paris.wav,./stim/wavs/argentine_mismatch_interrogative-total-yn_La-maestra-vive-en-Paris.wav,./stim/wavs/castilian_mismatch_interrogative-total-yn_La-maestra-vive-en-Paris.wav,./stim/wavs/chilean_mismatch_interrogative-total-yn_La-maestra-vive-en-Paris.wav,./stim/wavs/cuban_mismatch_interrogative-total-yn_La-maestra-vive-en-Paris.wav,./stim/wavs/mexican_mismatch_interrogative-total-yn_La-maestra-vive-en-Paris.wav,./stim/wavs/peruvian_mismatch_interrogative-total-yn_La-maestra-vive-en-Paris.wav,./stim/wavs/puertorican_mismatch_interrogative-total-yn_La-maestra-vive-en-Paris.wav,,,,,,,,,,,,,,,,,,,,,,,,,,,,,,,,,,,,,,,,,,,,,,,,,,,,,,,,
,,,,,,,60105552a0d121342846b31a,605b45a4d25f287719a41696,605cc41669c8f13d7e3ca78b,Mexico,Northeast,13 or older,no,2021-03-25_13h11.35.511,empathy_intonation_perc,2020.2.10,Win32,60,,,,,,,,,,1,andalusian,0,0,1.351135,0,62,62,58,1,59,./stim/wavs/andalusian_mismatch_interrogative-total-yn_El-nino-oye-el-rio.wav,./stim/wavs/argentine_mismatch_interrogative-total-yn_El-nino-oye-el-rio.wav,./stim/wavs/castilian_mismatch_interrogative-total-yn_El-nino-oye-el-rio.wav,./stim/wavs/chilean_mismatch_interrogative-total-yn_El-nino-oye-el-rio.wav,./stim/wavs/cuban_mismatch_interrogative-total-yn_El-nino-oye-el-rio.wav,./stim/wavs/mexican_mismatch_interrogative-total-yn_El-nino-oye-el-rio.wav,./stim/wavs/peruvian_mismatch_interrogative-total-yn_El-nino-oye-el-rio.wav,./stim/wavs/puertorican_mismatch_interrogative-total-yn_El-nino-oye-el-rio.wav,,,,,,,,,,,,,,,,,,,,,,,,,,,,,,,,,,,,,,,,,,,,,,,,,,,,,,,,
,,,,,,,60105552a0d121342846b31a,605b45a4d25f287719a41696,605cc41669c8f13d7e3ca78b,Mexico,Northeast,13 or older,no,2021-03-25_13h11.35.511,empathy_intonation_perc,2020.2.10,Win32,60,,,,,,,,,,1,castilian,0,0,0.770235,0,63,63,62,1,63,./stim/wavs/andalusian_mismatch_interrogative-total-yn_Mi-novio-viene-del-lago.wav,./stim/wavs/argentine_mismatch_interrogative-total-yn_Mi-novio-viene-del-lago.wav,./stim/wavs/castilian_mismatch_interrogative-total-yn_Mi-novio-viene-del-lago.wav,./stim/wavs/chilean_mismatch_interrogative-total-yn_Mi-novio-viene-del-lago.wav,./stim/wavs/cuban_mismatch_interrogative-total-yn_Mi-novio-viene-del-lago.wav,./stim/wavs/mexican_mismatch_interrogative-total-yn_Mi-novio-viene-del-lago.wav,./stim/wavs/peruvian_mismatch_interrogative-total-yn_Mi-novio-viene-del-lago.wav,./stim/wavs/puertorican_mismatch_interrogative-total-yn_Mi-novio-viene-del-lago.wav,,,,,,,,,,,,,,,,,,,,,,,,,,,,,,,,,,,,,,,,,,,,,,,,,,,,,,,,
,,,,,,,60105552a0d121342846b31a,605b45a4d25f287719a41696,605cc41669c8f13d7e3ca78b,Mexico,Northeast,13 or older,no,2021-03-25_13h11.35.511,empathy_intonation_perc,2020.2.10,Win32,60,,,,,,,,,,,,,,,,,,,,,,,,,,,,,h,1,4.70986,0,0,0,0,1,,,,,,,,,,,,,,,,,,,,,,,,,,,,,,,,,,,,,,,,,,,,,,,,
,,,,,"Great! Now we will move on. The next task consists of about 60 trials, in each of which you will see a string of letters. 
  
  Your task is to decide whether this is a real Spanish word or not.",(press the spacebar to continue),60105552a0d121342846b31a,605b45a4d25f287719a41696,605cc41669c8f13d7e3ca78b,Mexico,Northeast,13 or older,no,2021-03-25_13h11.35.511,empathy_intonation_perc,2020.2.10,Win32,60,,,,,,,,,,,,,,,,,,,,,,,,,,,,,,,,,,,,,0,0,0,0,1,,,,,,,,,,,,,,,,,,,,,,,,,,,,,,,,,,,,,,,,,,,
,,,,,"If you think it is an existing Spanish word, you type '1' (for 'REAL'), and if you think it is not an existing Spanish word, you type '0' (for 'FAKE').",(press the spacebar to continue),60105552a0d121342846b31a,605b45a4d25f287719a41696,605cc41669c8f13d7e3ca78b,Mexico,Northeast,13 or older,no,2021-03-25_13h11.35.511,empathy_intonation_perc,2020.2.10,Win32,60,,,,,,,,,,,,,,,,,,,,,,,,,,,,,,,,,,,,,0,1,1,1,1,,,,,,,,,,,,,,,,,,,,,,,,,,,,,,,,,,,,,,,,,,,
,,,,,"If you are sure that the word exists, even though you dont know its exact meaning, you may still respond '1' (REAL). 
  
  But if you are not sure if it is an existing word, you should respond '0' (FAKE).
  
  Let's do a practice round...",(press the spacebar to continue),60105552a0d121342846b31a,605b45a4d25f287719a41696,605cc41669c8f13d7e3ca78b,Mexico,Northeast,13 or older,no,2021-03-25_13h11.35.511,empathy_intonation_perc,2020.2.10,Win32,60,,,,,,,,,,,,,,,,,,,,,,,,,,,,,,,,,,,,,0,2,2,2,1,,,,,,,,,,,,,,,,,,,,,,,,,,,,,,,,,,,,,,,,,,,
,,,,,,,60105552a0d121342846b31a,605b45a4d25f287719a41696,605cc41669c8f13d7e3ca78b,Mexico,Northeast,13 or older,no,2021-03-25_13h11.35.511,empathy_intonation_perc,2020.2.10,Win32,60,,,,,,,,,,0,,,,,,,,,,,,,,,,,,,,,,,,,,,,,,,,1,0,2.28533,0,0,0,0,1,0,depiste,REAL,FAKE,,,,,,,,,,,,,,,,,,,,,,,,,,,,,,,
,,,,,,,60105552a0d121342846b31a,605b45a4d25f287719a41696,605cc41669c8f13d7e3ca78b,Mexico,Northeast,13 or older,no,2021-03-25_13h11.35.511,empathy_intonation_perc,2020.2.10,Win32,60,,,,,,,,,,1,,,,,,,,,,,,,,,,,,,,,,,,,,,,,,,,1,1,1.14817,0,1,1,1,1,0,s,REAL,FAKE,,,,,,,,,,,,,,,,,,,,,,,,,,,,,,,
,,,,,,,60105552a0d121342846b31a,605b45a4d25f287719a41696,605cc41669c8f13d7e3ca78b,Mexico,Northeast,13 or older,no,2021-03-25_13h11.35.511,empathy_intonation_perc,2020.2.10,Win32,60,,,,,,,,,,0,,,,,,,,,,,,,,,,,,,,,,,,,,,,,,,,0,1,1.43225,0,2,2,2,1,0,con,REAL,FAKE,,,,,,,,,,,,,,,,,,,,,,,,,,,,,,,
,,,,,,,60105552a0d121342846b31a,605b45a4d25f287719a41696,605cc41669c8f13d7e3ca78b,Mexico,Northeast,13 or older,no,2021-03-25_13h11.35.511,empathy_intonation_perc,2020.2.10,Win32,60,,,,,,,,,,0,,,,,,,,,,,,,,,,,,,,,,,,,,,,,,,,1,0,0.955,0,3,3,3,1,0,calpar,REAL,FAKE,,,,,,,,,,,,,,,,,,,,,,,,,,,,,,,
,,,,,,,60105552a0d121342846b31a,605b45a4d25f287719a41696,605cc41669c8f13d7e3ca78b,Mexico,Northeast,13 or older,no,2021-03-25_13h11.35.511,empathy_intonation_perc,2020.2.10,Win32,60,,,,,,,,,,0,,,,,,,,,,,,,,,,,,,,,,,,,,,,,,,,0,1,0.88311,0,4,4,4,1,0,joten,REAL,FAKE,,,,,,,,,,,,,,,,,,,,,,,,,,,,,,,
,,,,,,,60105552a0d121342846b31a,605b45a4d25f287719a41696,605cc41669c8f13d7e3ca78b,Mexico,Northeast,13 or older,no,2021-03-25_13h11.35.511,empathy_intonation_perc,2020.2.10,Win32,60,,,,,,,,,,1,,,,,,,,,,,,,,,,,,,,,,,,,,,,,,,,1,1,1.503535,0,5,5,5,1,0,sacapuntas,REAL,FAKE,,,,,,,,,,,,,,,,,,,,,,,,,,,,,,,
,,,,,,,60105552a0d121342846b31a,605b45a4d25f287719a41696,605cc41669c8f13d7e3ca78b,Mexico,Northeast,13 or older,no,2021-03-25_13h11.35.511,empathy_intonation_perc,2020.2.10,Win32,60,,,,,,,,,,0,,,,,,,,,,,,,,,,,,,,,,,,,,,,,,,,0,1,0.810525,0,6,6,6,1,0,priba,REAL,FAKE,,,,,,,,,,,,,,,,,,,,,,,,,,,,,,,
,,,,,,,60105552a0d121342846b31a,605b45a4d25f287719a41696,605cc41669c8f13d7e3ca78b,Mexico,Northeast,13 or older,no,2021-03-25_13h11.35.511,empathy_intonation_perc,2020.2.10,Win32,60,,,,,,,,,,0,,,,,,,,,,,,,,,,,,,,,,,,,,,,,,,,0,1,0.95817,0,7,7,7,1,0,pelasula,REAL,FAKE,,,,,,,,,,,,,,,,,,,,,,,,,,,,,,,
,,,,,,,60105552a0d121342846b31a,605b45a4d25f287719a41696,605cc41669c8f13d7e3ca78b,Mexico,Northeast,13 or older,no,2021-03-25_13h11.35.511,empathy_intonation_perc,2020.2.10,Win32,60,,,,,,,,,,1,,,,,,,,,,,,,,,,,,,,,,,,,,,,,,,,1,1,0.88345,0,8,8,8,1,0,bien,REAL,FAKE,,,,,,,,,,,,,,,,,,,,,,,,,,,,,,,
,,,,,,,60105552a0d121342846b31a,605b45a4d25f287719a41696,605cc41669c8f13d7e3ca78b,Mexico,Northeast,13 or older,no,2021-03-25_13h11.35.511,empathy_intonation_perc,2020.2.10,Win32,60,,,,,,,,,,1,,,,,,,,,,,,,,,,,,,,,,,,,,,,,,,,1,1,0.61334,0,9,9,9,1,0,casa,REAL,FAKE,,,,,,,,,,,,,,,,,,,,,,,,,,,,,,,
,,,,,,,60105552a0d121342846b31a,605b45a4d25f287719a41696,605cc41669c8f13d7e3ca78b,Mexico,Northeast,13 or older,no,2021-03-25_13h11.35.511,empathy_intonation_perc,2020.2.10,Win32,60,,,,,,,,,,0,,,,,,,,,,,,,,,,,,,,,,,,,,,,,,,,1,0,0.60588,0,10,10,10,1,0,lejo,REAL,FAKE,,,,,,,,,,,,,,,,,,,,,,,,,,,,,,,
,,,,,,,60105552a0d121342846b31a,605b45a4d25f287719a41696,605cc41669c8f13d7e3ca78b,Mexico,Northeast,13 or older,no,2021-03-25_13h11.35.511,empathy_intonation_perc,2020.2.10,Win32,60,,,,,,,,,,0,,,,,,,,,,,,,,,,,,,,,,,,,,,,,,,,1,0,0.8668,0,11,11,11,1,0,pretantas,REAL,FAKE,,,,,,,,,,,,,,,,,,,,,,,,,,,,,,,
,,,,,,,60105552a0d121342846b31a,605b45a4d25f287719a41696,605cc41669c8f13d7e3ca78b,Mexico,Northeast,13 or older,no,2021-03-25_13h11.35.511,empathy_intonation_perc,2020.2.10,Win32,60,,,,,,,,,,1,,,,,,,,,,,,,,,,,,,,,,,,,,,,,,,,,,,,,,,,71,polvoriento,,,0,0,0.632175,0,0,0,70,1,REAL,FAKE,,,,,,,,,,,,,,,,,,,,,
,,,,,,,60105552a0d121342846b31a,605b45a4d25f287719a41696,605cc41669c8f13d7e3ca78b,Mexico,Northeast,13 or older,no,2021-03-25_13h11.35.511,empathy_intonation_perc,2020.2.10,Win32,60,,,,,,,,,,1,,,,,,,,,,,,,,,,,,,,,,,,,,,,,,,,,,,,,,,,49,ganar,,,1,1,0.61084,0,1,1,48,1,REAL,FAKE,,,,,,,,,,,,,,,,,,,,,
,,,,,,,60105552a0d121342846b31a,605b45a4d25f287719a41696,605cc41669c8f13d7e3ca78b,Mexico,Northeast,13 or older,no,2021-03-25_13h11.35.511,empathy_intonation_perc,2020.2.10,Win32,60,,,,,,,,,,0,,,,,,,,,,,,,,,,,,,,,,,,,,,,,,,,,,,,,,,,32,fatacidad,,,1,0,0.852785,0,2,2,31,1,REAL,FAKE,,,,,,,,,,,,,,,,,,,,,
,,,,,,,60105552a0d121342846b31a,605b45a4d25f287719a41696,605cc41669c8f13d7e3ca78b,Mexico,Northeast,13 or older,no,2021-03-25_13h11.35.511,empathy_intonation_perc,2020.2.10,Win32,60,,,,,,,,,,1,,,,,,,,,,,,,,,,,,,,,,,,,,,,,,,,,,,,,,,,36,loro,,,1,1,0.601585,0,3,3,35,1,REAL,FAKE,,,,,,,,,,,,,,,,,,,,,
,,,,,,,60105552a0d121342846b31a,605b45a4d25f287719a41696,605cc41669c8f13d7e3ca78b,Mexico,Northeast,13 or older,no,2021-03-25_13h11.35.511,empathy_intonation_perc,2020.2.10,Win32,60,,,,,,,,,,1,,,,,,,,,,,,,,,,,,,,,,,,,,,,,,,,,,,,,,,,11,cenefa,,,0,0,0.646,0,4,4,10,1,REAL,FAKE,,,,,,,,,,,,,,,,,,,,,
,,,,,,,60105552a0d121342846b31a,605b45a4d25f287719a41696,605cc41669c8f13d7e3ca78b,Mexico,Northeast,13 or older,no,2021-03-25_13h11.35.511,empathy_intonation_perc,2020.2.10,Win32,60,,,,,,,,,,1,,,,,,,,,,,,,,,,,,,,,,,,,,,,,,,,,,,,,,,,40,alfombra,,,0,0,0.47838,0,5,5,39,1,REAL,FAKE,,,,,,,,,,,,,,,,,,,,,
,,,,,,,60105552a0d121342846b31a,605b45a4d25f287719a41696,605cc41669c8f13d7e3ca78b,Mexico,Northeast,13 or older,no,2021-03-25_13h11.35.511,empathy_intonation_perc,2020.2.10,Win32,60,,,,,,,,,,1,,,,,,,,,,,,,,,,,,,,,,,,,,,,,,,,,,,,,,,,68,alegre,,,1,1,0.56156,0,6,6,67,1,REAL,FAKE,,,,,,,,,,,,,,,,,,,,,
,,,,,,,60105552a0d121342846b31a,605b45a4d25f287719a41696,605cc41669c8f13d7e3ca78b,Mexico,Northeast,13 or older,no,2021-03-25_13h11.35.511,empathy_intonation_perc,2020.2.10,Win32,60,,,,,,,,,,1,,,,,,,,,,,,,,,,,,,,,,,,,,,,,,,,,,,,,,,,59,besar,,,1,1,0.848115,0,7,7,58,1,REAL,FAKE,,,,,,,,,,,,,,,,,,,,,
,,,,,,,60105552a0d121342846b31a,605b45a4d25f287719a41696,605cc41669c8f13d7e3ca78b,Mexico,Northeast,13 or older,no,2021-03-25_13h11.35.511,empathy_intonation_perc,2020.2.10,Win32,60,,,,,,,,,,1,,,,,,,,,,,,,,,,,,,,,,,,,,,,,,,,,,,,,,,,38,estornudar,,,0,0,0.787735,0,8,8,37,1,REAL,FAKE,,,,,,,,,,,,,,,,,,,,,
,,,,,,,60105552a0d121342846b31a,605b45a4d25f287719a41696,605cc41669c8f13d7e3ca78b,Mexico,Northeast,13 or older,no,2021-03-25_13h11.35.511,empathy_intonation_perc,2020.2.10,Win32,60,,,,,,,,,,1,,,,,,,,,,,,,,,,,,,,,,,,,,,,,,,,,,,,,,,,60,matar,,,1,1,0.59568,0,9,9,59,1,REAL,FAKE,,,,,,,,,,,,,,,,,,,,,
,,,,,,,60105552a0d121342846b31a,605b45a4d25f287719a41696,605cc41669c8f13d7e3ca78b,Mexico,Northeast,13 or older,no,2021-03-25_13h11.35.511,empathy_intonation_perc,2020.2.10,Win32,60,,,,,,,,,,1,,,,,,,,,,,,,,,,,,,,,,,,,,,,,,,,,,,,,,,,48,ladrn,,,0,0,0.670455,0,10,10,47,1,REAL,FAKE,,,,,,,,,,,,,,,,,,,,,
,,,,,,,60105552a0d121342846b31a,605b45a4d25f287719a41696,605cc41669c8f13d7e3ca78b,Mexico,Northeast,13 or older,no,2021-03-25_13h11.35.511,empathy_intonation_perc,2020.2.10,Win32,60,,,,,,,,,,1,,,,,,,,,,,,,,,,,,,,,,,,,,,,,,,,,,,,,,,,78,frondoso,,,1,1,0.52729,0,11,11,77,1,REAL,FAKE,,,,,,,,,,,,,,,,,,,,,
,,,,,,,60105552a0d121342846b31a,605b45a4d25f287719a41696,605cc41669c8f13d7e3ca78b,Mexico,Northeast,13 or older,no,2021-03-25_13h11.35.511,empathy_intonation_perc,2020.2.10,Win32,60,,,,,,,,,,1,,,,,,,,,,,,,,,,,,,,,,,,,,,,,,,,,,,,,,,,55,nevar,,,1,1,0.383495,0,12,12,54,1,REAL,FAKE,,,,,,,,,,,,,,,,,,,,,
,,,,,,,60105552a0d121342846b31a,605b45a4d25f287719a41696,605cc41669c8f13d7e3ca78b,Mexico,Northeast,13 or older,no,2021-03-25_13h11.35.511,empathy_intonation_perc,2020.2.10,Win32,60,,,,,,,,,,1,,,,,,,,,,,,,,,,,,,,,,,,,,,,,,,,,,,,,,,,37,granuja,,,0,0,0.56372,0,13,13,36,1,REAL,FAKE,,,,,,,,,,,,,,,,,,,,,
,,,,,,,60105552a0d121342846b31a,605b45a4d25f287719a41696,605cc41669c8f13d7e3ca78b,Mexico,Northeast,13 or older,no,2021-03-25_13h11.35.511,empathy_intonation_perc,2020.2.10,Win32,60,,,,,,,,,,0,,,,,,,,,,,,,,,,,,,,,,,,,,,,,,,,,,,,,,,,18,arsa,,,1,0,0.602575,0,14,14,17,1,REAL,FAKE,,,,,,,,,,,,,,,,,,,,,
,,,,,,,60105552a0d121342846b31a,605b45a4d25f287719a41696,605cc41669c8f13d7e3ca78b,Mexico,Northeast,13 or older,no,2021-03-25_13h11.35.511,empathy_intonation_perc,2020.2.10,Win32,60,,,,,,,,,,1,,,,,,,,,,,,,,,,,,,,,,,,,,,,,,,,,,,,,,,,3,pulmones,,,0,0,0.628465,0,15,15,2,1,REAL,FAKE,,,,,,,,,,,,,,,,,,,,,
,,,,,,,60105552a0d121342846b31a,605b45a4d25f287719a41696,605cc41669c8f13d7e3ca78b,Mexico,Northeast,13 or older,no,2021-03-25_13h11.35.511,empathy_intonation_perc,2020.2.10,Win32,60,,,,,,,,,,1,,,,,,,,,,,,,,,,,,,,,,,,,,,,,,,,,,,,,,,,31,pandilla,,,0,0,0.499185,0,16,16,30,1,REAL,FAKE,,,,,,,,,,,,,,,,,,,,,
,,,,,,,60105552a0d121342846b31a,605b45a4d25f287719a41696,605cc41669c8f13d7e3ca78b,Mexico,Northeast,13 or older,no,2021-03-25_13h11.35.511,empathy_intonation_perc,2020.2.10,Win32,60,,,,,,,,,,1,,,,,,,,,,,,,,,,,,,,,,,,,,,,,,,,,,,,,,,,15,regar,,,1,1,0.451315,0,17,17,14,1,REAL,FAKE,,,,,,,,,,,,,,,,,,,,,
,,,,,,,60105552a0d121342846b31a,605b45a4d25f287719a41696,605cc41669c8f13d7e3ca78b,Mexico,Northeast,13 or older,no,2021-03-25_13h11.35.511,empathy_intonation_perc,2020.2.10,Win32,60,,,,,,,,,,1,,,,,,,,,,,,,,,,,,,,,,,,,,,,,,,,,,,,,,,,34,aviso,,,0,0,0.409425,0,18,18,33,1,REAL,FAKE,,,,,,,,,,,,,,,,,,,,,
,,,,,,,60105552a0d121342846b31a,605b45a4d25f287719a41696,605cc41669c8f13d7e3ca78b,Mexico,Northeast,13 or older,no,2021-03-25_13h11.35.511,empathy_intonation_perc,2020.2.10,Win32,60,,,,,,,,,,1,,,,,,,,,,,,,,,,,,,,,,,,,,,,,,,,,,,,,,,,88,acantilado,,,0,0,0.82867,0,19,19,87,1,REAL,FAKE,,,,,,,,,,,,,,,,,,,,,
,,,,,,,60105552a0d121342846b31a,605b45a4d25f287719a41696,605cc41669c8f13d7e3ca78b,Mexico,Northeast,13 or older,no,2021-03-25_13h11.35.511,empathy_intonation_perc,2020.2.10,Win32,60,,,,,,,,,,0,,,,,,,,,,,,,,,,,,,,,,,,,,,,,,,,,,,,,,,,30,alardio,,,0,1,0.386505,0,20,20,29,1,REAL,FAKE,,,,,,,,,,,,,,,,,,,,,
,,,,,,,60105552a0d121342846b31a,605b45a4d25f287719a41696,605cc41669c8f13d7e3ca78b,Mexico,Northeast,13 or older,no,2021-03-25_13h11.35.511,empathy_intonation_perc,2020.2.10,Win32,60,,,,,,,,,,0,,,,,,,,,,,,,,,,,,,,,,,,,,,,,,,,,,,,,,,,29,decar,,,0,1,0.36454,0,21,21,28,1,REAL,FAKE,,,,,,,,,,,,,,,,,,,,,
,,,,,,,60105552a0d121342846b31a,605b45a4d25f287719a41696,605cc41669c8f13d7e3ca78b,Mexico,Northeast,13 or older,no,2021-03-25_13h11.35.511,empathy_intonation_perc,2020.2.10,Win32,60,,,,,,,,,,1,,,,,,,,,,,,,,,,,,,,,,,,,,,,,,,,,,,,,,,,14,yunque,,,0,0,0.4685,0,22,22,13,1,REAL,FAKE,,,,,,,,,,,,,,,,,,,,,
,,,,,,,60105552a0d121342846b31a,605b45a4d25f287719a41696,605cc41669c8f13d7e3ca78b,Mexico,Northeast,13 or older,no,2021-03-25_13h11.35.511,empathy_intonation_perc,2020.2.10,Win32,60,,,,,,,,,,1,,,,,,,,,,,,,,,,,,,,,,,,,,,,,,,,,,,,,,,,54,fomentar,,,1,1,0.78153,0,23,23,53,1,REAL,FAKE,,,,,,,,,,,,,,,,,,,,,
,,,,,,,60105552a0d121342846b31a,605b45a4d25f287719a41696,605cc41669c8f13d7e3ca78b,Mexico,Northeast,13 or older,no,2021-03-25_13h11.35.511,empathy_intonation_perc,2020.2.10,Win32,60,,,,,,,,,,1,,,,,,,,,,,,,,,,,,,,,,,,,,,,,,,,,,,,,,,,9,hacha,,,1,1,0.4599,0,24,24,8,1,REAL,FAKE,,,,,,,,,,,,,,,,,,,,,
,,,,,,,60105552a0d121342846b31a,605b45a4d25f287719a41696,605cc41669c8f13d7e3ca78b,Mexico,Northeast,13 or older,no,2021-03-25_13h11.35.511,empathy_intonation_perc,2020.2.10,Win32,60,,,,,,,,,,0,,,,,,,,,,,,,,,,,,,,,,,,,,,,,,,,,,,,,,,,16,abracer,,,0,1,0.444725,0,25,25,15,1,REAL,FAKE,,,,,,,,,,,,,,,,,,,,,
,,,,,,,60105552a0d121342846b31a,605b45a4d25f287719a41696,605cc41669c8f13d7e3ca78b,Mexico,Northeast,13 or older,no,2021-03-25_13h11.35.511,empathy_intonation_perc,2020.2.10,Win32,60,,,,,,,,,,1,,,,,,,,,,,,,,,,,,,,,,,,,,,,,,,,,,,,,,,,41,rebuscar,,,0,0,0.4614,0,26,26,40,1,REAL,FAKE,,,,,,,,,,,,,,,,,,,,,
,,,,,,,60105552a0d121342846b31a,605b45a4d25f287719a41696,605cc41669c8f13d7e3ca78b,Mexico,Northeast,13 or older,no,2021-03-25_13h11.35.511,empathy_intonation_perc,2020.2.10,Win32,60,,,,,,,,,,0,,,,,,,,,,,,,,,,,,,,,,,,,,,,,,,,,,,,,,,,17,floroso,,,0,1,0.51301,0,27,27,16,1,REAL,FAKE,,,,,,,,,,,,,,,,,,,,,
,,,,,,,60105552a0d121342846b31a,605b45a4d25f287719a41696,605cc41669c8f13d7e3ca78b,Mexico,Northeast,13 or older,no,2021-03-25_13h11.35.511,empathy_intonation_perc,2020.2.10,Win32,60,,,,,,,,,,1,,,,,,,,,,,,,,,,,,,,,,,,,,,,,,,,,,,,,,,,7,psimo,,,0,0,0.68639,0,28,28,6,1,REAL,FAKE,,,,,,,,,,,,,,,,,,,,,
,,,,,,,60105552a0d121342846b31a,605b45a4d25f287719a41696,605cc41669c8f13d7e3ca78b,Mexico,Northeast,13 or older,no,2021-03-25_13h11.35.511,empathy_intonation_perc,2020.2.10,Win32,60,,,,,,,,,,1,,,,,,,,,,,,,,,,,,,,,,,,,,,,,,,,,,,,,,,,57,tacao,,,1,1,0.815745,0,29,29,56,1,REAL,FAKE,,,,,,,,,,,,,,,,,,,,,
,,,,,,,60105552a0d121342846b31a,605b45a4d25f287719a41696,605cc41669c8f13d7e3ca78b,Mexico,Northeast,13 or older,no,2021-03-25_13h11.35.511,empathy_intonation_perc,2020.2.10,Win32,60,,,,,,,,,,1,,,,,,,,,,,,,,,,,,,,,,,,,,,,,,,,,,,,,,,,61,seda,,,0,0,0.63209,0,30,30,60,1,REAL,FAKE,,,,,,,,,,,,,,,,,,,,,
,,,,,,,60105552a0d121342846b31a,605b45a4d25f287719a41696,605cc41669c8f13d7e3ca78b,Mexico,Northeast,13 or older,no,2021-03-25_13h11.35.511,empathy_intonation_perc,2020.2.10,Win32,60,,,,,,,,,,0,,,,,,,,,,,,,,,,,,,,,,,,,,,,,,,,,,,,,,,,35,rompido,,,1,0,0.628935,0,31,31,34,1,REAL,FAKE,,,,,,,,,,,,,,,,,,,,,
,,,,,,,60105552a0d121342846b31a,605b45a4d25f287719a41696,605cc41669c8f13d7e3ca78b,Mexico,Northeast,13 or older,no,2021-03-25_13h11.35.511,empathy_intonation_perc,2020.2.10,Win32,60,,,,,,,,,,0,,,,,,,,,,,,,,,,,,,,,,,,,,,,,,,,,,,,,,,,27,acutacin,,,1,0,0.578505,0,32,32,26,1,REAL,FAKE,,,,,,,,,,,,,,,,,,,,,
,,,,,,,60105552a0d121342846b31a,605b45a4d25f287719a41696,605cc41669c8f13d7e3ca78b,Mexico,Northeast,13 or older,no,2021-03-25_13h11.35.511,empathy_intonation_perc,2020.2.10,Win32,60,,,,,,,,,,0,,,,,,,,,,,,,,,,,,,,,,,,,,,,,,,,,,,,,,,,1,terzo,,,1,0,0.364815,0,33,33,0,1,REAL,FAKE,,,,,,,,,,,,,,,,,,,,,
,,,,,,,60105552a0d121342846b31a,605b45a4d25f287719a41696,605cc41669c8f13d7e3ca78b,Mexico,Northeast,13 or older,no,2021-03-25_13h11.35.511,empathy_intonation_perc,2020.2.10,Win32,60,,,,,,,,,,0,,,,,,,,,,,,,,,,,,,,,,,,,,,,,,,,,,,,,,,,8,cadea,,,1,0,0.420875,0,34,34,7,1,REAL,FAKE,,,,,,,,,,,,,,,,,,,,,
,,,,,,,60105552a0d121342846b31a,605b45a4d25f287719a41696,605cc41669c8f13d7e3ca78b,Mexico,Northeast,13 or older,no,2021-03-25_13h11.35.511,empathy_intonation_perc,2020.2.10,Win32,60,,,,,,,,,,1,,,,,,,,,,,,,,,,,,,,,,,,,,,,,,,,,,,,,,,,26,secuestro,,,0,0,0.294905,0,35,35,25,1,REAL,FAKE,,,,,,,,,,,,,,,,,,,,,
,,,,,,,60105552a0d121342846b31a,605b45a4d25f287719a41696,605cc41669c8f13d7e3ca78b,Mexico,Northeast,13 or older,no,2021-03-25_13h11.35.511,empathy_intonation_perc,2020.2.10,Win32,60,,,,,,,,,,0,,,,,,,,,,,,,,,,,,,,,,,,,,,,,,,,,,,,,,,,84,escuto,,,1,0,0.20287,0,36,36,83,1,REAL,FAKE,,,,,,,,,,,,,,,,,,,,,
,,,,,,,60105552a0d121342846b31a,605b45a4d25f287719a41696,605cc41669c8f13d7e3ca78b,Mexico,Northeast,13 or older,no,2021-03-25_13h11.35.511,empathy_intonation_perc,2020.2.10,Win32,60,,,,,,,,,,1,,,,,,,,,,,,,,,,,,,,,,,,,,,,,,,,,,,,,,,,89,prisa,,,1,1,0.16381,0,37,37,88,1,REAL,FAKE,,,,,,,,,,,,,,,,,,,,,
,,,,,,,60105552a0d121342846b31a,605b45a4d25f287719a41696,605cc41669c8f13d7e3ca78b,Mexico,Northeast,13 or older,no,2021-03-25_13h11.35.511,empathy_intonation_perc,2020.2.10,Win32,60,,,,,,,,,,1,,,,,,,,,,,,,,,,,,,,,,,,,,,,,,,,,,,,,,,,51,candado,,,1,1,0.44399,0,38,38,50,1,REAL,FAKE,,,,,,,,,,,,,,,,,,,,,
,,,,,,,60105552a0d121342846b31a,605b45a4d25f287719a41696,605cc41669c8f13d7e3ca78b,Mexico,Northeast,13 or older,no,2021-03-25_13h11.35.511,empathy_intonation_perc,2020.2.10,Win32,60,,,,,,,,,,1,,,,,,,,,,,,,,,,,,,,,,,,,,,,,,,,,,,,,,,,67,cabello,,,1,1,0.242625,0,39,39,66,1,REAL,FAKE,,,,,,,,,,,,,,,,,,,,,
,,,,,,,60105552a0d121342846b31a,605b45a4d25f287719a41696,605cc41669c8f13d7e3ca78b,Mexico,Northeast,13 or older,no,2021-03-25_13h11.35.511,empathy_intonation_perc,2020.2.10,Win32,60,,,,,,,,,,1,,,,,,,,,,,,,,,,,,,,,,,,,,,,,,,,,,,,,,,,2,pellizcar,,,0,0,0.264325,0,40,40,1,1,REAL,FAKE,,,,,,,,,,,,,,,,,,,,,
,,,,,,,60105552a0d121342846b31a,605b45a4d25f287719a41696,605cc41669c8f13d7e3ca78b,Mexico,Northeast,13 or older,no,2021-03-25_13h11.35.511,empathy_intonation_perc,2020.2.10,Win32,60,,,,,,,,,,1,,,,,,,,,,,,,,,,,,,,,,,,,,,,,,,,,,,,,,,,90,clavel,,,0,0,0.232205,0,41,41,89,1,REAL,FAKE,,,,,,,,,,,,,,,,,,,,,
,,,,,,,60105552a0d121342846b31a,605b45a4d25f287719a41696,605cc41669c8f13d7e3ca78b,Mexico,Northeast,13 or older,no,2021-03-25_13h11.35.511,empathy_intonation_perc,2020.2.10,Win32,60,,,,,,,,,,1,,,,,,,,,,,,,,,,,,,,,,,,,,,,,,,,,,,,,,,,83,guante,,,0,0,0.21212,0,42,42,82,1,REAL,FAKE,,,,,,,,,,,,,,,,,,,,,
,,,,,,,60105552a0d121342846b31a,605b45a4d25f287719a41696,605cc41669c8f13d7e3ca78b,Mexico,Northeast,13 or older,no,2021-03-25_13h11.35.511,empathy_intonation_perc,2020.2.10,Win32,60,,,,,,,,,,0,,,,,,,,,,,,,,,,,,,,,,,,,,,,,,,,,,,,,,,,10,antar,,,1,0,0.082145,0,43,43,9,1,REAL,FAKE,,,,,,,,,,,,,,,,,,,,,
,,,,,,,60105552a0d121342846b31a,605b45a4d25f287719a41696,605cc41669c8f13d7e3ca78b,Mexico,Northeast,13 or older,no,2021-03-25_13h11.35.511,empathy_intonation_perc,2020.2.10,Win32,60,,,,,,,,,,1,,,,,,,,,,,,,,,,,,,,,,,,,,,,,,,,,,,,,,,,20,vido,,,1,1,0.215575,0,44,44,19,1,REAL,FAKE,,,,,,,,,,,,,,,,,,,,,
,,,,,,,60105552a0d121342846b31a,605b45a4d25f287719a41696,605cc41669c8f13d7e3ca78b,Mexico,Northeast,13 or older,no,2021-03-25_13h11.35.511,empathy_intonation_perc,2020.2.10,Win32,60,,,,,,,,,,1,,,,,,,,,,,,,,,,,,,,,,,,,,,,,,,,,,,,,,,,25,bisagra,,,0,0,0.214665,0,45,45,24,1,REAL,FAKE,,,,,,,,,,,,,,,,,,,,,
,,,,,,,60105552a0d121342846b31a,605b45a4d25f287719a41696,605cc41669c8f13d7e3ca78b,Mexico,Northeast,13 or older,no,2021-03-25_13h11.35.511,empathy_intonation_perc,2020.2.10,Win32,60,,,,,,,,,,1,,,,,,,,,,,,,,,,,,,,,,,,,,,,,,,,,,,,,,,,80,hormiga,,,0,0,0.19508,0,46,46,79,1,REAL,FAKE,,,,,,,,,,,,,,,,,,,,,
,,,,,,,60105552a0d121342846b31a,605b45a4d25f287719a41696,605cc41669c8f13d7e3ca78b,Mexico,Northeast,13 or older,no,2021-03-25_13h11.35.511,empathy_intonation_perc,2020.2.10,Win32,60,,,,,,,,,,1,,,,,,,,,,,,,,,,,,,,,,,,,,,,,,,,,,,,,,,,76,atar,,,1,1,0.24805,0,47,47,75,1,REAL,FAKE,,,,,,,,,,,,,,,,,,,,,
,,,,,,,60105552a0d121342846b31a,605b45a4d25f287719a41696,605cc41669c8f13d7e3ca78b,Mexico,Northeast,13 or older,no,2021-03-25_13h11.35.511,empathy_intonation_perc,2020.2.10,Win32,60,,,,,,,,,,0,,,,,,,,,,,,,,,,,,,,,,,,,,,,,,,,,,,,,,,,53,vegada,,,1,0,0.253825,0,48,48,52,1,REAL,FAKE,,,,,,,,,,,,,,,,,,,,,
,,,,,,,60105552a0d121342846b31a,605b45a4d25f287719a41696,605cc41669c8f13d7e3ca78b,Mexico,Northeast,13 or older,no,2021-03-25_13h11.35.511,empathy_intonation_perc,2020.2.10,Win32,60,,,,,,,,,,1,,,,,,,,,,,,,,,,,,,,,,,,,,,,,,,,,,,,,,,,62,flaco,,,1,1,0.130575,0,49,49,61,1,REAL,FAKE,,,,,,,,,,,,,,,,,,,,,
,,,,,,,60105552a0d121342846b31a,605b45a4d25f287719a41696,605cc41669c8f13d7e3ca78b,Mexico,Northeast,13 or older,no,2021-03-25_13h11.35.511,empathy_intonation_perc,2020.2.10,Win32,60,,,,,,,,,,0,,,,,,,,,,,,,,,,,,,,,,,,,,,,,,,,,,,,,,,,33,pauca,,,0,1,0.11733,0,50,50,32,1,REAL,FAKE,,,,,,,,,,,,,,,,,,,,,
,,,,,,,60105552a0d121342846b31a,605b45a4d25f287719a41696,605cc41669c8f13d7e3ca78b,Mexico,Northeast,13 or older,no,2021-03-25_13h11.35.511,empathy_intonation_perc,2020.2.10,Win32,60,,,,,,,,,,1,,,,,,,,,,,,,,,,,,,,,,,,,,,,,,,,,,,,,,,,75,yacer,,,0,0,0.330305,0,51,51,74,1,REAL,FAKE,,,,,,,,,,,,,,,,,,,,,
,,,,,,,60105552a0d121342846b31a,605b45a4d25f287719a41696,605cc41669c8f13d7e3ca78b,Mexico,Northeast,13 or older,no,2021-03-25_13h11.35.511,empathy_intonation_perc,2020.2.10,Win32,60,,,,,,,,,,0,,,,,,,,,,,,,,,,,,,,,,,,,,,,,,,,,,,,,,,,79,tropaje,,,1,0,0.016755,0,52,52,78,1,REAL,FAKE,,,,,,,,,,,,,,,,,,,,,
,,,,,,,60105552a0d121342846b31a,605b45a4d25f287719a41696,605cc41669c8f13d7e3ca78b,Mexico,Northeast,13 or older,no,2021-03-25_13h11.35.511,empathy_intonation_perc,2020.2.10,Win32,60,,,,,,,,,,0,,,,,,,,,,,,,,,,,,,,,,,,,,,,,,,,,,,,,,,,42,cadallo,,,1,0,0.289,0,53,53,41,1,REAL,FAKE,,,,,,,,,,,,,,,,,,,,,
,,,,,,,60105552a0d121342846b31a,605b45a4d25f287719a41696,605cc41669c8f13d7e3ca78b,Mexico,Northeast,13 or older,no,2021-03-25_13h11.35.511,empathy_intonation_perc,2020.2.10,Win32,60,,,,,,,,,,0,,,,,,,,,,,,,,,,,,,,,,,,,,,,,,,,,,,,,,,,82,empirador,,,0,1,0.02274,0,54,54,81,1,REAL,FAKE,,,,,,,,,,,,,,,,,,,,,
,,,,,,,60105552a0d121342846b31a,605b45a4d25f287719a41696,605cc41669c8f13d7e3ca78b,Mexico,Northeast,13 or older,no,2021-03-25_13h11.35.511,empathy_intonation_perc,2020.2.10,Win32,60,,,,,,,,,,0,,,,,,,,,,,,,,,,,,,,,,,,,,,,,,,,,,,,,,,,23,lampera,,,0,1,0.479625,0,55,55,22,1,REAL,FAKE,,,,,,,,,,,,,,,,,,,,,
,,,,,,,60105552a0d121342846b31a,605b45a4d25f287719a41696,605cc41669c8f13d7e3ca78b,Mexico,Northeast,13 or older,no,2021-03-25_13h11.35.511,empathy_intonation_perc,2020.2.10,Win32,60,,,,,,,,,,1,,,,,,,,,,,,,,,,,,,,,,,,,,,,,,,,,,,,,,,,24,ltigo,,,0,0,0.046905,0,56,56,23,1,REAL,FAKE,,,,,,,,,,,,,,,,,,,,,
,,,,,,,60105552a0d121342846b31a,605b45a4d25f287719a41696,605cc41669c8f13d7e3ca78b,Mexico,Northeast,13 or older,no,2021-03-25_13h11.35.511,empathy_intonation_perc,2020.2.10,Win32,60,,,,,,,,,,1,,,,,,,,,,,,,,,,,,,,,,,,,,,,,,,,,,,,,,,,86,barato,,,1,1,0.02956,0,57,57,85,1,REAL,FAKE,,,,,,,,,,,,,,,,,,,,,
,,,,,,,60105552a0d121342846b31a,605b45a4d25f287719a41696,605cc41669c8f13d7e3ca78b,Mexico,Northeast,13 or older,no,2021-03-25_13h11.35.511,empathy_intonation_perc,2020.2.10,Win32,60,,,,,,,,,,1,,,,,,,,,,,,,,,,,,,,,,,,,,,,,,,,,,,,,,,,64,orgulloso,,,1,1,0.06822,0,58,58,63,1,REAL,FAKE,,,,,,,,,,,,,,,,,,,,,
,,,,,,,60105552a0d121342846b31a,605b45a4d25f287719a41696,605cc41669c8f13d7e3ca78b,Mexico,Northeast,13 or older,no,2021-03-25_13h11.35.511,empathy_intonation_perc,2020.2.10,Win32,60,,,,,,,,,,1,,,,,,,,,,,,,,,,,,,,,,,,,,,,,,,,,,,,,,,,5,zapato,,,1,1,0.34757,0,59,59,4,1,REAL,FAKE,,,,,,,,,,,,,,,,,,,,,
,,,,,,,60105552a0d121342846b31a,605b45a4d25f287719a41696,605cc41669c8f13d7e3ca78b,Mexico,Northeast,13 or older,no,2021-03-25_13h11.35.511,empathy_intonation_perc,2020.2.10,Win32,60,,,,,,,,,,1,,,,,,,,,,,,,,,,,,,,,,,,,,,,,,,,,,,,,,,,52,camisa,,,1,1,0.133285,0,60,60,51,1,REAL,FAKE,,,,,,,,,,,,,,,,,,,,,
,,,,,,,60105552a0d121342846b31a,605b45a4d25f287719a41696,605cc41669c8f13d7e3ca78b,Mexico,Northeast,13 or older,no,2021-03-25_13h11.35.511,empathy_intonation_perc,2020.2.10,Win32,60,,,,,,,,,,0,,,,,,,,,,,,,,,,,,,,,,,,,,,,,,,,,,,,,,,,47,cartinar,,,1,0,0.11301,0,61,61,46,1,REAL,FAKE,,,,,,,,,,,,,,,,,,,,,
,,,,,,,60105552a0d121342846b31a,605b45a4d25f287719a41696,605cc41669c8f13d7e3ca78b,Mexico,Northeast,13 or older,no,2021-03-25_13h11.35.511,empathy_intonation_perc,2020.2.10,Win32,60,,,,,,,,,,1,,,,,,,,,,,,,,,,,,,,,,,,,,,,,,,,,,,,,,,,39,torpe,,,1,1,0.0114,0,62,62,38,1,REAL,FAKE,,,,,,,,,,,,,,,,,,,,,
,,,,,,,60105552a0d121342846b31a,605b45a4d25f287719a41696,605cc41669c8f13d7e3ca78b,Mexico,Northeast,13 or older,no,2021-03-25_13h11.35.511,empathy_intonation_perc,2020.2.10,Win32,60,,,,,,,,,,0,,,,,,,,,,,,,,,,,,,,,,,,,,,,,,,,,,,,,,,,70,temblo,,,0,1,0.24761,0,63,63,69,1,REAL,FAKE,,,,,,,,,,,,,,,,,,,,,
,,,,,,,60105552a0d121342846b31a,605b45a4d25f287719a41696,605cc41669c8f13d7e3ca78b,Mexico,Northeast,13 or older,no,2021-03-25_13h11.35.511,empathy_intonation_perc,2020.2.10,Win32,60,,,,,,,,,,0,,,,,,,,,,,,,,,,,,,,,,,,,,,,,,,,,,,,,,,,19,brecedad,,,0,1,0.253805,0,64,64,18,1,REAL,FAKE,,,,,,,,,,,,,,,,,,,,,
,,,,,,,60105552a0d121342846b31a,605b45a4d25f287719a41696,605cc41669c8f13d7e3ca78b,Mexico,Northeast,13 or older,no,2021-03-25_13h11.35.511,empathy_intonation_perc,2020.2.10,Win32,60,,,,,,,,,,0,,,,,,,,,,,,,,,,,,,,,,,,,,,,,,,,,,,,,,,,50,flamida,,,0,1,0.248425,0,65,65,49,1,REAL,FAKE,,,,,,,,,,,,,,,,,,,,,
,,,,,,,60105552a0d121342846b31a,605b45a4d25f287719a41696,605cc41669c8f13d7e3ca78b,Mexico,Northeast,13 or older,no,2021-03-25_13h11.35.511,empathy_intonation_perc,2020.2.10,Win32,60,,,,,,,,,,0,,,,,,,,,,,,,,,,,,,,,,,,,,,,,,,,,,,,,,,,21,capillo,,,1,0,0.28701,0,66,66,20,1,REAL,FAKE,,,,,,,,,,,,,,,,,,,,,
,,,,,,,60105552a0d121342846b31a,605b45a4d25f287719a41696,605cc41669c8f13d7e3ca78b,Mexico,Northeast,13 or older,no,2021-03-25_13h11.35.511,empathy_intonation_perc,2020.2.10,Win32,60,,,,,,,,,,1,,,,,,,,,,,,,,,,,,,,,,,,,,,,,,,,,,,,,,,,77,tiburn,,,0,0,0.013735,0,67,67,76,1,REAL,FAKE,,,,,,,,,,,,,,,,,,,,,
,,,,,,,60105552a0d121342846b31a,605b45a4d25f287719a41696,605cc41669c8f13d7e3ca78b,Mexico,Northeast,13 or older,no,2021-03-25_13h11.35.511,empathy_intonation_perc,2020.2.10,Win32,60,,,,,,,,,,0,,,,,,,,,,,,,,,,,,,,,,,,,,,,,,,,,,,,,,,,4,batilln,,,1,0,0.268195,0,68,68,3,1,REAL,FAKE,,,,,,,,,,,,,,,,,,,,,
,,,,,,,60105552a0d121342846b31a,605b45a4d25f287719a41696,605cc41669c8f13d7e3ca78b,Mexico,Northeast,13 or older,no,2021-03-25_13h11.35.511,empathy_intonation_perc,2020.2.10,Win32,60,,,,,,,,,,1,,,,,,,,,,,,,,,,,,,,,,,,,,,,,,,,,,,,,,,,13,helar,,,0,0,0.147815,0,69,69,12,1,REAL,FAKE,,,,,,,,,,,,,,,,,,,,,
,,,,,,,60105552a0d121342846b31a,605b45a4d25f287719a41696,605cc41669c8f13d7e3ca78b,Mexico,Northeast,13 or older,no,2021-03-25_13h11.35.511,empathy_intonation_perc,2020.2.10,Win32,60,,,,,,,,,,0,,,,,,,,,,,,,,,,,,,,,,,,,,,,,,,,,,,,,,,,63,esposante,,,0,1,0.216165,0,70,70,62,1,REAL,FAKE,,,,,,,,,,,,,,,,,,,,,
,,,,,,,60105552a0d121342846b31a,605b45a4d25f287719a41696,605cc41669c8f13d7e3ca78b,Mexico,Northeast,13 or older,no,2021-03-25_13h11.35.511,empathy_intonation_perc,2020.2.10,Win32,60,,,,,,,,,,1,,,,,,,,,,,,,,,,,,,,,,,,,,,,,,,,,,,,,,,,81,pozo,,,1,1,0.04944,0,71,71,80,1,REAL,FAKE,,,,,,,,,,,,,,,,,,,,,
,,,,,,,60105552a0d121342846b31a,605b45a4d25f287719a41696,605cc41669c8f13d7e3ca78b,Mexico,Northeast,13 or older,no,2021-03-25_13h11.35.511,empathy_intonation_perc,2020.2.10,Win32,60,,,,,,,,,,1,,,,,,,,,,,,,,,,,,,,,,,,,,,,,,,,,,,,,,,,45,jilguero,,,1,1,0.337385,0,72,72,44,1,REAL,FAKE,,,,,,,,,,,,,,,,,,,,,
,,,,,,,60105552a0d121342846b31a,605b45a4d25f287719a41696,605cc41669c8f13d7e3ca78b,Mexico,Northeast,13 or older,no,2021-03-25_13h11.35.511,empathy_intonation_perc,2020.2.10,Win32,60,,,,,,,,,,1,,,,,,,,,,,,,,,,,,,,,,,,,,,,,,,,,,,,,,,,43,canela,,,0,0,0.163925,0,73,73,42,1,REAL,FAKE,,,,,,,,,,,,,,,,,,,,,
,,,,,,,60105552a0d121342846b31a,605b45a4d25f287719a41696,605cc41669c8f13d7e3ca78b,Mexico,Northeast,13 or older,no,2021-03-25_13h11.35.511,empathy_intonation_perc,2020.2.10,Win32,60,,,,,,,,,,1,,,,,,,,,,,,,,,,,,,,,,,,,,,,,,,,,,,,,,,,73,hervidor,,,0,0,0.27057,0,74,74,72,1,REAL,FAKE,,,,,,,,,,,,,,,,,,,,,
,,,,,,,60105552a0d121342846b31a,605b45a4d25f287719a41696,605cc41669c8f13d7e3ca78b,Mexico,Northeast,13 or older,no,2021-03-25_13h11.35.511,empathy_intonation_perc,2020.2.10,Win32,60,,,,,,,,,,0,,,,,,,,,,,,,,,,,,,,,,,,,,,,,,,,,,,,,,,,72,pemicin,,,0,1,0.031875,0,75,75,71,1,REAL,FAKE,,,,,,,,,,,,,,,,,,,,,
,,,,,,,60105552a0d121342846b31a,605b45a4d25f287719a41696,605cc41669c8f13d7e3ca78b,Mexico,Northeast,13 or older,no,2021-03-25_13h11.35.511,empathy_intonation_perc,2020.2.10,Win32,60,,,,,,,,,,1,,,,,,,,,,,,,,,,,,,,,,,,,,,,,,,,,,,,,,,,28,merodear,,,0,0,0.22906,0,76,76,27,1,REAL,FAKE,,,,,,,,,,,,,,,,,,,,,
,,,,,,,60105552a0d121342846b31a,605b45a4d25f287719a41696,605cc41669c8f13d7e3ca78b,Mexico,Northeast,13 or older,no,2021-03-25_13h11.35.511,empathy_intonation_perc,2020.2.10,Win32,60,,,,,,,,,,1,,,,,,,,,,,,,,,,,,,,,,,,,,,,,,,,,,,,,,,,46,martillo,,,1,1,0.061715,0,77,77,45,1,REAL,FAKE,,,,,,,,,,,,,,,,,,,,,
,,,,,,,60105552a0d121342846b31a,605b45a4d25f287719a41696,605cc41669c8f13d7e3ca78b,Mexico,Northeast,13 or older,no,2021-03-25_13h11.35.511,empathy_intonation_perc,2020.2.10,Win32,60,,,,,,,,,,0,,,,,,,,,,,,,,,,,,,,,,,,,,,,,,,,,,,,,,,,87,grodo,,,1,0,0.102115,0,78,78,86,1,REAL,FAKE,,,,,,,,,,,,,,,,,,,,,
,,,,,,,60105552a0d121342846b31a,605b45a4d25f287719a41696,605cc41669c8f13d7e3ca78b,Mexico,Northeast,13 or older,no,2021-03-25_13h11.35.511,empathy_intonation_perc,2020.2.10,Win32,60,,,,,,,,,,1,,,,,,,,,,,,,,,,,,,,,,,,,,,,,,,,,,,,,,,,85,lad,,,0,0,0.12993,0,79,79,84,1,REAL,FAKE,,,,,,,,,,,,,,,,,,,,,
,,,,,,,60105552a0d121342846b31a,605b45a4d25f287719a41696,605cc41669c8f13d7e3ca78b,Mexico,Northeast,13 or older,no,2021-03-25_13h11.35.511,empathy_intonation_perc,2020.2.10,Win32,60,,,,,,,,,,0,,,,,,,,,,,,,,,,,,,,,,,,,,,,,,,,,,,,,,,,58,plaudir,,,0,1,0.002545,0,80,80,57,1,REAL,FAKE,,,,,,,,,,,,,,,,,,,,,
,,,,,,,60105552a0d121342846b31a,605b45a4d25f287719a41696,605cc41669c8f13d7e3ca78b,Mexico,Northeast,13 or older,no,2021-03-25_13h11.35.511,empathy_intonation_perc,2020.2.10,Win32,60,,,,,,,,,,1,,,,,,,,,,,,,,,,,,,,,,,,,,,,,,,,,,,,,,,,69,engatusar,,,0,0,0.23007,0,81,81,68,1,REAL,FAKE,,,,,,,,,,,,,,,,,,,,,
,,,,,,,60105552a0d121342846b31a,605b45a4d25f287719a41696,605cc41669c8f13d7e3ca78b,Mexico,Northeast,13 or older,no,2021-03-25_13h11.35.511,empathy_intonation_perc,2020.2.10,Win32,60,,,,,,,,,,1,,,,,,,,,,,,,,,,,,,,,,,,,,,,,,,,,,,,,,,,12,asesinato,,,1,1,0.21235,0,82,82,11,1,REAL,FAKE,,,,,,,,,,,,,,,,,,,,,
,,,,,,,60105552a0d121342846b31a,605b45a4d25f287719a41696,605cc41669c8f13d7e3ca78b,Mexico,Northeast,13 or older,no,2021-03-25_13h11.35.511,empathy_intonation_perc,2020.2.10,Win32,60,,,,,,,,,,0,,,,,,,,,,,,,,,,,,,,,,,,,,,,,,,,,,,,,,,,74,cintro,,,1,0,0.06363,0,83,83,73,1,REAL,FAKE,,,,,,,,,,,,,,,,,,,,,
,,,,,,,60105552a0d121342846b31a,605b45a4d25f287719a41696,605cc41669c8f13d7e3ca78b,Mexico,Northeast,13 or older,no,2021-03-25_13h11.35.511,empathy_intonation_perc,2020.2.10,Win32,60,,,,,,,,,,1,,,,,,,,,,,,,,,,,,,,,,,,,,,,,,,,,,,,,,,,6,tergiversar,,,0,0,0.100435,0,84,84,5,1,REAL,FAKE,,,,,,,,,,,,,,,,,,,,,
,,,,,,,60105552a0d121342846b31a,605b45a4d25f287719a41696,605cc41669c8f13d7e3ca78b,Mexico,Northeast,13 or older,no,2021-03-25_13h11.35.511,empathy_intonation_perc,2020.2.10,Win32,60,,,,,,,,,,1,,,,,,,,,,,,,,,,,,,,,,,,,,,,,,,,,,,,,,,,44,cuchara,,,0,0,0.130915,0,85,85,43,1,REAL,FAKE,,,,,,,,,,,,,,,,,,,,,
,,,,,,,60105552a0d121342846b31a,605b45a4d25f287719a41696,605cc41669c8f13d7e3ca78b,Mexico,Northeast,13 or older,no,2021-03-25_13h11.35.511,empathy_intonation_perc,2020.2.10,Win32,60,,,,,,,,,,1,,,,,,,,,,,,,,,,,,,,,,,,,,,,,,,,,,,,,,,,22,lacayo,,,1,1,0.112045,0,86,86,21,1,REAL,FAKE,,,,,,,,,,,,,,,,,,,,,
,,,,,,,60105552a0d121342846b31a,605b45a4d25f287719a41696,605cc41669c8f13d7e3ca78b,Mexico,Northeast,13 or older,no,2021-03-25_13h11.35.511,empathy_intonation_perc,2020.2.10,Win32,60,,,,,,,,,,0,,,,,,,,,,,,,,,,,,,,,,,,,,,,,,,,,,,,,,,,66,hacido,,,1,0,0.1663,0,87,87,65,1,REAL,FAKE,,,,,,,,,,,,,,,,,,,,,
,,,,,,,60105552a0d121342846b31a,605b45a4d25f287719a41696,605cc41669c8f13d7e3ca78b,Mexico,Northeast,13 or older,no,2021-03-25_13h11.35.511,empathy_intonation_perc,2020.2.10,Win32,60,,,,,,,,,,1,,,,,,,,,,,,,,,,,,,,,,,,,,,,,,,,,,,,,,,,56,musgo,,,1,1,0.131905,0,88,88,55,1,REAL,FAKE,,,,,,,,,,,,,,,,,,,,,
,,,,,,,60105552a0d121342846b31a,605b45a4d25f287719a41696,605cc41669c8f13d7e3ca78b,Mexico,Northeast,13 or older,no,2021-03-25_13h11.35.511,empathy_intonation_perc,2020.2.10,Win32,60,,,,,,,,,,1,,,,,,,,,,,,,,,,,,,,,,,,,,,,,,,,,,,,,,,,65,bizcocho,,,0,0,0.03037,0,89,89,64,1,REAL,FAKE,,,,,,,,,,,,,,,,,,,,,
,,,,,,,60105552a0d121342846b31a,605b45a4d25f287719a41696,605cc41669c8f13d7e3ca78b,Mexico,Northeast,13 or older,no,2021-03-25_13h11.35.511,empathy_intonation_perc,2020.2.10,Win32,60,,,,,,,,,,,,,,,,,,,,,,,,,,,,,,,,,,,,,,,,,,,,,,,,,,,,,,,,,,,,,,,,4,1,4.45922,1,0,0,0,0,0,1,,,,,,,,,,,
,,,,,,,60105552a0d121342846b31a,605b45a4d25f287719a41696,605cc41669c8f13d7e3ca78b,Mexico,Northeast,13 or older,no,2021-03-25_13h11.35.511,empathy_intonation_perc,2020.2.10,Win32,60,,,,,,,,,,,,,,,,,,,,1,,,,,,,,,,,,,,,,,,,,,,,,,,,,,,,,,,,,,,,,,,,,,,,,,,,,,,1,0,0,0,0,1,I can easily tell if someone else wants to enter a conversation.,1,0,1,0
,,,,,,,60105552a0d121342846b31a,605b45a4d25f287719a41696,605cc41669c8f13d7e3ca78b,Mexico,Northeast,13 or older,no,2021-03-25_13h11.35.511,empathy_intonation_perc,2020.2.10,Win32,60,,,,,,,,,,,,,,,,,,,,2,,,,,,,,,,,,,,,,,,,,,,,,,,,,,,,,,,,,,,,,,,,,,,,,,,,,,,4,0,1,1,1,1,I prefer animals to humans.,0,1,0,0
,,,,,,,60105552a0d121342846b31a,605b45a4d25f287719a41696,605cc41669c8f13d7e3ca78b,Mexico,Northeast,13 or older,no,2021-03-25_13h11.35.511,empathy_intonation_perc,2020.2.10,Win32,60,,,,,,,,,,,,,,,,,,,,3,,,,,,,,,,,,,,,,,,,,,,,,,,,,,,,,,,,,,,,,,,,,,,,,,,,,,,2,0,2,2,2,1,I try to keep up with the current trends and fashions.,0,1,0,0
,,,,,,,60105552a0d121342846b31a,605b45a4d25f287719a41696,605cc41669c8f13d7e3ca78b,Mexico,Northeast,13 or older,no,2021-03-25_13h11.35.511,empathy_intonation_perc,2020.2.10,Win32,60,,,,,,,,,,,,,,,,,,,,4,,,,,,,,,,,,,,,,,,,,,,,,,,,,,,,,,,,,,,,,,,,,,,,,,,,,,,5,0,3,3,3,1,"I find it difficult to explain to others things that I understand easily, 
  when they dont understand it first time.",1,0,0,1
,,,,,,,60105552a0d121342846b31a,605b45a4d25f287719a41696,605cc41669c8f13d7e3ca78b,Mexico,Northeast,13 or older,no,2021-03-25_13h11.35.511,empathy_intonation_perc,2020.2.10,Win32,60,,,,,,,,,,,,,,,,,,,,5,,,,,,,,,,,,,,,,,,,,,,,,,,,,,,,,,,,,,,,,,,,,,,,,,,,,,,5,0,4,4,4,1,I dream most nights.,0,1,0,0
,,,,,,,60105552a0d121342846b31a,605b45a4d25f287719a41696,605cc41669c8f13d7e3ca78b,Mexico,Northeast,13 or older,no,2021-03-25_13h11.35.511,empathy_intonation_perc,2020.2.10,Win32,60,,,,,,,,,,,,,,,,,,,,6,,,,,,,,,,,,,,,,,,,,,,,,,,,,,,,,,,,,,,,,,,,,,,,,,,,,,,1,0,5,5,5,1,I really enjoy caring for other people.,1,0,1,0
,,,,,,,60105552a0d121342846b31a,605b45a4d25f287719a41696,605cc41669c8f13d7e3ca78b,Mexico,Northeast,13 or older,no,2021-03-25_13h11.35.511,empathy_intonation_perc,2020.2.10,Win32,60,,,,,,,,,,,,,,,,,,,,7,,,,,,,,,,,,,,,,,,,,,,,,,,,,,,,,,,,,,,,,,,,,,,,,,,,,,,4,0,6,6,6,1,I try to solve my own problems rather than discussing them with others.,0,1,0,0
,,,,,,,60105552a0d121342846b31a,605b45a4d25f287719a41696,605cc41669c8f13d7e3ca78b,Mexico,Northeast,13 or older,no,2021-03-25_13h11.35.511,empathy_intonation_perc,2020.2.10,Win32,60,,,,,,,,,,,,,,,,,,,,8,,,,,,,,,,,,,,,,,,,,,,,,,,,,,,,,,,,,,,,,,,,,,,,,,,,,,,2,0,7,7,7,1,I find it hard to know what to do in a social situation.,1,0,0,1
