instructions_2afc_loop.thisRepN,instructions_2afc_loop.thisTrialN,instructions_2afc_loop.thisN,instructions_2afc_loop.thisIndex,instructions_2afc_loop.ran,instructions_text,continue_text,participant,study_id,session,I am most familiar with Spanish from...*,What part of the US are you from?*,At what age did you begin learning Spanish?*,Are you proficient in any languages other than English/Spanish?*,date,expName,psychopyVersion,OS,frameRate,key_resp_2afc_practice.keys,key_resp_2afc_practice.corr,key_resp_2afc_practice.rt,trials_2afc_practice_loop.thisRepN,trials_2afc_practice_loop.thisTrialN,trials_2afc_practice_loop.thisN,trials_2afc_practice_loop.thisIndex,trials_2afc_practice_loop.ran,path,correct_response,the_col,key_resp_2afc_trial.keys,key_resp_2afc_trial.corr,key_resp_2afc_trial.rt,trials_2afc_loop.thisRepN,trials_2afc_loop.thisTrialN,trials_2afc_loop.thisN,trials_2afc_loop.thisIndex,trials_2afc_loop.ran,item_num,andalusian,argentine,castilian,chilean,cuban,mexican,peruvian,puertorican,key_resp_ac1.keys,key_resp_ac1.corr,key_resp_ac1.rt,ac1_loop.thisRepN,ac1_loop.thisTrialN,ac1_loop.thisN,ac1_loop.thisIndex,ac1_loop.ran,instructions_lextale_loop.thisRepN,instructions_lextale_loop.thisTrialN,instructions_lextale_loop.thisN,instructions_lextale_loop.thisIndex,instructions_lextale_loop.ran,key_resp_lextale_practice.keys,key_resp_lextale_practice.corr,key_resp_lextale_practice.rt,trials_lextale_practice_loop.thisRepN,trials_lextale_practice_loop.thisTrialN,trials_lextale_practice_loop.thisN,trials_lextale_practice_loop.thisIndex,trials_lextale_practice_loop.ran,stim,word,prac_button_real,prac_button_false,key_resp_lextale_trial.keys,key_resp_lextale_trial.corr,key_resp_lextale_trial.rt,trials_lextale_loop.thisRepN,trials_lextale_loop.thisTrialN,trials_lextale_loop.thisN,trials_lextale_loop.thisIndex,trials_lextale_loop.ran,button_real,button_false,key_resp_ac2.keys,key_resp_ac2.corr,key_resp_ac2.rt,check_pass,check_fails,ac2_loop.thisRepN,ac2_loop.thisTrialN,ac2_loop.thisN,ac2_loop.thisIndex,ac2_loop.ran,slider_eq_trial.response,trials_eq_loop.thisRepN,trials_eq_loop.thisTrialN,trials_eq_loop.thisN,trials_eq_loop.thisIndex,trials_eq_loop.ran,item,is_test_item,is_distractor,is_agree_score,is_disagree_score
0,0,0,0,1,"In the following task you are going to hear a series of utterances. 

  You will decide if the utterances sound like questions or not using your keyboard.",(press the spacebar to continue),601840b15165f20756c64e0f,605b45a4d25f287719a41696,605ccac1507848685cef3e51,Mexico,East coast,13 or older,no,2021-03-25_13h40.05.203,empathy_intonation_perc,2020.2.10,Win32,60,,,,,,,,,,,,,,,,,,,,,,,,,,,,,,,,,,,,,,,,,,,,,,,,,,,,,,,,,,,,,,,,,,,,,,,,,,,,,,,,,,,,
0,1,1,1,1,"If you believe the utterance is a question, type '1' (for 'yes') and if you do not 
  believe it is a question type '0' (for 'no').

  Let's practice a bit...",(press the spacebar to continue),601840b15165f20756c64e0f,605b45a4d25f287719a41696,605ccac1507848685cef3e51,Mexico,East coast,13 or older,no,2021-03-25_13h40.05.203,empathy_intonation_perc,2020.2.10,Win32,60,,,,,,,,,,,,,,,,,,,,,,,,,,,,,,,,,,,,,,,,,,,,,,,,,,,,,,,,,,,,,,,,,,,,,,,,,,,,,,,,,,,,
,,,,,,,601840b15165f20756c64e0f,605b45a4d25f287719a41696,605ccac1507848685cef3e51,Mexico,East coast,13 or older,no,2021-03-25_13h40.05.203,empathy_intonation_perc,2020.2.10,Win32,60,0,1,3.23517,0,0,0,7,1,./stim/wavs/puertorican_statement_filler_La-nina-pinta-con-su-amiga.wav,0,,,,,,,,,,,,,,,,,,,,,,,,,,,,,,,,,,,,,,,,,,,,,,,,,,,,,,,,,,,,,,,,,,,,,,,,,,
,,,,,,,601840b15165f20756c64e0f,605b45a4d25f287719a41696,605ccac1507848685cef3e51,Mexico,East coast,13 or older,no,2021-03-25_13h40.05.203,empathy_intonation_perc,2020.2.10,Win32,60,0,0,4.43412,0,1,1,3,1,./stim/wavs/mexican_question_filler_Felipe-no-tiene-contrasena.wav,1,,,,,,,,,,,,,,,,,,,,,,,,,,,,,,,,,,,,,,,,,,,,,,,,,,,,,,,,,,,,,,,,,,,,,,,,,,
,,,,,,,601840b15165f20756c64e0f,605b45a4d25f287719a41696,605ccac1507848685cef3e51,Mexico,East coast,13 or older,no,2021-03-25_13h40.05.203,empathy_intonation_perc,2020.2.10,Win32,60,0,0,2.003655,0,2,2,2,1,./stim/wavs/chilean_question_filler_Mi-padre-cantaba-bien.wav,1,,,,,,,,,,,,,,,,,,,,,,,,,,,,,,,,,,,,,,,,,,,,,,,,,,,,,,,,,,,,,,,,,,,,,,,,,,
,,,,,,,601840b15165f20756c64e0f,605b45a4d25f287719a41696,605ccac1507848685cef3e51,Mexico,East coast,13 or older,no,2021-03-25_13h40.05.203,empathy_intonation_perc,2020.2.10,Win32,60,0,1,2.55074,0,3,3,4,1,./stim/wavs/cuban_statement_filler_Cocinabas-por-la-noche.wav,0,,,,,,,,,,,,,,,,,,,,,,,,,,,,,,,,,,,,,,,,,,,,,,,,,,,,,,,,,,,,,,,,,,,,,,,,,,
,,,,,,,601840b15165f20756c64e0f,605b45a4d25f287719a41696,605ccac1507848685cef3e51,Mexico,East coast,13 or older,no,2021-03-25_13h40.05.203,empathy_intonation_perc,2020.2.10,Win32,60,1,0,1.90057,0,4,4,5,1,./stim/wavs/andalusian_statement_filler_Alberto-nunca-se-afeita.wav,0,,,,,,,,,,,,,,,,,,,,,,,,,,,,,,,,,,,,,,,,,,,,,,,,,,,,,,,,,,,,,,,,,,,,,,,,,,
,,,,,,,601840b15165f20756c64e0f,605b45a4d25f287719a41696,605ccac1507848685cef3e51,Mexico,East coast,13 or older,no,2021-03-25_13h40.05.203,empathy_intonation_perc,2020.2.10,Win32,60,1,1,1.72231,0,5,5,1,1,./stim/wavs/argentine_question_filler_Mi-vecino-habla-mucho.wav,1,,,,,,,,,,,,,,,,,,,,,,,,,,,,,,,,,,,,,,,,,,,,,,,,,,,,,,,,,,,,,,,,,,,,,,,,,,
,,,,,,,601840b15165f20756c64e0f,605b45a4d25f287719a41696,605ccac1507848685cef3e51,Mexico,East coast,13 or older,no,2021-03-25_13h40.05.203,empathy_intonation_perc,2020.2.10,Win32,60,1,1,2.46022,0,6,6,0,1,./stim/wavs/castilian_question_filler_Mi-esposo-conoce-al-chico.wav,1,,,,,,,,,,,,,,,,,,,,,,,,,,,,,,,,,,,,,,,,,,,,,,,,,,,,,,,,,,,,,,,,,,,,,,,,,,
,,,,,,,601840b15165f20756c64e0f,605b45a4d25f287719a41696,605ccac1507848685cef3e51,Mexico,East coast,13 or older,no,2021-03-25_13h40.05.203,empathy_intonation_perc,2020.2.10,Win32,60,0,1,2.2194,0,7,7,6,1,./stim/wavs/peruvian_statement_filler_El-nino-habla-con-su-madre.wav,0,,,,,,,,,,,,,,,,,,,,,,,,,,,,,,,,,,,,,,,,,,,,,,,,,,,,,,,,,,,,,,,,,,,,,,,,,,
,,,,,,,601840b15165f20756c64e0f,605b45a4d25f287719a41696,605ccac1507848685cef3e51,Mexico,East coast,13 or older,no,2021-03-25_13h40.05.203,empathy_intonation_perc,2020.2.10,Win32,60,,,,,,,,,,1,argentine,0,0,1.70734,0,0,0,61,1,62,./stim/wavs/andalusian_mismatch_interrogative-total-yn_Mi-madre-come-la-fruta.wav,./stim/wavs/argentine_mismatch_interrogative-total-yn_Mi-madre-come-la-fruta.wav,./stim/wavs/castilian_mismatch_interrogative-total-yn_Mi-madre-come-la-fruta.wav,./stim/wavs/chilean_mismatch_interrogative-total-yn_Mi-madre-come-la-fruta.wav,./stim/wavs/cuban_mismatch_interrogative-total-yn_Mi-madre-come-la-fruta.wav,./stim/wavs/mexican_mismatch_interrogative-total-yn_Mi-madre-come-la-fruta.wav,./stim/wavs/peruvian_mismatch_interrogative-total-yn_Mi-madre-come-la-fruta.wav,./stim/wavs/puertorican_mismatch_interrogative-total-yn_Mi-madre-come-la-fruta.wav,,,,,,,,,,,,,,,,,,,,,,,,,,,,,,,,,,,,,,,,,,,,,,,,,,,,,,,,
,,,,,,,601840b15165f20756c64e0f,605b45a4d25f287719a41696,605ccac1507848685cef3e51,Mexico,East coast,13 or older,no,2021-03-25_13h40.05.203,empathy_intonation_perc,2020.2.10,Win32,60,,,,,,,,,,1,cuban,0,0,1.608395,0,1,1,57,1,58,./stim/wavs/andalusian_mismatch_interrogative-total-yn_El-hombre-mira-la-luna.wav,./stim/wavs/argentine_mismatch_interrogative-total-yn_El-hombre-mira-la-luna.wav,./stim/wavs/castilian_mismatch_interrogative-total-yn_El-hombre-mira-la-luna.wav,./stim/wavs/chilean_mismatch_interrogative-total-yn_El-hombre-mira-la-luna.wav,./stim/wavs/cuban_mismatch_interrogative-total-yn_El-hombre-mira-la-luna.wav,./stim/wavs/mexican_mismatch_interrogative-total-yn_El-hombre-mira-la-luna.wav,./stim/wavs/peruvian_mismatch_interrogative-total-yn_El-hombre-mira-la-luna.wav,./stim/wavs/puertorican_mismatch_interrogative-total-yn_El-hombre-mira-la-luna.wav,,,,,,,,,,,,,,,,,,,,,,,,,,,,,,,,,,,,,,,,,,,,,,,,,,,,,,,,
,,,,,,,601840b15165f20756c64e0f,605b45a4d25f287719a41696,605ccac1507848685cef3e51,Mexico,East coast,13 or older,no,2021-03-25_13h40.05.203,empathy_intonation_perc,2020.2.10,Win32,60,,,,,,,,,,1,castilian,1,1,1.639045,0,2,2,21,1,22,./stim/wavs/andalusian_match_interrogative-partial-wh_Por-que-ama-la-navidad.wav,./stim/wavs/argentine_match_interrogative-partial-wh_Por-que-ama-la-navidad.wav,./stim/wavs/castilian_match_interrogative-partial-wh_Por-que-ama-la-navidad.wav,./stim/wavs/chilean_match_interrogative-partial-wh_Por-que-ama-la-navidad.wav,./stim/wavs/cuban_match_interrogative-partial-wh_Por-que-ama-la-navidad.wav,./stim/wavs/mexican_match_interrogative-partial-wh_Por-que-ama-la-navidad.wav,./stim/wavs/peruvian_match_interrogative-partial-wh_Por-que-ama-la-navidad.wav,./stim/wavs/puertorican_match_interrogative-partial-wh_Por-que-ama-la-navidad.wav,,,,,,,,,,,,,,,,,,,,,,,,,,,,,,,,,,,,,,,,,,,,,,,,,,,,,,,,
,,,,,,,601840b15165f20756c64e0f,605b45a4d25f287719a41696,605ccac1507848685cef3e51,Mexico,East coast,13 or older,no,2021-03-25_13h40.05.203,empathy_intonation_perc,2020.2.10,Win32,60,,,,,,,,,,1,mexican,1,1,1.651175,0,3,3,23,1,24,./stim/wavs/andalusian_match_interrogative-partial-wh_Por-que-iba-a-Bolivia.wav,./stim/wavs/argentine_match_interrogative-partial-wh_Por-que-iba-a-Bolivia.wav,./stim/wavs/castilian_match_interrogative-partial-wh_Por-que-iba-a-Bolivia.wav,./stim/wavs/chilean_match_interrogative-partial-wh_Por-que-iba-a-Bolivia.wav,./stim/wavs/cuban_match_interrogative-partial-wh_Por-que-iba-a-Bolivia.wav,./stim/wavs/mexican_match_interrogative-partial-wh_Por-que-iba-a-Bolivia.wav,./stim/wavs/peruvian_match_interrogative-partial-wh_Por-que-iba-a-Bolivia.wav,./stim/wavs/puertorican_match_interrogative-partial-wh_Por-que-iba-a-Bolivia.wav,,,,,,,,,,,,,,,,,,,,,,,,,,,,,,,,,,,,,,,,,,,,,,,,,,,,,,,,
,,,,,,,601840b15165f20756c64e0f,605b45a4d25f287719a41696,605ccac1507848685cef3e51,Mexico,East coast,13 or older,no,2021-03-25_13h40.05.203,empathy_intonation_perc,2020.2.10,Win32,60,,,,,,,,,,0,chilean,0,1,1.357065,0,4,4,9,1,10,./stim/wavs/andalusian_match_declarative-narrow-focus_Daniel-iba-a-Bolivia.wav,./stim/wavs/argentine_match_declarative-narrow-focus_Daniel-iba-a-Bolivia.wav,./stim/wavs/castilian_match_declarative-narrow-focus_Daniel-iba-a-Bolivia.wav,./stim/wavs/chilean_match_declarative-narrow-focus_Daniel-iba-a-Bolivia.wav,./stim/wavs/cuban_match_declarative-narrow-focus_Daniel-iba-a-Bolivia.wav,./stim/wavs/mexican_match_declarative-narrow-focus_Daniel-iba-a-Bolivia.wav,./stim/wavs/peruvian_match_declarative-narrow-focus_Daniel-iba-a-Bolivia.wav,./stim/wavs/puertorican_match_declarative-narrow-focus_Daniel-iba-a-Bolivia.wav,,,,,,,,,,,,,,,,,,,,,,,,,,,,,,,,,,,,,,,,,,,,,,,,,,,,,,,,
,,,,,,,601840b15165f20756c64e0f,605b45a4d25f287719a41696,605ccac1507848685cef3e51,Mexico,East coast,13 or older,no,2021-03-25_13h40.05.203,empathy_intonation_perc,2020.2.10,Win32,60,,,,,,,,,,0,mexican,0,1,1.608255,0,5,5,4,1,5,./stim/wavs/andalusian_match_declarative-broad-focus_Manuela-vende-el-carro.wav,./stim/wavs/argentine_match_declarative-broad-focus_Manuela-vende-el-carro.wav,./stim/wavs/castilian_match_declarative-broad-focus_Manuela-vende-el-carro.wav,./stim/wavs/chilean_match_declarative-broad-focus_Manuela-vende-el-carro.wav,./stim/wavs/cuban_match_declarative-broad-focus_Manuela-vende-el-carro.wav,./stim/wavs/mexican_match_declarative-broad-focus_Manuela-vende-el-carro.wav,./stim/wavs/peruvian_match_declarative-broad-focus_Manuela-vende-el-carro.wav,./stim/wavs/puertorican_match_declarative-broad-focus_Manuela-vende-el-carro.wav,,,,,,,,,,,,,,,,,,,,,,,,,,,,,,,,,,,,,,,,,,,,,,,,,,,,,,,,
,,,,,,,601840b15165f20756c64e0f,605b45a4d25f287719a41696,605ccac1507848685cef3e51,Mexico,East coast,13 or older,no,2021-03-25_13h40.05.203,empathy_intonation_perc,2020.2.10,Win32,60,,,,,,,,,,0,mexican,0,1,1.701495,0,6,6,5,1,6,./stim/wavs/andalusian_match_declarative-broad-focus_Maria-bebe-el-vino.wav,./stim/wavs/argentine_match_declarative-broad-focus_Maria-bebe-el-vino.wav,./stim/wavs/castilian_match_declarative-broad-focus_Maria-bebe-el-vino.wav,./stim/wavs/chilean_match_declarative-broad-focus_Maria-bebe-el-vino.wav,./stim/wavs/cuban_match_declarative-broad-focus_Maria-bebe-el-vino.wav,./stim/wavs/mexican_match_declarative-broad-focus_Maria-bebe-el-vino.wav,./stim/wavs/peruvian_match_declarative-broad-focus_Maria-bebe-el-vino.wav,./stim/wavs/puertorican_match_declarative-broad-focus_Maria-bebe-el-vino.wav,,,,,,,,,,,,,,,,,,,,,,,,,,,,,,,,,,,,,,,,,,,,,,,,,,,,,,,,
,,,,,,,601840b15165f20756c64e0f,605b45a4d25f287719a41696,605ccac1507848685cef3e51,Mexico,East coast,13 or older,no,2021-03-25_13h40.05.203,empathy_intonation_perc,2020.2.10,Win32,60,,,,,,,,,,0,cuban,0,1,1.716825,0,7,7,15,1,16,./stim/wavs/andalusian_match_declarative-narrow-focus_Marta-abre-el-regalo.wav,./stim/wavs/argentine_match_declarative-narrow-focus_Marta-abre-el-regalo.wav,./stim/wavs/castilian_match_declarative-narrow-focus_Marta-abre-el-regalo.wav,./stim/wavs/chilean_match_declarative-narrow-focus_Marta-abre-el-regalo.wav,./stim/wavs/cuban_match_declarative-narrow-focus_Marta-abre-el-regalo.wav,./stim/wavs/mexican_match_declarative-narrow-focus_Marta-abre-el-regalo.wav,./stim/wavs/peruvian_match_declarative-narrow-focus_Marta-abre-el-regalo.wav,./stim/wavs/puertorican_match_declarative-narrow-focus_Marta-abre-el-regalo.wav,,,,,,,,,,,,,,,,,,,,,,,,,,,,,,,,,,,,,,,,,,,,,,,,,,,,,,,,
,,,,,,,601840b15165f20756c64e0f,605b45a4d25f287719a41696,605ccac1507848685cef3e51,Mexico,East coast,13 or older,no,2021-03-25_13h40.05.203,empathy_intonation_perc,2020.2.10,Win32,60,,,,,,,,,,0,chilean,0,1,1.974625,0,8,8,2,1,3,./stim/wavs/andalusian_match_declarative-broad-focus_David-leia-el-libro.wav,./stim/wavs/argentine_match_declarative-broad-focus_David-leia-el-libro.wav,./stim/wavs/castilian_match_declarative-broad-focus_David-leia-el-libro.wav,./stim/wavs/chilean_match_declarative-broad-focus_David-leia-el-libro.wav,./stim/wavs/cuban_match_declarative-broad-focus_David-leia-el-libro.wav,./stim/wavs/mexican_match_declarative-broad-focus_David-leia-el-libro.wav,./stim/wavs/peruvian_match_declarative-broad-focus_David-leia-el-libro.wav,./stim/wavs/puertorican_match_declarative-broad-focus_David-leia-el-libro.wav,,,,,,,,,,,,,,,,,,,,,,,,,,,,,,,,,,,,,,,,,,,,,,,,,,,,,,,,
,,,,,,,601840b15165f20756c64e0f,605b45a4d25f287719a41696,605ccac1507848685cef3e51,Mexico,East coast,13 or older,no,2021-03-25_13h40.05.203,empathy_intonation_perc,2020.2.10,Win32,60,,,,,,,,,,1,castilian,1,1,2.773925,0,9,9,58,1,59,./stim/wavs/andalusian_mismatch_interrogative-total-yn_El-nino-oye-el-rio.wav,./stim/wavs/argentine_mismatch_interrogative-total-yn_El-nino-oye-el-rio.wav,./stim/wavs/castilian_mismatch_interrogative-total-yn_El-nino-oye-el-rio.wav,./stim/wavs/chilean_mismatch_interrogative-total-yn_El-nino-oye-el-rio.wav,./stim/wavs/cuban_mismatch_interrogative-total-yn_El-nino-oye-el-rio.wav,./stim/wavs/mexican_mismatch_interrogative-total-yn_El-nino-oye-el-rio.wav,./stim/wavs/peruvian_mismatch_interrogative-total-yn_El-nino-oye-el-rio.wav,./stim/wavs/puertorican_mismatch_interrogative-total-yn_El-nino-oye-el-rio.wav,,,,,,,,,,,,,,,,,,,,,,,,,,,,,,,,,,,,,,,,,,,,,,,,,,,,,,,,
,,,,,,,601840b15165f20756c64e0f,605b45a4d25f287719a41696,605ccac1507848685cef3e51,Mexico,East coast,13 or older,no,2021-03-25_13h40.05.203,empathy_intonation_perc,2020.2.10,Win32,60,,,,,,,,,,1,andalusian,1,1,2.289625,0,10,10,17,1,18,./stim/wavs/andalusian_match_interrogative-partial-wh_Cuando-leia-el-libro.wav,./stim/wavs/argentine_match_interrogative-partial-wh_Cuando-leia-el-libro.wav,./stim/wavs/castilian_match_interrogative-partial-wh_Cuando-leia-el-libro.wav,./stim/wavs/chilean_match_interrogative-partial-wh_Cuando-leia-el-libro.wav,./stim/wavs/cuban_match_interrogative-partial-wh_Cuando-leia-el-libro.wav,./stim/wavs/mexican_match_interrogative-partial-wh_Cuando-leia-el-libro.wav,./stim/wavs/peruvian_match_interrogative-partial-wh_Cuando-leia-el-libro.wav,./stim/wavs/puertorican_match_interrogative-partial-wh_Cuando-leia-el-libro.wav,,,,,,,,,,,,,,,,,,,,,,,,,,,,,,,,,,,,,,,,,,,,,,,,,,,,,,,,
,,,,,,,601840b15165f20756c64e0f,605b45a4d25f287719a41696,605ccac1507848685cef3e51,Mexico,East coast,13 or older,no,2021-03-25_13h40.05.203,empathy_intonation_perc,2020.2.10,Win32,60,,,,,,,,,,1,peruvian,0,0,1.967585,0,11,11,25,1,26,./stim/wavs/andalusian_match_interrogative-total-yn_Daniel-iba-a-Bolivia.wav,./stim/wavs/argentine_match_interrogative-total-yn_Daniel-iba-a-Bolivia.wav,./stim/wavs/castilian_match_interrogative-total-yn_Daniel-iba-a-Bolivia.wav,./stim/wavs/chilean_match_interrogative-total-yn_Daniel-iba-a-Bolivia.wav,./stim/wavs/cuban_match_interrogative-total-yn_Daniel-iba-a-Bolivia.wav,./stim/wavs/mexican_match_interrogative-total-yn_Daniel-iba-a-Bolivia.wav,./stim/wavs/peruvian_match_interrogative-total-yn_Daniel-iba-a-Bolivia.wav,./stim/wavs/puertorican_match_interrogative-total-yn_Daniel-iba-a-Bolivia.wav,,,,,,,,,,,,,,,,,,,,,,,,,,,,,,,,,,,,,,,,,,,,,,,,,,,,,,,,
,,,,,,,601840b15165f20756c64e0f,605b45a4d25f287719a41696,605ccac1507848685cef3e51,Mexico,East coast,13 or older,no,2021-03-25_13h40.05.203,empathy_intonation_perc,2020.2.10,Win32,60,,,,,,,,,,0,chilean,0,1,1.942845,0,12,12,32,1,33,./stim/wavs/andalusian_mismatch_declarative-broad-focus_El-bebe-comia-muy-bien.wav,./stim/wavs/argentine_mismatch_declarative-broad-focus_El-bebe-comia-muy-bien.wav,./stim/wavs/castilian_mismatch_declarative-broad-focus_El-bebe-comia-muy-bien.wav,./stim/wavs/chilean_mismatch_declarative-broad-focus_El-bebe-comia-muy-bien.wav,./stim/wavs/cuban_mismatch_declarative-broad-focus_El-bebe-comia-muy-bien.wav,./stim/wavs/mexican_mismatch_declarative-broad-focus_El-bebe-comia-muy-bien.wav,./stim/wavs/peruvian_mismatch_declarative-broad-focus_El-bebe-comia-muy-bien.wav,./stim/wavs/puertorican_mismatch_declarative-broad-focus_El-bebe-comia-muy-bien.wav,,,,,,,,,,,,,,,,,,,,,,,,,,,,,,,,,,,,,,,,,,,,,,,,,,,,,,,,
,,,,,,,601840b15165f20756c64e0f,605b45a4d25f287719a41696,605ccac1507848685cef3e51,Mexico,East coast,13 or older,no,2021-03-25_13h40.05.203,empathy_intonation_perc,2020.2.10,Win32,60,,,,,,,,,,0,argentine,0,1,2.426105,0,13,13,46,1,47,./stim/wavs/andalusian_mismatch_declarative-narrow-focus_Mi-novio-viene-del-lago.wav,./stim/wavs/argentine_mismatch_declarative-narrow-focus_Mi-novio-viene-del-lago.wav,./stim/wavs/castilian_mismatch_declarative-narrow-focus_Mi-novio-viene-del-lago.wav,./stim/wavs/chilean_mismatch_declarative-narrow-focus_Mi-novio-viene-del-lago.wav,./stim/wavs/cuban_mismatch_declarative-narrow-focus_Mi-novio-viene-del-lago.wav,./stim/wavs/mexican_mismatch_declarative-narrow-focus_Mi-novio-viene-del-lago.wav,./stim/wavs/peruvian_mismatch_declarative-narrow-focus_Mi-novio-viene-del-lago.wav,./stim/wavs/puertorican_mismatch_declarative-narrow-focus_Mi-novio-viene-del-lago.wav,,,,,,,,,,,,,,,,,,,,,,,,,,,,,,,,,,,,,,,,,,,,,,,,,,,,,,,,
,,,,,,,601840b15165f20756c64e0f,605b45a4d25f287719a41696,605ccac1507848685cef3e51,Mexico,East coast,13 or older,no,2021-03-25_13h40.05.203,empathy_intonation_perc,2020.2.10,Win32,60,,,,,,,,,,1,argentine,1,1,1.617435,0,14,14,54,1,55,./stim/wavs/andalusian_mismatch_interrogative-partial-wh_Por-que-venia-del-lago.wav,./stim/wavs/argentine_mismatch_interrogative-partial-wh_Por-que-venia-del-lago.wav,./stim/wavs/castilian_mismatch_interrogative-partial-wh_Por-que-venia-del-lago.wav,./stim/wavs/chilean_mismatch_interrogative-partial-wh_Por-que-venia-del-lago.wav,./stim/wavs/cuban_mismatch_interrogative-partial-wh_Por-que-venia-del-lago.wav,./stim/wavs/mexican_mismatch_interrogative-partial-wh_Por-que-venia-del-lago.wav,./stim/wavs/peruvian_mismatch_interrogative-partial-wh_Por-que-venia-del-lago.wav,./stim/wavs/puertorican_mismatch_interrogative-partial-wh_Por-que-venia-del-lago.wav,,,,,,,,,,,,,,,,,,,,,,,,,,,,,,,,,,,,,,,,,,,,,,,,,,,,,,,,
,,,,,,,601840b15165f20756c64e0f,605b45a4d25f287719a41696,605ccac1507848685cef3e51,Mexico,East coast,13 or older,no,2021-03-25_13h40.05.203,empathy_intonation_perc,2020.2.10,Win32,60,,,,,,,,,,0,mexican,0,1,1.51783,0,15,15,11,1,12,./stim/wavs/andalusian_match_declarative-narrow-focus_Emilio-ama-la-marcha.wav,./stim/wavs/argentine_match_declarative-narrow-focus_Emilio-ama-la-marcha.wav,./stim/wavs/castilian_match_declarative-narrow-focus_Emilio-ama-la-marcha.wav,./stim/wavs/chilean_match_declarative-narrow-focus_Emilio-ama-la-marcha.wav,./stim/wavs/cuban_match_declarative-narrow-focus_Emilio-ama-la-marcha.wav,./stim/wavs/mexican_match_declarative-narrow-focus_Emilio-ama-la-marcha.wav,./stim/wavs/peruvian_match_declarative-narrow-focus_Emilio-ama-la-marcha.wav,./stim/wavs/puertorican_match_declarative-narrow-focus_Emilio-ama-la-marcha.wav,,,,,,,,,,,,,,,,,,,,,,,,,,,,,,,,,,,,,,,,,,,,,,,,,,,,,,,,
,,,,,,,601840b15165f20756c64e0f,605b45a4d25f287719a41696,605ccac1507848685cef3e51,Mexico,East coast,13 or older,no,2021-03-25_13h40.05.203,empathy_intonation_perc,2020.2.10,Win32,60,,,,,,,,,,1,cuban,0,0,1.694885,0,16,16,29,1,30,./stim/wavs/andalusian_match_interrogative-total-yn_Maria-bebe-el-vino.wav,./stim/wavs/argentine_match_interrogative-total-yn_Maria-bebe-el-vino.wav,./stim/wavs/castilian_match_interrogative-total-yn_Maria-bebe-el-vino.wav,./stim/wavs/chilean_match_interrogative-total-yn_Maria-bebe-el-vino.wav,./stim/wavs/cuban_match_interrogative-total-yn_Maria-bebe-el-vino.wav,./stim/wavs/mexican_match_interrogative-total-yn_Maria-bebe-el-vino.wav,./stim/wavs/peruvian_match_interrogative-total-yn_Maria-bebe-el-vino.wav,./stim/wavs/puertorican_match_interrogative-total-yn_Maria-bebe-el-vino.wav,,,,,,,,,,,,,,,,,,,,,,,,,,,,,,,,,,,,,,,,,,,,,,,,,,,,,,,,
,,,,,,,601840b15165f20756c64e0f,605b45a4d25f287719a41696,605ccac1507848685cef3e51,Mexico,East coast,13 or older,no,2021-03-25_13h40.05.203,empathy_intonation_perc,2020.2.10,Win32,60,,,,,,,,,,0,chilean,0,1,1.816925,0,17,17,44,1,45,./stim/wavs/andalusian_mismatch_declarative-narrow-focus_La-nina-lava-el-plato.wav,./stim/wavs/argentine_mismatch_declarative-narrow-focus_La-nina-lava-el-plato.wav,./stim/wavs/castilian_mismatch_declarative-narrow-focus_La-nina-lava-el-plato.wav,./stim/wavs/chilean_mismatch_declarative-narrow-focus_La-nina-lava-el-plato.wav,./stim/wavs/cuban_mismatch_declarative-narrow-focus_La-nina-lava-el-plato.wav,./stim/wavs/mexican_mismatch_declarative-narrow-focus_La-nina-lava-el-plato.wav,./stim/wavs/peruvian_mismatch_declarative-narrow-focus_La-nina-lava-el-plato.wav,./stim/wavs/puertorican_mismatch_declarative-narrow-focus_La-nina-lava-el-plato.wav,,,,,,,,,,,,,,,,,,,,,,,,,,,,,,,,,,,,,,,,,,,,,,,,,,,,,,,,
,,,,,,,601840b15165f20756c64e0f,605b45a4d25f287719a41696,605ccac1507848685cef3e51,Mexico,East coast,13 or older,no,2021-03-25_13h40.05.203,empathy_intonation_perc,2020.2.10,Win32,60,,,,,,,,,,1,chilean,0,0,2.1691,0,18,18,30,1,31,./stim/wavs/andalusian_match_interrogative-total-yn_Mariano-habla-del-tiempo.wav,./stim/wavs/argentine_match_interrogative-total-yn_Mariano-habla-del-tiempo.wav,./stim/wavs/castilian_match_interrogative-total-yn_Mariano-habla-del-tiempo.wav,./stim/wavs/chilean_match_interrogative-total-yn_Mariano-habla-del-tiempo.wav,./stim/wavs/cuban_match_interrogative-total-yn_Mariano-habla-del-tiempo.wav,./stim/wavs/mexican_match_interrogative-total-yn_Mariano-habla-del-tiempo.wav,./stim/wavs/peruvian_match_interrogative-total-yn_Mariano-habla-del-tiempo.wav,./stim/wavs/puertorican_match_interrogative-total-yn_Mariano-habla-del-tiempo.wav,,,,,,,,,,,,,,,,,,,,,,,,,,,,,,,,,,,,,,,,,,,,,,,,,,,,,,,,
,,,,,,,601840b15165f20756c64e0f,605b45a4d25f287719a41696,605ccac1507848685cef3e51,Mexico,East coast,13 or older,no,2021-03-25_13h40.05.203,empathy_intonation_perc,2020.2.10,Win32,60,,,,,,,,,,0,mexican,0,1,1.58702,0,19,19,36,1,37,./stim/wavs/andalusian_mismatch_declarative-broad-focus_La-nina-lava-el-plato.wav,./stim/wavs/argentine_mismatch_declarative-broad-focus_La-nina-lava-el-plato.wav,./stim/wavs/castilian_mismatch_declarative-broad-focus_La-nina-lava-el-plato.wav,./stim/wavs/chilean_mismatch_declarative-broad-focus_La-nina-lava-el-plato.wav,./stim/wavs/cuban_mismatch_declarative-broad-focus_La-nina-lava-el-plato.wav,./stim/wavs/mexican_mismatch_declarative-broad-focus_La-nina-lava-el-plato.wav,./stim/wavs/peruvian_mismatch_declarative-broad-focus_La-nina-lava-el-plato.wav,./stim/wavs/puertorican_mismatch_declarative-broad-focus_La-nina-lava-el-plato.wav,,,,,,,,,,,,,,,,,,,,,,,,,,,,,,,,,,,,,,,,,,,,,,,,,,,,,,,,
,,,,,,,601840b15165f20756c64e0f,605b45a4d25f287719a41696,605ccac1507848685cef3e51,Mexico,East coast,13 or older,no,2021-03-25_13h40.05.203,empathy_intonation_perc,2020.2.10,Win32,60,,,,,,,,,,1,andalusian,1,1,1.91801,0,20,20,16,1,17,./stim/wavs/andalusian_match_interrogative-partial-wh_Cuando-bebia-el-vino.wav,./stim/wavs/argentine_match_interrogative-partial-wh_Cuando-bebia-el-vino.wav,./stim/wavs/castilian_match_interrogative-partial-wh_Cuando-bebia-el-vino.wav,./stim/wavs/chilean_match_interrogative-partial-wh_Cuando-bebia-el-vino.wav,./stim/wavs/cuban_match_interrogative-partial-wh_Cuando-bebia-el-vino.wav,./stim/wavs/mexican_match_interrogative-partial-wh_Cuando-bebia-el-vino.wav,./stim/wavs/peruvian_match_interrogative-partial-wh_Cuando-bebia-el-vino.wav,./stim/wavs/puertorican_match_interrogative-partial-wh_Cuando-bebia-el-vino.wav,,,,,,,,,,,,,,,,,,,,,,,,,,,,,,,,,,,,,,,,,,,,,,,,,,,,,,,,
,,,,,,,601840b15165f20756c64e0f,605b45a4d25f287719a41696,605ccac1507848685cef3e51,Mexico,East coast,13 or older,no,2021-03-25_13h40.05.203,empathy_intonation_perc,2020.2.10,Win32,60,,,,,,,,,,0,andalusian,0,1,2.216805,0,21,21,14,1,15,./stim/wavs/andalusian_match_declarative-narrow-focus_Mariano-habla-del-tiempo.wav,./stim/wavs/argentine_match_declarative-narrow-focus_Mariano-habla-del-tiempo.wav,./stim/wavs/castilian_match_declarative-narrow-focus_Mariano-habla-del-tiempo.wav,./stim/wavs/chilean_match_declarative-narrow-focus_Mariano-habla-del-tiempo.wav,./stim/wavs/cuban_match_declarative-narrow-focus_Mariano-habla-del-tiempo.wav,./stim/wavs/mexican_match_declarative-narrow-focus_Mariano-habla-del-tiempo.wav,./stim/wavs/peruvian_match_declarative-narrow-focus_Mariano-habla-del-tiempo.wav,./stim/wavs/puertorican_match_declarative-narrow-focus_Mariano-habla-del-tiempo.wav,,,,,,,,,,,,,,,,,,,,,,,,,,,,,,,,,,,,,,,,,,,,,,,,,,,,,,,,
,,,,,,,601840b15165f20756c64e0f,605b45a4d25f287719a41696,605ccac1507848685cef3e51,Mexico,East coast,13 or older,no,2021-03-25_13h40.05.203,empathy_intonation_perc,2020.2.10,Win32,60,,,,,,,,,,1,mexican,1,1,1.5505,0,22,22,55,1,56,./stim/wavs/andalusian_mismatch_interrogative-partial-wh_Por-que-vivia-en-Paris.wav,./stim/wavs/argentine_mismatch_interrogative-partial-wh_Por-que-vivia-en-Paris.wav,./stim/wavs/castilian_mismatch_interrogative-partial-wh_Por-que-vivia-en-Paris.wav,./stim/wavs/chilean_mismatch_interrogative-partial-wh_Por-que-vivia-en-Paris.wav,./stim/wavs/cuban_mismatch_interrogative-partial-wh_Por-que-vivia-en-Paris.wav,./stim/wavs/mexican_mismatch_interrogative-partial-wh_Por-que-vivia-en-Paris.wav,./stim/wavs/peruvian_mismatch_interrogative-partial-wh_Por-que-vivia-en-Paris.wav,./stim/wavs/puertorican_mismatch_interrogative-partial-wh_Por-que-vivia-en-Paris.wav,,,,,,,,,,,,,,,,,,,,,,,,,,,,,,,,,,,,,,,,,,,,,,,,,,,,,,,,
,,,,,,,601840b15165f20756c64e0f,605b45a4d25f287719a41696,605ccac1507848685cef3e51,Mexico,East coast,13 or older,no,2021-03-25_13h40.05.203,empathy_intonation_perc,2020.2.10,Win32,60,,,,,,,,,,1,andalusian,1,1,1.49921,0,23,23,22,1,23,./stim/wavs/andalusian_match_interrogative-partial-wh_Por-que-hablaba-del-agua.wav,./stim/wavs/argentine_match_interrogative-partial-wh_Por-que-hablaba-del-agua.wav,./stim/wavs/castilian_match_interrogative-partial-wh_Por-que-hablaba-del-agua.wav,./stim/wavs/chilean_match_interrogative-partial-wh_Por-que-hablaba-del-agua.wav,./stim/wavs/cuban_match_interrogative-partial-wh_Por-que-hablaba-del-agua.wav,./stim/wavs/mexican_match_interrogative-partial-wh_Por-que-hablaba-del-agua.wav,./stim/wavs/peruvian_match_interrogative-partial-wh_Por-que-hablaba-del-agua.wav,./stim/wavs/puertorican_match_interrogative-partial-wh_Por-que-hablaba-del-agua.wav,,,,,,,,,,,,,,,,,,,,,,,,,,,,,,,,,,,,,,,,,,,,,,,,,,,,,,,,
,,,,,,,601840b15165f20756c64e0f,605b45a4d25f287719a41696,605ccac1507848685cef3e51,Mexico,East coast,13 or older,no,2021-03-25_13h40.05.203,empathy_intonation_perc,2020.2.10,Win32,60,,,,,,,,,,0,peruvian,0,1,1.7117,0,24,24,3,1,4,./stim/wavs/andalusian_match_declarative-broad-focus_Emilio-ama-la-marcha.wav,./stim/wavs/argentine_match_declarative-broad-focus_Emilio-ama-la-marcha.wav,./stim/wavs/castilian_match_declarative-broad-focus_Emilio-ama-la-marcha.wav,./stim/wavs/chilean_match_declarative-broad-focus_Emilio-ama-la-marcha.wav,./stim/wavs/cuban_match_declarative-broad-focus_Emilio-ama-la-marcha.wav,./stim/wavs/mexican_match_declarative-broad-focus_Emilio-ama-la-marcha.wav,./stim/wavs/peruvian_match_declarative-broad-focus_Emilio-ama-la-marcha.wav,./stim/wavs/puertorican_match_declarative-broad-focus_Emilio-ama-la-marcha.wav,,,,,,,,,,,,,,,,,,,,,,,,,,,,,,,,,,,,,,,,,,,,,,,,,,,,,,,,
,,,,,,,601840b15165f20756c64e0f,605b45a4d25f287719a41696,605ccac1507848685cef3e51,Mexico,East coast,13 or older,no,2021-03-25_13h40.05.203,empathy_intonation_perc,2020.2.10,Win32,60,,,,,,,,,,1,peruvian,1,1,1.634185,0,25,25,53,1,54,./stim/wavs/andalusian_mismatch_interrogative-partial-wh_Por-que-oia-el-rio.wav,./stim/wavs/argentine_mismatch_interrogative-partial-wh_Por-que-oia-el-rio.wav,./stim/wavs/castilian_mismatch_interrogative-partial-wh_Por-que-oia-el-rio.wav,./stim/wavs/chilean_mismatch_interrogative-partial-wh_Por-que-oia-el-rio.wav,./stim/wavs/cuban_mismatch_interrogative-partial-wh_Por-que-oia-el-rio.wav,./stim/wavs/mexican_mismatch_interrogative-partial-wh_Por-que-oia-el-rio.wav,./stim/wavs/peruvian_mismatch_interrogative-partial-wh_Por-que-oia-el-rio.wav,./stim/wavs/puertorican_mismatch_interrogative-partial-wh_Por-que-oia-el-rio.wav,,,,,,,,,,,,,,,,,,,,,,,,,,,,,,,,,,,,,,,,,,,,,,,,,,,,,,,,
,,,,,,,601840b15165f20756c64e0f,605b45a4d25f287719a41696,605ccac1507848685cef3e51,Mexico,East coast,13 or older,no,2021-03-25_13h40.05.203,empathy_intonation_perc,2020.2.10,Win32,60,,,,,,,,,,1,peruvian,0,0,2.48522,0,26,26,31,1,32,./stim/wavs/andalusian_match_interrogative-total-yn_Marta-abre-el-regalo.wav,./stim/wavs/argentine_match_interrogative-total-yn_Marta-abre-el-regalo.wav,./stim/wavs/castilian_match_interrogative-total-yn_Marta-abre-el-regalo.wav,./stim/wavs/chilean_match_interrogative-total-yn_Marta-abre-el-regalo.wav,./stim/wavs/cuban_match_interrogative-total-yn_Marta-abre-el-regalo.wav,./stim/wavs/mexican_match_interrogative-total-yn_Marta-abre-el-regalo.wav,./stim/wavs/peruvian_match_interrogative-total-yn_Marta-abre-el-regalo.wav,./stim/wavs/puertorican_match_interrogative-total-yn_Marta-abre-el-regalo.wav,,,,,,,,,,,,,,,,,,,,,,,,,,,,,,,,,,,,,,,,,,,,,,,,,,,,,,,,
,,,,,,,601840b15165f20756c64e0f,605b45a4d25f287719a41696,605ccac1507848685cef3e51,Mexico,East coast,13 or older,no,2021-03-25_13h40.05.203,empathy_intonation_perc,2020.2.10,Win32,60,,,,,,,,,,1,cuban,0,0,1.60265,0,27,27,26,1,27,./stim/wavs/andalusian_match_interrogative-total-yn_David-leia-el-libro.wav,./stim/wavs/argentine_match_interrogative-total-yn_David-leia-el-libro.wav,./stim/wavs/castilian_match_interrogative-total-yn_David-leia-el-libro.wav,./stim/wavs/chilean_match_interrogative-total-yn_David-leia-el-libro.wav,./stim/wavs/cuban_match_interrogative-total-yn_David-leia-el-libro.wav,./stim/wavs/mexican_match_interrogative-total-yn_David-leia-el-libro.wav,./stim/wavs/peruvian_match_interrogative-total-yn_David-leia-el-libro.wav,./stim/wavs/puertorican_match_interrogative-total-yn_David-leia-el-libro.wav,,,,,,,,,,,,,,,,,,,,,,,,,,,,,,,,,,,,,,,,,,,,,,,,,,,,,,,,
,,,,,,,601840b15165f20756c64e0f,605b45a4d25f287719a41696,605ccac1507848685cef3e51,Mexico,East coast,13 or older,no,2021-03-25_13h40.05.203,empathy_intonation_perc,2020.2.10,Win32,60,,,,,,,,,,0,puertorican,0,1,1.637415,0,28,28,42,1,43,./stim/wavs/andalusian_mismatch_declarative-narrow-focus_El-nino-oye-el-rio.wav,./stim/wavs/argentine_mismatch_declarative-narrow-focus_El-nino-oye-el-rio.wav,./stim/wavs/castilian_mismatch_declarative-narrow-focus_El-nino-oye-el-rio.wav,./stim/wavs/chilean_mismatch_declarative-narrow-focus_El-nino-oye-el-rio.wav,./stim/wavs/cuban_mismatch_declarative-narrow-focus_El-nino-oye-el-rio.wav,./stim/wavs/mexican_mismatch_declarative-narrow-focus_El-nino-oye-el-rio.wav,./stim/wavs/peruvian_mismatch_declarative-narrow-focus_El-nino-oye-el-rio.wav,./stim/wavs/puertorican_mismatch_declarative-narrow-focus_El-nino-oye-el-rio.wav,,,,,,,,,,,,,,,,,,,,,,,,,,,,,,,,,,,,,,,,,,,,,,,,,,,,,,,,
,,,,,,,601840b15165f20756c64e0f,605b45a4d25f287719a41696,605ccac1507848685cef3e51,Mexico,East coast,13 or older,no,2021-03-25_13h40.05.203,empathy_intonation_perc,2020.2.10,Win32,60,,,,,,,,,,0,mexican,0,1,1.667975,0,29,29,37,1,38,./stim/wavs/andalusian_mismatch_declarative-broad-focus_Mi-madre-come-la-fruta.wav,./stim/wavs/argentine_mismatch_declarative-broad-focus_Mi-madre-come-la-fruta.wav,./stim/wavs/castilian_mismatch_declarative-broad-focus_Mi-madre-come-la-fruta.wav,./stim/wavs/chilean_mismatch_declarative-broad-focus_Mi-madre-come-la-fruta.wav,./stim/wavs/cuban_mismatch_declarative-broad-focus_Mi-madre-come-la-fruta.wav,./stim/wavs/mexican_mismatch_declarative-broad-focus_Mi-madre-come-la-fruta.wav,./stim/wavs/peruvian_mismatch_declarative-broad-focus_Mi-madre-come-la-fruta.wav,./stim/wavs/puertorican_mismatch_declarative-broad-focus_Mi-madre-come-la-fruta.wav,,,,,,,,,,,,,,,,,,,,,,,,,,,,,,,,,,,,,,,,,,,,,,,,,,,,,,,,
,,,,,,,601840b15165f20756c64e0f,605b45a4d25f287719a41696,605ccac1507848685cef3e51,Mexico,East coast,13 or older,no,2021-03-25_13h40.05.203,empathy_intonation_perc,2020.2.10,Win32,60,,,,,,,,,,0,andalusian,0,1,2.583735,0,30,30,40,1,41,./stim/wavs/andalusian_mismatch_declarative-narrow-focus_El-bebe-comia-muy-bien.wav,./stim/wavs/argentine_mismatch_declarative-narrow-focus_El-bebe-comia-muy-bien.wav,./stim/wavs/castilian_mismatch_declarative-narrow-focus_El-bebe-comia-muy-bien.wav,./stim/wavs/chilean_mismatch_declarative-narrow-focus_El-bebe-comia-muy-bien.wav,./stim/wavs/cuban_mismatch_declarative-narrow-focus_El-bebe-comia-muy-bien.wav,./stim/wavs/mexican_mismatch_declarative-narrow-focus_El-bebe-comia-muy-bien.wav,./stim/wavs/peruvian_mismatch_declarative-narrow-focus_El-bebe-comia-muy-bien.wav,./stim/wavs/puertorican_mismatch_declarative-narrow-focus_El-bebe-comia-muy-bien.wav,,,,,,,,,,,,,,,,,,,,,,,,,,,,,,,,,,,,,,,,,,,,,,,,,,,,,,,,
,,,,,,,601840b15165f20756c64e0f,605b45a4d25f287719a41696,605ccac1507848685cef3e51,Mexico,East coast,13 or older,no,2021-03-25_13h40.05.203,empathy_intonation_perc,2020.2.10,Win32,60,,,,,,,,,,0,andalusian,0,1,1.53417,0,31,31,0,1,1,./stim/wavs/andalusian_match_declarative-broad-focus_Ana-lleva-el-abrigo.wav,./stim/wavs/argentine_match_declarative-broad-focus_Ana-lleva-el-abrigo.wav,./stim/wavs/castilian_match_declarative-broad-focus_Ana-lleva-el-abrigo.wav,./stim/wavs/chilean_match_declarative-broad-focus_Ana-lleva-el-abrigo.wav,./stim/wavs/cuban_match_declarative-broad-focus_Ana-lleva-el-abrigo.wav,./stim/wavs/mexican_match_declarative-broad-focus_Ana-lleva-el-abrigo.wav,./stim/wavs/peruvian_match_declarative-broad-focus_Ana-lleva-el-abrigo.wav,./stim/wavs/puertorican_match_declarative-broad-focus_Ana-lleva-el-abrigo.wav,,,,,,,,,,,,,,,,,,,,,,,,,,,,,,,,,,,,,,,,,,,,,,,,,,,,,,,,
,,,,,,,601840b15165f20756c64e0f,605b45a4d25f287719a41696,605ccac1507848685cef3e51,Mexico,East coast,13 or older,no,2021-03-25_13h40.05.203,empathy_intonation_perc,2020.2.10,Win32,60,,,,,,,,,,0,chilean,0,1,1.80075,0,32,32,43,1,44,./stim/wavs/andalusian_mismatch_declarative-narrow-focus_La-maestra-vive-en-Paris.wav,./stim/wavs/argentine_mismatch_declarative-narrow-focus_La-maestra-vive-en-Paris.wav,./stim/wavs/castilian_mismatch_declarative-narrow-focus_La-maestra-vive-en-Paris.wav,./stim/wavs/chilean_mismatch_declarative-narrow-focus_La-maestra-vive-en-Paris.wav,./stim/wavs/cuban_mismatch_declarative-narrow-focus_La-maestra-vive-en-Paris.wav,./stim/wavs/mexican_mismatch_declarative-narrow-focus_La-maestra-vive-en-Paris.wav,./stim/wavs/peruvian_mismatch_declarative-narrow-focus_La-maestra-vive-en-Paris.wav,./stim/wavs/puertorican_mismatch_declarative-narrow-focus_La-maestra-vive-en-Paris.wav,,,,,,,,,,,,,,,,,,,,,,,,,,,,,,,,,,,,,,,,,,,,,,,,,,,,,,,,
,,,,,,,601840b15165f20756c64e0f,605b45a4d25f287719a41696,605ccac1507848685cef3e51,Mexico,East coast,13 or older,no,2021-03-25_13h40.05.203,empathy_intonation_perc,2020.2.10,Win32,60,,,,,,,,,,1,castilian,1,1,1.6102,0,33,33,19,1,20,./stim/wavs/andalusian_match_interrogative-partial-wh_Cuando-vendia-el-carro.wav,./stim/wavs/argentine_match_interrogative-partial-wh_Cuando-vendia-el-carro.wav,./stim/wavs/castilian_match_interrogative-partial-wh_Cuando-vendia-el-carro.wav,./stim/wavs/chilean_match_interrogative-partial-wh_Cuando-vendia-el-carro.wav,./stim/wavs/cuban_match_interrogative-partial-wh_Cuando-vendia-el-carro.wav,./stim/wavs/mexican_match_interrogative-partial-wh_Cuando-vendia-el-carro.wav,./stim/wavs/peruvian_match_interrogative-partial-wh_Cuando-vendia-el-carro.wav,./stim/wavs/puertorican_match_interrogative-partial-wh_Cuando-vendia-el-carro.wav,,,,,,,,,,,,,,,,,,,,,,,,,,,,,,,,,,,,,,,,,,,,,,,,,,,,,,,,
,,,,,,,601840b15165f20756c64e0f,605b45a4d25f287719a41696,605ccac1507848685cef3e51,Mexico,East coast,13 or older,no,2021-03-25_13h40.05.203,empathy_intonation_perc,2020.2.10,Win32,60,,,,,,,,,,1,argentine,0,0,1.709055,0,34,34,62,1,63,./stim/wavs/andalusian_mismatch_interrogative-total-yn_Mi-novio-viene-del-lago.wav,./stim/wavs/argentine_mismatch_interrogative-total-yn_Mi-novio-viene-del-lago.wav,./stim/wavs/castilian_mismatch_interrogative-total-yn_Mi-novio-viene-del-lago.wav,./stim/wavs/chilean_mismatch_interrogative-total-yn_Mi-novio-viene-del-lago.wav,./stim/wavs/cuban_mismatch_interrogative-total-yn_Mi-novio-viene-del-lago.wav,./stim/wavs/mexican_mismatch_interrogative-total-yn_Mi-novio-viene-del-lago.wav,./stim/wavs/peruvian_mismatch_interrogative-total-yn_Mi-novio-viene-del-lago.wav,./stim/wavs/puertorican_mismatch_interrogative-total-yn_Mi-novio-viene-del-lago.wav,,,,,,,,,,,,,,,,,,,,,,,,,,,,,,,,,,,,,,,,,,,,,,,,,,,,,,,,
,,,,,,,601840b15165f20756c64e0f,605b45a4d25f287719a41696,605ccac1507848685cef3e51,Mexico,East coast,13 or older,no,2021-03-25_13h40.05.203,empathy_intonation_perc,2020.2.10,Win32,60,,,,,,,,,,1,puertorican,0,0,1.84477,0,35,35,59,1,60,./stim/wavs/andalusian_mismatch_interrogative-total-yn_La-maestra-vive-en-Paris.wav,./stim/wavs/argentine_mismatch_interrogative-total-yn_La-maestra-vive-en-Paris.wav,./stim/wavs/castilian_mismatch_interrogative-total-yn_La-maestra-vive-en-Paris.wav,./stim/wavs/chilean_mismatch_interrogative-total-yn_La-maestra-vive-en-Paris.wav,./stim/wavs/cuban_mismatch_interrogative-total-yn_La-maestra-vive-en-Paris.wav,./stim/wavs/mexican_mismatch_interrogative-total-yn_La-maestra-vive-en-Paris.wav,./stim/wavs/peruvian_mismatch_interrogative-total-yn_La-maestra-vive-en-Paris.wav,./stim/wavs/puertorican_mismatch_interrogative-total-yn_La-maestra-vive-en-Paris.wav,,,,,,,,,,,,,,,,,,,,,,,,,,,,,,,,,,,,,,,,,,,,,,,,,,,,,,,,
,,,,,,,601840b15165f20756c64e0f,605b45a4d25f287719a41696,605ccac1507848685cef3e51,Mexico,East coast,13 or older,no,2021-03-25_13h40.05.203,empathy_intonation_perc,2020.2.10,Win32,60,,,,,,,,,,0,mexican,0,1,1.467795,0,36,36,34,1,35,./stim/wavs/andalusian_mismatch_declarative-broad-focus_El-nino-oye-el-rio.wav,./stim/wavs/argentine_mismatch_declarative-broad-focus_El-nino-oye-el-rio.wav,./stim/wavs/castilian_mismatch_declarative-broad-focus_El-nino-oye-el-rio.wav,./stim/wavs/chilean_mismatch_declarative-broad-focus_El-nino-oye-el-rio.wav,./stim/wavs/cuban_mismatch_declarative-broad-focus_El-nino-oye-el-rio.wav,./stim/wavs/mexican_mismatch_declarative-broad-focus_El-nino-oye-el-rio.wav,./stim/wavs/peruvian_mismatch_declarative-broad-focus_El-nino-oye-el-rio.wav,./stim/wavs/puertorican_mismatch_declarative-broad-focus_El-nino-oye-el-rio.wav,,,,,,,,,,,,,,,,,,,,,,,,,,,,,,,,,,,,,,,,,,,,,,,,,,,,,,,,
,,,,,,,601840b15165f20756c64e0f,605b45a4d25f287719a41696,605ccac1507848685cef3e51,Mexico,East coast,13 or older,no,2021-03-25_13h40.05.203,empathy_intonation_perc,2020.2.10,Win32,60,,,,,,,,,,1,castilian,1,1,1.654945,0,37,37,51,1,52,./stim/wavs/andalusian_mismatch_interrogative-partial-wh_Por-que-desayuna-muy-bien.wav,./stim/wavs/argentine_mismatch_interrogative-partial-wh_Por-que-desayuna-muy-bien.wav,./stim/wavs/castilian_mismatch_interrogative-partial-wh_Por-que-desayuna-muy-bien.wav,./stim/wavs/chilean_mismatch_interrogative-partial-wh_Por-que-desayuna-muy-bien.wav,./stim/wavs/cuban_mismatch_interrogative-partial-wh_Por-que-desayuna-muy-bien.wav,./stim/wavs/mexican_mismatch_interrogative-partial-wh_Por-que-desayuna-muy-bien.wav,./stim/wavs/peruvian_mismatch_interrogative-partial-wh_Por-que-desayuna-muy-bien.wav,./stim/wavs/puertorican_mismatch_interrogative-partial-wh_Por-que-desayuna-muy-bien.wav,,,,,,,,,,,,,,,,,,,,,,,,,,,,,,,,,,,,,,,,,,,,,,,,,,,,,,,,
,,,,,,,601840b15165f20756c64e0f,605b45a4d25f287719a41696,605ccac1507848685cef3e51,Mexico,East coast,13 or older,no,2021-03-25_13h40.05.203,empathy_intonation_perc,2020.2.10,Win32,60,,,,,,,,,,1,chilean,0,0,2.017405,0,38,38,27,1,28,./stim/wavs/andalusian_match_interrogative-total-yn_Emilio-ama-la-marcha.wav,./stim/wavs/argentine_match_interrogative-total-yn_Emilio-ama-la-marcha.wav,./stim/wavs/castilian_match_interrogative-total-yn_Emilio-ama-la-marcha.wav,./stim/wavs/chilean_match_interrogative-total-yn_Emilio-ama-la-marcha.wav,./stim/wavs/cuban_match_interrogative-total-yn_Emilio-ama-la-marcha.wav,./stim/wavs/mexican_match_interrogative-total-yn_Emilio-ama-la-marcha.wav,./stim/wavs/peruvian_match_interrogative-total-yn_Emilio-ama-la-marcha.wav,./stim/wavs/puertorican_match_interrogative-total-yn_Emilio-ama-la-marcha.wav,,,,,,,,,,,,,,,,,,,,,,,,,,,,,,,,,,,,,,,,,,,,,,,,,,,,,,,,
,,,,,,,601840b15165f20756c64e0f,605b45a4d25f287719a41696,605ccac1507848685cef3e51,Mexico,East coast,13 or older,no,2021-03-25_13h40.05.203,empathy_intonation_perc,2020.2.10,Win32,60,,,,,,,,,,1,mexican,1,1,1.47464,0,39,39,49,1,50,./stim/wavs/andalusian_mismatch_interrogative-partial-wh_Cuando-lavaba-el-plato.wav,./stim/wavs/argentine_mismatch_interrogative-partial-wh_Cuando-lavaba-el-plato.wav,./stim/wavs/castilian_mismatch_interrogative-partial-wh_Cuando-lavaba-el-plato.wav,./stim/wavs/chilean_mismatch_interrogative-partial-wh_Cuando-lavaba-el-plato.wav,./stim/wavs/cuban_mismatch_interrogative-partial-wh_Cuando-lavaba-el-plato.wav,./stim/wavs/mexican_mismatch_interrogative-partial-wh_Cuando-lavaba-el-plato.wav,./stim/wavs/peruvian_mismatch_interrogative-partial-wh_Cuando-lavaba-el-plato.wav,./stim/wavs/puertorican_mismatch_interrogative-partial-wh_Cuando-lavaba-el-plato.wav,,,,,,,,,,,,,,,,,,,,,,,,,,,,,,,,,,,,,,,,,,,,,,,,,,,,,,,,
,,,,,,,601840b15165f20756c64e0f,605b45a4d25f287719a41696,605ccac1507848685cef3e51,Mexico,East coast,13 or older,no,2021-03-25_13h40.05.203,empathy_intonation_perc,2020.2.10,Win32,60,,,,,,,,,,1,peruvian,0,0,1.55216,0,40,40,24,1,25,./stim/wavs/andalusian_match_interrogative-total-yn_Ana-lleva-el-abrigo.wav,./stim/wavs/argentine_match_interrogative-total-yn_Ana-lleva-el-abrigo.wav,./stim/wavs/castilian_match_interrogative-total-yn_Ana-lleva-el-abrigo.wav,./stim/wavs/chilean_match_interrogative-total-yn_Ana-lleva-el-abrigo.wav,./stim/wavs/cuban_match_interrogative-total-yn_Ana-lleva-el-abrigo.wav,./stim/wavs/mexican_match_interrogative-total-yn_Ana-lleva-el-abrigo.wav,./stim/wavs/peruvian_match_interrogative-total-yn_Ana-lleva-el-abrigo.wav,./stim/wavs/puertorican_match_interrogative-total-yn_Ana-lleva-el-abrigo.wav,,,,,,,,,,,,,,,,,,,,,,,,,,,,,,,,,,,,,,,,,,,,,,,,,,,,,,,,
,,,,,,,601840b15165f20756c64e0f,605b45a4d25f287719a41696,605ccac1507848685cef3e51,Mexico,East coast,13 or older,no,2021-03-25_13h40.05.203,empathy_intonation_perc,2020.2.10,Win32,60,,,,,,,,,,0,andalusian,0,1,1.850925,0,41,41,1,1,2,./stim/wavs/andalusian_match_declarative-broad-focus_Daniel-iba-a-Bolivia.wav,./stim/wavs/argentine_match_declarative-broad-focus_Daniel-iba-a-Bolivia.wav,./stim/wavs/castilian_match_declarative-broad-focus_Daniel-iba-a-Bolivia.wav,./stim/wavs/chilean_match_declarative-broad-focus_Daniel-iba-a-Bolivia.wav,./stim/wavs/cuban_match_declarative-broad-focus_Daniel-iba-a-Bolivia.wav,./stim/wavs/mexican_match_declarative-broad-focus_Daniel-iba-a-Bolivia.wav,./stim/wavs/peruvian_match_declarative-broad-focus_Daniel-iba-a-Bolivia.wav,./stim/wavs/puertorican_match_declarative-broad-focus_Daniel-iba-a-Bolivia.wav,,,,,,,,,,,,,,,,,,,,,,,,,,,,,,,,,,,,,,,,,,,,,,,,,,,,,,,,
,,,,,,,601840b15165f20756c64e0f,605b45a4d25f287719a41696,605ccac1507848685cef3e51,Mexico,East coast,13 or older,no,2021-03-25_13h40.05.203,empathy_intonation_perc,2020.2.10,Win32,60,,,,,,,,,,0,chilean,0,1,1.455795,0,42,42,7,1,8,./stim/wavs/andalusian_match_declarative-broad-focus_Marta-abre-el-regalo.wav,./stim/wavs/argentine_match_declarative-broad-focus_Marta-abre-el-regalo.wav,./stim/wavs/castilian_match_declarative-broad-focus_Marta-abre-el-regalo.wav,./stim/wavs/chilean_match_declarative-broad-focus_Marta-abre-el-regalo.wav,./stim/wavs/cuban_match_declarative-broad-focus_Marta-abre-el-regalo.wav,./stim/wavs/mexican_match_declarative-broad-focus_Marta-abre-el-regalo.wav,./stim/wavs/peruvian_match_declarative-broad-focus_Marta-abre-el-regalo.wav,./stim/wavs/puertorican_match_declarative-broad-focus_Marta-abre-el-regalo.wav,,,,,,,,,,,,,,,,,,,,,,,,,,,,,,,,,,,,,,,,,,,,,,,,,,,,,,,,
,,,,,,,601840b15165f20756c64e0f,605b45a4d25f287719a41696,605ccac1507848685cef3e51,Mexico,East coast,13 or older,no,2021-03-25_13h40.05.203,empathy_intonation_perc,2020.2.10,Win32,60,,,,,,,,,,0,cuban,0,1,1.834565,0,43,43,6,1,7,./stim/wavs/andalusian_match_declarative-broad-focus_Mariano-habla-del-tiempo.wav,./stim/wavs/argentine_match_declarative-broad-focus_Mariano-habla-del-tiempo.wav,./stim/wavs/castilian_match_declarative-broad-focus_Mariano-habla-del-tiempo.wav,./stim/wavs/chilean_match_declarative-broad-focus_Mariano-habla-del-tiempo.wav,./stim/wavs/cuban_match_declarative-broad-focus_Mariano-habla-del-tiempo.wav,./stim/wavs/mexican_match_declarative-broad-focus_Mariano-habla-del-tiempo.wav,./stim/wavs/peruvian_match_declarative-broad-focus_Mariano-habla-del-tiempo.wav,./stim/wavs/puertorican_match_declarative-broad-focus_Mariano-habla-del-tiempo.wav,,,,,,,,,,,,,,,,,,,,,,,,,,,,,,,,,,,,,,,,,,,,,,,,,,,,,,,,
,,,,,,,601840b15165f20756c64e0f,605b45a4d25f287719a41696,605ccac1507848685cef3e51,Mexico,East coast,13 or older,no,2021-03-25_13h40.05.203,empathy_intonation_perc,2020.2.10,Win32,60,,,,,,,,,,0,chilean,0,1,1.350885,0,44,44,13,1,14,./stim/wavs/andalusian_match_declarative-narrow-focus_Maria-bebe-el-vino.wav,./stim/wavs/argentine_match_declarative-narrow-focus_Maria-bebe-el-vino.wav,./stim/wavs/castilian_match_declarative-narrow-focus_Maria-bebe-el-vino.wav,./stim/wavs/chilean_match_declarative-narrow-focus_Maria-bebe-el-vino.wav,./stim/wavs/cuban_match_declarative-narrow-focus_Maria-bebe-el-vino.wav,./stim/wavs/mexican_match_declarative-narrow-focus_Maria-bebe-el-vino.wav,./stim/wavs/peruvian_match_declarative-narrow-focus_Maria-bebe-el-vino.wav,./stim/wavs/puertorican_match_declarative-narrow-focus_Maria-bebe-el-vino.wav,,,,,,,,,,,,,,,,,,,,,,,,,,,,,,,,,,,,,,,,,,,,,,,,,,,,,,,,
,,,,,,,601840b15165f20756c64e0f,605b45a4d25f287719a41696,605ccac1507848685cef3e51,Mexico,East coast,13 or older,no,2021-03-25_13h40.05.203,empathy_intonation_perc,2020.2.10,Win32,60,,,,,,,,,,0,andalusian,0,1,1.53232,0,45,45,33,1,34,./stim/wavs/andalusian_mismatch_declarative-broad-focus_El-hombre-mira-la-luna.wav,./stim/wavs/argentine_mismatch_declarative-broad-focus_El-hombre-mira-la-luna.wav,./stim/wavs/castilian_mismatch_declarative-broad-focus_El-hombre-mira-la-luna.wav,./stim/wavs/chilean_mismatch_declarative-broad-focus_El-hombre-mira-la-luna.wav,./stim/wavs/cuban_mismatch_declarative-broad-focus_El-hombre-mira-la-luna.wav,./stim/wavs/mexican_mismatch_declarative-broad-focus_El-hombre-mira-la-luna.wav,./stim/wavs/peruvian_mismatch_declarative-broad-focus_El-hombre-mira-la-luna.wav,./stim/wavs/puertorican_mismatch_declarative-broad-focus_El-hombre-mira-la-luna.wav,,,,,,,,,,,,,,,,,,,,,,,,,,,,,,,,,,,,,,,,,,,,,,,,,,,,,,,,
,,,,,,,601840b15165f20756c64e0f,605b45a4d25f287719a41696,605ccac1507848685cef3e51,Mexico,East coast,13 or older,no,2021-03-25_13h40.05.203,empathy_intonation_perc,2020.2.10,Win32,60,,,,,,,,,,1,mexican,0,0,2.26899,0,46,46,63,1,64,./stim/wavs/andalusian_mismatch_interrogative-total-yn_Mi-tia-odia-la-lluvia.wav,./stim/wavs/argentine_mismatch_interrogative-total-yn_Mi-tia-odia-la-lluvia.wav,./stim/wavs/castilian_mismatch_interrogative-total-yn_Mi-tia-odia-la-lluvia.wav,./stim/wavs/chilean_mismatch_interrogative-total-yn_Mi-tia-odia-la-lluvia.wav,./stim/wavs/cuban_mismatch_interrogative-total-yn_Mi-tia-odia-la-lluvia.wav,./stim/wavs/mexican_mismatch_interrogative-total-yn_Mi-tia-odia-la-lluvia.wav,./stim/wavs/peruvian_mismatch_interrogative-total-yn_Mi-tia-odia-la-lluvia.wav,./stim/wavs/puertorican_mismatch_interrogative-total-yn_Mi-tia-odia-la-lluvia.wav,,,,,,,,,,,,,,,,,,,,,,,,,,,,,,,,,,,,,,,,,,,,,,,,,,,,,,,,
,,,,,,,601840b15165f20756c64e0f,605b45a4d25f287719a41696,605ccac1507848685cef3e51,Mexico,East coast,13 or older,no,2021-03-25_13h40.05.203,empathy_intonation_perc,2020.2.10,Win32,60,,,,,,,,,,0,argentine,0,1,1.80054,0,47,47,38,1,39,./stim/wavs/andalusian_mismatch_declarative-broad-focus_Mi-novio-viene-del-lago.wav,./stim/wavs/argentine_mismatch_declarative-broad-focus_Mi-novio-viene-del-lago.wav,./stim/wavs/castilian_mismatch_declarative-broad-focus_Mi-novio-viene-del-lago.wav,./stim/wavs/chilean_mismatch_declarative-broad-focus_Mi-novio-viene-del-lago.wav,./stim/wavs/cuban_mismatch_declarative-broad-focus_Mi-novio-viene-del-lago.wav,./stim/wavs/mexican_mismatch_declarative-broad-focus_Mi-novio-viene-del-lago.wav,./stim/wavs/peruvian_mismatch_declarative-broad-focus_Mi-novio-viene-del-lago.wav,./stim/wavs/puertorican_mismatch_declarative-broad-focus_Mi-novio-viene-del-lago.wav,,,,,,,,,,,,,,,,,,,,,,,,,,,,,,,,,,,,,,,,,,,,,,,,,,,,,,,,
,,,,,,,601840b15165f20756c64e0f,605b45a4d25f287719a41696,605ccac1507848685cef3e51,Mexico,East coast,13 or older,no,2021-03-25_13h40.05.203,empathy_intonation_perc,2020.2.10,Win32,60,,,,,,,,,,1,cuban,1,1,1.26762,0,48,48,18,1,19,./stim/wavs/andalusian_match_interrogative-partial-wh_Cuando-lleva-el-abrigo.wav,./stim/wavs/argentine_match_interrogative-partial-wh_Cuando-lleva-el-abrigo.wav,./stim/wavs/castilian_match_interrogative-partial-wh_Cuando-lleva-el-abrigo.wav,./stim/wavs/chilean_match_interrogative-partial-wh_Cuando-lleva-el-abrigo.wav,./stim/wavs/cuban_match_interrogative-partial-wh_Cuando-lleva-el-abrigo.wav,./stim/wavs/mexican_match_interrogative-partial-wh_Cuando-lleva-el-abrigo.wav,./stim/wavs/peruvian_match_interrogative-partial-wh_Cuando-lleva-el-abrigo.wav,./stim/wavs/puertorican_match_interrogative-partial-wh_Cuando-lleva-el-abrigo.wav,,,,,,,,,,,,,,,,,,,,,,,,,,,,,,,,,,,,,,,,,,,,,,,,,,,,,,,,
,,,,,,,601840b15165f20756c64e0f,605b45a4d25f287719a41696,605ccac1507848685cef3e51,Mexico,East coast,13 or older,no,2021-03-25_13h40.05.203,empathy_intonation_perc,2020.2.10,Win32,60,,,,,,,,,,1,cuban,0,0,1.45694,0,49,49,28,1,29,./stim/wavs/andalusian_match_interrogative-total-yn_Manuela-vende-el-carro.wav,./stim/wavs/argentine_match_interrogative-total-yn_Manuela-vende-el-carro.wav,./stim/wavs/castilian_match_interrogative-total-yn_Manuela-vende-el-carro.wav,./stim/wavs/chilean_match_interrogative-total-yn_Manuela-vende-el-carro.wav,./stim/wavs/cuban_match_interrogative-total-yn_Manuela-vende-el-carro.wav,./stim/wavs/mexican_match_interrogative-total-yn_Manuela-vende-el-carro.wav,./stim/wavs/peruvian_match_interrogative-total-yn_Manuela-vende-el-carro.wav,./stim/wavs/puertorican_match_interrogative-total-yn_Manuela-vende-el-carro.wav,,,,,,,,,,,,,,,,,,,,,,,,,,,,,,,,,,,,,,,,,,,,,,,,,,,,,,,,
,,,,,,,601840b15165f20756c64e0f,605b45a4d25f287719a41696,605ccac1507848685cef3e51,Mexico,East coast,13 or older,no,2021-03-25_13h40.05.203,empathy_intonation_perc,2020.2.10,Win32,60,,,,,,,,,,1,castilian,0,0,2.101065,0,50,50,60,1,61,./stim/wavs/andalusian_mismatch_interrogative-total-yn_La-nina-lava-el-plato.wav,./stim/wavs/argentine_mismatch_interrogative-total-yn_La-nina-lava-el-plato.wav,./stim/wavs/castilian_mismatch_interrogative-total-yn_La-nina-lava-el-plato.wav,./stim/wavs/chilean_mismatch_interrogative-total-yn_La-nina-lava-el-plato.wav,./stim/wavs/cuban_mismatch_interrogative-total-yn_La-nina-lava-el-plato.wav,./stim/wavs/mexican_mismatch_interrogative-total-yn_La-nina-lava-el-plato.wav,./stim/wavs/peruvian_mismatch_interrogative-total-yn_La-nina-lava-el-plato.wav,./stim/wavs/puertorican_mismatch_interrogative-total-yn_La-nina-lava-el-plato.wav,,,,,,,,,,,,,,,,,,,,,,,,,,,,,,,,,,,,,,,,,,,,,,,,,,,,,,,,
,,,,,,,601840b15165f20756c64e0f,605b45a4d25f287719a41696,605ccac1507848685cef3e51,Mexico,East coast,13 or older,no,2021-03-25_13h40.05.203,empathy_intonation_perc,2020.2.10,Win32,60,,,,,,,,,,1,cuban,1,1,1.29613,0,51,51,20,1,21,./stim/wavs/andalusian_match_interrogative-partial-wh_Por-que-abre-el-regalo.wav,./stim/wavs/argentine_match_interrogative-partial-wh_Por-que-abre-el-regalo.wav,./stim/wavs/castilian_match_interrogative-partial-wh_Por-que-abre-el-regalo.wav,./stim/wavs/chilean_match_interrogative-partial-wh_Por-que-abre-el-regalo.wav,./stim/wavs/cuban_match_interrogative-partial-wh_Por-que-abre-el-regalo.wav,./stim/wavs/mexican_match_interrogative-partial-wh_Por-que-abre-el-regalo.wav,./stim/wavs/peruvian_match_interrogative-partial-wh_Por-que-abre-el-regalo.wav,./stim/wavs/puertorican_match_interrogative-partial-wh_Por-que-abre-el-regalo.wav,,,,,,,,,,,,,,,,,,,,,,,,,,,,,,,,,,,,,,,,,,,,,,,,,,,,,,,,
,,,,,,,601840b15165f20756c64e0f,605b45a4d25f287719a41696,605ccac1507848685cef3e51,Mexico,East coast,13 or older,no,2021-03-25_13h40.05.203,empathy_intonation_perc,2020.2.10,Win32,60,,,,,,,,,,0,peruvian,0,1,1.58656,0,52,52,10,1,11,./stim/wavs/andalusian_match_declarative-narrow-focus_David-leia-el-libro.wav,./stim/wavs/argentine_match_declarative-narrow-focus_David-leia-el-libro.wav,./stim/wavs/castilian_match_declarative-narrow-focus_David-leia-el-libro.wav,./stim/wavs/chilean_match_declarative-narrow-focus_David-leia-el-libro.wav,./stim/wavs/cuban_match_declarative-narrow-focus_David-leia-el-libro.wav,./stim/wavs/mexican_match_declarative-narrow-focus_David-leia-el-libro.wav,./stim/wavs/peruvian_match_declarative-narrow-focus_David-leia-el-libro.wav,./stim/wavs/puertorican_match_declarative-narrow-focus_David-leia-el-libro.wav,,,,,,,,,,,,,,,,,,,,,,,,,,,,,,,,,,,,,,,,,,,,,,,,,,,,,,,,
,,,,,,,601840b15165f20756c64e0f,605b45a4d25f287719a41696,605ccac1507848685cef3e51,Mexico,East coast,13 or older,no,2021-03-25_13h40.05.203,empathy_intonation_perc,2020.2.10,Win32,60,,,,,,,,,,1,castilian,0,0,2.1699,0,53,53,52,1,53,./stim/wavs/andalusian_mismatch_interrogative-partial-wh_Por-que-odiaba-la-lluvia.wav,./stim/wavs/argentine_mismatch_interrogative-partial-wh_Por-que-odiaba-la-lluvia.wav,./stim/wavs/castilian_mismatch_interrogative-partial-wh_Por-que-odiaba-la-lluvia.wav,./stim/wavs/chilean_mismatch_interrogative-partial-wh_Por-que-odiaba-la-lluvia.wav,./stim/wavs/cuban_mismatch_interrogative-partial-wh_Por-que-odiaba-la-lluvia.wav,./stim/wavs/mexican_mismatch_interrogative-partial-wh_Por-que-odiaba-la-lluvia.wav,./stim/wavs/peruvian_mismatch_interrogative-partial-wh_Por-que-odiaba-la-lluvia.wav,./stim/wavs/puertorican_mismatch_interrogative-partial-wh_Por-que-odiaba-la-lluvia.wav,,,,,,,,,,,,,,,,,,,,,,,,,,,,,,,,,,,,,,,,,,,,,,,,,,,,,,,,
,,,,,,,601840b15165f20756c64e0f,605b45a4d25f287719a41696,605ccac1507848685cef3e51,Mexico,East coast,13 or older,no,2021-03-25_13h40.05.203,empathy_intonation_perc,2020.2.10,Win32,60,,,,,,,,,,1,argentine,1,1,1.667285,0,54,54,56,1,57,./stim/wavs/andalusian_mismatch_interrogative-total-yn_El-bebe-comia-muy-bien.wav,./stim/wavs/argentine_mismatch_interrogative-total-yn_El-bebe-comia-muy-bien.wav,./stim/wavs/castilian_mismatch_interrogative-total-yn_El-bebe-comia-muy-bien.wav,./stim/wavs/chilean_mismatch_interrogative-total-yn_El-bebe-comia-muy-bien.wav,./stim/wavs/cuban_mismatch_interrogative-total-yn_El-bebe-comia-muy-bien.wav,./stim/wavs/mexican_mismatch_interrogative-total-yn_El-bebe-comia-muy-bien.wav,./stim/wavs/peruvian_mismatch_interrogative-total-yn_El-bebe-comia-muy-bien.wav,./stim/wavs/puertorican_mismatch_interrogative-total-yn_El-bebe-comia-muy-bien.wav,,,,,,,,,,,,,,,,,,,,,,,,,,,,,,,,,,,,,,,,,,,,,,,,,,,,,,,,
,,,,,,,601840b15165f20756c64e0f,605b45a4d25f287719a41696,605ccac1507848685cef3e51,Mexico,East coast,13 or older,no,2021-03-25_13h40.05.203,empathy_intonation_perc,2020.2.10,Win32,60,,,,,,,,,,0,peruvian,0,1,1.77414,0,55,55,35,1,36,./stim/wavs/andalusian_mismatch_declarative-broad-focus_La-maestra-vive-en-Paris.wav,./stim/wavs/argentine_mismatch_declarative-broad-focus_La-maestra-vive-en-Paris.wav,./stim/wavs/castilian_mismatch_declarative-broad-focus_La-maestra-vive-en-Paris.wav,./stim/wavs/chilean_mismatch_declarative-broad-focus_La-maestra-vive-en-Paris.wav,./stim/wavs/cuban_mismatch_declarative-broad-focus_La-maestra-vive-en-Paris.wav,./stim/wavs/mexican_mismatch_declarative-broad-focus_La-maestra-vive-en-Paris.wav,./stim/wavs/peruvian_mismatch_declarative-broad-focus_La-maestra-vive-en-Paris.wav,./stim/wavs/puertorican_mismatch_declarative-broad-focus_La-maestra-vive-en-Paris.wav,,,,,,,,,,,,,,,,,,,,,,,,,,,,,,,,,,,,,,,,,,,,,,,,,,,,,,,,
,,,,,,,601840b15165f20756c64e0f,605b45a4d25f287719a41696,605ccac1507848685cef3e51,Mexico,East coast,13 or older,no,2021-03-25_13h40.05.203,empathy_intonation_perc,2020.2.10,Win32,60,,,,,,,,,,1,argentine,1,1,1.40508,0,56,56,48,1,49,./stim/wavs/andalusian_mismatch_interrogative-partial-wh_Cuando-comia-la-fruta.wav,./stim/wavs/argentine_mismatch_interrogative-partial-wh_Cuando-comia-la-fruta.wav,./stim/wavs/castilian_mismatch_interrogative-partial-wh_Cuando-comia-la-fruta.wav,./stim/wavs/chilean_mismatch_interrogative-partial-wh_Cuando-comia-la-fruta.wav,./stim/wavs/cuban_mismatch_interrogative-partial-wh_Cuando-comia-la-fruta.wav,./stim/wavs/mexican_mismatch_interrogative-partial-wh_Cuando-comia-la-fruta.wav,./stim/wavs/peruvian_mismatch_interrogative-partial-wh_Cuando-comia-la-fruta.wav,./stim/wavs/puertorican_mismatch_interrogative-partial-wh_Cuando-comia-la-fruta.wav,,,,,,,,,,,,,,,,,,,,,,,,,,,,,,,,,,,,,,,,,,,,,,,,,,,,,,,,
,,,,,,,601840b15165f20756c64e0f,605b45a4d25f287719a41696,605ccac1507848685cef3e51,Mexico,East coast,13 or older,no,2021-03-25_13h40.05.203,empathy_intonation_perc,2020.2.10,Win32,60,,,,,,,,,,0,castilian,0,1,1.477805,0,57,57,41,1,42,./stim/wavs/andalusian_mismatch_declarative-narrow-focus_El-hombre-mira-la-luna.wav,./stim/wavs/argentine_mismatch_declarative-narrow-focus_El-hombre-mira-la-luna.wav,./stim/wavs/castilian_mismatch_declarative-narrow-focus_El-hombre-mira-la-luna.wav,./stim/wavs/chilean_mismatch_declarative-narrow-focus_El-hombre-mira-la-luna.wav,./stim/wavs/cuban_mismatch_declarative-narrow-focus_El-hombre-mira-la-luna.wav,./stim/wavs/mexican_mismatch_declarative-narrow-focus_El-hombre-mira-la-luna.wav,./stim/wavs/peruvian_mismatch_declarative-narrow-focus_El-hombre-mira-la-luna.wav,./stim/wavs/puertorican_mismatch_declarative-narrow-focus_El-hombre-mira-la-luna.wav,,,,,,,,,,,,,,,,,,,,,,,,,,,,,,,,,,,,,,,,,,,,,,,,,,,,,,,,
,,,,,,,601840b15165f20756c64e0f,605b45a4d25f287719a41696,605ccac1507848685cef3e51,Mexico,East coast,13 or older,no,2021-03-25_13h40.05.203,empathy_intonation_perc,2020.2.10,Win32,60,,,,,,,,,,0,puertorican,0,1,1.48401,0,58,58,12,1,13,./stim/wavs/andalusian_match_declarative-narrow-focus_Manuela-vende-el-carro.wav,./stim/wavs/argentine_match_declarative-narrow-focus_Manuela-vende-el-carro.wav,./stim/wavs/castilian_match_declarative-narrow-focus_Manuela-vende-el-carro.wav,./stim/wavs/chilean_match_declarative-narrow-focus_Manuela-vende-el-carro.wav,./stim/wavs/cuban_match_declarative-narrow-focus_Manuela-vende-el-carro.wav,./stim/wavs/mexican_match_declarative-narrow-focus_Manuela-vende-el-carro.wav,./stim/wavs/peruvian_match_declarative-narrow-focus_Manuela-vende-el-carro.wav,./stim/wavs/puertorican_match_declarative-narrow-focus_Manuela-vende-el-carro.wav,,,,,,,,,,,,,,,,,,,,,,,,,,,,,,,,,,,,,,,,,,,,,,,,,,,,,,,,
,,,,,,,601840b15165f20756c64e0f,605b45a4d25f287719a41696,605ccac1507848685cef3e51,Mexico,East coast,13 or older,no,2021-03-25_13h40.05.203,empathy_intonation_perc,2020.2.10,Win32,60,,,,,,,,,,0,cuban,0,1,1.56924,0,59,59,45,1,46,./stim/wavs/andalusian_mismatch_declarative-narrow-focus_Mi-madre-come-la-fruta.wav,./stim/wavs/argentine_mismatch_declarative-narrow-focus_Mi-madre-come-la-fruta.wav,./stim/wavs/castilian_mismatch_declarative-narrow-focus_Mi-madre-come-la-fruta.wav,./stim/wavs/chilean_mismatch_declarative-narrow-focus_Mi-madre-come-la-fruta.wav,./stim/wavs/cuban_mismatch_declarative-narrow-focus_Mi-madre-come-la-fruta.wav,./stim/wavs/mexican_mismatch_declarative-narrow-focus_Mi-madre-come-la-fruta.wav,./stim/wavs/peruvian_mismatch_declarative-narrow-focus_Mi-madre-come-la-fruta.wav,./stim/wavs/puertorican_mismatch_declarative-narrow-focus_Mi-madre-come-la-fruta.wav,,,,,,,,,,,,,,,,,,,,,,,,,,,,,,,,,,,,,,,,,,,,,,,,,,,,,,,,
,,,,,,,601840b15165f20756c64e0f,605b45a4d25f287719a41696,605ccac1507848685cef3e51,Mexico,East coast,13 or older,no,2021-03-25_13h40.05.203,empathy_intonation_perc,2020.2.10,Win32,60,,,,,,,,,,1,cuban,1,1,1.31723,0,60,60,50,1,51,./stim/wavs/andalusian_mismatch_interrogative-partial-wh_Cuando-miraba-la-luna.wav,./stim/wavs/argentine_mismatch_interrogative-partial-wh_Cuando-miraba-la-luna.wav,./stim/wavs/castilian_mismatch_interrogative-partial-wh_Cuando-miraba-la-luna.wav,./stim/wavs/chilean_mismatch_interrogative-partial-wh_Cuando-miraba-la-luna.wav,./stim/wavs/cuban_mismatch_interrogative-partial-wh_Cuando-miraba-la-luna.wav,./stim/wavs/mexican_mismatch_interrogative-partial-wh_Cuando-miraba-la-luna.wav,./stim/wavs/peruvian_mismatch_interrogative-partial-wh_Cuando-miraba-la-luna.wav,./stim/wavs/puertorican_mismatch_interrogative-partial-wh_Cuando-miraba-la-luna.wav,,,,,,,,,,,,,,,,,,,,,,,,,,,,,,,,,,,,,,,,,,,,,,,,,,,,,,,,
,,,,,,,601840b15165f20756c64e0f,605b45a4d25f287719a41696,605ccac1507848685cef3e51,Mexico,East coast,13 or older,no,2021-03-25_13h40.05.203,empathy_intonation_perc,2020.2.10,Win32,60,,,,,,,,,,0,andalusian,0,1,1.61189,0,61,61,8,1,9,./stim/wavs/andalusian_match_declarative-narrow-focus_Ana-lleva-el-abrigo.wav,./stim/wavs/argentine_match_declarative-narrow-focus_Ana-lleva-el-abrigo.wav,./stim/wavs/castilian_match_declarative-narrow-focus_Ana-lleva-el-abrigo.wav,./stim/wavs/chilean_match_declarative-narrow-focus_Ana-lleva-el-abrigo.wav,./stim/wavs/cuban_match_declarative-narrow-focus_Ana-lleva-el-abrigo.wav,./stim/wavs/mexican_match_declarative-narrow-focus_Ana-lleva-el-abrigo.wav,./stim/wavs/peruvian_match_declarative-narrow-focus_Ana-lleva-el-abrigo.wav,./stim/wavs/puertorican_match_declarative-narrow-focus_Ana-lleva-el-abrigo.wav,,,,,,,,,,,,,,,,,,,,,,,,,,,,,,,,,,,,,,,,,,,,,,,,,,,,,,,,
,,,,,,,601840b15165f20756c64e0f,605b45a4d25f287719a41696,605ccac1507848685cef3e51,Mexico,East coast,13 or older,no,2021-03-25_13h40.05.203,empathy_intonation_perc,2020.2.10,Win32,60,,,,,,,,,,0,chilean,0,1,1.80057,0,62,62,39,1,40,./stim/wavs/andalusian_mismatch_declarative-broad-focus_Mi-tia-odia-la-lluvia.wav,./stim/wavs/argentine_mismatch_declarative-broad-focus_Mi-tia-odia-la-lluvia.wav,./stim/wavs/castilian_mismatch_declarative-broad-focus_Mi-tia-odia-la-lluvia.wav,./stim/wavs/chilean_mismatch_declarative-broad-focus_Mi-tia-odia-la-lluvia.wav,./stim/wavs/cuban_mismatch_declarative-broad-focus_Mi-tia-odia-la-lluvia.wav,./stim/wavs/mexican_mismatch_declarative-broad-focus_Mi-tia-odia-la-lluvia.wav,./stim/wavs/peruvian_mismatch_declarative-broad-focus_Mi-tia-odia-la-lluvia.wav,./stim/wavs/puertorican_mismatch_declarative-broad-focus_Mi-tia-odia-la-lluvia.wav,,,,,,,,,,,,,,,,,,,,,,,,,,,,,,,,,,,,,,,,,,,,,,,,,,,,,,,,
,,,,,,,601840b15165f20756c64e0f,605b45a4d25f287719a41696,605ccac1507848685cef3e51,Mexico,East coast,13 or older,no,2021-03-25_13h40.05.203,empathy_intonation_perc,2020.2.10,Win32,60,,,,,,,,,,0,puertorican,0,1,1.492985,0,63,63,47,1,48,./stim/wavs/andalusian_mismatch_declarative-narrow-focus_Mi-tia-odia-la-lluvia.wav,./stim/wavs/argentine_mismatch_declarative-narrow-focus_Mi-tia-odia-la-lluvia.wav,./stim/wavs/castilian_mismatch_declarative-narrow-focus_Mi-tia-odia-la-lluvia.wav,./stim/wavs/chilean_mismatch_declarative-narrow-focus_Mi-tia-odia-la-lluvia.wav,./stim/wavs/cuban_mismatch_declarative-narrow-focus_Mi-tia-odia-la-lluvia.wav,./stim/wavs/mexican_mismatch_declarative-narrow-focus_Mi-tia-odia-la-lluvia.wav,./stim/wavs/peruvian_mismatch_declarative-narrow-focus_Mi-tia-odia-la-lluvia.wav,./stim/wavs/puertorican_mismatch_declarative-narrow-focus_Mi-tia-odia-la-lluvia.wav,,,,,,,,,,,,,,,,,,,,,,,,,,,,,,,,,,,,,,,,,,,,,,,,,,,,,,,,
,,,,,,,601840b15165f20756c64e0f,605b45a4d25f287719a41696,605ccac1507848685cef3e51,Mexico,East coast,13 or older,no,2021-03-25_13h40.05.203,empathy_intonation_perc,2020.2.10,Win32,60,,,,,,,,,,,,,,,,,,,,,,,,,,,,,h,1,7.187595,0,0,0,0,1,,,,,,,,,,,,,,,,,,,,,,,,,,,,,,,,,,,,,,,,,,,,,,,,
,,,,,"Great! Now we will move on. The next task consists of about 60 trials, in each of which you will see a string of letters. 
  
  Your task is to decide whether this is a real Spanish word or not.",(press the spacebar to continue),601840b15165f20756c64e0f,605b45a4d25f287719a41696,605ccac1507848685cef3e51,Mexico,East coast,13 or older,no,2021-03-25_13h40.05.203,empathy_intonation_perc,2020.2.10,Win32,60,,,,,,,,,,,,,,,,,,,,,,,,,,,,,,,,,,,,,0,0,0,0,1,,,,,,,,,,,,,,,,,,,,,,,,,,,,,,,,,,,,,,,,,,,
,,,,,"If you think it is an existing Spanish word, you type '1' (for 'REAL'), and if you think it is not an existing Spanish word, you type '0' (for 'FAKE').",(press the spacebar to continue),601840b15165f20756c64e0f,605b45a4d25f287719a41696,605ccac1507848685cef3e51,Mexico,East coast,13 or older,no,2021-03-25_13h40.05.203,empathy_intonation_perc,2020.2.10,Win32,60,,,,,,,,,,,,,,,,,,,,,,,,,,,,,,,,,,,,,0,1,1,1,1,,,,,,,,,,,,,,,,,,,,,,,,,,,,,,,,,,,,,,,,,,,
,,,,,"If you are sure that the word exists, even though you dont know its exact meaning, you may still respond '1' (REAL). 
  
  But if you are not sure if it is an existing word, you should respond '0' (FAKE).
  
  Let's do a practice round...",(press the spacebar to continue),601840b15165f20756c64e0f,605b45a4d25f287719a41696,605ccac1507848685cef3e51,Mexico,East coast,13 or older,no,2021-03-25_13h40.05.203,empathy_intonation_perc,2020.2.10,Win32,60,,,,,,,,,,,,,,,,,,,,,,,,,,,,,,,,,,,,,0,2,2,2,1,,,,,,,,,,,,,,,,,,,,,,,,,,,,,,,,,,,,,,,,,,,
,,,,,,,601840b15165f20756c64e0f,605b45a4d25f287719a41696,605ccac1507848685cef3e51,Mexico,East coast,13 or older,no,2021-03-25_13h40.05.203,empathy_intonation_perc,2020.2.10,Win32,60,,,,,,,,,,0,,,,,,,,,,,,,,,,,,,,,,,,,,,,,,,,1,0,1.701345,0,0,0,0,1,0,depiste,REAL,FAKE,,,,,,,,,,,,,,,,,,,,,,,,,,,,,,,
,,,,,,,601840b15165f20756c64e0f,605b45a4d25f287719a41696,605ccac1507848685cef3e51,Mexico,East coast,13 or older,no,2021-03-25_13h40.05.203,empathy_intonation_perc,2020.2.10,Win32,60,,,,,,,,,,1,,,,,,,,,,,,,,,,,,,,,,,,,,,,,,,,1,1,1.51746,0,1,1,1,1,0,s,REAL,FAKE,,,,,,,,,,,,,,,,,,,,,,,,,,,,,,,
,,,,,,,601840b15165f20756c64e0f,605b45a4d25f287719a41696,605ccac1507848685cef3e51,Mexico,East coast,13 or older,no,2021-03-25_13h40.05.203,empathy_intonation_perc,2020.2.10,Win32,60,,,,,,,,,,0,,,,,,,,,,,,,,,,,,,,,,,,,,,,,,,,0,1,1.4348,0,2,2,2,1,0,con,REAL,FAKE,,,,,,,,,,,,,,,,,,,,,,,,,,,,,,,
,,,,,,,601840b15165f20756c64e0f,605b45a4d25f287719a41696,605ccac1507848685cef3e51,Mexico,East coast,13 or older,no,2021-03-25_13h40.05.203,empathy_intonation_perc,2020.2.10,Win32,60,,,,,,,,,,0,,,,,,,,,,,,,,,,,,,,,,,,,,,,,,,,1,0,0.942105,0,3,3,3,1,0,calpar,REAL,FAKE,,,,,,,,,,,,,,,,,,,,,,,,,,,,,,,
,,,,,,,601840b15165f20756c64e0f,605b45a4d25f287719a41696,605ccac1507848685cef3e51,Mexico,East coast,13 or older,no,2021-03-25_13h40.05.203,empathy_intonation_perc,2020.2.10,Win32,60,,,,,,,,,,0,,,,,,,,,,,,,,,,,,,,,,,,,,,,,,,,0,1,1.243035,0,4,4,4,1,0,joten,REAL,FAKE,,,,,,,,,,,,,,,,,,,,,,,,,,,,,,,
,,,,,,,601840b15165f20756c64e0f,605b45a4d25f287719a41696,605ccac1507848685cef3e51,Mexico,East coast,13 or older,no,2021-03-25_13h40.05.203,empathy_intonation_perc,2020.2.10,Win32,60,,,,,,,,,,1,,,,,,,,,,,,,,,,,,,,,,,,,,,,,,,,1,1,1.00604,0,5,5,5,1,0,sacapuntas,REAL,FAKE,,,,,,,,,,,,,,,,,,,,,,,,,,,,,,,
,,,,,,,601840b15165f20756c64e0f,605b45a4d25f287719a41696,605ccac1507848685cef3e51,Mexico,East coast,13 or older,no,2021-03-25_13h40.05.203,empathy_intonation_perc,2020.2.10,Win32,60,,,,,,,,,,0,,,,,,,,,,,,,,,,,,,,,,,,,,,,,,,,1,0,1.351425,0,6,6,6,1,0,priba,REAL,FAKE,,,,,,,,,,,,,,,,,,,,,,,,,,,,,,,
,,,,,,,601840b15165f20756c64e0f,605b45a4d25f287719a41696,605ccac1507848685cef3e51,Mexico,East coast,13 or older,no,2021-03-25_13h40.05.203,empathy_intonation_perc,2020.2.10,Win32,60,,,,,,,,,,0,,,,,,,,,,,,,,,,,,,,,,,,,,,,,,,,1,0,1.23983,0,7,7,7,1,0,pelasula,REAL,FAKE,,,,,,,,,,,,,,,,,,,,,,,,,,,,,,,
,,,,,,,601840b15165f20756c64e0f,605b45a4d25f287719a41696,605ccac1507848685cef3e51,Mexico,East coast,13 or older,no,2021-03-25_13h40.05.203,empathy_intonation_perc,2020.2.10,Win32,60,,,,,,,,,,1,,,,,,,,,,,,,,,,,,,,,,,,,,,,,,,,1,1,0.95335,0,8,8,8,1,0,bien,REAL,FAKE,,,,,,,,,,,,,,,,,,,,,,,,,,,,,,,
,,,,,,,601840b15165f20756c64e0f,605b45a4d25f287719a41696,605ccac1507848685cef3e51,Mexico,East coast,13 or older,no,2021-03-25_13h40.05.203,empathy_intonation_perc,2020.2.10,Win32,60,,,,,,,,,,1,,,,,,,,,,,,,,,,,,,,,,,,,,,,,,,,1,1,0.706775,0,9,9,9,1,0,casa,REAL,FAKE,,,,,,,,,,,,,,,,,,,,,,,,,,,,,,,
,,,,,,,601840b15165f20756c64e0f,605b45a4d25f287719a41696,605ccac1507848685cef3e51,Mexico,East coast,13 or older,no,2021-03-25_13h40.05.203,empathy_intonation_perc,2020.2.10,Win32,60,,,,,,,,,,0,,,,,,,,,,,,,,,,,,,,,,,,,,,,,,,,1,0,0.934575,0,10,10,10,1,0,lejo,REAL,FAKE,,,,,,,,,,,,,,,,,,,,,,,,,,,,,,,
,,,,,,,601840b15165f20756c64e0f,605b45a4d25f287719a41696,605ccac1507848685cef3e51,Mexico,East coast,13 or older,no,2021-03-25_13h40.05.203,empathy_intonation_perc,2020.2.10,Win32,60,,,,,,,,,,0,,,,,,,,,,,,,,,,,,,,,,,,,,,,,,,,1,0,1.01762,0,11,11,11,1,0,pretantas,REAL,FAKE,,,,,,,,,,,,,,,,,,,,,,,,,,,,,,,
,,,,,,,601840b15165f20756c64e0f,605b45a4d25f287719a41696,605ccac1507848685cef3e51,Mexico,East coast,13 or older,no,2021-03-25_13h40.05.203,empathy_intonation_perc,2020.2.10,Win32,60,,,,,,,,,,1,,,,,,,,,,,,,,,,,,,,,,,,,,,,,,,,,,,,,,,,44,cuchara,,,1,1,0.863775,0,0,0,43,1,REAL,FAKE,,,,,,,,,,,,,,,,,,,,,
,,,,,,,601840b15165f20756c64e0f,605b45a4d25f287719a41696,605ccac1507848685cef3e51,Mexico,East coast,13 or older,no,2021-03-25_13h40.05.203,empathy_intonation_perc,2020.2.10,Win32,60,,,,,,,,,,0,,,,,,,,,,,,,,,,,,,,,,,,,,,,,,,,,,,,,,,,18,arsa,,,1,0,0.748355,0,1,1,17,1,REAL,FAKE,,,,,,,,,,,,,,,,,,,,,
,,,,,,,601840b15165f20756c64e0f,605b45a4d25f287719a41696,605ccac1507848685cef3e51,Mexico,East coast,13 or older,no,2021-03-25_13h40.05.203,empathy_intonation_perc,2020.2.10,Win32,60,,,,,,,,,,1,,,,,,,,,,,,,,,,,,,,,,,,,,,,,,,,,,,,,,,,89,prisa,,,1,1,0.736865,0,2,2,88,1,REAL,FAKE,,,,,,,,,,,,,,,,,,,,,
,,,,,,,601840b15165f20756c64e0f,605b45a4d25f287719a41696,605ccac1507848685cef3e51,Mexico,East coast,13 or older,no,2021-03-25_13h40.05.203,empathy_intonation_perc,2020.2.10,Win32,60,,,,,,,,,,1,,,,,,,,,,,,,,,,,,,,,,,,,,,,,,,,,,,,,,,,59,besar,,,1,1,0.76705,0,3,3,58,1,REAL,FAKE,,,,,,,,,,,,,,,,,,,,,
,,,,,,,601840b15165f20756c64e0f,605b45a4d25f287719a41696,605ccac1507848685cef3e51,Mexico,East coast,13 or older,no,2021-03-25_13h40.05.203,empathy_intonation_perc,2020.2.10,Win32,60,,,,,,,,,,1,,,,,,,,,,,,,,,,,,,,,,,,,,,,,,,,,,,,,,,,31,pandilla,,,1,1,0.681065,0,4,4,30,1,REAL,FAKE,,,,,,,,,,,,,,,,,,,,,
,,,,,,,601840b15165f20756c64e0f,605b45a4d25f287719a41696,605ccac1507848685cef3e51,Mexico,East coast,13 or older,no,2021-03-25_13h40.05.203,empathy_intonation_perc,2020.2.10,Win32,60,,,,,,,,,,1,,,,,,,,,,,,,,,,,,,,,,,,,,,,,,,,,,,,,,,,88,acantilado,,,1,1,2.280015,0,5,5,87,1,REAL,FAKE,,,,,,,,,,,,,,,,,,,,,
,,,,,,,601840b15165f20756c64e0f,605b45a4d25f287719a41696,605ccac1507848685cef3e51,Mexico,East coast,13 or older,no,2021-03-25_13h40.05.203,empathy_intonation_perc,2020.2.10,Win32,60,,,,,,,,,,1,,,,,,,,,,,,,,,,,,,,,,,,,,,,,,,,,,,,,,,,28,merodear,,,0,0,1.31216,0,6,6,27,1,REAL,FAKE,,,,,,,,,,,,,,,,,,,,,
,,,,,,,601840b15165f20756c64e0f,605b45a4d25f287719a41696,605ccac1507848685cef3e51,Mexico,East coast,13 or older,no,2021-03-25_13h40.05.203,empathy_intonation_perc,2020.2.10,Win32,60,,,,,,,,,,0,,,,,,,,,,,,,,,,,,,,,,,,,,,,,,,,,,,,,,,,53,vegada,,,0,1,1.148695,0,7,7,52,1,REAL,FAKE,,,,,,,,,,,,,,,,,,,,,
,,,,,,,601840b15165f20756c64e0f,605b45a4d25f287719a41696,605ccac1507848685cef3e51,Mexico,East coast,13 or older,no,2021-03-25_13h40.05.203,empathy_intonation_perc,2020.2.10,Win32,60,,,,,,,,,,0,,,,,,,,,,,,,,,,,,,,,,,,,,,,,,,,,,,,,,,,50,flamida,,,0,1,1.646455,0,8,8,49,1,REAL,FAKE,,,,,,,,,,,,,,,,,,,,,
,,,,,,,601840b15165f20756c64e0f,605b45a4d25f287719a41696,605ccac1507848685cef3e51,Mexico,East coast,13 or older,no,2021-03-25_13h40.05.203,empathy_intonation_perc,2020.2.10,Win32,60,,,,,,,,,,1,,,,,,,,,,,,,,,,,,,,,,,,,,,,,,,,,,,,,,,,71,polvoriento,,,1,1,1.146995,0,9,9,70,1,REAL,FAKE,,,,,,,,,,,,,,,,,,,,,
,,,,,,,601840b15165f20756c64e0f,605b45a4d25f287719a41696,605ccac1507848685cef3e51,Mexico,East coast,13 or older,no,2021-03-25_13h40.05.203,empathy_intonation_perc,2020.2.10,Win32,60,,,,,,,,,,0,,,,,,,,,,,,,,,,,,,,,,,,,,,,,,,,,,,,,,,,8,cadea,,,1,0,1.106215,0,10,10,7,1,REAL,FAKE,,,,,,,,,,,,,,,,,,,,,
,,,,,,,601840b15165f20756c64e0f,605b45a4d25f287719a41696,605ccac1507848685cef3e51,Mexico,East coast,13 or older,no,2021-03-25_13h40.05.203,empathy_intonation_perc,2020.2.10,Win32,60,,,,,,,,,,0,,,,,,,,,,,,,,,,,,,,,,,,,,,,,,,,,,,,,,,,63,esposante,,,1,0,0.936355,0,11,11,62,1,REAL,FAKE,,,,,,,,,,,,,,,,,,,,,
,,,,,,,601840b15165f20756c64e0f,605b45a4d25f287719a41696,605ccac1507848685cef3e51,Mexico,East coast,13 or older,no,2021-03-25_13h40.05.203,empathy_intonation_perc,2020.2.10,Win32,60,,,,,,,,,,1,,,,,,,,,,,,,,,,,,,,,,,,,,,,,,,,,,,,,,,,36,loro,,,0,0,1.94526,0,12,12,35,1,REAL,FAKE,,,,,,,,,,,,,,,,,,,,,
,,,,,,,601840b15165f20756c64e0f,605b45a4d25f287719a41696,605ccac1507848685cef3e51,Mexico,East coast,13 or older,no,2021-03-25_13h40.05.203,empathy_intonation_perc,2020.2.10,Win32,60,,,,,,,,,,1,,,,,,,,,,,,,,,,,,,,,,,,,,,,,,,,,,,,,,,,77,tiburn,,,1,1,1.03665,0,13,13,76,1,REAL,FAKE,,,,,,,,,,,,,,,,,,,,,
,,,,,,,601840b15165f20756c64e0f,605b45a4d25f287719a41696,605ccac1507848685cef3e51,Mexico,East coast,13 or older,no,2021-03-25_13h40.05.203,empathy_intonation_perc,2020.2.10,Win32,60,,,,,,,,,,1,,,,,,,,,,,,,,,,,,,,,,,,,,,,,,,,,,,,,,,,11,cenefa,,,0,0,1.49029,0,14,14,10,1,REAL,FAKE,,,,,,,,,,,,,,,,,,,,,
,,,,,,,601840b15165f20756c64e0f,605b45a4d25f287719a41696,605ccac1507848685cef3e51,Mexico,East coast,13 or older,no,2021-03-25_13h40.05.203,empathy_intonation_perc,2020.2.10,Win32,60,,,,,,,,,,1,,,,,,,,,,,,,,,,,,,,,,,,,,,,,,,,,,,,,,,,75,yacer,,,0,0,1.190525,0,15,15,74,1,REAL,FAKE,,,,,,,,,,,,,,,,,,,,,
,,,,,,,601840b15165f20756c64e0f,605b45a4d25f287719a41696,605ccac1507848685cef3e51,Mexico,East coast,13 or older,no,2021-03-25_13h40.05.203,empathy_intonation_perc,2020.2.10,Win32,60,,,,,,,,,,1,,,,,,,,,,,,,,,,,,,,,,,,,,,,,,,,,,,,,,,,51,candado,,,1,1,1.08752,0,16,16,50,1,REAL,FAKE,,,,,,,,,,,,,,,,,,,,,
,,,,,,,601840b15165f20756c64e0f,605b45a4d25f287719a41696,605ccac1507848685cef3e51,Mexico,East coast,13 or older,no,2021-03-25_13h40.05.203,empathy_intonation_perc,2020.2.10,Win32,60,,,,,,,,,,0,,,,,,,,,,,,,,,,,,,,,,,,,,,,,,,,,,,,,,,,70,temblo,,,1,0,1.11625,0,17,17,69,1,REAL,FAKE,,,,,,,,,,,,,,,,,,,,,
,,,,,,,601840b15165f20756c64e0f,605b45a4d25f287719a41696,605ccac1507848685cef3e51,Mexico,East coast,13 or older,no,2021-03-25_13h40.05.203,empathy_intonation_perc,2020.2.10,Win32,60,,,,,,,,,,1,,,,,,,,,,,,,,,,,,,,,,,,,,,,,,,,,,,,,,,,2,pellizcar,,,1,1,2.94842,0,18,18,1,1,REAL,FAKE,,,,,,,,,,,,,,,,,,,,,
,,,,,,,601840b15165f20756c64e0f,605b45a4d25f287719a41696,605ccac1507848685cef3e51,Mexico,East coast,13 or older,no,2021-03-25_13h40.05.203,empathy_intonation_perc,2020.2.10,Win32,60,,,,,,,,,,0,,,,,,,,,,,,,,,,,,,,,,,,,,,,,,,,,,,,,,,,4,batilln,,,1,0,1.16294,0,19,19,3,1,REAL,FAKE,,,,,,,,,,,,,,,,,,,,,
,,,,,,,601840b15165f20756c64e0f,605b45a4d25f287719a41696,605ccac1507848685cef3e51,Mexico,East coast,13 or older,no,2021-03-25_13h40.05.203,empathy_intonation_perc,2020.2.10,Win32,60,,,,,,,,,,0,,,,,,,,,,,,,,,,,,,,,,,,,,,,,,,,,,,,,,,,1,terzo,,,0,1,0.61373,0,20,20,0,1,REAL,FAKE,,,,,,,,,,,,,,,,,,,,,
,,,,,,,601840b15165f20756c64e0f,605b45a4d25f287719a41696,605ccac1507848685cef3e51,Mexico,East coast,13 or older,no,2021-03-25_13h40.05.203,empathy_intonation_perc,2020.2.10,Win32,60,,,,,,,,,,1,,,,,,,,,,,,,,,,,,,,,,,,,,,,,,,,,,,,,,,,41,rebuscar,,,1,1,1.489035,0,21,21,40,1,REAL,FAKE,,,,,,,,,,,,,,,,,,,,,
,,,,,,,601840b15165f20756c64e0f,605b45a4d25f287719a41696,605ccac1507848685cef3e51,Mexico,East coast,13 or older,no,2021-03-25_13h40.05.203,empathy_intonation_perc,2020.2.10,Win32,60,,,,,,,,,,0,,,,,,,,,,,,,,,,,,,,,,,,,,,,,,,,,,,,,,,,21,capillo,,,1,0,1.04106,0,22,22,20,1,REAL,FAKE,,,,,,,,,,,,,,,,,,,,,
,,,,,,,601840b15165f20756c64e0f,605b45a4d25f287719a41696,605ccac1507848685cef3e51,Mexico,East coast,13 or older,no,2021-03-25_13h40.05.203,empathy_intonation_perc,2020.2.10,Win32,60,,,,,,,,,,1,,,,,,,,,,,,,,,,,,,,,,,,,,,,,,,,,,,,,,,,37,granuja,,,1,1,1.396535,0,23,23,36,1,REAL,FAKE,,,,,,,,,,,,,,,,,,,,,
,,,,,,,601840b15165f20756c64e0f,605b45a4d25f287719a41696,605ccac1507848685cef3e51,Mexico,East coast,13 or older,no,2021-03-25_13h40.05.203,empathy_intonation_perc,2020.2.10,Win32,60,,,,,,,,,,0,,,,,,,,,,,,,,,,,,,,,,,,,,,,,,,,,,,,,,,,72,pemicin,,,0,1,1.18506,0,24,24,71,1,REAL,FAKE,,,,,,,,,,,,,,,,,,,,,
,,,,,,,601840b15165f20756c64e0f,605b45a4d25f287719a41696,605ccac1507848685cef3e51,Mexico,East coast,13 or older,no,2021-03-25_13h40.05.203,empathy_intonation_perc,2020.2.10,Win32,60,,,,,,,,,,1,,,,,,,,,,,,,,,,,,,,,,,,,,,,,,,,,,,,,,,,12,asesinato,,,0,0,0.98938,0,25,25,11,1,REAL,FAKE,,,,,,,,,,,,,,,,,,,,,
,,,,,,,601840b15165f20756c64e0f,605b45a4d25f287719a41696,605ccac1507848685cef3e51,Mexico,East coast,13 or older,no,2021-03-25_13h40.05.203,empathy_intonation_perc,2020.2.10,Win32,60,,,,,,,,,,1,,,,,,,,,,,,,,,,,,,,,,,,,,,,,,,,,,,,,,,,26,secuestro,,,1,1,0.958915,0,26,26,25,1,REAL,FAKE,,,,,,,,,,,,,,,,,,,,,
,,,,,,,601840b15165f20756c64e0f,605b45a4d25f287719a41696,605ccac1507848685cef3e51,Mexico,East coast,13 or older,no,2021-03-25_13h40.05.203,empathy_intonation_perc,2020.2.10,Win32,60,,,,,,,,,,0,,,,,,,,,,,,,,,,,,,,,,,,,,,,,,,,,,,,,,,,87,grodo,,,1,0,1.067985,0,27,27,86,1,REAL,FAKE,,,,,,,,,,,,,,,,,,,,,
,,,,,,,601840b15165f20756c64e0f,605b45a4d25f287719a41696,605ccac1507848685cef3e51,Mexico,East coast,13 or older,no,2021-03-25_13h40.05.203,empathy_intonation_perc,2020.2.10,Win32,60,,,,,,,,,,0,,,,,,,,,,,,,,,,,,,,,,,,,,,,,,,,,,,,,,,,79,tropaje,,,1,0,1.546025,0,28,28,78,1,REAL,FAKE,,,,,,,,,,,,,,,,,,,,,
,,,,,,,601840b15165f20756c64e0f,605b45a4d25f287719a41696,605ccac1507848685cef3e51,Mexico,East coast,13 or older,no,2021-03-25_13h40.05.203,empathy_intonation_perc,2020.2.10,Win32,60,,,,,,,,,,0,,,,,,,,,,,,,,,,,,,,,,,,,,,,,,,,,,,,,,,,16,abracer,,,1,0,0.779105,0,29,29,15,1,REAL,FAKE,,,,,,,,,,,,,,,,,,,,,
,,,,,,,601840b15165f20756c64e0f,605b45a4d25f287719a41696,605ccac1507848685cef3e51,Mexico,East coast,13 or older,no,2021-03-25_13h40.05.203,empathy_intonation_perc,2020.2.10,Win32,60,,,,,,,,,,1,,,,,,,,,,,,,,,,,,,,,,,,,,,,,,,,,,,,,,,,43,canela,,,1,1,1.17405,0,30,30,42,1,REAL,FAKE,,,,,,,,,,,,,,,,,,,,,
,,,,,,,601840b15165f20756c64e0f,605b45a4d25f287719a41696,605ccac1507848685cef3e51,Mexico,East coast,13 or older,no,2021-03-25_13h40.05.203,empathy_intonation_perc,2020.2.10,Win32,60,,,,,,,,,,0,,,,,,,,,,,,,,,,,,,,,,,,,,,,,,,,,,,,,,,,10,antar,,,0,1,0.89806,0,31,31,9,1,REAL,FAKE,,,,,,,,,,,,,,,,,,,,,
,,,,,,,601840b15165f20756c64e0f,605b45a4d25f287719a41696,605ccac1507848685cef3e51,Mexico,East coast,13 or older,no,2021-03-25_13h40.05.203,empathy_intonation_perc,2020.2.10,Win32,60,,,,,,,,,,1,,,,,,,,,,,,,,,,,,,,,,,,,,,,,,,,,,,,,,,,39,torpe,,,0,0,1.047985,0,32,32,38,1,REAL,FAKE,,,,,,,,,,,,,,,,,,,,,
,,,,,,,601840b15165f20756c64e0f,605b45a4d25f287719a41696,605ccac1507848685cef3e51,Mexico,East coast,13 or older,no,2021-03-25_13h40.05.203,empathy_intonation_perc,2020.2.10,Win32,60,,,,,,,,,,0,,,,,,,,,,,,,,,,,,,,,,,,,,,,,,,,,,,,,,,,19,brecedad,,,0,1,1.45697,0,33,33,18,1,REAL,FAKE,,,,,,,,,,,,,,,,,,,,,
,,,,,,,601840b15165f20756c64e0f,605b45a4d25f287719a41696,605ccac1507848685cef3e51,Mexico,East coast,13 or older,no,2021-03-25_13h40.05.203,empathy_intonation_perc,2020.2.10,Win32,60,,,,,,,,,,1,,,,,,,,,,,,,,,,,,,,,,,,,,,,,,,,,,,,,,,,52,camisa,,,1,1,0.730485,0,34,34,51,1,REAL,FAKE,,,,,,,,,,,,,,,,,,,,,
,,,,,,,601840b15165f20756c64e0f,605b45a4d25f287719a41696,605ccac1507848685cef3e51,Mexico,East coast,13 or older,no,2021-03-25_13h40.05.203,empathy_intonation_perc,2020.2.10,Win32,60,,,,,,,,,,1,,,,,,,,,,,,,,,,,,,,,,,,,,,,,,,,,,,,,,,,46,martillo,,,0,0,1.54878,0,35,35,45,1,REAL,FAKE,,,,,,,,,,,,,,,,,,,,,
,,,,,,,601840b15165f20756c64e0f,605b45a4d25f287719a41696,605ccac1507848685cef3e51,Mexico,East coast,13 or older,no,2021-03-25_13h40.05.203,empathy_intonation_perc,2020.2.10,Win32,60,,,,,,,,,,1,,,,,,,,,,,,,,,,,,,,,,,,,,,,,,,,,,,,,,,,83,guante,,,1,1,0.95852,0,36,36,82,1,REAL,FAKE,,,,,,,,,,,,,,,,,,,,,
,,,,,,,601840b15165f20756c64e0f,605b45a4d25f287719a41696,605ccac1507848685cef3e51,Mexico,East coast,13 or older,no,2021-03-25_13h40.05.203,empathy_intonation_perc,2020.2.10,Win32,60,,,,,,,,,,1,,,,,,,,,,,,,,,,,,,,,,,,,,,,,,,,,,,,,,,,48,ladrn,,,1,1,0.81988,0,37,37,47,1,REAL,FAKE,,,,,,,,,,,,,,,,,,,,,
,,,,,,,601840b15165f20756c64e0f,605b45a4d25f287719a41696,605ccac1507848685cef3e51,Mexico,East coast,13 or older,no,2021-03-25_13h40.05.203,empathy_intonation_perc,2020.2.10,Win32,60,,,,,,,,,,1,,,,,,,,,,,,,,,,,,,,,,,,,,,,,,,,,,,,,,,,55,nevar,,,0,0,0.856755,0,38,38,54,1,REAL,FAKE,,,,,,,,,,,,,,,,,,,,,
,,,,,,,601840b15165f20756c64e0f,605b45a4d25f287719a41696,605ccac1507848685cef3e51,Mexico,East coast,13 or older,no,2021-03-25_13h40.05.203,empathy_intonation_perc,2020.2.10,Win32,60,,,,,,,,,,1,,,,,,,,,,,,,,,,,,,,,,,,,,,,,,,,,,,,,,,,5,zapato,,,1,1,0.785105,0,39,39,4,1,REAL,FAKE,,,,,,,,,,,,,,,,,,,,,
,,,,,,,601840b15165f20756c64e0f,605b45a4d25f287719a41696,605ccac1507848685cef3e51,Mexico,East coast,13 or older,no,2021-03-25_13h40.05.203,empathy_intonation_perc,2020.2.10,Win32,60,,,,,,,,,,1,,,,,,,,,,,,,,,,,,,,,,,,,,,,,,,,,,,,,,,,69,engatusar,,,1,1,1.02227,0,40,40,68,1,REAL,FAKE,,,,,,,,,,,,,,,,,,,,,
,,,,,,,601840b15165f20756c64e0f,605b45a4d25f287719a41696,605ccac1507848685cef3e51,Mexico,East coast,13 or older,no,2021-03-25_13h40.05.203,empathy_intonation_perc,2020.2.10,Win32,60,,,,,,,,,,1,,,,,,,,,,,,,,,,,,,,,,,,,,,,,,,,,,,,,,,,76,atar,,,0,0,0.7049,0,41,41,75,1,REAL,FAKE,,,,,,,,,,,,,,,,,,,,,
,,,,,,,601840b15165f20756c64e0f,605b45a4d25f287719a41696,605ccac1507848685cef3e51,Mexico,East coast,13 or older,no,2021-03-25_13h40.05.203,empathy_intonation_perc,2020.2.10,Win32,60,,,,,,,,,,0,,,,,,,,,,,,,,,,,,,,,,,,,,,,,,,,,,,,,,,,58,plaudir,,,0,1,0.94404,0,42,42,57,1,REAL,FAKE,,,,,,,,,,,,,,,,,,,,,
,,,,,,,601840b15165f20756c64e0f,605b45a4d25f287719a41696,605ccac1507848685cef3e51,Mexico,East coast,13 or older,no,2021-03-25_13h40.05.203,empathy_intonation_perc,2020.2.10,Win32,60,,,,,,,,,,0,,,,,,,,,,,,,,,,,,,,,,,,,,,,,,,,,,,,,,,,47,cartinar,,,1,0,1.091695,0,43,43,46,1,REAL,FAKE,,,,,,,,,,,,,,,,,,,,,
,,,,,,,601840b15165f20756c64e0f,605b45a4d25f287719a41696,605ccac1507848685cef3e51,Mexico,East coast,13 or older,no,2021-03-25_13h40.05.203,empathy_intonation_perc,2020.2.10,Win32,60,,,,,,,,,,0,,,,,,,,,,,,,,,,,,,,,,,,,,,,,,,,,,,,,,,,17,floroso,,,1,0,0.965145,0,44,44,16,1,REAL,FAKE,,,,,,,,,,,,,,,,,,,,,
,,,,,,,601840b15165f20756c64e0f,605b45a4d25f287719a41696,605ccac1507848685cef3e51,Mexico,East coast,13 or older,no,2021-03-25_13h40.05.203,empathy_intonation_perc,2020.2.10,Win32,60,,,,,,,,,,1,,,,,,,,,,,,,,,,,,,,,,,,,,,,,,,,,,,,,,,,60,matar,,,1,1,1.58605,0,45,45,59,1,REAL,FAKE,,,,,,,,,,,,,,,,,,,,,
,,,,,,,601840b15165f20756c64e0f,605b45a4d25f287719a41696,605ccac1507848685cef3e51,Mexico,East coast,13 or older,no,2021-03-25_13h40.05.203,empathy_intonation_perc,2020.2.10,Win32,60,,,,,,,,,,0,,,,,,,,,,,,,,,,,,,,,,,,,,,,,,,,,,,,,,,,32,fatacidad,,,0,1,1.20751,0,46,46,31,1,REAL,FAKE,,,,,,,,,,,,,,,,,,,,,
,,,,,,,601840b15165f20756c64e0f,605b45a4d25f287719a41696,605ccac1507848685cef3e51,Mexico,East coast,13 or older,no,2021-03-25_13h40.05.203,empathy_intonation_perc,2020.2.10,Win32,60,,,,,,,,,,0,,,,,,,,,,,,,,,,,,,,,,,,,,,,,,,,,,,,,,,,66,hacido,,,1,0,0.898265,0,47,47,65,1,REAL,FAKE,,,,,,,,,,,,,,,,,,,,,
,,,,,,,601840b15165f20756c64e0f,605b45a4d25f287719a41696,605ccac1507848685cef3e51,Mexico,East coast,13 or older,no,2021-03-25_13h40.05.203,empathy_intonation_perc,2020.2.10,Win32,60,,,,,,,,,,1,,,,,,,,,,,,,,,,,,,,,,,,,,,,,,,,,,,,,,,,14,yunque,,,0,0,2.40053,0,48,48,13,1,REAL,FAKE,,,,,,,,,,,,,,,,,,,,,
,,,,,,,601840b15165f20756c64e0f,605b45a4d25f287719a41696,605ccac1507848685cef3e51,Mexico,East coast,13 or older,no,2021-03-25_13h40.05.203,empathy_intonation_perc,2020.2.10,Win32,60,,,,,,,,,,1,,,,,,,,,,,,,,,,,,,,,,,,,,,,,,,,,,,,,,,,80,hormiga,,,0,0,0.93579,0,49,49,79,1,REAL,FAKE,,,,,,,,,,,,,,,,,,,,,
,,,,,,,601840b15165f20756c64e0f,605b45a4d25f287719a41696,605ccac1507848685cef3e51,Mexico,East coast,13 or older,no,2021-03-25_13h40.05.203,empathy_intonation_perc,2020.2.10,Win32,60,,,,,,,,,,1,,,,,,,,,,,,,,,,,,,,,,,,,,,,,,,,,,,,,,,,90,clavel,,,0,0,1.04051,0,50,50,89,1,REAL,FAKE,,,,,,,,,,,,,,,,,,,,,
,,,,,,,601840b15165f20756c64e0f,605b45a4d25f287719a41696,605ccac1507848685cef3e51,Mexico,East coast,13 or older,no,2021-03-25_13h40.05.203,empathy_intonation_perc,2020.2.10,Win32,60,,,,,,,,,,1,,,,,,,,,,,,,,,,,,,,,,,,,,,,,,,,,,,,,,,,25,bisagra,,,1,1,1.355825,0,51,51,24,1,REAL,FAKE,,,,,,,,,,,,,,,,,,,,,
,,,,,,,601840b15165f20756c64e0f,605b45a4d25f287719a41696,605ccac1507848685cef3e51,Mexico,East coast,13 or older,no,2021-03-25_13h40.05.203,empathy_intonation_perc,2020.2.10,Win32,60,,,,,,,,,,0,,,,,,,,,,,,,,,,,,,,,,,,,,,,,,,,,,,,,,,,74,cintro,,,1,0,0.94615,0,52,52,73,1,REAL,FAKE,,,,,,,,,,,,,,,,,,,,,
,,,,,,,601840b15165f20756c64e0f,605b45a4d25f287719a41696,605ccac1507848685cef3e51,Mexico,East coast,13 or older,no,2021-03-25_13h40.05.203,empathy_intonation_perc,2020.2.10,Win32,60,,,,,,,,,,0,,,,,,,,,,,,,,,,,,,,,,,,,,,,,,,,,,,,,,,,35,rompido,,,1,0,0.948345,0,53,53,34,1,REAL,FAKE,,,,,,,,,,,,,,,,,,,,,
,,,,,,,601840b15165f20756c64e0f,605b45a4d25f287719a41696,605ccac1507848685cef3e51,Mexico,East coast,13 or older,no,2021-03-25_13h40.05.203,empathy_intonation_perc,2020.2.10,Win32,60,,,,,,,,,,1,,,,,,,,,,,,,,,,,,,,,,,,,,,,,,,,,,,,,,,,81,pozo,,,0,0,0.919895,0,54,54,80,1,REAL,FAKE,,,,,,,,,,,,,,,,,,,,,
,,,,,,,601840b15165f20756c64e0f,605b45a4d25f287719a41696,605ccac1507848685cef3e51,Mexico,East coast,13 or older,no,2021-03-25_13h40.05.203,empathy_intonation_perc,2020.2.10,Win32,60,,,,,,,,,,1,,,,,,,,,,,,,,,,,,,,,,,,,,,,,,,,,,,,,,,,13,helar,,,0,0,1.10788,0,55,55,12,1,REAL,FAKE,,,,,,,,,,,,,,,,,,,,,
,,,,,,,601840b15165f20756c64e0f,605b45a4d25f287719a41696,605ccac1507848685cef3e51,Mexico,East coast,13 or older,no,2021-03-25_13h40.05.203,empathy_intonation_perc,2020.2.10,Win32,60,,,,,,,,,,1,,,,,,,,,,,,,,,,,,,,,,,,,,,,,,,,,,,,,,,,57,tacao,,,1,1,0.779245,0,56,56,56,1,REAL,FAKE,,,,,,,,,,,,,,,,,,,,,
,,,,,,,601840b15165f20756c64e0f,605b45a4d25f287719a41696,605ccac1507848685cef3e51,Mexico,East coast,13 or older,no,2021-03-25_13h40.05.203,empathy_intonation_perc,2020.2.10,Win32,60,,,,,,,,,,1,,,,,,,,,,,,,,,,,,,,,,,,,,,,,,,,,,,,,,,,61,seda,,,1,1,1.05336,0,57,57,60,1,REAL,FAKE,,,,,,,,,,,,,,,,,,,,,
,,,,,,,601840b15165f20756c64e0f,605b45a4d25f287719a41696,605ccac1507848685cef3e51,Mexico,East coast,13 or older,no,2021-03-25_13h40.05.203,empathy_intonation_perc,2020.2.10,Win32,60,,,,,,,,,,0,,,,,,,,,,,,,,,,,,,,,,,,,,,,,,,,,,,,,,,,27,acutacin,,,1,0,1.183795,0,58,58,26,1,REAL,FAKE,,,,,,,,,,,,,,,,,,,,,
,,,,,,,601840b15165f20756c64e0f,605b45a4d25f287719a41696,605ccac1507848685cef3e51,Mexico,East coast,13 or older,no,2021-03-25_13h40.05.203,empathy_intonation_perc,2020.2.10,Win32,60,,,,,,,,,,1,,,,,,,,,,,,,,,,,,,,,,,,,,,,,,,,,,,,,,,,34,aviso,,,1,1,0.700875,0,59,59,33,1,REAL,FAKE,,,,,,,,,,,,,,,,,,,,,
,,,,,,,601840b15165f20756c64e0f,605b45a4d25f287719a41696,605ccac1507848685cef3e51,Mexico,East coast,13 or older,no,2021-03-25_13h40.05.203,empathy_intonation_perc,2020.2.10,Win32,60,,,,,,,,,,1,,,,,,,,,,,,,,,,,,,,,,,,,,,,,,,,,,,,,,,,64,orgulloso,,,1,1,1.10713,0,60,60,63,1,REAL,FAKE,,,,,,,,,,,,,,,,,,,,,
,,,,,,,601840b15165f20756c64e0f,605b45a4d25f287719a41696,605ccac1507848685cef3e51,Mexico,East coast,13 or older,no,2021-03-25_13h40.05.203,empathy_intonation_perc,2020.2.10,Win32,60,,,,,,,,,,1,,,,,,,,,,,,,,,,,,,,,,,,,,,,,,,,,,,,,,,,78,frondoso,,,0,0,0.91734,0,61,61,77,1,REAL,FAKE,,,,,,,,,,,,,,,,,,,,,
,,,,,,,601840b15165f20756c64e0f,605b45a4d25f287719a41696,605ccac1507848685cef3e51,Mexico,East coast,13 or older,no,2021-03-25_13h40.05.203,empathy_intonation_perc,2020.2.10,Win32,60,,,,,,,,,,1,,,,,,,,,,,,,,,,,,,,,,,,,,,,,,,,,,,,,,,,62,flaco,,,0,0,0.91453,0,62,62,61,1,REAL,FAKE,,,,,,,,,,,,,,,,,,,,,
,,,,,,,601840b15165f20756c64e0f,605b45a4d25f287719a41696,605ccac1507848685cef3e51,Mexico,East coast,13 or older,no,2021-03-25_13h40.05.203,empathy_intonation_perc,2020.2.10,Win32,60,,,,,,,,,,0,,,,,,,,,,,,,,,,,,,,,,,,,,,,,,,,,,,,,,,,33,pauca,,,1,0,1.020805,0,63,63,32,1,REAL,FAKE,,,,,,,,,,,,,,,,,,,,,
,,,,,,,601840b15165f20756c64e0f,605b45a4d25f287719a41696,605ccac1507848685cef3e51,Mexico,East coast,13 or older,no,2021-03-25_13h40.05.203,empathy_intonation_perc,2020.2.10,Win32,60,,,,,,,,,,1,,,,,,,,,,,,,,,,,,,,,,,,,,,,,,,,,,,,,,,,73,hervidor,,,0,0,1.11372,0,64,64,72,1,REAL,FAKE,,,,,,,,,,,,,,,,,,,,,
,,,,,,,601840b15165f20756c64e0f,605b45a4d25f287719a41696,605ccac1507848685cef3e51,Mexico,East coast,13 or older,no,2021-03-25_13h40.05.203,empathy_intonation_perc,2020.2.10,Win32,60,,,,,,,,,,1,,,,,,,,,,,,,,,,,,,,,,,,,,,,,,,,,,,,,,,,85,lad,,,0,0,0.7057,0,65,65,84,1,REAL,FAKE,,,,,,,,,,,,,,,,,,,,,
,,,,,,,601840b15165f20756c64e0f,605b45a4d25f287719a41696,605ccac1507848685cef3e51,Mexico,East coast,13 or older,no,2021-03-25_13h40.05.203,empathy_intonation_perc,2020.2.10,Win32,60,,,,,,,,,,1,,,,,,,,,,,,,,,,,,,,,,,,,,,,,,,,,,,,,,,,22,lacayo,,,1,1,0.79704,0,66,66,21,1,REAL,FAKE,,,,,,,,,,,,,,,,,,,,,
,,,,,,,601840b15165f20756c64e0f,605b45a4d25f287719a41696,605ccac1507848685cef3e51,Mexico,East coast,13 or older,no,2021-03-25_13h40.05.203,empathy_intonation_perc,2020.2.10,Win32,60,,,,,,,,,,1,,,,,,,,,,,,,,,,,,,,,,,,,,,,,,,,,,,,,,,,56,musgo,,,0,0,1.10835,0,67,67,55,1,REAL,FAKE,,,,,,,,,,,,,,,,,,,,,
,,,,,,,601840b15165f20756c64e0f,605b45a4d25f287719a41696,605ccac1507848685cef3e51,Mexico,East coast,13 or older,no,2021-03-25_13h40.05.203,empathy_intonation_perc,2020.2.10,Win32,60,,,,,,,,,,1,,,,,,,,,,,,,,,,,,,,,,,,,,,,,,,,,,,,,,,,54,fomentar,,,1,1,2.146395,0,68,68,53,1,REAL,FAKE,,,,,,,,,,,,,,,,,,,,,
,,,,,,,601840b15165f20756c64e0f,605b45a4d25f287719a41696,605ccac1507848685cef3e51,Mexico,East coast,13 or older,no,2021-03-25_13h40.05.203,empathy_intonation_perc,2020.2.10,Win32,60,,,,,,,,,,1,,,,,,,,,,,,,,,,,,,,,,,,,,,,,,,,,,,,,,,,67,cabello,,,1,1,0.68913,0,69,69,66,1,REAL,FAKE,,,,,,,,,,,,,,,,,,,,,
,,,,,,,601840b15165f20756c64e0f,605b45a4d25f287719a41696,605ccac1507848685cef3e51,Mexico,East coast,13 or older,no,2021-03-25_13h40.05.203,empathy_intonation_perc,2020.2.10,Win32,60,,,,,,,,,,1,,,,,,,,,,,,,,,,,,,,,,,,,,,,,,,,,,,,,,,,45,jilguero,,,0,0,0.91631,0,70,70,44,1,REAL,FAKE,,,,,,,,,,,,,,,,,,,,,
,,,,,,,601840b15165f20756c64e0f,605b45a4d25f287719a41696,605ccac1507848685cef3e51,Mexico,East coast,13 or older,no,2021-03-25_13h40.05.203,empathy_intonation_perc,2020.2.10,Win32,60,,,,,,,,,,1,,,,,,,,,,,,,,,,,,,,,,,,,,,,,,,,,,,,,,,,7,psimo,,,1,1,0.9627,0,71,71,6,1,REAL,FAKE,,,,,,,,,,,,,,,,,,,,,
,,,,,,,601840b15165f20756c64e0f,605b45a4d25f287719a41696,605ccac1507848685cef3e51,Mexico,East coast,13 or older,no,2021-03-25_13h40.05.203,empathy_intonation_perc,2020.2.10,Win32,60,,,,,,,,,,1,,,,,,,,,,,,,,,,,,,,,,,,,,,,,,,,,,,,,,,,40,alfombra,,,1,1,0.84698,0,72,72,39,1,REAL,FAKE,,,,,,,,,,,,,,,,,,,,,
,,,,,,,601840b15165f20756c64e0f,605b45a4d25f287719a41696,605ccac1507848685cef3e51,Mexico,East coast,13 or older,no,2021-03-25_13h40.05.203,empathy_intonation_perc,2020.2.10,Win32,60,,,,,,,,,,0,,,,,,,,,,,,,,,,,,,,,,,,,,,,,,,,,,,,,,,,42,cadallo,,,1,0,0.679805,0,73,73,41,1,REAL,FAKE,,,,,,,,,,,,,,,,,,,,,
,,,,,,,601840b15165f20756c64e0f,605b45a4d25f287719a41696,605ccac1507848685cef3e51,Mexico,East coast,13 or older,no,2021-03-25_13h40.05.203,empathy_intonation_perc,2020.2.10,Win32,60,,,,,,,,,,0,,,,,,,,,,,,,,,,,,,,,,,,,,,,,,,,,,,,,,,,84,escuto,,,0,1,0.801855,0,74,74,83,1,REAL,FAKE,,,,,,,,,,,,,,,,,,,,,
,,,,,,,601840b15165f20756c64e0f,605b45a4d25f287719a41696,605ccac1507848685cef3e51,Mexico,East coast,13 or older,no,2021-03-25_13h40.05.203,empathy_intonation_perc,2020.2.10,Win32,60,,,,,,,,,,1,,,,,,,,,,,,,,,,,,,,,,,,,,,,,,,,,,,,,,,,3,pulmones,,,1,1,0.963895,0,75,75,2,1,REAL,FAKE,,,,,,,,,,,,,,,,,,,,,
,,,,,,,601840b15165f20756c64e0f,605b45a4d25f287719a41696,605ccac1507848685cef3e51,Mexico,East coast,13 or older,no,2021-03-25_13h40.05.203,empathy_intonation_perc,2020.2.10,Win32,60,,,,,,,,,,1,,,,,,,,,,,,,,,,,,,,,,,,,,,,,,,,,,,,,,,,24,ltigo,,,1,1,1.055995,0,76,76,23,1,REAL,FAKE,,,,,,,,,,,,,,,,,,,,,
,,,,,,,601840b15165f20756c64e0f,605b45a4d25f287719a41696,605ccac1507848685cef3e51,Mexico,East coast,13 or older,no,2021-03-25_13h40.05.203,empathy_intonation_perc,2020.2.10,Win32,60,,,,,,,,,,1,,,,,,,,,,,,,,,,,,,,,,,,,,,,,,,,,,,,,,,,49,ganar,,,1,1,0.81684,0,77,77,48,1,REAL,FAKE,,,,,,,,,,,,,,,,,,,,,
,,,,,,,601840b15165f20756c64e0f,605b45a4d25f287719a41696,605ccac1507848685cef3e51,Mexico,East coast,13 or older,no,2021-03-25_13h40.05.203,empathy_intonation_perc,2020.2.10,Win32,60,,,,,,,,,,1,,,,,,,,,,,,,,,,,,,,,,,,,,,,,,,,,,,,,,,,20,vido,,,0,0,1.301525,0,78,78,19,1,REAL,FAKE,,,,,,,,,,,,,,,,,,,,,
,,,,,,,601840b15165f20756c64e0f,605b45a4d25f287719a41696,605ccac1507848685cef3e51,Mexico,East coast,13 or older,no,2021-03-25_13h40.05.203,empathy_intonation_perc,2020.2.10,Win32,60,,,,,,,,,,1,,,,,,,,,,,,,,,,,,,,,,,,,,,,,,,,,,,,,,,,68,alegre,,,1,1,0.93137,0,79,79,67,1,REAL,FAKE,,,,,,,,,,,,,,,,,,,,,
,,,,,,,601840b15165f20756c64e0f,605b45a4d25f287719a41696,605ccac1507848685cef3e51,Mexico,East coast,13 or older,no,2021-03-25_13h40.05.203,empathy_intonation_perc,2020.2.10,Win32,60,,,,,,,,,,1,,,,,,,,,,,,,,,,,,,,,,,,,,,,,,,,,,,,,,,,6,tergiversar,,,0,0,0.7956,0,80,80,5,1,REAL,FAKE,,,,,,,,,,,,,,,,,,,,,
,,,,,,,601840b15165f20756c64e0f,605b45a4d25f287719a41696,605ccac1507848685cef3e51,Mexico,East coast,13 or older,no,2021-03-25_13h40.05.203,empathy_intonation_perc,2020.2.10,Win32,60,,,,,,,,,,0,,,,,,,,,,,,,,,,,,,,,,,,,,,,,,,,,,,,,,,,30,alardio,,,0,1,0.8787,0,81,81,29,1,REAL,FAKE,,,,,,,,,,,,,,,,,,,,,
,,,,,,,601840b15165f20756c64e0f,605b45a4d25f287719a41696,605ccac1507848685cef3e51,Mexico,East coast,13 or older,no,2021-03-25_13h40.05.203,empathy_intonation_perc,2020.2.10,Win32,60,,,,,,,,,,1,,,,,,,,,,,,,,,,,,,,,,,,,,,,,,,,,,,,,,,,86,barato,,,1,1,1.579205,0,82,82,85,1,REAL,FAKE,,,,,,,,,,,,,,,,,,,,,
,,,,,,,601840b15165f20756c64e0f,605b45a4d25f287719a41696,605ccac1507848685cef3e51,Mexico,East coast,13 or older,no,2021-03-25_13h40.05.203,empathy_intonation_perc,2020.2.10,Win32,60,,,,,,,,,,1,,,,,,,,,,,,,,,,,,,,,,,,,,,,,,,,,,,,,,,,65,bizcocho,,,0,0,0.716385,0,83,83,64,1,REAL,FAKE,,,,,,,,,,,,,,,,,,,,,
,,,,,,,601840b15165f20756c64e0f,605b45a4d25f287719a41696,605ccac1507848685cef3e51,Mexico,East coast,13 or older,no,2021-03-25_13h40.05.203,empathy_intonation_perc,2020.2.10,Win32,60,,,,,,,,,,1,,,,,,,,,,,,,,,,,,,,,,,,,,,,,,,,,,,,,,,,38,estornudar,,,0,0,1.14715,0,84,84,37,1,REAL,FAKE,,,,,,,,,,,,,,,,,,,,,
,,,,,,,601840b15165f20756c64e0f,605b45a4d25f287719a41696,605ccac1507848685cef3e51,Mexico,East coast,13 or older,no,2021-03-25_13h40.05.203,empathy_intonation_perc,2020.2.10,Win32,60,,,,,,,,,,1,,,,,,,,,,,,,,,,,,,,,,,,,,,,,,,,,,,,,,,,15,regar,,,1,1,0.729865,0,85,85,14,1,REAL,FAKE,,,,,,,,,,,,,,,,,,,,,
,,,,,,,601840b15165f20756c64e0f,605b45a4d25f287719a41696,605ccac1507848685cef3e51,Mexico,East coast,13 or older,no,2021-03-25_13h40.05.203,empathy_intonation_perc,2020.2.10,Win32,60,,,,,,,,,,0,,,,,,,,,,,,,,,,,,,,,,,,,,,,,,,,,,,,,,,,82,empirador,,,1,0,0.75281,0,86,86,81,1,REAL,FAKE,,,,,,,,,,,,,,,,,,,,,
,,,,,,,601840b15165f20756c64e0f,605b45a4d25f287719a41696,605ccac1507848685cef3e51,Mexico,East coast,13 or older,no,2021-03-25_13h40.05.203,empathy_intonation_perc,2020.2.10,Win32,60,,,,,,,,,,0,,,,,,,,,,,,,,,,,,,,,,,,,,,,,,,,,,,,,,,,23,lampera,,,1,0,0.697385,0,87,87,22,1,REAL,FAKE,,,,,,,,,,,,,,,,,,,,,
,,,,,,,601840b15165f20756c64e0f,605b45a4d25f287719a41696,605ccac1507848685cef3e51,Mexico,East coast,13 or older,no,2021-03-25_13h40.05.203,empathy_intonation_perc,2020.2.10,Win32,60,,,,,,,,,,0,,,,,,,,,,,,,,,,,,,,,,,,,,,,,,,,,,,,,,,,29,decar,,,1,0,0.79621,0,88,88,28,1,REAL,FAKE,,,,,,,,,,,,,,,,,,,,,
,,,,,,,601840b15165f20756c64e0f,605b45a4d25f287719a41696,605ccac1507848685cef3e51,Mexico,East coast,13 or older,no,2021-03-25_13h40.05.203,empathy_intonation_perc,2020.2.10,Win32,60,,,,,,,,,,1,,,,,,,,,,,,,,,,,,,,,,,,,,,,,,,,,,,,,,,,9,hacha,,,0,0,0.977455,0,89,89,8,1,REAL,FAKE,,,,,,,,,,,,,,,,,,,,,
,,,,,,,601840b15165f20756c64e0f,605b45a4d25f287719a41696,605ccac1507848685cef3e51,Mexico,East coast,13 or older,no,2021-03-25_13h40.05.203,empathy_intonation_perc,2020.2.10,Win32,60,,,,,,,,,,,,,,,,,,,,,,,,,,,,,,,,,,,,,,,,,,,,,,,,,,,,,,,,,,,,,,,,4,1,3.36006,1,0,0,0,0,0,1,,,,,,,,,,,
,,,,,,,601840b15165f20756c64e0f,605b45a4d25f287719a41696,605ccac1507848685cef3e51,Mexico,East coast,13 or older,no,2021-03-25_13h40.05.203,empathy_intonation_perc,2020.2.10,Win32,60,,,,,,,,,,,,,,,,,,,,1,,,,,,,,,,,,,,,,,,,,,,,,,,,,,,,,,,,,,,,,,,,,,,,,,,,,,,1,0,0,0,0,1,I can easily tell if someone else wants to enter a conversation.,1,0,1,0
,,,,,,,601840b15165f20756c64e0f,605b45a4d25f287719a41696,605ccac1507848685cef3e51,Mexico,East coast,13 or older,no,2021-03-25_13h40.05.203,empathy_intonation_perc,2020.2.10,Win32,60,,,,,,,,,,,,,,,,,,,,2,,,,,,,,,,,,,,,,,,,,,,,,,,,,,,,,,,,,,,,,,,,,,,,,,,,,,,5,0,1,1,1,1,I prefer animals to humans.,0,1,0,0
,,,,,,,601840b15165f20756c64e0f,605b45a4d25f287719a41696,605ccac1507848685cef3e51,Mexico,East coast,13 or older,no,2021-03-25_13h40.05.203,empathy_intonation_perc,2020.2.10,Win32,60,,,,,,,,,,,,,,,,,,,,3,,,,,,,,,,,,,,,,,,,,,,,,,,,,,,,,,,,,,,,,,,,,,,,,,,,,,,3,0,2,2,2,1,I try to keep up with the current trends and fashions.,0,1,0,0
,,,,,,,601840b15165f20756c64e0f,605b45a4d25f287719a41696,605ccac1507848685cef3e51,Mexico,East coast,13 or older,no,2021-03-25_13h40.05.203,empathy_intonation_perc,2020.2.10,Win32,60,,,,,,,,,,,,,,,,,,,,4,,,,,,,,,,,,,,,,,,,,,,,,,,,,,,,,,,,,,,,,,,,,,,,,,,,,,,2,0,3,3,3,1,"I find it difficult to explain to others things that I understand easily, 
  when they dont understand it first time.",1,0,0,1
,,,,,,,601840b15165f20756c64e0f,605b45a4d25f287719a41696,605ccac1507848685cef3e51,Mexico,East coast,13 or older,no,2021-03-25_13h40.05.203,empathy_intonation_perc,2020.2.10,Win32,60,,,,,,,,,,,,,,,,,,,,5,,,,,,,,,,,,,,,,,,,,,,,,,,,,,,,,,,,,,,,,,,,,,,,,,,,,,,2,0,4,4,4,1,I dream most nights.,0,1,0,0
,,,,,,,601840b15165f20756c64e0f,605b45a4d25f287719a41696,605ccac1507848685cef3e51,Mexico,East coast,13 or older,no,2021-03-25_13h40.05.203,empathy_intonation_perc,2020.2.10,Win32,60,,,,,,,,,,,,,,,,,,,,6,,,,,,,,,,,,,,,,,,,,,,,,,,,,,,,,,,,,,,,,,,,,,,,,,,,,,,2,0,5,5,5,1,I really enjoy caring for other people.,1,0,1,0
,,,,,,,601840b15165f20756c64e0f,605b45a4d25f287719a41696,605ccac1507848685cef3e51,Mexico,East coast,13 or older,no,2021-03-25_13h40.05.203,empathy_intonation_perc,2020.2.10,Win32,60,,,,,,,,,,,,,,,,,,,,7,,,,,,,,,,,,,,,,,,,,,,,,,,,,,,,,,,,,,,,,,,,,,,,,,,,,,,1,0,6,6,6,1,I try to solve my own problems rather than discussing them with others.,0,1,0,0
