instructions_2afc_loop.thisRepN,instructions_2afc_loop.thisTrialN,instructions_2afc_loop.thisN,instructions_2afc_loop.thisIndex,instructions_2afc_loop.ran,instructions_text,continue_text,participant,study_id,session,I am most familiar with Spanish from...*,What part of the US are you from?*,At what age did you begin learning Spanish?*,Are you proficient in any languages other than English/Spanish?*,date,expName,psychopyVersion,OS,frameRate,key_resp_2afc_practice.keys,key_resp_2afc_practice.corr,key_resp_2afc_practice.rt,trials_2afc_practice_loop.thisRepN,trials_2afc_practice_loop.thisTrialN,trials_2afc_practice_loop.thisN,trials_2afc_practice_loop.thisIndex,trials_2afc_practice_loop.ran,path,correct_response,the_col,key_resp_2afc_trial.keys,key_resp_2afc_trial.corr,key_resp_2afc_trial.rt,trials_2afc_loop.thisRepN,trials_2afc_loop.thisTrialN,trials_2afc_loop.thisN,trials_2afc_loop.thisIndex,trials_2afc_loop.ran,item_num,andalusian,argentine,castilian,chilean,cuban,mexican,peruvian,puertorican,key_resp_ac1.keys,key_resp_ac1.corr,key_resp_ac1.rt,ac1_loop.thisRepN,ac1_loop.thisTrialN,ac1_loop.thisN,ac1_loop.thisIndex,ac1_loop.ran,instructions_lextale_loop.thisRepN,instructions_lextale_loop.thisTrialN,instructions_lextale_loop.thisN,instructions_lextale_loop.thisIndex,instructions_lextale_loop.ran,key_resp_lextale_practice.keys,key_resp_lextale_practice.corr,key_resp_lextale_practice.rt,trials_lextale_practice_loop.thisRepN,trials_lextale_practice_loop.thisTrialN,trials_lextale_practice_loop.thisN,trials_lextale_practice_loop.thisIndex,trials_lextale_practice_loop.ran,stim,word,prac_button_real,prac_button_false,key_resp_lextale_trial.keys,key_resp_lextale_trial.corr,key_resp_lextale_trial.rt,trials_lextale_loop.thisRepN,trials_lextale_loop.thisTrialN,trials_lextale_loop.thisN,trials_lextale_loop.thisIndex,trials_lextale_loop.ran,button_real,button_false,key_resp_ac2.keys,key_resp_ac2.corr,key_resp_ac2.rt,check_pass,check_fails,ac2_loop.thisRepN,ac2_loop.thisTrialN,ac2_loop.thisN,ac2_loop.thisIndex,ac2_loop.ran,slider_eq_trial.response,trials_eq_loop.thisRepN,trials_eq_loop.thisTrialN,trials_eq_loop.thisN,trials_eq_loop.thisIndex,trials_eq_loop.ran,item,is_test_item,is_distractor,is_agree_score,is_disagree_score
0,0,0,0,1,"In the following task you are going to hear a series of utterances. 

  You will decide if the utterances sound like questions or not using your keyboard.",(press the spacebar to continue),601c454a1e2f3c720321470b,605b45a4d25f287719a41696,6061e576ea7ffd750b09df7a,Mexico,Midwest,13 or older,no,2021-03-29_10h37.57.760,empathy_intonation_perc,2020.2.10,Win32,60,,,,,,,,,,,,,,,,,,,,,,,,,,,,,,,,,,,,,,,,,,,,,,,,,,,,,,,,,,,,,,,,,,,,,,,,,,,,,,,,,,,,
0,1,1,1,1,"If you believe the utterance is a question, type '1' (for 'yes') and if you do not 
  believe it is a question type '0' (for 'no').

  Let's practice a bit...",(press the spacebar to continue),601c454a1e2f3c720321470b,605b45a4d25f287719a41696,6061e576ea7ffd750b09df7a,Mexico,Midwest,13 or older,no,2021-03-29_10h37.57.760,empathy_intonation_perc,2020.2.10,Win32,60,,,,,,,,,,,,,,,,,,,,,,,,,,,,,,,,,,,,,,,,,,,,,,,,,,,,,,,,,,,,,,,,,,,,,,,,,,,,,,,,,,,,
,,,,,,,601c454a1e2f3c720321470b,605b45a4d25f287719a41696,6061e576ea7ffd750b09df7a,Mexico,Midwest,13 or older,no,2021-03-29_10h37.57.760,empathy_intonation_perc,2020.2.10,Win32,60,0,1,3.12762,0,0,0,6,1,./stim/wavs/peruvian_statement_filler_El-nino-habla-con-su-madre.wav,0,,,,,,,,,,,,,,,,,,,,,,,,,,,,,,,,,,,,,,,,,,,,,,,,,,,,,,,,,,,,,,,,,,,,,,,,,,
,,,,,,,601c454a1e2f3c720321470b,605b45a4d25f287719a41696,6061e576ea7ffd750b09df7a,Mexico,Midwest,13 or older,no,2021-03-29_10h37.57.760,empathy_intonation_perc,2020.2.10,Win32,60,1,1,1.907995,0,1,1,1,1,./stim/wavs/argentine_question_filler_Mi-vecino-habla-mucho.wav,1,,,,,,,,,,,,,,,,,,,,,,,,,,,,,,,,,,,,,,,,,,,,,,,,,,,,,,,,,,,,,,,,,,,,,,,,,,
,,,,,,,601c454a1e2f3c720321470b,605b45a4d25f287719a41696,6061e576ea7ffd750b09df7a,Mexico,Midwest,13 or older,no,2021-03-29_10h37.57.760,empathy_intonation_perc,2020.2.10,Win32,60,1,1,2.075865,0,2,2,0,1,./stim/wavs/castilian_question_filler_Mi-esposo-conoce-al-chico.wav,1,,,,,,,,,,,,,,,,,,,,,,,,,,,,,,,,,,,,,,,,,,,,,,,,,,,,,,,,,,,,,,,,,,,,,,,,,,
,,,,,,,601c454a1e2f3c720321470b,605b45a4d25f287719a41696,6061e576ea7ffd750b09df7a,Mexico,Midwest,13 or older,no,2021-03-29_10h37.57.760,empathy_intonation_perc,2020.2.10,Win32,60,0,1,1.71671,0,3,3,4,1,./stim/wavs/cuban_statement_filler_Cocinabas-por-la-noche.wav,0,,,,,,,,,,,,,,,,,,,,,,,,,,,,,,,,,,,,,,,,,,,,,,,,,,,,,,,,,,,,,,,,,,,,,,,,,,
,,,,,,,601c454a1e2f3c720321470b,605b45a4d25f287719a41696,6061e576ea7ffd750b09df7a,Mexico,Midwest,13 or older,no,2021-03-29_10h37.57.760,empathy_intonation_perc,2020.2.10,Win32,60,0,0,2.13826,0,4,4,2,1,./stim/wavs/chilean_question_filler_Mi-padre-cantaba-bien.wav,1,,,,,,,,,,,,,,,,,,,,,,,,,,,,,,,,,,,,,,,,,,,,,,,,,,,,,,,,,,,,,,,,,,,,,,,,,,
,,,,,,,601c454a1e2f3c720321470b,605b45a4d25f287719a41696,6061e576ea7ffd750b09df7a,Mexico,Midwest,13 or older,no,2021-03-29_10h37.57.760,empathy_intonation_perc,2020.2.10,Win32,60,0,1,1.838795,0,5,5,7,1,./stim/wavs/puertorican_statement_filler_La-nina-pinta-con-su-amiga.wav,0,,,,,,,,,,,,,,,,,,,,,,,,,,,,,,,,,,,,,,,,,,,,,,,,,,,,,,,,,,,,,,,,,,,,,,,,,,
,,,,,,,601c454a1e2f3c720321470b,605b45a4d25f287719a41696,6061e576ea7ffd750b09df7a,Mexico,Midwest,13 or older,no,2021-03-29_10h37.57.760,empathy_intonation_perc,2020.2.10,Win32,60,1,1,2.25026,0,6,6,3,1,./stim/wavs/mexican_question_filler_Felipe-no-tiene-contrasena.wav,1,,,,,,,,,,,,,,,,,,,,,,,,,,,,,,,,,,,,,,,,,,,,,,,,,,,,,,,,,,,,,,,,,,,,,,,,,,
,,,,,,,601c454a1e2f3c720321470b,605b45a4d25f287719a41696,6061e576ea7ffd750b09df7a,Mexico,Midwest,13 or older,no,2021-03-29_10h37.57.760,empathy_intonation_perc,2020.2.10,Win32,60,0,1,2.18406,0,7,7,5,1,./stim/wavs/andalusian_statement_filler_Alberto-nunca-se-afeita.wav,0,,,,,,,,,,,,,,,,,,,,,,,,,,,,,,,,,,,,,,,,,,,,,,,,,,,,,,,,,,,,,,,,,,,,,,,,,,
,,,,,,,601c454a1e2f3c720321470b,605b45a4d25f287719a41696,6061e576ea7ffd750b09df7a,Mexico,Midwest,13 or older,no,2021-03-29_10h37.57.760,empathy_intonation_perc,2020.2.10,Win32,60,,,,,,,,,,0,mexican,0,1,1.522565,0,0,0,14,1,15,./stim/wavs/andalusian_match_declarative-narrow-focus_Mariano-habla-del-tiempo.wav,./stim/wavs/argentine_match_declarative-narrow-focus_Mariano-habla-del-tiempo.wav,./stim/wavs/castilian_match_declarative-narrow-focus_Mariano-habla-del-tiempo.wav,./stim/wavs/chilean_match_declarative-narrow-focus_Mariano-habla-del-tiempo.wav,./stim/wavs/cuban_match_declarative-narrow-focus_Mariano-habla-del-tiempo.wav,./stim/wavs/mexican_match_declarative-narrow-focus_Mariano-habla-del-tiempo.wav,./stim/wavs/peruvian_match_declarative-narrow-focus_Mariano-habla-del-tiempo.wav,./stim/wavs/puertorican_match_declarative-narrow-focus_Mariano-habla-del-tiempo.wav,,,,,,,,,,,,,,,,,,,,,,,,,,,,,,,,,,,,,,,,,,,,,,,,,,,,,,,,
,,,,,,,601c454a1e2f3c720321470b,605b45a4d25f287719a41696,6061e576ea7ffd750b09df7a,Mexico,Midwest,13 or older,no,2021-03-29_10h37.57.760,empathy_intonation_perc,2020.2.10,Win32,60,,,,,,,,,,0,peruvian,0,1,1.97563,0,1,1,42,1,43,./stim/wavs/andalusian_mismatch_declarative-narrow-focus_El-nino-oye-el-rio.wav,./stim/wavs/argentine_mismatch_declarative-narrow-focus_El-nino-oye-el-rio.wav,./stim/wavs/castilian_mismatch_declarative-narrow-focus_El-nino-oye-el-rio.wav,./stim/wavs/chilean_mismatch_declarative-narrow-focus_El-nino-oye-el-rio.wav,./stim/wavs/cuban_mismatch_declarative-narrow-focus_El-nino-oye-el-rio.wav,./stim/wavs/mexican_mismatch_declarative-narrow-focus_El-nino-oye-el-rio.wav,./stim/wavs/peruvian_mismatch_declarative-narrow-focus_El-nino-oye-el-rio.wav,./stim/wavs/puertorican_mismatch_declarative-narrow-focus_El-nino-oye-el-rio.wav,,,,,,,,,,,,,,,,,,,,,,,,,,,,,,,,,,,,,,,,,,,,,,,,,,,,,,,,
,,,,,,,601c454a1e2f3c720321470b,605b45a4d25f287719a41696,6061e576ea7ffd750b09df7a,Mexico,Midwest,13 or older,no,2021-03-29_10h37.57.760,empathy_intonation_perc,2020.2.10,Win32,60,,,,,,,,,,0,chilean,0,1,1.63318,0,2,2,44,1,45,./stim/wavs/andalusian_mismatch_declarative-narrow-focus_La-nina-lava-el-plato.wav,./stim/wavs/argentine_mismatch_declarative-narrow-focus_La-nina-lava-el-plato.wav,./stim/wavs/castilian_mismatch_declarative-narrow-focus_La-nina-lava-el-plato.wav,./stim/wavs/chilean_mismatch_declarative-narrow-focus_La-nina-lava-el-plato.wav,./stim/wavs/cuban_mismatch_declarative-narrow-focus_La-nina-lava-el-plato.wav,./stim/wavs/mexican_mismatch_declarative-narrow-focus_La-nina-lava-el-plato.wav,./stim/wavs/peruvian_mismatch_declarative-narrow-focus_La-nina-lava-el-plato.wav,./stim/wavs/puertorican_mismatch_declarative-narrow-focus_La-nina-lava-el-plato.wav,,,,,,,,,,,,,,,,,,,,,,,,,,,,,,,,,,,,,,,,,,,,,,,,,,,,,,,,
,,,,,,,601c454a1e2f3c720321470b,605b45a4d25f287719a41696,6061e576ea7ffd750b09df7a,Mexico,Midwest,13 or older,no,2021-03-29_10h37.57.760,empathy_intonation_perc,2020.2.10,Win32,60,,,,,,,,,,0,argentine,0,1,1.73535,0,3,3,2,1,3,./stim/wavs/andalusian_match_declarative-broad-focus_David-leia-el-libro.wav,./stim/wavs/argentine_match_declarative-broad-focus_David-leia-el-libro.wav,./stim/wavs/castilian_match_declarative-broad-focus_David-leia-el-libro.wav,./stim/wavs/chilean_match_declarative-broad-focus_David-leia-el-libro.wav,./stim/wavs/cuban_match_declarative-broad-focus_David-leia-el-libro.wav,./stim/wavs/mexican_match_declarative-broad-focus_David-leia-el-libro.wav,./stim/wavs/peruvian_match_declarative-broad-focus_David-leia-el-libro.wav,./stim/wavs/puertorican_match_declarative-broad-focus_David-leia-el-libro.wav,,,,,,,,,,,,,,,,,,,,,,,,,,,,,,,,,,,,,,,,,,,,,,,,,,,,,,,,
,,,,,,,601c454a1e2f3c720321470b,605b45a4d25f287719a41696,6061e576ea7ffd750b09df7a,Mexico,Midwest,13 or older,no,2021-03-29_10h37.57.760,empathy_intonation_perc,2020.2.10,Win32,60,,,,,,,,,,0,puertorican,0,1,1.68315,0,4,4,45,1,46,./stim/wavs/andalusian_mismatch_declarative-narrow-focus_Mi-madre-come-la-fruta.wav,./stim/wavs/argentine_mismatch_declarative-narrow-focus_Mi-madre-come-la-fruta.wav,./stim/wavs/castilian_mismatch_declarative-narrow-focus_Mi-madre-come-la-fruta.wav,./stim/wavs/chilean_mismatch_declarative-narrow-focus_Mi-madre-come-la-fruta.wav,./stim/wavs/cuban_mismatch_declarative-narrow-focus_Mi-madre-come-la-fruta.wav,./stim/wavs/mexican_mismatch_declarative-narrow-focus_Mi-madre-come-la-fruta.wav,./stim/wavs/peruvian_mismatch_declarative-narrow-focus_Mi-madre-come-la-fruta.wav,./stim/wavs/puertorican_mismatch_declarative-narrow-focus_Mi-madre-come-la-fruta.wav,,,,,,,,,,,,,,,,,,,,,,,,,,,,,,,,,,,,,,,,,,,,,,,,,,,,,,,,
,,,,,,,601c454a1e2f3c720321470b,605b45a4d25f287719a41696,6061e576ea7ffd750b09df7a,Mexico,Midwest,13 or older,no,2021-03-29_10h37.57.760,empathy_intonation_perc,2020.2.10,Win32,60,,,,,,,,,,1,mexican,1,1,1.585665,0,5,5,58,1,59,./stim/wavs/andalusian_mismatch_interrogative-total-yn_El-nino-oye-el-rio.wav,./stim/wavs/argentine_mismatch_interrogative-total-yn_El-nino-oye-el-rio.wav,./stim/wavs/castilian_mismatch_interrogative-total-yn_El-nino-oye-el-rio.wav,./stim/wavs/chilean_mismatch_interrogative-total-yn_El-nino-oye-el-rio.wav,./stim/wavs/cuban_mismatch_interrogative-total-yn_El-nino-oye-el-rio.wav,./stim/wavs/mexican_mismatch_interrogative-total-yn_El-nino-oye-el-rio.wav,./stim/wavs/peruvian_mismatch_interrogative-total-yn_El-nino-oye-el-rio.wav,./stim/wavs/puertorican_mismatch_interrogative-total-yn_El-nino-oye-el-rio.wav,,,,,,,,,,,,,,,,,,,,,,,,,,,,,,,,,,,,,,,,,,,,,,,,,,,,,,,,
,,,,,,,601c454a1e2f3c720321470b,605b45a4d25f287719a41696,6061e576ea7ffd750b09df7a,Mexico,Midwest,13 or older,no,2021-03-29_10h37.57.760,empathy_intonation_perc,2020.2.10,Win32,60,,,,,,,,,,0,argentine,0,1,1.666955,0,6,6,41,1,42,./stim/wavs/andalusian_mismatch_declarative-narrow-focus_El-hombre-mira-la-luna.wav,./stim/wavs/argentine_mismatch_declarative-narrow-focus_El-hombre-mira-la-luna.wav,./stim/wavs/castilian_mismatch_declarative-narrow-focus_El-hombre-mira-la-luna.wav,./stim/wavs/chilean_mismatch_declarative-narrow-focus_El-hombre-mira-la-luna.wav,./stim/wavs/cuban_mismatch_declarative-narrow-focus_El-hombre-mira-la-luna.wav,./stim/wavs/mexican_mismatch_declarative-narrow-focus_El-hombre-mira-la-luna.wav,./stim/wavs/peruvian_mismatch_declarative-narrow-focus_El-hombre-mira-la-luna.wav,./stim/wavs/puertorican_mismatch_declarative-narrow-focus_El-hombre-mira-la-luna.wav,,,,,,,,,,,,,,,,,,,,,,,,,,,,,,,,,,,,,,,,,,,,,,,,,,,,,,,,
,,,,,,,601c454a1e2f3c720321470b,605b45a4d25f287719a41696,6061e576ea7ffd750b09df7a,Mexico,Midwest,13 or older,no,2021-03-29_10h37.57.760,empathy_intonation_perc,2020.2.10,Win32,60,,,,,,,,,,0,cuban,0,1,1.749905,0,7,7,4,1,5,./stim/wavs/andalusian_match_declarative-broad-focus_Manuela-vende-el-carro.wav,./stim/wavs/argentine_match_declarative-broad-focus_Manuela-vende-el-carro.wav,./stim/wavs/castilian_match_declarative-broad-focus_Manuela-vende-el-carro.wav,./stim/wavs/chilean_match_declarative-broad-focus_Manuela-vende-el-carro.wav,./stim/wavs/cuban_match_declarative-broad-focus_Manuela-vende-el-carro.wav,./stim/wavs/mexican_match_declarative-broad-focus_Manuela-vende-el-carro.wav,./stim/wavs/peruvian_match_declarative-broad-focus_Manuela-vende-el-carro.wav,./stim/wavs/puertorican_match_declarative-broad-focus_Manuela-vende-el-carro.wav,,,,,,,,,,,,,,,,,,,,,,,,,,,,,,,,,,,,,,,,,,,,,,,,,,,,,,,,
,,,,,,,601c454a1e2f3c720321470b,605b45a4d25f287719a41696,6061e576ea7ffd750b09df7a,Mexico,Midwest,13 or older,no,2021-03-29_10h37.57.760,empathy_intonation_perc,2020.2.10,Win32,60,,,,,,,,,,1,chilean,1,1,1.60001,0,8,8,24,1,25,./stim/wavs/andalusian_match_interrogative-total-yn_Ana-lleva-el-abrigo.wav,./stim/wavs/argentine_match_interrogative-total-yn_Ana-lleva-el-abrigo.wav,./stim/wavs/castilian_match_interrogative-total-yn_Ana-lleva-el-abrigo.wav,./stim/wavs/chilean_match_interrogative-total-yn_Ana-lleva-el-abrigo.wav,./stim/wavs/cuban_match_interrogative-total-yn_Ana-lleva-el-abrigo.wav,./stim/wavs/mexican_match_interrogative-total-yn_Ana-lleva-el-abrigo.wav,./stim/wavs/peruvian_match_interrogative-total-yn_Ana-lleva-el-abrigo.wav,./stim/wavs/puertorican_match_interrogative-total-yn_Ana-lleva-el-abrigo.wav,,,,,,,,,,,,,,,,,,,,,,,,,,,,,,,,,,,,,,,,,,,,,,,,,,,,,,,,
,,,,,,,601c454a1e2f3c720321470b,605b45a4d25f287719a41696,6061e576ea7ffd750b09df7a,Mexico,Midwest,13 or older,no,2021-03-29_10h37.57.760,empathy_intonation_perc,2020.2.10,Win32,60,,,,,,,,,,0,cuban,0,1,1.80097,0,9,9,39,1,40,./stim/wavs/andalusian_mismatch_declarative-broad-focus_Mi-tia-odia-la-lluvia.wav,./stim/wavs/argentine_mismatch_declarative-broad-focus_Mi-tia-odia-la-lluvia.wav,./stim/wavs/castilian_mismatch_declarative-broad-focus_Mi-tia-odia-la-lluvia.wav,./stim/wavs/chilean_mismatch_declarative-broad-focus_Mi-tia-odia-la-lluvia.wav,./stim/wavs/cuban_mismatch_declarative-broad-focus_Mi-tia-odia-la-lluvia.wav,./stim/wavs/mexican_mismatch_declarative-broad-focus_Mi-tia-odia-la-lluvia.wav,./stim/wavs/peruvian_mismatch_declarative-broad-focus_Mi-tia-odia-la-lluvia.wav,./stim/wavs/puertorican_mismatch_declarative-broad-focus_Mi-tia-odia-la-lluvia.wav,,,,,,,,,,,,,,,,,,,,,,,,,,,,,,,,,,,,,,,,,,,,,,,,,,,,,,,,
,,,,,,,601c454a1e2f3c720321470b,605b45a4d25f287719a41696,6061e576ea7ffd750b09df7a,Mexico,Midwest,13 or older,no,2021-03-29_10h37.57.760,empathy_intonation_perc,2020.2.10,Win32,60,,,,,,,,,,0,puertorican,0,1,1.6502,0,10,10,43,1,44,./stim/wavs/andalusian_mismatch_declarative-narrow-focus_La-maestra-vive-en-Paris.wav,./stim/wavs/argentine_mismatch_declarative-narrow-focus_La-maestra-vive-en-Paris.wav,./stim/wavs/castilian_mismatch_declarative-narrow-focus_La-maestra-vive-en-Paris.wav,./stim/wavs/chilean_mismatch_declarative-narrow-focus_La-maestra-vive-en-Paris.wav,./stim/wavs/cuban_mismatch_declarative-narrow-focus_La-maestra-vive-en-Paris.wav,./stim/wavs/mexican_mismatch_declarative-narrow-focus_La-maestra-vive-en-Paris.wav,./stim/wavs/peruvian_mismatch_declarative-narrow-focus_La-maestra-vive-en-Paris.wav,./stim/wavs/puertorican_mismatch_declarative-narrow-focus_La-maestra-vive-en-Paris.wav,,,,,,,,,,,,,,,,,,,,,,,,,,,,,,,,,,,,,,,,,,,,,,,,,,,,,,,,
,,,,,,,601c454a1e2f3c720321470b,605b45a4d25f287719a41696,6061e576ea7ffd750b09df7a,Mexico,Midwest,13 or older,no,2021-03-29_10h37.57.760,empathy_intonation_perc,2020.2.10,Win32,60,,,,,,,,,,1,chilean,1,1,1.736595,0,11,11,53,1,54,./stim/wavs/andalusian_mismatch_interrogative-partial-wh_Por-que-oia-el-rio.wav,./stim/wavs/argentine_mismatch_interrogative-partial-wh_Por-que-oia-el-rio.wav,./stim/wavs/castilian_mismatch_interrogative-partial-wh_Por-que-oia-el-rio.wav,./stim/wavs/chilean_mismatch_interrogative-partial-wh_Por-que-oia-el-rio.wav,./stim/wavs/cuban_mismatch_interrogative-partial-wh_Por-que-oia-el-rio.wav,./stim/wavs/mexican_mismatch_interrogative-partial-wh_Por-que-oia-el-rio.wav,./stim/wavs/peruvian_mismatch_interrogative-partial-wh_Por-que-oia-el-rio.wav,./stim/wavs/puertorican_mismatch_interrogative-partial-wh_Por-que-oia-el-rio.wav,,,,,,,,,,,,,,,,,,,,,,,,,,,,,,,,,,,,,,,,,,,,,,,,,,,,,,,,
,,,,,,,601c454a1e2f3c720321470b,605b45a4d25f287719a41696,6061e576ea7ffd750b09df7a,Mexico,Midwest,13 or older,no,2021-03-29_10h37.57.760,empathy_intonation_perc,2020.2.10,Win32,60,,,,,,,,,,1,puertorican,1,1,1.41639,0,12,12,23,1,24,./stim/wavs/andalusian_match_interrogative-partial-wh_Por-que-iba-a-Bolivia.wav,./stim/wavs/argentine_match_interrogative-partial-wh_Por-que-iba-a-Bolivia.wav,./stim/wavs/castilian_match_interrogative-partial-wh_Por-que-iba-a-Bolivia.wav,./stim/wavs/chilean_match_interrogative-partial-wh_Por-que-iba-a-Bolivia.wav,./stim/wavs/cuban_match_interrogative-partial-wh_Por-que-iba-a-Bolivia.wav,./stim/wavs/mexican_match_interrogative-partial-wh_Por-que-iba-a-Bolivia.wav,./stim/wavs/peruvian_match_interrogative-partial-wh_Por-que-iba-a-Bolivia.wav,./stim/wavs/puertorican_match_interrogative-partial-wh_Por-que-iba-a-Bolivia.wav,,,,,,,,,,,,,,,,,,,,,,,,,,,,,,,,,,,,,,,,,,,,,,,,,,,,,,,,
,,,,,,,601c454a1e2f3c720321470b,605b45a4d25f287719a41696,6061e576ea7ffd750b09df7a,Mexico,Midwest,13 or older,no,2021-03-29_10h37.57.760,empathy_intonation_perc,2020.2.10,Win32,60,,,,,,,,,,0,mexican,0,1,1.65772,0,13,13,38,1,39,./stim/wavs/andalusian_mismatch_declarative-broad-focus_Mi-novio-viene-del-lago.wav,./stim/wavs/argentine_mismatch_declarative-broad-focus_Mi-novio-viene-del-lago.wav,./stim/wavs/castilian_mismatch_declarative-broad-focus_Mi-novio-viene-del-lago.wav,./stim/wavs/chilean_mismatch_declarative-broad-focus_Mi-novio-viene-del-lago.wav,./stim/wavs/cuban_mismatch_declarative-broad-focus_Mi-novio-viene-del-lago.wav,./stim/wavs/mexican_mismatch_declarative-broad-focus_Mi-novio-viene-del-lago.wav,./stim/wavs/peruvian_mismatch_declarative-broad-focus_Mi-novio-viene-del-lago.wav,./stim/wavs/puertorican_mismatch_declarative-broad-focus_Mi-novio-viene-del-lago.wav,,,,,,,,,,,,,,,,,,,,,,,,,,,,,,,,,,,,,,,,,,,,,,,,,,,,,,,,
,,,,,,,601c454a1e2f3c720321470b,605b45a4d25f287719a41696,6061e576ea7ffd750b09df7a,Mexico,Midwest,13 or older,no,2021-03-29_10h37.57.760,empathy_intonation_perc,2020.2.10,Win32,60,,,,,,,,,,1,argentine,1,1,2.153295,0,14,14,48,1,49,./stim/wavs/andalusian_mismatch_interrogative-partial-wh_Cuando-comia-la-fruta.wav,./stim/wavs/argentine_mismatch_interrogative-partial-wh_Cuando-comia-la-fruta.wav,./stim/wavs/castilian_mismatch_interrogative-partial-wh_Cuando-comia-la-fruta.wav,./stim/wavs/chilean_mismatch_interrogative-partial-wh_Cuando-comia-la-fruta.wav,./stim/wavs/cuban_mismatch_interrogative-partial-wh_Cuando-comia-la-fruta.wav,./stim/wavs/mexican_mismatch_interrogative-partial-wh_Cuando-comia-la-fruta.wav,./stim/wavs/peruvian_mismatch_interrogative-partial-wh_Cuando-comia-la-fruta.wav,./stim/wavs/puertorican_mismatch_interrogative-partial-wh_Cuando-comia-la-fruta.wav,,,,,,,,,,,,,,,,,,,,,,,,,,,,,,,,,,,,,,,,,,,,,,,,,,,,,,,,
,,,,,,,601c454a1e2f3c720321470b,605b45a4d25f287719a41696,6061e576ea7ffd750b09df7a,Mexico,Midwest,13 or older,no,2021-03-29_10h37.57.760,empathy_intonation_perc,2020.2.10,Win32,60,,,,,,,,,,1,peruvian,1,1,1.919495,0,15,15,28,1,29,./stim/wavs/andalusian_match_interrogative-total-yn_Manuela-vende-el-carro.wav,./stim/wavs/argentine_match_interrogative-total-yn_Manuela-vende-el-carro.wav,./stim/wavs/castilian_match_interrogative-total-yn_Manuela-vende-el-carro.wav,./stim/wavs/chilean_match_interrogative-total-yn_Manuela-vende-el-carro.wav,./stim/wavs/cuban_match_interrogative-total-yn_Manuela-vende-el-carro.wav,./stim/wavs/mexican_match_interrogative-total-yn_Manuela-vende-el-carro.wav,./stim/wavs/peruvian_match_interrogative-total-yn_Manuela-vende-el-carro.wav,./stim/wavs/puertorican_match_interrogative-total-yn_Manuela-vende-el-carro.wav,,,,,,,,,,,,,,,,,,,,,,,,,,,,,,,,,,,,,,,,,,,,,,,,,,,,,,,,
,,,,,,,601c454a1e2f3c720321470b,605b45a4d25f287719a41696,6061e576ea7ffd750b09df7a,Mexico,Midwest,13 or older,no,2021-03-29_10h37.57.760,empathy_intonation_perc,2020.2.10,Win32,60,,,,,,,,,,1,andalusian,1,1,1.64971,0,16,16,62,1,63,./stim/wavs/andalusian_mismatch_interrogative-total-yn_Mi-novio-viene-del-lago.wav,./stim/wavs/argentine_mismatch_interrogative-total-yn_Mi-novio-viene-del-lago.wav,./stim/wavs/castilian_mismatch_interrogative-total-yn_Mi-novio-viene-del-lago.wav,./stim/wavs/chilean_mismatch_interrogative-total-yn_Mi-novio-viene-del-lago.wav,./stim/wavs/cuban_mismatch_interrogative-total-yn_Mi-novio-viene-del-lago.wav,./stim/wavs/mexican_mismatch_interrogative-total-yn_Mi-novio-viene-del-lago.wav,./stim/wavs/peruvian_mismatch_interrogative-total-yn_Mi-novio-viene-del-lago.wav,./stim/wavs/puertorican_mismatch_interrogative-total-yn_Mi-novio-viene-del-lago.wav,,,,,,,,,,,,,,,,,,,,,,,,,,,,,,,,,,,,,,,,,,,,,,,,,,,,,,,,
,,,,,,,601c454a1e2f3c720321470b,605b45a4d25f287719a41696,6061e576ea7ffd750b09df7a,Mexico,Midwest,13 or older,no,2021-03-29_10h37.57.760,empathy_intonation_perc,2020.2.10,Win32,60,,,,,,,,,,1,puertorican,0,0,1.583325,0,17,17,16,1,17,./stim/wavs/andalusian_match_interrogative-partial-wh_Cuando-bebia-el-vino.wav,./stim/wavs/argentine_match_interrogative-partial-wh_Cuando-bebia-el-vino.wav,./stim/wavs/castilian_match_interrogative-partial-wh_Cuando-bebia-el-vino.wav,./stim/wavs/chilean_match_interrogative-partial-wh_Cuando-bebia-el-vino.wav,./stim/wavs/cuban_match_interrogative-partial-wh_Cuando-bebia-el-vino.wav,./stim/wavs/mexican_match_interrogative-partial-wh_Cuando-bebia-el-vino.wav,./stim/wavs/peruvian_match_interrogative-partial-wh_Cuando-bebia-el-vino.wav,./stim/wavs/puertorican_match_interrogative-partial-wh_Cuando-bebia-el-vino.wav,,,,,,,,,,,,,,,,,,,,,,,,,,,,,,,,,,,,,,,,,,,,,,,,,,,,,,,,
,,,,,,,601c454a1e2f3c720321470b,605b45a4d25f287719a41696,6061e576ea7ffd750b09df7a,Mexico,Midwest,13 or older,no,2021-03-29_10h37.57.760,empathy_intonation_perc,2020.2.10,Win32,60,,,,,,,,,,0,mexican,0,1,1.533955,0,18,18,1,1,2,./stim/wavs/andalusian_match_declarative-broad-focus_Daniel-iba-a-Bolivia.wav,./stim/wavs/argentine_match_declarative-broad-focus_Daniel-iba-a-Bolivia.wav,./stim/wavs/castilian_match_declarative-broad-focus_Daniel-iba-a-Bolivia.wav,./stim/wavs/chilean_match_declarative-broad-focus_Daniel-iba-a-Bolivia.wav,./stim/wavs/cuban_match_declarative-broad-focus_Daniel-iba-a-Bolivia.wav,./stim/wavs/mexican_match_declarative-broad-focus_Daniel-iba-a-Bolivia.wav,./stim/wavs/peruvian_match_declarative-broad-focus_Daniel-iba-a-Bolivia.wav,./stim/wavs/puertorican_match_declarative-broad-focus_Daniel-iba-a-Bolivia.wav,,,,,,,,,,,,,,,,,,,,,,,,,,,,,,,,,,,,,,,,,,,,,,,,,,,,,,,,
,,,,,,,601c454a1e2f3c720321470b,605b45a4d25f287719a41696,6061e576ea7ffd750b09df7a,Mexico,Midwest,13 or older,no,2021-03-29_10h37.57.760,empathy_intonation_perc,2020.2.10,Win32,60,,,,,,,,,,1,cuban,0,0,1.4507,0,19,19,19,1,20,./stim/wavs/andalusian_match_interrogative-partial-wh_Cuando-vendia-el-carro.wav,./stim/wavs/argentine_match_interrogative-partial-wh_Cuando-vendia-el-carro.wav,./stim/wavs/castilian_match_interrogative-partial-wh_Cuando-vendia-el-carro.wav,./stim/wavs/chilean_match_interrogative-partial-wh_Cuando-vendia-el-carro.wav,./stim/wavs/cuban_match_interrogative-partial-wh_Cuando-vendia-el-carro.wav,./stim/wavs/mexican_match_interrogative-partial-wh_Cuando-vendia-el-carro.wav,./stim/wavs/peruvian_match_interrogative-partial-wh_Cuando-vendia-el-carro.wav,./stim/wavs/puertorican_match_interrogative-partial-wh_Cuando-vendia-el-carro.wav,,,,,,,,,,,,,,,,,,,,,,,,,,,,,,,,,,,,,,,,,,,,,,,,,,,,,,,,
,,,,,,,601c454a1e2f3c720321470b,605b45a4d25f287719a41696,6061e576ea7ffd750b09df7a,Mexico,Midwest,13 or older,no,2021-03-29_10h37.57.760,empathy_intonation_perc,2020.2.10,Win32,60,,,,,,,,,,0,andalusian,0,1,1.63359,0,20,20,46,1,47,./stim/wavs/andalusian_mismatch_declarative-narrow-focus_Mi-novio-viene-del-lago.wav,./stim/wavs/argentine_mismatch_declarative-narrow-focus_Mi-novio-viene-del-lago.wav,./stim/wavs/castilian_mismatch_declarative-narrow-focus_Mi-novio-viene-del-lago.wav,./stim/wavs/chilean_mismatch_declarative-narrow-focus_Mi-novio-viene-del-lago.wav,./stim/wavs/cuban_mismatch_declarative-narrow-focus_Mi-novio-viene-del-lago.wav,./stim/wavs/mexican_mismatch_declarative-narrow-focus_Mi-novio-viene-del-lago.wav,./stim/wavs/peruvian_mismatch_declarative-narrow-focus_Mi-novio-viene-del-lago.wav,./stim/wavs/puertorican_mismatch_declarative-narrow-focus_Mi-novio-viene-del-lago.wav,,,,,,,,,,,,,,,,,,,,,,,,,,,,,,,,,,,,,,,,,,,,,,,,,,,,,,,,
,,,,,,,601c454a1e2f3c720321470b,605b45a4d25f287719a41696,6061e576ea7ffd750b09df7a,Mexico,Midwest,13 or older,no,2021-03-29_10h37.57.760,empathy_intonation_perc,2020.2.10,Win32,60,,,,,,,,,,1,andalusian,1,1,1.691025,0,21,21,56,1,57,./stim/wavs/andalusian_mismatch_interrogative-total-yn_El-bebe-comia-muy-bien.wav,./stim/wavs/argentine_mismatch_interrogative-total-yn_El-bebe-comia-muy-bien.wav,./stim/wavs/castilian_mismatch_interrogative-total-yn_El-bebe-comia-muy-bien.wav,./stim/wavs/chilean_mismatch_interrogative-total-yn_El-bebe-comia-muy-bien.wav,./stim/wavs/cuban_mismatch_interrogative-total-yn_El-bebe-comia-muy-bien.wav,./stim/wavs/mexican_mismatch_interrogative-total-yn_El-bebe-comia-muy-bien.wav,./stim/wavs/peruvian_mismatch_interrogative-total-yn_El-bebe-comia-muy-bien.wav,./stim/wavs/puertorican_mismatch_interrogative-total-yn_El-bebe-comia-muy-bien.wav,,,,,,,,,,,,,,,,,,,,,,,,,,,,,,,,,,,,,,,,,,,,,,,,,,,,,,,,
,,,,,,,601c454a1e2f3c720321470b,605b45a4d25f287719a41696,6061e576ea7ffd750b09df7a,Mexico,Midwest,13 or older,no,2021-03-29_10h37.57.760,empathy_intonation_perc,2020.2.10,Win32,60,,,,,,,,,,1,andalusian,0,0,1.833705,0,22,22,55,1,56,./stim/wavs/andalusian_mismatch_interrogative-partial-wh_Por-que-vivia-en-Paris.wav,./stim/wavs/argentine_mismatch_interrogative-partial-wh_Por-que-vivia-en-Paris.wav,./stim/wavs/castilian_mismatch_interrogative-partial-wh_Por-que-vivia-en-Paris.wav,./stim/wavs/chilean_mismatch_interrogative-partial-wh_Por-que-vivia-en-Paris.wav,./stim/wavs/cuban_mismatch_interrogative-partial-wh_Por-que-vivia-en-Paris.wav,./stim/wavs/mexican_mismatch_interrogative-partial-wh_Por-que-vivia-en-Paris.wav,./stim/wavs/peruvian_mismatch_interrogative-partial-wh_Por-que-vivia-en-Paris.wav,./stim/wavs/puertorican_mismatch_interrogative-partial-wh_Por-que-vivia-en-Paris.wav,,,,,,,,,,,,,,,,,,,,,,,,,,,,,,,,,,,,,,,,,,,,,,,,,,,,,,,,
,,,,,,,601c454a1e2f3c720321470b,605b45a4d25f287719a41696,6061e576ea7ffd750b09df7a,Mexico,Midwest,13 or older,no,2021-03-29_10h37.57.760,empathy_intonation_perc,2020.2.10,Win32,60,,,,,,,,,,0,chilean,0,1,1.58351,0,23,23,3,1,4,./stim/wavs/andalusian_match_declarative-broad-focus_Emilio-ama-la-marcha.wav,./stim/wavs/argentine_match_declarative-broad-focus_Emilio-ama-la-marcha.wav,./stim/wavs/castilian_match_declarative-broad-focus_Emilio-ama-la-marcha.wav,./stim/wavs/chilean_match_declarative-broad-focus_Emilio-ama-la-marcha.wav,./stim/wavs/cuban_match_declarative-broad-focus_Emilio-ama-la-marcha.wav,./stim/wavs/mexican_match_declarative-broad-focus_Emilio-ama-la-marcha.wav,./stim/wavs/peruvian_match_declarative-broad-focus_Emilio-ama-la-marcha.wav,./stim/wavs/puertorican_match_declarative-broad-focus_Emilio-ama-la-marcha.wav,,,,,,,,,,,,,,,,,,,,,,,,,,,,,,,,,,,,,,,,,,,,,,,,,,,,,,,,
,,,,,,,601c454a1e2f3c720321470b,605b45a4d25f287719a41696,6061e576ea7ffd750b09df7a,Mexico,Midwest,13 or older,no,2021-03-29_10h37.57.760,empathy_intonation_perc,2020.2.10,Win32,60,,,,,,,,,,0,cuban,0,1,1.266715,0,24,24,8,1,9,./stim/wavs/andalusian_match_declarative-narrow-focus_Ana-lleva-el-abrigo.wav,./stim/wavs/argentine_match_declarative-narrow-focus_Ana-lleva-el-abrigo.wav,./stim/wavs/castilian_match_declarative-narrow-focus_Ana-lleva-el-abrigo.wav,./stim/wavs/chilean_match_declarative-narrow-focus_Ana-lleva-el-abrigo.wav,./stim/wavs/cuban_match_declarative-narrow-focus_Ana-lleva-el-abrigo.wav,./stim/wavs/mexican_match_declarative-narrow-focus_Ana-lleva-el-abrigo.wav,./stim/wavs/peruvian_match_declarative-narrow-focus_Ana-lleva-el-abrigo.wav,./stim/wavs/puertorican_match_declarative-narrow-focus_Ana-lleva-el-abrigo.wav,,,,,,,,,,,,,,,,,,,,,,,,,,,,,,,,,,,,,,,,,,,,,,,,,,,,,,,,
,,,,,,,601c454a1e2f3c720321470b,605b45a4d25f287719a41696,6061e576ea7ffd750b09df7a,Mexico,Midwest,13 or older,no,2021-03-29_10h37.57.760,empathy_intonation_perc,2020.2.10,Win32,60,,,,,,,,,,1,andalusian,0,0,1.61668,0,25,25,52,1,53,./stim/wavs/andalusian_mismatch_interrogative-partial-wh_Por-que-odiaba-la-lluvia.wav,./stim/wavs/argentine_mismatch_interrogative-partial-wh_Por-que-odiaba-la-lluvia.wav,./stim/wavs/castilian_mismatch_interrogative-partial-wh_Por-que-odiaba-la-lluvia.wav,./stim/wavs/chilean_mismatch_interrogative-partial-wh_Por-que-odiaba-la-lluvia.wav,./stim/wavs/cuban_mismatch_interrogative-partial-wh_Por-que-odiaba-la-lluvia.wav,./stim/wavs/mexican_mismatch_interrogative-partial-wh_Por-que-odiaba-la-lluvia.wav,./stim/wavs/peruvian_mismatch_interrogative-partial-wh_Por-que-odiaba-la-lluvia.wav,./stim/wavs/puertorican_mismatch_interrogative-partial-wh_Por-que-odiaba-la-lluvia.wav,,,,,,,,,,,,,,,,,,,,,,,,,,,,,,,,,,,,,,,,,,,,,,,,,,,,,,,,
,,,,,,,601c454a1e2f3c720321470b,605b45a4d25f287719a41696,6061e576ea7ffd750b09df7a,Mexico,Midwest,13 or older,no,2021-03-29_10h37.57.760,empathy_intonation_perc,2020.2.10,Win32,60,,,,,,,,,,1,andalusian,1,1,1.41681,0,26,26,31,1,32,./stim/wavs/andalusian_match_interrogative-total-yn_Marta-abre-el-regalo.wav,./stim/wavs/argentine_match_interrogative-total-yn_Marta-abre-el-regalo.wav,./stim/wavs/castilian_match_interrogative-total-yn_Marta-abre-el-regalo.wav,./stim/wavs/chilean_match_interrogative-total-yn_Marta-abre-el-regalo.wav,./stim/wavs/cuban_match_interrogative-total-yn_Marta-abre-el-regalo.wav,./stim/wavs/mexican_match_interrogative-total-yn_Marta-abre-el-regalo.wav,./stim/wavs/peruvian_match_interrogative-total-yn_Marta-abre-el-regalo.wav,./stim/wavs/puertorican_match_interrogative-total-yn_Marta-abre-el-regalo.wav,,,,,,,,,,,,,,,,,,,,,,,,,,,,,,,,,,,,,,,,,,,,,,,,,,,,,,,,
,,,,,,,601c454a1e2f3c720321470b,605b45a4d25f287719a41696,6061e576ea7ffd750b09df7a,Mexico,Midwest,13 or older,no,2021-03-29_10h37.57.760,empathy_intonation_perc,2020.2.10,Win32,60,,,,,,,,,,1,mexican,1,1,1.68303,0,27,27,61,1,62,./stim/wavs/andalusian_mismatch_interrogative-total-yn_Mi-madre-come-la-fruta.wav,./stim/wavs/argentine_mismatch_interrogative-total-yn_Mi-madre-come-la-fruta.wav,./stim/wavs/castilian_mismatch_interrogative-total-yn_Mi-madre-come-la-fruta.wav,./stim/wavs/chilean_mismatch_interrogative-total-yn_Mi-madre-come-la-fruta.wav,./stim/wavs/cuban_mismatch_interrogative-total-yn_Mi-madre-come-la-fruta.wav,./stim/wavs/mexican_mismatch_interrogative-total-yn_Mi-madre-come-la-fruta.wav,./stim/wavs/peruvian_mismatch_interrogative-total-yn_Mi-madre-come-la-fruta.wav,./stim/wavs/puertorican_mismatch_interrogative-total-yn_Mi-madre-come-la-fruta.wav,,,,,,,,,,,,,,,,,,,,,,,,,,,,,,,,,,,,,,,,,,,,,,,,,,,,,,,,
,,,,,,,601c454a1e2f3c720321470b,605b45a4d25f287719a41696,6061e576ea7ffd750b09df7a,Mexico,Midwest,13 or older,no,2021-03-29_10h37.57.760,empathy_intonation_perc,2020.2.10,Win32,60,,,,,,,,,,1,peruvian,0,0,1.566505,0,28,28,17,1,18,./stim/wavs/andalusian_match_interrogative-partial-wh_Cuando-leia-el-libro.wav,./stim/wavs/argentine_match_interrogative-partial-wh_Cuando-leia-el-libro.wav,./stim/wavs/castilian_match_interrogative-partial-wh_Cuando-leia-el-libro.wav,./stim/wavs/chilean_match_interrogative-partial-wh_Cuando-leia-el-libro.wav,./stim/wavs/cuban_match_interrogative-partial-wh_Cuando-leia-el-libro.wav,./stim/wavs/mexican_match_interrogative-partial-wh_Cuando-leia-el-libro.wav,./stim/wavs/peruvian_match_interrogative-partial-wh_Cuando-leia-el-libro.wav,./stim/wavs/puertorican_match_interrogative-partial-wh_Cuando-leia-el-libro.wav,,,,,,,,,,,,,,,,,,,,,,,,,,,,,,,,,,,,,,,,,,,,,,,,,,,,,,,,
,,,,,,,601c454a1e2f3c720321470b,605b45a4d25f287719a41696,6061e576ea7ffd750b09df7a,Mexico,Midwest,13 or older,no,2021-03-29_10h37.57.760,empathy_intonation_perc,2020.2.10,Win32,60,,,,,,,,,,1,mexican,0,0,1.450055,0,29,29,49,1,50,./stim/wavs/andalusian_mismatch_interrogative-partial-wh_Cuando-lavaba-el-plato.wav,./stim/wavs/argentine_mismatch_interrogative-partial-wh_Cuando-lavaba-el-plato.wav,./stim/wavs/castilian_mismatch_interrogative-partial-wh_Cuando-lavaba-el-plato.wav,./stim/wavs/chilean_mismatch_interrogative-partial-wh_Cuando-lavaba-el-plato.wav,./stim/wavs/cuban_mismatch_interrogative-partial-wh_Cuando-lavaba-el-plato.wav,./stim/wavs/mexican_mismatch_interrogative-partial-wh_Cuando-lavaba-el-plato.wav,./stim/wavs/peruvian_mismatch_interrogative-partial-wh_Cuando-lavaba-el-plato.wav,./stim/wavs/puertorican_mismatch_interrogative-partial-wh_Cuando-lavaba-el-plato.wav,,,,,,,,,,,,,,,,,,,,,,,,,,,,,,,,,,,,,,,,,,,,,,,,,,,,,,,,
,,,,,,,601c454a1e2f3c720321470b,605b45a4d25f287719a41696,6061e576ea7ffd750b09df7a,Mexico,Midwest,13 or older,no,2021-03-29_10h37.57.760,empathy_intonation_perc,2020.2.10,Win32,60,,,,,,,,,,1,castilian,1,1,1.770025,0,30,30,60,1,61,./stim/wavs/andalusian_mismatch_interrogative-total-yn_La-nina-lava-el-plato.wav,./stim/wavs/argentine_mismatch_interrogative-total-yn_La-nina-lava-el-plato.wav,./stim/wavs/castilian_mismatch_interrogative-total-yn_La-nina-lava-el-plato.wav,./stim/wavs/chilean_mismatch_interrogative-total-yn_La-nina-lava-el-plato.wav,./stim/wavs/cuban_mismatch_interrogative-total-yn_La-nina-lava-el-plato.wav,./stim/wavs/mexican_mismatch_interrogative-total-yn_La-nina-lava-el-plato.wav,./stim/wavs/peruvian_mismatch_interrogative-total-yn_La-nina-lava-el-plato.wav,./stim/wavs/puertorican_mismatch_interrogative-total-yn_La-nina-lava-el-plato.wav,,,,,,,,,,,,,,,,,,,,,,,,,,,,,,,,,,,,,,,,,,,,,,,,,,,,,,,,
,,,,,,,601c454a1e2f3c720321470b,605b45a4d25f287719a41696,6061e576ea7ffd750b09df7a,Mexico,Midwest,13 or older,no,2021-03-29_10h37.57.760,empathy_intonation_perc,2020.2.10,Win32,60,,,,,,,,,,1,puertorican,1,1,1.533075,0,31,31,25,1,26,./stim/wavs/andalusian_match_interrogative-total-yn_Daniel-iba-a-Bolivia.wav,./stim/wavs/argentine_match_interrogative-total-yn_Daniel-iba-a-Bolivia.wav,./stim/wavs/castilian_match_interrogative-total-yn_Daniel-iba-a-Bolivia.wav,./stim/wavs/chilean_match_interrogative-total-yn_Daniel-iba-a-Bolivia.wav,./stim/wavs/cuban_match_interrogative-total-yn_Daniel-iba-a-Bolivia.wav,./stim/wavs/mexican_match_interrogative-total-yn_Daniel-iba-a-Bolivia.wav,./stim/wavs/peruvian_match_interrogative-total-yn_Daniel-iba-a-Bolivia.wav,./stim/wavs/puertorican_match_interrogative-total-yn_Daniel-iba-a-Bolivia.wav,,,,,,,,,,,,,,,,,,,,,,,,,,,,,,,,,,,,,,,,,,,,,,,,,,,,,,,,
,,,,,,,601c454a1e2f3c720321470b,605b45a4d25f287719a41696,6061e576ea7ffd750b09df7a,Mexico,Midwest,13 or older,no,2021-03-29_10h37.57.760,empathy_intonation_perc,2020.2.10,Win32,60,,,,,,,,,,0,andalusian,0,1,1.98871,0,32,32,35,1,36,./stim/wavs/andalusian_mismatch_declarative-broad-focus_La-maestra-vive-en-Paris.wav,./stim/wavs/argentine_mismatch_declarative-broad-focus_La-maestra-vive-en-Paris.wav,./stim/wavs/castilian_mismatch_declarative-broad-focus_La-maestra-vive-en-Paris.wav,./stim/wavs/chilean_mismatch_declarative-broad-focus_La-maestra-vive-en-Paris.wav,./stim/wavs/cuban_mismatch_declarative-broad-focus_La-maestra-vive-en-Paris.wav,./stim/wavs/mexican_mismatch_declarative-broad-focus_La-maestra-vive-en-Paris.wav,./stim/wavs/peruvian_mismatch_declarative-broad-focus_La-maestra-vive-en-Paris.wav,./stim/wavs/puertorican_mismatch_declarative-broad-focus_La-maestra-vive-en-Paris.wav,,,,,,,,,,,,,,,,,,,,,,,,,,,,,,,,,,,,,,,,,,,,,,,,,,,,,,,,
,,,,,,,601c454a1e2f3c720321470b,605b45a4d25f287719a41696,6061e576ea7ffd750b09df7a,Mexico,Midwest,13 or older,no,2021-03-29_10h37.57.760,empathy_intonation_perc,2020.2.10,Win32,60,,,,,,,,,,0,mexican,0,1,1.54994,0,33,33,15,1,16,./stim/wavs/andalusian_match_declarative-narrow-focus_Marta-abre-el-regalo.wav,./stim/wavs/argentine_match_declarative-narrow-focus_Marta-abre-el-regalo.wav,./stim/wavs/castilian_match_declarative-narrow-focus_Marta-abre-el-regalo.wav,./stim/wavs/chilean_match_declarative-narrow-focus_Marta-abre-el-regalo.wav,./stim/wavs/cuban_match_declarative-narrow-focus_Marta-abre-el-regalo.wav,./stim/wavs/mexican_match_declarative-narrow-focus_Marta-abre-el-regalo.wav,./stim/wavs/peruvian_match_declarative-narrow-focus_Marta-abre-el-regalo.wav,./stim/wavs/puertorican_match_declarative-narrow-focus_Marta-abre-el-regalo.wav,,,,,,,,,,,,,,,,,,,,,,,,,,,,,,,,,,,,,,,,,,,,,,,,,,,,,,,,
,,,,,,,601c454a1e2f3c720321470b,605b45a4d25f287719a41696,6061e576ea7ffd750b09df7a,Mexico,Midwest,13 or older,no,2021-03-29_10h37.57.760,empathy_intonation_perc,2020.2.10,Win32,60,,,,,,,,,,0,peruvian,0,1,1.537975,0,34,34,5,1,6,./stim/wavs/andalusian_match_declarative-broad-focus_Maria-bebe-el-vino.wav,./stim/wavs/argentine_match_declarative-broad-focus_Maria-bebe-el-vino.wav,./stim/wavs/castilian_match_declarative-broad-focus_Maria-bebe-el-vino.wav,./stim/wavs/chilean_match_declarative-broad-focus_Maria-bebe-el-vino.wav,./stim/wavs/cuban_match_declarative-broad-focus_Maria-bebe-el-vino.wav,./stim/wavs/mexican_match_declarative-broad-focus_Maria-bebe-el-vino.wav,./stim/wavs/peruvian_match_declarative-broad-focus_Maria-bebe-el-vino.wav,./stim/wavs/puertorican_match_declarative-broad-focus_Maria-bebe-el-vino.wav,,,,,,,,,,,,,,,,,,,,,,,,,,,,,,,,,,,,,,,,,,,,,,,,,,,,,,,,
,,,,,,,601c454a1e2f3c720321470b,605b45a4d25f287719a41696,6061e576ea7ffd750b09df7a,Mexico,Midwest,13 or older,no,2021-03-29_10h37.57.760,empathy_intonation_perc,2020.2.10,Win32,60,,,,,,,,,,0,chilean,0,1,1.58784,0,35,35,32,1,33,./stim/wavs/andalusian_mismatch_declarative-broad-focus_El-bebe-comia-muy-bien.wav,./stim/wavs/argentine_mismatch_declarative-broad-focus_El-bebe-comia-muy-bien.wav,./stim/wavs/castilian_mismatch_declarative-broad-focus_El-bebe-comia-muy-bien.wav,./stim/wavs/chilean_mismatch_declarative-broad-focus_El-bebe-comia-muy-bien.wav,./stim/wavs/cuban_mismatch_declarative-broad-focus_El-bebe-comia-muy-bien.wav,./stim/wavs/mexican_mismatch_declarative-broad-focus_El-bebe-comia-muy-bien.wav,./stim/wavs/peruvian_mismatch_declarative-broad-focus_El-bebe-comia-muy-bien.wav,./stim/wavs/puertorican_mismatch_declarative-broad-focus_El-bebe-comia-muy-bien.wav,,,,,,,,,,,,,,,,,,,,,,,,,,,,,,,,,,,,,,,,,,,,,,,,,,,,,,,,
,,,,,,,601c454a1e2f3c720321470b,605b45a4d25f287719a41696,6061e576ea7ffd750b09df7a,Mexico,Midwest,13 or older,no,2021-03-29_10h37.57.760,empathy_intonation_perc,2020.2.10,Win32,60,,,,,,,,,,0,andalusian,0,1,1.46664,0,36,36,33,1,34,./stim/wavs/andalusian_mismatch_declarative-broad-focus_El-hombre-mira-la-luna.wav,./stim/wavs/argentine_mismatch_declarative-broad-focus_El-hombre-mira-la-luna.wav,./stim/wavs/castilian_mismatch_declarative-broad-focus_El-hombre-mira-la-luna.wav,./stim/wavs/chilean_mismatch_declarative-broad-focus_El-hombre-mira-la-luna.wav,./stim/wavs/cuban_mismatch_declarative-broad-focus_El-hombre-mira-la-luna.wav,./stim/wavs/mexican_mismatch_declarative-broad-focus_El-hombre-mira-la-luna.wav,./stim/wavs/peruvian_mismatch_declarative-broad-focus_El-hombre-mira-la-luna.wav,./stim/wavs/puertorican_mismatch_declarative-broad-focus_El-hombre-mira-la-luna.wav,,,,,,,,,,,,,,,,,,,,,,,,,,,,,,,,,,,,,,,,,,,,,,,,,,,,,,,,
,,,,,,,601c454a1e2f3c720321470b,605b45a4d25f287719a41696,6061e576ea7ffd750b09df7a,Mexico,Midwest,13 or older,no,2021-03-29_10h37.57.760,empathy_intonation_perc,2020.2.10,Win32,60,,,,,,,,,,0,puertorican,0,1,1.486425,0,37,37,11,1,12,./stim/wavs/andalusian_match_declarative-narrow-focus_Emilio-ama-la-marcha.wav,./stim/wavs/argentine_match_declarative-narrow-focus_Emilio-ama-la-marcha.wav,./stim/wavs/castilian_match_declarative-narrow-focus_Emilio-ama-la-marcha.wav,./stim/wavs/chilean_match_declarative-narrow-focus_Emilio-ama-la-marcha.wav,./stim/wavs/cuban_match_declarative-narrow-focus_Emilio-ama-la-marcha.wav,./stim/wavs/mexican_match_declarative-narrow-focus_Emilio-ama-la-marcha.wav,./stim/wavs/peruvian_match_declarative-narrow-focus_Emilio-ama-la-marcha.wav,./stim/wavs/puertorican_match_declarative-narrow-focus_Emilio-ama-la-marcha.wav,,,,,,,,,,,,,,,,,,,,,,,,,,,,,,,,,,,,,,,,,,,,,,,,,,,,,,,,
,,,,,,,601c454a1e2f3c720321470b,605b45a4d25f287719a41696,6061e576ea7ffd750b09df7a,Mexico,Midwest,13 or older,no,2021-03-29_10h37.57.760,empathy_intonation_perc,2020.2.10,Win32,60,,,,,,,,,,1,peruvian,0,0,1.66641,0,38,38,20,1,21,./stim/wavs/andalusian_match_interrogative-partial-wh_Por-que-abre-el-regalo.wav,./stim/wavs/argentine_match_interrogative-partial-wh_Por-que-abre-el-regalo.wav,./stim/wavs/castilian_match_interrogative-partial-wh_Por-que-abre-el-regalo.wav,./stim/wavs/chilean_match_interrogative-partial-wh_Por-que-abre-el-regalo.wav,./stim/wavs/cuban_match_interrogative-partial-wh_Por-que-abre-el-regalo.wav,./stim/wavs/mexican_match_interrogative-partial-wh_Por-que-abre-el-regalo.wav,./stim/wavs/peruvian_match_interrogative-partial-wh_Por-que-abre-el-regalo.wav,./stim/wavs/puertorican_match_interrogative-partial-wh_Por-que-abre-el-regalo.wav,,,,,,,,,,,,,,,,,,,,,,,,,,,,,,,,,,,,,,,,,,,,,,,,,,,,,,,,
,,,,,,,601c454a1e2f3c720321470b,605b45a4d25f287719a41696,6061e576ea7ffd750b09df7a,Mexico,Midwest,13 or older,no,2021-03-29_10h37.57.760,empathy_intonation_perc,2020.2.10,Win32,60,,,,,,,,,,0,peruvian,0,1,1.833495,0,39,39,47,1,48,./stim/wavs/andalusian_mismatch_declarative-narrow-focus_Mi-tia-odia-la-lluvia.wav,./stim/wavs/argentine_mismatch_declarative-narrow-focus_Mi-tia-odia-la-lluvia.wav,./stim/wavs/castilian_mismatch_declarative-narrow-focus_Mi-tia-odia-la-lluvia.wav,./stim/wavs/chilean_mismatch_declarative-narrow-focus_Mi-tia-odia-la-lluvia.wav,./stim/wavs/cuban_mismatch_declarative-narrow-focus_Mi-tia-odia-la-lluvia.wav,./stim/wavs/mexican_mismatch_declarative-narrow-focus_Mi-tia-odia-la-lluvia.wav,./stim/wavs/peruvian_mismatch_declarative-narrow-focus_Mi-tia-odia-la-lluvia.wav,./stim/wavs/puertorican_mismatch_declarative-narrow-focus_Mi-tia-odia-la-lluvia.wav,,,,,,,,,,,,,,,,,,,,,,,,,,,,,,,,,,,,,,,,,,,,,,,,,,,,,,,,
,,,,,,,601c454a1e2f3c720321470b,605b45a4d25f287719a41696,6061e576ea7ffd750b09df7a,Mexico,Midwest,13 or older,no,2021-03-29_10h37.57.760,empathy_intonation_perc,2020.2.10,Win32,60,,,,,,,,,,0,mexican,0,1,2.549885,0,40,40,37,1,38,./stim/wavs/andalusian_mismatch_declarative-broad-focus_Mi-madre-come-la-fruta.wav,./stim/wavs/argentine_mismatch_declarative-broad-focus_Mi-madre-come-la-fruta.wav,./stim/wavs/castilian_mismatch_declarative-broad-focus_Mi-madre-come-la-fruta.wav,./stim/wavs/chilean_mismatch_declarative-broad-focus_Mi-madre-come-la-fruta.wav,./stim/wavs/cuban_mismatch_declarative-broad-focus_Mi-madre-come-la-fruta.wav,./stim/wavs/mexican_mismatch_declarative-broad-focus_Mi-madre-come-la-fruta.wav,./stim/wavs/peruvian_mismatch_declarative-broad-focus_Mi-madre-come-la-fruta.wav,./stim/wavs/puertorican_mismatch_declarative-broad-focus_Mi-madre-come-la-fruta.wav,,,,,,,,,,,,,,,,,,,,,,,,,,,,,,,,,,,,,,,,,,,,,,,,,,,,,,,,
,,,,,,,601c454a1e2f3c720321470b,605b45a4d25f287719a41696,6061e576ea7ffd750b09df7a,Mexico,Midwest,13 or older,no,2021-03-29_10h37.57.760,empathy_intonation_perc,2020.2.10,Win32,60,,,,,,,,,,0,peruvian,0,1,1.71676,0,41,41,40,1,41,./stim/wavs/andalusian_mismatch_declarative-narrow-focus_El-bebe-comia-muy-bien.wav,./stim/wavs/argentine_mismatch_declarative-narrow-focus_El-bebe-comia-muy-bien.wav,./stim/wavs/castilian_mismatch_declarative-narrow-focus_El-bebe-comia-muy-bien.wav,./stim/wavs/chilean_mismatch_declarative-narrow-focus_El-bebe-comia-muy-bien.wav,./stim/wavs/cuban_mismatch_declarative-narrow-focus_El-bebe-comia-muy-bien.wav,./stim/wavs/mexican_mismatch_declarative-narrow-focus_El-bebe-comia-muy-bien.wav,./stim/wavs/peruvian_mismatch_declarative-narrow-focus_El-bebe-comia-muy-bien.wav,./stim/wavs/puertorican_mismatch_declarative-narrow-focus_El-bebe-comia-muy-bien.wav,,,,,,,,,,,,,,,,,,,,,,,,,,,,,,,,,,,,,,,,,,,,,,,,,,,,,,,,
,,,,,,,601c454a1e2f3c720321470b,605b45a4d25f287719a41696,6061e576ea7ffd750b09df7a,Mexico,Midwest,13 or older,no,2021-03-29_10h37.57.760,empathy_intonation_perc,2020.2.10,Win32,60,,,,,,,,,,1,peruvian,0,0,1.63386,0,42,42,21,1,22,./stim/wavs/andalusian_match_interrogative-partial-wh_Por-que-ama-la-navidad.wav,./stim/wavs/argentine_match_interrogative-partial-wh_Por-que-ama-la-navidad.wav,./stim/wavs/castilian_match_interrogative-partial-wh_Por-que-ama-la-navidad.wav,./stim/wavs/chilean_match_interrogative-partial-wh_Por-que-ama-la-navidad.wav,./stim/wavs/cuban_match_interrogative-partial-wh_Por-que-ama-la-navidad.wav,./stim/wavs/mexican_match_interrogative-partial-wh_Por-que-ama-la-navidad.wav,./stim/wavs/peruvian_match_interrogative-partial-wh_Por-que-ama-la-navidad.wav,./stim/wavs/puertorican_match_interrogative-partial-wh_Por-que-ama-la-navidad.wav,,,,,,,,,,,,,,,,,,,,,,,,,,,,,,,,,,,,,,,,,,,,,,,,,,,,,,,,
,,,,,,,601c454a1e2f3c720321470b,605b45a4d25f287719a41696,6061e576ea7ffd750b09df7a,Mexico,Midwest,13 or older,no,2021-03-29_10h37.57.760,empathy_intonation_perc,2020.2.10,Win32,60,,,,,,,,,,0,castilian,0,1,1.516655,0,43,43,10,1,11,./stim/wavs/andalusian_match_declarative-narrow-focus_David-leia-el-libro.wav,./stim/wavs/argentine_match_declarative-narrow-focus_David-leia-el-libro.wav,./stim/wavs/castilian_match_declarative-narrow-focus_David-leia-el-libro.wav,./stim/wavs/chilean_match_declarative-narrow-focus_David-leia-el-libro.wav,./stim/wavs/cuban_match_declarative-narrow-focus_David-leia-el-libro.wav,./stim/wavs/mexican_match_declarative-narrow-focus_David-leia-el-libro.wav,./stim/wavs/peruvian_match_declarative-narrow-focus_David-leia-el-libro.wav,./stim/wavs/puertorican_match_declarative-narrow-focus_David-leia-el-libro.wav,,,,,,,,,,,,,,,,,,,,,,,,,,,,,,,,,,,,,,,,,,,,,,,,,,,,,,,,
,,,,,,,601c454a1e2f3c720321470b,605b45a4d25f287719a41696,6061e576ea7ffd750b09df7a,Mexico,Midwest,13 or older,no,2021-03-29_10h37.57.760,empathy_intonation_perc,2020.2.10,Win32,60,,,,,,,,,,0,mexican,0,1,1.55361,0,44,44,6,1,7,./stim/wavs/andalusian_match_declarative-broad-focus_Mariano-habla-del-tiempo.wav,./stim/wavs/argentine_match_declarative-broad-focus_Mariano-habla-del-tiempo.wav,./stim/wavs/castilian_match_declarative-broad-focus_Mariano-habla-del-tiempo.wav,./stim/wavs/chilean_match_declarative-broad-focus_Mariano-habla-del-tiempo.wav,./stim/wavs/cuban_match_declarative-broad-focus_Mariano-habla-del-tiempo.wav,./stim/wavs/mexican_match_declarative-broad-focus_Mariano-habla-del-tiempo.wav,./stim/wavs/peruvian_match_declarative-broad-focus_Mariano-habla-del-tiempo.wav,./stim/wavs/puertorican_match_declarative-broad-focus_Mariano-habla-del-tiempo.wav,,,,,,,,,,,,,,,,,,,,,,,,,,,,,,,,,,,,,,,,,,,,,,,,,,,,,,,,
,,,,,,,601c454a1e2f3c720321470b,605b45a4d25f287719a41696,6061e576ea7ffd750b09df7a,Mexico,Midwest,13 or older,no,2021-03-29_10h37.57.760,empathy_intonation_perc,2020.2.10,Win32,60,,,,,,,,,,1,chilean,0,0,1.850355,0,45,45,30,1,31,./stim/wavs/andalusian_match_interrogative-total-yn_Mariano-habla-del-tiempo.wav,./stim/wavs/argentine_match_interrogative-total-yn_Mariano-habla-del-tiempo.wav,./stim/wavs/castilian_match_interrogative-total-yn_Mariano-habla-del-tiempo.wav,./stim/wavs/chilean_match_interrogative-total-yn_Mariano-habla-del-tiempo.wav,./stim/wavs/cuban_match_interrogative-total-yn_Mariano-habla-del-tiempo.wav,./stim/wavs/mexican_match_interrogative-total-yn_Mariano-habla-del-tiempo.wav,./stim/wavs/peruvian_match_interrogative-total-yn_Mariano-habla-del-tiempo.wav,./stim/wavs/puertorican_match_interrogative-total-yn_Mariano-habla-del-tiempo.wav,,,,,,,,,,,,,,,,,,,,,,,,,,,,,,,,,,,,,,,,,,,,,,,,,,,,,,,,
,,,,,,,601c454a1e2f3c720321470b,605b45a4d25f287719a41696,6061e576ea7ffd750b09df7a,Mexico,Midwest,13 or older,no,2021-03-29_10h37.57.760,empathy_intonation_perc,2020.2.10,Win32,60,,,,,,,,,,1,chilean,0,0,1.966055,0,46,46,50,1,51,./stim/wavs/andalusian_mismatch_interrogative-partial-wh_Cuando-miraba-la-luna.wav,./stim/wavs/argentine_mismatch_interrogative-partial-wh_Cuando-miraba-la-luna.wav,./stim/wavs/castilian_mismatch_interrogative-partial-wh_Cuando-miraba-la-luna.wav,./stim/wavs/chilean_mismatch_interrogative-partial-wh_Cuando-miraba-la-luna.wav,./stim/wavs/cuban_mismatch_interrogative-partial-wh_Cuando-miraba-la-luna.wav,./stim/wavs/mexican_mismatch_interrogative-partial-wh_Cuando-miraba-la-luna.wav,./stim/wavs/peruvian_mismatch_interrogative-partial-wh_Cuando-miraba-la-luna.wav,./stim/wavs/puertorican_mismatch_interrogative-partial-wh_Cuando-miraba-la-luna.wav,,,,,,,,,,,,,,,,,,,,,,,,,,,,,,,,,,,,,,,,,,,,,,,,,,,,,,,,
,,,,,,,601c454a1e2f3c720321470b,605b45a4d25f287719a41696,6061e576ea7ffd750b09df7a,Mexico,Midwest,13 or older,no,2021-03-29_10h37.57.760,empathy_intonation_perc,2020.2.10,Win32,60,,,,,,,,,,0,peruvian,0,1,1.469255,0,47,47,13,1,14,./stim/wavs/andalusian_match_declarative-narrow-focus_Maria-bebe-el-vino.wav,./stim/wavs/argentine_match_declarative-narrow-focus_Maria-bebe-el-vino.wav,./stim/wavs/castilian_match_declarative-narrow-focus_Maria-bebe-el-vino.wav,./stim/wavs/chilean_match_declarative-narrow-focus_Maria-bebe-el-vino.wav,./stim/wavs/cuban_match_declarative-narrow-focus_Maria-bebe-el-vino.wav,./stim/wavs/mexican_match_declarative-narrow-focus_Maria-bebe-el-vino.wav,./stim/wavs/peruvian_match_declarative-narrow-focus_Maria-bebe-el-vino.wav,./stim/wavs/puertorican_match_declarative-narrow-focus_Maria-bebe-el-vino.wav,,,,,,,,,,,,,,,,,,,,,,,,,,,,,,,,,,,,,,,,,,,,,,,,,,,,,,,,
,,,,,,,601c454a1e2f3c720321470b,605b45a4d25f287719a41696,6061e576ea7ffd750b09df7a,Mexico,Midwest,13 or older,no,2021-03-29_10h37.57.760,empathy_intonation_perc,2020.2.10,Win32,60,,,,,,,,,,1,andalusian,0,0,1.41665,0,48,48,59,1,60,./stim/wavs/andalusian_mismatch_interrogative-total-yn_La-maestra-vive-en-Paris.wav,./stim/wavs/argentine_mismatch_interrogative-total-yn_La-maestra-vive-en-Paris.wav,./stim/wavs/castilian_mismatch_interrogative-total-yn_La-maestra-vive-en-Paris.wav,./stim/wavs/chilean_mismatch_interrogative-total-yn_La-maestra-vive-en-Paris.wav,./stim/wavs/cuban_mismatch_interrogative-total-yn_La-maestra-vive-en-Paris.wav,./stim/wavs/mexican_mismatch_interrogative-total-yn_La-maestra-vive-en-Paris.wav,./stim/wavs/peruvian_mismatch_interrogative-total-yn_La-maestra-vive-en-Paris.wav,./stim/wavs/puertorican_mismatch_interrogative-total-yn_La-maestra-vive-en-Paris.wav,,,,,,,,,,,,,,,,,,,,,,,,,,,,,,,,,,,,,,,,,,,,,,,,,,,,,,,,
,,,,,,,601c454a1e2f3c720321470b,605b45a4d25f287719a41696,6061e576ea7ffd750b09df7a,Mexico,Midwest,13 or older,no,2021-03-29_10h37.57.760,empathy_intonation_perc,2020.2.10,Win32,60,,,,,,,,,,0,puertorican,0,1,1.600165,0,49,49,34,1,35,./stim/wavs/andalusian_mismatch_declarative-broad-focus_El-nino-oye-el-rio.wav,./stim/wavs/argentine_mismatch_declarative-broad-focus_El-nino-oye-el-rio.wav,./stim/wavs/castilian_mismatch_declarative-broad-focus_El-nino-oye-el-rio.wav,./stim/wavs/chilean_mismatch_declarative-broad-focus_El-nino-oye-el-rio.wav,./stim/wavs/cuban_mismatch_declarative-broad-focus_El-nino-oye-el-rio.wav,./stim/wavs/mexican_mismatch_declarative-broad-focus_El-nino-oye-el-rio.wav,./stim/wavs/peruvian_mismatch_declarative-broad-focus_El-nino-oye-el-rio.wav,./stim/wavs/puertorican_mismatch_declarative-broad-focus_El-nino-oye-el-rio.wav,,,,,,,,,,,,,,,,,,,,,,,,,,,,,,,,,,,,,,,,,,,,,,,,,,,,,,,,
,,,,,,,601c454a1e2f3c720321470b,605b45a4d25f287719a41696,6061e576ea7ffd750b09df7a,Mexico,Midwest,13 or older,no,2021-03-29_10h37.57.760,empathy_intonation_perc,2020.2.10,Win32,60,,,,,,,,,,1,cuban,0,0,1.40307,0,50,50,57,1,58,./stim/wavs/andalusian_mismatch_interrogative-total-yn_El-hombre-mira-la-luna.wav,./stim/wavs/argentine_mismatch_interrogative-total-yn_El-hombre-mira-la-luna.wav,./stim/wavs/castilian_mismatch_interrogative-total-yn_El-hombre-mira-la-luna.wav,./stim/wavs/chilean_mismatch_interrogative-total-yn_El-hombre-mira-la-luna.wav,./stim/wavs/cuban_mismatch_interrogative-total-yn_El-hombre-mira-la-luna.wav,./stim/wavs/mexican_mismatch_interrogative-total-yn_El-hombre-mira-la-luna.wav,./stim/wavs/peruvian_mismatch_interrogative-total-yn_El-hombre-mira-la-luna.wav,./stim/wavs/puertorican_mismatch_interrogative-total-yn_El-hombre-mira-la-luna.wav,,,,,,,,,,,,,,,,,,,,,,,,,,,,,,,,,,,,,,,,,,,,,,,,,,,,,,,,
,,,,,,,601c454a1e2f3c720321470b,605b45a4d25f287719a41696,6061e576ea7ffd750b09df7a,Mexico,Midwest,13 or older,no,2021-03-29_10h37.57.760,empathy_intonation_perc,2020.2.10,Win32,60,,,,,,,,,,0,peruvian,0,1,1.483245,0,51,51,0,1,1,./stim/wavs/andalusian_match_declarative-broad-focus_Ana-lleva-el-abrigo.wav,./stim/wavs/argentine_match_declarative-broad-focus_Ana-lleva-el-abrigo.wav,./stim/wavs/castilian_match_declarative-broad-focus_Ana-lleva-el-abrigo.wav,./stim/wavs/chilean_match_declarative-broad-focus_Ana-lleva-el-abrigo.wav,./stim/wavs/cuban_match_declarative-broad-focus_Ana-lleva-el-abrigo.wav,./stim/wavs/mexican_match_declarative-broad-focus_Ana-lleva-el-abrigo.wav,./stim/wavs/peruvian_match_declarative-broad-focus_Ana-lleva-el-abrigo.wav,./stim/wavs/puertorican_match_declarative-broad-focus_Ana-lleva-el-abrigo.wav,,,,,,,,,,,,,,,,,,,,,,,,,,,,,,,,,,,,,,,,,,,,,,,,,,,,,,,,
,,,,,,,601c454a1e2f3c720321470b,605b45a4d25f287719a41696,6061e576ea7ffd750b09df7a,Mexico,Midwest,13 or older,no,2021-03-29_10h37.57.760,empathy_intonation_perc,2020.2.10,Win32,60,,,,,,,,,,1,castilian,1,1,1.61926,0,52,52,22,1,23,./stim/wavs/andalusian_match_interrogative-partial-wh_Por-que-hablaba-del-agua.wav,./stim/wavs/argentine_match_interrogative-partial-wh_Por-que-hablaba-del-agua.wav,./stim/wavs/castilian_match_interrogative-partial-wh_Por-que-hablaba-del-agua.wav,./stim/wavs/chilean_match_interrogative-partial-wh_Por-que-hablaba-del-agua.wav,./stim/wavs/cuban_match_interrogative-partial-wh_Por-que-hablaba-del-agua.wav,./stim/wavs/mexican_match_interrogative-partial-wh_Por-que-hablaba-del-agua.wav,./stim/wavs/peruvian_match_interrogative-partial-wh_Por-que-hablaba-del-agua.wav,./stim/wavs/puertorican_match_interrogative-partial-wh_Por-que-hablaba-del-agua.wav,,,,,,,,,,,,,,,,,,,,,,,,,,,,,,,,,,,,,,,,,,,,,,,,,,,,,,,,
,,,,,,,601c454a1e2f3c720321470b,605b45a4d25f287719a41696,6061e576ea7ffd750b09df7a,Mexico,Midwest,13 or older,no,2021-03-29_10h37.57.760,empathy_intonation_perc,2020.2.10,Win32,60,,,,,,,,,,0,argentine,0,1,1.66647,0,53,53,7,1,8,./stim/wavs/andalusian_match_declarative-broad-focus_Marta-abre-el-regalo.wav,./stim/wavs/argentine_match_declarative-broad-focus_Marta-abre-el-regalo.wav,./stim/wavs/castilian_match_declarative-broad-focus_Marta-abre-el-regalo.wav,./stim/wavs/chilean_match_declarative-broad-focus_Marta-abre-el-regalo.wav,./stim/wavs/cuban_match_declarative-broad-focus_Marta-abre-el-regalo.wav,./stim/wavs/mexican_match_declarative-broad-focus_Marta-abre-el-regalo.wav,./stim/wavs/peruvian_match_declarative-broad-focus_Marta-abre-el-regalo.wav,./stim/wavs/puertorican_match_declarative-broad-focus_Marta-abre-el-regalo.wav,,,,,,,,,,,,,,,,,,,,,,,,,,,,,,,,,,,,,,,,,,,,,,,,,,,,,,,,
,,,,,,,601c454a1e2f3c720321470b,605b45a4d25f287719a41696,6061e576ea7ffd750b09df7a,Mexico,Midwest,13 or older,no,2021-03-29_10h37.57.760,empathy_intonation_perc,2020.2.10,Win32,60,,,,,,,,,,0,peruvian,0,1,1.60855,0,54,54,36,1,37,./stim/wavs/andalusian_mismatch_declarative-broad-focus_La-nina-lava-el-plato.wav,./stim/wavs/argentine_mismatch_declarative-broad-focus_La-nina-lava-el-plato.wav,./stim/wavs/castilian_mismatch_declarative-broad-focus_La-nina-lava-el-plato.wav,./stim/wavs/chilean_mismatch_declarative-broad-focus_La-nina-lava-el-plato.wav,./stim/wavs/cuban_mismatch_declarative-broad-focus_La-nina-lava-el-plato.wav,./stim/wavs/mexican_mismatch_declarative-broad-focus_La-nina-lava-el-plato.wav,./stim/wavs/peruvian_mismatch_declarative-broad-focus_La-nina-lava-el-plato.wav,./stim/wavs/puertorican_mismatch_declarative-broad-focus_La-nina-lava-el-plato.wav,,,,,,,,,,,,,,,,,,,,,,,,,,,,,,,,,,,,,,,,,,,,,,,,,,,,,,,,
,,,,,,,601c454a1e2f3c720321470b,605b45a4d25f287719a41696,6061e576ea7ffd750b09df7a,Mexico,Midwest,13 or older,no,2021-03-29_10h37.57.760,empathy_intonation_perc,2020.2.10,Win32,60,,,,,,,,,,1,argentine,0,0,1.488885,0,55,55,18,1,19,./stim/wavs/andalusian_match_interrogative-partial-wh_Cuando-lleva-el-abrigo.wav,./stim/wavs/argentine_match_interrogative-partial-wh_Cuando-lleva-el-abrigo.wav,./stim/wavs/castilian_match_interrogative-partial-wh_Cuando-lleva-el-abrigo.wav,./stim/wavs/chilean_match_interrogative-partial-wh_Cuando-lleva-el-abrigo.wav,./stim/wavs/cuban_match_interrogative-partial-wh_Cuando-lleva-el-abrigo.wav,./stim/wavs/mexican_match_interrogative-partial-wh_Cuando-lleva-el-abrigo.wav,./stim/wavs/peruvian_match_interrogative-partial-wh_Cuando-lleva-el-abrigo.wav,./stim/wavs/puertorican_match_interrogative-partial-wh_Cuando-lleva-el-abrigo.wav,,,,,,,,,,,,,,,,,,,,,,,,,,,,,,,,,,,,,,,,,,,,,,,,,,,,,,,,
,,,,,,,601c454a1e2f3c720321470b,605b45a4d25f287719a41696,6061e576ea7ffd750b09df7a,Mexico,Midwest,13 or older,no,2021-03-29_10h37.57.760,empathy_intonation_perc,2020.2.10,Win32,60,,,,,,,,,,1,puertorican,0,0,1.533395,0,56,56,26,1,27,./stim/wavs/andalusian_match_interrogative-total-yn_David-leia-el-libro.wav,./stim/wavs/argentine_match_interrogative-total-yn_David-leia-el-libro.wav,./stim/wavs/castilian_match_interrogative-total-yn_David-leia-el-libro.wav,./stim/wavs/chilean_match_interrogative-total-yn_David-leia-el-libro.wav,./stim/wavs/cuban_match_interrogative-total-yn_David-leia-el-libro.wav,./stim/wavs/mexican_match_interrogative-total-yn_David-leia-el-libro.wav,./stim/wavs/peruvian_match_interrogative-total-yn_David-leia-el-libro.wav,./stim/wavs/puertorican_match_interrogative-total-yn_David-leia-el-libro.wav,,,,,,,,,,,,,,,,,,,,,,,,,,,,,,,,,,,,,,,,,,,,,,,,,,,,,,,,
,,,,,,,601c454a1e2f3c720321470b,605b45a4d25f287719a41696,6061e576ea7ffd750b09df7a,Mexico,Midwest,13 or older,no,2021-03-29_10h37.57.760,empathy_intonation_perc,2020.2.10,Win32,60,,,,,,,,,,0,mexican,0,1,1.350615,0,57,57,9,1,10,./stim/wavs/andalusian_match_declarative-narrow-focus_Daniel-iba-a-Bolivia.wav,./stim/wavs/argentine_match_declarative-narrow-focus_Daniel-iba-a-Bolivia.wav,./stim/wavs/castilian_match_declarative-narrow-focus_Daniel-iba-a-Bolivia.wav,./stim/wavs/chilean_match_declarative-narrow-focus_Daniel-iba-a-Bolivia.wav,./stim/wavs/cuban_match_declarative-narrow-focus_Daniel-iba-a-Bolivia.wav,./stim/wavs/mexican_match_declarative-narrow-focus_Daniel-iba-a-Bolivia.wav,./stim/wavs/peruvian_match_declarative-narrow-focus_Daniel-iba-a-Bolivia.wav,./stim/wavs/puertorican_match_declarative-narrow-focus_Daniel-iba-a-Bolivia.wav,,,,,,,,,,,,,,,,,,,,,,,,,,,,,,,,,,,,,,,,,,,,,,,,,,,,,,,,
,,,,,,,601c454a1e2f3c720321470b,605b45a4d25f287719a41696,6061e576ea7ffd750b09df7a,Mexico,Midwest,13 or older,no,2021-03-29_10h37.57.760,empathy_intonation_perc,2020.2.10,Win32,60,,,,,,,,,,1,castilian,1,1,1.70001,0,58,58,29,1,30,./stim/wavs/andalusian_match_interrogative-total-yn_Maria-bebe-el-vino.wav,./stim/wavs/argentine_match_interrogative-total-yn_Maria-bebe-el-vino.wav,./stim/wavs/castilian_match_interrogative-total-yn_Maria-bebe-el-vino.wav,./stim/wavs/chilean_match_interrogative-total-yn_Maria-bebe-el-vino.wav,./stim/wavs/cuban_match_interrogative-total-yn_Maria-bebe-el-vino.wav,./stim/wavs/mexican_match_interrogative-total-yn_Maria-bebe-el-vino.wav,./stim/wavs/peruvian_match_interrogative-total-yn_Maria-bebe-el-vino.wav,./stim/wavs/puertorican_match_interrogative-total-yn_Maria-bebe-el-vino.wav,,,,,,,,,,,,,,,,,,,,,,,,,,,,,,,,,,,,,,,,,,,,,,,,,,,,,,,,
,,,,,,,601c454a1e2f3c720321470b,605b45a4d25f287719a41696,6061e576ea7ffd750b09df7a,Mexico,Midwest,13 or older,no,2021-03-29_10h37.57.760,empathy_intonation_perc,2020.2.10,Win32,60,,,,,,,,,,1,castilian,1,1,2.08333,0,59,59,54,1,55,./stim/wavs/andalusian_mismatch_interrogative-partial-wh_Por-que-venia-del-lago.wav,./stim/wavs/argentine_mismatch_interrogative-partial-wh_Por-que-venia-del-lago.wav,./stim/wavs/castilian_mismatch_interrogative-partial-wh_Por-que-venia-del-lago.wav,./stim/wavs/chilean_mismatch_interrogative-partial-wh_Por-que-venia-del-lago.wav,./stim/wavs/cuban_mismatch_interrogative-partial-wh_Por-que-venia-del-lago.wav,./stim/wavs/mexican_mismatch_interrogative-partial-wh_Por-que-venia-del-lago.wav,./stim/wavs/peruvian_mismatch_interrogative-partial-wh_Por-que-venia-del-lago.wav,./stim/wavs/puertorican_mismatch_interrogative-partial-wh_Por-que-venia-del-lago.wav,,,,,,,,,,,,,,,,,,,,,,,,,,,,,,,,,,,,,,,,,,,,,,,,,,,,,,,,
,,,,,,,601c454a1e2f3c720321470b,605b45a4d25f287719a41696,6061e576ea7ffd750b09df7a,Mexico,Midwest,13 or older,no,2021-03-29_10h37.57.760,empathy_intonation_perc,2020.2.10,Win32,60,,,,,,,,,,0,peruvian,0,1,2.768385,0,60,60,12,1,13,./stim/wavs/andalusian_match_declarative-narrow-focus_Manuela-vende-el-carro.wav,./stim/wavs/argentine_match_declarative-narrow-focus_Manuela-vende-el-carro.wav,./stim/wavs/castilian_match_declarative-narrow-focus_Manuela-vende-el-carro.wav,./stim/wavs/chilean_match_declarative-narrow-focus_Manuela-vende-el-carro.wav,./stim/wavs/cuban_match_declarative-narrow-focus_Manuela-vende-el-carro.wav,./stim/wavs/mexican_match_declarative-narrow-focus_Manuela-vende-el-carro.wav,./stim/wavs/peruvian_match_declarative-narrow-focus_Manuela-vende-el-carro.wav,./stim/wavs/puertorican_match_declarative-narrow-focus_Manuela-vende-el-carro.wav,,,,,,,,,,,,,,,,,,,,,,,,,,,,,,,,,,,,,,,,,,,,,,,,,,,,,,,,
,,,,,,,601c454a1e2f3c720321470b,605b45a4d25f287719a41696,6061e576ea7ffd750b09df7a,Mexico,Midwest,13 or older,no,2021-03-29_10h37.57.760,empathy_intonation_perc,2020.2.10,Win32,60,,,,,,,,,,1,cuban,0,0,1.83764,0,61,61,27,1,28,./stim/wavs/andalusian_match_interrogative-total-yn_Emilio-ama-la-marcha.wav,./stim/wavs/argentine_match_interrogative-total-yn_Emilio-ama-la-marcha.wav,./stim/wavs/castilian_match_interrogative-total-yn_Emilio-ama-la-marcha.wav,./stim/wavs/chilean_match_interrogative-total-yn_Emilio-ama-la-marcha.wav,./stim/wavs/cuban_match_interrogative-total-yn_Emilio-ama-la-marcha.wav,./stim/wavs/mexican_match_interrogative-total-yn_Emilio-ama-la-marcha.wav,./stim/wavs/peruvian_match_interrogative-total-yn_Emilio-ama-la-marcha.wav,./stim/wavs/puertorican_match_interrogative-total-yn_Emilio-ama-la-marcha.wav,,,,,,,,,,,,,,,,,,,,,,,,,,,,,,,,,,,,,,,,,,,,,,,,,,,,,,,,
,,,,,,,601c454a1e2f3c720321470b,605b45a4d25f287719a41696,6061e576ea7ffd750b09df7a,Mexico,Midwest,13 or older,no,2021-03-29_10h37.57.760,empathy_intonation_perc,2020.2.10,Win32,60,,,,,,,,,,1,mexican,1,1,2.39977,0,62,62,51,1,52,./stim/wavs/andalusian_mismatch_interrogative-partial-wh_Por-que-desayuna-muy-bien.wav,./stim/wavs/argentine_mismatch_interrogative-partial-wh_Por-que-desayuna-muy-bien.wav,./stim/wavs/castilian_mismatch_interrogative-partial-wh_Por-que-desayuna-muy-bien.wav,./stim/wavs/chilean_mismatch_interrogative-partial-wh_Por-que-desayuna-muy-bien.wav,./stim/wavs/cuban_mismatch_interrogative-partial-wh_Por-que-desayuna-muy-bien.wav,./stim/wavs/mexican_mismatch_interrogative-partial-wh_Por-que-desayuna-muy-bien.wav,./stim/wavs/peruvian_mismatch_interrogative-partial-wh_Por-que-desayuna-muy-bien.wav,./stim/wavs/puertorican_mismatch_interrogative-partial-wh_Por-que-desayuna-muy-bien.wav,,,,,,,,,,,,,,,,,,,,,,,,,,,,,,,,,,,,,,,,,,,,,,,,,,,,,,,,
,,,,,,,601c454a1e2f3c720321470b,605b45a4d25f287719a41696,6061e576ea7ffd750b09df7a,Mexico,Midwest,13 or older,no,2021-03-29_10h37.57.760,empathy_intonation_perc,2020.2.10,Win32,60,,,,,,,,,,1,cuban,1,1,2.33416,0,63,63,63,1,64,./stim/wavs/andalusian_mismatch_interrogative-total-yn_Mi-tia-odia-la-lluvia.wav,./stim/wavs/argentine_mismatch_interrogative-total-yn_Mi-tia-odia-la-lluvia.wav,./stim/wavs/castilian_mismatch_interrogative-total-yn_Mi-tia-odia-la-lluvia.wav,./stim/wavs/chilean_mismatch_interrogative-total-yn_Mi-tia-odia-la-lluvia.wav,./stim/wavs/cuban_mismatch_interrogative-total-yn_Mi-tia-odia-la-lluvia.wav,./stim/wavs/mexican_mismatch_interrogative-total-yn_Mi-tia-odia-la-lluvia.wav,./stim/wavs/peruvian_mismatch_interrogative-total-yn_Mi-tia-odia-la-lluvia.wav,./stim/wavs/puertorican_mismatch_interrogative-total-yn_Mi-tia-odia-la-lluvia.wav,,,,,,,,,,,,,,,,,,,,,,,,,,,,,,,,,,,,,,,,,,,,,,,,,,,,,,,,
,,,,,,,601c454a1e2f3c720321470b,605b45a4d25f287719a41696,6061e576ea7ffd750b09df7a,Mexico,Midwest,13 or older,no,2021-03-29_10h37.57.760,empathy_intonation_perc,2020.2.10,Win32,60,,,,,,,,,,,,,,,,,,,,,,,,,,,,,0,0,3.500325,0,0,0,0,1,,,,,,,,,,,,,,,,,,,,,,,,,,,,,,,,,,,,,,,,,,,,,,,,
,,,,,"Great! Now we will move on. The next task consists of about 60 trials, in each of which you will see a string of letters. 
  
  Your task is to decide whether this is a real Spanish word or not.",(press the spacebar to continue),601c454a1e2f3c720321470b,605b45a4d25f287719a41696,6061e576ea7ffd750b09df7a,Mexico,Midwest,13 or older,no,2021-03-29_10h37.57.760,empathy_intonation_perc,2020.2.10,Win32,60,,,,,,,,,,,,,,,,,,,,,,,,,,,,,,,,,,,,,0,0,0,0,1,,,,,,,,,,,,,,,,,,,,,,,,,,,,,,,,,,,,,,,,,,,
,,,,,"If you think it is an existing Spanish word, you type '1' (for 'REAL'), and if you think it is not an existing Spanish word, you type '0' (for 'FAKE').",(press the spacebar to continue),601c454a1e2f3c720321470b,605b45a4d25f287719a41696,6061e576ea7ffd750b09df7a,Mexico,Midwest,13 or older,no,2021-03-29_10h37.57.760,empathy_intonation_perc,2020.2.10,Win32,60,,,,,,,,,,,,,,,,,,,,,,,,,,,,,,,,,,,,,0,1,1,1,1,,,,,,,,,,,,,,,,,,,,,,,,,,,,,,,,,,,,,,,,,,,
,,,,,"If you are sure that the word exists, even though you dont know its exact meaning, you may still respond '1' (REAL). 
  
  But if you are not sure if it is an existing word, you should respond '0' (FAKE).
  
  Let's do a practice round...",(press the spacebar to continue),601c454a1e2f3c720321470b,605b45a4d25f287719a41696,6061e576ea7ffd750b09df7a,Mexico,Midwest,13 or older,no,2021-03-29_10h37.57.760,empathy_intonation_perc,2020.2.10,Win32,60,,,,,,,,,,,,,,,,,,,,,,,,,,,,,,,,,,,,,0,2,2,2,1,,,,,,,,,,,,,,,,,,,,,,,,,,,,,,,,,,,,,,,,,,,
,,,,,,,601c454a1e2f3c720321470b,605b45a4d25f287719a41696,6061e576ea7ffd750b09df7a,Mexico,Midwest,13 or older,no,2021-03-29_10h37.57.760,empathy_intonation_perc,2020.2.10,Win32,60,,,,,,,,,,0,,,,,,,,,,,,,,,,,,,,,,,,,,,,,,,,0,1,1.83633,0,0,0,0,1,0,depiste,REAL,FAKE,,,,,,,,,,,,,,,,,,,,,,,,,,,,,,,
,,,,,,,601c454a1e2f3c720321470b,605b45a4d25f287719a41696,6061e576ea7ffd750b09df7a,Mexico,Midwest,13 or older,no,2021-03-29_10h37.57.760,empathy_intonation_perc,2020.2.10,Win32,60,,,,,,,,,,1,,,,,,,,,,,,,,,,,,,,,,,,,,,,,,,,1,1,0.783805,0,1,1,1,1,0,s,REAL,FAKE,,,,,,,,,,,,,,,,,,,,,,,,,,,,,,,
,,,,,,,601c454a1e2f3c720321470b,605b45a4d25f287719a41696,6061e576ea7ffd750b09df7a,Mexico,Midwest,13 or older,no,2021-03-29_10h37.57.760,empathy_intonation_perc,2020.2.10,Win32,60,,,,,,,,,,0,,,,,,,,,,,,,,,,,,,,,,,,,,,,,,,,0,1,0.99988,0,2,2,2,1,0,con,REAL,FAKE,,,,,,,,,,,,,,,,,,,,,,,,,,,,,,,
,,,,,,,601c454a1e2f3c720321470b,605b45a4d25f287719a41696,6061e576ea7ffd750b09df7a,Mexico,Midwest,13 or older,no,2021-03-29_10h37.57.760,empathy_intonation_perc,2020.2.10,Win32,60,,,,,,,,,,0,,,,,,,,,,,,,,,,,,,,,,,,,,,,,,,,0,1,0.902945,0,3,3,3,1,0,calpar,REAL,FAKE,,,,,,,,,,,,,,,,,,,,,,,,,,,,,,,
,,,,,,,601c454a1e2f3c720321470b,605b45a4d25f287719a41696,6061e576ea7ffd750b09df7a,Mexico,Midwest,13 or older,no,2021-03-29_10h37.57.760,empathy_intonation_perc,2020.2.10,Win32,60,,,,,,,,,,0,,,,,,,,,,,,,,,,,,,,,,,,,,,,,,,,0,1,0.6836,0,4,4,4,1,0,joten,REAL,FAKE,,,,,,,,,,,,,,,,,,,,,,,,,,,,,,,
,,,,,,,601c454a1e2f3c720321470b,605b45a4d25f287719a41696,6061e576ea7ffd750b09df7a,Mexico,Midwest,13 or older,no,2021-03-29_10h37.57.760,empathy_intonation_perc,2020.2.10,Win32,60,,,,,,,,,,1,,,,,,,,,,,,,,,,,,,,,,,,,,,,,,,,1,1,1.22636,0,5,5,5,1,0,sacapuntas,REAL,FAKE,,,,,,,,,,,,,,,,,,,,,,,,,,,,,,,
,,,,,,,601c454a1e2f3c720321470b,605b45a4d25f287719a41696,6061e576ea7ffd750b09df7a,Mexico,Midwest,13 or older,no,2021-03-29_10h37.57.760,empathy_intonation_perc,2020.2.10,Win32,60,,,,,,,,,,0,,,,,,,,,,,,,,,,,,,,,,,,,,,,,,,,0,1,0.983575,0,6,6,6,1,0,priba,REAL,FAKE,,,,,,,,,,,,,,,,,,,,,,,,,,,,,,,
,,,,,,,601c454a1e2f3c720321470b,605b45a4d25f287719a41696,6061e576ea7ffd750b09df7a,Mexico,Midwest,13 or older,no,2021-03-29_10h37.57.760,empathy_intonation_perc,2020.2.10,Win32,60,,,,,,,,,,0,,,,,,,,,,,,,,,,,,,,,,,,,,,,,,,,0,1,1.183595,0,7,7,7,1,0,pelasula,REAL,FAKE,,,,,,,,,,,,,,,,,,,,,,,,,,,,,,,
,,,,,,,601c454a1e2f3c720321470b,605b45a4d25f287719a41696,6061e576ea7ffd750b09df7a,Mexico,Midwest,13 or older,no,2021-03-29_10h37.57.760,empathy_intonation_perc,2020.2.10,Win32,60,,,,,,,,,,1,,,,,,,,,,,,,,,,,,,,,,,,,,,,,,,,1,1,0.60094,0,8,8,8,1,0,bien,REAL,FAKE,,,,,,,,,,,,,,,,,,,,,,,,,,,,,,,
,,,,,,,601c454a1e2f3c720321470b,605b45a4d25f287719a41696,6061e576ea7ffd750b09df7a,Mexico,Midwest,13 or older,no,2021-03-29_10h37.57.760,empathy_intonation_perc,2020.2.10,Win32,60,,,,,,,,,,1,,,,,,,,,,,,,,,,,,,,,,,,,,,,,,,,1,1,0.583895,0,9,9,9,1,0,casa,REAL,FAKE,,,,,,,,,,,,,,,,,,,,,,,,,,,,,,,
,,,,,,,601c454a1e2f3c720321470b,605b45a4d25f287719a41696,6061e576ea7ffd750b09df7a,Mexico,Midwest,13 or older,no,2021-03-29_10h37.57.760,empathy_intonation_perc,2020.2.10,Win32,60,,,,,,,,,,0,,,,,,,,,,,,,,,,,,,,,,,,,,,,,,,,0,1,0.63386,0,10,10,10,1,0,lejo,REAL,FAKE,,,,,,,,,,,,,,,,,,,,,,,,,,,,,,,
,,,,,,,601c454a1e2f3c720321470b,605b45a4d25f287719a41696,6061e576ea7ffd750b09df7a,Mexico,Midwest,13 or older,no,2021-03-29_10h37.57.760,empathy_intonation_perc,2020.2.10,Win32,60,,,,,,,,,,0,,,,,,,,,,,,,,,,,,,,,,,,,,,,,,,,0,1,1.000235,0,11,11,11,1,0,pretantas,REAL,FAKE,,,,,,,,,,,,,,,,,,,,,,,,,,,,,,,
,,,,,,,601c454a1e2f3c720321470b,605b45a4d25f287719a41696,6061e576ea7ffd750b09df7a,Mexico,Midwest,13 or older,no,2021-03-29_10h37.57.760,empathy_intonation_perc,2020.2.10,Win32,60,,,,,,,,,,1,,,,,,,,,,,,,,,,,,,,,,,,,,,,,,,,,,,,,,,,9,hacha,,,0,0,1.183635,0,0,0,8,1,REAL,FAKE,,,,,,,,,,,,,,,,,,,,,
,,,,,,,601c454a1e2f3c720321470b,605b45a4d25f287719a41696,6061e576ea7ffd750b09df7a,Mexico,Midwest,13 or older,no,2021-03-29_10h37.57.760,empathy_intonation_perc,2020.2.10,Win32,60,,,,,,,,,,1,,,,,,,,,,,,,,,,,,,,,,,,,,,,,,,,,,,,,,,,85,lad,,,0,0,0.63403,0,1,1,84,1,REAL,FAKE,,,,,,,,,,,,,,,,,,,,,
,,,,,,,601c454a1e2f3c720321470b,605b45a4d25f287719a41696,6061e576ea7ffd750b09df7a,Mexico,Midwest,13 or older,no,2021-03-29_10h37.57.760,empathy_intonation_perc,2020.2.10,Win32,60,,,,,,,,,,0,,,,,,,,,,,,,,,,,,,,,,,,,,,,,,,,,,,,,,,,33,pauca,,,0,1,0.917065,0,2,2,32,1,REAL,FAKE,,,,,,,,,,,,,,,,,,,,,
,,,,,,,601c454a1e2f3c720321470b,605b45a4d25f287719a41696,6061e576ea7ffd750b09df7a,Mexico,Midwest,13 or older,no,2021-03-29_10h37.57.760,empathy_intonation_perc,2020.2.10,Win32,60,,,,,,,,,,1,,,,,,,,,,,,,,,,,,,,,,,,,,,,,,,,,,,,,,,,73,hervidor,,,0,0,0.66637,0,3,3,72,1,REAL,FAKE,,,,,,,,,,,,,,,,,,,,,
,,,,,,,601c454a1e2f3c720321470b,605b45a4d25f287719a41696,6061e576ea7ffd750b09df7a,Mexico,Midwest,13 or older,no,2021-03-29_10h37.57.760,empathy_intonation_perc,2020.2.10,Win32,60,,,,,,,,,,1,,,,,,,,,,,,,,,,,,,,,,,,,,,,,,,,,,,,,,,,49,ganar,,,0,0,0.70064,0,4,4,48,1,REAL,FAKE,,,,,,,,,,,,,,,,,,,,,
,,,,,,,601c454a1e2f3c720321470b,605b45a4d25f287719a41696,6061e576ea7ffd750b09df7a,Mexico,Midwest,13 or older,no,2021-03-29_10h37.57.760,empathy_intonation_perc,2020.2.10,Win32,60,,,,,,,,,,1,,,,,,,,,,,,,,,,,,,,,,,,,,,,,,,,,,,,,,,,40,alfombra,,,1,1,1.200335,0,5,5,39,1,REAL,FAKE,,,,,,,,,,,,,,,,,,,,,
,,,,,,,601c454a1e2f3c720321470b,605b45a4d25f287719a41696,6061e576ea7ffd750b09df7a,Mexico,Midwest,13 or older,no,2021-03-29_10h37.57.760,empathy_intonation_perc,2020.2.10,Win32,60,,,,,,,,,,1,,,,,,,,,,,,,,,,,,,,,,,,,,,,,,,,,,,,,,,,78,frondoso,,,0,0,0.733645,0,6,6,77,1,REAL,FAKE,,,,,,,,,,,,,,,,,,,,,
,,,,,,,601c454a1e2f3c720321470b,605b45a4d25f287719a41696,6061e576ea7ffd750b09df7a,Mexico,Midwest,13 or older,no,2021-03-29_10h37.57.760,empathy_intonation_perc,2020.2.10,Win32,60,,,,,,,,,,1,,,,,,,,,,,,,,,,,,,,,,,,,,,,,,,,,,,,,,,,71,polvoriento,,,0,0,0.90034,0,7,7,70,1,REAL,FAKE,,,,,,,,,,,,,,,,,,,,,
,,,,,,,601c454a1e2f3c720321470b,605b45a4d25f287719a41696,6061e576ea7ffd750b09df7a,Mexico,Midwest,13 or older,no,2021-03-29_10h37.57.760,empathy_intonation_perc,2020.2.10,Win32,60,,,,,,,,,,1,,,,,,,,,,,,,,,,,,,,,,,,,,,,,,,,,,,,,,,,64,orgulloso,,,0,0,0.750335,0,8,8,63,1,REAL,FAKE,,,,,,,,,,,,,,,,,,,,,
,,,,,,,601c454a1e2f3c720321470b,605b45a4d25f287719a41696,6061e576ea7ffd750b09df7a,Mexico,Midwest,13 or older,no,2021-03-29_10h37.57.760,empathy_intonation_perc,2020.2.10,Win32,60,,,,,,,,,,1,,,,,,,,,,,,,,,,,,,,,,,,,,,,,,,,,,,,,,,,86,barato,,,1,1,0.683695,0,9,9,85,1,REAL,FAKE,,,,,,,,,,,,,,,,,,,,,
,,,,,,,601c454a1e2f3c720321470b,605b45a4d25f287719a41696,6061e576ea7ffd750b09df7a,Mexico,Midwest,13 or older,no,2021-03-29_10h37.57.760,empathy_intonation_perc,2020.2.10,Win32,60,,,,,,,,,,0,,,,,,,,,,,,,,,,,,,,,,,,,,,,,,,,,,,,,,,,72,pemicin,,,0,1,0.900565,0,10,10,71,1,REAL,FAKE,,,,,,,,,,,,,,,,,,,,,
,,,,,,,601c454a1e2f3c720321470b,605b45a4d25f287719a41696,6061e576ea7ffd750b09df7a,Mexico,Midwest,13 or older,no,2021-03-29_10h37.57.760,empathy_intonation_perc,2020.2.10,Win32,60,,,,,,,,,,0,,,,,,,,,,,,,,,,,,,,,,,,,,,,,,,,,,,,,,,,35,rompido,,,0,1,1.150205,0,11,11,34,1,REAL,FAKE,,,,,,,,,,,,,,,,,,,,,
,,,,,,,601c454a1e2f3c720321470b,605b45a4d25f287719a41696,6061e576ea7ffd750b09df7a,Mexico,Midwest,13 or older,no,2021-03-29_10h37.57.760,empathy_intonation_perc,2020.2.10,Win32,60,,,,,,,,,,1,,,,,,,,,,,,,,,,,,,,,,,,,,,,,,,,,,,,,,,,75,yacer,,,0,0,0.58385,0,12,12,74,1,REAL,FAKE,,,,,,,,,,,,,,,,,,,,,
,,,,,,,601c454a1e2f3c720321470b,605b45a4d25f287719a41696,6061e576ea7ffd750b09df7a,Mexico,Midwest,13 or older,no,2021-03-29_10h37.57.760,empathy_intonation_perc,2020.2.10,Win32,60,,,,,,,,,,0,,,,,,,,,,,,,,,,,,,,,,,,,,,,,,,,,,,,,,,,21,capillo,,,0,1,0.90027,0,13,13,20,1,REAL,FAKE,,,,,,,,,,,,,,,,,,,,,
,,,,,,,601c454a1e2f3c720321470b,605b45a4d25f287719a41696,6061e576ea7ffd750b09df7a,Mexico,Midwest,13 or older,no,2021-03-29_10h37.57.760,empathy_intonation_perc,2020.2.10,Win32,60,,,,,,,,,,1,,,,,,,,,,,,,,,,,,,,,,,,,,,,,,,,,,,,,,,,15,regar,,,1,1,0.71715,0,14,14,14,1,REAL,FAKE,,,,,,,,,,,,,,,,,,,,,
,,,,,,,601c454a1e2f3c720321470b,605b45a4d25f287719a41696,6061e576ea7ffd750b09df7a,Mexico,Midwest,13 or older,no,2021-03-29_10h37.57.760,empathy_intonation_perc,2020.2.10,Win32,60,,,,,,,,,,0,,,,,,,,,,,,,,,,,,,,,,,,,,,,,,,,,,,,,,,,50,flamida,,,1,0,0.9338,0,15,15,49,1,REAL,FAKE,,,,,,,,,,,,,,,,,,,,,
,,,,,,,601c454a1e2f3c720321470b,605b45a4d25f287719a41696,6061e576ea7ffd750b09df7a,Mexico,Midwest,13 or older,no,2021-03-29_10h37.57.760,empathy_intonation_perc,2020.2.10,Win32,60,,,,,,,,,,1,,,,,,,,,,,,,,,,,,,,,,,,,,,,,,,,,,,,,,,,3,pulmones,,,1,1,0.88382,0,16,16,2,1,REAL,FAKE,,,,,,,,,,,,,,,,,,,,,
,,,,,,,601c454a1e2f3c720321470b,605b45a4d25f287719a41696,6061e576ea7ffd750b09df7a,Mexico,Midwest,13 or older,no,2021-03-29_10h37.57.760,empathy_intonation_perc,2020.2.10,Win32,60,,,,,,,,,,1,,,,,,,,,,,,,,,,,,,,,,,,,,,,,,,,,,,,,,,,31,pandilla,,,1,1,0.76723,0,17,17,30,1,REAL,FAKE,,,,,,,,,,,,,,,,,,,,,
,,,,,,,601c454a1e2f3c720321470b,605b45a4d25f287719a41696,6061e576ea7ffd750b09df7a,Mexico,Midwest,13 or older,no,2021-03-29_10h37.57.760,empathy_intonation_perc,2020.2.10,Win32,60,,,,,,,,,,1,,,,,,,,,,,,,,,,,,,,,,,,,,,,,,,,,,,,,,,,24,ltigo,,,0,0,0.817125,0,18,18,23,1,REAL,FAKE,,,,,,,,,,,,,,,,,,,,,
,,,,,,,601c454a1e2f3c720321470b,605b45a4d25f287719a41696,6061e576ea7ffd750b09df7a,Mexico,Midwest,13 or older,no,2021-03-29_10h37.57.760,empathy_intonation_perc,2020.2.10,Win32,60,,,,,,,,,,1,,,,,,,,,,,,,,,,,,,,,,,,,,,,,,,,,,,,,,,,88,acantilado,,,0,0,0.526985,0,19,19,87,1,REAL,FAKE,,,,,,,,,,,,,,,,,,,,,
,,,,,,,601c454a1e2f3c720321470b,605b45a4d25f287719a41696,6061e576ea7ffd750b09df7a,Mexico,Midwest,13 or older,no,2021-03-29_10h37.57.760,empathy_intonation_perc,2020.2.10,Win32,60,,,,,,,,,,1,,,,,,,,,,,,,,,,,,,,,,,,,,,,,,,,,,,,,,,,43,canela,,,0,0,0.633965,0,20,20,42,1,REAL,FAKE,,,,,,,,,,,,,,,,,,,,,
,,,,,,,601c454a1e2f3c720321470b,605b45a4d25f287719a41696,6061e576ea7ffd750b09df7a,Mexico,Midwest,13 or older,no,2021-03-29_10h37.57.760,empathy_intonation_perc,2020.2.10,Win32,60,,,,,,,,,,0,,,,,,,,,,,,,,,,,,,,,,,,,,,,,,,,,,,,,,,,23,lampera,,,0,1,0.6336,0,21,21,22,1,REAL,FAKE,,,,,,,,,,,,,,,,,,,,,
,,,,,,,601c454a1e2f3c720321470b,605b45a4d25f287719a41696,6061e576ea7ffd750b09df7a,Mexico,Midwest,13 or older,no,2021-03-29_10h37.57.760,empathy_intonation_perc,2020.2.10,Win32,60,,,,,,,,,,0,,,,,,,,,,,,,,,,,,,,,,,,,,,,,,,,,,,,,,,,58,plaudir,,,0,1,0.634665,0,22,22,57,1,REAL,FAKE,,,,,,,,,,,,,,,,,,,,,
,,,,,,,601c454a1e2f3c720321470b,605b45a4d25f287719a41696,6061e576ea7ffd750b09df7a,Mexico,Midwest,13 or older,no,2021-03-29_10h37.57.760,empathy_intonation_perc,2020.2.10,Win32,60,,,,,,,,,,0,,,,,,,,,,,,,,,,,,,,,,,,,,,,,,,,,,,,,,,,30,alardio,,,0,1,0.634225,0,23,23,29,1,REAL,FAKE,,,,,,,,,,,,,,,,,,,,,
,,,,,,,601c454a1e2f3c720321470b,605b45a4d25f287719a41696,6061e576ea7ffd750b09df7a,Mexico,Midwest,13 or older,no,2021-03-29_10h37.57.760,empathy_intonation_perc,2020.2.10,Win32,60,,,,,,,,,,1,,,,,,,,,,,,,,,,,,,,,,,,,,,,,,,,,,,,,,,,54,fomentar,,,0,0,0.58354,0,24,24,53,1,REAL,FAKE,,,,,,,,,,,,,,,,,,,,,
,,,,,,,601c454a1e2f3c720321470b,605b45a4d25f287719a41696,6061e576ea7ffd750b09df7a,Mexico,Midwest,13 or older,no,2021-03-29_10h37.57.760,empathy_intonation_perc,2020.2.10,Win32,60,,,,,,,,,,1,,,,,,,,,,,,,,,,,,,,,,,,,,,,,,,,,,,,,,,,65,bizcocho,,,0,0,0.64168,0,25,25,64,1,REAL,FAKE,,,,,,,,,,,,,,,,,,,,,
,,,,,,,601c454a1e2f3c720321470b,605b45a4d25f287719a41696,6061e576ea7ffd750b09df7a,Mexico,Midwest,13 or older,no,2021-03-29_10h37.57.760,empathy_intonation_perc,2020.2.10,Win32,60,,,,,,,,,,0,,,,,,,,,,,,,,,,,,,,,,,,,,,,,,,,,,,,,,,,87,grodo,,,1,0,0.66733,0,26,26,86,1,REAL,FAKE,,,,,,,,,,,,,,,,,,,,,
,,,,,,,601c454a1e2f3c720321470b,605b45a4d25f287719a41696,6061e576ea7ffd750b09df7a,Mexico,Midwest,13 or older,no,2021-03-29_10h37.57.760,empathy_intonation_perc,2020.2.10,Win32,60,,,,,,,,,,1,,,,,,,,,,,,,,,,,,,,,,,,,,,,,,,,,,,,,,,,22,lacayo,,,0,0,0.71695,0,27,27,21,1,REAL,FAKE,,,,,,,,,,,,,,,,,,,,,
,,,,,,,601c454a1e2f3c720321470b,605b45a4d25f287719a41696,6061e576ea7ffd750b09df7a,Mexico,Midwest,13 or older,no,2021-03-29_10h37.57.760,empathy_intonation_perc,2020.2.10,Win32,60,,,,,,,,,,1,,,,,,,,,,,,,,,,,,,,,,,,,,,,,,,,,,,,,,,,25,bisagra,,,0,0,0.521755,0,28,28,24,1,REAL,FAKE,,,,,,,,,,,,,,,,,,,,,
,,,,,,,601c454a1e2f3c720321470b,605b45a4d25f287719a41696,6061e576ea7ffd750b09df7a,Mexico,Midwest,13 or older,no,2021-03-29_10h37.57.760,empathy_intonation_perc,2020.2.10,Win32,60,,,,,,,,,,0,,,,,,,,,,,,,,,,,,,,,,,,,,,,,,,,,,,,,,,,1,terzo,,,0,1,0.6527,0,29,29,0,1,REAL,FAKE,,,,,,,,,,,,,,,,,,,,,
,,,,,,,601c454a1e2f3c720321470b,605b45a4d25f287719a41696,6061e576ea7ffd750b09df7a,Mexico,Midwest,13 or older,no,2021-03-29_10h37.57.760,empathy_intonation_perc,2020.2.10,Win32,60,,,,,,,,,,1,,,,,,,,,,,,,,,,,,,,,,,,,,,,,,,,,,,,,,,,12,asesinato,,,0,0,0.60005,0,30,30,11,1,REAL,FAKE,,,,,,,,,,,,,,,,,,,,,
,,,,,,,601c454a1e2f3c720321470b,605b45a4d25f287719a41696,6061e576ea7ffd750b09df7a,Mexico,Midwest,13 or older,no,2021-03-29_10h37.57.760,empathy_intonation_perc,2020.2.10,Win32,60,,,,,,,,,,1,,,,,,,,,,,,,,,,,,,,,,,,,,,,,,,,,,,,,,,,6,tergiversar,,,0,0,0.619105,0,31,31,5,1,REAL,FAKE,,,,,,,,,,,,,,,,,,,,,
,,,,,,,601c454a1e2f3c720321470b,605b45a4d25f287719a41696,6061e576ea7ffd750b09df7a,Mexico,Midwest,13 or older,no,2021-03-29_10h37.57.760,empathy_intonation_perc,2020.2.10,Win32,60,,,,,,,,,,0,,,,,,,,,,,,,,,,,,,,,,,,,,,,,,,,,,,,,,,,19,brecedad,,,0,1,0.6507,0,32,32,18,1,REAL,FAKE,,,,,,,,,,,,,,,,,,,,,
,,,,,,,601c454a1e2f3c720321470b,605b45a4d25f287719a41696,6061e576ea7ffd750b09df7a,Mexico,Midwest,13 or older,no,2021-03-29_10h37.57.760,empathy_intonation_perc,2020.2.10,Win32,60,,,,,,,,,,1,,,,,,,,,,,,,,,,,,,,,,,,,,,,,,,,,,,,,,,,41,rebuscar,,,0,0,0.68349,0,33,33,40,1,REAL,FAKE,,,,,,,,,,,,,,,,,,,,,
,,,,,,,601c454a1e2f3c720321470b,605b45a4d25f287719a41696,6061e576ea7ffd750b09df7a,Mexico,Midwest,13 or older,no,2021-03-29_10h37.57.760,empathy_intonation_perc,2020.2.10,Win32,60,,,,,,,,,,0,,,,,,,,,,,,,,,,,,,,,,,,,,,,,,,,,,,,,,,,4,batilln,,,0,1,0.767225,0,34,34,3,1,REAL,FAKE,,,,,,,,,,,,,,,,,,,,,
,,,,,,,601c454a1e2f3c720321470b,605b45a4d25f287719a41696,6061e576ea7ffd750b09df7a,Mexico,Midwest,13 or older,no,2021-03-29_10h37.57.760,empathy_intonation_perc,2020.2.10,Win32,60,,,,,,,,,,0,,,,,,,,,,,,,,,,,,,,,,,,,,,,,,,,,,,,,,,,84,escuto,,,0,1,0.717065,0,35,35,83,1,REAL,FAKE,,,,,,,,,,,,,,,,,,,,,
,,,,,,,601c454a1e2f3c720321470b,605b45a4d25f287719a41696,6061e576ea7ffd750b09df7a,Mexico,Midwest,13 or older,no,2021-03-29_10h37.57.760,empathy_intonation_perc,2020.2.10,Win32,60,,,,,,,,,,1,,,,,,,,,,,,,,,,,,,,,,,,,,,,,,,,,,,,,,,,51,candado,,,0,0,0.567305,0,36,36,50,1,REAL,FAKE,,,,,,,,,,,,,,,,,,,,,
,,,,,,,601c454a1e2f3c720321470b,605b45a4d25f287719a41696,6061e576ea7ffd750b09df7a,Mexico,Midwest,13 or older,no,2021-03-29_10h37.57.760,empathy_intonation_perc,2020.2.10,Win32,60,,,,,,,,,,0,,,,,,,,,,,,,,,,,,,,,,,,,,,,,,,,,,,,,,,,27,acutacin,,,0,1,0.650495,0,37,37,26,1,REAL,FAKE,,,,,,,,,,,,,,,,,,,,,
,,,,,,,601c454a1e2f3c720321470b,605b45a4d25f287719a41696,6061e576ea7ffd750b09df7a,Mexico,Midwest,13 or older,no,2021-03-29_10h37.57.760,empathy_intonation_perc,2020.2.10,Win32,60,,,,,,,,,,0,,,,,,,,,,,,,,,,,,,,,,,,,,,,,,,,,,,,,,,,29,decar,,,0,1,0.48356,0,38,38,28,1,REAL,FAKE,,,,,,,,,,,,,,,,,,,,,
,,,,,,,601c454a1e2f3c720321470b,605b45a4d25f287719a41696,6061e576ea7ffd750b09df7a,Mexico,Midwest,13 or older,no,2021-03-29_10h37.57.760,empathy_intonation_perc,2020.2.10,Win32,60,,,,,,,,,,0,,,,,,,,,,,,,,,,,,,,,,,,,,,,,,,,,,,,,,,,79,tropaje,,,0,1,0.51658,0,39,39,78,1,REAL,FAKE,,,,,,,,,,,,,,,,,,,,,
,,,,,,,601c454a1e2f3c720321470b,605b45a4d25f287719a41696,6061e576ea7ffd750b09df7a,Mexico,Midwest,13 or older,no,2021-03-29_10h37.57.760,empathy_intonation_perc,2020.2.10,Win32,60,,,,,,,,,,1,,,,,,,,,,,,,,,,,,,,,,,,,,,,,,,,,,,,,,,,90,clavel,,,0,0,0.516675,0,40,40,89,1,REAL,FAKE,,,,,,,,,,,,,,,,,,,,,
,,,,,,,601c454a1e2f3c720321470b,605b45a4d25f287719a41696,6061e576ea7ffd750b09df7a,Mexico,Midwest,13 or older,no,2021-03-29_10h37.57.760,empathy_intonation_perc,2020.2.10,Win32,60,,,,,,,,,,1,,,,,,,,,,,,,,,,,,,,,,,,,,,,,,,,,,,,,,,,52,camisa,,,0,0,0.583625,0,41,41,51,1,REAL,FAKE,,,,,,,,,,,,,,,,,,,,,
,,,,,,,601c454a1e2f3c720321470b,605b45a4d25f287719a41696,6061e576ea7ffd750b09df7a,Mexico,Midwest,13 or older,no,2021-03-29_10h37.57.760,empathy_intonation_perc,2020.2.10,Win32,60,,,,,,,,,,1,,,,,,,,,,,,,,,,,,,,,,,,,,,,,,,,,,,,,,,,7,psimo,,,0,0,0.41673,0,42,42,6,1,REAL,FAKE,,,,,,,,,,,,,,,,,,,,,
,,,,,,,601c454a1e2f3c720321470b,605b45a4d25f287719a41696,6061e576ea7ffd750b09df7a,Mexico,Midwest,13 or older,no,2021-03-29_10h37.57.760,empathy_intonation_perc,2020.2.10,Win32,60,,,,,,,,,,1,,,,,,,,,,,,,,,,,,,,,,,,,,,,,,,,,,,,,,,,39,torpe,,,0,0,0.585925,0,43,43,38,1,REAL,FAKE,,,,,,,,,,,,,,,,,,,,,
,,,,,,,601c454a1e2f3c720321470b,605b45a4d25f287719a41696,6061e576ea7ffd750b09df7a,Mexico,Midwest,13 or older,no,2021-03-29_10h37.57.760,empathy_intonation_perc,2020.2.10,Win32,60,,,,,,,,,,1,,,,,,,,,,,,,,,,,,,,,,,,,,,,,,,,,,,,,,,,81,pozo,,,0,0,0.81712,0,44,44,80,1,REAL,FAKE,,,,,,,,,,,,,,,,,,,,,
,,,,,,,601c454a1e2f3c720321470b,605b45a4d25f287719a41696,6061e576ea7ffd750b09df7a,Mexico,Midwest,13 or older,no,2021-03-29_10h37.57.760,empathy_intonation_perc,2020.2.10,Win32,60,,,,,,,,,,0,,,,,,,,,,,,,,,,,,,,,,,,,,,,,,,,,,,,,,,,18,arsa,,,0,1,0.55117,0,45,45,17,1,REAL,FAKE,,,,,,,,,,,,,,,,,,,,,
,,,,,,,601c454a1e2f3c720321470b,605b45a4d25f287719a41696,6061e576ea7ffd750b09df7a,Mexico,Midwest,13 or older,no,2021-03-29_10h37.57.760,empathy_intonation_perc,2020.2.10,Win32,60,,,,,,,,,,1,,,,,,,,,,,,,,,,,,,,,,,,,,,,,,,,,,,,,,,,62,flaco,,,1,1,0.63354,0,46,46,61,1,REAL,FAKE,,,,,,,,,,,,,,,,,,,,,
,,,,,,,601c454a1e2f3c720321470b,605b45a4d25f287719a41696,6061e576ea7ffd750b09df7a,Mexico,Midwest,13 or older,no,2021-03-29_10h37.57.760,empathy_intonation_perc,2020.2.10,Win32,60,,,,,,,,,,0,,,,,,,,,,,,,,,,,,,,,,,,,,,,,,,,,,,,,,,,74,cintro,,,0,1,0.750535,0,47,47,73,1,REAL,FAKE,,,,,,,,,,,,,,,,,,,,,
,,,,,,,601c454a1e2f3c720321470b,605b45a4d25f287719a41696,6061e576ea7ffd750b09df7a,Mexico,Midwest,13 or older,no,2021-03-29_10h37.57.760,empathy_intonation_perc,2020.2.10,Win32,60,,,,,,,,,,1,,,,,,,,,,,,,,,,,,,,,,,,,,,,,,,,,,,,,,,,89,prisa,,,0,0,0.86722,0,48,48,88,1,REAL,FAKE,,,,,,,,,,,,,,,,,,,,,
,,,,,,,601c454a1e2f3c720321470b,605b45a4d25f287719a41696,6061e576ea7ffd750b09df7a,Mexico,Midwest,13 or older,no,2021-03-29_10h37.57.760,empathy_intonation_perc,2020.2.10,Win32,60,,,,,,,,,,1,,,,,,,,,,,,,,,,,,,,,,,,,,,,,,,,,,,,,,,,14,yunque,,,0,0,0.48685,0,49,49,13,1,REAL,FAKE,,,,,,,,,,,,,,,,,,,,,
,,,,,,,601c454a1e2f3c720321470b,605b45a4d25f287719a41696,6061e576ea7ffd750b09df7a,Mexico,Midwest,13 or older,no,2021-03-29_10h37.57.760,empathy_intonation_perc,2020.2.10,Win32,60,,,,,,,,,,1,,,,,,,,,,,,,,,,,,,,,,,,,,,,,,,,,,,,,,,,2,pellizcar,,,0,0,0.590975,0,50,50,1,1,REAL,FAKE,,,,,,,,,,,,,,,,,,,,,
,,,,,,,601c454a1e2f3c720321470b,605b45a4d25f287719a41696,6061e576ea7ffd750b09df7a,Mexico,Midwest,13 or older,no,2021-03-29_10h37.57.760,empathy_intonation_perc,2020.2.10,Win32,60,,,,,,,,,,1,,,,,,,,,,,,,,,,,,,,,,,,,,,,,,,,,,,,,,,,56,musgo,,,0,0,0.617255,0,51,51,55,1,REAL,FAKE,,,,,,,,,,,,,,,,,,,,,
,,,,,,,601c454a1e2f3c720321470b,605b45a4d25f287719a41696,6061e576ea7ffd750b09df7a,Mexico,Midwest,13 or older,no,2021-03-29_10h37.57.760,empathy_intonation_perc,2020.2.10,Win32,60,,,,,,,,,,1,,,,,,,,,,,,,,,,,,,,,,,,,,,,,,,,,,,,,,,,57,tacao,,,0,0,0.59175,0,52,52,56,1,REAL,FAKE,,,,,,,,,,,,,,,,,,,,,
,,,,,,,601c454a1e2f3c720321470b,605b45a4d25f287719a41696,6061e576ea7ffd750b09df7a,Mexico,Midwest,13 or older,no,2021-03-29_10h37.57.760,empathy_intonation_perc,2020.2.10,Win32,60,,,,,,,,,,0,,,,,,,,,,,,,,,,,,,,,,,,,,,,,,,,,,,,,,,,82,empirador,,,0,1,0.75057,0,53,53,81,1,REAL,FAKE,,,,,,,,,,,,,,,,,,,,,
,,,,,,,601c454a1e2f3c720321470b,605b45a4d25f287719a41696,6061e576ea7ffd750b09df7a,Mexico,Midwest,13 or older,no,2021-03-29_10h37.57.760,empathy_intonation_perc,2020.2.10,Win32,60,,,,,,,,,,0,,,,,,,,,,,,,,,,,,,,,,,,,,,,,,,,,,,,,,,,10,antar,,,0,1,0.633945,0,54,54,9,1,REAL,FAKE,,,,,,,,,,,,,,,,,,,,,
,,,,,,,601c454a1e2f3c720321470b,605b45a4d25f287719a41696,6061e576ea7ffd750b09df7a,Mexico,Midwest,13 or older,no,2021-03-29_10h37.57.760,empathy_intonation_perc,2020.2.10,Win32,60,,,,,,,,,,1,,,,,,,,,,,,,,,,,,,,,,,,,,,,,,,,,,,,,,,,83,guante,,,0,0,0.516665,0,55,55,82,1,REAL,FAKE,,,,,,,,,,,,,,,,,,,,,
,,,,,,,601c454a1e2f3c720321470b,605b45a4d25f287719a41696,6061e576ea7ffd750b09df7a,Mexico,Midwest,13 or older,no,2021-03-29_10h37.57.760,empathy_intonation_perc,2020.2.10,Win32,60,,,,,,,,,,1,,,,,,,,,,,,,,,,,,,,,,,,,,,,,,,,,,,,,,,,37,granuja,,,0,0,0.750435,0,56,56,36,1,REAL,FAKE,,,,,,,,,,,,,,,,,,,,,
,,,,,,,601c454a1e2f3c720321470b,605b45a4d25f287719a41696,6061e576ea7ffd750b09df7a,Mexico,Midwest,13 or older,no,2021-03-29_10h37.57.760,empathy_intonation_perc,2020.2.10,Win32,60,,,,,,,,,,0,,,,,,,,,,,,,,,,,,,,,,,,,,,,,,,,,,,,,,,,8,cadea,,,0,1,0.600295,0,57,57,7,1,REAL,FAKE,,,,,,,,,,,,,,,,,,,,,
,,,,,,,601c454a1e2f3c720321470b,605b45a4d25f287719a41696,6061e576ea7ffd750b09df7a,Mexico,Midwest,13 or older,no,2021-03-29_10h37.57.760,empathy_intonation_perc,2020.2.10,Win32,60,,,,,,,,,,1,,,,,,,,,,,,,,,,,,,,,,,,,,,,,,,,,,,,,,,,36,loro,,,0,0,0.483135,0,58,58,35,1,REAL,FAKE,,,,,,,,,,,,,,,,,,,,,
,,,,,,,601c454a1e2f3c720321470b,605b45a4d25f287719a41696,6061e576ea7ffd750b09df7a,Mexico,Midwest,13 or older,no,2021-03-29_10h37.57.760,empathy_intonation_perc,2020.2.10,Win32,60,,,,,,,,,,0,,,,,,,,,,,,,,,,,,,,,,,,,,,,,,,,,,,,,,,,16,abracer,,,0,1,0.65056,0,59,59,15,1,REAL,FAKE,,,,,,,,,,,,,,,,,,,,,
,,,,,,,601c454a1e2f3c720321470b,605b45a4d25f287719a41696,6061e576ea7ffd750b09df7a,Mexico,Midwest,13 or older,no,2021-03-29_10h37.57.760,empathy_intonation_perc,2020.2.10,Win32,60,,,,,,,,,,0,,,,,,,,,,,,,,,,,,,,,,,,,,,,,,,,,,,,,,,,66,hacido,,,0,1,1.141235,0,60,60,65,1,REAL,FAKE,,,,,,,,,,,,,,,,,,,,,
,,,,,,,601c454a1e2f3c720321470b,605b45a4d25f287719a41696,6061e576ea7ffd750b09df7a,Mexico,Midwest,13 or older,no,2021-03-29_10h37.57.760,empathy_intonation_perc,2020.2.10,Win32,60,,,,,,,,,,0,,,,,,,,,,,,,,,,,,,,,,,,,,,,,,,,,,,,,,,,63,esposante,,,0,1,0.53348,0,61,61,62,1,REAL,FAKE,,,,,,,,,,,,,,,,,,,,,
,,,,,,,601c454a1e2f3c720321470b,605b45a4d25f287719a41696,6061e576ea7ffd750b09df7a,Mexico,Midwest,13 or older,no,2021-03-29_10h37.57.760,empathy_intonation_perc,2020.2.10,Win32,60,,,,,,,,,,1,,,,,,,,,,,,,,,,,,,,,,,,,,,,,,,,,,,,,,,,55,nevar,,,0,0,0.466715,0,62,62,54,1,REAL,FAKE,,,,,,,,,,,,,,,,,,,,,
,,,,,,,601c454a1e2f3c720321470b,605b45a4d25f287719a41696,6061e576ea7ffd750b09df7a,Mexico,Midwest,13 or older,no,2021-03-29_10h37.57.760,empathy_intonation_perc,2020.2.10,Win32,60,,,,,,,,,,1,,,,,,,,,,,,,,,,,,,,,,,,,,,,,,,,,,,,,,,,67,cabello,,,0,0,0.427225,0,63,63,66,1,REAL,FAKE,,,,,,,,,,,,,,,,,,,,,
,,,,,,,601c454a1e2f3c720321470b,605b45a4d25f287719a41696,6061e576ea7ffd750b09df7a,Mexico,Midwest,13 or older,no,2021-03-29_10h37.57.760,empathy_intonation_perc,2020.2.10,Win32,60,,,,,,,,,,1,,,,,,,,,,,,,,,,,,,,,,,,,,,,,,,,,,,,,,,,45,jilguero,,,0,0,0.583905,0,64,64,44,1,REAL,FAKE,,,,,,,,,,,,,,,,,,,,,
,,,,,,,601c454a1e2f3c720321470b,605b45a4d25f287719a41696,6061e576ea7ffd750b09df7a,Mexico,Midwest,13 or older,no,2021-03-29_10h37.57.760,empathy_intonation_perc,2020.2.10,Win32,60,,,,,,,,,,1,,,,,,,,,,,,,,,,,,,,,,,,,,,,,,,,,,,,,,,,48,ladrn,,,0,0,0.53377,0,65,65,47,1,REAL,FAKE,,,,,,,,,,,,,,,,,,,,,
,,,,,,,601c454a1e2f3c720321470b,605b45a4d25f287719a41696,6061e576ea7ffd750b09df7a,Mexico,Midwest,13 or older,no,2021-03-29_10h37.57.760,empathy_intonation_perc,2020.2.10,Win32,60,,,,,,,,,,1,,,,,,,,,,,,,,,,,,,,,,,,,,,,,,,,,,,,,,,,13,helar,,,0,0,0.550385,0,66,66,12,1,REAL,FAKE,,,,,,,,,,,,,,,,,,,,,
,,,,,,,601c454a1e2f3c720321470b,605b45a4d25f287719a41696,6061e576ea7ffd750b09df7a,Mexico,Midwest,13 or older,no,2021-03-29_10h37.57.760,empathy_intonation_perc,2020.2.10,Win32,60,,,,,,,,,,0,,,,,,,,,,,,,,,,,,,,,,,,,,,,,,,,,,,,,,,,32,fatacidad,,,0,1,0.70015,0,67,67,31,1,REAL,FAKE,,,,,,,,,,,,,,,,,,,,,
,,,,,,,601c454a1e2f3c720321470b,605b45a4d25f287719a41696,6061e576ea7ffd750b09df7a,Mexico,Midwest,13 or older,no,2021-03-29_10h37.57.760,empathy_intonation_perc,2020.2.10,Win32,60,,,,,,,,,,0,,,,,,,,,,,,,,,,,,,,,,,,,,,,,,,,,,,,,,,,53,vegada,,,0,1,0.600705,0,68,68,52,1,REAL,FAKE,,,,,,,,,,,,,,,,,,,,,
,,,,,,,601c454a1e2f3c720321470b,605b45a4d25f287719a41696,6061e576ea7ffd750b09df7a,Mexico,Midwest,13 or older,no,2021-03-29_10h37.57.760,empathy_intonation_perc,2020.2.10,Win32,60,,,,,,,,,,1,,,,,,,,,,,,,,,,,,,,,,,,,,,,,,,,,,,,,,,,34,aviso,,,0,0,0.61746,0,69,69,33,1,REAL,FAKE,,,,,,,,,,,,,,,,,,,,,
,,,,,,,601c454a1e2f3c720321470b,605b45a4d25f287719a41696,6061e576ea7ffd750b09df7a,Mexico,Midwest,13 or older,no,2021-03-29_10h37.57.760,empathy_intonation_perc,2020.2.10,Win32,60,,,,,,,,,,1,,,,,,,,,,,,,,,,,,,,,,,,,,,,,,,,,,,,,,,,77,tiburn,,,0,0,0.55029,0,70,70,76,1,REAL,FAKE,,,,,,,,,,,,,,,,,,,,,
,,,,,,,601c454a1e2f3c720321470b,605b45a4d25f287719a41696,6061e576ea7ffd750b09df7a,Mexico,Midwest,13 or older,no,2021-03-29_10h37.57.760,empathy_intonation_perc,2020.2.10,Win32,60,,,,,,,,,,1,,,,,,,,,,,,,,,,,,,,,,,,,,,,,,,,,,,,,,,,38,estornudar,,,0,0,0.625855,0,71,71,37,1,REAL,FAKE,,,,,,,,,,,,,,,,,,,,,
,,,,,,,601c454a1e2f3c720321470b,605b45a4d25f287719a41696,6061e576ea7ffd750b09df7a,Mexico,Midwest,13 or older,no,2021-03-29_10h37.57.760,empathy_intonation_perc,2020.2.10,Win32,60,,,,,,,,,,0,,,,,,,,,,,,,,,,,,,,,,,,,,,,,,,,,,,,,,,,42,cadallo,,,0,1,0.72157,0,72,72,41,1,REAL,FAKE,,,,,,,,,,,,,,,,,,,,,
,,,,,,,601c454a1e2f3c720321470b,605b45a4d25f287719a41696,6061e576ea7ffd750b09df7a,Mexico,Midwest,13 or older,no,2021-03-29_10h37.57.760,empathy_intonation_perc,2020.2.10,Win32,60,,,,,,,,,,1,,,,,,,,,,,,,,,,,,,,,,,,,,,,,,,,,,,,,,,,5,zapato,,,1,1,0.63366,0,73,73,4,1,REAL,FAKE,,,,,,,,,,,,,,,,,,,,,
,,,,,,,601c454a1e2f3c720321470b,605b45a4d25f287719a41696,6061e576ea7ffd750b09df7a,Mexico,Midwest,13 or older,no,2021-03-29_10h37.57.760,empathy_intonation_perc,2020.2.10,Win32,60,,,,,,,,,,1,,,,,,,,,,,,,,,,,,,,,,,,,,,,,,,,,,,,,,,,76,atar,,,1,1,0.85056,0,74,74,75,1,REAL,FAKE,,,,,,,,,,,,,,,,,,,,,
,,,,,,,601c454a1e2f3c720321470b,605b45a4d25f287719a41696,6061e576ea7ffd750b09df7a,Mexico,Midwest,13 or older,no,2021-03-29_10h37.57.760,empathy_intonation_perc,2020.2.10,Win32,60,,,,,,,,,,1,,,,,,,,,,,,,,,,,,,,,,,,,,,,,,,,,,,,,,,,11,cenefa,,,0,0,0.58716,0,75,75,10,1,REAL,FAKE,,,,,,,,,,,,,,,,,,,,,
,,,,,,,601c454a1e2f3c720321470b,605b45a4d25f287719a41696,6061e576ea7ffd750b09df7a,Mexico,Midwest,13 or older,no,2021-03-29_10h37.57.760,empathy_intonation_perc,2020.2.10,Win32,60,,,,,,,,,,0,,,,,,,,,,,,,,,,,,,,,,,,,,,,,,,,,,,,,,,,17,floroso,,,0,1,0.68382,0,76,76,16,1,REAL,FAKE,,,,,,,,,,,,,,,,,,,,,
,,,,,,,601c454a1e2f3c720321470b,605b45a4d25f287719a41696,6061e576ea7ffd750b09df7a,Mexico,Midwest,13 or older,no,2021-03-29_10h37.57.760,empathy_intonation_perc,2020.2.10,Win32,60,,,,,,,,,,1,,,,,,,,,,,,,,,,,,,,,,,,,,,,,,,,,,,,,,,,44,cuchara,,,1,1,0.884015,0,77,77,43,1,REAL,FAKE,,,,,,,,,,,,,,,,,,,,,
,,,,,,,601c454a1e2f3c720321470b,605b45a4d25f287719a41696,6061e576ea7ffd750b09df7a,Mexico,Midwest,13 or older,no,2021-03-29_10h37.57.760,empathy_intonation_perc,2020.2.10,Win32,60,,,,,,,,,,1,,,,,,,,,,,,,,,,,,,,,,,,,,,,,,,,,,,,,,,,60,matar,,,1,1,0.717465,0,78,78,59,1,REAL,FAKE,,,,,,,,,,,,,,,,,,,,,
,,,,,,,601c454a1e2f3c720321470b,605b45a4d25f287719a41696,6061e576ea7ffd750b09df7a,Mexico,Midwest,13 or older,no,2021-03-29_10h37.57.760,empathy_intonation_perc,2020.2.10,Win32,60,,,,,,,,,,1,,,,,,,,,,,,,,,,,,,,,,,,,,,,,,,,,,,,,,,,59,besar,,,1,1,0.983615,0,79,79,58,1,REAL,FAKE,,,,,,,,,,,,,,,,,,,,,
,,,,,,,601c454a1e2f3c720321470b,605b45a4d25f287719a41696,6061e576ea7ffd750b09df7a,Mexico,Midwest,13 or older,no,2021-03-29_10h37.57.760,empathy_intonation_perc,2020.2.10,Win32,60,,,,,,,,,,1,,,,,,,,,,,,,,,,,,,,,,,,,,,,,,,,,,,,,,,,68,alegre,,,1,1,0.65046,0,80,80,67,1,REAL,FAKE,,,,,,,,,,,,,,,,,,,,,
,,,,,,,601c454a1e2f3c720321470b,605b45a4d25f287719a41696,6061e576ea7ffd750b09df7a,Mexico,Midwest,13 or older,no,2021-03-29_10h37.57.760,empathy_intonation_perc,2020.2.10,Win32,60,,,,,,,,,,1,,,,,,,,,,,,,,,,,,,,,,,,,,,,,,,,,,,,,,,,69,engatusar,,,0,0,0.61732,0,81,81,68,1,REAL,FAKE,,,,,,,,,,,,,,,,,,,,,
,,,,,,,601c454a1e2f3c720321470b,605b45a4d25f287719a41696,6061e576ea7ffd750b09df7a,Mexico,Midwest,13 or older,no,2021-03-29_10h37.57.760,empathy_intonation_perc,2020.2.10,Win32,60,,,,,,,,,,1,,,,,,,,,,,,,,,,,,,,,,,,,,,,,,,,,,,,,,,,61,seda,,,0,0,0.551,0,82,82,60,1,REAL,FAKE,,,,,,,,,,,,,,,,,,,,,
,,,,,,,601c454a1e2f3c720321470b,605b45a4d25f287719a41696,6061e576ea7ffd750b09df7a,Mexico,Midwest,13 or older,no,2021-03-29_10h37.57.760,empathy_intonation_perc,2020.2.10,Win32,60,,,,,,,,,,1,,,,,,,,,,,,,,,,,,,,,,,,,,,,,,,,,,,,,,,,80,hormiga,,,0,0,0.56755,0,83,83,79,1,REAL,FAKE,,,,,,,,,,,,,,,,,,,,,
,,,,,,,601c454a1e2f3c720321470b,605b45a4d25f287719a41696,6061e576ea7ffd750b09df7a,Mexico,Midwest,13 or older,no,2021-03-29_10h37.57.760,empathy_intonation_perc,2020.2.10,Win32,60,,,,,,,,,,1,,,,,,,,,,,,,,,,,,,,,,,,,,,,,,,,,,,,,,,,20,vido,,,0,0,0.71734,0,84,84,19,1,REAL,FAKE,,,,,,,,,,,,,,,,,,,,,
,,,,,,,601c454a1e2f3c720321470b,605b45a4d25f287719a41696,6061e576ea7ffd750b09df7a,Mexico,Midwest,13 or older,no,2021-03-29_10h37.57.760,empathy_intonation_perc,2020.2.10,Win32,60,,,,,,,,,,1,,,,,,,,,,,,,,,,,,,,,,,,,,,,,,,,,,,,,,,,26,secuestro,,,0,0,0.558825,0,85,85,25,1,REAL,FAKE,,,,,,,,,,,,,,,,,,,,,
,,,,,,,601c454a1e2f3c720321470b,605b45a4d25f287719a41696,6061e576ea7ffd750b09df7a,Mexico,Midwest,13 or older,no,2021-03-29_10h37.57.760,empathy_intonation_perc,2020.2.10,Win32,60,,,,,,,,,,1,,,,,,,,,,,,,,,,,,,,,,,,,,,,,,,,,,,,,,,,46,martillo,,,0,0,0.600325,0,86,86,45,1,REAL,FAKE,,,,,,,,,,,,,,,,,,,,,
,,,,,,,601c454a1e2f3c720321470b,605b45a4d25f287719a41696,6061e576ea7ffd750b09df7a,Mexico,Midwest,13 or older,no,2021-03-29_10h37.57.760,empathy_intonation_perc,2020.2.10,Win32,60,,,,,,,,,,1,,,,,,,,,,,,,,,,,,,,,,,,,,,,,,,,,,,,,,,,28,merodear,,,0,0,0.56677,0,87,87,27,1,REAL,FAKE,,,,,,,,,,,,,,,,,,,,,
,,,,,,,601c454a1e2f3c720321470b,605b45a4d25f287719a41696,6061e576ea7ffd750b09df7a,Mexico,Midwest,13 or older,no,2021-03-29_10h37.57.760,empathy_intonation_perc,2020.2.10,Win32,60,,,,,,,,,,0,,,,,,,,,,,,,,,,,,,,,,,,,,,,,,,,,,,,,,,,70,temblo,,,0,1,0.56673,0,88,88,69,1,REAL,FAKE,,,,,,,,,,,,,,,,,,,,,
,,,,,,,601c454a1e2f3c720321470b,605b45a4d25f287719a41696,6061e576ea7ffd750b09df7a,Mexico,Midwest,13 or older,no,2021-03-29_10h37.57.760,empathy_intonation_perc,2020.2.10,Win32,60,,,,,,,,,,0,,,,,,,,,,,,,,,,,,,,,,,,,,,,,,,,,,,,,,,,47,cartinar,,,0,1,0.483665,0,89,89,46,1,REAL,FAKE,,,,,,,,,,,,,,,,,,,,,
,,,,,,,601c454a1e2f3c720321470b,605b45a4d25f287719a41696,6061e576ea7ffd750b09df7a,Mexico,Midwest,13 or older,no,2021-03-29_10h37.57.760,empathy_intonation_perc,2020.2.10,Win32,60,,,,,,,,,,,,,,,,,,,,,,,,,,,,,,,,,,,,,,,,,,,,,,,,,,,,,,,,,,,,,,,,4,1,3.033135,1,1,0,0,0,0,1,,,,,,,,,,,
,,,,,,,601c454a1e2f3c720321470b,605b45a4d25f287719a41696,6061e576ea7ffd750b09df7a,Mexico,Midwest,13 or older,no,2021-03-29_10h37.57.760,empathy_intonation_perc,2020.2.10,Win32,60,,,,,,,,,,,,,,,,,,,,1,,,,,,,,,,,,,,,,,,,,,,,,,,,,,,,,,,,,,,,,,,,,,,,,,,,,,,1,0,0,0,0,1,I can easily tell if someone else wants to enter a conversation.,1,0,1,0
,,,,,,,601c454a1e2f3c720321470b,605b45a4d25f287719a41696,6061e576ea7ffd750b09df7a,Mexico,Midwest,13 or older,no,2021-03-29_10h37.57.760,empathy_intonation_perc,2020.2.10,Win32,60,,,,,,,,,,,,,,,,,,,,2,,,,,,,,,,,,,,,,,,,,,,,,,,,,,,,,,,,,,,,,,,,,,,,,,,,,,,4,0,1,1,1,1,I prefer animals to humans.,0,1,0,0
,,,,,,,601c454a1e2f3c720321470b,605b45a4d25f287719a41696,6061e576ea7ffd750b09df7a,Mexico,Midwest,13 or older,no,2021-03-29_10h37.57.760,empathy_intonation_perc,2020.2.10,Win32,60,,,,,,,,,,,,,,,,,,,,3,,,,,,,,,,,,,,,,,,,,,,,,,,,,,,,,,,,,,,,,,,,,,,,,,,,,,,2,0,2,2,2,1,I try to keep up with the current trends and fashions.,0,1,0,0
,,,,,,,601c454a1e2f3c720321470b,605b45a4d25f287719a41696,6061e576ea7ffd750b09df7a,Mexico,Midwest,13 or older,no,2021-03-29_10h37.57.760,empathy_intonation_perc,2020.2.10,Win32,60,,,,,,,,,,,,,,,,,,,,4,,,,,,,,,,,,,,,,,,,,,,,,,,,,,,,,,,,,,,,,,,,,,,,,,,,,,,4,0,3,3,3,1,"I find it difficult to explain to others things that I understand easily, 
  when they dont understand it first time.",1,0,0,1
,,,,,,,601c454a1e2f3c720321470b,605b45a4d25f287719a41696,6061e576ea7ffd750b09df7a,Mexico,Midwest,13 or older,no,2021-03-29_10h37.57.760,empathy_intonation_perc,2020.2.10,Win32,60,,,,,,,,,,,,,,,,,,,,5,,,,,,,,,,,,,,,,,,,,,,,,,,,,,,,,,,,,,,,,,,,,,,,,,,,,,,3,0,4,4,4,1,I dream most nights.,0,1,0,0
,,,,,,,601c454a1e2f3c720321470b,605b45a4d25f287719a41696,6061e576ea7ffd750b09df7a,Mexico,Midwest,13 or older,no,2021-03-29_10h37.57.760,empathy_intonation_perc,2020.2.10,Win32,60,,,,,,,,,,,,,,,,,,,,6,,,,,,,,,,,,,,,,,,,,,,,,,,,,,,,,,,,,,,,,,,,,,,,,,,,,,,4,0,5,5,5,1,I really enjoy caring for other people.,1,0,1,0
,,,,,,,601c454a1e2f3c720321470b,605b45a4d25f287719a41696,6061e576ea7ffd750b09df7a,Mexico,Midwest,13 or older,no,2021-03-29_10h37.57.760,empathy_intonation_perc,2020.2.10,Win32,60,,,,,,,,,,,,,,,,,,,,7,,,,,,,,,,,,,,,,,,,,,,,,,,,,,,,,,,,,,,,,,,,,,,,,,,,,,,4,0,6,6,6,1,I try to solve my own problems rather than discussing them with others.,0,1,0,0
,,,,,,,601c454a1e2f3c720321470b,605b45a4d25f287719a41696,6061e576ea7ffd750b09df7a,Mexico,Midwest,13 or older,no,2021-03-29_10h37.57.760,empathy_intonation_perc,2020.2.10,Win32,60,,,,,,,,,,,,,,,,,,,,8,,,,,,,,,,,,,,,,,,,,,,,,,,,,,,,,,,,,,,,,,,,,,,,,,,,,,,5,0,7,7,7,1,I find it hard to know what to do in a social situation.,1,0,0,1
,,,,,,,601c454a1e2f3c720321470b,605b45a4d25f287719a41696,6061e576ea7ffd750b09df7a,Mexico,Midwest,13 or older,no,2021-03-29_10h37.57.760,empathy_intonation_perc,2020.2.10,Win32,60,,,,,,,,,,,,,,,,,,,,9,,,,,,,,,,,,,,,,,,,,,,,,,,,,,,,,,,,,,,,,,,,,,,,,,,,,,,4,0,8,8,8,1,I am at my best first thing in the morning.,0,1,0,0
