instructions_2afc_loop.thisRepN,instructions_2afc_loop.thisTrialN,instructions_2afc_loop.thisN,instructions_2afc_loop.thisIndex,instructions_2afc_loop.ran,instructions_text,continue_text,participant,study_id,session,I am most familiar with Spanish from...*,What part of the US are you from?*,At what age did you begin learning Spanish?*,Are you proficient in any languages other than English/Spanish?*,date,expName,psychopyVersion,OS,frameRate,key_resp_2afc_practice.keys,key_resp_2afc_practice.corr,key_resp_2afc_practice.rt,trials_2afc_practice_loop.thisRepN,trials_2afc_practice_loop.thisTrialN,trials_2afc_practice_loop.thisN,trials_2afc_practice_loop.thisIndex,trials_2afc_practice_loop.ran,path,correct_response,the_col,key_resp_2afc_trial.keys,key_resp_2afc_trial.corr,key_resp_2afc_trial.rt,trials_2afc_loop.thisRepN,trials_2afc_loop.thisTrialN,trials_2afc_loop.thisN,trials_2afc_loop.thisIndex,trials_2afc_loop.ran,item_num,andalusian,argentine,castilian,chilean,cuban,mexican,peruvian,puertorican,key_resp_ac1.keys,key_resp_ac1.corr,key_resp_ac1.rt,ac1_loop.thisRepN,ac1_loop.thisTrialN,ac1_loop.thisN,ac1_loop.thisIndex,ac1_loop.ran,instructions_lextale_loop.thisRepN,instructions_lextale_loop.thisTrialN,instructions_lextale_loop.thisN,instructions_lextale_loop.thisIndex,instructions_lextale_loop.ran,key_resp_lextale_practice.keys,key_resp_lextale_practice.corr,key_resp_lextale_practice.rt,trials_lextale_practice_loop.thisRepN,trials_lextale_practice_loop.thisTrialN,trials_lextale_practice_loop.thisN,trials_lextale_practice_loop.thisIndex,trials_lextale_practice_loop.ran,stim,word,prac_button_real,prac_button_false,key_resp_lextale_trial.keys,key_resp_lextale_trial.corr,key_resp_lextale_trial.rt,trials_lextale_loop.thisRepN,trials_lextale_loop.thisTrialN,trials_lextale_loop.thisN,trials_lextale_loop.thisIndex,trials_lextale_loop.ran,button_real,button_false,key_resp_ac2.keys,key_resp_ac2.corr,key_resp_ac2.rt,check_pass,check_fails,ac2_loop.thisRepN,ac2_loop.thisTrialN,ac2_loop.thisN,ac2_loop.thisIndex,ac2_loop.ran,slider_eq_trial.response,trials_eq_loop.thisRepN,trials_eq_loop.thisTrialN,trials_eq_loop.thisN,trials_eq_loop.thisIndex,trials_eq_loop.ran,item,is_test_item,is_distractor,is_agree_score,is_disagree_score
0,0,0,0,1,"In the following task you are going to hear a series of utterances. 

  You will decide if the utterances sound like questions or not using your keyboard.",(press the spacebar to continue),6021d935ae778527962c9fd3,6057c54e64b0b4e5c128b4f9,605801bef99c374addd31d36,Spain,East coast,13 or older,no,2021-03-21_22h33.03.861,empathy_intonation_perc,2020.2.10,Win32,60,,,,,,,,,,,,,,,,,,,,,,,,,,,,,,,,,,,,,,,,,,,,,,,,,,,,,,,,,,,,,,,,,,,,,,,,,,,,,,,,,,,,
0,1,1,1,1,"If you believe the utterance is a question, type '1' (for 'yes') and if you do not 
  believe it is a question type '0' (for 'no').

  Let's practice a bit...",(press the spacebar to continue),6021d935ae778527962c9fd3,6057c54e64b0b4e5c128b4f9,605801bef99c374addd31d36,Spain,East coast,13 or older,no,2021-03-21_22h33.03.861,empathy_intonation_perc,2020.2.10,Win32,60,,,,,,,,,,,,,,,,,,,,,,,,,,,,,,,,,,,,,,,,,,,,,,,,,,,,,,,,,,,,,,,,,,,,,,,,,,,,,,,,,,,,
,,,,,,,6021d935ae778527962c9fd3,6057c54e64b0b4e5c128b4f9,605801bef99c374addd31d36,Spain,East coast,13 or older,no,2021-03-21_22h33.03.861,empathy_intonation_perc,2020.2.10,Win32,60,1,1,2.36811,0,0,0,0,1,./stim/wavs/castilian_question_filler_Mi-esposo-conoce-al-chico.wav,1,,,,,,,,,,,,,,,,,,,,,,,,,,,,,,,,,,,,,,,,,,,,,,,,,,,,,,,,,,,,,,,,,,,,,,,,,,
,,,,,,,6021d935ae778527962c9fd3,6057c54e64b0b4e5c128b4f9,605801bef99c374addd31d36,Spain,East coast,13 or older,no,2021-03-21_22h33.03.861,empathy_intonation_perc,2020.2.10,Win32,60,0,1,4.01699,0,1,1,7,1,./stim/wavs/puertorican_statement_filler_La-nina-pinta-con-su-amiga.wav,0,,,,,,,,,,,,,,,,,,,,,,,,,,,,,,,,,,,,,,,,,,,,,,,,,,,,,,,,,,,,,,,,,,,,,,,,,,
,,,,,,,6021d935ae778527962c9fd3,6057c54e64b0b4e5c128b4f9,605801bef99c374addd31d36,Spain,East coast,13 or older,no,2021-03-21_22h33.03.861,empathy_intonation_perc,2020.2.10,Win32,60,1,1,2.1657,0,2,2,3,1,./stim/wavs/mexican_question_filler_Felipe-no-tiene-contrasena.wav,1,,,,,,,,,,,,,,,,,,,,,,,,,,,,,,,,,,,,,,,,,,,,,,,,,,,,,,,,,,,,,,,,,,,,,,,,,,
,,,,,,,6021d935ae778527962c9fd3,6057c54e64b0b4e5c128b4f9,605801bef99c374addd31d36,Spain,East coast,13 or older,no,2021-03-21_22h33.03.861,empathy_intonation_perc,2020.2.10,Win32,60,0,1,1.751205,0,3,3,4,1,./stim/wavs/cuban_statement_filler_Cocinabas-por-la-noche.wav,0,,,,,,,,,,,,,,,,,,,,,,,,,,,,,,,,,,,,,,,,,,,,,,,,,,,,,,,,,,,,,,,,,,,,,,,,,,
,,,,,,,6021d935ae778527962c9fd3,6057c54e64b0b4e5c128b4f9,605801bef99c374addd31d36,Spain,East coast,13 or older,no,2021-03-21_22h33.03.861,empathy_intonation_perc,2020.2.10,Win32,60,0,0,1.783365,0,4,4,2,1,./stim/wavs/chilean_question_filler_Mi-padre-cantaba-bien.wav,1,,,,,,,,,,,,,,,,,,,,,,,,,,,,,,,,,,,,,,,,,,,,,,,,,,,,,,,,,,,,,,,,,,,,,,,,,,
,,,,,,,6021d935ae778527962c9fd3,6057c54e64b0b4e5c128b4f9,605801bef99c374addd31d36,Spain,East coast,13 or older,no,2021-03-21_22h33.03.861,empathy_intonation_perc,2020.2.10,Win32,60,1,1,2.034335,0,5,5,1,1,./stim/wavs/argentine_question_filler_Mi-vecino-habla-mucho.wav,1,,,,,,,,,,,,,,,,,,,,,,,,,,,,,,,,,,,,,,,,,,,,,,,,,,,,,,,,,,,,,,,,,,,,,,,,,,
,,,,,,,6021d935ae778527962c9fd3,6057c54e64b0b4e5c128b4f9,605801bef99c374addd31d36,Spain,East coast,13 or older,no,2021-03-21_22h33.03.861,empathy_intonation_perc,2020.2.10,Win32,60,0,1,2.00003,0,6,6,5,1,./stim/wavs/andalusian_statement_filler_Alberto-nunca-se-afeita.wav,0,,,,,,,,,,,,,,,,,,,,,,,,,,,,,,,,,,,,,,,,,,,,,,,,,,,,,,,,,,,,,,,,,,,,,,,,,,
,,,,,,,6021d935ae778527962c9fd3,6057c54e64b0b4e5c128b4f9,605801bef99c374addd31d36,Spain,East coast,13 or older,no,2021-03-21_22h33.03.861,empathy_intonation_perc,2020.2.10,Win32,60,0,1,2.405855,0,7,7,6,1,./stim/wavs/peruvian_statement_filler_El-nino-habla-con-su-madre.wav,0,,,,,,,,,,,,,,,,,,,,,,,,,,,,,,,,,,,,,,,,,,,,,,,,,,,,,,,,,,,,,,,,,,,,,,,,,,
,,,,,,,6021d935ae778527962c9fd3,6057c54e64b0b4e5c128b4f9,605801bef99c374addd31d36,Spain,East coast,13 or older,no,2021-03-21_22h33.03.861,empathy_intonation_perc,2020.2.10,Win32,60,,,,,,,,,,0,argentine,0,1,2.3332,0,0,0,2,1,3,./stim/wavs/andalusian_match_declarative-broad-focus_David-leia-el-libro.wav,./stim/wavs/argentine_match_declarative-broad-focus_David-leia-el-libro.wav,./stim/wavs/castilian_match_declarative-broad-focus_David-leia-el-libro.wav,./stim/wavs/chilean_match_declarative-broad-focus_David-leia-el-libro.wav,./stim/wavs/cuban_match_declarative-broad-focus_David-leia-el-libro.wav,./stim/wavs/mexican_match_declarative-broad-focus_David-leia-el-libro.wav,./stim/wavs/peruvian_match_declarative-broad-focus_David-leia-el-libro.wav,./stim/wavs/puertorican_match_declarative-broad-focus_David-leia-el-libro.wav,,,,,,,,,,,,,,,,,,,,,,,,,,,,,,,,,,,,,,,,,,,,,,,,,,,,,,,,
,,,,,,,6021d935ae778527962c9fd3,6057c54e64b0b4e5c128b4f9,605801bef99c374addd31d36,Spain,East coast,13 or older,no,2021-03-21_22h33.03.861,empathy_intonation_perc,2020.2.10,Win32,60,,,,,,,,,,0,andalusian,0,1,2.932685,0,1,1,37,1,38,./stim/wavs/andalusian_mismatch_declarative-broad-focus_Mi-madre-come-la-fruta.wav,./stim/wavs/argentine_mismatch_declarative-broad-focus_Mi-madre-come-la-fruta.wav,./stim/wavs/castilian_mismatch_declarative-broad-focus_Mi-madre-come-la-fruta.wav,./stim/wavs/chilean_mismatch_declarative-broad-focus_Mi-madre-come-la-fruta.wav,./stim/wavs/cuban_mismatch_declarative-broad-focus_Mi-madre-come-la-fruta.wav,./stim/wavs/mexican_mismatch_declarative-broad-focus_Mi-madre-come-la-fruta.wav,./stim/wavs/peruvian_mismatch_declarative-broad-focus_Mi-madre-come-la-fruta.wav,./stim/wavs/puertorican_mismatch_declarative-broad-focus_Mi-madre-come-la-fruta.wav,,,,,,,,,,,,,,,,,,,,,,,,,,,,,,,,,,,,,,,,,,,,,,,,,,,,,,,,
,,,,,,,6021d935ae778527962c9fd3,6057c54e64b0b4e5c128b4f9,605801bef99c374addd31d36,Spain,East coast,13 or older,no,2021-03-21_22h33.03.861,empathy_intonation_perc,2020.2.10,Win32,60,,,,,,,,,,0,argentine,0,1,2.135575,0,2,2,47,1,48,./stim/wavs/andalusian_mismatch_declarative-narrow-focus_Mi-tia-odia-la-lluvia.wav,./stim/wavs/argentine_mismatch_declarative-narrow-focus_Mi-tia-odia-la-lluvia.wav,./stim/wavs/castilian_mismatch_declarative-narrow-focus_Mi-tia-odia-la-lluvia.wav,./stim/wavs/chilean_mismatch_declarative-narrow-focus_Mi-tia-odia-la-lluvia.wav,./stim/wavs/cuban_mismatch_declarative-narrow-focus_Mi-tia-odia-la-lluvia.wav,./stim/wavs/mexican_mismatch_declarative-narrow-focus_Mi-tia-odia-la-lluvia.wav,./stim/wavs/peruvian_mismatch_declarative-narrow-focus_Mi-tia-odia-la-lluvia.wav,./stim/wavs/puertorican_mismatch_declarative-narrow-focus_Mi-tia-odia-la-lluvia.wav,,,,,,,,,,,,,,,,,,,,,,,,,,,,,,,,,,,,,,,,,,,,,,,,,,,,,,,,
,,,,,,,6021d935ae778527962c9fd3,6057c54e64b0b4e5c128b4f9,605801bef99c374addd31d36,Spain,East coast,13 or older,no,2021-03-21_22h33.03.861,empathy_intonation_perc,2020.2.10,Win32,60,,,,,,,,,,0,mexican,0,1,1.722895,0,3,3,5,1,6,./stim/wavs/andalusian_match_declarative-broad-focus_Maria-bebe-el-vino.wav,./stim/wavs/argentine_match_declarative-broad-focus_Maria-bebe-el-vino.wav,./stim/wavs/castilian_match_declarative-broad-focus_Maria-bebe-el-vino.wav,./stim/wavs/chilean_match_declarative-broad-focus_Maria-bebe-el-vino.wav,./stim/wavs/cuban_match_declarative-broad-focus_Maria-bebe-el-vino.wav,./stim/wavs/mexican_match_declarative-broad-focus_Maria-bebe-el-vino.wav,./stim/wavs/peruvian_match_declarative-broad-focus_Maria-bebe-el-vino.wav,./stim/wavs/puertorican_match_declarative-broad-focus_Maria-bebe-el-vino.wav,,,,,,,,,,,,,,,,,,,,,,,,,,,,,,,,,,,,,,,,,,,,,,,,,,,,,,,,
,,,,,,,6021d935ae778527962c9fd3,6057c54e64b0b4e5c128b4f9,605801bef99c374addd31d36,Spain,East coast,13 or older,no,2021-03-21_22h33.03.861,empathy_intonation_perc,2020.2.10,Win32,60,,,,,,,,,,1,mexican,1,1,2.23596,0,4,4,54,1,55,./stim/wavs/andalusian_mismatch_interrogative-partial-wh_Por-que-venia-del-lago.wav,./stim/wavs/argentine_mismatch_interrogative-partial-wh_Por-que-venia-del-lago.wav,./stim/wavs/castilian_mismatch_interrogative-partial-wh_Por-que-venia-del-lago.wav,./stim/wavs/chilean_mismatch_interrogative-partial-wh_Por-que-venia-del-lago.wav,./stim/wavs/cuban_mismatch_interrogative-partial-wh_Por-que-venia-del-lago.wav,./stim/wavs/mexican_mismatch_interrogative-partial-wh_Por-que-venia-del-lago.wav,./stim/wavs/peruvian_mismatch_interrogative-partial-wh_Por-que-venia-del-lago.wav,./stim/wavs/puertorican_mismatch_interrogative-partial-wh_Por-que-venia-del-lago.wav,,,,,,,,,,,,,,,,,,,,,,,,,,,,,,,,,,,,,,,,,,,,,,,,,,,,,,,,
,,,,,,,6021d935ae778527962c9fd3,6057c54e64b0b4e5c128b4f9,605801bef99c374addd31d36,Spain,East coast,13 or older,no,2021-03-21_22h33.03.861,empathy_intonation_perc,2020.2.10,Win32,60,,,,,,,,,,1,puertorican,0,0,2.040135,0,5,5,26,1,27,./stim/wavs/andalusian_match_interrogative-total-yn_David-leia-el-libro.wav,./stim/wavs/argentine_match_interrogative-total-yn_David-leia-el-libro.wav,./stim/wavs/castilian_match_interrogative-total-yn_David-leia-el-libro.wav,./stim/wavs/chilean_match_interrogative-total-yn_David-leia-el-libro.wav,./stim/wavs/cuban_match_interrogative-total-yn_David-leia-el-libro.wav,./stim/wavs/mexican_match_interrogative-total-yn_David-leia-el-libro.wav,./stim/wavs/peruvian_match_interrogative-total-yn_David-leia-el-libro.wav,./stim/wavs/puertorican_match_interrogative-total-yn_David-leia-el-libro.wav,,,,,,,,,,,,,,,,,,,,,,,,,,,,,,,,,,,,,,,,,,,,,,,,,,,,,,,,
,,,,,,,6021d935ae778527962c9fd3,6057c54e64b0b4e5c128b4f9,605801bef99c374addd31d36,Spain,East coast,13 or older,no,2021-03-21_22h33.03.861,empathy_intonation_perc,2020.2.10,Win32,60,,,,,,,,,,0,castilian,0,1,2.074475,0,6,6,42,1,43,./stim/wavs/andalusian_mismatch_declarative-narrow-focus_El-nino-oye-el-rio.wav,./stim/wavs/argentine_mismatch_declarative-narrow-focus_El-nino-oye-el-rio.wav,./stim/wavs/castilian_mismatch_declarative-narrow-focus_El-nino-oye-el-rio.wav,./stim/wavs/chilean_mismatch_declarative-narrow-focus_El-nino-oye-el-rio.wav,./stim/wavs/cuban_mismatch_declarative-narrow-focus_El-nino-oye-el-rio.wav,./stim/wavs/mexican_mismatch_declarative-narrow-focus_El-nino-oye-el-rio.wav,./stim/wavs/peruvian_mismatch_declarative-narrow-focus_El-nino-oye-el-rio.wav,./stim/wavs/puertorican_mismatch_declarative-narrow-focus_El-nino-oye-el-rio.wav,,,,,,,,,,,,,,,,,,,,,,,,,,,,,,,,,,,,,,,,,,,,,,,,,,,,,,,,
,,,,,,,6021d935ae778527962c9fd3,6057c54e64b0b4e5c128b4f9,605801bef99c374addd31d36,Spain,East coast,13 or older,no,2021-03-21_22h33.03.861,empathy_intonation_perc,2020.2.10,Win32,60,,,,,,,,,,0,castilian,0,1,1.965175,0,7,7,14,1,15,./stim/wavs/andalusian_match_declarative-narrow-focus_Mariano-habla-del-tiempo.wav,./stim/wavs/argentine_match_declarative-narrow-focus_Mariano-habla-del-tiempo.wav,./stim/wavs/castilian_match_declarative-narrow-focus_Mariano-habla-del-tiempo.wav,./stim/wavs/chilean_match_declarative-narrow-focus_Mariano-habla-del-tiempo.wav,./stim/wavs/cuban_match_declarative-narrow-focus_Mariano-habla-del-tiempo.wav,./stim/wavs/mexican_match_declarative-narrow-focus_Mariano-habla-del-tiempo.wav,./stim/wavs/peruvian_match_declarative-narrow-focus_Mariano-habla-del-tiempo.wav,./stim/wavs/puertorican_match_declarative-narrow-focus_Mariano-habla-del-tiempo.wav,,,,,,,,,,,,,,,,,,,,,,,,,,,,,,,,,,,,,,,,,,,,,,,,,,,,,,,,
,,,,,,,6021d935ae778527962c9fd3,6057c54e64b0b4e5c128b4f9,605801bef99c374addd31d36,Spain,East coast,13 or older,no,2021-03-21_22h33.03.861,empathy_intonation_perc,2020.2.10,Win32,60,,,,,,,,,,1,argentine,0,0,2.10347,0,8,8,63,1,64,./stim/wavs/andalusian_mismatch_interrogative-total-yn_Mi-tia-odia-la-lluvia.wav,./stim/wavs/argentine_mismatch_interrogative-total-yn_Mi-tia-odia-la-lluvia.wav,./stim/wavs/castilian_mismatch_interrogative-total-yn_Mi-tia-odia-la-lluvia.wav,./stim/wavs/chilean_mismatch_interrogative-total-yn_Mi-tia-odia-la-lluvia.wav,./stim/wavs/cuban_mismatch_interrogative-total-yn_Mi-tia-odia-la-lluvia.wav,./stim/wavs/mexican_mismatch_interrogative-total-yn_Mi-tia-odia-la-lluvia.wav,./stim/wavs/peruvian_mismatch_interrogative-total-yn_Mi-tia-odia-la-lluvia.wav,./stim/wavs/puertorican_mismatch_interrogative-total-yn_Mi-tia-odia-la-lluvia.wav,,,,,,,,,,,,,,,,,,,,,,,,,,,,,,,,,,,,,,,,,,,,,,,,,,,,,,,,
,,,,,,,6021d935ae778527962c9fd3,6057c54e64b0b4e5c128b4f9,605801bef99c374addd31d36,Spain,East coast,13 or older,no,2021-03-21_22h33.03.861,empathy_intonation_perc,2020.2.10,Win32,60,,,,,,,,,,0,mexican,0,1,2.116105,0,9,9,40,1,41,./stim/wavs/andalusian_mismatch_declarative-narrow-focus_El-bebe-comia-muy-bien.wav,./stim/wavs/argentine_mismatch_declarative-narrow-focus_El-bebe-comia-muy-bien.wav,./stim/wavs/castilian_mismatch_declarative-narrow-focus_El-bebe-comia-muy-bien.wav,./stim/wavs/chilean_mismatch_declarative-narrow-focus_El-bebe-comia-muy-bien.wav,./stim/wavs/cuban_mismatch_declarative-narrow-focus_El-bebe-comia-muy-bien.wav,./stim/wavs/mexican_mismatch_declarative-narrow-focus_El-bebe-comia-muy-bien.wav,./stim/wavs/peruvian_mismatch_declarative-narrow-focus_El-bebe-comia-muy-bien.wav,./stim/wavs/puertorican_mismatch_declarative-narrow-focus_El-bebe-comia-muy-bien.wav,,,,,,,,,,,,,,,,,,,,,,,,,,,,,,,,,,,,,,,,,,,,,,,,,,,,,,,,
,,,,,,,6021d935ae778527962c9fd3,6057c54e64b0b4e5c128b4f9,605801bef99c374addd31d36,Spain,East coast,13 or older,no,2021-03-21_22h33.03.861,empathy_intonation_perc,2020.2.10,Win32,60,,,,,,,,,,0,argentine,0,1,1.90167,0,10,10,6,1,7,./stim/wavs/andalusian_match_declarative-broad-focus_Mariano-habla-del-tiempo.wav,./stim/wavs/argentine_match_declarative-broad-focus_Mariano-habla-del-tiempo.wav,./stim/wavs/castilian_match_declarative-broad-focus_Mariano-habla-del-tiempo.wav,./stim/wavs/chilean_match_declarative-broad-focus_Mariano-habla-del-tiempo.wav,./stim/wavs/cuban_match_declarative-broad-focus_Mariano-habla-del-tiempo.wav,./stim/wavs/mexican_match_declarative-broad-focus_Mariano-habla-del-tiempo.wav,./stim/wavs/peruvian_match_declarative-broad-focus_Mariano-habla-del-tiempo.wav,./stim/wavs/puertorican_match_declarative-broad-focus_Mariano-habla-del-tiempo.wav,,,,,,,,,,,,,,,,,,,,,,,,,,,,,,,,,,,,,,,,,,,,,,,,,,,,,,,,
,,,,,,,6021d935ae778527962c9fd3,6057c54e64b0b4e5c128b4f9,605801bef99c374addd31d36,Spain,East coast,13 or older,no,2021-03-21_22h33.03.861,empathy_intonation_perc,2020.2.10,Win32,60,,,,,,,,,,1,argentine,0,0,2.603355,0,11,11,62,1,63,./stim/wavs/andalusian_mismatch_interrogative-total-yn_Mi-novio-viene-del-lago.wav,./stim/wavs/argentine_mismatch_interrogative-total-yn_Mi-novio-viene-del-lago.wav,./stim/wavs/castilian_mismatch_interrogative-total-yn_Mi-novio-viene-del-lago.wav,./stim/wavs/chilean_mismatch_interrogative-total-yn_Mi-novio-viene-del-lago.wav,./stim/wavs/cuban_mismatch_interrogative-total-yn_Mi-novio-viene-del-lago.wav,./stim/wavs/mexican_mismatch_interrogative-total-yn_Mi-novio-viene-del-lago.wav,./stim/wavs/peruvian_mismatch_interrogative-total-yn_Mi-novio-viene-del-lago.wav,./stim/wavs/puertorican_mismatch_interrogative-total-yn_Mi-novio-viene-del-lago.wav,,,,,,,,,,,,,,,,,,,,,,,,,,,,,,,,,,,,,,,,,,,,,,,,,,,,,,,,
,,,,,,,6021d935ae778527962c9fd3,6057c54e64b0b4e5c128b4f9,605801bef99c374addd31d36,Spain,East coast,13 or older,no,2021-03-21_22h33.03.861,empathy_intonation_perc,2020.2.10,Win32,60,,,,,,,,,,0,puertorican,0,1,1.90264,0,12,12,10,1,11,./stim/wavs/andalusian_match_declarative-narrow-focus_David-leia-el-libro.wav,./stim/wavs/argentine_match_declarative-narrow-focus_David-leia-el-libro.wav,./stim/wavs/castilian_match_declarative-narrow-focus_David-leia-el-libro.wav,./stim/wavs/chilean_match_declarative-narrow-focus_David-leia-el-libro.wav,./stim/wavs/cuban_match_declarative-narrow-focus_David-leia-el-libro.wav,./stim/wavs/mexican_match_declarative-narrow-focus_David-leia-el-libro.wav,./stim/wavs/peruvian_match_declarative-narrow-focus_David-leia-el-libro.wav,./stim/wavs/puertorican_match_declarative-narrow-focus_David-leia-el-libro.wav,,,,,,,,,,,,,,,,,,,,,,,,,,,,,,,,,,,,,,,,,,,,,,,,,,,,,,,,
,,,,,,,6021d935ae778527962c9fd3,6057c54e64b0b4e5c128b4f9,605801bef99c374addd31d36,Spain,East coast,13 or older,no,2021-03-21_22h33.03.861,empathy_intonation_perc,2020.2.10,Win32,60,,,,,,,,,,1,castilian,1,1,1.617885,0,13,13,25,1,26,./stim/wavs/andalusian_match_interrogative-total-yn_Daniel-iba-a-Bolivia.wav,./stim/wavs/argentine_match_interrogative-total-yn_Daniel-iba-a-Bolivia.wav,./stim/wavs/castilian_match_interrogative-total-yn_Daniel-iba-a-Bolivia.wav,./stim/wavs/chilean_match_interrogative-total-yn_Daniel-iba-a-Bolivia.wav,./stim/wavs/cuban_match_interrogative-total-yn_Daniel-iba-a-Bolivia.wav,./stim/wavs/mexican_match_interrogative-total-yn_Daniel-iba-a-Bolivia.wav,./stim/wavs/peruvian_match_interrogative-total-yn_Daniel-iba-a-Bolivia.wav,./stim/wavs/puertorican_match_interrogative-total-yn_Daniel-iba-a-Bolivia.wav,,,,,,,,,,,,,,,,,,,,,,,,,,,,,,,,,,,,,,,,,,,,,,,,,,,,,,,,
,,,,,,,6021d935ae778527962c9fd3,6057c54e64b0b4e5c128b4f9,605801bef99c374addd31d36,Spain,East coast,13 or older,no,2021-03-21_22h33.03.861,empathy_intonation_perc,2020.2.10,Win32,60,,,,,,,,,,0,mexican,0,1,2.05057,0,14,14,15,1,16,./stim/wavs/andalusian_match_declarative-narrow-focus_Marta-abre-el-regalo.wav,./stim/wavs/argentine_match_declarative-narrow-focus_Marta-abre-el-regalo.wav,./stim/wavs/castilian_match_declarative-narrow-focus_Marta-abre-el-regalo.wav,./stim/wavs/chilean_match_declarative-narrow-focus_Marta-abre-el-regalo.wav,./stim/wavs/cuban_match_declarative-narrow-focus_Marta-abre-el-regalo.wav,./stim/wavs/mexican_match_declarative-narrow-focus_Marta-abre-el-regalo.wav,./stim/wavs/peruvian_match_declarative-narrow-focus_Marta-abre-el-regalo.wav,./stim/wavs/puertorican_match_declarative-narrow-focus_Marta-abre-el-regalo.wav,,,,,,,,,,,,,,,,,,,,,,,,,,,,,,,,,,,,,,,,,,,,,,,,,,,,,,,,
,,,,,,,6021d935ae778527962c9fd3,6057c54e64b0b4e5c128b4f9,605801bef99c374addd31d36,Spain,East coast,13 or older,no,2021-03-21_22h33.03.861,empathy_intonation_perc,2020.2.10,Win32,60,,,,,,,,,,1,andalusian,1,1,2.219005,0,15,15,60,1,61,./stim/wavs/andalusian_mismatch_interrogative-total-yn_La-nina-lava-el-plato.wav,./stim/wavs/argentine_mismatch_interrogative-total-yn_La-nina-lava-el-plato.wav,./stim/wavs/castilian_mismatch_interrogative-total-yn_La-nina-lava-el-plato.wav,./stim/wavs/chilean_mismatch_interrogative-total-yn_La-nina-lava-el-plato.wav,./stim/wavs/cuban_mismatch_interrogative-total-yn_La-nina-lava-el-plato.wav,./stim/wavs/mexican_mismatch_interrogative-total-yn_La-nina-lava-el-plato.wav,./stim/wavs/peruvian_mismatch_interrogative-total-yn_La-nina-lava-el-plato.wav,./stim/wavs/puertorican_mismatch_interrogative-total-yn_La-nina-lava-el-plato.wav,,,,,,,,,,,,,,,,,,,,,,,,,,,,,,,,,,,,,,,,,,,,,,,,,,,,,,,,
,,,,,,,6021d935ae778527962c9fd3,6057c54e64b0b4e5c128b4f9,605801bef99c374addd31d36,Spain,East coast,13 or older,no,2021-03-21_22h33.03.861,empathy_intonation_perc,2020.2.10,Win32,60,,,,,,,,,,0,argentine,0,1,1.90328,0,16,16,3,1,4,./stim/wavs/andalusian_match_declarative-broad-focus_Emilio-ama-la-marcha.wav,./stim/wavs/argentine_match_declarative-broad-focus_Emilio-ama-la-marcha.wav,./stim/wavs/castilian_match_declarative-broad-focus_Emilio-ama-la-marcha.wav,./stim/wavs/chilean_match_declarative-broad-focus_Emilio-ama-la-marcha.wav,./stim/wavs/cuban_match_declarative-broad-focus_Emilio-ama-la-marcha.wav,./stim/wavs/mexican_match_declarative-broad-focus_Emilio-ama-la-marcha.wav,./stim/wavs/peruvian_match_declarative-broad-focus_Emilio-ama-la-marcha.wav,./stim/wavs/puertorican_match_declarative-broad-focus_Emilio-ama-la-marcha.wav,,,,,,,,,,,,,,,,,,,,,,,,,,,,,,,,,,,,,,,,,,,,,,,,,,,,,,,,
,,,,,,,6021d935ae778527962c9fd3,6057c54e64b0b4e5c128b4f9,605801bef99c374addd31d36,Spain,East coast,13 or older,no,2021-03-21_22h33.03.861,empathy_intonation_perc,2020.2.10,Win32,60,,,,,,,,,,1,mexican,1,1,2.349505,0,17,17,59,1,60,./stim/wavs/andalusian_mismatch_interrogative-total-yn_La-maestra-vive-en-Paris.wav,./stim/wavs/argentine_mismatch_interrogative-total-yn_La-maestra-vive-en-Paris.wav,./stim/wavs/castilian_mismatch_interrogative-total-yn_La-maestra-vive-en-Paris.wav,./stim/wavs/chilean_mismatch_interrogative-total-yn_La-maestra-vive-en-Paris.wav,./stim/wavs/cuban_mismatch_interrogative-total-yn_La-maestra-vive-en-Paris.wav,./stim/wavs/mexican_mismatch_interrogative-total-yn_La-maestra-vive-en-Paris.wav,./stim/wavs/peruvian_mismatch_interrogative-total-yn_La-maestra-vive-en-Paris.wav,./stim/wavs/puertorican_mismatch_interrogative-total-yn_La-maestra-vive-en-Paris.wav,,,,,,,,,,,,,,,,,,,,,,,,,,,,,,,,,,,,,,,,,,,,,,,,,,,,,,,,
,,,,,,,6021d935ae778527962c9fd3,6057c54e64b0b4e5c128b4f9,605801bef99c374addd31d36,Spain,East coast,13 or older,no,2021-03-21_22h33.03.861,empathy_intonation_perc,2020.2.10,Win32,60,,,,,,,,,,1,puertorican,0,0,2.18967,0,18,18,58,1,59,./stim/wavs/andalusian_mismatch_interrogative-total-yn_El-nino-oye-el-rio.wav,./stim/wavs/argentine_mismatch_interrogative-total-yn_El-nino-oye-el-rio.wav,./stim/wavs/castilian_mismatch_interrogative-total-yn_El-nino-oye-el-rio.wav,./stim/wavs/chilean_mismatch_interrogative-total-yn_El-nino-oye-el-rio.wav,./stim/wavs/cuban_mismatch_interrogative-total-yn_El-nino-oye-el-rio.wav,./stim/wavs/mexican_mismatch_interrogative-total-yn_El-nino-oye-el-rio.wav,./stim/wavs/peruvian_mismatch_interrogative-total-yn_El-nino-oye-el-rio.wav,./stim/wavs/puertorican_mismatch_interrogative-total-yn_El-nino-oye-el-rio.wav,,,,,,,,,,,,,,,,,,,,,,,,,,,,,,,,,,,,,,,,,,,,,,,,,,,,,,,,
,,,,,,,6021d935ae778527962c9fd3,6057c54e64b0b4e5c128b4f9,605801bef99c374addd31d36,Spain,East coast,13 or older,no,2021-03-21_22h33.03.861,empathy_intonation_perc,2020.2.10,Win32,60,,,,,,,,,,1,peruvian,1,1,2.88258,0,19,19,56,1,57,./stim/wavs/andalusian_mismatch_interrogative-total-yn_El-bebe-comia-muy-bien.wav,./stim/wavs/argentine_mismatch_interrogative-total-yn_El-bebe-comia-muy-bien.wav,./stim/wavs/castilian_mismatch_interrogative-total-yn_El-bebe-comia-muy-bien.wav,./stim/wavs/chilean_mismatch_interrogative-total-yn_El-bebe-comia-muy-bien.wav,./stim/wavs/cuban_mismatch_interrogative-total-yn_El-bebe-comia-muy-bien.wav,./stim/wavs/mexican_mismatch_interrogative-total-yn_El-bebe-comia-muy-bien.wav,./stim/wavs/peruvian_mismatch_interrogative-total-yn_El-bebe-comia-muy-bien.wav,./stim/wavs/puertorican_mismatch_interrogative-total-yn_El-bebe-comia-muy-bien.wav,,,,,,,,,,,,,,,,,,,,,,,,,,,,,,,,,,,,,,,,,,,,,,,,,,,,,,,,
,,,,,,,6021d935ae778527962c9fd3,6057c54e64b0b4e5c128b4f9,605801bef99c374addd31d36,Spain,East coast,13 or older,no,2021-03-21_22h33.03.861,empathy_intonation_perc,2020.2.10,Win32,60,,,,,,,,,,1,puertorican,0,0,1.48444,0,20,20,24,1,25,./stim/wavs/andalusian_match_interrogative-total-yn_Ana-lleva-el-abrigo.wav,./stim/wavs/argentine_match_interrogative-total-yn_Ana-lleva-el-abrigo.wav,./stim/wavs/castilian_match_interrogative-total-yn_Ana-lleva-el-abrigo.wav,./stim/wavs/chilean_match_interrogative-total-yn_Ana-lleva-el-abrigo.wav,./stim/wavs/cuban_match_interrogative-total-yn_Ana-lleva-el-abrigo.wav,./stim/wavs/mexican_match_interrogative-total-yn_Ana-lleva-el-abrigo.wav,./stim/wavs/peruvian_match_interrogative-total-yn_Ana-lleva-el-abrigo.wav,./stim/wavs/puertorican_match_interrogative-total-yn_Ana-lleva-el-abrigo.wav,,,,,,,,,,,,,,,,,,,,,,,,,,,,,,,,,,,,,,,,,,,,,,,,,,,,,,,,
,,,,,,,6021d935ae778527962c9fd3,6057c54e64b0b4e5c128b4f9,605801bef99c374addd31d36,Spain,East coast,13 or older,no,2021-03-21_22h33.03.861,empathy_intonation_perc,2020.2.10,Win32,60,,,,,,,,,,1,cuban,0,0,1.33569,0,21,21,18,1,19,./stim/wavs/andalusian_match_interrogative-partial-wh_Cuando-lleva-el-abrigo.wav,./stim/wavs/argentine_match_interrogative-partial-wh_Cuando-lleva-el-abrigo.wav,./stim/wavs/castilian_match_interrogative-partial-wh_Cuando-lleva-el-abrigo.wav,./stim/wavs/chilean_match_interrogative-partial-wh_Cuando-lleva-el-abrigo.wav,./stim/wavs/cuban_match_interrogative-partial-wh_Cuando-lleva-el-abrigo.wav,./stim/wavs/mexican_match_interrogative-partial-wh_Cuando-lleva-el-abrigo.wav,./stim/wavs/peruvian_match_interrogative-partial-wh_Cuando-lleva-el-abrigo.wav,./stim/wavs/puertorican_match_interrogative-partial-wh_Cuando-lleva-el-abrigo.wav,,,,,,,,,,,,,,,,,,,,,,,,,,,,,,,,,,,,,,,,,,,,,,,,,,,,,,,,
,,,,,,,6021d935ae778527962c9fd3,6057c54e64b0b4e5c128b4f9,605801bef99c374addd31d36,Spain,East coast,13 or older,no,2021-03-21_22h33.03.861,empathy_intonation_perc,2020.2.10,Win32,60,,,,,,,,,,0,cuban,0,1,1.25059,0,22,22,13,1,14,./stim/wavs/andalusian_match_declarative-narrow-focus_Maria-bebe-el-vino.wav,./stim/wavs/argentine_match_declarative-narrow-focus_Maria-bebe-el-vino.wav,./stim/wavs/castilian_match_declarative-narrow-focus_Maria-bebe-el-vino.wav,./stim/wavs/chilean_match_declarative-narrow-focus_Maria-bebe-el-vino.wav,./stim/wavs/cuban_match_declarative-narrow-focus_Maria-bebe-el-vino.wav,./stim/wavs/mexican_match_declarative-narrow-focus_Maria-bebe-el-vino.wav,./stim/wavs/peruvian_match_declarative-narrow-focus_Maria-bebe-el-vino.wav,./stim/wavs/puertorican_match_declarative-narrow-focus_Maria-bebe-el-vino.wav,,,,,,,,,,,,,,,,,,,,,,,,,,,,,,,,,,,,,,,,,,,,,,,,,,,,,,,,
,,,,,,,6021d935ae778527962c9fd3,6057c54e64b0b4e5c128b4f9,605801bef99c374addd31d36,Spain,East coast,13 or older,no,2021-03-21_22h33.03.861,empathy_intonation_perc,2020.2.10,Win32,60,,,,,,,,,,1,castilian,1,1,1.548995,0,23,23,16,1,17,./stim/wavs/andalusian_match_interrogative-partial-wh_Cuando-bebia-el-vino.wav,./stim/wavs/argentine_match_interrogative-partial-wh_Cuando-bebia-el-vino.wav,./stim/wavs/castilian_match_interrogative-partial-wh_Cuando-bebia-el-vino.wav,./stim/wavs/chilean_match_interrogative-partial-wh_Cuando-bebia-el-vino.wav,./stim/wavs/cuban_match_interrogative-partial-wh_Cuando-bebia-el-vino.wav,./stim/wavs/mexican_match_interrogative-partial-wh_Cuando-bebia-el-vino.wav,./stim/wavs/peruvian_match_interrogative-partial-wh_Cuando-bebia-el-vino.wav,./stim/wavs/puertorican_match_interrogative-partial-wh_Cuando-bebia-el-vino.wav,,,,,,,,,,,,,,,,,,,,,,,,,,,,,,,,,,,,,,,,,,,,,,,,,,,,,,,,
,,,,,,,6021d935ae778527962c9fd3,6057c54e64b0b4e5c128b4f9,605801bef99c374addd31d36,Spain,East coast,13 or older,no,2021-03-21_22h33.03.861,empathy_intonation_perc,2020.2.10,Win32,60,,,,,,,,,,1,puertorican,0,0,1.435445,0,24,24,20,1,21,./stim/wavs/andalusian_match_interrogative-partial-wh_Por-que-abre-el-regalo.wav,./stim/wavs/argentine_match_interrogative-partial-wh_Por-que-abre-el-regalo.wav,./stim/wavs/castilian_match_interrogative-partial-wh_Por-que-abre-el-regalo.wav,./stim/wavs/chilean_match_interrogative-partial-wh_Por-que-abre-el-regalo.wav,./stim/wavs/cuban_match_interrogative-partial-wh_Por-que-abre-el-regalo.wav,./stim/wavs/mexican_match_interrogative-partial-wh_Por-que-abre-el-regalo.wav,./stim/wavs/peruvian_match_interrogative-partial-wh_Por-que-abre-el-regalo.wav,./stim/wavs/puertorican_match_interrogative-partial-wh_Por-que-abre-el-regalo.wav,,,,,,,,,,,,,,,,,,,,,,,,,,,,,,,,,,,,,,,,,,,,,,,,,,,,,,,,
,,,,,,,6021d935ae778527962c9fd3,6057c54e64b0b4e5c128b4f9,605801bef99c374addd31d36,Spain,East coast,13 or older,no,2021-03-21_22h33.03.861,empathy_intonation_perc,2020.2.10,Win32,60,,,,,,,,,,0,mexican,0,1,1.405425,0,25,25,44,1,45,./stim/wavs/andalusian_mismatch_declarative-narrow-focus_La-nina-lava-el-plato.wav,./stim/wavs/argentine_mismatch_declarative-narrow-focus_La-nina-lava-el-plato.wav,./stim/wavs/castilian_mismatch_declarative-narrow-focus_La-nina-lava-el-plato.wav,./stim/wavs/chilean_mismatch_declarative-narrow-focus_La-nina-lava-el-plato.wav,./stim/wavs/cuban_mismatch_declarative-narrow-focus_La-nina-lava-el-plato.wav,./stim/wavs/mexican_mismatch_declarative-narrow-focus_La-nina-lava-el-plato.wav,./stim/wavs/peruvian_mismatch_declarative-narrow-focus_La-nina-lava-el-plato.wav,./stim/wavs/puertorican_mismatch_declarative-narrow-focus_La-nina-lava-el-plato.wav,,,,,,,,,,,,,,,,,,,,,,,,,,,,,,,,,,,,,,,,,,,,,,,,,,,,,,,,
,,,,,,,6021d935ae778527962c9fd3,6057c54e64b0b4e5c128b4f9,605801bef99c374addd31d36,Spain,East coast,13 or older,no,2021-03-21_22h33.03.861,empathy_intonation_perc,2020.2.10,Win32,60,,,,,,,,,,0,puertorican,0,1,1.452445,0,26,26,43,1,44,./stim/wavs/andalusian_mismatch_declarative-narrow-focus_La-maestra-vive-en-Paris.wav,./stim/wavs/argentine_mismatch_declarative-narrow-focus_La-maestra-vive-en-Paris.wav,./stim/wavs/castilian_mismatch_declarative-narrow-focus_La-maestra-vive-en-Paris.wav,./stim/wavs/chilean_mismatch_declarative-narrow-focus_La-maestra-vive-en-Paris.wav,./stim/wavs/cuban_mismatch_declarative-narrow-focus_La-maestra-vive-en-Paris.wav,./stim/wavs/mexican_mismatch_declarative-narrow-focus_La-maestra-vive-en-Paris.wav,./stim/wavs/peruvian_mismatch_declarative-narrow-focus_La-maestra-vive-en-Paris.wav,./stim/wavs/puertorican_mismatch_declarative-narrow-focus_La-maestra-vive-en-Paris.wav,,,,,,,,,,,,,,,,,,,,,,,,,,,,,,,,,,,,,,,,,,,,,,,,,,,,,,,,
,,,,,,,6021d935ae778527962c9fd3,6057c54e64b0b4e5c128b4f9,605801bef99c374addd31d36,Spain,East coast,13 or older,no,2021-03-21_22h33.03.861,empathy_intonation_perc,2020.2.10,Win32,60,,,,,,,,,,0,argentine,0,1,1.568,0,27,27,9,1,10,./stim/wavs/andalusian_match_declarative-narrow-focus_Daniel-iba-a-Bolivia.wav,./stim/wavs/argentine_match_declarative-narrow-focus_Daniel-iba-a-Bolivia.wav,./stim/wavs/castilian_match_declarative-narrow-focus_Daniel-iba-a-Bolivia.wav,./stim/wavs/chilean_match_declarative-narrow-focus_Daniel-iba-a-Bolivia.wav,./stim/wavs/cuban_match_declarative-narrow-focus_Daniel-iba-a-Bolivia.wav,./stim/wavs/mexican_match_declarative-narrow-focus_Daniel-iba-a-Bolivia.wav,./stim/wavs/peruvian_match_declarative-narrow-focus_Daniel-iba-a-Bolivia.wav,./stim/wavs/puertorican_match_declarative-narrow-focus_Daniel-iba-a-Bolivia.wav,,,,,,,,,,,,,,,,,,,,,,,,,,,,,,,,,,,,,,,,,,,,,,,,,,,,,,,,
,,,,,,,6021d935ae778527962c9fd3,6057c54e64b0b4e5c128b4f9,605801bef99c374addd31d36,Spain,East coast,13 or older,no,2021-03-21_22h33.03.861,empathy_intonation_perc,2020.2.10,Win32,60,,,,,,,,,,0,mexican,0,1,1.68722,0,28,28,35,1,36,./stim/wavs/andalusian_mismatch_declarative-broad-focus_La-maestra-vive-en-Paris.wav,./stim/wavs/argentine_mismatch_declarative-broad-focus_La-maestra-vive-en-Paris.wav,./stim/wavs/castilian_mismatch_declarative-broad-focus_La-maestra-vive-en-Paris.wav,./stim/wavs/chilean_mismatch_declarative-broad-focus_La-maestra-vive-en-Paris.wav,./stim/wavs/cuban_mismatch_declarative-broad-focus_La-maestra-vive-en-Paris.wav,./stim/wavs/mexican_mismatch_declarative-broad-focus_La-maestra-vive-en-Paris.wav,./stim/wavs/peruvian_mismatch_declarative-broad-focus_La-maestra-vive-en-Paris.wav,./stim/wavs/puertorican_mismatch_declarative-broad-focus_La-maestra-vive-en-Paris.wav,,,,,,,,,,,,,,,,,,,,,,,,,,,,,,,,,,,,,,,,,,,,,,,,,,,,,,,,
,,,,,,,6021d935ae778527962c9fd3,6057c54e64b0b4e5c128b4f9,605801bef99c374addd31d36,Spain,East coast,13 or older,no,2021-03-21_22h33.03.861,empathy_intonation_perc,2020.2.10,Win32,60,,,,,,,,,,1,puertorican,0,0,1.363025,0,29,29,21,1,22,./stim/wavs/andalusian_match_interrogative-partial-wh_Por-que-ama-la-navidad.wav,./stim/wavs/argentine_match_interrogative-partial-wh_Por-que-ama-la-navidad.wav,./stim/wavs/castilian_match_interrogative-partial-wh_Por-que-ama-la-navidad.wav,./stim/wavs/chilean_match_interrogative-partial-wh_Por-que-ama-la-navidad.wav,./stim/wavs/cuban_match_interrogative-partial-wh_Por-que-ama-la-navidad.wav,./stim/wavs/mexican_match_interrogative-partial-wh_Por-que-ama-la-navidad.wav,./stim/wavs/peruvian_match_interrogative-partial-wh_Por-que-ama-la-navidad.wav,./stim/wavs/puertorican_match_interrogative-partial-wh_Por-que-ama-la-navidad.wav,,,,,,,,,,,,,,,,,,,,,,,,,,,,,,,,,,,,,,,,,,,,,,,,,,,,,,,,
,,,,,,,6021d935ae778527962c9fd3,6057c54e64b0b4e5c128b4f9,605801bef99c374addd31d36,Spain,East coast,13 or older,no,2021-03-21_22h33.03.861,empathy_intonation_perc,2020.2.10,Win32,60,,,,,,,,,,0,peruvian,0,1,1.605955,0,30,30,33,1,34,./stim/wavs/andalusian_mismatch_declarative-broad-focus_El-hombre-mira-la-luna.wav,./stim/wavs/argentine_mismatch_declarative-broad-focus_El-hombre-mira-la-luna.wav,./stim/wavs/castilian_mismatch_declarative-broad-focus_El-hombre-mira-la-luna.wav,./stim/wavs/chilean_mismatch_declarative-broad-focus_El-hombre-mira-la-luna.wav,./stim/wavs/cuban_mismatch_declarative-broad-focus_El-hombre-mira-la-luna.wav,./stim/wavs/mexican_mismatch_declarative-broad-focus_El-hombre-mira-la-luna.wav,./stim/wavs/peruvian_mismatch_declarative-broad-focus_El-hombre-mira-la-luna.wav,./stim/wavs/puertorican_mismatch_declarative-broad-focus_El-hombre-mira-la-luna.wav,,,,,,,,,,,,,,,,,,,,,,,,,,,,,,,,,,,,,,,,,,,,,,,,,,,,,,,,
,,,,,,,6021d935ae778527962c9fd3,6057c54e64b0b4e5c128b4f9,605801bef99c374addd31d36,Spain,East coast,13 or older,no,2021-03-21_22h33.03.861,empathy_intonation_perc,2020.2.10,Win32,60,,,,,,,,,,1,mexican,1,1,1.58406,0,31,31,49,1,50,./stim/wavs/andalusian_mismatch_interrogative-partial-wh_Cuando-lavaba-el-plato.wav,./stim/wavs/argentine_mismatch_interrogative-partial-wh_Cuando-lavaba-el-plato.wav,./stim/wavs/castilian_mismatch_interrogative-partial-wh_Cuando-lavaba-el-plato.wav,./stim/wavs/chilean_mismatch_interrogative-partial-wh_Cuando-lavaba-el-plato.wav,./stim/wavs/cuban_mismatch_interrogative-partial-wh_Cuando-lavaba-el-plato.wav,./stim/wavs/mexican_mismatch_interrogative-partial-wh_Cuando-lavaba-el-plato.wav,./stim/wavs/peruvian_mismatch_interrogative-partial-wh_Cuando-lavaba-el-plato.wav,./stim/wavs/puertorican_mismatch_interrogative-partial-wh_Cuando-lavaba-el-plato.wav,,,,,,,,,,,,,,,,,,,,,,,,,,,,,,,,,,,,,,,,,,,,,,,,,,,,,,,,
,,,,,,,6021d935ae778527962c9fd3,6057c54e64b0b4e5c128b4f9,605801bef99c374addd31d36,Spain,East coast,13 or older,no,2021-03-21_22h33.03.861,empathy_intonation_perc,2020.2.10,Win32,60,,,,,,,,,,1,andalusian,1,1,1.62793,0,32,32,52,1,53,./stim/wavs/andalusian_mismatch_interrogative-partial-wh_Por-que-odiaba-la-lluvia.wav,./stim/wavs/argentine_mismatch_interrogative-partial-wh_Por-que-odiaba-la-lluvia.wav,./stim/wavs/castilian_mismatch_interrogative-partial-wh_Por-que-odiaba-la-lluvia.wav,./stim/wavs/chilean_mismatch_interrogative-partial-wh_Por-que-odiaba-la-lluvia.wav,./stim/wavs/cuban_mismatch_interrogative-partial-wh_Por-que-odiaba-la-lluvia.wav,./stim/wavs/mexican_mismatch_interrogative-partial-wh_Por-que-odiaba-la-lluvia.wav,./stim/wavs/peruvian_mismatch_interrogative-partial-wh_Por-que-odiaba-la-lluvia.wav,./stim/wavs/puertorican_mismatch_interrogative-partial-wh_Por-que-odiaba-la-lluvia.wav,,,,,,,,,,,,,,,,,,,,,,,,,,,,,,,,,,,,,,,,,,,,,,,,,,,,,,,,
,,,,,,,6021d935ae778527962c9fd3,6057c54e64b0b4e5c128b4f9,605801bef99c374addd31d36,Spain,East coast,13 or older,no,2021-03-21_22h33.03.861,empathy_intonation_perc,2020.2.10,Win32,60,,,,,,,,,,1,andalusian,1,1,1.55107,0,33,33,23,1,24,./stim/wavs/andalusian_match_interrogative-partial-wh_Por-que-iba-a-Bolivia.wav,./stim/wavs/argentine_match_interrogative-partial-wh_Por-que-iba-a-Bolivia.wav,./stim/wavs/castilian_match_interrogative-partial-wh_Por-que-iba-a-Bolivia.wav,./stim/wavs/chilean_match_interrogative-partial-wh_Por-que-iba-a-Bolivia.wav,./stim/wavs/cuban_match_interrogative-partial-wh_Por-que-iba-a-Bolivia.wav,./stim/wavs/mexican_match_interrogative-partial-wh_Por-que-iba-a-Bolivia.wav,./stim/wavs/peruvian_match_interrogative-partial-wh_Por-que-iba-a-Bolivia.wav,./stim/wavs/puertorican_match_interrogative-partial-wh_Por-que-iba-a-Bolivia.wav,,,,,,,,,,,,,,,,,,,,,,,,,,,,,,,,,,,,,,,,,,,,,,,,,,,,,,,,
,,,,,,,6021d935ae778527962c9fd3,6057c54e64b0b4e5c128b4f9,605801bef99c374addd31d36,Spain,East coast,13 or older,no,2021-03-21_22h33.03.861,empathy_intonation_perc,2020.2.10,Win32,60,,,,,,,,,,1,peruvian,1,1,1.93132,0,34,34,22,1,23,./stim/wavs/andalusian_match_interrogative-partial-wh_Por-que-hablaba-del-agua.wav,./stim/wavs/argentine_match_interrogative-partial-wh_Por-que-hablaba-del-agua.wav,./stim/wavs/castilian_match_interrogative-partial-wh_Por-que-hablaba-del-agua.wav,./stim/wavs/chilean_match_interrogative-partial-wh_Por-que-hablaba-del-agua.wav,./stim/wavs/cuban_match_interrogative-partial-wh_Por-que-hablaba-del-agua.wav,./stim/wavs/mexican_match_interrogative-partial-wh_Por-que-hablaba-del-agua.wav,./stim/wavs/peruvian_match_interrogative-partial-wh_Por-que-hablaba-del-agua.wav,./stim/wavs/puertorican_match_interrogative-partial-wh_Por-que-hablaba-del-agua.wav,,,,,,,,,,,,,,,,,,,,,,,,,,,,,,,,,,,,,,,,,,,,,,,,,,,,,,,,
,,,,,,,6021d935ae778527962c9fd3,6057c54e64b0b4e5c128b4f9,605801bef99c374addd31d36,Spain,East coast,13 or older,no,2021-03-21_22h33.03.861,empathy_intonation_perc,2020.2.10,Win32,60,,,,,,,,,,0,argentine,0,1,1.650515,0,35,35,36,1,37,./stim/wavs/andalusian_mismatch_declarative-broad-focus_La-nina-lava-el-plato.wav,./stim/wavs/argentine_mismatch_declarative-broad-focus_La-nina-lava-el-plato.wav,./stim/wavs/castilian_mismatch_declarative-broad-focus_La-nina-lava-el-plato.wav,./stim/wavs/chilean_mismatch_declarative-broad-focus_La-nina-lava-el-plato.wav,./stim/wavs/cuban_mismatch_declarative-broad-focus_La-nina-lava-el-plato.wav,./stim/wavs/mexican_mismatch_declarative-broad-focus_La-nina-lava-el-plato.wav,./stim/wavs/peruvian_mismatch_declarative-broad-focus_La-nina-lava-el-plato.wav,./stim/wavs/puertorican_mismatch_declarative-broad-focus_La-nina-lava-el-plato.wav,,,,,,,,,,,,,,,,,,,,,,,,,,,,,,,,,,,,,,,,,,,,,,,,,,,,,,,,
,,,,,,,6021d935ae778527962c9fd3,6057c54e64b0b4e5c128b4f9,605801bef99c374addd31d36,Spain,East coast,13 or older,no,2021-03-21_22h33.03.861,empathy_intonation_perc,2020.2.10,Win32,60,,,,,,,,,,1,mexican,1,1,1.78897,0,36,36,28,1,29,./stim/wavs/andalusian_match_interrogative-total-yn_Manuela-vende-el-carro.wav,./stim/wavs/argentine_match_interrogative-total-yn_Manuela-vende-el-carro.wav,./stim/wavs/castilian_match_interrogative-total-yn_Manuela-vende-el-carro.wav,./stim/wavs/chilean_match_interrogative-total-yn_Manuela-vende-el-carro.wav,./stim/wavs/cuban_match_interrogative-total-yn_Manuela-vende-el-carro.wav,./stim/wavs/mexican_match_interrogative-total-yn_Manuela-vende-el-carro.wav,./stim/wavs/peruvian_match_interrogative-total-yn_Manuela-vende-el-carro.wav,./stim/wavs/puertorican_match_interrogative-total-yn_Manuela-vende-el-carro.wav,,,,,,,,,,,,,,,,,,,,,,,,,,,,,,,,,,,,,,,,,,,,,,,,,,,,,,,,
,,,,,,,6021d935ae778527962c9fd3,6057c54e64b0b4e5c128b4f9,605801bef99c374addd31d36,Spain,East coast,13 or older,no,2021-03-21_22h33.03.861,empathy_intonation_perc,2020.2.10,Win32,60,,,,,,,,,,1,puertorican,0,0,2.015925,0,37,37,55,1,56,./stim/wavs/andalusian_mismatch_interrogative-partial-wh_Por-que-vivia-en-Paris.wav,./stim/wavs/argentine_mismatch_interrogative-partial-wh_Por-que-vivia-en-Paris.wav,./stim/wavs/castilian_mismatch_interrogative-partial-wh_Por-que-vivia-en-Paris.wav,./stim/wavs/chilean_mismatch_interrogative-partial-wh_Por-que-vivia-en-Paris.wav,./stim/wavs/cuban_mismatch_interrogative-partial-wh_Por-que-vivia-en-Paris.wav,./stim/wavs/mexican_mismatch_interrogative-partial-wh_Por-que-vivia-en-Paris.wav,./stim/wavs/peruvian_mismatch_interrogative-partial-wh_Por-que-vivia-en-Paris.wav,./stim/wavs/puertorican_mismatch_interrogative-partial-wh_Por-que-vivia-en-Paris.wav,,,,,,,,,,,,,,,,,,,,,,,,,,,,,,,,,,,,,,,,,,,,,,,,,,,,,,,,
,,,,,,,6021d935ae778527962c9fd3,6057c54e64b0b4e5c128b4f9,605801bef99c374addd31d36,Spain,East coast,13 or older,no,2021-03-21_22h33.03.861,empathy_intonation_perc,2020.2.10,Win32,60,,,,,,,,,,0,castilian,0,1,1.70037,0,38,38,45,1,46,./stim/wavs/andalusian_mismatch_declarative-narrow-focus_Mi-madre-come-la-fruta.wav,./stim/wavs/argentine_mismatch_declarative-narrow-focus_Mi-madre-come-la-fruta.wav,./stim/wavs/castilian_mismatch_declarative-narrow-focus_Mi-madre-come-la-fruta.wav,./stim/wavs/chilean_mismatch_declarative-narrow-focus_Mi-madre-come-la-fruta.wav,./stim/wavs/cuban_mismatch_declarative-narrow-focus_Mi-madre-come-la-fruta.wav,./stim/wavs/mexican_mismatch_declarative-narrow-focus_Mi-madre-come-la-fruta.wav,./stim/wavs/peruvian_mismatch_declarative-narrow-focus_Mi-madre-come-la-fruta.wav,./stim/wavs/puertorican_mismatch_declarative-narrow-focus_Mi-madre-come-la-fruta.wav,,,,,,,,,,,,,,,,,,,,,,,,,,,,,,,,,,,,,,,,,,,,,,,,,,,,,,,,
,,,,,,,6021d935ae778527962c9fd3,6057c54e64b0b4e5c128b4f9,605801bef99c374addd31d36,Spain,East coast,13 or older,no,2021-03-21_22h33.03.861,empathy_intonation_perc,2020.2.10,Win32,60,,,,,,,,,,1,mexican,1,1,1.315885,0,39,39,17,1,18,./stim/wavs/andalusian_match_interrogative-partial-wh_Cuando-leia-el-libro.wav,./stim/wavs/argentine_match_interrogative-partial-wh_Cuando-leia-el-libro.wav,./stim/wavs/castilian_match_interrogative-partial-wh_Cuando-leia-el-libro.wav,./stim/wavs/chilean_match_interrogative-partial-wh_Cuando-leia-el-libro.wav,./stim/wavs/cuban_match_interrogative-partial-wh_Cuando-leia-el-libro.wav,./stim/wavs/mexican_match_interrogative-partial-wh_Cuando-leia-el-libro.wav,./stim/wavs/peruvian_match_interrogative-partial-wh_Cuando-leia-el-libro.wav,./stim/wavs/puertorican_match_interrogative-partial-wh_Cuando-leia-el-libro.wav,,,,,,,,,,,,,,,,,,,,,,,,,,,,,,,,,,,,,,,,,,,,,,,,,,,,,,,,
,,,,,,,6021d935ae778527962c9fd3,6057c54e64b0b4e5c128b4f9,605801bef99c374addd31d36,Spain,East coast,13 or older,no,2021-03-21_22h33.03.861,empathy_intonation_perc,2020.2.10,Win32,60,,,,,,,,,,1,chilean,0,0,1.41638,0,40,40,61,1,62,./stim/wavs/andalusian_mismatch_interrogative-total-yn_Mi-madre-come-la-fruta.wav,./stim/wavs/argentine_mismatch_interrogative-total-yn_Mi-madre-come-la-fruta.wav,./stim/wavs/castilian_mismatch_interrogative-total-yn_Mi-madre-come-la-fruta.wav,./stim/wavs/chilean_mismatch_interrogative-total-yn_Mi-madre-come-la-fruta.wav,./stim/wavs/cuban_mismatch_interrogative-total-yn_Mi-madre-come-la-fruta.wav,./stim/wavs/mexican_mismatch_interrogative-total-yn_Mi-madre-come-la-fruta.wav,./stim/wavs/peruvian_mismatch_interrogative-total-yn_Mi-madre-come-la-fruta.wav,./stim/wavs/puertorican_mismatch_interrogative-total-yn_Mi-madre-come-la-fruta.wav,,,,,,,,,,,,,,,,,,,,,,,,,,,,,,,,,,,,,,,,,,,,,,,,,,,,,,,,
,,,,,,,6021d935ae778527962c9fd3,6057c54e64b0b4e5c128b4f9,605801bef99c374addd31d36,Spain,East coast,13 or older,no,2021-03-21_22h33.03.861,empathy_intonation_perc,2020.2.10,Win32,60,,,,,,,,,,1,puertorican,1,1,1.467215,0,41,41,57,1,58,./stim/wavs/andalusian_mismatch_interrogative-total-yn_El-hombre-mira-la-luna.wav,./stim/wavs/argentine_mismatch_interrogative-total-yn_El-hombre-mira-la-luna.wav,./stim/wavs/castilian_mismatch_interrogative-total-yn_El-hombre-mira-la-luna.wav,./stim/wavs/chilean_mismatch_interrogative-total-yn_El-hombre-mira-la-luna.wav,./stim/wavs/cuban_mismatch_interrogative-total-yn_El-hombre-mira-la-luna.wav,./stim/wavs/mexican_mismatch_interrogative-total-yn_El-hombre-mira-la-luna.wav,./stim/wavs/peruvian_mismatch_interrogative-total-yn_El-hombre-mira-la-luna.wav,./stim/wavs/puertorican_mismatch_interrogative-total-yn_El-hombre-mira-la-luna.wav,,,,,,,,,,,,,,,,,,,,,,,,,,,,,,,,,,,,,,,,,,,,,,,,,,,,,,,,
,,,,,,,6021d935ae778527962c9fd3,6057c54e64b0b4e5c128b4f9,605801bef99c374addd31d36,Spain,East coast,13 or older,no,2021-03-21_22h33.03.861,empathy_intonation_perc,2020.2.10,Win32,60,,,,,,,,,,0,andalusian,0,1,1.68217,0,42,42,0,1,1,./stim/wavs/andalusian_match_declarative-broad-focus_Ana-lleva-el-abrigo.wav,./stim/wavs/argentine_match_declarative-broad-focus_Ana-lleva-el-abrigo.wav,./stim/wavs/castilian_match_declarative-broad-focus_Ana-lleva-el-abrigo.wav,./stim/wavs/chilean_match_declarative-broad-focus_Ana-lleva-el-abrigo.wav,./stim/wavs/cuban_match_declarative-broad-focus_Ana-lleva-el-abrigo.wav,./stim/wavs/mexican_match_declarative-broad-focus_Ana-lleva-el-abrigo.wav,./stim/wavs/peruvian_match_declarative-broad-focus_Ana-lleva-el-abrigo.wav,./stim/wavs/puertorican_match_declarative-broad-focus_Ana-lleva-el-abrigo.wav,,,,,,,,,,,,,,,,,,,,,,,,,,,,,,,,,,,,,,,,,,,,,,,,,,,,,,,,
,,,,,,,6021d935ae778527962c9fd3,6057c54e64b0b4e5c128b4f9,605801bef99c374addd31d36,Spain,East coast,13 or older,no,2021-03-21_22h33.03.861,empathy_intonation_perc,2020.2.10,Win32,60,,,,,,,,,,1,cuban,1,1,1.21781,0,43,43,48,1,49,./stim/wavs/andalusian_mismatch_interrogative-partial-wh_Cuando-comia-la-fruta.wav,./stim/wavs/argentine_mismatch_interrogative-partial-wh_Cuando-comia-la-fruta.wav,./stim/wavs/castilian_mismatch_interrogative-partial-wh_Cuando-comia-la-fruta.wav,./stim/wavs/chilean_mismatch_interrogative-partial-wh_Cuando-comia-la-fruta.wav,./stim/wavs/cuban_mismatch_interrogative-partial-wh_Cuando-comia-la-fruta.wav,./stim/wavs/mexican_mismatch_interrogative-partial-wh_Cuando-comia-la-fruta.wav,./stim/wavs/peruvian_mismatch_interrogative-partial-wh_Cuando-comia-la-fruta.wav,./stim/wavs/puertorican_mismatch_interrogative-partial-wh_Cuando-comia-la-fruta.wav,,,,,,,,,,,,,,,,,,,,,,,,,,,,,,,,,,,,,,,,,,,,,,,,,,,,,,,,
,,,,,,,6021d935ae778527962c9fd3,6057c54e64b0b4e5c128b4f9,605801bef99c374addd31d36,Spain,East coast,13 or older,no,2021-03-21_22h33.03.861,empathy_intonation_perc,2020.2.10,Win32,60,,,,,,,,,,0,mexican,0,1,1.13486,0,44,44,8,1,9,./stim/wavs/andalusian_match_declarative-narrow-focus_Ana-lleva-el-abrigo.wav,./stim/wavs/argentine_match_declarative-narrow-focus_Ana-lleva-el-abrigo.wav,./stim/wavs/castilian_match_declarative-narrow-focus_Ana-lleva-el-abrigo.wav,./stim/wavs/chilean_match_declarative-narrow-focus_Ana-lleva-el-abrigo.wav,./stim/wavs/cuban_match_declarative-narrow-focus_Ana-lleva-el-abrigo.wav,./stim/wavs/mexican_match_declarative-narrow-focus_Ana-lleva-el-abrigo.wav,./stim/wavs/peruvian_match_declarative-narrow-focus_Ana-lleva-el-abrigo.wav,./stim/wavs/puertorican_match_declarative-narrow-focus_Ana-lleva-el-abrigo.wav,,,,,,,,,,,,,,,,,,,,,,,,,,,,,,,,,,,,,,,,,,,,,,,,,,,,,,,,
,,,,,,,6021d935ae778527962c9fd3,6057c54e64b0b4e5c128b4f9,605801bef99c374addd31d36,Spain,East coast,13 or older,no,2021-03-21_22h33.03.861,empathy_intonation_perc,2020.2.10,Win32,60,,,,,,,,,,1,peruvian,0,0,2.975425,0,45,45,51,1,52,./stim/wavs/andalusian_mismatch_interrogative-partial-wh_Por-que-desayuna-muy-bien.wav,./stim/wavs/argentine_mismatch_interrogative-partial-wh_Por-que-desayuna-muy-bien.wav,./stim/wavs/castilian_mismatch_interrogative-partial-wh_Por-que-desayuna-muy-bien.wav,./stim/wavs/chilean_mismatch_interrogative-partial-wh_Por-que-desayuna-muy-bien.wav,./stim/wavs/cuban_mismatch_interrogative-partial-wh_Por-que-desayuna-muy-bien.wav,./stim/wavs/mexican_mismatch_interrogative-partial-wh_Por-que-desayuna-muy-bien.wav,./stim/wavs/peruvian_mismatch_interrogative-partial-wh_Por-que-desayuna-muy-bien.wav,./stim/wavs/puertorican_mismatch_interrogative-partial-wh_Por-que-desayuna-muy-bien.wav,,,,,,,,,,,,,,,,,,,,,,,,,,,,,,,,,,,,,,,,,,,,,,,,,,,,,,,,
,,,,,,,6021d935ae778527962c9fd3,6057c54e64b0b4e5c128b4f9,605801bef99c374addd31d36,Spain,East coast,13 or older,no,2021-03-21_22h33.03.861,empathy_intonation_perc,2020.2.10,Win32,60,,,,,,,,,,1,andalusian,0,0,2.713855,0,46,46,53,1,54,./stim/wavs/andalusian_mismatch_interrogative-partial-wh_Por-que-oia-el-rio.wav,./stim/wavs/argentine_mismatch_interrogative-partial-wh_Por-que-oia-el-rio.wav,./stim/wavs/castilian_mismatch_interrogative-partial-wh_Por-que-oia-el-rio.wav,./stim/wavs/chilean_mismatch_interrogative-partial-wh_Por-que-oia-el-rio.wav,./stim/wavs/cuban_mismatch_interrogative-partial-wh_Por-que-oia-el-rio.wav,./stim/wavs/mexican_mismatch_interrogative-partial-wh_Por-que-oia-el-rio.wav,./stim/wavs/peruvian_mismatch_interrogative-partial-wh_Por-que-oia-el-rio.wav,./stim/wavs/puertorican_mismatch_interrogative-partial-wh_Por-que-oia-el-rio.wav,,,,,,,,,,,,,,,,,,,,,,,,,,,,,,,,,,,,,,,,,,,,,,,,,,,,,,,,
,,,,,,,6021d935ae778527962c9fd3,6057c54e64b0b4e5c128b4f9,605801bef99c374addd31d36,Spain,East coast,13 or older,no,2021-03-21_22h33.03.861,empathy_intonation_perc,2020.2.10,Win32,60,,,,,,,,,,0,mexican,0,1,1.336645,0,47,47,11,1,12,./stim/wavs/andalusian_match_declarative-narrow-focus_Emilio-ama-la-marcha.wav,./stim/wavs/argentine_match_declarative-narrow-focus_Emilio-ama-la-marcha.wav,./stim/wavs/castilian_match_declarative-narrow-focus_Emilio-ama-la-marcha.wav,./stim/wavs/chilean_match_declarative-narrow-focus_Emilio-ama-la-marcha.wav,./stim/wavs/cuban_match_declarative-narrow-focus_Emilio-ama-la-marcha.wav,./stim/wavs/mexican_match_declarative-narrow-focus_Emilio-ama-la-marcha.wav,./stim/wavs/peruvian_match_declarative-narrow-focus_Emilio-ama-la-marcha.wav,./stim/wavs/puertorican_match_declarative-narrow-focus_Emilio-ama-la-marcha.wav,,,,,,,,,,,,,,,,,,,,,,,,,,,,,,,,,,,,,,,,,,,,,,,,,,,,,,,,
,,,,,,,6021d935ae778527962c9fd3,6057c54e64b0b4e5c128b4f9,605801bef99c374addd31d36,Spain,East coast,13 or older,no,2021-03-21_22h33.03.861,empathy_intonation_perc,2020.2.10,Win32,60,,,,,,,,,,0,cuban,0,1,1.43568,0,48,48,12,1,13,./stim/wavs/andalusian_match_declarative-narrow-focus_Manuela-vende-el-carro.wav,./stim/wavs/argentine_match_declarative-narrow-focus_Manuela-vende-el-carro.wav,./stim/wavs/castilian_match_declarative-narrow-focus_Manuela-vende-el-carro.wav,./stim/wavs/chilean_match_declarative-narrow-focus_Manuela-vende-el-carro.wav,./stim/wavs/cuban_match_declarative-narrow-focus_Manuela-vende-el-carro.wav,./stim/wavs/mexican_match_declarative-narrow-focus_Manuela-vende-el-carro.wav,./stim/wavs/peruvian_match_declarative-narrow-focus_Manuela-vende-el-carro.wav,./stim/wavs/puertorican_match_declarative-narrow-focus_Manuela-vende-el-carro.wav,,,,,,,,,,,,,,,,,,,,,,,,,,,,,,,,,,,,,,,,,,,,,,,,,,,,,,,,
,,,,,,,6021d935ae778527962c9fd3,6057c54e64b0b4e5c128b4f9,605801bef99c374addd31d36,Spain,East coast,13 or older,no,2021-03-21_22h33.03.861,empathy_intonation_perc,2020.2.10,Win32,60,,,,,,,,,,1,puertorican,0,0,1.718665,0,49,49,50,1,51,./stim/wavs/andalusian_mismatch_interrogative-partial-wh_Cuando-miraba-la-luna.wav,./stim/wavs/argentine_mismatch_interrogative-partial-wh_Cuando-miraba-la-luna.wav,./stim/wavs/castilian_mismatch_interrogative-partial-wh_Cuando-miraba-la-luna.wav,./stim/wavs/chilean_mismatch_interrogative-partial-wh_Cuando-miraba-la-luna.wav,./stim/wavs/cuban_mismatch_interrogative-partial-wh_Cuando-miraba-la-luna.wav,./stim/wavs/mexican_mismatch_interrogative-partial-wh_Cuando-miraba-la-luna.wav,./stim/wavs/peruvian_mismatch_interrogative-partial-wh_Cuando-miraba-la-luna.wav,./stim/wavs/puertorican_mismatch_interrogative-partial-wh_Cuando-miraba-la-luna.wav,,,,,,,,,,,,,,,,,,,,,,,,,,,,,,,,,,,,,,,,,,,,,,,,,,,,,,,,
,,,,,,,6021d935ae778527962c9fd3,6057c54e64b0b4e5c128b4f9,605801bef99c374addd31d36,Spain,East coast,13 or older,no,2021-03-21_22h33.03.861,empathy_intonation_perc,2020.2.10,Win32,60,,,,,,,,,,1,andalusian,1,1,1.487435,0,50,50,29,1,30,./stim/wavs/andalusian_match_interrogative-total-yn_Maria-bebe-el-vino.wav,./stim/wavs/argentine_match_interrogative-total-yn_Maria-bebe-el-vino.wav,./stim/wavs/castilian_match_interrogative-total-yn_Maria-bebe-el-vino.wav,./stim/wavs/chilean_match_interrogative-total-yn_Maria-bebe-el-vino.wav,./stim/wavs/cuban_match_interrogative-total-yn_Maria-bebe-el-vino.wav,./stim/wavs/mexican_match_interrogative-total-yn_Maria-bebe-el-vino.wav,./stim/wavs/peruvian_match_interrogative-total-yn_Maria-bebe-el-vino.wav,./stim/wavs/puertorican_match_interrogative-total-yn_Maria-bebe-el-vino.wav,,,,,,,,,,,,,,,,,,,,,,,,,,,,,,,,,,,,,,,,,,,,,,,,,,,,,,,,
,,,,,,,6021d935ae778527962c9fd3,6057c54e64b0b4e5c128b4f9,605801bef99c374addd31d36,Spain,East coast,13 or older,no,2021-03-21_22h33.03.861,empathy_intonation_perc,2020.2.10,Win32,60,,,,,,,,,,0,mexican,0,1,1.671695,0,51,51,41,1,42,./stim/wavs/andalusian_mismatch_declarative-narrow-focus_El-hombre-mira-la-luna.wav,./stim/wavs/argentine_mismatch_declarative-narrow-focus_El-hombre-mira-la-luna.wav,./stim/wavs/castilian_mismatch_declarative-narrow-focus_El-hombre-mira-la-luna.wav,./stim/wavs/chilean_mismatch_declarative-narrow-focus_El-hombre-mira-la-luna.wav,./stim/wavs/cuban_mismatch_declarative-narrow-focus_El-hombre-mira-la-luna.wav,./stim/wavs/mexican_mismatch_declarative-narrow-focus_El-hombre-mira-la-luna.wav,./stim/wavs/peruvian_mismatch_declarative-narrow-focus_El-hombre-mira-la-luna.wav,./stim/wavs/puertorican_mismatch_declarative-narrow-focus_El-hombre-mira-la-luna.wav,,,,,,,,,,,,,,,,,,,,,,,,,,,,,,,,,,,,,,,,,,,,,,,,,,,,,,,,
,,,,,,,6021d935ae778527962c9fd3,6057c54e64b0b4e5c128b4f9,605801bef99c374addd31d36,Spain,East coast,13 or older,no,2021-03-21_22h33.03.861,empathy_intonation_perc,2020.2.10,Win32,60,,,,,,,,,,1,puertorican,0,0,1.73633,0,52,52,30,1,31,./stim/wavs/andalusian_match_interrogative-total-yn_Mariano-habla-del-tiempo.wav,./stim/wavs/argentine_match_interrogative-total-yn_Mariano-habla-del-tiempo.wav,./stim/wavs/castilian_match_interrogative-total-yn_Mariano-habla-del-tiempo.wav,./stim/wavs/chilean_match_interrogative-total-yn_Mariano-habla-del-tiempo.wav,./stim/wavs/cuban_match_interrogative-total-yn_Mariano-habla-del-tiempo.wav,./stim/wavs/mexican_match_interrogative-total-yn_Mariano-habla-del-tiempo.wav,./stim/wavs/peruvian_match_interrogative-total-yn_Mariano-habla-del-tiempo.wav,./stim/wavs/puertorican_match_interrogative-total-yn_Mariano-habla-del-tiempo.wav,,,,,,,,,,,,,,,,,,,,,,,,,,,,,,,,,,,,,,,,,,,,,,,,,,,,,,,,
,,,,,,,6021d935ae778527962c9fd3,6057c54e64b0b4e5c128b4f9,605801bef99c374addd31d36,Spain,East coast,13 or older,no,2021-03-21_22h33.03.861,empathy_intonation_perc,2020.2.10,Win32,60,,,,,,,,,,0,castilian,0,1,1.82656,0,53,53,4,1,5,./stim/wavs/andalusian_match_declarative-broad-focus_Manuela-vende-el-carro.wav,./stim/wavs/argentine_match_declarative-broad-focus_Manuela-vende-el-carro.wav,./stim/wavs/castilian_match_declarative-broad-focus_Manuela-vende-el-carro.wav,./stim/wavs/chilean_match_declarative-broad-focus_Manuela-vende-el-carro.wav,./stim/wavs/cuban_match_declarative-broad-focus_Manuela-vende-el-carro.wav,./stim/wavs/mexican_match_declarative-broad-focus_Manuela-vende-el-carro.wav,./stim/wavs/peruvian_match_declarative-broad-focus_Manuela-vende-el-carro.wav,./stim/wavs/puertorican_match_declarative-broad-focus_Manuela-vende-el-carro.wav,,,,,,,,,,,,,,,,,,,,,,,,,,,,,,,,,,,,,,,,,,,,,,,,,,,,,,,,
,,,,,,,6021d935ae778527962c9fd3,6057c54e64b0b4e5c128b4f9,605801bef99c374addd31d36,Spain,East coast,13 or older,no,2021-03-21_22h33.03.861,empathy_intonation_perc,2020.2.10,Win32,60,,,,,,,,,,0,andalusian,0,1,1.653235,0,54,54,7,1,8,./stim/wavs/andalusian_match_declarative-broad-focus_Marta-abre-el-regalo.wav,./stim/wavs/argentine_match_declarative-broad-focus_Marta-abre-el-regalo.wav,./stim/wavs/castilian_match_declarative-broad-focus_Marta-abre-el-regalo.wav,./stim/wavs/chilean_match_declarative-broad-focus_Marta-abre-el-regalo.wav,./stim/wavs/cuban_match_declarative-broad-focus_Marta-abre-el-regalo.wav,./stim/wavs/mexican_match_declarative-broad-focus_Marta-abre-el-regalo.wav,./stim/wavs/peruvian_match_declarative-broad-focus_Marta-abre-el-regalo.wav,./stim/wavs/puertorican_match_declarative-broad-focus_Marta-abre-el-regalo.wav,,,,,,,,,,,,,,,,,,,,,,,,,,,,,,,,,,,,,,,,,,,,,,,,,,,,,,,,
,,,,,,,6021d935ae778527962c9fd3,6057c54e64b0b4e5c128b4f9,605801bef99c374addd31d36,Spain,East coast,13 or older,no,2021-03-21_22h33.03.861,empathy_intonation_perc,2020.2.10,Win32,60,,,,,,,,,,0,peruvian,0,1,1.60385,0,55,55,39,1,40,./stim/wavs/andalusian_mismatch_declarative-broad-focus_Mi-tia-odia-la-lluvia.wav,./stim/wavs/argentine_mismatch_declarative-broad-focus_Mi-tia-odia-la-lluvia.wav,./stim/wavs/castilian_mismatch_declarative-broad-focus_Mi-tia-odia-la-lluvia.wav,./stim/wavs/chilean_mismatch_declarative-broad-focus_Mi-tia-odia-la-lluvia.wav,./stim/wavs/cuban_mismatch_declarative-broad-focus_Mi-tia-odia-la-lluvia.wav,./stim/wavs/mexican_mismatch_declarative-broad-focus_Mi-tia-odia-la-lluvia.wav,./stim/wavs/peruvian_mismatch_declarative-broad-focus_Mi-tia-odia-la-lluvia.wav,./stim/wavs/puertorican_mismatch_declarative-broad-focus_Mi-tia-odia-la-lluvia.wav,,,,,,,,,,,,,,,,,,,,,,,,,,,,,,,,,,,,,,,,,,,,,,,,,,,,,,,,
,,,,,,,6021d935ae778527962c9fd3,6057c54e64b0b4e5c128b4f9,605801bef99c374addd31d36,Spain,East coast,13 or older,no,2021-03-21_22h33.03.861,empathy_intonation_perc,2020.2.10,Win32,60,,,,,,,,,,0,andalusian,0,1,2.100225,0,56,56,34,1,35,./stim/wavs/andalusian_mismatch_declarative-broad-focus_El-nino-oye-el-rio.wav,./stim/wavs/argentine_mismatch_declarative-broad-focus_El-nino-oye-el-rio.wav,./stim/wavs/castilian_mismatch_declarative-broad-focus_El-nino-oye-el-rio.wav,./stim/wavs/chilean_mismatch_declarative-broad-focus_El-nino-oye-el-rio.wav,./stim/wavs/cuban_mismatch_declarative-broad-focus_El-nino-oye-el-rio.wav,./stim/wavs/mexican_mismatch_declarative-broad-focus_El-nino-oye-el-rio.wav,./stim/wavs/peruvian_mismatch_declarative-broad-focus_El-nino-oye-el-rio.wav,./stim/wavs/puertorican_mismatch_declarative-broad-focus_El-nino-oye-el-rio.wav,,,,,,,,,,,,,,,,,,,,,,,,,,,,,,,,,,,,,,,,,,,,,,,,,,,,,,,,
,,,,,,,6021d935ae778527962c9fd3,6057c54e64b0b4e5c128b4f9,605801bef99c374addd31d36,Spain,East coast,13 or older,no,2021-03-21_22h33.03.861,empathy_intonation_perc,2020.2.10,Win32,60,,,,,,,,,,0,peruvian,0,1,2.070805,0,57,57,32,1,33,./stim/wavs/andalusian_mismatch_declarative-broad-focus_El-bebe-comia-muy-bien.wav,./stim/wavs/argentine_mismatch_declarative-broad-focus_El-bebe-comia-muy-bien.wav,./stim/wavs/castilian_mismatch_declarative-broad-focus_El-bebe-comia-muy-bien.wav,./stim/wavs/chilean_mismatch_declarative-broad-focus_El-bebe-comia-muy-bien.wav,./stim/wavs/cuban_mismatch_declarative-broad-focus_El-bebe-comia-muy-bien.wav,./stim/wavs/mexican_mismatch_declarative-broad-focus_El-bebe-comia-muy-bien.wav,./stim/wavs/peruvian_mismatch_declarative-broad-focus_El-bebe-comia-muy-bien.wav,./stim/wavs/puertorican_mismatch_declarative-broad-focus_El-bebe-comia-muy-bien.wav,,,,,,,,,,,,,,,,,,,,,,,,,,,,,,,,,,,,,,,,,,,,,,,,,,,,,,,,
,,,,,,,6021d935ae778527962c9fd3,6057c54e64b0b4e5c128b4f9,605801bef99c374addd31d36,Spain,East coast,13 or older,no,2021-03-21_22h33.03.861,empathy_intonation_perc,2020.2.10,Win32,60,,,,,,,,,,1,mexican,1,1,1.67098,0,58,58,19,1,20,./stim/wavs/andalusian_match_interrogative-partial-wh_Cuando-vendia-el-carro.wav,./stim/wavs/argentine_match_interrogative-partial-wh_Cuando-vendia-el-carro.wav,./stim/wavs/castilian_match_interrogative-partial-wh_Cuando-vendia-el-carro.wav,./stim/wavs/chilean_match_interrogative-partial-wh_Cuando-vendia-el-carro.wav,./stim/wavs/cuban_match_interrogative-partial-wh_Cuando-vendia-el-carro.wav,./stim/wavs/mexican_match_interrogative-partial-wh_Cuando-vendia-el-carro.wav,./stim/wavs/peruvian_match_interrogative-partial-wh_Cuando-vendia-el-carro.wav,./stim/wavs/puertorican_match_interrogative-partial-wh_Cuando-vendia-el-carro.wav,,,,,,,,,,,,,,,,,,,,,,,,,,,,,,,,,,,,,,,,,,,,,,,,,,,,,,,,
,,,,,,,6021d935ae778527962c9fd3,6057c54e64b0b4e5c128b4f9,605801bef99c374addd31d36,Spain,East coast,13 or older,no,2021-03-21_22h33.03.861,empathy_intonation_perc,2020.2.10,Win32,60,,,,,,,,,,1,puertorican,0,0,1.953145,0,59,59,31,1,32,./stim/wavs/andalusian_match_interrogative-total-yn_Marta-abre-el-regalo.wav,./stim/wavs/argentine_match_interrogative-total-yn_Marta-abre-el-regalo.wav,./stim/wavs/castilian_match_interrogative-total-yn_Marta-abre-el-regalo.wav,./stim/wavs/chilean_match_interrogative-total-yn_Marta-abre-el-regalo.wav,./stim/wavs/cuban_match_interrogative-total-yn_Marta-abre-el-regalo.wav,./stim/wavs/mexican_match_interrogative-total-yn_Marta-abre-el-regalo.wav,./stim/wavs/peruvian_match_interrogative-total-yn_Marta-abre-el-regalo.wav,./stim/wavs/puertorican_match_interrogative-total-yn_Marta-abre-el-regalo.wav,,,,,,,,,,,,,,,,,,,,,,,,,,,,,,,,,,,,,,,,,,,,,,,,,,,,,,,,
,,,,,,,6021d935ae778527962c9fd3,6057c54e64b0b4e5c128b4f9,605801bef99c374addd31d36,Spain,East coast,13 or older,no,2021-03-21_22h33.03.861,empathy_intonation_perc,2020.2.10,Win32,60,,,,,,,,,,0,castilian,0,1,1.920495,0,60,60,38,1,39,./stim/wavs/andalusian_mismatch_declarative-broad-focus_Mi-novio-viene-del-lago.wav,./stim/wavs/argentine_mismatch_declarative-broad-focus_Mi-novio-viene-del-lago.wav,./stim/wavs/castilian_mismatch_declarative-broad-focus_Mi-novio-viene-del-lago.wav,./stim/wavs/chilean_mismatch_declarative-broad-focus_Mi-novio-viene-del-lago.wav,./stim/wavs/cuban_mismatch_declarative-broad-focus_Mi-novio-viene-del-lago.wav,./stim/wavs/mexican_mismatch_declarative-broad-focus_Mi-novio-viene-del-lago.wav,./stim/wavs/peruvian_mismatch_declarative-broad-focus_Mi-novio-viene-del-lago.wav,./stim/wavs/puertorican_mismatch_declarative-broad-focus_Mi-novio-viene-del-lago.wav,,,,,,,,,,,,,,,,,,,,,,,,,,,,,,,,,,,,,,,,,,,,,,,,,,,,,,,,
,,,,,,,6021d935ae778527962c9fd3,6057c54e64b0b4e5c128b4f9,605801bef99c374addd31d36,Spain,East coast,13 or older,no,2021-03-21_22h33.03.861,empathy_intonation_perc,2020.2.10,Win32,60,,,,,,,,,,0,andalusian,0,1,1.801435,0,61,61,1,1,2,./stim/wavs/andalusian_match_declarative-broad-focus_Daniel-iba-a-Bolivia.wav,./stim/wavs/argentine_match_declarative-broad-focus_Daniel-iba-a-Bolivia.wav,./stim/wavs/castilian_match_declarative-broad-focus_Daniel-iba-a-Bolivia.wav,./stim/wavs/chilean_match_declarative-broad-focus_Daniel-iba-a-Bolivia.wav,./stim/wavs/cuban_match_declarative-broad-focus_Daniel-iba-a-Bolivia.wav,./stim/wavs/mexican_match_declarative-broad-focus_Daniel-iba-a-Bolivia.wav,./stim/wavs/peruvian_match_declarative-broad-focus_Daniel-iba-a-Bolivia.wav,./stim/wavs/puertorican_match_declarative-broad-focus_Daniel-iba-a-Bolivia.wav,,,,,,,,,,,,,,,,,,,,,,,,,,,,,,,,,,,,,,,,,,,,,,,,,,,,,,,,
,,,,,,,6021d935ae778527962c9fd3,6057c54e64b0b4e5c128b4f9,605801bef99c374addd31d36,Spain,East coast,13 or older,no,2021-03-21_22h33.03.861,empathy_intonation_perc,2020.2.10,Win32,60,,,,,,,,,,1,castilian,1,1,2.1504,0,62,62,27,1,28,./stim/wavs/andalusian_match_interrogative-total-yn_Emilio-ama-la-marcha.wav,./stim/wavs/argentine_match_interrogative-total-yn_Emilio-ama-la-marcha.wav,./stim/wavs/castilian_match_interrogative-total-yn_Emilio-ama-la-marcha.wav,./stim/wavs/chilean_match_interrogative-total-yn_Emilio-ama-la-marcha.wav,./stim/wavs/cuban_match_interrogative-total-yn_Emilio-ama-la-marcha.wav,./stim/wavs/mexican_match_interrogative-total-yn_Emilio-ama-la-marcha.wav,./stim/wavs/peruvian_match_interrogative-total-yn_Emilio-ama-la-marcha.wav,./stim/wavs/puertorican_match_interrogative-total-yn_Emilio-ama-la-marcha.wav,,,,,,,,,,,,,,,,,,,,,,,,,,,,,,,,,,,,,,,,,,,,,,,,,,,,,,,,
,,,,,,,6021d935ae778527962c9fd3,6057c54e64b0b4e5c128b4f9,605801bef99c374addd31d36,Spain,East coast,13 or older,no,2021-03-21_22h33.03.861,empathy_intonation_perc,2020.2.10,Win32,60,,,,,,,,,,0,andalusian,0,1,1.444805,0,63,63,46,1,47,./stim/wavs/andalusian_mismatch_declarative-narrow-focus_Mi-novio-viene-del-lago.wav,./stim/wavs/argentine_mismatch_declarative-narrow-focus_Mi-novio-viene-del-lago.wav,./stim/wavs/castilian_mismatch_declarative-narrow-focus_Mi-novio-viene-del-lago.wav,./stim/wavs/chilean_mismatch_declarative-narrow-focus_Mi-novio-viene-del-lago.wav,./stim/wavs/cuban_mismatch_declarative-narrow-focus_Mi-novio-viene-del-lago.wav,./stim/wavs/mexican_mismatch_declarative-narrow-focus_Mi-novio-viene-del-lago.wav,./stim/wavs/peruvian_mismatch_declarative-narrow-focus_Mi-novio-viene-del-lago.wav,./stim/wavs/puertorican_mismatch_declarative-narrow-focus_Mi-novio-viene-del-lago.wav,,,,,,,,,,,,,,,,,,,,,,,,,,,,,,,,,,,,,,,,,,,,,,,,,,,,,,,,
,,,,,,,6021d935ae778527962c9fd3,6057c54e64b0b4e5c128b4f9,605801bef99c374addd31d36,Spain,East coast,13 or older,no,2021-03-21_22h33.03.861,empathy_intonation_perc,2020.2.10,Win32,60,,,,,,,,,,,,,,,,,,,,,,,,,,,,,h,1,8.666565,0,0,0,0,1,,,,,,,,,,,,,,,,,,,,,,,,,,,,,,,,,,,,,,,,,,,,,,,,
,,,,,"Great! Now we will move on. The next task consists of about 60 trials, in each of which you will see a string of letters. 
  
  Your task is to decide whether this is a real Spanish word or not.",(press the spacebar to continue),6021d935ae778527962c9fd3,6057c54e64b0b4e5c128b4f9,605801bef99c374addd31d36,Spain,East coast,13 or older,no,2021-03-21_22h33.03.861,empathy_intonation_perc,2020.2.10,Win32,60,,,,,,,,,,,,,,,,,,,,,,,,,,,,,,,,,,,,,0,0,0,0,1,,,,,,,,,,,,,,,,,,,,,,,,,,,,,,,,,,,,,,,,,,,
,,,,,"If you think it is an existing Spanish word, you type '1' (for 'REAL'), and if you think it is not an existing Spanish word, you type '0' (for 'FAKE').",(press the spacebar to continue),6021d935ae778527962c9fd3,6057c54e64b0b4e5c128b4f9,605801bef99c374addd31d36,Spain,East coast,13 or older,no,2021-03-21_22h33.03.861,empathy_intonation_perc,2020.2.10,Win32,60,,,,,,,,,,,,,,,,,,,,,,,,,,,,,,,,,,,,,0,1,1,1,1,,,,,,,,,,,,,,,,,,,,,,,,,,,,,,,,,,,,,,,,,,,
,,,,,"If you are sure that the word exists, even though you dont know its exact meaning, you may still respond '1' (REAL). 
  
  But if you are not sure if it is an existing word, you should respond '0' (FAKE).
  
  Let's do a practice round...",(press the spacebar to continue),6021d935ae778527962c9fd3,6057c54e64b0b4e5c128b4f9,605801bef99c374addd31d36,Spain,East coast,13 or older,no,2021-03-21_22h33.03.861,empathy_intonation_perc,2020.2.10,Win32,60,,,,,,,,,,,,,,,,,,,,,,,,,,,,,,,,,,,,,0,2,2,2,1,,,,,,,,,,,,,,,,,,,,,,,,,,,,,,,,,,,,,,,,,,,
,,,,,,,6021d935ae778527962c9fd3,6057c54e64b0b4e5c128b4f9,605801bef99c374addd31d36,Spain,East coast,13 or older,no,2021-03-21_22h33.03.861,empathy_intonation_perc,2020.2.10,Win32,60,,,,,,,,,,0,,,,,,,,,,,,,,,,,,,,,,,,,,,,,,,,1,0,2.868335,0,0,0,0,1,0,depiste,REAL,FAKE,,,,,,,,,,,,,,,,,,,,,,,,,,,,,,,
,,,,,,,6021d935ae778527962c9fd3,6057c54e64b0b4e5c128b4f9,605801bef99c374addd31d36,Spain,East coast,13 or older,no,2021-03-21_22h33.03.861,empathy_intonation_perc,2020.2.10,Win32,60,,,,,,,,,,1,,,,,,,,,,,,,,,,,,,,,,,,,,,,,,,,1,1,1.01799,0,1,1,1,1,0,s,REAL,FAKE,,,,,,,,,,,,,,,,,,,,,,,,,,,,,,,
,,,,,,,6021d935ae778527962c9fd3,6057c54e64b0b4e5c128b4f9,605801bef99c374addd31d36,Spain,East coast,13 or older,no,2021-03-21_22h33.03.861,empathy_intonation_perc,2020.2.10,Win32,60,,,,,,,,,,0,,,,,,,,,,,,,,,,,,,,,,,,,,,,,,,,0,1,1.438295,0,2,2,2,1,0,con,REAL,FAKE,,,,,,,,,,,,,,,,,,,,,,,,,,,,,,,
,,,,,,,6021d935ae778527962c9fd3,6057c54e64b0b4e5c128b4f9,605801bef99c374addd31d36,Spain,East coast,13 or older,no,2021-03-21_22h33.03.861,empathy_intonation_perc,2020.2.10,Win32,60,,,,,,,,,,0,,,,,,,,,,,,,,,,,,,,,,,,,,,,,,,,1,0,1.30852,0,3,3,3,1,0,calpar,REAL,FAKE,,,,,,,,,,,,,,,,,,,,,,,,,,,,,,,
,,,,,,,6021d935ae778527962c9fd3,6057c54e64b0b4e5c128b4f9,605801bef99c374addd31d36,Spain,East coast,13 or older,no,2021-03-21_22h33.03.861,empathy_intonation_perc,2020.2.10,Win32,60,,,,,,,,,,0,,,,,,,,,,,,,,,,,,,,,,,,,,,,,,,,0,1,0.877145,0,4,4,4,1,0,joten,REAL,FAKE,,,,,,,,,,,,,,,,,,,,,,,,,,,,,,,
,,,,,,,6021d935ae778527962c9fd3,6057c54e64b0b4e5c128b4f9,605801bef99c374addd31d36,Spain,East coast,13 or older,no,2021-03-21_22h33.03.861,empathy_intonation_perc,2020.2.10,Win32,60,,,,,,,,,,1,,,,,,,,,,,,,,,,,,,,,,,,,,,,,,,,0,0,1.143875,0,5,5,5,1,0,sacapuntas,REAL,FAKE,,,,,,,,,,,,,,,,,,,,,,,,,,,,,,,
,,,,,,,6021d935ae778527962c9fd3,6057c54e64b0b4e5c128b4f9,605801bef99c374addd31d36,Spain,East coast,13 or older,no,2021-03-21_22h33.03.861,empathy_intonation_perc,2020.2.10,Win32,60,,,,,,,,,,0,,,,,,,,,,,,,,,,,,,,,,,,,,,,,,,,1,0,1.18491,0,6,6,6,1,0,priba,REAL,FAKE,,,,,,,,,,,,,,,,,,,,,,,,,,,,,,,
,,,,,,,6021d935ae778527962c9fd3,6057c54e64b0b4e5c128b4f9,605801bef99c374addd31d36,Spain,East coast,13 or older,no,2021-03-21_22h33.03.861,empathy_intonation_perc,2020.2.10,Win32,60,,,,,,,,,,0,,,,,,,,,,,,,,,,,,,,,,,,,,,,,,,,0,1,1.943355,0,7,7,7,1,0,pelasula,REAL,FAKE,,,,,,,,,,,,,,,,,,,,,,,,,,,,,,,
,,,,,,,6021d935ae778527962c9fd3,6057c54e64b0b4e5c128b4f9,605801bef99c374addd31d36,Spain,East coast,13 or older,no,2021-03-21_22h33.03.861,empathy_intonation_perc,2020.2.10,Win32,60,,,,,,,,,,1,,,,,,,,,,,,,,,,,,,,,,,,,,,,,,,,1,1,0.892935,0,8,8,8,1,0,bien,REAL,FAKE,,,,,,,,,,,,,,,,,,,,,,,,,,,,,,,
,,,,,,,6021d935ae778527962c9fd3,6057c54e64b0b4e5c128b4f9,605801bef99c374addd31d36,Spain,East coast,13 or older,no,2021-03-21_22h33.03.861,empathy_intonation_perc,2020.2.10,Win32,60,,,,,,,,,,1,,,,,,,,,,,,,,,,,,,,,,,,,,,,,,,,1,1,0.803385,0,9,9,9,1,0,casa,REAL,FAKE,,,,,,,,,,,,,,,,,,,,,,,,,,,,,,,
,,,,,,,6021d935ae778527962c9fd3,6057c54e64b0b4e5c128b4f9,605801bef99c374addd31d36,Spain,East coast,13 or older,no,2021-03-21_22h33.03.861,empathy_intonation_perc,2020.2.10,Win32,60,,,,,,,,,,0,,,,,,,,,,,,,,,,,,,,,,,,,,,,,,,,1,0,1.15246,0,10,10,10,1,0,lejo,REAL,FAKE,,,,,,,,,,,,,,,,,,,,,,,,,,,,,,,
,,,,,,,6021d935ae778527962c9fd3,6057c54e64b0b4e5c128b4f9,605801bef99c374addd31d36,Spain,East coast,13 or older,no,2021-03-21_22h33.03.861,empathy_intonation_perc,2020.2.10,Win32,60,,,,,,,,,,0,,,,,,,,,,,,,,,,,,,,,,,,,,,,,,,,1,0,1.1178,0,11,11,11,1,0,pretantas,REAL,FAKE,,,,,,,,,,,,,,,,,,,,,,,,,,,,,,,
,,,,,,,6021d935ae778527962c9fd3,6057c54e64b0b4e5c128b4f9,605801bef99c374addd31d36,Spain,East coast,13 or older,no,2021-03-21_22h33.03.861,empathy_intonation_perc,2020.2.10,Win32,60,,,,,,,,,,0,,,,,,,,,,,,,,,,,,,,,,,,,,,,,,,,,,,,,,,,72,pemicin,,,0,1,1.60547,0,0,0,71,1,REAL,FAKE,,,,,,,,,,,,,,,,,,,,,
,,,,,,,6021d935ae778527962c9fd3,6057c54e64b0b4e5c128b4f9,605801bef99c374addd31d36,Spain,East coast,13 or older,no,2021-03-21_22h33.03.861,empathy_intonation_perc,2020.2.10,Win32,60,,,,,,,,,,1,,,,,,,,,,,,,,,,,,,,,,,,,,,,,,,,,,,,,,,,2,pellizcar,,,0,0,1.460905,0,1,1,1,1,REAL,FAKE,,,,,,,,,,,,,,,,,,,,,
,,,,,,,6021d935ae778527962c9fd3,6057c54e64b0b4e5c128b4f9,605801bef99c374addd31d36,Spain,East coast,13 or older,no,2021-03-21_22h33.03.861,empathy_intonation_perc,2020.2.10,Win32,60,,,,,,,,,,1,,,,,,,,,,,,,,,,,,,,,,,,,,,,,,,,,,,,,,,,49,ganar,,,1,1,0.740935,0,2,2,48,1,REAL,FAKE,,,,,,,,,,,,,,,,,,,,,
,,,,,,,6021d935ae778527962c9fd3,6057c54e64b0b4e5c128b4f9,605801bef99c374addd31d36,Spain,East coast,13 or older,no,2021-03-21_22h33.03.861,empathy_intonation_perc,2020.2.10,Win32,60,,,,,,,,,,1,,,,,,,,,,,,,,,,,,,,,,,,,,,,,,,,,,,,,,,,31,pandilla,,,1,1,1.00883,0,3,3,30,1,REAL,FAKE,,,,,,,,,,,,,,,,,,,,,
,,,,,,,6021d935ae778527962c9fd3,6057c54e64b0b4e5c128b4f9,605801bef99c374addd31d36,Spain,East coast,13 or older,no,2021-03-21_22h33.03.861,empathy_intonation_perc,2020.2.10,Win32,60,,,,,,,,,,1,,,,,,,,,,,,,,,,,,,,,,,,,,,,,,,,,,,,,,,,6,tergiversar,,,0,0,1.044415,0,4,4,5,1,REAL,FAKE,,,,,,,,,,,,,,,,,,,,,
,,,,,,,6021d935ae778527962c9fd3,6057c54e64b0b4e5c128b4f9,605801bef99c374addd31d36,Spain,East coast,13 or older,no,2021-03-21_22h33.03.861,empathy_intonation_perc,2020.2.10,Win32,60,,,,,,,,,,0,,,,,,,,,,,,,,,,,,,,,,,,,,,,,,,,,,,,,,,,19,brecedad,,,0,1,0.84295,0,5,5,18,1,REAL,FAKE,,,,,,,,,,,,,,,,,,,,,
,,,,,,,6021d935ae778527962c9fd3,6057c54e64b0b4e5c128b4f9,605801bef99c374addd31d36,Spain,East coast,13 or older,no,2021-03-21_22h33.03.861,empathy_intonation_perc,2020.2.10,Win32,60,,,,,,,,,,1,,,,,,,,,,,,,,,,,,,,,,,,,,,,,,,,,,,,,,,,26,secuestro,,,0,0,0.72913,0,6,6,25,1,REAL,FAKE,,,,,,,,,,,,,,,,,,,,,
,,,,,,,6021d935ae778527962c9fd3,6057c54e64b0b4e5c128b4f9,605801bef99c374addd31d36,Spain,East coast,13 or older,no,2021-03-21_22h33.03.861,empathy_intonation_perc,2020.2.10,Win32,60,,,,,,,,,,0,,,,,,,,,,,,,,,,,,,,,,,,,,,,,,,,,,,,,,,,33,pauca,,,0,1,0.708845,0,7,7,32,1,REAL,FAKE,,,,,,,,,,,,,,,,,,,,,
,,,,,,,6021d935ae778527962c9fd3,6057c54e64b0b4e5c128b4f9,605801bef99c374addd31d36,Spain,East coast,13 or older,no,2021-03-21_22h33.03.861,empathy_intonation_perc,2020.2.10,Win32,60,,,,,,,,,,0,,,,,,,,,,,,,,,,,,,,,,,,,,,,,,,,,,,,,,,,21,capillo,,,0,1,1.113765,0,8,8,20,1,REAL,FAKE,,,,,,,,,,,,,,,,,,,,,
,,,,,,,6021d935ae778527962c9fd3,6057c54e64b0b4e5c128b4f9,605801bef99c374addd31d36,Spain,East coast,13 or older,no,2021-03-21_22h33.03.861,empathy_intonation_perc,2020.2.10,Win32,60,,,,,,,,,,0,,,,,,,,,,,,,,,,,,,,,,,,,,,,,,,,,,,,,,,,58,plaudir,,,1,0,0.99581,0,9,9,57,1,REAL,FAKE,,,,,,,,,,,,,,,,,,,,,
,,,,,,,6021d935ae778527962c9fd3,6057c54e64b0b4e5c128b4f9,605801bef99c374addd31d36,Spain,East coast,13 or older,no,2021-03-21_22h33.03.861,empathy_intonation_perc,2020.2.10,Win32,60,,,,,,,,,,0,,,,,,,,,,,,,,,,,,,,,,,,,,,,,,,,,,,,,,,,53,vegada,,,0,1,0.85973,0,10,10,52,1,REAL,FAKE,,,,,,,,,,,,,,,,,,,,,
,,,,,,,6021d935ae778527962c9fd3,6057c54e64b0b4e5c128b4f9,605801bef99c374addd31d36,Spain,East coast,13 or older,no,2021-03-21_22h33.03.861,empathy_intonation_perc,2020.2.10,Win32,60,,,,,,,,,,0,,,,,,,,,,,,,,,,,,,,,,,,,,,,,,,,,,,,,,,,8,cadea,,,0,1,1.597455,0,11,11,7,1,REAL,FAKE,,,,,,,,,,,,,,,,,,,,,
,,,,,,,6021d935ae778527962c9fd3,6057c54e64b0b4e5c128b4f9,605801bef99c374addd31d36,Spain,East coast,13 or older,no,2021-03-21_22h33.03.861,empathy_intonation_perc,2020.2.10,Win32,60,,,,,,,,,,1,,,,,,,,,,,,,,,,,,,,,,,,,,,,,,,,,,,,,,,,11,cenefa,,,0,0,0.745955,0,12,12,10,1,REAL,FAKE,,,,,,,,,,,,,,,,,,,,,
,,,,,,,6021d935ae778527962c9fd3,6057c54e64b0b4e5c128b4f9,605801bef99c374addd31d36,Spain,East coast,13 or older,no,2021-03-21_22h33.03.861,empathy_intonation_perc,2020.2.10,Win32,60,,,,,,,,,,0,,,,,,,,,,,,,,,,,,,,,,,,,,,,,,,,,,,,,,,,29,decar,,,1,0,0.65945,0,13,13,28,1,REAL,FAKE,,,,,,,,,,,,,,,,,,,,,
,,,,,,,6021d935ae778527962c9fd3,6057c54e64b0b4e5c128b4f9,605801bef99c374addd31d36,Spain,East coast,13 or older,no,2021-03-21_22h33.03.861,empathy_intonation_perc,2020.2.10,Win32,60,,,,,,,,,,0,,,,,,,,,,,,,,,,,,,,,,,,,,,,,,,,,,,,,,,,84,escuto,,,1,0,1.194395,0,14,14,83,1,REAL,FAKE,,,,,,,,,,,,,,,,,,,,,
,,,,,,,6021d935ae778527962c9fd3,6057c54e64b0b4e5c128b4f9,605801bef99c374addd31d36,Spain,East coast,13 or older,no,2021-03-21_22h33.03.861,empathy_intonation_perc,2020.2.10,Win32,60,,,,,,,,,,0,,,,,,,,,,,,,,,,,,,,,,,,,,,,,,,,,,,,,,,,4,batilln,,,1,0,0.97826,0,15,15,3,1,REAL,FAKE,,,,,,,,,,,,,,,,,,,,,
,,,,,,,6021d935ae778527962c9fd3,6057c54e64b0b4e5c128b4f9,605801bef99c374addd31d36,Spain,East coast,13 or older,no,2021-03-21_22h33.03.861,empathy_intonation_perc,2020.2.10,Win32,60,,,,,,,,,,0,,,,,,,,,,,,,,,,,,,,,,,,,,,,,,,,,,,,,,,,70,temblo,,,0,1,0.89215,0,16,16,69,1,REAL,FAKE,,,,,,,,,,,,,,,,,,,,,
,,,,,,,6021d935ae778527962c9fd3,6057c54e64b0b4e5c128b4f9,605801bef99c374addd31d36,Spain,East coast,13 or older,no,2021-03-21_22h33.03.861,empathy_intonation_perc,2020.2.10,Win32,60,,,,,,,,,,1,,,,,,,,,,,,,,,,,,,,,,,,,,,,,,,,,,,,,,,,59,besar,,,0,0,1.563815,0,17,17,58,1,REAL,FAKE,,,,,,,,,,,,,,,,,,,,,
,,,,,,,6021d935ae778527962c9fd3,6057c54e64b0b4e5c128b4f9,605801bef99c374addd31d36,Spain,East coast,13 or older,no,2021-03-21_22h33.03.861,empathy_intonation_perc,2020.2.10,Win32,60,,,,,,,,,,0,,,,,,,,,,,,,,,,,,,,,,,,,,,,,,,,,,,,,,,,10,antar,,,1,0,1.109665,0,18,18,9,1,REAL,FAKE,,,,,,,,,,,,,,,,,,,,,
,,,,,,,6021d935ae778527962c9fd3,6057c54e64b0b4e5c128b4f9,605801bef99c374addd31d36,Spain,East coast,13 or older,no,2021-03-21_22h33.03.861,empathy_intonation_perc,2020.2.10,Win32,60,,,,,,,,,,1,,,,,,,,,,,,,,,,,,,,,,,,,,,,,,,,,,,,,,,,60,matar,,,0,0,1.814255,0,19,19,59,1,REAL,FAKE,,,,,,,,,,,,,,,,,,,,,
,,,,,,,6021d935ae778527962c9fd3,6057c54e64b0b4e5c128b4f9,605801bef99c374addd31d36,Spain,East coast,13 or older,no,2021-03-21_22h33.03.861,empathy_intonation_perc,2020.2.10,Win32,60,,,,,,,,,,0,,,,,,,,,,,,,,,,,,,,,,,,,,,,,,,,,,,,,,,,66,hacido,,,0,1,0.678425,0,20,20,65,1,REAL,FAKE,,,,,,,,,,,,,,,,,,,,,
,,,,,,,6021d935ae778527962c9fd3,6057c54e64b0b4e5c128b4f9,605801bef99c374addd31d36,Spain,East coast,13 or older,no,2021-03-21_22h33.03.861,empathy_intonation_perc,2020.2.10,Win32,60,,,,,,,,,,1,,,,,,,,,,,,,,,,,,,,,,,,,,,,,,,,,,,,,,,,81,pozo,,,0,0,0.62786,0,21,21,80,1,REAL,FAKE,,,,,,,,,,,,,,,,,,,,,
,,,,,,,6021d935ae778527962c9fd3,6057c54e64b0b4e5c128b4f9,605801bef99c374addd31d36,Spain,East coast,13 or older,no,2021-03-21_22h33.03.861,empathy_intonation_perc,2020.2.10,Win32,60,,,,,,,,,,0,,,,,,,,,,,,,,,,,,,,,,,,,,,,,,,,,,,,,,,,63,esposante,,,0,1,0.82,0,22,22,62,1,REAL,FAKE,,,,,,,,,,,,,,,,,,,,,
,,,,,,,6021d935ae778527962c9fd3,6057c54e64b0b4e5c128b4f9,605801bef99c374addd31d36,Spain,East coast,13 or older,no,2021-03-21_22h33.03.861,empathy_intonation_perc,2020.2.10,Win32,60,,,,,,,,,,1,,,,,,,,,,,,,,,,,,,,,,,,,,,,,,,,,,,,,,,,77,tiburn,,,0,0,0.659765,0,23,23,76,1,REAL,FAKE,,,,,,,,,,,,,,,,,,,,,
,,,,,,,6021d935ae778527962c9fd3,6057c54e64b0b4e5c128b4f9,605801bef99c374addd31d36,Spain,East coast,13 or older,no,2021-03-21_22h33.03.861,empathy_intonation_perc,2020.2.10,Win32,60,,,,,,,,,,1,,,,,,,,,,,,,,,,,,,,,,,,,,,,,,,,,,,,,,,,73,hervidor,,,0,0,0.643715,0,24,24,72,1,REAL,FAKE,,,,,,,,,,,,,,,,,,,,,
,,,,,,,6021d935ae778527962c9fd3,6057c54e64b0b4e5c128b4f9,605801bef99c374addd31d36,Spain,East coast,13 or older,no,2021-03-21_22h33.03.861,empathy_intonation_perc,2020.2.10,Win32,60,,,,,,,,,,1,,,,,,,,,,,,,,,,,,,,,,,,,,,,,,,,,,,,,,,,55,nevar,,,1,1,1.01216,0,25,25,54,1,REAL,FAKE,,,,,,,,,,,,,,,,,,,,,
,,,,,,,6021d935ae778527962c9fd3,6057c54e64b0b4e5c128b4f9,605801bef99c374addd31d36,Spain,East coast,13 or older,no,2021-03-21_22h33.03.861,empathy_intonation_perc,2020.2.10,Win32,60,,,,,,,,,,1,,,,,,,,,,,,,,,,,,,,,,,,,,,,,,,,,,,,,,,,25,bisagra,,,0,0,0.78008,0,26,26,24,1,REAL,FAKE,,,,,,,,,,,,,,,,,,,,,
,,,,,,,6021d935ae778527962c9fd3,6057c54e64b0b4e5c128b4f9,605801bef99c374addd31d36,Spain,East coast,13 or older,no,2021-03-21_22h33.03.861,empathy_intonation_perc,2020.2.10,Win32,60,,,,,,,,,,1,,,,,,,,,,,,,,,,,,,,,,,,,,,,,,,,,,,,,,,,24,ltigo,,,0,0,1.293035,0,27,27,23,1,REAL,FAKE,,,,,,,,,,,,,,,,,,,,,
,,,,,,,6021d935ae778527962c9fd3,6057c54e64b0b4e5c128b4f9,605801bef99c374addd31d36,Spain,East coast,13 or older,no,2021-03-21_22h33.03.861,empathy_intonation_perc,2020.2.10,Win32,60,,,,,,,,,,0,,,,,,,,,,,,,,,,,,,,,,,,,,,,,,,,,,,,,,,,50,flamida,,,0,1,0.66135,0,28,28,49,1,REAL,FAKE,,,,,,,,,,,,,,,,,,,,,
,,,,,,,6021d935ae778527962c9fd3,6057c54e64b0b4e5c128b4f9,605801bef99c374addd31d36,Spain,East coast,13 or older,no,2021-03-21_22h33.03.861,empathy_intonation_perc,2020.2.10,Win32,60,,,,,,,,,,1,,,,,,,,,,,,,,,,,,,,,,,,,,,,,,,,,,,,,,,,65,bizcocho,,,0,0,0.56046,0,29,29,64,1,REAL,FAKE,,,,,,,,,,,,,,,,,,,,,
,,,,,,,6021d935ae778527962c9fd3,6057c54e64b0b4e5c128b4f9,605801bef99c374addd31d36,Spain,East coast,13 or older,no,2021-03-21_22h33.03.861,empathy_intonation_perc,2020.2.10,Win32,60,,,,,,,,,,1,,,,,,,,,,,,,,,,,,,,,,,,,,,,,,,,,,,,,,,,90,clavel,,,0,0,0.66506,0,30,30,89,1,REAL,FAKE,,,,,,,,,,,,,,,,,,,,,
,,,,,,,6021d935ae778527962c9fd3,6057c54e64b0b4e5c128b4f9,605801bef99c374addd31d36,Spain,East coast,13 or older,no,2021-03-21_22h33.03.861,empathy_intonation_perc,2020.2.10,Win32,60,,,,,,,,,,0,,,,,,,,,,,,,,,,,,,,,,,,,,,,,,,,,,,,,,,,17,floroso,,,0,1,0.72791,0,31,31,16,1,REAL,FAKE,,,,,,,,,,,,,,,,,,,,,
,,,,,,,6021d935ae778527962c9fd3,6057c54e64b0b4e5c128b4f9,605801bef99c374addd31d36,Spain,East coast,13 or older,no,2021-03-21_22h33.03.861,empathy_intonation_perc,2020.2.10,Win32,60,,,,,,,,,,1,,,,,,,,,,,,,,,,,,,,,,,,,,,,,,,,,,,,,,,,5,zapato,,,1,1,0.862355,0,32,32,4,1,REAL,FAKE,,,,,,,,,,,,,,,,,,,,,
,,,,,,,6021d935ae778527962c9fd3,6057c54e64b0b4e5c128b4f9,605801bef99c374addd31d36,Spain,East coast,13 or older,no,2021-03-21_22h33.03.861,empathy_intonation_perc,2020.2.10,Win32,60,,,,,,,,,,1,,,,,,,,,,,,,,,,,,,,,,,,,,,,,,,,,,,,,,,,15,regar,,,1,1,0.75057,0,33,33,14,1,REAL,FAKE,,,,,,,,,,,,,,,,,,,,,
,,,,,,,6021d935ae778527962c9fd3,6057c54e64b0b4e5c128b4f9,605801bef99c374addd31d36,Spain,East coast,13 or older,no,2021-03-21_22h33.03.861,empathy_intonation_perc,2020.2.10,Win32,60,,,,,,,,,,1,,,,,,,,,,,,,,,,,,,,,,,,,,,,,,,,,,,,,,,,52,camisa,,,1,1,0.78245,0,34,34,51,1,REAL,FAKE,,,,,,,,,,,,,,,,,,,,,
,,,,,,,6021d935ae778527962c9fd3,6057c54e64b0b4e5c128b4f9,605801bef99c374addd31d36,Spain,East coast,13 or older,no,2021-03-21_22h33.03.861,empathy_intonation_perc,2020.2.10,Win32,60,,,,,,,,,,1,,,,,,,,,,,,,,,,,,,,,,,,,,,,,,,,,,,,,,,,3,pulmones,,,0,0,0.72745,0,35,35,2,1,REAL,FAKE,,,,,,,,,,,,,,,,,,,,,
,,,,,,,6021d935ae778527962c9fd3,6057c54e64b0b4e5c128b4f9,605801bef99c374addd31d36,Spain,East coast,13 or older,no,2021-03-21_22h33.03.861,empathy_intonation_perc,2020.2.10,Win32,60,,,,,,,,,,1,,,,,,,,,,,,,,,,,,,,,,,,,,,,,,,,,,,,,,,,20,vido,,,1,1,0.62922,0,36,36,19,1,REAL,FAKE,,,,,,,,,,,,,,,,,,,,,
,,,,,,,6021d935ae778527962c9fd3,6057c54e64b0b4e5c128b4f9,605801bef99c374addd31d36,Spain,East coast,13 or older,no,2021-03-21_22h33.03.861,empathy_intonation_perc,2020.2.10,Win32,60,,,,,,,,,,0,,,,,,,,,,,,,,,,,,,,,,,,,,,,,,,,,,,,,,,,47,cartinar,,,0,1,1.02985,0,37,37,46,1,REAL,FAKE,,,,,,,,,,,,,,,,,,,,,
,,,,,,,6021d935ae778527962c9fd3,6057c54e64b0b4e5c128b4f9,605801bef99c374addd31d36,Spain,East coast,13 or older,no,2021-03-21_22h33.03.861,empathy_intonation_perc,2020.2.10,Win32,60,,,,,,,,,,0,,,,,,,,,,,,,,,,,,,,,,,,,,,,,,,,,,,,,,,,82,empirador,,,1,0,1.15142,0,38,38,81,1,REAL,FAKE,,,,,,,,,,,,,,,,,,,,,
,,,,,,,6021d935ae778527962c9fd3,6057c54e64b0b4e5c128b4f9,605801bef99c374addd31d36,Spain,East coast,13 or older,no,2021-03-21_22h33.03.861,empathy_intonation_perc,2020.2.10,Win32,60,,,,,,,,,,1,,,,,,,,,,,,,,,,,,,,,,,,,,,,,,,,,,,,,,,,54,fomentar,,,0,0,0.710385,0,39,39,53,1,REAL,FAKE,,,,,,,,,,,,,,,,,,,,,
,,,,,,,6021d935ae778527962c9fd3,6057c54e64b0b4e5c128b4f9,605801bef99c374addd31d36,Spain,East coast,13 or older,no,2021-03-21_22h33.03.861,empathy_intonation_perc,2020.2.10,Win32,60,,,,,,,,,,1,,,,,,,,,,,,,,,,,,,,,,,,,,,,,,,,,,,,,,,,71,polvoriento,,,0,0,0.71047,0,40,40,70,1,REAL,FAKE,,,,,,,,,,,,,,,,,,,,,
,,,,,,,6021d935ae778527962c9fd3,6057c54e64b0b4e5c128b4f9,605801bef99c374addd31d36,Spain,East coast,13 or older,no,2021-03-21_22h33.03.861,empathy_intonation_perc,2020.2.10,Win32,60,,,,,,,,,,1,,,,,,,,,,,,,,,,,,,,,,,,,,,,,,,,,,,,,,,,13,helar,,,0,0,0.743655,0,41,41,12,1,REAL,FAKE,,,,,,,,,,,,,,,,,,,,,
,,,,,,,6021d935ae778527962c9fd3,6057c54e64b0b4e5c128b4f9,605801bef99c374addd31d36,Spain,East coast,13 or older,no,2021-03-21_22h33.03.861,empathy_intonation_perc,2020.2.10,Win32,60,,,,,,,,,,1,,,,,,,,,,,,,,,,,,,,,,,,,,,,,,,,,,,,,,,,9,hacha,,,1,1,0.81163,0,42,42,8,1,REAL,FAKE,,,,,,,,,,,,,,,,,,,,,
,,,,,,,6021d935ae778527962c9fd3,6057c54e64b0b4e5c128b4f9,605801bef99c374addd31d36,Spain,East coast,13 or older,no,2021-03-21_22h33.03.861,empathy_intonation_perc,2020.2.10,Win32,60,,,,,,,,,,1,,,,,,,,,,,,,,,,,,,,,,,,,,,,,,,,,,,,,,,,68,alegre,,,1,1,1.096865,0,43,43,67,1,REAL,FAKE,,,,,,,,,,,,,,,,,,,,,
,,,,,,,6021d935ae778527962c9fd3,6057c54e64b0b4e5c128b4f9,605801bef99c374addd31d36,Spain,East coast,13 or older,no,2021-03-21_22h33.03.861,empathy_intonation_perc,2020.2.10,Win32,60,,,,,,,,,,1,,,,,,,,,,,,,,,,,,,,,,,,,,,,,,,,,,,,,,,,80,hormiga,,,0,0,0.794945,0,44,44,79,1,REAL,FAKE,,,,,,,,,,,,,,,,,,,,,
,,,,,,,6021d935ae778527962c9fd3,6057c54e64b0b4e5c128b4f9,605801bef99c374addd31d36,Spain,East coast,13 or older,no,2021-03-21_22h33.03.861,empathy_intonation_perc,2020.2.10,Win32,60,,,,,,,,,,1,,,,,,,,,,,,,,,,,,,,,,,,,,,,,,,,,,,,,,,,89,prisa,,,0,0,0.780995,0,45,45,88,1,REAL,FAKE,,,,,,,,,,,,,,,,,,,,,
,,,,,,,6021d935ae778527962c9fd3,6057c54e64b0b4e5c128b4f9,605801bef99c374addd31d36,Spain,East coast,13 or older,no,2021-03-21_22h33.03.861,empathy_intonation_perc,2020.2.10,Win32,60,,,,,,,,,,1,,,,,,,,,,,,,,,,,,,,,,,,,,,,,,,,,,,,,,,,48,ladrn,,,0,0,0.693845,0,46,46,47,1,REAL,FAKE,,,,,,,,,,,,,,,,,,,,,
,,,,,,,6021d935ae778527962c9fd3,6057c54e64b0b4e5c128b4f9,605801bef99c374addd31d36,Spain,East coast,13 or older,no,2021-03-21_22h33.03.861,empathy_intonation_perc,2020.2.10,Win32,60,,,,,,,,,,1,,,,,,,,,,,,,,,,,,,,,,,,,,,,,,,,,,,,,,,,61,seda,,,0,0,0.748045,0,47,47,60,1,REAL,FAKE,,,,,,,,,,,,,,,,,,,,,
,,,,,,,6021d935ae778527962c9fd3,6057c54e64b0b4e5c128b4f9,605801bef99c374addd31d36,Spain,East coast,13 or older,no,2021-03-21_22h33.03.861,empathy_intonation_perc,2020.2.10,Win32,60,,,,,,,,,,0,,,,,,,,,,,,,,,,,,,,,,,,,,,,,,,,,,,,,,,,16,abracer,,,0,1,0.71112,0,48,48,15,1,REAL,FAKE,,,,,,,,,,,,,,,,,,,,,
,,,,,,,6021d935ae778527962c9fd3,6057c54e64b0b4e5c128b4f9,605801bef99c374addd31d36,Spain,East coast,13 or older,no,2021-03-21_22h33.03.861,empathy_intonation_perc,2020.2.10,Win32,60,,,,,,,,,,1,,,,,,,,,,,,,,,,,,,,,,,,,,,,,,,,,,,,,,,,67,cabello,,,1,1,0.816145,0,49,49,66,1,REAL,FAKE,,,,,,,,,,,,,,,,,,,,,
,,,,,,,6021d935ae778527962c9fd3,6057c54e64b0b4e5c128b4f9,605801bef99c374addd31d36,Spain,East coast,13 or older,no,2021-03-21_22h33.03.861,empathy_intonation_perc,2020.2.10,Win32,60,,,,,,,,,,1,,,,,,,,,,,,,,,,,,,,,,,,,,,,,,,,,,,,,,,,12,asesinato,,,0,0,0.679175,0,50,50,11,1,REAL,FAKE,,,,,,,,,,,,,,,,,,,,,
,,,,,,,6021d935ae778527962c9fd3,6057c54e64b0b4e5c128b4f9,605801bef99c374addd31d36,Spain,East coast,13 or older,no,2021-03-21_22h33.03.861,empathy_intonation_perc,2020.2.10,Win32,60,,,,,,,,,,1,,,,,,,,,,,,,,,,,,,,,,,,,,,,,,,,,,,,,,,,64,orgulloso,,,0,0,0.714515,0,51,51,63,1,REAL,FAKE,,,,,,,,,,,,,,,,,,,,,
,,,,,,,6021d935ae778527962c9fd3,6057c54e64b0b4e5c128b4f9,605801bef99c374addd31d36,Spain,East coast,13 or older,no,2021-03-21_22h33.03.861,empathy_intonation_perc,2020.2.10,Win32,60,,,,,,,,,,0,,,,,,,,,,,,,,,,,,,,,,,,,,,,,,,,,,,,,,,,1,terzo,,,0,1,0.576755,0,52,52,0,1,REAL,FAKE,,,,,,,,,,,,,,,,,,,,,
,,,,,,,6021d935ae778527962c9fd3,6057c54e64b0b4e5c128b4f9,605801bef99c374addd31d36,Spain,East coast,13 or older,no,2021-03-21_22h33.03.861,empathy_intonation_perc,2020.2.10,Win32,60,,,,,,,,,,1,,,,,,,,,,,,,,,,,,,,,,,,,,,,,,,,,,,,,,,,78,frondoso,,,0,0,1.26145,0,53,53,77,1,REAL,FAKE,,,,,,,,,,,,,,,,,,,,,
,,,,,,,6021d935ae778527962c9fd3,6057c54e64b0b4e5c128b4f9,605801bef99c374addd31d36,Spain,East coast,13 or older,no,2021-03-21_22h33.03.861,empathy_intonation_perc,2020.2.10,Win32,60,,,,,,,,,,0,,,,,,,,,,,,,,,,,,,,,,,,,,,,,,,,,,,,,,,,18,arsa,,,0,1,0.933885,0,54,54,17,1,REAL,FAKE,,,,,,,,,,,,,,,,,,,,,
,,,,,,,6021d935ae778527962c9fd3,6057c54e64b0b4e5c128b4f9,605801bef99c374addd31d36,Spain,East coast,13 or older,no,2021-03-21_22h33.03.861,empathy_intonation_perc,2020.2.10,Win32,60,,,,,,,,,,1,,,,,,,,,,,,,,,,,,,,,,,,,,,,,,,,,,,,,,,,22,lacayo,,,0,0,0.876095,0,55,55,21,1,REAL,FAKE,,,,,,,,,,,,,,,,,,,,,
,,,,,,,6021d935ae778527962c9fd3,6057c54e64b0b4e5c128b4f9,605801bef99c374addd31d36,Spain,East coast,13 or older,no,2021-03-21_22h33.03.861,empathy_intonation_perc,2020.2.10,Win32,60,,,,,,,,,,0,,,,,,,,,,,,,,,,,,,,,,,,,,,,,,,,,,,,,,,,35,rompido,,,0,1,0.612665,0,56,56,34,1,REAL,FAKE,,,,,,,,,,,,,,,,,,,,,
,,,,,,,6021d935ae778527962c9fd3,6057c54e64b0b4e5c128b4f9,605801bef99c374addd31d36,Spain,East coast,13 or older,no,2021-03-21_22h33.03.861,empathy_intonation_perc,2020.2.10,Win32,60,,,,,,,,,,1,,,,,,,,,,,,,,,,,,,,,,,,,,,,,,,,,,,,,,,,83,guante,,,0,0,0.80117,0,57,57,82,1,REAL,FAKE,,,,,,,,,,,,,,,,,,,,,
,,,,,,,6021d935ae778527962c9fd3,6057c54e64b0b4e5c128b4f9,605801bef99c374addd31d36,Spain,East coast,13 or older,no,2021-03-21_22h33.03.861,empathy_intonation_perc,2020.2.10,Win32,60,,,,,,,,,,1,,,,,,,,,,,,,,,,,,,,,,,,,,,,,,,,,,,,,,,,46,martillo,,,1,1,1.059265,0,58,58,45,1,REAL,FAKE,,,,,,,,,,,,,,,,,,,,,
,,,,,,,6021d935ae778527962c9fd3,6057c54e64b0b4e5c128b4f9,605801bef99c374addd31d36,Spain,East coast,13 or older,no,2021-03-21_22h33.03.861,empathy_intonation_perc,2020.2.10,Win32,60,,,,,,,,,,1,,,,,,,,,,,,,,,,,,,,,,,,,,,,,,,,,,,,,,,,86,barato,,,0,0,0.857715,0,59,59,85,1,REAL,FAKE,,,,,,,,,,,,,,,,,,,,,
,,,,,,,6021d935ae778527962c9fd3,6057c54e64b0b4e5c128b4f9,605801bef99c374addd31d36,Spain,East coast,13 or older,no,2021-03-21_22h33.03.861,empathy_intonation_perc,2020.2.10,Win32,60,,,,,,,,,,1,,,,,,,,,,,,,,,,,,,,,,,,,,,,,,,,,,,,,,,,56,musgo,,,0,0,0.61182,0,60,60,55,1,REAL,FAKE,,,,,,,,,,,,,,,,,,,,,
,,,,,,,6021d935ae778527962c9fd3,6057c54e64b0b4e5c128b4f9,605801bef99c374addd31d36,Spain,East coast,13 or older,no,2021-03-21_22h33.03.861,empathy_intonation_perc,2020.2.10,Win32,60,,,,,,,,,,1,,,,,,,,,,,,,,,,,,,,,,,,,,,,,,,,,,,,,,,,62,flaco,,,0,0,0.728515,0,61,61,61,1,REAL,FAKE,,,,,,,,,,,,,,,,,,,,,
,,,,,,,6021d935ae778527962c9fd3,6057c54e64b0b4e5c128b4f9,605801bef99c374addd31d36,Spain,East coast,13 or older,no,2021-03-21_22h33.03.861,empathy_intonation_perc,2020.2.10,Win32,60,,,,,,,,,,1,,,,,,,,,,,,,,,,,,,,,,,,,,,,,,,,,,,,,,,,36,loro,,,0,0,0.669515,0,62,62,35,1,REAL,FAKE,,,,,,,,,,,,,,,,,,,,,
,,,,,,,6021d935ae778527962c9fd3,6057c54e64b0b4e5c128b4f9,605801bef99c374addd31d36,Spain,East coast,13 or older,no,2021-03-21_22h33.03.861,empathy_intonation_perc,2020.2.10,Win32,60,,,,,,,,,,1,,,,,,,,,,,,,,,,,,,,,,,,,,,,,,,,,,,,,,,,14,yunque,,,0,0,0.677365,0,63,63,13,1,REAL,FAKE,,,,,,,,,,,,,,,,,,,,,
,,,,,,,6021d935ae778527962c9fd3,6057c54e64b0b4e5c128b4f9,605801bef99c374addd31d36,Spain,East coast,13 or older,no,2021-03-21_22h33.03.861,empathy_intonation_perc,2020.2.10,Win32,60,,,,,,,,,,1,,,,,,,,,,,,,,,,,,,,,,,,,,,,,,,,,,,,,,,,76,atar,,,0,0,0.878855,0,64,64,75,1,REAL,FAKE,,,,,,,,,,,,,,,,,,,,,
,,,,,,,6021d935ae778527962c9fd3,6057c54e64b0b4e5c128b4f9,605801bef99c374addd31d36,Spain,East coast,13 or older,no,2021-03-21_22h33.03.861,empathy_intonation_perc,2020.2.10,Win32,60,,,,,,,,,,1,,,,,,,,,,,,,,,,,,,,,,,,,,,,,,,,,,,,,,,,37,granuja,,,0,0,0.87628,0,65,65,36,1,REAL,FAKE,,,,,,,,,,,,,,,,,,,,,
,,,,,,,6021d935ae778527962c9fd3,6057c54e64b0b4e5c128b4f9,605801bef99c374addd31d36,Spain,East coast,13 or older,no,2021-03-21_22h33.03.861,empathy_intonation_perc,2020.2.10,Win32,60,,,,,,,,,,1,,,,,,,,,,,,,,,,,,,,,,,,,,,,,,,,,,,,,,,,69,engatusar,,,0,0,0.816685,0,66,66,68,1,REAL,FAKE,,,,,,,,,,,,,,,,,,,,,
,,,,,,,6021d935ae778527962c9fd3,6057c54e64b0b4e5c128b4f9,605801bef99c374addd31d36,Spain,East coast,13 or older,no,2021-03-21_22h33.03.861,empathy_intonation_perc,2020.2.10,Win32,60,,,,,,,,,,0,,,,,,,,,,,,,,,,,,,,,,,,,,,,,,,,,,,,,,,,87,grodo,,,0,1,0.66021,0,67,67,86,1,REAL,FAKE,,,,,,,,,,,,,,,,,,,,,
,,,,,,,6021d935ae778527962c9fd3,6057c54e64b0b4e5c128b4f9,605801bef99c374addd31d36,Spain,East coast,13 or older,no,2021-03-21_22h33.03.861,empathy_intonation_perc,2020.2.10,Win32,60,,,,,,,,,,1,,,,,,,,,,,,,,,,,,,,,,,,,,,,,,,,,,,,,,,,39,torpe,,,0,0,0.645125,0,68,68,38,1,REAL,FAKE,,,,,,,,,,,,,,,,,,,,,
,,,,,,,6021d935ae778527962c9fd3,6057c54e64b0b4e5c128b4f9,605801bef99c374addd31d36,Spain,East coast,13 or older,no,2021-03-21_22h33.03.861,empathy_intonation_perc,2020.2.10,Win32,60,,,,,,,,,,1,,,,,,,,,,,,,,,,,,,,,,,,,,,,,,,,,,,,,,,,88,acantilado,,,0,0,0.912595,0,69,69,87,1,REAL,FAKE,,,,,,,,,,,,,,,,,,,,,
,,,,,,,6021d935ae778527962c9fd3,6057c54e64b0b4e5c128b4f9,605801bef99c374addd31d36,Spain,East coast,13 or older,no,2021-03-21_22h33.03.861,empathy_intonation_perc,2020.2.10,Win32,60,,,,,,,,,,1,,,,,,,,,,,,,,,,,,,,,,,,,,,,,,,,,,,,,,,,43,canela,,,0,0,0.88159,0,70,70,42,1,REAL,FAKE,,,,,,,,,,,,,,,,,,,,,
,,,,,,,6021d935ae778527962c9fd3,6057c54e64b0b4e5c128b4f9,605801bef99c374addd31d36,Spain,East coast,13 or older,no,2021-03-21_22h33.03.861,empathy_intonation_perc,2020.2.10,Win32,60,,,,,,,,,,0,,,,,,,,,,,,,,,,,,,,,,,,,,,,,,,,,,,,,,,,27,acutacin,,,1,0,1.74308,0,71,71,26,1,REAL,FAKE,,,,,,,,,,,,,,,,,,,,,
,,,,,,,6021d935ae778527962c9fd3,6057c54e64b0b4e5c128b4f9,605801bef99c374addd31d36,Spain,East coast,13 or older,no,2021-03-21_22h33.03.861,empathy_intonation_perc,2020.2.10,Win32,60,,,,,,,,,,0,,,,,,,,,,,,,,,,,,,,,,,,,,,,,,,,,,,,,,,,42,cadallo,,,0,1,0.833625,0,72,72,41,1,REAL,FAKE,,,,,,,,,,,,,,,,,,,,,
,,,,,,,6021d935ae778527962c9fd3,6057c54e64b0b4e5c128b4f9,605801bef99c374addd31d36,Spain,East coast,13 or older,no,2021-03-21_22h33.03.861,empathy_intonation_perc,2020.2.10,Win32,60,,,,,,,,,,0,,,,,,,,,,,,,,,,,,,,,,,,,,,,,,,,,,,,,,,,79,tropaje,,,0,1,0.563035,0,73,73,78,1,REAL,FAKE,,,,,,,,,,,,,,,,,,,,,
,,,,,,,6021d935ae778527962c9fd3,6057c54e64b0b4e5c128b4f9,605801bef99c374addd31d36,Spain,East coast,13 or older,no,2021-03-21_22h33.03.861,empathy_intonation_perc,2020.2.10,Win32,60,,,,,,,,,,1,,,,,,,,,,,,,,,,,,,,,,,,,,,,,,,,,,,,,,,,7,psimo,,,1,1,1.158975,0,74,74,6,1,REAL,FAKE,,,,,,,,,,,,,,,,,,,,,
,,,,,,,6021d935ae778527962c9fd3,6057c54e64b0b4e5c128b4f9,605801bef99c374addd31d36,Spain,East coast,13 or older,no,2021-03-21_22h33.03.861,empathy_intonation_perc,2020.2.10,Win32,60,,,,,,,,,,1,,,,,,,,,,,,,,,,,,,,,,,,,,,,,,,,,,,,,,,,40,alfombra,,,1,1,1.01141,0,75,75,39,1,REAL,FAKE,,,,,,,,,,,,,,,,,,,,,
,,,,,,,6021d935ae778527962c9fd3,6057c54e64b0b4e5c128b4f9,605801bef99c374addd31d36,Spain,East coast,13 or older,no,2021-03-21_22h33.03.861,empathy_intonation_perc,2020.2.10,Win32,60,,,,,,,,,,1,,,,,,,,,,,,,,,,,,,,,,,,,,,,,,,,,,,,,,,,38,estornudar,,,0,0,1.111205,0,76,76,37,1,REAL,FAKE,,,,,,,,,,,,,,,,,,,,,
,,,,,,,6021d935ae778527962c9fd3,6057c54e64b0b4e5c128b4f9,605801bef99c374addd31d36,Spain,East coast,13 or older,no,2021-03-21_22h33.03.861,empathy_intonation_perc,2020.2.10,Win32,60,,,,,,,,,,1,,,,,,,,,,,,,,,,,,,,,,,,,,,,,,,,,,,,,,,,28,merodear,,,0,0,0.96144,0,77,77,27,1,REAL,FAKE,,,,,,,,,,,,,,,,,,,,,
,,,,,,,6021d935ae778527962c9fd3,6057c54e64b0b4e5c128b4f9,605801bef99c374addd31d36,Spain,East coast,13 or older,no,2021-03-21_22h33.03.861,empathy_intonation_perc,2020.2.10,Win32,60,,,,,,,,,,1,,,,,,,,,,,,,,,,,,,,,,,,,,,,,,,,,,,,,,,,41,rebuscar,,,1,1,0.94266,0,78,78,40,1,REAL,FAKE,,,,,,,,,,,,,,,,,,,,,
,,,,,,,6021d935ae778527962c9fd3,6057c54e64b0b4e5c128b4f9,605801bef99c374addd31d36,Spain,East coast,13 or older,no,2021-03-21_22h33.03.861,empathy_intonation_perc,2020.2.10,Win32,60,,,,,,,,,,1,,,,,,,,,,,,,,,,,,,,,,,,,,,,,,,,,,,,,,,,44,cuchara,,,0,0,0.730855,0,79,79,43,1,REAL,FAKE,,,,,,,,,,,,,,,,,,,,,
,,,,,,,6021d935ae778527962c9fd3,6057c54e64b0b4e5c128b4f9,605801bef99c374addd31d36,Spain,East coast,13 or older,no,2021-03-21_22h33.03.861,empathy_intonation_perc,2020.2.10,Win32,60,,,,,,,,,,1,,,,,,,,,,,,,,,,,,,,,,,,,,,,,,,,,,,,,,,,57,tacao,,,0,0,0.610495,0,80,80,56,1,REAL,FAKE,,,,,,,,,,,,,,,,,,,,,
,,,,,,,6021d935ae778527962c9fd3,6057c54e64b0b4e5c128b4f9,605801bef99c374addd31d36,Spain,East coast,13 or older,no,2021-03-21_22h33.03.861,empathy_intonation_perc,2020.2.10,Win32,60,,,,,,,,,,1,,,,,,,,,,,,,,,,,,,,,,,,,,,,,,,,,,,,,,,,34,aviso,,,0,0,0.716615,0,81,81,33,1,REAL,FAKE,,,,,,,,,,,,,,,,,,,,,
,,,,,,,6021d935ae778527962c9fd3,6057c54e64b0b4e5c128b4f9,605801bef99c374addd31d36,Spain,East coast,13 or older,no,2021-03-21_22h33.03.861,empathy_intonation_perc,2020.2.10,Win32,60,,,,,,,,,,1,,,,,,,,,,,,,,,,,,,,,,,,,,,,,,,,,,,,,,,,51,candado,,,0,0,0.996525,0,82,82,50,1,REAL,FAKE,,,,,,,,,,,,,,,,,,,,,
,,,,,,,6021d935ae778527962c9fd3,6057c54e64b0b4e5c128b4f9,605801bef99c374addd31d36,Spain,East coast,13 or older,no,2021-03-21_22h33.03.861,empathy_intonation_perc,2020.2.10,Win32,60,,,,,,,,,,0,,,,,,,,,,,,,,,,,,,,,,,,,,,,,,,,,,,,,,,,23,lampera,,,1,0,0.980485,0,83,83,22,1,REAL,FAKE,,,,,,,,,,,,,,,,,,,,,
,,,,,,,6021d935ae778527962c9fd3,6057c54e64b0b4e5c128b4f9,605801bef99c374addd31d36,Spain,East coast,13 or older,no,2021-03-21_22h33.03.861,empathy_intonation_perc,2020.2.10,Win32,60,,,,,,,,,,0,,,,,,,,,,,,,,,,,,,,,,,,,,,,,,,,,,,,,,,,74,cintro,,,1,0,0.81243,0,84,84,73,1,REAL,FAKE,,,,,,,,,,,,,,,,,,,,,
,,,,,,,6021d935ae778527962c9fd3,6057c54e64b0b4e5c128b4f9,605801bef99c374addd31d36,Spain,East coast,13 or older,no,2021-03-21_22h33.03.861,empathy_intonation_perc,2020.2.10,Win32,60,,,,,,,,,,1,,,,,,,,,,,,,,,,,,,,,,,,,,,,,,,,,,,,,,,,45,jilguero,,,0,0,1.02113,0,85,85,44,1,REAL,FAKE,,,,,,,,,,,,,,,,,,,,,
,,,,,,,6021d935ae778527962c9fd3,6057c54e64b0b4e5c128b4f9,605801bef99c374addd31d36,Spain,East coast,13 or older,no,2021-03-21_22h33.03.861,empathy_intonation_perc,2020.2.10,Win32,60,,,,,,,,,,1,,,,,,,,,,,,,,,,,,,,,,,,,,,,,,,,,,,,,,,,85,lad,,,0,0,0.68411,0,86,86,84,1,REAL,FAKE,,,,,,,,,,,,,,,,,,,,,
,,,,,,,6021d935ae778527962c9fd3,6057c54e64b0b4e5c128b4f9,605801bef99c374addd31d36,Spain,East coast,13 or older,no,2021-03-21_22h33.03.861,empathy_intonation_perc,2020.2.10,Win32,60,,,,,,,,,,0,,,,,,,,,,,,,,,,,,,,,,,,,,,,,,,,,,,,,,,,30,alardio,,,0,1,0.63135,0,87,87,29,1,REAL,FAKE,,,,,,,,,,,,,,,,,,,,,
,,,,,,,6021d935ae778527962c9fd3,6057c54e64b0b4e5c128b4f9,605801bef99c374addd31d36,Spain,East coast,13 or older,no,2021-03-21_22h33.03.861,empathy_intonation_perc,2020.2.10,Win32,60,,,,,,,,,,1,,,,,,,,,,,,,,,,,,,,,,,,,,,,,,,,,,,,,,,,75,yacer,,,0,0,0.58028,0,88,88,74,1,REAL,FAKE,,,,,,,,,,,,,,,,,,,,,
,,,,,,,6021d935ae778527962c9fd3,6057c54e64b0b4e5c128b4f9,605801bef99c374addd31d36,Spain,East coast,13 or older,no,2021-03-21_22h33.03.861,empathy_intonation_perc,2020.2.10,Win32,60,,,,,,,,,,0,,,,,,,,,,,,,,,,,,,,,,,,,,,,,,,,,,,,,,,,32,fatacidad,,,0,1,0.645485,0,89,89,31,1,REAL,FAKE,,,,,,,,,,,,,,,,,,,,,
,,,,,,,6021d935ae778527962c9fd3,6057c54e64b0b4e5c128b4f9,605801bef99c374addd31d36,Spain,East coast,13 or older,no,2021-03-21_22h33.03.861,empathy_intonation_perc,2020.2.10,Win32,60,,,,,,,,,,,,,,,,,,,,,,,,,,,,,,,,,,,,,,,,,,,,,,,,,,,,,,,,,,,,,,,,5,0,2.041765,1,1,0,0,0,0,1,,,,,,,,,,,
,,,,,,,6021d935ae778527962c9fd3,6057c54e64b0b4e5c128b4f9,605801bef99c374addd31d36,Spain,East coast,13 or older,no,2021-03-21_22h33.03.861,empathy_intonation_perc,2020.2.10,Win32,60,,,,,,,,,,,,,,,,,,,,1,,,,,,,,,,,,,,,,,,,,,,,,,,,,,,,,,,,,,,,,,,,,,,,,,,,,,,2,0,0,0,0,1,I can easily tell if someone else wants to enter a conversation.,1,0,1,0
,,,,,,,6021d935ae778527962c9fd3,6057c54e64b0b4e5c128b4f9,605801bef99c374addd31d36,Spain,East coast,13 or older,no,2021-03-21_22h33.03.861,empathy_intonation_perc,2020.2.10,Win32,60,,,,,,,,,,,,,,,,,,,,2,,,,,,,,,,,,,,,,,,,,,,,,,,,,,,,,,,,,,,,,,,,,,,,,,,,,,,3,0,1,1,1,1,I prefer animals to humans.,0,1,0,0
,,,,,,,6021d935ae778527962c9fd3,6057c54e64b0b4e5c128b4f9,605801bef99c374addd31d36,Spain,East coast,13 or older,no,2021-03-21_22h33.03.861,empathy_intonation_perc,2020.2.10,Win32,60,,,,,,,,,,,,,,,,,,,,3,,,,,,,,,,,,,,,,,,,,,,,,,,,,,,,,,,,,,,,,,,,,,,,,,,,,,,4,0,2,2,2,1,I try to keep up with the current trends and fashions.,0,1,0,0
,,,,,,,6021d935ae778527962c9fd3,6057c54e64b0b4e5c128b4f9,605801bef99c374addd31d36,Spain,East coast,13 or older,no,2021-03-21_22h33.03.861,empathy_intonation_perc,2020.2.10,Win32,60,,,,,,,,,,,,,,,,,,,,4,,,,,,,,,,,,,,,,,,,,,,,,,,,,,,,,,,,,,,,,,,,,,,,,,,,,,,2,0,3,3,3,1,"I find it difficult to explain to others things that I understand easily, 
  when they dont understand it first time.",1,0,0,1
,,,,,,,6021d935ae778527962c9fd3,6057c54e64b0b4e5c128b4f9,605801bef99c374addd31d36,Spain,East coast,13 or older,no,2021-03-21_22h33.03.861,empathy_intonation_perc,2020.2.10,Win32,60,,,,,,,,,,,,,,,,,,,,5,,,,,,,,,,,,,,,,,,,,,,,,,,,,,,,,,,,,,,,,,,,,,,,,,,,,,,2,0,4,4,4,1,I dream most nights.,0,1,0,0
,,,,,,,6021d935ae778527962c9fd3,6057c54e64b0b4e5c128b4f9,605801bef99c374addd31d36,Spain,East coast,13 or older,no,2021-03-21_22h33.03.861,empathy_intonation_perc,2020.2.10,Win32,60,,,,,,,,,,,,,,,,,,,,6,,,,,,,,,,,,,,,,,,,,,,,,,,,,,,,,,,,,,,,,,,,,,,,,,,,,,,3,0,5,5,5,1,I really enjoy caring for other people.,1,0,1,0
,,,,,,,6021d935ae778527962c9fd3,6057c54e64b0b4e5c128b4f9,605801bef99c374addd31d36,Spain,East coast,13 or older,no,2021-03-21_22h33.03.861,empathy_intonation_perc,2020.2.10,Win32,60,,,,,,,,,,,,,,,,,,,,7,,,,,,,,,,,,,,,,,,,,,,,,,,,,,,,,,,,,,,,,,,,,,,,,,,,,,,1,0,6,6,6,1,I try to solve my own problems rather than discussing them with others.,0,1,0,0
,,,,,,,6021d935ae778527962c9fd3,6057c54e64b0b4e5c128b4f9,605801bef99c374addd31d36,Spain,East coast,13 or older,no,2021-03-21_22h33.03.861,empathy_intonation_perc,2020.2.10,Win32,60,,,,,,,,,,,,,,,,,,,,8,,,,,,,,,,,,,,,,,,,,,,,,,,,,,,,,,,,,,,,,,,,,,,,,,,,,,,2,0,7,7,7,1,I find it hard to know what to do in a social situation.,1,0,0,1
