instructions_2afc_loop.thisRepN,instructions_2afc_loop.thisTrialN,instructions_2afc_loop.thisN,instructions_2afc_loop.thisIndex,instructions_2afc_loop.ran,instructions_text,continue_text,participant,study_id,session,I am most familiar with Spanish from...*,What part of the US are you from?*,At what age did you begin learning Spanish?*,Are you proficient in any languages other than English/Spanish?*,date,expName,psychopyVersion,OS,frameRate,key_resp_2afc_practice.keys,key_resp_2afc_practice.corr,key_resp_2afc_practice.rt,trials_2afc_practice_loop.thisRepN,trials_2afc_practice_loop.thisTrialN,trials_2afc_practice_loop.thisN,trials_2afc_practice_loop.thisIndex,trials_2afc_practice_loop.ran,path,correct_response,the_col,key_resp_2afc_trial.keys,key_resp_2afc_trial.corr,key_resp_2afc_trial.rt,trials_2afc_loop.thisRepN,trials_2afc_loop.thisTrialN,trials_2afc_loop.thisN,trials_2afc_loop.thisIndex,trials_2afc_loop.ran,item_num,andalusian,argentine,castilian,chilean,cuban,mexican,peruvian,puertorican,key_resp_ac1.keys,key_resp_ac1.corr,key_resp_ac1.rt,ac1_loop.thisRepN,ac1_loop.thisTrialN,ac1_loop.thisN,ac1_loop.thisIndex,ac1_loop.ran,instructions_lextale_loop.thisRepN,instructions_lextale_loop.thisTrialN,instructions_lextale_loop.thisN,instructions_lextale_loop.thisIndex,instructions_lextale_loop.ran,key_resp_lextale_practice.keys,key_resp_lextale_practice.corr,key_resp_lextale_practice.rt,trials_lextale_practice_loop.thisRepN,trials_lextale_practice_loop.thisTrialN,trials_lextale_practice_loop.thisN,trials_lextale_practice_loop.thisIndex,trials_lextale_practice_loop.ran,stim,word,prac_button_real,prac_button_false,key_resp_lextale_trial.keys,key_resp_lextale_trial.corr,key_resp_lextale_trial.rt,trials_lextale_loop.thisRepN,trials_lextale_loop.thisTrialN,trials_lextale_loop.thisN,trials_lextale_loop.thisIndex,trials_lextale_loop.ran,button_real,button_false,key_resp_ac2.keys,key_resp_ac2.corr,key_resp_ac2.rt,check_pass,check_fails,ac2_loop.thisRepN,ac2_loop.thisTrialN,ac2_loop.thisN,ac2_loop.thisIndex,ac2_loop.ran,slider_eq_trial.response,trials_eq_loop.thisRepN,trials_eq_loop.thisTrialN,trials_eq_loop.thisN,trials_eq_loop.thisIndex,trials_eq_loop.ran,item,is_test_item,is_distractor,is_agree_score,is_disagree_score
0,0,0,0,1,"In the following task you are going to hear a series of utterances. 

  You will decide if the utterances sound like questions or not using your keyboard.",(press the spacebar to continue),6021f6c1f883e82b11739f31,605b45a4d25f287719a41696,605bee83612bdce91a37d30d,Puerto Rico,Midwest,13 or older,no,2021-03-24_22h00.36.566,empathy_intonation_perc,2020.2.10,MacIntel,60,,,,,,,,,,,,,,,,,,,,,,,,,,,,,,,,,,,,,,,,,,,,,,,,,,,,,,,,,,,,,,,,,,,,,,,,,,,,,,,,,,,,
0,1,1,1,1,"If you believe the utterance is a question, type '1' (for 'yes') and if you do not 
  believe it is a question type '0' (for 'no').

  Let's practice a bit...",(press the spacebar to continue),6021f6c1f883e82b11739f31,605b45a4d25f287719a41696,605bee83612bdce91a37d30d,Puerto Rico,Midwest,13 or older,no,2021-03-24_22h00.36.566,empathy_intonation_perc,2020.2.10,MacIntel,60,,,,,,,,,,,,,,,,,,,,,,,,,,,,,,,,,,,,,,,,,,,,,,,,,,,,,,,,,,,,,,,,,,,,,,,,,,,,,,,,,,,,
,,,,,,,6021f6c1f883e82b11739f31,605b45a4d25f287719a41696,605bee83612bdce91a37d30d,Puerto Rico,Midwest,13 or older,no,2021-03-24_22h00.36.566,empathy_intonation_perc,2020.2.10,MacIntel,60,0,0,2.641,0,0,0,2,1,./stim/wavs/chilean_question_filler_Mi-padre-cantaba-bien.wav,1,,,,,,,,,,,,,,,,,,,,,,,,,,,,,,,,,,,,,,,,,,,,,,,,,,,,,,,,,,,,,,,,,,,,,,,,,,
,,,,,,,6021f6c1f883e82b11739f31,605b45a4d25f287719a41696,605bee83612bdce91a37d30d,Puerto Rico,Midwest,13 or older,no,2021-03-24_22h00.36.566,empathy_intonation_perc,2020.2.10,MacIntel,60,0,1,5.318,0,1,1,4,1,./stim/wavs/cuban_statement_filler_Cocinabas-por-la-noche.wav,0,,,,,,,,,,,,,,,,,,,,,,,,,,,,,,,,,,,,,,,,,,,,,,,,,,,,,,,,,,,,,,,,,,,,,,,,,,
,,,,,,,6021f6c1f883e82b11739f31,605b45a4d25f287719a41696,605bee83612bdce91a37d30d,Puerto Rico,Midwest,13 or older,no,2021-03-24_22h00.36.566,empathy_intonation_perc,2020.2.10,MacIntel,60,0,1,2.585,0,2,2,5,1,./stim/wavs/andalusian_statement_filler_Alberto-nunca-se-afeita.wav,0,,,,,,,,,,,,,,,,,,,,,,,,,,,,,,,,,,,,,,,,,,,,,,,,,,,,,,,,,,,,,,,,,,,,,,,,,,
,,,,,,,6021f6c1f883e82b11739f31,605b45a4d25f287719a41696,605bee83612bdce91a37d30d,Puerto Rico,Midwest,13 or older,no,2021-03-24_22h00.36.566,empathy_intonation_perc,2020.2.10,MacIntel,60,0,1,2.359,0,3,3,7,1,./stim/wavs/puertorican_statement_filler_La-nina-pinta-con-su-amiga.wav,0,,,,,,,,,,,,,,,,,,,,,,,,,,,,,,,,,,,,,,,,,,,,,,,,,,,,,,,,,,,,,,,,,,,,,,,,,,
,,,,,,,6021f6c1f883e82b11739f31,605b45a4d25f287719a41696,605bee83612bdce91a37d30d,Puerto Rico,Midwest,13 or older,no,2021-03-24_22h00.36.566,empathy_intonation_perc,2020.2.10,MacIntel,60,0,1,2.25,0,4,4,6,1,./stim/wavs/peruvian_statement_filler_El-nino-habla-con-su-madre.wav,0,,,,,,,,,,,,,,,,,,,,,,,,,,,,,,,,,,,,,,,,,,,,,,,,,,,,,,,,,,,,,,,,,,,,,,,,,,
,,,,,,,6021f6c1f883e82b11739f31,605b45a4d25f287719a41696,605bee83612bdce91a37d30d,Puerto Rico,Midwest,13 or older,no,2021-03-24_22h00.36.566,empathy_intonation_perc,2020.2.10,MacIntel,60,1,1,2.909,0,5,5,1,1,./stim/wavs/argentine_question_filler_Mi-vecino-habla-mucho.wav,1,,,,,,,,,,,,,,,,,,,,,,,,,,,,,,,,,,,,,,,,,,,,,,,,,,,,,,,,,,,,,,,,,,,,,,,,,,
,,,,,,,6021f6c1f883e82b11739f31,605b45a4d25f287719a41696,605bee83612bdce91a37d30d,Puerto Rico,Midwest,13 or older,no,2021-03-24_22h00.36.566,empathy_intonation_perc,2020.2.10,MacIntel,60,1,1,3.118,0,6,6,0,1,./stim/wavs/castilian_question_filler_Mi-esposo-conoce-al-chico.wav,1,,,,,,,,,,,,,,,,,,,,,,,,,,,,,,,,,,,,,,,,,,,,,,,,,,,,,,,,,,,,,,,,,,,,,,,,,,
,,,,,,,6021f6c1f883e82b11739f31,605b45a4d25f287719a41696,605bee83612bdce91a37d30d,Puerto Rico,Midwest,13 or older,no,2021-03-24_22h00.36.566,empathy_intonation_perc,2020.2.10,MacIntel,60,0,0,3.374,0,7,7,3,1,./stim/wavs/mexican_question_filler_Felipe-no-tiene-contrasena.wav,1,,,,,,,,,,,,,,,,,,,,,,,,,,,,,,,,,,,,,,,,,,,,,,,,,,,,,,,,,,,,,,,,,,,,,,,,,,
,,,,,,,6021f6c1f883e82b11739f31,605b45a4d25f287719a41696,605bee83612bdce91a37d30d,Puerto Rico,Midwest,13 or older,no,2021-03-24_22h00.36.566,empathy_intonation_perc,2020.2.10,MacIntel,60,,,,,,,,,,1,argentine,1,1,2.808,0,0,0,18,1,19,./stim/wavs/andalusian_match_interrogative-partial-wh_Cuando-lleva-el-abrigo.wav,./stim/wavs/argentine_match_interrogative-partial-wh_Cuando-lleva-el-abrigo.wav,./stim/wavs/castilian_match_interrogative-partial-wh_Cuando-lleva-el-abrigo.wav,./stim/wavs/chilean_match_interrogative-partial-wh_Cuando-lleva-el-abrigo.wav,./stim/wavs/cuban_match_interrogative-partial-wh_Cuando-lleva-el-abrigo.wav,./stim/wavs/mexican_match_interrogative-partial-wh_Cuando-lleva-el-abrigo.wav,./stim/wavs/peruvian_match_interrogative-partial-wh_Cuando-lleva-el-abrigo.wav,./stim/wavs/puertorican_match_interrogative-partial-wh_Cuando-lleva-el-abrigo.wav,,,,,,,,,,,,,,,,,,,,,,,,,,,,,,,,,,,,,,,,,,,,,,,,,,,,,,,,
,,,,,,,6021f6c1f883e82b11739f31,605b45a4d25f287719a41696,605bee83612bdce91a37d30d,Puerto Rico,Midwest,13 or older,no,2021-03-24_22h00.36.566,empathy_intonation_perc,2020.2.10,MacIntel,60,,,,,,,,,,1,argentine,0,0,2.334,0,1,1,62,1,63,./stim/wavs/andalusian_mismatch_interrogative-total-yn_Mi-novio-viene-del-lago.wav,./stim/wavs/argentine_mismatch_interrogative-total-yn_Mi-novio-viene-del-lago.wav,./stim/wavs/castilian_mismatch_interrogative-total-yn_Mi-novio-viene-del-lago.wav,./stim/wavs/chilean_mismatch_interrogative-total-yn_Mi-novio-viene-del-lago.wav,./stim/wavs/cuban_mismatch_interrogative-total-yn_Mi-novio-viene-del-lago.wav,./stim/wavs/mexican_mismatch_interrogative-total-yn_Mi-novio-viene-del-lago.wav,./stim/wavs/peruvian_mismatch_interrogative-total-yn_Mi-novio-viene-del-lago.wav,./stim/wavs/puertorican_mismatch_interrogative-total-yn_Mi-novio-viene-del-lago.wav,,,,,,,,,,,,,,,,,,,,,,,,,,,,,,,,,,,,,,,,,,,,,,,,,,,,,,,,
,,,,,,,6021f6c1f883e82b11739f31,605b45a4d25f287719a41696,605bee83612bdce91a37d30d,Puerto Rico,Midwest,13 or older,no,2021-03-24_22h00.36.566,empathy_intonation_perc,2020.2.10,MacIntel,60,,,,,,,,,,1,castilian,1,1,1.486,0,2,2,49,1,50,./stim/wavs/andalusian_mismatch_interrogative-partial-wh_Cuando-lavaba-el-plato.wav,./stim/wavs/argentine_mismatch_interrogative-partial-wh_Cuando-lavaba-el-plato.wav,./stim/wavs/castilian_mismatch_interrogative-partial-wh_Cuando-lavaba-el-plato.wav,./stim/wavs/chilean_mismatch_interrogative-partial-wh_Cuando-lavaba-el-plato.wav,./stim/wavs/cuban_mismatch_interrogative-partial-wh_Cuando-lavaba-el-plato.wav,./stim/wavs/mexican_mismatch_interrogative-partial-wh_Cuando-lavaba-el-plato.wav,./stim/wavs/peruvian_mismatch_interrogative-partial-wh_Cuando-lavaba-el-plato.wav,./stim/wavs/puertorican_mismatch_interrogative-partial-wh_Cuando-lavaba-el-plato.wav,,,,,,,,,,,,,,,,,,,,,,,,,,,,,,,,,,,,,,,,,,,,,,,,,,,,,,,,
,,,,,,,6021f6c1f883e82b11739f31,605b45a4d25f287719a41696,605bee83612bdce91a37d30d,Puerto Rico,Midwest,13 or older,no,2021-03-24_22h00.36.566,empathy_intonation_perc,2020.2.10,MacIntel,60,,,,,,,,,,0,chilean,0,1,1.833,0,3,3,13,1,14,./stim/wavs/andalusian_match_declarative-narrow-focus_Maria-bebe-el-vino.wav,./stim/wavs/argentine_match_declarative-narrow-focus_Maria-bebe-el-vino.wav,./stim/wavs/castilian_match_declarative-narrow-focus_Maria-bebe-el-vino.wav,./stim/wavs/chilean_match_declarative-narrow-focus_Maria-bebe-el-vino.wav,./stim/wavs/cuban_match_declarative-narrow-focus_Maria-bebe-el-vino.wav,./stim/wavs/mexican_match_declarative-narrow-focus_Maria-bebe-el-vino.wav,./stim/wavs/peruvian_match_declarative-narrow-focus_Maria-bebe-el-vino.wav,./stim/wavs/puertorican_match_declarative-narrow-focus_Maria-bebe-el-vino.wav,,,,,,,,,,,,,,,,,,,,,,,,,,,,,,,,,,,,,,,,,,,,,,,,,,,,,,,,
,,,,,,,6021f6c1f883e82b11739f31,605b45a4d25f287719a41696,605bee83612bdce91a37d30d,Puerto Rico,Midwest,13 or older,no,2021-03-24_22h00.36.566,empathy_intonation_perc,2020.2.10,MacIntel,60,,,,,,,,,,0,andalusian,0,1,1.942,0,4,4,9,1,10,./stim/wavs/andalusian_match_declarative-narrow-focus_Daniel-iba-a-Bolivia.wav,./stim/wavs/argentine_match_declarative-narrow-focus_Daniel-iba-a-Bolivia.wav,./stim/wavs/castilian_match_declarative-narrow-focus_Daniel-iba-a-Bolivia.wav,./stim/wavs/chilean_match_declarative-narrow-focus_Daniel-iba-a-Bolivia.wav,./stim/wavs/cuban_match_declarative-narrow-focus_Daniel-iba-a-Bolivia.wav,./stim/wavs/mexican_match_declarative-narrow-focus_Daniel-iba-a-Bolivia.wav,./stim/wavs/peruvian_match_declarative-narrow-focus_Daniel-iba-a-Bolivia.wav,./stim/wavs/puertorican_match_declarative-narrow-focus_Daniel-iba-a-Bolivia.wav,,,,,,,,,,,,,,,,,,,,,,,,,,,,,,,,,,,,,,,,,,,,,,,,,,,,,,,,
,,,,,,,6021f6c1f883e82b11739f31,605b45a4d25f287719a41696,605bee83612bdce91a37d30d,Puerto Rico,Midwest,13 or older,no,2021-03-24_22h00.36.566,empathy_intonation_perc,2020.2.10,MacIntel,60,,,,,,,,,,1,puertorican,1,1,1.084,0,5,5,16,1,17,./stim/wavs/andalusian_match_interrogative-partial-wh_Cuando-bebia-el-vino.wav,./stim/wavs/argentine_match_interrogative-partial-wh_Cuando-bebia-el-vino.wav,./stim/wavs/castilian_match_interrogative-partial-wh_Cuando-bebia-el-vino.wav,./stim/wavs/chilean_match_interrogative-partial-wh_Cuando-bebia-el-vino.wav,./stim/wavs/cuban_match_interrogative-partial-wh_Cuando-bebia-el-vino.wav,./stim/wavs/mexican_match_interrogative-partial-wh_Cuando-bebia-el-vino.wav,./stim/wavs/peruvian_match_interrogative-partial-wh_Cuando-bebia-el-vino.wav,./stim/wavs/puertorican_match_interrogative-partial-wh_Cuando-bebia-el-vino.wav,,,,,,,,,,,,,,,,,,,,,,,,,,,,,,,,,,,,,,,,,,,,,,,,,,,,,,,,
,,,,,,,6021f6c1f883e82b11739f31,605b45a4d25f287719a41696,605bee83612bdce91a37d30d,Puerto Rico,Midwest,13 or older,no,2021-03-24_22h00.36.566,empathy_intonation_perc,2020.2.10,MacIntel,60,,,,,,,,,,1,andalusian,0,0,0.984,0,6,6,31,1,32,./stim/wavs/andalusian_match_interrogative-total-yn_Marta-abre-el-regalo.wav,./stim/wavs/argentine_match_interrogative-total-yn_Marta-abre-el-regalo.wav,./stim/wavs/castilian_match_interrogative-total-yn_Marta-abre-el-regalo.wav,./stim/wavs/chilean_match_interrogative-total-yn_Marta-abre-el-regalo.wav,./stim/wavs/cuban_match_interrogative-total-yn_Marta-abre-el-regalo.wav,./stim/wavs/mexican_match_interrogative-total-yn_Marta-abre-el-regalo.wav,./stim/wavs/peruvian_match_interrogative-total-yn_Marta-abre-el-regalo.wav,./stim/wavs/puertorican_match_interrogative-total-yn_Marta-abre-el-regalo.wav,,,,,,,,,,,,,,,,,,,,,,,,,,,,,,,,,,,,,,,,,,,,,,,,,,,,,,,,
,,,,,,,6021f6c1f883e82b11739f31,605b45a4d25f287719a41696,605bee83612bdce91a37d30d,Puerto Rico,Midwest,13 or older,no,2021-03-24_22h00.36.566,empathy_intonation_perc,2020.2.10,MacIntel,60,,,,,,,,,,1,andalusian,0,0,2.649,0,7,7,30,1,31,./stim/wavs/andalusian_match_interrogative-total-yn_Mariano-habla-del-tiempo.wav,./stim/wavs/argentine_match_interrogative-total-yn_Mariano-habla-del-tiempo.wav,./stim/wavs/castilian_match_interrogative-total-yn_Mariano-habla-del-tiempo.wav,./stim/wavs/chilean_match_interrogative-total-yn_Mariano-habla-del-tiempo.wav,./stim/wavs/cuban_match_interrogative-total-yn_Mariano-habla-del-tiempo.wav,./stim/wavs/mexican_match_interrogative-total-yn_Mariano-habla-del-tiempo.wav,./stim/wavs/peruvian_match_interrogative-total-yn_Mariano-habla-del-tiempo.wav,./stim/wavs/puertorican_match_interrogative-total-yn_Mariano-habla-del-tiempo.wav,,,,,,,,,,,,,,,,,,,,,,,,,,,,,,,,,,,,,,,,,,,,,,,,,,,,,,,,
,,,,,,,6021f6c1f883e82b11739f31,605b45a4d25f287719a41696,605bee83612bdce91a37d30d,Puerto Rico,Midwest,13 or older,no,2021-03-24_22h00.36.566,empathy_intonation_perc,2020.2.10,MacIntel,60,,,,,,,,,,0,chilean,0,1,1.777,0,8,8,47,1,48,./stim/wavs/andalusian_mismatch_declarative-narrow-focus_Mi-tia-odia-la-lluvia.wav,./stim/wavs/argentine_mismatch_declarative-narrow-focus_Mi-tia-odia-la-lluvia.wav,./stim/wavs/castilian_mismatch_declarative-narrow-focus_Mi-tia-odia-la-lluvia.wav,./stim/wavs/chilean_mismatch_declarative-narrow-focus_Mi-tia-odia-la-lluvia.wav,./stim/wavs/cuban_mismatch_declarative-narrow-focus_Mi-tia-odia-la-lluvia.wav,./stim/wavs/mexican_mismatch_declarative-narrow-focus_Mi-tia-odia-la-lluvia.wav,./stim/wavs/peruvian_mismatch_declarative-narrow-focus_Mi-tia-odia-la-lluvia.wav,./stim/wavs/puertorican_mismatch_declarative-narrow-focus_Mi-tia-odia-la-lluvia.wav,,,,,,,,,,,,,,,,,,,,,,,,,,,,,,,,,,,,,,,,,,,,,,,,,,,,,,,,
,,,,,,,6021f6c1f883e82b11739f31,605b45a4d25f287719a41696,605bee83612bdce91a37d30d,Puerto Rico,Midwest,13 or older,no,2021-03-24_22h00.36.566,empathy_intonation_perc,2020.2.10,MacIntel,60,,,,,,,,,,0,castilian,0,1,1.659,0,9,9,12,1,13,./stim/wavs/andalusian_match_declarative-narrow-focus_Manuela-vende-el-carro.wav,./stim/wavs/argentine_match_declarative-narrow-focus_Manuela-vende-el-carro.wav,./stim/wavs/castilian_match_declarative-narrow-focus_Manuela-vende-el-carro.wav,./stim/wavs/chilean_match_declarative-narrow-focus_Manuela-vende-el-carro.wav,./stim/wavs/cuban_match_declarative-narrow-focus_Manuela-vende-el-carro.wav,./stim/wavs/mexican_match_declarative-narrow-focus_Manuela-vende-el-carro.wav,./stim/wavs/peruvian_match_declarative-narrow-focus_Manuela-vende-el-carro.wav,./stim/wavs/puertorican_match_declarative-narrow-focus_Manuela-vende-el-carro.wav,,,,,,,,,,,,,,,,,,,,,,,,,,,,,,,,,,,,,,,,,,,,,,,,,,,,,,,,
,,,,,,,6021f6c1f883e82b11739f31,605b45a4d25f287719a41696,605bee83612bdce91a37d30d,Puerto Rico,Midwest,13 or older,no,2021-03-24_22h00.36.566,empathy_intonation_perc,2020.2.10,MacIntel,60,,,,,,,,,,0,castilian,0,1,1.8,0,10,10,8,1,9,./stim/wavs/andalusian_match_declarative-narrow-focus_Ana-lleva-el-abrigo.wav,./stim/wavs/argentine_match_declarative-narrow-focus_Ana-lleva-el-abrigo.wav,./stim/wavs/castilian_match_declarative-narrow-focus_Ana-lleva-el-abrigo.wav,./stim/wavs/chilean_match_declarative-narrow-focus_Ana-lleva-el-abrigo.wav,./stim/wavs/cuban_match_declarative-narrow-focus_Ana-lleva-el-abrigo.wav,./stim/wavs/mexican_match_declarative-narrow-focus_Ana-lleva-el-abrigo.wav,./stim/wavs/peruvian_match_declarative-narrow-focus_Ana-lleva-el-abrigo.wav,./stim/wavs/puertorican_match_declarative-narrow-focus_Ana-lleva-el-abrigo.wav,,,,,,,,,,,,,,,,,,,,,,,,,,,,,,,,,,,,,,,,,,,,,,,,,,,,,,,,
,,,,,,,6021f6c1f883e82b11739f31,605b45a4d25f287719a41696,605bee83612bdce91a37d30d,Puerto Rico,Midwest,13 or older,no,2021-03-24_22h00.36.566,empathy_intonation_perc,2020.2.10,MacIntel,60,,,,,,,,,,1,mexican,1,1,1.815,0,11,11,22,1,23,./stim/wavs/andalusian_match_interrogative-partial-wh_Por-que-hablaba-del-agua.wav,./stim/wavs/argentine_match_interrogative-partial-wh_Por-que-hablaba-del-agua.wav,./stim/wavs/castilian_match_interrogative-partial-wh_Por-que-hablaba-del-agua.wav,./stim/wavs/chilean_match_interrogative-partial-wh_Por-que-hablaba-del-agua.wav,./stim/wavs/cuban_match_interrogative-partial-wh_Por-que-hablaba-del-agua.wav,./stim/wavs/mexican_match_interrogative-partial-wh_Por-que-hablaba-del-agua.wav,./stim/wavs/peruvian_match_interrogative-partial-wh_Por-que-hablaba-del-agua.wav,./stim/wavs/puertorican_match_interrogative-partial-wh_Por-que-hablaba-del-agua.wav,,,,,,,,,,,,,,,,,,,,,,,,,,,,,,,,,,,,,,,,,,,,,,,,,,,,,,,,
,,,,,,,6021f6c1f883e82b11739f31,605b45a4d25f287719a41696,605bee83612bdce91a37d30d,Puerto Rico,Midwest,13 or older,no,2021-03-24_22h00.36.566,empathy_intonation_perc,2020.2.10,MacIntel,60,,,,,,,,,,0,argentine,0,1,1.375,0,12,12,6,1,7,./stim/wavs/andalusian_match_declarative-broad-focus_Mariano-habla-del-tiempo.wav,./stim/wavs/argentine_match_declarative-broad-focus_Mariano-habla-del-tiempo.wav,./stim/wavs/castilian_match_declarative-broad-focus_Mariano-habla-del-tiempo.wav,./stim/wavs/chilean_match_declarative-broad-focus_Mariano-habla-del-tiempo.wav,./stim/wavs/cuban_match_declarative-broad-focus_Mariano-habla-del-tiempo.wav,./stim/wavs/mexican_match_declarative-broad-focus_Mariano-habla-del-tiempo.wav,./stim/wavs/peruvian_match_declarative-broad-focus_Mariano-habla-del-tiempo.wav,./stim/wavs/puertorican_match_declarative-broad-focus_Mariano-habla-del-tiempo.wav,,,,,,,,,,,,,,,,,,,,,,,,,,,,,,,,,,,,,,,,,,,,,,,,,,,,,,,,
,,,,,,,6021f6c1f883e82b11739f31,605b45a4d25f287719a41696,605bee83612bdce91a37d30d,Puerto Rico,Midwest,13 or older,no,2021-03-24_22h00.36.566,empathy_intonation_perc,2020.2.10,MacIntel,60,,,,,,,,,,1,puertorican,0,0,1.127,0,13,13,61,1,62,./stim/wavs/andalusian_mismatch_interrogative-total-yn_Mi-madre-come-la-fruta.wav,./stim/wavs/argentine_mismatch_interrogative-total-yn_Mi-madre-come-la-fruta.wav,./stim/wavs/castilian_mismatch_interrogative-total-yn_Mi-madre-come-la-fruta.wav,./stim/wavs/chilean_mismatch_interrogative-total-yn_Mi-madre-come-la-fruta.wav,./stim/wavs/cuban_mismatch_interrogative-total-yn_Mi-madre-come-la-fruta.wav,./stim/wavs/mexican_mismatch_interrogative-total-yn_Mi-madre-come-la-fruta.wav,./stim/wavs/peruvian_mismatch_interrogative-total-yn_Mi-madre-come-la-fruta.wav,./stim/wavs/puertorican_mismatch_interrogative-total-yn_Mi-madre-come-la-fruta.wav,,,,,,,,,,,,,,,,,,,,,,,,,,,,,,,,,,,,,,,,,,,,,,,,,,,,,,,,
,,,,,,,6021f6c1f883e82b11739f31,605b45a4d25f287719a41696,605bee83612bdce91a37d30d,Puerto Rico,Midwest,13 or older,no,2021-03-24_22h00.36.566,empathy_intonation_perc,2020.2.10,MacIntel,60,,,,,,,,,,1,chilean,0,0,0.983,0,14,14,63,1,64,./stim/wavs/andalusian_mismatch_interrogative-total-yn_Mi-tia-odia-la-lluvia.wav,./stim/wavs/argentine_mismatch_interrogative-total-yn_Mi-tia-odia-la-lluvia.wav,./stim/wavs/castilian_mismatch_interrogative-total-yn_Mi-tia-odia-la-lluvia.wav,./stim/wavs/chilean_mismatch_interrogative-total-yn_Mi-tia-odia-la-lluvia.wav,./stim/wavs/cuban_mismatch_interrogative-total-yn_Mi-tia-odia-la-lluvia.wav,./stim/wavs/mexican_mismatch_interrogative-total-yn_Mi-tia-odia-la-lluvia.wav,./stim/wavs/peruvian_mismatch_interrogative-total-yn_Mi-tia-odia-la-lluvia.wav,./stim/wavs/puertorican_mismatch_interrogative-total-yn_Mi-tia-odia-la-lluvia.wav,,,,,,,,,,,,,,,,,,,,,,,,,,,,,,,,,,,,,,,,,,,,,,,,,,,,,,,,
,,,,,,,6021f6c1f883e82b11739f31,605b45a4d25f287719a41696,605bee83612bdce91a37d30d,Puerto Rico,Midwest,13 or older,no,2021-03-24_22h00.36.566,empathy_intonation_perc,2020.2.10,MacIntel,60,,,,,,,,,,0,mexican,0,1,1.466,0,15,15,1,1,2,./stim/wavs/andalusian_match_declarative-broad-focus_Daniel-iba-a-Bolivia.wav,./stim/wavs/argentine_match_declarative-broad-focus_Daniel-iba-a-Bolivia.wav,./stim/wavs/castilian_match_declarative-broad-focus_Daniel-iba-a-Bolivia.wav,./stim/wavs/chilean_match_declarative-broad-focus_Daniel-iba-a-Bolivia.wav,./stim/wavs/cuban_match_declarative-broad-focus_Daniel-iba-a-Bolivia.wav,./stim/wavs/mexican_match_declarative-broad-focus_Daniel-iba-a-Bolivia.wav,./stim/wavs/peruvian_match_declarative-broad-focus_Daniel-iba-a-Bolivia.wav,./stim/wavs/puertorican_match_declarative-broad-focus_Daniel-iba-a-Bolivia.wav,,,,,,,,,,,,,,,,,,,,,,,,,,,,,,,,,,,,,,,,,,,,,,,,,,,,,,,,
,,,,,,,6021f6c1f883e82b11739f31,605b45a4d25f287719a41696,605bee83612bdce91a37d30d,Puerto Rico,Midwest,13 or older,no,2021-03-24_22h00.36.566,empathy_intonation_perc,2020.2.10,MacIntel,60,,,,,,,,,,1,argentine,0,0,0.959,0,16,16,58,1,59,./stim/wavs/andalusian_mismatch_interrogative-total-yn_El-nino-oye-el-rio.wav,./stim/wavs/argentine_mismatch_interrogative-total-yn_El-nino-oye-el-rio.wav,./stim/wavs/castilian_mismatch_interrogative-total-yn_El-nino-oye-el-rio.wav,./stim/wavs/chilean_mismatch_interrogative-total-yn_El-nino-oye-el-rio.wav,./stim/wavs/cuban_mismatch_interrogative-total-yn_El-nino-oye-el-rio.wav,./stim/wavs/mexican_mismatch_interrogative-total-yn_El-nino-oye-el-rio.wav,./stim/wavs/peruvian_mismatch_interrogative-total-yn_El-nino-oye-el-rio.wav,./stim/wavs/puertorican_mismatch_interrogative-total-yn_El-nino-oye-el-rio.wav,,,,,,,,,,,,,,,,,,,,,,,,,,,,,,,,,,,,,,,,,,,,,,,,,,,,,,,,
,,,,,,,6021f6c1f883e82b11739f31,605b45a4d25f287719a41696,605bee83612bdce91a37d30d,Puerto Rico,Midwest,13 or older,no,2021-03-24_22h00.36.566,empathy_intonation_perc,2020.2.10,MacIntel,60,,,,,,,,,,0,andalusian,0,1,1.259,0,17,17,3,1,4,./stim/wavs/andalusian_match_declarative-broad-focus_Emilio-ama-la-marcha.wav,./stim/wavs/argentine_match_declarative-broad-focus_Emilio-ama-la-marcha.wav,./stim/wavs/castilian_match_declarative-broad-focus_Emilio-ama-la-marcha.wav,./stim/wavs/chilean_match_declarative-broad-focus_Emilio-ama-la-marcha.wav,./stim/wavs/cuban_match_declarative-broad-focus_Emilio-ama-la-marcha.wav,./stim/wavs/mexican_match_declarative-broad-focus_Emilio-ama-la-marcha.wav,./stim/wavs/peruvian_match_declarative-broad-focus_Emilio-ama-la-marcha.wav,./stim/wavs/puertorican_match_declarative-broad-focus_Emilio-ama-la-marcha.wav,,,,,,,,,,,,,,,,,,,,,,,,,,,,,,,,,,,,,,,,,,,,,,,,,,,,,,,,
,,,,,,,6021f6c1f883e82b11739f31,605b45a4d25f287719a41696,605bee83612bdce91a37d30d,Puerto Rico,Midwest,13 or older,no,2021-03-24_22h00.36.566,empathy_intonation_perc,2020.2.10,MacIntel,60,,,,,,,,,,1,castilian,1,1,0.907,0,18,18,54,1,55,./stim/wavs/andalusian_mismatch_interrogative-partial-wh_Por-que-venia-del-lago.wav,./stim/wavs/argentine_mismatch_interrogative-partial-wh_Por-que-venia-del-lago.wav,./stim/wavs/castilian_mismatch_interrogative-partial-wh_Por-que-venia-del-lago.wav,./stim/wavs/chilean_mismatch_interrogative-partial-wh_Por-que-venia-del-lago.wav,./stim/wavs/cuban_mismatch_interrogative-partial-wh_Por-que-venia-del-lago.wav,./stim/wavs/mexican_mismatch_interrogative-partial-wh_Por-que-venia-del-lago.wav,./stim/wavs/peruvian_mismatch_interrogative-partial-wh_Por-que-venia-del-lago.wav,./stim/wavs/puertorican_mismatch_interrogative-partial-wh_Por-que-venia-del-lago.wav,,,,,,,,,,,,,,,,,,,,,,,,,,,,,,,,,,,,,,,,,,,,,,,,,,,,,,,,
,,,,,,,6021f6c1f883e82b11739f31,605b45a4d25f287719a41696,605bee83612bdce91a37d30d,Puerto Rico,Midwest,13 or older,no,2021-03-24_22h00.36.566,empathy_intonation_perc,2020.2.10,MacIntel,60,,,,,,,,,,0,mexican,0,1,0.884,0,19,19,5,1,6,./stim/wavs/andalusian_match_declarative-broad-focus_Maria-bebe-el-vino.wav,./stim/wavs/argentine_match_declarative-broad-focus_Maria-bebe-el-vino.wav,./stim/wavs/castilian_match_declarative-broad-focus_Maria-bebe-el-vino.wav,./stim/wavs/chilean_match_declarative-broad-focus_Maria-bebe-el-vino.wav,./stim/wavs/cuban_match_declarative-broad-focus_Maria-bebe-el-vino.wav,./stim/wavs/mexican_match_declarative-broad-focus_Maria-bebe-el-vino.wav,./stim/wavs/peruvian_match_declarative-broad-focus_Maria-bebe-el-vino.wav,./stim/wavs/puertorican_match_declarative-broad-focus_Maria-bebe-el-vino.wav,,,,,,,,,,,,,,,,,,,,,,,,,,,,,,,,,,,,,,,,,,,,,,,,,,,,,,,,
,,,,,,,6021f6c1f883e82b11739f31,605b45a4d25f287719a41696,605bee83612bdce91a37d30d,Puerto Rico,Midwest,13 or older,no,2021-03-24_22h00.36.566,empathy_intonation_perc,2020.2.10,MacIntel,60,,,,,,,,,,0,mexican,0,1,1.266,0,20,20,39,1,40,./stim/wavs/andalusian_mismatch_declarative-broad-focus_Mi-tia-odia-la-lluvia.wav,./stim/wavs/argentine_mismatch_declarative-broad-focus_Mi-tia-odia-la-lluvia.wav,./stim/wavs/castilian_mismatch_declarative-broad-focus_Mi-tia-odia-la-lluvia.wav,./stim/wavs/chilean_mismatch_declarative-broad-focus_Mi-tia-odia-la-lluvia.wav,./stim/wavs/cuban_mismatch_declarative-broad-focus_Mi-tia-odia-la-lluvia.wav,./stim/wavs/mexican_mismatch_declarative-broad-focus_Mi-tia-odia-la-lluvia.wav,./stim/wavs/peruvian_mismatch_declarative-broad-focus_Mi-tia-odia-la-lluvia.wav,./stim/wavs/puertorican_mismatch_declarative-broad-focus_Mi-tia-odia-la-lluvia.wav,,,,,,,,,,,,,,,,,,,,,,,,,,,,,,,,,,,,,,,,,,,,,,,,,,,,,,,,
,,,,,,,6021f6c1f883e82b11739f31,605b45a4d25f287719a41696,605bee83612bdce91a37d30d,Puerto Rico,Midwest,13 or older,no,2021-03-24_22h00.36.566,empathy_intonation_perc,2020.2.10,MacIntel,60,,,,,,,,,,1,argentine,0,0,1.851,0,21,21,57,1,58,./stim/wavs/andalusian_mismatch_interrogative-total-yn_El-hombre-mira-la-luna.wav,./stim/wavs/argentine_mismatch_interrogative-total-yn_El-hombre-mira-la-luna.wav,./stim/wavs/castilian_mismatch_interrogative-total-yn_El-hombre-mira-la-luna.wav,./stim/wavs/chilean_mismatch_interrogative-total-yn_El-hombre-mira-la-luna.wav,./stim/wavs/cuban_mismatch_interrogative-total-yn_El-hombre-mira-la-luna.wav,./stim/wavs/mexican_mismatch_interrogative-total-yn_El-hombre-mira-la-luna.wav,./stim/wavs/peruvian_mismatch_interrogative-total-yn_El-hombre-mira-la-luna.wav,./stim/wavs/puertorican_mismatch_interrogative-total-yn_El-hombre-mira-la-luna.wav,,,,,,,,,,,,,,,,,,,,,,,,,,,,,,,,,,,,,,,,,,,,,,,,,,,,,,,,
,,,,,,,6021f6c1f883e82b11739f31,605b45a4d25f287719a41696,605bee83612bdce91a37d30d,Puerto Rico,Midwest,13 or older,no,2021-03-24_22h00.36.566,empathy_intonation_perc,2020.2.10,MacIntel,60,,,,,,,,,,0,mexican,0,1,1.059,0,22,22,38,1,39,./stim/wavs/andalusian_mismatch_declarative-broad-focus_Mi-novio-viene-del-lago.wav,./stim/wavs/argentine_mismatch_declarative-broad-focus_Mi-novio-viene-del-lago.wav,./stim/wavs/castilian_mismatch_declarative-broad-focus_Mi-novio-viene-del-lago.wav,./stim/wavs/chilean_mismatch_declarative-broad-focus_Mi-novio-viene-del-lago.wav,./stim/wavs/cuban_mismatch_declarative-broad-focus_Mi-novio-viene-del-lago.wav,./stim/wavs/mexican_mismatch_declarative-broad-focus_Mi-novio-viene-del-lago.wav,./stim/wavs/peruvian_mismatch_declarative-broad-focus_Mi-novio-viene-del-lago.wav,./stim/wavs/puertorican_mismatch_declarative-broad-focus_Mi-novio-viene-del-lago.wav,,,,,,,,,,,,,,,,,,,,,,,,,,,,,,,,,,,,,,,,,,,,,,,,,,,,,,,,
,,,,,,,6021f6c1f883e82b11739f31,605b45a4d25f287719a41696,605bee83612bdce91a37d30d,Puerto Rico,Midwest,13 or older,no,2021-03-24_22h00.36.566,empathy_intonation_perc,2020.2.10,MacIntel,60,,,,,,,,,,1,andalusian,1,1,1.019,0,23,23,17,1,18,./stim/wavs/andalusian_match_interrogative-partial-wh_Cuando-leia-el-libro.wav,./stim/wavs/argentine_match_interrogative-partial-wh_Cuando-leia-el-libro.wav,./stim/wavs/castilian_match_interrogative-partial-wh_Cuando-leia-el-libro.wav,./stim/wavs/chilean_match_interrogative-partial-wh_Cuando-leia-el-libro.wav,./stim/wavs/cuban_match_interrogative-partial-wh_Cuando-leia-el-libro.wav,./stim/wavs/mexican_match_interrogative-partial-wh_Cuando-leia-el-libro.wav,./stim/wavs/peruvian_match_interrogative-partial-wh_Cuando-leia-el-libro.wav,./stim/wavs/puertorican_match_interrogative-partial-wh_Cuando-leia-el-libro.wav,,,,,,,,,,,,,,,,,,,,,,,,,,,,,,,,,,,,,,,,,,,,,,,,,,,,,,,,
,,,,,,,6021f6c1f883e82b11739f31,605b45a4d25f287719a41696,605bee83612bdce91a37d30d,Puerto Rico,Midwest,13 or older,no,2021-03-24_22h00.36.566,empathy_intonation_perc,2020.2.10,MacIntel,60,,,,,,,,,,0,puertorican,0,1,1,0,24,24,4,1,5,./stim/wavs/andalusian_match_declarative-broad-focus_Manuela-vende-el-carro.wav,./stim/wavs/argentine_match_declarative-broad-focus_Manuela-vende-el-carro.wav,./stim/wavs/castilian_match_declarative-broad-focus_Manuela-vende-el-carro.wav,./stim/wavs/chilean_match_declarative-broad-focus_Manuela-vende-el-carro.wav,./stim/wavs/cuban_match_declarative-broad-focus_Manuela-vende-el-carro.wav,./stim/wavs/mexican_match_declarative-broad-focus_Manuela-vende-el-carro.wav,./stim/wavs/peruvian_match_declarative-broad-focus_Manuela-vende-el-carro.wav,./stim/wavs/puertorican_match_declarative-broad-focus_Manuela-vende-el-carro.wav,,,,,,,,,,,,,,,,,,,,,,,,,,,,,,,,,,,,,,,,,,,,,,,,,,,,,,,,
,,,,,,,6021f6c1f883e82b11739f31,605b45a4d25f287719a41696,605bee83612bdce91a37d30d,Puerto Rico,Midwest,13 or older,no,2021-03-24_22h00.36.566,empathy_intonation_perc,2020.2.10,MacIntel,60,,,,,,,,,,1,mexican,0,0,1.324,0,25,25,29,1,30,./stim/wavs/andalusian_match_interrogative-total-yn_Maria-bebe-el-vino.wav,./stim/wavs/argentine_match_interrogative-total-yn_Maria-bebe-el-vino.wav,./stim/wavs/castilian_match_interrogative-total-yn_Maria-bebe-el-vino.wav,./stim/wavs/chilean_match_interrogative-total-yn_Maria-bebe-el-vino.wav,./stim/wavs/cuban_match_interrogative-total-yn_Maria-bebe-el-vino.wav,./stim/wavs/mexican_match_interrogative-total-yn_Maria-bebe-el-vino.wav,./stim/wavs/peruvian_match_interrogative-total-yn_Maria-bebe-el-vino.wav,./stim/wavs/puertorican_match_interrogative-total-yn_Maria-bebe-el-vino.wav,,,,,,,,,,,,,,,,,,,,,,,,,,,,,,,,,,,,,,,,,,,,,,,,,,,,,,,,
,,,,,,,6021f6c1f883e82b11739f31,605b45a4d25f287719a41696,605bee83612bdce91a37d30d,Puerto Rico,Midwest,13 or older,no,2021-03-24_22h00.36.566,empathy_intonation_perc,2020.2.10,MacIntel,60,,,,,,,,,,1,cuban,1,1,0.834,0,26,26,50,1,51,./stim/wavs/andalusian_mismatch_interrogative-partial-wh_Cuando-miraba-la-luna.wav,./stim/wavs/argentine_mismatch_interrogative-partial-wh_Cuando-miraba-la-luna.wav,./stim/wavs/castilian_mismatch_interrogative-partial-wh_Cuando-miraba-la-luna.wav,./stim/wavs/chilean_mismatch_interrogative-partial-wh_Cuando-miraba-la-luna.wav,./stim/wavs/cuban_mismatch_interrogative-partial-wh_Cuando-miraba-la-luna.wav,./stim/wavs/mexican_mismatch_interrogative-partial-wh_Cuando-miraba-la-luna.wav,./stim/wavs/peruvian_mismatch_interrogative-partial-wh_Cuando-miraba-la-luna.wav,./stim/wavs/puertorican_mismatch_interrogative-partial-wh_Cuando-miraba-la-luna.wav,,,,,,,,,,,,,,,,,,,,,,,,,,,,,,,,,,,,,,,,,,,,,,,,,,,,,,,,
,,,,,,,6021f6c1f883e82b11739f31,605b45a4d25f287719a41696,605bee83612bdce91a37d30d,Puerto Rico,Midwest,13 or older,no,2021-03-24_22h00.36.566,empathy_intonation_perc,2020.2.10,MacIntel,60,,,,,,,,,,1,peruvian,1,1,0.951,0,27,27,21,1,22,./stim/wavs/andalusian_match_interrogative-partial-wh_Por-que-ama-la-navidad.wav,./stim/wavs/argentine_match_interrogative-partial-wh_Por-que-ama-la-navidad.wav,./stim/wavs/castilian_match_interrogative-partial-wh_Por-que-ama-la-navidad.wav,./stim/wavs/chilean_match_interrogative-partial-wh_Por-que-ama-la-navidad.wav,./stim/wavs/cuban_match_interrogative-partial-wh_Por-que-ama-la-navidad.wav,./stim/wavs/mexican_match_interrogative-partial-wh_Por-que-ama-la-navidad.wav,./stim/wavs/peruvian_match_interrogative-partial-wh_Por-que-ama-la-navidad.wav,./stim/wavs/puertorican_match_interrogative-partial-wh_Por-que-ama-la-navidad.wav,,,,,,,,,,,,,,,,,,,,,,,,,,,,,,,,,,,,,,,,,,,,,,,,,,,,,,,,
,,,,,,,6021f6c1f883e82b11739f31,605b45a4d25f287719a41696,605bee83612bdce91a37d30d,Puerto Rico,Midwest,13 or older,no,2021-03-24_22h00.36.566,empathy_intonation_perc,2020.2.10,MacIntel,60,,,,,,,,,,1,andalusian,0,0,1.184,0,28,28,56,1,57,./stim/wavs/andalusian_mismatch_interrogative-total-yn_El-bebe-comia-muy-bien.wav,./stim/wavs/argentine_mismatch_interrogative-total-yn_El-bebe-comia-muy-bien.wav,./stim/wavs/castilian_mismatch_interrogative-total-yn_El-bebe-comia-muy-bien.wav,./stim/wavs/chilean_mismatch_interrogative-total-yn_El-bebe-comia-muy-bien.wav,./stim/wavs/cuban_mismatch_interrogative-total-yn_El-bebe-comia-muy-bien.wav,./stim/wavs/mexican_mismatch_interrogative-total-yn_El-bebe-comia-muy-bien.wav,./stim/wavs/peruvian_mismatch_interrogative-total-yn_El-bebe-comia-muy-bien.wav,./stim/wavs/puertorican_mismatch_interrogative-total-yn_El-bebe-comia-muy-bien.wav,,,,,,,,,,,,,,,,,,,,,,,,,,,,,,,,,,,,,,,,,,,,,,,,,,,,,,,,
,,,,,,,6021f6c1f883e82b11739f31,605b45a4d25f287719a41696,605bee83612bdce91a37d30d,Puerto Rico,Midwest,13 or older,no,2021-03-24_22h00.36.566,empathy_intonation_perc,2020.2.10,MacIntel,60,,,,,,,,,,0,andalusian,0,1,1.564,0,29,29,32,1,33,./stim/wavs/andalusian_mismatch_declarative-broad-focus_El-bebe-comia-muy-bien.wav,./stim/wavs/argentine_mismatch_declarative-broad-focus_El-bebe-comia-muy-bien.wav,./stim/wavs/castilian_mismatch_declarative-broad-focus_El-bebe-comia-muy-bien.wav,./stim/wavs/chilean_mismatch_declarative-broad-focus_El-bebe-comia-muy-bien.wav,./stim/wavs/cuban_mismatch_declarative-broad-focus_El-bebe-comia-muy-bien.wav,./stim/wavs/mexican_mismatch_declarative-broad-focus_El-bebe-comia-muy-bien.wav,./stim/wavs/peruvian_mismatch_declarative-broad-focus_El-bebe-comia-muy-bien.wav,./stim/wavs/puertorican_mismatch_declarative-broad-focus_El-bebe-comia-muy-bien.wav,,,,,,,,,,,,,,,,,,,,,,,,,,,,,,,,,,,,,,,,,,,,,,,,,,,,,,,,
,,,,,,,6021f6c1f883e82b11739f31,605b45a4d25f287719a41696,605bee83612bdce91a37d30d,Puerto Rico,Midwest,13 or older,no,2021-03-24_22h00.36.566,empathy_intonation_perc,2020.2.10,MacIntel,60,,,,,,,,,,0,andalusian,0,1,1.784,0,30,30,41,1,42,./stim/wavs/andalusian_mismatch_declarative-narrow-focus_El-hombre-mira-la-luna.wav,./stim/wavs/argentine_mismatch_declarative-narrow-focus_El-hombre-mira-la-luna.wav,./stim/wavs/castilian_mismatch_declarative-narrow-focus_El-hombre-mira-la-luna.wav,./stim/wavs/chilean_mismatch_declarative-narrow-focus_El-hombre-mira-la-luna.wav,./stim/wavs/cuban_mismatch_declarative-narrow-focus_El-hombre-mira-la-luna.wav,./stim/wavs/mexican_mismatch_declarative-narrow-focus_El-hombre-mira-la-luna.wav,./stim/wavs/peruvian_mismatch_declarative-narrow-focus_El-hombre-mira-la-luna.wav,./stim/wavs/puertorican_mismatch_declarative-narrow-focus_El-hombre-mira-la-luna.wav,,,,,,,,,,,,,,,,,,,,,,,,,,,,,,,,,,,,,,,,,,,,,,,,,,,,,,,,
,,,,,,,6021f6c1f883e82b11739f31,605b45a4d25f287719a41696,605bee83612bdce91a37d30d,Puerto Rico,Midwest,13 or older,no,2021-03-24_22h00.36.566,empathy_intonation_perc,2020.2.10,MacIntel,60,,,,,,,,,,1,argentine,1,1,1.441,0,31,31,48,1,49,./stim/wavs/andalusian_mismatch_interrogative-partial-wh_Cuando-comia-la-fruta.wav,./stim/wavs/argentine_mismatch_interrogative-partial-wh_Cuando-comia-la-fruta.wav,./stim/wavs/castilian_mismatch_interrogative-partial-wh_Cuando-comia-la-fruta.wav,./stim/wavs/chilean_mismatch_interrogative-partial-wh_Cuando-comia-la-fruta.wav,./stim/wavs/cuban_mismatch_interrogative-partial-wh_Cuando-comia-la-fruta.wav,./stim/wavs/mexican_mismatch_interrogative-partial-wh_Cuando-comia-la-fruta.wav,./stim/wavs/peruvian_mismatch_interrogative-partial-wh_Cuando-comia-la-fruta.wav,./stim/wavs/puertorican_mismatch_interrogative-partial-wh_Cuando-comia-la-fruta.wav,,,,,,,,,,,,,,,,,,,,,,,,,,,,,,,,,,,,,,,,,,,,,,,,,,,,,,,,
,,,,,,,6021f6c1f883e82b11739f31,605b45a4d25f287719a41696,605bee83612bdce91a37d30d,Puerto Rico,Midwest,13 or older,no,2021-03-24_22h00.36.566,empathy_intonation_perc,2020.2.10,MacIntel,60,,,,,,,,,,1,puertorican,0,0,2.452,0,32,32,24,1,25,./stim/wavs/andalusian_match_interrogative-total-yn_Ana-lleva-el-abrigo.wav,./stim/wavs/argentine_match_interrogative-total-yn_Ana-lleva-el-abrigo.wav,./stim/wavs/castilian_match_interrogative-total-yn_Ana-lleva-el-abrigo.wav,./stim/wavs/chilean_match_interrogative-total-yn_Ana-lleva-el-abrigo.wav,./stim/wavs/cuban_match_interrogative-total-yn_Ana-lleva-el-abrigo.wav,./stim/wavs/mexican_match_interrogative-total-yn_Ana-lleva-el-abrigo.wav,./stim/wavs/peruvian_match_interrogative-total-yn_Ana-lleva-el-abrigo.wav,./stim/wavs/puertorican_match_interrogative-total-yn_Ana-lleva-el-abrigo.wav,,,,,,,,,,,,,,,,,,,,,,,,,,,,,,,,,,,,,,,,,,,,,,,,,,,,,,,,
,,,,,,,6021f6c1f883e82b11739f31,605b45a4d25f287719a41696,605bee83612bdce91a37d30d,Puerto Rico,Midwest,13 or older,no,2021-03-24_22h00.36.566,empathy_intonation_perc,2020.2.10,MacIntel,60,,,,,,,,,,0,castilian,0,1,1.308,0,33,33,45,1,46,./stim/wavs/andalusian_mismatch_declarative-narrow-focus_Mi-madre-come-la-fruta.wav,./stim/wavs/argentine_mismatch_declarative-narrow-focus_Mi-madre-come-la-fruta.wav,./stim/wavs/castilian_mismatch_declarative-narrow-focus_Mi-madre-come-la-fruta.wav,./stim/wavs/chilean_mismatch_declarative-narrow-focus_Mi-madre-come-la-fruta.wav,./stim/wavs/cuban_mismatch_declarative-narrow-focus_Mi-madre-come-la-fruta.wav,./stim/wavs/mexican_mismatch_declarative-narrow-focus_Mi-madre-come-la-fruta.wav,./stim/wavs/peruvian_mismatch_declarative-narrow-focus_Mi-madre-come-la-fruta.wav,./stim/wavs/puertorican_mismatch_declarative-narrow-focus_Mi-madre-come-la-fruta.wav,,,,,,,,,,,,,,,,,,,,,,,,,,,,,,,,,,,,,,,,,,,,,,,,,,,,,,,,
,,,,,,,6021f6c1f883e82b11739f31,605b45a4d25f287719a41696,605bee83612bdce91a37d30d,Puerto Rico,Midwest,13 or older,no,2021-03-24_22h00.36.566,empathy_intonation_perc,2020.2.10,MacIntel,60,,,,,,,,,,0,castilian,0,1,1.793,0,34,34,36,1,37,./stim/wavs/andalusian_mismatch_declarative-broad-focus_La-nina-lava-el-plato.wav,./stim/wavs/argentine_mismatch_declarative-broad-focus_La-nina-lava-el-plato.wav,./stim/wavs/castilian_mismatch_declarative-broad-focus_La-nina-lava-el-plato.wav,./stim/wavs/chilean_mismatch_declarative-broad-focus_La-nina-lava-el-plato.wav,./stim/wavs/cuban_mismatch_declarative-broad-focus_La-nina-lava-el-plato.wav,./stim/wavs/mexican_mismatch_declarative-broad-focus_La-nina-lava-el-plato.wav,./stim/wavs/peruvian_mismatch_declarative-broad-focus_La-nina-lava-el-plato.wav,./stim/wavs/puertorican_mismatch_declarative-broad-focus_La-nina-lava-el-plato.wav,,,,,,,,,,,,,,,,,,,,,,,,,,,,,,,,,,,,,,,,,,,,,,,,,,,,,,,,
,,,,,,,6021f6c1f883e82b11739f31,605b45a4d25f287719a41696,605bee83612bdce91a37d30d,Puerto Rico,Midwest,13 or older,no,2021-03-24_22h00.36.566,empathy_intonation_perc,2020.2.10,MacIntel,60,,,,,,,,,,0,puertorican,0,1,0.989,0,35,35,34,1,35,./stim/wavs/andalusian_mismatch_declarative-broad-focus_El-nino-oye-el-rio.wav,./stim/wavs/argentine_mismatch_declarative-broad-focus_El-nino-oye-el-rio.wav,./stim/wavs/castilian_mismatch_declarative-broad-focus_El-nino-oye-el-rio.wav,./stim/wavs/chilean_mismatch_declarative-broad-focus_El-nino-oye-el-rio.wav,./stim/wavs/cuban_mismatch_declarative-broad-focus_El-nino-oye-el-rio.wav,./stim/wavs/mexican_mismatch_declarative-broad-focus_El-nino-oye-el-rio.wav,./stim/wavs/peruvian_mismatch_declarative-broad-focus_El-nino-oye-el-rio.wav,./stim/wavs/puertorican_mismatch_declarative-broad-focus_El-nino-oye-el-rio.wav,,,,,,,,,,,,,,,,,,,,,,,,,,,,,,,,,,,,,,,,,,,,,,,,,,,,,,,,
,,,,,,,6021f6c1f883e82b11739f31,605b45a4d25f287719a41696,605bee83612bdce91a37d30d,Puerto Rico,Midwest,13 or older,no,2021-03-24_22h00.36.566,empathy_intonation_perc,2020.2.10,MacIntel,60,,,,,,,,,,1,peruvian,1,1,1.149,0,36,36,55,1,56,./stim/wavs/andalusian_mismatch_interrogative-partial-wh_Por-que-vivia-en-Paris.wav,./stim/wavs/argentine_mismatch_interrogative-partial-wh_Por-que-vivia-en-Paris.wav,./stim/wavs/castilian_mismatch_interrogative-partial-wh_Por-que-vivia-en-Paris.wav,./stim/wavs/chilean_mismatch_interrogative-partial-wh_Por-que-vivia-en-Paris.wav,./stim/wavs/cuban_mismatch_interrogative-partial-wh_Por-que-vivia-en-Paris.wav,./stim/wavs/mexican_mismatch_interrogative-partial-wh_Por-que-vivia-en-Paris.wav,./stim/wavs/peruvian_mismatch_interrogative-partial-wh_Por-que-vivia-en-Paris.wav,./stim/wavs/puertorican_mismatch_interrogative-partial-wh_Por-que-vivia-en-Paris.wav,,,,,,,,,,,,,,,,,,,,,,,,,,,,,,,,,,,,,,,,,,,,,,,,,,,,,,,,
,,,,,,,6021f6c1f883e82b11739f31,605b45a4d25f287719a41696,605bee83612bdce91a37d30d,Puerto Rico,Midwest,13 or older,no,2021-03-24_22h00.36.566,empathy_intonation_perc,2020.2.10,MacIntel,60,,,,,,,,,,0,puertorican,1,0,1.308,0,37,37,44,1,45,./stim/wavs/andalusian_mismatch_declarative-narrow-focus_La-nina-lava-el-plato.wav,./stim/wavs/argentine_mismatch_declarative-narrow-focus_La-nina-lava-el-plato.wav,./stim/wavs/castilian_mismatch_declarative-narrow-focus_La-nina-lava-el-plato.wav,./stim/wavs/chilean_mismatch_declarative-narrow-focus_La-nina-lava-el-plato.wav,./stim/wavs/cuban_mismatch_declarative-narrow-focus_La-nina-lava-el-plato.wav,./stim/wavs/mexican_mismatch_declarative-narrow-focus_La-nina-lava-el-plato.wav,./stim/wavs/peruvian_mismatch_declarative-narrow-focus_La-nina-lava-el-plato.wav,./stim/wavs/puertorican_mismatch_declarative-narrow-focus_La-nina-lava-el-plato.wav,,,,,,,,,,,,,,,,,,,,,,,,,,,,,,,,,,,,,,,,,,,,,,,,,,,,,,,,
,,,,,,,6021f6c1f883e82b11739f31,605b45a4d25f287719a41696,605bee83612bdce91a37d30d,Puerto Rico,Midwest,13 or older,no,2021-03-24_22h00.36.566,empathy_intonation_perc,2020.2.10,MacIntel,60,,,,,,,,,,0,andalusian,0,1,1.617,0,38,38,2,1,3,./stim/wavs/andalusian_match_declarative-broad-focus_David-leia-el-libro.wav,./stim/wavs/argentine_match_declarative-broad-focus_David-leia-el-libro.wav,./stim/wavs/castilian_match_declarative-broad-focus_David-leia-el-libro.wav,./stim/wavs/chilean_match_declarative-broad-focus_David-leia-el-libro.wav,./stim/wavs/cuban_match_declarative-broad-focus_David-leia-el-libro.wav,./stim/wavs/mexican_match_declarative-broad-focus_David-leia-el-libro.wav,./stim/wavs/peruvian_match_declarative-broad-focus_David-leia-el-libro.wav,./stim/wavs/puertorican_match_declarative-broad-focus_David-leia-el-libro.wav,,,,,,,,,,,,,,,,,,,,,,,,,,,,,,,,,,,,,,,,,,,,,,,,,,,,,,,,
,,,,,,,6021f6c1f883e82b11739f31,605b45a4d25f287719a41696,605bee83612bdce91a37d30d,Puerto Rico,Midwest,13 or older,no,2021-03-24_22h00.36.566,empathy_intonation_perc,2020.2.10,MacIntel,60,,,,,,,,,,0,castilian,0,1,2.144,0,39,39,35,1,36,./stim/wavs/andalusian_mismatch_declarative-broad-focus_La-maestra-vive-en-Paris.wav,./stim/wavs/argentine_mismatch_declarative-broad-focus_La-maestra-vive-en-Paris.wav,./stim/wavs/castilian_mismatch_declarative-broad-focus_La-maestra-vive-en-Paris.wav,./stim/wavs/chilean_mismatch_declarative-broad-focus_La-maestra-vive-en-Paris.wav,./stim/wavs/cuban_mismatch_declarative-broad-focus_La-maestra-vive-en-Paris.wav,./stim/wavs/mexican_mismatch_declarative-broad-focus_La-maestra-vive-en-Paris.wav,./stim/wavs/peruvian_mismatch_declarative-broad-focus_La-maestra-vive-en-Paris.wav,./stim/wavs/puertorican_mismatch_declarative-broad-focus_La-maestra-vive-en-Paris.wav,,,,,,,,,,,,,,,,,,,,,,,,,,,,,,,,,,,,,,,,,,,,,,,,,,,,,,,,
,,,,,,,6021f6c1f883e82b11739f31,605b45a4d25f287719a41696,605bee83612bdce91a37d30d,Puerto Rico,Midwest,13 or older,no,2021-03-24_22h00.36.566,empathy_intonation_perc,2020.2.10,MacIntel,60,,,,,,,,,,1,chilean,1,1,1.039,0,40,40,53,1,54,./stim/wavs/andalusian_mismatch_interrogative-partial-wh_Por-que-oia-el-rio.wav,./stim/wavs/argentine_mismatch_interrogative-partial-wh_Por-que-oia-el-rio.wav,./stim/wavs/castilian_mismatch_interrogative-partial-wh_Por-que-oia-el-rio.wav,./stim/wavs/chilean_mismatch_interrogative-partial-wh_Por-que-oia-el-rio.wav,./stim/wavs/cuban_mismatch_interrogative-partial-wh_Por-que-oia-el-rio.wav,./stim/wavs/mexican_mismatch_interrogative-partial-wh_Por-que-oia-el-rio.wav,./stim/wavs/peruvian_mismatch_interrogative-partial-wh_Por-que-oia-el-rio.wav,./stim/wavs/puertorican_mismatch_interrogative-partial-wh_Por-que-oia-el-rio.wav,,,,,,,,,,,,,,,,,,,,,,,,,,,,,,,,,,,,,,,,,,,,,,,,,,,,,,,,
,,,,,,,6021f6c1f883e82b11739f31,605b45a4d25f287719a41696,605bee83612bdce91a37d30d,Puerto Rico,Midwest,13 or older,no,2021-03-24_22h00.36.566,empathy_intonation_perc,2020.2.10,MacIntel,60,,,,,,,,,,0,andalusian,0,1,2.101,0,41,41,15,1,16,./stim/wavs/andalusian_match_declarative-narrow-focus_Marta-abre-el-regalo.wav,./stim/wavs/argentine_match_declarative-narrow-focus_Marta-abre-el-regalo.wav,./stim/wavs/castilian_match_declarative-narrow-focus_Marta-abre-el-regalo.wav,./stim/wavs/chilean_match_declarative-narrow-focus_Marta-abre-el-regalo.wav,./stim/wavs/cuban_match_declarative-narrow-focus_Marta-abre-el-regalo.wav,./stim/wavs/mexican_match_declarative-narrow-focus_Marta-abre-el-regalo.wav,./stim/wavs/peruvian_match_declarative-narrow-focus_Marta-abre-el-regalo.wav,./stim/wavs/puertorican_match_declarative-narrow-focus_Marta-abre-el-regalo.wav,,,,,,,,,,,,,,,,,,,,,,,,,,,,,,,,,,,,,,,,,,,,,,,,,,,,,,,,
,,,,,,,6021f6c1f883e82b11739f31,605b45a4d25f287719a41696,605bee83612bdce91a37d30d,Puerto Rico,Midwest,13 or older,no,2021-03-24_22h00.36.566,empathy_intonation_perc,2020.2.10,MacIntel,60,,,,,,,,,,0,castilian,0,1,1.275,0,42,42,46,1,47,./stim/wavs/andalusian_mismatch_declarative-narrow-focus_Mi-novio-viene-del-lago.wav,./stim/wavs/argentine_mismatch_declarative-narrow-focus_Mi-novio-viene-del-lago.wav,./stim/wavs/castilian_mismatch_declarative-narrow-focus_Mi-novio-viene-del-lago.wav,./stim/wavs/chilean_mismatch_declarative-narrow-focus_Mi-novio-viene-del-lago.wav,./stim/wavs/cuban_mismatch_declarative-narrow-focus_Mi-novio-viene-del-lago.wav,./stim/wavs/mexican_mismatch_declarative-narrow-focus_Mi-novio-viene-del-lago.wav,./stim/wavs/peruvian_mismatch_declarative-narrow-focus_Mi-novio-viene-del-lago.wav,./stim/wavs/puertorican_mismatch_declarative-narrow-focus_Mi-novio-viene-del-lago.wav,,,,,,,,,,,,,,,,,,,,,,,,,,,,,,,,,,,,,,,,,,,,,,,,,,,,,,,,
,,,,,,,6021f6c1f883e82b11739f31,605b45a4d25f287719a41696,605bee83612bdce91a37d30d,Puerto Rico,Midwest,13 or older,no,2021-03-24_22h00.36.566,empathy_intonation_perc,2020.2.10,MacIntel,60,,,,,,,,,,1,argentine,0,0,2.131,0,43,43,25,1,26,./stim/wavs/andalusian_match_interrogative-total-yn_Daniel-iba-a-Bolivia.wav,./stim/wavs/argentine_match_interrogative-total-yn_Daniel-iba-a-Bolivia.wav,./stim/wavs/castilian_match_interrogative-total-yn_Daniel-iba-a-Bolivia.wav,./stim/wavs/chilean_match_interrogative-total-yn_Daniel-iba-a-Bolivia.wav,./stim/wavs/cuban_match_interrogative-total-yn_Daniel-iba-a-Bolivia.wav,./stim/wavs/mexican_match_interrogative-total-yn_Daniel-iba-a-Bolivia.wav,./stim/wavs/peruvian_match_interrogative-total-yn_Daniel-iba-a-Bolivia.wav,./stim/wavs/puertorican_match_interrogative-total-yn_Daniel-iba-a-Bolivia.wav,,,,,,,,,,,,,,,,,,,,,,,,,,,,,,,,,,,,,,,,,,,,,,,,,,,,,,,,
,,,,,,,6021f6c1f883e82b11739f31,605b45a4d25f287719a41696,605bee83612bdce91a37d30d,Puerto Rico,Midwest,13 or older,no,2021-03-24_22h00.36.566,empathy_intonation_perc,2020.2.10,MacIntel,60,,,,,,,,,,0,andalusian,0,1,1.441,0,44,44,37,1,38,./stim/wavs/andalusian_mismatch_declarative-broad-focus_Mi-madre-come-la-fruta.wav,./stim/wavs/argentine_mismatch_declarative-broad-focus_Mi-madre-come-la-fruta.wav,./stim/wavs/castilian_mismatch_declarative-broad-focus_Mi-madre-come-la-fruta.wav,./stim/wavs/chilean_mismatch_declarative-broad-focus_Mi-madre-come-la-fruta.wav,./stim/wavs/cuban_mismatch_declarative-broad-focus_Mi-madre-come-la-fruta.wav,./stim/wavs/mexican_mismatch_declarative-broad-focus_Mi-madre-come-la-fruta.wav,./stim/wavs/peruvian_mismatch_declarative-broad-focus_Mi-madre-come-la-fruta.wav,./stim/wavs/puertorican_mismatch_declarative-broad-focus_Mi-madre-come-la-fruta.wav,,,,,,,,,,,,,,,,,,,,,,,,,,,,,,,,,,,,,,,,,,,,,,,,,,,,,,,,
,,,,,,,6021f6c1f883e82b11739f31,605b45a4d25f287719a41696,605bee83612bdce91a37d30d,Puerto Rico,Midwest,13 or older,no,2021-03-24_22h00.36.566,empathy_intonation_perc,2020.2.10,MacIntel,60,,,,,,,,,,0,peruvian,0,1,1.243,0,45,45,42,1,43,./stim/wavs/andalusian_mismatch_declarative-narrow-focus_El-nino-oye-el-rio.wav,./stim/wavs/argentine_mismatch_declarative-narrow-focus_El-nino-oye-el-rio.wav,./stim/wavs/castilian_mismatch_declarative-narrow-focus_El-nino-oye-el-rio.wav,./stim/wavs/chilean_mismatch_declarative-narrow-focus_El-nino-oye-el-rio.wav,./stim/wavs/cuban_mismatch_declarative-narrow-focus_El-nino-oye-el-rio.wav,./stim/wavs/mexican_mismatch_declarative-narrow-focus_El-nino-oye-el-rio.wav,./stim/wavs/peruvian_mismatch_declarative-narrow-focus_El-nino-oye-el-rio.wav,./stim/wavs/puertorican_mismatch_declarative-narrow-focus_El-nino-oye-el-rio.wav,,,,,,,,,,,,,,,,,,,,,,,,,,,,,,,,,,,,,,,,,,,,,,,,,,,,,,,,
,,,,,,,6021f6c1f883e82b11739f31,605b45a4d25f287719a41696,605bee83612bdce91a37d30d,Puerto Rico,Midwest,13 or older,no,2021-03-24_22h00.36.566,empathy_intonation_perc,2020.2.10,MacIntel,60,,,,,,,,,,1,mexican,1,1,1.174,0,46,46,19,1,20,./stim/wavs/andalusian_match_interrogative-partial-wh_Cuando-vendia-el-carro.wav,./stim/wavs/argentine_match_interrogative-partial-wh_Cuando-vendia-el-carro.wav,./stim/wavs/castilian_match_interrogative-partial-wh_Cuando-vendia-el-carro.wav,./stim/wavs/chilean_match_interrogative-partial-wh_Cuando-vendia-el-carro.wav,./stim/wavs/cuban_match_interrogative-partial-wh_Cuando-vendia-el-carro.wav,./stim/wavs/mexican_match_interrogative-partial-wh_Cuando-vendia-el-carro.wav,./stim/wavs/peruvian_match_interrogative-partial-wh_Cuando-vendia-el-carro.wav,./stim/wavs/puertorican_match_interrogative-partial-wh_Cuando-vendia-el-carro.wav,,,,,,,,,,,,,,,,,,,,,,,,,,,,,,,,,,,,,,,,,,,,,,,,,,,,,,,,
,,,,,,,6021f6c1f883e82b11739f31,605b45a4d25f287719a41696,605bee83612bdce91a37d30d,Puerto Rico,Midwest,13 or older,no,2021-03-24_22h00.36.566,empathy_intonation_perc,2020.2.10,MacIntel,60,,,,,,,,,,1,cuban,0,0,1.123,0,47,47,26,1,27,./stim/wavs/andalusian_match_interrogative-total-yn_David-leia-el-libro.wav,./stim/wavs/argentine_match_interrogative-total-yn_David-leia-el-libro.wav,./stim/wavs/castilian_match_interrogative-total-yn_David-leia-el-libro.wav,./stim/wavs/chilean_match_interrogative-total-yn_David-leia-el-libro.wav,./stim/wavs/cuban_match_interrogative-total-yn_David-leia-el-libro.wav,./stim/wavs/mexican_match_interrogative-total-yn_David-leia-el-libro.wav,./stim/wavs/peruvian_match_interrogative-total-yn_David-leia-el-libro.wav,./stim/wavs/puertorican_match_interrogative-total-yn_David-leia-el-libro.wav,,,,,,,,,,,,,,,,,,,,,,,,,,,,,,,,,,,,,,,,,,,,,,,,,,,,,,,,
,,,,,,,6021f6c1f883e82b11739f31,605b45a4d25f287719a41696,605bee83612bdce91a37d30d,Puerto Rico,Midwest,13 or older,no,2021-03-24_22h00.36.566,empathy_intonation_perc,2020.2.10,MacIntel,60,,,,,,,,,,1,puertorican,1,1,1.916,0,48,48,52,1,53,./stim/wavs/andalusian_mismatch_interrogative-partial-wh_Por-que-odiaba-la-lluvia.wav,./stim/wavs/argentine_mismatch_interrogative-partial-wh_Por-que-odiaba-la-lluvia.wav,./stim/wavs/castilian_mismatch_interrogative-partial-wh_Por-que-odiaba-la-lluvia.wav,./stim/wavs/chilean_mismatch_interrogative-partial-wh_Por-que-odiaba-la-lluvia.wav,./stim/wavs/cuban_mismatch_interrogative-partial-wh_Por-que-odiaba-la-lluvia.wav,./stim/wavs/mexican_mismatch_interrogative-partial-wh_Por-que-odiaba-la-lluvia.wav,./stim/wavs/peruvian_mismatch_interrogative-partial-wh_Por-que-odiaba-la-lluvia.wav,./stim/wavs/puertorican_mismatch_interrogative-partial-wh_Por-que-odiaba-la-lluvia.wav,,,,,,,,,,,,,,,,,,,,,,,,,,,,,,,,,,,,,,,,,,,,,,,,,,,,,,,,
,,,,,,,6021f6c1f883e82b11739f31,605b45a4d25f287719a41696,605bee83612bdce91a37d30d,Puerto Rico,Midwest,13 or older,no,2021-03-24_22h00.36.566,empathy_intonation_perc,2020.2.10,MacIntel,60,,,,,,,,,,0,peruvian,0,1,1.112,0,49,49,0,1,1,./stim/wavs/andalusian_match_declarative-broad-focus_Ana-lleva-el-abrigo.wav,./stim/wavs/argentine_match_declarative-broad-focus_Ana-lleva-el-abrigo.wav,./stim/wavs/castilian_match_declarative-broad-focus_Ana-lleva-el-abrigo.wav,./stim/wavs/chilean_match_declarative-broad-focus_Ana-lleva-el-abrigo.wav,./stim/wavs/cuban_match_declarative-broad-focus_Ana-lleva-el-abrigo.wav,./stim/wavs/mexican_match_declarative-broad-focus_Ana-lleva-el-abrigo.wav,./stim/wavs/peruvian_match_declarative-broad-focus_Ana-lleva-el-abrigo.wav,./stim/wavs/puertorican_match_declarative-broad-focus_Ana-lleva-el-abrigo.wav,,,,,,,,,,,,,,,,,,,,,,,,,,,,,,,,,,,,,,,,,,,,,,,,,,,,,,,,
,,,,,,,6021f6c1f883e82b11739f31,605b45a4d25f287719a41696,605bee83612bdce91a37d30d,Puerto Rico,Midwest,13 or older,no,2021-03-24_22h00.36.566,empathy_intonation_perc,2020.2.10,MacIntel,60,,,,,,,,,,0,puertorican,0,1,1.483,0,50,50,10,1,11,./stim/wavs/andalusian_match_declarative-narrow-focus_David-leia-el-libro.wav,./stim/wavs/argentine_match_declarative-narrow-focus_David-leia-el-libro.wav,./stim/wavs/castilian_match_declarative-narrow-focus_David-leia-el-libro.wav,./stim/wavs/chilean_match_declarative-narrow-focus_David-leia-el-libro.wav,./stim/wavs/cuban_match_declarative-narrow-focus_David-leia-el-libro.wav,./stim/wavs/mexican_match_declarative-narrow-focus_David-leia-el-libro.wav,./stim/wavs/peruvian_match_declarative-narrow-focus_David-leia-el-libro.wav,./stim/wavs/puertorican_match_declarative-narrow-focus_David-leia-el-libro.wav,,,,,,,,,,,,,,,,,,,,,,,,,,,,,,,,,,,,,,,,,,,,,,,,,,,,,,,,
,,,,,,,6021f6c1f883e82b11739f31,605b45a4d25f287719a41696,605bee83612bdce91a37d30d,Puerto Rico,Midwest,13 or older,no,2021-03-24_22h00.36.566,empathy_intonation_perc,2020.2.10,MacIntel,60,,,,,,,,,,1,andalusian,1,1,1.256,0,51,51,20,1,21,./stim/wavs/andalusian_match_interrogative-partial-wh_Por-que-abre-el-regalo.wav,./stim/wavs/argentine_match_interrogative-partial-wh_Por-que-abre-el-regalo.wav,./stim/wavs/castilian_match_interrogative-partial-wh_Por-que-abre-el-regalo.wav,./stim/wavs/chilean_match_interrogative-partial-wh_Por-que-abre-el-regalo.wav,./stim/wavs/cuban_match_interrogative-partial-wh_Por-que-abre-el-regalo.wav,./stim/wavs/mexican_match_interrogative-partial-wh_Por-que-abre-el-regalo.wav,./stim/wavs/peruvian_match_interrogative-partial-wh_Por-que-abre-el-regalo.wav,./stim/wavs/puertorican_match_interrogative-partial-wh_Por-que-abre-el-regalo.wav,,,,,,,,,,,,,,,,,,,,,,,,,,,,,,,,,,,,,,,,,,,,,,,,,,,,,,,,
,,,,,,,6021f6c1f883e82b11739f31,605b45a4d25f287719a41696,605bee83612bdce91a37d30d,Puerto Rico,Midwest,13 or older,no,2021-03-24_22h00.36.566,empathy_intonation_perc,2020.2.10,MacIntel,60,,,,,,,,,,0,castilian,0,1,1.882,0,52,52,14,1,15,./stim/wavs/andalusian_match_declarative-narrow-focus_Mariano-habla-del-tiempo.wav,./stim/wavs/argentine_match_declarative-narrow-focus_Mariano-habla-del-tiempo.wav,./stim/wavs/castilian_match_declarative-narrow-focus_Mariano-habla-del-tiempo.wav,./stim/wavs/chilean_match_declarative-narrow-focus_Mariano-habla-del-tiempo.wav,./stim/wavs/cuban_match_declarative-narrow-focus_Mariano-habla-del-tiempo.wav,./stim/wavs/mexican_match_declarative-narrow-focus_Mariano-habla-del-tiempo.wav,./stim/wavs/peruvian_match_declarative-narrow-focus_Mariano-habla-del-tiempo.wav,./stim/wavs/puertorican_match_declarative-narrow-focus_Mariano-habla-del-tiempo.wav,,,,,,,,,,,,,,,,,,,,,,,,,,,,,,,,,,,,,,,,,,,,,,,,,,,,,,,,
,,,,,,,6021f6c1f883e82b11739f31,605b45a4d25f287719a41696,605bee83612bdce91a37d30d,Puerto Rico,Midwest,13 or older,no,2021-03-24_22h00.36.566,empathy_intonation_perc,2020.2.10,MacIntel,60,,,,,,,,,,1,peruvian,0,0,1.157,0,53,53,60,1,61,./stim/wavs/andalusian_mismatch_interrogative-total-yn_La-nina-lava-el-plato.wav,./stim/wavs/argentine_mismatch_interrogative-total-yn_La-nina-lava-el-plato.wav,./stim/wavs/castilian_mismatch_interrogative-total-yn_La-nina-lava-el-plato.wav,./stim/wavs/chilean_mismatch_interrogative-total-yn_La-nina-lava-el-plato.wav,./stim/wavs/cuban_mismatch_interrogative-total-yn_La-nina-lava-el-plato.wav,./stim/wavs/mexican_mismatch_interrogative-total-yn_La-nina-lava-el-plato.wav,./stim/wavs/peruvian_mismatch_interrogative-total-yn_La-nina-lava-el-plato.wav,./stim/wavs/puertorican_mismatch_interrogative-total-yn_La-nina-lava-el-plato.wav,,,,,,,,,,,,,,,,,,,,,,,,,,,,,,,,,,,,,,,,,,,,,,,,,,,,,,,,
,,,,,,,6021f6c1f883e82b11739f31,605b45a4d25f287719a41696,605bee83612bdce91a37d30d,Puerto Rico,Midwest,13 or older,no,2021-03-24_22h00.36.566,empathy_intonation_perc,2020.2.10,MacIntel,60,,,,,,,,,,1,mexican,0,0,0.889,0,54,54,59,1,60,./stim/wavs/andalusian_mismatch_interrogative-total-yn_La-maestra-vive-en-Paris.wav,./stim/wavs/argentine_mismatch_interrogative-total-yn_La-maestra-vive-en-Paris.wav,./stim/wavs/castilian_mismatch_interrogative-total-yn_La-maestra-vive-en-Paris.wav,./stim/wavs/chilean_mismatch_interrogative-total-yn_La-maestra-vive-en-Paris.wav,./stim/wavs/cuban_mismatch_interrogative-total-yn_La-maestra-vive-en-Paris.wav,./stim/wavs/mexican_mismatch_interrogative-total-yn_La-maestra-vive-en-Paris.wav,./stim/wavs/peruvian_mismatch_interrogative-total-yn_La-maestra-vive-en-Paris.wav,./stim/wavs/puertorican_mismatch_interrogative-total-yn_La-maestra-vive-en-Paris.wav,,,,,,,,,,,,,,,,,,,,,,,,,,,,,,,,,,,,,,,,,,,,,,,,,,,,,,,,
,,,,,,,6021f6c1f883e82b11739f31,605b45a4d25f287719a41696,605bee83612bdce91a37d30d,Puerto Rico,Midwest,13 or older,no,2021-03-24_22h00.36.566,empathy_intonation_perc,2020.2.10,MacIntel,60,,,,,,,,,,0,castilian,0,1,1.384,0,55,55,33,1,34,./stim/wavs/andalusian_mismatch_declarative-broad-focus_El-hombre-mira-la-luna.wav,./stim/wavs/argentine_mismatch_declarative-broad-focus_El-hombre-mira-la-luna.wav,./stim/wavs/castilian_mismatch_declarative-broad-focus_El-hombre-mira-la-luna.wav,./stim/wavs/chilean_mismatch_declarative-broad-focus_El-hombre-mira-la-luna.wav,./stim/wavs/cuban_mismatch_declarative-broad-focus_El-hombre-mira-la-luna.wav,./stim/wavs/mexican_mismatch_declarative-broad-focus_El-hombre-mira-la-luna.wav,./stim/wavs/peruvian_mismatch_declarative-broad-focus_El-hombre-mira-la-luna.wav,./stim/wavs/puertorican_mismatch_declarative-broad-focus_El-hombre-mira-la-luna.wav,,,,,,,,,,,,,,,,,,,,,,,,,,,,,,,,,,,,,,,,,,,,,,,,,,,,,,,,
,,,,,,,6021f6c1f883e82b11739f31,605b45a4d25f287719a41696,605bee83612bdce91a37d30d,Puerto Rico,Midwest,13 or older,no,2021-03-24_22h00.36.566,empathy_intonation_perc,2020.2.10,MacIntel,60,,,,,,,,,,0,mexican,0,1,1.058,0,56,56,7,1,8,./stim/wavs/andalusian_match_declarative-broad-focus_Marta-abre-el-regalo.wav,./stim/wavs/argentine_match_declarative-broad-focus_Marta-abre-el-regalo.wav,./stim/wavs/castilian_match_declarative-broad-focus_Marta-abre-el-regalo.wav,./stim/wavs/chilean_match_declarative-broad-focus_Marta-abre-el-regalo.wav,./stim/wavs/cuban_match_declarative-broad-focus_Marta-abre-el-regalo.wav,./stim/wavs/mexican_match_declarative-broad-focus_Marta-abre-el-regalo.wav,./stim/wavs/peruvian_match_declarative-broad-focus_Marta-abre-el-regalo.wav,./stim/wavs/puertorican_match_declarative-broad-focus_Marta-abre-el-regalo.wav,,,,,,,,,,,,,,,,,,,,,,,,,,,,,,,,,,,,,,,,,,,,,,,,,,,,,,,,
,,,,,,,6021f6c1f883e82b11739f31,605b45a4d25f287719a41696,605bee83612bdce91a37d30d,Puerto Rico,Midwest,13 or older,no,2021-03-24_22h00.36.566,empathy_intonation_perc,2020.2.10,MacIntel,60,,,,,,,,,,0,mexican,0,1,0.967,0,57,57,43,1,44,./stim/wavs/andalusian_mismatch_declarative-narrow-focus_La-maestra-vive-en-Paris.wav,./stim/wavs/argentine_mismatch_declarative-narrow-focus_La-maestra-vive-en-Paris.wav,./stim/wavs/castilian_mismatch_declarative-narrow-focus_La-maestra-vive-en-Paris.wav,./stim/wavs/chilean_mismatch_declarative-narrow-focus_La-maestra-vive-en-Paris.wav,./stim/wavs/cuban_mismatch_declarative-narrow-focus_La-maestra-vive-en-Paris.wav,./stim/wavs/mexican_mismatch_declarative-narrow-focus_La-maestra-vive-en-Paris.wav,./stim/wavs/peruvian_mismatch_declarative-narrow-focus_La-maestra-vive-en-Paris.wav,./stim/wavs/puertorican_mismatch_declarative-narrow-focus_La-maestra-vive-en-Paris.wav,,,,,,,,,,,,,,,,,,,,,,,,,,,,,,,,,,,,,,,,,,,,,,,,,,,,,,,,
,,,,,,,6021f6c1f883e82b11739f31,605b45a4d25f287719a41696,605bee83612bdce91a37d30d,Puerto Rico,Midwest,13 or older,no,2021-03-24_22h00.36.566,empathy_intonation_perc,2020.2.10,MacIntel,60,,,,,,,,,,0,puertorican,0,1,1.409,0,58,58,11,1,12,./stim/wavs/andalusian_match_declarative-narrow-focus_Emilio-ama-la-marcha.wav,./stim/wavs/argentine_match_declarative-narrow-focus_Emilio-ama-la-marcha.wav,./stim/wavs/castilian_match_declarative-narrow-focus_Emilio-ama-la-marcha.wav,./stim/wavs/chilean_match_declarative-narrow-focus_Emilio-ama-la-marcha.wav,./stim/wavs/cuban_match_declarative-narrow-focus_Emilio-ama-la-marcha.wav,./stim/wavs/mexican_match_declarative-narrow-focus_Emilio-ama-la-marcha.wav,./stim/wavs/peruvian_match_declarative-narrow-focus_Emilio-ama-la-marcha.wav,./stim/wavs/puertorican_match_declarative-narrow-focus_Emilio-ama-la-marcha.wav,,,,,,,,,,,,,,,,,,,,,,,,,,,,,,,,,,,,,,,,,,,,,,,,,,,,,,,,
,,,,,,,6021f6c1f883e82b11739f31,605b45a4d25f287719a41696,605bee83612bdce91a37d30d,Puerto Rico,Midwest,13 or older,no,2021-03-24_22h00.36.566,empathy_intonation_perc,2020.2.10,MacIntel,60,,,,,,,,,,1,chilean,1,1,1.217,0,59,59,23,1,24,./stim/wavs/andalusian_match_interrogative-partial-wh_Por-que-iba-a-Bolivia.wav,./stim/wavs/argentine_match_interrogative-partial-wh_Por-que-iba-a-Bolivia.wav,./stim/wavs/castilian_match_interrogative-partial-wh_Por-que-iba-a-Bolivia.wav,./stim/wavs/chilean_match_interrogative-partial-wh_Por-que-iba-a-Bolivia.wav,./stim/wavs/cuban_match_interrogative-partial-wh_Por-que-iba-a-Bolivia.wav,./stim/wavs/mexican_match_interrogative-partial-wh_Por-que-iba-a-Bolivia.wav,./stim/wavs/peruvian_match_interrogative-partial-wh_Por-que-iba-a-Bolivia.wav,./stim/wavs/puertorican_match_interrogative-partial-wh_Por-que-iba-a-Bolivia.wav,,,,,,,,,,,,,,,,,,,,,,,,,,,,,,,,,,,,,,,,,,,,,,,,,,,,,,,,
,,,,,,,6021f6c1f883e82b11739f31,605b45a4d25f287719a41696,605bee83612bdce91a37d30d,Puerto Rico,Midwest,13 or older,no,2021-03-24_22h00.36.566,empathy_intonation_perc,2020.2.10,MacIntel,60,,,,,,,,,,0,puertorican,0,1,1.74,0,60,60,40,1,41,./stim/wavs/andalusian_mismatch_declarative-narrow-focus_El-bebe-comia-muy-bien.wav,./stim/wavs/argentine_mismatch_declarative-narrow-focus_El-bebe-comia-muy-bien.wav,./stim/wavs/castilian_mismatch_declarative-narrow-focus_El-bebe-comia-muy-bien.wav,./stim/wavs/chilean_mismatch_declarative-narrow-focus_El-bebe-comia-muy-bien.wav,./stim/wavs/cuban_mismatch_declarative-narrow-focus_El-bebe-comia-muy-bien.wav,./stim/wavs/mexican_mismatch_declarative-narrow-focus_El-bebe-comia-muy-bien.wav,./stim/wavs/peruvian_mismatch_declarative-narrow-focus_El-bebe-comia-muy-bien.wav,./stim/wavs/puertorican_mismatch_declarative-narrow-focus_El-bebe-comia-muy-bien.wav,,,,,,,,,,,,,,,,,,,,,,,,,,,,,,,,,,,,,,,,,,,,,,,,,,,,,,,,
,,,,,,,6021f6c1f883e82b11739f31,605b45a4d25f287719a41696,605bee83612bdce91a37d30d,Puerto Rico,Midwest,13 or older,no,2021-03-24_22h00.36.566,empathy_intonation_perc,2020.2.10,MacIntel,60,,,,,,,,,,1,castilian,0,0,1.451,0,61,61,27,1,28,./stim/wavs/andalusian_match_interrogative-total-yn_Emilio-ama-la-marcha.wav,./stim/wavs/argentine_match_interrogative-total-yn_Emilio-ama-la-marcha.wav,./stim/wavs/castilian_match_interrogative-total-yn_Emilio-ama-la-marcha.wav,./stim/wavs/chilean_match_interrogative-total-yn_Emilio-ama-la-marcha.wav,./stim/wavs/cuban_match_interrogative-total-yn_Emilio-ama-la-marcha.wav,./stim/wavs/mexican_match_interrogative-total-yn_Emilio-ama-la-marcha.wav,./stim/wavs/peruvian_match_interrogative-total-yn_Emilio-ama-la-marcha.wav,./stim/wavs/puertorican_match_interrogative-total-yn_Emilio-ama-la-marcha.wav,,,,,,,,,,,,,,,,,,,,,,,,,,,,,,,,,,,,,,,,,,,,,,,,,,,,,,,,
,,,,,,,6021f6c1f883e82b11739f31,605b45a4d25f287719a41696,605bee83612bdce91a37d30d,Puerto Rico,Midwest,13 or older,no,2021-03-24_22h00.36.566,empathy_intonation_perc,2020.2.10,MacIntel,60,,,,,,,,,,1,cuban,0,0,10.115,0,62,62,28,1,29,./stim/wavs/andalusian_match_interrogative-total-yn_Manuela-vende-el-carro.wav,./stim/wavs/argentine_match_interrogative-total-yn_Manuela-vende-el-carro.wav,./stim/wavs/castilian_match_interrogative-total-yn_Manuela-vende-el-carro.wav,./stim/wavs/chilean_match_interrogative-total-yn_Manuela-vende-el-carro.wav,./stim/wavs/cuban_match_interrogative-total-yn_Manuela-vende-el-carro.wav,./stim/wavs/mexican_match_interrogative-total-yn_Manuela-vende-el-carro.wav,./stim/wavs/peruvian_match_interrogative-total-yn_Manuela-vende-el-carro.wav,./stim/wavs/puertorican_match_interrogative-total-yn_Manuela-vende-el-carro.wav,,,,,,,,,,,,,,,,,,,,,,,,,,,,,,,,,,,,,,,,,,,,,,,,,,,,,,,,
,,,,,,,6021f6c1f883e82b11739f31,605b45a4d25f287719a41696,605bee83612bdce91a37d30d,Puerto Rico,Midwest,13 or older,no,2021-03-24_22h00.36.566,empathy_intonation_perc,2020.2.10,MacIntel,60,,,,,,,,,,1,peruvian,1,1,1.109,0,63,63,51,1,52,./stim/wavs/andalusian_mismatch_interrogative-partial-wh_Por-que-desayuna-muy-bien.wav,./stim/wavs/argentine_mismatch_interrogative-partial-wh_Por-que-desayuna-muy-bien.wav,./stim/wavs/castilian_mismatch_interrogative-partial-wh_Por-que-desayuna-muy-bien.wav,./stim/wavs/chilean_mismatch_interrogative-partial-wh_Por-que-desayuna-muy-bien.wav,./stim/wavs/cuban_mismatch_interrogative-partial-wh_Por-que-desayuna-muy-bien.wav,./stim/wavs/mexican_mismatch_interrogative-partial-wh_Por-que-desayuna-muy-bien.wav,./stim/wavs/peruvian_mismatch_interrogative-partial-wh_Por-que-desayuna-muy-bien.wav,./stim/wavs/puertorican_mismatch_interrogative-partial-wh_Por-que-desayuna-muy-bien.wav,,,,,,,,,,,,,,,,,,,,,,,,,,,,,,,,,,,,,,,,,,,,,,,,,,,,,,,,
,,,,,,,6021f6c1f883e82b11739f31,605b45a4d25f287719a41696,605bee83612bdce91a37d30d,Puerto Rico,Midwest,13 or older,no,2021-03-24_22h00.36.566,empathy_intonation_perc,2020.2.10,MacIntel,60,,,,,,,,,,,,,,,,,,,,,,,,,,,,,space,0,8.736,0,0,0,0,1,,,,,,,,,,,,,,,,,,,,,,,,,,,,,,,,,,,,,,,,,,,,,,,,
,,,,,"Great! Now we will move on. The next task consists of about 60 trials, in each of which you will see a string of letters. 
  
  Your task is to decide whether this is a real Spanish word or not.",(press the spacebar to continue),6021f6c1f883e82b11739f31,605b45a4d25f287719a41696,605bee83612bdce91a37d30d,Puerto Rico,Midwest,13 or older,no,2021-03-24_22h00.36.566,empathy_intonation_perc,2020.2.10,MacIntel,60,,,,,,,,,,,,,,,,,,,,,,,,,,,,,,,,,,,,,0,0,0,0,1,,,,,,,,,,,,,,,,,,,,,,,,,,,,,,,,,,,,,,,,,,,
,,,,,"If you think it is an existing Spanish word, you type '1' (for 'REAL'), and if you think it is not an existing Spanish word, you type '0' (for 'FAKE').",(press the spacebar to continue),6021f6c1f883e82b11739f31,605b45a4d25f287719a41696,605bee83612bdce91a37d30d,Puerto Rico,Midwest,13 or older,no,2021-03-24_22h00.36.566,empathy_intonation_perc,2020.2.10,MacIntel,60,,,,,,,,,,,,,,,,,,,,,,,,,,,,,,,,,,,,,0,1,1,1,1,,,,,,,,,,,,,,,,,,,,,,,,,,,,,,,,,,,,,,,,,,,
,,,,,"If you are sure that the word exists, even though you dont know its exact meaning, you may still respond '1' (REAL). 
  
  But if you are not sure if it is an existing word, you should respond '0' (FAKE).
  
  Let's do a practice round...",(press the spacebar to continue),6021f6c1f883e82b11739f31,605b45a4d25f287719a41696,605bee83612bdce91a37d30d,Puerto Rico,Midwest,13 or older,no,2021-03-24_22h00.36.566,empathy_intonation_perc,2020.2.10,MacIntel,60,,,,,,,,,,,,,,,,,,,,,,,,,,,,,,,,,,,,,0,2,2,2,1,,,,,,,,,,,,,,,,,,,,,,,,,,,,,,,,,,,,,,,,,,,
,,,,,,,6021f6c1f883e82b11739f31,605b45a4d25f287719a41696,605bee83612bdce91a37d30d,Puerto Rico,Midwest,13 or older,no,2021-03-24_22h00.36.566,empathy_intonation_perc,2020.2.10,MacIntel,60,,,,,,,,,,0,,,,,,,,,,,,,,,,,,,,,,,,,,,,,,,,1,0,2.822,0,0,0,0,1,0,depiste,REAL,FAKE,,,,,,,,,,,,,,,,,,,,,,,,,,,,,,,
,,,,,,,6021f6c1f883e82b11739f31,605b45a4d25f287719a41696,605bee83612bdce91a37d30d,Puerto Rico,Midwest,13 or older,no,2021-03-24_22h00.36.566,empathy_intonation_perc,2020.2.10,MacIntel,60,,,,,,,,,,1,,,,,,,,,,,,,,,,,,,,,,,,,,,,,,,,1,1,0.967,0,1,1,1,1,0,s,REAL,FAKE,,,,,,,,,,,,,,,,,,,,,,,,,,,,,,,
,,,,,,,6021f6c1f883e82b11739f31,605b45a4d25f287719a41696,605bee83612bdce91a37d30d,Puerto Rico,Midwest,13 or older,no,2021-03-24_22h00.36.566,empathy_intonation_perc,2020.2.10,MacIntel,60,,,,,,,,,,0,,,,,,,,,,,,,,,,,,,,,,,,,,,,,,,,1,0,0.924,0,2,2,2,1,0,con,REAL,FAKE,,,,,,,,,,,,,,,,,,,,,,,,,,,,,,,
,,,,,,,6021f6c1f883e82b11739f31,605b45a4d25f287719a41696,605bee83612bdce91a37d30d,Puerto Rico,Midwest,13 or older,no,2021-03-24_22h00.36.566,empathy_intonation_perc,2020.2.10,MacIntel,60,,,,,,,,,,0,,,,,,,,,,,,,,,,,,,,,,,,,,,,,,,,1,0,1.264,0,3,3,3,1,0,calpar,REAL,FAKE,,,,,,,,,,,,,,,,,,,,,,,,,,,,,,,
,,,,,,,6021f6c1f883e82b11739f31,605b45a4d25f287719a41696,605bee83612bdce91a37d30d,Puerto Rico,Midwest,13 or older,no,2021-03-24_22h00.36.566,empathy_intonation_perc,2020.2.10,MacIntel,60,,,,,,,,,,0,,,,,,,,,,,,,,,,,,,,,,,,,,,,,,,,0,1,0.91,0,4,4,4,1,0,joten,REAL,FAKE,,,,,,,,,,,,,,,,,,,,,,,,,,,,,,,
,,,,,,,6021f6c1f883e82b11739f31,605b45a4d25f287719a41696,605bee83612bdce91a37d30d,Puerto Rico,Midwest,13 or older,no,2021-03-24_22h00.36.566,empathy_intonation_perc,2020.2.10,MacIntel,60,,,,,,,,,,1,,,,,,,,,,,,,,,,,,,,,,,,,,,,,,,,1,1,1.413,0,5,5,5,1,0,sacapuntas,REAL,FAKE,,,,,,,,,,,,,,,,,,,,,,,,,,,,,,,
,,,,,,,6021f6c1f883e82b11739f31,605b45a4d25f287719a41696,605bee83612bdce91a37d30d,Puerto Rico,Midwest,13 or older,no,2021-03-24_22h00.36.566,empathy_intonation_perc,2020.2.10,MacIntel,60,,,,,,,,,,0,,,,,,,,,,,,,,,,,,,,,,,,,,,,,,,,1,0,1.189,0,6,6,6,1,0,priba,REAL,FAKE,,,,,,,,,,,,,,,,,,,,,,,,,,,,,,,
,,,,,,,6021f6c1f883e82b11739f31,605b45a4d25f287719a41696,605bee83612bdce91a37d30d,Puerto Rico,Midwest,13 or older,no,2021-03-24_22h00.36.566,empathy_intonation_perc,2020.2.10,MacIntel,60,,,,,,,,,,0,,,,,,,,,,,,,,,,,,,,,,,,,,,,,,,,0,1,2.38,0,7,7,7,1,0,pelasula,REAL,FAKE,,,,,,,,,,,,,,,,,,,,,,,,,,,,,,,
,,,,,,,6021f6c1f883e82b11739f31,605b45a4d25f287719a41696,605bee83612bdce91a37d30d,Puerto Rico,Midwest,13 or older,no,2021-03-24_22h00.36.566,empathy_intonation_perc,2020.2.10,MacIntel,60,,,,,,,,,,1,,,,,,,,,,,,,,,,,,,,,,,,,,,,,,,,1,1,1.092,0,8,8,8,1,0,bien,REAL,FAKE,,,,,,,,,,,,,,,,,,,,,,,,,,,,,,,
,,,,,,,6021f6c1f883e82b11739f31,605b45a4d25f287719a41696,605bee83612bdce91a37d30d,Puerto Rico,Midwest,13 or older,no,2021-03-24_22h00.36.566,empathy_intonation_perc,2020.2.10,MacIntel,60,,,,,,,,,,1,,,,,,,,,,,,,,,,,,,,,,,,,,,,,,,,1,1,1.021,0,9,9,9,1,0,casa,REAL,FAKE,,,,,,,,,,,,,,,,,,,,,,,,,,,,,,,
,,,,,,,6021f6c1f883e82b11739f31,605b45a4d25f287719a41696,605bee83612bdce91a37d30d,Puerto Rico,Midwest,13 or older,no,2021-03-24_22h00.36.566,empathy_intonation_perc,2020.2.10,MacIntel,60,,,,,,,,,,0,,,,,,,,,,,,,,,,,,,,,,,,,,,,,,,,1,0,0.863,0,10,10,10,1,0,lejo,REAL,FAKE,,,,,,,,,,,,,,,,,,,,,,,,,,,,,,,
,,,,,,,6021f6c1f883e82b11739f31,605b45a4d25f287719a41696,605bee83612bdce91a37d30d,Puerto Rico,Midwest,13 or older,no,2021-03-24_22h00.36.566,empathy_intonation_perc,2020.2.10,MacIntel,60,,,,,,,,,,0,,,,,,,,,,,,,,,,,,,,,,,,,,,,,,,,0,1,1.028,0,11,11,11,1,0,pretantas,REAL,FAKE,,,,,,,,,,,,,,,,,,,,,,,,,,,,,,,
,,,,,,,6021f6c1f883e82b11739f31,605b45a4d25f287719a41696,605bee83612bdce91a37d30d,Puerto Rico,Midwest,13 or older,no,2021-03-24_22h00.36.566,empathy_intonation_perc,2020.2.10,MacIntel,60,,,,,,,,,,0,,,,,,,,,,,,,,,,,,,,,,,,,,,,,,,,,,,,,,,,10,antar,,,1,0,0.947,0,0,0,9,1,REAL,FAKE,,,,,,,,,,,,,,,,,,,,,
,,,,,,,6021f6c1f883e82b11739f31,605b45a4d25f287719a41696,605bee83612bdce91a37d30d,Puerto Rico,Midwest,13 or older,no,2021-03-24_22h00.36.566,empathy_intonation_perc,2020.2.10,MacIntel,60,,,,,,,,,,1,,,,,,,,,,,,,,,,,,,,,,,,,,,,,,,,,,,,,,,,73,hervidor,,,0,0,1.366,0,1,1,72,1,REAL,FAKE,,,,,,,,,,,,,,,,,,,,,
,,,,,,,6021f6c1f883e82b11739f31,605b45a4d25f287719a41696,605bee83612bdce91a37d30d,Puerto Rico,Midwest,13 or older,no,2021-03-24_22h00.36.566,empathy_intonation_perc,2020.2.10,MacIntel,60,,,,,,,,,,1,,,,,,,,,,,,,,,,,,,,,,,,,,,,,,,,,,,,,,,,86,barato,,,1,1,1.106,0,2,2,85,1,REAL,FAKE,,,,,,,,,,,,,,,,,,,,,
,,,,,,,6021f6c1f883e82b11739f31,605b45a4d25f287719a41696,605bee83612bdce91a37d30d,Puerto Rico,Midwest,13 or older,no,2021-03-24_22h00.36.566,empathy_intonation_perc,2020.2.10,MacIntel,60,,,,,,,,,,1,,,,,,,,,,,,,,,,,,,,,,,,,,,,,,,,,,,,,,,,62,flaco,,,1,1,0.831,0,3,3,61,1,REAL,FAKE,,,,,,,,,,,,,,,,,,,,,
,,,,,,,6021f6c1f883e82b11739f31,605b45a4d25f287719a41696,605bee83612bdce91a37d30d,Puerto Rico,Midwest,13 or older,no,2021-03-24_22h00.36.566,empathy_intonation_perc,2020.2.10,MacIntel,60,,,,,,,,,,0,,,,,,,,,,,,,,,,,,,,,,,,,,,,,,,,,,,,,,,,42,cadallo,,,0,1,1.504,0,4,4,41,1,REAL,FAKE,,,,,,,,,,,,,,,,,,,,,
,,,,,,,6021f6c1f883e82b11739f31,605b45a4d25f287719a41696,605bee83612bdce91a37d30d,Puerto Rico,Midwest,13 or older,no,2021-03-24_22h00.36.566,empathy_intonation_perc,2020.2.10,MacIntel,60,,,,,,,,,,1,,,,,,,,,,,,,,,,,,,,,,,,,,,,,,,,,,,,,,,,61,seda,,,1,1,0.881,0,5,5,60,1,REAL,FAKE,,,,,,,,,,,,,,,,,,,,,
,,,,,,,6021f6c1f883e82b11739f31,605b45a4d25f287719a41696,605bee83612bdce91a37d30d,Puerto Rico,Midwest,13 or older,no,2021-03-24_22h00.36.566,empathy_intonation_perc,2020.2.10,MacIntel,60,,,,,,,,,,0,,,,,,,,,,,,,,,,,,,,,,,,,,,,,,,,,,,,,,,,18,arsa,,,0,1,0.765,0,6,6,17,1,REAL,FAKE,,,,,,,,,,,,,,,,,,,,,
,,,,,,,6021f6c1f883e82b11739f31,605b45a4d25f287719a41696,605bee83612bdce91a37d30d,Puerto Rico,Midwest,13 or older,no,2021-03-24_22h00.36.566,empathy_intonation_perc,2020.2.10,MacIntel,60,,,,,,,,,,1,,,,,,,,,,,,,,,,,,,,,,,,,,,,,,,,,,,,,,,,56,musgo,,,0,0,0.851,0,7,7,55,1,REAL,FAKE,,,,,,,,,,,,,,,,,,,,,
,,,,,,,6021f6c1f883e82b11739f31,605b45a4d25f287719a41696,605bee83612bdce91a37d30d,Puerto Rico,Midwest,13 or older,no,2021-03-24_22h00.36.566,empathy_intonation_perc,2020.2.10,MacIntel,60,,,,,,,,,,1,,,,,,,,,,,,,,,,,,,,,,,,,,,,,,,,,,,,,,,,9,hacha,,,1,1,1.363,0,8,8,8,1,REAL,FAKE,,,,,,,,,,,,,,,,,,,,,
,,,,,,,6021f6c1f883e82b11739f31,605b45a4d25f287719a41696,605bee83612bdce91a37d30d,Puerto Rico,Midwest,13 or older,no,2021-03-24_22h00.36.566,empathy_intonation_perc,2020.2.10,MacIntel,60,,,,,,,,,,1,,,,,,,,,,,,,,,,,,,,,,,,,,,,,,,,,,,,,,,,67,cabello,,,1,1,1.154,0,9,9,66,1,REAL,FAKE,,,,,,,,,,,,,,,,,,,,,
,,,,,,,6021f6c1f883e82b11739f31,605b45a4d25f287719a41696,605bee83612bdce91a37d30d,Puerto Rico,Midwest,13 or older,no,2021-03-24_22h00.36.566,empathy_intonation_perc,2020.2.10,MacIntel,60,,,,,,,,,,0,,,,,,,,,,,,,,,,,,,,,,,,,,,,,,,,,,,,,,,,50,flamida,,,0,1,1.93,0,10,10,49,1,REAL,FAKE,,,,,,,,,,,,,,,,,,,,,
,,,,,,,6021f6c1f883e82b11739f31,605b45a4d25f287719a41696,605bee83612bdce91a37d30d,Puerto Rico,Midwest,13 or older,no,2021-03-24_22h00.36.566,empathy_intonation_perc,2020.2.10,MacIntel,60,,,,,,,,,,1,,,,,,,,,,,,,,,,,,,,,,,,,,,,,,,,,,,,,,,,54,fomentar,,,1,1,22.732,0,11,11,53,1,REAL,FAKE,,,,,,,,,,,,,,,,,,,,,
,,,,,,,6021f6c1f883e82b11739f31,605b45a4d25f287719a41696,605bee83612bdce91a37d30d,Puerto Rico,Midwest,13 or older,no,2021-03-24_22h00.36.566,empathy_intonation_perc,2020.2.10,MacIntel,60,,,,,,,,,,1,,,,,,,,,,,,,,,,,,,,,,,,,,,,,,,,,,,,,,,,36,loro,,,1,1,10.598,0,12,12,35,1,REAL,FAKE,,,,,,,,,,,,,,,,,,,,,
,,,,,,,6021f6c1f883e82b11739f31,605b45a4d25f287719a41696,605bee83612bdce91a37d30d,Puerto Rico,Midwest,13 or older,no,2021-03-24_22h00.36.566,empathy_intonation_perc,2020.2.10,MacIntel,60,,,,,,,,,,0,,,,,,,,,,,,,,,,,,,,,,,,,,,,,,,,,,,,,,,,19,brecedad,,,1,0,43.163,0,13,13,18,1,REAL,FAKE,,,,,,,,,,,,,,,,,,,,,
,,,,,,,6021f6c1f883e82b11739f31,605b45a4d25f287719a41696,605bee83612bdce91a37d30d,Puerto Rico,Midwest,13 or older,no,2021-03-24_22h00.36.566,empathy_intonation_perc,2020.2.10,MacIntel,60,,,,,,,,,,0,,,,,,,,,,,,,,,,,,,,,,,,,,,,,,,,,,,,,,,,87,grodo,,,1,0,1.267,0,14,14,86,1,REAL,FAKE,,,,,,,,,,,,,,,,,,,,,
,,,,,,,6021f6c1f883e82b11739f31,605b45a4d25f287719a41696,605bee83612bdce91a37d30d,Puerto Rico,Midwest,13 or older,no,2021-03-24_22h00.36.566,empathy_intonation_perc,2020.2.10,MacIntel,60,,,,,,,,,,1,,,,,,,,,,,,,,,,,,,,,,,,,,,,,,,,,,,,,,,,65,bizcocho,,,1,1,9.047,0,15,15,64,1,REAL,FAKE,,,,,,,,,,,,,,,,,,,,,
,,,,,,,6021f6c1f883e82b11739f31,605b45a4d25f287719a41696,605bee83612bdce91a37d30d,Puerto Rico,Midwest,13 or older,no,2021-03-24_22h00.36.566,empathy_intonation_perc,2020.2.10,MacIntel,60,,,,,,,,,,1,,,,,,,,,,,,,,,,,,,,,,,,,,,,,,,,,,,,,,,,49,ganar,,,1,1,1.032,0,16,16,48,1,REAL,FAKE,,,,,,,,,,,,,,,,,,,,,
,,,,,,,6021f6c1f883e82b11739f31,605b45a4d25f287719a41696,605bee83612bdce91a37d30d,Puerto Rico,Midwest,13 or older,no,2021-03-24_22h00.36.566,empathy_intonation_perc,2020.2.10,MacIntel,60,,,,,,,,,,0,,,,,,,,,,,,,,,,,,,,,,,,,,,,,,,,,,,,,,,,66,hacido,,,1,0,0.907,0,17,17,65,1,REAL,FAKE,,,,,,,,,,,,,,,,,,,,,
,,,,,,,6021f6c1f883e82b11739f31,605b45a4d25f287719a41696,605bee83612bdce91a37d30d,Puerto Rico,Midwest,13 or older,no,2021-03-24_22h00.36.566,empathy_intonation_perc,2020.2.10,MacIntel,60,,,,,,,,,,0,,,,,,,,,,,,,,,,,,,,,,,,,,,,,,,,,,,,,,,,8,cadea,,,0,1,11.421,0,18,18,7,1,REAL,FAKE,,,,,,,,,,,,,,,,,,,,,
,,,,,,,6021f6c1f883e82b11739f31,605b45a4d25f287719a41696,605bee83612bdce91a37d30d,Puerto Rico,Midwest,13 or older,no,2021-03-24_22h00.36.566,empathy_intonation_perc,2020.2.10,MacIntel,60,,,,,,,,,,1,,,,,,,,,,,,,,,,,,,,,,,,,,,,,,,,,,,,,,,,75,yacer,,,0,0,1.448,0,19,19,74,1,REAL,FAKE,,,,,,,,,,,,,,,,,,,,,
,,,,,,,6021f6c1f883e82b11739f31,605b45a4d25f287719a41696,605bee83612bdce91a37d30d,Puerto Rico,Midwest,13 or older,no,2021-03-24_22h00.36.566,empathy_intonation_perc,2020.2.10,MacIntel,60,,,,,,,,,,0,,,,,,,,,,,,,,,,,,,,,,,,,,,,,,,,,,,,,,,,47,cartinar,,,0,1,8.111,0,20,20,46,1,REAL,FAKE,,,,,,,,,,,,,,,,,,,,,
,,,,,,,6021f6c1f883e82b11739f31,605b45a4d25f287719a41696,605bee83612bdce91a37d30d,Puerto Rico,Midwest,13 or older,no,2021-03-24_22h00.36.566,empathy_intonation_perc,2020.2.10,MacIntel,60,,,,,,,,,,1,,,,,,,,,,,,,,,,,,,,,,,,,,,,,,,,,,,,,,,,37,granuja,,,0,0,1.132,0,21,21,36,1,REAL,FAKE,,,,,,,,,,,,,,,,,,,,,
,,,,,,,6021f6c1f883e82b11739f31,605b45a4d25f287719a41696,605bee83612bdce91a37d30d,Puerto Rico,Midwest,13 or older,no,2021-03-24_22h00.36.566,empathy_intonation_perc,2020.2.10,MacIntel,60,,,,,,,,,,1,,,,,,,,,,,,,,,,,,,,,,,,,,,,,,,,,,,,,,,,85,lad,,,0,0,1.647,0,22,22,84,1,REAL,FAKE,,,,,,,,,,,,,,,,,,,,,
,,,,,,,6021f6c1f883e82b11739f31,605b45a4d25f287719a41696,605bee83612bdce91a37d30d,Puerto Rico,Midwest,13 or older,no,2021-03-24_22h00.36.566,empathy_intonation_perc,2020.2.10,MacIntel,60,,,,,,,,,,1,,,,,,,,,,,,,,,,,,,,,,,,,,,,,,,,,,,,,,,,26,secuestro,,,1,1,2.406,0,23,23,25,1,REAL,FAKE,,,,,,,,,,,,,,,,,,,,,
,,,,,,,6021f6c1f883e82b11739f31,605b45a4d25f287719a41696,605bee83612bdce91a37d30d,Puerto Rico,Midwest,13 or older,no,2021-03-24_22h00.36.566,empathy_intonation_perc,2020.2.10,MacIntel,60,,,,,,,,,,1,,,,,,,,,,,,,,,,,,,,,,,,,,,,,,,,,,,,,,,,6,tergiversar,,,0,0,2.18,0,24,24,5,1,REAL,FAKE,,,,,,,,,,,,,,,,,,,,,
,,,,,,,6021f6c1f883e82b11739f31,605b45a4d25f287719a41696,605bee83612bdce91a37d30d,Puerto Rico,Midwest,13 or older,no,2021-03-24_22h00.36.566,empathy_intonation_perc,2020.2.10,MacIntel,60,,,,,,,,,,1,,,,,,,,,,,,,,,,,,,,,,,,,,,,,,,,,,,,,,,,14,yunque,,,1,1,1.768,0,25,25,13,1,REAL,FAKE,,,,,,,,,,,,,,,,,,,,,
,,,,,,,6021f6c1f883e82b11739f31,605b45a4d25f287719a41696,605bee83612bdce91a37d30d,Puerto Rico,Midwest,13 or older,no,2021-03-24_22h00.36.566,empathy_intonation_perc,2020.2.10,MacIntel,60,,,,,,,,,,1,,,,,,,,,,,,,,,,,,,,,,,,,,,,,,,,,,,,,,,,24,ltigo,,,1,1,6.821,0,26,26,23,1,REAL,FAKE,,,,,,,,,,,,,,,,,,,,,
,,,,,,,6021f6c1f883e82b11739f31,605b45a4d25f287719a41696,605bee83612bdce91a37d30d,Puerto Rico,Midwest,13 or older,no,2021-03-24_22h00.36.566,empathy_intonation_perc,2020.2.10,MacIntel,60,,,,,,,,,,1,,,,,,,,,,,,,,,,,,,,,,,,,,,,,,,,,,,,,,,,88,acantilado,,,1,1,7.602,0,27,27,87,1,REAL,FAKE,,,,,,,,,,,,,,,,,,,,,
,,,,,,,6021f6c1f883e82b11739f31,605b45a4d25f287719a41696,605bee83612bdce91a37d30d,Puerto Rico,Midwest,13 or older,no,2021-03-24_22h00.36.566,empathy_intonation_perc,2020.2.10,MacIntel,60,,,,,,,,,,0,,,,,,,,,,,,,,,,,,,,,,,,,,,,,,,,,,,,,,,,84,escuto,,,1,0,0.897,0,28,28,83,1,REAL,FAKE,,,,,,,,,,,,,,,,,,,,,
,,,,,,,6021f6c1f883e82b11739f31,605b45a4d25f287719a41696,605bee83612bdce91a37d30d,Puerto Rico,Midwest,13 or older,no,2021-03-24_22h00.36.566,empathy_intonation_perc,2020.2.10,MacIntel,60,,,,,,,,,,0,,,,,,,,,,,,,,,,,,,,,,,,,,,,,,,,,,,,,,,,72,pemicin,,,0,1,8.864,0,29,29,71,1,REAL,FAKE,,,,,,,,,,,,,,,,,,,,,
,,,,,,,6021f6c1f883e82b11739f31,605b45a4d25f287719a41696,605bee83612bdce91a37d30d,Puerto Rico,Midwest,13 or older,no,2021-03-24_22h00.36.566,empathy_intonation_perc,2020.2.10,MacIntel,60,,,,,,,,,,1,,,,,,,,,,,,,,,,,,,,,,,,,,,,,,,,,,,,,,,,3,pulmones,,,0,0,0.721,0,30,30,2,1,REAL,FAKE,,,,,,,,,,,,,,,,,,,,,
,,,,,,,6021f6c1f883e82b11739f31,605b45a4d25f287719a41696,605bee83612bdce91a37d30d,Puerto Rico,Midwest,13 or older,no,2021-03-24_22h00.36.566,empathy_intonation_perc,2020.2.10,MacIntel,60,,,,,,,,,,1,,,,,,,,,,,,,,,,,,,,,,,,,,,,,,,,,,,,,,,,43,canela,,,1,1,1.977,0,31,31,42,1,REAL,FAKE,,,,,,,,,,,,,,,,,,,,,
,,,,,,,6021f6c1f883e82b11739f31,605b45a4d25f287719a41696,605bee83612bdce91a37d30d,Puerto Rico,Midwest,13 or older,no,2021-03-24_22h00.36.566,empathy_intonation_perc,2020.2.10,MacIntel,60,,,,,,,,,,1,,,,,,,,,,,,,,,,,,,,,,,,,,,,,,,,,,,,,,,,31,pandilla,,,1,1,8.307,0,32,32,30,1,REAL,FAKE,,,,,,,,,,,,,,,,,,,,,
,,,,,,,6021f6c1f883e82b11739f31,605b45a4d25f287719a41696,605bee83612bdce91a37d30d,Puerto Rico,Midwest,13 or older,no,2021-03-24_22h00.36.566,empathy_intonation_perc,2020.2.10,MacIntel,60,,,,,,,,,,1,,,,,,,,,,,,,,,,,,,,,,,,,,,,,,,,,,,,,,,,12,asesinato,,,1,1,12.388,0,33,33,11,1,REAL,FAKE,,,,,,,,,,,,,,,,,,,,,
,,,,,,,6021f6c1f883e82b11739f31,605b45a4d25f287719a41696,605bee83612bdce91a37d30d,Puerto Rico,Midwest,13 or older,no,2021-03-24_22h00.36.566,empathy_intonation_perc,2020.2.10,MacIntel,60,,,,,,,,,,1,,,,,,,,,,,,,,,,,,,,,,,,,,,,,,,,,,,,,,,,60,matar,,,1,1,1.848,0,34,34,59,1,REAL,FAKE,,,,,,,,,,,,,,,,,,,,,
,,,,,,,6021f6c1f883e82b11739f31,605b45a4d25f287719a41696,605bee83612bdce91a37d30d,Puerto Rico,Midwest,13 or older,no,2021-03-24_22h00.36.566,empathy_intonation_perc,2020.2.10,MacIntel,60,,,,,,,,,,0,,,,,,,,,,,,,,,,,,,,,,,,,,,,,,,,,,,,,,,,27,acutacin,,,1,0,30.189,0,35,35,26,1,REAL,FAKE,,,,,,,,,,,,,,,,,,,,,
,,,,,,,6021f6c1f883e82b11739f31,605b45a4d25f287719a41696,605bee83612bdce91a37d30d,Puerto Rico,Midwest,13 or older,no,2021-03-24_22h00.36.566,empathy_intonation_perc,2020.2.10,MacIntel,60,,,,,,,,,,1,,,,,,,,,,,,,,,,,,,,,,,,,,,,,,,,,,,,,,,,15,regar,,,1,1,1.19,0,36,36,14,1,REAL,FAKE,,,,,,,,,,,,,,,,,,,,,
,,,,,,,6021f6c1f883e82b11739f31,605b45a4d25f287719a41696,605bee83612bdce91a37d30d,Puerto Rico,Midwest,13 or older,no,2021-03-24_22h00.36.566,empathy_intonation_perc,2020.2.10,MacIntel,60,,,,,,,,,,1,,,,,,,,,,,,,,,,,,,,,,,,,,,,,,,,,,,,,,,,76,atar,,,1,1,11.947,0,37,37,75,1,REAL,FAKE,,,,,,,,,,,,,,,,,,,,,
,,,,,,,6021f6c1f883e82b11739f31,605b45a4d25f287719a41696,605bee83612bdce91a37d30d,Puerto Rico,Midwest,13 or older,no,2021-03-24_22h00.36.566,empathy_intonation_perc,2020.2.10,MacIntel,60,,,,,,,,,,0,,,,,,,,,,,,,,,,,,,,,,,,,,,,,,,,,,,,,,,,58,plaudir,,,1,0,28.366,0,38,38,57,1,REAL,FAKE,,,,,,,,,,,,,,,,,,,,,
,,,,,,,6021f6c1f883e82b11739f31,605b45a4d25f287719a41696,605bee83612bdce91a37d30d,Puerto Rico,Midwest,13 or older,no,2021-03-24_22h00.36.566,empathy_intonation_perc,2020.2.10,MacIntel,60,,,,,,,,,,1,,,,,,,,,,,,,,,,,,,,,,,,,,,,,,,,,,,,,,,,20,vido,,,1,1,10.187,0,39,39,19,1,REAL,FAKE,,,,,,,,,,,,,,,,,,,,,
,,,,,,,6021f6c1f883e82b11739f31,605b45a4d25f287719a41696,605bee83612bdce91a37d30d,Puerto Rico,Midwest,13 or older,no,2021-03-24_22h00.36.566,empathy_intonation_perc,2020.2.10,MacIntel,60,,,,,,,,,,1,,,,,,,,,,,,,,,,,,,,,,,,,,,,,,,,,,,,,,,,34,aviso,,,1,1,5.006,0,40,40,33,1,REAL,FAKE,,,,,,,,,,,,,,,,,,,,,
,,,,,,,6021f6c1f883e82b11739f31,605b45a4d25f287719a41696,605bee83612bdce91a37d30d,Puerto Rico,Midwest,13 or older,no,2021-03-24_22h00.36.566,empathy_intonation_perc,2020.2.10,MacIntel,60,,,,,,,,,,1,,,,,,,,,,,,,,,,,,,,,,,,,,,,,,,,,,,,,,,,90,clavel,,,1,1,17.296,0,41,41,89,1,REAL,FAKE,,,,,,,,,,,,,,,,,,,,,
,,,,,,,6021f6c1f883e82b11739f31,605b45a4d25f287719a41696,605bee83612bdce91a37d30d,Puerto Rico,Midwest,13 or older,no,2021-03-24_22h00.36.566,empathy_intonation_perc,2020.2.10,MacIntel,60,,,,,,,,,,0,,,,,,,,,,,,,,,,,,,,,,,,,,,,,,,,,,,,,,,,1,terzo,,,1,0,27.165,0,42,42,0,1,REAL,FAKE,,,,,,,,,,,,,,,,,,,,,
,,,,,,,6021f6c1f883e82b11739f31,605b45a4d25f287719a41696,605bee83612bdce91a37d30d,Puerto Rico,Midwest,13 or older,no,2021-03-24_22h00.36.566,empathy_intonation_perc,2020.2.10,MacIntel,60,,,,,,,,,,1,,,,,,,,,,,,,,,,,,,,,,,,,,,,,,,,,,,,,,,,68,alegre,,,1,1,8.017,0,43,43,67,1,REAL,FAKE,,,,,,,,,,,,,,,,,,,,,
,,,,,,,6021f6c1f883e82b11739f31,605b45a4d25f287719a41696,605bee83612bdce91a37d30d,Puerto Rico,Midwest,13 or older,no,2021-03-24_22h00.36.566,empathy_intonation_perc,2020.2.10,MacIntel,60,,,,,,,,,,0,,,,,,,,,,,,,,,,,,,,,,,,,,,,,,,,,,,,,,,,4,batilln,,,0,1,7.796,0,44,44,3,1,REAL,FAKE,,,,,,,,,,,,,,,,,,,,,
,,,,,,,6021f6c1f883e82b11739f31,605b45a4d25f287719a41696,605bee83612bdce91a37d30d,Puerto Rico,Midwest,13 or older,no,2021-03-24_22h00.36.566,empathy_intonation_perc,2020.2.10,MacIntel,60,,,,,,,,,,1,,,,,,,,,,,,,,,,,,,,,,,,,,,,,,,,,,,,,,,,39,torpe,,,1,1,28.464,0,45,45,38,1,REAL,FAKE,,,,,,,,,,,,,,,,,,,,,
,,,,,,,6021f6c1f883e82b11739f31,605b45a4d25f287719a41696,605bee83612bdce91a37d30d,Puerto Rico,Midwest,13 or older,no,2021-03-24_22h00.36.566,empathy_intonation_perc,2020.2.10,MacIntel,60,,,,,,,,,,1,,,,,,,,,,,,,,,,,,,,,,,,,,,,,,,,,,,,,,,,40,alfombra,,,1,1,1.63,0,46,46,39,1,REAL,FAKE,,,,,,,,,,,,,,,,,,,,,
,,,,,,,6021f6c1f883e82b11739f31,605b45a4d25f287719a41696,605bee83612bdce91a37d30d,Puerto Rico,Midwest,13 or older,no,2021-03-24_22h00.36.566,empathy_intonation_perc,2020.2.10,MacIntel,60,,,,,,,,,,0,,,,,,,,,,,,,,,,,,,,,,,,,,,,,,,,,,,,,,,,30,alardio,,,0,1,11.357,0,47,47,29,1,REAL,FAKE,,,,,,,,,,,,,,,,,,,,,
,,,,,,,6021f6c1f883e82b11739f31,605b45a4d25f287719a41696,605bee83612bdce91a37d30d,Puerto Rico,Midwest,13 or older,no,2021-03-24_22h00.36.566,empathy_intonation_perc,2020.2.10,MacIntel,60,,,,,,,,,,0,,,,,,,,,,,,,,,,,,,,,,,,,,,,,,,,,,,,,,,,23,lampera,,,0,1,6.715,0,48,48,22,1,REAL,FAKE,,,,,,,,,,,,,,,,,,,,,
,,,,,,,6021f6c1f883e82b11739f31,605b45a4d25f287719a41696,605bee83612bdce91a37d30d,Puerto Rico,Midwest,13 or older,no,2021-03-24_22h00.36.566,empathy_intonation_perc,2020.2.10,MacIntel,60,,,,,,,,,,1,,,,,,,,,,,,,,,,,,,,,,,,,,,,,,,,,,,,,,,,13,helar,,,1,1,6.327,0,49,49,12,1,REAL,FAKE,,,,,,,,,,,,,,,,,,,,,
,,,,,,,6021f6c1f883e82b11739f31,605b45a4d25f287719a41696,605bee83612bdce91a37d30d,Puerto Rico,Midwest,13 or older,no,2021-03-24_22h00.36.566,empathy_intonation_perc,2020.2.10,MacIntel,60,,,,,,,,,,0,,,,,,,,,,,,,,,,,,,,,,,,,,,,,,,,,,,,,,,,63,esposante,,,0,1,9.663,0,50,50,62,1,REAL,FAKE,,,,,,,,,,,,,,,,,,,,,
,,,,,,,6021f6c1f883e82b11739f31,605b45a4d25f287719a41696,605bee83612bdce91a37d30d,Puerto Rico,Midwest,13 or older,no,2021-03-24_22h00.36.566,empathy_intonation_perc,2020.2.10,MacIntel,60,,,,,,,,,,1,,,,,,,,,,,,,,,,,,,,,,,,,,,,,,,,,,,,,,,,46,martillo,,,1,1,1.398,0,51,51,45,1,REAL,FAKE,,,,,,,,,,,,,,,,,,,,,
,,,,,,,6021f6c1f883e82b11739f31,605b45a4d25f287719a41696,605bee83612bdce91a37d30d,Puerto Rico,Midwest,13 or older,no,2021-03-24_22h00.36.566,empathy_intonation_perc,2020.2.10,MacIntel,60,,,,,,,,,,1,,,,,,,,,,,,,,,,,,,,,,,,,,,,,,,,,,,,,,,,48,ladrn,,,1,1,7.572,0,52,52,47,1,REAL,FAKE,,,,,,,,,,,,,,,,,,,,,
,,,,,,,6021f6c1f883e82b11739f31,605b45a4d25f287719a41696,605bee83612bdce91a37d30d,Puerto Rico,Midwest,13 or older,no,2021-03-24_22h00.36.566,empathy_intonation_perc,2020.2.10,MacIntel,60,,,,,,,,,,1,,,,,,,,,,,,,,,,,,,,,,,,,,,,,,,,,,,,,,,,64,orgulloso,,,1,1,7.113,0,53,53,63,1,REAL,FAKE,,,,,,,,,,,,,,,,,,,,,
,,,,,,,6021f6c1f883e82b11739f31,605b45a4d25f287719a41696,605bee83612bdce91a37d30d,Puerto Rico,Midwest,13 or older,no,2021-03-24_22h00.36.566,empathy_intonation_perc,2020.2.10,MacIntel,60,,,,,,,,,,1,,,,,,,,,,,,,,,,,,,,,,,,,,,,,,,,,,,,,,,,38,estornudar,,,1,1,1.162,0,54,54,37,1,REAL,FAKE,,,,,,,,,,,,,,,,,,,,,
,,,,,,,6021f6c1f883e82b11739f31,605b45a4d25f287719a41696,605bee83612bdce91a37d30d,Puerto Rico,Midwest,13 or older,no,2021-03-24_22h00.36.566,empathy_intonation_perc,2020.2.10,MacIntel,60,,,,,,,,,,1,,,,,,,,,,,,,,,,,,,,,,,,,,,,,,,,,,,,,,,,45,jilguero,,,0,0,1.385,0,55,55,44,1,REAL,FAKE,,,,,,,,,,,,,,,,,,,,,
,,,,,,,6021f6c1f883e82b11739f31,605b45a4d25f287719a41696,605bee83612bdce91a37d30d,Puerto Rico,Midwest,13 or older,no,2021-03-24_22h00.36.566,empathy_intonation_perc,2020.2.10,MacIntel,60,,,,,,,,,,1,,,,,,,,,,,,,,,,,,,,,,,,,,,,,,,,,,,,,,,,25,bisagra,,,1,1,4.983,0,56,56,24,1,REAL,FAKE,,,,,,,,,,,,,,,,,,,,,
,,,,,,,6021f6c1f883e82b11739f31,605b45a4d25f287719a41696,605bee83612bdce91a37d30d,Puerto Rico,Midwest,13 or older,no,2021-03-24_22h00.36.566,empathy_intonation_perc,2020.2.10,MacIntel,60,,,,,,,,,,1,,,,,,,,,,,,,,,,,,,,,,,,,,,,,,,,,,,,,,,,7,psimo,,,1,1,4.816,0,57,57,6,1,REAL,FAKE,,,,,,,,,,,,,,,,,,,,,
,,,,,,,6021f6c1f883e82b11739f31,605b45a4d25f287719a41696,605bee83612bdce91a37d30d,Puerto Rico,Midwest,13 or older,no,2021-03-24_22h00.36.566,empathy_intonation_perc,2020.2.10,MacIntel,60,,,,,,,,,,1,,,,,,,,,,,,,,,,,,,,,,,,,,,,,,,,,,,,,,,,51,candado,,,1,1,5.152,0,58,58,50,1,REAL,FAKE,,,,,,,,,,,,,,,,,,,,,
,,,,,,,6021f6c1f883e82b11739f31,605b45a4d25f287719a41696,605bee83612bdce91a37d30d,Puerto Rico,Midwest,13 or older,no,2021-03-24_22h00.36.566,empathy_intonation_perc,2020.2.10,MacIntel,60,,,,,,,,,,1,,,,,,,,,,,,,,,,,,,,,,,,,,,,,,,,,,,,,,,,78,frondoso,,,1,1,3.898,0,59,59,77,1,REAL,FAKE,,,,,,,,,,,,,,,,,,,,,
,,,,,,,6021f6c1f883e82b11739f31,605b45a4d25f287719a41696,605bee83612bdce91a37d30d,Puerto Rico,Midwest,13 or older,no,2021-03-24_22h00.36.566,empathy_intonation_perc,2020.2.10,MacIntel,60,,,,,,,,,,0,,,,,,,,,,,,,,,,,,,,,,,,,,,,,,,,,,,,,,,,16,abracer,,,0,1,6.764,0,60,60,15,1,REAL,FAKE,,,,,,,,,,,,,,,,,,,,,
,,,,,,,6021f6c1f883e82b11739f31,605b45a4d25f287719a41696,605bee83612bdce91a37d30d,Puerto Rico,Midwest,13 or older,no,2021-03-24_22h00.36.566,empathy_intonation_perc,2020.2.10,MacIntel,60,,,,,,,,,,1,,,,,,,,,,,,,,,,,,,,,,,,,,,,,,,,,,,,,,,,81,pozo,,,1,1,3.856,0,61,61,80,1,REAL,FAKE,,,,,,,,,,,,,,,,,,,,,
,,,,,,,6021f6c1f883e82b11739f31,605b45a4d25f287719a41696,605bee83612bdce91a37d30d,Puerto Rico,Midwest,13 or older,no,2021-03-24_22h00.36.566,empathy_intonation_perc,2020.2.10,MacIntel,60,,,,,,,,,,0,,,,,,,,,,,,,,,,,,,,,,,,,,,,,,,,,,,,,,,,74,cintro,,,0,1,4.321,0,62,62,73,1,REAL,FAKE,,,,,,,,,,,,,,,,,,,,,
,,,,,,,6021f6c1f883e82b11739f31,605b45a4d25f287719a41696,605bee83612bdce91a37d30d,Puerto Rico,Midwest,13 or older,no,2021-03-24_22h00.36.566,empathy_intonation_perc,2020.2.10,MacIntel,60,,,,,,,,,,1,,,,,,,,,,,,,,,,,,,,,,,,,,,,,,,,,,,,,,,,71,polvoriento,,,0,0,1.581,0,63,63,70,1,REAL,FAKE,,,,,,,,,,,,,,,,,,,,,
,,,,,,,6021f6c1f883e82b11739f31,605b45a4d25f287719a41696,605bee83612bdce91a37d30d,Puerto Rico,Midwest,13 or older,no,2021-03-24_22h00.36.566,empathy_intonation_perc,2020.2.10,MacIntel,60,,,,,,,,,,1,,,,,,,,,,,,,,,,,,,,,,,,,,,,,,,,,,,,,,,,2,pellizcar,,,1,1,4.831,0,64,64,1,1,REAL,FAKE,,,,,,,,,,,,,,,,,,,,,
,,,,,,,6021f6c1f883e82b11739f31,605b45a4d25f287719a41696,605bee83612bdce91a37d30d,Puerto Rico,Midwest,13 or older,no,2021-03-24_22h00.36.566,empathy_intonation_perc,2020.2.10,MacIntel,60,,,,,,,,,,0,,,,,,,,,,,,,,,,,,,,,,,,,,,,,,,,,,,,,,,,17,floroso,,,0,1,5.59,0,65,65,16,1,REAL,FAKE,,,,,,,,,,,,,,,,,,,,,
,,,,,,,6021f6c1f883e82b11739f31,605b45a4d25f287719a41696,605bee83612bdce91a37d30d,Puerto Rico,Midwest,13 or older,no,2021-03-24_22h00.36.566,empathy_intonation_perc,2020.2.10,MacIntel,60,,,,,,,,,,1,,,,,,,,,,,,,,,,,,,,,,,,,,,,,,,,,,,,,,,,41,rebuscar,,,0,0,5.198,0,66,66,40,1,REAL,FAKE,,,,,,,,,,,,,,,,,,,,,
,,,,,,,6021f6c1f883e82b11739f31,605b45a4d25f287719a41696,605bee83612bdce91a37d30d,Puerto Rico,Midwest,13 or older,no,2021-03-24_22h00.36.566,empathy_intonation_perc,2020.2.10,MacIntel,60,,,,,,,,,,0,,,,,,,,,,,,,,,,,,,,,,,,,,,,,,,,,,,,,,,,79,tropaje,,,0,1,3.813,0,67,67,78,1,REAL,FAKE,,,,,,,,,,,,,,,,,,,,,
,,,,,,,6021f6c1f883e82b11739f31,605b45a4d25f287719a41696,605bee83612bdce91a37d30d,Puerto Rico,Midwest,13 or older,no,2021-03-24_22h00.36.566,empathy_intonation_perc,2020.2.10,MacIntel,60,,,,,,,,,,0,,,,,,,,,,,,,,,,,,,,,,,,,,,,,,,,,,,,,,,,33,pauca,,,0,1,4.197,0,68,68,32,1,REAL,FAKE,,,,,,,,,,,,,,,,,,,,,
,,,,,,,6021f6c1f883e82b11739f31,605b45a4d25f287719a41696,605bee83612bdce91a37d30d,Puerto Rico,Midwest,13 or older,no,2021-03-24_22h00.36.566,empathy_intonation_perc,2020.2.10,MacIntel,60,,,,,,,,,,0,,,,,,,,,,,,,,,,,,,,,,,,,,,,,,,,,,,,,,,,70,temblo,,,1,0,8.08,0,69,69,69,1,REAL,FAKE,,,,,,,,,,,,,,,,,,,,,
,,,,,,,6021f6c1f883e82b11739f31,605b45a4d25f287719a41696,605bee83612bdce91a37d30d,Puerto Rico,Midwest,13 or older,no,2021-03-24_22h00.36.566,empathy_intonation_perc,2020.2.10,MacIntel,60,,,,,,,,,,1,,,,,,,,,,,,,,,,,,,,,,,,,,,,,,,,,,,,,,,,57,tacao,,,1,1,0.999,0,70,70,56,1,REAL,FAKE,,,,,,,,,,,,,,,,,,,,,
,,,,,,,6021f6c1f883e82b11739f31,605b45a4d25f287719a41696,605bee83612bdce91a37d30d,Puerto Rico,Midwest,13 or older,no,2021-03-24_22h00.36.566,empathy_intonation_perc,2020.2.10,MacIntel,60,,,,,,,,,,1,,,,,,,,,,,,,,,,,,,,,,,,,,,,,,,,,,,,,,,,22,lacayo,,,1,1,4.242,0,71,71,21,1,REAL,FAKE,,,,,,,,,,,,,,,,,,,,,
,,,,,,,6021f6c1f883e82b11739f31,605b45a4d25f287719a41696,605bee83612bdce91a37d30d,Puerto Rico,Midwest,13 or older,no,2021-03-24_22h00.36.566,empathy_intonation_perc,2020.2.10,MacIntel,60,,,,,,,,,,1,,,,,,,,,,,,,,,,,,,,,,,,,,,,,,,,,,,,,,,,11,cenefa,,,1,1,3.772,0,72,72,10,1,REAL,FAKE,,,,,,,,,,,,,,,,,,,,,
,,,,,,,6021f6c1f883e82b11739f31,605b45a4d25f287719a41696,605bee83612bdce91a37d30d,Puerto Rico,Midwest,13 or older,no,2021-03-24_22h00.36.566,empathy_intonation_perc,2020.2.10,MacIntel,60,,,,,,,,,,1,,,,,,,,,,,,,,,,,,,,,,,,,,,,,,,,,,,,,,,,55,nevar,,,1,1,6.182,0,73,73,54,1,REAL,FAKE,,,,,,,,,,,,,,,,,,,,,
,,,,,,,6021f6c1f883e82b11739f31,605b45a4d25f287719a41696,605bee83612bdce91a37d30d,Puerto Rico,Midwest,13 or older,no,2021-03-24_22h00.36.566,empathy_intonation_perc,2020.2.10,MacIntel,60,,,,,,,,,,0,,,,,,,,,,,,,,,,,,,,,,,,,,,,,,,,,,,,,,,,21,capillo,,,0,1,5.348,0,74,74,20,1,REAL,FAKE,,,,,,,,,,,,,,,,,,,,,
,,,,,,,6021f6c1f883e82b11739f31,605b45a4d25f287719a41696,605bee83612bdce91a37d30d,Puerto Rico,Midwest,13 or older,no,2021-03-24_22h00.36.566,empathy_intonation_perc,2020.2.10,MacIntel,60,,,,,,,,,,1,,,,,,,,,,,,,,,,,,,,,,,,,,,,,,,,,,,,,,,,44,cuchara,,,1,1,6.115,0,75,75,43,1,REAL,FAKE,,,,,,,,,,,,,,,,,,,,,
,,,,,,,6021f6c1f883e82b11739f31,605b45a4d25f287719a41696,605bee83612bdce91a37d30d,Puerto Rico,Midwest,13 or older,no,2021-03-24_22h00.36.566,empathy_intonation_perc,2020.2.10,MacIntel,60,,,,,,,,,,1,,,,,,,,,,,,,,,,,,,,,,,,,,,,,,,,,,,,,,,,28,merodear,,,0,0,6.446,0,76,76,27,1,REAL,FAKE,,,,,,,,,,,,,,,,,,,,,
,,,,,,,6021f6c1f883e82b11739f31,605b45a4d25f287719a41696,605bee83612bdce91a37d30d,Puerto Rico,Midwest,13 or older,no,2021-03-24_22h00.36.566,empathy_intonation_perc,2020.2.10,MacIntel,60,,,,,,,,,,1,,,,,,,,,,,,,,,,,,,,,,,,,,,,,,,,,,,,,,,,77,tiburn,,,1,1,1.553,0,77,77,76,1,REAL,FAKE,,,,,,,,,,,,,,,,,,,,,
,,,,,,,6021f6c1f883e82b11739f31,605b45a4d25f287719a41696,605bee83612bdce91a37d30d,Puerto Rico,Midwest,13 or older,no,2021-03-24_22h00.36.566,empathy_intonation_perc,2020.2.10,MacIntel,60,,,,,,,,,,1,,,,,,,,,,,,,,,,,,,,,,,,,,,,,,,,,,,,,,,,59,besar,,,1,1,1.208,0,78,78,58,1,REAL,FAKE,,,,,,,,,,,,,,,,,,,,,
,,,,,,,6021f6c1f883e82b11739f31,605b45a4d25f287719a41696,605bee83612bdce91a37d30d,Puerto Rico,Midwest,13 or older,no,2021-03-24_22h00.36.566,empathy_intonation_perc,2020.2.10,MacIntel,60,,,,,,,,,,0,,,,,,,,,,,,,,,,,,,,,,,,,,,,,,,,,,,,,,,,53,vegada,,,0,1,11.981,0,79,79,52,1,REAL,FAKE,,,,,,,,,,,,,,,,,,,,,
,,,,,,,6021f6c1f883e82b11739f31,605b45a4d25f287719a41696,605bee83612bdce91a37d30d,Puerto Rico,Midwest,13 or older,no,2021-03-24_22h00.36.566,empathy_intonation_perc,2020.2.10,MacIntel,60,,,,,,,,,,1,,,,,,,,,,,,,,,,,,,,,,,,,,,,,,,,,,,,,,,,52,camisa,,,1,1,4.302,0,80,80,51,1,REAL,FAKE,,,,,,,,,,,,,,,,,,,,,
,,,,,,,6021f6c1f883e82b11739f31,605b45a4d25f287719a41696,605bee83612bdce91a37d30d,Puerto Rico,Midwest,13 or older,no,2021-03-24_22h00.36.566,empathy_intonation_perc,2020.2.10,MacIntel,60,,,,,,,,,,1,,,,,,,,,,,,,,,,,,,,,,,,,,,,,,,,,,,,,,,,69,engatusar,,,0,0,6.807,0,81,81,68,1,REAL,FAKE,,,,,,,,,,,,,,,,,,,,,
,,,,,,,6021f6c1f883e82b11739f31,605b45a4d25f287719a41696,605bee83612bdce91a37d30d,Puerto Rico,Midwest,13 or older,no,2021-03-24_22h00.36.566,empathy_intonation_perc,2020.2.10,MacIntel,60,,,,,,,,,,1,,,,,,,,,,,,,,,,,,,,,,,,,,,,,,,,,,,,,,,,5,zapato,,,1,1,1.473,0,82,82,4,1,REAL,FAKE,,,,,,,,,,,,,,,,,,,,,
,,,,,,,6021f6c1f883e82b11739f31,605b45a4d25f287719a41696,605bee83612bdce91a37d30d,Puerto Rico,Midwest,13 or older,no,2021-03-24_22h00.36.566,empathy_intonation_perc,2020.2.10,MacIntel,60,,,,,,,,,,0,,,,,,,,,,,,,,,,,,,,,,,,,,,,,,,,,,,,,,,,82,empirador,,,1,0,1.404,0,83,83,81,1,REAL,FAKE,,,,,,,,,,,,,,,,,,,,,
,,,,,,,6021f6c1f883e82b11739f31,605b45a4d25f287719a41696,605bee83612bdce91a37d30d,Puerto Rico,Midwest,13 or older,no,2021-03-24_22h00.36.566,empathy_intonation_perc,2020.2.10,MacIntel,60,,,,,,,,,,1,,,,,,,,,,,,,,,,,,,,,,,,,,,,,,,,,,,,,,,,80,hormiga,,,1,1,6.145,0,84,84,79,1,REAL,FAKE,,,,,,,,,,,,,,,,,,,,,
,,,,,,,6021f6c1f883e82b11739f31,605b45a4d25f287719a41696,605bee83612bdce91a37d30d,Puerto Rico,Midwest,13 or older,no,2021-03-24_22h00.36.566,empathy_intonation_perc,2020.2.10,MacIntel,60,,,,,,,,,,0,,,,,,,,,,,,,,,,,,,,,,,,,,,,,,,,,,,,,,,,29,decar,,,0,1,8.167,0,85,85,28,1,REAL,FAKE,,,,,,,,,,,,,,,,,,,,,
,,,,,,,6021f6c1f883e82b11739f31,605b45a4d25f287719a41696,605bee83612bdce91a37d30d,Puerto Rico,Midwest,13 or older,no,2021-03-24_22h00.36.566,empathy_intonation_perc,2020.2.10,MacIntel,60,,,,,,,,,,0,,,,,,,,,,,,,,,,,,,,,,,,,,,,,,,,,,,,,,,,35,rompido,,,0,1,3.388,0,86,86,34,1,REAL,FAKE,,,,,,,,,,,,,,,,,,,,,
,,,,,,,6021f6c1f883e82b11739f31,605b45a4d25f287719a41696,605bee83612bdce91a37d30d,Puerto Rico,Midwest,13 or older,no,2021-03-24_22h00.36.566,empathy_intonation_perc,2020.2.10,MacIntel,60,,,,,,,,,,1,,,,,,,,,,,,,,,,,,,,,,,,,,,,,,,,,,,,,,,,83,guante,,,1,1,3.406,0,87,87,82,1,REAL,FAKE,,,,,,,,,,,,,,,,,,,,,
,,,,,,,6021f6c1f883e82b11739f31,605b45a4d25f287719a41696,605bee83612bdce91a37d30d,Puerto Rico,Midwest,13 or older,no,2021-03-24_22h00.36.566,empathy_intonation_perc,2020.2.10,MacIntel,60,,,,,,,,,,0,,,,,,,,,,,,,,,,,,,,,,,,,,,,,,,,,,,,,,,,32,fatacidad,,,0,1,3.204,0,88,88,31,1,REAL,FAKE,,,,,,,,,,,,,,,,,,,,,
,,,,,,,6021f6c1f883e82b11739f31,605b45a4d25f287719a41696,605bee83612bdce91a37d30d,Puerto Rico,Midwest,13 or older,no,2021-03-24_22h00.36.566,empathy_intonation_perc,2020.2.10,MacIntel,60,,,,,,,,,,1,,,,,,,,,,,,,,,,,,,,,,,,,,,,,,,,,,,,,,,,89,prisa,,,1,1,2.719,0,89,89,88,1,REAL,FAKE,,,,,,,,,,,,,,,,,,,,,
,,,,,,,6021f6c1f883e82b11739f31,605b45a4d25f287719a41696,605bee83612bdce91a37d30d,Puerto Rico,Midwest,13 or older,no,2021-03-24_22h00.36.566,empathy_intonation_perc,2020.2.10,MacIntel,60,,,,,,,,,,,,,,,,,,,,,,,,,,,,,,,,,,,,,,,,,,,,,,,,,,,,,,,,,,,,,,,,4,1,2.594,1,1,0,0,0,0,1,,,,,,,,,,,
,,,,,,,6021f6c1f883e82b11739f31,605b45a4d25f287719a41696,605bee83612bdce91a37d30d,Puerto Rico,Midwest,13 or older,no,2021-03-24_22h00.36.566,empathy_intonation_perc,2020.2.10,MacIntel,60,,,,,,,,,,,,,,,,,,,,1,,,,,,,,,,,,,,,,,,,,,,,,,,,,,,,,,,,,,,,,,,,,,,,,,,,,,,2,0,0,0,0,1,I can easily tell if someone else wants to enter a conversation.,1,0,1,0
,,,,,,,6021f6c1f883e82b11739f31,605b45a4d25f287719a41696,605bee83612bdce91a37d30d,Puerto Rico,Midwest,13 or older,no,2021-03-24_22h00.36.566,empathy_intonation_perc,2020.2.10,MacIntel,60,,,,,,,,,,,,,,,,,,,,2,,,,,,,,,,,,,,,,,,,,,,,,,,,,,,,,,,,,,,,,,,,,,,,,,,,,,,2,0,1,1,1,1,I prefer animals to humans.,0,1,0,0
,,,,,,,6021f6c1f883e82b11739f31,605b45a4d25f287719a41696,605bee83612bdce91a37d30d,Puerto Rico,Midwest,13 or older,no,2021-03-24_22h00.36.566,empathy_intonation_perc,2020.2.10,MacIntel,60,,,,,,,,,,,,,,,,,,,,3,,,,,,,,,,,,,,,,,,,,,,,,,,,,,,,,,,,,,,,,,,,,,,,,,,,,,,2,0,2,2,2,1,I try to keep up with the current trends and fashions.,0,1,0,0
,,,,,,,6021f6c1f883e82b11739f31,605b45a4d25f287719a41696,605bee83612bdce91a37d30d,Puerto Rico,Midwest,13 or older,no,2021-03-24_22h00.36.566,empathy_intonation_perc,2020.2.10,MacIntel,60,,,,,,,,,,,,,,,,,,,,4,,,,,,,,,,,,,,,,,,,,,,,,,,,,,,,,,,,,,,,,,,,,,,,,,,,,,,1,0,3,3,3,1,"I find it difficult to explain to others things that I understand easily, 
  when they dont understand it first time.",1,0,0,1
,,,,,,,6021f6c1f883e82b11739f31,605b45a4d25f287719a41696,605bee83612bdce91a37d30d,Puerto Rico,Midwest,13 or older,no,2021-03-24_22h00.36.566,empathy_intonation_perc,2020.2.10,MacIntel,60,,,,,,,,,,,,,,,,,,,,5,,,,,,,,,,,,,,,,,,,,,,,,,,,,,,,,,,,,,,,,,,,,,,,,,,,,,,2,0,4,4,4,1,I dream most nights.,0,1,0,0
,,,,,,,6021f6c1f883e82b11739f31,605b45a4d25f287719a41696,605bee83612bdce91a37d30d,Puerto Rico,Midwest,13 or older,no,2021-03-24_22h00.36.566,empathy_intonation_perc,2020.2.10,MacIntel,60,,,,,,,,,,,,,,,,,,,,6,,,,,,,,,,,,,,,,,,,,,,,,,,,,,,,,,,,,,,,,,,,,,,,,,,,,,,1,0,5,5,5,1,I really enjoy caring for other people.,1,0,1,0
