instructions_2afc_loop.thisRepN,instructions_2afc_loop.thisTrialN,instructions_2afc_loop.thisN,instructions_2afc_loop.thisIndex,instructions_2afc_loop.ran,instructions_text,continue_text,participant,study_id,session,I am most familiar with Spanish from...*,What part of the US are you from?*,At what age did you begin learning Spanish?*,Are you proficient in any languages other than English/Spanish?*,date,expName,psychopyVersion,OS,frameRate,key_resp_2afc_practice.keys,key_resp_2afc_practice.corr,key_resp_2afc_practice.rt,trials_2afc_practice_loop.thisRepN,trials_2afc_practice_loop.thisTrialN,trials_2afc_practice_loop.thisN,trials_2afc_practice_loop.thisIndex,trials_2afc_practice_loop.ran,path,correct_response,the_col,key_resp_2afc_trial.keys,key_resp_2afc_trial.corr,key_resp_2afc_trial.rt,trials_2afc_loop.thisRepN,trials_2afc_loop.thisTrialN,trials_2afc_loop.thisN,trials_2afc_loop.thisIndex,trials_2afc_loop.ran,item_num,andalusian,argentine,castilian,chilean,cuban,mexican,peruvian,puertorican,key_resp_ac1.keys,key_resp_ac1.corr,key_resp_ac1.rt,ac1_loop.thisRepN,ac1_loop.thisTrialN,ac1_loop.thisN,ac1_loop.thisIndex,ac1_loop.ran,instructions_lextale_loop.thisRepN,instructions_lextale_loop.thisTrialN,instructions_lextale_loop.thisN,instructions_lextale_loop.thisIndex,instructions_lextale_loop.ran,key_resp_lextale_practice.keys,key_resp_lextale_practice.corr,key_resp_lextale_practice.rt,trials_lextale_practice_loop.thisRepN,trials_lextale_practice_loop.thisTrialN,trials_lextale_practice_loop.thisN,trials_lextale_practice_loop.thisIndex,trials_lextale_practice_loop.ran,stim,word,prac_button_real,prac_button_false,key_resp_lextale_trial.keys,key_resp_lextale_trial.corr,key_resp_lextale_trial.rt,trials_lextale_loop.thisRepN,trials_lextale_loop.thisTrialN,trials_lextale_loop.thisN,trials_lextale_loop.thisIndex,trials_lextale_loop.ran,button_real,button_false,key_resp_ac2.keys,key_resp_ac2.corr,key_resp_ac2.rt,check_pass,check_fails,ac2_loop.thisRepN,ac2_loop.thisTrialN,ac2_loop.thisN,ac2_loop.thisIndex,ac2_loop.ran,slider_eq_trial.response,trials_eq_loop.thisRepN,trials_eq_loop.thisTrialN,trials_eq_loop.thisN,trials_eq_loop.thisIndex,trials_eq_loop.ran,item,is_test_item,is_distractor,is_agree_score,is_disagree_score
0,0,0,0,1,"In the following task you are going to hear a series of utterances. 

  You will decide if the utterances sound like questions or not using your keyboard.",(press the spacebar to continue),6023df587f535406af0c7fcb,6057c54e64b0b4e5c128b4f9,60592f746f8a16cb31e7470d,Spain,East coast,13 or older,no,2021-03-22_20h00.23.732,empathy_intonation_perc,2020.2.10,MacIntel,60,,,,,,,,,,,,,,,,,,,,,,,,,,,,,,,,,,,,,,,,,,,,,,,,,,,,,,,,,,,,,,,,,,,,,,,,,,,,,,,,,,,,
0,1,1,1,1,"If you believe the utterance is a question, type '1' (for 'yes') and if you do not 
  believe it is a question type '0' (for 'no').

  Let's practice a bit...",(press the spacebar to continue),6023df587f535406af0c7fcb,6057c54e64b0b4e5c128b4f9,60592f746f8a16cb31e7470d,Spain,East coast,13 or older,no,2021-03-22_20h00.23.732,empathy_intonation_perc,2020.2.10,MacIntel,60,,,,,,,,,,,,,,,,,,,,,,,,,,,,,,,,,,,,,,,,,,,,,,,,,,,,,,,,,,,,,,,,,,,,,,,,,,,,,,,,,,,,
,,,,,,,6023df587f535406af0c7fcb,6057c54e64b0b4e5c128b4f9,60592f746f8a16cb31e7470d,Spain,East coast,13 or older,no,2021-03-22_20h00.23.732,empathy_intonation_perc,2020.2.10,MacIntel,60,0,1,2.01167,0,0,0,4,1,./stim/wavs/cuban_statement_filler_Cocinabas-por-la-noche.wav,0,,,,,,,,,,,,,,,,,,,,,,,,,,,,,,,,,,,,,,,,,,,,,,,,,,,,,,,,,,,,,,,,,,,,,,,,,,
,,,,,,,6023df587f535406af0c7fcb,6057c54e64b0b4e5c128b4f9,60592f746f8a16cb31e7470d,Spain,East coast,13 or older,no,2021-03-22_20h00.23.732,empathy_intonation_perc,2020.2.10,MacIntel,60,1,0,2.29129,0,1,1,6,1,./stim/wavs/peruvian_statement_filler_El-nino-habla-con-su-madre.wav,0,,,,,,,,,,,,,,,,,,,,,,,,,,,,,,,,,,,,,,,,,,,,,,,,,,,,,,,,,,,,,,,,,,,,,,,,,,
,,,,,,,6023df587f535406af0c7fcb,6057c54e64b0b4e5c128b4f9,60592f746f8a16cb31e7470d,Spain,East coast,13 or older,no,2021-03-22_20h00.23.732,empathy_intonation_perc,2020.2.10,MacIntel,60,0,1,23.83419,0,2,2,5,1,./stim/wavs/andalusian_statement_filler_Alberto-nunca-se-afeita.wav,0,,,,,,,,,,,,,,,,,,,,,,,,,,,,,,,,,,,,,,,,,,,,,,,,,,,,,,,,,,,,,,,,,,,,,,,,,,
,,,,,,,6023df587f535406af0c7fcb,6057c54e64b0b4e5c128b4f9,60592f746f8a16cb31e7470d,Spain,East coast,13 or older,no,2021-03-22_20h00.23.732,empathy_intonation_perc,2020.2.10,MacIntel,60,1,1,2.476685,0,3,3,0,1,./stim/wavs/castilian_question_filler_Mi-esposo-conoce-al-chico.wav,1,,,,,,,,,,,,,,,,,,,,,,,,,,,,,,,,,,,,,,,,,,,,,,,,,,,,,,,,,,,,,,,,,,,,,,,,,,
,,,,,,,6023df587f535406af0c7fcb,6057c54e64b0b4e5c128b4f9,60592f746f8a16cb31e7470d,Spain,East coast,13 or older,no,2021-03-22_20h00.23.732,empathy_intonation_perc,2020.2.10,MacIntel,60,0,0,2.70805,0,4,4,2,1,./stim/wavs/chilean_question_filler_Mi-padre-cantaba-bien.wav,1,,,,,,,,,,,,,,,,,,,,,,,,,,,,,,,,,,,,,,,,,,,,,,,,,,,,,,,,,,,,,,,,,,,,,,,,,,
,,,,,,,6023df587f535406af0c7fcb,6057c54e64b0b4e5c128b4f9,60592f746f8a16cb31e7470d,Spain,East coast,13 or older,no,2021-03-22_20h00.23.732,empathy_intonation_perc,2020.2.10,MacIntel,60,0,1,2.757725,0,5,5,7,1,./stim/wavs/puertorican_statement_filler_La-nina-pinta-con-su-amiga.wav,0,,,,,,,,,,,,,,,,,,,,,,,,,,,,,,,,,,,,,,,,,,,,,,,,,,,,,,,,,,,,,,,,,,,,,,,,,,
,,,,,,,6023df587f535406af0c7fcb,6057c54e64b0b4e5c128b4f9,60592f746f8a16cb31e7470d,Spain,East coast,13 or older,no,2021-03-22_20h00.23.732,empathy_intonation_perc,2020.2.10,MacIntel,60,1,1,2.05653,0,6,6,3,1,./stim/wavs/mexican_question_filler_Felipe-no-tiene-contrasena.wav,1,,,,,,,,,,,,,,,,,,,,,,,,,,,,,,,,,,,,,,,,,,,,,,,,,,,,,,,,,,,,,,,,,,,,,,,,,,
,,,,,,,6023df587f535406af0c7fcb,6057c54e64b0b4e5c128b4f9,60592f746f8a16cb31e7470d,Spain,East coast,13 or older,no,2021-03-22_20h00.23.732,empathy_intonation_perc,2020.2.10,MacIntel,60,1,1,2.17165,0,7,7,1,1,./stim/wavs/argentine_question_filler_Mi-vecino-habla-mucho.wav,1,,,,,,,,,,,,,,,,,,,,,,,,,,,,,,,,,,,,,,,,,,,,,,,,,,,,,,,,,,,,,,,,,,,,,,,,,,
,,,,,,,6023df587f535406af0c7fcb,6057c54e64b0b4e5c128b4f9,60592f746f8a16cb31e7470d,Spain,East coast,13 or older,no,2021-03-22_20h00.23.732,empathy_intonation_perc,2020.2.10,MacIntel,60,,,,,,,,,,1,castilian,0,0,2.005755,0,0,0,61,1,62,./stim/wavs/andalusian_mismatch_interrogative-total-yn_Mi-madre-come-la-fruta.wav,./stim/wavs/argentine_mismatch_interrogative-total-yn_Mi-madre-come-la-fruta.wav,./stim/wavs/castilian_mismatch_interrogative-total-yn_Mi-madre-come-la-fruta.wav,./stim/wavs/chilean_mismatch_interrogative-total-yn_Mi-madre-come-la-fruta.wav,./stim/wavs/cuban_mismatch_interrogative-total-yn_Mi-madre-come-la-fruta.wav,./stim/wavs/mexican_mismatch_interrogative-total-yn_Mi-madre-come-la-fruta.wav,./stim/wavs/peruvian_mismatch_interrogative-total-yn_Mi-madre-come-la-fruta.wav,./stim/wavs/puertorican_mismatch_interrogative-total-yn_Mi-madre-come-la-fruta.wav,,,,,,,,,,,,,,,,,,,,,,,,,,,,,,,,,,,,,,,,,,,,,,,,,,,,,,,,
,,,,,,,6023df587f535406af0c7fcb,6057c54e64b0b4e5c128b4f9,60592f746f8a16cb31e7470d,Spain,East coast,13 or older,no,2021-03-22_20h00.23.732,empathy_intonation_perc,2020.2.10,MacIntel,60,,,,,,,,,,0,argentine,0,1,2.1723,0,1,1,0,1,1,./stim/wavs/andalusian_match_declarative-broad-focus_Ana-lleva-el-abrigo.wav,./stim/wavs/argentine_match_declarative-broad-focus_Ana-lleva-el-abrigo.wav,./stim/wavs/castilian_match_declarative-broad-focus_Ana-lleva-el-abrigo.wav,./stim/wavs/chilean_match_declarative-broad-focus_Ana-lleva-el-abrigo.wav,./stim/wavs/cuban_match_declarative-broad-focus_Ana-lleva-el-abrigo.wav,./stim/wavs/mexican_match_declarative-broad-focus_Ana-lleva-el-abrigo.wav,./stim/wavs/peruvian_match_declarative-broad-focus_Ana-lleva-el-abrigo.wav,./stim/wavs/puertorican_match_declarative-broad-focus_Ana-lleva-el-abrigo.wav,,,,,,,,,,,,,,,,,,,,,,,,,,,,,,,,,,,,,,,,,,,,,,,,,,,,,,,,
,,,,,,,6023df587f535406af0c7fcb,6057c54e64b0b4e5c128b4f9,60592f746f8a16cb31e7470d,Spain,East coast,13 or older,no,2021-03-22_20h00.23.732,empathy_intonation_perc,2020.2.10,MacIntel,60,,,,,,,,,,1,peruvian,1,1,1.654055,0,2,2,23,1,24,./stim/wavs/andalusian_match_interrogative-partial-wh_Por-que-iba-a-Bolivia.wav,./stim/wavs/argentine_match_interrogative-partial-wh_Por-que-iba-a-Bolivia.wav,./stim/wavs/castilian_match_interrogative-partial-wh_Por-que-iba-a-Bolivia.wav,./stim/wavs/chilean_match_interrogative-partial-wh_Por-que-iba-a-Bolivia.wav,./stim/wavs/cuban_match_interrogative-partial-wh_Por-que-iba-a-Bolivia.wav,./stim/wavs/mexican_match_interrogative-partial-wh_Por-que-iba-a-Bolivia.wav,./stim/wavs/peruvian_match_interrogative-partial-wh_Por-que-iba-a-Bolivia.wav,./stim/wavs/puertorican_match_interrogative-partial-wh_Por-que-iba-a-Bolivia.wav,,,,,,,,,,,,,,,,,,,,,,,,,,,,,,,,,,,,,,,,,,,,,,,,,,,,,,,,
,,,,,,,6023df587f535406af0c7fcb,6057c54e64b0b4e5c128b4f9,60592f746f8a16cb31e7470d,Spain,East coast,13 or older,no,2021-03-22_20h00.23.732,empathy_intonation_perc,2020.2.10,MacIntel,60,,,,,,,,,,1,cuban,1,1,1.520755,0,3,3,17,1,18,./stim/wavs/andalusian_match_interrogative-partial-wh_Cuando-leia-el-libro.wav,./stim/wavs/argentine_match_interrogative-partial-wh_Cuando-leia-el-libro.wav,./stim/wavs/castilian_match_interrogative-partial-wh_Cuando-leia-el-libro.wav,./stim/wavs/chilean_match_interrogative-partial-wh_Cuando-leia-el-libro.wav,./stim/wavs/cuban_match_interrogative-partial-wh_Cuando-leia-el-libro.wav,./stim/wavs/mexican_match_interrogative-partial-wh_Cuando-leia-el-libro.wav,./stim/wavs/peruvian_match_interrogative-partial-wh_Cuando-leia-el-libro.wav,./stim/wavs/puertorican_match_interrogative-partial-wh_Cuando-leia-el-libro.wav,,,,,,,,,,,,,,,,,,,,,,,,,,,,,,,,,,,,,,,,,,,,,,,,,,,,,,,,
,,,,,,,6023df587f535406af0c7fcb,6057c54e64b0b4e5c128b4f9,60592f746f8a16cb31e7470d,Spain,East coast,13 or older,no,2021-03-22_20h00.23.732,empathy_intonation_perc,2020.2.10,MacIntel,60,,,,,,,,,,0,peruvian,0,1,2.240385,0,4,4,34,1,35,./stim/wavs/andalusian_mismatch_declarative-broad-focus_El-nino-oye-el-rio.wav,./stim/wavs/argentine_mismatch_declarative-broad-focus_El-nino-oye-el-rio.wav,./stim/wavs/castilian_mismatch_declarative-broad-focus_El-nino-oye-el-rio.wav,./stim/wavs/chilean_mismatch_declarative-broad-focus_El-nino-oye-el-rio.wav,./stim/wavs/cuban_mismatch_declarative-broad-focus_El-nino-oye-el-rio.wav,./stim/wavs/mexican_mismatch_declarative-broad-focus_El-nino-oye-el-rio.wav,./stim/wavs/peruvian_mismatch_declarative-broad-focus_El-nino-oye-el-rio.wav,./stim/wavs/puertorican_mismatch_declarative-broad-focus_El-nino-oye-el-rio.wav,,,,,,,,,,,,,,,,,,,,,,,,,,,,,,,,,,,,,,,,,,,,,,,,,,,,,,,,
,,,,,,,6023df587f535406af0c7fcb,6057c54e64b0b4e5c128b4f9,60592f746f8a16cb31e7470d,Spain,East coast,13 or older,no,2021-03-22_20h00.23.732,empathy_intonation_perc,2020.2.10,MacIntel,60,,,,,,,,,,1,chilean,1,1,2.864265,0,5,5,25,1,26,./stim/wavs/andalusian_match_interrogative-total-yn_Daniel-iba-a-Bolivia.wav,./stim/wavs/argentine_match_interrogative-total-yn_Daniel-iba-a-Bolivia.wav,./stim/wavs/castilian_match_interrogative-total-yn_Daniel-iba-a-Bolivia.wav,./stim/wavs/chilean_match_interrogative-total-yn_Daniel-iba-a-Bolivia.wav,./stim/wavs/cuban_match_interrogative-total-yn_Daniel-iba-a-Bolivia.wav,./stim/wavs/mexican_match_interrogative-total-yn_Daniel-iba-a-Bolivia.wav,./stim/wavs/peruvian_match_interrogative-total-yn_Daniel-iba-a-Bolivia.wav,./stim/wavs/puertorican_match_interrogative-total-yn_Daniel-iba-a-Bolivia.wav,,,,,,,,,,,,,,,,,,,,,,,,,,,,,,,,,,,,,,,,,,,,,,,,,,,,,,,,
,,,,,,,6023df587f535406af0c7fcb,6057c54e64b0b4e5c128b4f9,60592f746f8a16cb31e7470d,Spain,East coast,13 or older,no,2021-03-22_20h00.23.732,empathy_intonation_perc,2020.2.10,MacIntel,60,,,,,,,,,,1,chilean,1,1,1.707765,0,6,6,52,1,53,./stim/wavs/andalusian_mismatch_interrogative-partial-wh_Por-que-odiaba-la-lluvia.wav,./stim/wavs/argentine_mismatch_interrogative-partial-wh_Por-que-odiaba-la-lluvia.wav,./stim/wavs/castilian_mismatch_interrogative-partial-wh_Por-que-odiaba-la-lluvia.wav,./stim/wavs/chilean_mismatch_interrogative-partial-wh_Por-que-odiaba-la-lluvia.wav,./stim/wavs/cuban_mismatch_interrogative-partial-wh_Por-que-odiaba-la-lluvia.wav,./stim/wavs/mexican_mismatch_interrogative-partial-wh_Por-que-odiaba-la-lluvia.wav,./stim/wavs/peruvian_mismatch_interrogative-partial-wh_Por-que-odiaba-la-lluvia.wav,./stim/wavs/puertorican_mismatch_interrogative-partial-wh_Por-que-odiaba-la-lluvia.wav,,,,,,,,,,,,,,,,,,,,,,,,,,,,,,,,,,,,,,,,,,,,,,,,,,,,,,,,
,,,,,,,6023df587f535406af0c7fcb,6057c54e64b0b4e5c128b4f9,60592f746f8a16cb31e7470d,Spain,East coast,13 or older,no,2021-03-22_20h00.23.732,empathy_intonation_perc,2020.2.10,MacIntel,60,,,,,,,,,,0,argentine,0,1,1.76079,0,7,7,13,1,14,./stim/wavs/andalusian_match_declarative-narrow-focus_Maria-bebe-el-vino.wav,./stim/wavs/argentine_match_declarative-narrow-focus_Maria-bebe-el-vino.wav,./stim/wavs/castilian_match_declarative-narrow-focus_Maria-bebe-el-vino.wav,./stim/wavs/chilean_match_declarative-narrow-focus_Maria-bebe-el-vino.wav,./stim/wavs/cuban_match_declarative-narrow-focus_Maria-bebe-el-vino.wav,./stim/wavs/mexican_match_declarative-narrow-focus_Maria-bebe-el-vino.wav,./stim/wavs/peruvian_match_declarative-narrow-focus_Maria-bebe-el-vino.wav,./stim/wavs/puertorican_match_declarative-narrow-focus_Maria-bebe-el-vino.wav,,,,,,,,,,,,,,,,,,,,,,,,,,,,,,,,,,,,,,,,,,,,,,,,,,,,,,,,
,,,,,,,6023df587f535406af0c7fcb,6057c54e64b0b4e5c128b4f9,60592f746f8a16cb31e7470d,Spain,East coast,13 or older,no,2021-03-22_20h00.23.732,empathy_intonation_perc,2020.2.10,MacIntel,60,,,,,,,,,,1,mexican,0,0,1.43016,0,8,8,29,1,30,./stim/wavs/andalusian_match_interrogative-total-yn_Maria-bebe-el-vino.wav,./stim/wavs/argentine_match_interrogative-total-yn_Maria-bebe-el-vino.wav,./stim/wavs/castilian_match_interrogative-total-yn_Maria-bebe-el-vino.wav,./stim/wavs/chilean_match_interrogative-total-yn_Maria-bebe-el-vino.wav,./stim/wavs/cuban_match_interrogative-total-yn_Maria-bebe-el-vino.wav,./stim/wavs/mexican_match_interrogative-total-yn_Maria-bebe-el-vino.wav,./stim/wavs/peruvian_match_interrogative-total-yn_Maria-bebe-el-vino.wav,./stim/wavs/puertorican_match_interrogative-total-yn_Maria-bebe-el-vino.wav,,,,,,,,,,,,,,,,,,,,,,,,,,,,,,,,,,,,,,,,,,,,,,,,,,,,,,,,
,,,,,,,6023df587f535406af0c7fcb,6057c54e64b0b4e5c128b4f9,60592f746f8a16cb31e7470d,Spain,East coast,13 or older,no,2021-03-22_20h00.23.732,empathy_intonation_perc,2020.2.10,MacIntel,60,,,,,,,,,,0,cuban,1,0,3.157685,0,9,9,7,1,8,./stim/wavs/andalusian_match_declarative-broad-focus_Marta-abre-el-regalo.wav,./stim/wavs/argentine_match_declarative-broad-focus_Marta-abre-el-regalo.wav,./stim/wavs/castilian_match_declarative-broad-focus_Marta-abre-el-regalo.wav,./stim/wavs/chilean_match_declarative-broad-focus_Marta-abre-el-regalo.wav,./stim/wavs/cuban_match_declarative-broad-focus_Marta-abre-el-regalo.wav,./stim/wavs/mexican_match_declarative-broad-focus_Marta-abre-el-regalo.wav,./stim/wavs/peruvian_match_declarative-broad-focus_Marta-abre-el-regalo.wav,./stim/wavs/puertorican_match_declarative-broad-focus_Marta-abre-el-regalo.wav,,,,,,,,,,,,,,,,,,,,,,,,,,,,,,,,,,,,,,,,,,,,,,,,,,,,,,,,
,,,,,,,6023df587f535406af0c7fcb,6057c54e64b0b4e5c128b4f9,60592f746f8a16cb31e7470d,Spain,East coast,13 or older,no,2021-03-22_20h00.23.732,empathy_intonation_perc,2020.2.10,MacIntel,60,,,,,,,,,,0,mexican,0,1,2.472575,0,10,10,36,1,37,./stim/wavs/andalusian_mismatch_declarative-broad-focus_La-nina-lava-el-plato.wav,./stim/wavs/argentine_mismatch_declarative-broad-focus_La-nina-lava-el-plato.wav,./stim/wavs/castilian_mismatch_declarative-broad-focus_La-nina-lava-el-plato.wav,./stim/wavs/chilean_mismatch_declarative-broad-focus_La-nina-lava-el-plato.wav,./stim/wavs/cuban_mismatch_declarative-broad-focus_La-nina-lava-el-plato.wav,./stim/wavs/mexican_mismatch_declarative-broad-focus_La-nina-lava-el-plato.wav,./stim/wavs/peruvian_mismatch_declarative-broad-focus_La-nina-lava-el-plato.wav,./stim/wavs/puertorican_mismatch_declarative-broad-focus_La-nina-lava-el-plato.wav,,,,,,,,,,,,,,,,,,,,,,,,,,,,,,,,,,,,,,,,,,,,,,,,,,,,,,,,
,,,,,,,6023df587f535406af0c7fcb,6057c54e64b0b4e5c128b4f9,60592f746f8a16cb31e7470d,Spain,East coast,13 or older,no,2021-03-22_20h00.23.732,empathy_intonation_perc,2020.2.10,MacIntel,60,,,,,,,,,,1,mexican,1,1,1.593305,0,11,11,53,1,54,./stim/wavs/andalusian_mismatch_interrogative-partial-wh_Por-que-oia-el-rio.wav,./stim/wavs/argentine_mismatch_interrogative-partial-wh_Por-que-oia-el-rio.wav,./stim/wavs/castilian_mismatch_interrogative-partial-wh_Por-que-oia-el-rio.wav,./stim/wavs/chilean_mismatch_interrogative-partial-wh_Por-que-oia-el-rio.wav,./stim/wavs/cuban_mismatch_interrogative-partial-wh_Por-que-oia-el-rio.wav,./stim/wavs/mexican_mismatch_interrogative-partial-wh_Por-que-oia-el-rio.wav,./stim/wavs/peruvian_mismatch_interrogative-partial-wh_Por-que-oia-el-rio.wav,./stim/wavs/puertorican_mismatch_interrogative-partial-wh_Por-que-oia-el-rio.wav,,,,,,,,,,,,,,,,,,,,,,,,,,,,,,,,,,,,,,,,,,,,,,,,,,,,,,,,
,,,,,,,6023df587f535406af0c7fcb,6057c54e64b0b4e5c128b4f9,60592f746f8a16cb31e7470d,Spain,East coast,13 or older,no,2021-03-22_20h00.23.732,empathy_intonation_perc,2020.2.10,MacIntel,60,,,,,,,,,,0,castilian,0,1,2.00808,0,12,12,42,1,43,./stim/wavs/andalusian_mismatch_declarative-narrow-focus_El-nino-oye-el-rio.wav,./stim/wavs/argentine_mismatch_declarative-narrow-focus_El-nino-oye-el-rio.wav,./stim/wavs/castilian_mismatch_declarative-narrow-focus_El-nino-oye-el-rio.wav,./stim/wavs/chilean_mismatch_declarative-narrow-focus_El-nino-oye-el-rio.wav,./stim/wavs/cuban_mismatch_declarative-narrow-focus_El-nino-oye-el-rio.wav,./stim/wavs/mexican_mismatch_declarative-narrow-focus_El-nino-oye-el-rio.wav,./stim/wavs/peruvian_mismatch_declarative-narrow-focus_El-nino-oye-el-rio.wav,./stim/wavs/puertorican_mismatch_declarative-narrow-focus_El-nino-oye-el-rio.wav,,,,,,,,,,,,,,,,,,,,,,,,,,,,,,,,,,,,,,,,,,,,,,,,,,,,,,,,
,,,,,,,6023df587f535406af0c7fcb,6057c54e64b0b4e5c128b4f9,60592f746f8a16cb31e7470d,Spain,East coast,13 or older,no,2021-03-22_20h00.23.732,empathy_intonation_perc,2020.2.10,MacIntel,60,,,,,,,,,,0,castilian,0,1,2.04389,0,13,13,38,1,39,./stim/wavs/andalusian_mismatch_declarative-broad-focus_Mi-novio-viene-del-lago.wav,./stim/wavs/argentine_mismatch_declarative-broad-focus_Mi-novio-viene-del-lago.wav,./stim/wavs/castilian_mismatch_declarative-broad-focus_Mi-novio-viene-del-lago.wav,./stim/wavs/chilean_mismatch_declarative-broad-focus_Mi-novio-viene-del-lago.wav,./stim/wavs/cuban_mismatch_declarative-broad-focus_Mi-novio-viene-del-lago.wav,./stim/wavs/mexican_mismatch_declarative-broad-focus_Mi-novio-viene-del-lago.wav,./stim/wavs/peruvian_mismatch_declarative-broad-focus_Mi-novio-viene-del-lago.wav,./stim/wavs/puertorican_mismatch_declarative-broad-focus_Mi-novio-viene-del-lago.wav,,,,,,,,,,,,,,,,,,,,,,,,,,,,,,,,,,,,,,,,,,,,,,,,,,,,,,,,
,,,,,,,6023df587f535406af0c7fcb,6057c54e64b0b4e5c128b4f9,60592f746f8a16cb31e7470d,Spain,East coast,13 or older,no,2021-03-22_20h00.23.732,empathy_intonation_perc,2020.2.10,MacIntel,60,,,,,,,,,,0,argentine,0,1,1.755075,0,14,14,44,1,45,./stim/wavs/andalusian_mismatch_declarative-narrow-focus_La-nina-lava-el-plato.wav,./stim/wavs/argentine_mismatch_declarative-narrow-focus_La-nina-lava-el-plato.wav,./stim/wavs/castilian_mismatch_declarative-narrow-focus_La-nina-lava-el-plato.wav,./stim/wavs/chilean_mismatch_declarative-narrow-focus_La-nina-lava-el-plato.wav,./stim/wavs/cuban_mismatch_declarative-narrow-focus_La-nina-lava-el-plato.wav,./stim/wavs/mexican_mismatch_declarative-narrow-focus_La-nina-lava-el-plato.wav,./stim/wavs/peruvian_mismatch_declarative-narrow-focus_La-nina-lava-el-plato.wav,./stim/wavs/puertorican_mismatch_declarative-narrow-focus_La-nina-lava-el-plato.wav,,,,,,,,,,,,,,,,,,,,,,,,,,,,,,,,,,,,,,,,,,,,,,,,,,,,,,,,
,,,,,,,6023df587f535406af0c7fcb,6057c54e64b0b4e5c128b4f9,60592f746f8a16cb31e7470d,Spain,East coast,13 or older,no,2021-03-22_20h00.23.732,empathy_intonation_perc,2020.2.10,MacIntel,60,,,,,,,,,,0,peruvian,0,1,2.49526,0,15,15,1,1,2,./stim/wavs/andalusian_match_declarative-broad-focus_Daniel-iba-a-Bolivia.wav,./stim/wavs/argentine_match_declarative-broad-focus_Daniel-iba-a-Bolivia.wav,./stim/wavs/castilian_match_declarative-broad-focus_Daniel-iba-a-Bolivia.wav,./stim/wavs/chilean_match_declarative-broad-focus_Daniel-iba-a-Bolivia.wav,./stim/wavs/cuban_match_declarative-broad-focus_Daniel-iba-a-Bolivia.wav,./stim/wavs/mexican_match_declarative-broad-focus_Daniel-iba-a-Bolivia.wav,./stim/wavs/peruvian_match_declarative-broad-focus_Daniel-iba-a-Bolivia.wav,./stim/wavs/puertorican_match_declarative-broad-focus_Daniel-iba-a-Bolivia.wav,,,,,,,,,,,,,,,,,,,,,,,,,,,,,,,,,,,,,,,,,,,,,,,,,,,,,,,,
,,,,,,,6023df587f535406af0c7fcb,6057c54e64b0b4e5c128b4f9,60592f746f8a16cb31e7470d,Spain,East coast,13 or older,no,2021-03-22_20h00.23.732,empathy_intonation_perc,2020.2.10,MacIntel,60,,,,,,,,,,0,mexican,0,1,1.88783,0,16,16,46,1,47,./stim/wavs/andalusian_mismatch_declarative-narrow-focus_Mi-novio-viene-del-lago.wav,./stim/wavs/argentine_mismatch_declarative-narrow-focus_Mi-novio-viene-del-lago.wav,./stim/wavs/castilian_mismatch_declarative-narrow-focus_Mi-novio-viene-del-lago.wav,./stim/wavs/chilean_mismatch_declarative-narrow-focus_Mi-novio-viene-del-lago.wav,./stim/wavs/cuban_mismatch_declarative-narrow-focus_Mi-novio-viene-del-lago.wav,./stim/wavs/mexican_mismatch_declarative-narrow-focus_Mi-novio-viene-del-lago.wav,./stim/wavs/peruvian_mismatch_declarative-narrow-focus_Mi-novio-viene-del-lago.wav,./stim/wavs/puertorican_mismatch_declarative-narrow-focus_Mi-novio-viene-del-lago.wav,,,,,,,,,,,,,,,,,,,,,,,,,,,,,,,,,,,,,,,,,,,,,,,,,,,,,,,,
,,,,,,,6023df587f535406af0c7fcb,6057c54e64b0b4e5c128b4f9,60592f746f8a16cb31e7470d,Spain,East coast,13 or older,no,2021-03-22_20h00.23.732,empathy_intonation_perc,2020.2.10,MacIntel,60,,,,,,,,,,0,mexican,1,0,2.841155,0,17,17,5,1,6,./stim/wavs/andalusian_match_declarative-broad-focus_Maria-bebe-el-vino.wav,./stim/wavs/argentine_match_declarative-broad-focus_Maria-bebe-el-vino.wav,./stim/wavs/castilian_match_declarative-broad-focus_Maria-bebe-el-vino.wav,./stim/wavs/chilean_match_declarative-broad-focus_Maria-bebe-el-vino.wav,./stim/wavs/cuban_match_declarative-broad-focus_Maria-bebe-el-vino.wav,./stim/wavs/mexican_match_declarative-broad-focus_Maria-bebe-el-vino.wav,./stim/wavs/peruvian_match_declarative-broad-focus_Maria-bebe-el-vino.wav,./stim/wavs/puertorican_match_declarative-broad-focus_Maria-bebe-el-vino.wav,,,,,,,,,,,,,,,,,,,,,,,,,,,,,,,,,,,,,,,,,,,,,,,,,,,,,,,,
,,,,,,,6023df587f535406af0c7fcb,6057c54e64b0b4e5c128b4f9,60592f746f8a16cb31e7470d,Spain,East coast,13 or older,no,2021-03-22_20h00.23.732,empathy_intonation_perc,2020.2.10,MacIntel,60,,,,,,,,,,1,chilean,1,1,3.12686,0,18,18,62,1,63,./stim/wavs/andalusian_mismatch_interrogative-total-yn_Mi-novio-viene-del-lago.wav,./stim/wavs/argentine_mismatch_interrogative-total-yn_Mi-novio-viene-del-lago.wav,./stim/wavs/castilian_mismatch_interrogative-total-yn_Mi-novio-viene-del-lago.wav,./stim/wavs/chilean_mismatch_interrogative-total-yn_Mi-novio-viene-del-lago.wav,./stim/wavs/cuban_mismatch_interrogative-total-yn_Mi-novio-viene-del-lago.wav,./stim/wavs/mexican_mismatch_interrogative-total-yn_Mi-novio-viene-del-lago.wav,./stim/wavs/peruvian_mismatch_interrogative-total-yn_Mi-novio-viene-del-lago.wav,./stim/wavs/puertorican_mismatch_interrogative-total-yn_Mi-novio-viene-del-lago.wav,,,,,,,,,,,,,,,,,,,,,,,,,,,,,,,,,,,,,,,,,,,,,,,,,,,,,,,,
,,,,,,,6023df587f535406af0c7fcb,6057c54e64b0b4e5c128b4f9,60592f746f8a16cb31e7470d,Spain,East coast,13 or older,no,2021-03-22_20h00.23.732,empathy_intonation_perc,2020.2.10,MacIntel,60,,,,,,,,,,0,argentine,0,1,2.01284,0,19,19,2,1,3,./stim/wavs/andalusian_match_declarative-broad-focus_David-leia-el-libro.wav,./stim/wavs/argentine_match_declarative-broad-focus_David-leia-el-libro.wav,./stim/wavs/castilian_match_declarative-broad-focus_David-leia-el-libro.wav,./stim/wavs/chilean_match_declarative-broad-focus_David-leia-el-libro.wav,./stim/wavs/cuban_match_declarative-broad-focus_David-leia-el-libro.wav,./stim/wavs/mexican_match_declarative-broad-focus_David-leia-el-libro.wav,./stim/wavs/peruvian_match_declarative-broad-focus_David-leia-el-libro.wav,./stim/wavs/puertorican_match_declarative-broad-focus_David-leia-el-libro.wav,,,,,,,,,,,,,,,,,,,,,,,,,,,,,,,,,,,,,,,,,,,,,,,,,,,,,,,,
,,,,,,,6023df587f535406af0c7fcb,6057c54e64b0b4e5c128b4f9,60592f746f8a16cb31e7470d,Spain,East coast,13 or older,no,2021-03-22_20h00.23.732,empathy_intonation_perc,2020.2.10,MacIntel,60,,,,,,,,,,0,argentine,0,1,2.496525,0,20,20,3,1,4,./stim/wavs/andalusian_match_declarative-broad-focus_Emilio-ama-la-marcha.wav,./stim/wavs/argentine_match_declarative-broad-focus_Emilio-ama-la-marcha.wav,./stim/wavs/castilian_match_declarative-broad-focus_Emilio-ama-la-marcha.wav,./stim/wavs/chilean_match_declarative-broad-focus_Emilio-ama-la-marcha.wav,./stim/wavs/cuban_match_declarative-broad-focus_Emilio-ama-la-marcha.wav,./stim/wavs/mexican_match_declarative-broad-focus_Emilio-ama-la-marcha.wav,./stim/wavs/peruvian_match_declarative-broad-focus_Emilio-ama-la-marcha.wav,./stim/wavs/puertorican_match_declarative-broad-focus_Emilio-ama-la-marcha.wav,,,,,,,,,,,,,,,,,,,,,,,,,,,,,,,,,,,,,,,,,,,,,,,,,,,,,,,,
,,,,,,,6023df587f535406af0c7fcb,6057c54e64b0b4e5c128b4f9,60592f746f8a16cb31e7470d,Spain,East coast,13 or older,no,2021-03-22_20h00.23.732,empathy_intonation_perc,2020.2.10,MacIntel,60,,,,,,,,,,1,chilean,1,1,2.51277,0,21,21,59,1,60,./stim/wavs/andalusian_mismatch_interrogative-total-yn_La-maestra-vive-en-Paris.wav,./stim/wavs/argentine_mismatch_interrogative-total-yn_La-maestra-vive-en-Paris.wav,./stim/wavs/castilian_mismatch_interrogative-total-yn_La-maestra-vive-en-Paris.wav,./stim/wavs/chilean_mismatch_interrogative-total-yn_La-maestra-vive-en-Paris.wav,./stim/wavs/cuban_mismatch_interrogative-total-yn_La-maestra-vive-en-Paris.wav,./stim/wavs/mexican_mismatch_interrogative-total-yn_La-maestra-vive-en-Paris.wav,./stim/wavs/peruvian_mismatch_interrogative-total-yn_La-maestra-vive-en-Paris.wav,./stim/wavs/puertorican_mismatch_interrogative-total-yn_La-maestra-vive-en-Paris.wav,,,,,,,,,,,,,,,,,,,,,,,,,,,,,,,,,,,,,,,,,,,,,,,,,,,,,,,,
,,,,,,,6023df587f535406af0c7fcb,6057c54e64b0b4e5c128b4f9,60592f746f8a16cb31e7470d,Spain,East coast,13 or older,no,2021-03-22_20h00.23.732,empathy_intonation_perc,2020.2.10,MacIntel,60,,,,,,,,,,1,argentine,1,1,1.939985,0,22,22,24,1,25,./stim/wavs/andalusian_match_interrogative-total-yn_Ana-lleva-el-abrigo.wav,./stim/wavs/argentine_match_interrogative-total-yn_Ana-lleva-el-abrigo.wav,./stim/wavs/castilian_match_interrogative-total-yn_Ana-lleva-el-abrigo.wav,./stim/wavs/chilean_match_interrogative-total-yn_Ana-lleva-el-abrigo.wav,./stim/wavs/cuban_match_interrogative-total-yn_Ana-lleva-el-abrigo.wav,./stim/wavs/mexican_match_interrogative-total-yn_Ana-lleva-el-abrigo.wav,./stim/wavs/peruvian_match_interrogative-total-yn_Ana-lleva-el-abrigo.wav,./stim/wavs/puertorican_match_interrogative-total-yn_Ana-lleva-el-abrigo.wav,,,,,,,,,,,,,,,,,,,,,,,,,,,,,,,,,,,,,,,,,,,,,,,,,,,,,,,,
,,,,,,,6023df587f535406af0c7fcb,6057c54e64b0b4e5c128b4f9,60592f746f8a16cb31e7470d,Spain,East coast,13 or older,no,2021-03-22_20h00.23.732,empathy_intonation_perc,2020.2.10,MacIntel,60,,,,,,,,,,0,cuban,0,1,2.038905,0,23,23,37,1,38,./stim/wavs/andalusian_mismatch_declarative-broad-focus_Mi-madre-come-la-fruta.wav,./stim/wavs/argentine_mismatch_declarative-broad-focus_Mi-madre-come-la-fruta.wav,./stim/wavs/castilian_mismatch_declarative-broad-focus_Mi-madre-come-la-fruta.wav,./stim/wavs/chilean_mismatch_declarative-broad-focus_Mi-madre-come-la-fruta.wav,./stim/wavs/cuban_mismatch_declarative-broad-focus_Mi-madre-come-la-fruta.wav,./stim/wavs/mexican_mismatch_declarative-broad-focus_Mi-madre-come-la-fruta.wav,./stim/wavs/peruvian_mismatch_declarative-broad-focus_Mi-madre-come-la-fruta.wav,./stim/wavs/puertorican_mismatch_declarative-broad-focus_Mi-madre-come-la-fruta.wav,,,,,,,,,,,,,,,,,,,,,,,,,,,,,,,,,,,,,,,,,,,,,,,,,,,,,,,,
,,,,,,,6023df587f535406af0c7fcb,6057c54e64b0b4e5c128b4f9,60592f746f8a16cb31e7470d,Spain,East coast,13 or older,no,2021-03-22_20h00.23.732,empathy_intonation_perc,2020.2.10,MacIntel,60,,,,,,,,,,1,cuban,1,1,1.754485,0,24,24,51,1,52,./stim/wavs/andalusian_mismatch_interrogative-partial-wh_Por-que-desayuna-muy-bien.wav,./stim/wavs/argentine_mismatch_interrogative-partial-wh_Por-que-desayuna-muy-bien.wav,./stim/wavs/castilian_mismatch_interrogative-partial-wh_Por-que-desayuna-muy-bien.wav,./stim/wavs/chilean_mismatch_interrogative-partial-wh_Por-que-desayuna-muy-bien.wav,./stim/wavs/cuban_mismatch_interrogative-partial-wh_Por-que-desayuna-muy-bien.wav,./stim/wavs/mexican_mismatch_interrogative-partial-wh_Por-que-desayuna-muy-bien.wav,./stim/wavs/peruvian_mismatch_interrogative-partial-wh_Por-que-desayuna-muy-bien.wav,./stim/wavs/puertorican_mismatch_interrogative-partial-wh_Por-que-desayuna-muy-bien.wav,,,,,,,,,,,,,,,,,,,,,,,,,,,,,,,,,,,,,,,,,,,,,,,,,,,,,,,,
,,,,,,,6023df587f535406af0c7fcb,6057c54e64b0b4e5c128b4f9,60592f746f8a16cb31e7470d,Spain,East coast,13 or older,no,2021-03-22_20h00.23.732,empathy_intonation_perc,2020.2.10,MacIntel,60,,,,,,,,,,0,mexican,0,1,2.03151,0,25,25,47,1,48,./stim/wavs/andalusian_mismatch_declarative-narrow-focus_Mi-tia-odia-la-lluvia.wav,./stim/wavs/argentine_mismatch_declarative-narrow-focus_Mi-tia-odia-la-lluvia.wav,./stim/wavs/castilian_mismatch_declarative-narrow-focus_Mi-tia-odia-la-lluvia.wav,./stim/wavs/chilean_mismatch_declarative-narrow-focus_Mi-tia-odia-la-lluvia.wav,./stim/wavs/cuban_mismatch_declarative-narrow-focus_Mi-tia-odia-la-lluvia.wav,./stim/wavs/mexican_mismatch_declarative-narrow-focus_Mi-tia-odia-la-lluvia.wav,./stim/wavs/peruvian_mismatch_declarative-narrow-focus_Mi-tia-odia-la-lluvia.wav,./stim/wavs/puertorican_mismatch_declarative-narrow-focus_Mi-tia-odia-la-lluvia.wav,,,,,,,,,,,,,,,,,,,,,,,,,,,,,,,,,,,,,,,,,,,,,,,,,,,,,,,,
,,,,,,,6023df587f535406af0c7fcb,6057c54e64b0b4e5c128b4f9,60592f746f8a16cb31e7470d,Spain,East coast,13 or older,no,2021-03-22_20h00.23.732,empathy_intonation_perc,2020.2.10,MacIntel,60,,,,,,,,,,1,peruvian,0,0,1.724615,0,26,26,18,1,19,./stim/wavs/andalusian_match_interrogative-partial-wh_Cuando-lleva-el-abrigo.wav,./stim/wavs/argentine_match_interrogative-partial-wh_Cuando-lleva-el-abrigo.wav,./stim/wavs/castilian_match_interrogative-partial-wh_Cuando-lleva-el-abrigo.wav,./stim/wavs/chilean_match_interrogative-partial-wh_Cuando-lleva-el-abrigo.wav,./stim/wavs/cuban_match_interrogative-partial-wh_Cuando-lleva-el-abrigo.wav,./stim/wavs/mexican_match_interrogative-partial-wh_Cuando-lleva-el-abrigo.wav,./stim/wavs/peruvian_match_interrogative-partial-wh_Cuando-lleva-el-abrigo.wav,./stim/wavs/puertorican_match_interrogative-partial-wh_Cuando-lleva-el-abrigo.wav,,,,,,,,,,,,,,,,,,,,,,,,,,,,,,,,,,,,,,,,,,,,,,,,,,,,,,,,
,,,,,,,6023df587f535406af0c7fcb,6057c54e64b0b4e5c128b4f9,60592f746f8a16cb31e7470d,Spain,East coast,13 or older,no,2021-03-22_20h00.23.732,empathy_intonation_perc,2020.2.10,MacIntel,60,,,,,,,,,,1,puertorican,1,1,1.22028,0,27,27,16,1,17,./stim/wavs/andalusian_match_interrogative-partial-wh_Cuando-bebia-el-vino.wav,./stim/wavs/argentine_match_interrogative-partial-wh_Cuando-bebia-el-vino.wav,./stim/wavs/castilian_match_interrogative-partial-wh_Cuando-bebia-el-vino.wav,./stim/wavs/chilean_match_interrogative-partial-wh_Cuando-bebia-el-vino.wav,./stim/wavs/cuban_match_interrogative-partial-wh_Cuando-bebia-el-vino.wav,./stim/wavs/mexican_match_interrogative-partial-wh_Cuando-bebia-el-vino.wav,./stim/wavs/peruvian_match_interrogative-partial-wh_Cuando-bebia-el-vino.wav,./stim/wavs/puertorican_match_interrogative-partial-wh_Cuando-bebia-el-vino.wav,,,,,,,,,,,,,,,,,,,,,,,,,,,,,,,,,,,,,,,,,,,,,,,,,,,,,,,,
,,,,,,,6023df587f535406af0c7fcb,6057c54e64b0b4e5c128b4f9,60592f746f8a16cb31e7470d,Spain,East coast,13 or older,no,2021-03-22_20h00.23.732,empathy_intonation_perc,2020.2.10,MacIntel,60,,,,,,,,,,1,argentine,1,1,1.21263,0,28,28,19,1,20,./stim/wavs/andalusian_match_interrogative-partial-wh_Cuando-vendia-el-carro.wav,./stim/wavs/argentine_match_interrogative-partial-wh_Cuando-vendia-el-carro.wav,./stim/wavs/castilian_match_interrogative-partial-wh_Cuando-vendia-el-carro.wav,./stim/wavs/chilean_match_interrogative-partial-wh_Cuando-vendia-el-carro.wav,./stim/wavs/cuban_match_interrogative-partial-wh_Cuando-vendia-el-carro.wav,./stim/wavs/mexican_match_interrogative-partial-wh_Cuando-vendia-el-carro.wav,./stim/wavs/peruvian_match_interrogative-partial-wh_Cuando-vendia-el-carro.wav,./stim/wavs/puertorican_match_interrogative-partial-wh_Cuando-vendia-el-carro.wav,,,,,,,,,,,,,,,,,,,,,,,,,,,,,,,,,,,,,,,,,,,,,,,,,,,,,,,,
,,,,,,,6023df587f535406af0c7fcb,6057c54e64b0b4e5c128b4f9,60592f746f8a16cb31e7470d,Spain,East coast,13 or older,no,2021-03-22_20h00.23.732,empathy_intonation_perc,2020.2.10,MacIntel,60,,,,,,,,,,1,chilean,1,1,0.77978,0,29,29,55,1,56,./stim/wavs/andalusian_mismatch_interrogative-partial-wh_Por-que-vivia-en-Paris.wav,./stim/wavs/argentine_mismatch_interrogative-partial-wh_Por-que-vivia-en-Paris.wav,./stim/wavs/castilian_mismatch_interrogative-partial-wh_Por-que-vivia-en-Paris.wav,./stim/wavs/chilean_mismatch_interrogative-partial-wh_Por-que-vivia-en-Paris.wav,./stim/wavs/cuban_mismatch_interrogative-partial-wh_Por-que-vivia-en-Paris.wav,./stim/wavs/mexican_mismatch_interrogative-partial-wh_Por-que-vivia-en-Paris.wav,./stim/wavs/peruvian_mismatch_interrogative-partial-wh_Por-que-vivia-en-Paris.wav,./stim/wavs/puertorican_mismatch_interrogative-partial-wh_Por-que-vivia-en-Paris.wav,,,,,,,,,,,,,,,,,,,,,,,,,,,,,,,,,,,,,,,,,,,,,,,,,,,,,,,,
,,,,,,,6023df587f535406af0c7fcb,6057c54e64b0b4e5c128b4f9,60592f746f8a16cb31e7470d,Spain,East coast,13 or older,no,2021-03-22_20h00.23.732,empathy_intonation_perc,2020.2.10,MacIntel,60,,,,,,,,,,0,cuban,0,1,2.52628,0,30,30,35,1,36,./stim/wavs/andalusian_mismatch_declarative-broad-focus_La-maestra-vive-en-Paris.wav,./stim/wavs/argentine_mismatch_declarative-broad-focus_La-maestra-vive-en-Paris.wav,./stim/wavs/castilian_mismatch_declarative-broad-focus_La-maestra-vive-en-Paris.wav,./stim/wavs/chilean_mismatch_declarative-broad-focus_La-maestra-vive-en-Paris.wav,./stim/wavs/cuban_mismatch_declarative-broad-focus_La-maestra-vive-en-Paris.wav,./stim/wavs/mexican_mismatch_declarative-broad-focus_La-maestra-vive-en-Paris.wav,./stim/wavs/peruvian_mismatch_declarative-broad-focus_La-maestra-vive-en-Paris.wav,./stim/wavs/puertorican_mismatch_declarative-broad-focus_La-maestra-vive-en-Paris.wav,,,,,,,,,,,,,,,,,,,,,,,,,,,,,,,,,,,,,,,,,,,,,,,,,,,,,,,,
,,,,,,,6023df587f535406af0c7fcb,6057c54e64b0b4e5c128b4f9,60592f746f8a16cb31e7470d,Spain,East coast,13 or older,no,2021-03-22_20h00.23.732,empathy_intonation_perc,2020.2.10,MacIntel,60,,,,,,,,,,0,peruvian,0,1,1.62392,0,31,31,14,1,15,./stim/wavs/andalusian_match_declarative-narrow-focus_Mariano-habla-del-tiempo.wav,./stim/wavs/argentine_match_declarative-narrow-focus_Mariano-habla-del-tiempo.wav,./stim/wavs/castilian_match_declarative-narrow-focus_Mariano-habla-del-tiempo.wav,./stim/wavs/chilean_match_declarative-narrow-focus_Mariano-habla-del-tiempo.wav,./stim/wavs/cuban_match_declarative-narrow-focus_Mariano-habla-del-tiempo.wav,./stim/wavs/mexican_match_declarative-narrow-focus_Mariano-habla-del-tiempo.wav,./stim/wavs/peruvian_match_declarative-narrow-focus_Mariano-habla-del-tiempo.wav,./stim/wavs/puertorican_match_declarative-narrow-focus_Mariano-habla-del-tiempo.wav,,,,,,,,,,,,,,,,,,,,,,,,,,,,,,,,,,,,,,,,,,,,,,,,,,,,,,,,
,,,,,,,6023df587f535406af0c7fcb,6057c54e64b0b4e5c128b4f9,60592f746f8a16cb31e7470d,Spain,East coast,13 or older,no,2021-03-22_20h00.23.732,empathy_intonation_perc,2020.2.10,MacIntel,60,,,,,,,,,,1,andalusian,1,1,1.693145,0,32,32,28,1,29,./stim/wavs/andalusian_match_interrogative-total-yn_Manuela-vende-el-carro.wav,./stim/wavs/argentine_match_interrogative-total-yn_Manuela-vende-el-carro.wav,./stim/wavs/castilian_match_interrogative-total-yn_Manuela-vende-el-carro.wav,./stim/wavs/chilean_match_interrogative-total-yn_Manuela-vende-el-carro.wav,./stim/wavs/cuban_match_interrogative-total-yn_Manuela-vende-el-carro.wav,./stim/wavs/mexican_match_interrogative-total-yn_Manuela-vende-el-carro.wav,./stim/wavs/peruvian_match_interrogative-total-yn_Manuela-vende-el-carro.wav,./stim/wavs/puertorican_match_interrogative-total-yn_Manuela-vende-el-carro.wav,,,,,,,,,,,,,,,,,,,,,,,,,,,,,,,,,,,,,,,,,,,,,,,,,,,,,,,,
,,,,,,,6023df587f535406af0c7fcb,6057c54e64b0b4e5c128b4f9,60592f746f8a16cb31e7470d,Spain,East coast,13 or older,no,2021-03-22_20h00.23.732,empathy_intonation_perc,2020.2.10,MacIntel,60,,,,,,,,,,1,andalusian,0,0,1.940135,0,33,33,56,1,57,./stim/wavs/andalusian_mismatch_interrogative-total-yn_El-bebe-comia-muy-bien.wav,./stim/wavs/argentine_mismatch_interrogative-total-yn_El-bebe-comia-muy-bien.wav,./stim/wavs/castilian_mismatch_interrogative-total-yn_El-bebe-comia-muy-bien.wav,./stim/wavs/chilean_mismatch_interrogative-total-yn_El-bebe-comia-muy-bien.wav,./stim/wavs/cuban_mismatch_interrogative-total-yn_El-bebe-comia-muy-bien.wav,./stim/wavs/mexican_mismatch_interrogative-total-yn_El-bebe-comia-muy-bien.wav,./stim/wavs/peruvian_mismatch_interrogative-total-yn_El-bebe-comia-muy-bien.wav,./stim/wavs/puertorican_mismatch_interrogative-total-yn_El-bebe-comia-muy-bien.wav,,,,,,,,,,,,,,,,,,,,,,,,,,,,,,,,,,,,,,,,,,,,,,,,,,,,,,,,
,,,,,,,6023df587f535406af0c7fcb,6057c54e64b0b4e5c128b4f9,60592f746f8a16cb31e7470d,Spain,East coast,13 or older,no,2021-03-22_20h00.23.732,empathy_intonation_perc,2020.2.10,MacIntel,60,,,,,,,,,,1,mexican,0,0,1.62913,0,34,34,50,1,51,./stim/wavs/andalusian_mismatch_interrogative-partial-wh_Cuando-miraba-la-luna.wav,./stim/wavs/argentine_mismatch_interrogative-partial-wh_Cuando-miraba-la-luna.wav,./stim/wavs/castilian_mismatch_interrogative-partial-wh_Cuando-miraba-la-luna.wav,./stim/wavs/chilean_mismatch_interrogative-partial-wh_Cuando-miraba-la-luna.wav,./stim/wavs/cuban_mismatch_interrogative-partial-wh_Cuando-miraba-la-luna.wav,./stim/wavs/mexican_mismatch_interrogative-partial-wh_Cuando-miraba-la-luna.wav,./stim/wavs/peruvian_mismatch_interrogative-partial-wh_Cuando-miraba-la-luna.wav,./stim/wavs/puertorican_mismatch_interrogative-partial-wh_Cuando-miraba-la-luna.wav,,,,,,,,,,,,,,,,,,,,,,,,,,,,,,,,,,,,,,,,,,,,,,,,,,,,,,,,
,,,,,,,6023df587f535406af0c7fcb,6057c54e64b0b4e5c128b4f9,60592f746f8a16cb31e7470d,Spain,East coast,13 or older,no,2021-03-22_20h00.23.732,empathy_intonation_perc,2020.2.10,MacIntel,60,,,,,,,,,,0,mexican,0,1,1.75678,0,35,35,43,1,44,./stim/wavs/andalusian_mismatch_declarative-narrow-focus_La-maestra-vive-en-Paris.wav,./stim/wavs/argentine_mismatch_declarative-narrow-focus_La-maestra-vive-en-Paris.wav,./stim/wavs/castilian_mismatch_declarative-narrow-focus_La-maestra-vive-en-Paris.wav,./stim/wavs/chilean_mismatch_declarative-narrow-focus_La-maestra-vive-en-Paris.wav,./stim/wavs/cuban_mismatch_declarative-narrow-focus_La-maestra-vive-en-Paris.wav,./stim/wavs/mexican_mismatch_declarative-narrow-focus_La-maestra-vive-en-Paris.wav,./stim/wavs/peruvian_mismatch_declarative-narrow-focus_La-maestra-vive-en-Paris.wav,./stim/wavs/puertorican_mismatch_declarative-narrow-focus_La-maestra-vive-en-Paris.wav,,,,,,,,,,,,,,,,,,,,,,,,,,,,,,,,,,,,,,,,,,,,,,,,,,,,,,,,
,,,,,,,6023df587f535406af0c7fcb,6057c54e64b0b4e5c128b4f9,60592f746f8a16cb31e7470d,Spain,East coast,13 or older,no,2021-03-22_20h00.23.732,empathy_intonation_perc,2020.2.10,MacIntel,60,,,,,,,,,,1,argentine,1,1,3.017855,0,36,36,54,1,55,./stim/wavs/andalusian_mismatch_interrogative-partial-wh_Por-que-venia-del-lago.wav,./stim/wavs/argentine_mismatch_interrogative-partial-wh_Por-que-venia-del-lago.wav,./stim/wavs/castilian_mismatch_interrogative-partial-wh_Por-que-venia-del-lago.wav,./stim/wavs/chilean_mismatch_interrogative-partial-wh_Por-que-venia-del-lago.wav,./stim/wavs/cuban_mismatch_interrogative-partial-wh_Por-que-venia-del-lago.wav,./stim/wavs/mexican_mismatch_interrogative-partial-wh_Por-que-venia-del-lago.wav,./stim/wavs/peruvian_mismatch_interrogative-partial-wh_Por-que-venia-del-lago.wav,./stim/wavs/puertorican_mismatch_interrogative-partial-wh_Por-que-venia-del-lago.wav,,,,,,,,,,,,,,,,,,,,,,,,,,,,,,,,,,,,,,,,,,,,,,,,,,,,,,,,
,,,,,,,6023df587f535406af0c7fcb,6057c54e64b0b4e5c128b4f9,60592f746f8a16cb31e7470d,Spain,East coast,13 or older,no,2021-03-22_20h00.23.732,empathy_intonation_perc,2020.2.10,MacIntel,60,,,,,,,,,,0,puertorican,1,0,2.07567,0,37,37,4,1,5,./stim/wavs/andalusian_match_declarative-broad-focus_Manuela-vende-el-carro.wav,./stim/wavs/argentine_match_declarative-broad-focus_Manuela-vende-el-carro.wav,./stim/wavs/castilian_match_declarative-broad-focus_Manuela-vende-el-carro.wav,./stim/wavs/chilean_match_declarative-broad-focus_Manuela-vende-el-carro.wav,./stim/wavs/cuban_match_declarative-broad-focus_Manuela-vende-el-carro.wav,./stim/wavs/mexican_match_declarative-broad-focus_Manuela-vende-el-carro.wav,./stim/wavs/peruvian_match_declarative-broad-focus_Manuela-vende-el-carro.wav,./stim/wavs/puertorican_match_declarative-broad-focus_Manuela-vende-el-carro.wav,,,,,,,,,,,,,,,,,,,,,,,,,,,,,,,,,,,,,,,,,,,,,,,,,,,,,,,,
,,,,,,,6023df587f535406af0c7fcb,6057c54e64b0b4e5c128b4f9,60592f746f8a16cb31e7470d,Spain,East coast,13 or older,no,2021-03-22_20h00.23.732,empathy_intonation_perc,2020.2.10,MacIntel,60,,,,,,,,,,0,peruvian,0,1,2.25784,0,38,38,41,1,42,./stim/wavs/andalusian_mismatch_declarative-narrow-focus_El-hombre-mira-la-luna.wav,./stim/wavs/argentine_mismatch_declarative-narrow-focus_El-hombre-mira-la-luna.wav,./stim/wavs/castilian_mismatch_declarative-narrow-focus_El-hombre-mira-la-luna.wav,./stim/wavs/chilean_mismatch_declarative-narrow-focus_El-hombre-mira-la-luna.wav,./stim/wavs/cuban_mismatch_declarative-narrow-focus_El-hombre-mira-la-luna.wav,./stim/wavs/mexican_mismatch_declarative-narrow-focus_El-hombre-mira-la-luna.wav,./stim/wavs/peruvian_mismatch_declarative-narrow-focus_El-hombre-mira-la-luna.wav,./stim/wavs/puertorican_mismatch_declarative-narrow-focus_El-hombre-mira-la-luna.wav,,,,,,,,,,,,,,,,,,,,,,,,,,,,,,,,,,,,,,,,,,,,,,,,,,,,,,,,
,,,,,,,6023df587f535406af0c7fcb,6057c54e64b0b4e5c128b4f9,60592f746f8a16cb31e7470d,Spain,East coast,13 or older,no,2021-03-22_20h00.23.732,empathy_intonation_perc,2020.2.10,MacIntel,60,,,,,,,,,,1,argentine,1,1,2.310325,0,39,39,21,1,22,./stim/wavs/andalusian_match_interrogative-partial-wh_Por-que-ama-la-navidad.wav,./stim/wavs/argentine_match_interrogative-partial-wh_Por-que-ama-la-navidad.wav,./stim/wavs/castilian_match_interrogative-partial-wh_Por-que-ama-la-navidad.wav,./stim/wavs/chilean_match_interrogative-partial-wh_Por-que-ama-la-navidad.wav,./stim/wavs/cuban_match_interrogative-partial-wh_Por-que-ama-la-navidad.wav,./stim/wavs/mexican_match_interrogative-partial-wh_Por-que-ama-la-navidad.wav,./stim/wavs/peruvian_match_interrogative-partial-wh_Por-que-ama-la-navidad.wav,./stim/wavs/puertorican_match_interrogative-partial-wh_Por-que-ama-la-navidad.wav,,,,,,,,,,,,,,,,,,,,,,,,,,,,,,,,,,,,,,,,,,,,,,,,,,,,,,,,
,,,,,,,6023df587f535406af0c7fcb,6057c54e64b0b4e5c128b4f9,60592f746f8a16cb31e7470d,Spain,East coast,13 or older,no,2021-03-22_20h00.23.732,empathy_intonation_perc,2020.2.10,MacIntel,60,,,,,,,,,,1,chilean,1,1,2.280765,0,40,40,26,1,27,./stim/wavs/andalusian_match_interrogative-total-yn_David-leia-el-libro.wav,./stim/wavs/argentine_match_interrogative-total-yn_David-leia-el-libro.wav,./stim/wavs/castilian_match_interrogative-total-yn_David-leia-el-libro.wav,./stim/wavs/chilean_match_interrogative-total-yn_David-leia-el-libro.wav,./stim/wavs/cuban_match_interrogative-total-yn_David-leia-el-libro.wav,./stim/wavs/mexican_match_interrogative-total-yn_David-leia-el-libro.wav,./stim/wavs/peruvian_match_interrogative-total-yn_David-leia-el-libro.wav,./stim/wavs/puertorican_match_interrogative-total-yn_David-leia-el-libro.wav,,,,,,,,,,,,,,,,,,,,,,,,,,,,,,,,,,,,,,,,,,,,,,,,,,,,,,,,
,,,,,,,6023df587f535406af0c7fcb,6057c54e64b0b4e5c128b4f9,60592f746f8a16cb31e7470d,Spain,East coast,13 or older,no,2021-03-22_20h00.23.732,empathy_intonation_perc,2020.2.10,MacIntel,60,,,,,,,,,,1,castilian,0,0,1.61403,0,41,41,63,1,64,./stim/wavs/andalusian_mismatch_interrogative-total-yn_Mi-tia-odia-la-lluvia.wav,./stim/wavs/argentine_mismatch_interrogative-total-yn_Mi-tia-odia-la-lluvia.wav,./stim/wavs/castilian_mismatch_interrogative-total-yn_Mi-tia-odia-la-lluvia.wav,./stim/wavs/chilean_mismatch_interrogative-total-yn_Mi-tia-odia-la-lluvia.wav,./stim/wavs/cuban_mismatch_interrogative-total-yn_Mi-tia-odia-la-lluvia.wav,./stim/wavs/mexican_mismatch_interrogative-total-yn_Mi-tia-odia-la-lluvia.wav,./stim/wavs/peruvian_mismatch_interrogative-total-yn_Mi-tia-odia-la-lluvia.wav,./stim/wavs/puertorican_mismatch_interrogative-total-yn_Mi-tia-odia-la-lluvia.wav,,,,,,,,,,,,,,,,,,,,,,,,,,,,,,,,,,,,,,,,,,,,,,,,,,,,,,,,
,,,,,,,6023df587f535406af0c7fcb,6057c54e64b0b4e5c128b4f9,60592f746f8a16cb31e7470d,Spain,East coast,13 or older,no,2021-03-22_20h00.23.732,empathy_intonation_perc,2020.2.10,MacIntel,60,,,,,,,,,,1,chilean,1,1,1.847095,0,42,42,57,1,58,./stim/wavs/andalusian_mismatch_interrogative-total-yn_El-hombre-mira-la-luna.wav,./stim/wavs/argentine_mismatch_interrogative-total-yn_El-hombre-mira-la-luna.wav,./stim/wavs/castilian_mismatch_interrogative-total-yn_El-hombre-mira-la-luna.wav,./stim/wavs/chilean_mismatch_interrogative-total-yn_El-hombre-mira-la-luna.wav,./stim/wavs/cuban_mismatch_interrogative-total-yn_El-hombre-mira-la-luna.wav,./stim/wavs/mexican_mismatch_interrogative-total-yn_El-hombre-mira-la-luna.wav,./stim/wavs/peruvian_mismatch_interrogative-total-yn_El-hombre-mira-la-luna.wav,./stim/wavs/puertorican_mismatch_interrogative-total-yn_El-hombre-mira-la-luna.wav,,,,,,,,,,,,,,,,,,,,,,,,,,,,,,,,,,,,,,,,,,,,,,,,,,,,,,,,
,,,,,,,6023df587f535406af0c7fcb,6057c54e64b0b4e5c128b4f9,60592f746f8a16cb31e7470d,Spain,East coast,13 or older,no,2021-03-22_20h00.23.732,empathy_intonation_perc,2020.2.10,MacIntel,60,,,,,,,,,,0,peruvian,0,1,1.403635,0,43,43,8,1,9,./stim/wavs/andalusian_match_declarative-narrow-focus_Ana-lleva-el-abrigo.wav,./stim/wavs/argentine_match_declarative-narrow-focus_Ana-lleva-el-abrigo.wav,./stim/wavs/castilian_match_declarative-narrow-focus_Ana-lleva-el-abrigo.wav,./stim/wavs/chilean_match_declarative-narrow-focus_Ana-lleva-el-abrigo.wav,./stim/wavs/cuban_match_declarative-narrow-focus_Ana-lleva-el-abrigo.wav,./stim/wavs/mexican_match_declarative-narrow-focus_Ana-lleva-el-abrigo.wav,./stim/wavs/peruvian_match_declarative-narrow-focus_Ana-lleva-el-abrigo.wav,./stim/wavs/puertorican_match_declarative-narrow-focus_Ana-lleva-el-abrigo.wav,,,,,,,,,,,,,,,,,,,,,,,,,,,,,,,,,,,,,,,,,,,,,,,,,,,,,,,,
,,,,,,,6023df587f535406af0c7fcb,6057c54e64b0b4e5c128b4f9,60592f746f8a16cb31e7470d,Spain,East coast,13 or older,no,2021-03-22_20h00.23.732,empathy_intonation_perc,2020.2.10,MacIntel,60,,,,,,,,,,0,puertorican,0,1,1.476515,0,44,44,11,1,12,./stim/wavs/andalusian_match_declarative-narrow-focus_Emilio-ama-la-marcha.wav,./stim/wavs/argentine_match_declarative-narrow-focus_Emilio-ama-la-marcha.wav,./stim/wavs/castilian_match_declarative-narrow-focus_Emilio-ama-la-marcha.wav,./stim/wavs/chilean_match_declarative-narrow-focus_Emilio-ama-la-marcha.wav,./stim/wavs/cuban_match_declarative-narrow-focus_Emilio-ama-la-marcha.wav,./stim/wavs/mexican_match_declarative-narrow-focus_Emilio-ama-la-marcha.wav,./stim/wavs/peruvian_match_declarative-narrow-focus_Emilio-ama-la-marcha.wav,./stim/wavs/puertorican_match_declarative-narrow-focus_Emilio-ama-la-marcha.wav,,,,,,,,,,,,,,,,,,,,,,,,,,,,,,,,,,,,,,,,,,,,,,,,,,,,,,,,
,,,,,,,6023df587f535406af0c7fcb,6057c54e64b0b4e5c128b4f9,60592f746f8a16cb31e7470d,Spain,East coast,13 or older,no,2021-03-22_20h00.23.732,empathy_intonation_perc,2020.2.10,MacIntel,60,,,,,,,,,,1,mexican,1,1,1.48067,0,45,45,31,1,32,./stim/wavs/andalusian_match_interrogative-total-yn_Marta-abre-el-regalo.wav,./stim/wavs/argentine_match_interrogative-total-yn_Marta-abre-el-regalo.wav,./stim/wavs/castilian_match_interrogative-total-yn_Marta-abre-el-regalo.wav,./stim/wavs/chilean_match_interrogative-total-yn_Marta-abre-el-regalo.wav,./stim/wavs/cuban_match_interrogative-total-yn_Marta-abre-el-regalo.wav,./stim/wavs/mexican_match_interrogative-total-yn_Marta-abre-el-regalo.wav,./stim/wavs/peruvian_match_interrogative-total-yn_Marta-abre-el-regalo.wav,./stim/wavs/puertorican_match_interrogative-total-yn_Marta-abre-el-regalo.wav,,,,,,,,,,,,,,,,,,,,,,,,,,,,,,,,,,,,,,,,,,,,,,,,,,,,,,,,
,,,,,,,6023df587f535406af0c7fcb,6057c54e64b0b4e5c128b4f9,60592f746f8a16cb31e7470d,Spain,East coast,13 or older,no,2021-03-22_20h00.23.732,empathy_intonation_perc,2020.2.10,MacIntel,60,,,,,,,,,,1,puertorican,1,1,1.44675,0,46,46,60,1,61,./stim/wavs/andalusian_mismatch_interrogative-total-yn_La-nina-lava-el-plato.wav,./stim/wavs/argentine_mismatch_interrogative-total-yn_La-nina-lava-el-plato.wav,./stim/wavs/castilian_mismatch_interrogative-total-yn_La-nina-lava-el-plato.wav,./stim/wavs/chilean_mismatch_interrogative-total-yn_La-nina-lava-el-plato.wav,./stim/wavs/cuban_mismatch_interrogative-total-yn_La-nina-lava-el-plato.wav,./stim/wavs/mexican_mismatch_interrogative-total-yn_La-nina-lava-el-plato.wav,./stim/wavs/peruvian_mismatch_interrogative-total-yn_La-nina-lava-el-plato.wav,./stim/wavs/puertorican_mismatch_interrogative-total-yn_La-nina-lava-el-plato.wav,,,,,,,,,,,,,,,,,,,,,,,,,,,,,,,,,,,,,,,,,,,,,,,,,,,,,,,,
,,,,,,,6023df587f535406af0c7fcb,6057c54e64b0b4e5c128b4f9,60592f746f8a16cb31e7470d,Spain,East coast,13 or older,no,2021-03-22_20h00.23.732,empathy_intonation_perc,2020.2.10,MacIntel,60,,,,,,,,,,1,peruvian,1,1,1.69955,0,47,47,22,1,23,./stim/wavs/andalusian_match_interrogative-partial-wh_Por-que-hablaba-del-agua.wav,./stim/wavs/argentine_match_interrogative-partial-wh_Por-que-hablaba-del-agua.wav,./stim/wavs/castilian_match_interrogative-partial-wh_Por-que-hablaba-del-agua.wav,./stim/wavs/chilean_match_interrogative-partial-wh_Por-que-hablaba-del-agua.wav,./stim/wavs/cuban_match_interrogative-partial-wh_Por-que-hablaba-del-agua.wav,./stim/wavs/mexican_match_interrogative-partial-wh_Por-que-hablaba-del-agua.wav,./stim/wavs/peruvian_match_interrogative-partial-wh_Por-que-hablaba-del-agua.wav,./stim/wavs/puertorican_match_interrogative-partial-wh_Por-que-hablaba-del-agua.wav,,,,,,,,,,,,,,,,,,,,,,,,,,,,,,,,,,,,,,,,,,,,,,,,,,,,,,,,
,,,,,,,6023df587f535406af0c7fcb,6057c54e64b0b4e5c128b4f9,60592f746f8a16cb31e7470d,Spain,East coast,13 or older,no,2021-03-22_20h00.23.732,empathy_intonation_perc,2020.2.10,MacIntel,60,,,,,,,,,,0,mexican,0,1,1.60433,0,48,48,15,1,16,./stim/wavs/andalusian_match_declarative-narrow-focus_Marta-abre-el-regalo.wav,./stim/wavs/argentine_match_declarative-narrow-focus_Marta-abre-el-regalo.wav,./stim/wavs/castilian_match_declarative-narrow-focus_Marta-abre-el-regalo.wav,./stim/wavs/chilean_match_declarative-narrow-focus_Marta-abre-el-regalo.wav,./stim/wavs/cuban_match_declarative-narrow-focus_Marta-abre-el-regalo.wav,./stim/wavs/mexican_match_declarative-narrow-focus_Marta-abre-el-regalo.wav,./stim/wavs/peruvian_match_declarative-narrow-focus_Marta-abre-el-regalo.wav,./stim/wavs/puertorican_match_declarative-narrow-focus_Marta-abre-el-regalo.wav,,,,,,,,,,,,,,,,,,,,,,,,,,,,,,,,,,,,,,,,,,,,,,,,,,,,,,,,
,,,,,,,6023df587f535406af0c7fcb,6057c54e64b0b4e5c128b4f9,60592f746f8a16cb31e7470d,Spain,East coast,13 or older,no,2021-03-22_20h00.23.732,empathy_intonation_perc,2020.2.10,MacIntel,60,,,,,,,,,,1,argentine,0,0,3.25038,0,49,49,30,1,31,./stim/wavs/andalusian_match_interrogative-total-yn_Mariano-habla-del-tiempo.wav,./stim/wavs/argentine_match_interrogative-total-yn_Mariano-habla-del-tiempo.wav,./stim/wavs/castilian_match_interrogative-total-yn_Mariano-habla-del-tiempo.wav,./stim/wavs/chilean_match_interrogative-total-yn_Mariano-habla-del-tiempo.wav,./stim/wavs/cuban_match_interrogative-total-yn_Mariano-habla-del-tiempo.wav,./stim/wavs/mexican_match_interrogative-total-yn_Mariano-habla-del-tiempo.wav,./stim/wavs/peruvian_match_interrogative-total-yn_Mariano-habla-del-tiempo.wav,./stim/wavs/puertorican_match_interrogative-total-yn_Mariano-habla-del-tiempo.wav,,,,,,,,,,,,,,,,,,,,,,,,,,,,,,,,,,,,,,,,,,,,,,,,,,,,,,,,
,,,,,,,6023df587f535406af0c7fcb,6057c54e64b0b4e5c128b4f9,60592f746f8a16cb31e7470d,Spain,East coast,13 or older,no,2021-03-22_20h00.23.732,empathy_intonation_perc,2020.2.10,MacIntel,60,,,,,,,,,,0,castilian,0,1,1.49389,0,50,50,39,1,40,./stim/wavs/andalusian_mismatch_declarative-broad-focus_Mi-tia-odia-la-lluvia.wav,./stim/wavs/argentine_mismatch_declarative-broad-focus_Mi-tia-odia-la-lluvia.wav,./stim/wavs/castilian_mismatch_declarative-broad-focus_Mi-tia-odia-la-lluvia.wav,./stim/wavs/chilean_mismatch_declarative-broad-focus_Mi-tia-odia-la-lluvia.wav,./stim/wavs/cuban_mismatch_declarative-broad-focus_Mi-tia-odia-la-lluvia.wav,./stim/wavs/mexican_mismatch_declarative-broad-focus_Mi-tia-odia-la-lluvia.wav,./stim/wavs/peruvian_mismatch_declarative-broad-focus_Mi-tia-odia-la-lluvia.wav,./stim/wavs/puertorican_mismatch_declarative-broad-focus_Mi-tia-odia-la-lluvia.wav,,,,,,,,,,,,,,,,,,,,,,,,,,,,,,,,,,,,,,,,,,,,,,,,,,,,,,,,
,,,,,,,6023df587f535406af0c7fcb,6057c54e64b0b4e5c128b4f9,60592f746f8a16cb31e7470d,Spain,East coast,13 or older,no,2021-03-22_20h00.23.732,empathy_intonation_perc,2020.2.10,MacIntel,60,,,,,,,,,,1,castilian,0,0,1.57196,0,51,51,58,1,59,./stim/wavs/andalusian_mismatch_interrogative-total-yn_El-nino-oye-el-rio.wav,./stim/wavs/argentine_mismatch_interrogative-total-yn_El-nino-oye-el-rio.wav,./stim/wavs/castilian_mismatch_interrogative-total-yn_El-nino-oye-el-rio.wav,./stim/wavs/chilean_mismatch_interrogative-total-yn_El-nino-oye-el-rio.wav,./stim/wavs/cuban_mismatch_interrogative-total-yn_El-nino-oye-el-rio.wav,./stim/wavs/mexican_mismatch_interrogative-total-yn_El-nino-oye-el-rio.wav,./stim/wavs/peruvian_mismatch_interrogative-total-yn_El-nino-oye-el-rio.wav,./stim/wavs/puertorican_mismatch_interrogative-total-yn_El-nino-oye-el-rio.wav,,,,,,,,,,,,,,,,,,,,,,,,,,,,,,,,,,,,,,,,,,,,,,,,,,,,,,,,
,,,,,,,6023df587f535406af0c7fcb,6057c54e64b0b4e5c128b4f9,60592f746f8a16cb31e7470d,Spain,East coast,13 or older,no,2021-03-22_20h00.23.732,empathy_intonation_perc,2020.2.10,MacIntel,60,,,,,,,,,,0,puertorican,1,0,2.29027,0,52,52,12,1,13,./stim/wavs/andalusian_match_declarative-narrow-focus_Manuela-vende-el-carro.wav,./stim/wavs/argentine_match_declarative-narrow-focus_Manuela-vende-el-carro.wav,./stim/wavs/castilian_match_declarative-narrow-focus_Manuela-vende-el-carro.wav,./stim/wavs/chilean_match_declarative-narrow-focus_Manuela-vende-el-carro.wav,./stim/wavs/cuban_match_declarative-narrow-focus_Manuela-vende-el-carro.wav,./stim/wavs/mexican_match_declarative-narrow-focus_Manuela-vende-el-carro.wav,./stim/wavs/peruvian_match_declarative-narrow-focus_Manuela-vende-el-carro.wav,./stim/wavs/puertorican_match_declarative-narrow-focus_Manuela-vende-el-carro.wav,,,,,,,,,,,,,,,,,,,,,,,,,,,,,,,,,,,,,,,,,,,,,,,,,,,,,,,,
,,,,,,,6023df587f535406af0c7fcb,6057c54e64b0b4e5c128b4f9,60592f746f8a16cb31e7470d,Spain,East coast,13 or older,no,2021-03-22_20h00.23.732,empathy_intonation_perc,2020.2.10,MacIntel,60,,,,,,,,,,0,mexican,0,1,1.722065,0,53,53,45,1,46,./stim/wavs/andalusian_mismatch_declarative-narrow-focus_Mi-madre-come-la-fruta.wav,./stim/wavs/argentine_mismatch_declarative-narrow-focus_Mi-madre-come-la-fruta.wav,./stim/wavs/castilian_mismatch_declarative-narrow-focus_Mi-madre-come-la-fruta.wav,./stim/wavs/chilean_mismatch_declarative-narrow-focus_Mi-madre-come-la-fruta.wav,./stim/wavs/cuban_mismatch_declarative-narrow-focus_Mi-madre-come-la-fruta.wav,./stim/wavs/mexican_mismatch_declarative-narrow-focus_Mi-madre-come-la-fruta.wav,./stim/wavs/peruvian_mismatch_declarative-narrow-focus_Mi-madre-come-la-fruta.wav,./stim/wavs/puertorican_mismatch_declarative-narrow-focus_Mi-madre-come-la-fruta.wav,,,,,,,,,,,,,,,,,,,,,,,,,,,,,,,,,,,,,,,,,,,,,,,,,,,,,,,,
,,,,,,,6023df587f535406af0c7fcb,6057c54e64b0b4e5c128b4f9,60592f746f8a16cb31e7470d,Spain,East coast,13 or older,no,2021-03-22_20h00.23.732,empathy_intonation_perc,2020.2.10,MacIntel,60,,,,,,,,,,1,mexican,0,0,1.492705,0,54,54,49,1,50,./stim/wavs/andalusian_mismatch_interrogative-partial-wh_Cuando-lavaba-el-plato.wav,./stim/wavs/argentine_mismatch_interrogative-partial-wh_Cuando-lavaba-el-plato.wav,./stim/wavs/castilian_mismatch_interrogative-partial-wh_Cuando-lavaba-el-plato.wav,./stim/wavs/chilean_mismatch_interrogative-partial-wh_Cuando-lavaba-el-plato.wav,./stim/wavs/cuban_mismatch_interrogative-partial-wh_Cuando-lavaba-el-plato.wav,./stim/wavs/mexican_mismatch_interrogative-partial-wh_Cuando-lavaba-el-plato.wav,./stim/wavs/peruvian_mismatch_interrogative-partial-wh_Cuando-lavaba-el-plato.wav,./stim/wavs/puertorican_mismatch_interrogative-partial-wh_Cuando-lavaba-el-plato.wav,,,,,,,,,,,,,,,,,,,,,,,,,,,,,,,,,,,,,,,,,,,,,,,,,,,,,,,,
,,,,,,,6023df587f535406af0c7fcb,6057c54e64b0b4e5c128b4f9,60592f746f8a16cb31e7470d,Spain,East coast,13 or older,no,2021-03-22_20h00.23.732,empathy_intonation_perc,2020.2.10,MacIntel,60,,,,,,,,,,0,castilian,0,1,1.50605,0,55,55,33,1,34,./stim/wavs/andalusian_mismatch_declarative-broad-focus_El-hombre-mira-la-luna.wav,./stim/wavs/argentine_mismatch_declarative-broad-focus_El-hombre-mira-la-luna.wav,./stim/wavs/castilian_mismatch_declarative-broad-focus_El-hombre-mira-la-luna.wav,./stim/wavs/chilean_mismatch_declarative-broad-focus_El-hombre-mira-la-luna.wav,./stim/wavs/cuban_mismatch_declarative-broad-focus_El-hombre-mira-la-luna.wav,./stim/wavs/mexican_mismatch_declarative-broad-focus_El-hombre-mira-la-luna.wav,./stim/wavs/peruvian_mismatch_declarative-broad-focus_El-hombre-mira-la-luna.wav,./stim/wavs/puertorican_mismatch_declarative-broad-focus_El-hombre-mira-la-luna.wav,,,,,,,,,,,,,,,,,,,,,,,,,,,,,,,,,,,,,,,,,,,,,,,,,,,,,,,,
,,,,,,,6023df587f535406af0c7fcb,6057c54e64b0b4e5c128b4f9,60592f746f8a16cb31e7470d,Spain,East coast,13 or older,no,2021-03-22_20h00.23.732,empathy_intonation_perc,2020.2.10,MacIntel,60,,,,,,,,,,0,peruvian,0,1,1.504505,0,56,56,10,1,11,./stim/wavs/andalusian_match_declarative-narrow-focus_David-leia-el-libro.wav,./stim/wavs/argentine_match_declarative-narrow-focus_David-leia-el-libro.wav,./stim/wavs/castilian_match_declarative-narrow-focus_David-leia-el-libro.wav,./stim/wavs/chilean_match_declarative-narrow-focus_David-leia-el-libro.wav,./stim/wavs/cuban_match_declarative-narrow-focus_David-leia-el-libro.wav,./stim/wavs/mexican_match_declarative-narrow-focus_David-leia-el-libro.wav,./stim/wavs/peruvian_match_declarative-narrow-focus_David-leia-el-libro.wav,./stim/wavs/puertorican_match_declarative-narrow-focus_David-leia-el-libro.wav,,,,,,,,,,,,,,,,,,,,,,,,,,,,,,,,,,,,,,,,,,,,,,,,,,,,,,,,
,,,,,,,6023df587f535406af0c7fcb,6057c54e64b0b4e5c128b4f9,60592f746f8a16cb31e7470d,Spain,East coast,13 or older,no,2021-03-22_20h00.23.732,empathy_intonation_perc,2020.2.10,MacIntel,60,,,,,,,,,,1,argentine,0,0,1.60557,0,57,57,48,1,49,./stim/wavs/andalusian_mismatch_interrogative-partial-wh_Cuando-comia-la-fruta.wav,./stim/wavs/argentine_mismatch_interrogative-partial-wh_Cuando-comia-la-fruta.wav,./stim/wavs/castilian_mismatch_interrogative-partial-wh_Cuando-comia-la-fruta.wav,./stim/wavs/chilean_mismatch_interrogative-partial-wh_Cuando-comia-la-fruta.wav,./stim/wavs/cuban_mismatch_interrogative-partial-wh_Cuando-comia-la-fruta.wav,./stim/wavs/mexican_mismatch_interrogative-partial-wh_Cuando-comia-la-fruta.wav,./stim/wavs/peruvian_mismatch_interrogative-partial-wh_Cuando-comia-la-fruta.wav,./stim/wavs/puertorican_mismatch_interrogative-partial-wh_Cuando-comia-la-fruta.wav,,,,,,,,,,,,,,,,,,,,,,,,,,,,,,,,,,,,,,,,,,,,,,,,,,,,,,,,
,,,,,,,6023df587f535406af0c7fcb,6057c54e64b0b4e5c128b4f9,60592f746f8a16cb31e7470d,Spain,East coast,13 or older,no,2021-03-22_20h00.23.732,empathy_intonation_perc,2020.2.10,MacIntel,60,,,,,,,,,,0,castilian,0,1,2.15807,0,58,58,32,1,33,./stim/wavs/andalusian_mismatch_declarative-broad-focus_El-bebe-comia-muy-bien.wav,./stim/wavs/argentine_mismatch_declarative-broad-focus_El-bebe-comia-muy-bien.wav,./stim/wavs/castilian_mismatch_declarative-broad-focus_El-bebe-comia-muy-bien.wav,./stim/wavs/chilean_mismatch_declarative-broad-focus_El-bebe-comia-muy-bien.wav,./stim/wavs/cuban_mismatch_declarative-broad-focus_El-bebe-comia-muy-bien.wav,./stim/wavs/mexican_mismatch_declarative-broad-focus_El-bebe-comia-muy-bien.wav,./stim/wavs/peruvian_mismatch_declarative-broad-focus_El-bebe-comia-muy-bien.wav,./stim/wavs/puertorican_mismatch_declarative-broad-focus_El-bebe-comia-muy-bien.wav,,,,,,,,,,,,,,,,,,,,,,,,,,,,,,,,,,,,,,,,,,,,,,,,,,,,,,,,
,,,,,,,6023df587f535406af0c7fcb,6057c54e64b0b4e5c128b4f9,60592f746f8a16cb31e7470d,Spain,East coast,13 or older,no,2021-03-22_20h00.23.732,empathy_intonation_perc,2020.2.10,MacIntel,60,,,,,,,,,,0,chilean,0,1,1.593435,0,59,59,9,1,10,./stim/wavs/andalusian_match_declarative-narrow-focus_Daniel-iba-a-Bolivia.wav,./stim/wavs/argentine_match_declarative-narrow-focus_Daniel-iba-a-Bolivia.wav,./stim/wavs/castilian_match_declarative-narrow-focus_Daniel-iba-a-Bolivia.wav,./stim/wavs/chilean_match_declarative-narrow-focus_Daniel-iba-a-Bolivia.wav,./stim/wavs/cuban_match_declarative-narrow-focus_Daniel-iba-a-Bolivia.wav,./stim/wavs/mexican_match_declarative-narrow-focus_Daniel-iba-a-Bolivia.wav,./stim/wavs/peruvian_match_declarative-narrow-focus_Daniel-iba-a-Bolivia.wav,./stim/wavs/puertorican_match_declarative-narrow-focus_Daniel-iba-a-Bolivia.wav,,,,,,,,,,,,,,,,,,,,,,,,,,,,,,,,,,,,,,,,,,,,,,,,,,,,,,,,
,,,,,,,6023df587f535406af0c7fcb,6057c54e64b0b4e5c128b4f9,60592f746f8a16cb31e7470d,Spain,East coast,13 or older,no,2021-03-22_20h00.23.732,empathy_intonation_perc,2020.2.10,MacIntel,60,,,,,,,,,,1,cuban,0,0,1.43826,0,60,60,27,1,28,./stim/wavs/andalusian_match_interrogative-total-yn_Emilio-ama-la-marcha.wav,./stim/wavs/argentine_match_interrogative-total-yn_Emilio-ama-la-marcha.wav,./stim/wavs/castilian_match_interrogative-total-yn_Emilio-ama-la-marcha.wav,./stim/wavs/chilean_match_interrogative-total-yn_Emilio-ama-la-marcha.wav,./stim/wavs/cuban_match_interrogative-total-yn_Emilio-ama-la-marcha.wav,./stim/wavs/mexican_match_interrogative-total-yn_Emilio-ama-la-marcha.wav,./stim/wavs/peruvian_match_interrogative-total-yn_Emilio-ama-la-marcha.wav,./stim/wavs/puertorican_match_interrogative-total-yn_Emilio-ama-la-marcha.wav,,,,,,,,,,,,,,,,,,,,,,,,,,,,,,,,,,,,,,,,,,,,,,,,,,,,,,,,
,,,,,,,6023df587f535406af0c7fcb,6057c54e64b0b4e5c128b4f9,60592f746f8a16cb31e7470d,Spain,East coast,13 or older,no,2021-03-22_20h00.23.732,empathy_intonation_perc,2020.2.10,MacIntel,60,,,,,,,,,,0,andalusian,0,1,2.298945,0,61,61,6,1,7,./stim/wavs/andalusian_match_declarative-broad-focus_Mariano-habla-del-tiempo.wav,./stim/wavs/argentine_match_declarative-broad-focus_Mariano-habla-del-tiempo.wav,./stim/wavs/castilian_match_declarative-broad-focus_Mariano-habla-del-tiempo.wav,./stim/wavs/chilean_match_declarative-broad-focus_Mariano-habla-del-tiempo.wav,./stim/wavs/cuban_match_declarative-broad-focus_Mariano-habla-del-tiempo.wav,./stim/wavs/mexican_match_declarative-broad-focus_Mariano-habla-del-tiempo.wav,./stim/wavs/peruvian_match_declarative-broad-focus_Mariano-habla-del-tiempo.wav,./stim/wavs/puertorican_match_declarative-broad-focus_Mariano-habla-del-tiempo.wav,,,,,,,,,,,,,,,,,,,,,,,,,,,,,,,,,,,,,,,,,,,,,,,,,,,,,,,,
,,,,,,,6023df587f535406af0c7fcb,6057c54e64b0b4e5c128b4f9,60592f746f8a16cb31e7470d,Spain,East coast,13 or older,no,2021-03-22_20h00.23.732,empathy_intonation_perc,2020.2.10,MacIntel,60,,,,,,,,,,1,argentine,1,1,1.336315,0,62,62,20,1,21,./stim/wavs/andalusian_match_interrogative-partial-wh_Por-que-abre-el-regalo.wav,./stim/wavs/argentine_match_interrogative-partial-wh_Por-que-abre-el-regalo.wav,./stim/wavs/castilian_match_interrogative-partial-wh_Por-que-abre-el-regalo.wav,./stim/wavs/chilean_match_interrogative-partial-wh_Por-que-abre-el-regalo.wav,./stim/wavs/cuban_match_interrogative-partial-wh_Por-que-abre-el-regalo.wav,./stim/wavs/mexican_match_interrogative-partial-wh_Por-que-abre-el-regalo.wav,./stim/wavs/peruvian_match_interrogative-partial-wh_Por-que-abre-el-regalo.wav,./stim/wavs/puertorican_match_interrogative-partial-wh_Por-que-abre-el-regalo.wav,,,,,,,,,,,,,,,,,,,,,,,,,,,,,,,,,,,,,,,,,,,,,,,,,,,,,,,,
,,,,,,,6023df587f535406af0c7fcb,6057c54e64b0b4e5c128b4f9,60592f746f8a16cb31e7470d,Spain,East coast,13 or older,no,2021-03-22_20h00.23.732,empathy_intonation_perc,2020.2.10,MacIntel,60,,,,,,,,,,0,chilean,0,1,1.956745,0,63,63,40,1,41,./stim/wavs/andalusian_mismatch_declarative-narrow-focus_El-bebe-comia-muy-bien.wav,./stim/wavs/argentine_mismatch_declarative-narrow-focus_El-bebe-comia-muy-bien.wav,./stim/wavs/castilian_mismatch_declarative-narrow-focus_El-bebe-comia-muy-bien.wav,./stim/wavs/chilean_mismatch_declarative-narrow-focus_El-bebe-comia-muy-bien.wav,./stim/wavs/cuban_mismatch_declarative-narrow-focus_El-bebe-comia-muy-bien.wav,./stim/wavs/mexican_mismatch_declarative-narrow-focus_El-bebe-comia-muy-bien.wav,./stim/wavs/peruvian_mismatch_declarative-narrow-focus_El-bebe-comia-muy-bien.wav,./stim/wavs/puertorican_mismatch_declarative-narrow-focus_El-bebe-comia-muy-bien.wav,,,,,,,,,,,,,,,,,,,,,,,,,,,,,,,,,,,,,,,,,,,,,,,,,,,,,,,,
,,,,,,,6023df587f535406af0c7fcb,6057c54e64b0b4e5c128b4f9,60592f746f8a16cb31e7470d,Spain,East coast,13 or older,no,2021-03-22_20h00.23.732,empathy_intonation_perc,2020.2.10,MacIntel,60,,,,,,,,,,,,,,,,,,,,,,,,,,,,,h,1,6.715565,0,0,0,0,1,,,,,,,,,,,,,,,,,,,,,,,,,,,,,,,,,,,,,,,,,,,,,,,,
,,,,,"Great! Now we will move on. The next task consists of about 60 trials, in each of which you will see a string of letters. 
  
  Your task is to decide whether this is a real Spanish word or not.",(press the spacebar to continue),6023df587f535406af0c7fcb,6057c54e64b0b4e5c128b4f9,60592f746f8a16cb31e7470d,Spain,East coast,13 or older,no,2021-03-22_20h00.23.732,empathy_intonation_perc,2020.2.10,MacIntel,60,,,,,,,,,,,,,,,,,,,,,,,,,,,,,,,,,,,,,0,0,0,0,1,,,,,,,,,,,,,,,,,,,,,,,,,,,,,,,,,,,,,,,,,,,
,,,,,"If you think it is an existing Spanish word, you type '1' (for 'REAL'), and if you think it is not an existing Spanish word, you type '0' (for 'FAKE').",(press the spacebar to continue),6023df587f535406af0c7fcb,6057c54e64b0b4e5c128b4f9,60592f746f8a16cb31e7470d,Spain,East coast,13 or older,no,2021-03-22_20h00.23.732,empathy_intonation_perc,2020.2.10,MacIntel,60,,,,,,,,,,,,,,,,,,,,,,,,,,,,,,,,,,,,,0,1,1,1,1,,,,,,,,,,,,,,,,,,,,,,,,,,,,,,,,,,,,,,,,,,,
,,,,,"If you are sure that the word exists, even though you dont know its exact meaning, you may still respond '1' (REAL). 
  
  But if you are not sure if it is an existing word, you should respond '0' (FAKE).
  
  Let's do a practice round...",(press the spacebar to continue),6023df587f535406af0c7fcb,6057c54e64b0b4e5c128b4f9,60592f746f8a16cb31e7470d,Spain,East coast,13 or older,no,2021-03-22_20h00.23.732,empathy_intonation_perc,2020.2.10,MacIntel,60,,,,,,,,,,,,,,,,,,,,,,,,,,,,,,,,,,,,,0,2,2,2,1,,,,,,,,,,,,,,,,,,,,,,,,,,,,,,,,,,,,,,,,,,,
,,,,,,,6023df587f535406af0c7fcb,6057c54e64b0b4e5c128b4f9,60592f746f8a16cb31e7470d,Spain,East coast,13 or older,no,2021-03-22_20h00.23.732,empathy_intonation_perc,2020.2.10,MacIntel,60,,,,,,,,,,0,,,,,,,,,,,,,,,,,,,,,,,,,,,,,,,,0,1,1.904305,0,0,0,0,1,0,depiste,REAL,FAKE,,,,,,,,,,,,,,,,,,,,,,,,,,,,,,,
,,,,,,,6023df587f535406af0c7fcb,6057c54e64b0b4e5c128b4f9,60592f746f8a16cb31e7470d,Spain,East coast,13 or older,no,2021-03-22_20h00.23.732,empathy_intonation_perc,2020.2.10,MacIntel,60,,,,,,,,,,1,,,,,,,,,,,,,,,,,,,,,,,,,,,,,,,,1,1,0.86952,0,1,1,1,1,0,s,REAL,FAKE,,,,,,,,,,,,,,,,,,,,,,,,,,,,,,,
,,,,,,,6023df587f535406af0c7fcb,6057c54e64b0b4e5c128b4f9,60592f746f8a16cb31e7470d,Spain,East coast,13 or older,no,2021-03-22_20h00.23.732,empathy_intonation_perc,2020.2.10,MacIntel,60,,,,,,,,,,0,,,,,,,,,,,,,,,,,,,,,,,,,,,,,,,,0,1,1.03428,0,2,2,2,1,0,con,REAL,FAKE,,,,,,,,,,,,,,,,,,,,,,,,,,,,,,,
,,,,,,,6023df587f535406af0c7fcb,6057c54e64b0b4e5c128b4f9,60592f746f8a16cb31e7470d,Spain,East coast,13 or older,no,2021-03-22_20h00.23.732,empathy_intonation_perc,2020.2.10,MacIntel,60,,,,,,,,,,0,,,,,,,,,,,,,,,,,,,,,,,,,,,,,,,,1,0,0.8738,0,3,3,3,1,0,calpar,REAL,FAKE,,,,,,,,,,,,,,,,,,,,,,,,,,,,,,,
,,,,,,,6023df587f535406af0c7fcb,6057c54e64b0b4e5c128b4f9,60592f746f8a16cb31e7470d,Spain,East coast,13 or older,no,2021-03-22_20h00.23.732,empathy_intonation_perc,2020.2.10,MacIntel,60,,,,,,,,,,0,,,,,,,,,,,,,,,,,,,,,,,,,,,,,,,,0,1,0.98311,0,4,4,4,1,0,joten,REAL,FAKE,,,,,,,,,,,,,,,,,,,,,,,,,,,,,,,
,,,,,,,6023df587f535406af0c7fcb,6057c54e64b0b4e5c128b4f9,60592f746f8a16cb31e7470d,Spain,East coast,13 or older,no,2021-03-22_20h00.23.732,empathy_intonation_perc,2020.2.10,MacIntel,60,,,,,,,,,,1,,,,,,,,,,,,,,,,,,,,,,,,,,,,,,,,1,1,1.20063,0,5,5,5,1,0,sacapuntas,REAL,FAKE,,,,,,,,,,,,,,,,,,,,,,,,,,,,,,,
,,,,,,,6023df587f535406af0c7fcb,6057c54e64b0b4e5c128b4f9,60592f746f8a16cb31e7470d,Spain,East coast,13 or older,no,2021-03-22_20h00.23.732,empathy_intonation_perc,2020.2.10,MacIntel,60,,,,,,,,,,0,,,,,,,,,,,,,,,,,,,,,,,,,,,,,,,,0,1,0.84899,0,6,6,6,1,0,priba,REAL,FAKE,,,,,,,,,,,,,,,,,,,,,,,,,,,,,,,
,,,,,,,6023df587f535406af0c7fcb,6057c54e64b0b4e5c128b4f9,60592f746f8a16cb31e7470d,Spain,East coast,13 or older,no,2021-03-22_20h00.23.732,empathy_intonation_perc,2020.2.10,MacIntel,60,,,,,,,,,,0,,,,,,,,,,,,,,,,,,,,,,,,,,,,,,,,0,1,1.474225,0,7,7,7,1,0,pelasula,REAL,FAKE,,,,,,,,,,,,,,,,,,,,,,,,,,,,,,,
,,,,,,,6023df587f535406af0c7fcb,6057c54e64b0b4e5c128b4f9,60592f746f8a16cb31e7470d,Spain,East coast,13 or older,no,2021-03-22_20h00.23.732,empathy_intonation_perc,2020.2.10,MacIntel,60,,,,,,,,,,1,,,,,,,,,,,,,,,,,,,,,,,,,,,,,,,,1,1,0.824895,0,8,8,8,1,0,bien,REAL,FAKE,,,,,,,,,,,,,,,,,,,,,,,,,,,,,,,
,,,,,,,6023df587f535406af0c7fcb,6057c54e64b0b4e5c128b4f9,60592f746f8a16cb31e7470d,Spain,East coast,13 or older,no,2021-03-22_20h00.23.732,empathy_intonation_perc,2020.2.10,MacIntel,60,,,,,,,,,,1,,,,,,,,,,,,,,,,,,,,,,,,,,,,,,,,1,1,1.023405,0,9,9,9,1,0,casa,REAL,FAKE,,,,,,,,,,,,,,,,,,,,,,,,,,,,,,,
,,,,,,,6023df587f535406af0c7fcb,6057c54e64b0b4e5c128b4f9,60592f746f8a16cb31e7470d,Spain,East coast,13 or older,no,2021-03-22_20h00.23.732,empathy_intonation_perc,2020.2.10,MacIntel,60,,,,,,,,,,0,,,,,,,,,,,,,,,,,,,,,,,,,,,,,,,,1,0,1.066885,0,10,10,10,1,0,lejo,REAL,FAKE,,,,,,,,,,,,,,,,,,,,,,,,,,,,,,,
,,,,,,,6023df587f535406af0c7fcb,6057c54e64b0b4e5c128b4f9,60592f746f8a16cb31e7470d,Spain,East coast,13 or older,no,2021-03-22_20h00.23.732,empathy_intonation_perc,2020.2.10,MacIntel,60,,,,,,,,,,0,,,,,,,,,,,,,,,,,,,,,,,,,,,,,,,,0,1,0.94091,0,11,11,11,1,0,pretantas,REAL,FAKE,,,,,,,,,,,,,,,,,,,,,,,,,,,,,,,
,,,,,,,6023df587f535406af0c7fcb,6057c54e64b0b4e5c128b4f9,60592f746f8a16cb31e7470d,Spain,East coast,13 or older,no,2021-03-22_20h00.23.732,empathy_intonation_perc,2020.2.10,MacIntel,60,,,,,,,,,,0,,,,,,,,,,,,,,,,,,,,,,,,,,,,,,,,,,,,,,,,82,empirador,,,1,0,0.884515,0,0,0,81,1,REAL,FAKE,,,,,,,,,,,,,,,,,,,,,
,,,,,,,6023df587f535406af0c7fcb,6057c54e64b0b4e5c128b4f9,60592f746f8a16cb31e7470d,Spain,East coast,13 or older,no,2021-03-22_20h00.23.732,empathy_intonation_perc,2020.2.10,MacIntel,60,,,,,,,,,,1,,,,,,,,,,,,,,,,,,,,,,,,,,,,,,,,,,,,,,,,75,yacer,,,0,0,1.570045,0,1,1,74,1,REAL,FAKE,,,,,,,,,,,,,,,,,,,,,
,,,,,,,6023df587f535406af0c7fcb,6057c54e64b0b4e5c128b4f9,60592f746f8a16cb31e7470d,Spain,East coast,13 or older,no,2021-03-22_20h00.23.732,empathy_intonation_perc,2020.2.10,MacIntel,60,,,,,,,,,,1,,,,,,,,,,,,,,,,,,,,,,,,,,,,,,,,,,,,,,,,41,rebuscar,,,0,0,1.703955,0,2,2,40,1,REAL,FAKE,,,,,,,,,,,,,,,,,,,,,
,,,,,,,6023df587f535406af0c7fcb,6057c54e64b0b4e5c128b4f9,60592f746f8a16cb31e7470d,Spain,East coast,13 or older,no,2021-03-22_20h00.23.732,empathy_intonation_perc,2020.2.10,MacIntel,60,,,,,,,,,,0,,,,,,,,,,,,,,,,,,,,,,,,,,,,,,,,,,,,,,,,50,flamida,,,0,1,2.220845,0,3,3,49,1,REAL,FAKE,,,,,,,,,,,,,,,,,,,,,
,,,,,,,6023df587f535406af0c7fcb,6057c54e64b0b4e5c128b4f9,60592f746f8a16cb31e7470d,Spain,East coast,13 or older,no,2021-03-22_20h00.23.732,empathy_intonation_perc,2020.2.10,MacIntel,60,,,,,,,,,,0,,,,,,,,,,,,,,,,,,,,,,,,,,,,,,,,,,,,,,,,70,temblo,,,0,1,1.486125,0,4,4,69,1,REAL,FAKE,,,,,,,,,,,,,,,,,,,,,
,,,,,,,6023df587f535406af0c7fcb,6057c54e64b0b4e5c128b4f9,60592f746f8a16cb31e7470d,Spain,East coast,13 or older,no,2021-03-22_20h00.23.732,empathy_intonation_perc,2020.2.10,MacIntel,60,,,,,,,,,,1,,,,,,,,,,,,,,,,,,,,,,,,,,,,,,,,,,,,,,,,51,candado,,,1,1,1.03566,0,5,5,50,1,REAL,FAKE,,,,,,,,,,,,,,,,,,,,,
,,,,,,,6023df587f535406af0c7fcb,6057c54e64b0b4e5c128b4f9,60592f746f8a16cb31e7470d,Spain,East coast,13 or older,no,2021-03-22_20h00.23.732,empathy_intonation_perc,2020.2.10,MacIntel,60,,,,,,,,,,1,,,,,,,,,,,,,,,,,,,,,,,,,,,,,,,,,,,,,,,,67,cabello,,,0,0,1.691325,0,6,6,66,1,REAL,FAKE,,,,,,,,,,,,,,,,,,,,,
,,,,,,,6023df587f535406af0c7fcb,6057c54e64b0b4e5c128b4f9,60592f746f8a16cb31e7470d,Spain,East coast,13 or older,no,2021-03-22_20h00.23.732,empathy_intonation_perc,2020.2.10,MacIntel,60,,,,,,,,,,0,,,,,,,,,,,,,,,,,,,,,,,,,,,,,,,,,,,,,,,,72,pemicin,,,1,0,1.41944,0,7,7,71,1,REAL,FAKE,,,,,,,,,,,,,,,,,,,,,
,,,,,,,6023df587f535406af0c7fcb,6057c54e64b0b4e5c128b4f9,60592f746f8a16cb31e7470d,Spain,East coast,13 or older,no,2021-03-22_20h00.23.732,empathy_intonation_perc,2020.2.10,MacIntel,60,,,,,,,,,,1,,,,,,,,,,,,,,,,,,,,,,,,,,,,,,,,,,,,,,,,40,alfombra,,,1,1,1.420295,0,8,8,39,1,REAL,FAKE,,,,,,,,,,,,,,,,,,,,,
,,,,,,,6023df587f535406af0c7fcb,6057c54e64b0b4e5c128b4f9,60592f746f8a16cb31e7470d,Spain,East coast,13 or older,no,2021-03-22_20h00.23.732,empathy_intonation_perc,2020.2.10,MacIntel,60,,,,,,,,,,1,,,,,,,,,,,,,,,,,,,,,,,,,,,,,,,,,,,,,,,,25,bisagra,,,0,0,1.017225,0,9,9,24,1,REAL,FAKE,,,,,,,,,,,,,,,,,,,,,
,,,,,,,6023df587f535406af0c7fcb,6057c54e64b0b4e5c128b4f9,60592f746f8a16cb31e7470d,Spain,East coast,13 or older,no,2021-03-22_20h00.23.732,empathy_intonation_perc,2020.2.10,MacIntel,60,,,,,,,,,,0,,,,,,,,,,,,,,,,,,,,,,,,,,,,,,,,,,,,,,,,87,grodo,,,0,1,2.190005,0,10,10,86,1,REAL,FAKE,,,,,,,,,,,,,,,,,,,,,
,,,,,,,6023df587f535406af0c7fcb,6057c54e64b0b4e5c128b4f9,60592f746f8a16cb31e7470d,Spain,East coast,13 or older,no,2021-03-22_20h00.23.732,empathy_intonation_perc,2020.2.10,MacIntel,60,,,,,,,,,,0,,,,,,,,,,,,,,,,,,,,,,,,,,,,,,,,,,,,,,,,19,brecedad,,,1,0,2.639765,0,11,11,18,1,REAL,FAKE,,,,,,,,,,,,,,,,,,,,,
,,,,,,,6023df587f535406af0c7fcb,6057c54e64b0b4e5c128b4f9,60592f746f8a16cb31e7470d,Spain,East coast,13 or older,no,2021-03-22_20h00.23.732,empathy_intonation_perc,2020.2.10,MacIntel,60,,,,,,,,,,0,,,,,,,,,,,,,,,,,,,,,,,,,,,,,,,,,,,,,,,,27,acutacin,,,1,0,1.559775,0,12,12,26,1,REAL,FAKE,,,,,,,,,,,,,,,,,,,,,
,,,,,,,6023df587f535406af0c7fcb,6057c54e64b0b4e5c128b4f9,60592f746f8a16cb31e7470d,Spain,East coast,13 or older,no,2021-03-22_20h00.23.732,empathy_intonation_perc,2020.2.10,MacIntel,60,,,,,,,,,,1,,,,,,,,,,,,,,,,,,,,,,,,,,,,,,,,,,,,,,,,34,aviso,,,1,1,1.40314,0,13,13,33,1,REAL,FAKE,,,,,,,,,,,,,,,,,,,,,
,,,,,,,6023df587f535406af0c7fcb,6057c54e64b0b4e5c128b4f9,60592f746f8a16cb31e7470d,Spain,East coast,13 or older,no,2021-03-22_20h00.23.732,empathy_intonation_perc,2020.2.10,MacIntel,60,,,,,,,,,,1,,,,,,,,,,,,,,,,,,,,,,,,,,,,,,,,,,,,,,,,39,torpe,,,0,0,1.10157,0,14,14,38,1,REAL,FAKE,,,,,,,,,,,,,,,,,,,,,
,,,,,,,6023df587f535406af0c7fcb,6057c54e64b0b4e5c128b4f9,60592f746f8a16cb31e7470d,Spain,East coast,13 or older,no,2021-03-22_20h00.23.732,empathy_intonation_perc,2020.2.10,MacIntel,60,,,,,,,,,,1,,,,,,,,,,,,,,,,,,,,,,,,,,,,,,,,,,,,,,,,73,hervidor,,,0,0,1.50099,0,15,15,72,1,REAL,FAKE,,,,,,,,,,,,,,,,,,,,,
,,,,,,,6023df587f535406af0c7fcb,6057c54e64b0b4e5c128b4f9,60592f746f8a16cb31e7470d,Spain,East coast,13 or older,no,2021-03-22_20h00.23.732,empathy_intonation_perc,2020.2.10,MacIntel,60,,,,,,,,,,1,,,,,,,,,,,,,,,,,,,,,,,,,,,,,,,,,,,,,,,,22,lacayo,,,0,0,1.085715,0,16,16,21,1,REAL,FAKE,,,,,,,,,,,,,,,,,,,,,
,,,,,,,6023df587f535406af0c7fcb,6057c54e64b0b4e5c128b4f9,60592f746f8a16cb31e7470d,Spain,East coast,13 or older,no,2021-03-22_20h00.23.732,empathy_intonation_perc,2020.2.10,MacIntel,60,,,,,,,,,,1,,,,,,,,,,,,,,,,,,,,,,,,,,,,,,,,,,,,,,,,7,psimo,,,1,1,1.01859,0,17,17,6,1,REAL,FAKE,,,,,,,,,,,,,,,,,,,,,
,,,,,,,6023df587f535406af0c7fcb,6057c54e64b0b4e5c128b4f9,60592f746f8a16cb31e7470d,Spain,East coast,13 or older,no,2021-03-22_20h00.23.732,empathy_intonation_perc,2020.2.10,MacIntel,60,,,,,,,,,,0,,,,,,,,,,,,,,,,,,,,,,,,,,,,,,,,,,,,,,,,17,floroso,,,1,0,1.320055,0,18,18,16,1,REAL,FAKE,,,,,,,,,,,,,,,,,,,,,
,,,,,,,6023df587f535406af0c7fcb,6057c54e64b0b4e5c128b4f9,60592f746f8a16cb31e7470d,Spain,East coast,13 or older,no,2021-03-22_20h00.23.732,empathy_intonation_perc,2020.2.10,MacIntel,60,,,,,,,,,,1,,,,,,,,,,,,,,,,,,,,,,,,,,,,,,,,,,,,,,,,6,tergiversar,,,0,0,1.13499,0,19,19,5,1,REAL,FAKE,,,,,,,,,,,,,,,,,,,,,
,,,,,,,6023df587f535406af0c7fcb,6057c54e64b0b4e5c128b4f9,60592f746f8a16cb31e7470d,Spain,East coast,13 or older,no,2021-03-22_20h00.23.732,empathy_intonation_perc,2020.2.10,MacIntel,60,,,,,,,,,,1,,,,,,,,,,,,,,,,,,,,,,,,,,,,,,,,,,,,,,,,14,yunque,,,0,0,1.8214,0,20,20,13,1,REAL,FAKE,,,,,,,,,,,,,,,,,,,,,
,,,,,,,6023df587f535406af0c7fcb,6057c54e64b0b4e5c128b4f9,60592f746f8a16cb31e7470d,Spain,East coast,13 or older,no,2021-03-22_20h00.23.732,empathy_intonation_perc,2020.2.10,MacIntel,60,,,,,,,,,,1,,,,,,,,,,,,,,,,,,,,,,,,,,,,,,,,,,,,,,,,24,ltigo,,,0,0,1.77061,0,21,21,23,1,REAL,FAKE,,,,,,,,,,,,,,,,,,,,,
,,,,,,,6023df587f535406af0c7fcb,6057c54e64b0b4e5c128b4f9,60592f746f8a16cb31e7470d,Spain,East coast,13 or older,no,2021-03-22_20h00.23.732,empathy_intonation_perc,2020.2.10,MacIntel,60,,,,,,,,,,1,,,,,,,,,,,,,,,,,,,,,,,,,,,,,,,,,,,,,,,,26,secuestro,,,1,1,3.607965,0,22,22,25,1,REAL,FAKE,,,,,,,,,,,,,,,,,,,,,
,,,,,,,6023df587f535406af0c7fcb,6057c54e64b0b4e5c128b4f9,60592f746f8a16cb31e7470d,Spain,East coast,13 or older,no,2021-03-22_20h00.23.732,empathy_intonation_perc,2020.2.10,MacIntel,60,,,,,,,,,,1,,,,,,,,,,,,,,,,,,,,,,,,,,,,,,,,,,,,,,,,11,cenefa,,,0,0,1.09109,0,23,23,10,1,REAL,FAKE,,,,,,,,,,,,,,,,,,,,,
,,,,,,,6023df587f535406af0c7fcb,6057c54e64b0b4e5c128b4f9,60592f746f8a16cb31e7470d,Spain,East coast,13 or older,no,2021-03-22_20h00.23.732,empathy_intonation_perc,2020.2.10,MacIntel,60,,,,,,,,,,0,,,,,,,,,,,,,,,,,,,,,,,,,,,,,,,,,,,,,,,,32,fatacidad,,,0,1,1.317565,0,24,24,31,1,REAL,FAKE,,,,,,,,,,,,,,,,,,,,,
,,,,,,,6023df587f535406af0c7fcb,6057c54e64b0b4e5c128b4f9,60592f746f8a16cb31e7470d,Spain,East coast,13 or older,no,2021-03-22_20h00.23.732,empathy_intonation_perc,2020.2.10,MacIntel,60,,,,,,,,,,1,,,,,,,,,,,,,,,,,,,,,,,,,,,,,,,,,,,,,,,,45,jilguero,,,0,0,1.48772,0,25,25,44,1,REAL,FAKE,,,,,,,,,,,,,,,,,,,,,
,,,,,,,6023df587f535406af0c7fcb,6057c54e64b0b4e5c128b4f9,60592f746f8a16cb31e7470d,Spain,East coast,13 or older,no,2021-03-22_20h00.23.732,empathy_intonation_perc,2020.2.10,MacIntel,60,,,,,,,,,,1,,,,,,,,,,,,,,,,,,,,,,,,,,,,,,,,,,,,,,,,81,pozo,,,1,1,2.201225,0,26,26,80,1,REAL,FAKE,,,,,,,,,,,,,,,,,,,,,
,,,,,,,6023df587f535406af0c7fcb,6057c54e64b0b4e5c128b4f9,60592f746f8a16cb31e7470d,Spain,East coast,13 or older,no,2021-03-22_20h00.23.732,empathy_intonation_perc,2020.2.10,MacIntel,60,,,,,,,,,,1,,,,,,,,,,,,,,,,,,,,,,,,,,,,,,,,,,,,,,,,65,bizcocho,,,0,0,1.13786,0,27,27,64,1,REAL,FAKE,,,,,,,,,,,,,,,,,,,,,
,,,,,,,6023df587f535406af0c7fcb,6057c54e64b0b4e5c128b4f9,60592f746f8a16cb31e7470d,Spain,East coast,13 or older,no,2021-03-22_20h00.23.732,empathy_intonation_perc,2020.2.10,MacIntel,60,,,,,,,,,,0,,,,,,,,,,,,,,,,,,,,,,,,,,,,,,,,,,,,,,,,30,alardio,,,0,1,0.99138,0,28,28,29,1,REAL,FAKE,,,,,,,,,,,,,,,,,,,,,
,,,,,,,6023df587f535406af0c7fcb,6057c54e64b0b4e5c128b4f9,60592f746f8a16cb31e7470d,Spain,East coast,13 or older,no,2021-03-22_20h00.23.732,empathy_intonation_perc,2020.2.10,MacIntel,60,,,,,,,,,,1,,,,,,,,,,,,,,,,,,,,,,,,,,,,,,,,,,,,,,,,46,martillo,,,1,1,0.926945,0,29,29,45,1,REAL,FAKE,,,,,,,,,,,,,,,,,,,,,
,,,,,,,6023df587f535406af0c7fcb,6057c54e64b0b4e5c128b4f9,60592f746f8a16cb31e7470d,Spain,East coast,13 or older,no,2021-03-22_20h00.23.732,empathy_intonation_perc,2020.2.10,MacIntel,60,,,,,,,,,,1,,,,,,,,,,,,,,,,,,,,,,,,,,,,,,,,,,,,,,,,71,polvoriento,,,1,1,3.00587,0,30,30,70,1,REAL,FAKE,,,,,,,,,,,,,,,,,,,,,
,,,,,,,6023df587f535406af0c7fcb,6057c54e64b0b4e5c128b4f9,60592f746f8a16cb31e7470d,Spain,East coast,13 or older,no,2021-03-22_20h00.23.732,empathy_intonation_perc,2020.2.10,MacIntel,60,,,,,,,,,,1,,,,,,,,,,,,,,,,,,,,,,,,,,,,,,,,,,,,,,,,90,clavel,,,0,0,0.74221,0,31,31,89,1,REAL,FAKE,,,,,,,,,,,,,,,,,,,,,
,,,,,,,6023df587f535406af0c7fcb,6057c54e64b0b4e5c128b4f9,60592f746f8a16cb31e7470d,Spain,East coast,13 or older,no,2021-03-22_20h00.23.732,empathy_intonation_perc,2020.2.10,MacIntel,60,,,,,,,,,,1,,,,,,,,,,,,,,,,,,,,,,,,,,,,,,,,,,,,,,,,43,canela,,,0,0,1.229785,0,32,32,42,1,REAL,FAKE,,,,,,,,,,,,,,,,,,,,,
,,,,,,,6023df587f535406af0c7fcb,6057c54e64b0b4e5c128b4f9,60592f746f8a16cb31e7470d,Spain,East coast,13 or older,no,2021-03-22_20h00.23.732,empathy_intonation_perc,2020.2.10,MacIntel,60,,,,,,,,,,1,,,,,,,,,,,,,,,,,,,,,,,,,,,,,,,,,,,,,,,,9,hacha,,,1,1,0.94999,0,33,33,8,1,REAL,FAKE,,,,,,,,,,,,,,,,,,,,,
,,,,,,,6023df587f535406af0c7fcb,6057c54e64b0b4e5c128b4f9,60592f746f8a16cb31e7470d,Spain,East coast,13 or older,no,2021-03-22_20h00.23.732,empathy_intonation_perc,2020.2.10,MacIntel,60,,,,,,,,,,0,,,,,,,,,,,,,,,,,,,,,,,,,,,,,,,,,,,,,,,,35,rompido,,,1,0,1.873825,0,34,34,34,1,REAL,FAKE,,,,,,,,,,,,,,,,,,,,,
,,,,,,,6023df587f535406af0c7fcb,6057c54e64b0b4e5c128b4f9,60592f746f8a16cb31e7470d,Spain,East coast,13 or older,no,2021-03-22_20h00.23.732,empathy_intonation_perc,2020.2.10,MacIntel,60,,,,,,,,,,1,,,,,,,,,,,,,,,,,,,,,,,,,,,,,,,,,,,,,,,,2,pellizcar,,,0,0,1.70914,0,35,35,1,1,REAL,FAKE,,,,,,,,,,,,,,,,,,,,,
,,,,,,,6023df587f535406af0c7fcb,6057c54e64b0b4e5c128b4f9,60592f746f8a16cb31e7470d,Spain,East coast,13 or older,no,2021-03-22_20h00.23.732,empathy_intonation_perc,2020.2.10,MacIntel,60,,,,,,,,,,0,,,,,,,,,,,,,,,,,,,,,,,,,,,,,,,,,,,,,,,,29,decar,,,1,0,0.86829,0,36,36,28,1,REAL,FAKE,,,,,,,,,,,,,,,,,,,,,
,,,,,,,6023df587f535406af0c7fcb,6057c54e64b0b4e5c128b4f9,60592f746f8a16cb31e7470d,Spain,East coast,13 or older,no,2021-03-22_20h00.23.732,empathy_intonation_perc,2020.2.10,MacIntel,60,,,,,,,,,,1,,,,,,,,,,,,,,,,,,,,,,,,,,,,,,,,,,,,,,,,49,ganar,,,1,1,1.1175,0,37,37,48,1,REAL,FAKE,,,,,,,,,,,,,,,,,,,,,
,,,,,,,6023df587f535406af0c7fcb,6057c54e64b0b4e5c128b4f9,60592f746f8a16cb31e7470d,Spain,East coast,13 or older,no,2021-03-22_20h00.23.732,empathy_intonation_perc,2020.2.10,MacIntel,60,,,,,,,,,,1,,,,,,,,,,,,,,,,,,,,,,,,,,,,,,,,,,,,,,,,83,guante,,,1,1,1.17197,0,38,38,82,1,REAL,FAKE,,,,,,,,,,,,,,,,,,,,,
,,,,,,,6023df587f535406af0c7fcb,6057c54e64b0b4e5c128b4f9,60592f746f8a16cb31e7470d,Spain,East coast,13 or older,no,2021-03-22_20h00.23.732,empathy_intonation_perc,2020.2.10,MacIntel,60,,,,,,,,,,0,,,,,,,,,,,,,,,,,,,,,,,,,,,,,,,,,,,,,,,,23,lampera,,,1,0,1.151325,0,39,39,22,1,REAL,FAKE,,,,,,,,,,,,,,,,,,,,,
,,,,,,,6023df587f535406af0c7fcb,6057c54e64b0b4e5c128b4f9,60592f746f8a16cb31e7470d,Spain,East coast,13 or older,no,2021-03-22_20h00.23.732,empathy_intonation_perc,2020.2.10,MacIntel,60,,,,,,,,,,1,,,,,,,,,,,,,,,,,,,,,,,,,,,,,,,,,,,,,,,,80,hormiga,,,0,0,0.95109,0,40,40,79,1,REAL,FAKE,,,,,,,,,,,,,,,,,,,,,
,,,,,,,6023df587f535406af0c7fcb,6057c54e64b0b4e5c128b4f9,60592f746f8a16cb31e7470d,Spain,East coast,13 or older,no,2021-03-22_20h00.23.732,empathy_intonation_perc,2020.2.10,MacIntel,60,,,,,,,,,,0,,,,,,,,,,,,,,,,,,,,,,,,,,,,,,,,,,,,,,,,79,tropaje,,,1,0,1.35578,0,41,41,78,1,REAL,FAKE,,,,,,,,,,,,,,,,,,,,,
,,,,,,,6023df587f535406af0c7fcb,6057c54e64b0b4e5c128b4f9,60592f746f8a16cb31e7470d,Spain,East coast,13 or older,no,2021-03-22_20h00.23.732,empathy_intonation_perc,2020.2.10,MacIntel,60,,,,,,,,,,1,,,,,,,,,,,,,,,,,,,,,,,,,,,,,,,,,,,,,,,,37,granuja,,,1,1,1.568645,0,42,42,36,1,REAL,FAKE,,,,,,,,,,,,,,,,,,,,,
,,,,,,,6023df587f535406af0c7fcb,6057c54e64b0b4e5c128b4f9,60592f746f8a16cb31e7470d,Spain,East coast,13 or older,no,2021-03-22_20h00.23.732,empathy_intonation_perc,2020.2.10,MacIntel,60,,,,,,,,,,1,,,,,,,,,,,,,,,,,,,,,,,,,,,,,,,,,,,,,,,,13,helar,,,0,0,1.140335,0,43,43,12,1,REAL,FAKE,,,,,,,,,,,,,,,,,,,,,
,,,,,,,6023df587f535406af0c7fcb,6057c54e64b0b4e5c128b4f9,60592f746f8a16cb31e7470d,Spain,East coast,13 or older,no,2021-03-22_20h00.23.732,empathy_intonation_perc,2020.2.10,MacIntel,60,,,,,,,,,,1,,,,,,,,,,,,,,,,,,,,,,,,,,,,,,,,,,,,,,,,38,estornudar,,,0,0,2.057105,0,44,44,37,1,REAL,FAKE,,,,,,,,,,,,,,,,,,,,,
,,,,,,,6023df587f535406af0c7fcb,6057c54e64b0b4e5c128b4f9,60592f746f8a16cb31e7470d,Spain,East coast,13 or older,no,2021-03-22_20h00.23.732,empathy_intonation_perc,2020.2.10,MacIntel,60,,,,,,,,,,0,,,,,,,,,,,,,,,,,,,,,,,,,,,,,,,,,,,,,,,,53,vegada,,,0,1,2.089925,0,45,45,52,1,REAL,FAKE,,,,,,,,,,,,,,,,,,,,,
,,,,,,,6023df587f535406af0c7fcb,6057c54e64b0b4e5c128b4f9,60592f746f8a16cb31e7470d,Spain,East coast,13 or older,no,2021-03-22_20h00.23.732,empathy_intonation_perc,2020.2.10,MacIntel,60,,,,,,,,,,0,,,,,,,,,,,,,,,,,,,,,,,,,,,,,,,,,,,,,,,,8,cadea,,,1,0,0.96957,0,46,46,7,1,REAL,FAKE,,,,,,,,,,,,,,,,,,,,,
,,,,,,,6023df587f535406af0c7fcb,6057c54e64b0b4e5c128b4f9,60592f746f8a16cb31e7470d,Spain,East coast,13 or older,no,2021-03-22_20h00.23.732,empathy_intonation_perc,2020.2.10,MacIntel,60,,,,,,,,,,0,,,,,,,,,,,,,,,,,,,,,,,,,,,,,,,,,,,,,,,,21,capillo,,,0,1,1.818415,0,47,47,20,1,REAL,FAKE,,,,,,,,,,,,,,,,,,,,,
,,,,,,,6023df587f535406af0c7fcb,6057c54e64b0b4e5c128b4f9,60592f746f8a16cb31e7470d,Spain,East coast,13 or older,no,2021-03-22_20h00.23.732,empathy_intonation_perc,2020.2.10,MacIntel,60,,,,,,,,,,1,,,,,,,,,,,,,,,,,,,,,,,,,,,,,,,,,,,,,,,,86,barato,,,0,0,0.98518,0,48,48,85,1,REAL,FAKE,,,,,,,,,,,,,,,,,,,,,
,,,,,,,6023df587f535406af0c7fcb,6057c54e64b0b4e5c128b4f9,60592f746f8a16cb31e7470d,Spain,East coast,13 or older,no,2021-03-22_20h00.23.732,empathy_intonation_perc,2020.2.10,MacIntel,60,,,,,,,,,,0,,,,,,,,,,,,,,,,,,,,,,,,,,,,,,,,,,,,,,,,74,cintro,,,1,0,1.50398,0,49,49,73,1,REAL,FAKE,,,,,,,,,,,,,,,,,,,,,
,,,,,,,6023df587f535406af0c7fcb,6057c54e64b0b4e5c128b4f9,60592f746f8a16cb31e7470d,Spain,East coast,13 or older,no,2021-03-22_20h00.23.732,empathy_intonation_perc,2020.2.10,MacIntel,60,,,,,,,,,,0,,,,,,,,,,,,,,,,,,,,,,,,,,,,,,,,,,,,,,,,1,terzo,,,0,1,0.75862,0,50,50,0,1,REAL,FAKE,,,,,,,,,,,,,,,,,,,,,
,,,,,,,6023df587f535406af0c7fcb,6057c54e64b0b4e5c128b4f9,60592f746f8a16cb31e7470d,Spain,East coast,13 or older,no,2021-03-22_20h00.23.732,empathy_intonation_perc,2020.2.10,MacIntel,60,,,,,,,,,,1,,,,,,,,,,,,,,,,,,,,,,,,,,,,,,,,,,,,,,,,31,pandilla,,,0,0,0.9587,0,51,51,30,1,REAL,FAKE,,,,,,,,,,,,,,,,,,,,,
,,,,,,,6023df587f535406af0c7fcb,6057c54e64b0b4e5c128b4f9,60592f746f8a16cb31e7470d,Spain,East coast,13 or older,no,2021-03-22_20h00.23.732,empathy_intonation_perc,2020.2.10,MacIntel,60,,,,,,,,,,0,,,,,,,,,,,,,,,,,,,,,,,,,,,,,,,,,,,,,,,,4,batilln,,,0,1,1.00138,0,52,52,3,1,REAL,FAKE,,,,,,,,,,,,,,,,,,,,,
,,,,,,,6023df587f535406af0c7fcb,6057c54e64b0b4e5c128b4f9,60592f746f8a16cb31e7470d,Spain,East coast,13 or older,no,2021-03-22_20h00.23.732,empathy_intonation_perc,2020.2.10,MacIntel,60,,,,,,,,,,0,,,,,,,,,,,,,,,,,,,,,,,,,,,,,,,,,,,,,,,,16,abracer,,,1,0,1.285025,0,53,53,15,1,REAL,FAKE,,,,,,,,,,,,,,,,,,,,,
,,,,,,,6023df587f535406af0c7fcb,6057c54e64b0b4e5c128b4f9,60592f746f8a16cb31e7470d,Spain,East coast,13 or older,no,2021-03-22_20h00.23.732,empathy_intonation_perc,2020.2.10,MacIntel,60,,,,,,,,,,1,,,,,,,,,,,,,,,,,,,,,,,,,,,,,,,,,,,,,,,,61,seda,,,1,1,0.9528,0,54,54,60,1,REAL,FAKE,,,,,,,,,,,,,,,,,,,,,
,,,,,,,6023df587f535406af0c7fcb,6057c54e64b0b4e5c128b4f9,60592f746f8a16cb31e7470d,Spain,East coast,13 or older,no,2021-03-22_20h00.23.732,empathy_intonation_perc,2020.2.10,MacIntel,60,,,,,,,,,,1,,,,,,,,,,,,,,,,,,,,,,,,,,,,,,,,,,,,,,,,68,alegre,,,1,1,1.058765,0,55,55,67,1,REAL,FAKE,,,,,,,,,,,,,,,,,,,,,
,,,,,,,6023df587f535406af0c7fcb,6057c54e64b0b4e5c128b4f9,60592f746f8a16cb31e7470d,Spain,East coast,13 or older,no,2021-03-22_20h00.23.732,empathy_intonation_perc,2020.2.10,MacIntel,60,,,,,,,,,,0,,,,,,,,,,,,,,,,,,,,,,,,,,,,,,,,,,,,,,,,18,arsa,,,0,1,0.91783,0,56,56,17,1,REAL,FAKE,,,,,,,,,,,,,,,,,,,,,
,,,,,,,6023df587f535406af0c7fcb,6057c54e64b0b4e5c128b4f9,60592f746f8a16cb31e7470d,Spain,East coast,13 or older,no,2021-03-22_20h00.23.732,empathy_intonation_perc,2020.2.10,MacIntel,60,,,,,,,,,,1,,,,,,,,,,,,,,,,,,,,,,,,,,,,,,,,,,,,,,,,3,pulmones,,,0,0,1.283155,0,57,57,2,1,REAL,FAKE,,,,,,,,,,,,,,,,,,,,,
,,,,,,,6023df587f535406af0c7fcb,6057c54e64b0b4e5c128b4f9,60592f746f8a16cb31e7470d,Spain,East coast,13 or older,no,2021-03-22_20h00.23.732,empathy_intonation_perc,2020.2.10,MacIntel,60,,,,,,,,,,1,,,,,,,,,,,,,,,,,,,,,,,,,,,,,,,,,,,,,,,,44,cuchara,,,0,0,0.65355,0,58,58,43,1,REAL,FAKE,,,,,,,,,,,,,,,,,,,,,
,,,,,,,6023df587f535406af0c7fcb,6057c54e64b0b4e5c128b4f9,60592f746f8a16cb31e7470d,Spain,East coast,13 or older,no,2021-03-22_20h00.23.732,empathy_intonation_perc,2020.2.10,MacIntel,60,,,,,,,,,,1,,,,,,,,,,,,,,,,,,,,,,,,,,,,,,,,,,,,,,,,85,lad,,,0,0,1.1585,0,59,59,84,1,REAL,FAKE,,,,,,,,,,,,,,,,,,,,,
,,,,,,,6023df587f535406af0c7fcb,6057c54e64b0b4e5c128b4f9,60592f746f8a16cb31e7470d,Spain,East coast,13 or older,no,2021-03-22_20h00.23.732,empathy_intonation_perc,2020.2.10,MacIntel,60,,,,,,,,,,0,,,,,,,,,,,,,,,,,,,,,,,,,,,,,,,,,,,,,,,,58,plaudir,,,1,0,1.036235,0,60,60,57,1,REAL,FAKE,,,,,,,,,,,,,,,,,,,,,
,,,,,,,6023df587f535406af0c7fcb,6057c54e64b0b4e5c128b4f9,60592f746f8a16cb31e7470d,Spain,East coast,13 or older,no,2021-03-22_20h00.23.732,empathy_intonation_perc,2020.2.10,MacIntel,60,,,,,,,,,,0,,,,,,,,,,,,,,,,,,,,,,,,,,,,,,,,,,,,,,,,84,escuto,,,1,0,1.85114,0,61,61,83,1,REAL,FAKE,,,,,,,,,,,,,,,,,,,,,
,,,,,,,6023df587f535406af0c7fcb,6057c54e64b0b4e5c128b4f9,60592f746f8a16cb31e7470d,Spain,East coast,13 or older,no,2021-03-22_20h00.23.732,empathy_intonation_perc,2020.2.10,MacIntel,60,,,,,,,,,,1,,,,,,,,,,,,,,,,,,,,,,,,,,,,,,,,,,,,,,,,48,ladrn,,,0,0,0.91001,0,62,62,47,1,REAL,FAKE,,,,,,,,,,,,,,,,,,,,,
,,,,,,,6023df587f535406af0c7fcb,6057c54e64b0b4e5c128b4f9,60592f746f8a16cb31e7470d,Spain,East coast,13 or older,no,2021-03-22_20h00.23.732,empathy_intonation_perc,2020.2.10,MacIntel,60,,,,,,,,,,1,,,,,,,,,,,,,,,,,,,,,,,,,,,,,,,,,,,,,,,,20,vido,,,1,1,2.60429,0,63,63,19,1,REAL,FAKE,,,,,,,,,,,,,,,,,,,,,
,,,,,,,6023df587f535406af0c7fcb,6057c54e64b0b4e5c128b4f9,60592f746f8a16cb31e7470d,Spain,East coast,13 or older,no,2021-03-22_20h00.23.732,empathy_intonation_perc,2020.2.10,MacIntel,60,,,,,,,,,,1,,,,,,,,,,,,,,,,,,,,,,,,,,,,,,,,,,,,,,,,59,besar,,,1,1,1.35933,0,64,64,58,1,REAL,FAKE,,,,,,,,,,,,,,,,,,,,,
,,,,,,,6023df587f535406af0c7fcb,6057c54e64b0b4e5c128b4f9,60592f746f8a16cb31e7470d,Spain,East coast,13 or older,no,2021-03-22_20h00.23.732,empathy_intonation_perc,2020.2.10,MacIntel,60,,,,,,,,,,1,,,,,,,,,,,,,,,,,,,,,,,,,,,,,,,,,,,,,,,,36,loro,,,0,0,0.910385,0,65,65,35,1,REAL,FAKE,,,,,,,,,,,,,,,,,,,,,
,,,,,,,6023df587f535406af0c7fcb,6057c54e64b0b4e5c128b4f9,60592f746f8a16cb31e7470d,Spain,East coast,13 or older,no,2021-03-22_20h00.23.732,empathy_intonation_perc,2020.2.10,MacIntel,60,,,,,,,,,,1,,,,,,,,,,,,,,,,,,,,,,,,,,,,,,,,,,,,,,,,76,atar,,,1,1,1.60439,0,66,66,75,1,REAL,FAKE,,,,,,,,,,,,,,,,,,,,,
,,,,,,,6023df587f535406af0c7fcb,6057c54e64b0b4e5c128b4f9,60592f746f8a16cb31e7470d,Spain,East coast,13 or older,no,2021-03-22_20h00.23.732,empathy_intonation_perc,2020.2.10,MacIntel,60,,,,,,,,,,1,,,,,,,,,,,,,,,,,,,,,,,,,,,,,,,,,,,,,,,,77,tiburn,,,1,1,1.12378,0,67,67,76,1,REAL,FAKE,,,,,,,,,,,,,,,,,,,,,
,,,,,,,6023df587f535406af0c7fcb,6057c54e64b0b4e5c128b4f9,60592f746f8a16cb31e7470d,Spain,East coast,13 or older,no,2021-03-22_20h00.23.732,empathy_intonation_perc,2020.2.10,MacIntel,60,,,,,,,,,,1,,,,,,,,,,,,,,,,,,,,,,,,,,,,,,,,,,,,,,,,15,regar,,,1,1,1.05751,0,68,68,14,1,REAL,FAKE,,,,,,,,,,,,,,,,,,,,,
,,,,,,,6023df587f535406af0c7fcb,6057c54e64b0b4e5c128b4f9,60592f746f8a16cb31e7470d,Spain,East coast,13 or older,no,2021-03-22_20h00.23.732,empathy_intonation_perc,2020.2.10,MacIntel,60,,,,,,,,,,0,,,,,,,,,,,,,,,,,,,,,,,,,,,,,,,,,,,,,,,,42,cadallo,,,0,1,0.91766,0,69,69,41,1,REAL,FAKE,,,,,,,,,,,,,,,,,,,,,
,,,,,,,6023df587f535406af0c7fcb,6057c54e64b0b4e5c128b4f9,60592f746f8a16cb31e7470d,Spain,East coast,13 or older,no,2021-03-22_20h00.23.732,empathy_intonation_perc,2020.2.10,MacIntel,60,,,,,,,,,,1,,,,,,,,,,,,,,,,,,,,,,,,,,,,,,,,,,,,,,,,64,orgulloso,,,0,0,1.905655,0,70,70,63,1,REAL,FAKE,,,,,,,,,,,,,,,,,,,,,
,,,,,,,6023df587f535406af0c7fcb,6057c54e64b0b4e5c128b4f9,60592f746f8a16cb31e7470d,Spain,East coast,13 or older,no,2021-03-22_20h00.23.732,empathy_intonation_perc,2020.2.10,MacIntel,60,,,,,,,,,,1,,,,,,,,,,,,,,,,,,,,,,,,,,,,,,,,,,,,,,,,56,musgo,,,0,0,1.909625,0,71,71,55,1,REAL,FAKE,,,,,,,,,,,,,,,,,,,,,
,,,,,,,6023df587f535406af0c7fcb,6057c54e64b0b4e5c128b4f9,60592f746f8a16cb31e7470d,Spain,East coast,13 or older,no,2021-03-22_20h00.23.732,empathy_intonation_perc,2020.2.10,MacIntel,60,,,,,,,,,,1,,,,,,,,,,,,,,,,,,,,,,,,,,,,,,,,,,,,,,,,78,frondoso,,,0,0,0.931805,0,72,72,77,1,REAL,FAKE,,,,,,,,,,,,,,,,,,,,,
,,,,,,,6023df587f535406af0c7fcb,6057c54e64b0b4e5c128b4f9,60592f746f8a16cb31e7470d,Spain,East coast,13 or older,no,2021-03-22_20h00.23.732,empathy_intonation_perc,2020.2.10,MacIntel,60,,,,,,,,,,1,,,,,,,,,,,,,,,,,,,,,,,,,,,,,,,,,,,,,,,,62,flaco,,,0,0,0.836345,0,73,73,61,1,REAL,FAKE,,,,,,,,,,,,,,,,,,,,,
,,,,,,,6023df587f535406af0c7fcb,6057c54e64b0b4e5c128b4f9,60592f746f8a16cb31e7470d,Spain,East coast,13 or older,no,2021-03-22_20h00.23.732,empathy_intonation_perc,2020.2.10,MacIntel,60,,,,,,,,,,1,,,,,,,,,,,,,,,,,,,,,,,,,,,,,,,,,,,,,,,,54,fomentar,,,0,0,1.36898,0,74,74,53,1,REAL,FAKE,,,,,,,,,,,,,,,,,,,,,
,,,,,,,6023df587f535406af0c7fcb,6057c54e64b0b4e5c128b4f9,60592f746f8a16cb31e7470d,Spain,East coast,13 or older,no,2021-03-22_20h00.23.732,empathy_intonation_perc,2020.2.10,MacIntel,60,,,,,,,,,,0,,,,,,,,,,,,,,,,,,,,,,,,,,,,,,,,,,,,,,,,10,antar,,,0,1,1.25245,0,75,75,9,1,REAL,FAKE,,,,,,,,,,,,,,,,,,,,,
,,,,,,,6023df587f535406af0c7fcb,6057c54e64b0b4e5c128b4f9,60592f746f8a16cb31e7470d,Spain,East coast,13 or older,no,2021-03-22_20h00.23.732,empathy_intonation_perc,2020.2.10,MacIntel,60,,,,,,,,,,1,,,,,,,,,,,,,,,,,,,,,,,,,,,,,,,,,,,,,,,,5,zapato,,,1,1,1.06468,0,76,76,4,1,REAL,FAKE,,,,,,,,,,,,,,,,,,,,,
,,,,,,,6023df587f535406af0c7fcb,6057c54e64b0b4e5c128b4f9,60592f746f8a16cb31e7470d,Spain,East coast,13 or older,no,2021-03-22_20h00.23.732,empathy_intonation_perc,2020.2.10,MacIntel,60,,,,,,,,,,1,,,,,,,,,,,,,,,,,,,,,,,,,,,,,,,,,,,,,,,,89,prisa,,,0,0,1.15858,0,77,77,88,1,REAL,FAKE,,,,,,,,,,,,,,,,,,,,,
,,,,,,,6023df587f535406af0c7fcb,6057c54e64b0b4e5c128b4f9,60592f746f8a16cb31e7470d,Spain,East coast,13 or older,no,2021-03-22_20h00.23.732,empathy_intonation_perc,2020.2.10,MacIntel,60,,,,,,,,,,1,,,,,,,,,,,,,,,,,,,,,,,,,,,,,,,,,,,,,,,,52,camisa,,,1,1,1.05478,0,78,78,51,1,REAL,FAKE,,,,,,,,,,,,,,,,,,,,,
,,,,,,,6023df587f535406af0c7fcb,6057c54e64b0b4e5c128b4f9,60592f746f8a16cb31e7470d,Spain,East coast,13 or older,no,2021-03-22_20h00.23.732,empathy_intonation_perc,2020.2.10,MacIntel,60,,,,,,,,,,1,,,,,,,,,,,,,,,,,,,,,,,,,,,,,,,,,,,,,,,,60,matar,,,0,0,0.80741,0,79,79,59,1,REAL,FAKE,,,,,,,,,,,,,,,,,,,,,
,,,,,,,6023df587f535406af0c7fcb,6057c54e64b0b4e5c128b4f9,60592f746f8a16cb31e7470d,Spain,East coast,13 or older,no,2021-03-22_20h00.23.732,empathy_intonation_perc,2020.2.10,MacIntel,60,,,,,,,,,,1,,,,,,,,,,,,,,,,,,,,,,,,,,,,,,,,,,,,,,,,88,acantilado,,,1,1,1.392235,0,80,80,87,1,REAL,FAKE,,,,,,,,,,,,,,,,,,,,,
,,,,,,,6023df587f535406af0c7fcb,6057c54e64b0b4e5c128b4f9,60592f746f8a16cb31e7470d,Spain,East coast,13 or older,no,2021-03-22_20h00.23.732,empathy_intonation_perc,2020.2.10,MacIntel,60,,,,,,,,,,0,,,,,,,,,,,,,,,,,,,,,,,,,,,,,,,,,,,,,,,,33,pauca,,,0,1,1.170015,0,81,81,32,1,REAL,FAKE,,,,,,,,,,,,,,,,,,,,,
,,,,,,,6023df587f535406af0c7fcb,6057c54e64b0b4e5c128b4f9,60592f746f8a16cb31e7470d,Spain,East coast,13 or older,no,2021-03-22_20h00.23.732,empathy_intonation_perc,2020.2.10,MacIntel,60,,,,,,,,,,1,,,,,,,,,,,,,,,,,,,,,,,,,,,,,,,,,,,,,,,,57,tacao,,,0,0,1.506625,0,82,82,56,1,REAL,FAKE,,,,,,,,,,,,,,,,,,,,,
,,,,,,,6023df587f535406af0c7fcb,6057c54e64b0b4e5c128b4f9,60592f746f8a16cb31e7470d,Spain,East coast,13 or older,no,2021-03-22_20h00.23.732,empathy_intonation_perc,2020.2.10,MacIntel,60,,,,,,,,,,0,,,,,,,,,,,,,,,,,,,,,,,,,,,,,,,,,,,,,,,,47,cartinar,,,1,0,0.85182,0,83,83,46,1,REAL,FAKE,,,,,,,,,,,,,,,,,,,,,
,,,,,,,6023df587f535406af0c7fcb,6057c54e64b0b4e5c128b4f9,60592f746f8a16cb31e7470d,Spain,East coast,13 or older,no,2021-03-22_20h00.23.732,empathy_intonation_perc,2020.2.10,MacIntel,60,,,,,,,,,,1,,,,,,,,,,,,,,,,,,,,,,,,,,,,,,,,,,,,,,,,69,engatusar,,,1,1,1.62668,0,84,84,68,1,REAL,FAKE,,,,,,,,,,,,,,,,,,,,,
,,,,,,,6023df587f535406af0c7fcb,6057c54e64b0b4e5c128b4f9,60592f746f8a16cb31e7470d,Spain,East coast,13 or older,no,2021-03-22_20h00.23.732,empathy_intonation_perc,2020.2.10,MacIntel,60,,,,,,,,,,0,,,,,,,,,,,,,,,,,,,,,,,,,,,,,,,,,,,,,,,,63,esposante,,,1,0,2.69338,0,85,85,62,1,REAL,FAKE,,,,,,,,,,,,,,,,,,,,,
,,,,,,,6023df587f535406af0c7fcb,6057c54e64b0b4e5c128b4f9,60592f746f8a16cb31e7470d,Spain,East coast,13 or older,no,2021-03-22_20h00.23.732,empathy_intonation_perc,2020.2.10,MacIntel,60,,,,,,,,,,1,,,,,,,,,,,,,,,,,,,,,,,,,,,,,,,,,,,,,,,,12,asesinato,,,0,0,1.123545,0,86,86,11,1,REAL,FAKE,,,,,,,,,,,,,,,,,,,,,
,,,,,,,6023df587f535406af0c7fcb,6057c54e64b0b4e5c128b4f9,60592f746f8a16cb31e7470d,Spain,East coast,13 or older,no,2021-03-22_20h00.23.732,empathy_intonation_perc,2020.2.10,MacIntel,60,,,,,,,,,,1,,,,,,,,,,,,,,,,,,,,,,,,,,,,,,,,,,,,,,,,55,nevar,,,1,1,1.441745,0,87,87,54,1,REAL,FAKE,,,,,,,,,,,,,,,,,,,,,
,,,,,,,6023df587f535406af0c7fcb,6057c54e64b0b4e5c128b4f9,60592f746f8a16cb31e7470d,Spain,East coast,13 or older,no,2021-03-22_20h00.23.732,empathy_intonation_perc,2020.2.10,MacIntel,60,,,,,,,,,,0,,,,,,,,,,,,,,,,,,,,,,,,,,,,,,,,,,,,,,,,66,hacido,,,1,0,1.267445,0,88,88,65,1,REAL,FAKE,,,,,,,,,,,,,,,,,,,,,
,,,,,,,6023df587f535406af0c7fcb,6057c54e64b0b4e5c128b4f9,60592f746f8a16cb31e7470d,Spain,East coast,13 or older,no,2021-03-22_20h00.23.732,empathy_intonation_perc,2020.2.10,MacIntel,60,,,,,,,,,,1,,,,,,,,,,,,,,,,,,,,,,,,,,,,,,,,,,,,,,,,28,merodear,,,0,0,0.756075,0,89,89,27,1,REAL,FAKE,,,,,,,,,,,,,,,,,,,,,
,,,,,,,6023df587f535406af0c7fcb,6057c54e64b0b4e5c128b4f9,60592f746f8a16cb31e7470d,Spain,East coast,13 or older,no,2021-03-22_20h00.23.732,empathy_intonation_perc,2020.2.10,MacIntel,60,,,,,,,,,,,,,,,,,,,,,,,,,,,,,,,,,,,,,,,,,,,,,,,,,,,,,,,,,,,,,,,,4,1,2.87349,1,0,0,0,0,0,1,,,,,,,,,,,
,,,,,,,6023df587f535406af0c7fcb,6057c54e64b0b4e5c128b4f9,60592f746f8a16cb31e7470d,Spain,East coast,13 or older,no,2021-03-22_20h00.23.732,empathy_intonation_perc,2020.2.10,MacIntel,60,,,,,,,,,,,,,,,,,,,,1,,,,,,,,,,,,,,,,,,,,,,,,,,,,,,,,,,,,,,,,,,,,,,,,,,,,,,2,0,0,0,0,1,I can easily tell if someone else wants to enter a conversation.,1,0,1,0
,,,,,,,6023df587f535406af0c7fcb,6057c54e64b0b4e5c128b4f9,60592f746f8a16cb31e7470d,Spain,East coast,13 or older,no,2021-03-22_20h00.23.732,empathy_intonation_perc,2020.2.10,MacIntel,60,,,,,,,,,,,,,,,,,,,,2,,,,,,,,,,,,,,,,,,,,,,,,,,,,,,,,,,,,,,,,,,,,,,,,,,,,,,5,0,1,1,1,1,I prefer animals to humans.,0,1,0,0
,,,,,,,6023df587f535406af0c7fcb,6057c54e64b0b4e5c128b4f9,60592f746f8a16cb31e7470d,Spain,East coast,13 or older,no,2021-03-22_20h00.23.732,empathy_intonation_perc,2020.2.10,MacIntel,60,,,,,,,,,,,,,,,,,,,,3,,,,,,,,,,,,,,,,,,,,,,,,,,,,,,,,,,,,,,,,,,,,,,,,,,,,,,2,0,2,2,2,1,I try to keep up with the current trends and fashions.,0,1,0,0
,,,,,,,6023df587f535406af0c7fcb,6057c54e64b0b4e5c128b4f9,60592f746f8a16cb31e7470d,Spain,East coast,13 or older,no,2021-03-22_20h00.23.732,empathy_intonation_perc,2020.2.10,MacIntel,60,,,,,,,,,,,,,,,,,,,,4,,,,,,,,,,,,,,,,,,,,,,,,,,,,,,,,,,,,,,,,,,,,,,,,,,,,,,4,0,3,3,3,1,"I find it difficult to explain to others things that I understand easily, 
  when they dont understand it first time.",1,0,0,1
,,,,,,,6023df587f535406af0c7fcb,6057c54e64b0b4e5c128b4f9,60592f746f8a16cb31e7470d,Spain,East coast,13 or older,no,2021-03-22_20h00.23.732,empathy_intonation_perc,2020.2.10,MacIntel,60,,,,,,,,,,,,,,,,,,,,5,,,,,,,,,,,,,,,,,,,,,,,,,,,,,,,,,,,,,,,,,,,,,,,,,,,,,,3,0,4,4,4,1,I dream most nights.,0,1,0,0
,,,,,,,6023df587f535406af0c7fcb,6057c54e64b0b4e5c128b4f9,60592f746f8a16cb31e7470d,Spain,East coast,13 or older,no,2021-03-22_20h00.23.732,empathy_intonation_perc,2020.2.10,MacIntel,60,,,,,,,,,,,,,,,,,,,,6,,,,,,,,,,,,,,,,,,,,,,,,,,,,,,,,,,,,,,,,,,,,,,,,,,,,,,2,0,5,5,5,1,I really enjoy caring for other people.,1,0,1,0
