instructions_2afc_loop.thisRepN,instructions_2afc_loop.thisTrialN,instructions_2afc_loop.thisN,instructions_2afc_loop.thisIndex,instructions_2afc_loop.ran,instructions_text,continue_text,participant,study_id,session,I am most familiar with Spanish from...*,What part of the US are you from?*,At what age did you begin learning Spanish?*,Are you proficient in any languages other than English/Spanish?*,date,expName,psychopyVersion,OS,frameRate,key_resp_2afc_practice.keys,key_resp_2afc_practice.corr,key_resp_2afc_practice.rt,trials_2afc_practice_loop.thisRepN,trials_2afc_practice_loop.thisTrialN,trials_2afc_practice_loop.thisN,trials_2afc_practice_loop.thisIndex,trials_2afc_practice_loop.ran,path,correct_response,the_col,key_resp_2afc_trial.keys,key_resp_2afc_trial.corr,key_resp_2afc_trial.rt,trials_2afc_loop.thisRepN,trials_2afc_loop.thisTrialN,trials_2afc_loop.thisN,trials_2afc_loop.thisIndex,trials_2afc_loop.ran,item_num,andalusian,argentine,castilian,chilean,cuban,mexican,peruvian,puertorican,key_resp_ac1.keys,key_resp_ac1.corr,key_resp_ac1.rt,ac1_loop.thisRepN,ac1_loop.thisTrialN,ac1_loop.thisN,ac1_loop.thisIndex,ac1_loop.ran,instructions_lextale_loop.thisRepN,instructions_lextale_loop.thisTrialN,instructions_lextale_loop.thisN,instructions_lextale_loop.thisIndex,instructions_lextale_loop.ran,key_resp_lextale_practice.keys,key_resp_lextale_practice.corr,key_resp_lextale_practice.rt,trials_lextale_practice_loop.thisRepN,trials_lextale_practice_loop.thisTrialN,trials_lextale_practice_loop.thisN,trials_lextale_practice_loop.thisIndex,trials_lextale_practice_loop.ran,stim,word,prac_button_real,prac_button_false,key_resp_lextale_trial.keys,key_resp_lextale_trial.corr,key_resp_lextale_trial.rt,trials_lextale_loop.thisRepN,trials_lextale_loop.thisTrialN,trials_lextale_loop.thisN,trials_lextale_loop.thisIndex,trials_lextale_loop.ran,button_real,button_false,key_resp_ac2.keys,key_resp_ac2.corr,key_resp_ac2.rt,check_pass,check_fails,ac2_loop.thisRepN,ac2_loop.thisTrialN,ac2_loop.thisN,ac2_loop.thisIndex,ac2_loop.ran,slider_eq_trial.response,trials_eq_loop.thisRepN,trials_eq_loop.thisTrialN,trials_eq_loop.thisN,trials_eq_loop.thisIndex,trials_eq_loop.ran,item,is_test_item,is_distractor,is_agree_score,is_disagree_score
0,0,0,0,1,"In the following task you are going to hear a series of utterances. 

  You will decide if the utterances sound like questions or not using your keyboard.",(press the spacebar to continue),6026adf0704fd23a5dc0ee32,605b45a4d25f287719a41696,605ba0e615b7fdea0911edb5,United States,Midwest,13 or older,no,2021-03-24_16h29.31.043,empathy_intonation_perc,2020.2.10,MacIntel,60,,,,,,,,,,,,,,,,,,,,,,,,,,,,,,,,,,,,,,,,,,,,,,,,,,,,,,,,,,,,,,,,,,,,,,,,,,,,,,,,,,,,
0,1,1,1,1,"If you believe the utterance is a question, type '1' (for 'yes') and if you do not 
  believe it is a question type '0' (for 'no').

  Let's practice a bit...",(press the spacebar to continue),6026adf0704fd23a5dc0ee32,605b45a4d25f287719a41696,605ba0e615b7fdea0911edb5,United States,Midwest,13 or older,no,2021-03-24_16h29.31.043,empathy_intonation_perc,2020.2.10,MacIntel,60,,,,,,,,,,,,,,,,,,,,,,,,,,,,,,,,,,,,,,,,,,,,,,,,,,,,,,,,,,,,,,,,,,,,,,,,,,,,,,,,,,,,
,,,,,,,6026adf0704fd23a5dc0ee32,605b45a4d25f287719a41696,605ba0e615b7fdea0911edb5,United States,Midwest,13 or older,no,2021-03-24_16h29.31.043,empathy_intonation_perc,2020.2.10,MacIntel,60,1,1,7.61776,0,0,0,2,1,./stim/wavs/chilean_question_filler_Mi-padre-cantaba-bien.wav,1,,,,,,,,,,,,,,,,,,,,,,,,,,,,,,,,,,,,,,,,,,,,,,,,,,,,,,,,,,,,,,,,,,,,,,,,,,
,,,,,,,6026adf0704fd23a5dc0ee32,605b45a4d25f287719a41696,605ba0e615b7fdea0911edb5,United States,Midwest,13 or older,no,2021-03-24_16h29.31.043,empathy_intonation_perc,2020.2.10,MacIntel,60,1,0,2.770385,0,1,1,4,1,./stim/wavs/cuban_statement_filler_Cocinabas-por-la-noche.wav,0,,,,,,,,,,,,,,,,,,,,,,,,,,,,,,,,,,,,,,,,,,,,,,,,,,,,,,,,,,,,,,,,,,,,,,,,,,
,,,,,,,6026adf0704fd23a5dc0ee32,605b45a4d25f287719a41696,605ba0e615b7fdea0911edb5,United States,Midwest,13 or older,no,2021-03-24_16h29.31.043,empathy_intonation_perc,2020.2.10,MacIntel,60,1,0,2.09065,0,2,2,5,1,./stim/wavs/andalusian_statement_filler_Alberto-nunca-se-afeita.wav,0,,,,,,,,,,,,,,,,,,,,,,,,,,,,,,,,,,,,,,,,,,,,,,,,,,,,,,,,,,,,,,,,,,,,,,,,,,
,,,,,,,6026adf0704fd23a5dc0ee32,605b45a4d25f287719a41696,605ba0e615b7fdea0911edb5,United States,Midwest,13 or older,no,2021-03-24_16h29.31.043,empathy_intonation_perc,2020.2.10,MacIntel,60,0,1,2.84469,0,3,3,6,1,./stim/wavs/peruvian_statement_filler_El-nino-habla-con-su-madre.wav,0,,,,,,,,,,,,,,,,,,,,,,,,,,,,,,,,,,,,,,,,,,,,,,,,,,,,,,,,,,,,,,,,,,,,,,,,,,
,,,,,,,6026adf0704fd23a5dc0ee32,605b45a4d25f287719a41696,605ba0e615b7fdea0911edb5,United States,Midwest,13 or older,no,2021-03-24_16h29.31.043,empathy_intonation_perc,2020.2.10,MacIntel,60,0,1,1.93888,0,4,4,7,1,./stim/wavs/puertorican_statement_filler_La-nina-pinta-con-su-amiga.wav,0,,,,,,,,,,,,,,,,,,,,,,,,,,,,,,,,,,,,,,,,,,,,,,,,,,,,,,,,,,,,,,,,,,,,,,,,,,
,,,,,,,6026adf0704fd23a5dc0ee32,605b45a4d25f287719a41696,605ba0e615b7fdea0911edb5,United States,Midwest,13 or older,no,2021-03-24_16h29.31.043,empathy_intonation_perc,2020.2.10,MacIntel,60,1,1,3.329325,0,5,5,1,1,./stim/wavs/argentine_question_filler_Mi-vecino-habla-mucho.wav,1,,,,,,,,,,,,,,,,,,,,,,,,,,,,,,,,,,,,,,,,,,,,,,,,,,,,,,,,,,,,,,,,,,,,,,,,,,
,,,,,,,6026adf0704fd23a5dc0ee32,605b45a4d25f287719a41696,605ba0e615b7fdea0911edb5,United States,Midwest,13 or older,no,2021-03-24_16h29.31.043,empathy_intonation_perc,2020.2.10,MacIntel,60,1,1,2.98255,0,6,6,3,1,./stim/wavs/mexican_question_filler_Felipe-no-tiene-contrasena.wav,1,,,,,,,,,,,,,,,,,,,,,,,,,,,,,,,,,,,,,,,,,,,,,,,,,,,,,,,,,,,,,,,,,,,,,,,,,,
,,,,,,,6026adf0704fd23a5dc0ee32,605b45a4d25f287719a41696,605ba0e615b7fdea0911edb5,United States,Midwest,13 or older,no,2021-03-24_16h29.31.043,empathy_intonation_perc,2020.2.10,MacIntel,60,1,1,41.12221,0,7,7,0,1,./stim/wavs/castilian_question_filler_Mi-esposo-conoce-al-chico.wav,1,,,,,,,,,,,,,,,,,,,,,,,,,,,,,,,,,,,,,,,,,,,,,,,,,,,,,,,,,,,,,,,,,,,,,,,,,,
,,,,,,,6026adf0704fd23a5dc0ee32,605b45a4d25f287719a41696,605ba0e615b7fdea0911edb5,United States,Midwest,13 or older,no,2021-03-24_16h29.31.043,empathy_intonation_perc,2020.2.10,MacIntel,60,,,,,,,,,,0,argentine,0,1,2.54207,0,0,0,5,1,6,./stim/wavs/andalusian_match_declarative-broad-focus_Maria-bebe-el-vino.wav,./stim/wavs/argentine_match_declarative-broad-focus_Maria-bebe-el-vino.wav,./stim/wavs/castilian_match_declarative-broad-focus_Maria-bebe-el-vino.wav,./stim/wavs/chilean_match_declarative-broad-focus_Maria-bebe-el-vino.wav,./stim/wavs/cuban_match_declarative-broad-focus_Maria-bebe-el-vino.wav,./stim/wavs/mexican_match_declarative-broad-focus_Maria-bebe-el-vino.wav,./stim/wavs/peruvian_match_declarative-broad-focus_Maria-bebe-el-vino.wav,./stim/wavs/puertorican_match_declarative-broad-focus_Maria-bebe-el-vino.wav,,,,,,,,,,,,,,,,,,,,,,,,,,,,,,,,,,,,,,,,,,,,,,,,,,,,,,,,
,,,,,,,6026adf0704fd23a5dc0ee32,605b45a4d25f287719a41696,605ba0e615b7fdea0911edb5,United States,Midwest,13 or older,no,2021-03-24_16h29.31.043,empathy_intonation_perc,2020.2.10,MacIntel,60,,,,,,,,,,1,puertorican,0,0,2.45263,0,1,1,17,1,18,./stim/wavs/andalusian_match_interrogative-partial-wh_Cuando-leia-el-libro.wav,./stim/wavs/argentine_match_interrogative-partial-wh_Cuando-leia-el-libro.wav,./stim/wavs/castilian_match_interrogative-partial-wh_Cuando-leia-el-libro.wav,./stim/wavs/chilean_match_interrogative-partial-wh_Cuando-leia-el-libro.wav,./stim/wavs/cuban_match_interrogative-partial-wh_Cuando-leia-el-libro.wav,./stim/wavs/mexican_match_interrogative-partial-wh_Cuando-leia-el-libro.wav,./stim/wavs/peruvian_match_interrogative-partial-wh_Cuando-leia-el-libro.wav,./stim/wavs/puertorican_match_interrogative-partial-wh_Cuando-leia-el-libro.wav,,,,,,,,,,,,,,,,,,,,,,,,,,,,,,,,,,,,,,,,,,,,,,,,,,,,,,,,
,,,,,,,6026adf0704fd23a5dc0ee32,605b45a4d25f287719a41696,605ba0e615b7fdea0911edb5,United States,Midwest,13 or older,no,2021-03-24_16h29.31.043,empathy_intonation_perc,2020.2.10,MacIntel,60,,,,,,,,,,0,cuban,0,1,1.888115,0,2,2,42,1,43,./stim/wavs/andalusian_mismatch_declarative-narrow-focus_El-nino-oye-el-rio.wav,./stim/wavs/argentine_mismatch_declarative-narrow-focus_El-nino-oye-el-rio.wav,./stim/wavs/castilian_mismatch_declarative-narrow-focus_El-nino-oye-el-rio.wav,./stim/wavs/chilean_mismatch_declarative-narrow-focus_El-nino-oye-el-rio.wav,./stim/wavs/cuban_mismatch_declarative-narrow-focus_El-nino-oye-el-rio.wav,./stim/wavs/mexican_mismatch_declarative-narrow-focus_El-nino-oye-el-rio.wav,./stim/wavs/peruvian_mismatch_declarative-narrow-focus_El-nino-oye-el-rio.wav,./stim/wavs/puertorican_mismatch_declarative-narrow-focus_El-nino-oye-el-rio.wav,,,,,,,,,,,,,,,,,,,,,,,,,,,,,,,,,,,,,,,,,,,,,,,,,,,,,,,,
,,,,,,,6026adf0704fd23a5dc0ee32,605b45a4d25f287719a41696,605ba0e615b7fdea0911edb5,United States,Midwest,13 or older,no,2021-03-24_16h29.31.043,empathy_intonation_perc,2020.2.10,MacIntel,60,,,,,,,,,,0,castilian,0,1,2.606925,0,3,3,7,1,8,./stim/wavs/andalusian_match_declarative-broad-focus_Marta-abre-el-regalo.wav,./stim/wavs/argentine_match_declarative-broad-focus_Marta-abre-el-regalo.wav,./stim/wavs/castilian_match_declarative-broad-focus_Marta-abre-el-regalo.wav,./stim/wavs/chilean_match_declarative-broad-focus_Marta-abre-el-regalo.wav,./stim/wavs/cuban_match_declarative-broad-focus_Marta-abre-el-regalo.wav,./stim/wavs/mexican_match_declarative-broad-focus_Marta-abre-el-regalo.wav,./stim/wavs/peruvian_match_declarative-broad-focus_Marta-abre-el-regalo.wav,./stim/wavs/puertorican_match_declarative-broad-focus_Marta-abre-el-regalo.wav,,,,,,,,,,,,,,,,,,,,,,,,,,,,,,,,,,,,,,,,,,,,,,,,,,,,,,,,
,,,,,,,6026adf0704fd23a5dc0ee32,605b45a4d25f287719a41696,605ba0e615b7fdea0911edb5,United States,Midwest,13 or older,no,2021-03-24_16h29.31.043,empathy_intonation_perc,2020.2.10,MacIntel,60,,,,,,,,,,0,puertorican,1,0,2.804375,0,4,4,6,1,7,./stim/wavs/andalusian_match_declarative-broad-focus_Mariano-habla-del-tiempo.wav,./stim/wavs/argentine_match_declarative-broad-focus_Mariano-habla-del-tiempo.wav,./stim/wavs/castilian_match_declarative-broad-focus_Mariano-habla-del-tiempo.wav,./stim/wavs/chilean_match_declarative-broad-focus_Mariano-habla-del-tiempo.wav,./stim/wavs/cuban_match_declarative-broad-focus_Mariano-habla-del-tiempo.wav,./stim/wavs/mexican_match_declarative-broad-focus_Mariano-habla-del-tiempo.wav,./stim/wavs/peruvian_match_declarative-broad-focus_Mariano-habla-del-tiempo.wav,./stim/wavs/puertorican_match_declarative-broad-focus_Mariano-habla-del-tiempo.wav,,,,,,,,,,,,,,,,,,,,,,,,,,,,,,,,,,,,,,,,,,,,,,,,,,,,,,,,
,,,,,,,6026adf0704fd23a5dc0ee32,605b45a4d25f287719a41696,605ba0e615b7fdea0911edb5,United States,Midwest,13 or older,no,2021-03-24_16h29.31.043,empathy_intonation_perc,2020.2.10,MacIntel,60,,,,,,,,,,1,cuban,1,1,1.985755,0,5,5,49,1,50,./stim/wavs/andalusian_mismatch_interrogative-partial-wh_Cuando-lavaba-el-plato.wav,./stim/wavs/argentine_mismatch_interrogative-partial-wh_Cuando-lavaba-el-plato.wav,./stim/wavs/castilian_mismatch_interrogative-partial-wh_Cuando-lavaba-el-plato.wav,./stim/wavs/chilean_mismatch_interrogative-partial-wh_Cuando-lavaba-el-plato.wav,./stim/wavs/cuban_mismatch_interrogative-partial-wh_Cuando-lavaba-el-plato.wav,./stim/wavs/mexican_mismatch_interrogative-partial-wh_Cuando-lavaba-el-plato.wav,./stim/wavs/peruvian_mismatch_interrogative-partial-wh_Cuando-lavaba-el-plato.wav,./stim/wavs/puertorican_mismatch_interrogative-partial-wh_Cuando-lavaba-el-plato.wav,,,,,,,,,,,,,,,,,,,,,,,,,,,,,,,,,,,,,,,,,,,,,,,,,,,,,,,,
,,,,,,,6026adf0704fd23a5dc0ee32,605b45a4d25f287719a41696,605ba0e615b7fdea0911edb5,United States,Midwest,13 or older,no,2021-03-24_16h29.31.043,empathy_intonation_perc,2020.2.10,MacIntel,60,,,,,,,,,,1,peruvian,1,1,2.429715,0,6,6,63,1,64,./stim/wavs/andalusian_mismatch_interrogative-total-yn_Mi-tia-odia-la-lluvia.wav,./stim/wavs/argentine_mismatch_interrogative-total-yn_Mi-tia-odia-la-lluvia.wav,./stim/wavs/castilian_mismatch_interrogative-total-yn_Mi-tia-odia-la-lluvia.wav,./stim/wavs/chilean_mismatch_interrogative-total-yn_Mi-tia-odia-la-lluvia.wav,./stim/wavs/cuban_mismatch_interrogative-total-yn_Mi-tia-odia-la-lluvia.wav,./stim/wavs/mexican_mismatch_interrogative-total-yn_Mi-tia-odia-la-lluvia.wav,./stim/wavs/peruvian_mismatch_interrogative-total-yn_Mi-tia-odia-la-lluvia.wav,./stim/wavs/puertorican_mismatch_interrogative-total-yn_Mi-tia-odia-la-lluvia.wav,,,,,,,,,,,,,,,,,,,,,,,,,,,,,,,,,,,,,,,,,,,,,,,,,,,,,,,,
,,,,,,,6026adf0704fd23a5dc0ee32,605b45a4d25f287719a41696,605ba0e615b7fdea0911edb5,United States,Midwest,13 or older,no,2021-03-24_16h29.31.043,empathy_intonation_perc,2020.2.10,MacIntel,60,,,,,,,,,,1,andalusian,1,1,3.930075,0,7,7,21,1,22,./stim/wavs/andalusian_match_interrogative-partial-wh_Por-que-ama-la-navidad.wav,./stim/wavs/argentine_match_interrogative-partial-wh_Por-que-ama-la-navidad.wav,./stim/wavs/castilian_match_interrogative-partial-wh_Por-que-ama-la-navidad.wav,./stim/wavs/chilean_match_interrogative-partial-wh_Por-que-ama-la-navidad.wav,./stim/wavs/cuban_match_interrogative-partial-wh_Por-que-ama-la-navidad.wav,./stim/wavs/mexican_match_interrogative-partial-wh_Por-que-ama-la-navidad.wav,./stim/wavs/peruvian_match_interrogative-partial-wh_Por-que-ama-la-navidad.wav,./stim/wavs/puertorican_match_interrogative-partial-wh_Por-que-ama-la-navidad.wav,,,,,,,,,,,,,,,,,,,,,,,,,,,,,,,,,,,,,,,,,,,,,,,,,,,,,,,,
,,,,,,,6026adf0704fd23a5dc0ee32,605b45a4d25f287719a41696,605ba0e615b7fdea0911edb5,United States,Midwest,13 or older,no,2021-03-24_16h29.31.043,empathy_intonation_perc,2020.2.10,MacIntel,60,,,,,,,,,,0,peruvian,0,1,2.16568,0,8,8,13,1,14,./stim/wavs/andalusian_match_declarative-narrow-focus_Maria-bebe-el-vino.wav,./stim/wavs/argentine_match_declarative-narrow-focus_Maria-bebe-el-vino.wav,./stim/wavs/castilian_match_declarative-narrow-focus_Maria-bebe-el-vino.wav,./stim/wavs/chilean_match_declarative-narrow-focus_Maria-bebe-el-vino.wav,./stim/wavs/cuban_match_declarative-narrow-focus_Maria-bebe-el-vino.wav,./stim/wavs/mexican_match_declarative-narrow-focus_Maria-bebe-el-vino.wav,./stim/wavs/peruvian_match_declarative-narrow-focus_Maria-bebe-el-vino.wav,./stim/wavs/puertorican_match_declarative-narrow-focus_Maria-bebe-el-vino.wav,,,,,,,,,,,,,,,,,,,,,,,,,,,,,,,,,,,,,,,,,,,,,,,,,,,,,,,,
,,,,,,,6026adf0704fd23a5dc0ee32,605b45a4d25f287719a41696,605ba0e615b7fdea0911edb5,United States,Midwest,13 or older,no,2021-03-24_16h29.31.043,empathy_intonation_perc,2020.2.10,MacIntel,60,,,,,,,,,,1,cuban,0,0,3.352065,0,9,9,28,1,29,./stim/wavs/andalusian_match_interrogative-total-yn_Manuela-vende-el-carro.wav,./stim/wavs/argentine_match_interrogative-total-yn_Manuela-vende-el-carro.wav,./stim/wavs/castilian_match_interrogative-total-yn_Manuela-vende-el-carro.wav,./stim/wavs/chilean_match_interrogative-total-yn_Manuela-vende-el-carro.wav,./stim/wavs/cuban_match_interrogative-total-yn_Manuela-vende-el-carro.wav,./stim/wavs/mexican_match_interrogative-total-yn_Manuela-vende-el-carro.wav,./stim/wavs/peruvian_match_interrogative-total-yn_Manuela-vende-el-carro.wav,./stim/wavs/puertorican_match_interrogative-total-yn_Manuela-vende-el-carro.wav,,,,,,,,,,,,,,,,,,,,,,,,,,,,,,,,,,,,,,,,,,,,,,,,,,,,,,,,
,,,,,,,6026adf0704fd23a5dc0ee32,605b45a4d25f287719a41696,605ba0e615b7fdea0911edb5,United States,Midwest,13 or older,no,2021-03-24_16h29.31.043,empathy_intonation_perc,2020.2.10,MacIntel,60,,,,,,,,,,0,andalusian,1,0,2.09178,0,10,10,38,1,39,./stim/wavs/andalusian_mismatch_declarative-broad-focus_Mi-novio-viene-del-lago.wav,./stim/wavs/argentine_mismatch_declarative-broad-focus_Mi-novio-viene-del-lago.wav,./stim/wavs/castilian_mismatch_declarative-broad-focus_Mi-novio-viene-del-lago.wav,./stim/wavs/chilean_mismatch_declarative-broad-focus_Mi-novio-viene-del-lago.wav,./stim/wavs/cuban_mismatch_declarative-broad-focus_Mi-novio-viene-del-lago.wav,./stim/wavs/mexican_mismatch_declarative-broad-focus_Mi-novio-viene-del-lago.wav,./stim/wavs/peruvian_mismatch_declarative-broad-focus_Mi-novio-viene-del-lago.wav,./stim/wavs/puertorican_mismatch_declarative-broad-focus_Mi-novio-viene-del-lago.wav,,,,,,,,,,,,,,,,,,,,,,,,,,,,,,,,,,,,,,,,,,,,,,,,,,,,,,,,
,,,,,,,6026adf0704fd23a5dc0ee32,605b45a4d25f287719a41696,605ba0e615b7fdea0911edb5,United States,Midwest,13 or older,no,2021-03-24_16h29.31.043,empathy_intonation_perc,2020.2.10,MacIntel,60,,,,,,,,,,1,chilean,1,1,5.139235,0,11,11,23,1,24,./stim/wavs/andalusian_match_interrogative-partial-wh_Por-que-iba-a-Bolivia.wav,./stim/wavs/argentine_match_interrogative-partial-wh_Por-que-iba-a-Bolivia.wav,./stim/wavs/castilian_match_interrogative-partial-wh_Por-que-iba-a-Bolivia.wav,./stim/wavs/chilean_match_interrogative-partial-wh_Por-que-iba-a-Bolivia.wav,./stim/wavs/cuban_match_interrogative-partial-wh_Por-que-iba-a-Bolivia.wav,./stim/wavs/mexican_match_interrogative-partial-wh_Por-que-iba-a-Bolivia.wav,./stim/wavs/peruvian_match_interrogative-partial-wh_Por-que-iba-a-Bolivia.wav,./stim/wavs/puertorican_match_interrogative-partial-wh_Por-que-iba-a-Bolivia.wav,,,,,,,,,,,,,,,,,,,,,,,,,,,,,,,,,,,,,,,,,,,,,,,,,,,,,,,,
,,,,,,,6026adf0704fd23a5dc0ee32,605b45a4d25f287719a41696,605ba0e615b7fdea0911edb5,United States,Midwest,13 or older,no,2021-03-24_16h29.31.043,empathy_intonation_perc,2020.2.10,MacIntel,60,,,,,,,,,,0,mexican,0,1,1.988445,0,12,12,11,1,12,./stim/wavs/andalusian_match_declarative-narrow-focus_Emilio-ama-la-marcha.wav,./stim/wavs/argentine_match_declarative-narrow-focus_Emilio-ama-la-marcha.wav,./stim/wavs/castilian_match_declarative-narrow-focus_Emilio-ama-la-marcha.wav,./stim/wavs/chilean_match_declarative-narrow-focus_Emilio-ama-la-marcha.wav,./stim/wavs/cuban_match_declarative-narrow-focus_Emilio-ama-la-marcha.wav,./stim/wavs/mexican_match_declarative-narrow-focus_Emilio-ama-la-marcha.wav,./stim/wavs/peruvian_match_declarative-narrow-focus_Emilio-ama-la-marcha.wav,./stim/wavs/puertorican_match_declarative-narrow-focus_Emilio-ama-la-marcha.wav,,,,,,,,,,,,,,,,,,,,,,,,,,,,,,,,,,,,,,,,,,,,,,,,,,,,,,,,
,,,,,,,6026adf0704fd23a5dc0ee32,605b45a4d25f287719a41696,605ba0e615b7fdea0911edb5,United States,Midwest,13 or older,no,2021-03-24_16h29.31.043,empathy_intonation_perc,2020.2.10,MacIntel,60,,,,,,,,,,1,chilean,1,1,2.21448,0,13,13,16,1,17,./stim/wavs/andalusian_match_interrogative-partial-wh_Cuando-bebia-el-vino.wav,./stim/wavs/argentine_match_interrogative-partial-wh_Cuando-bebia-el-vino.wav,./stim/wavs/castilian_match_interrogative-partial-wh_Cuando-bebia-el-vino.wav,./stim/wavs/chilean_match_interrogative-partial-wh_Cuando-bebia-el-vino.wav,./stim/wavs/cuban_match_interrogative-partial-wh_Cuando-bebia-el-vino.wav,./stim/wavs/mexican_match_interrogative-partial-wh_Cuando-bebia-el-vino.wav,./stim/wavs/peruvian_match_interrogative-partial-wh_Cuando-bebia-el-vino.wav,./stim/wavs/puertorican_match_interrogative-partial-wh_Cuando-bebia-el-vino.wav,,,,,,,,,,,,,,,,,,,,,,,,,,,,,,,,,,,,,,,,,,,,,,,,,,,,,,,,
,,,,,,,6026adf0704fd23a5dc0ee32,605b45a4d25f287719a41696,605ba0e615b7fdea0911edb5,United States,Midwest,13 or older,no,2021-03-24_16h29.31.043,empathy_intonation_perc,2020.2.10,MacIntel,60,,,,,,,,,,0,cuban,0,1,1.68431,0,14,14,0,1,1,./stim/wavs/andalusian_match_declarative-broad-focus_Ana-lleva-el-abrigo.wav,./stim/wavs/argentine_match_declarative-broad-focus_Ana-lleva-el-abrigo.wav,./stim/wavs/castilian_match_declarative-broad-focus_Ana-lleva-el-abrigo.wav,./stim/wavs/chilean_match_declarative-broad-focus_Ana-lleva-el-abrigo.wav,./stim/wavs/cuban_match_declarative-broad-focus_Ana-lleva-el-abrigo.wav,./stim/wavs/mexican_match_declarative-broad-focus_Ana-lleva-el-abrigo.wav,./stim/wavs/peruvian_match_declarative-broad-focus_Ana-lleva-el-abrigo.wav,./stim/wavs/puertorican_match_declarative-broad-focus_Ana-lleva-el-abrigo.wav,,,,,,,,,,,,,,,,,,,,,,,,,,,,,,,,,,,,,,,,,,,,,,,,,,,,,,,,
,,,,,,,6026adf0704fd23a5dc0ee32,605b45a4d25f287719a41696,605ba0e615b7fdea0911edb5,United States,Midwest,13 or older,no,2021-03-24_16h29.31.043,empathy_intonation_perc,2020.2.10,MacIntel,60,,,,,,,,,,1,castilian,1,1,2.536855,0,15,15,55,1,56,./stim/wavs/andalusian_mismatch_interrogative-partial-wh_Por-que-vivia-en-Paris.wav,./stim/wavs/argentine_mismatch_interrogative-partial-wh_Por-que-vivia-en-Paris.wav,./stim/wavs/castilian_mismatch_interrogative-partial-wh_Por-que-vivia-en-Paris.wav,./stim/wavs/chilean_mismatch_interrogative-partial-wh_Por-que-vivia-en-Paris.wav,./stim/wavs/cuban_mismatch_interrogative-partial-wh_Por-que-vivia-en-Paris.wav,./stim/wavs/mexican_mismatch_interrogative-partial-wh_Por-que-vivia-en-Paris.wav,./stim/wavs/peruvian_mismatch_interrogative-partial-wh_Por-que-vivia-en-Paris.wav,./stim/wavs/puertorican_mismatch_interrogative-partial-wh_Por-que-vivia-en-Paris.wav,,,,,,,,,,,,,,,,,,,,,,,,,,,,,,,,,,,,,,,,,,,,,,,,,,,,,,,,
,,,,,,,6026adf0704fd23a5dc0ee32,605b45a4d25f287719a41696,605ba0e615b7fdea0911edb5,United States,Midwest,13 or older,no,2021-03-24_16h29.31.043,empathy_intonation_perc,2020.2.10,MacIntel,60,,,,,,,,,,1,mexican,1,1,2.87877,0,16,16,60,1,61,./stim/wavs/andalusian_mismatch_interrogative-total-yn_La-nina-lava-el-plato.wav,./stim/wavs/argentine_mismatch_interrogative-total-yn_La-nina-lava-el-plato.wav,./stim/wavs/castilian_mismatch_interrogative-total-yn_La-nina-lava-el-plato.wav,./stim/wavs/chilean_mismatch_interrogative-total-yn_La-nina-lava-el-plato.wav,./stim/wavs/cuban_mismatch_interrogative-total-yn_La-nina-lava-el-plato.wav,./stim/wavs/mexican_mismatch_interrogative-total-yn_La-nina-lava-el-plato.wav,./stim/wavs/peruvian_mismatch_interrogative-total-yn_La-nina-lava-el-plato.wav,./stim/wavs/puertorican_mismatch_interrogative-total-yn_La-nina-lava-el-plato.wav,,,,,,,,,,,,,,,,,,,,,,,,,,,,,,,,,,,,,,,,,,,,,,,,,,,,,,,,
,,,,,,,6026adf0704fd23a5dc0ee32,605b45a4d25f287719a41696,605ba0e615b7fdea0911edb5,United States,Midwest,13 or older,no,2021-03-24_16h29.31.043,empathy_intonation_perc,2020.2.10,MacIntel,60,,,,,,,,,,1,castilian,1,1,2.24028,0,17,17,48,1,49,./stim/wavs/andalusian_mismatch_interrogative-partial-wh_Cuando-comia-la-fruta.wav,./stim/wavs/argentine_mismatch_interrogative-partial-wh_Cuando-comia-la-fruta.wav,./stim/wavs/castilian_mismatch_interrogative-partial-wh_Cuando-comia-la-fruta.wav,./stim/wavs/chilean_mismatch_interrogative-partial-wh_Cuando-comia-la-fruta.wav,./stim/wavs/cuban_mismatch_interrogative-partial-wh_Cuando-comia-la-fruta.wav,./stim/wavs/mexican_mismatch_interrogative-partial-wh_Cuando-comia-la-fruta.wav,./stim/wavs/peruvian_mismatch_interrogative-partial-wh_Cuando-comia-la-fruta.wav,./stim/wavs/puertorican_mismatch_interrogative-partial-wh_Cuando-comia-la-fruta.wav,,,,,,,,,,,,,,,,,,,,,,,,,,,,,,,,,,,,,,,,,,,,,,,,,,,,,,,,
,,,,,,,6026adf0704fd23a5dc0ee32,605b45a4d25f287719a41696,605ba0e615b7fdea0911edb5,United States,Midwest,13 or older,no,2021-03-24_16h29.31.043,empathy_intonation_perc,2020.2.10,MacIntel,60,,,,,,,,,,0,argentine,0,1,2.13241,0,18,18,35,1,36,./stim/wavs/andalusian_mismatch_declarative-broad-focus_La-maestra-vive-en-Paris.wav,./stim/wavs/argentine_mismatch_declarative-broad-focus_La-maestra-vive-en-Paris.wav,./stim/wavs/castilian_mismatch_declarative-broad-focus_La-maestra-vive-en-Paris.wav,./stim/wavs/chilean_mismatch_declarative-broad-focus_La-maestra-vive-en-Paris.wav,./stim/wavs/cuban_mismatch_declarative-broad-focus_La-maestra-vive-en-Paris.wav,./stim/wavs/mexican_mismatch_declarative-broad-focus_La-maestra-vive-en-Paris.wav,./stim/wavs/peruvian_mismatch_declarative-broad-focus_La-maestra-vive-en-Paris.wav,./stim/wavs/puertorican_mismatch_declarative-broad-focus_La-maestra-vive-en-Paris.wav,,,,,,,,,,,,,,,,,,,,,,,,,,,,,,,,,,,,,,,,,,,,,,,,,,,,,,,,
,,,,,,,6026adf0704fd23a5dc0ee32,605b45a4d25f287719a41696,605ba0e615b7fdea0911edb5,United States,Midwest,13 or older,no,2021-03-24_16h29.31.043,empathy_intonation_perc,2020.2.10,MacIntel,60,,,,,,,,,,1,peruvian,1,1,2.01723,0,19,19,27,1,28,./stim/wavs/andalusian_match_interrogative-total-yn_Emilio-ama-la-marcha.wav,./stim/wavs/argentine_match_interrogative-total-yn_Emilio-ama-la-marcha.wav,./stim/wavs/castilian_match_interrogative-total-yn_Emilio-ama-la-marcha.wav,./stim/wavs/chilean_match_interrogative-total-yn_Emilio-ama-la-marcha.wav,./stim/wavs/cuban_match_interrogative-total-yn_Emilio-ama-la-marcha.wav,./stim/wavs/mexican_match_interrogative-total-yn_Emilio-ama-la-marcha.wav,./stim/wavs/peruvian_match_interrogative-total-yn_Emilio-ama-la-marcha.wav,./stim/wavs/puertorican_match_interrogative-total-yn_Emilio-ama-la-marcha.wav,,,,,,,,,,,,,,,,,,,,,,,,,,,,,,,,,,,,,,,,,,,,,,,,,,,,,,,,
,,,,,,,6026adf0704fd23a5dc0ee32,605b45a4d25f287719a41696,605ba0e615b7fdea0911edb5,United States,Midwest,13 or older,no,2021-03-24_16h29.31.043,empathy_intonation_perc,2020.2.10,MacIntel,60,,,,,,,,,,0,peruvian,0,1,2.2071,0,20,20,44,1,45,./stim/wavs/andalusian_mismatch_declarative-narrow-focus_La-nina-lava-el-plato.wav,./stim/wavs/argentine_mismatch_declarative-narrow-focus_La-nina-lava-el-plato.wav,./stim/wavs/castilian_mismatch_declarative-narrow-focus_La-nina-lava-el-plato.wav,./stim/wavs/chilean_mismatch_declarative-narrow-focus_La-nina-lava-el-plato.wav,./stim/wavs/cuban_mismatch_declarative-narrow-focus_La-nina-lava-el-plato.wav,./stim/wavs/mexican_mismatch_declarative-narrow-focus_La-nina-lava-el-plato.wav,./stim/wavs/peruvian_mismatch_declarative-narrow-focus_La-nina-lava-el-plato.wav,./stim/wavs/puertorican_mismatch_declarative-narrow-focus_La-nina-lava-el-plato.wav,,,,,,,,,,,,,,,,,,,,,,,,,,,,,,,,,,,,,,,,,,,,,,,,,,,,,,,,
,,,,,,,6026adf0704fd23a5dc0ee32,605b45a4d25f287719a41696,605ba0e615b7fdea0911edb5,United States,Midwest,13 or older,no,2021-03-24_16h29.31.043,empathy_intonation_perc,2020.2.10,MacIntel,60,,,,,,,,,,0,chilean,0,1,1.623885,0,21,21,8,1,9,./stim/wavs/andalusian_match_declarative-narrow-focus_Ana-lleva-el-abrigo.wav,./stim/wavs/argentine_match_declarative-narrow-focus_Ana-lleva-el-abrigo.wav,./stim/wavs/castilian_match_declarative-narrow-focus_Ana-lleva-el-abrigo.wav,./stim/wavs/chilean_match_declarative-narrow-focus_Ana-lleva-el-abrigo.wav,./stim/wavs/cuban_match_declarative-narrow-focus_Ana-lleva-el-abrigo.wav,./stim/wavs/mexican_match_declarative-narrow-focus_Ana-lleva-el-abrigo.wav,./stim/wavs/peruvian_match_declarative-narrow-focus_Ana-lleva-el-abrigo.wav,./stim/wavs/puertorican_match_declarative-narrow-focus_Ana-lleva-el-abrigo.wav,,,,,,,,,,,,,,,,,,,,,,,,,,,,,,,,,,,,,,,,,,,,,,,,,,,,,,,,
,,,,,,,6026adf0704fd23a5dc0ee32,605b45a4d25f287719a41696,605ba0e615b7fdea0911edb5,United States,Midwest,13 or older,no,2021-03-24_16h29.31.043,empathy_intonation_perc,2020.2.10,MacIntel,60,,,,,,,,,,0,argentine,0,1,1.67618,0,22,22,1,1,2,./stim/wavs/andalusian_match_declarative-broad-focus_Daniel-iba-a-Bolivia.wav,./stim/wavs/argentine_match_declarative-broad-focus_Daniel-iba-a-Bolivia.wav,./stim/wavs/castilian_match_declarative-broad-focus_Daniel-iba-a-Bolivia.wav,./stim/wavs/chilean_match_declarative-broad-focus_Daniel-iba-a-Bolivia.wav,./stim/wavs/cuban_match_declarative-broad-focus_Daniel-iba-a-Bolivia.wav,./stim/wavs/mexican_match_declarative-broad-focus_Daniel-iba-a-Bolivia.wav,./stim/wavs/peruvian_match_declarative-broad-focus_Daniel-iba-a-Bolivia.wav,./stim/wavs/puertorican_match_declarative-broad-focus_Daniel-iba-a-Bolivia.wav,,,,,,,,,,,,,,,,,,,,,,,,,,,,,,,,,,,,,,,,,,,,,,,,,,,,,,,,
,,,,,,,6026adf0704fd23a5dc0ee32,605b45a4d25f287719a41696,605ba0e615b7fdea0911edb5,United States,Midwest,13 or older,no,2021-03-24_16h29.31.043,empathy_intonation_perc,2020.2.10,MacIntel,60,,,,,,,,,,1,puertorican,0,0,2.12736,0,23,23,56,1,57,./stim/wavs/andalusian_mismatch_interrogative-total-yn_El-bebe-comia-muy-bien.wav,./stim/wavs/argentine_mismatch_interrogative-total-yn_El-bebe-comia-muy-bien.wav,./stim/wavs/castilian_mismatch_interrogative-total-yn_El-bebe-comia-muy-bien.wav,./stim/wavs/chilean_mismatch_interrogative-total-yn_El-bebe-comia-muy-bien.wav,./stim/wavs/cuban_mismatch_interrogative-total-yn_El-bebe-comia-muy-bien.wav,./stim/wavs/mexican_mismatch_interrogative-total-yn_El-bebe-comia-muy-bien.wav,./stim/wavs/peruvian_mismatch_interrogative-total-yn_El-bebe-comia-muy-bien.wav,./stim/wavs/puertorican_mismatch_interrogative-total-yn_El-bebe-comia-muy-bien.wav,,,,,,,,,,,,,,,,,,,,,,,,,,,,,,,,,,,,,,,,,,,,,,,,,,,,,,,,
,,,,,,,6026adf0704fd23a5dc0ee32,605b45a4d25f287719a41696,605ba0e615b7fdea0911edb5,United States,Midwest,13 or older,no,2021-03-24_16h29.31.043,empathy_intonation_perc,2020.2.10,MacIntel,60,,,,,,,,,,0,cuban,0,1,1.78264,0,24,24,46,1,47,./stim/wavs/andalusian_mismatch_declarative-narrow-focus_Mi-novio-viene-del-lago.wav,./stim/wavs/argentine_mismatch_declarative-narrow-focus_Mi-novio-viene-del-lago.wav,./stim/wavs/castilian_mismatch_declarative-narrow-focus_Mi-novio-viene-del-lago.wav,./stim/wavs/chilean_mismatch_declarative-narrow-focus_Mi-novio-viene-del-lago.wav,./stim/wavs/cuban_mismatch_declarative-narrow-focus_Mi-novio-viene-del-lago.wav,./stim/wavs/mexican_mismatch_declarative-narrow-focus_Mi-novio-viene-del-lago.wav,./stim/wavs/peruvian_mismatch_declarative-narrow-focus_Mi-novio-viene-del-lago.wav,./stim/wavs/puertorican_mismatch_declarative-narrow-focus_Mi-novio-viene-del-lago.wav,,,,,,,,,,,,,,,,,,,,,,,,,,,,,,,,,,,,,,,,,,,,,,,,,,,,,,,,
,,,,,,,6026adf0704fd23a5dc0ee32,605b45a4d25f287719a41696,605ba0e615b7fdea0911edb5,United States,Midwest,13 or older,no,2021-03-24_16h29.31.043,empathy_intonation_perc,2020.2.10,MacIntel,60,,,,,,,,,,1,andalusian,1,1,1.896615,0,25,25,25,1,26,./stim/wavs/andalusian_match_interrogative-total-yn_Daniel-iba-a-Bolivia.wav,./stim/wavs/argentine_match_interrogative-total-yn_Daniel-iba-a-Bolivia.wav,./stim/wavs/castilian_match_interrogative-total-yn_Daniel-iba-a-Bolivia.wav,./stim/wavs/chilean_match_interrogative-total-yn_Daniel-iba-a-Bolivia.wav,./stim/wavs/cuban_match_interrogative-total-yn_Daniel-iba-a-Bolivia.wav,./stim/wavs/mexican_match_interrogative-total-yn_Daniel-iba-a-Bolivia.wav,./stim/wavs/peruvian_match_interrogative-total-yn_Daniel-iba-a-Bolivia.wav,./stim/wavs/puertorican_match_interrogative-total-yn_Daniel-iba-a-Bolivia.wav,,,,,,,,,,,,,,,,,,,,,,,,,,,,,,,,,,,,,,,,,,,,,,,,,,,,,,,,
,,,,,,,6026adf0704fd23a5dc0ee32,605b45a4d25f287719a41696,605ba0e615b7fdea0911edb5,United States,Midwest,13 or older,no,2021-03-24_16h29.31.043,empathy_intonation_perc,2020.2.10,MacIntel,60,,,,,,,,,,1,mexican,1,1,1.77567,0,26,26,31,1,32,./stim/wavs/andalusian_match_interrogative-total-yn_Marta-abre-el-regalo.wav,./stim/wavs/argentine_match_interrogative-total-yn_Marta-abre-el-regalo.wav,./stim/wavs/castilian_match_interrogative-total-yn_Marta-abre-el-regalo.wav,./stim/wavs/chilean_match_interrogative-total-yn_Marta-abre-el-regalo.wav,./stim/wavs/cuban_match_interrogative-total-yn_Marta-abre-el-regalo.wav,./stim/wavs/mexican_match_interrogative-total-yn_Marta-abre-el-regalo.wav,./stim/wavs/peruvian_match_interrogative-total-yn_Marta-abre-el-regalo.wav,./stim/wavs/puertorican_match_interrogative-total-yn_Marta-abre-el-regalo.wav,,,,,,,,,,,,,,,,,,,,,,,,,,,,,,,,,,,,,,,,,,,,,,,,,,,,,,,,
,,,,,,,6026adf0704fd23a5dc0ee32,605b45a4d25f287719a41696,605ba0e615b7fdea0911edb5,United States,Midwest,13 or older,no,2021-03-24_16h29.31.043,empathy_intonation_perc,2020.2.10,MacIntel,60,,,,,,,,,,1,cuban,0,0,2.012435,0,27,27,24,1,25,./stim/wavs/andalusian_match_interrogative-total-yn_Ana-lleva-el-abrigo.wav,./stim/wavs/argentine_match_interrogative-total-yn_Ana-lleva-el-abrigo.wav,./stim/wavs/castilian_match_interrogative-total-yn_Ana-lleva-el-abrigo.wav,./stim/wavs/chilean_match_interrogative-total-yn_Ana-lleva-el-abrigo.wav,./stim/wavs/cuban_match_interrogative-total-yn_Ana-lleva-el-abrigo.wav,./stim/wavs/mexican_match_interrogative-total-yn_Ana-lleva-el-abrigo.wav,./stim/wavs/peruvian_match_interrogative-total-yn_Ana-lleva-el-abrigo.wav,./stim/wavs/puertorican_match_interrogative-total-yn_Ana-lleva-el-abrigo.wav,,,,,,,,,,,,,,,,,,,,,,,,,,,,,,,,,,,,,,,,,,,,,,,,,,,,,,,,
,,,,,,,6026adf0704fd23a5dc0ee32,605b45a4d25f287719a41696,605ba0e615b7fdea0911edb5,United States,Midwest,13 or older,no,2021-03-24_16h29.31.043,empathy_intonation_perc,2020.2.10,MacIntel,60,,,,,,,,,,1,castilian,1,1,1.707015,0,28,28,20,1,21,./stim/wavs/andalusian_match_interrogative-partial-wh_Por-que-abre-el-regalo.wav,./stim/wavs/argentine_match_interrogative-partial-wh_Por-que-abre-el-regalo.wav,./stim/wavs/castilian_match_interrogative-partial-wh_Por-que-abre-el-regalo.wav,./stim/wavs/chilean_match_interrogative-partial-wh_Por-que-abre-el-regalo.wav,./stim/wavs/cuban_match_interrogative-partial-wh_Por-que-abre-el-regalo.wav,./stim/wavs/mexican_match_interrogative-partial-wh_Por-que-abre-el-regalo.wav,./stim/wavs/peruvian_match_interrogative-partial-wh_Por-que-abre-el-regalo.wav,./stim/wavs/puertorican_match_interrogative-partial-wh_Por-que-abre-el-regalo.wav,,,,,,,,,,,,,,,,,,,,,,,,,,,,,,,,,,,,,,,,,,,,,,,,,,,,,,,,
,,,,,,,6026adf0704fd23a5dc0ee32,605b45a4d25f287719a41696,605ba0e615b7fdea0911edb5,United States,Midwest,13 or older,no,2021-03-24_16h29.31.043,empathy_intonation_perc,2020.2.10,MacIntel,60,,,,,,,,,,1,argentine,1,1,1.683265,0,29,29,26,1,27,./stim/wavs/andalusian_match_interrogative-total-yn_David-leia-el-libro.wav,./stim/wavs/argentine_match_interrogative-total-yn_David-leia-el-libro.wav,./stim/wavs/castilian_match_interrogative-total-yn_David-leia-el-libro.wav,./stim/wavs/chilean_match_interrogative-total-yn_David-leia-el-libro.wav,./stim/wavs/cuban_match_interrogative-total-yn_David-leia-el-libro.wav,./stim/wavs/mexican_match_interrogative-total-yn_David-leia-el-libro.wav,./stim/wavs/peruvian_match_interrogative-total-yn_David-leia-el-libro.wav,./stim/wavs/puertorican_match_interrogative-total-yn_David-leia-el-libro.wav,,,,,,,,,,,,,,,,,,,,,,,,,,,,,,,,,,,,,,,,,,,,,,,,,,,,,,,,
,,,,,,,6026adf0704fd23a5dc0ee32,605b45a4d25f287719a41696,605ba0e615b7fdea0911edb5,United States,Midwest,13 or older,no,2021-03-24_16h29.31.043,empathy_intonation_perc,2020.2.10,MacIntel,60,,,,,,,,,,0,cuban,0,1,1.6709,0,30,30,32,1,33,./stim/wavs/andalusian_mismatch_declarative-broad-focus_El-bebe-comia-muy-bien.wav,./stim/wavs/argentine_mismatch_declarative-broad-focus_El-bebe-comia-muy-bien.wav,./stim/wavs/castilian_mismatch_declarative-broad-focus_El-bebe-comia-muy-bien.wav,./stim/wavs/chilean_mismatch_declarative-broad-focus_El-bebe-comia-muy-bien.wav,./stim/wavs/cuban_mismatch_declarative-broad-focus_El-bebe-comia-muy-bien.wav,./stim/wavs/mexican_mismatch_declarative-broad-focus_El-bebe-comia-muy-bien.wav,./stim/wavs/peruvian_mismatch_declarative-broad-focus_El-bebe-comia-muy-bien.wav,./stim/wavs/puertorican_mismatch_declarative-broad-focus_El-bebe-comia-muy-bien.wav,,,,,,,,,,,,,,,,,,,,,,,,,,,,,,,,,,,,,,,,,,,,,,,,,,,,,,,,
,,,,,,,6026adf0704fd23a5dc0ee32,605b45a4d25f287719a41696,605ba0e615b7fdea0911edb5,United States,Midwest,13 or older,no,2021-03-24_16h29.31.043,empathy_intonation_perc,2020.2.10,MacIntel,60,,,,,,,,,,0,mexican,0,1,2.199285,0,31,31,41,1,42,./stim/wavs/andalusian_mismatch_declarative-narrow-focus_El-hombre-mira-la-luna.wav,./stim/wavs/argentine_mismatch_declarative-narrow-focus_El-hombre-mira-la-luna.wav,./stim/wavs/castilian_mismatch_declarative-narrow-focus_El-hombre-mira-la-luna.wav,./stim/wavs/chilean_mismatch_declarative-narrow-focus_El-hombre-mira-la-luna.wav,./stim/wavs/cuban_mismatch_declarative-narrow-focus_El-hombre-mira-la-luna.wav,./stim/wavs/mexican_mismatch_declarative-narrow-focus_El-hombre-mira-la-luna.wav,./stim/wavs/peruvian_mismatch_declarative-narrow-focus_El-hombre-mira-la-luna.wav,./stim/wavs/puertorican_mismatch_declarative-narrow-focus_El-hombre-mira-la-luna.wav,,,,,,,,,,,,,,,,,,,,,,,,,,,,,,,,,,,,,,,,,,,,,,,,,,,,,,,,
,,,,,,,6026adf0704fd23a5dc0ee32,605b45a4d25f287719a41696,605ba0e615b7fdea0911edb5,United States,Midwest,13 or older,no,2021-03-24_16h29.31.043,empathy_intonation_perc,2020.2.10,MacIntel,60,,,,,,,,,,1,chilean,1,1,1.78974,0,32,32,19,1,20,./stim/wavs/andalusian_match_interrogative-partial-wh_Cuando-vendia-el-carro.wav,./stim/wavs/argentine_match_interrogative-partial-wh_Cuando-vendia-el-carro.wav,./stim/wavs/castilian_match_interrogative-partial-wh_Cuando-vendia-el-carro.wav,./stim/wavs/chilean_match_interrogative-partial-wh_Cuando-vendia-el-carro.wav,./stim/wavs/cuban_match_interrogative-partial-wh_Cuando-vendia-el-carro.wav,./stim/wavs/mexican_match_interrogative-partial-wh_Cuando-vendia-el-carro.wav,./stim/wavs/peruvian_match_interrogative-partial-wh_Cuando-vendia-el-carro.wav,./stim/wavs/puertorican_match_interrogative-partial-wh_Cuando-vendia-el-carro.wav,,,,,,,,,,,,,,,,,,,,,,,,,,,,,,,,,,,,,,,,,,,,,,,,,,,,,,,,
,,,,,,,6026adf0704fd23a5dc0ee32,605b45a4d25f287719a41696,605ba0e615b7fdea0911edb5,United States,Midwest,13 or older,no,2021-03-24_16h29.31.043,empathy_intonation_perc,2020.2.10,MacIntel,60,,,,,,,,,,0,castilian,0,1,2.411395,0,33,33,14,1,15,./stim/wavs/andalusian_match_declarative-narrow-focus_Mariano-habla-del-tiempo.wav,./stim/wavs/argentine_match_declarative-narrow-focus_Mariano-habla-del-tiempo.wav,./stim/wavs/castilian_match_declarative-narrow-focus_Mariano-habla-del-tiempo.wav,./stim/wavs/chilean_match_declarative-narrow-focus_Mariano-habla-del-tiempo.wav,./stim/wavs/cuban_match_declarative-narrow-focus_Mariano-habla-del-tiempo.wav,./stim/wavs/mexican_match_declarative-narrow-focus_Mariano-habla-del-tiempo.wav,./stim/wavs/peruvian_match_declarative-narrow-focus_Mariano-habla-del-tiempo.wav,./stim/wavs/puertorican_match_declarative-narrow-focus_Mariano-habla-del-tiempo.wav,,,,,,,,,,,,,,,,,,,,,,,,,,,,,,,,,,,,,,,,,,,,,,,,,,,,,,,,
,,,,,,,6026adf0704fd23a5dc0ee32,605b45a4d25f287719a41696,605ba0e615b7fdea0911edb5,United States,Midwest,13 or older,no,2021-03-24_16h29.31.043,empathy_intonation_perc,2020.2.10,MacIntel,60,,,,,,,,,,1,cuban,0,0,1.973245,0,34,34,29,1,30,./stim/wavs/andalusian_match_interrogative-total-yn_Maria-bebe-el-vino.wav,./stim/wavs/argentine_match_interrogative-total-yn_Maria-bebe-el-vino.wav,./stim/wavs/castilian_match_interrogative-total-yn_Maria-bebe-el-vino.wav,./stim/wavs/chilean_match_interrogative-total-yn_Maria-bebe-el-vino.wav,./stim/wavs/cuban_match_interrogative-total-yn_Maria-bebe-el-vino.wav,./stim/wavs/mexican_match_interrogative-total-yn_Maria-bebe-el-vino.wav,./stim/wavs/peruvian_match_interrogative-total-yn_Maria-bebe-el-vino.wav,./stim/wavs/puertorican_match_interrogative-total-yn_Maria-bebe-el-vino.wav,,,,,,,,,,,,,,,,,,,,,,,,,,,,,,,,,,,,,,,,,,,,,,,,,,,,,,,,
,,,,,,,6026adf0704fd23a5dc0ee32,605b45a4d25f287719a41696,605ba0e615b7fdea0911edb5,United States,Midwest,13 or older,no,2021-03-24_16h29.31.043,empathy_intonation_perc,2020.2.10,MacIntel,60,,,,,,,,,,1,argentine,0,0,2.060135,0,35,35,30,1,31,./stim/wavs/andalusian_match_interrogative-total-yn_Mariano-habla-del-tiempo.wav,./stim/wavs/argentine_match_interrogative-total-yn_Mariano-habla-del-tiempo.wav,./stim/wavs/castilian_match_interrogative-total-yn_Mariano-habla-del-tiempo.wav,./stim/wavs/chilean_match_interrogative-total-yn_Mariano-habla-del-tiempo.wav,./stim/wavs/cuban_match_interrogative-total-yn_Mariano-habla-del-tiempo.wav,./stim/wavs/mexican_match_interrogative-total-yn_Mariano-habla-del-tiempo.wav,./stim/wavs/peruvian_match_interrogative-total-yn_Mariano-habla-del-tiempo.wav,./stim/wavs/puertorican_match_interrogative-total-yn_Mariano-habla-del-tiempo.wav,,,,,,,,,,,,,,,,,,,,,,,,,,,,,,,,,,,,,,,,,,,,,,,,,,,,,,,,
,,,,,,,6026adf0704fd23a5dc0ee32,605b45a4d25f287719a41696,605ba0e615b7fdea0911edb5,United States,Midwest,13 or older,no,2021-03-24_16h29.31.043,empathy_intonation_perc,2020.2.10,MacIntel,60,,,,,,,,,,0,cuban,0,1,1.662785,0,36,36,36,1,37,./stim/wavs/andalusian_mismatch_declarative-broad-focus_La-nina-lava-el-plato.wav,./stim/wavs/argentine_mismatch_declarative-broad-focus_La-nina-lava-el-plato.wav,./stim/wavs/castilian_mismatch_declarative-broad-focus_La-nina-lava-el-plato.wav,./stim/wavs/chilean_mismatch_declarative-broad-focus_La-nina-lava-el-plato.wav,./stim/wavs/cuban_mismatch_declarative-broad-focus_La-nina-lava-el-plato.wav,./stim/wavs/mexican_mismatch_declarative-broad-focus_La-nina-lava-el-plato.wav,./stim/wavs/peruvian_mismatch_declarative-broad-focus_La-nina-lava-el-plato.wav,./stim/wavs/puertorican_mismatch_declarative-broad-focus_La-nina-lava-el-plato.wav,,,,,,,,,,,,,,,,,,,,,,,,,,,,,,,,,,,,,,,,,,,,,,,,,,,,,,,,
,,,,,,,6026adf0704fd23a5dc0ee32,605b45a4d25f287719a41696,605ba0e615b7fdea0911edb5,United States,Midwest,13 or older,no,2021-03-24_16h29.31.043,empathy_intonation_perc,2020.2.10,MacIntel,60,,,,,,,,,,0,chilean,0,1,1.774305,0,37,37,45,1,46,./stim/wavs/andalusian_mismatch_declarative-narrow-focus_Mi-madre-come-la-fruta.wav,./stim/wavs/argentine_mismatch_declarative-narrow-focus_Mi-madre-come-la-fruta.wav,./stim/wavs/castilian_mismatch_declarative-narrow-focus_Mi-madre-come-la-fruta.wav,./stim/wavs/chilean_mismatch_declarative-narrow-focus_Mi-madre-come-la-fruta.wav,./stim/wavs/cuban_mismatch_declarative-narrow-focus_Mi-madre-come-la-fruta.wav,./stim/wavs/mexican_mismatch_declarative-narrow-focus_Mi-madre-come-la-fruta.wav,./stim/wavs/peruvian_mismatch_declarative-narrow-focus_Mi-madre-come-la-fruta.wav,./stim/wavs/puertorican_mismatch_declarative-narrow-focus_Mi-madre-come-la-fruta.wav,,,,,,,,,,,,,,,,,,,,,,,,,,,,,,,,,,,,,,,,,,,,,,,,,,,,,,,,
,,,,,,,6026adf0704fd23a5dc0ee32,605b45a4d25f287719a41696,605ba0e615b7fdea0911edb5,United States,Midwest,13 or older,no,2021-03-24_16h29.31.043,empathy_intonation_perc,2020.2.10,MacIntel,60,,,,,,,,,,1,cuban,1,1,1.753495,0,38,38,22,1,23,./stim/wavs/andalusian_match_interrogative-partial-wh_Por-que-hablaba-del-agua.wav,./stim/wavs/argentine_match_interrogative-partial-wh_Por-que-hablaba-del-agua.wav,./stim/wavs/castilian_match_interrogative-partial-wh_Por-que-hablaba-del-agua.wav,./stim/wavs/chilean_match_interrogative-partial-wh_Por-que-hablaba-del-agua.wav,./stim/wavs/cuban_match_interrogative-partial-wh_Por-que-hablaba-del-agua.wav,./stim/wavs/mexican_match_interrogative-partial-wh_Por-que-hablaba-del-agua.wav,./stim/wavs/peruvian_match_interrogative-partial-wh_Por-que-hablaba-del-agua.wav,./stim/wavs/puertorican_match_interrogative-partial-wh_Por-que-hablaba-del-agua.wav,,,,,,,,,,,,,,,,,,,,,,,,,,,,,,,,,,,,,,,,,,,,,,,,,,,,,,,,
,,,,,,,6026adf0704fd23a5dc0ee32,605b45a4d25f287719a41696,605ba0e615b7fdea0911edb5,United States,Midwest,13 or older,no,2021-03-24_16h29.31.043,empathy_intonation_perc,2020.2.10,MacIntel,60,,,,,,,,,,0,peruvian,0,1,1.853605,0,39,39,2,1,3,./stim/wavs/andalusian_match_declarative-broad-focus_David-leia-el-libro.wav,./stim/wavs/argentine_match_declarative-broad-focus_David-leia-el-libro.wav,./stim/wavs/castilian_match_declarative-broad-focus_David-leia-el-libro.wav,./stim/wavs/chilean_match_declarative-broad-focus_David-leia-el-libro.wav,./stim/wavs/cuban_match_declarative-broad-focus_David-leia-el-libro.wav,./stim/wavs/mexican_match_declarative-broad-focus_David-leia-el-libro.wav,./stim/wavs/peruvian_match_declarative-broad-focus_David-leia-el-libro.wav,./stim/wavs/puertorican_match_declarative-broad-focus_David-leia-el-libro.wav,,,,,,,,,,,,,,,,,,,,,,,,,,,,,,,,,,,,,,,,,,,,,,,,,,,,,,,,
,,,,,,,6026adf0704fd23a5dc0ee32,605b45a4d25f287719a41696,605ba0e615b7fdea0911edb5,United States,Midwest,13 or older,no,2021-03-24_16h29.31.043,empathy_intonation_perc,2020.2.10,MacIntel,60,,,,,,,,,,1,argentine,1,1,1.524575,0,40,40,54,1,55,./stim/wavs/andalusian_mismatch_interrogative-partial-wh_Por-que-venia-del-lago.wav,./stim/wavs/argentine_mismatch_interrogative-partial-wh_Por-que-venia-del-lago.wav,./stim/wavs/castilian_mismatch_interrogative-partial-wh_Por-que-venia-del-lago.wav,./stim/wavs/chilean_mismatch_interrogative-partial-wh_Por-que-venia-del-lago.wav,./stim/wavs/cuban_mismatch_interrogative-partial-wh_Por-que-venia-del-lago.wav,./stim/wavs/mexican_mismatch_interrogative-partial-wh_Por-que-venia-del-lago.wav,./stim/wavs/peruvian_mismatch_interrogative-partial-wh_Por-que-venia-del-lago.wav,./stim/wavs/puertorican_mismatch_interrogative-partial-wh_Por-que-venia-del-lago.wav,,,,,,,,,,,,,,,,,,,,,,,,,,,,,,,,,,,,,,,,,,,,,,,,,,,,,,,,
,,,,,,,6026adf0704fd23a5dc0ee32,605b45a4d25f287719a41696,605ba0e615b7fdea0911edb5,United States,Midwest,13 or older,no,2021-03-24_16h29.31.043,empathy_intonation_perc,2020.2.10,MacIntel,60,,,,,,,,,,0,argentine,0,1,2.126585,0,41,41,3,1,4,./stim/wavs/andalusian_match_declarative-broad-focus_Emilio-ama-la-marcha.wav,./stim/wavs/argentine_match_declarative-broad-focus_Emilio-ama-la-marcha.wav,./stim/wavs/castilian_match_declarative-broad-focus_Emilio-ama-la-marcha.wav,./stim/wavs/chilean_match_declarative-broad-focus_Emilio-ama-la-marcha.wav,./stim/wavs/cuban_match_declarative-broad-focus_Emilio-ama-la-marcha.wav,./stim/wavs/mexican_match_declarative-broad-focus_Emilio-ama-la-marcha.wav,./stim/wavs/peruvian_match_declarative-broad-focus_Emilio-ama-la-marcha.wav,./stim/wavs/puertorican_match_declarative-broad-focus_Emilio-ama-la-marcha.wav,,,,,,,,,,,,,,,,,,,,,,,,,,,,,,,,,,,,,,,,,,,,,,,,,,,,,,,,
,,,,,,,6026adf0704fd23a5dc0ee32,605b45a4d25f287719a41696,605ba0e615b7fdea0911edb5,United States,Midwest,13 or older,no,2021-03-24_16h29.31.043,empathy_intonation_perc,2020.2.10,MacIntel,60,,,,,,,,,,0,chilean,0,1,2.14145,0,42,42,34,1,35,./stim/wavs/andalusian_mismatch_declarative-broad-focus_El-nino-oye-el-rio.wav,./stim/wavs/argentine_mismatch_declarative-broad-focus_El-nino-oye-el-rio.wav,./stim/wavs/castilian_mismatch_declarative-broad-focus_El-nino-oye-el-rio.wav,./stim/wavs/chilean_mismatch_declarative-broad-focus_El-nino-oye-el-rio.wav,./stim/wavs/cuban_mismatch_declarative-broad-focus_El-nino-oye-el-rio.wav,./stim/wavs/mexican_mismatch_declarative-broad-focus_El-nino-oye-el-rio.wav,./stim/wavs/peruvian_mismatch_declarative-broad-focus_El-nino-oye-el-rio.wav,./stim/wavs/puertorican_mismatch_declarative-broad-focus_El-nino-oye-el-rio.wav,,,,,,,,,,,,,,,,,,,,,,,,,,,,,,,,,,,,,,,,,,,,,,,,,,,,,,,,
,,,,,,,6026adf0704fd23a5dc0ee32,605b45a4d25f287719a41696,605ba0e615b7fdea0911edb5,United States,Midwest,13 or older,no,2021-03-24_16h29.31.043,empathy_intonation_perc,2020.2.10,MacIntel,60,,,,,,,,,,1,mexican,1,1,1.83089,0,43,43,18,1,19,./stim/wavs/andalusian_match_interrogative-partial-wh_Cuando-lleva-el-abrigo.wav,./stim/wavs/argentine_match_interrogative-partial-wh_Cuando-lleva-el-abrigo.wav,./stim/wavs/castilian_match_interrogative-partial-wh_Cuando-lleva-el-abrigo.wav,./stim/wavs/chilean_match_interrogative-partial-wh_Cuando-lleva-el-abrigo.wav,./stim/wavs/cuban_match_interrogative-partial-wh_Cuando-lleva-el-abrigo.wav,./stim/wavs/mexican_match_interrogative-partial-wh_Cuando-lleva-el-abrigo.wav,./stim/wavs/peruvian_match_interrogative-partial-wh_Cuando-lleva-el-abrigo.wav,./stim/wavs/puertorican_match_interrogative-partial-wh_Cuando-lleva-el-abrigo.wav,,,,,,,,,,,,,,,,,,,,,,,,,,,,,,,,,,,,,,,,,,,,,,,,,,,,,,,,
,,,,,,,6026adf0704fd23a5dc0ee32,605b45a4d25f287719a41696,605ba0e615b7fdea0911edb5,United States,Midwest,13 or older,no,2021-03-24_16h29.31.043,empathy_intonation_perc,2020.2.10,MacIntel,60,,,,,,,,,,0,peruvian,0,1,2.05714,0,44,44,47,1,48,./stim/wavs/andalusian_mismatch_declarative-narrow-focus_Mi-tia-odia-la-lluvia.wav,./stim/wavs/argentine_mismatch_declarative-narrow-focus_Mi-tia-odia-la-lluvia.wav,./stim/wavs/castilian_mismatch_declarative-narrow-focus_Mi-tia-odia-la-lluvia.wav,./stim/wavs/chilean_mismatch_declarative-narrow-focus_Mi-tia-odia-la-lluvia.wav,./stim/wavs/cuban_mismatch_declarative-narrow-focus_Mi-tia-odia-la-lluvia.wav,./stim/wavs/mexican_mismatch_declarative-narrow-focus_Mi-tia-odia-la-lluvia.wav,./stim/wavs/peruvian_mismatch_declarative-narrow-focus_Mi-tia-odia-la-lluvia.wav,./stim/wavs/puertorican_mismatch_declarative-narrow-focus_Mi-tia-odia-la-lluvia.wav,,,,,,,,,,,,,,,,,,,,,,,,,,,,,,,,,,,,,,,,,,,,,,,,,,,,,,,,
,,,,,,,6026adf0704fd23a5dc0ee32,605b45a4d25f287719a41696,605ba0e615b7fdea0911edb5,United States,Midwest,13 or older,no,2021-03-24_16h29.31.043,empathy_intonation_perc,2020.2.10,MacIntel,60,,,,,,,,,,1,castilian,1,1,1.68374,0,45,45,50,1,51,./stim/wavs/andalusian_mismatch_interrogative-partial-wh_Cuando-miraba-la-luna.wav,./stim/wavs/argentine_mismatch_interrogative-partial-wh_Cuando-miraba-la-luna.wav,./stim/wavs/castilian_mismatch_interrogative-partial-wh_Cuando-miraba-la-luna.wav,./stim/wavs/chilean_mismatch_interrogative-partial-wh_Cuando-miraba-la-luna.wav,./stim/wavs/cuban_mismatch_interrogative-partial-wh_Cuando-miraba-la-luna.wav,./stim/wavs/mexican_mismatch_interrogative-partial-wh_Cuando-miraba-la-luna.wav,./stim/wavs/peruvian_mismatch_interrogative-partial-wh_Cuando-miraba-la-luna.wav,./stim/wavs/puertorican_mismatch_interrogative-partial-wh_Cuando-miraba-la-luna.wav,,,,,,,,,,,,,,,,,,,,,,,,,,,,,,,,,,,,,,,,,,,,,,,,,,,,,,,,
,,,,,,,6026adf0704fd23a5dc0ee32,605b45a4d25f287719a41696,605ba0e615b7fdea0911edb5,United States,Midwest,13 or older,no,2021-03-24_16h29.31.043,empathy_intonation_perc,2020.2.10,MacIntel,60,,,,,,,,,,1,peruvian,0,0,2.56255,0,46,46,52,1,53,./stim/wavs/andalusian_mismatch_interrogative-partial-wh_Por-que-odiaba-la-lluvia.wav,./stim/wavs/argentine_mismatch_interrogative-partial-wh_Por-que-odiaba-la-lluvia.wav,./stim/wavs/castilian_mismatch_interrogative-partial-wh_Por-que-odiaba-la-lluvia.wav,./stim/wavs/chilean_mismatch_interrogative-partial-wh_Por-que-odiaba-la-lluvia.wav,./stim/wavs/cuban_mismatch_interrogative-partial-wh_Por-que-odiaba-la-lluvia.wav,./stim/wavs/mexican_mismatch_interrogative-partial-wh_Por-que-odiaba-la-lluvia.wav,./stim/wavs/peruvian_mismatch_interrogative-partial-wh_Por-que-odiaba-la-lluvia.wav,./stim/wavs/puertorican_mismatch_interrogative-partial-wh_Por-que-odiaba-la-lluvia.wav,,,,,,,,,,,,,,,,,,,,,,,,,,,,,,,,,,,,,,,,,,,,,,,,,,,,,,,,
,,,,,,,6026adf0704fd23a5dc0ee32,605b45a4d25f287719a41696,605ba0e615b7fdea0911edb5,United States,Midwest,13 or older,no,2021-03-24_16h29.31.043,empathy_intonation_perc,2020.2.10,MacIntel,60,,,,,,,,,,0,cuban,0,1,2.55412,0,47,47,4,1,5,./stim/wavs/andalusian_match_declarative-broad-focus_Manuela-vende-el-carro.wav,./stim/wavs/argentine_match_declarative-broad-focus_Manuela-vende-el-carro.wav,./stim/wavs/castilian_match_declarative-broad-focus_Manuela-vende-el-carro.wav,./stim/wavs/chilean_match_declarative-broad-focus_Manuela-vende-el-carro.wav,./stim/wavs/cuban_match_declarative-broad-focus_Manuela-vende-el-carro.wav,./stim/wavs/mexican_match_declarative-broad-focus_Manuela-vende-el-carro.wav,./stim/wavs/peruvian_match_declarative-broad-focus_Manuela-vende-el-carro.wav,./stim/wavs/puertorican_match_declarative-broad-focus_Manuela-vende-el-carro.wav,,,,,,,,,,,,,,,,,,,,,,,,,,,,,,,,,,,,,,,,,,,,,,,,,,,,,,,,
,,,,,,,6026adf0704fd23a5dc0ee32,605b45a4d25f287719a41696,605ba0e615b7fdea0911edb5,United States,Midwest,13 or older,no,2021-03-24_16h29.31.043,empathy_intonation_perc,2020.2.10,MacIntel,60,,,,,,,,,,0,cuban,0,1,1.9951,0,48,48,10,1,11,./stim/wavs/andalusian_match_declarative-narrow-focus_David-leia-el-libro.wav,./stim/wavs/argentine_match_declarative-narrow-focus_David-leia-el-libro.wav,./stim/wavs/castilian_match_declarative-narrow-focus_David-leia-el-libro.wav,./stim/wavs/chilean_match_declarative-narrow-focus_David-leia-el-libro.wav,./stim/wavs/cuban_match_declarative-narrow-focus_David-leia-el-libro.wav,./stim/wavs/mexican_match_declarative-narrow-focus_David-leia-el-libro.wav,./stim/wavs/peruvian_match_declarative-narrow-focus_David-leia-el-libro.wav,./stim/wavs/puertorican_match_declarative-narrow-focus_David-leia-el-libro.wav,,,,,,,,,,,,,,,,,,,,,,,,,,,,,,,,,,,,,,,,,,,,,,,,,,,,,,,,
,,,,,,,6026adf0704fd23a5dc0ee32,605b45a4d25f287719a41696,605ba0e615b7fdea0911edb5,United States,Midwest,13 or older,no,2021-03-24_16h29.31.043,empathy_intonation_perc,2020.2.10,MacIntel,60,,,,,,,,,,0,andalusian,1,0,3.62893,0,49,49,40,1,41,./stim/wavs/andalusian_mismatch_declarative-narrow-focus_El-bebe-comia-muy-bien.wav,./stim/wavs/argentine_mismatch_declarative-narrow-focus_El-bebe-comia-muy-bien.wav,./stim/wavs/castilian_mismatch_declarative-narrow-focus_El-bebe-comia-muy-bien.wav,./stim/wavs/chilean_mismatch_declarative-narrow-focus_El-bebe-comia-muy-bien.wav,./stim/wavs/cuban_mismatch_declarative-narrow-focus_El-bebe-comia-muy-bien.wav,./stim/wavs/mexican_mismatch_declarative-narrow-focus_El-bebe-comia-muy-bien.wav,./stim/wavs/peruvian_mismatch_declarative-narrow-focus_El-bebe-comia-muy-bien.wav,./stim/wavs/puertorican_mismatch_declarative-narrow-focus_El-bebe-comia-muy-bien.wav,,,,,,,,,,,,,,,,,,,,,,,,,,,,,,,,,,,,,,,,,,,,,,,,,,,,,,,,
,,,,,,,6026adf0704fd23a5dc0ee32,605b45a4d25f287719a41696,605ba0e615b7fdea0911edb5,United States,Midwest,13 or older,no,2021-03-24_16h29.31.043,empathy_intonation_perc,2020.2.10,MacIntel,60,,,,,,,,,,0,puertorican,0,1,1.95869,0,50,50,37,1,38,./stim/wavs/andalusian_mismatch_declarative-broad-focus_Mi-madre-come-la-fruta.wav,./stim/wavs/argentine_mismatch_declarative-broad-focus_Mi-madre-come-la-fruta.wav,./stim/wavs/castilian_mismatch_declarative-broad-focus_Mi-madre-come-la-fruta.wav,./stim/wavs/chilean_mismatch_declarative-broad-focus_Mi-madre-come-la-fruta.wav,./stim/wavs/cuban_mismatch_declarative-broad-focus_Mi-madre-come-la-fruta.wav,./stim/wavs/mexican_mismatch_declarative-broad-focus_Mi-madre-come-la-fruta.wav,./stim/wavs/peruvian_mismatch_declarative-broad-focus_Mi-madre-come-la-fruta.wav,./stim/wavs/puertorican_mismatch_declarative-broad-focus_Mi-madre-come-la-fruta.wav,,,,,,,,,,,,,,,,,,,,,,,,,,,,,,,,,,,,,,,,,,,,,,,,,,,,,,,,
,,,,,,,6026adf0704fd23a5dc0ee32,605b45a4d25f287719a41696,605ba0e615b7fdea0911edb5,United States,Midwest,13 or older,no,2021-03-24_16h29.31.043,empathy_intonation_perc,2020.2.10,MacIntel,60,,,,,,,,,,0,argentine,0,1,1.999885,0,51,51,9,1,10,./stim/wavs/andalusian_match_declarative-narrow-focus_Daniel-iba-a-Bolivia.wav,./stim/wavs/argentine_match_declarative-narrow-focus_Daniel-iba-a-Bolivia.wav,./stim/wavs/castilian_match_declarative-narrow-focus_Daniel-iba-a-Bolivia.wav,./stim/wavs/chilean_match_declarative-narrow-focus_Daniel-iba-a-Bolivia.wav,./stim/wavs/cuban_match_declarative-narrow-focus_Daniel-iba-a-Bolivia.wav,./stim/wavs/mexican_match_declarative-narrow-focus_Daniel-iba-a-Bolivia.wav,./stim/wavs/peruvian_match_declarative-narrow-focus_Daniel-iba-a-Bolivia.wav,./stim/wavs/puertorican_match_declarative-narrow-focus_Daniel-iba-a-Bolivia.wav,,,,,,,,,,,,,,,,,,,,,,,,,,,,,,,,,,,,,,,,,,,,,,,,,,,,,,,,
,,,,,,,6026adf0704fd23a5dc0ee32,605b45a4d25f287719a41696,605ba0e615b7fdea0911edb5,United States,Midwest,13 or older,no,2021-03-24_16h29.31.043,empathy_intonation_perc,2020.2.10,MacIntel,60,,,,,,,,,,1,mexican,1,1,1.832925,0,52,52,62,1,63,./stim/wavs/andalusian_mismatch_interrogative-total-yn_Mi-novio-viene-del-lago.wav,./stim/wavs/argentine_mismatch_interrogative-total-yn_Mi-novio-viene-del-lago.wav,./stim/wavs/castilian_mismatch_interrogative-total-yn_Mi-novio-viene-del-lago.wav,./stim/wavs/chilean_mismatch_interrogative-total-yn_Mi-novio-viene-del-lago.wav,./stim/wavs/cuban_mismatch_interrogative-total-yn_Mi-novio-viene-del-lago.wav,./stim/wavs/mexican_mismatch_interrogative-total-yn_Mi-novio-viene-del-lago.wav,./stim/wavs/peruvian_mismatch_interrogative-total-yn_Mi-novio-viene-del-lago.wav,./stim/wavs/puertorican_mismatch_interrogative-total-yn_Mi-novio-viene-del-lago.wav,,,,,,,,,,,,,,,,,,,,,,,,,,,,,,,,,,,,,,,,,,,,,,,,,,,,,,,,
,,,,,,,6026adf0704fd23a5dc0ee32,605b45a4d25f287719a41696,605ba0e615b7fdea0911edb5,United States,Midwest,13 or older,no,2021-03-24_16h29.31.043,empathy_intonation_perc,2020.2.10,MacIntel,60,,,,,,,,,,0,castilian,0,1,2.130565,0,53,53,43,1,44,./stim/wavs/andalusian_mismatch_declarative-narrow-focus_La-maestra-vive-en-Paris.wav,./stim/wavs/argentine_mismatch_declarative-narrow-focus_La-maestra-vive-en-Paris.wav,./stim/wavs/castilian_mismatch_declarative-narrow-focus_La-maestra-vive-en-Paris.wav,./stim/wavs/chilean_mismatch_declarative-narrow-focus_La-maestra-vive-en-Paris.wav,./stim/wavs/cuban_mismatch_declarative-narrow-focus_La-maestra-vive-en-Paris.wav,./stim/wavs/mexican_mismatch_declarative-narrow-focus_La-maestra-vive-en-Paris.wav,./stim/wavs/peruvian_mismatch_declarative-narrow-focus_La-maestra-vive-en-Paris.wav,./stim/wavs/puertorican_mismatch_declarative-narrow-focus_La-maestra-vive-en-Paris.wav,,,,,,,,,,,,,,,,,,,,,,,,,,,,,,,,,,,,,,,,,,,,,,,,,,,,,,,,
,,,,,,,6026adf0704fd23a5dc0ee32,605b45a4d25f287719a41696,605ba0e615b7fdea0911edb5,United States,Midwest,13 or older,no,2021-03-24_16h29.31.043,empathy_intonation_perc,2020.2.10,MacIntel,60,,,,,,,,,,0,peruvian,0,1,2.28012,0,54,54,12,1,13,./stim/wavs/andalusian_match_declarative-narrow-focus_Manuela-vende-el-carro.wav,./stim/wavs/argentine_match_declarative-narrow-focus_Manuela-vende-el-carro.wav,./stim/wavs/castilian_match_declarative-narrow-focus_Manuela-vende-el-carro.wav,./stim/wavs/chilean_match_declarative-narrow-focus_Manuela-vende-el-carro.wav,./stim/wavs/cuban_match_declarative-narrow-focus_Manuela-vende-el-carro.wav,./stim/wavs/mexican_match_declarative-narrow-focus_Manuela-vende-el-carro.wav,./stim/wavs/peruvian_match_declarative-narrow-focus_Manuela-vende-el-carro.wav,./stim/wavs/puertorican_match_declarative-narrow-focus_Manuela-vende-el-carro.wav,,,,,,,,,,,,,,,,,,,,,,,,,,,,,,,,,,,,,,,,,,,,,,,,,,,,,,,,
,,,,,,,6026adf0704fd23a5dc0ee32,605b45a4d25f287719a41696,605ba0e615b7fdea0911edb5,United States,Midwest,13 or older,no,2021-03-24_16h29.31.043,empathy_intonation_perc,2020.2.10,MacIntel,60,,,,,,,,,,1,castilian,1,1,2.473535,0,55,55,59,1,60,./stim/wavs/andalusian_mismatch_interrogative-total-yn_La-maestra-vive-en-Paris.wav,./stim/wavs/argentine_mismatch_interrogative-total-yn_La-maestra-vive-en-Paris.wav,./stim/wavs/castilian_mismatch_interrogative-total-yn_La-maestra-vive-en-Paris.wav,./stim/wavs/chilean_mismatch_interrogative-total-yn_La-maestra-vive-en-Paris.wav,./stim/wavs/cuban_mismatch_interrogative-total-yn_La-maestra-vive-en-Paris.wav,./stim/wavs/mexican_mismatch_interrogative-total-yn_La-maestra-vive-en-Paris.wav,./stim/wavs/peruvian_mismatch_interrogative-total-yn_La-maestra-vive-en-Paris.wav,./stim/wavs/puertorican_mismatch_interrogative-total-yn_La-maestra-vive-en-Paris.wav,,,,,,,,,,,,,,,,,,,,,,,,,,,,,,,,,,,,,,,,,,,,,,,,,,,,,,,,
,,,,,,,6026adf0704fd23a5dc0ee32,605b45a4d25f287719a41696,605ba0e615b7fdea0911edb5,United States,Midwest,13 or older,no,2021-03-24_16h29.31.043,empathy_intonation_perc,2020.2.10,MacIntel,60,,,,,,,,,,0,argentine,0,1,2.255985,0,56,56,39,1,40,./stim/wavs/andalusian_mismatch_declarative-broad-focus_Mi-tia-odia-la-lluvia.wav,./stim/wavs/argentine_mismatch_declarative-broad-focus_Mi-tia-odia-la-lluvia.wav,./stim/wavs/castilian_mismatch_declarative-broad-focus_Mi-tia-odia-la-lluvia.wav,./stim/wavs/chilean_mismatch_declarative-broad-focus_Mi-tia-odia-la-lluvia.wav,./stim/wavs/cuban_mismatch_declarative-broad-focus_Mi-tia-odia-la-lluvia.wav,./stim/wavs/mexican_mismatch_declarative-broad-focus_Mi-tia-odia-la-lluvia.wav,./stim/wavs/peruvian_mismatch_declarative-broad-focus_Mi-tia-odia-la-lluvia.wav,./stim/wavs/puertorican_mismatch_declarative-broad-focus_Mi-tia-odia-la-lluvia.wav,,,,,,,,,,,,,,,,,,,,,,,,,,,,,,,,,,,,,,,,,,,,,,,,,,,,,,,,
,,,,,,,6026adf0704fd23a5dc0ee32,605b45a4d25f287719a41696,605ba0e615b7fdea0911edb5,United States,Midwest,13 or older,no,2021-03-24_16h29.31.043,empathy_intonation_perc,2020.2.10,MacIntel,60,,,,,,,,,,0,mexican,0,1,1.72436,0,57,57,33,1,34,./stim/wavs/andalusian_mismatch_declarative-broad-focus_El-hombre-mira-la-luna.wav,./stim/wavs/argentine_mismatch_declarative-broad-focus_El-hombre-mira-la-luna.wav,./stim/wavs/castilian_mismatch_declarative-broad-focus_El-hombre-mira-la-luna.wav,./stim/wavs/chilean_mismatch_declarative-broad-focus_El-hombre-mira-la-luna.wav,./stim/wavs/cuban_mismatch_declarative-broad-focus_El-hombre-mira-la-luna.wav,./stim/wavs/mexican_mismatch_declarative-broad-focus_El-hombre-mira-la-luna.wav,./stim/wavs/peruvian_mismatch_declarative-broad-focus_El-hombre-mira-la-luna.wav,./stim/wavs/puertorican_mismatch_declarative-broad-focus_El-hombre-mira-la-luna.wav,,,,,,,,,,,,,,,,,,,,,,,,,,,,,,,,,,,,,,,,,,,,,,,,,,,,,,,,
,,,,,,,6026adf0704fd23a5dc0ee32,605b45a4d25f287719a41696,605ba0e615b7fdea0911edb5,United States,Midwest,13 or older,no,2021-03-24_16h29.31.043,empathy_intonation_perc,2020.2.10,MacIntel,60,,,,,,,,,,1,castilian,1,1,1.839415,0,58,58,57,1,58,./stim/wavs/andalusian_mismatch_interrogative-total-yn_El-hombre-mira-la-luna.wav,./stim/wavs/argentine_mismatch_interrogative-total-yn_El-hombre-mira-la-luna.wav,./stim/wavs/castilian_mismatch_interrogative-total-yn_El-hombre-mira-la-luna.wav,./stim/wavs/chilean_mismatch_interrogative-total-yn_El-hombre-mira-la-luna.wav,./stim/wavs/cuban_mismatch_interrogative-total-yn_El-hombre-mira-la-luna.wav,./stim/wavs/mexican_mismatch_interrogative-total-yn_El-hombre-mira-la-luna.wav,./stim/wavs/peruvian_mismatch_interrogative-total-yn_El-hombre-mira-la-luna.wav,./stim/wavs/puertorican_mismatch_interrogative-total-yn_El-hombre-mira-la-luna.wav,,,,,,,,,,,,,,,,,,,,,,,,,,,,,,,,,,,,,,,,,,,,,,,,,,,,,,,,
,,,,,,,6026adf0704fd23a5dc0ee32,605b45a4d25f287719a41696,605ba0e615b7fdea0911edb5,United States,Midwest,13 or older,no,2021-03-24_16h29.31.043,empathy_intonation_perc,2020.2.10,MacIntel,60,,,,,,,,,,1,peruvian,0,0,2.43829,0,59,59,51,1,52,./stim/wavs/andalusian_mismatch_interrogative-partial-wh_Por-que-desayuna-muy-bien.wav,./stim/wavs/argentine_mismatch_interrogative-partial-wh_Por-que-desayuna-muy-bien.wav,./stim/wavs/castilian_mismatch_interrogative-partial-wh_Por-que-desayuna-muy-bien.wav,./stim/wavs/chilean_mismatch_interrogative-partial-wh_Por-que-desayuna-muy-bien.wav,./stim/wavs/cuban_mismatch_interrogative-partial-wh_Por-que-desayuna-muy-bien.wav,./stim/wavs/mexican_mismatch_interrogative-partial-wh_Por-que-desayuna-muy-bien.wav,./stim/wavs/peruvian_mismatch_interrogative-partial-wh_Por-que-desayuna-muy-bien.wav,./stim/wavs/puertorican_mismatch_interrogative-partial-wh_Por-que-desayuna-muy-bien.wav,,,,,,,,,,,,,,,,,,,,,,,,,,,,,,,,,,,,,,,,,,,,,,,,,,,,,,,,
,,,,,,,6026adf0704fd23a5dc0ee32,605b45a4d25f287719a41696,605ba0e615b7fdea0911edb5,United States,Midwest,13 or older,no,2021-03-24_16h29.31.043,empathy_intonation_perc,2020.2.10,MacIntel,60,,,,,,,,,,1,cuban,0,0,1.91489,0,60,60,53,1,54,./stim/wavs/andalusian_mismatch_interrogative-partial-wh_Por-que-oia-el-rio.wav,./stim/wavs/argentine_mismatch_interrogative-partial-wh_Por-que-oia-el-rio.wav,./stim/wavs/castilian_mismatch_interrogative-partial-wh_Por-que-oia-el-rio.wav,./stim/wavs/chilean_mismatch_interrogative-partial-wh_Por-que-oia-el-rio.wav,./stim/wavs/cuban_mismatch_interrogative-partial-wh_Por-que-oia-el-rio.wav,./stim/wavs/mexican_mismatch_interrogative-partial-wh_Por-que-oia-el-rio.wav,./stim/wavs/peruvian_mismatch_interrogative-partial-wh_Por-que-oia-el-rio.wav,./stim/wavs/puertorican_mismatch_interrogative-partial-wh_Por-que-oia-el-rio.wav,,,,,,,,,,,,,,,,,,,,,,,,,,,,,,,,,,,,,,,,,,,,,,,,,,,,,,,,
,,,,,,,6026adf0704fd23a5dc0ee32,605b45a4d25f287719a41696,605ba0e615b7fdea0911edb5,United States,Midwest,13 or older,no,2021-03-24_16h29.31.043,empathy_intonation_perc,2020.2.10,MacIntel,60,,,,,,,,,,0,andalusian,0,1,1.68992,0,61,61,15,1,16,./stim/wavs/andalusian_match_declarative-narrow-focus_Marta-abre-el-regalo.wav,./stim/wavs/argentine_match_declarative-narrow-focus_Marta-abre-el-regalo.wav,./stim/wavs/castilian_match_declarative-narrow-focus_Marta-abre-el-regalo.wav,./stim/wavs/chilean_match_declarative-narrow-focus_Marta-abre-el-regalo.wav,./stim/wavs/cuban_match_declarative-narrow-focus_Marta-abre-el-regalo.wav,./stim/wavs/mexican_match_declarative-narrow-focus_Marta-abre-el-regalo.wav,./stim/wavs/peruvian_match_declarative-narrow-focus_Marta-abre-el-regalo.wav,./stim/wavs/puertorican_match_declarative-narrow-focus_Marta-abre-el-regalo.wav,,,,,,,,,,,,,,,,,,,,,,,,,,,,,,,,,,,,,,,,,,,,,,,,,,,,,,,,
,,,,,,,6026adf0704fd23a5dc0ee32,605b45a4d25f287719a41696,605ba0e615b7fdea0911edb5,United States,Midwest,13 or older,no,2021-03-24_16h29.31.043,empathy_intonation_perc,2020.2.10,MacIntel,60,,,,,,,,,,1,argentine,1,1,1.709185,0,62,62,58,1,59,./stim/wavs/andalusian_mismatch_interrogative-total-yn_El-nino-oye-el-rio.wav,./stim/wavs/argentine_mismatch_interrogative-total-yn_El-nino-oye-el-rio.wav,./stim/wavs/castilian_mismatch_interrogative-total-yn_El-nino-oye-el-rio.wav,./stim/wavs/chilean_mismatch_interrogative-total-yn_El-nino-oye-el-rio.wav,./stim/wavs/cuban_mismatch_interrogative-total-yn_El-nino-oye-el-rio.wav,./stim/wavs/mexican_mismatch_interrogative-total-yn_El-nino-oye-el-rio.wav,./stim/wavs/peruvian_mismatch_interrogative-total-yn_El-nino-oye-el-rio.wav,./stim/wavs/puertorican_mismatch_interrogative-total-yn_El-nino-oye-el-rio.wav,,,,,,,,,,,,,,,,,,,,,,,,,,,,,,,,,,,,,,,,,,,,,,,,,,,,,,,,
,,,,,,,6026adf0704fd23a5dc0ee32,605b45a4d25f287719a41696,605ba0e615b7fdea0911edb5,United States,Midwest,13 or older,no,2021-03-24_16h29.31.043,empathy_intonation_perc,2020.2.10,MacIntel,60,,,,,,,,,,1,puertorican,0,0,2.112205,0,63,63,61,1,62,./stim/wavs/andalusian_mismatch_interrogative-total-yn_Mi-madre-come-la-fruta.wav,./stim/wavs/argentine_mismatch_interrogative-total-yn_Mi-madre-come-la-fruta.wav,./stim/wavs/castilian_mismatch_interrogative-total-yn_Mi-madre-come-la-fruta.wav,./stim/wavs/chilean_mismatch_interrogative-total-yn_Mi-madre-come-la-fruta.wav,./stim/wavs/cuban_mismatch_interrogative-total-yn_Mi-madre-come-la-fruta.wav,./stim/wavs/mexican_mismatch_interrogative-total-yn_Mi-madre-come-la-fruta.wav,./stim/wavs/peruvian_mismatch_interrogative-total-yn_Mi-madre-come-la-fruta.wav,./stim/wavs/puertorican_mismatch_interrogative-total-yn_Mi-madre-come-la-fruta.wav,,,,,,,,,,,,,,,,,,,,,,,,,,,,,,,,,,,,,,,,,,,,,,,,,,,,,,,,
,,,,,,,6026adf0704fd23a5dc0ee32,605b45a4d25f287719a41696,605ba0e615b7fdea0911edb5,United States,Midwest,13 or older,no,2021-03-24_16h29.31.043,empathy_intonation_perc,2020.2.10,MacIntel,60,,,,,,,,,,,,,,,,,,,,,,,,,,,,,h,1,9.72365,0,0,0,0,1,,,,,,,,,,,,,,,,,,,,,,,,,,,,,,,,,,,,,,,,,,,,,,,,
,,,,,"Great! Now we will move on. The next task consists of about 60 trials, in each of which you will see a string of letters. 
  
  Your task is to decide whether this is a real Spanish word or not.",(press the spacebar to continue),6026adf0704fd23a5dc0ee32,605b45a4d25f287719a41696,605ba0e615b7fdea0911edb5,United States,Midwest,13 or older,no,2021-03-24_16h29.31.043,empathy_intonation_perc,2020.2.10,MacIntel,60,,,,,,,,,,,,,,,,,,,,,,,,,,,,,,,,,,,,,0,0,0,0,1,,,,,,,,,,,,,,,,,,,,,,,,,,,,,,,,,,,,,,,,,,,
,,,,,"If you think it is an existing Spanish word, you type '1' (for 'REAL'), and if you think it is not an existing Spanish word, you type '0' (for 'FAKE').",(press the spacebar to continue),6026adf0704fd23a5dc0ee32,605b45a4d25f287719a41696,605ba0e615b7fdea0911edb5,United States,Midwest,13 or older,no,2021-03-24_16h29.31.043,empathy_intonation_perc,2020.2.10,MacIntel,60,,,,,,,,,,,,,,,,,,,,,,,,,,,,,,,,,,,,,0,1,1,1,1,,,,,,,,,,,,,,,,,,,,,,,,,,,,,,,,,,,,,,,,,,,
,,,,,"If you are sure that the word exists, even though you dont know its exact meaning, you may still respond '1' (REAL). 
  
  But if you are not sure if it is an existing word, you should respond '0' (FAKE).
  
  Let's do a practice round...",(press the spacebar to continue),6026adf0704fd23a5dc0ee32,605b45a4d25f287719a41696,605ba0e615b7fdea0911edb5,United States,Midwest,13 or older,no,2021-03-24_16h29.31.043,empathy_intonation_perc,2020.2.10,MacIntel,60,,,,,,,,,,,,,,,,,,,,,,,,,,,,,,,,,,,,,0,2,2,2,1,,,,,,,,,,,,,,,,,,,,,,,,,,,,,,,,,,,,,,,,,,,
,,,,,,,6026adf0704fd23a5dc0ee32,605b45a4d25f287719a41696,605ba0e615b7fdea0911edb5,United States,Midwest,13 or older,no,2021-03-24_16h29.31.043,empathy_intonation_perc,2020.2.10,MacIntel,60,,,,,,,,,,0,,,,,,,,,,,,,,,,,,,,,,,,,,,,,,,,1,0,1.794295,0,0,0,0,1,0,depiste,REAL,FAKE,,,,,,,,,,,,,,,,,,,,,,,,,,,,,,,
,,,,,,,6026adf0704fd23a5dc0ee32,605b45a4d25f287719a41696,605ba0e615b7fdea0911edb5,United States,Midwest,13 or older,no,2021-03-24_16h29.31.043,empathy_intonation_perc,2020.2.10,MacIntel,60,,,,,,,,,,1,,,,,,,,,,,,,,,,,,,,,,,,,,,,,,,,1,1,2.41064,0,1,1,1,1,0,s,REAL,FAKE,,,,,,,,,,,,,,,,,,,,,,,,,,,,,,,
,,,,,,,6026adf0704fd23a5dc0ee32,605b45a4d25f287719a41696,605ba0e615b7fdea0911edb5,United States,Midwest,13 or older,no,2021-03-24_16h29.31.043,empathy_intonation_perc,2020.2.10,MacIntel,60,,,,,,,,,,0,,,,,,,,,,,,,,,,,,,,,,,,,,,,,,,,1,0,2.02755,0,2,2,2,1,0,con,REAL,FAKE,,,,,,,,,,,,,,,,,,,,,,,,,,,,,,,
,,,,,,,6026adf0704fd23a5dc0ee32,605b45a4d25f287719a41696,605ba0e615b7fdea0911edb5,United States,Midwest,13 or older,no,2021-03-24_16h29.31.043,empathy_intonation_perc,2020.2.10,MacIntel,60,,,,,,,,,,0,,,,,,,,,,,,,,,,,,,,,,,,,,,,,,,,0,1,1.590175,0,3,3,3,1,0,calpar,REAL,FAKE,,,,,,,,,,,,,,,,,,,,,,,,,,,,,,,
,,,,,,,6026adf0704fd23a5dc0ee32,605b45a4d25f287719a41696,605ba0e615b7fdea0911edb5,United States,Midwest,13 or older,no,2021-03-24_16h29.31.043,empathy_intonation_perc,2020.2.10,MacIntel,60,,,,,,,,,,0,,,,,,,,,,,,,,,,,,,,,,,,,,,,,,,,0,1,1.317035,0,4,4,4,1,0,joten,REAL,FAKE,,,,,,,,,,,,,,,,,,,,,,,,,,,,,,,
,,,,,,,6026adf0704fd23a5dc0ee32,605b45a4d25f287719a41696,605ba0e615b7fdea0911edb5,United States,Midwest,13 or older,no,2021-03-24_16h29.31.043,empathy_intonation_perc,2020.2.10,MacIntel,60,,,,,,,,,,1,,,,,,,,,,,,,,,,,,,,,,,,,,,,,,,,0,0,1.97035,0,5,5,5,1,0,sacapuntas,REAL,FAKE,,,,,,,,,,,,,,,,,,,,,,,,,,,,,,,
,,,,,,,6026adf0704fd23a5dc0ee32,605b45a4d25f287719a41696,605ba0e615b7fdea0911edb5,United States,Midwest,13 or older,no,2021-03-24_16h29.31.043,empathy_intonation_perc,2020.2.10,MacIntel,60,,,,,,,,,,0,,,,,,,,,,,,,,,,,,,,,,,,,,,,,,,,1,0,1.28573,0,6,6,6,1,0,priba,REAL,FAKE,,,,,,,,,,,,,,,,,,,,,,,,,,,,,,,
,,,,,,,6026adf0704fd23a5dc0ee32,605b45a4d25f287719a41696,605ba0e615b7fdea0911edb5,United States,Midwest,13 or older,no,2021-03-24_16h29.31.043,empathy_intonation_perc,2020.2.10,MacIntel,60,,,,,,,,,,0,,,,,,,,,,,,,,,,,,,,,,,,,,,,,,,,0,1,1.571735,0,7,7,7,1,0,pelasula,REAL,FAKE,,,,,,,,,,,,,,,,,,,,,,,,,,,,,,,
,,,,,,,6026adf0704fd23a5dc0ee32,605b45a4d25f287719a41696,605ba0e615b7fdea0911edb5,United States,Midwest,13 or older,no,2021-03-24_16h29.31.043,empathy_intonation_perc,2020.2.10,MacIntel,60,,,,,,,,,,1,,,,,,,,,,,,,,,,,,,,,,,,,,,,,,,,0,0,1.956125,0,8,8,8,1,0,bien,REAL,FAKE,,,,,,,,,,,,,,,,,,,,,,,,,,,,,,,
,,,,,,,6026adf0704fd23a5dc0ee32,605b45a4d25f287719a41696,605ba0e615b7fdea0911edb5,United States,Midwest,13 or older,no,2021-03-24_16h29.31.043,empathy_intonation_perc,2020.2.10,MacIntel,60,,,,,,,,,,1,,,,,,,,,,,,,,,,,,,,,,,,,,,,,,,,1,1,1.405095,0,9,9,9,1,0,casa,REAL,FAKE,,,,,,,,,,,,,,,,,,,,,,,,,,,,,,,
,,,,,,,6026adf0704fd23a5dc0ee32,605b45a4d25f287719a41696,605ba0e615b7fdea0911edb5,United States,Midwest,13 or older,no,2021-03-24_16h29.31.043,empathy_intonation_perc,2020.2.10,MacIntel,60,,,,,,,,,,0,,,,,,,,,,,,,,,,,,,,,,,,,,,,,,,,1,0,1.04091,0,10,10,10,1,0,lejo,REAL,FAKE,,,,,,,,,,,,,,,,,,,,,,,,,,,,,,,
,,,,,,,6026adf0704fd23a5dc0ee32,605b45a4d25f287719a41696,605ba0e615b7fdea0911edb5,United States,Midwest,13 or older,no,2021-03-24_16h29.31.043,empathy_intonation_perc,2020.2.10,MacIntel,60,,,,,,,,,,0,,,,,,,,,,,,,,,,,,,,,,,,,,,,,,,,1,0,0.98399,0,11,11,11,1,0,pretantas,REAL,FAKE,,,,,,,,,,,,,,,,,,,,,,,,,,,,,,,
,,,,,,,6026adf0704fd23a5dc0ee32,605b45a4d25f287719a41696,605ba0e615b7fdea0911edb5,United States,Midwest,13 or older,no,2021-03-24_16h29.31.043,empathy_intonation_perc,2020.2.10,MacIntel,60,,,,,,,,,,0,,,,,,,,,,,,,,,,,,,,,,,,,,,,,,,,,,,,,,,,66,hacido,,,1,0,1.237365,0,0,0,65,1,REAL,FAKE,,,,,,,,,,,,,,,,,,,,,
,,,,,,,6026adf0704fd23a5dc0ee32,605b45a4d25f287719a41696,605ba0e615b7fdea0911edb5,United States,Midwest,13 or older,no,2021-03-24_16h29.31.043,empathy_intonation_perc,2020.2.10,MacIntel,60,,,,,,,,,,1,,,,,,,,,,,,,,,,,,,,,,,,,,,,,,,,,,,,,,,,80,hormiga,,,1,1,1.37281,0,1,1,79,1,REAL,FAKE,,,,,,,,,,,,,,,,,,,,,
,,,,,,,6026adf0704fd23a5dc0ee32,605b45a4d25f287719a41696,605ba0e615b7fdea0911edb5,United States,Midwest,13 or older,no,2021-03-24_16h29.31.043,empathy_intonation_perc,2020.2.10,MacIntel,60,,,,,,,,,,0,,,,,,,,,,,,,,,,,,,,,,,,,,,,,,,,,,,,,,,,27,acutacin,,,1,0,1.524665,0,2,2,26,1,REAL,FAKE,,,,,,,,,,,,,,,,,,,,,
,,,,,,,6026adf0704fd23a5dc0ee32,605b45a4d25f287719a41696,605ba0e615b7fdea0911edb5,United States,Midwest,13 or older,no,2021-03-24_16h29.31.043,empathy_intonation_perc,2020.2.10,MacIntel,60,,,,,,,,,,1,,,,,,,,,,,,,,,,,,,,,,,,,,,,,,,,,,,,,,,,39,torpe,,,0,0,1.306955,0,3,3,38,1,REAL,FAKE,,,,,,,,,,,,,,,,,,,,,
,,,,,,,6026adf0704fd23a5dc0ee32,605b45a4d25f287719a41696,605ba0e615b7fdea0911edb5,United States,Midwest,13 or older,no,2021-03-24_16h29.31.043,empathy_intonation_perc,2020.2.10,MacIntel,60,,,,,,,,,,1,,,,,,,,,,,,,,,,,,,,,,,,,,,,,,,,,,,,,,,,57,tacao,,,1,1,1.059545,0,4,4,56,1,REAL,FAKE,,,,,,,,,,,,,,,,,,,,,
,,,,,,,6026adf0704fd23a5dc0ee32,605b45a4d25f287719a41696,605ba0e615b7fdea0911edb5,United States,Midwest,13 or older,no,2021-03-24_16h29.31.043,empathy_intonation_perc,2020.2.10,MacIntel,60,,,,,,,,,,1,,,,,,,,,,,,,,,,,,,,,,,,,,,,,,,,,,,,,,,,9,hacha,,,1,1,1.203165,0,5,5,8,1,REAL,FAKE,,,,,,,,,,,,,,,,,,,,,
,,,,,,,6026adf0704fd23a5dc0ee32,605b45a4d25f287719a41696,605ba0e615b7fdea0911edb5,United States,Midwest,13 or older,no,2021-03-24_16h29.31.043,empathy_intonation_perc,2020.2.10,MacIntel,60,,,,,,,,,,1,,,,,,,,,,,,,,,,,,,,,,,,,,,,,,,,,,,,,,,,73,hervidor,,,0,0,1.052685,0,6,6,72,1,REAL,FAKE,,,,,,,,,,,,,,,,,,,,,
,,,,,,,6026adf0704fd23a5dc0ee32,605b45a4d25f287719a41696,605ba0e615b7fdea0911edb5,United States,Midwest,13 or older,no,2021-03-24_16h29.31.043,empathy_intonation_perc,2020.2.10,MacIntel,60,,,,,,,,,,1,,,,,,,,,,,,,,,,,,,,,,,,,,,,,,,,,,,,,,,,24,ltigo,,,1,1,0.995455,0,7,7,23,1,REAL,FAKE,,,,,,,,,,,,,,,,,,,,,
,,,,,,,6026adf0704fd23a5dc0ee32,605b45a4d25f287719a41696,605ba0e615b7fdea0911edb5,United States,Midwest,13 or older,no,2021-03-24_16h29.31.043,empathy_intonation_perc,2020.2.10,MacIntel,60,,,,,,,,,,1,,,,,,,,,,,,,,,,,,,,,,,,,,,,,,,,,,,,,,,,22,lacayo,,,1,1,1.207895,0,8,8,21,1,REAL,FAKE,,,,,,,,,,,,,,,,,,,,,
,,,,,,,6026adf0704fd23a5dc0ee32,605b45a4d25f287719a41696,605ba0e615b7fdea0911edb5,United States,Midwest,13 or older,no,2021-03-24_16h29.31.043,empathy_intonation_perc,2020.2.10,MacIntel,60,,,,,,,,,,1,,,,,,,,,,,,,,,,,,,,,,,,,,,,,,,,,,,,,,,,3,pulmones,,,1,1,2.54626,0,9,9,2,1,REAL,FAKE,,,,,,,,,,,,,,,,,,,,,
,,,,,,,6026adf0704fd23a5dc0ee32,605b45a4d25f287719a41696,605ba0e615b7fdea0911edb5,United States,Midwest,13 or older,no,2021-03-24_16h29.31.043,empathy_intonation_perc,2020.2.10,MacIntel,60,,,,,,,,,,1,,,,,,,,,,,,,,,,,,,,,,,,,,,,,,,,,,,,,,,,11,cenefa,,,1,1,1.135725,0,10,10,10,1,REAL,FAKE,,,,,,,,,,,,,,,,,,,,,
,,,,,,,6026adf0704fd23a5dc0ee32,605b45a4d25f287719a41696,605ba0e615b7fdea0911edb5,United States,Midwest,13 or older,no,2021-03-24_16h29.31.043,empathy_intonation_perc,2020.2.10,MacIntel,60,,,,,,,,,,1,,,,,,,,,,,,,,,,,,,,,,,,,,,,,,,,,,,,,,,,81,pozo,,,0,0,0.8451,0,11,11,80,1,REAL,FAKE,,,,,,,,,,,,,,,,,,,,,
,,,,,,,6026adf0704fd23a5dc0ee32,605b45a4d25f287719a41696,605ba0e615b7fdea0911edb5,United States,Midwest,13 or older,no,2021-03-24_16h29.31.043,empathy_intonation_perc,2020.2.10,MacIntel,60,,,,,,,,,,1,,,,,,,,,,,,,,,,,,,,,,,,,,,,,,,,,,,,,,,,78,frondoso,,,0,0,0.97806,0,12,12,77,1,REAL,FAKE,,,,,,,,,,,,,,,,,,,,,
,,,,,,,6026adf0704fd23a5dc0ee32,605b45a4d25f287719a41696,605ba0e615b7fdea0911edb5,United States,Midwest,13 or older,no,2021-03-24_16h29.31.043,empathy_intonation_perc,2020.2.10,MacIntel,60,,,,,,,,,,0,,,,,,,,,,,,,,,,,,,,,,,,,,,,,,,,,,,,,,,,16,abracer,,,1,0,0.86669,0,13,13,15,1,REAL,FAKE,,,,,,,,,,,,,,,,,,,,,
,,,,,,,6026adf0704fd23a5dc0ee32,605b45a4d25f287719a41696,605ba0e615b7fdea0911edb5,United States,Midwest,13 or older,no,2021-03-24_16h29.31.043,empathy_intonation_perc,2020.2.10,MacIntel,60,,,,,,,,,,1,,,,,,,,,,,,,,,,,,,,,,,,,,,,,,,,,,,,,,,,34,aviso,,,1,1,1.221145,0,14,14,33,1,REAL,FAKE,,,,,,,,,,,,,,,,,,,,,
,,,,,,,6026adf0704fd23a5dc0ee32,605b45a4d25f287719a41696,605ba0e615b7fdea0911edb5,United States,Midwest,13 or older,no,2021-03-24_16h29.31.043,empathy_intonation_perc,2020.2.10,MacIntel,60,,,,,,,,,,1,,,,,,,,,,,,,,,,,,,,,,,,,,,,,,,,,,,,,,,,88,acantilado,,,0,0,1.696675,0,15,15,87,1,REAL,FAKE,,,,,,,,,,,,,,,,,,,,,
,,,,,,,6026adf0704fd23a5dc0ee32,605b45a4d25f287719a41696,605ba0e615b7fdea0911edb5,United States,Midwest,13 or older,no,2021-03-24_16h29.31.043,empathy_intonation_perc,2020.2.10,MacIntel,60,,,,,,,,,,0,,,,,,,,,,,,,,,,,,,,,,,,,,,,,,,,,,,,,,,,30,alardio,,,1,0,3.25012,0,16,16,29,1,REAL,FAKE,,,,,,,,,,,,,,,,,,,,,
,,,,,,,6026adf0704fd23a5dc0ee32,605b45a4d25f287719a41696,605ba0e615b7fdea0911edb5,United States,Midwest,13 or older,no,2021-03-24_16h29.31.043,empathy_intonation_perc,2020.2.10,MacIntel,60,,,,,,,,,,0,,,,,,,,,,,,,,,,,,,,,,,,,,,,,,,,,,,,,,,,21,capillo,,,1,0,0.8888,0,17,17,20,1,REAL,FAKE,,,,,,,,,,,,,,,,,,,,,
,,,,,,,6026adf0704fd23a5dc0ee32,605b45a4d25f287719a41696,605ba0e615b7fdea0911edb5,United States,Midwest,13 or older,no,2021-03-24_16h29.31.043,empathy_intonation_perc,2020.2.10,MacIntel,60,,,,,,,,,,1,,,,,,,,,,,,,,,,,,,,,,,,,,,,,,,,,,,,,,,,76,atar,,,0,0,0.877335,0,18,18,75,1,REAL,FAKE,,,,,,,,,,,,,,,,,,,,,
,,,,,,,6026adf0704fd23a5dc0ee32,605b45a4d25f287719a41696,605ba0e615b7fdea0911edb5,United States,Midwest,13 or older,no,2021-03-24_16h29.31.043,empathy_intonation_perc,2020.2.10,MacIntel,60,,,,,,,,,,0,,,,,,,,,,,,,,,,,,,,,,,,,,,,,,,,,,,,,,,,42,cadallo,,,1,0,0.944365,0,19,19,41,1,REAL,FAKE,,,,,,,,,,,,,,,,,,,,,
,,,,,,,6026adf0704fd23a5dc0ee32,605b45a4d25f287719a41696,605ba0e615b7fdea0911edb5,United States,Midwest,13 or older,no,2021-03-24_16h29.31.043,empathy_intonation_perc,2020.2.10,MacIntel,60,,,,,,,,,,0,,,,,,,,,,,,,,,,,,,,,,,,,,,,,,,,,,,,,,,,79,tropaje,,,1,0,0.812045,0,20,20,78,1,REAL,FAKE,,,,,,,,,,,,,,,,,,,,,
,,,,,,,6026adf0704fd23a5dc0ee32,605b45a4d25f287719a41696,605ba0e615b7fdea0911edb5,United States,Midwest,13 or older,no,2021-03-24_16h29.31.043,empathy_intonation_perc,2020.2.10,MacIntel,60,,,,,,,,,,1,,,,,,,,,,,,,,,,,,,,,,,,,,,,,,,,,,,,,,,,36,loro,,,1,1,0.632935,0,21,21,35,1,REAL,FAKE,,,,,,,,,,,,,,,,,,,,,
,,,,,,,6026adf0704fd23a5dc0ee32,605b45a4d25f287719a41696,605ba0e615b7fdea0911edb5,United States,Midwest,13 or older,no,2021-03-24_16h29.31.043,empathy_intonation_perc,2020.2.10,MacIntel,60,,,,,,,,,,1,,,,,,,,,,,,,,,,,,,,,,,,,,,,,,,,,,,,,,,,65,bizcocho,,,0,0,0.903285,0,22,22,64,1,REAL,FAKE,,,,,,,,,,,,,,,,,,,,,
,,,,,,,6026adf0704fd23a5dc0ee32,605b45a4d25f287719a41696,605ba0e615b7fdea0911edb5,United States,Midwest,13 or older,no,2021-03-24_16h29.31.043,empathy_intonation_perc,2020.2.10,MacIntel,60,,,,,,,,,,1,,,,,,,,,,,,,,,,,,,,,,,,,,,,,,,,,,,,,,,,48,ladrn,,,1,1,0.929705,0,23,23,47,1,REAL,FAKE,,,,,,,,,,,,,,,,,,,,,
,,,,,,,6026adf0704fd23a5dc0ee32,605b45a4d25f287719a41696,605ba0e615b7fdea0911edb5,United States,Midwest,13 or older,no,2021-03-24_16h29.31.043,empathy_intonation_perc,2020.2.10,MacIntel,60,,,,,,,,,,0,,,,,,,,,,,,,,,,,,,,,,,,,,,,,,,,,,,,,,,,50,flamida,,,1,0,1.36134,0,24,24,49,1,REAL,FAKE,,,,,,,,,,,,,,,,,,,,,
,,,,,,,6026adf0704fd23a5dc0ee32,605b45a4d25f287719a41696,605ba0e615b7fdea0911edb5,United States,Midwest,13 or older,no,2021-03-24_16h29.31.043,empathy_intonation_perc,2020.2.10,MacIntel,60,,,,,,,,,,1,,,,,,,,,,,,,,,,,,,,,,,,,,,,,,,,,,,,,,,,2,pellizcar,,,0,0,1.111215,0,25,25,1,1,REAL,FAKE,,,,,,,,,,,,,,,,,,,,,
,,,,,,,6026adf0704fd23a5dc0ee32,605b45a4d25f287719a41696,605ba0e615b7fdea0911edb5,United States,Midwest,13 or older,no,2021-03-24_16h29.31.043,empathy_intonation_perc,2020.2.10,MacIntel,60,,,,,,,,,,0,,,,,,,,,,,,,,,,,,,,,,,,,,,,,,,,,,,,,,,,74,cintro,,,0,1,1.58948,0,26,26,73,1,REAL,FAKE,,,,,,,,,,,,,,,,,,,,,
,,,,,,,6026adf0704fd23a5dc0ee32,605b45a4d25f287719a41696,605ba0e615b7fdea0911edb5,United States,Midwest,13 or older,no,2021-03-24_16h29.31.043,empathy_intonation_perc,2020.2.10,MacIntel,60,,,,,,,,,,1,,,,,,,,,,,,,,,,,,,,,,,,,,,,,,,,,,,,,,,,56,musgo,,,1,1,1.452185,0,27,27,55,1,REAL,FAKE,,,,,,,,,,,,,,,,,,,,,
,,,,,,,6026adf0704fd23a5dc0ee32,605b45a4d25f287719a41696,605ba0e615b7fdea0911edb5,United States,Midwest,13 or older,no,2021-03-24_16h29.31.043,empathy_intonation_perc,2020.2.10,MacIntel,60,,,,,,,,,,1,,,,,,,,,,,,,,,,,,,,,,,,,,,,,,,,,,,,,,,,59,besar,,,1,1,0.66202,0,28,28,58,1,REAL,FAKE,,,,,,,,,,,,,,,,,,,,,
,,,,,,,6026adf0704fd23a5dc0ee32,605b45a4d25f287719a41696,605ba0e615b7fdea0911edb5,United States,Midwest,13 or older,no,2021-03-24_16h29.31.043,empathy_intonation_perc,2020.2.10,MacIntel,60,,,,,,,,,,1,,,,,,,,,,,,,,,,,,,,,,,,,,,,,,,,,,,,,,,,68,alegre,,,1,1,1.58239,0,29,29,67,1,REAL,FAKE,,,,,,,,,,,,,,,,,,,,,
,,,,,,,6026adf0704fd23a5dc0ee32,605b45a4d25f287719a41696,605ba0e615b7fdea0911edb5,United States,Midwest,13 or older,no,2021-03-24_16h29.31.043,empathy_intonation_perc,2020.2.10,MacIntel,60,,,,,,,,,,1,,,,,,,,,,,,,,,,,,,,,,,,,,,,,,,,,,,,,,,,31,pandilla,,,1,1,1.03385,0,30,30,30,1,REAL,FAKE,,,,,,,,,,,,,,,,,,,,,
,,,,,,,6026adf0704fd23a5dc0ee32,605b45a4d25f287719a41696,605ba0e615b7fdea0911edb5,United States,Midwest,13 or older,no,2021-03-24_16h29.31.043,empathy_intonation_perc,2020.2.10,MacIntel,60,,,,,,,,,,1,,,,,,,,,,,,,,,,,,,,,,,,,,,,,,,,,,,,,,,,25,bisagra,,,0,0,0.78952,0,31,31,24,1,REAL,FAKE,,,,,,,,,,,,,,,,,,,,,
,,,,,,,6026adf0704fd23a5dc0ee32,605b45a4d25f287719a41696,605ba0e615b7fdea0911edb5,United States,Midwest,13 or older,no,2021-03-24_16h29.31.043,empathy_intonation_perc,2020.2.10,MacIntel,60,,,,,,,,,,1,,,,,,,,,,,,,,,,,,,,,,,,,,,,,,,,,,,,,,,,40,alfombra,,,0,0,0.97456,0,32,32,39,1,REAL,FAKE,,,,,,,,,,,,,,,,,,,,,
,,,,,,,6026adf0704fd23a5dc0ee32,605b45a4d25f287719a41696,605ba0e615b7fdea0911edb5,United States,Midwest,13 or older,no,2021-03-24_16h29.31.043,empathy_intonation_perc,2020.2.10,MacIntel,60,,,,,,,,,,1,,,,,,,,,,,,,,,,,,,,,,,,,,,,,,,,,,,,,,,,46,martillo,,,1,1,0.77684,0,33,33,45,1,REAL,FAKE,,,,,,,,,,,,,,,,,,,,,
,,,,,,,6026adf0704fd23a5dc0ee32,605b45a4d25f287719a41696,605ba0e615b7fdea0911edb5,United States,Midwest,13 or older,no,2021-03-24_16h29.31.043,empathy_intonation_perc,2020.2.10,MacIntel,60,,,,,,,,,,1,,,,,,,,,,,,,,,,,,,,,,,,,,,,,,,,,,,,,,,,67,cabello,,,1,1,0.553175,0,34,34,66,1,REAL,FAKE,,,,,,,,,,,,,,,,,,,,,
,,,,,,,6026adf0704fd23a5dc0ee32,605b45a4d25f287719a41696,605ba0e615b7fdea0911edb5,United States,Midwest,13 or older,no,2021-03-24_16h29.31.043,empathy_intonation_perc,2020.2.10,MacIntel,60,,,,,,,,,,1,,,,,,,,,,,,,,,,,,,,,,,,,,,,,,,,,,,,,,,,44,cuchara,,,1,1,1.65768,0,35,35,43,1,REAL,FAKE,,,,,,,,,,,,,,,,,,,,,
,,,,,,,6026adf0704fd23a5dc0ee32,605b45a4d25f287719a41696,605ba0e615b7fdea0911edb5,United States,Midwest,13 or older,no,2021-03-24_16h29.31.043,empathy_intonation_perc,2020.2.10,MacIntel,60,,,,,,,,,,1,,,,,,,,,,,,,,,,,,,,,,,,,,,,,,,,,,,,,,,,12,asesinato,,,0,0,0.959185,0,36,36,11,1,REAL,FAKE,,,,,,,,,,,,,,,,,,,,,
,,,,,,,6026adf0704fd23a5dc0ee32,605b45a4d25f287719a41696,605ba0e615b7fdea0911edb5,United States,Midwest,13 or older,no,2021-03-24_16h29.31.043,empathy_intonation_perc,2020.2.10,MacIntel,60,,,,,,,,,,1,,,,,,,,,,,,,,,,,,,,,,,,,,,,,,,,,,,,,,,,15,regar,,,1,1,1.48985,0,37,37,14,1,REAL,FAKE,,,,,,,,,,,,,,,,,,,,,
,,,,,,,6026adf0704fd23a5dc0ee32,605b45a4d25f287719a41696,605ba0e615b7fdea0911edb5,United States,Midwest,13 or older,no,2021-03-24_16h29.31.043,empathy_intonation_perc,2020.2.10,MacIntel,60,,,,,,,,,,1,,,,,,,,,,,,,,,,,,,,,,,,,,,,,,,,,,,,,,,,49,ganar,,,0,0,1.306605,0,38,38,48,1,REAL,FAKE,,,,,,,,,,,,,,,,,,,,,
,,,,,,,6026adf0704fd23a5dc0ee32,605b45a4d25f287719a41696,605ba0e615b7fdea0911edb5,United States,Midwest,13 or older,no,2021-03-24_16h29.31.043,empathy_intonation_perc,2020.2.10,MacIntel,60,,,,,,,,,,1,,,,,,,,,,,,,,,,,,,,,,,,,,,,,,,,,,,,,,,,14,yunque,,,0,0,1.00404,0,39,39,13,1,REAL,FAKE,,,,,,,,,,,,,,,,,,,,,
,,,,,,,6026adf0704fd23a5dc0ee32,605b45a4d25f287719a41696,605ba0e615b7fdea0911edb5,United States,Midwest,13 or older,no,2021-03-24_16h29.31.043,empathy_intonation_perc,2020.2.10,MacIntel,60,,,,,,,,,,1,,,,,,,,,,,,,,,,,,,,,,,,,,,,,,,,,,,,,,,,37,granuja,,,0,0,1.411735,0,40,40,36,1,REAL,FAKE,,,,,,,,,,,,,,,,,,,,,
,,,,,,,6026adf0704fd23a5dc0ee32,605b45a4d25f287719a41696,605ba0e615b7fdea0911edb5,United States,Midwest,13 or older,no,2021-03-24_16h29.31.043,empathy_intonation_perc,2020.2.10,MacIntel,60,,,,,,,,,,0,,,,,,,,,,,,,,,,,,,,,,,,,,,,,,,,,,,,,,,,82,empirador,,,1,0,1.320885,0,41,41,81,1,REAL,FAKE,,,,,,,,,,,,,,,,,,,,,
,,,,,,,6026adf0704fd23a5dc0ee32,605b45a4d25f287719a41696,605ba0e615b7fdea0911edb5,United States,Midwest,13 or older,no,2021-03-24_16h29.31.043,empathy_intonation_perc,2020.2.10,MacIntel,60,,,,,,,,,,0,,,,,,,,,,,,,,,,,,,,,,,,,,,,,,,,,,,,,,,,72,pemicin,,,1,0,1.742345,0,42,42,71,1,REAL,FAKE,,,,,,,,,,,,,,,,,,,,,
,,,,,,,6026adf0704fd23a5dc0ee32,605b45a4d25f287719a41696,605ba0e615b7fdea0911edb5,United States,Midwest,13 or older,no,2021-03-24_16h29.31.043,empathy_intonation_perc,2020.2.10,MacIntel,60,,,,,,,,,,1,,,,,,,,,,,,,,,,,,,,,,,,,,,,,,,,,,,,,,,,45,jilguero,,,0,0,1.111185,0,43,43,44,1,REAL,FAKE,,,,,,,,,,,,,,,,,,,,,
,,,,,,,6026adf0704fd23a5dc0ee32,605b45a4d25f287719a41696,605ba0e615b7fdea0911edb5,United States,Midwest,13 or older,no,2021-03-24_16h29.31.043,empathy_intonation_perc,2020.2.10,MacIntel,60,,,,,,,,,,0,,,,,,,,,,,,,,,,,,,,,,,,,,,,,,,,,,,,,,,,53,vegada,,,1,0,0.708535,0,44,44,52,1,REAL,FAKE,,,,,,,,,,,,,,,,,,,,,
,,,,,,,6026adf0704fd23a5dc0ee32,605b45a4d25f287719a41696,605ba0e615b7fdea0911edb5,United States,Midwest,13 or older,no,2021-03-24_16h29.31.043,empathy_intonation_perc,2020.2.10,MacIntel,60,,,,,,,,,,1,,,,,,,,,,,,,,,,,,,,,,,,,,,,,,,,,,,,,,,,55,nevar,,,1,1,0.85482,0,45,45,54,1,REAL,FAKE,,,,,,,,,,,,,,,,,,,,,
,,,,,,,6026adf0704fd23a5dc0ee32,605b45a4d25f287719a41696,605ba0e615b7fdea0911edb5,United States,Midwest,13 or older,no,2021-03-24_16h29.31.043,empathy_intonation_perc,2020.2.10,MacIntel,60,,,,,,,,,,1,,,,,,,,,,,,,,,,,,,,,,,,,,,,,,,,,,,,,,,,60,matar,,,0,0,1.019335,0,46,46,59,1,REAL,FAKE,,,,,,,,,,,,,,,,,,,,,
,,,,,,,6026adf0704fd23a5dc0ee32,605b45a4d25f287719a41696,605ba0e615b7fdea0911edb5,United States,Midwest,13 or older,no,2021-03-24_16h29.31.043,empathy_intonation_perc,2020.2.10,MacIntel,60,,,,,,,,,,0,,,,,,,,,,,,,,,,,,,,,,,,,,,,,,,,,,,,,,,,33,pauca,,,1,0,1.23031,0,47,47,32,1,REAL,FAKE,,,,,,,,,,,,,,,,,,,,,
,,,,,,,6026adf0704fd23a5dc0ee32,605b45a4d25f287719a41696,605ba0e615b7fdea0911edb5,United States,Midwest,13 or older,no,2021-03-24_16h29.31.043,empathy_intonation_perc,2020.2.10,MacIntel,60,,,,,,,,,,1,,,,,,,,,,,,,,,,,,,,,,,,,,,,,,,,,,,,,,,,41,rebuscar,,,1,1,0.92146,0,48,48,40,1,REAL,FAKE,,,,,,,,,,,,,,,,,,,,,
,,,,,,,6026adf0704fd23a5dc0ee32,605b45a4d25f287719a41696,605ba0e615b7fdea0911edb5,United States,Midwest,13 or older,no,2021-03-24_16h29.31.043,empathy_intonation_perc,2020.2.10,MacIntel,60,,,,,,,,,,0,,,,,,,,,,,,,,,,,,,,,,,,,,,,,,,,,,,,,,,,84,escuto,,,1,0,0.82392,0,49,49,83,1,REAL,FAKE,,,,,,,,,,,,,,,,,,,,,
,,,,,,,6026adf0704fd23a5dc0ee32,605b45a4d25f287719a41696,605ba0e615b7fdea0911edb5,United States,Midwest,13 or older,no,2021-03-24_16h29.31.043,empathy_intonation_perc,2020.2.10,MacIntel,60,,,,,,,,,,1,,,,,,,,,,,,,,,,,,,,,,,,,,,,,,,,,,,,,,,,64,orgulloso,,,0,0,0.9024,0,50,50,63,1,REAL,FAKE,,,,,,,,,,,,,,,,,,,,,
,,,,,,,6026adf0704fd23a5dc0ee32,605b45a4d25f287719a41696,605ba0e615b7fdea0911edb5,United States,Midwest,13 or older,no,2021-03-24_16h29.31.043,empathy_intonation_perc,2020.2.10,MacIntel,60,,,,,,,,,,1,,,,,,,,,,,,,,,,,,,,,,,,,,,,,,,,,,,,,,,,86,barato,,,1,1,1.582135,0,51,51,85,1,REAL,FAKE,,,,,,,,,,,,,,,,,,,,,
,,,,,,,6026adf0704fd23a5dc0ee32,605b45a4d25f287719a41696,605ba0e615b7fdea0911edb5,United States,Midwest,13 or older,no,2021-03-24_16h29.31.043,empathy_intonation_perc,2020.2.10,MacIntel,60,,,,,,,,,,1,,,,,,,,,,,,,,,,,,,,,,,,,,,,,,,,,,,,,,,,61,seda,,,1,1,0.98044,0,52,52,60,1,REAL,FAKE,,,,,,,,,,,,,,,,,,,,,
,,,,,,,6026adf0704fd23a5dc0ee32,605b45a4d25f287719a41696,605ba0e615b7fdea0911edb5,United States,Midwest,13 or older,no,2021-03-24_16h29.31.043,empathy_intonation_perc,2020.2.10,MacIntel,60,,,,,,,,,,0,,,,,,,,,,,,,,,,,,,,,,,,,,,,,,,,,,,,,,,,47,cartinar,,,0,1,0.60994,0,53,53,46,1,REAL,FAKE,,,,,,,,,,,,,,,,,,,,,
,,,,,,,6026adf0704fd23a5dc0ee32,605b45a4d25f287719a41696,605ba0e615b7fdea0911edb5,United States,Midwest,13 or older,no,2021-03-24_16h29.31.043,empathy_intonation_perc,2020.2.10,MacIntel,60,,,,,,,,,,1,,,,,,,,,,,,,,,,,,,,,,,,,,,,,,,,,,,,,,,,5,zapato,,,1,1,1.8694,0,54,54,4,1,REAL,FAKE,,,,,,,,,,,,,,,,,,,,,
,,,,,,,6026adf0704fd23a5dc0ee32,605b45a4d25f287719a41696,605ba0e615b7fdea0911edb5,United States,Midwest,13 or older,no,2021-03-24_16h29.31.043,empathy_intonation_perc,2020.2.10,MacIntel,60,,,,,,,,,,0,,,,,,,,,,,,,,,,,,,,,,,,,,,,,,,,,,,,,,,,63,esposante,,,1,0,0.740405,0,55,55,62,1,REAL,FAKE,,,,,,,,,,,,,,,,,,,,,
,,,,,,,6026adf0704fd23a5dc0ee32,605b45a4d25f287719a41696,605ba0e615b7fdea0911edb5,United States,Midwest,13 or older,no,2021-03-24_16h29.31.043,empathy_intonation_perc,2020.2.10,MacIntel,60,,,,,,,,,,0,,,,,,,,,,,,,,,,,,,,,,,,,,,,,,,,,,,,,,,,23,lampera,,,0,1,0.593495,0,56,56,22,1,REAL,FAKE,,,,,,,,,,,,,,,,,,,,,
,,,,,,,6026adf0704fd23a5dc0ee32,605b45a4d25f287719a41696,605ba0e615b7fdea0911edb5,United States,Midwest,13 or older,no,2021-03-24_16h29.31.043,empathy_intonation_perc,2020.2.10,MacIntel,60,,,,,,,,,,0,,,,,,,,,,,,,,,,,,,,,,,,,,,,,,,,,,,,,,,,17,floroso,,,0,1,1.25499,0,57,57,16,1,REAL,FAKE,,,,,,,,,,,,,,,,,,,,,
,,,,,,,6026adf0704fd23a5dc0ee32,605b45a4d25f287719a41696,605ba0e615b7fdea0911edb5,United States,Midwest,13 or older,no,2021-03-24_16h29.31.043,empathy_intonation_perc,2020.2.10,MacIntel,60,,,,,,,,,,1,,,,,,,,,,,,,,,,,,,,,,,,,,,,,,,,,,,,,,,,69,engatusar,,,1,1,0.91976,0,58,58,68,1,REAL,FAKE,,,,,,,,,,,,,,,,,,,,,
,,,,,,,6026adf0704fd23a5dc0ee32,605b45a4d25f287719a41696,605ba0e615b7fdea0911edb5,United States,Midwest,13 or older,no,2021-03-24_16h29.31.043,empathy_intonation_perc,2020.2.10,MacIntel,60,,,,,,,,,,1,,,,,,,,,,,,,,,,,,,,,,,,,,,,,,,,,,,,,,,,7,psimo,,,1,1,0.638965,0,59,59,6,1,REAL,FAKE,,,,,,,,,,,,,,,,,,,,,
,,,,,,,6026adf0704fd23a5dc0ee32,605b45a4d25f287719a41696,605ba0e615b7fdea0911edb5,United States,Midwest,13 or older,no,2021-03-24_16h29.31.043,empathy_intonation_perc,2020.2.10,MacIntel,60,,,,,,,,,,1,,,,,,,,,,,,,,,,,,,,,,,,,,,,,,,,,,,,,,,,90,clavel,,,0,0,1.19082,0,60,60,89,1,REAL,FAKE,,,,,,,,,,,,,,,,,,,,,
,,,,,,,6026adf0704fd23a5dc0ee32,605b45a4d25f287719a41696,605ba0e615b7fdea0911edb5,United States,Midwest,13 or older,no,2021-03-24_16h29.31.043,empathy_intonation_perc,2020.2.10,MacIntel,60,,,,,,,,,,1,,,,,,,,,,,,,,,,,,,,,,,,,,,,,,,,,,,,,,,,77,tiburn,,,0,0,1.274715,0,61,61,76,1,REAL,FAKE,,,,,,,,,,,,,,,,,,,,,
,,,,,,,6026adf0704fd23a5dc0ee32,605b45a4d25f287719a41696,605ba0e615b7fdea0911edb5,United States,Midwest,13 or older,no,2021-03-24_16h29.31.043,empathy_intonation_perc,2020.2.10,MacIntel,60,,,,,,,,,,0,,,,,,,,,,,,,,,,,,,,,,,,,,,,,,,,,,,,,,,,29,decar,,,0,1,0.88543,0,62,62,28,1,REAL,FAKE,,,,,,,,,,,,,,,,,,,,,
,,,,,,,6026adf0704fd23a5dc0ee32,605b45a4d25f287719a41696,605ba0e615b7fdea0911edb5,United States,Midwest,13 or older,no,2021-03-24_16h29.31.043,empathy_intonation_perc,2020.2.10,MacIntel,60,,,,,,,,,,1,,,,,,,,,,,,,,,,,,,,,,,,,,,,,,,,,,,,,,,,38,estornudar,,,0,0,1.329165,0,63,63,37,1,REAL,FAKE,,,,,,,,,,,,,,,,,,,,,
,,,,,,,6026adf0704fd23a5dc0ee32,605b45a4d25f287719a41696,605ba0e615b7fdea0911edb5,United States,Midwest,13 or older,no,2021-03-24_16h29.31.043,empathy_intonation_perc,2020.2.10,MacIntel,60,,,,,,,,,,0,,,,,,,,,,,,,,,,,,,,,,,,,,,,,,,,,,,,,,,,87,grodo,,,0,1,0.995805,0,64,64,86,1,REAL,FAKE,,,,,,,,,,,,,,,,,,,,,
,,,,,,,6026adf0704fd23a5dc0ee32,605b45a4d25f287719a41696,605ba0e615b7fdea0911edb5,United States,Midwest,13 or older,no,2021-03-24_16h29.31.043,empathy_intonation_perc,2020.2.10,MacIntel,60,,,,,,,,,,0,,,,,,,,,,,,,,,,,,,,,,,,,,,,,,,,,,,,,,,,1,terzo,,,1,0,0.60755,0,65,65,0,1,REAL,FAKE,,,,,,,,,,,,,,,,,,,,,
,,,,,,,6026adf0704fd23a5dc0ee32,605b45a4d25f287719a41696,605ba0e615b7fdea0911edb5,United States,Midwest,13 or older,no,2021-03-24_16h29.31.043,empathy_intonation_perc,2020.2.10,MacIntel,60,,,,,,,,,,1,,,,,,,,,,,,,,,,,,,,,,,,,,,,,,,,,,,,,,,,85,lad,,,1,1,0.53196,0,66,66,84,1,REAL,FAKE,,,,,,,,,,,,,,,,,,,,,
,,,,,,,6026adf0704fd23a5dc0ee32,605b45a4d25f287719a41696,605ba0e615b7fdea0911edb5,United States,Midwest,13 or older,no,2021-03-24_16h29.31.043,empathy_intonation_perc,2020.2.10,MacIntel,60,,,,,,,,,,0,,,,,,,,,,,,,,,,,,,,,,,,,,,,,,,,,,,,,,,,18,arsa,,,1,0,0.860665,0,67,67,17,1,REAL,FAKE,,,,,,,,,,,,,,,,,,,,,
,,,,,,,6026adf0704fd23a5dc0ee32,605b45a4d25f287719a41696,605ba0e615b7fdea0911edb5,United States,Midwest,13 or older,no,2021-03-24_16h29.31.043,empathy_intonation_perc,2020.2.10,MacIntel,60,,,,,,,,,,1,,,,,,,,,,,,,,,,,,,,,,,,,,,,,,,,,,,,,,,,54,fomentar,,,0,0,0.7698,0,68,68,53,1,REAL,FAKE,,,,,,,,,,,,,,,,,,,,,
,,,,,,,6026adf0704fd23a5dc0ee32,605b45a4d25f287719a41696,605ba0e615b7fdea0911edb5,United States,Midwest,13 or older,no,2021-03-24_16h29.31.043,empathy_intonation_perc,2020.2.10,MacIntel,60,,,,,,,,,,1,,,,,,,,,,,,,,,,,,,,,,,,,,,,,,,,,,,,,,,,75,yacer,,,0,0,0.9876,0,69,69,74,1,REAL,FAKE,,,,,,,,,,,,,,,,,,,,,
,,,,,,,6026adf0704fd23a5dc0ee32,605b45a4d25f287719a41696,605ba0e615b7fdea0911edb5,United States,Midwest,13 or older,no,2021-03-24_16h29.31.043,empathy_intonation_perc,2020.2.10,MacIntel,60,,,,,,,,,,0,,,,,,,,,,,,,,,,,,,,,,,,,,,,,,,,,,,,,,,,58,plaudir,,,0,1,1.205595,0,70,70,57,1,REAL,FAKE,,,,,,,,,,,,,,,,,,,,,
,,,,,,,6026adf0704fd23a5dc0ee32,605b45a4d25f287719a41696,605ba0e615b7fdea0911edb5,United States,Midwest,13 or older,no,2021-03-24_16h29.31.043,empathy_intonation_perc,2020.2.10,MacIntel,60,,,,,,,,,,0,,,,,,,,,,,,,,,,,,,,,,,,,,,,,,,,,,,,,,,,35,rompido,,,0,1,0.755725,0,71,71,34,1,REAL,FAKE,,,,,,,,,,,,,,,,,,,,,
,,,,,,,6026adf0704fd23a5dc0ee32,605b45a4d25f287719a41696,605ba0e615b7fdea0911edb5,United States,Midwest,13 or older,no,2021-03-24_16h29.31.043,empathy_intonation_perc,2020.2.10,MacIntel,60,,,,,,,,,,1,,,,,,,,,,,,,,,,,,,,,,,,,,,,,,,,,,,,,,,,71,polvoriento,,,0,0,0.88703,0,72,72,70,1,REAL,FAKE,,,,,,,,,,,,,,,,,,,,,
,,,,,,,6026adf0704fd23a5dc0ee32,605b45a4d25f287719a41696,605ba0e615b7fdea0911edb5,United States,Midwest,13 or older,no,2021-03-24_16h29.31.043,empathy_intonation_perc,2020.2.10,MacIntel,60,,,,,,,,,,1,,,,,,,,,,,,,,,,,,,,,,,,,,,,,,,,,,,,,,,,26,secuestro,,,1,1,2.140715,0,73,73,25,1,REAL,FAKE,,,,,,,,,,,,,,,,,,,,,
,,,,,,,6026adf0704fd23a5dc0ee32,605b45a4d25f287719a41696,605ba0e615b7fdea0911edb5,United States,Midwest,13 or older,no,2021-03-24_16h29.31.043,empathy_intonation_perc,2020.2.10,MacIntel,60,,,,,,,,,,1,,,,,,,,,,,,,,,,,,,,,,,,,,,,,,,,,,,,,,,,13,helar,,,1,1,1.13914,0,74,74,12,1,REAL,FAKE,,,,,,,,,,,,,,,,,,,,,
,,,,,,,6026adf0704fd23a5dc0ee32,605b45a4d25f287719a41696,605ba0e615b7fdea0911edb5,United States,Midwest,13 or older,no,2021-03-24_16h29.31.043,empathy_intonation_perc,2020.2.10,MacIntel,60,,,,,,,,,,1,,,,,,,,,,,,,,,,,,,,,,,,,,,,,,,,,,,,,,,,89,prisa,,,0,0,0.737515,0,75,75,88,1,REAL,FAKE,,,,,,,,,,,,,,,,,,,,,
,,,,,,,6026adf0704fd23a5dc0ee32,605b45a4d25f287719a41696,605ba0e615b7fdea0911edb5,United States,Midwest,13 or older,no,2021-03-24_16h29.31.043,empathy_intonation_perc,2020.2.10,MacIntel,60,,,,,,,,,,1,,,,,,,,,,,,,,,,,,,,,,,,,,,,,,,,,,,,,,,,28,merodear,,,1,1,1.16628,0,76,76,27,1,REAL,FAKE,,,,,,,,,,,,,,,,,,,,,
,,,,,,,6026adf0704fd23a5dc0ee32,605b45a4d25f287719a41696,605ba0e615b7fdea0911edb5,United States,Midwest,13 or older,no,2021-03-24_16h29.31.043,empathy_intonation_perc,2020.2.10,MacIntel,60,,,,,,,,,,1,,,,,,,,,,,,,,,,,,,,,,,,,,,,,,,,,,,,,,,,52,camisa,,,1,1,0.51907,0,77,77,51,1,REAL,FAKE,,,,,,,,,,,,,,,,,,,,,
,,,,,,,6026adf0704fd23a5dc0ee32,605b45a4d25f287719a41696,605ba0e615b7fdea0911edb5,United States,Midwest,13 or older,no,2021-03-24_16h29.31.043,empathy_intonation_perc,2020.2.10,MacIntel,60,,,,,,,,,,1,,,,,,,,,,,,,,,,,,,,,,,,,,,,,,,,,,,,,,,,62,flaco,,,1,1,1.497,0,78,78,61,1,REAL,FAKE,,,,,,,,,,,,,,,,,,,,,
,,,,,,,6026adf0704fd23a5dc0ee32,605b45a4d25f287719a41696,605ba0e615b7fdea0911edb5,United States,Midwest,13 or older,no,2021-03-24_16h29.31.043,empathy_intonation_perc,2020.2.10,MacIntel,60,,,,,,,,,,0,,,,,,,,,,,,,,,,,,,,,,,,,,,,,,,,,,,,,,,,32,fatacidad,,,0,1,0.715675,0,79,79,31,1,REAL,FAKE,,,,,,,,,,,,,,,,,,,,,
,,,,,,,6026adf0704fd23a5dc0ee32,605b45a4d25f287719a41696,605ba0e615b7fdea0911edb5,United States,Midwest,13 or older,no,2021-03-24_16h29.31.043,empathy_intonation_perc,2020.2.10,MacIntel,60,,,,,,,,,,0,,,,,,,,,,,,,,,,,,,,,,,,,,,,,,,,,,,,,,,,19,brecedad,,,0,1,0.90502,0,80,80,18,1,REAL,FAKE,,,,,,,,,,,,,,,,,,,,,
,,,,,,,6026adf0704fd23a5dc0ee32,605b45a4d25f287719a41696,605ba0e615b7fdea0911edb5,United States,Midwest,13 or older,no,2021-03-24_16h29.31.043,empathy_intonation_perc,2020.2.10,MacIntel,60,,,,,,,,,,1,,,,,,,,,,,,,,,,,,,,,,,,,,,,,,,,,,,,,,,,51,candado,,,0,0,0.93878,0,81,81,50,1,REAL,FAKE,,,,,,,,,,,,,,,,,,,,,
,,,,,,,6026adf0704fd23a5dc0ee32,605b45a4d25f287719a41696,605ba0e615b7fdea0911edb5,United States,Midwest,13 or older,no,2021-03-24_16h29.31.043,empathy_intonation_perc,2020.2.10,MacIntel,60,,,,,,,,,,1,,,,,,,,,,,,,,,,,,,,,,,,,,,,,,,,,,,,,,,,6,tergiversar,,,0,0,1.05442,0,82,82,5,1,REAL,FAKE,,,,,,,,,,,,,,,,,,,,,
,,,,,,,6026adf0704fd23a5dc0ee32,605b45a4d25f287719a41696,605ba0e615b7fdea0911edb5,United States,Midwest,13 or older,no,2021-03-24_16h29.31.043,empathy_intonation_perc,2020.2.10,MacIntel,60,,,,,,,,,,0,,,,,,,,,,,,,,,,,,,,,,,,,,,,,,,,,,,,,,,,10,antar,,,0,1,1.32475,0,83,83,9,1,REAL,FAKE,,,,,,,,,,,,,,,,,,,,,
,,,,,,,6026adf0704fd23a5dc0ee32,605b45a4d25f287719a41696,605ba0e615b7fdea0911edb5,United States,Midwest,13 or older,no,2021-03-24_16h29.31.043,empathy_intonation_perc,2020.2.10,MacIntel,60,,,,,,,,,,0,,,,,,,,,,,,,,,,,,,,,,,,,,,,,,,,,,,,,,,,70,temblo,,,1,0,0.4862,0,84,84,69,1,REAL,FAKE,,,,,,,,,,,,,,,,,,,,,
,,,,,,,6026adf0704fd23a5dc0ee32,605b45a4d25f287719a41696,605ba0e615b7fdea0911edb5,United States,Midwest,13 or older,no,2021-03-24_16h29.31.043,empathy_intonation_perc,2020.2.10,MacIntel,60,,,,,,,,,,0,,,,,,,,,,,,,,,,,,,,,,,,,,,,,,,,,,,,,,,,4,batilln,,,1,0,0.675335,0,85,85,3,1,REAL,FAKE,,,,,,,,,,,,,,,,,,,,,
,,,,,,,6026adf0704fd23a5dc0ee32,605b45a4d25f287719a41696,605ba0e615b7fdea0911edb5,United States,Midwest,13 or older,no,2021-03-24_16h29.31.043,empathy_intonation_perc,2020.2.10,MacIntel,60,,,,,,,,,,1,,,,,,,,,,,,,,,,,,,,,,,,,,,,,,,,,,,,,,,,43,canela,,,1,1,0.580975,0,86,86,42,1,REAL,FAKE,,,,,,,,,,,,,,,,,,,,,
,,,,,,,6026adf0704fd23a5dc0ee32,605b45a4d25f287719a41696,605ba0e615b7fdea0911edb5,United States,Midwest,13 or older,no,2021-03-24_16h29.31.043,empathy_intonation_perc,2020.2.10,MacIntel,60,,,,,,,,,,1,,,,,,,,,,,,,,,,,,,,,,,,,,,,,,,,,,,,,,,,20,vido,,,1,1,0.5682,0,87,87,19,1,REAL,FAKE,,,,,,,,,,,,,,,,,,,,,
,,,,,,,6026adf0704fd23a5dc0ee32,605b45a4d25f287719a41696,605ba0e615b7fdea0911edb5,United States,Midwest,13 or older,no,2021-03-24_16h29.31.043,empathy_intonation_perc,2020.2.10,MacIntel,60,,,,,,,,,,1,,,,,,,,,,,,,,,,,,,,,,,,,,,,,,,,,,,,,,,,83,guante,,,1,1,1.235005,0,88,88,82,1,REAL,FAKE,,,,,,,,,,,,,,,,,,,,,
,,,,,,,6026adf0704fd23a5dc0ee32,605b45a4d25f287719a41696,605ba0e615b7fdea0911edb5,United States,Midwest,13 or older,no,2021-03-24_16h29.31.043,empathy_intonation_perc,2020.2.10,MacIntel,60,,,,,,,,,,0,,,,,,,,,,,,,,,,,,,,,,,,,,,,,,,,,,,,,,,,8,cadea,,,1,0,0.734235,0,89,89,7,1,REAL,FAKE,,,,,,,,,,,,,,,,,,,,,
,,,,,,,6026adf0704fd23a5dc0ee32,605b45a4d25f287719a41696,605ba0e615b7fdea0911edb5,United States,Midwest,13 or older,no,2021-03-24_16h29.31.043,empathy_intonation_perc,2020.2.10,MacIntel,60,,,,,,,,,,,,,,,,,,,,,,,,,,,,,,,,,,,,,,,,,,,,,,,,,,,,,,,,,,,,,,,,4,1,4.30969,1,0,0,0,0,0,1,,,,,,,,,,,
,,,,,,,6026adf0704fd23a5dc0ee32,605b45a4d25f287719a41696,605ba0e615b7fdea0911edb5,United States,Midwest,13 or older,no,2021-03-24_16h29.31.043,empathy_intonation_perc,2020.2.10,MacIntel,60,,,,,,,,,,,,,,,,,,,,1,,,,,,,,,,,,,,,,,,,,,,,,,,,,,,,,,,,,,,,,,,,,,,,,,,,,,,2,0,0,0,0,1,I can easily tell if someone else wants to enter a conversation.,1,0,1,0
,,,,,,,6026adf0704fd23a5dc0ee32,605b45a4d25f287719a41696,605ba0e615b7fdea0911edb5,United States,Midwest,13 or older,no,2021-03-24_16h29.31.043,empathy_intonation_perc,2020.2.10,MacIntel,60,,,,,,,,,,,,,,,,,,,,2,,,,,,,,,,,,,,,,,,,,,,,,,,,,,,,,,,,,,,,,,,,,,,,,,,,,,,3,0,1,1,1,1,I prefer animals to humans.,0,1,0,0
,,,,,,,6026adf0704fd23a5dc0ee32,605b45a4d25f287719a41696,605ba0e615b7fdea0911edb5,United States,Midwest,13 or older,no,2021-03-24_16h29.31.043,empathy_intonation_perc,2020.2.10,MacIntel,60,,,,,,,,,,,,,,,,,,,,3,,,,,,,,,,,,,,,,,,,,,,,,,,,,,,,,,,,,,,,,,,,,,,,,,,,,,,4,0,2,2,2,1,I try to keep up with the current trends and fashions.,0,1,0,0
