instructions_2afc_loop.thisRepN,instructions_2afc_loop.thisTrialN,instructions_2afc_loop.thisN,instructions_2afc_loop.thisIndex,instructions_2afc_loop.ran,instructions_text,continue_text,participant,study_id,session,I am most familiar with Spanish from...*,What part of the US are you from?*,At what age did you begin learning Spanish?*,Are you proficient in any languages other than English/Spanish?*,date,expName,psychopyVersion,OS,frameRate,key_resp_2afc_practice.keys,key_resp_2afc_practice.corr,key_resp_2afc_practice.rt,trials_2afc_practice_loop.thisRepN,trials_2afc_practice_loop.thisTrialN,trials_2afc_practice_loop.thisN,trials_2afc_practice_loop.thisIndex,trials_2afc_practice_loop.ran,path,correct_response,the_col,key_resp_2afc_trial.keys,key_resp_2afc_trial.corr,key_resp_2afc_trial.rt,trials_2afc_loop.thisRepN,trials_2afc_loop.thisTrialN,trials_2afc_loop.thisN,trials_2afc_loop.thisIndex,trials_2afc_loop.ran,item_num,andalusian,argentine,castilian,chilean,cuban,mexican,peruvian,puertorican,key_resp_ac1.keys,key_resp_ac1.corr,key_resp_ac1.rt,ac1_loop.thisRepN,ac1_loop.thisTrialN,ac1_loop.thisN,ac1_loop.thisIndex,ac1_loop.ran,instructions_lextale_loop.thisRepN,instructions_lextale_loop.thisTrialN,instructions_lextale_loop.thisN,instructions_lextale_loop.thisIndex,instructions_lextale_loop.ran,key_resp_lextale_practice.keys,key_resp_lextale_practice.corr,key_resp_lextale_practice.rt,trials_lextale_practice_loop.thisRepN,trials_lextale_practice_loop.thisTrialN,trials_lextale_practice_loop.thisN,trials_lextale_practice_loop.thisIndex,trials_lextale_practice_loop.ran,stim,word,prac_button_real,prac_button_false,key_resp_lextale_trial.keys,key_resp_lextale_trial.corr,key_resp_lextale_trial.rt,trials_lextale_loop.thisRepN,trials_lextale_loop.thisTrialN,trials_lextale_loop.thisN,trials_lextale_loop.thisIndex,trials_lextale_loop.ran,button_real,button_false,key_resp_ac2.keys,key_resp_ac2.corr,key_resp_ac2.rt,check_pass,check_fails,ac2_loop.thisRepN,ac2_loop.thisTrialN,ac2_loop.thisN,ac2_loop.thisIndex,ac2_loop.ran,slider_eq_trial.response,trials_eq_loop.thisRepN,trials_eq_loop.thisTrialN,trials_eq_loop.thisN,trials_eq_loop.thisIndex,trials_eq_loop.ran,item,is_test_item,is_distractor,is_agree_score,is_disagree_score
0,0,0,0,1,"In the following task you are going to hear a series of utterances. 

  You will decide if the utterances sound like questions or not using your keyboard.",(press the spacebar to continue),602854edbf92e76fc9c56355,6057c54e64b0b4e5c128b4f9,605a07241f654ac1c8afba12,Spain,Northeast,12 or younger,no,2021-03-23_11h20.30.461,empathy_intonation_perc,2020.2.10,Win32,60,,,,,,,,,,,,,,,,,,,,,,,,,,,,,,,,,,,,,,,,,,,,,,,,,,,,,,,,,,,,,,,,,,,,,,,,,,,,,,,,,,,,
0,1,1,1,1,"If you believe the utterance is a question, type '1' (for 'yes') and if you do not 
  believe it is a question type '0' (for 'no').

  Let's practice a bit...",(press the spacebar to continue),602854edbf92e76fc9c56355,6057c54e64b0b4e5c128b4f9,605a07241f654ac1c8afba12,Spain,Northeast,12 or younger,no,2021-03-23_11h20.30.461,empathy_intonation_perc,2020.2.10,Win32,60,,,,,,,,,,,,,,,,,,,,,,,,,,,,,,,,,,,,,,,,,,,,,,,,,,,,,,,,,,,,,,,,,,,,,,,,,,,,,,,,,,,,
,,,,,,,602854edbf92e76fc9c56355,6057c54e64b0b4e5c128b4f9,605a07241f654ac1c8afba12,Spain,Northeast,12 or younger,no,2021-03-23_11h20.30.461,empathy_intonation_perc,2020.2.10,Win32,60,0,1,2.625965,0,0,0,6,1,./stim/wavs/peruvian_statement_filler_El-nino-habla-con-su-madre.wav,0,,,,,,,,,,,,,,,,,,,,,,,,,,,,,,,,,,,,,,,,,,,,,,,,,,,,,,,,,,,,,,,,,,,,,,,,,,
,,,,,,,602854edbf92e76fc9c56355,6057c54e64b0b4e5c128b4f9,605a07241f654ac1c8afba12,Spain,Northeast,12 or younger,no,2021-03-23_11h20.30.461,empathy_intonation_perc,2020.2.10,Win32,60,0,1,1.83684,0,1,1,5,1,./stim/wavs/andalusian_statement_filler_Alberto-nunca-se-afeita.wav,0,,,,,,,,,,,,,,,,,,,,,,,,,,,,,,,,,,,,,,,,,,,,,,,,,,,,,,,,,,,,,,,,,,,,,,,,,,
,,,,,,,602854edbf92e76fc9c56355,6057c54e64b0b4e5c128b4f9,605a07241f654ac1c8afba12,Spain,Northeast,12 or younger,no,2021-03-23_11h20.30.461,empathy_intonation_perc,2020.2.10,Win32,60,1,1,1.5634,0,2,2,1,1,./stim/wavs/argentine_question_filler_Mi-vecino-habla-mucho.wav,1,,,,,,,,,,,,,,,,,,,,,,,,,,,,,,,,,,,,,,,,,,,,,,,,,,,,,,,,,,,,,,,,,,,,,,,,,,
,,,,,,,602854edbf92e76fc9c56355,6057c54e64b0b4e5c128b4f9,605a07241f654ac1c8afba12,Spain,Northeast,12 or younger,no,2021-03-23_11h20.30.461,empathy_intonation_perc,2020.2.10,Win32,60,0,1,1.69444,0,3,3,4,1,./stim/wavs/cuban_statement_filler_Cocinabas-por-la-noche.wav,0,,,,,,,,,,,,,,,,,,,,,,,,,,,,,,,,,,,,,,,,,,,,,,,,,,,,,,,,,,,,,,,,,,,,,,,,,,
,,,,,,,602854edbf92e76fc9c56355,6057c54e64b0b4e5c128b4f9,605a07241f654ac1c8afba12,Spain,Northeast,12 or younger,no,2021-03-23_11h20.30.461,empathy_intonation_perc,2020.2.10,Win32,60,0,1,1.954885,0,4,4,7,1,./stim/wavs/puertorican_statement_filler_La-nina-pinta-con-su-amiga.wav,0,,,,,,,,,,,,,,,,,,,,,,,,,,,,,,,,,,,,,,,,,,,,,,,,,,,,,,,,,,,,,,,,,,,,,,,,,,
,,,,,,,602854edbf92e76fc9c56355,6057c54e64b0b4e5c128b4f9,605a07241f654ac1c8afba12,Spain,Northeast,12 or younger,no,2021-03-23_11h20.30.461,empathy_intonation_perc,2020.2.10,Win32,60,0,0,2.83716,0,5,5,2,1,./stim/wavs/chilean_question_filler_Mi-padre-cantaba-bien.wav,1,,,,,,,,,,,,,,,,,,,,,,,,,,,,,,,,,,,,,,,,,,,,,,,,,,,,,,,,,,,,,,,,,,,,,,,,,,
,,,,,,,602854edbf92e76fc9c56355,6057c54e64b0b4e5c128b4f9,605a07241f654ac1c8afba12,Spain,Northeast,12 or younger,no,2021-03-23_11h20.30.461,empathy_intonation_perc,2020.2.10,Win32,60,1,1,1.761335,0,6,6,3,1,./stim/wavs/mexican_question_filler_Felipe-no-tiene-contrasena.wav,1,,,,,,,,,,,,,,,,,,,,,,,,,,,,,,,,,,,,,,,,,,,,,,,,,,,,,,,,,,,,,,,,,,,,,,,,,,
,,,,,,,602854edbf92e76fc9c56355,6057c54e64b0b4e5c128b4f9,605a07241f654ac1c8afba12,Spain,Northeast,12 or younger,no,2021-03-23_11h20.30.461,empathy_intonation_perc,2020.2.10,Win32,60,1,1,2.544745,0,7,7,0,1,./stim/wavs/castilian_question_filler_Mi-esposo-conoce-al-chico.wav,1,,,,,,,,,,,,,,,,,,,,,,,,,,,,,,,,,,,,,,,,,,,,,,,,,,,,,,,,,,,,,,,,,,,,,,,,,,
,,,,,,,602854edbf92e76fc9c56355,6057c54e64b0b4e5c128b4f9,605a07241f654ac1c8afba12,Spain,Northeast,12 or younger,no,2021-03-23_11h20.30.461,empathy_intonation_perc,2020.2.10,Win32,60,,,,,,,,,,0,castilian,0,1,1.58966,0,0,0,8,1,9,./stim/wavs/andalusian_match_declarative-narrow-focus_Ana-lleva-el-abrigo.wav,./stim/wavs/argentine_match_declarative-narrow-focus_Ana-lleva-el-abrigo.wav,./stim/wavs/castilian_match_declarative-narrow-focus_Ana-lleva-el-abrigo.wav,./stim/wavs/chilean_match_declarative-narrow-focus_Ana-lleva-el-abrigo.wav,./stim/wavs/cuban_match_declarative-narrow-focus_Ana-lleva-el-abrigo.wav,./stim/wavs/mexican_match_declarative-narrow-focus_Ana-lleva-el-abrigo.wav,./stim/wavs/peruvian_match_declarative-narrow-focus_Ana-lleva-el-abrigo.wav,./stim/wavs/puertorican_match_declarative-narrow-focus_Ana-lleva-el-abrigo.wav,,,,,,,,,,,,,,,,,,,,,,,,,,,,,,,,,,,,,,,,,,,,,,,,,,,,,,,,
,,,,,,,602854edbf92e76fc9c56355,6057c54e64b0b4e5c128b4f9,605a07241f654ac1c8afba12,Spain,Northeast,12 or younger,no,2021-03-23_11h20.30.461,empathy_intonation_perc,2020.2.10,Win32,60,,,,,,,,,,0,argentine,0,1,1.4899,0,1,1,36,1,37,./stim/wavs/andalusian_mismatch_declarative-broad-focus_La-nina-lava-el-plato.wav,./stim/wavs/argentine_mismatch_declarative-broad-focus_La-nina-lava-el-plato.wav,./stim/wavs/castilian_mismatch_declarative-broad-focus_La-nina-lava-el-plato.wav,./stim/wavs/chilean_mismatch_declarative-broad-focus_La-nina-lava-el-plato.wav,./stim/wavs/cuban_mismatch_declarative-broad-focus_La-nina-lava-el-plato.wav,./stim/wavs/mexican_mismatch_declarative-broad-focus_La-nina-lava-el-plato.wav,./stim/wavs/peruvian_mismatch_declarative-broad-focus_La-nina-lava-el-plato.wav,./stim/wavs/puertorican_mismatch_declarative-broad-focus_La-nina-lava-el-plato.wav,,,,,,,,,,,,,,,,,,,,,,,,,,,,,,,,,,,,,,,,,,,,,,,,,,,,,,,,
,,,,,,,602854edbf92e76fc9c56355,6057c54e64b0b4e5c128b4f9,605a07241f654ac1c8afba12,Spain,Northeast,12 or younger,no,2021-03-23_11h20.30.461,empathy_intonation_perc,2020.2.10,Win32,60,,,,,,,,,,0,argentine,0,1,1.652645,0,2,2,7,1,8,./stim/wavs/andalusian_match_declarative-broad-focus_Marta-abre-el-regalo.wav,./stim/wavs/argentine_match_declarative-broad-focus_Marta-abre-el-regalo.wav,./stim/wavs/castilian_match_declarative-broad-focus_Marta-abre-el-regalo.wav,./stim/wavs/chilean_match_declarative-broad-focus_Marta-abre-el-regalo.wav,./stim/wavs/cuban_match_declarative-broad-focus_Marta-abre-el-regalo.wav,./stim/wavs/mexican_match_declarative-broad-focus_Marta-abre-el-regalo.wav,./stim/wavs/peruvian_match_declarative-broad-focus_Marta-abre-el-regalo.wav,./stim/wavs/puertorican_match_declarative-broad-focus_Marta-abre-el-regalo.wav,,,,,,,,,,,,,,,,,,,,,,,,,,,,,,,,,,,,,,,,,,,,,,,,,,,,,,,,
,,,,,,,602854edbf92e76fc9c56355,6057c54e64b0b4e5c128b4f9,605a07241f654ac1c8afba12,Spain,Northeast,12 or younger,no,2021-03-23_11h20.30.461,empathy_intonation_perc,2020.2.10,Win32,60,,,,,,,,,,0,peruvian,0,1,1.66724,0,3,3,15,1,16,./stim/wavs/andalusian_match_declarative-narrow-focus_Marta-abre-el-regalo.wav,./stim/wavs/argentine_match_declarative-narrow-focus_Marta-abre-el-regalo.wav,./stim/wavs/castilian_match_declarative-narrow-focus_Marta-abre-el-regalo.wav,./stim/wavs/chilean_match_declarative-narrow-focus_Marta-abre-el-regalo.wav,./stim/wavs/cuban_match_declarative-narrow-focus_Marta-abre-el-regalo.wav,./stim/wavs/mexican_match_declarative-narrow-focus_Marta-abre-el-regalo.wav,./stim/wavs/peruvian_match_declarative-narrow-focus_Marta-abre-el-regalo.wav,./stim/wavs/puertorican_match_declarative-narrow-focus_Marta-abre-el-regalo.wav,,,,,,,,,,,,,,,,,,,,,,,,,,,,,,,,,,,,,,,,,,,,,,,,,,,,,,,,
,,,,,,,602854edbf92e76fc9c56355,6057c54e64b0b4e5c128b4f9,605a07241f654ac1c8afba12,Spain,Northeast,12 or younger,no,2021-03-23_11h20.30.461,empathy_intonation_perc,2020.2.10,Win32,60,,,,,,,,,,1,mexican,1,1,1.488685,0,4,4,55,1,56,./stim/wavs/andalusian_mismatch_interrogative-partial-wh_Por-que-vivia-en-Paris.wav,./stim/wavs/argentine_mismatch_interrogative-partial-wh_Por-que-vivia-en-Paris.wav,./stim/wavs/castilian_mismatch_interrogative-partial-wh_Por-que-vivia-en-Paris.wav,./stim/wavs/chilean_mismatch_interrogative-partial-wh_Por-que-vivia-en-Paris.wav,./stim/wavs/cuban_mismatch_interrogative-partial-wh_Por-que-vivia-en-Paris.wav,./stim/wavs/mexican_mismatch_interrogative-partial-wh_Por-que-vivia-en-Paris.wav,./stim/wavs/peruvian_mismatch_interrogative-partial-wh_Por-que-vivia-en-Paris.wav,./stim/wavs/puertorican_mismatch_interrogative-partial-wh_Por-que-vivia-en-Paris.wav,,,,,,,,,,,,,,,,,,,,,,,,,,,,,,,,,,,,,,,,,,,,,,,,,,,,,,,,
,,,,,,,602854edbf92e76fc9c56355,6057c54e64b0b4e5c128b4f9,605a07241f654ac1c8afba12,Spain,Northeast,12 or younger,no,2021-03-23_11h20.30.461,empathy_intonation_perc,2020.2.10,Win32,60,,,,,,,,,,0,castilian,0,1,1.654275,0,5,5,10,1,11,./stim/wavs/andalusian_match_declarative-narrow-focus_David-leia-el-libro.wav,./stim/wavs/argentine_match_declarative-narrow-focus_David-leia-el-libro.wav,./stim/wavs/castilian_match_declarative-narrow-focus_David-leia-el-libro.wav,./stim/wavs/chilean_match_declarative-narrow-focus_David-leia-el-libro.wav,./stim/wavs/cuban_match_declarative-narrow-focus_David-leia-el-libro.wav,./stim/wavs/mexican_match_declarative-narrow-focus_David-leia-el-libro.wav,./stim/wavs/peruvian_match_declarative-narrow-focus_David-leia-el-libro.wav,./stim/wavs/puertorican_match_declarative-narrow-focus_David-leia-el-libro.wav,,,,,,,,,,,,,,,,,,,,,,,,,,,,,,,,,,,,,,,,,,,,,,,,,,,,,,,,
,,,,,,,602854edbf92e76fc9c56355,6057c54e64b0b4e5c128b4f9,605a07241f654ac1c8afba12,Spain,Northeast,12 or younger,no,2021-03-23_11h20.30.461,empathy_intonation_perc,2020.2.10,Win32,60,,,,,,,,,,0,mexican,0,1,1.66048,0,6,6,43,1,44,./stim/wavs/andalusian_mismatch_declarative-narrow-focus_La-maestra-vive-en-Paris.wav,./stim/wavs/argentine_mismatch_declarative-narrow-focus_La-maestra-vive-en-Paris.wav,./stim/wavs/castilian_mismatch_declarative-narrow-focus_La-maestra-vive-en-Paris.wav,./stim/wavs/chilean_mismatch_declarative-narrow-focus_La-maestra-vive-en-Paris.wav,./stim/wavs/cuban_mismatch_declarative-narrow-focus_La-maestra-vive-en-Paris.wav,./stim/wavs/mexican_mismatch_declarative-narrow-focus_La-maestra-vive-en-Paris.wav,./stim/wavs/peruvian_mismatch_declarative-narrow-focus_La-maestra-vive-en-Paris.wav,./stim/wavs/puertorican_mismatch_declarative-narrow-focus_La-maestra-vive-en-Paris.wav,,,,,,,,,,,,,,,,,,,,,,,,,,,,,,,,,,,,,,,,,,,,,,,,,,,,,,,,
,,,,,,,602854edbf92e76fc9c56355,6057c54e64b0b4e5c128b4f9,605a07241f654ac1c8afba12,Spain,Northeast,12 or younger,no,2021-03-23_11h20.30.461,empathy_intonation_perc,2020.2.10,Win32,60,,,,,,,,,,1,cuban,0,0,1.76541,0,7,7,51,1,52,./stim/wavs/andalusian_mismatch_interrogative-partial-wh_Por-que-desayuna-muy-bien.wav,./stim/wavs/argentine_mismatch_interrogative-partial-wh_Por-que-desayuna-muy-bien.wav,./stim/wavs/castilian_mismatch_interrogative-partial-wh_Por-que-desayuna-muy-bien.wav,./stim/wavs/chilean_mismatch_interrogative-partial-wh_Por-que-desayuna-muy-bien.wav,./stim/wavs/cuban_mismatch_interrogative-partial-wh_Por-que-desayuna-muy-bien.wav,./stim/wavs/mexican_mismatch_interrogative-partial-wh_Por-que-desayuna-muy-bien.wav,./stim/wavs/peruvian_mismatch_interrogative-partial-wh_Por-que-desayuna-muy-bien.wav,./stim/wavs/puertorican_mismatch_interrogative-partial-wh_Por-que-desayuna-muy-bien.wav,,,,,,,,,,,,,,,,,,,,,,,,,,,,,,,,,,,,,,,,,,,,,,,,,,,,,,,,
,,,,,,,602854edbf92e76fc9c56355,6057c54e64b0b4e5c128b4f9,605a07241f654ac1c8afba12,Spain,Northeast,12 or younger,no,2021-03-23_11h20.30.461,empathy_intonation_perc,2020.2.10,Win32,60,,,,,,,,,,0,peruvian,0,1,1.859955,0,8,8,47,1,48,./stim/wavs/andalusian_mismatch_declarative-narrow-focus_Mi-tia-odia-la-lluvia.wav,./stim/wavs/argentine_mismatch_declarative-narrow-focus_Mi-tia-odia-la-lluvia.wav,./stim/wavs/castilian_mismatch_declarative-narrow-focus_Mi-tia-odia-la-lluvia.wav,./stim/wavs/chilean_mismatch_declarative-narrow-focus_Mi-tia-odia-la-lluvia.wav,./stim/wavs/cuban_mismatch_declarative-narrow-focus_Mi-tia-odia-la-lluvia.wav,./stim/wavs/mexican_mismatch_declarative-narrow-focus_Mi-tia-odia-la-lluvia.wav,./stim/wavs/peruvian_mismatch_declarative-narrow-focus_Mi-tia-odia-la-lluvia.wav,./stim/wavs/puertorican_mismatch_declarative-narrow-focus_Mi-tia-odia-la-lluvia.wav,,,,,,,,,,,,,,,,,,,,,,,,,,,,,,,,,,,,,,,,,,,,,,,,,,,,,,,,
,,,,,,,602854edbf92e76fc9c56355,6057c54e64b0b4e5c128b4f9,605a07241f654ac1c8afba12,Spain,Northeast,12 or younger,no,2021-03-23_11h20.30.461,empathy_intonation_perc,2020.2.10,Win32,60,,,,,,,,,,1,mexican,1,1,1.5563,0,9,9,20,1,21,./stim/wavs/andalusian_match_interrogative-partial-wh_Por-que-abre-el-regalo.wav,./stim/wavs/argentine_match_interrogative-partial-wh_Por-que-abre-el-regalo.wav,./stim/wavs/castilian_match_interrogative-partial-wh_Por-que-abre-el-regalo.wav,./stim/wavs/chilean_match_interrogative-partial-wh_Por-que-abre-el-regalo.wav,./stim/wavs/cuban_match_interrogative-partial-wh_Por-que-abre-el-regalo.wav,./stim/wavs/mexican_match_interrogative-partial-wh_Por-que-abre-el-regalo.wav,./stim/wavs/peruvian_match_interrogative-partial-wh_Por-que-abre-el-regalo.wav,./stim/wavs/puertorican_match_interrogative-partial-wh_Por-que-abre-el-regalo.wav,,,,,,,,,,,,,,,,,,,,,,,,,,,,,,,,,,,,,,,,,,,,,,,,,,,,,,,,
,,,,,,,602854edbf92e76fc9c56355,6057c54e64b0b4e5c128b4f9,605a07241f654ac1c8afba12,Spain,Northeast,12 or younger,no,2021-03-23_11h20.30.461,empathy_intonation_perc,2020.2.10,Win32,60,,,,,,,,,,0,argentine,0,1,1.57857,0,10,10,0,1,1,./stim/wavs/andalusian_match_declarative-broad-focus_Ana-lleva-el-abrigo.wav,./stim/wavs/argentine_match_declarative-broad-focus_Ana-lleva-el-abrigo.wav,./stim/wavs/castilian_match_declarative-broad-focus_Ana-lleva-el-abrigo.wav,./stim/wavs/chilean_match_declarative-broad-focus_Ana-lleva-el-abrigo.wav,./stim/wavs/cuban_match_declarative-broad-focus_Ana-lleva-el-abrigo.wav,./stim/wavs/mexican_match_declarative-broad-focus_Ana-lleva-el-abrigo.wav,./stim/wavs/peruvian_match_declarative-broad-focus_Ana-lleva-el-abrigo.wav,./stim/wavs/puertorican_match_declarative-broad-focus_Ana-lleva-el-abrigo.wav,,,,,,,,,,,,,,,,,,,,,,,,,,,,,,,,,,,,,,,,,,,,,,,,,,,,,,,,
,,,,,,,602854edbf92e76fc9c56355,6057c54e64b0b4e5c128b4f9,605a07241f654ac1c8afba12,Spain,Northeast,12 or younger,no,2021-03-23_11h20.30.461,empathy_intonation_perc,2020.2.10,Win32,60,,,,,,,,,,1,puertorican,0,0,1.67502,0,11,11,60,1,61,./stim/wavs/andalusian_mismatch_interrogative-total-yn_La-nina-lava-el-plato.wav,./stim/wavs/argentine_mismatch_interrogative-total-yn_La-nina-lava-el-plato.wav,./stim/wavs/castilian_mismatch_interrogative-total-yn_La-nina-lava-el-plato.wav,./stim/wavs/chilean_mismatch_interrogative-total-yn_La-nina-lava-el-plato.wav,./stim/wavs/cuban_mismatch_interrogative-total-yn_La-nina-lava-el-plato.wav,./stim/wavs/mexican_mismatch_interrogative-total-yn_La-nina-lava-el-plato.wav,./stim/wavs/peruvian_mismatch_interrogative-total-yn_La-nina-lava-el-plato.wav,./stim/wavs/puertorican_mismatch_interrogative-total-yn_La-nina-lava-el-plato.wav,,,,,,,,,,,,,,,,,,,,,,,,,,,,,,,,,,,,,,,,,,,,,,,,,,,,,,,,
,,,,,,,602854edbf92e76fc9c56355,6057c54e64b0b4e5c128b4f9,605a07241f654ac1c8afba12,Spain,Northeast,12 or younger,no,2021-03-23_11h20.30.461,empathy_intonation_perc,2020.2.10,Win32,60,,,,,,,,,,0,castilian,0,1,1.615605,0,12,12,44,1,45,./stim/wavs/andalusian_mismatch_declarative-narrow-focus_La-nina-lava-el-plato.wav,./stim/wavs/argentine_mismatch_declarative-narrow-focus_La-nina-lava-el-plato.wav,./stim/wavs/castilian_mismatch_declarative-narrow-focus_La-nina-lava-el-plato.wav,./stim/wavs/chilean_mismatch_declarative-narrow-focus_La-nina-lava-el-plato.wav,./stim/wavs/cuban_mismatch_declarative-narrow-focus_La-nina-lava-el-plato.wav,./stim/wavs/mexican_mismatch_declarative-narrow-focus_La-nina-lava-el-plato.wav,./stim/wavs/peruvian_mismatch_declarative-narrow-focus_La-nina-lava-el-plato.wav,./stim/wavs/puertorican_mismatch_declarative-narrow-focus_La-nina-lava-el-plato.wav,,,,,,,,,,,,,,,,,,,,,,,,,,,,,,,,,,,,,,,,,,,,,,,,,,,,,,,,
,,,,,,,602854edbf92e76fc9c56355,6057c54e64b0b4e5c128b4f9,605a07241f654ac1c8afba12,Spain,Northeast,12 or younger,no,2021-03-23_11h20.30.461,empathy_intonation_perc,2020.2.10,Win32,60,,,,,,,,,,1,chilean,1,1,1.766105,0,13,13,53,1,54,./stim/wavs/andalusian_mismatch_interrogative-partial-wh_Por-que-oia-el-rio.wav,./stim/wavs/argentine_mismatch_interrogative-partial-wh_Por-que-oia-el-rio.wav,./stim/wavs/castilian_mismatch_interrogative-partial-wh_Por-que-oia-el-rio.wav,./stim/wavs/chilean_mismatch_interrogative-partial-wh_Por-que-oia-el-rio.wav,./stim/wavs/cuban_mismatch_interrogative-partial-wh_Por-que-oia-el-rio.wav,./stim/wavs/mexican_mismatch_interrogative-partial-wh_Por-que-oia-el-rio.wav,./stim/wavs/peruvian_mismatch_interrogative-partial-wh_Por-que-oia-el-rio.wav,./stim/wavs/puertorican_mismatch_interrogative-partial-wh_Por-que-oia-el-rio.wav,,,,,,,,,,,,,,,,,,,,,,,,,,,,,,,,,,,,,,,,,,,,,,,,,,,,,,,,
,,,,,,,602854edbf92e76fc9c56355,6057c54e64b0b4e5c128b4f9,605a07241f654ac1c8afba12,Spain,Northeast,12 or younger,no,2021-03-23_11h20.30.461,empathy_intonation_perc,2020.2.10,Win32,60,,,,,,,,,,0,cuban,0,1,1.69884,0,14,14,39,1,40,./stim/wavs/andalusian_mismatch_declarative-broad-focus_Mi-tia-odia-la-lluvia.wav,./stim/wavs/argentine_mismatch_declarative-broad-focus_Mi-tia-odia-la-lluvia.wav,./stim/wavs/castilian_mismatch_declarative-broad-focus_Mi-tia-odia-la-lluvia.wav,./stim/wavs/chilean_mismatch_declarative-broad-focus_Mi-tia-odia-la-lluvia.wav,./stim/wavs/cuban_mismatch_declarative-broad-focus_Mi-tia-odia-la-lluvia.wav,./stim/wavs/mexican_mismatch_declarative-broad-focus_Mi-tia-odia-la-lluvia.wav,./stim/wavs/peruvian_mismatch_declarative-broad-focus_Mi-tia-odia-la-lluvia.wav,./stim/wavs/puertorican_mismatch_declarative-broad-focus_Mi-tia-odia-la-lluvia.wav,,,,,,,,,,,,,,,,,,,,,,,,,,,,,,,,,,,,,,,,,,,,,,,,,,,,,,,,
,,,,,,,602854edbf92e76fc9c56355,6057c54e64b0b4e5c128b4f9,605a07241f654ac1c8afba12,Spain,Northeast,12 or younger,no,2021-03-23_11h20.30.461,empathy_intonation_perc,2020.2.10,Win32,60,,,,,,,,,,1,puertorican,1,1,1.372805,0,15,15,54,1,55,./stim/wavs/andalusian_mismatch_interrogative-partial-wh_Por-que-venia-del-lago.wav,./stim/wavs/argentine_mismatch_interrogative-partial-wh_Por-que-venia-del-lago.wav,./stim/wavs/castilian_mismatch_interrogative-partial-wh_Por-que-venia-del-lago.wav,./stim/wavs/chilean_mismatch_interrogative-partial-wh_Por-que-venia-del-lago.wav,./stim/wavs/cuban_mismatch_interrogative-partial-wh_Por-que-venia-del-lago.wav,./stim/wavs/mexican_mismatch_interrogative-partial-wh_Por-que-venia-del-lago.wav,./stim/wavs/peruvian_mismatch_interrogative-partial-wh_Por-que-venia-del-lago.wav,./stim/wavs/puertorican_mismatch_interrogative-partial-wh_Por-que-venia-del-lago.wav,,,,,,,,,,,,,,,,,,,,,,,,,,,,,,,,,,,,,,,,,,,,,,,,,,,,,,,,
,,,,,,,602854edbf92e76fc9c56355,6057c54e64b0b4e5c128b4f9,605a07241f654ac1c8afba12,Spain,Northeast,12 or younger,no,2021-03-23_11h20.30.461,empathy_intonation_perc,2020.2.10,Win32,60,,,,,,,,,,1,castilian,1,1,1.967975,0,16,16,62,1,63,./stim/wavs/andalusian_mismatch_interrogative-total-yn_Mi-novio-viene-del-lago.wav,./stim/wavs/argentine_mismatch_interrogative-total-yn_Mi-novio-viene-del-lago.wav,./stim/wavs/castilian_mismatch_interrogative-total-yn_Mi-novio-viene-del-lago.wav,./stim/wavs/chilean_mismatch_interrogative-total-yn_Mi-novio-viene-del-lago.wav,./stim/wavs/cuban_mismatch_interrogative-total-yn_Mi-novio-viene-del-lago.wav,./stim/wavs/mexican_mismatch_interrogative-total-yn_Mi-novio-viene-del-lago.wav,./stim/wavs/peruvian_mismatch_interrogative-total-yn_Mi-novio-viene-del-lago.wav,./stim/wavs/puertorican_mismatch_interrogative-total-yn_Mi-novio-viene-del-lago.wav,,,,,,,,,,,,,,,,,,,,,,,,,,,,,,,,,,,,,,,,,,,,,,,,,,,,,,,,
,,,,,,,602854edbf92e76fc9c56355,6057c54e64b0b4e5c128b4f9,605a07241f654ac1c8afba12,Spain,Northeast,12 or younger,no,2021-03-23_11h20.30.461,empathy_intonation_perc,2020.2.10,Win32,60,,,,,,,,,,0,andalusian,0,1,1.598955,0,17,17,42,1,43,./stim/wavs/andalusian_mismatch_declarative-narrow-focus_El-nino-oye-el-rio.wav,./stim/wavs/argentine_mismatch_declarative-narrow-focus_El-nino-oye-el-rio.wav,./stim/wavs/castilian_mismatch_declarative-narrow-focus_El-nino-oye-el-rio.wav,./stim/wavs/chilean_mismatch_declarative-narrow-focus_El-nino-oye-el-rio.wav,./stim/wavs/cuban_mismatch_declarative-narrow-focus_El-nino-oye-el-rio.wav,./stim/wavs/mexican_mismatch_declarative-narrow-focus_El-nino-oye-el-rio.wav,./stim/wavs/peruvian_mismatch_declarative-narrow-focus_El-nino-oye-el-rio.wav,./stim/wavs/puertorican_mismatch_declarative-narrow-focus_El-nino-oye-el-rio.wav,,,,,,,,,,,,,,,,,,,,,,,,,,,,,,,,,,,,,,,,,,,,,,,,,,,,,,,,
,,,,,,,602854edbf92e76fc9c56355,6057c54e64b0b4e5c128b4f9,605a07241f654ac1c8afba12,Spain,Northeast,12 or younger,no,2021-03-23_11h20.30.461,empathy_intonation_perc,2020.2.10,Win32,60,,,,,,,,,,0,chilean,0,1,1.912015,0,18,18,9,1,10,./stim/wavs/andalusian_match_declarative-narrow-focus_Daniel-iba-a-Bolivia.wav,./stim/wavs/argentine_match_declarative-narrow-focus_Daniel-iba-a-Bolivia.wav,./stim/wavs/castilian_match_declarative-narrow-focus_Daniel-iba-a-Bolivia.wav,./stim/wavs/chilean_match_declarative-narrow-focus_Daniel-iba-a-Bolivia.wav,./stim/wavs/cuban_match_declarative-narrow-focus_Daniel-iba-a-Bolivia.wav,./stim/wavs/mexican_match_declarative-narrow-focus_Daniel-iba-a-Bolivia.wav,./stim/wavs/peruvian_match_declarative-narrow-focus_Daniel-iba-a-Bolivia.wav,./stim/wavs/puertorican_match_declarative-narrow-focus_Daniel-iba-a-Bolivia.wav,,,,,,,,,,,,,,,,,,,,,,,,,,,,,,,,,,,,,,,,,,,,,,,,,,,,,,,,
,,,,,,,602854edbf92e76fc9c56355,6057c54e64b0b4e5c128b4f9,605a07241f654ac1c8afba12,Spain,Northeast,12 or younger,no,2021-03-23_11h20.30.461,empathy_intonation_perc,2020.2.10,Win32,60,,,,,,,,,,0,argentine,0,1,1.71591,0,19,19,45,1,46,./stim/wavs/andalusian_mismatch_declarative-narrow-focus_Mi-madre-come-la-fruta.wav,./stim/wavs/argentine_mismatch_declarative-narrow-focus_Mi-madre-come-la-fruta.wav,./stim/wavs/castilian_mismatch_declarative-narrow-focus_Mi-madre-come-la-fruta.wav,./stim/wavs/chilean_mismatch_declarative-narrow-focus_Mi-madre-come-la-fruta.wav,./stim/wavs/cuban_mismatch_declarative-narrow-focus_Mi-madre-come-la-fruta.wav,./stim/wavs/mexican_mismatch_declarative-narrow-focus_Mi-madre-come-la-fruta.wav,./stim/wavs/peruvian_mismatch_declarative-narrow-focus_Mi-madre-come-la-fruta.wav,./stim/wavs/puertorican_mismatch_declarative-narrow-focus_Mi-madre-come-la-fruta.wav,,,,,,,,,,,,,,,,,,,,,,,,,,,,,,,,,,,,,,,,,,,,,,,,,,,,,,,,
,,,,,,,602854edbf92e76fc9c56355,6057c54e64b0b4e5c128b4f9,605a07241f654ac1c8afba12,Spain,Northeast,12 or younger,no,2021-03-23_11h20.30.461,empathy_intonation_perc,2020.2.10,Win32,60,,,,,,,,,,0,peruvian,0,1,1.969905,0,20,20,35,1,36,./stim/wavs/andalusian_mismatch_declarative-broad-focus_La-maestra-vive-en-Paris.wav,./stim/wavs/argentine_mismatch_declarative-broad-focus_La-maestra-vive-en-Paris.wav,./stim/wavs/castilian_mismatch_declarative-broad-focus_La-maestra-vive-en-Paris.wav,./stim/wavs/chilean_mismatch_declarative-broad-focus_La-maestra-vive-en-Paris.wav,./stim/wavs/cuban_mismatch_declarative-broad-focus_La-maestra-vive-en-Paris.wav,./stim/wavs/mexican_mismatch_declarative-broad-focus_La-maestra-vive-en-Paris.wav,./stim/wavs/peruvian_mismatch_declarative-broad-focus_La-maestra-vive-en-Paris.wav,./stim/wavs/puertorican_mismatch_declarative-broad-focus_La-maestra-vive-en-Paris.wav,,,,,,,,,,,,,,,,,,,,,,,,,,,,,,,,,,,,,,,,,,,,,,,,,,,,,,,,
,,,,,,,602854edbf92e76fc9c56355,6057c54e64b0b4e5c128b4f9,605a07241f654ac1c8afba12,Spain,Northeast,12 or younger,no,2021-03-23_11h20.30.461,empathy_intonation_perc,2020.2.10,Win32,60,,,,,,,,,,0,argentine,0,1,1.567195,0,21,21,6,1,7,./stim/wavs/andalusian_match_declarative-broad-focus_Mariano-habla-del-tiempo.wav,./stim/wavs/argentine_match_declarative-broad-focus_Mariano-habla-del-tiempo.wav,./stim/wavs/castilian_match_declarative-broad-focus_Mariano-habla-del-tiempo.wav,./stim/wavs/chilean_match_declarative-broad-focus_Mariano-habla-del-tiempo.wav,./stim/wavs/cuban_match_declarative-broad-focus_Mariano-habla-del-tiempo.wav,./stim/wavs/mexican_match_declarative-broad-focus_Mariano-habla-del-tiempo.wav,./stim/wavs/peruvian_match_declarative-broad-focus_Mariano-habla-del-tiempo.wav,./stim/wavs/puertorican_match_declarative-broad-focus_Mariano-habla-del-tiempo.wav,,,,,,,,,,,,,,,,,,,,,,,,,,,,,,,,,,,,,,,,,,,,,,,,,,,,,,,,
,,,,,,,602854edbf92e76fc9c56355,6057c54e64b0b4e5c128b4f9,605a07241f654ac1c8afba12,Spain,Northeast,12 or younger,no,2021-03-23_11h20.30.461,empathy_intonation_perc,2020.2.10,Win32,60,,,,,,,,,,1,andalusian,1,1,1.69139,0,22,22,21,1,22,./stim/wavs/andalusian_match_interrogative-partial-wh_Por-que-ama-la-navidad.wav,./stim/wavs/argentine_match_interrogative-partial-wh_Por-que-ama-la-navidad.wav,./stim/wavs/castilian_match_interrogative-partial-wh_Por-que-ama-la-navidad.wav,./stim/wavs/chilean_match_interrogative-partial-wh_Por-que-ama-la-navidad.wav,./stim/wavs/cuban_match_interrogative-partial-wh_Por-que-ama-la-navidad.wav,./stim/wavs/mexican_match_interrogative-partial-wh_Por-que-ama-la-navidad.wav,./stim/wavs/peruvian_match_interrogative-partial-wh_Por-que-ama-la-navidad.wav,./stim/wavs/puertorican_match_interrogative-partial-wh_Por-que-ama-la-navidad.wav,,,,,,,,,,,,,,,,,,,,,,,,,,,,,,,,,,,,,,,,,,,,,,,,,,,,,,,,
,,,,,,,602854edbf92e76fc9c56355,6057c54e64b0b4e5c128b4f9,605a07241f654ac1c8afba12,Spain,Northeast,12 or younger,no,2021-03-23_11h20.30.461,empathy_intonation_perc,2020.2.10,Win32,60,,,,,,,,,,0,cuban,0,1,2.27154,0,23,23,46,1,47,./stim/wavs/andalusian_mismatch_declarative-narrow-focus_Mi-novio-viene-del-lago.wav,./stim/wavs/argentine_mismatch_declarative-narrow-focus_Mi-novio-viene-del-lago.wav,./stim/wavs/castilian_mismatch_declarative-narrow-focus_Mi-novio-viene-del-lago.wav,./stim/wavs/chilean_mismatch_declarative-narrow-focus_Mi-novio-viene-del-lago.wav,./stim/wavs/cuban_mismatch_declarative-narrow-focus_Mi-novio-viene-del-lago.wav,./stim/wavs/mexican_mismatch_declarative-narrow-focus_Mi-novio-viene-del-lago.wav,./stim/wavs/peruvian_mismatch_declarative-narrow-focus_Mi-novio-viene-del-lago.wav,./stim/wavs/puertorican_mismatch_declarative-narrow-focus_Mi-novio-viene-del-lago.wav,,,,,,,,,,,,,,,,,,,,,,,,,,,,,,,,,,,,,,,,,,,,,,,,,,,,,,,,
,,,,,,,602854edbf92e76fc9c56355,6057c54e64b0b4e5c128b4f9,605a07241f654ac1c8afba12,Spain,Northeast,12 or younger,no,2021-03-23_11h20.30.461,empathy_intonation_perc,2020.2.10,Win32,60,,,,,,,,,,0,chilean,0,1,2.43743,0,24,24,3,1,4,./stim/wavs/andalusian_match_declarative-broad-focus_Emilio-ama-la-marcha.wav,./stim/wavs/argentine_match_declarative-broad-focus_Emilio-ama-la-marcha.wav,./stim/wavs/castilian_match_declarative-broad-focus_Emilio-ama-la-marcha.wav,./stim/wavs/chilean_match_declarative-broad-focus_Emilio-ama-la-marcha.wav,./stim/wavs/cuban_match_declarative-broad-focus_Emilio-ama-la-marcha.wav,./stim/wavs/mexican_match_declarative-broad-focus_Emilio-ama-la-marcha.wav,./stim/wavs/peruvian_match_declarative-broad-focus_Emilio-ama-la-marcha.wav,./stim/wavs/puertorican_match_declarative-broad-focus_Emilio-ama-la-marcha.wav,,,,,,,,,,,,,,,,,,,,,,,,,,,,,,,,,,,,,,,,,,,,,,,,,,,,,,,,
,,,,,,,602854edbf92e76fc9c56355,6057c54e64b0b4e5c128b4f9,605a07241f654ac1c8afba12,Spain,Northeast,12 or younger,no,2021-03-23_11h20.30.461,empathy_intonation_perc,2020.2.10,Win32,60,,,,,,,,,,0,argentine,0,1,1.538055,0,25,25,5,1,6,./stim/wavs/andalusian_match_declarative-broad-focus_Maria-bebe-el-vino.wav,./stim/wavs/argentine_match_declarative-broad-focus_Maria-bebe-el-vino.wav,./stim/wavs/castilian_match_declarative-broad-focus_Maria-bebe-el-vino.wav,./stim/wavs/chilean_match_declarative-broad-focus_Maria-bebe-el-vino.wav,./stim/wavs/cuban_match_declarative-broad-focus_Maria-bebe-el-vino.wav,./stim/wavs/mexican_match_declarative-broad-focus_Maria-bebe-el-vino.wav,./stim/wavs/peruvian_match_declarative-broad-focus_Maria-bebe-el-vino.wav,./stim/wavs/puertorican_match_declarative-broad-focus_Maria-bebe-el-vino.wav,,,,,,,,,,,,,,,,,,,,,,,,,,,,,,,,,,,,,,,,,,,,,,,,,,,,,,,,
,,,,,,,602854edbf92e76fc9c56355,6057c54e64b0b4e5c128b4f9,605a07241f654ac1c8afba12,Spain,Northeast,12 or younger,no,2021-03-23_11h20.30.461,empathy_intonation_perc,2020.2.10,Win32,60,,,,,,,,,,0,chilean,0,1,2.165015,0,26,26,34,1,35,./stim/wavs/andalusian_mismatch_declarative-broad-focus_El-nino-oye-el-rio.wav,./stim/wavs/argentine_mismatch_declarative-broad-focus_El-nino-oye-el-rio.wav,./stim/wavs/castilian_mismatch_declarative-broad-focus_El-nino-oye-el-rio.wav,./stim/wavs/chilean_mismatch_declarative-broad-focus_El-nino-oye-el-rio.wav,./stim/wavs/cuban_mismatch_declarative-broad-focus_El-nino-oye-el-rio.wav,./stim/wavs/mexican_mismatch_declarative-broad-focus_El-nino-oye-el-rio.wav,./stim/wavs/peruvian_mismatch_declarative-broad-focus_El-nino-oye-el-rio.wav,./stim/wavs/puertorican_mismatch_declarative-broad-focus_El-nino-oye-el-rio.wav,,,,,,,,,,,,,,,,,,,,,,,,,,,,,,,,,,,,,,,,,,,,,,,,,,,,,,,,
,,,,,,,602854edbf92e76fc9c56355,6057c54e64b0b4e5c128b4f9,605a07241f654ac1c8afba12,Spain,Northeast,12 or younger,no,2021-03-23_11h20.30.461,empathy_intonation_perc,2020.2.10,Win32,60,,,,,,,,,,1,peruvian,1,1,2.32389,0,27,27,18,1,19,./stim/wavs/andalusian_match_interrogative-partial-wh_Cuando-lleva-el-abrigo.wav,./stim/wavs/argentine_match_interrogative-partial-wh_Cuando-lleva-el-abrigo.wav,./stim/wavs/castilian_match_interrogative-partial-wh_Cuando-lleva-el-abrigo.wav,./stim/wavs/chilean_match_interrogative-partial-wh_Cuando-lleva-el-abrigo.wav,./stim/wavs/cuban_match_interrogative-partial-wh_Cuando-lleva-el-abrigo.wav,./stim/wavs/mexican_match_interrogative-partial-wh_Cuando-lleva-el-abrigo.wav,./stim/wavs/peruvian_match_interrogative-partial-wh_Cuando-lleva-el-abrigo.wav,./stim/wavs/puertorican_match_interrogative-partial-wh_Cuando-lleva-el-abrigo.wav,,,,,,,,,,,,,,,,,,,,,,,,,,,,,,,,,,,,,,,,,,,,,,,,,,,,,,,,
,,,,,,,602854edbf92e76fc9c56355,6057c54e64b0b4e5c128b4f9,605a07241f654ac1c8afba12,Spain,Northeast,12 or younger,no,2021-03-23_11h20.30.461,empathy_intonation_perc,2020.2.10,Win32,60,,,,,,,,,,0,argentine,0,1,1.871235,0,28,28,2,1,3,./stim/wavs/andalusian_match_declarative-broad-focus_David-leia-el-libro.wav,./stim/wavs/argentine_match_declarative-broad-focus_David-leia-el-libro.wav,./stim/wavs/castilian_match_declarative-broad-focus_David-leia-el-libro.wav,./stim/wavs/chilean_match_declarative-broad-focus_David-leia-el-libro.wav,./stim/wavs/cuban_match_declarative-broad-focus_David-leia-el-libro.wav,./stim/wavs/mexican_match_declarative-broad-focus_David-leia-el-libro.wav,./stim/wavs/peruvian_match_declarative-broad-focus_David-leia-el-libro.wav,./stim/wavs/puertorican_match_declarative-broad-focus_David-leia-el-libro.wav,,,,,,,,,,,,,,,,,,,,,,,,,,,,,,,,,,,,,,,,,,,,,,,,,,,,,,,,
,,,,,,,602854edbf92e76fc9c56355,6057c54e64b0b4e5c128b4f9,605a07241f654ac1c8afba12,Spain,Northeast,12 or younger,no,2021-03-23_11h20.30.461,empathy_intonation_perc,2020.2.10,Win32,60,,,,,,,,,,0,castilian,0,1,2.020075,0,29,29,40,1,41,./stim/wavs/andalusian_mismatch_declarative-narrow-focus_El-bebe-comia-muy-bien.wav,./stim/wavs/argentine_mismatch_declarative-narrow-focus_El-bebe-comia-muy-bien.wav,./stim/wavs/castilian_mismatch_declarative-narrow-focus_El-bebe-comia-muy-bien.wav,./stim/wavs/chilean_mismatch_declarative-narrow-focus_El-bebe-comia-muy-bien.wav,./stim/wavs/cuban_mismatch_declarative-narrow-focus_El-bebe-comia-muy-bien.wav,./stim/wavs/mexican_mismatch_declarative-narrow-focus_El-bebe-comia-muy-bien.wav,./stim/wavs/peruvian_mismatch_declarative-narrow-focus_El-bebe-comia-muy-bien.wav,./stim/wavs/puertorican_mismatch_declarative-narrow-focus_El-bebe-comia-muy-bien.wav,,,,,,,,,,,,,,,,,,,,,,,,,,,,,,,,,,,,,,,,,,,,,,,,,,,,,,,,
,,,,,,,602854edbf92e76fc9c56355,6057c54e64b0b4e5c128b4f9,605a07241f654ac1c8afba12,Spain,Northeast,12 or younger,no,2021-03-23_11h20.30.461,empathy_intonation_perc,2020.2.10,Win32,60,,,,,,,,,,1,chilean,1,1,1.700365,0,30,30,17,1,18,./stim/wavs/andalusian_match_interrogative-partial-wh_Cuando-leia-el-libro.wav,./stim/wavs/argentine_match_interrogative-partial-wh_Cuando-leia-el-libro.wav,./stim/wavs/castilian_match_interrogative-partial-wh_Cuando-leia-el-libro.wav,./stim/wavs/chilean_match_interrogative-partial-wh_Cuando-leia-el-libro.wav,./stim/wavs/cuban_match_interrogative-partial-wh_Cuando-leia-el-libro.wav,./stim/wavs/mexican_match_interrogative-partial-wh_Cuando-leia-el-libro.wav,./stim/wavs/peruvian_match_interrogative-partial-wh_Cuando-leia-el-libro.wav,./stim/wavs/puertorican_match_interrogative-partial-wh_Cuando-leia-el-libro.wav,,,,,,,,,,,,,,,,,,,,,,,,,,,,,,,,,,,,,,,,,,,,,,,,,,,,,,,,
,,,,,,,602854edbf92e76fc9c56355,6057c54e64b0b4e5c128b4f9,605a07241f654ac1c8afba12,Spain,Northeast,12 or younger,no,2021-03-23_11h20.30.461,empathy_intonation_perc,2020.2.10,Win32,60,,,,,,,,,,1,argentine,0,0,1.832065,0,31,31,63,1,64,./stim/wavs/andalusian_mismatch_interrogative-total-yn_Mi-tia-odia-la-lluvia.wav,./stim/wavs/argentine_mismatch_interrogative-total-yn_Mi-tia-odia-la-lluvia.wav,./stim/wavs/castilian_mismatch_interrogative-total-yn_Mi-tia-odia-la-lluvia.wav,./stim/wavs/chilean_mismatch_interrogative-total-yn_Mi-tia-odia-la-lluvia.wav,./stim/wavs/cuban_mismatch_interrogative-total-yn_Mi-tia-odia-la-lluvia.wav,./stim/wavs/mexican_mismatch_interrogative-total-yn_Mi-tia-odia-la-lluvia.wav,./stim/wavs/peruvian_mismatch_interrogative-total-yn_Mi-tia-odia-la-lluvia.wav,./stim/wavs/puertorican_mismatch_interrogative-total-yn_Mi-tia-odia-la-lluvia.wav,,,,,,,,,,,,,,,,,,,,,,,,,,,,,,,,,,,,,,,,,,,,,,,,,,,,,,,,
,,,,,,,602854edbf92e76fc9c56355,6057c54e64b0b4e5c128b4f9,605a07241f654ac1c8afba12,Spain,Northeast,12 or younger,no,2021-03-23_11h20.30.461,empathy_intonation_perc,2020.2.10,Win32,60,,,,,,,,,,0,peruvian,0,1,2.031875,0,32,32,37,1,38,./stim/wavs/andalusian_mismatch_declarative-broad-focus_Mi-madre-come-la-fruta.wav,./stim/wavs/argentine_mismatch_declarative-broad-focus_Mi-madre-come-la-fruta.wav,./stim/wavs/castilian_mismatch_declarative-broad-focus_Mi-madre-come-la-fruta.wav,./stim/wavs/chilean_mismatch_declarative-broad-focus_Mi-madre-come-la-fruta.wav,./stim/wavs/cuban_mismatch_declarative-broad-focus_Mi-madre-come-la-fruta.wav,./stim/wavs/mexican_mismatch_declarative-broad-focus_Mi-madre-come-la-fruta.wav,./stim/wavs/peruvian_mismatch_declarative-broad-focus_Mi-madre-come-la-fruta.wav,./stim/wavs/puertorican_mismatch_declarative-broad-focus_Mi-madre-come-la-fruta.wav,,,,,,,,,,,,,,,,,,,,,,,,,,,,,,,,,,,,,,,,,,,,,,,,,,,,,,,,
,,,,,,,602854edbf92e76fc9c56355,6057c54e64b0b4e5c128b4f9,605a07241f654ac1c8afba12,Spain,Northeast,12 or younger,no,2021-03-23_11h20.30.461,empathy_intonation_perc,2020.2.10,Win32,60,,,,,,,,,,0,puertorican,0,1,1.61544,0,33,33,41,1,42,./stim/wavs/andalusian_mismatch_declarative-narrow-focus_El-hombre-mira-la-luna.wav,./stim/wavs/argentine_mismatch_declarative-narrow-focus_El-hombre-mira-la-luna.wav,./stim/wavs/castilian_mismatch_declarative-narrow-focus_El-hombre-mira-la-luna.wav,./stim/wavs/chilean_mismatch_declarative-narrow-focus_El-hombre-mira-la-luna.wav,./stim/wavs/cuban_mismatch_declarative-narrow-focus_El-hombre-mira-la-luna.wav,./stim/wavs/mexican_mismatch_declarative-narrow-focus_El-hombre-mira-la-luna.wav,./stim/wavs/peruvian_mismatch_declarative-narrow-focus_El-hombre-mira-la-luna.wav,./stim/wavs/puertorican_mismatch_declarative-narrow-focus_El-hombre-mira-la-luna.wav,,,,,,,,,,,,,,,,,,,,,,,,,,,,,,,,,,,,,,,,,,,,,,,,,,,,,,,,
,,,,,,,602854edbf92e76fc9c56355,6057c54e64b0b4e5c128b4f9,605a07241f654ac1c8afba12,Spain,Northeast,12 or younger,no,2021-03-23_11h20.30.461,empathy_intonation_perc,2020.2.10,Win32,60,,,,,,,,,,1,puertorican,0,0,2.00944,0,34,34,26,1,27,./stim/wavs/andalusian_match_interrogative-total-yn_David-leia-el-libro.wav,./stim/wavs/argentine_match_interrogative-total-yn_David-leia-el-libro.wav,./stim/wavs/castilian_match_interrogative-total-yn_David-leia-el-libro.wav,./stim/wavs/chilean_match_interrogative-total-yn_David-leia-el-libro.wav,./stim/wavs/cuban_match_interrogative-total-yn_David-leia-el-libro.wav,./stim/wavs/mexican_match_interrogative-total-yn_David-leia-el-libro.wav,./stim/wavs/peruvian_match_interrogative-total-yn_David-leia-el-libro.wav,./stim/wavs/puertorican_match_interrogative-total-yn_David-leia-el-libro.wav,,,,,,,,,,,,,,,,,,,,,,,,,,,,,,,,,,,,,,,,,,,,,,,,,,,,,,,,
,,,,,,,602854edbf92e76fc9c56355,6057c54e64b0b4e5c128b4f9,605a07241f654ac1c8afba12,Spain,Northeast,12 or younger,no,2021-03-23_11h20.30.461,empathy_intonation_perc,2020.2.10,Win32,60,,,,,,,,,,1,puertorican,0,0,1.989125,0,35,35,58,1,59,./stim/wavs/andalusian_mismatch_interrogative-total-yn_El-nino-oye-el-rio.wav,./stim/wavs/argentine_mismatch_interrogative-total-yn_El-nino-oye-el-rio.wav,./stim/wavs/castilian_mismatch_interrogative-total-yn_El-nino-oye-el-rio.wav,./stim/wavs/chilean_mismatch_interrogative-total-yn_El-nino-oye-el-rio.wav,./stim/wavs/cuban_mismatch_interrogative-total-yn_El-nino-oye-el-rio.wav,./stim/wavs/mexican_mismatch_interrogative-total-yn_El-nino-oye-el-rio.wav,./stim/wavs/peruvian_mismatch_interrogative-total-yn_El-nino-oye-el-rio.wav,./stim/wavs/puertorican_mismatch_interrogative-total-yn_El-nino-oye-el-rio.wav,,,,,,,,,,,,,,,,,,,,,,,,,,,,,,,,,,,,,,,,,,,,,,,,,,,,,,,,
,,,,,,,602854edbf92e76fc9c56355,6057c54e64b0b4e5c128b4f9,605a07241f654ac1c8afba12,Spain,Northeast,12 or younger,no,2021-03-23_11h20.30.461,empathy_intonation_perc,2020.2.10,Win32,60,,,,,,,,,,1,chilean,0,0,2.528535,0,36,36,59,1,60,./stim/wavs/andalusian_mismatch_interrogative-total-yn_La-maestra-vive-en-Paris.wav,./stim/wavs/argentine_mismatch_interrogative-total-yn_La-maestra-vive-en-Paris.wav,./stim/wavs/castilian_mismatch_interrogative-total-yn_La-maestra-vive-en-Paris.wav,./stim/wavs/chilean_mismatch_interrogative-total-yn_La-maestra-vive-en-Paris.wav,./stim/wavs/cuban_mismatch_interrogative-total-yn_La-maestra-vive-en-Paris.wav,./stim/wavs/mexican_mismatch_interrogative-total-yn_La-maestra-vive-en-Paris.wav,./stim/wavs/peruvian_mismatch_interrogative-total-yn_La-maestra-vive-en-Paris.wav,./stim/wavs/puertorican_mismatch_interrogative-total-yn_La-maestra-vive-en-Paris.wav,,,,,,,,,,,,,,,,,,,,,,,,,,,,,,,,,,,,,,,,,,,,,,,,,,,,,,,,
,,,,,,,602854edbf92e76fc9c56355,6057c54e64b0b4e5c128b4f9,605a07241f654ac1c8afba12,Spain,Northeast,12 or younger,no,2021-03-23_11h20.30.461,empathy_intonation_perc,2020.2.10,Win32,60,,,,,,,,,,1,peruvian,1,1,1.82826,0,37,37,29,1,30,./stim/wavs/andalusian_match_interrogative-total-yn_Maria-bebe-el-vino.wav,./stim/wavs/argentine_match_interrogative-total-yn_Maria-bebe-el-vino.wav,./stim/wavs/castilian_match_interrogative-total-yn_Maria-bebe-el-vino.wav,./stim/wavs/chilean_match_interrogative-total-yn_Maria-bebe-el-vino.wav,./stim/wavs/cuban_match_interrogative-total-yn_Maria-bebe-el-vino.wav,./stim/wavs/mexican_match_interrogative-total-yn_Maria-bebe-el-vino.wav,./stim/wavs/peruvian_match_interrogative-total-yn_Maria-bebe-el-vino.wav,./stim/wavs/puertorican_match_interrogative-total-yn_Maria-bebe-el-vino.wav,,,,,,,,,,,,,,,,,,,,,,,,,,,,,,,,,,,,,,,,,,,,,,,,,,,,,,,,
,,,,,,,602854edbf92e76fc9c56355,6057c54e64b0b4e5c128b4f9,605a07241f654ac1c8afba12,Spain,Northeast,12 or younger,no,2021-03-23_11h20.30.461,empathy_intonation_perc,2020.2.10,Win32,60,,,,,,,,,,1,cuban,0,0,1.5989,0,38,38,61,1,62,./stim/wavs/andalusian_mismatch_interrogative-total-yn_Mi-madre-come-la-fruta.wav,./stim/wavs/argentine_mismatch_interrogative-total-yn_Mi-madre-come-la-fruta.wav,./stim/wavs/castilian_mismatch_interrogative-total-yn_Mi-madre-come-la-fruta.wav,./stim/wavs/chilean_mismatch_interrogative-total-yn_Mi-madre-come-la-fruta.wav,./stim/wavs/cuban_mismatch_interrogative-total-yn_Mi-madre-come-la-fruta.wav,./stim/wavs/mexican_mismatch_interrogative-total-yn_Mi-madre-come-la-fruta.wav,./stim/wavs/peruvian_mismatch_interrogative-total-yn_Mi-madre-come-la-fruta.wav,./stim/wavs/puertorican_mismatch_interrogative-total-yn_Mi-madre-come-la-fruta.wav,,,,,,,,,,,,,,,,,,,,,,,,,,,,,,,,,,,,,,,,,,,,,,,,,,,,,,,,
,,,,,,,602854edbf92e76fc9c56355,6057c54e64b0b4e5c128b4f9,605a07241f654ac1c8afba12,Spain,Northeast,12 or younger,no,2021-03-23_11h20.30.461,empathy_intonation_perc,2020.2.10,Win32,60,,,,,,,,,,1,puertorican,0,0,3.40351,0,39,39,49,1,50,./stim/wavs/andalusian_mismatch_interrogative-partial-wh_Cuando-lavaba-el-plato.wav,./stim/wavs/argentine_mismatch_interrogative-partial-wh_Cuando-lavaba-el-plato.wav,./stim/wavs/castilian_mismatch_interrogative-partial-wh_Cuando-lavaba-el-plato.wav,./stim/wavs/chilean_mismatch_interrogative-partial-wh_Cuando-lavaba-el-plato.wav,./stim/wavs/cuban_mismatch_interrogative-partial-wh_Cuando-lavaba-el-plato.wav,./stim/wavs/mexican_mismatch_interrogative-partial-wh_Cuando-lavaba-el-plato.wav,./stim/wavs/peruvian_mismatch_interrogative-partial-wh_Cuando-lavaba-el-plato.wav,./stim/wavs/puertorican_mismatch_interrogative-partial-wh_Cuando-lavaba-el-plato.wav,,,,,,,,,,,,,,,,,,,,,,,,,,,,,,,,,,,,,,,,,,,,,,,,,,,,,,,,
,,,,,,,602854edbf92e76fc9c56355,6057c54e64b0b4e5c128b4f9,605a07241f654ac1c8afba12,Spain,Northeast,12 or younger,no,2021-03-23_11h20.30.461,empathy_intonation_perc,2020.2.10,Win32,60,,,,,,,,,,1,mexican,1,1,1.55327,0,40,40,57,1,58,./stim/wavs/andalusian_mismatch_interrogative-total-yn_El-hombre-mira-la-luna.wav,./stim/wavs/argentine_mismatch_interrogative-total-yn_El-hombre-mira-la-luna.wav,./stim/wavs/castilian_mismatch_interrogative-total-yn_El-hombre-mira-la-luna.wav,./stim/wavs/chilean_mismatch_interrogative-total-yn_El-hombre-mira-la-luna.wav,./stim/wavs/cuban_mismatch_interrogative-total-yn_El-hombre-mira-la-luna.wav,./stim/wavs/mexican_mismatch_interrogative-total-yn_El-hombre-mira-la-luna.wav,./stim/wavs/peruvian_mismatch_interrogative-total-yn_El-hombre-mira-la-luna.wav,./stim/wavs/puertorican_mismatch_interrogative-total-yn_El-hombre-mira-la-luna.wav,,,,,,,,,,,,,,,,,,,,,,,,,,,,,,,,,,,,,,,,,,,,,,,,,,,,,,,,
,,,,,,,602854edbf92e76fc9c56355,6057c54e64b0b4e5c128b4f9,605a07241f654ac1c8afba12,Spain,Northeast,12 or younger,no,2021-03-23_11h20.30.461,empathy_intonation_perc,2020.2.10,Win32,60,,,,,,,,,,0,castilian,0,1,1.85723,0,41,41,13,1,14,./stim/wavs/andalusian_match_declarative-narrow-focus_Maria-bebe-el-vino.wav,./stim/wavs/argentine_match_declarative-narrow-focus_Maria-bebe-el-vino.wav,./stim/wavs/castilian_match_declarative-narrow-focus_Maria-bebe-el-vino.wav,./stim/wavs/chilean_match_declarative-narrow-focus_Maria-bebe-el-vino.wav,./stim/wavs/cuban_match_declarative-narrow-focus_Maria-bebe-el-vino.wav,./stim/wavs/mexican_match_declarative-narrow-focus_Maria-bebe-el-vino.wav,./stim/wavs/peruvian_match_declarative-narrow-focus_Maria-bebe-el-vino.wav,./stim/wavs/puertorican_match_declarative-narrow-focus_Maria-bebe-el-vino.wav,,,,,,,,,,,,,,,,,,,,,,,,,,,,,,,,,,,,,,,,,,,,,,,,,,,,,,,,
,,,,,,,602854edbf92e76fc9c56355,6057c54e64b0b4e5c128b4f9,605a07241f654ac1c8afba12,Spain,Northeast,12 or younger,no,2021-03-23_11h20.30.461,empathy_intonation_perc,2020.2.10,Win32,60,,,,,,,,,,1,argentine,1,1,1.41763,0,42,42,23,1,24,./stim/wavs/andalusian_match_interrogative-partial-wh_Por-que-iba-a-Bolivia.wav,./stim/wavs/argentine_match_interrogative-partial-wh_Por-que-iba-a-Bolivia.wav,./stim/wavs/castilian_match_interrogative-partial-wh_Por-que-iba-a-Bolivia.wav,./stim/wavs/chilean_match_interrogative-partial-wh_Por-que-iba-a-Bolivia.wav,./stim/wavs/cuban_match_interrogative-partial-wh_Por-que-iba-a-Bolivia.wav,./stim/wavs/mexican_match_interrogative-partial-wh_Por-que-iba-a-Bolivia.wav,./stim/wavs/peruvian_match_interrogative-partial-wh_Por-que-iba-a-Bolivia.wav,./stim/wavs/puertorican_match_interrogative-partial-wh_Por-que-iba-a-Bolivia.wav,,,,,,,,,,,,,,,,,,,,,,,,,,,,,,,,,,,,,,,,,,,,,,,,,,,,,,,,
,,,,,,,602854edbf92e76fc9c56355,6057c54e64b0b4e5c128b4f9,605a07241f654ac1c8afba12,Spain,Northeast,12 or younger,no,2021-03-23_11h20.30.461,empathy_intonation_perc,2020.2.10,Win32,60,,,,,,,,,,1,puertorican,1,1,2.96458,0,43,43,56,1,57,./stim/wavs/andalusian_mismatch_interrogative-total-yn_El-bebe-comia-muy-bien.wav,./stim/wavs/argentine_mismatch_interrogative-total-yn_El-bebe-comia-muy-bien.wav,./stim/wavs/castilian_mismatch_interrogative-total-yn_El-bebe-comia-muy-bien.wav,./stim/wavs/chilean_mismatch_interrogative-total-yn_El-bebe-comia-muy-bien.wav,./stim/wavs/cuban_mismatch_interrogative-total-yn_El-bebe-comia-muy-bien.wav,./stim/wavs/mexican_mismatch_interrogative-total-yn_El-bebe-comia-muy-bien.wav,./stim/wavs/peruvian_mismatch_interrogative-total-yn_El-bebe-comia-muy-bien.wav,./stim/wavs/puertorican_mismatch_interrogative-total-yn_El-bebe-comia-muy-bien.wav,,,,,,,,,,,,,,,,,,,,,,,,,,,,,,,,,,,,,,,,,,,,,,,,,,,,,,,,
,,,,,,,602854edbf92e76fc9c56355,6057c54e64b0b4e5c128b4f9,605a07241f654ac1c8afba12,Spain,Northeast,12 or younger,no,2021-03-23_11h20.30.461,empathy_intonation_perc,2020.2.10,Win32,60,,,,,,,,,,1,mexican,1,1,1.59377,0,44,44,19,1,20,./stim/wavs/andalusian_match_interrogative-partial-wh_Cuando-vendia-el-carro.wav,./stim/wavs/argentine_match_interrogative-partial-wh_Cuando-vendia-el-carro.wav,./stim/wavs/castilian_match_interrogative-partial-wh_Cuando-vendia-el-carro.wav,./stim/wavs/chilean_match_interrogative-partial-wh_Cuando-vendia-el-carro.wav,./stim/wavs/cuban_match_interrogative-partial-wh_Cuando-vendia-el-carro.wav,./stim/wavs/mexican_match_interrogative-partial-wh_Cuando-vendia-el-carro.wav,./stim/wavs/peruvian_match_interrogative-partial-wh_Cuando-vendia-el-carro.wav,./stim/wavs/puertorican_match_interrogative-partial-wh_Cuando-vendia-el-carro.wav,,,,,,,,,,,,,,,,,,,,,,,,,,,,,,,,,,,,,,,,,,,,,,,,,,,,,,,,
,,,,,,,602854edbf92e76fc9c56355,6057c54e64b0b4e5c128b4f9,605a07241f654ac1c8afba12,Spain,Northeast,12 or younger,no,2021-03-23_11h20.30.461,empathy_intonation_perc,2020.2.10,Win32,60,,,,,,,,,,1,mexican,1,1,1.703895,0,45,45,25,1,26,./stim/wavs/andalusian_match_interrogative-total-yn_Daniel-iba-a-Bolivia.wav,./stim/wavs/argentine_match_interrogative-total-yn_Daniel-iba-a-Bolivia.wav,./stim/wavs/castilian_match_interrogative-total-yn_Daniel-iba-a-Bolivia.wav,./stim/wavs/chilean_match_interrogative-total-yn_Daniel-iba-a-Bolivia.wav,./stim/wavs/cuban_match_interrogative-total-yn_Daniel-iba-a-Bolivia.wav,./stim/wavs/mexican_match_interrogative-total-yn_Daniel-iba-a-Bolivia.wav,./stim/wavs/peruvian_match_interrogative-total-yn_Daniel-iba-a-Bolivia.wav,./stim/wavs/puertorican_match_interrogative-total-yn_Daniel-iba-a-Bolivia.wav,,,,,,,,,,,,,,,,,,,,,,,,,,,,,,,,,,,,,,,,,,,,,,,,,,,,,,,,
,,,,,,,602854edbf92e76fc9c56355,6057c54e64b0b4e5c128b4f9,605a07241f654ac1c8afba12,Spain,Northeast,12 or younger,no,2021-03-23_11h20.30.461,empathy_intonation_perc,2020.2.10,Win32,60,,,,,,,,,,0,puertorican,0,1,1.629145,0,46,46,11,1,12,./stim/wavs/andalusian_match_declarative-narrow-focus_Emilio-ama-la-marcha.wav,./stim/wavs/argentine_match_declarative-narrow-focus_Emilio-ama-la-marcha.wav,./stim/wavs/castilian_match_declarative-narrow-focus_Emilio-ama-la-marcha.wav,./stim/wavs/chilean_match_declarative-narrow-focus_Emilio-ama-la-marcha.wav,./stim/wavs/cuban_match_declarative-narrow-focus_Emilio-ama-la-marcha.wav,./stim/wavs/mexican_match_declarative-narrow-focus_Emilio-ama-la-marcha.wav,./stim/wavs/peruvian_match_declarative-narrow-focus_Emilio-ama-la-marcha.wav,./stim/wavs/puertorican_match_declarative-narrow-focus_Emilio-ama-la-marcha.wav,,,,,,,,,,,,,,,,,,,,,,,,,,,,,,,,,,,,,,,,,,,,,,,,,,,,,,,,
,,,,,,,602854edbf92e76fc9c56355,6057c54e64b0b4e5c128b4f9,605a07241f654ac1c8afba12,Spain,Northeast,12 or younger,no,2021-03-23_11h20.30.461,empathy_intonation_perc,2020.2.10,Win32,60,,,,,,,,,,1,peruvian,1,1,1.754295,0,47,47,16,1,17,./stim/wavs/andalusian_match_interrogative-partial-wh_Cuando-bebia-el-vino.wav,./stim/wavs/argentine_match_interrogative-partial-wh_Cuando-bebia-el-vino.wav,./stim/wavs/castilian_match_interrogative-partial-wh_Cuando-bebia-el-vino.wav,./stim/wavs/chilean_match_interrogative-partial-wh_Cuando-bebia-el-vino.wav,./stim/wavs/cuban_match_interrogative-partial-wh_Cuando-bebia-el-vino.wav,./stim/wavs/mexican_match_interrogative-partial-wh_Cuando-bebia-el-vino.wav,./stim/wavs/peruvian_match_interrogative-partial-wh_Cuando-bebia-el-vino.wav,./stim/wavs/puertorican_match_interrogative-partial-wh_Cuando-bebia-el-vino.wav,,,,,,,,,,,,,,,,,,,,,,,,,,,,,,,,,,,,,,,,,,,,,,,,,,,,,,,,
,,,,,,,602854edbf92e76fc9c56355,6057c54e64b0b4e5c128b4f9,605a07241f654ac1c8afba12,Spain,Northeast,12 or younger,no,2021-03-23_11h20.30.461,empathy_intonation_perc,2020.2.10,Win32,60,,,,,,,,,,0,cuban,0,1,1.68212,0,48,48,38,1,39,./stim/wavs/andalusian_mismatch_declarative-broad-focus_Mi-novio-viene-del-lago.wav,./stim/wavs/argentine_mismatch_declarative-broad-focus_Mi-novio-viene-del-lago.wav,./stim/wavs/castilian_mismatch_declarative-broad-focus_Mi-novio-viene-del-lago.wav,./stim/wavs/chilean_mismatch_declarative-broad-focus_Mi-novio-viene-del-lago.wav,./stim/wavs/cuban_mismatch_declarative-broad-focus_Mi-novio-viene-del-lago.wav,./stim/wavs/mexican_mismatch_declarative-broad-focus_Mi-novio-viene-del-lago.wav,./stim/wavs/peruvian_mismatch_declarative-broad-focus_Mi-novio-viene-del-lago.wav,./stim/wavs/puertorican_mismatch_declarative-broad-focus_Mi-novio-viene-del-lago.wav,,,,,,,,,,,,,,,,,,,,,,,,,,,,,,,,,,,,,,,,,,,,,,,,,,,,,,,,
,,,,,,,602854edbf92e76fc9c56355,6057c54e64b0b4e5c128b4f9,605a07241f654ac1c8afba12,Spain,Northeast,12 or younger,no,2021-03-23_11h20.30.461,empathy_intonation_perc,2020.2.10,Win32,60,,,,,,,,,,1,mexican,1,1,1.902655,0,49,49,30,1,31,./stim/wavs/andalusian_match_interrogative-total-yn_Mariano-habla-del-tiempo.wav,./stim/wavs/argentine_match_interrogative-total-yn_Mariano-habla-del-tiempo.wav,./stim/wavs/castilian_match_interrogative-total-yn_Mariano-habla-del-tiempo.wav,./stim/wavs/chilean_match_interrogative-total-yn_Mariano-habla-del-tiempo.wav,./stim/wavs/cuban_match_interrogative-total-yn_Mariano-habla-del-tiempo.wav,./stim/wavs/mexican_match_interrogative-total-yn_Mariano-habla-del-tiempo.wav,./stim/wavs/peruvian_match_interrogative-total-yn_Mariano-habla-del-tiempo.wav,./stim/wavs/puertorican_match_interrogative-total-yn_Mariano-habla-del-tiempo.wav,,,,,,,,,,,,,,,,,,,,,,,,,,,,,,,,,,,,,,,,,,,,,,,,,,,,,,,,
,,,,,,,602854edbf92e76fc9c56355,6057c54e64b0b4e5c128b4f9,605a07241f654ac1c8afba12,Spain,Northeast,12 or younger,no,2021-03-23_11h20.30.461,empathy_intonation_perc,2020.2.10,Win32,60,,,,,,,,,,1,castilian,1,1,1.824605,0,50,50,24,1,25,./stim/wavs/andalusian_match_interrogative-total-yn_Ana-lleva-el-abrigo.wav,./stim/wavs/argentine_match_interrogative-total-yn_Ana-lleva-el-abrigo.wav,./stim/wavs/castilian_match_interrogative-total-yn_Ana-lleva-el-abrigo.wav,./stim/wavs/chilean_match_interrogative-total-yn_Ana-lleva-el-abrigo.wav,./stim/wavs/cuban_match_interrogative-total-yn_Ana-lleva-el-abrigo.wav,./stim/wavs/mexican_match_interrogative-total-yn_Ana-lleva-el-abrigo.wav,./stim/wavs/peruvian_match_interrogative-total-yn_Ana-lleva-el-abrigo.wav,./stim/wavs/puertorican_match_interrogative-total-yn_Ana-lleva-el-abrigo.wav,,,,,,,,,,,,,,,,,,,,,,,,,,,,,,,,,,,,,,,,,,,,,,,,,,,,,,,,
,,,,,,,602854edbf92e76fc9c56355,6057c54e64b0b4e5c128b4f9,605a07241f654ac1c8afba12,Spain,Northeast,12 or younger,no,2021-03-23_11h20.30.461,empathy_intonation_perc,2020.2.10,Win32,60,,,,,,,,,,1,andalusian,1,1,1.87446,0,51,51,48,1,49,./stim/wavs/andalusian_mismatch_interrogative-partial-wh_Cuando-comia-la-fruta.wav,./stim/wavs/argentine_mismatch_interrogative-partial-wh_Cuando-comia-la-fruta.wav,./stim/wavs/castilian_mismatch_interrogative-partial-wh_Cuando-comia-la-fruta.wav,./stim/wavs/chilean_mismatch_interrogative-partial-wh_Cuando-comia-la-fruta.wav,./stim/wavs/cuban_mismatch_interrogative-partial-wh_Cuando-comia-la-fruta.wav,./stim/wavs/mexican_mismatch_interrogative-partial-wh_Cuando-comia-la-fruta.wav,./stim/wavs/peruvian_mismatch_interrogative-partial-wh_Cuando-comia-la-fruta.wav,./stim/wavs/puertorican_mismatch_interrogative-partial-wh_Cuando-comia-la-fruta.wav,,,,,,,,,,,,,,,,,,,,,,,,,,,,,,,,,,,,,,,,,,,,,,,,,,,,,,,,
,,,,,,,602854edbf92e76fc9c56355,6057c54e64b0b4e5c128b4f9,605a07241f654ac1c8afba12,Spain,Northeast,12 or younger,no,2021-03-23_11h20.30.461,empathy_intonation_perc,2020.2.10,Win32,60,,,,,,,,,,0,castilian,0,1,1.90972,0,52,52,32,1,33,./stim/wavs/andalusian_mismatch_declarative-broad-focus_El-bebe-comia-muy-bien.wav,./stim/wavs/argentine_mismatch_declarative-broad-focus_El-bebe-comia-muy-bien.wav,./stim/wavs/castilian_mismatch_declarative-broad-focus_El-bebe-comia-muy-bien.wav,./stim/wavs/chilean_mismatch_declarative-broad-focus_El-bebe-comia-muy-bien.wav,./stim/wavs/cuban_mismatch_declarative-broad-focus_El-bebe-comia-muy-bien.wav,./stim/wavs/mexican_mismatch_declarative-broad-focus_El-bebe-comia-muy-bien.wav,./stim/wavs/peruvian_mismatch_declarative-broad-focus_El-bebe-comia-muy-bien.wav,./stim/wavs/puertorican_mismatch_declarative-broad-focus_El-bebe-comia-muy-bien.wav,,,,,,,,,,,,,,,,,,,,,,,,,,,,,,,,,,,,,,,,,,,,,,,,,,,,,,,,
,,,,,,,602854edbf92e76fc9c56355,6057c54e64b0b4e5c128b4f9,605a07241f654ac1c8afba12,Spain,Northeast,12 or younger,no,2021-03-23_11h20.30.461,empathy_intonation_perc,2020.2.10,Win32,60,,,,,,,,,,0,cuban,0,1,1.710865,0,53,53,12,1,13,./stim/wavs/andalusian_match_declarative-narrow-focus_Manuela-vende-el-carro.wav,./stim/wavs/argentine_match_declarative-narrow-focus_Manuela-vende-el-carro.wav,./stim/wavs/castilian_match_declarative-narrow-focus_Manuela-vende-el-carro.wav,./stim/wavs/chilean_match_declarative-narrow-focus_Manuela-vende-el-carro.wav,./stim/wavs/cuban_match_declarative-narrow-focus_Manuela-vende-el-carro.wav,./stim/wavs/mexican_match_declarative-narrow-focus_Manuela-vende-el-carro.wav,./stim/wavs/peruvian_match_declarative-narrow-focus_Manuela-vende-el-carro.wav,./stim/wavs/puertorican_match_declarative-narrow-focus_Manuela-vende-el-carro.wav,,,,,,,,,,,,,,,,,,,,,,,,,,,,,,,,,,,,,,,,,,,,,,,,,,,,,,,,
,,,,,,,602854edbf92e76fc9c56355,6057c54e64b0b4e5c128b4f9,605a07241f654ac1c8afba12,Spain,Northeast,12 or younger,no,2021-03-23_11h20.30.461,empathy_intonation_perc,2020.2.10,Win32,60,,,,,,,,,,1,mexican,1,1,1.754605,0,54,54,52,1,53,./stim/wavs/andalusian_mismatch_interrogative-partial-wh_Por-que-odiaba-la-lluvia.wav,./stim/wavs/argentine_mismatch_interrogative-partial-wh_Por-que-odiaba-la-lluvia.wav,./stim/wavs/castilian_mismatch_interrogative-partial-wh_Por-que-odiaba-la-lluvia.wav,./stim/wavs/chilean_mismatch_interrogative-partial-wh_Por-que-odiaba-la-lluvia.wav,./stim/wavs/cuban_mismatch_interrogative-partial-wh_Por-que-odiaba-la-lluvia.wav,./stim/wavs/mexican_mismatch_interrogative-partial-wh_Por-que-odiaba-la-lluvia.wav,./stim/wavs/peruvian_mismatch_interrogative-partial-wh_Por-que-odiaba-la-lluvia.wav,./stim/wavs/puertorican_mismatch_interrogative-partial-wh_Por-que-odiaba-la-lluvia.wav,,,,,,,,,,,,,,,,,,,,,,,,,,,,,,,,,,,,,,,,,,,,,,,,,,,,,,,,
,,,,,,,602854edbf92e76fc9c56355,6057c54e64b0b4e5c128b4f9,605a07241f654ac1c8afba12,Spain,Northeast,12 or younger,no,2021-03-23_11h20.30.461,empathy_intonation_perc,2020.2.10,Win32,60,,,,,,,,,,0,andalusian,0,1,1.94506,0,55,55,1,1,2,./stim/wavs/andalusian_match_declarative-broad-focus_Daniel-iba-a-Bolivia.wav,./stim/wavs/argentine_match_declarative-broad-focus_Daniel-iba-a-Bolivia.wav,./stim/wavs/castilian_match_declarative-broad-focus_Daniel-iba-a-Bolivia.wav,./stim/wavs/chilean_match_declarative-broad-focus_Daniel-iba-a-Bolivia.wav,./stim/wavs/cuban_match_declarative-broad-focus_Daniel-iba-a-Bolivia.wav,./stim/wavs/mexican_match_declarative-broad-focus_Daniel-iba-a-Bolivia.wav,./stim/wavs/peruvian_match_declarative-broad-focus_Daniel-iba-a-Bolivia.wav,./stim/wavs/puertorican_match_declarative-broad-focus_Daniel-iba-a-Bolivia.wav,,,,,,,,,,,,,,,,,,,,,,,,,,,,,,,,,,,,,,,,,,,,,,,,,,,,,,,,
,,,,,,,602854edbf92e76fc9c56355,6057c54e64b0b4e5c128b4f9,605a07241f654ac1c8afba12,Spain,Northeast,12 or younger,no,2021-03-23_11h20.30.461,empathy_intonation_perc,2020.2.10,Win32,60,,,,,,,,,,1,mexican,1,1,1.72764,0,56,56,31,1,32,./stim/wavs/andalusian_match_interrogative-total-yn_Marta-abre-el-regalo.wav,./stim/wavs/argentine_match_interrogative-total-yn_Marta-abre-el-regalo.wav,./stim/wavs/castilian_match_interrogative-total-yn_Marta-abre-el-regalo.wav,./stim/wavs/chilean_match_interrogative-total-yn_Marta-abre-el-regalo.wav,./stim/wavs/cuban_match_interrogative-total-yn_Marta-abre-el-regalo.wav,./stim/wavs/mexican_match_interrogative-total-yn_Marta-abre-el-regalo.wav,./stim/wavs/peruvian_match_interrogative-total-yn_Marta-abre-el-regalo.wav,./stim/wavs/puertorican_match_interrogative-total-yn_Marta-abre-el-regalo.wav,,,,,,,,,,,,,,,,,,,,,,,,,,,,,,,,,,,,,,,,,,,,,,,,,,,,,,,,
,,,,,,,602854edbf92e76fc9c56355,6057c54e64b0b4e5c128b4f9,605a07241f654ac1c8afba12,Spain,Northeast,12 or younger,no,2021-03-23_11h20.30.461,empathy_intonation_perc,2020.2.10,Win32,60,,,,,,,,,,0,peruvian,0,1,1.848885,0,57,57,33,1,34,./stim/wavs/andalusian_mismatch_declarative-broad-focus_El-hombre-mira-la-luna.wav,./stim/wavs/argentine_mismatch_declarative-broad-focus_El-hombre-mira-la-luna.wav,./stim/wavs/castilian_mismatch_declarative-broad-focus_El-hombre-mira-la-luna.wav,./stim/wavs/chilean_mismatch_declarative-broad-focus_El-hombre-mira-la-luna.wav,./stim/wavs/cuban_mismatch_declarative-broad-focus_El-hombre-mira-la-luna.wav,./stim/wavs/mexican_mismatch_declarative-broad-focus_El-hombre-mira-la-luna.wav,./stim/wavs/peruvian_mismatch_declarative-broad-focus_El-hombre-mira-la-luna.wav,./stim/wavs/puertorican_mismatch_declarative-broad-focus_El-hombre-mira-la-luna.wav,,,,,,,,,,,,,,,,,,,,,,,,,,,,,,,,,,,,,,,,,,,,,,,,,,,,,,,,
,,,,,,,602854edbf92e76fc9c56355,6057c54e64b0b4e5c128b4f9,605a07241f654ac1c8afba12,Spain,Northeast,12 or younger,no,2021-03-23_11h20.30.461,empathy_intonation_perc,2020.2.10,Win32,60,,,,,,,,,,0,chilean,0,1,1.37944,0,58,58,4,1,5,./stim/wavs/andalusian_match_declarative-broad-focus_Manuela-vende-el-carro.wav,./stim/wavs/argentine_match_declarative-broad-focus_Manuela-vende-el-carro.wav,./stim/wavs/castilian_match_declarative-broad-focus_Manuela-vende-el-carro.wav,./stim/wavs/chilean_match_declarative-broad-focus_Manuela-vende-el-carro.wav,./stim/wavs/cuban_match_declarative-broad-focus_Manuela-vende-el-carro.wav,./stim/wavs/mexican_match_declarative-broad-focus_Manuela-vende-el-carro.wav,./stim/wavs/peruvian_match_declarative-broad-focus_Manuela-vende-el-carro.wav,./stim/wavs/puertorican_match_declarative-broad-focus_Manuela-vende-el-carro.wav,,,,,,,,,,,,,,,,,,,,,,,,,,,,,,,,,,,,,,,,,,,,,,,,,,,,,,,,
,,,,,,,602854edbf92e76fc9c56355,6057c54e64b0b4e5c128b4f9,605a07241f654ac1c8afba12,Spain,Northeast,12 or younger,no,2021-03-23_11h20.30.461,empathy_intonation_perc,2020.2.10,Win32,60,,,,,,,,,,1,andalusian,0,0,1.74576,0,59,59,27,1,28,./stim/wavs/andalusian_match_interrogative-total-yn_Emilio-ama-la-marcha.wav,./stim/wavs/argentine_match_interrogative-total-yn_Emilio-ama-la-marcha.wav,./stim/wavs/castilian_match_interrogative-total-yn_Emilio-ama-la-marcha.wav,./stim/wavs/chilean_match_interrogative-total-yn_Emilio-ama-la-marcha.wav,./stim/wavs/cuban_match_interrogative-total-yn_Emilio-ama-la-marcha.wav,./stim/wavs/mexican_match_interrogative-total-yn_Emilio-ama-la-marcha.wav,./stim/wavs/peruvian_match_interrogative-total-yn_Emilio-ama-la-marcha.wav,./stim/wavs/puertorican_match_interrogative-total-yn_Emilio-ama-la-marcha.wav,,,,,,,,,,,,,,,,,,,,,,,,,,,,,,,,,,,,,,,,,,,,,,,,,,,,,,,,
,,,,,,,602854edbf92e76fc9c56355,6057c54e64b0b4e5c128b4f9,605a07241f654ac1c8afba12,Spain,Northeast,12 or younger,no,2021-03-23_11h20.30.461,empathy_intonation_perc,2020.2.10,Win32,60,,,,,,,,,,1,mexican,1,1,1.695005,0,60,60,22,1,23,./stim/wavs/andalusian_match_interrogative-partial-wh_Por-que-hablaba-del-agua.wav,./stim/wavs/argentine_match_interrogative-partial-wh_Por-que-hablaba-del-agua.wav,./stim/wavs/castilian_match_interrogative-partial-wh_Por-que-hablaba-del-agua.wav,./stim/wavs/chilean_match_interrogative-partial-wh_Por-que-hablaba-del-agua.wav,./stim/wavs/cuban_match_interrogative-partial-wh_Por-que-hablaba-del-agua.wav,./stim/wavs/mexican_match_interrogative-partial-wh_Por-que-hablaba-del-agua.wav,./stim/wavs/peruvian_match_interrogative-partial-wh_Por-que-hablaba-del-agua.wav,./stim/wavs/puertorican_match_interrogative-partial-wh_Por-que-hablaba-del-agua.wav,,,,,,,,,,,,,,,,,,,,,,,,,,,,,,,,,,,,,,,,,,,,,,,,,,,,,,,,
,,,,,,,602854edbf92e76fc9c56355,6057c54e64b0b4e5c128b4f9,605a07241f654ac1c8afba12,Spain,Northeast,12 or younger,no,2021-03-23_11h20.30.461,empathy_intonation_perc,2020.2.10,Win32,60,,,,,,,,,,1,cuban,0,0,1.37694,0,61,61,28,1,29,./stim/wavs/andalusian_match_interrogative-total-yn_Manuela-vende-el-carro.wav,./stim/wavs/argentine_match_interrogative-total-yn_Manuela-vende-el-carro.wav,./stim/wavs/castilian_match_interrogative-total-yn_Manuela-vende-el-carro.wav,./stim/wavs/chilean_match_interrogative-total-yn_Manuela-vende-el-carro.wav,./stim/wavs/cuban_match_interrogative-total-yn_Manuela-vende-el-carro.wav,./stim/wavs/mexican_match_interrogative-total-yn_Manuela-vende-el-carro.wav,./stim/wavs/peruvian_match_interrogative-total-yn_Manuela-vende-el-carro.wav,./stim/wavs/puertorican_match_interrogative-total-yn_Manuela-vende-el-carro.wav,,,,,,,,,,,,,,,,,,,,,,,,,,,,,,,,,,,,,,,,,,,,,,,,,,,,,,,,
,,,,,,,602854edbf92e76fc9c56355,6057c54e64b0b4e5c128b4f9,605a07241f654ac1c8afba12,Spain,Northeast,12 or younger,no,2021-03-23_11h20.30.461,empathy_intonation_perc,2020.2.10,Win32,60,,,,,,,,,,1,mexican,1,1,1.65812,0,62,62,50,1,51,./stim/wavs/andalusian_mismatch_interrogative-partial-wh_Cuando-miraba-la-luna.wav,./stim/wavs/argentine_mismatch_interrogative-partial-wh_Cuando-miraba-la-luna.wav,./stim/wavs/castilian_mismatch_interrogative-partial-wh_Cuando-miraba-la-luna.wav,./stim/wavs/chilean_mismatch_interrogative-partial-wh_Cuando-miraba-la-luna.wav,./stim/wavs/cuban_mismatch_interrogative-partial-wh_Cuando-miraba-la-luna.wav,./stim/wavs/mexican_mismatch_interrogative-partial-wh_Cuando-miraba-la-luna.wav,./stim/wavs/peruvian_mismatch_interrogative-partial-wh_Cuando-miraba-la-luna.wav,./stim/wavs/puertorican_mismatch_interrogative-partial-wh_Cuando-miraba-la-luna.wav,,,,,,,,,,,,,,,,,,,,,,,,,,,,,,,,,,,,,,,,,,,,,,,,,,,,,,,,
,,,,,,,602854edbf92e76fc9c56355,6057c54e64b0b4e5c128b4f9,605a07241f654ac1c8afba12,Spain,Northeast,12 or younger,no,2021-03-23_11h20.30.461,empathy_intonation_perc,2020.2.10,Win32,60,,,,,,,,,,0,andalusian,0,1,2.12681,0,63,63,14,1,15,./stim/wavs/andalusian_match_declarative-narrow-focus_Mariano-habla-del-tiempo.wav,./stim/wavs/argentine_match_declarative-narrow-focus_Mariano-habla-del-tiempo.wav,./stim/wavs/castilian_match_declarative-narrow-focus_Mariano-habla-del-tiempo.wav,./stim/wavs/chilean_match_declarative-narrow-focus_Mariano-habla-del-tiempo.wav,./stim/wavs/cuban_match_declarative-narrow-focus_Mariano-habla-del-tiempo.wav,./stim/wavs/mexican_match_declarative-narrow-focus_Mariano-habla-del-tiempo.wav,./stim/wavs/peruvian_match_declarative-narrow-focus_Mariano-habla-del-tiempo.wav,./stim/wavs/puertorican_match_declarative-narrow-focus_Mariano-habla-del-tiempo.wav,,,,,,,,,,,,,,,,,,,,,,,,,,,,,,,,,,,,,,,,,,,,,,,,,,,,,,,,
,,,,,,,602854edbf92e76fc9c56355,6057c54e64b0b4e5c128b4f9,605a07241f654ac1c8afba12,Spain,Northeast,12 or younger,no,2021-03-23_11h20.30.461,empathy_intonation_perc,2020.2.10,Win32,60,,,,,,,,,,,,,,,,,,,,,,,,,,,,,h,1,10.63303,0,0,0,0,1,,,,,,,,,,,,,,,,,,,,,,,,,,,,,,,,,,,,,,,,,,,,,,,,
,,,,,"Great! Now we will move on. The next task consists of about 60 trials, in each of which you will see a string of letters. 
  
  Your task is to decide whether this is a real Spanish word or not.",(press the spacebar to continue),602854edbf92e76fc9c56355,6057c54e64b0b4e5c128b4f9,605a07241f654ac1c8afba12,Spain,Northeast,12 or younger,no,2021-03-23_11h20.30.461,empathy_intonation_perc,2020.2.10,Win32,60,,,,,,,,,,,,,,,,,,,,,,,,,,,,,,,,,,,,,0,0,0,0,1,,,,,,,,,,,,,,,,,,,,,,,,,,,,,,,,,,,,,,,,,,,
,,,,,"If you think it is an existing Spanish word, you type '1' (for 'REAL'), and if you think it is not an existing Spanish word, you type '0' (for 'FAKE').",(press the spacebar to continue),602854edbf92e76fc9c56355,6057c54e64b0b4e5c128b4f9,605a07241f654ac1c8afba12,Spain,Northeast,12 or younger,no,2021-03-23_11h20.30.461,empathy_intonation_perc,2020.2.10,Win32,60,,,,,,,,,,,,,,,,,,,,,,,,,,,,,,,,,,,,,0,1,1,1,1,,,,,,,,,,,,,,,,,,,,,,,,,,,,,,,,,,,,,,,,,,,
,,,,,"If you are sure that the word exists, even though you dont know its exact meaning, you may still respond '1' (REAL). 
  
  But if you are not sure if it is an existing word, you should respond '0' (FAKE).
  
  Let's do a practice round...",(press the spacebar to continue),602854edbf92e76fc9c56355,6057c54e64b0b4e5c128b4f9,605a07241f654ac1c8afba12,Spain,Northeast,12 or younger,no,2021-03-23_11h20.30.461,empathy_intonation_perc,2020.2.10,Win32,60,,,,,,,,,,,,,,,,,,,,,,,,,,,,,,,,,,,,,0,2,2,2,1,,,,,,,,,,,,,,,,,,,,,,,,,,,,,,,,,,,,,,,,,,,
,,,,,,,602854edbf92e76fc9c56355,6057c54e64b0b4e5c128b4f9,605a07241f654ac1c8afba12,Spain,Northeast,12 or younger,no,2021-03-23_11h20.30.461,empathy_intonation_perc,2020.2.10,Win32,60,,,,,,,,,,0,,,,,,,,,,,,,,,,,,,,,,,,,,,,,,,,0,1,2.07757,0,0,0,0,1,0,depiste,REAL,FAKE,,,,,,,,,,,,,,,,,,,,,,,,,,,,,,,
,,,,,,,602854edbf92e76fc9c56355,6057c54e64b0b4e5c128b4f9,605a07241f654ac1c8afba12,Spain,Northeast,12 or younger,no,2021-03-23_11h20.30.461,empathy_intonation_perc,2020.2.10,Win32,60,,,,,,,,,,1,,,,,,,,,,,,,,,,,,,,,,,,,,,,,,,,1,1,0.73323,0,1,1,1,1,0,s,REAL,FAKE,,,,,,,,,,,,,,,,,,,,,,,,,,,,,,,
,,,,,,,602854edbf92e76fc9c56355,6057c54e64b0b4e5c128b4f9,605a07241f654ac1c8afba12,Spain,Northeast,12 or younger,no,2021-03-23_11h20.30.461,empathy_intonation_perc,2020.2.10,Win32,60,,,,,,,,,,0,,,,,,,,,,,,,,,,,,,,,,,,,,,,,,,,0,1,2.6257,0,2,2,2,1,0,con,REAL,FAKE,,,,,,,,,,,,,,,,,,,,,,,,,,,,,,,
,,,,,,,602854edbf92e76fc9c56355,6057c54e64b0b4e5c128b4f9,605a07241f654ac1c8afba12,Spain,Northeast,12 or younger,no,2021-03-23_11h20.30.461,empathy_intonation_perc,2020.2.10,Win32,60,,,,,,,,,,0,,,,,,,,,,,,,,,,,,,,,,,,,,,,,,,,0,1,1.661255,0,3,3,3,1,0,calpar,REAL,FAKE,,,,,,,,,,,,,,,,,,,,,,,,,,,,,,,
,,,,,,,602854edbf92e76fc9c56355,6057c54e64b0b4e5c128b4f9,605a07241f654ac1c8afba12,Spain,Northeast,12 or younger,no,2021-03-23_11h20.30.461,empathy_intonation_perc,2020.2.10,Win32,60,,,,,,,,,,0,,,,,,,,,,,,,,,,,,,,,,,,,,,,,,,,0,1,1.34921,0,4,4,4,1,0,joten,REAL,FAKE,,,,,,,,,,,,,,,,,,,,,,,,,,,,,,,
,,,,,,,602854edbf92e76fc9c56355,6057c54e64b0b4e5c128b4f9,605a07241f654ac1c8afba12,Spain,Northeast,12 or younger,no,2021-03-23_11h20.30.461,empathy_intonation_perc,2020.2.10,Win32,60,,,,,,,,,,1,,,,,,,,,,,,,,,,,,,,,,,,,,,,,,,,1,1,1.194565,0,5,5,5,1,0,sacapuntas,REAL,FAKE,,,,,,,,,,,,,,,,,,,,,,,,,,,,,,,
,,,,,,,602854edbf92e76fc9c56355,6057c54e64b0b4e5c128b4f9,605a07241f654ac1c8afba12,Spain,Northeast,12 or younger,no,2021-03-23_11h20.30.461,empathy_intonation_perc,2020.2.10,Win32,60,,,,,,,,,,0,,,,,,,,,,,,,,,,,,,,,,,,,,,,,,,,0,1,1.211825,0,6,6,6,1,0,priba,REAL,FAKE,,,,,,,,,,,,,,,,,,,,,,,,,,,,,,,
,,,,,,,602854edbf92e76fc9c56355,6057c54e64b0b4e5c128b4f9,605a07241f654ac1c8afba12,Spain,Northeast,12 or younger,no,2021-03-23_11h20.30.461,empathy_intonation_perc,2020.2.10,Win32,60,,,,,,,,,,0,,,,,,,,,,,,,,,,,,,,,,,,,,,,,,,,0,1,1.841885,0,7,7,7,1,0,pelasula,REAL,FAKE,,,,,,,,,,,,,,,,,,,,,,,,,,,,,,,
,,,,,,,602854edbf92e76fc9c56355,6057c54e64b0b4e5c128b4f9,605a07241f654ac1c8afba12,Spain,Northeast,12 or younger,no,2021-03-23_11h20.30.461,empathy_intonation_perc,2020.2.10,Win32,60,,,,,,,,,,1,,,,,,,,,,,,,,,,,,,,,,,,,,,,,,,,1,1,0.622445,0,8,8,8,1,0,bien,REAL,FAKE,,,,,,,,,,,,,,,,,,,,,,,,,,,,,,,
,,,,,,,602854edbf92e76fc9c56355,6057c54e64b0b4e5c128b4f9,605a07241f654ac1c8afba12,Spain,Northeast,12 or younger,no,2021-03-23_11h20.30.461,empathy_intonation_perc,2020.2.10,Win32,60,,,,,,,,,,1,,,,,,,,,,,,,,,,,,,,,,,,,,,,,,,,1,1,0.60608,0,9,9,9,1,0,casa,REAL,FAKE,,,,,,,,,,,,,,,,,,,,,,,,,,,,,,,
,,,,,,,602854edbf92e76fc9c56355,6057c54e64b0b4e5c128b4f9,605a07241f654ac1c8afba12,Spain,Northeast,12 or younger,no,2021-03-23_11h20.30.461,empathy_intonation_perc,2020.2.10,Win32,60,,,,,,,,,,0,,,,,,,,,,,,,,,,,,,,,,,,,,,,,,,,0,1,1.144825,0,10,10,10,1,0,lejo,REAL,FAKE,,,,,,,,,,,,,,,,,,,,,,,,,,,,,,,
,,,,,,,602854edbf92e76fc9c56355,6057c54e64b0b4e5c128b4f9,605a07241f654ac1c8afba12,Spain,Northeast,12 or younger,no,2021-03-23_11h20.30.461,empathy_intonation_perc,2020.2.10,Win32,60,,,,,,,,,,0,,,,,,,,,,,,,,,,,,,,,,,,,,,,,,,,0,1,1.355435,0,11,11,11,1,0,pretantas,REAL,FAKE,,,,,,,,,,,,,,,,,,,,,,,,,,,,,,,
,,,,,,,602854edbf92e76fc9c56355,6057c54e64b0b4e5c128b4f9,605a07241f654ac1c8afba12,Spain,Northeast,12 or younger,no,2021-03-23_11h20.30.461,empathy_intonation_perc,2020.2.10,Win32,60,,,,,,,,,,0,,,,,,,,,,,,,,,,,,,,,,,,,,,,,,,,,,,,,,,,29,decar,,,0,1,1.18265,0,0,0,28,1,REAL,FAKE,,,,,,,,,,,,,,,,,,,,,
,,,,,,,602854edbf92e76fc9c56355,6057c54e64b0b4e5c128b4f9,605a07241f654ac1c8afba12,Spain,Northeast,12 or younger,no,2021-03-23_11h20.30.461,empathy_intonation_perc,2020.2.10,Win32,60,,,,,,,,,,1,,,,,,,,,,,,,,,,,,,,,,,,,,,,,,,,,,,,,,,,11,cenefa,,,0,0,1.215905,0,1,1,10,1,REAL,FAKE,,,,,,,,,,,,,,,,,,,,,
,,,,,,,602854edbf92e76fc9c56355,6057c54e64b0b4e5c128b4f9,605a07241f654ac1c8afba12,Spain,Northeast,12 or younger,no,2021-03-23_11h20.30.461,empathy_intonation_perc,2020.2.10,Win32,60,,,,,,,,,,0,,,,,,,,,,,,,,,,,,,,,,,,,,,,,,,,,,,,,,,,8,cadea,,,0,1,1.652565,0,2,2,7,1,REAL,FAKE,,,,,,,,,,,,,,,,,,,,,
,,,,,,,602854edbf92e76fc9c56355,6057c54e64b0b4e5c128b4f9,605a07241f654ac1c8afba12,Spain,Northeast,12 or younger,no,2021-03-23_11h20.30.461,empathy_intonation_perc,2020.2.10,Win32,60,,,,,,,,,,0,,,,,,,,,,,,,,,,,,,,,,,,,,,,,,,,,,,,,,,,84,escuto,,,0,1,1.09216,0,3,3,83,1,REAL,FAKE,,,,,,,,,,,,,,,,,,,,,
,,,,,,,602854edbf92e76fc9c56355,6057c54e64b0b4e5c128b4f9,605a07241f654ac1c8afba12,Spain,Northeast,12 or younger,no,2021-03-23_11h20.30.461,empathy_intonation_perc,2020.2.10,Win32,60,,,,,,,,,,1,,,,,,,,,,,,,,,,,,,,,,,,,,,,,,,,,,,,,,,,20,vido,,,1,1,1.12268,0,4,4,19,1,REAL,FAKE,,,,,,,,,,,,,,,,,,,,,
,,,,,,,602854edbf92e76fc9c56355,6057c54e64b0b4e5c128b4f9,605a07241f654ac1c8afba12,Spain,Northeast,12 or younger,no,2021-03-23_11h20.30.461,empathy_intonation_perc,2020.2.10,Win32,60,,,,,,,,,,0,,,,,,,,,,,,,,,,,,,,,,,,,,,,,,,,,,,,,,,,32,fatacidad,,,0,1,1.709605,0,5,5,31,1,REAL,FAKE,,,,,,,,,,,,,,,,,,,,,
,,,,,,,602854edbf92e76fc9c56355,6057c54e64b0b4e5c128b4f9,605a07241f654ac1c8afba12,Spain,Northeast,12 or younger,no,2021-03-23_11h20.30.461,empathy_intonation_perc,2020.2.10,Win32,60,,,,,,,,,,1,,,,,,,,,,,,,,,,,,,,,,,,,,,,,,,,,,,,,,,,44,cuchara,,,1,1,0.719435,0,6,6,43,1,REAL,FAKE,,,,,,,,,,,,,,,,,,,,,
,,,,,,,602854edbf92e76fc9c56355,6057c54e64b0b4e5c128b4f9,605a07241f654ac1c8afba12,Spain,Northeast,12 or younger,no,2021-03-23_11h20.30.461,empathy_intonation_perc,2020.2.10,Win32,60,,,,,,,,,,0,,,,,,,,,,,,,,,,,,,,,,,,,,,,,,,,,,,,,,,,79,tropaje,,,0,1,1.571885,0,7,7,78,1,REAL,FAKE,,,,,,,,,,,,,,,,,,,,,
,,,,,,,602854edbf92e76fc9c56355,6057c54e64b0b4e5c128b4f9,605a07241f654ac1c8afba12,Spain,Northeast,12 or younger,no,2021-03-23_11h20.30.461,empathy_intonation_perc,2020.2.10,Win32,60,,,,,,,,,,0,,,,,,,,,,,,,,,,,,,,,,,,,,,,,,,,,,,,,,,,17,floroso,,,1,0,0.729545,0,8,8,16,1,REAL,FAKE,,,,,,,,,,,,,,,,,,,,,
,,,,,,,602854edbf92e76fc9c56355,6057c54e64b0b4e5c128b4f9,605a07241f654ac1c8afba12,Spain,Northeast,12 or younger,no,2021-03-23_11h20.30.461,empathy_intonation_perc,2020.2.10,Win32,60,,,,,,,,,,1,,,,,,,,,,,,,,,,,,,,,,,,,,,,,,,,,,,,,,,,83,guante,,,1,1,0.809405,0,9,9,82,1,REAL,FAKE,,,,,,,,,,,,,,,,,,,,,
,,,,,,,602854edbf92e76fc9c56355,6057c54e64b0b4e5c128b4f9,605a07241f654ac1c8afba12,Spain,Northeast,12 or younger,no,2021-03-23_11h20.30.461,empathy_intonation_perc,2020.2.10,Win32,60,,,,,,,,,,1,,,,,,,,,,,,,,,,,,,,,,,,,,,,,,,,,,,,,,,,81,pozo,,,1,1,0.95696,0,10,10,80,1,REAL,FAKE,,,,,,,,,,,,,,,,,,,,,
,,,,,,,602854edbf92e76fc9c56355,6057c54e64b0b4e5c128b4f9,605a07241f654ac1c8afba12,Spain,Northeast,12 or younger,no,2021-03-23_11h20.30.461,empathy_intonation_perc,2020.2.10,Win32,60,,,,,,,,,,1,,,,,,,,,,,,,,,,,,,,,,,,,,,,,,,,,,,,,,,,69,engatusar,,,0,0,1.54893,0,11,11,68,1,REAL,FAKE,,,,,,,,,,,,,,,,,,,,,
,,,,,,,602854edbf92e76fc9c56355,6057c54e64b0b4e5c128b4f9,605a07241f654ac1c8afba12,Spain,Northeast,12 or younger,no,2021-03-23_11h20.30.461,empathy_intonation_perc,2020.2.10,Win32,60,,,,,,,,,,1,,,,,,,,,,,,,,,,,,,,,,,,,,,,,,,,,,,,,,,,65,bizcocho,,,1,1,0.98761,0,12,12,64,1,REAL,FAKE,,,,,,,,,,,,,,,,,,,,,
,,,,,,,602854edbf92e76fc9c56355,6057c54e64b0b4e5c128b4f9,605a07241f654ac1c8afba12,Spain,Northeast,12 or younger,no,2021-03-23_11h20.30.461,empathy_intonation_perc,2020.2.10,Win32,60,,,,,,,,,,1,,,,,,,,,,,,,,,,,,,,,,,,,,,,,,,,,,,,,,,,31,pandilla,,,1,1,0.76636,0,13,13,30,1,REAL,FAKE,,,,,,,,,,,,,,,,,,,,,
,,,,,,,602854edbf92e76fc9c56355,6057c54e64b0b4e5c128b4f9,605a07241f654ac1c8afba12,Spain,Northeast,12 or younger,no,2021-03-23_11h20.30.461,empathy_intonation_perc,2020.2.10,Win32,60,,,,,,,,,,1,,,,,,,,,,,,,,,,,,,,,,,,,,,,,,,,,,,,,,,,52,camisa,,,1,1,0.603445,0,14,14,51,1,REAL,FAKE,,,,,,,,,,,,,,,,,,,,,
,,,,,,,602854edbf92e76fc9c56355,6057c54e64b0b4e5c128b4f9,605a07241f654ac1c8afba12,Spain,Northeast,12 or younger,no,2021-03-23_11h20.30.461,empathy_intonation_perc,2020.2.10,Win32,60,,,,,,,,,,0,,,,,,,,,,,,,,,,,,,,,,,,,,,,,,,,,,,,,,,,35,rompido,,,0,1,0.92282,0,15,15,34,1,REAL,FAKE,,,,,,,,,,,,,,,,,,,,,
,,,,,,,602854edbf92e76fc9c56355,6057c54e64b0b4e5c128b4f9,605a07241f654ac1c8afba12,Spain,Northeast,12 or younger,no,2021-03-23_11h20.30.461,empathy_intonation_perc,2020.2.10,Win32,60,,,,,,,,,,0,,,,,,,,,,,,,,,,,,,,,,,,,,,,,,,,,,,,,,,,18,arsa,,,0,1,1.35928,0,16,16,17,1,REAL,FAKE,,,,,,,,,,,,,,,,,,,,,
,,,,,,,602854edbf92e76fc9c56355,6057c54e64b0b4e5c128b4f9,605a07241f654ac1c8afba12,Spain,Northeast,12 or younger,no,2021-03-23_11h20.30.461,empathy_intonation_perc,2020.2.10,Win32,60,,,,,,,,,,0,,,,,,,,,,,,,,,,,,,,,,,,,,,,,,,,,,,,,,,,27,acutacin,,,0,1,1.598885,0,17,17,26,1,REAL,FAKE,,,,,,,,,,,,,,,,,,,,,
,,,,,,,602854edbf92e76fc9c56355,6057c54e64b0b4e5c128b4f9,605a07241f654ac1c8afba12,Spain,Northeast,12 or younger,no,2021-03-23_11h20.30.461,empathy_intonation_perc,2020.2.10,Win32,60,,,,,,,,,,1,,,,,,,,,,,,,,,,,,,,,,,,,,,,,,,,,,,,,,,,78,frondoso,,,0,0,0.849835,0,18,18,77,1,REAL,FAKE,,,,,,,,,,,,,,,,,,,,,
,,,,,,,602854edbf92e76fc9c56355,6057c54e64b0b4e5c128b4f9,605a07241f654ac1c8afba12,Spain,Northeast,12 or younger,no,2021-03-23_11h20.30.461,empathy_intonation_perc,2020.2.10,Win32,60,,,,,,,,,,0,,,,,,,,,,,,,,,,,,,,,,,,,,,,,,,,,,,,,,,,33,pauca,,,0,1,1.717085,0,19,19,32,1,REAL,FAKE,,,,,,,,,,,,,,,,,,,,,
,,,,,,,602854edbf92e76fc9c56355,6057c54e64b0b4e5c128b4f9,605a07241f654ac1c8afba12,Spain,Northeast,12 or younger,no,2021-03-23_11h20.30.461,empathy_intonation_perc,2020.2.10,Win32,60,,,,,,,,,,0,,,,,,,,,,,,,,,,,,,,,,,,,,,,,,,,,,,,,,,,66,hacido,,,0,1,1.43905,0,20,20,65,1,REAL,FAKE,,,,,,,,,,,,,,,,,,,,,
,,,,,,,602854edbf92e76fc9c56355,6057c54e64b0b4e5c128b4f9,605a07241f654ac1c8afba12,Spain,Northeast,12 or younger,no,2021-03-23_11h20.30.461,empathy_intonation_perc,2020.2.10,Win32,60,,,,,,,,,,1,,,,,,,,,,,,,,,,,,,,,,,,,,,,,,,,,,,,,,,,89,prisa,,,1,1,0.68311,0,21,21,88,1,REAL,FAKE,,,,,,,,,,,,,,,,,,,,,
,,,,,,,602854edbf92e76fc9c56355,6057c54e64b0b4e5c128b4f9,605a07241f654ac1c8afba12,Spain,Northeast,12 or younger,no,2021-03-23_11h20.30.461,empathy_intonation_perc,2020.2.10,Win32,60,,,,,,,,,,1,,,,,,,,,,,,,,,,,,,,,,,,,,,,,,,,,,,,,,,,3,pulmones,,,1,1,0.741645,0,22,22,2,1,REAL,FAKE,,,,,,,,,,,,,,,,,,,,,
,,,,,,,602854edbf92e76fc9c56355,6057c54e64b0b4e5c128b4f9,605a07241f654ac1c8afba12,Spain,Northeast,12 or younger,no,2021-03-23_11h20.30.461,empathy_intonation_perc,2020.2.10,Win32,60,,,,,,,,,,1,,,,,,,,,,,,,,,,,,,,,,,,,,,,,,,,,,,,,,,,60,matar,,,1,1,0.639755,0,23,23,59,1,REAL,FAKE,,,,,,,,,,,,,,,,,,,,,
,,,,,,,602854edbf92e76fc9c56355,6057c54e64b0b4e5c128b4f9,605a07241f654ac1c8afba12,Spain,Northeast,12 or younger,no,2021-03-23_11h20.30.461,empathy_intonation_perc,2020.2.10,Win32,60,,,,,,,,,,1,,,,,,,,,,,,,,,,,,,,,,,,,,,,,,,,,,,,,,,,85,lad,,,1,1,1.022305,0,24,24,84,1,REAL,FAKE,,,,,,,,,,,,,,,,,,,,,
,,,,,,,602854edbf92e76fc9c56355,6057c54e64b0b4e5c128b4f9,605a07241f654ac1c8afba12,Spain,Northeast,12 or younger,no,2021-03-23_11h20.30.461,empathy_intonation_perc,2020.2.10,Win32,60,,,,,,,,,,0,,,,,,,,,,,,,,,,,,,,,,,,,,,,,,,,,,,,,,,,1,terzo,,,1,0,1.310545,0,25,25,0,1,REAL,FAKE,,,,,,,,,,,,,,,,,,,,,
,,,,,,,602854edbf92e76fc9c56355,6057c54e64b0b4e5c128b4f9,605a07241f654ac1c8afba12,Spain,Northeast,12 or younger,no,2021-03-23_11h20.30.461,empathy_intonation_perc,2020.2.10,Win32,60,,,,,,,,,,1,,,,,,,,,,,,,,,,,,,,,,,,,,,,,,,,,,,,,,,,54,fomentar,,,1,1,0.697815,0,26,26,53,1,REAL,FAKE,,,,,,,,,,,,,,,,,,,,,
,,,,,,,602854edbf92e76fc9c56355,6057c54e64b0b4e5c128b4f9,605a07241f654ac1c8afba12,Spain,Northeast,12 or younger,no,2021-03-23_11h20.30.461,empathy_intonation_perc,2020.2.10,Win32,60,,,,,,,,,,1,,,,,,,,,,,,,,,,,,,,,,,,,,,,,,,,,,,,,,,,37,granuja,,,0,0,1.07401,0,27,27,36,1,REAL,FAKE,,,,,,,,,,,,,,,,,,,,,
,,,,,,,602854edbf92e76fc9c56355,6057c54e64b0b4e5c128b4f9,605a07241f654ac1c8afba12,Spain,Northeast,12 or younger,no,2021-03-23_11h20.30.461,empathy_intonation_perc,2020.2.10,Win32,60,,,,,,,,,,0,,,,,,,,,,,,,,,,,,,,,,,,,,,,,,,,,,,,,,,,42,cadallo,,,0,1,0.845015,0,28,28,41,1,REAL,FAKE,,,,,,,,,,,,,,,,,,,,,
,,,,,,,602854edbf92e76fc9c56355,6057c54e64b0b4e5c128b4f9,605a07241f654ac1c8afba12,Spain,Northeast,12 or younger,no,2021-03-23_11h20.30.461,empathy_intonation_perc,2020.2.10,Win32,60,,,,,,,,,,1,,,,,,,,,,,,,,,,,,,,,,,,,,,,,,,,,,,,,,,,55,nevar,,,0,0,0.732735,0,29,29,54,1,REAL,FAKE,,,,,,,,,,,,,,,,,,,,,
,,,,,,,602854edbf92e76fc9c56355,6057c54e64b0b4e5c128b4f9,605a07241f654ac1c8afba12,Spain,Northeast,12 or younger,no,2021-03-23_11h20.30.461,empathy_intonation_perc,2020.2.10,Win32,60,,,,,,,,,,1,,,,,,,,,,,,,,,,,,,,,,,,,,,,,,,,,,,,,,,,51,candado,,,1,1,1.368215,0,30,30,50,1,REAL,FAKE,,,,,,,,,,,,,,,,,,,,,
,,,,,,,602854edbf92e76fc9c56355,6057c54e64b0b4e5c128b4f9,605a07241f654ac1c8afba12,Spain,Northeast,12 or younger,no,2021-03-23_11h20.30.461,empathy_intonation_perc,2020.2.10,Win32,60,,,,,,,,,,0,,,,,,,,,,,,,,,,,,,,,,,,,,,,,,,,,,,,,,,,72,pemicin,,,0,1,1.284225,0,31,31,71,1,REAL,FAKE,,,,,,,,,,,,,,,,,,,,,
,,,,,,,602854edbf92e76fc9c56355,6057c54e64b0b4e5c128b4f9,605a07241f654ac1c8afba12,Spain,Northeast,12 or younger,no,2021-03-23_11h20.30.461,empathy_intonation_perc,2020.2.10,Win32,60,,,,,,,,,,1,,,,,,,,,,,,,,,,,,,,,,,,,,,,,,,,,,,,,,,,71,polvoriento,,,1,1,1.11153,0,32,32,70,1,REAL,FAKE,,,,,,,,,,,,,,,,,,,,,
,,,,,,,602854edbf92e76fc9c56355,6057c54e64b0b4e5c128b4f9,605a07241f654ac1c8afba12,Spain,Northeast,12 or younger,no,2021-03-23_11h20.30.461,empathy_intonation_perc,2020.2.10,Win32,60,,,,,,,,,,1,,,,,,,,,,,,,,,,,,,,,,,,,,,,,,,,,,,,,,,,75,yacer,,,1,1,0.889465,0,33,33,74,1,REAL,FAKE,,,,,,,,,,,,,,,,,,,,,
,,,,,,,602854edbf92e76fc9c56355,6057c54e64b0b4e5c128b4f9,605a07241f654ac1c8afba12,Spain,Northeast,12 or younger,no,2021-03-23_11h20.30.461,empathy_intonation_perc,2020.2.10,Win32,60,,,,,,,,,,1,,,,,,,,,,,,,,,,,,,,,,,,,,,,,,,,,,,,,,,,2,pellizcar,,,1,1,0.72188,0,34,34,1,1,REAL,FAKE,,,,,,,,,,,,,,,,,,,,,
,,,,,,,602854edbf92e76fc9c56355,6057c54e64b0b4e5c128b4f9,605a07241f654ac1c8afba12,Spain,Northeast,12 or younger,no,2021-03-23_11h20.30.461,empathy_intonation_perc,2020.2.10,Win32,60,,,,,,,,,,1,,,,,,,,,,,,,,,,,,,,,,,,,,,,,,,,,,,,,,,,15,regar,,,1,1,0.7003,0,35,35,14,1,REAL,FAKE,,,,,,,,,,,,,,,,,,,,,
,,,,,,,602854edbf92e76fc9c56355,6057c54e64b0b4e5c128b4f9,605a07241f654ac1c8afba12,Spain,Northeast,12 or younger,no,2021-03-23_11h20.30.461,empathy_intonation_perc,2020.2.10,Win32,60,,,,,,,,,,1,,,,,,,,,,,,,,,,,,,,,,,,,,,,,,,,,,,,,,,,45,jilguero,,,0,0,0.781095,0,36,36,44,1,REAL,FAKE,,,,,,,,,,,,,,,,,,,,,
,,,,,,,602854edbf92e76fc9c56355,6057c54e64b0b4e5c128b4f9,605a07241f654ac1c8afba12,Spain,Northeast,12 or younger,no,2021-03-23_11h20.30.461,empathy_intonation_perc,2020.2.10,Win32,60,,,,,,,,,,1,,,,,,,,,,,,,,,,,,,,,,,,,,,,,,,,,,,,,,,,26,secuestro,,,1,1,0.653885,0,37,37,25,1,REAL,FAKE,,,,,,,,,,,,,,,,,,,,,
,,,,,,,602854edbf92e76fc9c56355,6057c54e64b0b4e5c128b4f9,605a07241f654ac1c8afba12,Spain,Northeast,12 or younger,no,2021-03-23_11h20.30.461,empathy_intonation_perc,2020.2.10,Win32,60,,,,,,,,,,1,,,,,,,,,,,,,,,,,,,,,,,,,,,,,,,,,,,,,,,,56,musgo,,,0,0,0.75398,0,38,38,55,1,REAL,FAKE,,,,,,,,,,,,,,,,,,,,,
,,,,,,,602854edbf92e76fc9c56355,6057c54e64b0b4e5c128b4f9,605a07241f654ac1c8afba12,Spain,Northeast,12 or younger,no,2021-03-23_11h20.30.461,empathy_intonation_perc,2020.2.10,Win32,60,,,,,,,,,,0,,,,,,,,,,,,,,,,,,,,,,,,,,,,,,,,,,,,,,,,47,cartinar,,,0,1,0.83986,0,39,39,46,1,REAL,FAKE,,,,,,,,,,,,,,,,,,,,,
,,,,,,,602854edbf92e76fc9c56355,6057c54e64b0b4e5c128b4f9,605a07241f654ac1c8afba12,Spain,Northeast,12 or younger,no,2021-03-23_11h20.30.461,empathy_intonation_perc,2020.2.10,Win32,60,,,,,,,,,,0,,,,,,,,,,,,,,,,,,,,,,,,,,,,,,,,,,,,,,,,53,vegada,,,0,1,1.21107,0,40,40,52,1,REAL,FAKE,,,,,,,,,,,,,,,,,,,,,
,,,,,,,602854edbf92e76fc9c56355,6057c54e64b0b4e5c128b4f9,605a07241f654ac1c8afba12,Spain,Northeast,12 or younger,no,2021-03-23_11h20.30.461,empathy_intonation_perc,2020.2.10,Win32,60,,,,,,,,,,0,,,,,,,,,,,,,,,,,,,,,,,,,,,,,,,,,,,,,,,,4,batilln,,,0,1,1.023445,0,41,41,3,1,REAL,FAKE,,,,,,,,,,,,,,,,,,,,,
,,,,,,,602854edbf92e76fc9c56355,6057c54e64b0b4e5c128b4f9,605a07241f654ac1c8afba12,Spain,Northeast,12 or younger,no,2021-03-23_11h20.30.461,empathy_intonation_perc,2020.2.10,Win32,60,,,,,,,,,,1,,,,,,,,,,,,,,,,,,,,,,,,,,,,,,,,,,,,,,,,49,ganar,,,1,1,0.58959,0,42,42,48,1,REAL,FAKE,,,,,,,,,,,,,,,,,,,,,
,,,,,,,602854edbf92e76fc9c56355,6057c54e64b0b4e5c128b4f9,605a07241f654ac1c8afba12,Spain,Northeast,12 or younger,no,2021-03-23_11h20.30.461,empathy_intonation_perc,2020.2.10,Win32,60,,,,,,,,,,0,,,,,,,,,,,,,,,,,,,,,,,,,,,,,,,,,,,,,,,,10,antar,,,0,1,0.816475,0,43,43,9,1,REAL,FAKE,,,,,,,,,,,,,,,,,,,,,
,,,,,,,602854edbf92e76fc9c56355,6057c54e64b0b4e5c128b4f9,605a07241f654ac1c8afba12,Spain,Northeast,12 or younger,no,2021-03-23_11h20.30.461,empathy_intonation_perc,2020.2.10,Win32,60,,,,,,,,,,1,,,,,,,,,,,,,,,,,,,,,,,,,,,,,,,,,,,,,,,,28,merodear,,,0,0,0.914995,0,44,44,27,1,REAL,FAKE,,,,,,,,,,,,,,,,,,,,,
,,,,,,,602854edbf92e76fc9c56355,6057c54e64b0b4e5c128b4f9,605a07241f654ac1c8afba12,Spain,Northeast,12 or younger,no,2021-03-23_11h20.30.461,empathy_intonation_perc,2020.2.10,Win32,60,,,,,,,,,,0,,,,,,,,,,,,,,,,,,,,,,,,,,,,,,,,,,,,,,,,74,cintro,,,0,1,0.84454,0,45,45,73,1,REAL,FAKE,,,,,,,,,,,,,,,,,,,,,
,,,,,,,602854edbf92e76fc9c56355,6057c54e64b0b4e5c128b4f9,605a07241f654ac1c8afba12,Spain,Northeast,12 or younger,no,2021-03-23_11h20.30.461,empathy_intonation_perc,2020.2.10,Win32,60,,,,,,,,,,1,,,,,,,,,,,,,,,,,,,,,,,,,,,,,,,,,,,,,,,,34,aviso,,,1,1,0.65268,0,46,46,33,1,REAL,FAKE,,,,,,,,,,,,,,,,,,,,,
,,,,,,,602854edbf92e76fc9c56355,6057c54e64b0b4e5c128b4f9,605a07241f654ac1c8afba12,Spain,Northeast,12 or younger,no,2021-03-23_11h20.30.461,empathy_intonation_perc,2020.2.10,Win32,60,,,,,,,,,,1,,,,,,,,,,,,,,,,,,,,,,,,,,,,,,,,,,,,,,,,6,tergiversar,,,0,0,0.76617,0,47,47,5,1,REAL,FAKE,,,,,,,,,,,,,,,,,,,,,
,,,,,,,602854edbf92e76fc9c56355,6057c54e64b0b4e5c128b4f9,605a07241f654ac1c8afba12,Spain,Northeast,12 or younger,no,2021-03-23_11h20.30.461,empathy_intonation_perc,2020.2.10,Win32,60,,,,,,,,,,1,,,,,,,,,,,,,,,,,,,,,,,,,,,,,,,,,,,,,,,,13,helar,,,1,1,0.75756,0,48,48,12,1,REAL,FAKE,,,,,,,,,,,,,,,,,,,,,
,,,,,,,602854edbf92e76fc9c56355,6057c54e64b0b4e5c128b4f9,605a07241f654ac1c8afba12,Spain,Northeast,12 or younger,no,2021-03-23_11h20.30.461,empathy_intonation_perc,2020.2.10,Win32,60,,,,,,,,,,1,,,,,,,,,,,,,,,,,,,,,,,,,,,,,,,,,,,,,,,,48,ladrn,,,1,1,0.65922,0,49,49,47,1,REAL,FAKE,,,,,,,,,,,,,,,,,,,,,
,,,,,,,602854edbf92e76fc9c56355,6057c54e64b0b4e5c128b4f9,605a07241f654ac1c8afba12,Spain,Northeast,12 or younger,no,2021-03-23_11h20.30.461,empathy_intonation_perc,2020.2.10,Win32,60,,,,,,,,,,1,,,,,,,,,,,,,,,,,,,,,,,,,,,,,,,,,,,,,,,,68,alegre,,,1,1,0.628135,0,50,50,67,1,REAL,FAKE,,,,,,,,,,,,,,,,,,,,,
,,,,,,,602854edbf92e76fc9c56355,6057c54e64b0b4e5c128b4f9,605a07241f654ac1c8afba12,Spain,Northeast,12 or younger,no,2021-03-23_11h20.30.461,empathy_intonation_perc,2020.2.10,Win32,60,,,,,,,,,,1,,,,,,,,,,,,,,,,,,,,,,,,,,,,,,,,,,,,,,,,77,tiburn,,,1,1,0.66146,0,51,51,76,1,REAL,FAKE,,,,,,,,,,,,,,,,,,,,,
,,,,,,,602854edbf92e76fc9c56355,6057c54e64b0b4e5c128b4f9,605a07241f654ac1c8afba12,Spain,Northeast,12 or younger,no,2021-03-23_11h20.30.461,empathy_intonation_perc,2020.2.10,Win32,60,,,,,,,,,,1,,,,,,,,,,,,,,,,,,,,,,,,,,,,,,,,,,,,,,,,88,acantilado,,,1,1,0.772985,0,52,52,87,1,REAL,FAKE,,,,,,,,,,,,,,,,,,,,,
,,,,,,,602854edbf92e76fc9c56355,6057c54e64b0b4e5c128b4f9,605a07241f654ac1c8afba12,Spain,Northeast,12 or younger,no,2021-03-23_11h20.30.461,empathy_intonation_perc,2020.2.10,Win32,60,,,,,,,,,,1,,,,,,,,,,,,,,,,,,,,,,,,,,,,,,,,,,,,,,,,46,martillo,,,1,1,0.934535,0,53,53,45,1,REAL,FAKE,,,,,,,,,,,,,,,,,,,,,
,,,,,,,602854edbf92e76fc9c56355,6057c54e64b0b4e5c128b4f9,605a07241f654ac1c8afba12,Spain,Northeast,12 or younger,no,2021-03-23_11h20.30.461,empathy_intonation_perc,2020.2.10,Win32,60,,,,,,,,,,1,,,,,,,,,,,,,,,,,,,,,,,,,,,,,,,,,,,,,,,,9,hacha,,,1,1,1.20788,0,54,54,8,1,REAL,FAKE,,,,,,,,,,,,,,,,,,,,,
,,,,,,,602854edbf92e76fc9c56355,6057c54e64b0b4e5c128b4f9,605a07241f654ac1c8afba12,Spain,Northeast,12 or younger,no,2021-03-23_11h20.30.461,empathy_intonation_perc,2020.2.10,Win32,60,,,,,,,,,,1,,,,,,,,,,,,,,,,,,,,,,,,,,,,,,,,,,,,,,,,59,besar,,,1,1,0.65701,0,55,55,58,1,REAL,FAKE,,,,,,,,,,,,,,,,,,,,,
,,,,,,,602854edbf92e76fc9c56355,6057c54e64b0b4e5c128b4f9,605a07241f654ac1c8afba12,Spain,Northeast,12 or younger,no,2021-03-23_11h20.30.461,empathy_intonation_perc,2020.2.10,Win32,60,,,,,,,,,,0,,,,,,,,,,,,,,,,,,,,,,,,,,,,,,,,,,,,,,,,82,empirador,,,1,0,3.859405,0,56,56,81,1,REAL,FAKE,,,,,,,,,,,,,,,,,,,,,
,,,,,,,602854edbf92e76fc9c56355,6057c54e64b0b4e5c128b4f9,605a07241f654ac1c8afba12,Spain,Northeast,12 or younger,no,2021-03-23_11h20.30.461,empathy_intonation_perc,2020.2.10,Win32,60,,,,,,,,,,1,,,,,,,,,,,,,,,,,,,,,,,,,,,,,,,,,,,,,,,,86,barato,,,1,1,0.711755,0,57,57,85,1,REAL,FAKE,,,,,,,,,,,,,,,,,,,,,
,,,,,,,602854edbf92e76fc9c56355,6057c54e64b0b4e5c128b4f9,605a07241f654ac1c8afba12,Spain,Northeast,12 or younger,no,2021-03-23_11h20.30.461,empathy_intonation_perc,2020.2.10,Win32,60,,,,,,,,,,1,,,,,,,,,,,,,,,,,,,,,,,,,,,,,,,,,,,,,,,,7,psimo,,,1,1,0.65058,0,58,58,6,1,REAL,FAKE,,,,,,,,,,,,,,,,,,,,,
,,,,,,,602854edbf92e76fc9c56355,6057c54e64b0b4e5c128b4f9,605a07241f654ac1c8afba12,Spain,Northeast,12 or younger,no,2021-03-23_11h20.30.461,empathy_intonation_perc,2020.2.10,Win32,60,,,,,,,,,,0,,,,,,,,,,,,,,,,,,,,,,,,,,,,,,,,,,,,,,,,70,temblo,,,0,1,0.971115,0,59,59,69,1,REAL,FAKE,,,,,,,,,,,,,,,,,,,,,
,,,,,,,602854edbf92e76fc9c56355,6057c54e64b0b4e5c128b4f9,605a07241f654ac1c8afba12,Spain,Northeast,12 or younger,no,2021-03-23_11h20.30.461,empathy_intonation_perc,2020.2.10,Win32,60,,,,,,,,,,1,,,,,,,,,,,,,,,,,,,,,,,,,,,,,,,,,,,,,,,,73,hervidor,,,1,1,0.72858,0,60,60,72,1,REAL,FAKE,,,,,,,,,,,,,,,,,,,,,
,,,,,,,602854edbf92e76fc9c56355,6057c54e64b0b4e5c128b4f9,605a07241f654ac1c8afba12,Spain,Northeast,12 or younger,no,2021-03-23_11h20.30.461,empathy_intonation_perc,2020.2.10,Win32,60,,,,,,,,,,1,,,,,,,,,,,,,,,,,,,,,,,,,,,,,,,,,,,,,,,,76,atar,,,1,1,1.09229,0,61,61,75,1,REAL,FAKE,,,,,,,,,,,,,,,,,,,,,
,,,,,,,602854edbf92e76fc9c56355,6057c54e64b0b4e5c128b4f9,605a07241f654ac1c8afba12,Spain,Northeast,12 or younger,no,2021-03-23_11h20.30.461,empathy_intonation_perc,2020.2.10,Win32,60,,,,,,,,,,0,,,,,,,,,,,,,,,,,,,,,,,,,,,,,,,,,,,,,,,,21,capillo,,,0,1,1.38647,0,62,62,20,1,REAL,FAKE,,,,,,,,,,,,,,,,,,,,,
,,,,,,,602854edbf92e76fc9c56355,6057c54e64b0b4e5c128b4f9,605a07241f654ac1c8afba12,Spain,Northeast,12 or younger,no,2021-03-23_11h20.30.461,empathy_intonation_perc,2020.2.10,Win32,60,,,,,,,,,,1,,,,,,,,,,,,,,,,,,,,,,,,,,,,,,,,,,,,,,,,24,ltigo,,,1,1,1.03688,0,63,63,23,1,REAL,FAKE,,,,,,,,,,,,,,,,,,,,,
,,,,,,,602854edbf92e76fc9c56355,6057c54e64b0b4e5c128b4f9,605a07241f654ac1c8afba12,Spain,Northeast,12 or younger,no,2021-03-23_11h20.30.461,empathy_intonation_perc,2020.2.10,Win32,60,,,,,,,,,,1,,,,,,,,,,,,,,,,,,,,,,,,,,,,,,,,,,,,,,,,14,yunque,,,1,1,1.07621,0,64,64,13,1,REAL,FAKE,,,,,,,,,,,,,,,,,,,,,
,,,,,,,602854edbf92e76fc9c56355,6057c54e64b0b4e5c128b4f9,605a07241f654ac1c8afba12,Spain,Northeast,12 or younger,no,2021-03-23_11h20.30.461,empathy_intonation_perc,2020.2.10,Win32,60,,,,,,,,,,1,,,,,,,,,,,,,,,,,,,,,,,,,,,,,,,,,,,,,,,,36,loro,,,1,1,0.909375,0,65,65,35,1,REAL,FAKE,,,,,,,,,,,,,,,,,,,,,
,,,,,,,602854edbf92e76fc9c56355,6057c54e64b0b4e5c128b4f9,605a07241f654ac1c8afba12,Spain,Northeast,12 or younger,no,2021-03-23_11h20.30.461,empathy_intonation_perc,2020.2.10,Win32,60,,,,,,,,,,1,,,,,,,,,,,,,,,,,,,,,,,,,,,,,,,,,,,,,,,,40,alfombra,,,1,1,0.61856,0,66,66,39,1,REAL,FAKE,,,,,,,,,,,,,,,,,,,,,
,,,,,,,602854edbf92e76fc9c56355,6057c54e64b0b4e5c128b4f9,605a07241f654ac1c8afba12,Spain,Northeast,12 or younger,no,2021-03-23_11h20.30.461,empathy_intonation_perc,2020.2.10,Win32,60,,,,,,,,,,1,,,,,,,,,,,,,,,,,,,,,,,,,,,,,,,,,,,,,,,,25,bisagra,,,1,1,1.003345,0,67,67,24,1,REAL,FAKE,,,,,,,,,,,,,,,,,,,,,
,,,,,,,602854edbf92e76fc9c56355,6057c54e64b0b4e5c128b4f9,605a07241f654ac1c8afba12,Spain,Northeast,12 or younger,no,2021-03-23_11h20.30.461,empathy_intonation_perc,2020.2.10,Win32,60,,,,,,,,,,1,,,,,,,,,,,,,,,,,,,,,,,,,,,,,,,,,,,,,,,,22,lacayo,,,0,0,1.990065,0,68,68,21,1,REAL,FAKE,,,,,,,,,,,,,,,,,,,,,
,,,,,,,602854edbf92e76fc9c56355,6057c54e64b0b4e5c128b4f9,605a07241f654ac1c8afba12,Spain,Northeast,12 or younger,no,2021-03-23_11h20.30.461,empathy_intonation_perc,2020.2.10,Win32,60,,,,,,,,,,1,,,,,,,,,,,,,,,,,,,,,,,,,,,,,,,,,,,,,,,,12,asesinato,,,1,1,0.616835,0,69,69,11,1,REAL,FAKE,,,,,,,,,,,,,,,,,,,,,
,,,,,,,602854edbf92e76fc9c56355,6057c54e64b0b4e5c128b4f9,605a07241f654ac1c8afba12,Spain,Northeast,12 or younger,no,2021-03-23_11h20.30.461,empathy_intonation_perc,2020.2.10,Win32,60,,,,,,,,,,1,,,,,,,,,,,,,,,,,,,,,,,,,,,,,,,,,,,,,,,,61,seda,,,1,1,0.73791,0,70,70,60,1,REAL,FAKE,,,,,,,,,,,,,,,,,,,,,
,,,,,,,602854edbf92e76fc9c56355,6057c54e64b0b4e5c128b4f9,605a07241f654ac1c8afba12,Spain,Northeast,12 or younger,no,2021-03-23_11h20.30.461,empathy_intonation_perc,2020.2.10,Win32,60,,,,,,,,,,0,,,,,,,,,,,,,,,,,,,,,,,,,,,,,,,,,,,,,,,,19,brecedad,,,0,1,0.95909,0,71,71,18,1,REAL,FAKE,,,,,,,,,,,,,,,,,,,,,
,,,,,,,602854edbf92e76fc9c56355,6057c54e64b0b4e5c128b4f9,605a07241f654ac1c8afba12,Spain,Northeast,12 or younger,no,2021-03-23_11h20.30.461,empathy_intonation_perc,2020.2.10,Win32,60,,,,,,,,,,0,,,,,,,,,,,,,,,,,,,,,,,,,,,,,,,,,,,,,,,,50,flamida,,,0,1,0.92204,0,72,72,49,1,REAL,FAKE,,,,,,,,,,,,,,,,,,,,,
,,,,,,,602854edbf92e76fc9c56355,6057c54e64b0b4e5c128b4f9,605a07241f654ac1c8afba12,Spain,Northeast,12 or younger,no,2021-03-23_11h20.30.461,empathy_intonation_perc,2020.2.10,Win32,60,,,,,,,,,,0,,,,,,,,,,,,,,,,,,,,,,,,,,,,,,,,,,,,,,,,23,lampera,,,0,1,1.044625,0,73,73,22,1,REAL,FAKE,,,,,,,,,,,,,,,,,,,,,
,,,,,,,602854edbf92e76fc9c56355,6057c54e64b0b4e5c128b4f9,605a07241f654ac1c8afba12,Spain,Northeast,12 or younger,no,2021-03-23_11h20.30.461,empathy_intonation_perc,2020.2.10,Win32,60,,,,,,,,,,1,,,,,,,,,,,,,,,,,,,,,,,,,,,,,,,,,,,,,,,,62,flaco,,,1,1,0.666315,0,74,74,61,1,REAL,FAKE,,,,,,,,,,,,,,,,,,,,,
,,,,,,,602854edbf92e76fc9c56355,6057c54e64b0b4e5c128b4f9,605a07241f654ac1c8afba12,Spain,Northeast,12 or younger,no,2021-03-23_11h20.30.461,empathy_intonation_perc,2020.2.10,Win32,60,,,,,,,,,,1,,,,,,,,,,,,,,,,,,,,,,,,,,,,,,,,,,,,,,,,41,rebuscar,,,0,0,0.68752,0,75,75,40,1,REAL,FAKE,,,,,,,,,,,,,,,,,,,,,
,,,,,,,602854edbf92e76fc9c56355,6057c54e64b0b4e5c128b4f9,605a07241f654ac1c8afba12,Spain,Northeast,12 or younger,no,2021-03-23_11h20.30.461,empathy_intonation_perc,2020.2.10,Win32,60,,,,,,,,,,1,,,,,,,,,,,,,,,,,,,,,,,,,,,,,,,,,,,,,,,,80,hormiga,,,1,1,1.796865,0,76,76,79,1,REAL,FAKE,,,,,,,,,,,,,,,,,,,,,
,,,,,,,602854edbf92e76fc9c56355,6057c54e64b0b4e5c128b4f9,605a07241f654ac1c8afba12,Spain,Northeast,12 or younger,no,2021-03-23_11h20.30.461,empathy_intonation_perc,2020.2.10,Win32,60,,,,,,,,,,1,,,,,,,,,,,,,,,,,,,,,,,,,,,,,,,,,,,,,,,,57,tacao,,,1,1,0.95643,0,77,77,56,1,REAL,FAKE,,,,,,,,,,,,,,,,,,,,,
,,,,,,,602854edbf92e76fc9c56355,6057c54e64b0b4e5c128b4f9,605a07241f654ac1c8afba12,Spain,Northeast,12 or younger,no,2021-03-23_11h20.30.461,empathy_intonation_perc,2020.2.10,Win32,60,,,,,,,,,,0,,,,,,,,,,,,,,,,,,,,,,,,,,,,,,,,,,,,,,,,16,abracer,,,0,1,0.939465,0,78,78,15,1,REAL,FAKE,,,,,,,,,,,,,,,,,,,,,
,,,,,,,602854edbf92e76fc9c56355,6057c54e64b0b4e5c128b4f9,605a07241f654ac1c8afba12,Spain,Northeast,12 or younger,no,2021-03-23_11h20.30.461,empathy_intonation_perc,2020.2.10,Win32,60,,,,,,,,,,1,,,,,,,,,,,,,,,,,,,,,,,,,,,,,,,,,,,,,,,,39,torpe,,,1,1,0.681685,0,79,79,38,1,REAL,FAKE,,,,,,,,,,,,,,,,,,,,,
,,,,,,,602854edbf92e76fc9c56355,6057c54e64b0b4e5c128b4f9,605a07241f654ac1c8afba12,Spain,Northeast,12 or younger,no,2021-03-23_11h20.30.461,empathy_intonation_perc,2020.2.10,Win32,60,,,,,,,,,,1,,,,,,,,,,,,,,,,,,,,,,,,,,,,,,,,,,,,,,,,67,cabello,,,1,1,0.773085,0,80,80,66,1,REAL,FAKE,,,,,,,,,,,,,,,,,,,,,
,,,,,,,602854edbf92e76fc9c56355,6057c54e64b0b4e5c128b4f9,605a07241f654ac1c8afba12,Spain,Northeast,12 or younger,no,2021-03-23_11h20.30.461,empathy_intonation_perc,2020.2.10,Win32,60,,,,,,,,,,1,,,,,,,,,,,,,,,,,,,,,,,,,,,,,,,,,,,,,,,,64,orgulloso,,,1,1,0.669525,0,81,81,63,1,REAL,FAKE,,,,,,,,,,,,,,,,,,,,,
,,,,,,,602854edbf92e76fc9c56355,6057c54e64b0b4e5c128b4f9,605a07241f654ac1c8afba12,Spain,Northeast,12 or younger,no,2021-03-23_11h20.30.461,empathy_intonation_perc,2020.2.10,Win32,60,,,,,,,,,,0,,,,,,,,,,,,,,,,,,,,,,,,,,,,,,,,,,,,,,,,87,grodo,,,0,1,0.806995,0,82,82,86,1,REAL,FAKE,,,,,,,,,,,,,,,,,,,,,
,,,,,,,602854edbf92e76fc9c56355,6057c54e64b0b4e5c128b4f9,605a07241f654ac1c8afba12,Spain,Northeast,12 or younger,no,2021-03-23_11h20.30.461,empathy_intonation_perc,2020.2.10,Win32,60,,,,,,,,,,1,,,,,,,,,,,,,,,,,,,,,,,,,,,,,,,,,,,,,,,,43,canela,,,1,1,0.72393,0,83,83,42,1,REAL,FAKE,,,,,,,,,,,,,,,,,,,,,
,,,,,,,602854edbf92e76fc9c56355,6057c54e64b0b4e5c128b4f9,605a07241f654ac1c8afba12,Spain,Northeast,12 or younger,no,2021-03-23_11h20.30.461,empathy_intonation_perc,2020.2.10,Win32,60,,,,,,,,,,1,,,,,,,,,,,,,,,,,,,,,,,,,,,,,,,,,,,,,,,,38,estornudar,,,1,1,0.77685,0,84,84,37,1,REAL,FAKE,,,,,,,,,,,,,,,,,,,,,
,,,,,,,602854edbf92e76fc9c56355,6057c54e64b0b4e5c128b4f9,605a07241f654ac1c8afba12,Spain,Northeast,12 or younger,no,2021-03-23_11h20.30.461,empathy_intonation_perc,2020.2.10,Win32,60,,,,,,,,,,1,,,,,,,,,,,,,,,,,,,,,,,,,,,,,,,,,,,,,,,,90,clavel,,,0,0,0.926655,0,85,85,89,1,REAL,FAKE,,,,,,,,,,,,,,,,,,,,,
,,,,,,,602854edbf92e76fc9c56355,6057c54e64b0b4e5c128b4f9,605a07241f654ac1c8afba12,Spain,Northeast,12 or younger,no,2021-03-23_11h20.30.461,empathy_intonation_perc,2020.2.10,Win32,60,,,,,,,,,,0,,,,,,,,,,,,,,,,,,,,,,,,,,,,,,,,,,,,,,,,58,plaudir,,,0,1,1.41407,0,86,86,57,1,REAL,FAKE,,,,,,,,,,,,,,,,,,,,,
,,,,,,,602854edbf92e76fc9c56355,6057c54e64b0b4e5c128b4f9,605a07241f654ac1c8afba12,Spain,Northeast,12 or younger,no,2021-03-23_11h20.30.461,empathy_intonation_perc,2020.2.10,Win32,60,,,,,,,,,,0,,,,,,,,,,,,,,,,,,,,,,,,,,,,,,,,,,,,,,,,30,alardio,,,1,0,1.50942,0,87,87,29,1,REAL,FAKE,,,,,,,,,,,,,,,,,,,,,
,,,,,,,602854edbf92e76fc9c56355,6057c54e64b0b4e5c128b4f9,605a07241f654ac1c8afba12,Spain,Northeast,12 or younger,no,2021-03-23_11h20.30.461,empathy_intonation_perc,2020.2.10,Win32,60,,,,,,,,,,1,,,,,,,,,,,,,,,,,,,,,,,,,,,,,,,,,,,,,,,,5,zapato,,,1,1,0.62461,0,88,88,4,1,REAL,FAKE,,,,,,,,,,,,,,,,,,,,,
,,,,,,,602854edbf92e76fc9c56355,6057c54e64b0b4e5c128b4f9,605a07241f654ac1c8afba12,Spain,Northeast,12 or younger,no,2021-03-23_11h20.30.461,empathy_intonation_perc,2020.2.10,Win32,60,,,,,,,,,,0,,,,,,,,,,,,,,,,,,,,,,,,,,,,,,,,,,,,,,,,63,esposante,,,0,1,0.85549,0,89,89,62,1,REAL,FAKE,,,,,,,,,,,,,,,,,,,,,
,,,,,,,602854edbf92e76fc9c56355,6057c54e64b0b4e5c128b4f9,605a07241f654ac1c8afba12,Spain,Northeast,12 or younger,no,2021-03-23_11h20.30.461,empathy_intonation_perc,2020.2.10,Win32,60,,,,,,,,,,,,,,,,,,,,,,,,,,,,,,,,,,,,,,,,,,,,,,,,,,,,,,,,,,,,,,,,4,1,2.008505,1,0,0,0,0,0,1,,,,,,,,,,,
,,,,,,,602854edbf92e76fc9c56355,6057c54e64b0b4e5c128b4f9,605a07241f654ac1c8afba12,Spain,Northeast,12 or younger,no,2021-03-23_11h20.30.461,empathy_intonation_perc,2020.2.10,Win32,60,,,,,,,,,,,,,,,,,,,,1,,,,,,,,,,,,,,,,,,,,,,,,,,,,,,,,,,,,,,,,,,,,,,,,,,,,,,2,0,0,0,0,1,I can easily tell if someone else wants to enter a conversation.,1,0,1,0
,,,,,,,602854edbf92e76fc9c56355,6057c54e64b0b4e5c128b4f9,605a07241f654ac1c8afba12,Spain,Northeast,12 or younger,no,2021-03-23_11h20.30.461,empathy_intonation_perc,2020.2.10,Win32,60,,,,,,,,,,,,,,,,,,,,2,,,,,,,,,,,,,,,,,,,,,,,,,,,,,,,,,,,,,,,,,,,,,,,,,,,,,,4,0,1,1,1,1,I prefer animals to humans.,0,1,0,0
,,,,,,,602854edbf92e76fc9c56355,6057c54e64b0b4e5c128b4f9,605a07241f654ac1c8afba12,Spain,Northeast,12 or younger,no,2021-03-23_11h20.30.461,empathy_intonation_perc,2020.2.10,Win32,60,,,,,,,,,,,,,,,,,,,,3,,,,,,,,,,,,,,,,,,,,,,,,,,,,,,,,,,,,,,,,,,,,,,,,,,,,,,2,0,2,2,2,1,I try to keep up with the current trends and fashions.,0,1,0,0
,,,,,,,602854edbf92e76fc9c56355,6057c54e64b0b4e5c128b4f9,605a07241f654ac1c8afba12,Spain,Northeast,12 or younger,no,2021-03-23_11h20.30.461,empathy_intonation_perc,2020.2.10,Win32,60,,,,,,,,,,,,,,,,,,,,4,,,,,,,,,,,,,,,,,,,,,,,,,,,,,,,,,,,,,,,,,,,,,,,,,,,,,,4,0,3,3,3,1,"I find it difficult to explain to others things that I understand easily, 
  when they dont understand it first time.",1,0,0,1
,,,,,,,602854edbf92e76fc9c56355,6057c54e64b0b4e5c128b4f9,605a07241f654ac1c8afba12,Spain,Northeast,12 or younger,no,2021-03-23_11h20.30.461,empathy_intonation_perc,2020.2.10,Win32,60,,,,,,,,,,,,,,,,,,,,5,,,,,,,,,,,,,,,,,,,,,,,,,,,,,,,,,,,,,,,,,,,,,,,,,,,,,,1,0,4,4,4,1,I dream most nights.,0,1,0,0
,,,,,,,602854edbf92e76fc9c56355,6057c54e64b0b4e5c128b4f9,605a07241f654ac1c8afba12,Spain,Northeast,12 or younger,no,2021-03-23_11h20.30.461,empathy_intonation_perc,2020.2.10,Win32,60,,,,,,,,,,,,,,,,,,,,6,,,,,,,,,,,,,,,,,,,,,,,,,,,,,,,,,,,,,,,,,,,,,,,,,,,,,,2,0,5,5,5,1,I really enjoy caring for other people.,1,0,1,0
,,,,,,,602854edbf92e76fc9c56355,6057c54e64b0b4e5c128b4f9,605a07241f654ac1c8afba12,Spain,Northeast,12 or younger,no,2021-03-23_11h20.30.461,empathy_intonation_perc,2020.2.10,Win32,60,,,,,,,,,,,,,,,,,,,,7,,,,,,,,,,,,,,,,,,,,,,,,,,,,,,,,,,,,,,,,,,,,,,,,,,,,,,2,0,6,6,6,1,I try to solve my own problems rather than discussing them with others.,0,1,0,0
