instructions_2afc_loop.thisRepN,instructions_2afc_loop.thisTrialN,instructions_2afc_loop.thisN,instructions_2afc_loop.thisIndex,instructions_2afc_loop.ran,instructions_text,continue_text,participant,study_id,session,I am most familiar with Spanish from...*,What part of the US are you from?*,At what age did you begin learning Spanish?*,Are you proficient in any languages other than English/Spanish?*,date,expName,psychopyVersion,OS,frameRate,key_resp_2afc_practice.keys,key_resp_2afc_practice.corr,key_resp_2afc_practice.rt,trials_2afc_practice_loop.thisRepN,trials_2afc_practice_loop.thisTrialN,trials_2afc_practice_loop.thisN,trials_2afc_practice_loop.thisIndex,trials_2afc_practice_loop.ran,path,correct_response,the_col,key_resp_2afc_trial.keys,key_resp_2afc_trial.corr,key_resp_2afc_trial.rt,trials_2afc_loop.thisRepN,trials_2afc_loop.thisTrialN,trials_2afc_loop.thisN,trials_2afc_loop.thisIndex,trials_2afc_loop.ran,item_num,andalusian,argentine,castilian,chilean,cuban,mexican,peruvian,puertorican,key_resp_ac1.keys,key_resp_ac1.corr,key_resp_ac1.rt,ac1_loop.thisRepN,ac1_loop.thisTrialN,ac1_loop.thisN,ac1_loop.thisIndex,ac1_loop.ran,instructions_lextale_loop.thisRepN,instructions_lextale_loop.thisTrialN,instructions_lextale_loop.thisN,instructions_lextale_loop.thisIndex,instructions_lextale_loop.ran,key_resp_lextale_practice.keys,key_resp_lextale_practice.corr,key_resp_lextale_practice.rt,trials_lextale_practice_loop.thisRepN,trials_lextale_practice_loop.thisTrialN,trials_lextale_practice_loop.thisN,trials_lextale_practice_loop.thisIndex,trials_lextale_practice_loop.ran,stim,word,prac_button_real,prac_button_false,key_resp_lextale_trial.keys,key_resp_lextale_trial.corr,key_resp_lextale_trial.rt,trials_lextale_loop.thisRepN,trials_lextale_loop.thisTrialN,trials_lextale_loop.thisN,trials_lextale_loop.thisIndex,trials_lextale_loop.ran,button_real,button_false,key_resp_ac2.keys,key_resp_ac2.corr,key_resp_ac2.rt,check_pass,check_fails,ac2_loop.thisRepN,ac2_loop.thisTrialN,ac2_loop.thisN,ac2_loop.thisIndex,ac2_loop.ran,slider_eq_trial.response,trials_eq_loop.thisRepN,trials_eq_loop.thisTrialN,trials_eq_loop.thisN,trials_eq_loop.thisIndex,trials_eq_loop.ran,item,is_test_item,is_distractor,is_agree_score,is_disagree_score
0,0,0,0,1,"In the following task you are going to hear a series of utterances. 

  You will decide if the utterances sound like questions or not using your keyboard.",(press the spacebar to continue),602c790b7597b0571b1e1472,6057c54e64b0b4e5c128b4f9,6058048af51d8575c7e71a76,United States,East coast,13 or older,no,2021-03-21_22h45.49.462,empathy_intonation_perc,2020.2.10,Win32,60,,,,,,,,,,,,,,,,,,,,,,,,,,,,,,,,,,,,,,,,,,,,,,,,,,,,,,,,,,,,,,,,,,,,,,,,,,,,,,,,,,,,
0,1,1,1,1,"If you believe the utterance is a question, type '1' (for 'yes') and if you do not 
  believe it is a question type '0' (for 'no').

  Let's practice a bit...",(press the spacebar to continue),602c790b7597b0571b1e1472,6057c54e64b0b4e5c128b4f9,6058048af51d8575c7e71a76,United States,East coast,13 or older,no,2021-03-21_22h45.49.462,empathy_intonation_perc,2020.2.10,Win32,60,,,,,,,,,,,,,,,,,,,,,,,,,,,,,,,,,,,,,,,,,,,,,,,,,,,,,,,,,,,,,,,,,,,,,,,,,,,,,,,,,,,,
,,,,,,,602c790b7597b0571b1e1472,6057c54e64b0b4e5c128b4f9,6058048af51d8575c7e71a76,United States,East coast,13 or older,no,2021-03-21_22h45.49.462,empathy_intonation_perc,2020.2.10,Win32,60,0,1,4.242185,0,0,0,7,1,./stim/wavs/puertorican_statement_filler_La-nina-pinta-con-su-amiga.wav,0,,,,,,,,,,,,,,,,,,,,,,,,,,,,,,,,,,,,,,,,,,,,,,,,,,,,,,,,,,,,,,,,,,,,,,,,,,
,,,,,,,602c790b7597b0571b1e1472,6057c54e64b0b4e5c128b4f9,6058048af51d8575c7e71a76,United States,East coast,13 or older,no,2021-03-21_22h45.49.462,empathy_intonation_perc,2020.2.10,Win32,60,1,0,1.945625,0,1,1,4,1,./stim/wavs/cuban_statement_filler_Cocinabas-por-la-noche.wav,0,,,,,,,,,,,,,,,,,,,,,,,,,,,,,,,,,,,,,,,,,,,,,,,,,,,,,,,,,,,,,,,,,,,,,,,,,,
,,,,,,,602c790b7597b0571b1e1472,6057c54e64b0b4e5c128b4f9,6058048af51d8575c7e71a76,United States,East coast,13 or older,no,2021-03-21_22h45.49.462,empathy_intonation_perc,2020.2.10,Win32,60,1,1,1.733515,0,2,2,1,1,./stim/wavs/argentine_question_filler_Mi-vecino-habla-mucho.wav,1,,,,,,,,,,,,,,,,,,,,,,,,,,,,,,,,,,,,,,,,,,,,,,,,,,,,,,,,,,,,,,,,,,,,,,,,,,
,,,,,,,602c790b7597b0571b1e1472,6057c54e64b0b4e5c128b4f9,6058048af51d8575c7e71a76,United States,East coast,13 or older,no,2021-03-21_22h45.49.462,empathy_intonation_perc,2020.2.10,Win32,60,0,0,1.70921,0,3,3,2,1,./stim/wavs/chilean_question_filler_Mi-padre-cantaba-bien.wav,1,,,,,,,,,,,,,,,,,,,,,,,,,,,,,,,,,,,,,,,,,,,,,,,,,,,,,,,,,,,,,,,,,,,,,,,,,,
,,,,,,,602c790b7597b0571b1e1472,6057c54e64b0b4e5c128b4f9,6058048af51d8575c7e71a76,United States,East coast,13 or older,no,2021-03-21_22h45.49.462,empathy_intonation_perc,2020.2.10,Win32,60,1,0,2.38836,0,4,4,6,1,./stim/wavs/peruvian_statement_filler_El-nino-habla-con-su-madre.wav,0,,,,,,,,,,,,,,,,,,,,,,,,,,,,,,,,,,,,,,,,,,,,,,,,,,,,,,,,,,,,,,,,,,,,,,,,,,
,,,,,,,602c790b7597b0571b1e1472,6057c54e64b0b4e5c128b4f9,6058048af51d8575c7e71a76,United States,East coast,13 or older,no,2021-03-21_22h45.49.462,empathy_intonation_perc,2020.2.10,Win32,60,0,1,2.208365,0,5,5,5,1,./stim/wavs/andalusian_statement_filler_Alberto-nunca-se-afeita.wav,0,,,,,,,,,,,,,,,,,,,,,,,,,,,,,,,,,,,,,,,,,,,,,,,,,,,,,,,,,,,,,,,,,,,,,,,,,,
,,,,,,,602c790b7597b0571b1e1472,6057c54e64b0b4e5c128b4f9,6058048af51d8575c7e71a76,United States,East coast,13 or older,no,2021-03-21_22h45.49.462,empathy_intonation_perc,2020.2.10,Win32,60,1,1,1.89713,0,6,6,3,1,./stim/wavs/mexican_question_filler_Felipe-no-tiene-contrasena.wav,1,,,,,,,,,,,,,,,,,,,,,,,,,,,,,,,,,,,,,,,,,,,,,,,,,,,,,,,,,,,,,,,,,,,,,,,,,,
,,,,,,,602c790b7597b0571b1e1472,6057c54e64b0b4e5c128b4f9,6058048af51d8575c7e71a76,United States,East coast,13 or older,no,2021-03-21_22h45.49.462,empathy_intonation_perc,2020.2.10,Win32,60,1,1,1.95315,0,7,7,0,1,./stim/wavs/castilian_question_filler_Mi-esposo-conoce-al-chico.wav,1,,,,,,,,,,,,,,,,,,,,,,,,,,,,,,,,,,,,,,,,,,,,,,,,,,,,,,,,,,,,,,,,,,,,,,,,,,
,,,,,,,602c790b7597b0571b1e1472,6057c54e64b0b4e5c128b4f9,6058048af51d8575c7e71a76,United States,East coast,13 or older,no,2021-03-21_22h45.49.462,empathy_intonation_perc,2020.2.10,Win32,60,,,,,,,,,,0,argentine,0,1,1.691615,0,0,0,47,1,48,./stim/wavs/andalusian_mismatch_declarative-narrow-focus_Mi-tia-odia-la-lluvia.wav,./stim/wavs/argentine_mismatch_declarative-narrow-focus_Mi-tia-odia-la-lluvia.wav,./stim/wavs/castilian_mismatch_declarative-narrow-focus_Mi-tia-odia-la-lluvia.wav,./stim/wavs/chilean_mismatch_declarative-narrow-focus_Mi-tia-odia-la-lluvia.wav,./stim/wavs/cuban_mismatch_declarative-narrow-focus_Mi-tia-odia-la-lluvia.wav,./stim/wavs/mexican_mismatch_declarative-narrow-focus_Mi-tia-odia-la-lluvia.wav,./stim/wavs/peruvian_mismatch_declarative-narrow-focus_Mi-tia-odia-la-lluvia.wav,./stim/wavs/puertorican_mismatch_declarative-narrow-focus_Mi-tia-odia-la-lluvia.wav,,,,,,,,,,,,,,,,,,,,,,,,,,,,,,,,,,,,,,,,,,,,,,,,,,,,,,,,
,,,,,,,602c790b7597b0571b1e1472,6057c54e64b0b4e5c128b4f9,6058048af51d8575c7e71a76,United States,East coast,13 or older,no,2021-03-21_22h45.49.462,empathy_intonation_perc,2020.2.10,Win32,60,,,,,,,,,,0,peruvian,0,1,1.78056,0,1,1,34,1,35,./stim/wavs/andalusian_mismatch_declarative-broad-focus_El-nino-oye-el-rio.wav,./stim/wavs/argentine_mismatch_declarative-broad-focus_El-nino-oye-el-rio.wav,./stim/wavs/castilian_mismatch_declarative-broad-focus_El-nino-oye-el-rio.wav,./stim/wavs/chilean_mismatch_declarative-broad-focus_El-nino-oye-el-rio.wav,./stim/wavs/cuban_mismatch_declarative-broad-focus_El-nino-oye-el-rio.wav,./stim/wavs/mexican_mismatch_declarative-broad-focus_El-nino-oye-el-rio.wav,./stim/wavs/peruvian_mismatch_declarative-broad-focus_El-nino-oye-el-rio.wav,./stim/wavs/puertorican_mismatch_declarative-broad-focus_El-nino-oye-el-rio.wav,,,,,,,,,,,,,,,,,,,,,,,,,,,,,,,,,,,,,,,,,,,,,,,,,,,,,,,,
,,,,,,,602c790b7597b0571b1e1472,6057c54e64b0b4e5c128b4f9,6058048af51d8575c7e71a76,United States,East coast,13 or older,no,2021-03-21_22h45.49.462,empathy_intonation_perc,2020.2.10,Win32,60,,,,,,,,,,1,andalusian,1,1,1.63663,0,2,2,63,1,64,./stim/wavs/andalusian_mismatch_interrogative-total-yn_Mi-tia-odia-la-lluvia.wav,./stim/wavs/argentine_mismatch_interrogative-total-yn_Mi-tia-odia-la-lluvia.wav,./stim/wavs/castilian_mismatch_interrogative-total-yn_Mi-tia-odia-la-lluvia.wav,./stim/wavs/chilean_mismatch_interrogative-total-yn_Mi-tia-odia-la-lluvia.wav,./stim/wavs/cuban_mismatch_interrogative-total-yn_Mi-tia-odia-la-lluvia.wav,./stim/wavs/mexican_mismatch_interrogative-total-yn_Mi-tia-odia-la-lluvia.wav,./stim/wavs/peruvian_mismatch_interrogative-total-yn_Mi-tia-odia-la-lluvia.wav,./stim/wavs/puertorican_mismatch_interrogative-total-yn_Mi-tia-odia-la-lluvia.wav,,,,,,,,,,,,,,,,,,,,,,,,,,,,,,,,,,,,,,,,,,,,,,,,,,,,,,,,
,,,,,,,602c790b7597b0571b1e1472,6057c54e64b0b4e5c128b4f9,6058048af51d8575c7e71a76,United States,East coast,13 or older,no,2021-03-21_22h45.49.462,empathy_intonation_perc,2020.2.10,Win32,60,,,,,,,,,,0,peruvian,0,1,2.32743,0,3,3,12,1,13,./stim/wavs/andalusian_match_declarative-narrow-focus_Manuela-vende-el-carro.wav,./stim/wavs/argentine_match_declarative-narrow-focus_Manuela-vende-el-carro.wav,./stim/wavs/castilian_match_declarative-narrow-focus_Manuela-vende-el-carro.wav,./stim/wavs/chilean_match_declarative-narrow-focus_Manuela-vende-el-carro.wav,./stim/wavs/cuban_match_declarative-narrow-focus_Manuela-vende-el-carro.wav,./stim/wavs/mexican_match_declarative-narrow-focus_Manuela-vende-el-carro.wav,./stim/wavs/peruvian_match_declarative-narrow-focus_Manuela-vende-el-carro.wav,./stim/wavs/puertorican_match_declarative-narrow-focus_Manuela-vende-el-carro.wav,,,,,,,,,,,,,,,,,,,,,,,,,,,,,,,,,,,,,,,,,,,,,,,,,,,,,,,,
,,,,,,,602c790b7597b0571b1e1472,6057c54e64b0b4e5c128b4f9,6058048af51d8575c7e71a76,United States,East coast,13 or older,no,2021-03-21_22h45.49.462,empathy_intonation_perc,2020.2.10,Win32,60,,,,,,,,,,0,castilian,0,1,1.765145,0,4,4,7,1,8,./stim/wavs/andalusian_match_declarative-broad-focus_Marta-abre-el-regalo.wav,./stim/wavs/argentine_match_declarative-broad-focus_Marta-abre-el-regalo.wav,./stim/wavs/castilian_match_declarative-broad-focus_Marta-abre-el-regalo.wav,./stim/wavs/chilean_match_declarative-broad-focus_Marta-abre-el-regalo.wav,./stim/wavs/cuban_match_declarative-broad-focus_Marta-abre-el-regalo.wav,./stim/wavs/mexican_match_declarative-broad-focus_Marta-abre-el-regalo.wav,./stim/wavs/peruvian_match_declarative-broad-focus_Marta-abre-el-regalo.wav,./stim/wavs/puertorican_match_declarative-broad-focus_Marta-abre-el-regalo.wav,,,,,,,,,,,,,,,,,,,,,,,,,,,,,,,,,,,,,,,,,,,,,,,,,,,,,,,,
,,,,,,,602c790b7597b0571b1e1472,6057c54e64b0b4e5c128b4f9,6058048af51d8575c7e71a76,United States,East coast,13 or older,no,2021-03-21_22h45.49.462,empathy_intonation_perc,2020.2.10,Win32,60,,,,,,,,,,0,argentine,0,1,1.47523,0,5,5,10,1,11,./stim/wavs/andalusian_match_declarative-narrow-focus_David-leia-el-libro.wav,./stim/wavs/argentine_match_declarative-narrow-focus_David-leia-el-libro.wav,./stim/wavs/castilian_match_declarative-narrow-focus_David-leia-el-libro.wav,./stim/wavs/chilean_match_declarative-narrow-focus_David-leia-el-libro.wav,./stim/wavs/cuban_match_declarative-narrow-focus_David-leia-el-libro.wav,./stim/wavs/mexican_match_declarative-narrow-focus_David-leia-el-libro.wav,./stim/wavs/peruvian_match_declarative-narrow-focus_David-leia-el-libro.wav,./stim/wavs/puertorican_match_declarative-narrow-focus_David-leia-el-libro.wav,,,,,,,,,,,,,,,,,,,,,,,,,,,,,,,,,,,,,,,,,,,,,,,,,,,,,,,,
,,,,,,,602c790b7597b0571b1e1472,6057c54e64b0b4e5c128b4f9,6058048af51d8575c7e71a76,United States,East coast,13 or older,no,2021-03-21_22h45.49.462,empathy_intonation_perc,2020.2.10,Win32,60,,,,,,,,,,1,cuban,1,1,1.685225,0,6,6,16,1,17,./stim/wavs/andalusian_match_interrogative-partial-wh_Cuando-bebia-el-vino.wav,./stim/wavs/argentine_match_interrogative-partial-wh_Cuando-bebia-el-vino.wav,./stim/wavs/castilian_match_interrogative-partial-wh_Cuando-bebia-el-vino.wav,./stim/wavs/chilean_match_interrogative-partial-wh_Cuando-bebia-el-vino.wav,./stim/wavs/cuban_match_interrogative-partial-wh_Cuando-bebia-el-vino.wav,./stim/wavs/mexican_match_interrogative-partial-wh_Cuando-bebia-el-vino.wav,./stim/wavs/peruvian_match_interrogative-partial-wh_Cuando-bebia-el-vino.wav,./stim/wavs/puertorican_match_interrogative-partial-wh_Cuando-bebia-el-vino.wav,,,,,,,,,,,,,,,,,,,,,,,,,,,,,,,,,,,,,,,,,,,,,,,,,,,,,,,,
,,,,,,,602c790b7597b0571b1e1472,6057c54e64b0b4e5c128b4f9,6058048af51d8575c7e71a76,United States,East coast,13 or older,no,2021-03-21_22h45.49.462,empathy_intonation_perc,2020.2.10,Win32,60,,,,,,,,,,1,andalusian,1,1,1.709275,0,7,7,52,1,53,./stim/wavs/andalusian_mismatch_interrogative-partial-wh_Por-que-odiaba-la-lluvia.wav,./stim/wavs/argentine_mismatch_interrogative-partial-wh_Por-que-odiaba-la-lluvia.wav,./stim/wavs/castilian_mismatch_interrogative-partial-wh_Por-que-odiaba-la-lluvia.wav,./stim/wavs/chilean_mismatch_interrogative-partial-wh_Por-que-odiaba-la-lluvia.wav,./stim/wavs/cuban_mismatch_interrogative-partial-wh_Por-que-odiaba-la-lluvia.wav,./stim/wavs/mexican_mismatch_interrogative-partial-wh_Por-que-odiaba-la-lluvia.wav,./stim/wavs/peruvian_mismatch_interrogative-partial-wh_Por-que-odiaba-la-lluvia.wav,./stim/wavs/puertorican_mismatch_interrogative-partial-wh_Por-que-odiaba-la-lluvia.wav,,,,,,,,,,,,,,,,,,,,,,,,,,,,,,,,,,,,,,,,,,,,,,,,,,,,,,,,
,,,,,,,602c790b7597b0571b1e1472,6057c54e64b0b4e5c128b4f9,6058048af51d8575c7e71a76,United States,East coast,13 or older,no,2021-03-21_22h45.49.462,empathy_intonation_perc,2020.2.10,Win32,60,,,,,,,,,,1,chilean,1,1,1.62146,0,8,8,60,1,61,./stim/wavs/andalusian_mismatch_interrogative-total-yn_La-nina-lava-el-plato.wav,./stim/wavs/argentine_mismatch_interrogative-total-yn_La-nina-lava-el-plato.wav,./stim/wavs/castilian_mismatch_interrogative-total-yn_La-nina-lava-el-plato.wav,./stim/wavs/chilean_mismatch_interrogative-total-yn_La-nina-lava-el-plato.wav,./stim/wavs/cuban_mismatch_interrogative-total-yn_La-nina-lava-el-plato.wav,./stim/wavs/mexican_mismatch_interrogative-total-yn_La-nina-lava-el-plato.wav,./stim/wavs/peruvian_mismatch_interrogative-total-yn_La-nina-lava-el-plato.wav,./stim/wavs/puertorican_mismatch_interrogative-total-yn_La-nina-lava-el-plato.wav,,,,,,,,,,,,,,,,,,,,,,,,,,,,,,,,,,,,,,,,,,,,,,,,,,,,,,,,
,,,,,,,602c790b7597b0571b1e1472,6057c54e64b0b4e5c128b4f9,6058048af51d8575c7e71a76,United States,East coast,13 or older,no,2021-03-21_22h45.49.462,empathy_intonation_perc,2020.2.10,Win32,60,,,,,,,,,,1,argentine,1,1,1.7259,0,9,9,55,1,56,./stim/wavs/andalusian_mismatch_interrogative-partial-wh_Por-que-vivia-en-Paris.wav,./stim/wavs/argentine_mismatch_interrogative-partial-wh_Por-que-vivia-en-Paris.wav,./stim/wavs/castilian_mismatch_interrogative-partial-wh_Por-que-vivia-en-Paris.wav,./stim/wavs/chilean_mismatch_interrogative-partial-wh_Por-que-vivia-en-Paris.wav,./stim/wavs/cuban_mismatch_interrogative-partial-wh_Por-que-vivia-en-Paris.wav,./stim/wavs/mexican_mismatch_interrogative-partial-wh_Por-que-vivia-en-Paris.wav,./stim/wavs/peruvian_mismatch_interrogative-partial-wh_Por-que-vivia-en-Paris.wav,./stim/wavs/puertorican_mismatch_interrogative-partial-wh_Por-que-vivia-en-Paris.wav,,,,,,,,,,,,,,,,,,,,,,,,,,,,,,,,,,,,,,,,,,,,,,,,,,,,,,,,
,,,,,,,602c790b7597b0571b1e1472,6057c54e64b0b4e5c128b4f9,6058048af51d8575c7e71a76,United States,East coast,13 or older,no,2021-03-21_22h45.49.462,empathy_intonation_perc,2020.2.10,Win32,60,,,,,,,,,,0,mexican,1,0,2.262025,0,10,10,15,1,16,./stim/wavs/andalusian_match_declarative-narrow-focus_Marta-abre-el-regalo.wav,./stim/wavs/argentine_match_declarative-narrow-focus_Marta-abre-el-regalo.wav,./stim/wavs/castilian_match_declarative-narrow-focus_Marta-abre-el-regalo.wav,./stim/wavs/chilean_match_declarative-narrow-focus_Marta-abre-el-regalo.wav,./stim/wavs/cuban_match_declarative-narrow-focus_Marta-abre-el-regalo.wav,./stim/wavs/mexican_match_declarative-narrow-focus_Marta-abre-el-regalo.wav,./stim/wavs/peruvian_match_declarative-narrow-focus_Marta-abre-el-regalo.wav,./stim/wavs/puertorican_match_declarative-narrow-focus_Marta-abre-el-regalo.wav,,,,,,,,,,,,,,,,,,,,,,,,,,,,,,,,,,,,,,,,,,,,,,,,,,,,,,,,
,,,,,,,602c790b7597b0571b1e1472,6057c54e64b0b4e5c128b4f9,6058048af51d8575c7e71a76,United States,East coast,13 or older,no,2021-03-21_22h45.49.462,empathy_intonation_perc,2020.2.10,Win32,60,,,,,,,,,,1,peruvian,1,1,2.03657,0,11,11,50,1,51,./stim/wavs/andalusian_mismatch_interrogative-partial-wh_Cuando-miraba-la-luna.wav,./stim/wavs/argentine_mismatch_interrogative-partial-wh_Cuando-miraba-la-luna.wav,./stim/wavs/castilian_mismatch_interrogative-partial-wh_Cuando-miraba-la-luna.wav,./stim/wavs/chilean_mismatch_interrogative-partial-wh_Cuando-miraba-la-luna.wav,./stim/wavs/cuban_mismatch_interrogative-partial-wh_Cuando-miraba-la-luna.wav,./stim/wavs/mexican_mismatch_interrogative-partial-wh_Cuando-miraba-la-luna.wav,./stim/wavs/peruvian_mismatch_interrogative-partial-wh_Cuando-miraba-la-luna.wav,./stim/wavs/puertorican_mismatch_interrogative-partial-wh_Cuando-miraba-la-luna.wav,,,,,,,,,,,,,,,,,,,,,,,,,,,,,,,,,,,,,,,,,,,,,,,,,,,,,,,,
,,,,,,,602c790b7597b0571b1e1472,6057c54e64b0b4e5c128b4f9,6058048af51d8575c7e71a76,United States,East coast,13 or older,no,2021-03-21_22h45.49.462,empathy_intonation_perc,2020.2.10,Win32,60,,,,,,,,,,0,andalusian,0,1,1.77609,0,12,12,0,1,1,./stim/wavs/andalusian_match_declarative-broad-focus_Ana-lleva-el-abrigo.wav,./stim/wavs/argentine_match_declarative-broad-focus_Ana-lleva-el-abrigo.wav,./stim/wavs/castilian_match_declarative-broad-focus_Ana-lleva-el-abrigo.wav,./stim/wavs/chilean_match_declarative-broad-focus_Ana-lleva-el-abrigo.wav,./stim/wavs/cuban_match_declarative-broad-focus_Ana-lleva-el-abrigo.wav,./stim/wavs/mexican_match_declarative-broad-focus_Ana-lleva-el-abrigo.wav,./stim/wavs/peruvian_match_declarative-broad-focus_Ana-lleva-el-abrigo.wav,./stim/wavs/puertorican_match_declarative-broad-focus_Ana-lleva-el-abrigo.wav,,,,,,,,,,,,,,,,,,,,,,,,,,,,,,,,,,,,,,,,,,,,,,,,,,,,,,,,
,,,,,,,602c790b7597b0571b1e1472,6057c54e64b0b4e5c128b4f9,6058048af51d8575c7e71a76,United States,East coast,13 or older,no,2021-03-21_22h45.49.462,empathy_intonation_perc,2020.2.10,Win32,60,,,,,,,,,,0,cuban,0,1,1.765375,0,13,13,35,1,36,./stim/wavs/andalusian_mismatch_declarative-broad-focus_La-maestra-vive-en-Paris.wav,./stim/wavs/argentine_mismatch_declarative-broad-focus_La-maestra-vive-en-Paris.wav,./stim/wavs/castilian_mismatch_declarative-broad-focus_La-maestra-vive-en-Paris.wav,./stim/wavs/chilean_mismatch_declarative-broad-focus_La-maestra-vive-en-Paris.wav,./stim/wavs/cuban_mismatch_declarative-broad-focus_La-maestra-vive-en-Paris.wav,./stim/wavs/mexican_mismatch_declarative-broad-focus_La-maestra-vive-en-Paris.wav,./stim/wavs/peruvian_mismatch_declarative-broad-focus_La-maestra-vive-en-Paris.wav,./stim/wavs/puertorican_mismatch_declarative-broad-focus_La-maestra-vive-en-Paris.wav,,,,,,,,,,,,,,,,,,,,,,,,,,,,,,,,,,,,,,,,,,,,,,,,,,,,,,,,
,,,,,,,602c790b7597b0571b1e1472,6057c54e64b0b4e5c128b4f9,6058048af51d8575c7e71a76,United States,East coast,13 or older,no,2021-03-21_22h45.49.462,empathy_intonation_perc,2020.2.10,Win32,60,,,,,,,,,,0,peruvian,0,1,2.17141,0,14,14,32,1,33,./stim/wavs/andalusian_mismatch_declarative-broad-focus_El-bebe-comia-muy-bien.wav,./stim/wavs/argentine_mismatch_declarative-broad-focus_El-bebe-comia-muy-bien.wav,./stim/wavs/castilian_mismatch_declarative-broad-focus_El-bebe-comia-muy-bien.wav,./stim/wavs/chilean_mismatch_declarative-broad-focus_El-bebe-comia-muy-bien.wav,./stim/wavs/cuban_mismatch_declarative-broad-focus_El-bebe-comia-muy-bien.wav,./stim/wavs/mexican_mismatch_declarative-broad-focus_El-bebe-comia-muy-bien.wav,./stim/wavs/peruvian_mismatch_declarative-broad-focus_El-bebe-comia-muy-bien.wav,./stim/wavs/puertorican_mismatch_declarative-broad-focus_El-bebe-comia-muy-bien.wav,,,,,,,,,,,,,,,,,,,,,,,,,,,,,,,,,,,,,,,,,,,,,,,,,,,,,,,,
,,,,,,,602c790b7597b0571b1e1472,6057c54e64b0b4e5c128b4f9,6058048af51d8575c7e71a76,United States,East coast,13 or older,no,2021-03-21_22h45.49.462,empathy_intonation_perc,2020.2.10,Win32,60,,,,,,,,,,1,mexican,1,1,1.751855,0,15,15,62,1,63,./stim/wavs/andalusian_mismatch_interrogative-total-yn_Mi-novio-viene-del-lago.wav,./stim/wavs/argentine_mismatch_interrogative-total-yn_Mi-novio-viene-del-lago.wav,./stim/wavs/castilian_mismatch_interrogative-total-yn_Mi-novio-viene-del-lago.wav,./stim/wavs/chilean_mismatch_interrogative-total-yn_Mi-novio-viene-del-lago.wav,./stim/wavs/cuban_mismatch_interrogative-total-yn_Mi-novio-viene-del-lago.wav,./stim/wavs/mexican_mismatch_interrogative-total-yn_Mi-novio-viene-del-lago.wav,./stim/wavs/peruvian_mismatch_interrogative-total-yn_Mi-novio-viene-del-lago.wav,./stim/wavs/puertorican_mismatch_interrogative-total-yn_Mi-novio-viene-del-lago.wav,,,,,,,,,,,,,,,,,,,,,,,,,,,,,,,,,,,,,,,,,,,,,,,,,,,,,,,,
,,,,,,,602c790b7597b0571b1e1472,6057c54e64b0b4e5c128b4f9,6058048af51d8575c7e71a76,United States,East coast,13 or older,no,2021-03-21_22h45.49.462,empathy_intonation_perc,2020.2.10,Win32,60,,,,,,,,,,0,chilean,0,1,1.80007,0,16,16,44,1,45,./stim/wavs/andalusian_mismatch_declarative-narrow-focus_La-nina-lava-el-plato.wav,./stim/wavs/argentine_mismatch_declarative-narrow-focus_La-nina-lava-el-plato.wav,./stim/wavs/castilian_mismatch_declarative-narrow-focus_La-nina-lava-el-plato.wav,./stim/wavs/chilean_mismatch_declarative-narrow-focus_La-nina-lava-el-plato.wav,./stim/wavs/cuban_mismatch_declarative-narrow-focus_La-nina-lava-el-plato.wav,./stim/wavs/mexican_mismatch_declarative-narrow-focus_La-nina-lava-el-plato.wav,./stim/wavs/peruvian_mismatch_declarative-narrow-focus_La-nina-lava-el-plato.wav,./stim/wavs/puertorican_mismatch_declarative-narrow-focus_La-nina-lava-el-plato.wav,,,,,,,,,,,,,,,,,,,,,,,,,,,,,,,,,,,,,,,,,,,,,,,,,,,,,,,,
,,,,,,,602c790b7597b0571b1e1472,6057c54e64b0b4e5c128b4f9,6058048af51d8575c7e71a76,United States,East coast,13 or older,no,2021-03-21_22h45.49.462,empathy_intonation_perc,2020.2.10,Win32,60,,,,,,,,,,0,mexican,0,1,1.60791,0,17,17,41,1,42,./stim/wavs/andalusian_mismatch_declarative-narrow-focus_El-hombre-mira-la-luna.wav,./stim/wavs/argentine_mismatch_declarative-narrow-focus_El-hombre-mira-la-luna.wav,./stim/wavs/castilian_mismatch_declarative-narrow-focus_El-hombre-mira-la-luna.wav,./stim/wavs/chilean_mismatch_declarative-narrow-focus_El-hombre-mira-la-luna.wav,./stim/wavs/cuban_mismatch_declarative-narrow-focus_El-hombre-mira-la-luna.wav,./stim/wavs/mexican_mismatch_declarative-narrow-focus_El-hombre-mira-la-luna.wav,./stim/wavs/peruvian_mismatch_declarative-narrow-focus_El-hombre-mira-la-luna.wav,./stim/wavs/puertorican_mismatch_declarative-narrow-focus_El-hombre-mira-la-luna.wav,,,,,,,,,,,,,,,,,,,,,,,,,,,,,,,,,,,,,,,,,,,,,,,,,,,,,,,,
,,,,,,,602c790b7597b0571b1e1472,6057c54e64b0b4e5c128b4f9,6058048af51d8575c7e71a76,United States,East coast,13 or older,no,2021-03-21_22h45.49.462,empathy_intonation_perc,2020.2.10,Win32,60,,,,,,,,,,0,andalusian,0,1,1.818315,0,18,18,38,1,39,./stim/wavs/andalusian_mismatch_declarative-broad-focus_Mi-novio-viene-del-lago.wav,./stim/wavs/argentine_mismatch_declarative-broad-focus_Mi-novio-viene-del-lago.wav,./stim/wavs/castilian_mismatch_declarative-broad-focus_Mi-novio-viene-del-lago.wav,./stim/wavs/chilean_mismatch_declarative-broad-focus_Mi-novio-viene-del-lago.wav,./stim/wavs/cuban_mismatch_declarative-broad-focus_Mi-novio-viene-del-lago.wav,./stim/wavs/mexican_mismatch_declarative-broad-focus_Mi-novio-viene-del-lago.wav,./stim/wavs/peruvian_mismatch_declarative-broad-focus_Mi-novio-viene-del-lago.wav,./stim/wavs/puertorican_mismatch_declarative-broad-focus_Mi-novio-viene-del-lago.wav,,,,,,,,,,,,,,,,,,,,,,,,,,,,,,,,,,,,,,,,,,,,,,,,,,,,,,,,
,,,,,,,602c790b7597b0571b1e1472,6057c54e64b0b4e5c128b4f9,6058048af51d8575c7e71a76,United States,East coast,13 or older,no,2021-03-21_22h45.49.462,empathy_intonation_perc,2020.2.10,Win32,60,,,,,,,,,,1,peruvian,0,0,1.648645,0,19,19,23,1,24,./stim/wavs/andalusian_match_interrogative-partial-wh_Por-que-iba-a-Bolivia.wav,./stim/wavs/argentine_match_interrogative-partial-wh_Por-que-iba-a-Bolivia.wav,./stim/wavs/castilian_match_interrogative-partial-wh_Por-que-iba-a-Bolivia.wav,./stim/wavs/chilean_match_interrogative-partial-wh_Por-que-iba-a-Bolivia.wav,./stim/wavs/cuban_match_interrogative-partial-wh_Por-que-iba-a-Bolivia.wav,./stim/wavs/mexican_match_interrogative-partial-wh_Por-que-iba-a-Bolivia.wav,./stim/wavs/peruvian_match_interrogative-partial-wh_Por-que-iba-a-Bolivia.wav,./stim/wavs/puertorican_match_interrogative-partial-wh_Por-que-iba-a-Bolivia.wav,,,,,,,,,,,,,,,,,,,,,,,,,,,,,,,,,,,,,,,,,,,,,,,,,,,,,,,,
,,,,,,,602c790b7597b0571b1e1472,6057c54e64b0b4e5c128b4f9,6058048af51d8575c7e71a76,United States,East coast,13 or older,no,2021-03-21_22h45.49.462,empathy_intonation_perc,2020.2.10,Win32,60,,,,,,,,,,1,chilean,1,1,1.491905,0,20,20,29,1,30,./stim/wavs/andalusian_match_interrogative-total-yn_Maria-bebe-el-vino.wav,./stim/wavs/argentine_match_interrogative-total-yn_Maria-bebe-el-vino.wav,./stim/wavs/castilian_match_interrogative-total-yn_Maria-bebe-el-vino.wav,./stim/wavs/chilean_match_interrogative-total-yn_Maria-bebe-el-vino.wav,./stim/wavs/cuban_match_interrogative-total-yn_Maria-bebe-el-vino.wav,./stim/wavs/mexican_match_interrogative-total-yn_Maria-bebe-el-vino.wav,./stim/wavs/peruvian_match_interrogative-total-yn_Maria-bebe-el-vino.wav,./stim/wavs/puertorican_match_interrogative-total-yn_Maria-bebe-el-vino.wav,,,,,,,,,,,,,,,,,,,,,,,,,,,,,,,,,,,,,,,,,,,,,,,,,,,,,,,,
,,,,,,,602c790b7597b0571b1e1472,6057c54e64b0b4e5c128b4f9,6058048af51d8575c7e71a76,United States,East coast,13 or older,no,2021-03-21_22h45.49.462,empathy_intonation_perc,2020.2.10,Win32,60,,,,,,,,,,0,mexican,1,0,2.97004,0,21,21,2,1,3,./stim/wavs/andalusian_match_declarative-broad-focus_David-leia-el-libro.wav,./stim/wavs/argentine_match_declarative-broad-focus_David-leia-el-libro.wav,./stim/wavs/castilian_match_declarative-broad-focus_David-leia-el-libro.wav,./stim/wavs/chilean_match_declarative-broad-focus_David-leia-el-libro.wav,./stim/wavs/cuban_match_declarative-broad-focus_David-leia-el-libro.wav,./stim/wavs/mexican_match_declarative-broad-focus_David-leia-el-libro.wav,./stim/wavs/peruvian_match_declarative-broad-focus_David-leia-el-libro.wav,./stim/wavs/puertorican_match_declarative-broad-focus_David-leia-el-libro.wav,,,,,,,,,,,,,,,,,,,,,,,,,,,,,,,,,,,,,,,,,,,,,,,,,,,,,,,,
,,,,,,,602c790b7597b0571b1e1472,6057c54e64b0b4e5c128b4f9,6058048af51d8575c7e71a76,United States,East coast,13 or older,no,2021-03-21_22h45.49.462,empathy_intonation_perc,2020.2.10,Win32,60,,,,,,,,,,1,chilean,1,1,1.537285,0,22,22,61,1,62,./stim/wavs/andalusian_mismatch_interrogative-total-yn_Mi-madre-come-la-fruta.wav,./stim/wavs/argentine_mismatch_interrogative-total-yn_Mi-madre-come-la-fruta.wav,./stim/wavs/castilian_mismatch_interrogative-total-yn_Mi-madre-come-la-fruta.wav,./stim/wavs/chilean_mismatch_interrogative-total-yn_Mi-madre-come-la-fruta.wav,./stim/wavs/cuban_mismatch_interrogative-total-yn_Mi-madre-come-la-fruta.wav,./stim/wavs/mexican_mismatch_interrogative-total-yn_Mi-madre-come-la-fruta.wav,./stim/wavs/peruvian_mismatch_interrogative-total-yn_Mi-madre-come-la-fruta.wav,./stim/wavs/puertorican_mismatch_interrogative-total-yn_Mi-madre-come-la-fruta.wav,,,,,,,,,,,,,,,,,,,,,,,,,,,,,,,,,,,,,,,,,,,,,,,,,,,,,,,,
,,,,,,,602c790b7597b0571b1e1472,6057c54e64b0b4e5c128b4f9,6058048af51d8575c7e71a76,United States,East coast,13 or older,no,2021-03-21_22h45.49.462,empathy_intonation_perc,2020.2.10,Win32,60,,,,,,,,,,1,andalusian,1,1,2.70444,0,23,23,31,1,32,./stim/wavs/andalusian_match_interrogative-total-yn_Marta-abre-el-regalo.wav,./stim/wavs/argentine_match_interrogative-total-yn_Marta-abre-el-regalo.wav,./stim/wavs/castilian_match_interrogative-total-yn_Marta-abre-el-regalo.wav,./stim/wavs/chilean_match_interrogative-total-yn_Marta-abre-el-regalo.wav,./stim/wavs/cuban_match_interrogative-total-yn_Marta-abre-el-regalo.wav,./stim/wavs/mexican_match_interrogative-total-yn_Marta-abre-el-regalo.wav,./stim/wavs/peruvian_match_interrogative-total-yn_Marta-abre-el-regalo.wav,./stim/wavs/puertorican_match_interrogative-total-yn_Marta-abre-el-regalo.wav,,,,,,,,,,,,,,,,,,,,,,,,,,,,,,,,,,,,,,,,,,,,,,,,,,,,,,,,
,,,,,,,602c790b7597b0571b1e1472,6057c54e64b0b4e5c128b4f9,6058048af51d8575c7e71a76,United States,East coast,13 or older,no,2021-03-21_22h45.49.462,empathy_intonation_perc,2020.2.10,Win32,60,,,,,,,,,,1,andalusian,1,1,1.51742,0,24,24,51,1,52,./stim/wavs/andalusian_mismatch_interrogative-partial-wh_Por-que-desayuna-muy-bien.wav,./stim/wavs/argentine_mismatch_interrogative-partial-wh_Por-que-desayuna-muy-bien.wav,./stim/wavs/castilian_mismatch_interrogative-partial-wh_Por-que-desayuna-muy-bien.wav,./stim/wavs/chilean_mismatch_interrogative-partial-wh_Por-que-desayuna-muy-bien.wav,./stim/wavs/cuban_mismatch_interrogative-partial-wh_Por-que-desayuna-muy-bien.wav,./stim/wavs/mexican_mismatch_interrogative-partial-wh_Por-que-desayuna-muy-bien.wav,./stim/wavs/peruvian_mismatch_interrogative-partial-wh_Por-que-desayuna-muy-bien.wav,./stim/wavs/puertorican_mismatch_interrogative-partial-wh_Por-que-desayuna-muy-bien.wav,,,,,,,,,,,,,,,,,,,,,,,,,,,,,,,,,,,,,,,,,,,,,,,,,,,,,,,,
,,,,,,,602c790b7597b0571b1e1472,6057c54e64b0b4e5c128b4f9,6058048af51d8575c7e71a76,United States,East coast,13 or older,no,2021-03-21_22h45.49.462,empathy_intonation_perc,2020.2.10,Win32,60,,,,,,,,,,1,mexican,1,1,1.897015,0,25,25,24,1,25,./stim/wavs/andalusian_match_interrogative-total-yn_Ana-lleva-el-abrigo.wav,./stim/wavs/argentine_match_interrogative-total-yn_Ana-lleva-el-abrigo.wav,./stim/wavs/castilian_match_interrogative-total-yn_Ana-lleva-el-abrigo.wav,./stim/wavs/chilean_match_interrogative-total-yn_Ana-lleva-el-abrigo.wav,./stim/wavs/cuban_match_interrogative-total-yn_Ana-lleva-el-abrigo.wav,./stim/wavs/mexican_match_interrogative-total-yn_Ana-lleva-el-abrigo.wav,./stim/wavs/peruvian_match_interrogative-total-yn_Ana-lleva-el-abrigo.wav,./stim/wavs/puertorican_match_interrogative-total-yn_Ana-lleva-el-abrigo.wav,,,,,,,,,,,,,,,,,,,,,,,,,,,,,,,,,,,,,,,,,,,,,,,,,,,,,,,,
,,,,,,,602c790b7597b0571b1e1472,6057c54e64b0b4e5c128b4f9,6058048af51d8575c7e71a76,United States,East coast,13 or older,no,2021-03-21_22h45.49.462,empathy_intonation_perc,2020.2.10,Win32,60,,,,,,,,,,1,andalusian,0,0,2.04468,0,26,26,20,1,21,./stim/wavs/andalusian_match_interrogative-partial-wh_Por-que-abre-el-regalo.wav,./stim/wavs/argentine_match_interrogative-partial-wh_Por-que-abre-el-regalo.wav,./stim/wavs/castilian_match_interrogative-partial-wh_Por-que-abre-el-regalo.wav,./stim/wavs/chilean_match_interrogative-partial-wh_Por-que-abre-el-regalo.wav,./stim/wavs/cuban_match_interrogative-partial-wh_Por-que-abre-el-regalo.wav,./stim/wavs/mexican_match_interrogative-partial-wh_Por-que-abre-el-regalo.wav,./stim/wavs/peruvian_match_interrogative-partial-wh_Por-que-abre-el-regalo.wav,./stim/wavs/puertorican_match_interrogative-partial-wh_Por-que-abre-el-regalo.wav,,,,,,,,,,,,,,,,,,,,,,,,,,,,,,,,,,,,,,,,,,,,,,,,,,,,,,,,
,,,,,,,602c790b7597b0571b1e1472,6057c54e64b0b4e5c128b4f9,6058048af51d8575c7e71a76,United States,East coast,13 or older,no,2021-03-21_22h45.49.462,empathy_intonation_perc,2020.2.10,Win32,60,,,,,,,,,,1,puertorican,0,0,1.89698,0,27,27,28,1,29,./stim/wavs/andalusian_match_interrogative-total-yn_Manuela-vende-el-carro.wav,./stim/wavs/argentine_match_interrogative-total-yn_Manuela-vende-el-carro.wav,./stim/wavs/castilian_match_interrogative-total-yn_Manuela-vende-el-carro.wav,./stim/wavs/chilean_match_interrogative-total-yn_Manuela-vende-el-carro.wav,./stim/wavs/cuban_match_interrogative-total-yn_Manuela-vende-el-carro.wav,./stim/wavs/mexican_match_interrogative-total-yn_Manuela-vende-el-carro.wav,./stim/wavs/peruvian_match_interrogative-total-yn_Manuela-vende-el-carro.wav,./stim/wavs/puertorican_match_interrogative-total-yn_Manuela-vende-el-carro.wav,,,,,,,,,,,,,,,,,,,,,,,,,,,,,,,,,,,,,,,,,,,,,,,,,,,,,,,,
,,,,,,,602c790b7597b0571b1e1472,6057c54e64b0b4e5c128b4f9,6058048af51d8575c7e71a76,United States,East coast,13 or older,no,2021-03-21_22h45.49.462,empathy_intonation_perc,2020.2.10,Win32,60,,,,,,,,,,0,cuban,1,0,1.92742,0,28,28,9,1,10,./stim/wavs/andalusian_match_declarative-narrow-focus_Daniel-iba-a-Bolivia.wav,./stim/wavs/argentine_match_declarative-narrow-focus_Daniel-iba-a-Bolivia.wav,./stim/wavs/castilian_match_declarative-narrow-focus_Daniel-iba-a-Bolivia.wav,./stim/wavs/chilean_match_declarative-narrow-focus_Daniel-iba-a-Bolivia.wav,./stim/wavs/cuban_match_declarative-narrow-focus_Daniel-iba-a-Bolivia.wav,./stim/wavs/mexican_match_declarative-narrow-focus_Daniel-iba-a-Bolivia.wav,./stim/wavs/peruvian_match_declarative-narrow-focus_Daniel-iba-a-Bolivia.wav,./stim/wavs/puertorican_match_declarative-narrow-focus_Daniel-iba-a-Bolivia.wav,,,,,,,,,,,,,,,,,,,,,,,,,,,,,,,,,,,,,,,,,,,,,,,,,,,,,,,,
,,,,,,,602c790b7597b0571b1e1472,6057c54e64b0b4e5c128b4f9,6058048af51d8575c7e71a76,United States,East coast,13 or older,no,2021-03-21_22h45.49.462,empathy_intonation_perc,2020.2.10,Win32,60,,,,,,,,,,1,peruvian,1,1,1.67896,0,29,29,27,1,28,./stim/wavs/andalusian_match_interrogative-total-yn_Emilio-ama-la-marcha.wav,./stim/wavs/argentine_match_interrogative-total-yn_Emilio-ama-la-marcha.wav,./stim/wavs/castilian_match_interrogative-total-yn_Emilio-ama-la-marcha.wav,./stim/wavs/chilean_match_interrogative-total-yn_Emilio-ama-la-marcha.wav,./stim/wavs/cuban_match_interrogative-total-yn_Emilio-ama-la-marcha.wav,./stim/wavs/mexican_match_interrogative-total-yn_Emilio-ama-la-marcha.wav,./stim/wavs/peruvian_match_interrogative-total-yn_Emilio-ama-la-marcha.wav,./stim/wavs/puertorican_match_interrogative-total-yn_Emilio-ama-la-marcha.wav,,,,,,,,,,,,,,,,,,,,,,,,,,,,,,,,,,,,,,,,,,,,,,,,,,,,,,,,
,,,,,,,602c790b7597b0571b1e1472,6057c54e64b0b4e5c128b4f9,6058048af51d8575c7e71a76,United States,East coast,13 or older,no,2021-03-21_22h45.49.462,empathy_intonation_perc,2020.2.10,Win32,60,,,,,,,,,,1,peruvian,0,0,2.037125,0,30,30,54,1,55,./stim/wavs/andalusian_mismatch_interrogative-partial-wh_Por-que-venia-del-lago.wav,./stim/wavs/argentine_mismatch_interrogative-partial-wh_Por-que-venia-del-lago.wav,./stim/wavs/castilian_mismatch_interrogative-partial-wh_Por-que-venia-del-lago.wav,./stim/wavs/chilean_mismatch_interrogative-partial-wh_Por-que-venia-del-lago.wav,./stim/wavs/cuban_mismatch_interrogative-partial-wh_Por-que-venia-del-lago.wav,./stim/wavs/mexican_mismatch_interrogative-partial-wh_Por-que-venia-del-lago.wav,./stim/wavs/peruvian_mismatch_interrogative-partial-wh_Por-que-venia-del-lago.wav,./stim/wavs/puertorican_mismatch_interrogative-partial-wh_Por-que-venia-del-lago.wav,,,,,,,,,,,,,,,,,,,,,,,,,,,,,,,,,,,,,,,,,,,,,,,,,,,,,,,,
,,,,,,,602c790b7597b0571b1e1472,6057c54e64b0b4e5c128b4f9,6058048af51d8575c7e71a76,United States,East coast,13 or older,no,2021-03-21_22h45.49.462,empathy_intonation_perc,2020.2.10,Win32,60,,,,,,,,,,0,peruvian,0,1,2.30925,0,31,31,6,1,7,./stim/wavs/andalusian_match_declarative-broad-focus_Mariano-habla-del-tiempo.wav,./stim/wavs/argentine_match_declarative-broad-focus_Mariano-habla-del-tiempo.wav,./stim/wavs/castilian_match_declarative-broad-focus_Mariano-habla-del-tiempo.wav,./stim/wavs/chilean_match_declarative-broad-focus_Mariano-habla-del-tiempo.wav,./stim/wavs/cuban_match_declarative-broad-focus_Mariano-habla-del-tiempo.wav,./stim/wavs/mexican_match_declarative-broad-focus_Mariano-habla-del-tiempo.wav,./stim/wavs/peruvian_match_declarative-broad-focus_Mariano-habla-del-tiempo.wav,./stim/wavs/puertorican_match_declarative-broad-focus_Mariano-habla-del-tiempo.wav,,,,,,,,,,,,,,,,,,,,,,,,,,,,,,,,,,,,,,,,,,,,,,,,,,,,,,,,
,,,,,,,602c790b7597b0571b1e1472,6057c54e64b0b4e5c128b4f9,6058048af51d8575c7e71a76,United States,East coast,13 or older,no,2021-03-21_22h45.49.462,empathy_intonation_perc,2020.2.10,Win32,60,,,,,,,,,,0,andalusian,0,1,2.15316,0,32,32,1,1,2,./stim/wavs/andalusian_match_declarative-broad-focus_Daniel-iba-a-Bolivia.wav,./stim/wavs/argentine_match_declarative-broad-focus_Daniel-iba-a-Bolivia.wav,./stim/wavs/castilian_match_declarative-broad-focus_Daniel-iba-a-Bolivia.wav,./stim/wavs/chilean_match_declarative-broad-focus_Daniel-iba-a-Bolivia.wav,./stim/wavs/cuban_match_declarative-broad-focus_Daniel-iba-a-Bolivia.wav,./stim/wavs/mexican_match_declarative-broad-focus_Daniel-iba-a-Bolivia.wav,./stim/wavs/peruvian_match_declarative-broad-focus_Daniel-iba-a-Bolivia.wav,./stim/wavs/puertorican_match_declarative-broad-focus_Daniel-iba-a-Bolivia.wav,,,,,,,,,,,,,,,,,,,,,,,,,,,,,,,,,,,,,,,,,,,,,,,,,,,,,,,,
,,,,,,,602c790b7597b0571b1e1472,6057c54e64b0b4e5c128b4f9,6058048af51d8575c7e71a76,United States,East coast,13 or older,no,2021-03-21_22h45.49.462,empathy_intonation_perc,2020.2.10,Win32,60,,,,,,,,,,1,cuban,0,0,1.66526,0,33,33,22,1,23,./stim/wavs/andalusian_match_interrogative-partial-wh_Por-que-hablaba-del-agua.wav,./stim/wavs/argentine_match_interrogative-partial-wh_Por-que-hablaba-del-agua.wav,./stim/wavs/castilian_match_interrogative-partial-wh_Por-que-hablaba-del-agua.wav,./stim/wavs/chilean_match_interrogative-partial-wh_Por-que-hablaba-del-agua.wav,./stim/wavs/cuban_match_interrogative-partial-wh_Por-que-hablaba-del-agua.wav,./stim/wavs/mexican_match_interrogative-partial-wh_Por-que-hablaba-del-agua.wav,./stim/wavs/peruvian_match_interrogative-partial-wh_Por-que-hablaba-del-agua.wav,./stim/wavs/puertorican_match_interrogative-partial-wh_Por-que-hablaba-del-agua.wav,,,,,,,,,,,,,,,,,,,,,,,,,,,,,,,,,,,,,,,,,,,,,,,,,,,,,,,,
,,,,,,,602c790b7597b0571b1e1472,6057c54e64b0b4e5c128b4f9,6058048af51d8575c7e71a76,United States,East coast,13 or older,no,2021-03-21_22h45.49.462,empathy_intonation_perc,2020.2.10,Win32,60,,,,,,,,,,0,cuban,0,1,1.547785,0,34,34,8,1,9,./stim/wavs/andalusian_match_declarative-narrow-focus_Ana-lleva-el-abrigo.wav,./stim/wavs/argentine_match_declarative-narrow-focus_Ana-lleva-el-abrigo.wav,./stim/wavs/castilian_match_declarative-narrow-focus_Ana-lleva-el-abrigo.wav,./stim/wavs/chilean_match_declarative-narrow-focus_Ana-lleva-el-abrigo.wav,./stim/wavs/cuban_match_declarative-narrow-focus_Ana-lleva-el-abrigo.wav,./stim/wavs/mexican_match_declarative-narrow-focus_Ana-lleva-el-abrigo.wav,./stim/wavs/peruvian_match_declarative-narrow-focus_Ana-lleva-el-abrigo.wav,./stim/wavs/puertorican_match_declarative-narrow-focus_Ana-lleva-el-abrigo.wav,,,,,,,,,,,,,,,,,,,,,,,,,,,,,,,,,,,,,,,,,,,,,,,,,,,,,,,,
,,,,,,,602c790b7597b0571b1e1472,6057c54e64b0b4e5c128b4f9,6058048af51d8575c7e71a76,United States,East coast,13 or older,no,2021-03-21_22h45.49.462,empathy_intonation_perc,2020.2.10,Win32,60,,,,,,,,,,1,peruvian,1,1,1.551625,0,35,35,25,1,26,./stim/wavs/andalusian_match_interrogative-total-yn_Daniel-iba-a-Bolivia.wav,./stim/wavs/argentine_match_interrogative-total-yn_Daniel-iba-a-Bolivia.wav,./stim/wavs/castilian_match_interrogative-total-yn_Daniel-iba-a-Bolivia.wav,./stim/wavs/chilean_match_interrogative-total-yn_Daniel-iba-a-Bolivia.wav,./stim/wavs/cuban_match_interrogative-total-yn_Daniel-iba-a-Bolivia.wav,./stim/wavs/mexican_match_interrogative-total-yn_Daniel-iba-a-Bolivia.wav,./stim/wavs/peruvian_match_interrogative-total-yn_Daniel-iba-a-Bolivia.wav,./stim/wavs/puertorican_match_interrogative-total-yn_Daniel-iba-a-Bolivia.wav,,,,,,,,,,,,,,,,,,,,,,,,,,,,,,,,,,,,,,,,,,,,,,,,,,,,,,,,
,,,,,,,602c790b7597b0571b1e1472,6057c54e64b0b4e5c128b4f9,6058048af51d8575c7e71a76,United States,East coast,13 or older,no,2021-03-21_22h45.49.462,empathy_intonation_perc,2020.2.10,Win32,60,,,,,,,,,,1,mexican,0,0,1.760445,0,36,36,49,1,50,./stim/wavs/andalusian_mismatch_interrogative-partial-wh_Cuando-lavaba-el-plato.wav,./stim/wavs/argentine_mismatch_interrogative-partial-wh_Cuando-lavaba-el-plato.wav,./stim/wavs/castilian_mismatch_interrogative-partial-wh_Cuando-lavaba-el-plato.wav,./stim/wavs/chilean_mismatch_interrogative-partial-wh_Cuando-lavaba-el-plato.wav,./stim/wavs/cuban_mismatch_interrogative-partial-wh_Cuando-lavaba-el-plato.wav,./stim/wavs/mexican_mismatch_interrogative-partial-wh_Cuando-lavaba-el-plato.wav,./stim/wavs/peruvian_mismatch_interrogative-partial-wh_Cuando-lavaba-el-plato.wav,./stim/wavs/puertorican_mismatch_interrogative-partial-wh_Cuando-lavaba-el-plato.wav,,,,,,,,,,,,,,,,,,,,,,,,,,,,,,,,,,,,,,,,,,,,,,,,,,,,,,,,
,,,,,,,602c790b7597b0571b1e1472,6057c54e64b0b4e5c128b4f9,6058048af51d8575c7e71a76,United States,East coast,13 or older,no,2021-03-21_22h45.49.462,empathy_intonation_perc,2020.2.10,Win32,60,,,,,,,,,,0,chilean,0,1,1.69896,0,37,37,3,1,4,./stim/wavs/andalusian_match_declarative-broad-focus_Emilio-ama-la-marcha.wav,./stim/wavs/argentine_match_declarative-broad-focus_Emilio-ama-la-marcha.wav,./stim/wavs/castilian_match_declarative-broad-focus_Emilio-ama-la-marcha.wav,./stim/wavs/chilean_match_declarative-broad-focus_Emilio-ama-la-marcha.wav,./stim/wavs/cuban_match_declarative-broad-focus_Emilio-ama-la-marcha.wav,./stim/wavs/mexican_match_declarative-broad-focus_Emilio-ama-la-marcha.wav,./stim/wavs/peruvian_match_declarative-broad-focus_Emilio-ama-la-marcha.wav,./stim/wavs/puertorican_match_declarative-broad-focus_Emilio-ama-la-marcha.wav,,,,,,,,,,,,,,,,,,,,,,,,,,,,,,,,,,,,,,,,,,,,,,,,,,,,,,,,
,,,,,,,602c790b7597b0571b1e1472,6057c54e64b0b4e5c128b4f9,6058048af51d8575c7e71a76,United States,East coast,13 or older,no,2021-03-21_22h45.49.462,empathy_intonation_perc,2020.2.10,Win32,60,,,,,,,,,,0,peruvian,0,1,1.894595,0,38,38,40,1,41,./stim/wavs/andalusian_mismatch_declarative-narrow-focus_El-bebe-comia-muy-bien.wav,./stim/wavs/argentine_mismatch_declarative-narrow-focus_El-bebe-comia-muy-bien.wav,./stim/wavs/castilian_mismatch_declarative-narrow-focus_El-bebe-comia-muy-bien.wav,./stim/wavs/chilean_mismatch_declarative-narrow-focus_El-bebe-comia-muy-bien.wav,./stim/wavs/cuban_mismatch_declarative-narrow-focus_El-bebe-comia-muy-bien.wav,./stim/wavs/mexican_mismatch_declarative-narrow-focus_El-bebe-comia-muy-bien.wav,./stim/wavs/peruvian_mismatch_declarative-narrow-focus_El-bebe-comia-muy-bien.wav,./stim/wavs/puertorican_mismatch_declarative-narrow-focus_El-bebe-comia-muy-bien.wav,,,,,,,,,,,,,,,,,,,,,,,,,,,,,,,,,,,,,,,,,,,,,,,,,,,,,,,,
,,,,,,,602c790b7597b0571b1e1472,6057c54e64b0b4e5c128b4f9,6058048af51d8575c7e71a76,United States,East coast,13 or older,no,2021-03-21_22h45.49.462,empathy_intonation_perc,2020.2.10,Win32,60,,,,,,,,,,0,chilean,0,1,1.57741,0,39,39,5,1,6,./stim/wavs/andalusian_match_declarative-broad-focus_Maria-bebe-el-vino.wav,./stim/wavs/argentine_match_declarative-broad-focus_Maria-bebe-el-vino.wav,./stim/wavs/castilian_match_declarative-broad-focus_Maria-bebe-el-vino.wav,./stim/wavs/chilean_match_declarative-broad-focus_Maria-bebe-el-vino.wav,./stim/wavs/cuban_match_declarative-broad-focus_Maria-bebe-el-vino.wav,./stim/wavs/mexican_match_declarative-broad-focus_Maria-bebe-el-vino.wav,./stim/wavs/peruvian_match_declarative-broad-focus_Maria-bebe-el-vino.wav,./stim/wavs/puertorican_match_declarative-broad-focus_Maria-bebe-el-vino.wav,,,,,,,,,,,,,,,,,,,,,,,,,,,,,,,,,,,,,,,,,,,,,,,,,,,,,,,,
,,,,,,,602c790b7597b0571b1e1472,6057c54e64b0b4e5c128b4f9,6058048af51d8575c7e71a76,United States,East coast,13 or older,no,2021-03-21_22h45.49.462,empathy_intonation_perc,2020.2.10,Win32,60,,,,,,,,,,0,chilean,0,1,2.130605,0,40,40,14,1,15,./stim/wavs/andalusian_match_declarative-narrow-focus_Mariano-habla-del-tiempo.wav,./stim/wavs/argentine_match_declarative-narrow-focus_Mariano-habla-del-tiempo.wav,./stim/wavs/castilian_match_declarative-narrow-focus_Mariano-habla-del-tiempo.wav,./stim/wavs/chilean_match_declarative-narrow-focus_Mariano-habla-del-tiempo.wav,./stim/wavs/cuban_match_declarative-narrow-focus_Mariano-habla-del-tiempo.wav,./stim/wavs/mexican_match_declarative-narrow-focus_Mariano-habla-del-tiempo.wav,./stim/wavs/peruvian_match_declarative-narrow-focus_Mariano-habla-del-tiempo.wav,./stim/wavs/puertorican_match_declarative-narrow-focus_Mariano-habla-del-tiempo.wav,,,,,,,,,,,,,,,,,,,,,,,,,,,,,,,,,,,,,,,,,,,,,,,,,,,,,,,,
,,,,,,,602c790b7597b0571b1e1472,6057c54e64b0b4e5c128b4f9,6058048af51d8575c7e71a76,United States,East coast,13 or older,no,2021-03-21_22h45.49.462,empathy_intonation_perc,2020.2.10,Win32,60,,,,,,,,,,1,mexican,1,1,1.717175,0,41,41,53,1,54,./stim/wavs/andalusian_mismatch_interrogative-partial-wh_Por-que-oia-el-rio.wav,./stim/wavs/argentine_mismatch_interrogative-partial-wh_Por-que-oia-el-rio.wav,./stim/wavs/castilian_mismatch_interrogative-partial-wh_Por-que-oia-el-rio.wav,./stim/wavs/chilean_mismatch_interrogative-partial-wh_Por-que-oia-el-rio.wav,./stim/wavs/cuban_mismatch_interrogative-partial-wh_Por-que-oia-el-rio.wav,./stim/wavs/mexican_mismatch_interrogative-partial-wh_Por-que-oia-el-rio.wav,./stim/wavs/peruvian_mismatch_interrogative-partial-wh_Por-que-oia-el-rio.wav,./stim/wavs/puertorican_mismatch_interrogative-partial-wh_Por-que-oia-el-rio.wav,,,,,,,,,,,,,,,,,,,,,,,,,,,,,,,,,,,,,,,,,,,,,,,,,,,,,,,,
,,,,,,,602c790b7597b0571b1e1472,6057c54e64b0b4e5c128b4f9,6058048af51d8575c7e71a76,United States,East coast,13 or older,no,2021-03-21_22h45.49.462,empathy_intonation_perc,2020.2.10,Win32,60,,,,,,,,,,1,peruvian,1,1,1.69122,0,42,42,56,1,57,./stim/wavs/andalusian_mismatch_interrogative-total-yn_El-bebe-comia-muy-bien.wav,./stim/wavs/argentine_mismatch_interrogative-total-yn_El-bebe-comia-muy-bien.wav,./stim/wavs/castilian_mismatch_interrogative-total-yn_El-bebe-comia-muy-bien.wav,./stim/wavs/chilean_mismatch_interrogative-total-yn_El-bebe-comia-muy-bien.wav,./stim/wavs/cuban_mismatch_interrogative-total-yn_El-bebe-comia-muy-bien.wav,./stim/wavs/mexican_mismatch_interrogative-total-yn_El-bebe-comia-muy-bien.wav,./stim/wavs/peruvian_mismatch_interrogative-total-yn_El-bebe-comia-muy-bien.wav,./stim/wavs/puertorican_mismatch_interrogative-total-yn_El-bebe-comia-muy-bien.wav,,,,,,,,,,,,,,,,,,,,,,,,,,,,,,,,,,,,,,,,,,,,,,,,,,,,,,,,
,,,,,,,602c790b7597b0571b1e1472,6057c54e64b0b4e5c128b4f9,6058048af51d8575c7e71a76,United States,East coast,13 or older,no,2021-03-21_22h45.49.462,empathy_intonation_perc,2020.2.10,Win32,60,,,,,,,,,,0,andalusian,0,1,1.9967,0,43,43,13,1,14,./stim/wavs/andalusian_match_declarative-narrow-focus_Maria-bebe-el-vino.wav,./stim/wavs/argentine_match_declarative-narrow-focus_Maria-bebe-el-vino.wav,./stim/wavs/castilian_match_declarative-narrow-focus_Maria-bebe-el-vino.wav,./stim/wavs/chilean_match_declarative-narrow-focus_Maria-bebe-el-vino.wav,./stim/wavs/cuban_match_declarative-narrow-focus_Maria-bebe-el-vino.wav,./stim/wavs/mexican_match_declarative-narrow-focus_Maria-bebe-el-vino.wav,./stim/wavs/peruvian_match_declarative-narrow-focus_Maria-bebe-el-vino.wav,./stim/wavs/puertorican_match_declarative-narrow-focus_Maria-bebe-el-vino.wav,,,,,,,,,,,,,,,,,,,,,,,,,,,,,,,,,,,,,,,,,,,,,,,,,,,,,,,,
,,,,,,,602c790b7597b0571b1e1472,6057c54e64b0b4e5c128b4f9,6058048af51d8575c7e71a76,United States,East coast,13 or older,no,2021-03-21_22h45.49.462,empathy_intonation_perc,2020.2.10,Win32,60,,,,,,,,,,0,puertorican,0,1,1.492015,0,44,44,39,1,40,./stim/wavs/andalusian_mismatch_declarative-broad-focus_Mi-tia-odia-la-lluvia.wav,./stim/wavs/argentine_mismatch_declarative-broad-focus_Mi-tia-odia-la-lluvia.wav,./stim/wavs/castilian_mismatch_declarative-broad-focus_Mi-tia-odia-la-lluvia.wav,./stim/wavs/chilean_mismatch_declarative-broad-focus_Mi-tia-odia-la-lluvia.wav,./stim/wavs/cuban_mismatch_declarative-broad-focus_Mi-tia-odia-la-lluvia.wav,./stim/wavs/mexican_mismatch_declarative-broad-focus_Mi-tia-odia-la-lluvia.wav,./stim/wavs/peruvian_mismatch_declarative-broad-focus_Mi-tia-odia-la-lluvia.wav,./stim/wavs/puertorican_mismatch_declarative-broad-focus_Mi-tia-odia-la-lluvia.wav,,,,,,,,,,,,,,,,,,,,,,,,,,,,,,,,,,,,,,,,,,,,,,,,,,,,,,,,
,,,,,,,602c790b7597b0571b1e1472,6057c54e64b0b4e5c128b4f9,6058048af51d8575c7e71a76,United States,East coast,13 or older,no,2021-03-21_22h45.49.462,empathy_intonation_perc,2020.2.10,Win32,60,,,,,,,,,,0,peruvian,0,1,1.857965,0,45,45,37,1,38,./stim/wavs/andalusian_mismatch_declarative-broad-focus_Mi-madre-come-la-fruta.wav,./stim/wavs/argentine_mismatch_declarative-broad-focus_Mi-madre-come-la-fruta.wav,./stim/wavs/castilian_mismatch_declarative-broad-focus_Mi-madre-come-la-fruta.wav,./stim/wavs/chilean_mismatch_declarative-broad-focus_Mi-madre-come-la-fruta.wav,./stim/wavs/cuban_mismatch_declarative-broad-focus_Mi-madre-come-la-fruta.wav,./stim/wavs/mexican_mismatch_declarative-broad-focus_Mi-madre-come-la-fruta.wav,./stim/wavs/peruvian_mismatch_declarative-broad-focus_Mi-madre-come-la-fruta.wav,./stim/wavs/puertorican_mismatch_declarative-broad-focus_Mi-madre-come-la-fruta.wav,,,,,,,,,,,,,,,,,,,,,,,,,,,,,,,,,,,,,,,,,,,,,,,,,,,,,,,,
,,,,,,,602c790b7597b0571b1e1472,6057c54e64b0b4e5c128b4f9,6058048af51d8575c7e71a76,United States,East coast,13 or older,no,2021-03-21_22h45.49.462,empathy_intonation_perc,2020.2.10,Win32,60,,,,,,,,,,0,cuban,0,1,1.51544,0,46,46,42,1,43,./stim/wavs/andalusian_mismatch_declarative-narrow-focus_El-nino-oye-el-rio.wav,./stim/wavs/argentine_mismatch_declarative-narrow-focus_El-nino-oye-el-rio.wav,./stim/wavs/castilian_mismatch_declarative-narrow-focus_El-nino-oye-el-rio.wav,./stim/wavs/chilean_mismatch_declarative-narrow-focus_El-nino-oye-el-rio.wav,./stim/wavs/cuban_mismatch_declarative-narrow-focus_El-nino-oye-el-rio.wav,./stim/wavs/mexican_mismatch_declarative-narrow-focus_El-nino-oye-el-rio.wav,./stim/wavs/peruvian_mismatch_declarative-narrow-focus_El-nino-oye-el-rio.wav,./stim/wavs/puertorican_mismatch_declarative-narrow-focus_El-nino-oye-el-rio.wav,,,,,,,,,,,,,,,,,,,,,,,,,,,,,,,,,,,,,,,,,,,,,,,,,,,,,,,,
,,,,,,,602c790b7597b0571b1e1472,6057c54e64b0b4e5c128b4f9,6058048af51d8575c7e71a76,United States,East coast,13 or older,no,2021-03-21_22h45.49.462,empathy_intonation_perc,2020.2.10,Win32,60,,,,,,,,,,0,argentine,0,1,1.497295,0,47,47,36,1,37,./stim/wavs/andalusian_mismatch_declarative-broad-focus_La-nina-lava-el-plato.wav,./stim/wavs/argentine_mismatch_declarative-broad-focus_La-nina-lava-el-plato.wav,./stim/wavs/castilian_mismatch_declarative-broad-focus_La-nina-lava-el-plato.wav,./stim/wavs/chilean_mismatch_declarative-broad-focus_La-nina-lava-el-plato.wav,./stim/wavs/cuban_mismatch_declarative-broad-focus_La-nina-lava-el-plato.wav,./stim/wavs/mexican_mismatch_declarative-broad-focus_La-nina-lava-el-plato.wav,./stim/wavs/peruvian_mismatch_declarative-broad-focus_La-nina-lava-el-plato.wav,./stim/wavs/puertorican_mismatch_declarative-broad-focus_La-nina-lava-el-plato.wav,,,,,,,,,,,,,,,,,,,,,,,,,,,,,,,,,,,,,,,,,,,,,,,,,,,,,,,,
,,,,,,,602c790b7597b0571b1e1472,6057c54e64b0b4e5c128b4f9,6058048af51d8575c7e71a76,United States,East coast,13 or older,no,2021-03-21_22h45.49.462,empathy_intonation_perc,2020.2.10,Win32,60,,,,,,,,,,0,castilian,0,1,1.99988,0,48,48,4,1,5,./stim/wavs/andalusian_match_declarative-broad-focus_Manuela-vende-el-carro.wav,./stim/wavs/argentine_match_declarative-broad-focus_Manuela-vende-el-carro.wav,./stim/wavs/castilian_match_declarative-broad-focus_Manuela-vende-el-carro.wav,./stim/wavs/chilean_match_declarative-broad-focus_Manuela-vende-el-carro.wav,./stim/wavs/cuban_match_declarative-broad-focus_Manuela-vende-el-carro.wav,./stim/wavs/mexican_match_declarative-broad-focus_Manuela-vende-el-carro.wav,./stim/wavs/peruvian_match_declarative-broad-focus_Manuela-vende-el-carro.wav,./stim/wavs/puertorican_match_declarative-broad-focus_Manuela-vende-el-carro.wav,,,,,,,,,,,,,,,,,,,,,,,,,,,,,,,,,,,,,,,,,,,,,,,,,,,,,,,,
,,,,,,,602c790b7597b0571b1e1472,6057c54e64b0b4e5c128b4f9,6058048af51d8575c7e71a76,United States,East coast,13 or older,no,2021-03-21_22h45.49.462,empathy_intonation_perc,2020.2.10,Win32,60,,,,,,,,,,0,puertorican,0,1,1.61944,0,49,49,46,1,47,./stim/wavs/andalusian_mismatch_declarative-narrow-focus_Mi-novio-viene-del-lago.wav,./stim/wavs/argentine_mismatch_declarative-narrow-focus_Mi-novio-viene-del-lago.wav,./stim/wavs/castilian_mismatch_declarative-narrow-focus_Mi-novio-viene-del-lago.wav,./stim/wavs/chilean_mismatch_declarative-narrow-focus_Mi-novio-viene-del-lago.wav,./stim/wavs/cuban_mismatch_declarative-narrow-focus_Mi-novio-viene-del-lago.wav,./stim/wavs/mexican_mismatch_declarative-narrow-focus_Mi-novio-viene-del-lago.wav,./stim/wavs/peruvian_mismatch_declarative-narrow-focus_Mi-novio-viene-del-lago.wav,./stim/wavs/puertorican_mismatch_declarative-narrow-focus_Mi-novio-viene-del-lago.wav,,,,,,,,,,,,,,,,,,,,,,,,,,,,,,,,,,,,,,,,,,,,,,,,,,,,,,,,
,,,,,,,602c790b7597b0571b1e1472,6057c54e64b0b4e5c128b4f9,6058048af51d8575c7e71a76,United States,East coast,13 or older,no,2021-03-21_22h45.49.462,empathy_intonation_perc,2020.2.10,Win32,60,,,,,,,,,,1,andalusian,1,1,1.84258,0,50,50,30,1,31,./stim/wavs/andalusian_match_interrogative-total-yn_Mariano-habla-del-tiempo.wav,./stim/wavs/argentine_match_interrogative-total-yn_Mariano-habla-del-tiempo.wav,./stim/wavs/castilian_match_interrogative-total-yn_Mariano-habla-del-tiempo.wav,./stim/wavs/chilean_match_interrogative-total-yn_Mariano-habla-del-tiempo.wav,./stim/wavs/cuban_match_interrogative-total-yn_Mariano-habla-del-tiempo.wav,./stim/wavs/mexican_match_interrogative-total-yn_Mariano-habla-del-tiempo.wav,./stim/wavs/peruvian_match_interrogative-total-yn_Mariano-habla-del-tiempo.wav,./stim/wavs/puertorican_match_interrogative-total-yn_Mariano-habla-del-tiempo.wav,,,,,,,,,,,,,,,,,,,,,,,,,,,,,,,,,,,,,,,,,,,,,,,,,,,,,,,,
,,,,,,,602c790b7597b0571b1e1472,6057c54e64b0b4e5c128b4f9,6058048af51d8575c7e71a76,United States,East coast,13 or older,no,2021-03-21_22h45.49.462,empathy_intonation_perc,2020.2.10,Win32,60,,,,,,,,,,1,chilean,0,0,1.8246,0,51,51,59,1,60,./stim/wavs/andalusian_mismatch_interrogative-total-yn_La-maestra-vive-en-Paris.wav,./stim/wavs/argentine_mismatch_interrogative-total-yn_La-maestra-vive-en-Paris.wav,./stim/wavs/castilian_mismatch_interrogative-total-yn_La-maestra-vive-en-Paris.wav,./stim/wavs/chilean_mismatch_interrogative-total-yn_La-maestra-vive-en-Paris.wav,./stim/wavs/cuban_mismatch_interrogative-total-yn_La-maestra-vive-en-Paris.wav,./stim/wavs/mexican_mismatch_interrogative-total-yn_La-maestra-vive-en-Paris.wav,./stim/wavs/peruvian_mismatch_interrogative-total-yn_La-maestra-vive-en-Paris.wav,./stim/wavs/puertorican_mismatch_interrogative-total-yn_La-maestra-vive-en-Paris.wav,,,,,,,,,,,,,,,,,,,,,,,,,,,,,,,,,,,,,,,,,,,,,,,,,,,,,,,,
,,,,,,,602c790b7597b0571b1e1472,6057c54e64b0b4e5c128b4f9,6058048af51d8575c7e71a76,United States,East coast,13 or older,no,2021-03-21_22h45.49.462,empathy_intonation_perc,2020.2.10,Win32,60,,,,,,,,,,0,castilian,0,1,1.674025,0,52,52,11,1,12,./stim/wavs/andalusian_match_declarative-narrow-focus_Emilio-ama-la-marcha.wav,./stim/wavs/argentine_match_declarative-narrow-focus_Emilio-ama-la-marcha.wav,./stim/wavs/castilian_match_declarative-narrow-focus_Emilio-ama-la-marcha.wav,./stim/wavs/chilean_match_declarative-narrow-focus_Emilio-ama-la-marcha.wav,./stim/wavs/cuban_match_declarative-narrow-focus_Emilio-ama-la-marcha.wav,./stim/wavs/mexican_match_declarative-narrow-focus_Emilio-ama-la-marcha.wav,./stim/wavs/peruvian_match_declarative-narrow-focus_Emilio-ama-la-marcha.wav,./stim/wavs/puertorican_match_declarative-narrow-focus_Emilio-ama-la-marcha.wav,,,,,,,,,,,,,,,,,,,,,,,,,,,,,,,,,,,,,,,,,,,,,,,,,,,,,,,,
,,,,,,,602c790b7597b0571b1e1472,6057c54e64b0b4e5c128b4f9,6058048af51d8575c7e71a76,United States,East coast,13 or older,no,2021-03-21_22h45.49.462,empathy_intonation_perc,2020.2.10,Win32,60,,,,,,,,,,0,puertorican,0,1,1.709285,0,53,53,43,1,44,./stim/wavs/andalusian_mismatch_declarative-narrow-focus_La-maestra-vive-en-Paris.wav,./stim/wavs/argentine_mismatch_declarative-narrow-focus_La-maestra-vive-en-Paris.wav,./stim/wavs/castilian_mismatch_declarative-narrow-focus_La-maestra-vive-en-Paris.wav,./stim/wavs/chilean_mismatch_declarative-narrow-focus_La-maestra-vive-en-Paris.wav,./stim/wavs/cuban_mismatch_declarative-narrow-focus_La-maestra-vive-en-Paris.wav,./stim/wavs/mexican_mismatch_declarative-narrow-focus_La-maestra-vive-en-Paris.wav,./stim/wavs/peruvian_mismatch_declarative-narrow-focus_La-maestra-vive-en-Paris.wav,./stim/wavs/puertorican_mismatch_declarative-narrow-focus_La-maestra-vive-en-Paris.wav,,,,,,,,,,,,,,,,,,,,,,,,,,,,,,,,,,,,,,,,,,,,,,,,,,,,,,,,
,,,,,,,602c790b7597b0571b1e1472,6057c54e64b0b4e5c128b4f9,6058048af51d8575c7e71a76,United States,East coast,13 or older,no,2021-03-21_22h45.49.462,empathy_intonation_perc,2020.2.10,Win32,60,,,,,,,,,,1,castilian,1,1,1.8669,0,54,54,58,1,59,./stim/wavs/andalusian_mismatch_interrogative-total-yn_El-nino-oye-el-rio.wav,./stim/wavs/argentine_mismatch_interrogative-total-yn_El-nino-oye-el-rio.wav,./stim/wavs/castilian_mismatch_interrogative-total-yn_El-nino-oye-el-rio.wav,./stim/wavs/chilean_mismatch_interrogative-total-yn_El-nino-oye-el-rio.wav,./stim/wavs/cuban_mismatch_interrogative-total-yn_El-nino-oye-el-rio.wav,./stim/wavs/mexican_mismatch_interrogative-total-yn_El-nino-oye-el-rio.wav,./stim/wavs/peruvian_mismatch_interrogative-total-yn_El-nino-oye-el-rio.wav,./stim/wavs/puertorican_mismatch_interrogative-total-yn_El-nino-oye-el-rio.wav,,,,,,,,,,,,,,,,,,,,,,,,,,,,,,,,,,,,,,,,,,,,,,,,,,,,,,,,
,,,,,,,602c790b7597b0571b1e1472,6057c54e64b0b4e5c128b4f9,6058048af51d8575c7e71a76,United States,East coast,13 or older,no,2021-03-21_22h45.49.462,empathy_intonation_perc,2020.2.10,Win32,60,,,,,,,,,,1,cuban,0,0,1.434435,0,55,55,19,1,20,./stim/wavs/andalusian_match_interrogative-partial-wh_Cuando-vendia-el-carro.wav,./stim/wavs/argentine_match_interrogative-partial-wh_Cuando-vendia-el-carro.wav,./stim/wavs/castilian_match_interrogative-partial-wh_Cuando-vendia-el-carro.wav,./stim/wavs/chilean_match_interrogative-partial-wh_Cuando-vendia-el-carro.wav,./stim/wavs/cuban_match_interrogative-partial-wh_Cuando-vendia-el-carro.wav,./stim/wavs/mexican_match_interrogative-partial-wh_Cuando-vendia-el-carro.wav,./stim/wavs/peruvian_match_interrogative-partial-wh_Cuando-vendia-el-carro.wav,./stim/wavs/puertorican_match_interrogative-partial-wh_Cuando-vendia-el-carro.wav,,,,,,,,,,,,,,,,,,,,,,,,,,,,,,,,,,,,,,,,,,,,,,,,,,,,,,,,
,,,,,,,602c790b7597b0571b1e1472,6057c54e64b0b4e5c128b4f9,6058048af51d8575c7e71a76,United States,East coast,13 or older,no,2021-03-21_22h45.49.462,empathy_intonation_perc,2020.2.10,Win32,60,,,,,,,,,,1,andalusian,1,1,1.72146,0,56,56,57,1,58,./stim/wavs/andalusian_mismatch_interrogative-total-yn_El-hombre-mira-la-luna.wav,./stim/wavs/argentine_mismatch_interrogative-total-yn_El-hombre-mira-la-luna.wav,./stim/wavs/castilian_mismatch_interrogative-total-yn_El-hombre-mira-la-luna.wav,./stim/wavs/chilean_mismatch_interrogative-total-yn_El-hombre-mira-la-luna.wav,./stim/wavs/cuban_mismatch_interrogative-total-yn_El-hombre-mira-la-luna.wav,./stim/wavs/mexican_mismatch_interrogative-total-yn_El-hombre-mira-la-luna.wav,./stim/wavs/peruvian_mismatch_interrogative-total-yn_El-hombre-mira-la-luna.wav,./stim/wavs/puertorican_mismatch_interrogative-total-yn_El-hombre-mira-la-luna.wav,,,,,,,,,,,,,,,,,,,,,,,,,,,,,,,,,,,,,,,,,,,,,,,,,,,,,,,,
,,,,,,,602c790b7597b0571b1e1472,6057c54e64b0b4e5c128b4f9,6058048af51d8575c7e71a76,United States,East coast,13 or older,no,2021-03-21_22h45.49.462,empathy_intonation_perc,2020.2.10,Win32,60,,,,,,,,,,0,andalusian,0,1,1.62452,0,57,57,45,1,46,./stim/wavs/andalusian_mismatch_declarative-narrow-focus_Mi-madre-come-la-fruta.wav,./stim/wavs/argentine_mismatch_declarative-narrow-focus_Mi-madre-come-la-fruta.wav,./stim/wavs/castilian_mismatch_declarative-narrow-focus_Mi-madre-come-la-fruta.wav,./stim/wavs/chilean_mismatch_declarative-narrow-focus_Mi-madre-come-la-fruta.wav,./stim/wavs/cuban_mismatch_declarative-narrow-focus_Mi-madre-come-la-fruta.wav,./stim/wavs/mexican_mismatch_declarative-narrow-focus_Mi-madre-come-la-fruta.wav,./stim/wavs/peruvian_mismatch_declarative-narrow-focus_Mi-madre-come-la-fruta.wav,./stim/wavs/puertorican_mismatch_declarative-narrow-focus_Mi-madre-come-la-fruta.wav,,,,,,,,,,,,,,,,,,,,,,,,,,,,,,,,,,,,,,,,,,,,,,,,,,,,,,,,
,,,,,,,602c790b7597b0571b1e1472,6057c54e64b0b4e5c128b4f9,6058048af51d8575c7e71a76,United States,East coast,13 or older,no,2021-03-21_22h45.49.462,empathy_intonation_perc,2020.2.10,Win32,60,,,,,,,,,,1,puertorican,0,0,1.71546,0,58,58,48,1,49,./stim/wavs/andalusian_mismatch_interrogative-partial-wh_Cuando-comia-la-fruta.wav,./stim/wavs/argentine_mismatch_interrogative-partial-wh_Cuando-comia-la-fruta.wav,./stim/wavs/castilian_mismatch_interrogative-partial-wh_Cuando-comia-la-fruta.wav,./stim/wavs/chilean_mismatch_interrogative-partial-wh_Cuando-comia-la-fruta.wav,./stim/wavs/cuban_mismatch_interrogative-partial-wh_Cuando-comia-la-fruta.wav,./stim/wavs/mexican_mismatch_interrogative-partial-wh_Cuando-comia-la-fruta.wav,./stim/wavs/peruvian_mismatch_interrogative-partial-wh_Cuando-comia-la-fruta.wav,./stim/wavs/puertorican_mismatch_interrogative-partial-wh_Cuando-comia-la-fruta.wav,,,,,,,,,,,,,,,,,,,,,,,,,,,,,,,,,,,,,,,,,,,,,,,,,,,,,,,,
,,,,,,,602c790b7597b0571b1e1472,6057c54e64b0b4e5c128b4f9,6058048af51d8575c7e71a76,United States,East coast,13 or older,no,2021-03-21_22h45.49.462,empathy_intonation_perc,2020.2.10,Win32,60,,,,,,,,,,0,andalusian,0,1,1.654795,0,59,59,33,1,34,./stim/wavs/andalusian_mismatch_declarative-broad-focus_El-hombre-mira-la-luna.wav,./stim/wavs/argentine_mismatch_declarative-broad-focus_El-hombre-mira-la-luna.wav,./stim/wavs/castilian_mismatch_declarative-broad-focus_El-hombre-mira-la-luna.wav,./stim/wavs/chilean_mismatch_declarative-broad-focus_El-hombre-mira-la-luna.wav,./stim/wavs/cuban_mismatch_declarative-broad-focus_El-hombre-mira-la-luna.wav,./stim/wavs/mexican_mismatch_declarative-broad-focus_El-hombre-mira-la-luna.wav,./stim/wavs/peruvian_mismatch_declarative-broad-focus_El-hombre-mira-la-luna.wav,./stim/wavs/puertorican_mismatch_declarative-broad-focus_El-hombre-mira-la-luna.wav,,,,,,,,,,,,,,,,,,,,,,,,,,,,,,,,,,,,,,,,,,,,,,,,,,,,,,,,
,,,,,,,602c790b7597b0571b1e1472,6057c54e64b0b4e5c128b4f9,6058048af51d8575c7e71a76,United States,East coast,13 or older,no,2021-03-21_22h45.49.462,empathy_intonation_perc,2020.2.10,Win32,60,,,,,,,,,,1,mexican,1,1,1.466845,0,60,60,18,1,19,./stim/wavs/andalusian_match_interrogative-partial-wh_Cuando-lleva-el-abrigo.wav,./stim/wavs/argentine_match_interrogative-partial-wh_Cuando-lleva-el-abrigo.wav,./stim/wavs/castilian_match_interrogative-partial-wh_Cuando-lleva-el-abrigo.wav,./stim/wavs/chilean_match_interrogative-partial-wh_Cuando-lleva-el-abrigo.wav,./stim/wavs/cuban_match_interrogative-partial-wh_Cuando-lleva-el-abrigo.wav,./stim/wavs/mexican_match_interrogative-partial-wh_Cuando-lleva-el-abrigo.wav,./stim/wavs/peruvian_match_interrogative-partial-wh_Cuando-lleva-el-abrigo.wav,./stim/wavs/puertorican_match_interrogative-partial-wh_Cuando-lleva-el-abrigo.wav,,,,,,,,,,,,,,,,,,,,,,,,,,,,,,,,,,,,,,,,,,,,,,,,,,,,,,,,
,,,,,,,602c790b7597b0571b1e1472,6057c54e64b0b4e5c128b4f9,6058048af51d8575c7e71a76,United States,East coast,13 or older,no,2021-03-21_22h45.49.462,empathy_intonation_perc,2020.2.10,Win32,60,,,,,,,,,,1,chilean,1,1,1.34168,0,61,61,17,1,18,./stim/wavs/andalusian_match_interrogative-partial-wh_Cuando-leia-el-libro.wav,./stim/wavs/argentine_match_interrogative-partial-wh_Cuando-leia-el-libro.wav,./stim/wavs/castilian_match_interrogative-partial-wh_Cuando-leia-el-libro.wav,./stim/wavs/chilean_match_interrogative-partial-wh_Cuando-leia-el-libro.wav,./stim/wavs/cuban_match_interrogative-partial-wh_Cuando-leia-el-libro.wav,./stim/wavs/mexican_match_interrogative-partial-wh_Cuando-leia-el-libro.wav,./stim/wavs/peruvian_match_interrogative-partial-wh_Cuando-leia-el-libro.wav,./stim/wavs/puertorican_match_interrogative-partial-wh_Cuando-leia-el-libro.wav,,,,,,,,,,,,,,,,,,,,,,,,,,,,,,,,,,,,,,,,,,,,,,,,,,,,,,,,
,,,,,,,602c790b7597b0571b1e1472,6057c54e64b0b4e5c128b4f9,6058048af51d8575c7e71a76,United States,East coast,13 or older,no,2021-03-21_22h45.49.462,empathy_intonation_perc,2020.2.10,Win32,60,,,,,,,,,,1,mexican,0,0,1.516405,0,62,62,21,1,22,./stim/wavs/andalusian_match_interrogative-partial-wh_Por-que-ama-la-navidad.wav,./stim/wavs/argentine_match_interrogative-partial-wh_Por-que-ama-la-navidad.wav,./stim/wavs/castilian_match_interrogative-partial-wh_Por-que-ama-la-navidad.wav,./stim/wavs/chilean_match_interrogative-partial-wh_Por-que-ama-la-navidad.wav,./stim/wavs/cuban_match_interrogative-partial-wh_Por-que-ama-la-navidad.wav,./stim/wavs/mexican_match_interrogative-partial-wh_Por-que-ama-la-navidad.wav,./stim/wavs/peruvian_match_interrogative-partial-wh_Por-que-ama-la-navidad.wav,./stim/wavs/puertorican_match_interrogative-partial-wh_Por-que-ama-la-navidad.wav,,,,,,,,,,,,,,,,,,,,,,,,,,,,,,,,,,,,,,,,,,,,,,,,,,,,,,,,
,,,,,,,602c790b7597b0571b1e1472,6057c54e64b0b4e5c128b4f9,6058048af51d8575c7e71a76,United States,East coast,13 or older,no,2021-03-21_22h45.49.462,empathy_intonation_perc,2020.2.10,Win32,60,,,,,,,,,,1,mexican,1,1,1.473585,0,63,63,26,1,27,./stim/wavs/andalusian_match_interrogative-total-yn_David-leia-el-libro.wav,./stim/wavs/argentine_match_interrogative-total-yn_David-leia-el-libro.wav,./stim/wavs/castilian_match_interrogative-total-yn_David-leia-el-libro.wav,./stim/wavs/chilean_match_interrogative-total-yn_David-leia-el-libro.wav,./stim/wavs/cuban_match_interrogative-total-yn_David-leia-el-libro.wav,./stim/wavs/mexican_match_interrogative-total-yn_David-leia-el-libro.wav,./stim/wavs/peruvian_match_interrogative-total-yn_David-leia-el-libro.wav,./stim/wavs/puertorican_match_interrogative-total-yn_David-leia-el-libro.wav,,,,,,,,,,,,,,,,,,,,,,,,,,,,,,,,,,,,,,,,,,,,,,,,,,,,,,,,
,,,,,,,602c790b7597b0571b1e1472,6057c54e64b0b4e5c128b4f9,6058048af51d8575c7e71a76,United States,East coast,13 or older,no,2021-03-21_22h45.49.462,empathy_intonation_perc,2020.2.10,Win32,60,,,,,,,,,,,,,,,,,,,,,,,,,,,,,h,1,2.67297,0,0,0,0,1,,,,,,,,,,,,,,,,,,,,,,,,,,,,,,,,,,,,,,,,,,,,,,,,
,,,,,"Great! Now we will move on. The next task consists of about 60 trials, in each of which you will see a string of letters. 
  
  Your task is to decide whether this is a real Spanish word or not.",(press the spacebar to continue),602c790b7597b0571b1e1472,6057c54e64b0b4e5c128b4f9,6058048af51d8575c7e71a76,United States,East coast,13 or older,no,2021-03-21_22h45.49.462,empathy_intonation_perc,2020.2.10,Win32,60,,,,,,,,,,,,,,,,,,,,,,,,,,,,,,,,,,,,,0,0,0,0,1,,,,,,,,,,,,,,,,,,,,,,,,,,,,,,,,,,,,,,,,,,,
,,,,,"If you think it is an existing Spanish word, you type '1' (for 'REAL'), and if you think it is not an existing Spanish word, you type '0' (for 'FAKE').",(press the spacebar to continue),602c790b7597b0571b1e1472,6057c54e64b0b4e5c128b4f9,6058048af51d8575c7e71a76,United States,East coast,13 or older,no,2021-03-21_22h45.49.462,empathy_intonation_perc,2020.2.10,Win32,60,,,,,,,,,,,,,,,,,,,,,,,,,,,,,,,,,,,,,0,1,1,1,1,,,,,,,,,,,,,,,,,,,,,,,,,,,,,,,,,,,,,,,,,,,
,,,,,"If you are sure that the word exists, even though you dont know its exact meaning, you may still respond '1' (REAL). 
  
  But if you are not sure if it is an existing word, you should respond '0' (FAKE).
  
  Let's do a practice round...",(press the spacebar to continue),602c790b7597b0571b1e1472,6057c54e64b0b4e5c128b4f9,6058048af51d8575c7e71a76,United States,East coast,13 or older,no,2021-03-21_22h45.49.462,empathy_intonation_perc,2020.2.10,Win32,60,,,,,,,,,,,,,,,,,,,,,,,,,,,,,,,,,,,,,0,2,2,2,1,,,,,,,,,,,,,,,,,,,,,,,,,,,,,,,,,,,,,,,,,,,
,,,,,,,602c790b7597b0571b1e1472,6057c54e64b0b4e5c128b4f9,6058048af51d8575c7e71a76,United States,East coast,13 or older,no,2021-03-21_22h45.49.462,empathy_intonation_perc,2020.2.10,Win32,60,,,,,,,,,,0,,,,,,,,,,,,,,,,,,,,,,,,,,,,,,,,1,0,1.43045,0,0,0,0,1,0,depiste,REAL,FAKE,,,,,,,,,,,,,,,,,,,,,,,,,,,,,,,
,,,,,,,602c790b7597b0571b1e1472,6057c54e64b0b4e5c128b4f9,6058048af51d8575c7e71a76,United States,East coast,13 or older,no,2021-03-21_22h45.49.462,empathy_intonation_perc,2020.2.10,Win32,60,,,,,,,,,,1,,,,,,,,,,,,,,,,,,,,,,,,,,,,,,,,1,1,0.946335,0,1,1,1,1,0,s,REAL,FAKE,,,,,,,,,,,,,,,,,,,,,,,,,,,,,,,
,,,,,,,602c790b7597b0571b1e1472,6057c54e64b0b4e5c128b4f9,6058048af51d8575c7e71a76,United States,East coast,13 or older,no,2021-03-21_22h45.49.462,empathy_intonation_perc,2020.2.10,Win32,60,,,,,,,,,,0,,,,,,,,,,,,,,,,,,,,,,,,,,,,,,,,0,1,1.25965,0,2,2,2,1,0,con,REAL,FAKE,,,,,,,,,,,,,,,,,,,,,,,,,,,,,,,
,,,,,,,602c790b7597b0571b1e1472,6057c54e64b0b4e5c128b4f9,6058048af51d8575c7e71a76,United States,East coast,13 or older,no,2021-03-21_22h45.49.462,empathy_intonation_perc,2020.2.10,Win32,60,,,,,,,,,,0,,,,,,,,,,,,,,,,,,,,,,,,,,,,,,,,1,0,0.902965,0,3,3,3,1,0,calpar,REAL,FAKE,,,,,,,,,,,,,,,,,,,,,,,,,,,,,,,
,,,,,,,602c790b7597b0571b1e1472,6057c54e64b0b4e5c128b4f9,6058048af51d8575c7e71a76,United States,East coast,13 or older,no,2021-03-21_22h45.49.462,empathy_intonation_perc,2020.2.10,Win32,60,,,,,,,,,,0,,,,,,,,,,,,,,,,,,,,,,,,,,,,,,,,0,1,1.18478,0,4,4,4,1,0,joten,REAL,FAKE,,,,,,,,,,,,,,,,,,,,,,,,,,,,,,,
,,,,,,,602c790b7597b0571b1e1472,6057c54e64b0b4e5c128b4f9,6058048af51d8575c7e71a76,United States,East coast,13 or older,no,2021-03-21_22h45.49.462,empathy_intonation_perc,2020.2.10,Win32,60,,,,,,,,,,1,,,,,,,,,,,,,,,,,,,,,,,,,,,,,,,,1,1,1.285065,0,5,5,5,1,0,sacapuntas,REAL,FAKE,,,,,,,,,,,,,,,,,,,,,,,,,,,,,,,
,,,,,,,602c790b7597b0571b1e1472,6057c54e64b0b4e5c128b4f9,6058048af51d8575c7e71a76,United States,East coast,13 or older,no,2021-03-21_22h45.49.462,empathy_intonation_perc,2020.2.10,Win32,60,,,,,,,,,,0,,,,,,,,,,,,,,,,,,,,,,,,,,,,,,,,1,0,0.91218,0,6,6,6,1,0,priba,REAL,FAKE,,,,,,,,,,,,,,,,,,,,,,,,,,,,,,,
,,,,,,,602c790b7597b0571b1e1472,6057c54e64b0b4e5c128b4f9,6058048af51d8575c7e71a76,United States,East coast,13 or older,no,2021-03-21_22h45.49.462,empathy_intonation_perc,2020.2.10,Win32,60,,,,,,,,,,0,,,,,,,,,,,,,,,,,,,,,,,,,,,,,,,,0,1,1.44416,0,7,7,7,1,0,pelasula,REAL,FAKE,,,,,,,,,,,,,,,,,,,,,,,,,,,,,,,
,,,,,,,602c790b7597b0571b1e1472,6057c54e64b0b4e5c128b4f9,6058048af51d8575c7e71a76,United States,East coast,13 or older,no,2021-03-21_22h45.49.462,empathy_intonation_perc,2020.2.10,Win32,60,,,,,,,,,,1,,,,,,,,,,,,,,,,,,,,,,,,,,,,,,,,1,1,0.70802,0,8,8,8,1,0,bien,REAL,FAKE,,,,,,,,,,,,,,,,,,,,,,,,,,,,,,,
,,,,,,,602c790b7597b0571b1e1472,6057c54e64b0b4e5c128b4f9,6058048af51d8575c7e71a76,United States,East coast,13 or older,no,2021-03-21_22h45.49.462,empathy_intonation_perc,2020.2.10,Win32,60,,,,,,,,,,1,,,,,,,,,,,,,,,,,,,,,,,,,,,,,,,,1,1,0.620675,0,9,9,9,1,0,casa,REAL,FAKE,,,,,,,,,,,,,,,,,,,,,,,,,,,,,,,
,,,,,,,602c790b7597b0571b1e1472,6057c54e64b0b4e5c128b4f9,6058048af51d8575c7e71a76,United States,East coast,13 or older,no,2021-03-21_22h45.49.462,empathy_intonation_perc,2020.2.10,Win32,60,,,,,,,,,,0,,,,,,,,,,,,,,,,,,,,,,,,,,,,,,,,1,0,0.674395,0,10,10,10,1,0,lejo,REAL,FAKE,,,,,,,,,,,,,,,,,,,,,,,,,,,,,,,
,,,,,,,602c790b7597b0571b1e1472,6057c54e64b0b4e5c128b4f9,6058048af51d8575c7e71a76,United States,East coast,13 or older,no,2021-03-21_22h45.49.462,empathy_intonation_perc,2020.2.10,Win32,60,,,,,,,,,,0,,,,,,,,,,,,,,,,,,,,,,,,,,,,,,,,0,1,1.483915,0,11,11,11,1,0,pretantas,REAL,FAKE,,,,,,,,,,,,,,,,,,,,,,,,,,,,,,,
,,,,,,,602c790b7597b0571b1e1472,6057c54e64b0b4e5c128b4f9,6058048af51d8575c7e71a76,United States,East coast,13 or older,no,2021-03-21_22h45.49.462,empathy_intonation_perc,2020.2.10,Win32,60,,,,,,,,,,1,,,,,,,,,,,,,,,,,,,,,,,,,,,,,,,,,,,,,,,,57,tacao,,,0,0,1.572,0,0,0,56,1,REAL,FAKE,,,,,,,,,,,,,,,,,,,,,
,,,,,,,602c790b7597b0571b1e1472,6057c54e64b0b4e5c128b4f9,6058048af51d8575c7e71a76,United States,East coast,13 or older,no,2021-03-21_22h45.49.462,empathy_intonation_perc,2020.2.10,Win32,60,,,,,,,,,,1,,,,,,,,,,,,,,,,,,,,,,,,,,,,,,,,,,,,,,,,5,zapato,,,1,1,0.657595,0,1,1,4,1,REAL,FAKE,,,,,,,,,,,,,,,,,,,,,
,,,,,,,602c790b7597b0571b1e1472,6057c54e64b0b4e5c128b4f9,6058048af51d8575c7e71a76,United States,East coast,13 or older,no,2021-03-21_22h45.49.462,empathy_intonation_perc,2020.2.10,Win32,60,,,,,,,,,,1,,,,,,,,,,,,,,,,,,,,,,,,,,,,,,,,,,,,,,,,7,psimo,,,0,0,1.03638,0,2,2,6,1,REAL,FAKE,,,,,,,,,,,,,,,,,,,,,
,,,,,,,602c790b7597b0571b1e1472,6057c54e64b0b4e5c128b4f9,6058048af51d8575c7e71a76,United States,East coast,13 or older,no,2021-03-21_22h45.49.462,empathy_intonation_perc,2020.2.10,Win32,60,,,,,,,,,,1,,,,,,,,,,,,,,,,,,,,,,,,,,,,,,,,,,,,,,,,83,guante,,,1,1,0.568965,0,3,3,82,1,REAL,FAKE,,,,,,,,,,,,,,,,,,,,,
,,,,,,,602c790b7597b0571b1e1472,6057c54e64b0b4e5c128b4f9,6058048af51d8575c7e71a76,United States,East coast,13 or older,no,2021-03-21_22h45.49.462,empathy_intonation_perc,2020.2.10,Win32,60,,,,,,,,,,0,,,,,,,,,,,,,,,,,,,,,,,,,,,,,,,,,,,,,,,,19,brecedad,,,0,1,1.1095,0,4,4,18,1,REAL,FAKE,,,,,,,,,,,,,,,,,,,,,
,,,,,,,602c790b7597b0571b1e1472,6057c54e64b0b4e5c128b4f9,6058048af51d8575c7e71a76,United States,East coast,13 or older,no,2021-03-21_22h45.49.462,empathy_intonation_perc,2020.2.10,Win32,60,,,,,,,,,,1,,,,,,,,,,,,,,,,,,,,,,,,,,,,,,,,,,,,,,,,24,ltigo,,,0,0,1.017175,0,5,5,23,1,REAL,FAKE,,,,,,,,,,,,,,,,,,,,,
,,,,,,,602c790b7597b0571b1e1472,6057c54e64b0b4e5c128b4f9,6058048af51d8575c7e71a76,United States,East coast,13 or older,no,2021-03-21_22h45.49.462,empathy_intonation_perc,2020.2.10,Win32,60,,,,,,,,,,1,,,,,,,,,,,,,,,,,,,,,,,,,,,,,,,,,,,,,,,,69,engatusar,,,1,1,0.769595,0,6,6,68,1,REAL,FAKE,,,,,,,,,,,,,,,,,,,,,
,,,,,,,602c790b7597b0571b1e1472,6057c54e64b0b4e5c128b4f9,6058048af51d8575c7e71a76,United States,East coast,13 or older,no,2021-03-21_22h45.49.462,empathy_intonation_perc,2020.2.10,Win32,60,,,,,,,,,,1,,,,,,,,,,,,,,,,,,,,,,,,,,,,,,,,,,,,,,,,75,yacer,,,1,1,1.392805,0,7,7,74,1,REAL,FAKE,,,,,,,,,,,,,,,,,,,,,
,,,,,,,602c790b7597b0571b1e1472,6057c54e64b0b4e5c128b4f9,6058048af51d8575c7e71a76,United States,East coast,13 or older,no,2021-03-21_22h45.49.462,empathy_intonation_perc,2020.2.10,Win32,60,,,,,,,,,,1,,,,,,,,,,,,,,,,,,,,,,,,,,,,,,,,,,,,,,,,62,flaco,,,1,1,0.75792,0,8,8,61,1,REAL,FAKE,,,,,,,,,,,,,,,,,,,,,
,,,,,,,602c790b7597b0571b1e1472,6057c54e64b0b4e5c128b4f9,6058048af51d8575c7e71a76,United States,East coast,13 or older,no,2021-03-21_22h45.49.462,empathy_intonation_perc,2020.2.10,Win32,60,,,,,,,,,,0,,,,,,,,,,,,,,,,,,,,,,,,,,,,,,,,,,,,,,,,32,fatacidad,,,0,1,0.9602,0,9,9,31,1,REAL,FAKE,,,,,,,,,,,,,,,,,,,,,
,,,,,,,602c790b7597b0571b1e1472,6057c54e64b0b4e5c128b4f9,6058048af51d8575c7e71a76,United States,East coast,13 or older,no,2021-03-21_22h45.49.462,empathy_intonation_perc,2020.2.10,Win32,60,,,,,,,,,,1,,,,,,,,,,,,,,,,,,,,,,,,,,,,,,,,,,,,,,,,76,atar,,,1,1,1.33253,0,10,10,75,1,REAL,FAKE,,,,,,,,,,,,,,,,,,,,,
,,,,,,,602c790b7597b0571b1e1472,6057c54e64b0b4e5c128b4f9,6058048af51d8575c7e71a76,United States,East coast,13 or older,no,2021-03-21_22h45.49.462,empathy_intonation_perc,2020.2.10,Win32,60,,,,,,,,,,0,,,,,,,,,,,,,,,,,,,,,,,,,,,,,,,,,,,,,,,,21,capillo,,,1,0,0.66538,0,11,11,20,1,REAL,FAKE,,,,,,,,,,,,,,,,,,,,,
,,,,,,,602c790b7597b0571b1e1472,6057c54e64b0b4e5c128b4f9,6058048af51d8575c7e71a76,United States,East coast,13 or older,no,2021-03-21_22h45.49.462,empathy_intonation_perc,2020.2.10,Win32,60,,,,,,,,,,0,,,,,,,,,,,,,,,,,,,,,,,,,,,,,,,,,,,,,,,,23,lampera,,,1,0,0.726105,0,12,12,22,1,REAL,FAKE,,,,,,,,,,,,,,,,,,,,,
,,,,,,,602c790b7597b0571b1e1472,6057c54e64b0b4e5c128b4f9,6058048af51d8575c7e71a76,United States,East coast,13 or older,no,2021-03-21_22h45.49.462,empathy_intonation_perc,2020.2.10,Win32,60,,,,,,,,,,1,,,,,,,,,,,,,,,,,,,,,,,,,,,,,,,,,,,,,,,,34,aviso,,,1,1,0.770915,0,13,13,33,1,REAL,FAKE,,,,,,,,,,,,,,,,,,,,,
,,,,,,,602c790b7597b0571b1e1472,6057c54e64b0b4e5c128b4f9,6058048af51d8575c7e71a76,United States,East coast,13 or older,no,2021-03-21_22h45.49.462,empathy_intonation_perc,2020.2.10,Win32,60,,,,,,,,,,0,,,,,,,,,,,,,,,,,,,,,,,,,,,,,,,,,,,,,,,,35,rompido,,,1,0,0.91088,0,14,14,34,1,REAL,FAKE,,,,,,,,,,,,,,,,,,,,,
,,,,,,,602c790b7597b0571b1e1472,6057c54e64b0b4e5c128b4f9,6058048af51d8575c7e71a76,United States,East coast,13 or older,no,2021-03-21_22h45.49.462,empathy_intonation_perc,2020.2.10,Win32,60,,,,,,,,,,1,,,,,,,,,,,,,,,,,,,,,,,,,,,,,,,,,,,,,,,,59,besar,,,1,1,0.854775,0,15,15,58,1,REAL,FAKE,,,,,,,,,,,,,,,,,,,,,
,,,,,,,602c790b7597b0571b1e1472,6057c54e64b0b4e5c128b4f9,6058048af51d8575c7e71a76,United States,East coast,13 or older,no,2021-03-21_22h45.49.462,empathy_intonation_perc,2020.2.10,Win32,60,,,,,,,,,,1,,,,,,,,,,,,,,,,,,,,,,,,,,,,,,,,,,,,,,,,11,cenefa,,,0,0,0.89126,0,16,16,10,1,REAL,FAKE,,,,,,,,,,,,,,,,,,,,,
,,,,,,,602c790b7597b0571b1e1472,6057c54e64b0b4e5c128b4f9,6058048af51d8575c7e71a76,United States,East coast,13 or older,no,2021-03-21_22h45.49.462,empathy_intonation_perc,2020.2.10,Win32,60,,,,,,,,,,1,,,,,,,,,,,,,,,,,,,,,,,,,,,,,,,,,,,,,,,,2,pellizcar,,,0,0,1.206385,0,17,17,1,1,REAL,FAKE,,,,,,,,,,,,,,,,,,,,,
,,,,,,,602c790b7597b0571b1e1472,6057c54e64b0b4e5c128b4f9,6058048af51d8575c7e71a76,United States,East coast,13 or older,no,2021-03-21_22h45.49.462,empathy_intonation_perc,2020.2.10,Win32,60,,,,,,,,,,0,,,,,,,,,,,,,,,,,,,,,,,,,,,,,,,,,,,,,,,,74,cintro,,,0,1,0.86684,0,18,18,73,1,REAL,FAKE,,,,,,,,,,,,,,,,,,,,,
,,,,,,,602c790b7597b0571b1e1472,6057c54e64b0b4e5c128b4f9,6058048af51d8575c7e71a76,United States,East coast,13 or older,no,2021-03-21_22h45.49.462,empathy_intonation_perc,2020.2.10,Win32,60,,,,,,,,,,1,,,,,,,,,,,,,,,,,,,,,,,,,,,,,,,,,,,,,,,,22,lacayo,,,0,0,1.491295,0,19,19,21,1,REAL,FAKE,,,,,,,,,,,,,,,,,,,,,
,,,,,,,602c790b7597b0571b1e1472,6057c54e64b0b4e5c128b4f9,6058048af51d8575c7e71a76,United States,East coast,13 or older,no,2021-03-21_22h45.49.462,empathy_intonation_perc,2020.2.10,Win32,60,,,,,,,,,,1,,,,,,,,,,,,,,,,,,,,,,,,,,,,,,,,,,,,,,,,90,clavel,,,1,1,1.073085,0,20,20,89,1,REAL,FAKE,,,,,,,,,,,,,,,,,,,,,
,,,,,,,602c790b7597b0571b1e1472,6057c54e64b0b4e5c128b4f9,6058048af51d8575c7e71a76,United States,East coast,13 or older,no,2021-03-21_22h45.49.462,empathy_intonation_perc,2020.2.10,Win32,60,,,,,,,,,,1,,,,,,,,,,,,,,,,,,,,,,,,,,,,,,,,,,,,,,,,64,orgulloso,,,0,0,0.98361,0,21,21,63,1,REAL,FAKE,,,,,,,,,,,,,,,,,,,,,
,,,,,,,602c790b7597b0571b1e1472,6057c54e64b0b4e5c128b4f9,6058048af51d8575c7e71a76,United States,East coast,13 or older,no,2021-03-21_22h45.49.462,empathy_intonation_perc,2020.2.10,Win32,60,,,,,,,,,,0,,,,,,,,,,,,,,,,,,,,,,,,,,,,,,,,,,,,,,,,63,esposante,,,0,1,1.321565,0,22,22,62,1,REAL,FAKE,,,,,,,,,,,,,,,,,,,,,
,,,,,,,602c790b7597b0571b1e1472,6057c54e64b0b4e5c128b4f9,6058048af51d8575c7e71a76,United States,East coast,13 or older,no,2021-03-21_22h45.49.462,empathy_intonation_perc,2020.2.10,Win32,60,,,,,,,,,,1,,,,,,,,,,,,,,,,,,,,,,,,,,,,,,,,,,,,,,,,46,martillo,,,1,1,0.7051,0,23,23,45,1,REAL,FAKE,,,,,,,,,,,,,,,,,,,,,
,,,,,,,602c790b7597b0571b1e1472,6057c54e64b0b4e5c128b4f9,6058048af51d8575c7e71a76,United States,East coast,13 or older,no,2021-03-21_22h45.49.462,empathy_intonation_perc,2020.2.10,Win32,60,,,,,,,,,,0,,,,,,,,,,,,,,,,,,,,,,,,,,,,,,,,,,,,,,,,79,tropaje,,,1,0,0.694055,0,24,24,78,1,REAL,FAKE,,,,,,,,,,,,,,,,,,,,,
,,,,,,,602c790b7597b0571b1e1472,6057c54e64b0b4e5c128b4f9,6058048af51d8575c7e71a76,United States,East coast,13 or older,no,2021-03-21_22h45.49.462,empathy_intonation_perc,2020.2.10,Win32,60,,,,,,,,,,0,,,,,,,,,,,,,,,,,,,,,,,,,,,,,,,,,,,,,,,,58,plaudir,,,1,0,0.91109,0,25,25,57,1,REAL,FAKE,,,,,,,,,,,,,,,,,,,,,
,,,,,,,602c790b7597b0571b1e1472,6057c54e64b0b4e5c128b4f9,6058048af51d8575c7e71a76,United States,East coast,13 or older,no,2021-03-21_22h45.49.462,empathy_intonation_perc,2020.2.10,Win32,60,,,,,,,,,,1,,,,,,,,,,,,,,,,,,,,,,,,,,,,,,,,,,,,,,,,6,tergiversar,,,0,0,1.14581,0,26,26,5,1,REAL,FAKE,,,,,,,,,,,,,,,,,,,,,
,,,,,,,602c790b7597b0571b1e1472,6057c54e64b0b4e5c128b4f9,6058048af51d8575c7e71a76,United States,East coast,13 or older,no,2021-03-21_22h45.49.462,empathy_intonation_perc,2020.2.10,Win32,60,,,,,,,,,,1,,,,,,,,,,,,,,,,,,,,,,,,,,,,,,,,,,,,,,,,28,merodear,,,1,1,1.37298,0,27,27,27,1,REAL,FAKE,,,,,,,,,,,,,,,,,,,,,
,,,,,,,602c790b7597b0571b1e1472,6057c54e64b0b4e5c128b4f9,6058048af51d8575c7e71a76,United States,East coast,13 or older,no,2021-03-21_22h45.49.462,empathy_intonation_perc,2020.2.10,Win32,60,,,,,,,,,,0,,,,,,,,,,,,,,,,,,,,,,,,,,,,,,,,,,,,,,,,66,hacido,,,0,1,1.048765,0,28,28,65,1,REAL,FAKE,,,,,,,,,,,,,,,,,,,,,
,,,,,,,602c790b7597b0571b1e1472,6057c54e64b0b4e5c128b4f9,6058048af51d8575c7e71a76,United States,East coast,13 or older,no,2021-03-21_22h45.49.462,empathy_intonation_perc,2020.2.10,Win32,60,,,,,,,,,,1,,,,,,,,,,,,,,,,,,,,,,,,,,,,,,,,,,,,,,,,78,frondoso,,,0,0,1.103345,0,29,29,77,1,REAL,FAKE,,,,,,,,,,,,,,,,,,,,,
,,,,,,,602c790b7597b0571b1e1472,6057c54e64b0b4e5c128b4f9,6058048af51d8575c7e71a76,United States,East coast,13 or older,no,2021-03-21_22h45.49.462,empathy_intonation_perc,2020.2.10,Win32,60,,,,,,,,,,0,,,,,,,,,,,,,,,,,,,,,,,,,,,,,,,,,,,,,,,,16,abracer,,,1,0,1.060725,0,30,30,15,1,REAL,FAKE,,,,,,,,,,,,,,,,,,,,,
,,,,,,,602c790b7597b0571b1e1472,6057c54e64b0b4e5c128b4f9,6058048af51d8575c7e71a76,United States,East coast,13 or older,no,2021-03-21_22h45.49.462,empathy_intonation_perc,2020.2.10,Win32,60,,,,,,,,,,1,,,,,,,,,,,,,,,,,,,,,,,,,,,,,,,,,,,,,,,,31,pandilla,,,1,1,0.79188,0,31,31,30,1,REAL,FAKE,,,,,,,,,,,,,,,,,,,,,
,,,,,,,602c790b7597b0571b1e1472,6057c54e64b0b4e5c128b4f9,6058048af51d8575c7e71a76,United States,East coast,13 or older,no,2021-03-21_22h45.49.462,empathy_intonation_perc,2020.2.10,Win32,60,,,,,,,,,,0,,,,,,,,,,,,,,,,,,,,,,,,,,,,,,,,,,,,,,,,47,cartinar,,,1,0,0.84901,0,32,32,46,1,REAL,FAKE,,,,,,,,,,,,,,,,,,,,,
,,,,,,,602c790b7597b0571b1e1472,6057c54e64b0b4e5c128b4f9,6058048af51d8575c7e71a76,United States,East coast,13 or older,no,2021-03-21_22h45.49.462,empathy_intonation_perc,2020.2.10,Win32,60,,,,,,,,,,1,,,,,,,,,,,,,,,,,,,,,,,,,,,,,,,,,,,,,,,,68,alegre,,,1,1,0.842565,0,33,33,67,1,REAL,FAKE,,,,,,,,,,,,,,,,,,,,,
,,,,,,,602c790b7597b0571b1e1472,6057c54e64b0b4e5c128b4f9,6058048af51d8575c7e71a76,United States,East coast,13 or older,no,2021-03-21_22h45.49.462,empathy_intonation_perc,2020.2.10,Win32,60,,,,,,,,,,1,,,,,,,,,,,,,,,,,,,,,,,,,,,,,,,,,,,,,,,,45,jilguero,,,0,0,1.08505,0,34,34,44,1,REAL,FAKE,,,,,,,,,,,,,,,,,,,,,
,,,,,,,602c790b7597b0571b1e1472,6057c54e64b0b4e5c128b4f9,6058048af51d8575c7e71a76,United States,East coast,13 or older,no,2021-03-21_22h45.49.462,empathy_intonation_perc,2020.2.10,Win32,60,,,,,,,,,,0,,,,,,,,,,,,,,,,,,,,,,,,,,,,,,,,,,,,,,,,42,cadallo,,,1,0,0.65608,0,35,35,41,1,REAL,FAKE,,,,,,,,,,,,,,,,,,,,,
,,,,,,,602c790b7597b0571b1e1472,6057c54e64b0b4e5c128b4f9,6058048af51d8575c7e71a76,United States,East coast,13 or older,no,2021-03-21_22h45.49.462,empathy_intonation_perc,2020.2.10,Win32,60,,,,,,,,,,1,,,,,,,,,,,,,,,,,,,,,,,,,,,,,,,,,,,,,,,,55,nevar,,,1,1,0.885195,0,36,36,54,1,REAL,FAKE,,,,,,,,,,,,,,,,,,,,,
,,,,,,,602c790b7597b0571b1e1472,6057c54e64b0b4e5c128b4f9,6058048af51d8575c7e71a76,United States,East coast,13 or older,no,2021-03-21_22h45.49.462,empathy_intonation_perc,2020.2.10,Win32,60,,,,,,,,,,1,,,,,,,,,,,,,,,,,,,,,,,,,,,,,,,,,,,,,,,,85,lad,,,0,0,0.694825,0,37,37,84,1,REAL,FAKE,,,,,,,,,,,,,,,,,,,,,
,,,,,,,602c790b7597b0571b1e1472,6057c54e64b0b4e5c128b4f9,6058048af51d8575c7e71a76,United States,East coast,13 or older,no,2021-03-21_22h45.49.462,empathy_intonation_perc,2020.2.10,Win32,60,,,,,,,,,,1,,,,,,,,,,,,,,,,,,,,,,,,,,,,,,,,,,,,,,,,41,rebuscar,,,1,1,0.748775,0,38,38,40,1,REAL,FAKE,,,,,,,,,,,,,,,,,,,,,
,,,,,,,602c790b7597b0571b1e1472,6057c54e64b0b4e5c128b4f9,6058048af51d8575c7e71a76,United States,East coast,13 or older,no,2021-03-21_22h45.49.462,empathy_intonation_perc,2020.2.10,Win32,60,,,,,,,,,,0,,,,,,,,,,,,,,,,,,,,,,,,,,,,,,,,,,,,,,,,4,batilln,,,1,0,1.177645,0,39,39,3,1,REAL,FAKE,,,,,,,,,,,,,,,,,,,,,
,,,,,,,602c790b7597b0571b1e1472,6057c54e64b0b4e5c128b4f9,6058048af51d8575c7e71a76,United States,East coast,13 or older,no,2021-03-21_22h45.49.462,empathy_intonation_perc,2020.2.10,Win32,60,,,,,,,,,,1,,,,,,,,,,,,,,,,,,,,,,,,,,,,,,,,,,,,,,,,9,hacha,,,0,0,2.142245,0,40,40,8,1,REAL,FAKE,,,,,,,,,,,,,,,,,,,,,
,,,,,,,602c790b7597b0571b1e1472,6057c54e64b0b4e5c128b4f9,6058048af51d8575c7e71a76,United States,East coast,13 or older,no,2021-03-21_22h45.49.462,empathy_intonation_perc,2020.2.10,Win32,60,,,,,,,,,,0,,,,,,,,,,,,,,,,,,,,,,,,,,,,,,,,,,,,,,,,27,acutacin,,,1,0,2.388135,0,41,41,26,1,REAL,FAKE,,,,,,,,,,,,,,,,,,,,,
,,,,,,,602c790b7597b0571b1e1472,6057c54e64b0b4e5c128b4f9,6058048af51d8575c7e71a76,United States,East coast,13 or older,no,2021-03-21_22h45.49.462,empathy_intonation_perc,2020.2.10,Win32,60,,,,,,,,,,1,,,,,,,,,,,,,,,,,,,,,,,,,,,,,,,,,,,,,,,,39,torpe,,,0,0,0.96509,0,42,42,38,1,REAL,FAKE,,,,,,,,,,,,,,,,,,,,,
,,,,,,,602c790b7597b0571b1e1472,6057c54e64b0b4e5c128b4f9,6058048af51d8575c7e71a76,United States,East coast,13 or older,no,2021-03-21_22h45.49.462,empathy_intonation_perc,2020.2.10,Win32,60,,,,,,,,,,0,,,,,,,,,,,,,,,,,,,,,,,,,,,,,,,,,,,,,,,,87,grodo,,,0,1,0.728465,0,43,43,86,1,REAL,FAKE,,,,,,,,,,,,,,,,,,,,,
,,,,,,,602c790b7597b0571b1e1472,6057c54e64b0b4e5c128b4f9,6058048af51d8575c7e71a76,United States,East coast,13 or older,no,2021-03-21_22h45.49.462,empathy_intonation_perc,2020.2.10,Win32,60,,,,,,,,,,1,,,,,,,,,,,,,,,,,,,,,,,,,,,,,,,,,,,,,,,,13,helar,,,0,0,0.68838,0,44,44,12,1,REAL,FAKE,,,,,,,,,,,,,,,,,,,,,
,,,,,,,602c790b7597b0571b1e1472,6057c54e64b0b4e5c128b4f9,6058048af51d8575c7e71a76,United States,East coast,13 or older,no,2021-03-21_22h45.49.462,empathy_intonation_perc,2020.2.10,Win32,60,,,,,,,,,,1,,,,,,,,,,,,,,,,,,,,,,,,,,,,,,,,,,,,,,,,73,hervidor,,,0,0,0.661005,0,45,45,72,1,REAL,FAKE,,,,,,,,,,,,,,,,,,,,,
,,,,,,,602c790b7597b0571b1e1472,6057c54e64b0b4e5c128b4f9,6058048af51d8575c7e71a76,United States,East coast,13 or older,no,2021-03-21_22h45.49.462,empathy_intonation_perc,2020.2.10,Win32,60,,,,,,,,,,0,,,,,,,,,,,,,,,,,,,,,,,,,,,,,,,,,,,,,,,,33,pauca,,,0,1,0.8945,0,46,46,32,1,REAL,FAKE,,,,,,,,,,,,,,,,,,,,,
,,,,,,,602c790b7597b0571b1e1472,6057c54e64b0b4e5c128b4f9,6058048af51d8575c7e71a76,United States,East coast,13 or older,no,2021-03-21_22h45.49.462,empathy_intonation_perc,2020.2.10,Win32,60,,,,,,,,,,1,,,,,,,,,,,,,,,,,,,,,,,,,,,,,,,,,,,,,,,,40,alfombra,,,1,1,0.70328,0,47,47,39,1,REAL,FAKE,,,,,,,,,,,,,,,,,,,,,
,,,,,,,602c790b7597b0571b1e1472,6057c54e64b0b4e5c128b4f9,6058048af51d8575c7e71a76,United States,East coast,13 or older,no,2021-03-21_22h45.49.462,empathy_intonation_perc,2020.2.10,Win32,60,,,,,,,,,,0,,,,,,,,,,,,,,,,,,,,,,,,,,,,,,,,,,,,,,,,10,antar,,,1,0,0.64391,0,48,48,9,1,REAL,FAKE,,,,,,,,,,,,,,,,,,,,,
,,,,,,,602c790b7597b0571b1e1472,6057c54e64b0b4e5c128b4f9,6058048af51d8575c7e71a76,United States,East coast,13 or older,no,2021-03-21_22h45.49.462,empathy_intonation_perc,2020.2.10,Win32,60,,,,,,,,,,1,,,,,,,,,,,,,,,,,,,,,,,,,,,,,,,,,,,,,,,,60,matar,,,1,1,0.771005,0,49,49,59,1,REAL,FAKE,,,,,,,,,,,,,,,,,,,,,
,,,,,,,602c790b7597b0571b1e1472,6057c54e64b0b4e5c128b4f9,6058048af51d8575c7e71a76,United States,East coast,13 or older,no,2021-03-21_22h45.49.462,empathy_intonation_perc,2020.2.10,Win32,60,,,,,,,,,,1,,,,,,,,,,,,,,,,,,,,,,,,,,,,,,,,,,,,,,,,14,yunque,,,0,0,0.7093,0,50,50,13,1,REAL,FAKE,,,,,,,,,,,,,,,,,,,,,
,,,,,,,602c790b7597b0571b1e1472,6057c54e64b0b4e5c128b4f9,6058048af51d8575c7e71a76,United States,East coast,13 or older,no,2021-03-21_22h45.49.462,empathy_intonation_perc,2020.2.10,Win32,60,,,,,,,,,,0,,,,,,,,,,,,,,,,,,,,,,,,,,,,,,,,,,,,,,,,17,floroso,,,1,0,0.88847,0,51,51,16,1,REAL,FAKE,,,,,,,,,,,,,,,,,,,,,
,,,,,,,602c790b7597b0571b1e1472,6057c54e64b0b4e5c128b4f9,6058048af51d8575c7e71a76,United States,East coast,13 or older,no,2021-03-21_22h45.49.462,empathy_intonation_perc,2020.2.10,Win32,60,,,,,,,,,,0,,,,,,,,,,,,,,,,,,,,,,,,,,,,,,,,,,,,,,,,82,empirador,,,1,0,1.448725,0,52,52,81,1,REAL,FAKE,,,,,,,,,,,,,,,,,,,,,
,,,,,,,602c790b7597b0571b1e1472,6057c54e64b0b4e5c128b4f9,6058048af51d8575c7e71a76,United States,East coast,13 or older,no,2021-03-21_22h45.49.462,empathy_intonation_perc,2020.2.10,Win32,60,,,,,,,,,,1,,,,,,,,,,,,,,,,,,,,,,,,,,,,,,,,,,,,,,,,3,pulmones,,,1,1,1.363805,0,53,53,2,1,REAL,FAKE,,,,,,,,,,,,,,,,,,,,,
,,,,,,,602c790b7597b0571b1e1472,6057c54e64b0b4e5c128b4f9,6058048af51d8575c7e71a76,United States,East coast,13 or older,no,2021-03-21_22h45.49.462,empathy_intonation_perc,2020.2.10,Win32,60,,,,,,,,,,1,,,,,,,,,,,,,,,,,,,,,,,,,,,,,,,,,,,,,,,,71,polvoriento,,,1,1,2.08535,0,54,54,70,1,REAL,FAKE,,,,,,,,,,,,,,,,,,,,,
,,,,,,,602c790b7597b0571b1e1472,6057c54e64b0b4e5c128b4f9,6058048af51d8575c7e71a76,United States,East coast,13 or older,no,2021-03-21_22h45.49.462,empathy_intonation_perc,2020.2.10,Win32,60,,,,,,,,,,1,,,,,,,,,,,,,,,,,,,,,,,,,,,,,,,,,,,,,,,,80,hormiga,,,0,0,0.755155,0,55,55,79,1,REAL,FAKE,,,,,,,,,,,,,,,,,,,,,
,,,,,,,602c790b7597b0571b1e1472,6057c54e64b0b4e5c128b4f9,6058048af51d8575c7e71a76,United States,East coast,13 or older,no,2021-03-21_22h45.49.462,empathy_intonation_perc,2020.2.10,Win32,60,,,,,,,,,,1,,,,,,,,,,,,,,,,,,,,,,,,,,,,,,,,,,,,,,,,67,cabello,,,1,1,1.15913,0,56,56,66,1,REAL,FAKE,,,,,,,,,,,,,,,,,,,,,
,,,,,,,602c790b7597b0571b1e1472,6057c54e64b0b4e5c128b4f9,6058048af51d8575c7e71a76,United States,East coast,13 or older,no,2021-03-21_22h45.49.462,empathy_intonation_perc,2020.2.10,Win32,60,,,,,,,,,,1,,,,,,,,,,,,,,,,,,,,,,,,,,,,,,,,,,,,,,,,56,musgo,,,1,1,1.18204,0,57,57,55,1,REAL,FAKE,,,,,,,,,,,,,,,,,,,,,
,,,,,,,602c790b7597b0571b1e1472,6057c54e64b0b4e5c128b4f9,6058048af51d8575c7e71a76,United States,East coast,13 or older,no,2021-03-21_22h45.49.462,empathy_intonation_perc,2020.2.10,Win32,60,,,,,,,,,,1,,,,,,,,,,,,,,,,,,,,,,,,,,,,,,,,,,,,,,,,12,asesinato,,,0,0,0.851685,0,58,58,11,1,REAL,FAKE,,,,,,,,,,,,,,,,,,,,,
,,,,,,,602c790b7597b0571b1e1472,6057c54e64b0b4e5c128b4f9,6058048af51d8575c7e71a76,United States,East coast,13 or older,no,2021-03-21_22h45.49.462,empathy_intonation_perc,2020.2.10,Win32,60,,,,,,,,,,1,,,,,,,,,,,,,,,,,,,,,,,,,,,,,,,,,,,,,,,,49,ganar,,,1,1,0.6912,0,59,59,48,1,REAL,FAKE,,,,,,,,,,,,,,,,,,,,,
,,,,,,,602c790b7597b0571b1e1472,6057c54e64b0b4e5c128b4f9,6058048af51d8575c7e71a76,United States,East coast,13 or older,no,2021-03-21_22h45.49.462,empathy_intonation_perc,2020.2.10,Win32,60,,,,,,,,,,1,,,,,,,,,,,,,,,,,,,,,,,,,,,,,,,,,,,,,,,,77,tiburn,,,0,0,0.61225,0,60,60,76,1,REAL,FAKE,,,,,,,,,,,,,,,,,,,,,
,,,,,,,602c790b7597b0571b1e1472,6057c54e64b0b4e5c128b4f9,6058048af51d8575c7e71a76,United States,East coast,13 or older,no,2021-03-21_22h45.49.462,empathy_intonation_perc,2020.2.10,Win32,60,,,,,,,,,,1,,,,,,,,,,,,,,,,,,,,,,,,,,,,,,,,,,,,,,,,86,barato,,,1,1,0.73352,0,61,61,85,1,REAL,FAKE,,,,,,,,,,,,,,,,,,,,,
,,,,,,,602c790b7597b0571b1e1472,6057c54e64b0b4e5c128b4f9,6058048af51d8575c7e71a76,United States,East coast,13 or older,no,2021-03-21_22h45.49.462,empathy_intonation_perc,2020.2.10,Win32,60,,,,,,,,,,1,,,,,,,,,,,,,,,,,,,,,,,,,,,,,,,,,,,,,,,,89,prisa,,,0,0,0.75503,0,62,62,88,1,REAL,FAKE,,,,,,,,,,,,,,,,,,,,,
,,,,,,,602c790b7597b0571b1e1472,6057c54e64b0b4e5c128b4f9,6058048af51d8575c7e71a76,United States,East coast,13 or older,no,2021-03-21_22h45.49.462,empathy_intonation_perc,2020.2.10,Win32,60,,,,,,,,,,0,,,,,,,,,,,,,,,,,,,,,,,,,,,,,,,,,,,,,,,,72,pemicin,,,0,1,0.92156,0,63,63,71,1,REAL,FAKE,,,,,,,,,,,,,,,,,,,,,
,,,,,,,602c790b7597b0571b1e1472,6057c54e64b0b4e5c128b4f9,6058048af51d8575c7e71a76,United States,East coast,13 or older,no,2021-03-21_22h45.49.462,empathy_intonation_perc,2020.2.10,Win32,60,,,,,,,,,,1,,,,,,,,,,,,,,,,,,,,,,,,,,,,,,,,,,,,,,,,81,pozo,,,0,0,0.80034,0,64,64,80,1,REAL,FAKE,,,,,,,,,,,,,,,,,,,,,
,,,,,,,602c790b7597b0571b1e1472,6057c54e64b0b4e5c128b4f9,6058048af51d8575c7e71a76,United States,East coast,13 or older,no,2021-03-21_22h45.49.462,empathy_intonation_perc,2020.2.10,Win32,60,,,,,,,,,,1,,,,,,,,,,,,,,,,,,,,,,,,,,,,,,,,,,,,,,,,54,fomentar,,,1,1,0.82449,0,65,65,53,1,REAL,FAKE,,,,,,,,,,,,,,,,,,,,,
,,,,,,,602c790b7597b0571b1e1472,6057c54e64b0b4e5c128b4f9,6058048af51d8575c7e71a76,United States,East coast,13 or older,no,2021-03-21_22h45.49.462,empathy_intonation_perc,2020.2.10,Win32,60,,,,,,,,,,1,,,,,,,,,,,,,,,,,,,,,,,,,,,,,,,,,,,,,,,,48,ladrn,,,0,0,3.34581,0,66,66,47,1,REAL,FAKE,,,,,,,,,,,,,,,,,,,,,
,,,,,,,602c790b7597b0571b1e1472,6057c54e64b0b4e5c128b4f9,6058048af51d8575c7e71a76,United States,East coast,13 or older,no,2021-03-21_22h45.49.462,empathy_intonation_perc,2020.2.10,Win32,60,,,,,,,,,,0,,,,,,,,,,,,,,,,,,,,,,,,,,,,,,,,,,,,,,,,70,temblo,,,1,0,0.81348,0,67,67,69,1,REAL,FAKE,,,,,,,,,,,,,,,,,,,,,
,,,,,,,602c790b7597b0571b1e1472,6057c54e64b0b4e5c128b4f9,6058048af51d8575c7e71a76,United States,East coast,13 or older,no,2021-03-21_22h45.49.462,empathy_intonation_perc,2020.2.10,Win32,60,,,,,,,,,,1,,,,,,,,,,,,,,,,,,,,,,,,,,,,,,,,,,,,,,,,15,regar,,,1,1,0.62456,0,68,68,14,1,REAL,FAKE,,,,,,,,,,,,,,,,,,,,,
,,,,,,,602c790b7597b0571b1e1472,6057c54e64b0b4e5c128b4f9,6058048af51d8575c7e71a76,United States,East coast,13 or older,no,2021-03-21_22h45.49.462,empathy_intonation_perc,2020.2.10,Win32,60,,,,,,,,,,0,,,,,,,,,,,,,,,,,,,,,,,,,,,,,,,,,,,,,,,,8,cadea,,,1,0,0.590475,0,69,69,7,1,REAL,FAKE,,,,,,,,,,,,,,,,,,,,,
,,,,,,,602c790b7597b0571b1e1472,6057c54e64b0b4e5c128b4f9,6058048af51d8575c7e71a76,United States,East coast,13 or older,no,2021-03-21_22h45.49.462,empathy_intonation_perc,2020.2.10,Win32,60,,,,,,,,,,0,,,,,,,,,,,,,,,,,,,,,,,,,,,,,,,,,,,,,,,,50,flamida,,,1,0,0.618625,0,70,70,49,1,REAL,FAKE,,,,,,,,,,,,,,,,,,,,,
,,,,,,,602c790b7597b0571b1e1472,6057c54e64b0b4e5c128b4f9,6058048af51d8575c7e71a76,United States,East coast,13 or older,no,2021-03-21_22h45.49.462,empathy_intonation_perc,2020.2.10,Win32,60,,,,,,,,,,1,,,,,,,,,,,,,,,,,,,,,,,,,,,,,,,,,,,,,,,,26,secuestro,,,1,1,1.424495,0,71,71,25,1,REAL,FAKE,,,,,,,,,,,,,,,,,,,,,
,,,,,,,602c790b7597b0571b1e1472,6057c54e64b0b4e5c128b4f9,6058048af51d8575c7e71a76,United States,East coast,13 or older,no,2021-03-21_22h45.49.462,empathy_intonation_perc,2020.2.10,Win32,60,,,,,,,,,,1,,,,,,,,,,,,,,,,,,,,,,,,,,,,,,,,,,,,,,,,25,bisagra,,,0,0,0.715515,0,72,72,24,1,REAL,FAKE,,,,,,,,,,,,,,,,,,,,,
,,,,,,,602c790b7597b0571b1e1472,6057c54e64b0b4e5c128b4f9,6058048af51d8575c7e71a76,United States,East coast,13 or older,no,2021-03-21_22h45.49.462,empathy_intonation_perc,2020.2.10,Win32,60,,,,,,,,,,1,,,,,,,,,,,,,,,,,,,,,,,,,,,,,,,,,,,,,,,,38,estornudar,,,1,1,1.166885,0,73,73,37,1,REAL,FAKE,,,,,,,,,,,,,,,,,,,,,
,,,,,,,602c790b7597b0571b1e1472,6057c54e64b0b4e5c128b4f9,6058048af51d8575c7e71a76,United States,East coast,13 or older,no,2021-03-21_22h45.49.462,empathy_intonation_perc,2020.2.10,Win32,60,,,,,,,,,,0,,,,,,,,,,,,,,,,,,,,,,,,,,,,,,,,,,,,,,,,30,alardio,,,0,1,1.091245,0,74,74,29,1,REAL,FAKE,,,,,,,,,,,,,,,,,,,,,
,,,,,,,602c790b7597b0571b1e1472,6057c54e64b0b4e5c128b4f9,6058048af51d8575c7e71a76,United States,East coast,13 or older,no,2021-03-21_22h45.49.462,empathy_intonation_perc,2020.2.10,Win32,60,,,,,,,,,,1,,,,,,,,,,,,,,,,,,,,,,,,,,,,,,,,,,,,,,,,51,candado,,,1,1,1.961145,0,75,75,50,1,REAL,FAKE,,,,,,,,,,,,,,,,,,,,,
,,,,,,,602c790b7597b0571b1e1472,6057c54e64b0b4e5c128b4f9,6058048af51d8575c7e71a76,United States,East coast,13 or older,no,2021-03-21_22h45.49.462,empathy_intonation_perc,2020.2.10,Win32,60,,,,,,,,,,0,,,,,,,,,,,,,,,,,,,,,,,,,,,,,,,,,,,,,,,,29,decar,,,1,0,0.57006,0,76,76,28,1,REAL,FAKE,,,,,,,,,,,,,,,,,,,,,
,,,,,,,602c790b7597b0571b1e1472,6057c54e64b0b4e5c128b4f9,6058048af51d8575c7e71a76,United States,East coast,13 or older,no,2021-03-21_22h45.49.462,empathy_intonation_perc,2020.2.10,Win32,60,,,,,,,,,,1,,,,,,,,,,,,,,,,,,,,,,,,,,,,,,,,,,,,,,,,65,bizcocho,,,1,1,0.9172,0,77,77,64,1,REAL,FAKE,,,,,,,,,,,,,,,,,,,,,
,,,,,,,602c790b7597b0571b1e1472,6057c54e64b0b4e5c128b4f9,6058048af51d8575c7e71a76,United States,East coast,13 or older,no,2021-03-21_22h45.49.462,empathy_intonation_perc,2020.2.10,Win32,60,,,,,,,,,,0,,,,,,,,,,,,,,,,,,,,,,,,,,,,,,,,,,,,,,,,18,arsa,,,0,1,0.806925,0,78,78,17,1,REAL,FAKE,,,,,,,,,,,,,,,,,,,,,
,,,,,,,602c790b7597b0571b1e1472,6057c54e64b0b4e5c128b4f9,6058048af51d8575c7e71a76,United States,East coast,13 or older,no,2021-03-21_22h45.49.462,empathy_intonation_perc,2020.2.10,Win32,60,,,,,,,,,,1,,,,,,,,,,,,,,,,,,,,,,,,,,,,,,,,,,,,,,,,43,canela,,,1,1,0.666825,0,79,79,42,1,REAL,FAKE,,,,,,,,,,,,,,,,,,,,,
,,,,,,,602c790b7597b0571b1e1472,6057c54e64b0b4e5c128b4f9,6058048af51d8575c7e71a76,United States,East coast,13 or older,no,2021-03-21_22h45.49.462,empathy_intonation_perc,2020.2.10,Win32,60,,,,,,,,,,1,,,,,,,,,,,,,,,,,,,,,,,,,,,,,,,,,,,,,,,,88,acantilado,,,1,1,0.797125,0,80,80,87,1,REAL,FAKE,,,,,,,,,,,,,,,,,,,,,
,,,,,,,602c790b7597b0571b1e1472,6057c54e64b0b4e5c128b4f9,6058048af51d8575c7e71a76,United States,East coast,13 or older,no,2021-03-21_22h45.49.462,empathy_intonation_perc,2020.2.10,Win32,60,,,,,,,,,,1,,,,,,,,,,,,,,,,,,,,,,,,,,,,,,,,,,,,,,,,36,loro,,,1,1,0.75782,0,81,81,35,1,REAL,FAKE,,,,,,,,,,,,,,,,,,,,,
,,,,,,,602c790b7597b0571b1e1472,6057c54e64b0b4e5c128b4f9,6058048af51d8575c7e71a76,United States,East coast,13 or older,no,2021-03-21_22h45.49.462,empathy_intonation_perc,2020.2.10,Win32,60,,,,,,,,,,0,,,,,,,,,,,,,,,,,,,,,,,,,,,,,,,,,,,,,,,,1,terzo,,,1,0,0.907075,0,82,82,0,1,REAL,FAKE,,,,,,,,,,,,,,,,,,,,,
,,,,,,,602c790b7597b0571b1e1472,6057c54e64b0b4e5c128b4f9,6058048af51d8575c7e71a76,United States,East coast,13 or older,no,2021-03-21_22h45.49.462,empathy_intonation_perc,2020.2.10,Win32,60,,,,,,,,,,1,,,,,,,,,,,,,,,,,,,,,,,,,,,,,,,,,,,,,,,,20,vido,,,0,0,0.5904,0,83,83,19,1,REAL,FAKE,,,,,,,,,,,,,,,,,,,,,
,,,,,,,602c790b7597b0571b1e1472,6057c54e64b0b4e5c128b4f9,6058048af51d8575c7e71a76,United States,East coast,13 or older,no,2021-03-21_22h45.49.462,empathy_intonation_perc,2020.2.10,Win32,60,,,,,,,,,,1,,,,,,,,,,,,,,,,,,,,,,,,,,,,,,,,,,,,,,,,61,seda,,,0,0,0.824495,0,84,84,60,1,REAL,FAKE,,,,,,,,,,,,,,,,,,,,,
,,,,,,,602c790b7597b0571b1e1472,6057c54e64b0b4e5c128b4f9,6058048af51d8575c7e71a76,United States,East coast,13 or older,no,2021-03-21_22h45.49.462,empathy_intonation_perc,2020.2.10,Win32,60,,,,,,,,,,1,,,,,,,,,,,,,,,,,,,,,,,,,,,,,,,,,,,,,,,,37,granuja,,,0,0,1.079135,0,85,85,36,1,REAL,FAKE,,,,,,,,,,,,,,,,,,,,,
,,,,,,,602c790b7597b0571b1e1472,6057c54e64b0b4e5c128b4f9,6058048af51d8575c7e71a76,United States,East coast,13 or older,no,2021-03-21_22h45.49.462,empathy_intonation_perc,2020.2.10,Win32,60,,,,,,,,,,0,,,,,,,,,,,,,,,,,,,,,,,,,,,,,,,,,,,,,,,,84,escuto,,,1,0,1.00947,0,86,86,83,1,REAL,FAKE,,,,,,,,,,,,,,,,,,,,,
,,,,,,,602c790b7597b0571b1e1472,6057c54e64b0b4e5c128b4f9,6058048af51d8575c7e71a76,United States,East coast,13 or older,no,2021-03-21_22h45.49.462,empathy_intonation_perc,2020.2.10,Win32,60,,,,,,,,,,1,,,,,,,,,,,,,,,,,,,,,,,,,,,,,,,,,,,,,,,,52,camisa,,,1,1,0.558015,0,87,87,51,1,REAL,FAKE,,,,,,,,,,,,,,,,,,,,,
,,,,,,,602c790b7597b0571b1e1472,6057c54e64b0b4e5c128b4f9,6058048af51d8575c7e71a76,United States,East coast,13 or older,no,2021-03-21_22h45.49.462,empathy_intonation_perc,2020.2.10,Win32,60,,,,,,,,,,1,,,,,,,,,,,,,,,,,,,,,,,,,,,,,,,,,,,,,,,,44,cuchara,,,1,1,0.675785,0,88,88,43,1,REAL,FAKE,,,,,,,,,,,,,,,,,,,,,
,,,,,,,602c790b7597b0571b1e1472,6057c54e64b0b4e5c128b4f9,6058048af51d8575c7e71a76,United States,East coast,13 or older,no,2021-03-21_22h45.49.462,empathy_intonation_perc,2020.2.10,Win32,60,,,,,,,,,,0,,,,,,,,,,,,,,,,,,,,,,,,,,,,,,,,,,,,,,,,53,vegada,,,0,1,1.050905,0,89,89,52,1,REAL,FAKE,,,,,,,,,,,,,,,,,,,,,
,,,,,,,602c790b7597b0571b1e1472,6057c54e64b0b4e5c128b4f9,6058048af51d8575c7e71a76,United States,East coast,13 or older,no,2021-03-21_22h45.49.462,empathy_intonation_perc,2020.2.10,Win32,60,,,,,,,,,,,,,,,,,,,,,,,,,,,,,,,,,,,,,,,,,,,,,,,,,,,,,,,,,,,,,,,,4,1,2.152895,1,0,0,0,0,0,1,,,,,,,,,,,
,,,,,,,602c790b7597b0571b1e1472,6057c54e64b0b4e5c128b4f9,6058048af51d8575c7e71a76,United States,East coast,13 or older,no,2021-03-21_22h45.49.462,empathy_intonation_perc,2020.2.10,Win32,60,,,,,,,,,,,,,,,,,,,,1,,,,,,,,,,,,,,,,,,,,,,,,,,,,,,,,,,,,,,,,,,,,,,,,,,,,,,2,0,0,0,0,1,I can easily tell if someone else wants to enter a conversation.,1,0,1,0
,,,,,,,602c790b7597b0571b1e1472,6057c54e64b0b4e5c128b4f9,6058048af51d8575c7e71a76,United States,East coast,13 or older,no,2021-03-21_22h45.49.462,empathy_intonation_perc,2020.2.10,Win32,60,,,,,,,,,,,,,,,,,,,,2,,,,,,,,,,,,,,,,,,,,,,,,,,,,,,,,,,,,,,,,,,,,,,,,,,,,,,1,0,1,1,1,1,I prefer animals to humans.,0,1,0,0
,,,,,,,602c790b7597b0571b1e1472,6057c54e64b0b4e5c128b4f9,6058048af51d8575c7e71a76,United States,East coast,13 or older,no,2021-03-21_22h45.49.462,empathy_intonation_perc,2020.2.10,Win32,60,,,,,,,,,,,,,,,,,,,,3,,,,,,,,,,,,,,,,,,,,,,,,,,,,,,,,,,,,,,,,,,,,,,,,,,,,,,2,0,2,2,2,1,I try to keep up with the current trends and fashions.,0,1,0,0
