instructions_2afc_loop.thisRepN,instructions_2afc_loop.thisTrialN,instructions_2afc_loop.thisN,instructions_2afc_loop.thisIndex,instructions_2afc_loop.ran,instructions_text,continue_text,participant,study_id,session,I am most familiar with Spanish from...*,What part of the US are you from?*,At what age did you begin learning Spanish?*,Are you proficient in any languages other than English/Spanish?*,date,expName,psychopyVersion,OS,frameRate,key_resp_2afc_practice.keys,key_resp_2afc_practice.corr,key_resp_2afc_practice.rt,trials_2afc_practice_loop.thisRepN,trials_2afc_practice_loop.thisTrialN,trials_2afc_practice_loop.thisN,trials_2afc_practice_loop.thisIndex,trials_2afc_practice_loop.ran,path,correct_response,the_col,key_resp_2afc_trial.keys,key_resp_2afc_trial.corr,key_resp_2afc_trial.rt,trials_2afc_loop.thisRepN,trials_2afc_loop.thisTrialN,trials_2afc_loop.thisN,trials_2afc_loop.thisIndex,trials_2afc_loop.ran,item_num,andalusian,argentine,castilian,chilean,cuban,mexican,peruvian,puertorican,key_resp_ac1.keys,key_resp_ac1.corr,key_resp_ac1.rt,ac1_loop.thisRepN,ac1_loop.thisTrialN,ac1_loop.thisN,ac1_loop.thisIndex,ac1_loop.ran,instructions_lextale_loop.thisRepN,instructions_lextale_loop.thisTrialN,instructions_lextale_loop.thisN,instructions_lextale_loop.thisIndex,instructions_lextale_loop.ran,key_resp_lextale_practice.keys,key_resp_lextale_practice.corr,key_resp_lextale_practice.rt,trials_lextale_practice_loop.thisRepN,trials_lextale_practice_loop.thisTrialN,trials_lextale_practice_loop.thisN,trials_lextale_practice_loop.thisIndex,trials_lextale_practice_loop.ran,stim,word,prac_button_real,prac_button_false,key_resp_lextale_trial.keys,key_resp_lextale_trial.corr,key_resp_lextale_trial.rt,trials_lextale_loop.thisRepN,trials_lextale_loop.thisTrialN,trials_lextale_loop.thisN,trials_lextale_loop.thisIndex,trials_lextale_loop.ran,button_real,button_false,key_resp_ac2.keys,key_resp_ac2.corr,key_resp_ac2.rt,check_pass,check_fails,ac2_loop.thisRepN,ac2_loop.thisTrialN,ac2_loop.thisN,ac2_loop.thisIndex,ac2_loop.ran,slider_eq_trial.response,trials_eq_loop.thisRepN,trials_eq_loop.thisTrialN,trials_eq_loop.thisN,trials_eq_loop.thisIndex,trials_eq_loop.ran,item,is_test_item,is_distractor,is_agree_score,is_disagree_score
0,0,0,0,1,"In the following task you are going to hear a series of utterances. 

  You will decide if the utterances sound like questions or not using your keyboard.",(press the spacebar to continue),603454dbbea63e24a99aabd2,605b45a4d25f287719a41696,605b92b03c7dd47b8ef6be4a,I am not familiar with Spanish,Midwest,NA,no,2021-03-24_14h28.04.856,empathy_intonation_perc,2020.2.10,MacIntel,60,,,,,,,,,,,,,,,,,,,,,,,,,,,,,,,,,,,,,,,,,,,,,,,,,,,,,,,,,,,,,,,,,,,,,,,,,,,,,,,,,,,,
0,1,1,1,1,"If you believe the utterance is a question, type '1' (for 'yes') and if you do not 
  believe it is a question type '0' (for 'no').

  Let's practice a bit...",(press the spacebar to continue),603454dbbea63e24a99aabd2,605b45a4d25f287719a41696,605b92b03c7dd47b8ef6be4a,I am not familiar with Spanish,Midwest,NA,no,2021-03-24_14h28.04.856,empathy_intonation_perc,2020.2.10,MacIntel,60,,,,,,,,,,,,,,,,,,,,,,,,,,,,,,,,,,,,,,,,,,,,,,,,,,,,,,,,,,,,,,,,,,,,,,,,,,,,,,,,,,,,
,,,,,,,603454dbbea63e24a99aabd2,605b45a4d25f287719a41696,605b92b03c7dd47b8ef6be4a,I am not familiar with Spanish,Midwest,NA,no,2021-03-24_14h28.04.856,empathy_intonation_perc,2020.2.10,MacIntel,60,1,1,3.12148,0,0,0,1,1,./stim/wavs/argentine_question_filler_Mi-vecino-habla-mucho.wav,1,,,,,,,,,,,,,,,,,,,,,,,,,,,,,,,,,,,,,,,,,,,,,,,,,,,,,,,,,,,,,,,,,,,,,,,,,,
,,,,,,,603454dbbea63e24a99aabd2,605b45a4d25f287719a41696,605b92b03c7dd47b8ef6be4a,I am not familiar with Spanish,Midwest,NA,no,2021-03-24_14h28.04.856,empathy_intonation_perc,2020.2.10,MacIntel,60,0,1,2.24278,0,1,1,6,1,./stim/wavs/peruvian_statement_filler_El-nino-habla-con-su-madre.wav,0,,,,,,,,,,,,,,,,,,,,,,,,,,,,,,,,,,,,,,,,,,,,,,,,,,,,,,,,,,,,,,,,,,,,,,,,,,
,,,,,,,603454dbbea63e24a99aabd2,605b45a4d25f287719a41696,605b92b03c7dd47b8ef6be4a,I am not familiar with Spanish,Midwest,NA,no,2021-03-24_14h28.04.856,empathy_intonation_perc,2020.2.10,MacIntel,60,1,1,1.98468,0,2,2,3,1,./stim/wavs/mexican_question_filler_Felipe-no-tiene-contrasena.wav,1,,,,,,,,,,,,,,,,,,,,,,,,,,,,,,,,,,,,,,,,,,,,,,,,,,,,,,,,,,,,,,,,,,,,,,,,,,
,,,,,,,603454dbbea63e24a99aabd2,605b45a4d25f287719a41696,605b92b03c7dd47b8ef6be4a,I am not familiar with Spanish,Midwest,NA,no,2021-03-24_14h28.04.856,empathy_intonation_perc,2020.2.10,MacIntel,60,1,1,1.85017,0,3,3,0,1,./stim/wavs/castilian_question_filler_Mi-esposo-conoce-al-chico.wav,1,,,,,,,,,,,,,,,,,,,,,,,,,,,,,,,,,,,,,,,,,,,,,,,,,,,,,,,,,,,,,,,,,,,,,,,,,,
,,,,,,,603454dbbea63e24a99aabd2,605b45a4d25f287719a41696,605b92b03c7dd47b8ef6be4a,I am not familiar with Spanish,Midwest,NA,no,2021-03-24_14h28.04.856,empathy_intonation_perc,2020.2.10,MacIntel,60,0,0,1.549885,0,4,4,2,1,./stim/wavs/chilean_question_filler_Mi-padre-cantaba-bien.wav,1,,,,,,,,,,,,,,,,,,,,,,,,,,,,,,,,,,,,,,,,,,,,,,,,,,,,,,,,,,,,,,,,,,,,,,,,,,
,,,,,,,603454dbbea63e24a99aabd2,605b45a4d25f287719a41696,605b92b03c7dd47b8ef6be4a,I am not familiar with Spanish,Midwest,NA,no,2021-03-24_14h28.04.856,empathy_intonation_perc,2020.2.10,MacIntel,60,0,1,1.537335,0,5,5,4,1,./stim/wavs/cuban_statement_filler_Cocinabas-por-la-noche.wav,0,,,,,,,,,,,,,,,,,,,,,,,,,,,,,,,,,,,,,,,,,,,,,,,,,,,,,,,,,,,,,,,,,,,,,,,,,,
,,,,,,,603454dbbea63e24a99aabd2,605b45a4d25f287719a41696,605b92b03c7dd47b8ef6be4a,I am not familiar with Spanish,Midwest,NA,no,2021-03-24_14h28.04.856,empathy_intonation_perc,2020.2.10,MacIntel,60,0,1,1.694695,0,6,6,7,1,./stim/wavs/puertorican_statement_filler_La-nina-pinta-con-su-amiga.wav,0,,,,,,,,,,,,,,,,,,,,,,,,,,,,,,,,,,,,,,,,,,,,,,,,,,,,,,,,,,,,,,,,,,,,,,,,,,
,,,,,,,603454dbbea63e24a99aabd2,605b45a4d25f287719a41696,605b92b03c7dd47b8ef6be4a,I am not familiar with Spanish,Midwest,NA,no,2021-03-24_14h28.04.856,empathy_intonation_perc,2020.2.10,MacIntel,60,0,1,1.703075,0,7,7,5,1,./stim/wavs/andalusian_statement_filler_Alberto-nunca-se-afeita.wav,0,,,,,,,,,,,,,,,,,,,,,,,,,,,,,,,,,,,,,,,,,,,,,,,,,,,,,,,,,,,,,,,,,,,,,,,,,,
,,,,,,,603454dbbea63e24a99aabd2,605b45a4d25f287719a41696,605b92b03c7dd47b8ef6be4a,I am not familiar with Spanish,Midwest,NA,no,2021-03-24_14h28.04.856,empathy_intonation_perc,2020.2.10,MacIntel,60,,,,,,,,,,1,argentine,0,0,1.55086,0,0,0,17,1,18,./stim/wavs/andalusian_match_interrogative-partial-wh_Cuando-leia-el-libro.wav,./stim/wavs/argentine_match_interrogative-partial-wh_Cuando-leia-el-libro.wav,./stim/wavs/castilian_match_interrogative-partial-wh_Cuando-leia-el-libro.wav,./stim/wavs/chilean_match_interrogative-partial-wh_Cuando-leia-el-libro.wav,./stim/wavs/cuban_match_interrogative-partial-wh_Cuando-leia-el-libro.wav,./stim/wavs/mexican_match_interrogative-partial-wh_Cuando-leia-el-libro.wav,./stim/wavs/peruvian_match_interrogative-partial-wh_Cuando-leia-el-libro.wav,./stim/wavs/puertorican_match_interrogative-partial-wh_Cuando-leia-el-libro.wav,,,,,,,,,,,,,,,,,,,,,,,,,,,,,,,,,,,,,,,,,,,,,,,,,,,,,,,,
,,,,,,,603454dbbea63e24a99aabd2,605b45a4d25f287719a41696,605b92b03c7dd47b8ef6be4a,I am not familiar with Spanish,Midwest,NA,no,2021-03-24_14h28.04.856,empathy_intonation_perc,2020.2.10,MacIntel,60,,,,,,,,,,1,cuban,1,1,1.585135,0,1,1,23,1,24,./stim/wavs/andalusian_match_interrogative-partial-wh_Por-que-iba-a-Bolivia.wav,./stim/wavs/argentine_match_interrogative-partial-wh_Por-que-iba-a-Bolivia.wav,./stim/wavs/castilian_match_interrogative-partial-wh_Por-que-iba-a-Bolivia.wav,./stim/wavs/chilean_match_interrogative-partial-wh_Por-que-iba-a-Bolivia.wav,./stim/wavs/cuban_match_interrogative-partial-wh_Por-que-iba-a-Bolivia.wav,./stim/wavs/mexican_match_interrogative-partial-wh_Por-que-iba-a-Bolivia.wav,./stim/wavs/peruvian_match_interrogative-partial-wh_Por-que-iba-a-Bolivia.wav,./stim/wavs/puertorican_match_interrogative-partial-wh_Por-que-iba-a-Bolivia.wav,,,,,,,,,,,,,,,,,,,,,,,,,,,,,,,,,,,,,,,,,,,,,,,,,,,,,,,,
,,,,,,,603454dbbea63e24a99aabd2,605b45a4d25f287719a41696,605b92b03c7dd47b8ef6be4a,I am not familiar with Spanish,Midwest,NA,no,2021-03-24_14h28.04.856,empathy_intonation_perc,2020.2.10,MacIntel,60,,,,,,,,,,0,castilian,0,1,2.032965,0,2,2,43,1,44,./stim/wavs/andalusian_mismatch_declarative-narrow-focus_La-maestra-vive-en-Paris.wav,./stim/wavs/argentine_mismatch_declarative-narrow-focus_La-maestra-vive-en-Paris.wav,./stim/wavs/castilian_mismatch_declarative-narrow-focus_La-maestra-vive-en-Paris.wav,./stim/wavs/chilean_mismatch_declarative-narrow-focus_La-maestra-vive-en-Paris.wav,./stim/wavs/cuban_mismatch_declarative-narrow-focus_La-maestra-vive-en-Paris.wav,./stim/wavs/mexican_mismatch_declarative-narrow-focus_La-maestra-vive-en-Paris.wav,./stim/wavs/peruvian_mismatch_declarative-narrow-focus_La-maestra-vive-en-Paris.wav,./stim/wavs/puertorican_mismatch_declarative-narrow-focus_La-maestra-vive-en-Paris.wav,,,,,,,,,,,,,,,,,,,,,,,,,,,,,,,,,,,,,,,,,,,,,,,,,,,,,,,,
,,,,,,,603454dbbea63e24a99aabd2,605b45a4d25f287719a41696,605b92b03c7dd47b8ef6be4a,I am not familiar with Spanish,Midwest,NA,no,2021-03-24_14h28.04.856,empathy_intonation_perc,2020.2.10,MacIntel,60,,,,,,,,,,0,mexican,0,1,1.499615,0,3,3,14,1,15,./stim/wavs/andalusian_match_declarative-narrow-focus_Mariano-habla-del-tiempo.wav,./stim/wavs/argentine_match_declarative-narrow-focus_Mariano-habla-del-tiempo.wav,./stim/wavs/castilian_match_declarative-narrow-focus_Mariano-habla-del-tiempo.wav,./stim/wavs/chilean_match_declarative-narrow-focus_Mariano-habla-del-tiempo.wav,./stim/wavs/cuban_match_declarative-narrow-focus_Mariano-habla-del-tiempo.wav,./stim/wavs/mexican_match_declarative-narrow-focus_Mariano-habla-del-tiempo.wav,./stim/wavs/peruvian_match_declarative-narrow-focus_Mariano-habla-del-tiempo.wav,./stim/wavs/puertorican_match_declarative-narrow-focus_Mariano-habla-del-tiempo.wav,,,,,,,,,,,,,,,,,,,,,,,,,,,,,,,,,,,,,,,,,,,,,,,,,,,,,,,,
,,,,,,,603454dbbea63e24a99aabd2,605b45a4d25f287719a41696,605b92b03c7dd47b8ef6be4a,I am not familiar with Spanish,Midwest,NA,no,2021-03-24_14h28.04.856,empathy_intonation_perc,2020.2.10,MacIntel,60,,,,,,,,,,0,cuban,0,1,1.73364,0,4,4,39,1,40,./stim/wavs/andalusian_mismatch_declarative-broad-focus_Mi-tia-odia-la-lluvia.wav,./stim/wavs/argentine_mismatch_declarative-broad-focus_Mi-tia-odia-la-lluvia.wav,./stim/wavs/castilian_mismatch_declarative-broad-focus_Mi-tia-odia-la-lluvia.wav,./stim/wavs/chilean_mismatch_declarative-broad-focus_Mi-tia-odia-la-lluvia.wav,./stim/wavs/cuban_mismatch_declarative-broad-focus_Mi-tia-odia-la-lluvia.wav,./stim/wavs/mexican_mismatch_declarative-broad-focus_Mi-tia-odia-la-lluvia.wav,./stim/wavs/peruvian_mismatch_declarative-broad-focus_Mi-tia-odia-la-lluvia.wav,./stim/wavs/puertorican_mismatch_declarative-broad-focus_Mi-tia-odia-la-lluvia.wav,,,,,,,,,,,,,,,,,,,,,,,,,,,,,,,,,,,,,,,,,,,,,,,,,,,,,,,,
,,,,,,,603454dbbea63e24a99aabd2,605b45a4d25f287719a41696,605b92b03c7dd47b8ef6be4a,I am not familiar with Spanish,Midwest,NA,no,2021-03-24_14h28.04.856,empathy_intonation_perc,2020.2.10,MacIntel,60,,,,,,,,,,1,puertorican,0,0,1.75361,0,5,5,51,1,52,./stim/wavs/andalusian_mismatch_interrogative-partial-wh_Por-que-desayuna-muy-bien.wav,./stim/wavs/argentine_mismatch_interrogative-partial-wh_Por-que-desayuna-muy-bien.wav,./stim/wavs/castilian_mismatch_interrogative-partial-wh_Por-que-desayuna-muy-bien.wav,./stim/wavs/chilean_mismatch_interrogative-partial-wh_Por-que-desayuna-muy-bien.wav,./stim/wavs/cuban_mismatch_interrogative-partial-wh_Por-que-desayuna-muy-bien.wav,./stim/wavs/mexican_mismatch_interrogative-partial-wh_Por-que-desayuna-muy-bien.wav,./stim/wavs/peruvian_mismatch_interrogative-partial-wh_Por-que-desayuna-muy-bien.wav,./stim/wavs/puertorican_mismatch_interrogative-partial-wh_Por-que-desayuna-muy-bien.wav,,,,,,,,,,,,,,,,,,,,,,,,,,,,,,,,,,,,,,,,,,,,,,,,,,,,,,,,
,,,,,,,603454dbbea63e24a99aabd2,605b45a4d25f287719a41696,605b92b03c7dd47b8ef6be4a,I am not familiar with Spanish,Midwest,NA,no,2021-03-24_14h28.04.856,empathy_intonation_perc,2020.2.10,MacIntel,60,,,,,,,,,,0,castilian,0,1,1.985935,0,6,6,35,1,36,./stim/wavs/andalusian_mismatch_declarative-broad-focus_La-maestra-vive-en-Paris.wav,./stim/wavs/argentine_mismatch_declarative-broad-focus_La-maestra-vive-en-Paris.wav,./stim/wavs/castilian_mismatch_declarative-broad-focus_La-maestra-vive-en-Paris.wav,./stim/wavs/chilean_mismatch_declarative-broad-focus_La-maestra-vive-en-Paris.wav,./stim/wavs/cuban_mismatch_declarative-broad-focus_La-maestra-vive-en-Paris.wav,./stim/wavs/mexican_mismatch_declarative-broad-focus_La-maestra-vive-en-Paris.wav,./stim/wavs/peruvian_mismatch_declarative-broad-focus_La-maestra-vive-en-Paris.wav,./stim/wavs/puertorican_mismatch_declarative-broad-focus_La-maestra-vive-en-Paris.wav,,,,,,,,,,,,,,,,,,,,,,,,,,,,,,,,,,,,,,,,,,,,,,,,,,,,,,,,
,,,,,,,603454dbbea63e24a99aabd2,605b45a4d25f287719a41696,605b92b03c7dd47b8ef6be4a,I am not familiar with Spanish,Midwest,NA,no,2021-03-24_14h28.04.856,empathy_intonation_perc,2020.2.10,MacIntel,60,,,,,,,,,,1,cuban,1,1,1.45,0,7,7,63,1,64,./stim/wavs/andalusian_mismatch_interrogative-total-yn_Mi-tia-odia-la-lluvia.wav,./stim/wavs/argentine_mismatch_interrogative-total-yn_Mi-tia-odia-la-lluvia.wav,./stim/wavs/castilian_mismatch_interrogative-total-yn_Mi-tia-odia-la-lluvia.wav,./stim/wavs/chilean_mismatch_interrogative-total-yn_Mi-tia-odia-la-lluvia.wav,./stim/wavs/cuban_mismatch_interrogative-total-yn_Mi-tia-odia-la-lluvia.wav,./stim/wavs/mexican_mismatch_interrogative-total-yn_Mi-tia-odia-la-lluvia.wav,./stim/wavs/peruvian_mismatch_interrogative-total-yn_Mi-tia-odia-la-lluvia.wav,./stim/wavs/puertorican_mismatch_interrogative-total-yn_Mi-tia-odia-la-lluvia.wav,,,,,,,,,,,,,,,,,,,,,,,,,,,,,,,,,,,,,,,,,,,,,,,,,,,,,,,,
,,,,,,,603454dbbea63e24a99aabd2,605b45a4d25f287719a41696,605b92b03c7dd47b8ef6be4a,I am not familiar with Spanish,Midwest,NA,no,2021-03-24_14h28.04.856,empathy_intonation_perc,2020.2.10,MacIntel,60,,,,,,,,,,1,mexican,0,0,1.530825,0,8,8,29,1,30,./stim/wavs/andalusian_match_interrogative-total-yn_Maria-bebe-el-vino.wav,./stim/wavs/argentine_match_interrogative-total-yn_Maria-bebe-el-vino.wav,./stim/wavs/castilian_match_interrogative-total-yn_Maria-bebe-el-vino.wav,./stim/wavs/chilean_match_interrogative-total-yn_Maria-bebe-el-vino.wav,./stim/wavs/cuban_match_interrogative-total-yn_Maria-bebe-el-vino.wav,./stim/wavs/mexican_match_interrogative-total-yn_Maria-bebe-el-vino.wav,./stim/wavs/peruvian_match_interrogative-total-yn_Maria-bebe-el-vino.wav,./stim/wavs/puertorican_match_interrogative-total-yn_Maria-bebe-el-vino.wav,,,,,,,,,,,,,,,,,,,,,,,,,,,,,,,,,,,,,,,,,,,,,,,,,,,,,,,,
,,,,,,,603454dbbea63e24a99aabd2,605b45a4d25f287719a41696,605b92b03c7dd47b8ef6be4a,I am not familiar with Spanish,Midwest,NA,no,2021-03-24_14h28.04.856,empathy_intonation_perc,2020.2.10,MacIntel,60,,,,,,,,,,0,cuban,0,1,1.867155,0,9,9,1,1,2,./stim/wavs/andalusian_match_declarative-broad-focus_Daniel-iba-a-Bolivia.wav,./stim/wavs/argentine_match_declarative-broad-focus_Daniel-iba-a-Bolivia.wav,./stim/wavs/castilian_match_declarative-broad-focus_Daniel-iba-a-Bolivia.wav,./stim/wavs/chilean_match_declarative-broad-focus_Daniel-iba-a-Bolivia.wav,./stim/wavs/cuban_match_declarative-broad-focus_Daniel-iba-a-Bolivia.wav,./stim/wavs/mexican_match_declarative-broad-focus_Daniel-iba-a-Bolivia.wav,./stim/wavs/peruvian_match_declarative-broad-focus_Daniel-iba-a-Bolivia.wav,./stim/wavs/puertorican_match_declarative-broad-focus_Daniel-iba-a-Bolivia.wav,,,,,,,,,,,,,,,,,,,,,,,,,,,,,,,,,,,,,,,,,,,,,,,,,,,,,,,,
,,,,,,,603454dbbea63e24a99aabd2,605b45a4d25f287719a41696,605b92b03c7dd47b8ef6be4a,I am not familiar with Spanish,Midwest,NA,no,2021-03-24_14h28.04.856,empathy_intonation_perc,2020.2.10,MacIntel,60,,,,,,,,,,0,andalusian,1,0,1.76548,0,10,10,10,1,11,./stim/wavs/andalusian_match_declarative-narrow-focus_David-leia-el-libro.wav,./stim/wavs/argentine_match_declarative-narrow-focus_David-leia-el-libro.wav,./stim/wavs/castilian_match_declarative-narrow-focus_David-leia-el-libro.wav,./stim/wavs/chilean_match_declarative-narrow-focus_David-leia-el-libro.wav,./stim/wavs/cuban_match_declarative-narrow-focus_David-leia-el-libro.wav,./stim/wavs/mexican_match_declarative-narrow-focus_David-leia-el-libro.wav,./stim/wavs/peruvian_match_declarative-narrow-focus_David-leia-el-libro.wav,./stim/wavs/puertorican_match_declarative-narrow-focus_David-leia-el-libro.wav,,,,,,,,,,,,,,,,,,,,,,,,,,,,,,,,,,,,,,,,,,,,,,,,,,,,,,,,
,,,,,,,603454dbbea63e24a99aabd2,605b45a4d25f287719a41696,605b92b03c7dd47b8ef6be4a,I am not familiar with Spanish,Midwest,NA,no,2021-03-24_14h28.04.856,empathy_intonation_perc,2020.2.10,MacIntel,60,,,,,,,,,,1,chilean,1,1,1.598955,0,11,11,21,1,22,./stim/wavs/andalusian_match_interrogative-partial-wh_Por-que-ama-la-navidad.wav,./stim/wavs/argentine_match_interrogative-partial-wh_Por-que-ama-la-navidad.wav,./stim/wavs/castilian_match_interrogative-partial-wh_Por-que-ama-la-navidad.wav,./stim/wavs/chilean_match_interrogative-partial-wh_Por-que-ama-la-navidad.wav,./stim/wavs/cuban_match_interrogative-partial-wh_Por-que-ama-la-navidad.wav,./stim/wavs/mexican_match_interrogative-partial-wh_Por-que-ama-la-navidad.wav,./stim/wavs/peruvian_match_interrogative-partial-wh_Por-que-ama-la-navidad.wav,./stim/wavs/puertorican_match_interrogative-partial-wh_Por-que-ama-la-navidad.wav,,,,,,,,,,,,,,,,,,,,,,,,,,,,,,,,,,,,,,,,,,,,,,,,,,,,,,,,
,,,,,,,603454dbbea63e24a99aabd2,605b45a4d25f287719a41696,605b92b03c7dd47b8ef6be4a,I am not familiar with Spanish,Midwest,NA,no,2021-03-24_14h28.04.856,empathy_intonation_perc,2020.2.10,MacIntel,60,,,,,,,,,,0,puertorican,0,1,1.418665,0,12,12,44,1,45,./stim/wavs/andalusian_mismatch_declarative-narrow-focus_La-nina-lava-el-plato.wav,./stim/wavs/argentine_mismatch_declarative-narrow-focus_La-nina-lava-el-plato.wav,./stim/wavs/castilian_mismatch_declarative-narrow-focus_La-nina-lava-el-plato.wav,./stim/wavs/chilean_mismatch_declarative-narrow-focus_La-nina-lava-el-plato.wav,./stim/wavs/cuban_mismatch_declarative-narrow-focus_La-nina-lava-el-plato.wav,./stim/wavs/mexican_mismatch_declarative-narrow-focus_La-nina-lava-el-plato.wav,./stim/wavs/peruvian_mismatch_declarative-narrow-focus_La-nina-lava-el-plato.wav,./stim/wavs/puertorican_mismatch_declarative-narrow-focus_La-nina-lava-el-plato.wav,,,,,,,,,,,,,,,,,,,,,,,,,,,,,,,,,,,,,,,,,,,,,,,,,,,,,,,,
,,,,,,,603454dbbea63e24a99aabd2,605b45a4d25f287719a41696,605b92b03c7dd47b8ef6be4a,I am not familiar with Spanish,Midwest,NA,no,2021-03-24_14h28.04.856,empathy_intonation_perc,2020.2.10,MacIntel,60,,,,,,,,,,0,castilian,0,1,1.665975,0,13,13,15,1,16,./stim/wavs/andalusian_match_declarative-narrow-focus_Marta-abre-el-regalo.wav,./stim/wavs/argentine_match_declarative-narrow-focus_Marta-abre-el-regalo.wav,./stim/wavs/castilian_match_declarative-narrow-focus_Marta-abre-el-regalo.wav,./stim/wavs/chilean_match_declarative-narrow-focus_Marta-abre-el-regalo.wav,./stim/wavs/cuban_match_declarative-narrow-focus_Marta-abre-el-regalo.wav,./stim/wavs/mexican_match_declarative-narrow-focus_Marta-abre-el-regalo.wav,./stim/wavs/peruvian_match_declarative-narrow-focus_Marta-abre-el-regalo.wav,./stim/wavs/puertorican_match_declarative-narrow-focus_Marta-abre-el-regalo.wav,,,,,,,,,,,,,,,,,,,,,,,,,,,,,,,,,,,,,,,,,,,,,,,,,,,,,,,,
,,,,,,,603454dbbea63e24a99aabd2,605b45a4d25f287719a41696,605b92b03c7dd47b8ef6be4a,I am not familiar with Spanish,Midwest,NA,no,2021-03-24_14h28.04.856,empathy_intonation_perc,2020.2.10,MacIntel,60,,,,,,,,,,1,cuban,0,0,1.403625,0,14,14,25,1,26,./stim/wavs/andalusian_match_interrogative-total-yn_Daniel-iba-a-Bolivia.wav,./stim/wavs/argentine_match_interrogative-total-yn_Daniel-iba-a-Bolivia.wav,./stim/wavs/castilian_match_interrogative-total-yn_Daniel-iba-a-Bolivia.wav,./stim/wavs/chilean_match_interrogative-total-yn_Daniel-iba-a-Bolivia.wav,./stim/wavs/cuban_match_interrogative-total-yn_Daniel-iba-a-Bolivia.wav,./stim/wavs/mexican_match_interrogative-total-yn_Daniel-iba-a-Bolivia.wav,./stim/wavs/peruvian_match_interrogative-total-yn_Daniel-iba-a-Bolivia.wav,./stim/wavs/puertorican_match_interrogative-total-yn_Daniel-iba-a-Bolivia.wav,,,,,,,,,,,,,,,,,,,,,,,,,,,,,,,,,,,,,,,,,,,,,,,,,,,,,,,,
,,,,,,,603454dbbea63e24a99aabd2,605b45a4d25f287719a41696,605b92b03c7dd47b8ef6be4a,I am not familiar with Spanish,Midwest,NA,no,2021-03-24_14h28.04.856,empathy_intonation_perc,2020.2.10,MacIntel,60,,,,,,,,,,1,puertorican,1,1,1.334275,0,15,15,18,1,19,./stim/wavs/andalusian_match_interrogative-partial-wh_Cuando-lleva-el-abrigo.wav,./stim/wavs/argentine_match_interrogative-partial-wh_Cuando-lleva-el-abrigo.wav,./stim/wavs/castilian_match_interrogative-partial-wh_Cuando-lleva-el-abrigo.wav,./stim/wavs/chilean_match_interrogative-partial-wh_Cuando-lleva-el-abrigo.wav,./stim/wavs/cuban_match_interrogative-partial-wh_Cuando-lleva-el-abrigo.wav,./stim/wavs/mexican_match_interrogative-partial-wh_Cuando-lleva-el-abrigo.wav,./stim/wavs/peruvian_match_interrogative-partial-wh_Cuando-lleva-el-abrigo.wav,./stim/wavs/puertorican_match_interrogative-partial-wh_Cuando-lleva-el-abrigo.wav,,,,,,,,,,,,,,,,,,,,,,,,,,,,,,,,,,,,,,,,,,,,,,,,,,,,,,,,
,,,,,,,603454dbbea63e24a99aabd2,605b45a4d25f287719a41696,605b92b03c7dd47b8ef6be4a,I am not familiar with Spanish,Midwest,NA,no,2021-03-24_14h28.04.856,empathy_intonation_perc,2020.2.10,MacIntel,60,,,,,,,,,,1,castilian,1,1,1.454755,0,16,16,57,1,58,./stim/wavs/andalusian_mismatch_interrogative-total-yn_El-hombre-mira-la-luna.wav,./stim/wavs/argentine_mismatch_interrogative-total-yn_El-hombre-mira-la-luna.wav,./stim/wavs/castilian_mismatch_interrogative-total-yn_El-hombre-mira-la-luna.wav,./stim/wavs/chilean_mismatch_interrogative-total-yn_El-hombre-mira-la-luna.wav,./stim/wavs/cuban_mismatch_interrogative-total-yn_El-hombre-mira-la-luna.wav,./stim/wavs/mexican_mismatch_interrogative-total-yn_El-hombre-mira-la-luna.wav,./stim/wavs/peruvian_mismatch_interrogative-total-yn_El-hombre-mira-la-luna.wav,./stim/wavs/puertorican_mismatch_interrogative-total-yn_El-hombre-mira-la-luna.wav,,,,,,,,,,,,,,,,,,,,,,,,,,,,,,,,,,,,,,,,,,,,,,,,,,,,,,,,
,,,,,,,603454dbbea63e24a99aabd2,605b45a4d25f287719a41696,605b92b03c7dd47b8ef6be4a,I am not familiar with Spanish,Midwest,NA,no,2021-03-24_14h28.04.856,empathy_intonation_perc,2020.2.10,MacIntel,60,,,,,,,,,,0,chilean,0,1,1.498355,0,17,17,12,1,13,./stim/wavs/andalusian_match_declarative-narrow-focus_Manuela-vende-el-carro.wav,./stim/wavs/argentine_match_declarative-narrow-focus_Manuela-vende-el-carro.wav,./stim/wavs/castilian_match_declarative-narrow-focus_Manuela-vende-el-carro.wav,./stim/wavs/chilean_match_declarative-narrow-focus_Manuela-vende-el-carro.wav,./stim/wavs/cuban_match_declarative-narrow-focus_Manuela-vende-el-carro.wav,./stim/wavs/mexican_match_declarative-narrow-focus_Manuela-vende-el-carro.wav,./stim/wavs/peruvian_match_declarative-narrow-focus_Manuela-vende-el-carro.wav,./stim/wavs/puertorican_match_declarative-narrow-focus_Manuela-vende-el-carro.wav,,,,,,,,,,,,,,,,,,,,,,,,,,,,,,,,,,,,,,,,,,,,,,,,,,,,,,,,
,,,,,,,603454dbbea63e24a99aabd2,605b45a4d25f287719a41696,605b92b03c7dd47b8ef6be4a,I am not familiar with Spanish,Midwest,NA,no,2021-03-24_14h28.04.856,empathy_intonation_perc,2020.2.10,MacIntel,60,,,,,,,,,,0,puertorican,0,1,1.567565,0,18,18,6,1,7,./stim/wavs/andalusian_match_declarative-broad-focus_Mariano-habla-del-tiempo.wav,./stim/wavs/argentine_match_declarative-broad-focus_Mariano-habla-del-tiempo.wav,./stim/wavs/castilian_match_declarative-broad-focus_Mariano-habla-del-tiempo.wav,./stim/wavs/chilean_match_declarative-broad-focus_Mariano-habla-del-tiempo.wav,./stim/wavs/cuban_match_declarative-broad-focus_Mariano-habla-del-tiempo.wav,./stim/wavs/mexican_match_declarative-broad-focus_Mariano-habla-del-tiempo.wav,./stim/wavs/peruvian_match_declarative-broad-focus_Mariano-habla-del-tiempo.wav,./stim/wavs/puertorican_match_declarative-broad-focus_Mariano-habla-del-tiempo.wav,,,,,,,,,,,,,,,,,,,,,,,,,,,,,,,,,,,,,,,,,,,,,,,,,,,,,,,,
,,,,,,,603454dbbea63e24a99aabd2,605b45a4d25f287719a41696,605b92b03c7dd47b8ef6be4a,I am not familiar with Spanish,Midwest,NA,no,2021-03-24_14h28.04.856,empathy_intonation_perc,2020.2.10,MacIntel,60,,,,,,,,,,1,castilian,1,1,1.531815,0,19,19,55,1,56,./stim/wavs/andalusian_mismatch_interrogative-partial-wh_Por-que-vivia-en-Paris.wav,./stim/wavs/argentine_mismatch_interrogative-partial-wh_Por-que-vivia-en-Paris.wav,./stim/wavs/castilian_mismatch_interrogative-partial-wh_Por-que-vivia-en-Paris.wav,./stim/wavs/chilean_mismatch_interrogative-partial-wh_Por-que-vivia-en-Paris.wav,./stim/wavs/cuban_mismatch_interrogative-partial-wh_Por-que-vivia-en-Paris.wav,./stim/wavs/mexican_mismatch_interrogative-partial-wh_Por-que-vivia-en-Paris.wav,./stim/wavs/peruvian_mismatch_interrogative-partial-wh_Por-que-vivia-en-Paris.wav,./stim/wavs/puertorican_mismatch_interrogative-partial-wh_Por-que-vivia-en-Paris.wav,,,,,,,,,,,,,,,,,,,,,,,,,,,,,,,,,,,,,,,,,,,,,,,,,,,,,,,,
,,,,,,,603454dbbea63e24a99aabd2,605b45a4d25f287719a41696,605b92b03c7dd47b8ef6be4a,I am not familiar with Spanish,Midwest,NA,no,2021-03-24_14h28.04.856,empathy_intonation_perc,2020.2.10,MacIntel,60,,,,,,,,,,1,puertorican,0,0,1.55108,0,20,20,60,1,61,./stim/wavs/andalusian_mismatch_interrogative-total-yn_La-nina-lava-el-plato.wav,./stim/wavs/argentine_mismatch_interrogative-total-yn_La-nina-lava-el-plato.wav,./stim/wavs/castilian_mismatch_interrogative-total-yn_La-nina-lava-el-plato.wav,./stim/wavs/chilean_mismatch_interrogative-total-yn_La-nina-lava-el-plato.wav,./stim/wavs/cuban_mismatch_interrogative-total-yn_La-nina-lava-el-plato.wav,./stim/wavs/mexican_mismatch_interrogative-total-yn_La-nina-lava-el-plato.wav,./stim/wavs/peruvian_mismatch_interrogative-total-yn_La-nina-lava-el-plato.wav,./stim/wavs/puertorican_mismatch_interrogative-total-yn_La-nina-lava-el-plato.wav,,,,,,,,,,,,,,,,,,,,,,,,,,,,,,,,,,,,,,,,,,,,,,,,,,,,,,,,
,,,,,,,603454dbbea63e24a99aabd2,605b45a4d25f287719a41696,605b92b03c7dd47b8ef6be4a,I am not familiar with Spanish,Midwest,NA,no,2021-03-24_14h28.04.856,empathy_intonation_perc,2020.2.10,MacIntel,60,,,,,,,,,,0,andalusian,0,1,1.548475,0,21,21,46,1,47,./stim/wavs/andalusian_mismatch_declarative-narrow-focus_Mi-novio-viene-del-lago.wav,./stim/wavs/argentine_mismatch_declarative-narrow-focus_Mi-novio-viene-del-lago.wav,./stim/wavs/castilian_mismatch_declarative-narrow-focus_Mi-novio-viene-del-lago.wav,./stim/wavs/chilean_mismatch_declarative-narrow-focus_Mi-novio-viene-del-lago.wav,./stim/wavs/cuban_mismatch_declarative-narrow-focus_Mi-novio-viene-del-lago.wav,./stim/wavs/mexican_mismatch_declarative-narrow-focus_Mi-novio-viene-del-lago.wav,./stim/wavs/peruvian_mismatch_declarative-narrow-focus_Mi-novio-viene-del-lago.wav,./stim/wavs/puertorican_mismatch_declarative-narrow-focus_Mi-novio-viene-del-lago.wav,,,,,,,,,,,,,,,,,,,,,,,,,,,,,,,,,,,,,,,,,,,,,,,,,,,,,,,,
,,,,,,,603454dbbea63e24a99aabd2,605b45a4d25f287719a41696,605b92b03c7dd47b8ef6be4a,I am not familiar with Spanish,Midwest,NA,no,2021-03-24_14h28.04.856,empathy_intonation_perc,2020.2.10,MacIntel,60,,,,,,,,,,0,mexican,0,1,1.334915,0,22,22,37,1,38,./stim/wavs/andalusian_mismatch_declarative-broad-focus_Mi-madre-come-la-fruta.wav,./stim/wavs/argentine_mismatch_declarative-broad-focus_Mi-madre-come-la-fruta.wav,./stim/wavs/castilian_mismatch_declarative-broad-focus_Mi-madre-come-la-fruta.wav,./stim/wavs/chilean_mismatch_declarative-broad-focus_Mi-madre-come-la-fruta.wav,./stim/wavs/cuban_mismatch_declarative-broad-focus_Mi-madre-come-la-fruta.wav,./stim/wavs/mexican_mismatch_declarative-broad-focus_Mi-madre-come-la-fruta.wav,./stim/wavs/peruvian_mismatch_declarative-broad-focus_Mi-madre-come-la-fruta.wav,./stim/wavs/puertorican_mismatch_declarative-broad-focus_Mi-madre-come-la-fruta.wav,,,,,,,,,,,,,,,,,,,,,,,,,,,,,,,,,,,,,,,,,,,,,,,,,,,,,,,,
,,,,,,,603454dbbea63e24a99aabd2,605b45a4d25f287719a41696,605b92b03c7dd47b8ef6be4a,I am not familiar with Spanish,Midwest,NA,no,2021-03-24_14h28.04.856,empathy_intonation_perc,2020.2.10,MacIntel,60,,,,,,,,,,1,andalusian,1,1,1.517975,0,23,23,48,1,49,./stim/wavs/andalusian_mismatch_interrogative-partial-wh_Cuando-comia-la-fruta.wav,./stim/wavs/argentine_mismatch_interrogative-partial-wh_Cuando-comia-la-fruta.wav,./stim/wavs/castilian_mismatch_interrogative-partial-wh_Cuando-comia-la-fruta.wav,./stim/wavs/chilean_mismatch_interrogative-partial-wh_Cuando-comia-la-fruta.wav,./stim/wavs/cuban_mismatch_interrogative-partial-wh_Cuando-comia-la-fruta.wav,./stim/wavs/mexican_mismatch_interrogative-partial-wh_Cuando-comia-la-fruta.wav,./stim/wavs/peruvian_mismatch_interrogative-partial-wh_Cuando-comia-la-fruta.wav,./stim/wavs/puertorican_mismatch_interrogative-partial-wh_Cuando-comia-la-fruta.wav,,,,,,,,,,,,,,,,,,,,,,,,,,,,,,,,,,,,,,,,,,,,,,,,,,,,,,,,
,,,,,,,603454dbbea63e24a99aabd2,605b45a4d25f287719a41696,605b92b03c7dd47b8ef6be4a,I am not familiar with Spanish,Midwest,NA,no,2021-03-24_14h28.04.856,empathy_intonation_perc,2020.2.10,MacIntel,60,,,,,,,,,,1,cuban,1,1,1.431495,0,24,24,49,1,50,./stim/wavs/andalusian_mismatch_interrogative-partial-wh_Cuando-lavaba-el-plato.wav,./stim/wavs/argentine_mismatch_interrogative-partial-wh_Cuando-lavaba-el-plato.wav,./stim/wavs/castilian_mismatch_interrogative-partial-wh_Cuando-lavaba-el-plato.wav,./stim/wavs/chilean_mismatch_interrogative-partial-wh_Cuando-lavaba-el-plato.wav,./stim/wavs/cuban_mismatch_interrogative-partial-wh_Cuando-lavaba-el-plato.wav,./stim/wavs/mexican_mismatch_interrogative-partial-wh_Cuando-lavaba-el-plato.wav,./stim/wavs/peruvian_mismatch_interrogative-partial-wh_Cuando-lavaba-el-plato.wav,./stim/wavs/puertorican_mismatch_interrogative-partial-wh_Cuando-lavaba-el-plato.wav,,,,,,,,,,,,,,,,,,,,,,,,,,,,,,,,,,,,,,,,,,,,,,,,,,,,,,,,
,,,,,,,603454dbbea63e24a99aabd2,605b45a4d25f287719a41696,605b92b03c7dd47b8ef6be4a,I am not familiar with Spanish,Midwest,NA,no,2021-03-24_14h28.04.856,empathy_intonation_perc,2020.2.10,MacIntel,60,,,,,,,,,,1,mexican,1,1,1.518005,0,25,25,59,1,60,./stim/wavs/andalusian_mismatch_interrogative-total-yn_La-maestra-vive-en-Paris.wav,./stim/wavs/argentine_mismatch_interrogative-total-yn_La-maestra-vive-en-Paris.wav,./stim/wavs/castilian_mismatch_interrogative-total-yn_La-maestra-vive-en-Paris.wav,./stim/wavs/chilean_mismatch_interrogative-total-yn_La-maestra-vive-en-Paris.wav,./stim/wavs/cuban_mismatch_interrogative-total-yn_La-maestra-vive-en-Paris.wav,./stim/wavs/mexican_mismatch_interrogative-total-yn_La-maestra-vive-en-Paris.wav,./stim/wavs/peruvian_mismatch_interrogative-total-yn_La-maestra-vive-en-Paris.wav,./stim/wavs/puertorican_mismatch_interrogative-total-yn_La-maestra-vive-en-Paris.wav,,,,,,,,,,,,,,,,,,,,,,,,,,,,,,,,,,,,,,,,,,,,,,,,,,,,,,,,
,,,,,,,603454dbbea63e24a99aabd2,605b45a4d25f287719a41696,605b92b03c7dd47b8ef6be4a,I am not familiar with Spanish,Midwest,NA,no,2021-03-24_14h28.04.856,empathy_intonation_perc,2020.2.10,MacIntel,60,,,,,,,,,,1,cuban,1,1,1.550015,0,26,26,53,1,54,./stim/wavs/andalusian_mismatch_interrogative-partial-wh_Por-que-oia-el-rio.wav,./stim/wavs/argentine_mismatch_interrogative-partial-wh_Por-que-oia-el-rio.wav,./stim/wavs/castilian_mismatch_interrogative-partial-wh_Por-que-oia-el-rio.wav,./stim/wavs/chilean_mismatch_interrogative-partial-wh_Por-que-oia-el-rio.wav,./stim/wavs/cuban_mismatch_interrogative-partial-wh_Por-que-oia-el-rio.wav,./stim/wavs/mexican_mismatch_interrogative-partial-wh_Por-que-oia-el-rio.wav,./stim/wavs/peruvian_mismatch_interrogative-partial-wh_Por-que-oia-el-rio.wav,./stim/wavs/puertorican_mismatch_interrogative-partial-wh_Por-que-oia-el-rio.wav,,,,,,,,,,,,,,,,,,,,,,,,,,,,,,,,,,,,,,,,,,,,,,,,,,,,,,,,
,,,,,,,603454dbbea63e24a99aabd2,605b45a4d25f287719a41696,605b92b03c7dd47b8ef6be4a,I am not familiar with Spanish,Midwest,NA,no,2021-03-24_14h28.04.856,empathy_intonation_perc,2020.2.10,MacIntel,60,,,,,,,,,,0,peruvian,0,1,1.749985,0,27,27,42,1,43,./stim/wavs/andalusian_mismatch_declarative-narrow-focus_El-nino-oye-el-rio.wav,./stim/wavs/argentine_mismatch_declarative-narrow-focus_El-nino-oye-el-rio.wav,./stim/wavs/castilian_mismatch_declarative-narrow-focus_El-nino-oye-el-rio.wav,./stim/wavs/chilean_mismatch_declarative-narrow-focus_El-nino-oye-el-rio.wav,./stim/wavs/cuban_mismatch_declarative-narrow-focus_El-nino-oye-el-rio.wav,./stim/wavs/mexican_mismatch_declarative-narrow-focus_El-nino-oye-el-rio.wav,./stim/wavs/peruvian_mismatch_declarative-narrow-focus_El-nino-oye-el-rio.wav,./stim/wavs/puertorican_mismatch_declarative-narrow-focus_El-nino-oye-el-rio.wav,,,,,,,,,,,,,,,,,,,,,,,,,,,,,,,,,,,,,,,,,,,,,,,,,,,,,,,,
,,,,,,,603454dbbea63e24a99aabd2,605b45a4d25f287719a41696,605b92b03c7dd47b8ef6be4a,I am not familiar with Spanish,Midwest,NA,no,2021-03-24_14h28.04.856,empathy_intonation_perc,2020.2.10,MacIntel,60,,,,,,,,,,0,puertorican,1,0,1.60096,0,28,28,47,1,48,./stim/wavs/andalusian_mismatch_declarative-narrow-focus_Mi-tia-odia-la-lluvia.wav,./stim/wavs/argentine_mismatch_declarative-narrow-focus_Mi-tia-odia-la-lluvia.wav,./stim/wavs/castilian_mismatch_declarative-narrow-focus_Mi-tia-odia-la-lluvia.wav,./stim/wavs/chilean_mismatch_declarative-narrow-focus_Mi-tia-odia-la-lluvia.wav,./stim/wavs/cuban_mismatch_declarative-narrow-focus_Mi-tia-odia-la-lluvia.wav,./stim/wavs/mexican_mismatch_declarative-narrow-focus_Mi-tia-odia-la-lluvia.wav,./stim/wavs/peruvian_mismatch_declarative-narrow-focus_Mi-tia-odia-la-lluvia.wav,./stim/wavs/puertorican_mismatch_declarative-narrow-focus_Mi-tia-odia-la-lluvia.wav,,,,,,,,,,,,,,,,,,,,,,,,,,,,,,,,,,,,,,,,,,,,,,,,,,,,,,,,
,,,,,,,603454dbbea63e24a99aabd2,605b45a4d25f287719a41696,605b92b03c7dd47b8ef6be4a,I am not familiar with Spanish,Midwest,NA,no,2021-03-24_14h28.04.856,empathy_intonation_perc,2020.2.10,MacIntel,60,,,,,,,,,,0,castilian,0,1,1.38803,0,29,29,36,1,37,./stim/wavs/andalusian_mismatch_declarative-broad-focus_La-nina-lava-el-plato.wav,./stim/wavs/argentine_mismatch_declarative-broad-focus_La-nina-lava-el-plato.wav,./stim/wavs/castilian_mismatch_declarative-broad-focus_La-nina-lava-el-plato.wav,./stim/wavs/chilean_mismatch_declarative-broad-focus_La-nina-lava-el-plato.wav,./stim/wavs/cuban_mismatch_declarative-broad-focus_La-nina-lava-el-plato.wav,./stim/wavs/mexican_mismatch_declarative-broad-focus_La-nina-lava-el-plato.wav,./stim/wavs/peruvian_mismatch_declarative-broad-focus_La-nina-lava-el-plato.wav,./stim/wavs/puertorican_mismatch_declarative-broad-focus_La-nina-lava-el-plato.wav,,,,,,,,,,,,,,,,,,,,,,,,,,,,,,,,,,,,,,,,,,,,,,,,,,,,,,,,
,,,,,,,603454dbbea63e24a99aabd2,605b45a4d25f287719a41696,605b92b03c7dd47b8ef6be4a,I am not familiar with Spanish,Midwest,NA,no,2021-03-24_14h28.04.856,empathy_intonation_perc,2020.2.10,MacIntel,60,,,,,,,,,,0,argentine,0,1,1.3812,0,30,30,13,1,14,./stim/wavs/andalusian_match_declarative-narrow-focus_Maria-bebe-el-vino.wav,./stim/wavs/argentine_match_declarative-narrow-focus_Maria-bebe-el-vino.wav,./stim/wavs/castilian_match_declarative-narrow-focus_Maria-bebe-el-vino.wav,./stim/wavs/chilean_match_declarative-narrow-focus_Maria-bebe-el-vino.wav,./stim/wavs/cuban_match_declarative-narrow-focus_Maria-bebe-el-vino.wav,./stim/wavs/mexican_match_declarative-narrow-focus_Maria-bebe-el-vino.wav,./stim/wavs/peruvian_match_declarative-narrow-focus_Maria-bebe-el-vino.wav,./stim/wavs/puertorican_match_declarative-narrow-focus_Maria-bebe-el-vino.wav,,,,,,,,,,,,,,,,,,,,,,,,,,,,,,,,,,,,,,,,,,,,,,,,,,,,,,,,
,,,,,,,603454dbbea63e24a99aabd2,605b45a4d25f287719a41696,605b92b03c7dd47b8ef6be4a,I am not familiar with Spanish,Midwest,NA,no,2021-03-24_14h28.04.856,empathy_intonation_perc,2020.2.10,MacIntel,60,,,,,,,,,,0,argentine,0,1,1.483455,0,31,31,40,1,41,./stim/wavs/andalusian_mismatch_declarative-narrow-focus_El-bebe-comia-muy-bien.wav,./stim/wavs/argentine_mismatch_declarative-narrow-focus_El-bebe-comia-muy-bien.wav,./stim/wavs/castilian_mismatch_declarative-narrow-focus_El-bebe-comia-muy-bien.wav,./stim/wavs/chilean_mismatch_declarative-narrow-focus_El-bebe-comia-muy-bien.wav,./stim/wavs/cuban_mismatch_declarative-narrow-focus_El-bebe-comia-muy-bien.wav,./stim/wavs/mexican_mismatch_declarative-narrow-focus_El-bebe-comia-muy-bien.wav,./stim/wavs/peruvian_mismatch_declarative-narrow-focus_El-bebe-comia-muy-bien.wav,./stim/wavs/puertorican_mismatch_declarative-narrow-focus_El-bebe-comia-muy-bien.wav,,,,,,,,,,,,,,,,,,,,,,,,,,,,,,,,,,,,,,,,,,,,,,,,,,,,,,,,
,,,,,,,603454dbbea63e24a99aabd2,605b45a4d25f287719a41696,605b92b03c7dd47b8ef6be4a,I am not familiar with Spanish,Midwest,NA,no,2021-03-24_14h28.04.856,empathy_intonation_perc,2020.2.10,MacIntel,60,,,,,,,,,,0,cuban,1,0,1.54993,0,32,32,2,1,3,./stim/wavs/andalusian_match_declarative-broad-focus_David-leia-el-libro.wav,./stim/wavs/argentine_match_declarative-broad-focus_David-leia-el-libro.wav,./stim/wavs/castilian_match_declarative-broad-focus_David-leia-el-libro.wav,./stim/wavs/chilean_match_declarative-broad-focus_David-leia-el-libro.wav,./stim/wavs/cuban_match_declarative-broad-focus_David-leia-el-libro.wav,./stim/wavs/mexican_match_declarative-broad-focus_David-leia-el-libro.wav,./stim/wavs/peruvian_match_declarative-broad-focus_David-leia-el-libro.wav,./stim/wavs/puertorican_match_declarative-broad-focus_David-leia-el-libro.wav,,,,,,,,,,,,,,,,,,,,,,,,,,,,,,,,,,,,,,,,,,,,,,,,,,,,,,,,
,,,,,,,603454dbbea63e24a99aabd2,605b45a4d25f287719a41696,605b92b03c7dd47b8ef6be4a,I am not familiar with Spanish,Midwest,NA,no,2021-03-24_14h28.04.856,empathy_intonation_perc,2020.2.10,MacIntel,60,,,,,,,,,,0,cuban,1,0,0.400635,0,33,33,7,1,8,./stim/wavs/andalusian_match_declarative-broad-focus_Marta-abre-el-regalo.wav,./stim/wavs/argentine_match_declarative-broad-focus_Marta-abre-el-regalo.wav,./stim/wavs/castilian_match_declarative-broad-focus_Marta-abre-el-regalo.wav,./stim/wavs/chilean_match_declarative-broad-focus_Marta-abre-el-regalo.wav,./stim/wavs/cuban_match_declarative-broad-focus_Marta-abre-el-regalo.wav,./stim/wavs/mexican_match_declarative-broad-focus_Marta-abre-el-regalo.wav,./stim/wavs/peruvian_match_declarative-broad-focus_Marta-abre-el-regalo.wav,./stim/wavs/puertorican_match_declarative-broad-focus_Marta-abre-el-regalo.wav,,,,,,,,,,,,,,,,,,,,,,,,,,,,,,,,,,,,,,,,,,,,,,,,,,,,,,,,
,,,,,,,603454dbbea63e24a99aabd2,605b45a4d25f287719a41696,605b92b03c7dd47b8ef6be4a,I am not familiar with Spanish,Midwest,NA,no,2021-03-24_14h28.04.856,empathy_intonation_perc,2020.2.10,MacIntel,60,,,,,,,,,,1,puertorican,0,0,0.700625,0,34,34,56,1,57,./stim/wavs/andalusian_mismatch_interrogative-total-yn_El-bebe-comia-muy-bien.wav,./stim/wavs/argentine_mismatch_interrogative-total-yn_El-bebe-comia-muy-bien.wav,./stim/wavs/castilian_mismatch_interrogative-total-yn_El-bebe-comia-muy-bien.wav,./stim/wavs/chilean_mismatch_interrogative-total-yn_El-bebe-comia-muy-bien.wav,./stim/wavs/cuban_mismatch_interrogative-total-yn_El-bebe-comia-muy-bien.wav,./stim/wavs/mexican_mismatch_interrogative-total-yn_El-bebe-comia-muy-bien.wav,./stim/wavs/peruvian_mismatch_interrogative-total-yn_El-bebe-comia-muy-bien.wav,./stim/wavs/puertorican_mismatch_interrogative-total-yn_El-bebe-comia-muy-bien.wav,,,,,,,,,,,,,,,,,,,,,,,,,,,,,,,,,,,,,,,,,,,,,,,,,,,,,,,,
,,,,,,,603454dbbea63e24a99aabd2,605b45a4d25f287719a41696,605b92b03c7dd47b8ef6be4a,I am not familiar with Spanish,Midwest,NA,no,2021-03-24_14h28.04.856,empathy_intonation_perc,2020.2.10,MacIntel,60,,,,,,,,,,0,argentine,1,0,0.00092,0,35,35,8,1,9,./stim/wavs/andalusian_match_declarative-narrow-focus_Ana-lleva-el-abrigo.wav,./stim/wavs/argentine_match_declarative-narrow-focus_Ana-lleva-el-abrigo.wav,./stim/wavs/castilian_match_declarative-narrow-focus_Ana-lleva-el-abrigo.wav,./stim/wavs/chilean_match_declarative-narrow-focus_Ana-lleva-el-abrigo.wav,./stim/wavs/cuban_match_declarative-narrow-focus_Ana-lleva-el-abrigo.wav,./stim/wavs/mexican_match_declarative-narrow-focus_Ana-lleva-el-abrigo.wav,./stim/wavs/peruvian_match_declarative-narrow-focus_Ana-lleva-el-abrigo.wav,./stim/wavs/puertorican_match_declarative-narrow-focus_Ana-lleva-el-abrigo.wav,,,,,,,,,,,,,,,,,,,,,,,,,,,,,,,,,,,,,,,,,,,,,,,,,,,,,,,,
,,,,,,,603454dbbea63e24a99aabd2,605b45a4d25f287719a41696,605b92b03c7dd47b8ef6be4a,I am not familiar with Spanish,Midwest,NA,no,2021-03-24_14h28.04.856,empathy_intonation_perc,2020.2.10,MacIntel,60,,,,,,,,,,1,peruvian,0,0,0.199325,0,36,36,16,1,17,./stim/wavs/andalusian_match_interrogative-partial-wh_Cuando-bebia-el-vino.wav,./stim/wavs/argentine_match_interrogative-partial-wh_Cuando-bebia-el-vino.wav,./stim/wavs/castilian_match_interrogative-partial-wh_Cuando-bebia-el-vino.wav,./stim/wavs/chilean_match_interrogative-partial-wh_Cuando-bebia-el-vino.wav,./stim/wavs/cuban_match_interrogative-partial-wh_Cuando-bebia-el-vino.wav,./stim/wavs/mexican_match_interrogative-partial-wh_Cuando-bebia-el-vino.wav,./stim/wavs/peruvian_match_interrogative-partial-wh_Cuando-bebia-el-vino.wav,./stim/wavs/puertorican_match_interrogative-partial-wh_Cuando-bebia-el-vino.wav,,,,,,,,,,,,,,,,,,,,,,,,,,,,,,,,,,,,,,,,,,,,,,,,,,,,,,,,
,,,,,,,603454dbbea63e24a99aabd2,605b45a4d25f287719a41696,605b92b03c7dd47b8ef6be4a,I am not familiar with Spanish,Midwest,NA,no,2021-03-24_14h28.04.856,empathy_intonation_perc,2020.2.10,MacIntel,60,,,,,,,,,,1,puertorican,0,0,0.051535,0,37,37,54,1,55,./stim/wavs/andalusian_mismatch_interrogative-partial-wh_Por-que-venia-del-lago.wav,./stim/wavs/argentine_mismatch_interrogative-partial-wh_Por-que-venia-del-lago.wav,./stim/wavs/castilian_mismatch_interrogative-partial-wh_Por-que-venia-del-lago.wav,./stim/wavs/chilean_mismatch_interrogative-partial-wh_Por-que-venia-del-lago.wav,./stim/wavs/cuban_mismatch_interrogative-partial-wh_Por-que-venia-del-lago.wav,./stim/wavs/mexican_mismatch_interrogative-partial-wh_Por-que-venia-del-lago.wav,./stim/wavs/peruvian_mismatch_interrogative-partial-wh_Por-que-venia-del-lago.wav,./stim/wavs/puertorican_mismatch_interrogative-partial-wh_Por-que-venia-del-lago.wav,,,,,,,,,,,,,,,,,,,,,,,,,,,,,,,,,,,,,,,,,,,,,,,,,,,,,,,,
,,,,,,,603454dbbea63e24a99aabd2,605b45a4d25f287719a41696,605b92b03c7dd47b8ef6be4a,I am not familiar with Spanish,Midwest,NA,no,2021-03-24_14h28.04.856,empathy_intonation_perc,2020.2.10,MacIntel,60,,,,,,,,,,1,puertorican,1,1,0.467985,0,38,38,20,1,21,./stim/wavs/andalusian_match_interrogative-partial-wh_Por-que-abre-el-regalo.wav,./stim/wavs/argentine_match_interrogative-partial-wh_Por-que-abre-el-regalo.wav,./stim/wavs/castilian_match_interrogative-partial-wh_Por-que-abre-el-regalo.wav,./stim/wavs/chilean_match_interrogative-partial-wh_Por-que-abre-el-regalo.wav,./stim/wavs/cuban_match_interrogative-partial-wh_Por-que-abre-el-regalo.wav,./stim/wavs/mexican_match_interrogative-partial-wh_Por-que-abre-el-regalo.wav,./stim/wavs/peruvian_match_interrogative-partial-wh_Por-que-abre-el-regalo.wav,./stim/wavs/puertorican_match_interrogative-partial-wh_Por-que-abre-el-regalo.wav,,,,,,,,,,,,,,,,,,,,,,,,,,,,,,,,,,,,,,,,,,,,,,,,,,,,,,,,
,,,,,,,603454dbbea63e24a99aabd2,605b45a4d25f287719a41696,605b92b03c7dd47b8ef6be4a,I am not familiar with Spanish,Midwest,NA,no,2021-03-24_14h28.04.856,empathy_intonation_perc,2020.2.10,MacIntel,60,,,,,,,,,,1,puertorican,1,1,0.06894,0,39,39,19,1,20,./stim/wavs/andalusian_match_interrogative-partial-wh_Cuando-vendia-el-carro.wav,./stim/wavs/argentine_match_interrogative-partial-wh_Cuando-vendia-el-carro.wav,./stim/wavs/castilian_match_interrogative-partial-wh_Cuando-vendia-el-carro.wav,./stim/wavs/chilean_match_interrogative-partial-wh_Cuando-vendia-el-carro.wav,./stim/wavs/cuban_match_interrogative-partial-wh_Cuando-vendia-el-carro.wav,./stim/wavs/mexican_match_interrogative-partial-wh_Cuando-vendia-el-carro.wav,./stim/wavs/peruvian_match_interrogative-partial-wh_Cuando-vendia-el-carro.wav,./stim/wavs/puertorican_match_interrogative-partial-wh_Cuando-vendia-el-carro.wav,,,,,,,,,,,,,,,,,,,,,,,,,,,,,,,,,,,,,,,,,,,,,,,,,,,,,,,,
,,,,,,,603454dbbea63e24a99aabd2,605b45a4d25f287719a41696,605b92b03c7dd47b8ef6be4a,I am not familiar with Spanish,Midwest,NA,no,2021-03-24_14h28.04.856,empathy_intonation_perc,2020.2.10,MacIntel,60,,,,,,,,,,1,andalusian,0,0,0.034795,0,40,40,52,1,53,./stim/wavs/andalusian_mismatch_interrogative-partial-wh_Por-que-odiaba-la-lluvia.wav,./stim/wavs/argentine_mismatch_interrogative-partial-wh_Por-que-odiaba-la-lluvia.wav,./stim/wavs/castilian_mismatch_interrogative-partial-wh_Por-que-odiaba-la-lluvia.wav,./stim/wavs/chilean_mismatch_interrogative-partial-wh_Por-que-odiaba-la-lluvia.wav,./stim/wavs/cuban_mismatch_interrogative-partial-wh_Por-que-odiaba-la-lluvia.wav,./stim/wavs/mexican_mismatch_interrogative-partial-wh_Por-que-odiaba-la-lluvia.wav,./stim/wavs/peruvian_mismatch_interrogative-partial-wh_Por-que-odiaba-la-lluvia.wav,./stim/wavs/puertorican_mismatch_interrogative-partial-wh_Por-que-odiaba-la-lluvia.wav,,,,,,,,,,,,,,,,,,,,,,,,,,,,,,,,,,,,,,,,,,,,,,,,,,,,,,,,
,,,,,,,603454dbbea63e24a99aabd2,605b45a4d25f287719a41696,605b92b03c7dd47b8ef6be4a,I am not familiar with Spanish,Midwest,NA,no,2021-03-24_14h28.04.856,empathy_intonation_perc,2020.2.10,MacIntel,60,,,,,,,,,,1,chilean,0,0,0.000845,0,41,41,58,1,59,./stim/wavs/andalusian_mismatch_interrogative-total-yn_El-nino-oye-el-rio.wav,./stim/wavs/argentine_mismatch_interrogative-total-yn_El-nino-oye-el-rio.wav,./stim/wavs/castilian_mismatch_interrogative-total-yn_El-nino-oye-el-rio.wav,./stim/wavs/chilean_mismatch_interrogative-total-yn_El-nino-oye-el-rio.wav,./stim/wavs/cuban_mismatch_interrogative-total-yn_El-nino-oye-el-rio.wav,./stim/wavs/mexican_mismatch_interrogative-total-yn_El-nino-oye-el-rio.wav,./stim/wavs/peruvian_mismatch_interrogative-total-yn_El-nino-oye-el-rio.wav,./stim/wavs/puertorican_mismatch_interrogative-total-yn_El-nino-oye-el-rio.wav,,,,,,,,,,,,,,,,,,,,,,,,,,,,,,,,,,,,,,,,,,,,,,,,,,,,,,,,
,,,,,,,603454dbbea63e24a99aabd2,605b45a4d25f287719a41696,605b92b03c7dd47b8ef6be4a,I am not familiar with Spanish,Midwest,NA,no,2021-03-24_14h28.04.856,empathy_intonation_perc,2020.2.10,MacIntel,60,,,,,,,,,,0,puertorican,1,0,0.01685,0,42,42,0,1,1,./stim/wavs/andalusian_match_declarative-broad-focus_Ana-lleva-el-abrigo.wav,./stim/wavs/argentine_match_declarative-broad-focus_Ana-lleva-el-abrigo.wav,./stim/wavs/castilian_match_declarative-broad-focus_Ana-lleva-el-abrigo.wav,./stim/wavs/chilean_match_declarative-broad-focus_Ana-lleva-el-abrigo.wav,./stim/wavs/cuban_match_declarative-broad-focus_Ana-lleva-el-abrigo.wav,./stim/wavs/mexican_match_declarative-broad-focus_Ana-lleva-el-abrigo.wav,./stim/wavs/peruvian_match_declarative-broad-focus_Ana-lleva-el-abrigo.wav,./stim/wavs/puertorican_match_declarative-broad-focus_Ana-lleva-el-abrigo.wav,,,,,,,,,,,,,,,,,,,,,,,,,,,,,,,,,,,,,,,,,,,,,,,,,,,,,,,,
,,,,,,,603454dbbea63e24a99aabd2,605b45a4d25f287719a41696,605b92b03c7dd47b8ef6be4a,I am not familiar with Spanish,Midwest,NA,no,2021-03-24_14h28.04.856,empathy_intonation_perc,2020.2.10,MacIntel,60,,,,,,,,,,0,mexican,0,1,0.03242,0,43,43,45,1,46,./stim/wavs/andalusian_mismatch_declarative-narrow-focus_Mi-madre-come-la-fruta.wav,./stim/wavs/argentine_mismatch_declarative-narrow-focus_Mi-madre-come-la-fruta.wav,./stim/wavs/castilian_mismatch_declarative-narrow-focus_Mi-madre-come-la-fruta.wav,./stim/wavs/chilean_mismatch_declarative-narrow-focus_Mi-madre-come-la-fruta.wav,./stim/wavs/cuban_mismatch_declarative-narrow-focus_Mi-madre-come-la-fruta.wav,./stim/wavs/mexican_mismatch_declarative-narrow-focus_Mi-madre-come-la-fruta.wav,./stim/wavs/peruvian_mismatch_declarative-narrow-focus_Mi-madre-come-la-fruta.wav,./stim/wavs/puertorican_mismatch_declarative-narrow-focus_Mi-madre-come-la-fruta.wav,,,,,,,,,,,,,,,,,,,,,,,,,,,,,,,,,,,,,,,,,,,,,,,,,,,,,,,,
,,,,,,,603454dbbea63e24a99aabd2,605b45a4d25f287719a41696,605b92b03c7dd47b8ef6be4a,I am not familiar with Spanish,Midwest,NA,no,2021-03-24_14h28.04.856,empathy_intonation_perc,2020.2.10,MacIntel,60,,,,,,,,,,0,castilian,1,0,0.33406,0,44,44,38,1,39,./stim/wavs/andalusian_mismatch_declarative-broad-focus_Mi-novio-viene-del-lago.wav,./stim/wavs/argentine_mismatch_declarative-broad-focus_Mi-novio-viene-del-lago.wav,./stim/wavs/castilian_mismatch_declarative-broad-focus_Mi-novio-viene-del-lago.wav,./stim/wavs/chilean_mismatch_declarative-broad-focus_Mi-novio-viene-del-lago.wav,./stim/wavs/cuban_mismatch_declarative-broad-focus_Mi-novio-viene-del-lago.wav,./stim/wavs/mexican_mismatch_declarative-broad-focus_Mi-novio-viene-del-lago.wav,./stim/wavs/peruvian_mismatch_declarative-broad-focus_Mi-novio-viene-del-lago.wav,./stim/wavs/puertorican_mismatch_declarative-broad-focus_Mi-novio-viene-del-lago.wav,,,,,,,,,,,,,,,,,,,,,,,,,,,,,,,,,,,,,,,,,,,,,,,,,,,,,,,,
,,,,,,,603454dbbea63e24a99aabd2,605b45a4d25f287719a41696,605b92b03c7dd47b8ef6be4a,I am not familiar with Spanish,Midwest,NA,no,2021-03-24_14h28.04.856,empathy_intonation_perc,2020.2.10,MacIntel,60,,,,,,,,,,1,cuban,1,1,0.01637,0,45,45,31,1,32,./stim/wavs/andalusian_match_interrogative-total-yn_Marta-abre-el-regalo.wav,./stim/wavs/argentine_match_interrogative-total-yn_Marta-abre-el-regalo.wav,./stim/wavs/castilian_match_interrogative-total-yn_Marta-abre-el-regalo.wav,./stim/wavs/chilean_match_interrogative-total-yn_Marta-abre-el-regalo.wav,./stim/wavs/cuban_match_interrogative-total-yn_Marta-abre-el-regalo.wav,./stim/wavs/mexican_match_interrogative-total-yn_Marta-abre-el-regalo.wav,./stim/wavs/peruvian_match_interrogative-total-yn_Marta-abre-el-regalo.wav,./stim/wavs/puertorican_match_interrogative-total-yn_Marta-abre-el-regalo.wav,,,,,,,,,,,,,,,,,,,,,,,,,,,,,,,,,,,,,,,,,,,,,,,,,,,,,,,,
,,,,,,,603454dbbea63e24a99aabd2,605b45a4d25f287719a41696,605b92b03c7dd47b8ef6be4a,I am not familiar with Spanish,Midwest,NA,no,2021-03-24_14h28.04.856,empathy_intonation_perc,2020.2.10,MacIntel,60,,,,,,,,,,0,chilean,0,1,0.0372,0,46,46,33,1,34,./stim/wavs/andalusian_mismatch_declarative-broad-focus_El-hombre-mira-la-luna.wav,./stim/wavs/argentine_mismatch_declarative-broad-focus_El-hombre-mira-la-luna.wav,./stim/wavs/castilian_mismatch_declarative-broad-focus_El-hombre-mira-la-luna.wav,./stim/wavs/chilean_mismatch_declarative-broad-focus_El-hombre-mira-la-luna.wav,./stim/wavs/cuban_mismatch_declarative-broad-focus_El-hombre-mira-la-luna.wav,./stim/wavs/mexican_mismatch_declarative-broad-focus_El-hombre-mira-la-luna.wav,./stim/wavs/peruvian_mismatch_declarative-broad-focus_El-hombre-mira-la-luna.wav,./stim/wavs/puertorican_mismatch_declarative-broad-focus_El-hombre-mira-la-luna.wav,,,,,,,,,,,,,,,,,,,,,,,,,,,,,,,,,,,,,,,,,,,,,,,,,,,,,,,,
,,,,,,,603454dbbea63e24a99aabd2,605b45a4d25f287719a41696,605b92b03c7dd47b8ef6be4a,I am not familiar with Spanish,Midwest,NA,no,2021-03-24_14h28.04.856,empathy_intonation_perc,2020.2.10,MacIntel,60,,,,,,,,,,0,castilian,1,0,0.001015,0,47,47,32,1,33,./stim/wavs/andalusian_mismatch_declarative-broad-focus_El-bebe-comia-muy-bien.wav,./stim/wavs/argentine_mismatch_declarative-broad-focus_El-bebe-comia-muy-bien.wav,./stim/wavs/castilian_mismatch_declarative-broad-focus_El-bebe-comia-muy-bien.wav,./stim/wavs/chilean_mismatch_declarative-broad-focus_El-bebe-comia-muy-bien.wav,./stim/wavs/cuban_mismatch_declarative-broad-focus_El-bebe-comia-muy-bien.wav,./stim/wavs/mexican_mismatch_declarative-broad-focus_El-bebe-comia-muy-bien.wav,./stim/wavs/peruvian_mismatch_declarative-broad-focus_El-bebe-comia-muy-bien.wav,./stim/wavs/puertorican_mismatch_declarative-broad-focus_El-bebe-comia-muy-bien.wav,,,,,,,,,,,,,,,,,,,,,,,,,,,,,,,,,,,,,,,,,,,,,,,,,,,,,,,,
,,,,,,,603454dbbea63e24a99aabd2,605b45a4d25f287719a41696,605b92b03c7dd47b8ef6be4a,I am not familiar with Spanish,Midwest,NA,no,2021-03-24_14h28.04.856,empathy_intonation_perc,2020.2.10,MacIntel,60,,,,,,,,,,0,chilean,0,1,0.000785,0,48,48,5,1,6,./stim/wavs/andalusian_match_declarative-broad-focus_Maria-bebe-el-vino.wav,./stim/wavs/argentine_match_declarative-broad-focus_Maria-bebe-el-vino.wav,./stim/wavs/castilian_match_declarative-broad-focus_Maria-bebe-el-vino.wav,./stim/wavs/chilean_match_declarative-broad-focus_Maria-bebe-el-vino.wav,./stim/wavs/cuban_match_declarative-broad-focus_Maria-bebe-el-vino.wav,./stim/wavs/mexican_match_declarative-broad-focus_Maria-bebe-el-vino.wav,./stim/wavs/peruvian_match_declarative-broad-focus_Maria-bebe-el-vino.wav,./stim/wavs/puertorican_match_declarative-broad-focus_Maria-bebe-el-vino.wav,,,,,,,,,,,,,,,,,,,,,,,,,,,,,,,,,,,,,,,,,,,,,,,,,,,,,,,,
,,,,,,,603454dbbea63e24a99aabd2,605b45a4d25f287719a41696,605b92b03c7dd47b8ef6be4a,I am not familiar with Spanish,Midwest,NA,no,2021-03-24_14h28.04.856,empathy_intonation_perc,2020.2.10,MacIntel,60,,,,,,,,,,1,mexican,0,0,0.050095,0,49,49,24,1,25,./stim/wavs/andalusian_match_interrogative-total-yn_Ana-lleva-el-abrigo.wav,./stim/wavs/argentine_match_interrogative-total-yn_Ana-lleva-el-abrigo.wav,./stim/wavs/castilian_match_interrogative-total-yn_Ana-lleva-el-abrigo.wav,./stim/wavs/chilean_match_interrogative-total-yn_Ana-lleva-el-abrigo.wav,./stim/wavs/cuban_match_interrogative-total-yn_Ana-lleva-el-abrigo.wav,./stim/wavs/mexican_match_interrogative-total-yn_Ana-lleva-el-abrigo.wav,./stim/wavs/peruvian_match_interrogative-total-yn_Ana-lleva-el-abrigo.wav,./stim/wavs/puertorican_match_interrogative-total-yn_Ana-lleva-el-abrigo.wav,,,,,,,,,,,,,,,,,,,,,,,,,,,,,,,,,,,,,,,,,,,,,,,,,,,,,,,,
,,,,,,,603454dbbea63e24a99aabd2,605b45a4d25f287719a41696,605b92b03c7dd47b8ef6be4a,I am not familiar with Spanish,Midwest,NA,no,2021-03-24_14h28.04.856,empathy_intonation_perc,2020.2.10,MacIntel,60,,,,,,,,,,1,peruvian,1,1,0.38831,0,50,50,22,1,23,./stim/wavs/andalusian_match_interrogative-partial-wh_Por-que-hablaba-del-agua.wav,./stim/wavs/argentine_match_interrogative-partial-wh_Por-que-hablaba-del-agua.wav,./stim/wavs/castilian_match_interrogative-partial-wh_Por-que-hablaba-del-agua.wav,./stim/wavs/chilean_match_interrogative-partial-wh_Por-que-hablaba-del-agua.wav,./stim/wavs/cuban_match_interrogative-partial-wh_Por-que-hablaba-del-agua.wav,./stim/wavs/mexican_match_interrogative-partial-wh_Por-que-hablaba-del-agua.wav,./stim/wavs/peruvian_match_interrogative-partial-wh_Por-que-hablaba-del-agua.wav,./stim/wavs/puertorican_match_interrogative-partial-wh_Por-que-hablaba-del-agua.wav,,,,,,,,,,,,,,,,,,,,,,,,,,,,,,,,,,,,,,,,,,,,,,,,,,,,,,,,
,,,,,,,603454dbbea63e24a99aabd2,605b45a4d25f287719a41696,605b92b03c7dd47b8ef6be4a,I am not familiar with Spanish,Midwest,NA,no,2021-03-24_14h28.04.856,empathy_intonation_perc,2020.2.10,MacIntel,60,,,,,,,,,,0,chilean,1,0,0.04912,0,51,51,34,1,35,./stim/wavs/andalusian_mismatch_declarative-broad-focus_El-nino-oye-el-rio.wav,./stim/wavs/argentine_mismatch_declarative-broad-focus_El-nino-oye-el-rio.wav,./stim/wavs/castilian_mismatch_declarative-broad-focus_El-nino-oye-el-rio.wav,./stim/wavs/chilean_mismatch_declarative-broad-focus_El-nino-oye-el-rio.wav,./stim/wavs/cuban_mismatch_declarative-broad-focus_El-nino-oye-el-rio.wav,./stim/wavs/mexican_mismatch_declarative-broad-focus_El-nino-oye-el-rio.wav,./stim/wavs/peruvian_mismatch_declarative-broad-focus_El-nino-oye-el-rio.wav,./stim/wavs/puertorican_mismatch_declarative-broad-focus_El-nino-oye-el-rio.wav,,,,,,,,,,,,,,,,,,,,,,,,,,,,,,,,,,,,,,,,,,,,,,,,,,,,,,,,
,,,,,,,603454dbbea63e24a99aabd2,605b45a4d25f287719a41696,605b92b03c7dd47b8ef6be4a,I am not familiar with Spanish,Midwest,NA,no,2021-03-24_14h28.04.856,empathy_intonation_perc,2020.2.10,MacIntel,60,,,,,,,,,,0,argentine,0,1,0.000845,0,52,52,41,1,42,./stim/wavs/andalusian_mismatch_declarative-narrow-focus_El-hombre-mira-la-luna.wav,./stim/wavs/argentine_mismatch_declarative-narrow-focus_El-hombre-mira-la-luna.wav,./stim/wavs/castilian_mismatch_declarative-narrow-focus_El-hombre-mira-la-luna.wav,./stim/wavs/chilean_mismatch_declarative-narrow-focus_El-hombre-mira-la-luna.wav,./stim/wavs/cuban_mismatch_declarative-narrow-focus_El-hombre-mira-la-luna.wav,./stim/wavs/mexican_mismatch_declarative-narrow-focus_El-hombre-mira-la-luna.wav,./stim/wavs/peruvian_mismatch_declarative-narrow-focus_El-hombre-mira-la-luna.wav,./stim/wavs/puertorican_mismatch_declarative-narrow-focus_El-hombre-mira-la-luna.wav,,,,,,,,,,,,,,,,,,,,,,,,,,,,,,,,,,,,,,,,,,,,,,,,,,,,,,,,
,,,,,,,603454dbbea63e24a99aabd2,605b45a4d25f287719a41696,605b92b03c7dd47b8ef6be4a,I am not familiar with Spanish,Midwest,NA,no,2021-03-24_14h28.04.856,empathy_intonation_perc,2020.2.10,MacIntel,60,,,,,,,,,,1,chilean,0,0,0.08393,0,53,53,62,1,63,./stim/wavs/andalusian_mismatch_interrogative-total-yn_Mi-novio-viene-del-lago.wav,./stim/wavs/argentine_mismatch_interrogative-total-yn_Mi-novio-viene-del-lago.wav,./stim/wavs/castilian_mismatch_interrogative-total-yn_Mi-novio-viene-del-lago.wav,./stim/wavs/chilean_mismatch_interrogative-total-yn_Mi-novio-viene-del-lago.wav,./stim/wavs/cuban_mismatch_interrogative-total-yn_Mi-novio-viene-del-lago.wav,./stim/wavs/mexican_mismatch_interrogative-total-yn_Mi-novio-viene-del-lago.wav,./stim/wavs/peruvian_mismatch_interrogative-total-yn_Mi-novio-viene-del-lago.wav,./stim/wavs/puertorican_mismatch_interrogative-total-yn_Mi-novio-viene-del-lago.wav,,,,,,,,,,,,,,,,,,,,,,,,,,,,,,,,,,,,,,,,,,,,,,,,,,,,,,,,
,,,,,,,603454dbbea63e24a99aabd2,605b45a4d25f287719a41696,605b92b03c7dd47b8ef6be4a,I am not familiar with Spanish,Midwest,NA,no,2021-03-24_14h28.04.856,empathy_intonation_perc,2020.2.10,MacIntel,60,,,,,,,,,,0,cuban,1,0,0.33759,0,54,54,9,1,10,./stim/wavs/andalusian_match_declarative-narrow-focus_Daniel-iba-a-Bolivia.wav,./stim/wavs/argentine_match_declarative-narrow-focus_Daniel-iba-a-Bolivia.wav,./stim/wavs/castilian_match_declarative-narrow-focus_Daniel-iba-a-Bolivia.wav,./stim/wavs/chilean_match_declarative-narrow-focus_Daniel-iba-a-Bolivia.wav,./stim/wavs/cuban_match_declarative-narrow-focus_Daniel-iba-a-Bolivia.wav,./stim/wavs/mexican_match_declarative-narrow-focus_Daniel-iba-a-Bolivia.wav,./stim/wavs/peruvian_match_declarative-narrow-focus_Daniel-iba-a-Bolivia.wav,./stim/wavs/puertorican_match_declarative-narrow-focus_Daniel-iba-a-Bolivia.wav,,,,,,,,,,,,,,,,,,,,,,,,,,,,,,,,,,,,,,,,,,,,,,,,,,,,,,,,
,,,,,,,603454dbbea63e24a99aabd2,605b45a4d25f287719a41696,605b92b03c7dd47b8ef6be4a,I am not familiar with Spanish,Midwest,NA,no,2021-03-24_14h28.04.856,empathy_intonation_perc,2020.2.10,MacIntel,60,,,,,,,,,,1,puertorican,0,0,0.03321,0,55,55,61,1,62,./stim/wavs/andalusian_mismatch_interrogative-total-yn_Mi-madre-come-la-fruta.wav,./stim/wavs/argentine_mismatch_interrogative-total-yn_Mi-madre-come-la-fruta.wav,./stim/wavs/castilian_mismatch_interrogative-total-yn_Mi-madre-come-la-fruta.wav,./stim/wavs/chilean_mismatch_interrogative-total-yn_Mi-madre-come-la-fruta.wav,./stim/wavs/cuban_mismatch_interrogative-total-yn_Mi-madre-come-la-fruta.wav,./stim/wavs/mexican_mismatch_interrogative-total-yn_Mi-madre-come-la-fruta.wav,./stim/wavs/peruvian_mismatch_interrogative-total-yn_Mi-madre-come-la-fruta.wav,./stim/wavs/puertorican_mismatch_interrogative-total-yn_Mi-madre-come-la-fruta.wav,,,,,,,,,,,,,,,,,,,,,,,,,,,,,,,,,,,,,,,,,,,,,,,,,,,,,,,,
,,,,,,,603454dbbea63e24a99aabd2,605b45a4d25f287719a41696,605b92b03c7dd47b8ef6be4a,I am not familiar with Spanish,Midwest,NA,no,2021-03-24_14h28.04.856,empathy_intonation_perc,2020.2.10,MacIntel,60,,,,,,,,,,0,andalusian,1,0,0.00244,0,56,56,3,1,4,./stim/wavs/andalusian_match_declarative-broad-focus_Emilio-ama-la-marcha.wav,./stim/wavs/argentine_match_declarative-broad-focus_Emilio-ama-la-marcha.wav,./stim/wavs/castilian_match_declarative-broad-focus_Emilio-ama-la-marcha.wav,./stim/wavs/chilean_match_declarative-broad-focus_Emilio-ama-la-marcha.wav,./stim/wavs/cuban_match_declarative-broad-focus_Emilio-ama-la-marcha.wav,./stim/wavs/mexican_match_declarative-broad-focus_Emilio-ama-la-marcha.wav,./stim/wavs/peruvian_match_declarative-broad-focus_Emilio-ama-la-marcha.wav,./stim/wavs/puertorican_match_declarative-broad-focus_Emilio-ama-la-marcha.wav,,,,,,,,,,,,,,,,,,,,,,,,,,,,,,,,,,,,,,,,,,,,,,,,,,,,,,,,
,,,,,,,603454dbbea63e24a99aabd2,605b45a4d25f287719a41696,605b92b03c7dd47b8ef6be4a,I am not familiar with Spanish,Midwest,NA,no,2021-03-24_14h28.04.856,empathy_intonation_perc,2020.2.10,MacIntel,60,,,,,,,,,,0,castilian,0,1,0.10105,0,57,57,11,1,12,./stim/wavs/andalusian_match_declarative-narrow-focus_Emilio-ama-la-marcha.wav,./stim/wavs/argentine_match_declarative-narrow-focus_Emilio-ama-la-marcha.wav,./stim/wavs/castilian_match_declarative-narrow-focus_Emilio-ama-la-marcha.wav,./stim/wavs/chilean_match_declarative-narrow-focus_Emilio-ama-la-marcha.wav,./stim/wavs/cuban_match_declarative-narrow-focus_Emilio-ama-la-marcha.wav,./stim/wavs/mexican_match_declarative-narrow-focus_Emilio-ama-la-marcha.wav,./stim/wavs/peruvian_match_declarative-narrow-focus_Emilio-ama-la-marcha.wav,./stim/wavs/puertorican_match_declarative-narrow-focus_Emilio-ama-la-marcha.wav,,,,,,,,,,,,,,,,,,,,,,,,,,,,,,,,,,,,,,,,,,,,,,,,,,,,,,,,
,,,,,,,603454dbbea63e24a99aabd2,605b45a4d25f287719a41696,605b92b03c7dd47b8ef6be4a,I am not familiar with Spanish,Midwest,NA,no,2021-03-24_14h28.04.856,empathy_intonation_perc,2020.2.10,MacIntel,60,,,,,,,,,,1,cuban,1,1,0.399475,0,58,58,50,1,51,./stim/wavs/andalusian_mismatch_interrogative-partial-wh_Cuando-miraba-la-luna.wav,./stim/wavs/argentine_mismatch_interrogative-partial-wh_Cuando-miraba-la-luna.wav,./stim/wavs/castilian_mismatch_interrogative-partial-wh_Cuando-miraba-la-luna.wav,./stim/wavs/chilean_mismatch_interrogative-partial-wh_Cuando-miraba-la-luna.wav,./stim/wavs/cuban_mismatch_interrogative-partial-wh_Cuando-miraba-la-luna.wav,./stim/wavs/mexican_mismatch_interrogative-partial-wh_Cuando-miraba-la-luna.wav,./stim/wavs/peruvian_mismatch_interrogative-partial-wh_Cuando-miraba-la-luna.wav,./stim/wavs/puertorican_mismatch_interrogative-partial-wh_Cuando-miraba-la-luna.wav,,,,,,,,,,,,,,,,,,,,,,,,,,,,,,,,,,,,,,,,,,,,,,,,,,,,,,,,
,,,,,,,603454dbbea63e24a99aabd2,605b45a4d25f287719a41696,605b92b03c7dd47b8ef6be4a,I am not familiar with Spanish,Midwest,NA,no,2021-03-24_14h28.04.856,empathy_intonation_perc,2020.2.10,MacIntel,60,,,,,,,,,,1,mexican,0,0,0.117835,0,59,59,26,1,27,./stim/wavs/andalusian_match_interrogative-total-yn_David-leia-el-libro.wav,./stim/wavs/argentine_match_interrogative-total-yn_David-leia-el-libro.wav,./stim/wavs/castilian_match_interrogative-total-yn_David-leia-el-libro.wav,./stim/wavs/chilean_match_interrogative-total-yn_David-leia-el-libro.wav,./stim/wavs/cuban_match_interrogative-total-yn_David-leia-el-libro.wav,./stim/wavs/mexican_match_interrogative-total-yn_David-leia-el-libro.wav,./stim/wavs/peruvian_match_interrogative-total-yn_David-leia-el-libro.wav,./stim/wavs/puertorican_match_interrogative-total-yn_David-leia-el-libro.wav,,,,,,,,,,,,,,,,,,,,,,,,,,,,,,,,,,,,,,,,,,,,,,,,,,,,,,,,
,,,,,,,603454dbbea63e24a99aabd2,605b45a4d25f287719a41696,605b92b03c7dd47b8ef6be4a,I am not familiar with Spanish,Midwest,NA,no,2021-03-24_14h28.04.856,empathy_intonation_perc,2020.2.10,MacIntel,60,,,,,,,,,,0,argentine,0,1,0.033255,0,60,60,4,1,5,./stim/wavs/andalusian_match_declarative-broad-focus_Manuela-vende-el-carro.wav,./stim/wavs/argentine_match_declarative-broad-focus_Manuela-vende-el-carro.wav,./stim/wavs/castilian_match_declarative-broad-focus_Manuela-vende-el-carro.wav,./stim/wavs/chilean_match_declarative-broad-focus_Manuela-vende-el-carro.wav,./stim/wavs/cuban_match_declarative-broad-focus_Manuela-vende-el-carro.wav,./stim/wavs/mexican_match_declarative-broad-focus_Manuela-vende-el-carro.wav,./stim/wavs/peruvian_match_declarative-broad-focus_Manuela-vende-el-carro.wav,./stim/wavs/puertorican_match_declarative-broad-focus_Manuela-vende-el-carro.wav,,,,,,,,,,,,,,,,,,,,,,,,,,,,,,,,,,,,,,,,,,,,,,,,,,,,,,,,
,,,,,,,603454dbbea63e24a99aabd2,605b45a4d25f287719a41696,605b92b03c7dd47b8ef6be4a,I am not familiar with Spanish,Midwest,NA,no,2021-03-24_14h28.04.856,empathy_intonation_perc,2020.2.10,MacIntel,60,,,,,,,,,,1,argentine,1,1,0.016395,0,61,61,28,1,29,./stim/wavs/andalusian_match_interrogative-total-yn_Manuela-vende-el-carro.wav,./stim/wavs/argentine_match_interrogative-total-yn_Manuela-vende-el-carro.wav,./stim/wavs/castilian_match_interrogative-total-yn_Manuela-vende-el-carro.wav,./stim/wavs/chilean_match_interrogative-total-yn_Manuela-vende-el-carro.wav,./stim/wavs/cuban_match_interrogative-total-yn_Manuela-vende-el-carro.wav,./stim/wavs/mexican_match_interrogative-total-yn_Manuela-vende-el-carro.wav,./stim/wavs/peruvian_match_interrogative-total-yn_Manuela-vende-el-carro.wav,./stim/wavs/puertorican_match_interrogative-total-yn_Manuela-vende-el-carro.wav,,,,,,,,,,,,,,,,,,,,,,,,,,,,,,,,,,,,,,,,,,,,,,,,,,,,,,,,
,,,,,,,603454dbbea63e24a99aabd2,605b45a4d25f287719a41696,605b92b03c7dd47b8ef6be4a,I am not familiar with Spanish,Midwest,NA,no,2021-03-24_14h28.04.856,empathy_intonation_perc,2020.2.10,MacIntel,60,,,,,,,,,,1,chilean,0,0,0.068495,0,62,62,27,1,28,./stim/wavs/andalusian_match_interrogative-total-yn_Emilio-ama-la-marcha.wav,./stim/wavs/argentine_match_interrogative-total-yn_Emilio-ama-la-marcha.wav,./stim/wavs/castilian_match_interrogative-total-yn_Emilio-ama-la-marcha.wav,./stim/wavs/chilean_match_interrogative-total-yn_Emilio-ama-la-marcha.wav,./stim/wavs/cuban_match_interrogative-total-yn_Emilio-ama-la-marcha.wav,./stim/wavs/mexican_match_interrogative-total-yn_Emilio-ama-la-marcha.wav,./stim/wavs/peruvian_match_interrogative-total-yn_Emilio-ama-la-marcha.wav,./stim/wavs/puertorican_match_interrogative-total-yn_Emilio-ama-la-marcha.wav,,,,,,,,,,,,,,,,,,,,,,,,,,,,,,,,,,,,,,,,,,,,,,,,,,,,,,,,
,,,,,,,603454dbbea63e24a99aabd2,605b45a4d25f287719a41696,605b92b03c7dd47b8ef6be4a,I am not familiar with Spanish,Midwest,NA,no,2021-03-24_14h28.04.856,empathy_intonation_perc,2020.2.10,MacIntel,60,,,,,,,,,,1,argentine,1,1,0.38485,0,63,63,30,1,31,./stim/wavs/andalusian_match_interrogative-total-yn_Mariano-habla-del-tiempo.wav,./stim/wavs/argentine_match_interrogative-total-yn_Mariano-habla-del-tiempo.wav,./stim/wavs/castilian_match_interrogative-total-yn_Mariano-habla-del-tiempo.wav,./stim/wavs/chilean_match_interrogative-total-yn_Mariano-habla-del-tiempo.wav,./stim/wavs/cuban_match_interrogative-total-yn_Mariano-habla-del-tiempo.wav,./stim/wavs/mexican_match_interrogative-total-yn_Mariano-habla-del-tiempo.wav,./stim/wavs/peruvian_match_interrogative-total-yn_Mariano-habla-del-tiempo.wav,./stim/wavs/puertorican_match_interrogative-total-yn_Mariano-habla-del-tiempo.wav,,,,,,,,,,,,,,,,,,,,,,,,,,,,,,,,,,,,,,,,,,,,,,,,,,,,,,,,
,,,,,,,603454dbbea63e24a99aabd2,605b45a4d25f287719a41696,605b92b03c7dd47b8ef6be4a,I am not familiar with Spanish,Midwest,NA,no,2021-03-24_14h28.04.856,empathy_intonation_perc,2020.2.10,MacIntel,60,,,,,,,,,,,,,,,,,,,,,,,,,,,,,h,1,7.53431,0,0,0,0,1,,,,,,,,,,,,,,,,,,,,,,,,,,,,,,,,,,,,,,,,,,,,,,,,
,,,,,"Great! Now we will move on. The next task consists of about 60 trials, in each of which you will see a string of letters. 
  
  Your task is to decide whether this is a real Spanish word or not.",(press the spacebar to continue),603454dbbea63e24a99aabd2,605b45a4d25f287719a41696,605b92b03c7dd47b8ef6be4a,I am not familiar with Spanish,Midwest,NA,no,2021-03-24_14h28.04.856,empathy_intonation_perc,2020.2.10,MacIntel,60,,,,,,,,,,,,,,,,,,,,,,,,,,,,,,,,,,,,,0,0,0,0,1,,,,,,,,,,,,,,,,,,,,,,,,,,,,,,,,,,,,,,,,,,,
,,,,,"If you think it is an existing Spanish word, you type '1' (for 'REAL'), and if you think it is not an existing Spanish word, you type '0' (for 'FAKE').",(press the spacebar to continue),603454dbbea63e24a99aabd2,605b45a4d25f287719a41696,605b92b03c7dd47b8ef6be4a,I am not familiar with Spanish,Midwest,NA,no,2021-03-24_14h28.04.856,empathy_intonation_perc,2020.2.10,MacIntel,60,,,,,,,,,,,,,,,,,,,,,,,,,,,,,,,,,,,,,0,1,1,1,1,,,,,,,,,,,,,,,,,,,,,,,,,,,,,,,,,,,,,,,,,,,
,,,,,"If you are sure that the word exists, even though you dont know its exact meaning, you may still respond '1' (REAL). 
  
  But if you are not sure if it is an existing word, you should respond '0' (FAKE).
  
  Let's do a practice round...",(press the spacebar to continue),603454dbbea63e24a99aabd2,605b45a4d25f287719a41696,605b92b03c7dd47b8ef6be4a,I am not familiar with Spanish,Midwest,NA,no,2021-03-24_14h28.04.856,empathy_intonation_perc,2020.2.10,MacIntel,60,,,,,,,,,,,,,,,,,,,,,,,,,,,,,,,,,,,,,0,2,2,2,1,,,,,,,,,,,,,,,,,,,,,,,,,,,,,,,,,,,,,,,,,,,
,,,,,,,603454dbbea63e24a99aabd2,605b45a4d25f287719a41696,605b92b03c7dd47b8ef6be4a,I am not familiar with Spanish,Midwest,NA,no,2021-03-24_14h28.04.856,empathy_intonation_perc,2020.2.10,MacIntel,60,,,,,,,,,,0,,,,,,,,,,,,,,,,,,,,,,,,,,,,,,,,1,0,2.69369,0,0,0,0,1,0,depiste,REAL,FAKE,,,,,,,,,,,,,,,,,,,,,,,,,,,,,,,
,,,,,,,603454dbbea63e24a99aabd2,605b45a4d25f287719a41696,605b92b03c7dd47b8ef6be4a,I am not familiar with Spanish,Midwest,NA,no,2021-03-24_14h28.04.856,empathy_intonation_perc,2020.2.10,MacIntel,60,,,,,,,,,,1,,,,,,,,,,,,,,,,,,,,,,,,,,,,,,,,1,1,0.985735,0,1,1,1,1,0,s,REAL,FAKE,,,,,,,,,,,,,,,,,,,,,,,,,,,,,,,
,,,,,,,603454dbbea63e24a99aabd2,605b45a4d25f287719a41696,605b92b03c7dd47b8ef6be4a,I am not familiar with Spanish,Midwest,NA,no,2021-03-24_14h28.04.856,empathy_intonation_perc,2020.2.10,MacIntel,60,,,,,,,,,,0,,,,,,,,,,,,,,,,,,,,,,,,,,,,,,,,1,0,0.96554,0,2,2,2,1,0,con,REAL,FAKE,,,,,,,,,,,,,,,,,,,,,,,,,,,,,,,
,,,,,,,603454dbbea63e24a99aabd2,605b45a4d25f287719a41696,605b92b03c7dd47b8ef6be4a,I am not familiar with Spanish,Midwest,NA,no,2021-03-24_14h28.04.856,empathy_intonation_perc,2020.2.10,MacIntel,60,,,,,,,,,,0,,,,,,,,,,,,,,,,,,,,,,,,,,,,,,,,0,1,0.96987,0,3,3,3,1,0,calpar,REAL,FAKE,,,,,,,,,,,,,,,,,,,,,,,,,,,,,,,
,,,,,,,603454dbbea63e24a99aabd2,605b45a4d25f287719a41696,605b92b03c7dd47b8ef6be4a,I am not familiar with Spanish,Midwest,NA,no,2021-03-24_14h28.04.856,empathy_intonation_perc,2020.2.10,MacIntel,60,,,,,,,,,,0,,,,,,,,,,,,,,,,,,,,,,,,,,,,,,,,0,1,0.803305,0,4,4,4,1,0,joten,REAL,FAKE,,,,,,,,,,,,,,,,,,,,,,,,,,,,,,,
,,,,,,,603454dbbea63e24a99aabd2,605b45a4d25f287719a41696,605b92b03c7dd47b8ef6be4a,I am not familiar with Spanish,Midwest,NA,no,2021-03-24_14h28.04.856,empathy_intonation_perc,2020.2.10,MacIntel,60,,,,,,,,,,1,,,,,,,,,,,,,,,,,,,,,,,,,,,,,,,,1,1,0.921065,0,5,5,5,1,0,sacapuntas,REAL,FAKE,,,,,,,,,,,,,,,,,,,,,,,,,,,,,,,
,,,,,,,603454dbbea63e24a99aabd2,605b45a4d25f287719a41696,605b92b03c7dd47b8ef6be4a,I am not familiar with Spanish,Midwest,NA,no,2021-03-24_14h28.04.856,empathy_intonation_perc,2020.2.10,MacIntel,60,,,,,,,,,,0,,,,,,,,,,,,,,,,,,,,,,,,,,,,,,,,0,1,1.147215,0,6,6,6,1,0,priba,REAL,FAKE,,,,,,,,,,,,,,,,,,,,,,,,,,,,,,,
,,,,,,,603454dbbea63e24a99aabd2,605b45a4d25f287719a41696,605b92b03c7dd47b8ef6be4a,I am not familiar with Spanish,Midwest,NA,no,2021-03-24_14h28.04.856,empathy_intonation_perc,2020.2.10,MacIntel,60,,,,,,,,,,0,,,,,,,,,,,,,,,,,,,,,,,,,,,,,,,,1,0,1.217665,0,7,7,7,1,0,pelasula,REAL,FAKE,,,,,,,,,,,,,,,,,,,,,,,,,,,,,,,
,,,,,,,603454dbbea63e24a99aabd2,605b45a4d25f287719a41696,605b92b03c7dd47b8ef6be4a,I am not familiar with Spanish,Midwest,NA,no,2021-03-24_14h28.04.856,empathy_intonation_perc,2020.2.10,MacIntel,60,,,,,,,,,,1,,,,,,,,,,,,,,,,,,,,,,,,,,,,,,,,1,1,0.96718,0,8,8,8,1,0,bien,REAL,FAKE,,,,,,,,,,,,,,,,,,,,,,,,,,,,,,,
,,,,,,,603454dbbea63e24a99aabd2,605b45a4d25f287719a41696,605b92b03c7dd47b8ef6be4a,I am not familiar with Spanish,Midwest,NA,no,2021-03-24_14h28.04.856,empathy_intonation_perc,2020.2.10,MacIntel,60,,,,,,,,,,1,,,,,,,,,,,,,,,,,,,,,,,,,,,,,,,,0,0,0.71638,0,9,9,9,1,0,casa,REAL,FAKE,,,,,,,,,,,,,,,,,,,,,,,,,,,,,,,
,,,,,,,603454dbbea63e24a99aabd2,605b45a4d25f287719a41696,605b92b03c7dd47b8ef6be4a,I am not familiar with Spanish,Midwest,NA,no,2021-03-24_14h28.04.856,empathy_intonation_perc,2020.2.10,MacIntel,60,,,,,,,,,,0,,,,,,,,,,,,,,,,,,,,,,,,,,,,,,,,0,1,0.722615,0,10,10,10,1,0,lejo,REAL,FAKE,,,,,,,,,,,,,,,,,,,,,,,,,,,,,,,
,,,,,,,603454dbbea63e24a99aabd2,605b45a4d25f287719a41696,605b92b03c7dd47b8ef6be4a,I am not familiar with Spanish,Midwest,NA,no,2021-03-24_14h28.04.856,empathy_intonation_perc,2020.2.10,MacIntel,60,,,,,,,,,,0,,,,,,,,,,,,,,,,,,,,,,,,,,,,,,,,1,0,0.63518,0,11,11,11,1,0,pretantas,REAL,FAKE,,,,,,,,,,,,,,,,,,,,,,,,,,,,,,,
,,,,,,,603454dbbea63e24a99aabd2,605b45a4d25f287719a41696,605b92b03c7dd47b8ef6be4a,I am not familiar with Spanish,Midwest,NA,no,2021-03-24_14h28.04.856,empathy_intonation_perc,2020.2.10,MacIntel,60,,,,,,,,,,0,,,,,,,,,,,,,,,,,,,,,,,,,,,,,,,,,,,,,,,,23,lampera,,,1,0,2.14933,0,0,0,22,1,REAL,FAKE,,,,,,,,,,,,,,,,,,,,,
,,,,,,,603454dbbea63e24a99aabd2,605b45a4d25f287719a41696,605b92b03c7dd47b8ef6be4a,I am not familiar with Spanish,Midwest,NA,no,2021-03-24_14h28.04.856,empathy_intonation_perc,2020.2.10,MacIntel,60,,,,,,,,,,0,,,,,,,,,,,,,,,,,,,,,,,,,,,,,,,,,,,,,,,,21,capillo,,,0,1,1.384015,0,1,1,20,1,REAL,FAKE,,,,,,,,,,,,,,,,,,,,,
,,,,,,,603454dbbea63e24a99aabd2,605b45a4d25f287719a41696,605b92b03c7dd47b8ef6be4a,I am not familiar with Spanish,Midwest,NA,no,2021-03-24_14h28.04.856,empathy_intonation_perc,2020.2.10,MacIntel,60,,,,,,,,,,0,,,,,,,,,,,,,,,,,,,,,,,,,,,,,,,,,,,,,,,,47,cartinar,,,0,1,1.25087,0,2,2,46,1,REAL,FAKE,,,,,,,,,,,,,,,,,,,,,
,,,,,,,603454dbbea63e24a99aabd2,605b45a4d25f287719a41696,605b92b03c7dd47b8ef6be4a,I am not familiar with Spanish,Midwest,NA,no,2021-03-24_14h28.04.856,empathy_intonation_perc,2020.2.10,MacIntel,60,,,,,,,,,,0,,,,,,,,,,,,,,,,,,,,,,,,,,,,,,,,,,,,,,,,79,tropaje,,,1,0,0.55341,0,3,3,78,1,REAL,FAKE,,,,,,,,,,,,,,,,,,,,,
,,,,,,,603454dbbea63e24a99aabd2,605b45a4d25f287719a41696,605b92b03c7dd47b8ef6be4a,I am not familiar with Spanish,Midwest,NA,no,2021-03-24_14h28.04.856,empathy_intonation_perc,2020.2.10,MacIntel,60,,,,,,,,,,1,,,,,,,,,,,,,,,,,,,,,,,,,,,,,,,,,,,,,,,,46,martillo,,,0,0,0.9504,0,4,4,45,1,REAL,FAKE,,,,,,,,,,,,,,,,,,,,,
,,,,,,,603454dbbea63e24a99aabd2,605b45a4d25f287719a41696,605b92b03c7dd47b8ef6be4a,I am not familiar with Spanish,Midwest,NA,no,2021-03-24_14h28.04.856,empathy_intonation_perc,2020.2.10,MacIntel,60,,,,,,,,,,0,,,,,,,,,,,,,,,,,,,,,,,,,,,,,,,,,,,,,,,,50,flamida,,,1,0,0.76757,0,5,5,49,1,REAL,FAKE,,,,,,,,,,,,,,,,,,,,,
,,,,,,,603454dbbea63e24a99aabd2,605b45a4d25f287719a41696,605b92b03c7dd47b8ef6be4a,I am not familiar with Spanish,Midwest,NA,no,2021-03-24_14h28.04.856,empathy_intonation_perc,2020.2.10,MacIntel,60,,,,,,,,,,1,,,,,,,,,,,,,,,,,,,,,,,,,,,,,,,,,,,,,,,,49,ganar,,,0,0,0.73143,0,6,6,48,1,REAL,FAKE,,,,,,,,,,,,,,,,,,,,,
,,,,,,,603454dbbea63e24a99aabd2,605b45a4d25f287719a41696,605b92b03c7dd47b8ef6be4a,I am not familiar with Spanish,Midwest,NA,no,2021-03-24_14h28.04.856,empathy_intonation_perc,2020.2.10,MacIntel,60,,,,,,,,,,0,,,,,,,,,,,,,,,,,,,,,,,,,,,,,,,,,,,,,,,,8,cadea,,,1,0,0.664585,0,7,7,7,1,REAL,FAKE,,,,,,,,,,,,,,,,,,,,,
,,,,,,,603454dbbea63e24a99aabd2,605b45a4d25f287719a41696,605b92b03c7dd47b8ef6be4a,I am not familiar with Spanish,Midwest,NA,no,2021-03-24_14h28.04.856,empathy_intonation_perc,2020.2.10,MacIntel,60,,,,,,,,,,1,,,,,,,,,,,,,,,,,,,,,,,,,,,,,,,,,,,,,,,,88,acantilado,,,0,0,0.835965,0,8,8,87,1,REAL,FAKE,,,,,,,,,,,,,,,,,,,,,
,,,,,,,603454dbbea63e24a99aabd2,605b45a4d25f287719a41696,605b92b03c7dd47b8ef6be4a,I am not familiar with Spanish,Midwest,NA,no,2021-03-24_14h28.04.856,empathy_intonation_perc,2020.2.10,MacIntel,60,,,,,,,,,,1,,,,,,,,,,,,,,,,,,,,,,,,,,,,,,,,,,,,,,,,68,alegre,,,0,0,0.784335,0,9,9,67,1,REAL,FAKE,,,,,,,,,,,,,,,,,,,,,
,,,,,,,603454dbbea63e24a99aabd2,605b45a4d25f287719a41696,605b92b03c7dd47b8ef6be4a,I am not familiar with Spanish,Midwest,NA,no,2021-03-24_14h28.04.856,empathy_intonation_perc,2020.2.10,MacIntel,60,,,,,,,,,,0,,,,,,,,,,,,,,,,,,,,,,,,,,,,,,,,,,,,,,,,4,batilln,,,1,0,0.50107,0,10,10,3,1,REAL,FAKE,,,,,,,,,,,,,,,,,,,,,
,,,,,,,603454dbbea63e24a99aabd2,605b45a4d25f287719a41696,605b92b03c7dd47b8ef6be4a,I am not familiar with Spanish,Midwest,NA,no,2021-03-24_14h28.04.856,empathy_intonation_perc,2020.2.10,MacIntel,60,,,,,,,,,,1,,,,,,,,,,,,,,,,,,,,,,,,,,,,,,,,,,,,,,,,81,pozo,,,0,0,0.64804,0,11,11,80,1,REAL,FAKE,,,,,,,,,,,,,,,,,,,,,
,,,,,,,603454dbbea63e24a99aabd2,605b45a4d25f287719a41696,605b92b03c7dd47b8ef6be4a,I am not familiar with Spanish,Midwest,NA,no,2021-03-24_14h28.04.856,empathy_intonation_perc,2020.2.10,MacIntel,60,,,,,,,,,,1,,,,,,,,,,,,,,,,,,,,,,,,,,,,,,,,,,,,,,,,60,matar,,,0,0,0.670105,0,12,12,59,1,REAL,FAKE,,,,,,,,,,,,,,,,,,,,,
,,,,,,,603454dbbea63e24a99aabd2,605b45a4d25f287719a41696,605b92b03c7dd47b8ef6be4a,I am not familiar with Spanish,Midwest,NA,no,2021-03-24_14h28.04.856,empathy_intonation_perc,2020.2.10,MacIntel,60,,,,,,,,,,0,,,,,,,,,,,,,,,,,,,,,,,,,,,,,,,,,,,,,,,,42,cadallo,,,0,1,0.78609,0,13,13,41,1,REAL,FAKE,,,,,,,,,,,,,,,,,,,,,
,,,,,,,603454dbbea63e24a99aabd2,605b45a4d25f287719a41696,605b92b03c7dd47b8ef6be4a,I am not familiar with Spanish,Midwest,NA,no,2021-03-24_14h28.04.856,empathy_intonation_perc,2020.2.10,MacIntel,60,,,,,,,,,,1,,,,,,,,,,,,,,,,,,,,,,,,,,,,,,,,,,,,,,,,64,orgulloso,,,1,1,0.466995,0,14,14,63,1,REAL,FAKE,,,,,,,,,,,,,,,,,,,,,
,,,,,,,603454dbbea63e24a99aabd2,605b45a4d25f287719a41696,605b92b03c7dd47b8ef6be4a,I am not familiar with Spanish,Midwest,NA,no,2021-03-24_14h28.04.856,empathy_intonation_perc,2020.2.10,MacIntel,60,,,,,,,,,,1,,,,,,,,,,,,,,,,,,,,,,,,,,,,,,,,,,,,,,,,62,flaco,,,0,0,0.65277,0,15,15,61,1,REAL,FAKE,,,,,,,,,,,,,,,,,,,,,
,,,,,,,603454dbbea63e24a99aabd2,605b45a4d25f287719a41696,605b92b03c7dd47b8ef6be4a,I am not familiar with Spanish,Midwest,NA,no,2021-03-24_14h28.04.856,empathy_intonation_perc,2020.2.10,MacIntel,60,,,,,,,,,,1,,,,,,,,,,,,,,,,,,,,,,,,,,,,,,,,,,,,,,,,45,jilguero,,,1,1,0.538375,0,16,16,44,1,REAL,FAKE,,,,,,,,,,,,,,,,,,,,,
,,,,,,,603454dbbea63e24a99aabd2,605b45a4d25f287719a41696,605b92b03c7dd47b8ef6be4a,I am not familiar with Spanish,Midwest,NA,no,2021-03-24_14h28.04.856,empathy_intonation_perc,2020.2.10,MacIntel,60,,,,,,,,,,1,,,,,,,,,,,,,,,,,,,,,,,,,,,,,,,,,,,,,,,,25,bisagra,,,0,0,0.903445,0,17,17,24,1,REAL,FAKE,,,,,,,,,,,,,,,,,,,,,
,,,,,,,603454dbbea63e24a99aabd2,605b45a4d25f287719a41696,605b92b03c7dd47b8ef6be4a,I am not familiar with Spanish,Midwest,NA,no,2021-03-24_14h28.04.856,empathy_intonation_perc,2020.2.10,MacIntel,60,,,,,,,,,,0,,,,,,,,,,,,,,,,,,,,,,,,,,,,,,,,,,,,,,,,18,arsa,,,1,0,0.56734,0,18,18,17,1,REAL,FAKE,,,,,,,,,,,,,,,,,,,,,
,,,,,,,603454dbbea63e24a99aabd2,605b45a4d25f287719a41696,605b92b03c7dd47b8ef6be4a,I am not familiar with Spanish,Midwest,NA,no,2021-03-24_14h28.04.856,empathy_intonation_perc,2020.2.10,MacIntel,60,,,,,,,,,,1,,,,,,,,,,,,,,,,,,,,,,,,,,,,,,,,,,,,,,,,28,merodear,,,0,0,0.551715,0,19,19,27,1,REAL,FAKE,,,,,,,,,,,,,,,,,,,,,
,,,,,,,603454dbbea63e24a99aabd2,605b45a4d25f287719a41696,605b92b03c7dd47b8ef6be4a,I am not familiar with Spanish,Midwest,NA,no,2021-03-24_14h28.04.856,empathy_intonation_perc,2020.2.10,MacIntel,60,,,,,,,,,,0,,,,,,,,,,,,,,,,,,,,,,,,,,,,,,,,,,,,,,,,58,plaudir,,,0,1,0.65045,0,20,20,57,1,REAL,FAKE,,,,,,,,,,,,,,,,,,,,,
,,,,,,,603454dbbea63e24a99aabd2,605b45a4d25f287719a41696,605b92b03c7dd47b8ef6be4a,I am not familiar with Spanish,Midwest,NA,no,2021-03-24_14h28.04.856,empathy_intonation_perc,2020.2.10,MacIntel,60,,,,,,,,,,1,,,,,,,,,,,,,,,,,,,,,,,,,,,,,,,,,,,,,,,,41,rebuscar,,,1,1,0.61871,0,21,21,40,1,REAL,FAKE,,,,,,,,,,,,,,,,,,,,,
,,,,,,,603454dbbea63e24a99aabd2,605b45a4d25f287719a41696,605b92b03c7dd47b8ef6be4a,I am not familiar with Spanish,Midwest,NA,no,2021-03-24_14h28.04.856,empathy_intonation_perc,2020.2.10,MacIntel,60,,,,,,,,,,1,,,,,,,,,,,,,,,,,,,,,,,,,,,,,,,,,,,,,,,,6,tergiversar,,,1,1,0.99732,0,22,22,5,1,REAL,FAKE,,,,,,,,,,,,,,,,,,,,,
,,,,,,,603454dbbea63e24a99aabd2,605b45a4d25f287719a41696,605b92b03c7dd47b8ef6be4a,I am not familiar with Spanish,Midwest,NA,no,2021-03-24_14h28.04.856,empathy_intonation_perc,2020.2.10,MacIntel,60,,,,,,,,,,1,,,,,,,,,,,,,,,,,,,,,,,,,,,,,,,,,,,,,,,,20,vido,,,1,1,0.81689,0,23,23,19,1,REAL,FAKE,,,,,,,,,,,,,,,,,,,,,
,,,,,,,603454dbbea63e24a99aabd2,605b45a4d25f287719a41696,605b92b03c7dd47b8ef6be4a,I am not familiar with Spanish,Midwest,NA,no,2021-03-24_14h28.04.856,empathy_intonation_perc,2020.2.10,MacIntel,60,,,,,,,,,,1,,,,,,,,,,,,,,,,,,,,,,,,,,,,,,,,,,,,,,,,48,ladrn,,,1,1,0.63494,0,24,24,47,1,REAL,FAKE,,,,,,,,,,,,,,,,,,,,,
,,,,,,,603454dbbea63e24a99aabd2,605b45a4d25f287719a41696,605b92b03c7dd47b8ef6be4a,I am not familiar with Spanish,Midwest,NA,no,2021-03-24_14h28.04.856,empathy_intonation_perc,2020.2.10,MacIntel,60,,,,,,,,,,0,,,,,,,,,,,,,,,,,,,,,,,,,,,,,,,,,,,,,,,,1,terzo,,,0,1,0.505665,0,25,25,0,1,REAL,FAKE,,,,,,,,,,,,,,,,,,,,,
,,,,,,,603454dbbea63e24a99aabd2,605b45a4d25f287719a41696,605b92b03c7dd47b8ef6be4a,I am not familiar with Spanish,Midwest,NA,no,2021-03-24_14h28.04.856,empathy_intonation_perc,2020.2.10,MacIntel,60,,,,,,,,,,1,,,,,,,,,,,,,,,,,,,,,,,,,,,,,,,,,,,,,,,,44,cuchara,,,0,0,0.685535,0,26,26,43,1,REAL,FAKE,,,,,,,,,,,,,,,,,,,,,
,,,,,,,603454dbbea63e24a99aabd2,605b45a4d25f287719a41696,605b92b03c7dd47b8ef6be4a,I am not familiar with Spanish,Midwest,NA,no,2021-03-24_14h28.04.856,empathy_intonation_perc,2020.2.10,MacIntel,60,,,,,,,,,,0,,,,,,,,,,,,,,,,,,,,,,,,,,,,,,,,,,,,,,,,74,cintro,,,1,0,0.63285,0,27,27,73,1,REAL,FAKE,,,,,,,,,,,,,,,,,,,,,
,,,,,,,603454dbbea63e24a99aabd2,605b45a4d25f287719a41696,605b92b03c7dd47b8ef6be4a,I am not familiar with Spanish,Midwest,NA,no,2021-03-24_14h28.04.856,empathy_intonation_perc,2020.2.10,MacIntel,60,,,,,,,,,,1,,,,,,,,,,,,,,,,,,,,,,,,,,,,,,,,,,,,,,,,13,helar,,,0,0,0.60065,0,28,28,12,1,REAL,FAKE,,,,,,,,,,,,,,,,,,,,,
,,,,,,,603454dbbea63e24a99aabd2,605b45a4d25f287719a41696,605b92b03c7dd47b8ef6be4a,I am not familiar with Spanish,Midwest,NA,no,2021-03-24_14h28.04.856,empathy_intonation_perc,2020.2.10,MacIntel,60,,,,,,,,,,1,,,,,,,,,,,,,,,,,,,,,,,,,,,,,,,,,,,,,,,,73,hervidor,,,1,1,0.80178,0,29,29,72,1,REAL,FAKE,,,,,,,,,,,,,,,,,,,,,
,,,,,,,603454dbbea63e24a99aabd2,605b45a4d25f287719a41696,605b92b03c7dd47b8ef6be4a,I am not familiar with Spanish,Midwest,NA,no,2021-03-24_14h28.04.856,empathy_intonation_perc,2020.2.10,MacIntel,60,,,,,,,,,,1,,,,,,,,,,,,,,,,,,,,,,,,,,,,,,,,,,,,,,,,37,granuja,,,1,1,0.750695,0,30,30,36,1,REAL,FAKE,,,,,,,,,,,,,,,,,,,,,
,,,,,,,603454dbbea63e24a99aabd2,605b45a4d25f287719a41696,605b92b03c7dd47b8ef6be4a,I am not familiar with Spanish,Midwest,NA,no,2021-03-24_14h28.04.856,empathy_intonation_perc,2020.2.10,MacIntel,60,,,,,,,,,,1,,,,,,,,,,,,,,,,,,,,,,,,,,,,,,,,,,,,,,,,34,aviso,,,1,1,0.81626,0,31,31,33,1,REAL,FAKE,,,,,,,,,,,,,,,,,,,,,
,,,,,,,603454dbbea63e24a99aabd2,605b45a4d25f287719a41696,605b92b03c7dd47b8ef6be4a,I am not familiar with Spanish,Midwest,NA,no,2021-03-24_14h28.04.856,empathy_intonation_perc,2020.2.10,MacIntel,60,,,,,,,,,,0,,,,,,,,,,,,,,,,,,,,,,,,,,,,,,,,,,,,,,,,66,hacido,,,0,1,0.30314,0,32,32,65,1,REAL,FAKE,,,,,,,,,,,,,,,,,,,,,
,,,,,,,603454dbbea63e24a99aabd2,605b45a4d25f287719a41696,605b92b03c7dd47b8ef6be4a,I am not familiar with Spanish,Midwest,NA,no,2021-03-24_14h28.04.856,empathy_intonation_perc,2020.2.10,MacIntel,60,,,,,,,,,,0,,,,,,,,,,,,,,,,,,,,,,,,,,,,,,,,,,,,,,,,70,temblo,,,0,1,0.186345,0,33,33,69,1,REAL,FAKE,,,,,,,,,,,,,,,,,,,,,
,,,,,,,603454dbbea63e24a99aabd2,605b45a4d25f287719a41696,605b92b03c7dd47b8ef6be4a,I am not familiar with Spanish,Midwest,NA,no,2021-03-24_14h28.04.856,empathy_intonation_perc,2020.2.10,MacIntel,60,,,,,,,,,,1,,,,,,,,,,,,,,,,,,,,,,,,,,,,,,,,,,,,,,,,83,guante,,,0,0,0.419975,0,34,34,82,1,REAL,FAKE,,,,,,,,,,,,,,,,,,,,,
,,,,,,,603454dbbea63e24a99aabd2,605b45a4d25f287719a41696,605b92b03c7dd47b8ef6be4a,I am not familiar with Spanish,Midwest,NA,no,2021-03-24_14h28.04.856,empathy_intonation_perc,2020.2.10,MacIntel,60,,,,,,,,,,1,,,,,,,,,,,,,,,,,,,,,,,,,,,,,,,,,,,,,,,,89,prisa,,,1,1,0.338265,0,35,35,88,1,REAL,FAKE,,,,,,,,,,,,,,,,,,,,,
,,,,,,,603454dbbea63e24a99aabd2,605b45a4d25f287719a41696,605b92b03c7dd47b8ef6be4a,I am not familiar with Spanish,Midwest,NA,no,2021-03-24_14h28.04.856,empathy_intonation_perc,2020.2.10,MacIntel,60,,,,,,,,,,1,,,,,,,,,,,,,,,,,,,,,,,,,,,,,,,,,,,,,,,,14,yunque,,,0,0,0.144845,0,36,36,13,1,REAL,FAKE,,,,,,,,,,,,,,,,,,,,,
,,,,,,,603454dbbea63e24a99aabd2,605b45a4d25f287719a41696,605b92b03c7dd47b8ef6be4a,I am not familiar with Spanish,Midwest,NA,no,2021-03-24_14h28.04.856,empathy_intonation_perc,2020.2.10,MacIntel,60,,,,,,,,,,1,,,,,,,,,,,,,,,,,,,,,,,,,,,,,,,,,,,,,,,,11,cenefa,,,1,1,0.22016,0,37,37,10,1,REAL,FAKE,,,,,,,,,,,,,,,,,,,,,
,,,,,,,603454dbbea63e24a99aabd2,605b45a4d25f287719a41696,605b92b03c7dd47b8ef6be4a,I am not familiar with Spanish,Midwest,NA,no,2021-03-24_14h28.04.856,empathy_intonation_perc,2020.2.10,MacIntel,60,,,,,,,,,,1,,,,,,,,,,,,,,,,,,,,,,,,,,,,,,,,,,,,,,,,39,torpe,,,0,0,0.15298,0,38,38,38,1,REAL,FAKE,,,,,,,,,,,,,,,,,,,,,
,,,,,,,603454dbbea63e24a99aabd2,605b45a4d25f287719a41696,605b92b03c7dd47b8ef6be4a,I am not familiar with Spanish,Midwest,NA,no,2021-03-24_14h28.04.856,empathy_intonation_perc,2020.2.10,MacIntel,60,,,,,,,,,,0,,,,,,,,,,,,,,,,,,,,,,,,,,,,,,,,,,,,,,,,19,brecedad,,,0,1,0.2341,0,39,39,18,1,REAL,FAKE,,,,,,,,,,,,,,,,,,,,,
,,,,,,,603454dbbea63e24a99aabd2,605b45a4d25f287719a41696,605b92b03c7dd47b8ef6be4a,I am not familiar with Spanish,Midwest,NA,no,2021-03-24_14h28.04.856,empathy_intonation_perc,2020.2.10,MacIntel,60,,,,,,,,,,1,,,,,,,,,,,,,,,,,,,,,,,,,,,,,,,,,,,,,,,,54,fomentar,,,1,1,0.182985,0,40,40,53,1,REAL,FAKE,,,,,,,,,,,,,,,,,,,,,
,,,,,,,603454dbbea63e24a99aabd2,605b45a4d25f287719a41696,605b92b03c7dd47b8ef6be4a,I am not familiar with Spanish,Midwest,NA,no,2021-03-24_14h28.04.856,empathy_intonation_perc,2020.2.10,MacIntel,60,,,,,,,,,,0,,,,,,,,,,,,,,,,,,,,,,,,,,,,,,,,,,,,,,,,17,floroso,,,1,0,0.084005,0,41,41,16,1,REAL,FAKE,,,,,,,,,,,,,,,,,,,,,
,,,,,,,603454dbbea63e24a99aabd2,605b45a4d25f287719a41696,605b92b03c7dd47b8ef6be4a,I am not familiar with Spanish,Midwest,NA,no,2021-03-24_14h28.04.856,empathy_intonation_perc,2020.2.10,MacIntel,60,,,,,,,,,,0,,,,,,,,,,,,,,,,,,,,,,,,,,,,,,,,,,,,,,,,72,pemicin,,,0,1,0.23398,0,42,42,71,1,REAL,FAKE,,,,,,,,,,,,,,,,,,,,,
,,,,,,,603454dbbea63e24a99aabd2,605b45a4d25f287719a41696,605b92b03c7dd47b8ef6be4a,I am not familiar with Spanish,Midwest,NA,no,2021-03-24_14h28.04.856,empathy_intonation_perc,2020.2.10,MacIntel,60,,,,,,,,,,1,,,,,,,,,,,,,,,,,,,,,,,,,,,,,,,,,,,,,,,,77,tiburn,,,1,1,0.185635,0,43,43,76,1,REAL,FAKE,,,,,,,,,,,,,,,,,,,,,
,,,,,,,603454dbbea63e24a99aabd2,605b45a4d25f287719a41696,605b92b03c7dd47b8ef6be4a,I am not familiar with Spanish,Midwest,NA,no,2021-03-24_14h28.04.856,empathy_intonation_perc,2020.2.10,MacIntel,60,,,,,,,,,,1,,,,,,,,,,,,,,,,,,,,,,,,,,,,,,,,,,,,,,,,78,frondoso,,,0,0,0.384685,0,44,44,77,1,REAL,FAKE,,,,,,,,,,,,,,,,,,,,,
,,,,,,,603454dbbea63e24a99aabd2,605b45a4d25f287719a41696,605b92b03c7dd47b8ef6be4a,I am not familiar with Spanish,Midwest,NA,no,2021-03-24_14h28.04.856,empathy_intonation_perc,2020.2.10,MacIntel,60,,,,,,,,,,1,,,,,,,,,,,,,,,,,,,,,,,,,,,,,,,,,,,,,,,,57,tacao,,,1,1,0.40417,0,45,45,56,1,REAL,FAKE,,,,,,,,,,,,,,,,,,,,,
,,,,,,,603454dbbea63e24a99aabd2,605b45a4d25f287719a41696,605b92b03c7dd47b8ef6be4a,I am not familiar with Spanish,Midwest,NA,no,2021-03-24_14h28.04.856,empathy_intonation_perc,2020.2.10,MacIntel,60,,,,,,,,,,0,,,,,,,,,,,,,,,,,,,,,,,,,,,,,,,,,,,,,,,,10,antar,,,0,1,0.367305,0,46,46,9,1,REAL,FAKE,,,,,,,,,,,,,,,,,,,,,
,,,,,,,603454dbbea63e24a99aabd2,605b45a4d25f287719a41696,605b92b03c7dd47b8ef6be4a,I am not familiar with Spanish,Midwest,NA,no,2021-03-24_14h28.04.856,empathy_intonation_perc,2020.2.10,MacIntel,60,,,,,,,,,,1,,,,,,,,,,,,,,,,,,,,,,,,,,,,,,,,,,,,,,,,76,atar,,,1,1,0.351595,0,47,47,75,1,REAL,FAKE,,,,,,,,,,,,,,,,,,,,,
,,,,,,,603454dbbea63e24a99aabd2,605b45a4d25f287719a41696,605b92b03c7dd47b8ef6be4a,I am not familiar with Spanish,Midwest,NA,no,2021-03-24_14h28.04.856,empathy_intonation_perc,2020.2.10,MacIntel,60,,,,,,,,,,1,,,,,,,,,,,,,,,,,,,,,,,,,,,,,,,,,,,,,,,,90,clavel,,,1,1,0.42088,0,48,48,89,1,REAL,FAKE,,,,,,,,,,,,,,,,,,,,,
,,,,,,,603454dbbea63e24a99aabd2,605b45a4d25f287719a41696,605b92b03c7dd47b8ef6be4a,I am not familiar with Spanish,Midwest,NA,no,2021-03-24_14h28.04.856,empathy_intonation_perc,2020.2.10,MacIntel,60,,,,,,,,,,1,,,,,,,,,,,,,,,,,,,,,,,,,,,,,,,,,,,,,,,,15,regar,,,0,0,0.169145,0,49,49,14,1,REAL,FAKE,,,,,,,,,,,,,,,,,,,,,
,,,,,,,603454dbbea63e24a99aabd2,605b45a4d25f287719a41696,605b92b03c7dd47b8ef6be4a,I am not familiar with Spanish,Midwest,NA,no,2021-03-24_14h28.04.856,empathy_intonation_perc,2020.2.10,MacIntel,60,,,,,,,,,,1,,,,,,,,,,,,,,,,,,,,,,,,,,,,,,,,,,,,,,,,61,seda,,,0,0,0.35081,0,50,50,60,1,REAL,FAKE,,,,,,,,,,,,,,,,,,,,,
,,,,,,,603454dbbea63e24a99aabd2,605b45a4d25f287719a41696,605b92b03c7dd47b8ef6be4a,I am not familiar with Spanish,Midwest,NA,no,2021-03-24_14h28.04.856,empathy_intonation_perc,2020.2.10,MacIntel,60,,,,,,,,,,1,,,,,,,,,,,,,,,,,,,,,,,,,,,,,,,,,,,,,,,,75,yacer,,,1,1,0.303085,0,51,51,74,1,REAL,FAKE,,,,,,,,,,,,,,,,,,,,,
,,,,,,,603454dbbea63e24a99aabd2,605b45a4d25f287719a41696,605b92b03c7dd47b8ef6be4a,I am not familiar with Spanish,Midwest,NA,no,2021-03-24_14h28.04.856,empathy_intonation_perc,2020.2.10,MacIntel,60,,,,,,,,,,0,,,,,,,,,,,,,,,,,,,,,,,,,,,,,,,,,,,,,,,,84,escuto,,,0,1,0.252005,0,52,52,83,1,REAL,FAKE,,,,,,,,,,,,,,,,,,,,,
,,,,,,,603454dbbea63e24a99aabd2,605b45a4d25f287719a41696,605b92b03c7dd47b8ef6be4a,I am not familiar with Spanish,Midwest,NA,no,2021-03-24_14h28.04.856,empathy_intonation_perc,2020.2.10,MacIntel,60,,,,,,,,,,1,,,,,,,,,,,,,,,,,,,,,,,,,,,,,,,,,,,,,,,,80,hormiga,,,1,1,0.35245,0,53,53,79,1,REAL,FAKE,,,,,,,,,,,,,,,,,,,,,
,,,,,,,603454dbbea63e24a99aabd2,605b45a4d25f287719a41696,605b92b03c7dd47b8ef6be4a,I am not familiar with Spanish,Midwest,NA,no,2021-03-24_14h28.04.856,empathy_intonation_perc,2020.2.10,MacIntel,60,,,,,,,,,,1,,,,,,,,,,,,,,,,,,,,,,,,,,,,,,,,,,,,,,,,71,polvoriento,,,0,0,0.33392,0,54,54,70,1,REAL,FAKE,,,,,,,,,,,,,,,,,,,,,
,,,,,,,603454dbbea63e24a99aabd2,605b45a4d25f287719a41696,605b92b03c7dd47b8ef6be4a,I am not familiar with Spanish,Midwest,NA,no,2021-03-24_14h28.04.856,empathy_intonation_perc,2020.2.10,MacIntel,60,,,,,,,,,,1,,,,,,,,,,,,,,,,,,,,,,,,,,,,,,,,,,,,,,,,56,musgo,,,0,0,0.285225,0,55,55,55,1,REAL,FAKE,,,,,,,,,,,,,,,,,,,,,
,,,,,,,603454dbbea63e24a99aabd2,605b45a4d25f287719a41696,605b92b03c7dd47b8ef6be4a,I am not familiar with Spanish,Midwest,NA,no,2021-03-24_14h28.04.856,empathy_intonation_perc,2020.2.10,MacIntel,60,,,,,,,,,,0,,,,,,,,,,,,,,,,,,,,,,,,,,,,,,,,,,,,,,,,63,esposante,,,1,0,0.184455,0,56,56,62,1,REAL,FAKE,,,,,,,,,,,,,,,,,,,,,
,,,,,,,603454dbbea63e24a99aabd2,605b45a4d25f287719a41696,605b92b03c7dd47b8ef6be4a,I am not familiar with Spanish,Midwest,NA,no,2021-03-24_14h28.04.856,empathy_intonation_perc,2020.2.10,MacIntel,60,,,,,,,,,,1,,,,,,,,,,,,,,,,,,,,,,,,,,,,,,,,,,,,,,,,55,nevar,,,0,0,0.28835,0,57,57,54,1,REAL,FAKE,,,,,,,,,,,,,,,,,,,,,
,,,,,,,603454dbbea63e24a99aabd2,605b45a4d25f287719a41696,605b92b03c7dd47b8ef6be4a,I am not familiar with Spanish,Midwest,NA,no,2021-03-24_14h28.04.856,empathy_intonation_perc,2020.2.10,MacIntel,60,,,,,,,,,,1,,,,,,,,,,,,,,,,,,,,,,,,,,,,,,,,,,,,,,,,22,lacayo,,,1,1,0.03388,0,58,58,21,1,REAL,FAKE,,,,,,,,,,,,,,,,,,,,,
,,,,,,,603454dbbea63e24a99aabd2,605b45a4d25f287719a41696,605b92b03c7dd47b8ef6be4a,I am not familiar with Spanish,Midwest,NA,no,2021-03-24_14h28.04.856,empathy_intonation_perc,2020.2.10,MacIntel,60,,,,,,,,,,1,,,,,,,,,,,,,,,,,,,,,,,,,,,,,,,,,,,,,,,,85,lad,,,0,0,0.229195,0,59,59,84,1,REAL,FAKE,,,,,,,,,,,,,,,,,,,,,
,,,,,,,603454dbbea63e24a99aabd2,605b45a4d25f287719a41696,605b92b03c7dd47b8ef6be4a,I am not familiar with Spanish,Midwest,NA,no,2021-03-24_14h28.04.856,empathy_intonation_perc,2020.2.10,MacIntel,60,,,,,,,,,,1,,,,,,,,,,,,,,,,,,,,,,,,,,,,,,,,,,,,,,,,5,zapato,,,0,0,0.46728,0,60,60,4,1,REAL,FAKE,,,,,,,,,,,,,,,,,,,,,
,,,,,,,603454dbbea63e24a99aabd2,605b45a4d25f287719a41696,605b92b03c7dd47b8ef6be4a,I am not familiar with Spanish,Midwest,NA,no,2021-03-24_14h28.04.856,empathy_intonation_perc,2020.2.10,MacIntel,60,,,,,,,,,,1,,,,,,,,,,,,,,,,,,,,,,,,,,,,,,,,,,,,,,,,36,loro,,,0,0,0.501245,0,61,61,35,1,REAL,FAKE,,,,,,,,,,,,,,,,,,,,,
,,,,,,,603454dbbea63e24a99aabd2,605b45a4d25f287719a41696,605b92b03c7dd47b8ef6be4a,I am not familiar with Spanish,Midwest,NA,no,2021-03-24_14h28.04.856,empathy_intonation_perc,2020.2.10,MacIntel,60,,,,,,,,,,1,,,,,,,,,,,,,,,,,,,,,,,,,,,,,,,,,,,,,,,,26,secuestro,,,1,1,0.38972,0,62,62,25,1,REAL,FAKE,,,,,,,,,,,,,,,,,,,,,
,,,,,,,603454dbbea63e24a99aabd2,605b45a4d25f287719a41696,605b92b03c7dd47b8ef6be4a,I am not familiar with Spanish,Midwest,NA,no,2021-03-24_14h28.04.856,empathy_intonation_perc,2020.2.10,MacIntel,60,,,,,,,,,,1,,,,,,,,,,,,,,,,,,,,,,,,,,,,,,,,,,,,,,,,51,candado,,,1,1,0.40192,0,63,63,50,1,REAL,FAKE,,,,,,,,,,,,,,,,,,,,,
,,,,,,,603454dbbea63e24a99aabd2,605b45a4d25f287719a41696,605b92b03c7dd47b8ef6be4a,I am not familiar with Spanish,Midwest,NA,no,2021-03-24_14h28.04.856,empathy_intonation_perc,2020.2.10,MacIntel,60,,,,,,,,,,1,,,,,,,,,,,,,,,,,,,,,,,,,,,,,,,,,,,,,,,,31,pandilla,,,0,0,0.58873,0,64,64,30,1,REAL,FAKE,,,,,,,,,,,,,,,,,,,,,
,,,,,,,603454dbbea63e24a99aabd2,605b45a4d25f287719a41696,605b92b03c7dd47b8ef6be4a,I am not familiar with Spanish,Midwest,NA,no,2021-03-24_14h28.04.856,empathy_intonation_perc,2020.2.10,MacIntel,60,,,,,,,,,,0,,,,,,,,,,,,,,,,,,,,,,,,,,,,,,,,,,,,,,,,30,alardio,,,0,1,0.50061,0,65,65,29,1,REAL,FAKE,,,,,,,,,,,,,,,,,,,,,
,,,,,,,603454dbbea63e24a99aabd2,605b45a4d25f287719a41696,605b92b03c7dd47b8ef6be4a,I am not familiar with Spanish,Midwest,NA,no,2021-03-24_14h28.04.856,empathy_intonation_perc,2020.2.10,MacIntel,60,,,,,,,,,,1,,,,,,,,,,,,,,,,,,,,,,,,,,,,,,,,,,,,,,,,40,alfombra,,,1,1,0.70139,0,66,66,39,1,REAL,FAKE,,,,,,,,,,,,,,,,,,,,,
,,,,,,,603454dbbea63e24a99aabd2,605b45a4d25f287719a41696,605b92b03c7dd47b8ef6be4a,I am not familiar with Spanish,Midwest,NA,no,2021-03-24_14h28.04.856,empathy_intonation_perc,2020.2.10,MacIntel,60,,,,,,,,,,1,,,,,,,,,,,,,,,,,,,,,,,,,,,,,,,,,,,,,,,,59,besar,,,0,0,0.536555,0,67,67,58,1,REAL,FAKE,,,,,,,,,,,,,,,,,,,,,
,,,,,,,603454dbbea63e24a99aabd2,605b45a4d25f287719a41696,605b92b03c7dd47b8ef6be4a,I am not familiar with Spanish,Midwest,NA,no,2021-03-24_14h28.04.856,empathy_intonation_perc,2020.2.10,MacIntel,60,,,,,,,,,,1,,,,,,,,,,,,,,,,,,,,,,,,,,,,,,,,,,,,,,,,38,estornudar,,,0,0,0.551755,0,68,68,37,1,REAL,FAKE,,,,,,,,,,,,,,,,,,,,,
,,,,,,,603454dbbea63e24a99aabd2,605b45a4d25f287719a41696,605b92b03c7dd47b8ef6be4a,I am not familiar with Spanish,Midwest,NA,no,2021-03-24_14h28.04.856,empathy_intonation_perc,2020.2.10,MacIntel,60,,,,,,,,,,1,,,,,,,,,,,,,,,,,,,,,,,,,,,,,,,,,,,,,,,,65,bizcocho,,,0,0,0.96735,0,69,69,64,1,REAL,FAKE,,,,,,,,,,,,,,,,,,,,,
,,,,,,,603454dbbea63e24a99aabd2,605b45a4d25f287719a41696,605b92b03c7dd47b8ef6be4a,I am not familiar with Spanish,Midwest,NA,no,2021-03-24_14h28.04.856,empathy_intonation_perc,2020.2.10,MacIntel,60,,,,,,,,,,0,,,,,,,,,,,,,,,,,,,,,,,,,,,,,,,,,,,,,,,,87,grodo,,,1,0,0.468365,0,70,70,86,1,REAL,FAKE,,,,,,,,,,,,,,,,,,,,,
,,,,,,,603454dbbea63e24a99aabd2,605b45a4d25f287719a41696,605b92b03c7dd47b8ef6be4a,I am not familiar with Spanish,Midwest,NA,no,2021-03-24_14h28.04.856,empathy_intonation_perc,2020.2.10,MacIntel,60,,,,,,,,,,1,,,,,,,,,,,,,,,,,,,,,,,,,,,,,,,,,,,,,,,,67,cabello,,,0,0,0.551635,0,71,71,66,1,REAL,FAKE,,,,,,,,,,,,,,,,,,,,,
,,,,,,,603454dbbea63e24a99aabd2,605b45a4d25f287719a41696,605b92b03c7dd47b8ef6be4a,I am not familiar with Spanish,Midwest,NA,no,2021-03-24_14h28.04.856,empathy_intonation_perc,2020.2.10,MacIntel,60,,,,,,,,,,0,,,,,,,,,,,,,,,,,,,,,,,,,,,,,,,,,,,,,,,,53,vegada,,,1,0,0.368045,0,72,72,52,1,REAL,FAKE,,,,,,,,,,,,,,,,,,,,,
,,,,,,,603454dbbea63e24a99aabd2,605b45a4d25f287719a41696,605b92b03c7dd47b8ef6be4a,I am not familiar with Spanish,Midwest,NA,no,2021-03-24_14h28.04.856,empathy_intonation_perc,2020.2.10,MacIntel,60,,,,,,,,,,1,,,,,,,,,,,,,,,,,,,,,,,,,,,,,,,,,,,,,,,,12,asesinato,,,1,1,0.63457,0,73,73,11,1,REAL,FAKE,,,,,,,,,,,,,,,,,,,,,
,,,,,,,603454dbbea63e24a99aabd2,605b45a4d25f287719a41696,605b92b03c7dd47b8ef6be4a,I am not familiar with Spanish,Midwest,NA,no,2021-03-24_14h28.04.856,empathy_intonation_perc,2020.2.10,MacIntel,60,,,,,,,,,,0,,,,,,,,,,,,,,,,,,,,,,,,,,,,,,,,,,,,,,,,35,rompido,,,0,1,0.40445,0,74,74,34,1,REAL,FAKE,,,,,,,,,,,,,,,,,,,,,
,,,,,,,603454dbbea63e24a99aabd2,605b45a4d25f287719a41696,605b92b03c7dd47b8ef6be4a,I am not familiar with Spanish,Midwest,NA,no,2021-03-24_14h28.04.856,empathy_intonation_perc,2020.2.10,MacIntel,60,,,,,,,,,,0,,,,,,,,,,,,,,,,,,,,,,,,,,,,,,,,,,,,,,,,32,fatacidad,,,0,1,0.66704,0,75,75,31,1,REAL,FAKE,,,,,,,,,,,,,,,,,,,,,
,,,,,,,603454dbbea63e24a99aabd2,605b45a4d25f287719a41696,605b92b03c7dd47b8ef6be4a,I am not familiar with Spanish,Midwest,NA,no,2021-03-24_14h28.04.856,empathy_intonation_perc,2020.2.10,MacIntel,60,,,,,,,,,,1,,,,,,,,,,,,,,,,,,,,,,,,,,,,,,,,,,,,,,,,86,barato,,,1,1,0.45211,0,76,76,85,1,REAL,FAKE,,,,,,,,,,,,,,,,,,,,,
,,,,,,,603454dbbea63e24a99aabd2,605b45a4d25f287719a41696,605b92b03c7dd47b8ef6be4a,I am not familiar with Spanish,Midwest,NA,no,2021-03-24_14h28.04.856,empathy_intonation_perc,2020.2.10,MacIntel,60,,,,,,,,,,1,,,,,,,,,,,,,,,,,,,,,,,,,,,,,,,,,,,,,,,,43,canela,,,1,1,0.43712,0,77,77,42,1,REAL,FAKE,,,,,,,,,,,,,,,,,,,,,
,,,,,,,603454dbbea63e24a99aabd2,605b45a4d25f287719a41696,605b92b03c7dd47b8ef6be4a,I am not familiar with Spanish,Midwest,NA,no,2021-03-24_14h28.04.856,empathy_intonation_perc,2020.2.10,MacIntel,60,,,,,,,,,,0,,,,,,,,,,,,,,,,,,,,,,,,,,,,,,,,,,,,,,,,33,pauca,,,0,1,0.42134,0,78,78,32,1,REAL,FAKE,,,,,,,,,,,,,,,,,,,,,
,,,,,,,603454dbbea63e24a99aabd2,605b45a4d25f287719a41696,605b92b03c7dd47b8ef6be4a,I am not familiar with Spanish,Midwest,NA,no,2021-03-24_14h28.04.856,empathy_intonation_perc,2020.2.10,MacIntel,60,,,,,,,,,,1,,,,,,,,,,,,,,,,,,,,,,,,,,,,,,,,,,,,,,,,52,camisa,,,0,0,0.801055,0,79,79,51,1,REAL,FAKE,,,,,,,,,,,,,,,,,,,,,
,,,,,,,603454dbbea63e24a99aabd2,605b45a4d25f287719a41696,605b92b03c7dd47b8ef6be4a,I am not familiar with Spanish,Midwest,NA,no,2021-03-24_14h28.04.856,empathy_intonation_perc,2020.2.10,MacIntel,60,,,,,,,,,,1,,,,,,,,,,,,,,,,,,,,,,,,,,,,,,,,,,,,,,,,9,hacha,,,0,0,0.68397,0,80,80,8,1,REAL,FAKE,,,,,,,,,,,,,,,,,,,,,
,,,,,,,603454dbbea63e24a99aabd2,605b45a4d25f287719a41696,605b92b03c7dd47b8ef6be4a,I am not familiar with Spanish,Midwest,NA,no,2021-03-24_14h28.04.856,empathy_intonation_perc,2020.2.10,MacIntel,60,,,,,,,,,,1,,,,,,,,,,,,,,,,,,,,,,,,,,,,,,,,,,,,,,,,3,pulmones,,,1,1,0.484635,0,81,81,2,1,REAL,FAKE,,,,,,,,,,,,,,,,,,,,,
,,,,,,,603454dbbea63e24a99aabd2,605b45a4d25f287719a41696,605b92b03c7dd47b8ef6be4a,I am not familiar with Spanish,Midwest,NA,no,2021-03-24_14h28.04.856,empathy_intonation_perc,2020.2.10,MacIntel,60,,,,,,,,,,1,,,,,,,,,,,,,,,,,,,,,,,,,,,,,,,,,,,,,,,,69,engatusar,,,0,0,0.734155,0,82,82,68,1,REAL,FAKE,,,,,,,,,,,,,,,,,,,,,
,,,,,,,603454dbbea63e24a99aabd2,605b45a4d25f287719a41696,605b92b03c7dd47b8ef6be4a,I am not familiar with Spanish,Midwest,NA,no,2021-03-24_14h28.04.856,empathy_intonation_perc,2020.2.10,MacIntel,60,,,,,,,,,,0,,,,,,,,,,,,,,,,,,,,,,,,,,,,,,,,,,,,,,,,29,decar,,,0,1,0.80321,0,83,83,28,1,REAL,FAKE,,,,,,,,,,,,,,,,,,,,,
,,,,,,,603454dbbea63e24a99aabd2,605b45a4d25f287719a41696,605b92b03c7dd47b8ef6be4a,I am not familiar with Spanish,Midwest,NA,no,2021-03-24_14h28.04.856,empathy_intonation_perc,2020.2.10,MacIntel,60,,,,,,,,,,0,,,,,,,,,,,,,,,,,,,,,,,,,,,,,,,,,,,,,,,,27,acutacin,,,1,0,0.51825,0,84,84,26,1,REAL,FAKE,,,,,,,,,,,,,,,,,,,,,
,,,,,,,603454dbbea63e24a99aabd2,605b45a4d25f287719a41696,605b92b03c7dd47b8ef6be4a,I am not familiar with Spanish,Midwest,NA,no,2021-03-24_14h28.04.856,empathy_intonation_perc,2020.2.10,MacIntel,60,,,,,,,,,,0,,,,,,,,,,,,,,,,,,,,,,,,,,,,,,,,,,,,,,,,82,empirador,,,0,1,1.01659,0,85,85,81,1,REAL,FAKE,,,,,,,,,,,,,,,,,,,,,
,,,,,,,603454dbbea63e24a99aabd2,605b45a4d25f287719a41696,605b92b03c7dd47b8ef6be4a,I am not familiar with Spanish,Midwest,NA,no,2021-03-24_14h28.04.856,empathy_intonation_perc,2020.2.10,MacIntel,60,,,,,,,,,,1,,,,,,,,,,,,,,,,,,,,,,,,,,,,,,,,,,,,,,,,2,pellizcar,,,1,1,0.420645,0,86,86,1,1,REAL,FAKE,,,,,,,,,,,,,,,,,,,,,
,,,,,,,603454dbbea63e24a99aabd2,605b45a4d25f287719a41696,605b92b03c7dd47b8ef6be4a,I am not familiar with Spanish,Midwest,NA,no,2021-03-24_14h28.04.856,empathy_intonation_perc,2020.2.10,MacIntel,60,,,,,,,,,,0,,,,,,,,,,,,,,,,,,,,,,,,,,,,,,,,,,,,,,,,16,abracer,,,0,1,0.76734,0,87,87,15,1,REAL,FAKE,,,,,,,,,,,,,,,,,,,,,
,,,,,,,603454dbbea63e24a99aabd2,605b45a4d25f287719a41696,605b92b03c7dd47b8ef6be4a,I am not familiar with Spanish,Midwest,NA,no,2021-03-24_14h28.04.856,empathy_intonation_perc,2020.2.10,MacIntel,60,,,,,,,,,,1,,,,,,,,,,,,,,,,,,,,,,,,,,,,,,,,,,,,,,,,7,psimo,,,1,1,0.51808,0,88,88,6,1,REAL,FAKE,,,,,,,,,,,,,,,,,,,,,
,,,,,,,603454dbbea63e24a99aabd2,605b45a4d25f287719a41696,605b92b03c7dd47b8ef6be4a,I am not familiar with Spanish,Midwest,NA,no,2021-03-24_14h28.04.856,empathy_intonation_perc,2020.2.10,MacIntel,60,,,,,,,,,,1,,,,,,,,,,,,,,,,,,,,,,,,,,,,,,,,,,,,,,,,24,ltigo,,,1,1,0.534115,0,89,89,23,1,REAL,FAKE,,,,,,,,,,,,,,,,,,,,,
