instructions_2afc_loop.thisRepN,instructions_2afc_loop.thisTrialN,instructions_2afc_loop.thisN,instructions_2afc_loop.thisIndex,instructions_2afc_loop.ran,instructions_text,continue_text,participant,study_id,session,I am most familiar with Spanish from...*,What part of the US are you from?*,At what age did you begin learning Spanish?*,Are you proficient in any languages other than English/Spanish?*,date,expName,psychopyVersion,OS,frameRate,key_resp_2afc_practice.keys,key_resp_2afc_practice.corr,key_resp_2afc_practice.rt,trials_2afc_practice_loop.thisRepN,trials_2afc_practice_loop.thisTrialN,trials_2afc_practice_loop.thisN,trials_2afc_practice_loop.thisIndex,trials_2afc_practice_loop.ran,path,correct_response,the_col,key_resp_2afc_trial.keys,key_resp_2afc_trial.corr,key_resp_2afc_trial.rt,trials_2afc_loop.thisRepN,trials_2afc_loop.thisTrialN,trials_2afc_loop.thisN,trials_2afc_loop.thisIndex,trials_2afc_loop.ran,item_num,andalusian,argentine,castilian,chilean,cuban,mexican,peruvian,puertorican,key_resp_ac1.keys,key_resp_ac1.corr,key_resp_ac1.rt,ac1_loop.thisRepN,ac1_loop.thisTrialN,ac1_loop.thisN,ac1_loop.thisIndex,ac1_loop.ran,instructions_lextale_loop.thisRepN,instructions_lextale_loop.thisTrialN,instructions_lextale_loop.thisN,instructions_lextale_loop.thisIndex,instructions_lextale_loop.ran,key_resp_lextale_practice.keys,key_resp_lextale_practice.corr,key_resp_lextale_practice.rt,trials_lextale_practice_loop.thisRepN,trials_lextale_practice_loop.thisTrialN,trials_lextale_practice_loop.thisN,trials_lextale_practice_loop.thisIndex,trials_lextale_practice_loop.ran,stim,word,prac_button_real,prac_button_false,key_resp_lextale_trial.keys,key_resp_lextale_trial.corr,key_resp_lextale_trial.rt,trials_lextale_loop.thisRepN,trials_lextale_loop.thisTrialN,trials_lextale_loop.thisN,trials_lextale_loop.thisIndex,trials_lextale_loop.ran,button_real,button_false,key_resp_ac2.keys,key_resp_ac2.corr,key_resp_ac2.rt,check_pass,check_fails,ac2_loop.thisRepN,ac2_loop.thisTrialN,ac2_loop.thisN,ac2_loop.thisIndex,ac2_loop.ran,slider_eq_trial.response,trials_eq_loop.thisRepN,trials_eq_loop.thisTrialN,trials_eq_loop.thisN,trials_eq_loop.thisIndex,trials_eq_loop.ran,item,is_test_item,is_distractor,is_agree_score,is_disagree_score
0,0,0,0,1,"In the following task you are going to hear a series of utterances. 

  You will decide if the utterances sound like questions or not using your keyboard.",(press the spacebar to continue),603414a536144802cda025f5,6057c54e64b0b4e5c128b4f9,60589a28ec2a2272e38ce5c6,United States,Northeast,13 or older,no,2021-03-22_09h23.53.707,empathy_intonation_perc,2020.2.10,Win32,60,,,,,,,,,,,,,,,,,,,,,,,,,,,,,,,,,,,,,,,,,,,,,,,,,,,,,,,,,,,,,,,,,,,,,,,,,,,,,,,,,,,,
0,1,1,1,1,"If you believe the utterance is a question, type '1' (for 'yes') and if you do not 
  believe it is a question type '0' (for 'no').

  Let's practice a bit...",(press the spacebar to continue),603414a536144802cda025f5,6057c54e64b0b4e5c128b4f9,60589a28ec2a2272e38ce5c6,United States,Northeast,13 or older,no,2021-03-22_09h23.53.707,empathy_intonation_perc,2020.2.10,Win32,60,,,,,,,,,,,,,,,,,,,,,,,,,,,,,,,,,,,,,,,,,,,,,,,,,,,,,,,,,,,,,,,,,,,,,,,,,,,,,,,,,,,,
,,,,,,,603414a536144802cda025f5,6057c54e64b0b4e5c128b4f9,60589a28ec2a2272e38ce5c6,United States,Northeast,13 or older,no,2021-03-22_09h23.53.707,empathy_intonation_perc,2020.2.10,Win32,60,1,1,12.261205,0,0,0,1,1,./stim/wavs/argentine_question_filler_Mi-vecino-habla-mucho.wav,1,,,,,,,,,,,,,,,,,,,,,,,,,,,,,,,,,,,,,,,,,,,,,,,,,,,,,,,,,,,,,,,,,,,,,,,,,,
,,,,,,,603414a536144802cda025f5,6057c54e64b0b4e5c128b4f9,60589a28ec2a2272e38ce5c6,United States,Northeast,13 or older,no,2021-03-22_09h23.53.707,empathy_intonation_perc,2020.2.10,Win32,60,0,1,7.241005,0,1,1,4,1,./stim/wavs/cuban_statement_filler_Cocinabas-por-la-noche.wav,0,,,,,,,,,,,,,,,,,,,,,,,,,,,,,,,,,,,,,,,,,,,,,,,,,,,,,,,,,,,,,,,,,,,,,,,,,,
,,,,,,,603414a536144802cda025f5,6057c54e64b0b4e5c128b4f9,60589a28ec2a2272e38ce5c6,United States,Northeast,13 or older,no,2021-03-22_09h23.53.707,empathy_intonation_perc,2020.2.10,Win32,60,0,1,2.385985,0,2,2,7,1,./stim/wavs/puertorican_statement_filler_La-nina-pinta-con-su-amiga.wav,0,,,,,,,,,,,,,,,,,,,,,,,,,,,,,,,,,,,,,,,,,,,,,,,,,,,,,,,,,,,,,,,,,,,,,,,,,,
,,,,,,,603414a536144802cda025f5,6057c54e64b0b4e5c128b4f9,60589a28ec2a2272e38ce5c6,United States,Northeast,13 or older,no,2021-03-22_09h23.53.707,empathy_intonation_perc,2020.2.10,Win32,60,0,1,2.736545,0,3,3,5,1,./stim/wavs/andalusian_statement_filler_Alberto-nunca-se-afeita.wav,0,,,,,,,,,,,,,,,,,,,,,,,,,,,,,,,,,,,,,,,,,,,,,,,,,,,,,,,,,,,,,,,,,,,,,,,,,,
,,,,,,,603414a536144802cda025f5,6057c54e64b0b4e5c128b4f9,60589a28ec2a2272e38ce5c6,United States,Northeast,13 or older,no,2021-03-22_09h23.53.707,empathy_intonation_perc,2020.2.10,Win32,60,1,1,3.17115,0,4,4,0,1,./stim/wavs/castilian_question_filler_Mi-esposo-conoce-al-chico.wav,1,,,,,,,,,,,,,,,,,,,,,,,,,,,,,,,,,,,,,,,,,,,,,,,,,,,,,,,,,,,,,,,,,,,,,,,,,,
,,,,,,,603414a536144802cda025f5,6057c54e64b0b4e5c128b4f9,60589a28ec2a2272e38ce5c6,United States,Northeast,13 or older,no,2021-03-22_09h23.53.707,empathy_intonation_perc,2020.2.10,Win32,60,0,1,3.274575,0,5,5,6,1,./stim/wavs/peruvian_statement_filler_El-nino-habla-con-su-madre.wav,0,,,,,,,,,,,,,,,,,,,,,,,,,,,,,,,,,,,,,,,,,,,,,,,,,,,,,,,,,,,,,,,,,,,,,,,,,,
,,,,,,,603414a536144802cda025f5,6057c54e64b0b4e5c128b4f9,60589a28ec2a2272e38ce5c6,United States,Northeast,13 or older,no,2021-03-22_09h23.53.707,empathy_intonation_perc,2020.2.10,Win32,60,1,1,2.150595,0,6,6,3,1,./stim/wavs/mexican_question_filler_Felipe-no-tiene-contrasena.wav,1,,,,,,,,,,,,,,,,,,,,,,,,,,,,,,,,,,,,,,,,,,,,,,,,,,,,,,,,,,,,,,,,,,,,,,,,,,
,,,,,,,603414a536144802cda025f5,6057c54e64b0b4e5c128b4f9,60589a28ec2a2272e38ce5c6,United States,Northeast,13 or older,no,2021-03-22_09h23.53.707,empathy_intonation_perc,2020.2.10,Win32,60,1,1,3.06737,0,7,7,2,1,./stim/wavs/chilean_question_filler_Mi-padre-cantaba-bien.wav,1,,,,,,,,,,,,,,,,,,,,,,,,,,,,,,,,,,,,,,,,,,,,,,,,,,,,,,,,,,,,,,,,,,,,,,,,,,
,,,,,,,603414a536144802cda025f5,6057c54e64b0b4e5c128b4f9,60589a28ec2a2272e38ce5c6,United States,Northeast,13 or older,no,2021-03-22_09h23.53.707,empathy_intonation_perc,2020.2.10,Win32,60,,,,,,,,,,0,chilean,1,0,2.40517,0,0,0,2,1,3,./stim/wavs/andalusian_match_declarative-broad-focus_David-leia-el-libro.wav,./stim/wavs/argentine_match_declarative-broad-focus_David-leia-el-libro.wav,./stim/wavs/castilian_match_declarative-broad-focus_David-leia-el-libro.wav,./stim/wavs/chilean_match_declarative-broad-focus_David-leia-el-libro.wav,./stim/wavs/cuban_match_declarative-broad-focus_David-leia-el-libro.wav,./stim/wavs/mexican_match_declarative-broad-focus_David-leia-el-libro.wav,./stim/wavs/peruvian_match_declarative-broad-focus_David-leia-el-libro.wav,./stim/wavs/puertorican_match_declarative-broad-focus_David-leia-el-libro.wav,,,,,,,,,,,,,,,,,,,,,,,,,,,,,,,,,,,,,,,,,,,,,,,,,,,,,,,,
,,,,,,,603414a536144802cda025f5,6057c54e64b0b4e5c128b4f9,60589a28ec2a2272e38ce5c6,United States,Northeast,13 or older,no,2021-03-22_09h23.53.707,empathy_intonation_perc,2020.2.10,Win32,60,,,,,,,,,,1,argentine,1,1,2.09837,0,1,1,22,1,23,./stim/wavs/andalusian_match_interrogative-partial-wh_Por-que-hablaba-del-agua.wav,./stim/wavs/argentine_match_interrogative-partial-wh_Por-que-hablaba-del-agua.wav,./stim/wavs/castilian_match_interrogative-partial-wh_Por-que-hablaba-del-agua.wav,./stim/wavs/chilean_match_interrogative-partial-wh_Por-que-hablaba-del-agua.wav,./stim/wavs/cuban_match_interrogative-partial-wh_Por-que-hablaba-del-agua.wav,./stim/wavs/mexican_match_interrogative-partial-wh_Por-que-hablaba-del-agua.wav,./stim/wavs/peruvian_match_interrogative-partial-wh_Por-que-hablaba-del-agua.wav,./stim/wavs/puertorican_match_interrogative-partial-wh_Por-que-hablaba-del-agua.wav,,,,,,,,,,,,,,,,,,,,,,,,,,,,,,,,,,,,,,,,,,,,,,,,,,,,,,,,
,,,,,,,603414a536144802cda025f5,6057c54e64b0b4e5c128b4f9,60589a28ec2a2272e38ce5c6,United States,Northeast,13 or older,no,2021-03-22_09h23.53.707,empathy_intonation_perc,2020.2.10,Win32,60,,,,,,,,,,1,chilean,0,0,2.53667,0,2,2,59,1,60,./stim/wavs/andalusian_mismatch_interrogative-total-yn_La-maestra-vive-en-Paris.wav,./stim/wavs/argentine_mismatch_interrogative-total-yn_La-maestra-vive-en-Paris.wav,./stim/wavs/castilian_mismatch_interrogative-total-yn_La-maestra-vive-en-Paris.wav,./stim/wavs/chilean_mismatch_interrogative-total-yn_La-maestra-vive-en-Paris.wav,./stim/wavs/cuban_mismatch_interrogative-total-yn_La-maestra-vive-en-Paris.wav,./stim/wavs/mexican_mismatch_interrogative-total-yn_La-maestra-vive-en-Paris.wav,./stim/wavs/peruvian_mismatch_interrogative-total-yn_La-maestra-vive-en-Paris.wav,./stim/wavs/puertorican_mismatch_interrogative-total-yn_La-maestra-vive-en-Paris.wav,,,,,,,,,,,,,,,,,,,,,,,,,,,,,,,,,,,,,,,,,,,,,,,,,,,,,,,,
,,,,,,,603414a536144802cda025f5,6057c54e64b0b4e5c128b4f9,60589a28ec2a2272e38ce5c6,United States,Northeast,13 or older,no,2021-03-22_09h23.53.707,empathy_intonation_perc,2020.2.10,Win32,60,,,,,,,,,,0,argentine,0,1,1.56615,0,3,3,47,1,48,./stim/wavs/andalusian_mismatch_declarative-narrow-focus_Mi-tia-odia-la-lluvia.wav,./stim/wavs/argentine_mismatch_declarative-narrow-focus_Mi-tia-odia-la-lluvia.wav,./stim/wavs/castilian_mismatch_declarative-narrow-focus_Mi-tia-odia-la-lluvia.wav,./stim/wavs/chilean_mismatch_declarative-narrow-focus_Mi-tia-odia-la-lluvia.wav,./stim/wavs/cuban_mismatch_declarative-narrow-focus_Mi-tia-odia-la-lluvia.wav,./stim/wavs/mexican_mismatch_declarative-narrow-focus_Mi-tia-odia-la-lluvia.wav,./stim/wavs/peruvian_mismatch_declarative-narrow-focus_Mi-tia-odia-la-lluvia.wav,./stim/wavs/puertorican_mismatch_declarative-narrow-focus_Mi-tia-odia-la-lluvia.wav,,,,,,,,,,,,,,,,,,,,,,,,,,,,,,,,,,,,,,,,,,,,,,,,,,,,,,,,
,,,,,,,603414a536144802cda025f5,6057c54e64b0b4e5c128b4f9,60589a28ec2a2272e38ce5c6,United States,Northeast,13 or older,no,2021-03-22_09h23.53.707,empathy_intonation_perc,2020.2.10,Win32,60,,,,,,,,,,0,cuban,0,1,1.85424,0,4,4,11,1,12,./stim/wavs/andalusian_match_declarative-narrow-focus_Emilio-ama-la-marcha.wav,./stim/wavs/argentine_match_declarative-narrow-focus_Emilio-ama-la-marcha.wav,./stim/wavs/castilian_match_declarative-narrow-focus_Emilio-ama-la-marcha.wav,./stim/wavs/chilean_match_declarative-narrow-focus_Emilio-ama-la-marcha.wav,./stim/wavs/cuban_match_declarative-narrow-focus_Emilio-ama-la-marcha.wav,./stim/wavs/mexican_match_declarative-narrow-focus_Emilio-ama-la-marcha.wav,./stim/wavs/peruvian_match_declarative-narrow-focus_Emilio-ama-la-marcha.wav,./stim/wavs/puertorican_match_declarative-narrow-focus_Emilio-ama-la-marcha.wav,,,,,,,,,,,,,,,,,,,,,,,,,,,,,,,,,,,,,,,,,,,,,,,,,,,,,,,,
,,,,,,,603414a536144802cda025f5,6057c54e64b0b4e5c128b4f9,60589a28ec2a2272e38ce5c6,United States,Northeast,13 or older,no,2021-03-22_09h23.53.707,empathy_intonation_perc,2020.2.10,Win32,60,,,,,,,,,,0,cuban,1,0,1.78295,0,5,5,9,1,10,./stim/wavs/andalusian_match_declarative-narrow-focus_Daniel-iba-a-Bolivia.wav,./stim/wavs/argentine_match_declarative-narrow-focus_Daniel-iba-a-Bolivia.wav,./stim/wavs/castilian_match_declarative-narrow-focus_Daniel-iba-a-Bolivia.wav,./stim/wavs/chilean_match_declarative-narrow-focus_Daniel-iba-a-Bolivia.wav,./stim/wavs/cuban_match_declarative-narrow-focus_Daniel-iba-a-Bolivia.wav,./stim/wavs/mexican_match_declarative-narrow-focus_Daniel-iba-a-Bolivia.wav,./stim/wavs/peruvian_match_declarative-narrow-focus_Daniel-iba-a-Bolivia.wav,./stim/wavs/puertorican_match_declarative-narrow-focus_Daniel-iba-a-Bolivia.wav,,,,,,,,,,,,,,,,,,,,,,,,,,,,,,,,,,,,,,,,,,,,,,,,,,,,,,,,
,,,,,,,603414a536144802cda025f5,6057c54e64b0b4e5c128b4f9,60589a28ec2a2272e38ce5c6,United States,Northeast,13 or older,no,2021-03-22_09h23.53.707,empathy_intonation_perc,2020.2.10,Win32,60,,,,,,,,,,0,cuban,0,1,2.569295,0,6,6,4,1,5,./stim/wavs/andalusian_match_declarative-broad-focus_Manuela-vende-el-carro.wav,./stim/wavs/argentine_match_declarative-broad-focus_Manuela-vende-el-carro.wav,./stim/wavs/castilian_match_declarative-broad-focus_Manuela-vende-el-carro.wav,./stim/wavs/chilean_match_declarative-broad-focus_Manuela-vende-el-carro.wav,./stim/wavs/cuban_match_declarative-broad-focus_Manuela-vende-el-carro.wav,./stim/wavs/mexican_match_declarative-broad-focus_Manuela-vende-el-carro.wav,./stim/wavs/peruvian_match_declarative-broad-focus_Manuela-vende-el-carro.wav,./stim/wavs/puertorican_match_declarative-broad-focus_Manuela-vende-el-carro.wav,,,,,,,,,,,,,,,,,,,,,,,,,,,,,,,,,,,,,,,,,,,,,,,,,,,,,,,,
,,,,,,,603414a536144802cda025f5,6057c54e64b0b4e5c128b4f9,60589a28ec2a2272e38ce5c6,United States,Northeast,13 or older,no,2021-03-22_09h23.53.707,empathy_intonation_perc,2020.2.10,Win32,60,,,,,,,,,,0,argentine,1,0,1.95041,0,7,7,35,1,36,./stim/wavs/andalusian_mismatch_declarative-broad-focus_La-maestra-vive-en-Paris.wav,./stim/wavs/argentine_mismatch_declarative-broad-focus_La-maestra-vive-en-Paris.wav,./stim/wavs/castilian_mismatch_declarative-broad-focus_La-maestra-vive-en-Paris.wav,./stim/wavs/chilean_mismatch_declarative-broad-focus_La-maestra-vive-en-Paris.wav,./stim/wavs/cuban_mismatch_declarative-broad-focus_La-maestra-vive-en-Paris.wav,./stim/wavs/mexican_mismatch_declarative-broad-focus_La-maestra-vive-en-Paris.wav,./stim/wavs/peruvian_mismatch_declarative-broad-focus_La-maestra-vive-en-Paris.wav,./stim/wavs/puertorican_mismatch_declarative-broad-focus_La-maestra-vive-en-Paris.wav,,,,,,,,,,,,,,,,,,,,,,,,,,,,,,,,,,,,,,,,,,,,,,,,,,,,,,,,
,,,,,,,603414a536144802cda025f5,6057c54e64b0b4e5c128b4f9,60589a28ec2a2272e38ce5c6,United States,Northeast,13 or older,no,2021-03-22_09h23.53.707,empathy_intonation_perc,2020.2.10,Win32,60,,,,,,,,,,1,argentine,1,1,3.07023,0,8,8,29,1,30,./stim/wavs/andalusian_match_interrogative-total-yn_Maria-bebe-el-vino.wav,./stim/wavs/argentine_match_interrogative-total-yn_Maria-bebe-el-vino.wav,./stim/wavs/castilian_match_interrogative-total-yn_Maria-bebe-el-vino.wav,./stim/wavs/chilean_match_interrogative-total-yn_Maria-bebe-el-vino.wav,./stim/wavs/cuban_match_interrogative-total-yn_Maria-bebe-el-vino.wav,./stim/wavs/mexican_match_interrogative-total-yn_Maria-bebe-el-vino.wav,./stim/wavs/peruvian_match_interrogative-total-yn_Maria-bebe-el-vino.wav,./stim/wavs/puertorican_match_interrogative-total-yn_Maria-bebe-el-vino.wav,,,,,,,,,,,,,,,,,,,,,,,,,,,,,,,,,,,,,,,,,,,,,,,,,,,,,,,,
,,,,,,,603414a536144802cda025f5,6057c54e64b0b4e5c128b4f9,60589a28ec2a2272e38ce5c6,United States,Northeast,13 or older,no,2021-03-22_09h23.53.707,empathy_intonation_perc,2020.2.10,Win32,60,,,,,,,,,,1,argentine,1,1,1.66571,0,9,9,25,1,26,./stim/wavs/andalusian_match_interrogative-total-yn_Daniel-iba-a-Bolivia.wav,./stim/wavs/argentine_match_interrogative-total-yn_Daniel-iba-a-Bolivia.wav,./stim/wavs/castilian_match_interrogative-total-yn_Daniel-iba-a-Bolivia.wav,./stim/wavs/chilean_match_interrogative-total-yn_Daniel-iba-a-Bolivia.wav,./stim/wavs/cuban_match_interrogative-total-yn_Daniel-iba-a-Bolivia.wav,./stim/wavs/mexican_match_interrogative-total-yn_Daniel-iba-a-Bolivia.wav,./stim/wavs/peruvian_match_interrogative-total-yn_Daniel-iba-a-Bolivia.wav,./stim/wavs/puertorican_match_interrogative-total-yn_Daniel-iba-a-Bolivia.wav,,,,,,,,,,,,,,,,,,,,,,,,,,,,,,,,,,,,,,,,,,,,,,,,,,,,,,,,
,,,,,,,603414a536144802cda025f5,6057c54e64b0b4e5c128b4f9,60589a28ec2a2272e38ce5c6,United States,Northeast,13 or older,no,2021-03-22_09h23.53.707,empathy_intonation_perc,2020.2.10,Win32,60,,,,,,,,,,0,castilian,0,1,1.56841,0,10,10,10,1,11,./stim/wavs/andalusian_match_declarative-narrow-focus_David-leia-el-libro.wav,./stim/wavs/argentine_match_declarative-narrow-focus_David-leia-el-libro.wav,./stim/wavs/castilian_match_declarative-narrow-focus_David-leia-el-libro.wav,./stim/wavs/chilean_match_declarative-narrow-focus_David-leia-el-libro.wav,./stim/wavs/cuban_match_declarative-narrow-focus_David-leia-el-libro.wav,./stim/wavs/mexican_match_declarative-narrow-focus_David-leia-el-libro.wav,./stim/wavs/peruvian_match_declarative-narrow-focus_David-leia-el-libro.wav,./stim/wavs/puertorican_match_declarative-narrow-focus_David-leia-el-libro.wav,,,,,,,,,,,,,,,,,,,,,,,,,,,,,,,,,,,,,,,,,,,,,,,,,,,,,,,,
,,,,,,,603414a536144802cda025f5,6057c54e64b0b4e5c128b4f9,60589a28ec2a2272e38ce5c6,United States,Northeast,13 or older,no,2021-03-22_09h23.53.707,empathy_intonation_perc,2020.2.10,Win32,60,,,,,,,,,,1,puertorican,1,1,1.398245,0,11,11,54,1,55,./stim/wavs/andalusian_mismatch_interrogative-partial-wh_Por-que-venia-del-lago.wav,./stim/wavs/argentine_mismatch_interrogative-partial-wh_Por-que-venia-del-lago.wav,./stim/wavs/castilian_mismatch_interrogative-partial-wh_Por-que-venia-del-lago.wav,./stim/wavs/chilean_mismatch_interrogative-partial-wh_Por-que-venia-del-lago.wav,./stim/wavs/cuban_mismatch_interrogative-partial-wh_Por-que-venia-del-lago.wav,./stim/wavs/mexican_mismatch_interrogative-partial-wh_Por-que-venia-del-lago.wav,./stim/wavs/peruvian_mismatch_interrogative-partial-wh_Por-que-venia-del-lago.wav,./stim/wavs/puertorican_mismatch_interrogative-partial-wh_Por-que-venia-del-lago.wav,,,,,,,,,,,,,,,,,,,,,,,,,,,,,,,,,,,,,,,,,,,,,,,,,,,,,,,,
,,,,,,,603414a536144802cda025f5,6057c54e64b0b4e5c128b4f9,60589a28ec2a2272e38ce5c6,United States,Northeast,13 or older,no,2021-03-22_09h23.53.707,empathy_intonation_perc,2020.2.10,Win32,60,,,,,,,,,,0,argentine,0,1,2.604705,0,12,12,32,1,33,./stim/wavs/andalusian_mismatch_declarative-broad-focus_El-bebe-comia-muy-bien.wav,./stim/wavs/argentine_mismatch_declarative-broad-focus_El-bebe-comia-muy-bien.wav,./stim/wavs/castilian_mismatch_declarative-broad-focus_El-bebe-comia-muy-bien.wav,./stim/wavs/chilean_mismatch_declarative-broad-focus_El-bebe-comia-muy-bien.wav,./stim/wavs/cuban_mismatch_declarative-broad-focus_El-bebe-comia-muy-bien.wav,./stim/wavs/mexican_mismatch_declarative-broad-focus_El-bebe-comia-muy-bien.wav,./stim/wavs/peruvian_mismatch_declarative-broad-focus_El-bebe-comia-muy-bien.wav,./stim/wavs/puertorican_mismatch_declarative-broad-focus_El-bebe-comia-muy-bien.wav,,,,,,,,,,,,,,,,,,,,,,,,,,,,,,,,,,,,,,,,,,,,,,,,,,,,,,,,
,,,,,,,603414a536144802cda025f5,6057c54e64b0b4e5c128b4f9,60589a28ec2a2272e38ce5c6,United States,Northeast,13 or older,no,2021-03-22_09h23.53.707,empathy_intonation_perc,2020.2.10,Win32,60,,,,,,,,,,1,andalusian,1,1,1.54633,0,13,13,19,1,20,./stim/wavs/andalusian_match_interrogative-partial-wh_Cuando-vendia-el-carro.wav,./stim/wavs/argentine_match_interrogative-partial-wh_Cuando-vendia-el-carro.wav,./stim/wavs/castilian_match_interrogative-partial-wh_Cuando-vendia-el-carro.wav,./stim/wavs/chilean_match_interrogative-partial-wh_Cuando-vendia-el-carro.wav,./stim/wavs/cuban_match_interrogative-partial-wh_Cuando-vendia-el-carro.wav,./stim/wavs/mexican_match_interrogative-partial-wh_Cuando-vendia-el-carro.wav,./stim/wavs/peruvian_match_interrogative-partial-wh_Cuando-vendia-el-carro.wav,./stim/wavs/puertorican_match_interrogative-partial-wh_Cuando-vendia-el-carro.wav,,,,,,,,,,,,,,,,,,,,,,,,,,,,,,,,,,,,,,,,,,,,,,,,,,,,,,,,
,,,,,,,603414a536144802cda025f5,6057c54e64b0b4e5c128b4f9,60589a28ec2a2272e38ce5c6,United States,Northeast,13 or older,no,2021-03-22_09h23.53.707,empathy_intonation_perc,2020.2.10,Win32,60,,,,,,,,,,1,andalusian,0,0,2.50306,0,14,14,60,1,61,./stim/wavs/andalusian_mismatch_interrogative-total-yn_La-nina-lava-el-plato.wav,./stim/wavs/argentine_mismatch_interrogative-total-yn_La-nina-lava-el-plato.wav,./stim/wavs/castilian_mismatch_interrogative-total-yn_La-nina-lava-el-plato.wav,./stim/wavs/chilean_mismatch_interrogative-total-yn_La-nina-lava-el-plato.wav,./stim/wavs/cuban_mismatch_interrogative-total-yn_La-nina-lava-el-plato.wav,./stim/wavs/mexican_mismatch_interrogative-total-yn_La-nina-lava-el-plato.wav,./stim/wavs/peruvian_mismatch_interrogative-total-yn_La-nina-lava-el-plato.wav,./stim/wavs/puertorican_mismatch_interrogative-total-yn_La-nina-lava-el-plato.wav,,,,,,,,,,,,,,,,,,,,,,,,,,,,,,,,,,,,,,,,,,,,,,,,,,,,,,,,
,,,,,,,603414a536144802cda025f5,6057c54e64b0b4e5c128b4f9,60589a28ec2a2272e38ce5c6,United States,Northeast,13 or older,no,2021-03-22_09h23.53.707,empathy_intonation_perc,2020.2.10,Win32,60,,,,,,,,,,1,andalusian,1,1,1.40181,0,15,15,20,1,21,./stim/wavs/andalusian_match_interrogative-partial-wh_Por-que-abre-el-regalo.wav,./stim/wavs/argentine_match_interrogative-partial-wh_Por-que-abre-el-regalo.wav,./stim/wavs/castilian_match_interrogative-partial-wh_Por-que-abre-el-regalo.wav,./stim/wavs/chilean_match_interrogative-partial-wh_Por-que-abre-el-regalo.wav,./stim/wavs/cuban_match_interrogative-partial-wh_Por-que-abre-el-regalo.wav,./stim/wavs/mexican_match_interrogative-partial-wh_Por-que-abre-el-regalo.wav,./stim/wavs/peruvian_match_interrogative-partial-wh_Por-que-abre-el-regalo.wav,./stim/wavs/puertorican_match_interrogative-partial-wh_Por-que-abre-el-regalo.wav,,,,,,,,,,,,,,,,,,,,,,,,,,,,,,,,,,,,,,,,,,,,,,,,,,,,,,,,
,,,,,,,603414a536144802cda025f5,6057c54e64b0b4e5c128b4f9,60589a28ec2a2272e38ce5c6,United States,Northeast,13 or older,no,2021-03-22_09h23.53.707,empathy_intonation_perc,2020.2.10,Win32,60,,,,,,,,,,1,puertorican,1,1,1.548385,0,16,16,49,1,50,./stim/wavs/andalusian_mismatch_interrogative-partial-wh_Cuando-lavaba-el-plato.wav,./stim/wavs/argentine_mismatch_interrogative-partial-wh_Cuando-lavaba-el-plato.wav,./stim/wavs/castilian_mismatch_interrogative-partial-wh_Cuando-lavaba-el-plato.wav,./stim/wavs/chilean_mismatch_interrogative-partial-wh_Cuando-lavaba-el-plato.wav,./stim/wavs/cuban_mismatch_interrogative-partial-wh_Cuando-lavaba-el-plato.wav,./stim/wavs/mexican_mismatch_interrogative-partial-wh_Cuando-lavaba-el-plato.wav,./stim/wavs/peruvian_mismatch_interrogative-partial-wh_Cuando-lavaba-el-plato.wav,./stim/wavs/puertorican_mismatch_interrogative-partial-wh_Cuando-lavaba-el-plato.wav,,,,,,,,,,,,,,,,,,,,,,,,,,,,,,,,,,,,,,,,,,,,,,,,,,,,,,,,
,,,,,,,603414a536144802cda025f5,6057c54e64b0b4e5c128b4f9,60589a28ec2a2272e38ce5c6,United States,Northeast,13 or older,no,2021-03-22_09h23.53.707,empathy_intonation_perc,2020.2.10,Win32,60,,,,,,,,,,1,castilian,1,1,1.78481,0,17,17,23,1,24,./stim/wavs/andalusian_match_interrogative-partial-wh_Por-que-iba-a-Bolivia.wav,./stim/wavs/argentine_match_interrogative-partial-wh_Por-que-iba-a-Bolivia.wav,./stim/wavs/castilian_match_interrogative-partial-wh_Por-que-iba-a-Bolivia.wav,./stim/wavs/chilean_match_interrogative-partial-wh_Por-que-iba-a-Bolivia.wav,./stim/wavs/cuban_match_interrogative-partial-wh_Por-que-iba-a-Bolivia.wav,./stim/wavs/mexican_match_interrogative-partial-wh_Por-que-iba-a-Bolivia.wav,./stim/wavs/peruvian_match_interrogative-partial-wh_Por-que-iba-a-Bolivia.wav,./stim/wavs/puertorican_match_interrogative-partial-wh_Por-que-iba-a-Bolivia.wav,,,,,,,,,,,,,,,,,,,,,,,,,,,,,,,,,,,,,,,,,,,,,,,,,,,,,,,,
,,,,,,,603414a536144802cda025f5,6057c54e64b0b4e5c128b4f9,60589a28ec2a2272e38ce5c6,United States,Northeast,13 or older,no,2021-03-22_09h23.53.707,empathy_intonation_perc,2020.2.10,Win32,60,,,,,,,,,,1,peruvian,1,1,1.55194,0,18,18,18,1,19,./stim/wavs/andalusian_match_interrogative-partial-wh_Cuando-lleva-el-abrigo.wav,./stim/wavs/argentine_match_interrogative-partial-wh_Cuando-lleva-el-abrigo.wav,./stim/wavs/castilian_match_interrogative-partial-wh_Cuando-lleva-el-abrigo.wav,./stim/wavs/chilean_match_interrogative-partial-wh_Cuando-lleva-el-abrigo.wav,./stim/wavs/cuban_match_interrogative-partial-wh_Cuando-lleva-el-abrigo.wav,./stim/wavs/mexican_match_interrogative-partial-wh_Cuando-lleva-el-abrigo.wav,./stim/wavs/peruvian_match_interrogative-partial-wh_Cuando-lleva-el-abrigo.wav,./stim/wavs/puertorican_match_interrogative-partial-wh_Cuando-lleva-el-abrigo.wav,,,,,,,,,,,,,,,,,,,,,,,,,,,,,,,,,,,,,,,,,,,,,,,,,,,,,,,,
,,,,,,,603414a536144802cda025f5,6057c54e64b0b4e5c128b4f9,60589a28ec2a2272e38ce5c6,United States,Northeast,13 or older,no,2021-03-22_09h23.53.707,empathy_intonation_perc,2020.2.10,Win32,60,,,,,,,,,,0,mexican,0,1,1.569035,0,19,19,15,1,16,./stim/wavs/andalusian_match_declarative-narrow-focus_Marta-abre-el-regalo.wav,./stim/wavs/argentine_match_declarative-narrow-focus_Marta-abre-el-regalo.wav,./stim/wavs/castilian_match_declarative-narrow-focus_Marta-abre-el-regalo.wav,./stim/wavs/chilean_match_declarative-narrow-focus_Marta-abre-el-regalo.wav,./stim/wavs/cuban_match_declarative-narrow-focus_Marta-abre-el-regalo.wav,./stim/wavs/mexican_match_declarative-narrow-focus_Marta-abre-el-regalo.wav,./stim/wavs/peruvian_match_declarative-narrow-focus_Marta-abre-el-regalo.wav,./stim/wavs/puertorican_match_declarative-narrow-focus_Marta-abre-el-regalo.wav,,,,,,,,,,,,,,,,,,,,,,,,,,,,,,,,,,,,,,,,,,,,,,,,,,,,,,,,
,,,,,,,603414a536144802cda025f5,6057c54e64b0b4e5c128b4f9,60589a28ec2a2272e38ce5c6,United States,Northeast,13 or older,no,2021-03-22_09h23.53.707,empathy_intonation_perc,2020.2.10,Win32,60,,,,,,,,,,1,castilian,1,1,1.4333,0,20,20,21,1,22,./stim/wavs/andalusian_match_interrogative-partial-wh_Por-que-ama-la-navidad.wav,./stim/wavs/argentine_match_interrogative-partial-wh_Por-que-ama-la-navidad.wav,./stim/wavs/castilian_match_interrogative-partial-wh_Por-que-ama-la-navidad.wav,./stim/wavs/chilean_match_interrogative-partial-wh_Por-que-ama-la-navidad.wav,./stim/wavs/cuban_match_interrogative-partial-wh_Por-que-ama-la-navidad.wav,./stim/wavs/mexican_match_interrogative-partial-wh_Por-que-ama-la-navidad.wav,./stim/wavs/peruvian_match_interrogative-partial-wh_Por-que-ama-la-navidad.wav,./stim/wavs/puertorican_match_interrogative-partial-wh_Por-que-ama-la-navidad.wav,,,,,,,,,,,,,,,,,,,,,,,,,,,,,,,,,,,,,,,,,,,,,,,,,,,,,,,,
,,,,,,,603414a536144802cda025f5,6057c54e64b0b4e5c128b4f9,60589a28ec2a2272e38ce5c6,United States,Northeast,13 or older,no,2021-03-22_09h23.53.707,empathy_intonation_perc,2020.2.10,Win32,60,,,,,,,,,,0,chilean,0,1,1.60128,0,21,21,34,1,35,./stim/wavs/andalusian_mismatch_declarative-broad-focus_El-nino-oye-el-rio.wav,./stim/wavs/argentine_mismatch_declarative-broad-focus_El-nino-oye-el-rio.wav,./stim/wavs/castilian_mismatch_declarative-broad-focus_El-nino-oye-el-rio.wav,./stim/wavs/chilean_mismatch_declarative-broad-focus_El-nino-oye-el-rio.wav,./stim/wavs/cuban_mismatch_declarative-broad-focus_El-nino-oye-el-rio.wav,./stim/wavs/mexican_mismatch_declarative-broad-focus_El-nino-oye-el-rio.wav,./stim/wavs/peruvian_mismatch_declarative-broad-focus_El-nino-oye-el-rio.wav,./stim/wavs/puertorican_mismatch_declarative-broad-focus_El-nino-oye-el-rio.wav,,,,,,,,,,,,,,,,,,,,,,,,,,,,,,,,,,,,,,,,,,,,,,,,,,,,,,,,
,,,,,,,603414a536144802cda025f5,6057c54e64b0b4e5c128b4f9,60589a28ec2a2272e38ce5c6,United States,Northeast,13 or older,no,2021-03-22_09h23.53.707,empathy_intonation_perc,2020.2.10,Win32,60,,,,,,,,,,1,cuban,0,0,1.638225,0,22,22,50,1,51,./stim/wavs/andalusian_mismatch_interrogative-partial-wh_Cuando-miraba-la-luna.wav,./stim/wavs/argentine_mismatch_interrogative-partial-wh_Cuando-miraba-la-luna.wav,./stim/wavs/castilian_mismatch_interrogative-partial-wh_Cuando-miraba-la-luna.wav,./stim/wavs/chilean_mismatch_interrogative-partial-wh_Cuando-miraba-la-luna.wav,./stim/wavs/cuban_mismatch_interrogative-partial-wh_Cuando-miraba-la-luna.wav,./stim/wavs/mexican_mismatch_interrogative-partial-wh_Cuando-miraba-la-luna.wav,./stim/wavs/peruvian_mismatch_interrogative-partial-wh_Cuando-miraba-la-luna.wav,./stim/wavs/puertorican_mismatch_interrogative-partial-wh_Cuando-miraba-la-luna.wav,,,,,,,,,,,,,,,,,,,,,,,,,,,,,,,,,,,,,,,,,,,,,,,,,,,,,,,,
,,,,,,,603414a536144802cda025f5,6057c54e64b0b4e5c128b4f9,60589a28ec2a2272e38ce5c6,United States,Northeast,13 or older,no,2021-03-22_09h23.53.707,empathy_intonation_perc,2020.2.10,Win32,60,,,,,,,,,,0,argentine,1,0,1.352455,0,23,23,41,1,42,./stim/wavs/andalusian_mismatch_declarative-narrow-focus_El-hombre-mira-la-luna.wav,./stim/wavs/argentine_mismatch_declarative-narrow-focus_El-hombre-mira-la-luna.wav,./stim/wavs/castilian_mismatch_declarative-narrow-focus_El-hombre-mira-la-luna.wav,./stim/wavs/chilean_mismatch_declarative-narrow-focus_El-hombre-mira-la-luna.wav,./stim/wavs/cuban_mismatch_declarative-narrow-focus_El-hombre-mira-la-luna.wav,./stim/wavs/mexican_mismatch_declarative-narrow-focus_El-hombre-mira-la-luna.wav,./stim/wavs/peruvian_mismatch_declarative-narrow-focus_El-hombre-mira-la-luna.wav,./stim/wavs/puertorican_mismatch_declarative-narrow-focus_El-hombre-mira-la-luna.wav,,,,,,,,,,,,,,,,,,,,,,,,,,,,,,,,,,,,,,,,,,,,,,,,,,,,,,,,
,,,,,,,603414a536144802cda025f5,6057c54e64b0b4e5c128b4f9,60589a28ec2a2272e38ce5c6,United States,Northeast,13 or older,no,2021-03-22_09h23.53.707,empathy_intonation_perc,2020.2.10,Win32,60,,,,,,,,,,0,mexican,0,1,1.55175,0,24,24,45,1,46,./stim/wavs/andalusian_mismatch_declarative-narrow-focus_Mi-madre-come-la-fruta.wav,./stim/wavs/argentine_mismatch_declarative-narrow-focus_Mi-madre-come-la-fruta.wav,./stim/wavs/castilian_mismatch_declarative-narrow-focus_Mi-madre-come-la-fruta.wav,./stim/wavs/chilean_mismatch_declarative-narrow-focus_Mi-madre-come-la-fruta.wav,./stim/wavs/cuban_mismatch_declarative-narrow-focus_Mi-madre-come-la-fruta.wav,./stim/wavs/mexican_mismatch_declarative-narrow-focus_Mi-madre-come-la-fruta.wav,./stim/wavs/peruvian_mismatch_declarative-narrow-focus_Mi-madre-come-la-fruta.wav,./stim/wavs/puertorican_mismatch_declarative-narrow-focus_Mi-madre-come-la-fruta.wav,,,,,,,,,,,,,,,,,,,,,,,,,,,,,,,,,,,,,,,,,,,,,,,,,,,,,,,,
,,,,,,,603414a536144802cda025f5,6057c54e64b0b4e5c128b4f9,60589a28ec2a2272e38ce5c6,United States,Northeast,13 or older,no,2021-03-22_09h23.53.707,empathy_intonation_perc,2020.2.10,Win32,60,,,,,,,,,,1,andalusian,0,0,1.52041,0,25,25,61,1,62,./stim/wavs/andalusian_mismatch_interrogative-total-yn_Mi-madre-come-la-fruta.wav,./stim/wavs/argentine_mismatch_interrogative-total-yn_Mi-madre-come-la-fruta.wav,./stim/wavs/castilian_mismatch_interrogative-total-yn_Mi-madre-come-la-fruta.wav,./stim/wavs/chilean_mismatch_interrogative-total-yn_Mi-madre-come-la-fruta.wav,./stim/wavs/cuban_mismatch_interrogative-total-yn_Mi-madre-come-la-fruta.wav,./stim/wavs/mexican_mismatch_interrogative-total-yn_Mi-madre-come-la-fruta.wav,./stim/wavs/peruvian_mismatch_interrogative-total-yn_Mi-madre-come-la-fruta.wav,./stim/wavs/puertorican_mismatch_interrogative-total-yn_Mi-madre-come-la-fruta.wav,,,,,,,,,,,,,,,,,,,,,,,,,,,,,,,,,,,,,,,,,,,,,,,,,,,,,,,,
,,,,,,,603414a536144802cda025f5,6057c54e64b0b4e5c128b4f9,60589a28ec2a2272e38ce5c6,United States,Northeast,13 or older,no,2021-03-22_09h23.53.707,empathy_intonation_perc,2020.2.10,Win32,60,,,,,,,,,,0,andalusian,0,1,1.88551,0,26,26,38,1,39,./stim/wavs/andalusian_mismatch_declarative-broad-focus_Mi-novio-viene-del-lago.wav,./stim/wavs/argentine_mismatch_declarative-broad-focus_Mi-novio-viene-del-lago.wav,./stim/wavs/castilian_mismatch_declarative-broad-focus_Mi-novio-viene-del-lago.wav,./stim/wavs/chilean_mismatch_declarative-broad-focus_Mi-novio-viene-del-lago.wav,./stim/wavs/cuban_mismatch_declarative-broad-focus_Mi-novio-viene-del-lago.wav,./stim/wavs/mexican_mismatch_declarative-broad-focus_Mi-novio-viene-del-lago.wav,./stim/wavs/peruvian_mismatch_declarative-broad-focus_Mi-novio-viene-del-lago.wav,./stim/wavs/puertorican_mismatch_declarative-broad-focus_Mi-novio-viene-del-lago.wav,,,,,,,,,,,,,,,,,,,,,,,,,,,,,,,,,,,,,,,,,,,,,,,,,,,,,,,,
,,,,,,,603414a536144802cda025f5,6057c54e64b0b4e5c128b4f9,60589a28ec2a2272e38ce5c6,United States,Northeast,13 or older,no,2021-03-22_09h23.53.707,empathy_intonation_perc,2020.2.10,Win32,60,,,,,,,,,,1,castilian,0,0,1.91877,0,27,27,27,1,28,./stim/wavs/andalusian_match_interrogative-total-yn_Emilio-ama-la-marcha.wav,./stim/wavs/argentine_match_interrogative-total-yn_Emilio-ama-la-marcha.wav,./stim/wavs/castilian_match_interrogative-total-yn_Emilio-ama-la-marcha.wav,./stim/wavs/chilean_match_interrogative-total-yn_Emilio-ama-la-marcha.wav,./stim/wavs/cuban_match_interrogative-total-yn_Emilio-ama-la-marcha.wav,./stim/wavs/mexican_match_interrogative-total-yn_Emilio-ama-la-marcha.wav,./stim/wavs/peruvian_match_interrogative-total-yn_Emilio-ama-la-marcha.wav,./stim/wavs/puertorican_match_interrogative-total-yn_Emilio-ama-la-marcha.wav,,,,,,,,,,,,,,,,,,,,,,,,,,,,,,,,,,,,,,,,,,,,,,,,,,,,,,,,
,,,,,,,603414a536144802cda025f5,6057c54e64b0b4e5c128b4f9,60589a28ec2a2272e38ce5c6,United States,Northeast,13 or older,no,2021-03-22_09h23.53.707,empathy_intonation_perc,2020.2.10,Win32,60,,,,,,,,,,0,andalusian,0,1,2.157785,0,28,28,3,1,4,./stim/wavs/andalusian_match_declarative-broad-focus_Emilio-ama-la-marcha.wav,./stim/wavs/argentine_match_declarative-broad-focus_Emilio-ama-la-marcha.wav,./stim/wavs/castilian_match_declarative-broad-focus_Emilio-ama-la-marcha.wav,./stim/wavs/chilean_match_declarative-broad-focus_Emilio-ama-la-marcha.wav,./stim/wavs/cuban_match_declarative-broad-focus_Emilio-ama-la-marcha.wav,./stim/wavs/mexican_match_declarative-broad-focus_Emilio-ama-la-marcha.wav,./stim/wavs/peruvian_match_declarative-broad-focus_Emilio-ama-la-marcha.wav,./stim/wavs/puertorican_match_declarative-broad-focus_Emilio-ama-la-marcha.wav,,,,,,,,,,,,,,,,,,,,,,,,,,,,,,,,,,,,,,,,,,,,,,,,,,,,,,,,
,,,,,,,603414a536144802cda025f5,6057c54e64b0b4e5c128b4f9,60589a28ec2a2272e38ce5c6,United States,Northeast,13 or older,no,2021-03-22_09h23.53.707,empathy_intonation_perc,2020.2.10,Win32,60,,,,,,,,,,0,castilian,1,0,1.499595,0,29,29,46,1,47,./stim/wavs/andalusian_mismatch_declarative-narrow-focus_Mi-novio-viene-del-lago.wav,./stim/wavs/argentine_mismatch_declarative-narrow-focus_Mi-novio-viene-del-lago.wav,./stim/wavs/castilian_mismatch_declarative-narrow-focus_Mi-novio-viene-del-lago.wav,./stim/wavs/chilean_mismatch_declarative-narrow-focus_Mi-novio-viene-del-lago.wav,./stim/wavs/cuban_mismatch_declarative-narrow-focus_Mi-novio-viene-del-lago.wav,./stim/wavs/mexican_mismatch_declarative-narrow-focus_Mi-novio-viene-del-lago.wav,./stim/wavs/peruvian_mismatch_declarative-narrow-focus_Mi-novio-viene-del-lago.wav,./stim/wavs/puertorican_mismatch_declarative-narrow-focus_Mi-novio-viene-del-lago.wav,,,,,,,,,,,,,,,,,,,,,,,,,,,,,,,,,,,,,,,,,,,,,,,,,,,,,,,,
,,,,,,,603414a536144802cda025f5,6057c54e64b0b4e5c128b4f9,60589a28ec2a2272e38ce5c6,United States,Northeast,13 or older,no,2021-03-22_09h23.53.707,empathy_intonation_perc,2020.2.10,Win32,60,,,,,,,,,,1,cuban,0,0,2.93728,0,30,30,30,1,31,./stim/wavs/andalusian_match_interrogative-total-yn_Mariano-habla-del-tiempo.wav,./stim/wavs/argentine_match_interrogative-total-yn_Mariano-habla-del-tiempo.wav,./stim/wavs/castilian_match_interrogative-total-yn_Mariano-habla-del-tiempo.wav,./stim/wavs/chilean_match_interrogative-total-yn_Mariano-habla-del-tiempo.wav,./stim/wavs/cuban_match_interrogative-total-yn_Mariano-habla-del-tiempo.wav,./stim/wavs/mexican_match_interrogative-total-yn_Mariano-habla-del-tiempo.wav,./stim/wavs/peruvian_match_interrogative-total-yn_Mariano-habla-del-tiempo.wav,./stim/wavs/puertorican_match_interrogative-total-yn_Mariano-habla-del-tiempo.wav,,,,,,,,,,,,,,,,,,,,,,,,,,,,,,,,,,,,,,,,,,,,,,,,,,,,,,,,
,,,,,,,603414a536144802cda025f5,6057c54e64b0b4e5c128b4f9,60589a28ec2a2272e38ce5c6,United States,Northeast,13 or older,no,2021-03-22_09h23.53.707,empathy_intonation_perc,2020.2.10,Win32,60,,,,,,,,,,1,puertorican,1,1,1.318825,0,31,31,16,1,17,./stim/wavs/andalusian_match_interrogative-partial-wh_Cuando-bebia-el-vino.wav,./stim/wavs/argentine_match_interrogative-partial-wh_Cuando-bebia-el-vino.wav,./stim/wavs/castilian_match_interrogative-partial-wh_Cuando-bebia-el-vino.wav,./stim/wavs/chilean_match_interrogative-partial-wh_Cuando-bebia-el-vino.wav,./stim/wavs/cuban_match_interrogative-partial-wh_Cuando-bebia-el-vino.wav,./stim/wavs/mexican_match_interrogative-partial-wh_Cuando-bebia-el-vino.wav,./stim/wavs/peruvian_match_interrogative-partial-wh_Cuando-bebia-el-vino.wav,./stim/wavs/puertorican_match_interrogative-partial-wh_Cuando-bebia-el-vino.wav,,,,,,,,,,,,,,,,,,,,,,,,,,,,,,,,,,,,,,,,,,,,,,,,,,,,,,,,
,,,,,,,603414a536144802cda025f5,6057c54e64b0b4e5c128b4f9,60589a28ec2a2272e38ce5c6,United States,Northeast,13 or older,no,2021-03-22_09h23.53.707,empathy_intonation_perc,2020.2.10,Win32,60,,,,,,,,,,1,mexican,1,1,1.578955,0,32,32,52,1,53,./stim/wavs/andalusian_mismatch_interrogative-partial-wh_Por-que-odiaba-la-lluvia.wav,./stim/wavs/argentine_mismatch_interrogative-partial-wh_Por-que-odiaba-la-lluvia.wav,./stim/wavs/castilian_mismatch_interrogative-partial-wh_Por-que-odiaba-la-lluvia.wav,./stim/wavs/chilean_mismatch_interrogative-partial-wh_Por-que-odiaba-la-lluvia.wav,./stim/wavs/cuban_mismatch_interrogative-partial-wh_Por-que-odiaba-la-lluvia.wav,./stim/wavs/mexican_mismatch_interrogative-partial-wh_Por-que-odiaba-la-lluvia.wav,./stim/wavs/peruvian_mismatch_interrogative-partial-wh_Por-que-odiaba-la-lluvia.wav,./stim/wavs/puertorican_mismatch_interrogative-partial-wh_Por-que-odiaba-la-lluvia.wav,,,,,,,,,,,,,,,,,,,,,,,,,,,,,,,,,,,,,,,,,,,,,,,,,,,,,,,,
,,,,,,,603414a536144802cda025f5,6057c54e64b0b4e5c128b4f9,60589a28ec2a2272e38ce5c6,United States,Northeast,13 or older,no,2021-03-22_09h23.53.707,empathy_intonation_perc,2020.2.10,Win32,60,,,,,,,,,,1,chilean,1,1,1.603705,0,33,33,48,1,49,./stim/wavs/andalusian_mismatch_interrogative-partial-wh_Cuando-comia-la-fruta.wav,./stim/wavs/argentine_mismatch_interrogative-partial-wh_Cuando-comia-la-fruta.wav,./stim/wavs/castilian_mismatch_interrogative-partial-wh_Cuando-comia-la-fruta.wav,./stim/wavs/chilean_mismatch_interrogative-partial-wh_Cuando-comia-la-fruta.wav,./stim/wavs/cuban_mismatch_interrogative-partial-wh_Cuando-comia-la-fruta.wav,./stim/wavs/mexican_mismatch_interrogative-partial-wh_Cuando-comia-la-fruta.wav,./stim/wavs/peruvian_mismatch_interrogative-partial-wh_Cuando-comia-la-fruta.wav,./stim/wavs/puertorican_mismatch_interrogative-partial-wh_Cuando-comia-la-fruta.wav,,,,,,,,,,,,,,,,,,,,,,,,,,,,,,,,,,,,,,,,,,,,,,,,,,,,,,,,
,,,,,,,603414a536144802cda025f5,6057c54e64b0b4e5c128b4f9,60589a28ec2a2272e38ce5c6,United States,Northeast,13 or older,no,2021-03-22_09h23.53.707,empathy_intonation_perc,2020.2.10,Win32,60,,,,,,,,,,1,peruvian,1,1,1.56963,0,34,34,53,1,54,./stim/wavs/andalusian_mismatch_interrogative-partial-wh_Por-que-oia-el-rio.wav,./stim/wavs/argentine_mismatch_interrogative-partial-wh_Por-que-oia-el-rio.wav,./stim/wavs/castilian_mismatch_interrogative-partial-wh_Por-que-oia-el-rio.wav,./stim/wavs/chilean_mismatch_interrogative-partial-wh_Por-que-oia-el-rio.wav,./stim/wavs/cuban_mismatch_interrogative-partial-wh_Por-que-oia-el-rio.wav,./stim/wavs/mexican_mismatch_interrogative-partial-wh_Por-que-oia-el-rio.wav,./stim/wavs/peruvian_mismatch_interrogative-partial-wh_Por-que-oia-el-rio.wav,./stim/wavs/puertorican_mismatch_interrogative-partial-wh_Por-que-oia-el-rio.wav,,,,,,,,,,,,,,,,,,,,,,,,,,,,,,,,,,,,,,,,,,,,,,,,,,,,,,,,
,,,,,,,603414a536144802cda025f5,6057c54e64b0b4e5c128b4f9,60589a28ec2a2272e38ce5c6,United States,Northeast,13 or older,no,2021-03-22_09h23.53.707,empathy_intonation_perc,2020.2.10,Win32,60,,,,,,,,,,1,castilian,1,1,2.166635,0,35,35,24,1,25,./stim/wavs/andalusian_match_interrogative-total-yn_Ana-lleva-el-abrigo.wav,./stim/wavs/argentine_match_interrogative-total-yn_Ana-lleva-el-abrigo.wav,./stim/wavs/castilian_match_interrogative-total-yn_Ana-lleva-el-abrigo.wav,./stim/wavs/chilean_match_interrogative-total-yn_Ana-lleva-el-abrigo.wav,./stim/wavs/cuban_match_interrogative-total-yn_Ana-lleva-el-abrigo.wav,./stim/wavs/mexican_match_interrogative-total-yn_Ana-lleva-el-abrigo.wav,./stim/wavs/peruvian_match_interrogative-total-yn_Ana-lleva-el-abrigo.wav,./stim/wavs/puertorican_match_interrogative-total-yn_Ana-lleva-el-abrigo.wav,,,,,,,,,,,,,,,,,,,,,,,,,,,,,,,,,,,,,,,,,,,,,,,,,,,,,,,,
,,,,,,,603414a536144802cda025f5,6057c54e64b0b4e5c128b4f9,60589a28ec2a2272e38ce5c6,United States,Northeast,13 or older,no,2021-03-22_09h23.53.707,empathy_intonation_perc,2020.2.10,Win32,60,,,,,,,,,,0,cuban,0,1,1.236045,0,36,36,8,1,9,./stim/wavs/andalusian_match_declarative-narrow-focus_Ana-lleva-el-abrigo.wav,./stim/wavs/argentine_match_declarative-narrow-focus_Ana-lleva-el-abrigo.wav,./stim/wavs/castilian_match_declarative-narrow-focus_Ana-lleva-el-abrigo.wav,./stim/wavs/chilean_match_declarative-narrow-focus_Ana-lleva-el-abrigo.wav,./stim/wavs/cuban_match_declarative-narrow-focus_Ana-lleva-el-abrigo.wav,./stim/wavs/mexican_match_declarative-narrow-focus_Ana-lleva-el-abrigo.wav,./stim/wavs/peruvian_match_declarative-narrow-focus_Ana-lleva-el-abrigo.wav,./stim/wavs/puertorican_match_declarative-narrow-focus_Ana-lleva-el-abrigo.wav,,,,,,,,,,,,,,,,,,,,,,,,,,,,,,,,,,,,,,,,,,,,,,,,,,,,,,,,
,,,,,,,603414a536144802cda025f5,6057c54e64b0b4e5c128b4f9,60589a28ec2a2272e38ce5c6,United States,Northeast,13 or older,no,2021-03-22_09h23.53.707,empathy_intonation_perc,2020.2.10,Win32,60,,,,,,,,,,0,castilian,0,1,1.967855,0,37,37,37,1,38,./stim/wavs/andalusian_mismatch_declarative-broad-focus_Mi-madre-come-la-fruta.wav,./stim/wavs/argentine_mismatch_declarative-broad-focus_Mi-madre-come-la-fruta.wav,./stim/wavs/castilian_mismatch_declarative-broad-focus_Mi-madre-come-la-fruta.wav,./stim/wavs/chilean_mismatch_declarative-broad-focus_Mi-madre-come-la-fruta.wav,./stim/wavs/cuban_mismatch_declarative-broad-focus_Mi-madre-come-la-fruta.wav,./stim/wavs/mexican_mismatch_declarative-broad-focus_Mi-madre-come-la-fruta.wav,./stim/wavs/peruvian_mismatch_declarative-broad-focus_Mi-madre-come-la-fruta.wav,./stim/wavs/puertorican_mismatch_declarative-broad-focus_Mi-madre-come-la-fruta.wav,,,,,,,,,,,,,,,,,,,,,,,,,,,,,,,,,,,,,,,,,,,,,,,,,,,,,,,,
,,,,,,,603414a536144802cda025f5,6057c54e64b0b4e5c128b4f9,60589a28ec2a2272e38ce5c6,United States,Northeast,13 or older,no,2021-03-22_09h23.53.707,empathy_intonation_perc,2020.2.10,Win32,60,,,,,,,,,,0,mexican,0,1,1.5008,0,38,38,44,1,45,./stim/wavs/andalusian_mismatch_declarative-narrow-focus_La-nina-lava-el-plato.wav,./stim/wavs/argentine_mismatch_declarative-narrow-focus_La-nina-lava-el-plato.wav,./stim/wavs/castilian_mismatch_declarative-narrow-focus_La-nina-lava-el-plato.wav,./stim/wavs/chilean_mismatch_declarative-narrow-focus_La-nina-lava-el-plato.wav,./stim/wavs/cuban_mismatch_declarative-narrow-focus_La-nina-lava-el-plato.wav,./stim/wavs/mexican_mismatch_declarative-narrow-focus_La-nina-lava-el-plato.wav,./stim/wavs/peruvian_mismatch_declarative-narrow-focus_La-nina-lava-el-plato.wav,./stim/wavs/puertorican_mismatch_declarative-narrow-focus_La-nina-lava-el-plato.wav,,,,,,,,,,,,,,,,,,,,,,,,,,,,,,,,,,,,,,,,,,,,,,,,,,,,,,,,
,,,,,,,603414a536144802cda025f5,6057c54e64b0b4e5c128b4f9,60589a28ec2a2272e38ce5c6,United States,Northeast,13 or older,no,2021-03-22_09h23.53.707,empathy_intonation_perc,2020.2.10,Win32,60,,,,,,,,,,0,argentine,0,1,1.8995,0,39,39,40,1,41,./stim/wavs/andalusian_mismatch_declarative-narrow-focus_El-bebe-comia-muy-bien.wav,./stim/wavs/argentine_mismatch_declarative-narrow-focus_El-bebe-comia-muy-bien.wav,./stim/wavs/castilian_mismatch_declarative-narrow-focus_El-bebe-comia-muy-bien.wav,./stim/wavs/chilean_mismatch_declarative-narrow-focus_El-bebe-comia-muy-bien.wav,./stim/wavs/cuban_mismatch_declarative-narrow-focus_El-bebe-comia-muy-bien.wav,./stim/wavs/mexican_mismatch_declarative-narrow-focus_El-bebe-comia-muy-bien.wav,./stim/wavs/peruvian_mismatch_declarative-narrow-focus_El-bebe-comia-muy-bien.wav,./stim/wavs/puertorican_mismatch_declarative-narrow-focus_El-bebe-comia-muy-bien.wav,,,,,,,,,,,,,,,,,,,,,,,,,,,,,,,,,,,,,,,,,,,,,,,,,,,,,,,,
,,,,,,,603414a536144802cda025f5,6057c54e64b0b4e5c128b4f9,60589a28ec2a2272e38ce5c6,United States,Northeast,13 or older,no,2021-03-22_09h23.53.707,empathy_intonation_perc,2020.2.10,Win32,60,,,,,,,,,,1,argentine,0,0,1.81646,0,40,40,56,1,57,./stim/wavs/andalusian_mismatch_interrogative-total-yn_El-bebe-comia-muy-bien.wav,./stim/wavs/argentine_mismatch_interrogative-total-yn_El-bebe-comia-muy-bien.wav,./stim/wavs/castilian_mismatch_interrogative-total-yn_El-bebe-comia-muy-bien.wav,./stim/wavs/chilean_mismatch_interrogative-total-yn_El-bebe-comia-muy-bien.wav,./stim/wavs/cuban_mismatch_interrogative-total-yn_El-bebe-comia-muy-bien.wav,./stim/wavs/mexican_mismatch_interrogative-total-yn_El-bebe-comia-muy-bien.wav,./stim/wavs/peruvian_mismatch_interrogative-total-yn_El-bebe-comia-muy-bien.wav,./stim/wavs/puertorican_mismatch_interrogative-total-yn_El-bebe-comia-muy-bien.wav,,,,,,,,,,,,,,,,,,,,,,,,,,,,,,,,,,,,,,,,,,,,,,,,,,,,,,,,
,,,,,,,603414a536144802cda025f5,6057c54e64b0b4e5c128b4f9,60589a28ec2a2272e38ce5c6,United States,Northeast,13 or older,no,2021-03-22_09h23.53.707,empathy_intonation_perc,2020.2.10,Win32,60,,,,,,,,,,0,andalusian,0,1,1.91893,0,41,41,13,1,14,./stim/wavs/andalusian_match_declarative-narrow-focus_Maria-bebe-el-vino.wav,./stim/wavs/argentine_match_declarative-narrow-focus_Maria-bebe-el-vino.wav,./stim/wavs/castilian_match_declarative-narrow-focus_Maria-bebe-el-vino.wav,./stim/wavs/chilean_match_declarative-narrow-focus_Maria-bebe-el-vino.wav,./stim/wavs/cuban_match_declarative-narrow-focus_Maria-bebe-el-vino.wav,./stim/wavs/mexican_match_declarative-narrow-focus_Maria-bebe-el-vino.wav,./stim/wavs/peruvian_match_declarative-narrow-focus_Maria-bebe-el-vino.wav,./stim/wavs/puertorican_match_declarative-narrow-focus_Maria-bebe-el-vino.wav,,,,,,,,,,,,,,,,,,,,,,,,,,,,,,,,,,,,,,,,,,,,,,,,,,,,,,,,
,,,,,,,603414a536144802cda025f5,6057c54e64b0b4e5c128b4f9,60589a28ec2a2272e38ce5c6,United States,Northeast,13 or older,no,2021-03-22_09h23.53.707,empathy_intonation_perc,2020.2.10,Win32,60,,,,,,,,,,0,argentine,0,1,1.749685,0,42,42,6,1,7,./stim/wavs/andalusian_match_declarative-broad-focus_Mariano-habla-del-tiempo.wav,./stim/wavs/argentine_match_declarative-broad-focus_Mariano-habla-del-tiempo.wav,./stim/wavs/castilian_match_declarative-broad-focus_Mariano-habla-del-tiempo.wav,./stim/wavs/chilean_match_declarative-broad-focus_Mariano-habla-del-tiempo.wav,./stim/wavs/cuban_match_declarative-broad-focus_Mariano-habla-del-tiempo.wav,./stim/wavs/mexican_match_declarative-broad-focus_Mariano-habla-del-tiempo.wav,./stim/wavs/peruvian_match_declarative-broad-focus_Mariano-habla-del-tiempo.wav,./stim/wavs/puertorican_match_declarative-broad-focus_Mariano-habla-del-tiempo.wav,,,,,,,,,,,,,,,,,,,,,,,,,,,,,,,,,,,,,,,,,,,,,,,,,,,,,,,,
,,,,,,,603414a536144802cda025f5,6057c54e64b0b4e5c128b4f9,60589a28ec2a2272e38ce5c6,United States,Northeast,13 or older,no,2021-03-22_09h23.53.707,empathy_intonation_perc,2020.2.10,Win32,60,,,,,,,,,,1,argentine,1,1,1.844155,0,43,43,57,1,58,./stim/wavs/andalusian_mismatch_interrogative-total-yn_El-hombre-mira-la-luna.wav,./stim/wavs/argentine_mismatch_interrogative-total-yn_El-hombre-mira-la-luna.wav,./stim/wavs/castilian_mismatch_interrogative-total-yn_El-hombre-mira-la-luna.wav,./stim/wavs/chilean_mismatch_interrogative-total-yn_El-hombre-mira-la-luna.wav,./stim/wavs/cuban_mismatch_interrogative-total-yn_El-hombre-mira-la-luna.wav,./stim/wavs/mexican_mismatch_interrogative-total-yn_El-hombre-mira-la-luna.wav,./stim/wavs/peruvian_mismatch_interrogative-total-yn_El-hombre-mira-la-luna.wav,./stim/wavs/puertorican_mismatch_interrogative-total-yn_El-hombre-mira-la-luna.wav,,,,,,,,,,,,,,,,,,,,,,,,,,,,,,,,,,,,,,,,,,,,,,,,,,,,,,,,
,,,,,,,603414a536144802cda025f5,6057c54e64b0b4e5c128b4f9,60589a28ec2a2272e38ce5c6,United States,Northeast,13 or older,no,2021-03-22_09h23.53.707,empathy_intonation_perc,2020.2.10,Win32,60,,,,,,,,,,1,peruvian,1,1,1.80245,0,44,44,55,1,56,./stim/wavs/andalusian_mismatch_interrogative-partial-wh_Por-que-vivia-en-Paris.wav,./stim/wavs/argentine_mismatch_interrogative-partial-wh_Por-que-vivia-en-Paris.wav,./stim/wavs/castilian_mismatch_interrogative-partial-wh_Por-que-vivia-en-Paris.wav,./stim/wavs/chilean_mismatch_interrogative-partial-wh_Por-que-vivia-en-Paris.wav,./stim/wavs/cuban_mismatch_interrogative-partial-wh_Por-que-vivia-en-Paris.wav,./stim/wavs/mexican_mismatch_interrogative-partial-wh_Por-que-vivia-en-Paris.wav,./stim/wavs/peruvian_mismatch_interrogative-partial-wh_Por-que-vivia-en-Paris.wav,./stim/wavs/puertorican_mismatch_interrogative-partial-wh_Por-que-vivia-en-Paris.wav,,,,,,,,,,,,,,,,,,,,,,,,,,,,,,,,,,,,,,,,,,,,,,,,,,,,,,,,
,,,,,,,603414a536144802cda025f5,6057c54e64b0b4e5c128b4f9,60589a28ec2a2272e38ce5c6,United States,Northeast,13 or older,no,2021-03-22_09h23.53.707,empathy_intonation_perc,2020.2.10,Win32,60,,,,,,,,,,1,castilian,1,1,1.620815,0,45,45,51,1,52,./stim/wavs/andalusian_mismatch_interrogative-partial-wh_Por-que-desayuna-muy-bien.wav,./stim/wavs/argentine_mismatch_interrogative-partial-wh_Por-que-desayuna-muy-bien.wav,./stim/wavs/castilian_mismatch_interrogative-partial-wh_Por-que-desayuna-muy-bien.wav,./stim/wavs/chilean_mismatch_interrogative-partial-wh_Por-que-desayuna-muy-bien.wav,./stim/wavs/cuban_mismatch_interrogative-partial-wh_Por-que-desayuna-muy-bien.wav,./stim/wavs/mexican_mismatch_interrogative-partial-wh_Por-que-desayuna-muy-bien.wav,./stim/wavs/peruvian_mismatch_interrogative-partial-wh_Por-que-desayuna-muy-bien.wav,./stim/wavs/puertorican_mismatch_interrogative-partial-wh_Por-que-desayuna-muy-bien.wav,,,,,,,,,,,,,,,,,,,,,,,,,,,,,,,,,,,,,,,,,,,,,,,,,,,,,,,,
,,,,,,,603414a536144802cda025f5,6057c54e64b0b4e5c128b4f9,60589a28ec2a2272e38ce5c6,United States,Northeast,13 or older,no,2021-03-22_09h23.53.707,empathy_intonation_perc,2020.2.10,Win32,60,,,,,,,,,,1,castilian,0,0,2.55071,0,46,46,62,1,63,./stim/wavs/andalusian_mismatch_interrogative-total-yn_Mi-novio-viene-del-lago.wav,./stim/wavs/argentine_mismatch_interrogative-total-yn_Mi-novio-viene-del-lago.wav,./stim/wavs/castilian_mismatch_interrogative-total-yn_Mi-novio-viene-del-lago.wav,./stim/wavs/chilean_mismatch_interrogative-total-yn_Mi-novio-viene-del-lago.wav,./stim/wavs/cuban_mismatch_interrogative-total-yn_Mi-novio-viene-del-lago.wav,./stim/wavs/mexican_mismatch_interrogative-total-yn_Mi-novio-viene-del-lago.wav,./stim/wavs/peruvian_mismatch_interrogative-total-yn_Mi-novio-viene-del-lago.wav,./stim/wavs/puertorican_mismatch_interrogative-total-yn_Mi-novio-viene-del-lago.wav,,,,,,,,,,,,,,,,,,,,,,,,,,,,,,,,,,,,,,,,,,,,,,,,,,,,,,,,
,,,,,,,603414a536144802cda025f5,6057c54e64b0b4e5c128b4f9,60589a28ec2a2272e38ce5c6,United States,Northeast,13 or older,no,2021-03-22_09h23.53.707,empathy_intonation_perc,2020.2.10,Win32,60,,,,,,,,,,0,peruvian,0,1,1.720955,0,47,47,33,1,34,./stim/wavs/andalusian_mismatch_declarative-broad-focus_El-hombre-mira-la-luna.wav,./stim/wavs/argentine_mismatch_declarative-broad-focus_El-hombre-mira-la-luna.wav,./stim/wavs/castilian_mismatch_declarative-broad-focus_El-hombre-mira-la-luna.wav,./stim/wavs/chilean_mismatch_declarative-broad-focus_El-hombre-mira-la-luna.wav,./stim/wavs/cuban_mismatch_declarative-broad-focus_El-hombre-mira-la-luna.wav,./stim/wavs/mexican_mismatch_declarative-broad-focus_El-hombre-mira-la-luna.wav,./stim/wavs/peruvian_mismatch_declarative-broad-focus_El-hombre-mira-la-luna.wav,./stim/wavs/puertorican_mismatch_declarative-broad-focus_El-hombre-mira-la-luna.wav,,,,,,,,,,,,,,,,,,,,,,,,,,,,,,,,,,,,,,,,,,,,,,,,,,,,,,,,
,,,,,,,603414a536144802cda025f5,6057c54e64b0b4e5c128b4f9,60589a28ec2a2272e38ce5c6,United States,Northeast,13 or older,no,2021-03-22_09h23.53.707,empathy_intonation_perc,2020.2.10,Win32,60,,,,,,,,,,0,cuban,0,1,2.353355,0,48,48,0,1,1,./stim/wavs/andalusian_match_declarative-broad-focus_Ana-lleva-el-abrigo.wav,./stim/wavs/argentine_match_declarative-broad-focus_Ana-lleva-el-abrigo.wav,./stim/wavs/castilian_match_declarative-broad-focus_Ana-lleva-el-abrigo.wav,./stim/wavs/chilean_match_declarative-broad-focus_Ana-lleva-el-abrigo.wav,./stim/wavs/cuban_match_declarative-broad-focus_Ana-lleva-el-abrigo.wav,./stim/wavs/mexican_match_declarative-broad-focus_Ana-lleva-el-abrigo.wav,./stim/wavs/peruvian_match_declarative-broad-focus_Ana-lleva-el-abrigo.wav,./stim/wavs/puertorican_match_declarative-broad-focus_Ana-lleva-el-abrigo.wav,,,,,,,,,,,,,,,,,,,,,,,,,,,,,,,,,,,,,,,,,,,,,,,,,,,,,,,,
,,,,,,,603414a536144802cda025f5,6057c54e64b0b4e5c128b4f9,60589a28ec2a2272e38ce5c6,United States,Northeast,13 or older,no,2021-03-22_09h23.53.707,empathy_intonation_perc,2020.2.10,Win32,60,,,,,,,,,,0,argentine,0,1,1.631345,0,49,49,43,1,44,./stim/wavs/andalusian_mismatch_declarative-narrow-focus_La-maestra-vive-en-Paris.wav,./stim/wavs/argentine_mismatch_declarative-narrow-focus_La-maestra-vive-en-Paris.wav,./stim/wavs/castilian_mismatch_declarative-narrow-focus_La-maestra-vive-en-Paris.wav,./stim/wavs/chilean_mismatch_declarative-narrow-focus_La-maestra-vive-en-Paris.wav,./stim/wavs/cuban_mismatch_declarative-narrow-focus_La-maestra-vive-en-Paris.wav,./stim/wavs/mexican_mismatch_declarative-narrow-focus_La-maestra-vive-en-Paris.wav,./stim/wavs/peruvian_mismatch_declarative-narrow-focus_La-maestra-vive-en-Paris.wav,./stim/wavs/puertorican_mismatch_declarative-narrow-focus_La-maestra-vive-en-Paris.wav,,,,,,,,,,,,,,,,,,,,,,,,,,,,,,,,,,,,,,,,,,,,,,,,,,,,,,,,
,,,,,,,603414a536144802cda025f5,6057c54e64b0b4e5c128b4f9,60589a28ec2a2272e38ce5c6,United States,Northeast,13 or older,no,2021-03-22_09h23.53.707,empathy_intonation_perc,2020.2.10,Win32,60,,,,,,,,,,0,peruvian,0,1,1.74875,0,50,50,42,1,43,./stim/wavs/andalusian_mismatch_declarative-narrow-focus_El-nino-oye-el-rio.wav,./stim/wavs/argentine_mismatch_declarative-narrow-focus_El-nino-oye-el-rio.wav,./stim/wavs/castilian_mismatch_declarative-narrow-focus_El-nino-oye-el-rio.wav,./stim/wavs/chilean_mismatch_declarative-narrow-focus_El-nino-oye-el-rio.wav,./stim/wavs/cuban_mismatch_declarative-narrow-focus_El-nino-oye-el-rio.wav,./stim/wavs/mexican_mismatch_declarative-narrow-focus_El-nino-oye-el-rio.wav,./stim/wavs/peruvian_mismatch_declarative-narrow-focus_El-nino-oye-el-rio.wav,./stim/wavs/puertorican_mismatch_declarative-narrow-focus_El-nino-oye-el-rio.wav,,,,,,,,,,,,,,,,,,,,,,,,,,,,,,,,,,,,,,,,,,,,,,,,,,,,,,,,
,,,,,,,603414a536144802cda025f5,6057c54e64b0b4e5c128b4f9,60589a28ec2a2272e38ce5c6,United States,Northeast,13 or older,no,2021-03-22_09h23.53.707,empathy_intonation_perc,2020.2.10,Win32,60,,,,,,,,,,1,andalusian,0,0,1.734445,0,51,51,63,1,64,./stim/wavs/andalusian_mismatch_interrogative-total-yn_Mi-tia-odia-la-lluvia.wav,./stim/wavs/argentine_mismatch_interrogative-total-yn_Mi-tia-odia-la-lluvia.wav,./stim/wavs/castilian_mismatch_interrogative-total-yn_Mi-tia-odia-la-lluvia.wav,./stim/wavs/chilean_mismatch_interrogative-total-yn_Mi-tia-odia-la-lluvia.wav,./stim/wavs/cuban_mismatch_interrogative-total-yn_Mi-tia-odia-la-lluvia.wav,./stim/wavs/mexican_mismatch_interrogative-total-yn_Mi-tia-odia-la-lluvia.wav,./stim/wavs/peruvian_mismatch_interrogative-total-yn_Mi-tia-odia-la-lluvia.wav,./stim/wavs/puertorican_mismatch_interrogative-total-yn_Mi-tia-odia-la-lluvia.wav,,,,,,,,,,,,,,,,,,,,,,,,,,,,,,,,,,,,,,,,,,,,,,,,,,,,,,,,
,,,,,,,603414a536144802cda025f5,6057c54e64b0b4e5c128b4f9,60589a28ec2a2272e38ce5c6,United States,Northeast,13 or older,no,2021-03-22_09h23.53.707,empathy_intonation_perc,2020.2.10,Win32,60,,,,,,,,,,1,peruvian,0,0,1.57565,0,52,52,58,1,59,./stim/wavs/andalusian_mismatch_interrogative-total-yn_El-nino-oye-el-rio.wav,./stim/wavs/argentine_mismatch_interrogative-total-yn_El-nino-oye-el-rio.wav,./stim/wavs/castilian_mismatch_interrogative-total-yn_El-nino-oye-el-rio.wav,./stim/wavs/chilean_mismatch_interrogative-total-yn_El-nino-oye-el-rio.wav,./stim/wavs/cuban_mismatch_interrogative-total-yn_El-nino-oye-el-rio.wav,./stim/wavs/mexican_mismatch_interrogative-total-yn_El-nino-oye-el-rio.wav,./stim/wavs/peruvian_mismatch_interrogative-total-yn_El-nino-oye-el-rio.wav,./stim/wavs/puertorican_mismatch_interrogative-total-yn_El-nino-oye-el-rio.wav,,,,,,,,,,,,,,,,,,,,,,,,,,,,,,,,,,,,,,,,,,,,,,,,,,,,,,,,
,,,,,,,603414a536144802cda025f5,6057c54e64b0b4e5c128b4f9,60589a28ec2a2272e38ce5c6,United States,Northeast,13 or older,no,2021-03-22_09h23.53.707,empathy_intonation_perc,2020.2.10,Win32,60,,,,,,,,,,1,mexican,0,0,1.418365,0,53,53,31,1,32,./stim/wavs/andalusian_match_interrogative-total-yn_Marta-abre-el-regalo.wav,./stim/wavs/argentine_match_interrogative-total-yn_Marta-abre-el-regalo.wav,./stim/wavs/castilian_match_interrogative-total-yn_Marta-abre-el-regalo.wav,./stim/wavs/chilean_match_interrogative-total-yn_Marta-abre-el-regalo.wav,./stim/wavs/cuban_match_interrogative-total-yn_Marta-abre-el-regalo.wav,./stim/wavs/mexican_match_interrogative-total-yn_Marta-abre-el-regalo.wav,./stim/wavs/peruvian_match_interrogative-total-yn_Marta-abre-el-regalo.wav,./stim/wavs/puertorican_match_interrogative-total-yn_Marta-abre-el-regalo.wav,,,,,,,,,,,,,,,,,,,,,,,,,,,,,,,,,,,,,,,,,,,,,,,,,,,,,,,,
,,,,,,,603414a536144802cda025f5,6057c54e64b0b4e5c128b4f9,60589a28ec2a2272e38ce5c6,United States,Northeast,13 or older,no,2021-03-22_09h23.53.707,empathy_intonation_perc,2020.2.10,Win32,60,,,,,,,,,,0,chilean,0,1,1.25114,0,54,54,5,1,6,./stim/wavs/andalusian_match_declarative-broad-focus_Maria-bebe-el-vino.wav,./stim/wavs/argentine_match_declarative-broad-focus_Maria-bebe-el-vino.wav,./stim/wavs/castilian_match_declarative-broad-focus_Maria-bebe-el-vino.wav,./stim/wavs/chilean_match_declarative-broad-focus_Maria-bebe-el-vino.wav,./stim/wavs/cuban_match_declarative-broad-focus_Maria-bebe-el-vino.wav,./stim/wavs/mexican_match_declarative-broad-focus_Maria-bebe-el-vino.wav,./stim/wavs/peruvian_match_declarative-broad-focus_Maria-bebe-el-vino.wav,./stim/wavs/puertorican_match_declarative-broad-focus_Maria-bebe-el-vino.wav,,,,,,,,,,,,,,,,,,,,,,,,,,,,,,,,,,,,,,,,,,,,,,,,,,,,,,,,
,,,,,,,603414a536144802cda025f5,6057c54e64b0b4e5c128b4f9,60589a28ec2a2272e38ce5c6,United States,Northeast,13 or older,no,2021-03-22_09h23.53.707,empathy_intonation_perc,2020.2.10,Win32,60,,,,,,,,,,1,chilean,1,1,1.24954,0,55,55,17,1,18,./stim/wavs/andalusian_match_interrogative-partial-wh_Cuando-leia-el-libro.wav,./stim/wavs/argentine_match_interrogative-partial-wh_Cuando-leia-el-libro.wav,./stim/wavs/castilian_match_interrogative-partial-wh_Cuando-leia-el-libro.wav,./stim/wavs/chilean_match_interrogative-partial-wh_Cuando-leia-el-libro.wav,./stim/wavs/cuban_match_interrogative-partial-wh_Cuando-leia-el-libro.wav,./stim/wavs/mexican_match_interrogative-partial-wh_Cuando-leia-el-libro.wav,./stim/wavs/peruvian_match_interrogative-partial-wh_Cuando-leia-el-libro.wav,./stim/wavs/puertorican_match_interrogative-partial-wh_Cuando-leia-el-libro.wav,,,,,,,,,,,,,,,,,,,,,,,,,,,,,,,,,,,,,,,,,,,,,,,,,,,,,,,,
,,,,,,,603414a536144802cda025f5,6057c54e64b0b4e5c128b4f9,60589a28ec2a2272e38ce5c6,United States,Northeast,13 or older,no,2021-03-22_09h23.53.707,empathy_intonation_perc,2020.2.10,Win32,60,,,,,,,,,,0,castilian,0,1,1.56976,0,56,56,39,1,40,./stim/wavs/andalusian_mismatch_declarative-broad-focus_Mi-tia-odia-la-lluvia.wav,./stim/wavs/argentine_mismatch_declarative-broad-focus_Mi-tia-odia-la-lluvia.wav,./stim/wavs/castilian_mismatch_declarative-broad-focus_Mi-tia-odia-la-lluvia.wav,./stim/wavs/chilean_mismatch_declarative-broad-focus_Mi-tia-odia-la-lluvia.wav,./stim/wavs/cuban_mismatch_declarative-broad-focus_Mi-tia-odia-la-lluvia.wav,./stim/wavs/mexican_mismatch_declarative-broad-focus_Mi-tia-odia-la-lluvia.wav,./stim/wavs/peruvian_mismatch_declarative-broad-focus_Mi-tia-odia-la-lluvia.wav,./stim/wavs/puertorican_mismatch_declarative-broad-focus_Mi-tia-odia-la-lluvia.wav,,,,,,,,,,,,,,,,,,,,,,,,,,,,,,,,,,,,,,,,,,,,,,,,,,,,,,,,
,,,,,,,603414a536144802cda025f5,6057c54e64b0b4e5c128b4f9,60589a28ec2a2272e38ce5c6,United States,Northeast,13 or older,no,2021-03-22_09h23.53.707,empathy_intonation_perc,2020.2.10,Win32,60,,,,,,,,,,1,cuban,0,0,1.999895,0,57,57,26,1,27,./stim/wavs/andalusian_match_interrogative-total-yn_David-leia-el-libro.wav,./stim/wavs/argentine_match_interrogative-total-yn_David-leia-el-libro.wav,./stim/wavs/castilian_match_interrogative-total-yn_David-leia-el-libro.wav,./stim/wavs/chilean_match_interrogative-total-yn_David-leia-el-libro.wav,./stim/wavs/cuban_match_interrogative-total-yn_David-leia-el-libro.wav,./stim/wavs/mexican_match_interrogative-total-yn_David-leia-el-libro.wav,./stim/wavs/peruvian_match_interrogative-total-yn_David-leia-el-libro.wav,./stim/wavs/puertorican_match_interrogative-total-yn_David-leia-el-libro.wav,,,,,,,,,,,,,,,,,,,,,,,,,,,,,,,,,,,,,,,,,,,,,,,,,,,,,,,,
,,,,,,,603414a536144802cda025f5,6057c54e64b0b4e5c128b4f9,60589a28ec2a2272e38ce5c6,United States,Northeast,13 or older,no,2021-03-22_09h23.53.707,empathy_intonation_perc,2020.2.10,Win32,60,,,,,,,,,,0,castilian,0,1,2.015495,0,58,58,14,1,15,./stim/wavs/andalusian_match_declarative-narrow-focus_Mariano-habla-del-tiempo.wav,./stim/wavs/argentine_match_declarative-narrow-focus_Mariano-habla-del-tiempo.wav,./stim/wavs/castilian_match_declarative-narrow-focus_Mariano-habla-del-tiempo.wav,./stim/wavs/chilean_match_declarative-narrow-focus_Mariano-habla-del-tiempo.wav,./stim/wavs/cuban_match_declarative-narrow-focus_Mariano-habla-del-tiempo.wav,./stim/wavs/mexican_match_declarative-narrow-focus_Mariano-habla-del-tiempo.wav,./stim/wavs/peruvian_match_declarative-narrow-focus_Mariano-habla-del-tiempo.wav,./stim/wavs/puertorican_match_declarative-narrow-focus_Mariano-habla-del-tiempo.wav,,,,,,,,,,,,,,,,,,,,,,,,,,,,,,,,,,,,,,,,,,,,,,,,,,,,,,,,
,,,,,,,603414a536144802cda025f5,6057c54e64b0b4e5c128b4f9,60589a28ec2a2272e38ce5c6,United States,Northeast,13 or older,no,2021-03-22_09h23.53.707,empathy_intonation_perc,2020.2.10,Win32,60,,,,,,,,,,1,puertorican,0,0,1.551585,0,59,59,28,1,29,./stim/wavs/andalusian_match_interrogative-total-yn_Manuela-vende-el-carro.wav,./stim/wavs/argentine_match_interrogative-total-yn_Manuela-vende-el-carro.wav,./stim/wavs/castilian_match_interrogative-total-yn_Manuela-vende-el-carro.wav,./stim/wavs/chilean_match_interrogative-total-yn_Manuela-vende-el-carro.wav,./stim/wavs/cuban_match_interrogative-total-yn_Manuela-vende-el-carro.wav,./stim/wavs/mexican_match_interrogative-total-yn_Manuela-vende-el-carro.wav,./stim/wavs/peruvian_match_interrogative-total-yn_Manuela-vende-el-carro.wav,./stim/wavs/puertorican_match_interrogative-total-yn_Manuela-vende-el-carro.wav,,,,,,,,,,,,,,,,,,,,,,,,,,,,,,,,,,,,,,,,,,,,,,,,,,,,,,,,
,,,,,,,603414a536144802cda025f5,6057c54e64b0b4e5c128b4f9,60589a28ec2a2272e38ce5c6,United States,Northeast,13 or older,no,2021-03-22_09h23.53.707,empathy_intonation_perc,2020.2.10,Win32,60,,,,,,,,,,0,peruvian,0,1,1.752585,0,60,60,12,1,13,./stim/wavs/andalusian_match_declarative-narrow-focus_Manuela-vende-el-carro.wav,./stim/wavs/argentine_match_declarative-narrow-focus_Manuela-vende-el-carro.wav,./stim/wavs/castilian_match_declarative-narrow-focus_Manuela-vende-el-carro.wav,./stim/wavs/chilean_match_declarative-narrow-focus_Manuela-vende-el-carro.wav,./stim/wavs/cuban_match_declarative-narrow-focus_Manuela-vende-el-carro.wav,./stim/wavs/mexican_match_declarative-narrow-focus_Manuela-vende-el-carro.wav,./stim/wavs/peruvian_match_declarative-narrow-focus_Manuela-vende-el-carro.wav,./stim/wavs/puertorican_match_declarative-narrow-focus_Manuela-vende-el-carro.wav,,,,,,,,,,,,,,,,,,,,,,,,,,,,,,,,,,,,,,,,,,,,,,,,,,,,,,,,
,,,,,,,603414a536144802cda025f5,6057c54e64b0b4e5c128b4f9,60589a28ec2a2272e38ce5c6,United States,Northeast,13 or older,no,2021-03-22_09h23.53.707,empathy_intonation_perc,2020.2.10,Win32,60,,,,,,,,,,0,andalusian,0,1,1.64986,0,61,61,7,1,8,./stim/wavs/andalusian_match_declarative-broad-focus_Marta-abre-el-regalo.wav,./stim/wavs/argentine_match_declarative-broad-focus_Marta-abre-el-regalo.wav,./stim/wavs/castilian_match_declarative-broad-focus_Marta-abre-el-regalo.wav,./stim/wavs/chilean_match_declarative-broad-focus_Marta-abre-el-regalo.wav,./stim/wavs/cuban_match_declarative-broad-focus_Marta-abre-el-regalo.wav,./stim/wavs/mexican_match_declarative-broad-focus_Marta-abre-el-regalo.wav,./stim/wavs/peruvian_match_declarative-broad-focus_Marta-abre-el-regalo.wav,./stim/wavs/puertorican_match_declarative-broad-focus_Marta-abre-el-regalo.wav,,,,,,,,,,,,,,,,,,,,,,,,,,,,,,,,,,,,,,,,,,,,,,,,,,,,,,,,
,,,,,,,603414a536144802cda025f5,6057c54e64b0b4e5c128b4f9,60589a28ec2a2272e38ce5c6,United States,Northeast,13 or older,no,2021-03-22_09h23.53.707,empathy_intonation_perc,2020.2.10,Win32,60,,,,,,,,,,0,chilean,0,1,1.46939,0,62,62,1,1,2,./stim/wavs/andalusian_match_declarative-broad-focus_Daniel-iba-a-Bolivia.wav,./stim/wavs/argentine_match_declarative-broad-focus_Daniel-iba-a-Bolivia.wav,./stim/wavs/castilian_match_declarative-broad-focus_Daniel-iba-a-Bolivia.wav,./stim/wavs/chilean_match_declarative-broad-focus_Daniel-iba-a-Bolivia.wav,./stim/wavs/cuban_match_declarative-broad-focus_Daniel-iba-a-Bolivia.wav,./stim/wavs/mexican_match_declarative-broad-focus_Daniel-iba-a-Bolivia.wav,./stim/wavs/peruvian_match_declarative-broad-focus_Daniel-iba-a-Bolivia.wav,./stim/wavs/puertorican_match_declarative-broad-focus_Daniel-iba-a-Bolivia.wav,,,,,,,,,,,,,,,,,,,,,,,,,,,,,,,,,,,,,,,,,,,,,,,,,,,,,,,,
,,,,,,,603414a536144802cda025f5,6057c54e64b0b4e5c128b4f9,60589a28ec2a2272e38ce5c6,United States,Northeast,13 or older,no,2021-03-22_09h23.53.707,empathy_intonation_perc,2020.2.10,Win32,60,,,,,,,,,,0,mexican,0,1,1.36887,0,63,63,36,1,37,./stim/wavs/andalusian_mismatch_declarative-broad-focus_La-nina-lava-el-plato.wav,./stim/wavs/argentine_mismatch_declarative-broad-focus_La-nina-lava-el-plato.wav,./stim/wavs/castilian_mismatch_declarative-broad-focus_La-nina-lava-el-plato.wav,./stim/wavs/chilean_mismatch_declarative-broad-focus_La-nina-lava-el-plato.wav,./stim/wavs/cuban_mismatch_declarative-broad-focus_La-nina-lava-el-plato.wav,./stim/wavs/mexican_mismatch_declarative-broad-focus_La-nina-lava-el-plato.wav,./stim/wavs/peruvian_mismatch_declarative-broad-focus_La-nina-lava-el-plato.wav,./stim/wavs/puertorican_mismatch_declarative-broad-focus_La-nina-lava-el-plato.wav,,,,,,,,,,,,,,,,,,,,,,,,,,,,,,,,,,,,,,,,,,,,,,,,,,,,,,,,
,,,,,,,603414a536144802cda025f5,6057c54e64b0b4e5c128b4f9,60589a28ec2a2272e38ce5c6,United States,Northeast,13 or older,no,2021-03-22_09h23.53.707,empathy_intonation_perc,2020.2.10,Win32,60,,,,,,,,,,,,,,,,,,,,,,,,,,,,,h,1,5.55571,0,0,0,0,1,,,,,,,,,,,,,,,,,,,,,,,,,,,,,,,,,,,,,,,,,,,,,,,,
,,,,,"Great! Now we will move on. The next task consists of about 60 trials, in each of which you will see a string of letters. 
  
  Your task is to decide whether this is a real Spanish word or not.",(press the spacebar to continue),603414a536144802cda025f5,6057c54e64b0b4e5c128b4f9,60589a28ec2a2272e38ce5c6,United States,Northeast,13 or older,no,2021-03-22_09h23.53.707,empathy_intonation_perc,2020.2.10,Win32,60,,,,,,,,,,,,,,,,,,,,,,,,,,,,,,,,,,,,,0,0,0,0,1,,,,,,,,,,,,,,,,,,,,,,,,,,,,,,,,,,,,,,,,,,,
,,,,,"If you think it is an existing Spanish word, you type '1' (for 'REAL'), and if you think it is not an existing Spanish word, you type '0' (for 'FAKE').",(press the spacebar to continue),603414a536144802cda025f5,6057c54e64b0b4e5c128b4f9,60589a28ec2a2272e38ce5c6,United States,Northeast,13 or older,no,2021-03-22_09h23.53.707,empathy_intonation_perc,2020.2.10,Win32,60,,,,,,,,,,,,,,,,,,,,,,,,,,,,,,,,,,,,,0,1,1,1,1,,,,,,,,,,,,,,,,,,,,,,,,,,,,,,,,,,,,,,,,,,,
,,,,,"If you are sure that the word exists, even though you dont know its exact meaning, you may still respond '1' (REAL). 
  
  But if you are not sure if it is an existing word, you should respond '0' (FAKE).
  
  Let's do a practice round...",(press the spacebar to continue),603414a536144802cda025f5,6057c54e64b0b4e5c128b4f9,60589a28ec2a2272e38ce5c6,United States,Northeast,13 or older,no,2021-03-22_09h23.53.707,empathy_intonation_perc,2020.2.10,Win32,60,,,,,,,,,,,,,,,,,,,,,,,,,,,,,,,,,,,,,0,2,2,2,1,,,,,,,,,,,,,,,,,,,,,,,,,,,,,,,,,,,,,,,,,,,
,,,,,,,603414a536144802cda025f5,6057c54e64b0b4e5c128b4f9,60589a28ec2a2272e38ce5c6,United States,Northeast,13 or older,no,2021-03-22_09h23.53.707,empathy_intonation_perc,2020.2.10,Win32,60,,,,,,,,,,0,,,,,,,,,,,,,,,,,,,,,,,,,,,,,,,,0,1,2.95426,0,0,0,0,1,0,depiste,REAL,FAKE,,,,,,,,,,,,,,,,,,,,,,,,,,,,,,,
,,,,,,,603414a536144802cda025f5,6057c54e64b0b4e5c128b4f9,60589a28ec2a2272e38ce5c6,United States,Northeast,13 or older,no,2021-03-22_09h23.53.707,empathy_intonation_perc,2020.2.10,Win32,60,,,,,,,,,,1,,,,,,,,,,,,,,,,,,,,,,,,,,,,,,,,1,1,2.47513,0,1,1,1,1,0,s,REAL,FAKE,,,,,,,,,,,,,,,,,,,,,,,,,,,,,,,
,,,,,,,603414a536144802cda025f5,6057c54e64b0b4e5c128b4f9,60589a28ec2a2272e38ce5c6,United States,Northeast,13 or older,no,2021-03-22_09h23.53.707,empathy_intonation_perc,2020.2.10,Win32,60,,,,,,,,,,0,,,,,,,,,,,,,,,,,,,,,,,,,,,,,,,,0,1,1.284935,0,2,2,2,1,0,con,REAL,FAKE,,,,,,,,,,,,,,,,,,,,,,,,,,,,,,,
,,,,,,,603414a536144802cda025f5,6057c54e64b0b4e5c128b4f9,60589a28ec2a2272e38ce5c6,United States,Northeast,13 or older,no,2021-03-22_09h23.53.707,empathy_intonation_perc,2020.2.10,Win32,60,,,,,,,,,,0,,,,,,,,,,,,,,,,,,,,,,,,,,,,,,,,1,0,1.25697,0,3,3,3,1,0,calpar,REAL,FAKE,,,,,,,,,,,,,,,,,,,,,,,,,,,,,,,
,,,,,,,603414a536144802cda025f5,6057c54e64b0b4e5c128b4f9,60589a28ec2a2272e38ce5c6,United States,Northeast,13 or older,no,2021-03-22_09h23.53.707,empathy_intonation_perc,2020.2.10,Win32,60,,,,,,,,,,0,,,,,,,,,,,,,,,,,,,,,,,,,,,,,,,,0,1,1.726765,0,4,4,4,1,0,joten,REAL,FAKE,,,,,,,,,,,,,,,,,,,,,,,,,,,,,,,
,,,,,,,603414a536144802cda025f5,6057c54e64b0b4e5c128b4f9,60589a28ec2a2272e38ce5c6,United States,Northeast,13 or older,no,2021-03-22_09h23.53.707,empathy_intonation_perc,2020.2.10,Win32,60,,,,,,,,,,1,,,,,,,,,,,,,,,,,,,,,,,,,,,,,,,,0,0,1.409915,0,5,5,5,1,0,sacapuntas,REAL,FAKE,,,,,,,,,,,,,,,,,,,,,,,,,,,,,,,
,,,,,,,603414a536144802cda025f5,6057c54e64b0b4e5c128b4f9,60589a28ec2a2272e38ce5c6,United States,Northeast,13 or older,no,2021-03-22_09h23.53.707,empathy_intonation_perc,2020.2.10,Win32,60,,,,,,,,,,0,,,,,,,,,,,,,,,,,,,,,,,,,,,,,,,,1,0,1.418635,0,6,6,6,1,0,priba,REAL,FAKE,,,,,,,,,,,,,,,,,,,,,,,,,,,,,,,
,,,,,,,603414a536144802cda025f5,6057c54e64b0b4e5c128b4f9,60589a28ec2a2272e38ce5c6,United States,Northeast,13 or older,no,2021-03-22_09h23.53.707,empathy_intonation_perc,2020.2.10,Win32,60,,,,,,,,,,0,,,,,,,,,,,,,,,,,,,,,,,,,,,,,,,,1,0,1.544075,0,7,7,7,1,0,pelasula,REAL,FAKE,,,,,,,,,,,,,,,,,,,,,,,,,,,,,,,
,,,,,,,603414a536144802cda025f5,6057c54e64b0b4e5c128b4f9,60589a28ec2a2272e38ce5c6,United States,Northeast,13 or older,no,2021-03-22_09h23.53.707,empathy_intonation_perc,2020.2.10,Win32,60,,,,,,,,,,1,,,,,,,,,,,,,,,,,,,,,,,,,,,,,,,,1,1,0.851395,0,8,8,8,1,0,bien,REAL,FAKE,,,,,,,,,,,,,,,,,,,,,,,,,,,,,,,
,,,,,,,603414a536144802cda025f5,6057c54e64b0b4e5c128b4f9,60589a28ec2a2272e38ce5c6,United States,Northeast,13 or older,no,2021-03-22_09h23.53.707,empathy_intonation_perc,2020.2.10,Win32,60,,,,,,,,,,1,,,,,,,,,,,,,,,,,,,,,,,,,,,,,,,,1,1,0.68764,0,9,9,9,1,0,casa,REAL,FAKE,,,,,,,,,,,,,,,,,,,,,,,,,,,,,,,
,,,,,,,603414a536144802cda025f5,6057c54e64b0b4e5c128b4f9,60589a28ec2a2272e38ce5c6,United States,Northeast,13 or older,no,2021-03-22_09h23.53.707,empathy_intonation_perc,2020.2.10,Win32,60,,,,,,,,,,0,,,,,,,,,,,,,,,,,,,,,,,,,,,,,,,,1,0,1.24519,0,10,10,10,1,0,lejo,REAL,FAKE,,,,,,,,,,,,,,,,,,,,,,,,,,,,,,,
,,,,,,,603414a536144802cda025f5,6057c54e64b0b4e5c128b4f9,60589a28ec2a2272e38ce5c6,United States,Northeast,13 or older,no,2021-03-22_09h23.53.707,empathy_intonation_perc,2020.2.10,Win32,60,,,,,,,,,,0,,,,,,,,,,,,,,,,,,,,,,,,,,,,,,,,1,0,1.685495,0,11,11,11,1,0,pretantas,REAL,FAKE,,,,,,,,,,,,,,,,,,,,,,,,,,,,,,,
,,,,,,,603414a536144802cda025f5,6057c54e64b0b4e5c128b4f9,60589a28ec2a2272e38ce5c6,United States,Northeast,13 or older,no,2021-03-22_09h23.53.707,empathy_intonation_perc,2020.2.10,Win32,60,,,,,,,,,,1,,,,,,,,,,,,,,,,,,,,,,,,,,,,,,,,,,,,,,,,86,barato,,,1,1,2.388025,0,0,0,85,1,REAL,FAKE,,,,,,,,,,,,,,,,,,,,,
,,,,,,,603414a536144802cda025f5,6057c54e64b0b4e5c128b4f9,60589a28ec2a2272e38ce5c6,United States,Northeast,13 or older,no,2021-03-22_09h23.53.707,empathy_intonation_perc,2020.2.10,Win32,60,,,,,,,,,,0,,,,,,,,,,,,,,,,,,,,,,,,,,,,,,,,,,,,,,,,87,grodo,,,0,1,0.981185,0,1,1,86,1,REAL,FAKE,,,,,,,,,,,,,,,,,,,,,
,,,,,,,603414a536144802cda025f5,6057c54e64b0b4e5c128b4f9,60589a28ec2a2272e38ce5c6,United States,Northeast,13 or older,no,2021-03-22_09h23.53.707,empathy_intonation_perc,2020.2.10,Win32,60,,,,,,,,,,0,,,,,,,,,,,,,,,,,,,,,,,,,,,,,,,,,,,,,,,,66,hacido,,,1,0,0.919575,0,2,2,65,1,REAL,FAKE,,,,,,,,,,,,,,,,,,,,,
,,,,,,,603414a536144802cda025f5,6057c54e64b0b4e5c128b4f9,60589a28ec2a2272e38ce5c6,United States,Northeast,13 or older,no,2021-03-22_09h23.53.707,empathy_intonation_perc,2020.2.10,Win32,60,,,,,,,,,,1,,,,,,,,,,,,,,,,,,,,,,,,,,,,,,,,,,,,,,,,51,candado,,,1,1,1.120295,0,3,3,50,1,REAL,FAKE,,,,,,,,,,,,,,,,,,,,,
,,,,,,,603414a536144802cda025f5,6057c54e64b0b4e5c128b4f9,60589a28ec2a2272e38ce5c6,United States,Northeast,13 or older,no,2021-03-22_09h23.53.707,empathy_intonation_perc,2020.2.10,Win32,60,,,,,,,,,,0,,,,,,,,,,,,,,,,,,,,,,,,,,,,,,,,,,,,,,,,58,plaudir,,,0,1,0.792245,0,4,4,57,1,REAL,FAKE,,,,,,,,,,,,,,,,,,,,,
,,,,,,,603414a536144802cda025f5,6057c54e64b0b4e5c128b4f9,60589a28ec2a2272e38ce5c6,United States,Northeast,13 or older,no,2021-03-22_09h23.53.707,empathy_intonation_perc,2020.2.10,Win32,60,,,,,,,,,,1,,,,,,,,,,,,,,,,,,,,,,,,,,,,,,,,,,,,,,,,62,flaco,,,0,0,1.300715,0,5,5,61,1,REAL,FAKE,,,,,,,,,,,,,,,,,,,,,
,,,,,,,603414a536144802cda025f5,6057c54e64b0b4e5c128b4f9,60589a28ec2a2272e38ce5c6,United States,Northeast,13 or older,no,2021-03-22_09h23.53.707,empathy_intonation_perc,2020.2.10,Win32,60,,,,,,,,,,1,,,,,,,,,,,,,,,,,,,,,,,,,,,,,,,,,,,,,,,,57,tacao,,,1,1,1.872,0,6,6,56,1,REAL,FAKE,,,,,,,,,,,,,,,,,,,,,
,,,,,,,603414a536144802cda025f5,6057c54e64b0b4e5c128b4f9,60589a28ec2a2272e38ce5c6,United States,Northeast,13 or older,no,2021-03-22_09h23.53.707,empathy_intonation_perc,2020.2.10,Win32,60,,,,,,,,,,1,,,,,,,,,,,,,,,,,,,,,,,,,,,,,,,,,,,,,,,,9,hacha,,,0,0,2.309135,0,7,7,8,1,REAL,FAKE,,,,,,,,,,,,,,,,,,,,,
,,,,,,,603414a536144802cda025f5,6057c54e64b0b4e5c128b4f9,60589a28ec2a2272e38ce5c6,United States,Northeast,13 or older,no,2021-03-22_09h23.53.707,empathy_intonation_perc,2020.2.10,Win32,60,,,,,,,,,,0,,,,,,,,,,,,,,,,,,,,,,,,,,,,,,,,,,,,,,,,33,pauca,,,0,1,0.71587,0,8,8,32,1,REAL,FAKE,,,,,,,,,,,,,,,,,,,,,
,,,,,,,603414a536144802cda025f5,6057c54e64b0b4e5c128b4f9,60589a28ec2a2272e38ce5c6,United States,Northeast,13 or older,no,2021-03-22_09h23.53.707,empathy_intonation_perc,2020.2.10,Win32,60,,,,,,,,,,1,,,,,,,,,,,,,,,,,,,,,,,,,,,,,,,,,,,,,,,,88,acantilado,,,0,0,1.29441,0,9,9,87,1,REAL,FAKE,,,,,,,,,,,,,,,,,,,,,
,,,,,,,603414a536144802cda025f5,6057c54e64b0b4e5c128b4f9,60589a28ec2a2272e38ce5c6,United States,Northeast,13 or older,no,2021-03-22_09h23.53.707,empathy_intonation_perc,2020.2.10,Win32,60,,,,,,,,,,0,,,,,,,,,,,,,,,,,,,,,,,,,,,,,,,,,,,,,,,,23,lampera,,,0,1,0.956275,0,10,10,22,1,REAL,FAKE,,,,,,,,,,,,,,,,,,,,,
,,,,,,,603414a536144802cda025f5,6057c54e64b0b4e5c128b4f9,60589a28ec2a2272e38ce5c6,United States,Northeast,13 or older,no,2021-03-22_09h23.53.707,empathy_intonation_perc,2020.2.10,Win32,60,,,,,,,,,,0,,,,,,,,,,,,,,,,,,,,,,,,,,,,,,,,,,,,,,,,18,arsa,,,1,0,2.319115,0,11,11,17,1,REAL,FAKE,,,,,,,,,,,,,,,,,,,,,
,,,,,,,603414a536144802cda025f5,6057c54e64b0b4e5c128b4f9,60589a28ec2a2272e38ce5c6,United States,Northeast,13 or older,no,2021-03-22_09h23.53.707,empathy_intonation_perc,2020.2.10,Win32,60,,,,,,,,,,1,,,,,,,,,,,,,,,,,,,,,,,,,,,,,,,,,,,,,,,,89,prisa,,,0,0,0.933745,0,12,12,88,1,REAL,FAKE,,,,,,,,,,,,,,,,,,,,,
,,,,,,,603414a536144802cda025f5,6057c54e64b0b4e5c128b4f9,60589a28ec2a2272e38ce5c6,United States,Northeast,13 or older,no,2021-03-22_09h23.53.707,empathy_intonation_perc,2020.2.10,Win32,60,,,,,,,,,,1,,,,,,,,,,,,,,,,,,,,,,,,,,,,,,,,,,,,,,,,80,hormiga,,,0,0,1.12493,0,13,13,79,1,REAL,FAKE,,,,,,,,,,,,,,,,,,,,,
,,,,,,,603414a536144802cda025f5,6057c54e64b0b4e5c128b4f9,60589a28ec2a2272e38ce5c6,United States,Northeast,13 or older,no,2021-03-22_09h23.53.707,empathy_intonation_perc,2020.2.10,Win32,60,,,,,,,,,,1,,,,,,,,,,,,,,,,,,,,,,,,,,,,,,,,,,,,,,,,48,ladrn,,,1,1,1.090065,0,14,14,47,1,REAL,FAKE,,,,,,,,,,,,,,,,,,,,,
,,,,,,,603414a536144802cda025f5,6057c54e64b0b4e5c128b4f9,60589a28ec2a2272e38ce5c6,United States,Northeast,13 or older,no,2021-03-22_09h23.53.707,empathy_intonation_perc,2020.2.10,Win32,60,,,,,,,,,,0,,,,,,,,,,,,,,,,,,,,,,,,,,,,,,,,,,,,,,,,82,empirador,,,1,0,1.176865,0,15,15,81,1,REAL,FAKE,,,,,,,,,,,,,,,,,,,,,
,,,,,,,603414a536144802cda025f5,6057c54e64b0b4e5c128b4f9,60589a28ec2a2272e38ce5c6,United States,Northeast,13 or older,no,2021-03-22_09h23.53.707,empathy_intonation_perc,2020.2.10,Win32,60,,,,,,,,,,1,,,,,,,,,,,,,,,,,,,,,,,,,,,,,,,,,,,,,,,,54,fomentar,,,0,0,1.45155,0,16,16,53,1,REAL,FAKE,,,,,,,,,,,,,,,,,,,,,
,,,,,,,603414a536144802cda025f5,6057c54e64b0b4e5c128b4f9,60589a28ec2a2272e38ce5c6,United States,Northeast,13 or older,no,2021-03-22_09h23.53.707,empathy_intonation_perc,2020.2.10,Win32,60,,,,,,,,,,0,,,,,,,,,,,,,,,,,,,,,,,,,,,,,,,,,,,,,,,,35,rompido,,,1,0,1.14907,0,17,17,34,1,REAL,FAKE,,,,,,,,,,,,,,,,,,,,,
,,,,,,,603414a536144802cda025f5,6057c54e64b0b4e5c128b4f9,60589a28ec2a2272e38ce5c6,United States,Northeast,13 or older,no,2021-03-22_09h23.53.707,empathy_intonation_perc,2020.2.10,Win32,60,,,,,,,,,,1,,,,,,,,,,,,,,,,,,,,,,,,,,,,,,,,,,,,,,,,77,tiburn,,,0,0,0.88695,0,18,18,76,1,REAL,FAKE,,,,,,,,,,,,,,,,,,,,,
,,,,,,,603414a536144802cda025f5,6057c54e64b0b4e5c128b4f9,60589a28ec2a2272e38ce5c6,United States,Northeast,13 or older,no,2021-03-22_09h23.53.707,empathy_intonation_perc,2020.2.10,Win32,60,,,,,,,,,,0,,,,,,,,,,,,,,,,,,,,,,,,,,,,,,,,,,,,,,,,32,fatacidad,,,0,1,1.282045,0,19,19,31,1,REAL,FAKE,,,,,,,,,,,,,,,,,,,,,
,,,,,,,603414a536144802cda025f5,6057c54e64b0b4e5c128b4f9,60589a28ec2a2272e38ce5c6,United States,Northeast,13 or older,no,2021-03-22_09h23.53.707,empathy_intonation_perc,2020.2.10,Win32,60,,,,,,,,,,0,,,,,,,,,,,,,,,,,,,,,,,,,,,,,,,,,,,,,,,,1,terzo,,,0,1,0.81579,0,20,20,0,1,REAL,FAKE,,,,,,,,,,,,,,,,,,,,,
,,,,,,,603414a536144802cda025f5,6057c54e64b0b4e5c128b4f9,60589a28ec2a2272e38ce5c6,United States,Northeast,13 or older,no,2021-03-22_09h23.53.707,empathy_intonation_perc,2020.2.10,Win32,60,,,,,,,,,,0,,,,,,,,,,,,,,,,,,,,,,,,,,,,,,,,,,,,,,,,29,decar,,,1,0,1.427105,0,21,21,28,1,REAL,FAKE,,,,,,,,,,,,,,,,,,,,,
,,,,,,,603414a536144802cda025f5,6057c54e64b0b4e5c128b4f9,60589a28ec2a2272e38ce5c6,United States,Northeast,13 or older,no,2021-03-22_09h23.53.707,empathy_intonation_perc,2020.2.10,Win32,60,,,,,,,,,,1,,,,,,,,,,,,,,,,,,,,,,,,,,,,,,,,,,,,,,,,31,pandilla,,,0,0,1.38605,0,22,22,30,1,REAL,FAKE,,,,,,,,,,,,,,,,,,,,,
,,,,,,,603414a536144802cda025f5,6057c54e64b0b4e5c128b4f9,60589a28ec2a2272e38ce5c6,United States,Northeast,13 or older,no,2021-03-22_09h23.53.707,empathy_intonation_perc,2020.2.10,Win32,60,,,,,,,,,,1,,,,,,,,,,,,,,,,,,,,,,,,,,,,,,,,,,,,,,,,12,asesinato,,,0,0,1.293825,0,23,23,11,1,REAL,FAKE,,,,,,,,,,,,,,,,,,,,,
,,,,,,,603414a536144802cda025f5,6057c54e64b0b4e5c128b4f9,60589a28ec2a2272e38ce5c6,United States,Northeast,13 or older,no,2021-03-22_09h23.53.707,empathy_intonation_perc,2020.2.10,Win32,60,,,,,,,,,,0,,,,,,,,,,,,,,,,,,,,,,,,,,,,,,,,,,,,,,,,27,acutacin,,,0,1,1.5838,0,24,24,26,1,REAL,FAKE,,,,,,,,,,,,,,,,,,,,,
,,,,,,,603414a536144802cda025f5,6057c54e64b0b4e5c128b4f9,60589a28ec2a2272e38ce5c6,United States,Northeast,13 or older,no,2021-03-22_09h23.53.707,empathy_intonation_perc,2020.2.10,Win32,60,,,,,,,,,,1,,,,,,,,,,,,,,,,,,,,,,,,,,,,,,,,,,,,,,,,81,pozo,,,0,0,0.76844,0,25,25,80,1,REAL,FAKE,,,,,,,,,,,,,,,,,,,,,
,,,,,,,603414a536144802cda025f5,6057c54e64b0b4e5c128b4f9,60589a28ec2a2272e38ce5c6,United States,Northeast,13 or older,no,2021-03-22_09h23.53.707,empathy_intonation_perc,2020.2.10,Win32,60,,,,,,,,,,1,,,,,,,,,,,,,,,,,,,,,,,,,,,,,,,,,,,,,,,,2,pellizcar,,,0,0,0.74666,0,26,26,1,1,REAL,FAKE,,,,,,,,,,,,,,,,,,,,,
,,,,,,,603414a536144802cda025f5,6057c54e64b0b4e5c128b4f9,60589a28ec2a2272e38ce5c6,United States,Northeast,13 or older,no,2021-03-22_09h23.53.707,empathy_intonation_perc,2020.2.10,Win32,60,,,,,,,,,,1,,,,,,,,,,,,,,,,,,,,,,,,,,,,,,,,,,,,,,,,83,guante,,,0,0,0.818345,0,27,27,82,1,REAL,FAKE,,,,,,,,,,,,,,,,,,,,,
,,,,,,,603414a536144802cda025f5,6057c54e64b0b4e5c128b4f9,60589a28ec2a2272e38ce5c6,United States,Northeast,13 or older,no,2021-03-22_09h23.53.707,empathy_intonation_perc,2020.2.10,Win32,60,,,,,,,,,,1,,,,,,,,,,,,,,,,,,,,,,,,,,,,,,,,,,,,,,,,38,estornudar,,,0,0,1.407075,0,28,28,37,1,REAL,FAKE,,,,,,,,,,,,,,,,,,,,,
,,,,,,,603414a536144802cda025f5,6057c54e64b0b4e5c128b4f9,60589a28ec2a2272e38ce5c6,United States,Northeast,13 or older,no,2021-03-22_09h23.53.707,empathy_intonation_perc,2020.2.10,Win32,60,,,,,,,,,,1,,,,,,,,,,,,,,,,,,,,,,,,,,,,,,,,,,,,,,,,41,rebuscar,,,1,1,1.11847,0,29,29,40,1,REAL,FAKE,,,,,,,,,,,,,,,,,,,,,
,,,,,,,603414a536144802cda025f5,6057c54e64b0b4e5c128b4f9,60589a28ec2a2272e38ce5c6,United States,Northeast,13 or older,no,2021-03-22_09h23.53.707,empathy_intonation_perc,2020.2.10,Win32,60,,,,,,,,,,1,,,,,,,,,,,,,,,,,,,,,,,,,,,,,,,,,,,,,,,,24,ltigo,,,0,0,1.054825,0,30,30,23,1,REAL,FAKE,,,,,,,,,,,,,,,,,,,,,
,,,,,,,603414a536144802cda025f5,6057c54e64b0b4e5c128b4f9,60589a28ec2a2272e38ce5c6,United States,Northeast,13 or older,no,2021-03-22_09h23.53.707,empathy_intonation_perc,2020.2.10,Win32,60,,,,,,,,,,1,,,,,,,,,,,,,,,,,,,,,,,,,,,,,,,,,,,,,,,,44,cuchara,,,1,1,1.118275,0,31,31,43,1,REAL,FAKE,,,,,,,,,,,,,,,,,,,,,
,,,,,,,603414a536144802cda025f5,6057c54e64b0b4e5c128b4f9,60589a28ec2a2272e38ce5c6,United States,Northeast,13 or older,no,2021-03-22_09h23.53.707,empathy_intonation_perc,2020.2.10,Win32,60,,,,,,,,,,1,,,,,,,,,,,,,,,,,,,,,,,,,,,,,,,,,,,,,,,,46,martillo,,,1,1,1.11499,0,32,32,45,1,REAL,FAKE,,,,,,,,,,,,,,,,,,,,,
,,,,,,,603414a536144802cda025f5,6057c54e64b0b4e5c128b4f9,60589a28ec2a2272e38ce5c6,United States,Northeast,13 or older,no,2021-03-22_09h23.53.707,empathy_intonation_perc,2020.2.10,Win32,60,,,,,,,,,,1,,,,,,,,,,,,,,,,,,,,,,,,,,,,,,,,,,,,,,,,73,hervidor,,,0,0,0.84895,0,33,33,72,1,REAL,FAKE,,,,,,,,,,,,,,,,,,,,,
,,,,,,,603414a536144802cda025f5,6057c54e64b0b4e5c128b4f9,60589a28ec2a2272e38ce5c6,United States,Northeast,13 or older,no,2021-03-22_09h23.53.707,empathy_intonation_perc,2020.2.10,Win32,60,,,,,,,,,,0,,,,,,,,,,,,,,,,,,,,,,,,,,,,,,,,,,,,,,,,30,alardio,,,0,1,0.966315,0,34,34,29,1,REAL,FAKE,,,,,,,,,,,,,,,,,,,,,
,,,,,,,603414a536144802cda025f5,6057c54e64b0b4e5c128b4f9,60589a28ec2a2272e38ce5c6,United States,Northeast,13 or older,no,2021-03-22_09h23.53.707,empathy_intonation_perc,2020.2.10,Win32,60,,,,,,,,,,1,,,,,,,,,,,,,,,,,,,,,,,,,,,,,,,,,,,,,,,,3,pulmones,,,0,0,1.027215,0,35,35,2,1,REAL,FAKE,,,,,,,,,,,,,,,,,,,,,
,,,,,,,603414a536144802cda025f5,6057c54e64b0b4e5c128b4f9,60589a28ec2a2272e38ce5c6,United States,Northeast,13 or older,no,2021-03-22_09h23.53.707,empathy_intonation_perc,2020.2.10,Win32,60,,,,,,,,,,1,,,,,,,,,,,,,,,,,,,,,,,,,,,,,,,,,,,,,,,,36,loro,,,0,0,0.953235,0,36,36,35,1,REAL,FAKE,,,,,,,,,,,,,,,,,,,,,
,,,,,,,603414a536144802cda025f5,6057c54e64b0b4e5c128b4f9,60589a28ec2a2272e38ce5c6,United States,Northeast,13 or older,no,2021-03-22_09h23.53.707,empathy_intonation_perc,2020.2.10,Win32,60,,,,,,,,,,1,,,,,,,,,,,,,,,,,,,,,,,,,,,,,,,,,,,,,,,,28,merodear,,,0,0,0.884365,0,37,37,27,1,REAL,FAKE,,,,,,,,,,,,,,,,,,,,,
,,,,,,,603414a536144802cda025f5,6057c54e64b0b4e5c128b4f9,60589a28ec2a2272e38ce5c6,United States,Northeast,13 or older,no,2021-03-22_09h23.53.707,empathy_intonation_perc,2020.2.10,Win32,60,,,,,,,,,,1,,,,,,,,,,,,,,,,,,,,,,,,,,,,,,,,,,,,,,,,69,engatusar,,,0,0,0.81462,0,38,38,68,1,REAL,FAKE,,,,,,,,,,,,,,,,,,,,,
,,,,,,,603414a536144802cda025f5,6057c54e64b0b4e5c128b4f9,60589a28ec2a2272e38ce5c6,United States,Northeast,13 or older,no,2021-03-22_09h23.53.707,empathy_intonation_perc,2020.2.10,Win32,60,,,,,,,,,,1,,,,,,,,,,,,,,,,,,,,,,,,,,,,,,,,,,,,,,,,55,nevar,,,0,0,1.599645,0,39,39,54,1,REAL,FAKE,,,,,,,,,,,,,,,,,,,,,
,,,,,,,603414a536144802cda025f5,6057c54e64b0b4e5c128b4f9,60589a28ec2a2272e38ce5c6,United States,Northeast,13 or older,no,2021-03-22_09h23.53.707,empathy_intonation_perc,2020.2.10,Win32,60,,,,,,,,,,1,,,,,,,,,,,,,,,,,,,,,,,,,,,,,,,,,,,,,,,,25,bisagra,,,0,0,0.92733,0,40,40,24,1,REAL,FAKE,,,,,,,,,,,,,,,,,,,,,
,,,,,,,603414a536144802cda025f5,6057c54e64b0b4e5c128b4f9,60589a28ec2a2272e38ce5c6,United States,Northeast,13 or older,no,2021-03-22_09h23.53.707,empathy_intonation_perc,2020.2.10,Win32,60,,,,,,,,,,1,,,,,,,,,,,,,,,,,,,,,,,,,,,,,,,,,,,,,,,,40,alfombra,,,0,0,0.738825,0,41,41,39,1,REAL,FAKE,,,,,,,,,,,,,,,,,,,,,
,,,,,,,603414a536144802cda025f5,6057c54e64b0b4e5c128b4f9,60589a28ec2a2272e38ce5c6,United States,Northeast,13 or older,no,2021-03-22_09h23.53.707,empathy_intonation_perc,2020.2.10,Win32,60,,,,,,,,,,1,,,,,,,,,,,,,,,,,,,,,,,,,,,,,,,,,,,,,,,,68,alegre,,,1,1,0.807565,0,42,42,67,1,REAL,FAKE,,,,,,,,,,,,,,,,,,,,,
,,,,,,,603414a536144802cda025f5,6057c54e64b0b4e5c128b4f9,60589a28ec2a2272e38ce5c6,United States,Northeast,13 or older,no,2021-03-22_09h23.53.707,empathy_intonation_perc,2020.2.10,Win32,60,,,,,,,,,,1,,,,,,,,,,,,,,,,,,,,,,,,,,,,,,,,,,,,,,,,15,regar,,,0,0,0.633885,0,43,43,14,1,REAL,FAKE,,,,,,,,,,,,,,,,,,,,,
,,,,,,,603414a536144802cda025f5,6057c54e64b0b4e5c128b4f9,60589a28ec2a2272e38ce5c6,United States,Northeast,13 or older,no,2021-03-22_09h23.53.707,empathy_intonation_perc,2020.2.10,Win32,60,,,,,,,,,,0,,,,,,,,,,,,,,,,,,,,,,,,,,,,,,,,,,,,,,,,8,cadea,,,1,0,1.857965,0,44,44,7,1,REAL,FAKE,,,,,,,,,,,,,,,,,,,,,
,,,,,,,603414a536144802cda025f5,6057c54e64b0b4e5c128b4f9,60589a28ec2a2272e38ce5c6,United States,Northeast,13 or older,no,2021-03-22_09h23.53.707,empathy_intonation_perc,2020.2.10,Win32,60,,,,,,,,,,0,,,,,,,,,,,,,,,,,,,,,,,,,,,,,,,,,,,,,,,,74,cintro,,,0,1,1.487585,0,45,45,73,1,REAL,FAKE,,,,,,,,,,,,,,,,,,,,,
,,,,,,,603414a536144802cda025f5,6057c54e64b0b4e5c128b4f9,60589a28ec2a2272e38ce5c6,United States,Northeast,13 or older,no,2021-03-22_09h23.53.707,empathy_intonation_perc,2020.2.10,Win32,60,,,,,,,,,,1,,,,,,,,,,,,,,,,,,,,,,,,,,,,,,,,,,,,,,,,6,tergiversar,,,0,0,0.70789,0,46,46,5,1,REAL,FAKE,,,,,,,,,,,,,,,,,,,,,
,,,,,,,603414a536144802cda025f5,6057c54e64b0b4e5c128b4f9,60589a28ec2a2272e38ce5c6,United States,Northeast,13 or older,no,2021-03-22_09h23.53.707,empathy_intonation_perc,2020.2.10,Win32,60,,,,,,,,,,1,,,,,,,,,,,,,,,,,,,,,,,,,,,,,,,,,,,,,,,,7,psimo,,,1,1,1.193775,0,47,47,6,1,REAL,FAKE,,,,,,,,,,,,,,,,,,,,,
,,,,,,,603414a536144802cda025f5,6057c54e64b0b4e5c128b4f9,60589a28ec2a2272e38ce5c6,United States,Northeast,13 or older,no,2021-03-22_09h23.53.707,empathy_intonation_perc,2020.2.10,Win32,60,,,,,,,,,,1,,,,,,,,,,,,,,,,,,,,,,,,,,,,,,,,,,,,,,,,85,lad,,,0,0,0.6755,0,48,48,84,1,REAL,FAKE,,,,,,,,,,,,,,,,,,,,,
,,,,,,,603414a536144802cda025f5,6057c54e64b0b4e5c128b4f9,60589a28ec2a2272e38ce5c6,United States,Northeast,13 or older,no,2021-03-22_09h23.53.707,empathy_intonation_perc,2020.2.10,Win32,60,,,,,,,,,,1,,,,,,,,,,,,,,,,,,,,,,,,,,,,,,,,,,,,,,,,49,ganar,,,0,0,1.11824,0,49,49,48,1,REAL,FAKE,,,,,,,,,,,,,,,,,,,,,
,,,,,,,603414a536144802cda025f5,6057c54e64b0b4e5c128b4f9,60589a28ec2a2272e38ce5c6,United States,Northeast,13 or older,no,2021-03-22_09h23.53.707,empathy_intonation_perc,2020.2.10,Win32,60,,,,,,,,,,0,,,,,,,,,,,,,,,,,,,,,,,,,,,,,,,,,,,,,,,,79,tropaje,,,0,1,3.45969,0,50,50,78,1,REAL,FAKE,,,,,,,,,,,,,,,,,,,,,
,,,,,,,603414a536144802cda025f5,6057c54e64b0b4e5c128b4f9,60589a28ec2a2272e38ce5c6,United States,Northeast,13 or older,no,2021-03-22_09h23.53.707,empathy_intonation_perc,2020.2.10,Win32,60,,,,,,,,,,1,,,,,,,,,,,,,,,,,,,,,,,,,,,,,,,,,,,,,,,,5,zapato,,,1,1,1.681945,0,51,51,4,1,REAL,FAKE,,,,,,,,,,,,,,,,,,,,,
,,,,,,,603414a536144802cda025f5,6057c54e64b0b4e5c128b4f9,60589a28ec2a2272e38ce5c6,United States,Northeast,13 or older,no,2021-03-22_09h23.53.707,empathy_intonation_perc,2020.2.10,Win32,60,,,,,,,,,,1,,,,,,,,,,,,,,,,,,,,,,,,,,,,,,,,,,,,,,,,76,atar,,,1,1,0.808935,0,52,52,75,1,REAL,FAKE,,,,,,,,,,,,,,,,,,,,,
,,,,,,,603414a536144802cda025f5,6057c54e64b0b4e5c128b4f9,60589a28ec2a2272e38ce5c6,United States,Northeast,13 or older,no,2021-03-22_09h23.53.707,empathy_intonation_perc,2020.2.10,Win32,60,,,,,,,,,,1,,,,,,,,,,,,,,,,,,,,,,,,,,,,,,,,,,,,,,,,75,yacer,,,0,0,0.627275,0,53,53,74,1,REAL,FAKE,,,,,,,,,,,,,,,,,,,,,
,,,,,,,603414a536144802cda025f5,6057c54e64b0b4e5c128b4f9,60589a28ec2a2272e38ce5c6,United States,Northeast,13 or older,no,2021-03-22_09h23.53.707,empathy_intonation_perc,2020.2.10,Win32,60,,,,,,,,,,1,,,,,,,,,,,,,,,,,,,,,,,,,,,,,,,,,,,,,,,,34,aviso,,,0,0,0.88399,0,54,54,33,1,REAL,FAKE,,,,,,,,,,,,,,,,,,,,,
,,,,,,,603414a536144802cda025f5,6057c54e64b0b4e5c128b4f9,60589a28ec2a2272e38ce5c6,United States,Northeast,13 or older,no,2021-03-22_09h23.53.707,empathy_intonation_perc,2020.2.10,Win32,60,,,,,,,,,,0,,,,,,,,,,,,,,,,,,,,,,,,,,,,,,,,,,,,,,,,42,cadallo,,,1,0,1.77929,0,55,55,41,1,REAL,FAKE,,,,,,,,,,,,,,,,,,,,,
,,,,,,,603414a536144802cda025f5,6057c54e64b0b4e5c128b4f9,60589a28ec2a2272e38ce5c6,United States,Northeast,13 or older,no,2021-03-22_09h23.53.707,empathy_intonation_perc,2020.2.10,Win32,60,,,,,,,,,,0,,,,,,,,,,,,,,,,,,,,,,,,,,,,,,,,,,,,,,,,72,pemicin,,,0,1,1.95064,0,56,56,71,1,REAL,FAKE,,,,,,,,,,,,,,,,,,,,,
,,,,,,,603414a536144802cda025f5,6057c54e64b0b4e5c128b4f9,60589a28ec2a2272e38ce5c6,United States,Northeast,13 or older,no,2021-03-22_09h23.53.707,empathy_intonation_perc,2020.2.10,Win32,60,,,,,,,,,,1,,,,,,,,,,,,,,,,,,,,,,,,,,,,,,,,,,,,,,,,22,lacayo,,,0,0,0.734815,0,57,57,21,1,REAL,FAKE,,,,,,,,,,,,,,,,,,,,,
,,,,,,,603414a536144802cda025f5,6057c54e64b0b4e5c128b4f9,60589a28ec2a2272e38ce5c6,United States,Northeast,13 or older,no,2021-03-22_09h23.53.707,empathy_intonation_perc,2020.2.10,Win32,60,,,,,,,,,,0,,,,,,,,,,,,,,,,,,,,,,,,,,,,,,,,,,,,,,,,21,capillo,,,1,0,0.90058,0,58,58,20,1,REAL,FAKE,,,,,,,,,,,,,,,,,,,,,
,,,,,,,603414a536144802cda025f5,6057c54e64b0b4e5c128b4f9,60589a28ec2a2272e38ce5c6,United States,Northeast,13 or older,no,2021-03-22_09h23.53.707,empathy_intonation_perc,2020.2.10,Win32,60,,,,,,,,,,1,,,,,,,,,,,,,,,,,,,,,,,,,,,,,,,,,,,,,,,,59,besar,,,0,0,0.63693,0,59,59,58,1,REAL,FAKE,,,,,,,,,,,,,,,,,,,,,
,,,,,,,603414a536144802cda025f5,6057c54e64b0b4e5c128b4f9,60589a28ec2a2272e38ce5c6,United States,Northeast,13 or older,no,2021-03-22_09h23.53.707,empathy_intonation_perc,2020.2.10,Win32,60,,,,,,,,,,0,,,,,,,,,,,,,,,,,,,,,,,,,,,,,,,,,,,,,,,,47,cartinar,,,0,1,0.90144,0,60,60,46,1,REAL,FAKE,,,,,,,,,,,,,,,,,,,,,
,,,,,,,603414a536144802cda025f5,6057c54e64b0b4e5c128b4f9,60589a28ec2a2272e38ce5c6,United States,Northeast,13 or older,no,2021-03-22_09h23.53.707,empathy_intonation_perc,2020.2.10,Win32,60,,,,,,,,,,0,,,,,,,,,,,,,,,,,,,,,,,,,,,,,,,,,,,,,,,,19,brecedad,,,0,1,6.405495,0,61,61,18,1,REAL,FAKE,,,,,,,,,,,,,,,,,,,,,
,,,,,,,603414a536144802cda025f5,6057c54e64b0b4e5c128b4f9,60589a28ec2a2272e38ce5c6,United States,Northeast,13 or older,no,2021-03-22_09h23.53.707,empathy_intonation_perc,2020.2.10,Win32,60,,,,,,,,,,1,,,,,,,,,,,,,,,,,,,,,,,,,,,,,,,,,,,,,,,,13,helar,,,0,0,0.95906,0,62,62,12,1,REAL,FAKE,,,,,,,,,,,,,,,,,,,,,
,,,,,,,603414a536144802cda025f5,6057c54e64b0b4e5c128b4f9,60589a28ec2a2272e38ce5c6,United States,Northeast,13 or older,no,2021-03-22_09h23.53.707,empathy_intonation_perc,2020.2.10,Win32,60,,,,,,,,,,1,,,,,,,,,,,,,,,,,,,,,,,,,,,,,,,,,,,,,,,,67,cabello,,,1,1,1.107895,0,63,63,66,1,REAL,FAKE,,,,,,,,,,,,,,,,,,,,,
,,,,,,,603414a536144802cda025f5,6057c54e64b0b4e5c128b4f9,60589a28ec2a2272e38ce5c6,United States,Northeast,13 or older,no,2021-03-22_09h23.53.707,empathy_intonation_perc,2020.2.10,Win32,60,,,,,,,,,,1,,,,,,,,,,,,,,,,,,,,,,,,,,,,,,,,,,,,,,,,45,jilguero,,,0,0,0.743705,0,64,64,44,1,REAL,FAKE,,,,,,,,,,,,,,,,,,,,,
,,,,,,,603414a536144802cda025f5,6057c54e64b0b4e5c128b4f9,60589a28ec2a2272e38ce5c6,United States,Northeast,13 or older,no,2021-03-22_09h23.53.707,empathy_intonation_perc,2020.2.10,Win32,60,,,,,,,,,,0,,,,,,,,,,,,,,,,,,,,,,,,,,,,,,,,,,,,,,,,17,floroso,,,0,1,1.31674,0,65,65,16,1,REAL,FAKE,,,,,,,,,,,,,,,,,,,,,
,,,,,,,603414a536144802cda025f5,6057c54e64b0b4e5c128b4f9,60589a28ec2a2272e38ce5c6,United States,Northeast,13 or older,no,2021-03-22_09h23.53.707,empathy_intonation_perc,2020.2.10,Win32,60,,,,,,,,,,0,,,,,,,,,,,,,,,,,,,,,,,,,,,,,,,,,,,,,,,,50,flamida,,,0,1,0.85905,0,66,66,49,1,REAL,FAKE,,,,,,,,,,,,,,,,,,,,,
,,,,,,,603414a536144802cda025f5,6057c54e64b0b4e5c128b4f9,60589a28ec2a2272e38ce5c6,United States,Northeast,13 or older,no,2021-03-22_09h23.53.707,empathy_intonation_perc,2020.2.10,Win32,60,,,,,,,,,,1,,,,,,,,,,,,,,,,,,,,,,,,,,,,,,,,,,,,,,,,71,polvoriento,,,0,0,0.936485,0,67,67,70,1,REAL,FAKE,,,,,,,,,,,,,,,,,,,,,
,,,,,,,603414a536144802cda025f5,6057c54e64b0b4e5c128b4f9,60589a28ec2a2272e38ce5c6,United States,Northeast,13 or older,no,2021-03-22_09h23.53.707,empathy_intonation_perc,2020.2.10,Win32,60,,,,,,,,,,1,,,,,,,,,,,,,,,,,,,,,,,,,,,,,,,,,,,,,,,,39,torpe,,,0,0,0.740905,0,68,68,38,1,REAL,FAKE,,,,,,,,,,,,,,,,,,,,,
,,,,,,,603414a536144802cda025f5,6057c54e64b0b4e5c128b4f9,60589a28ec2a2272e38ce5c6,United States,Northeast,13 or older,no,2021-03-22_09h23.53.707,empathy_intonation_perc,2020.2.10,Win32,60,,,,,,,,,,0,,,,,,,,,,,,,,,,,,,,,,,,,,,,,,,,,,,,,,,,10,antar,,,0,1,0.97673,0,69,69,9,1,REAL,FAKE,,,,,,,,,,,,,,,,,,,,,
,,,,,,,603414a536144802cda025f5,6057c54e64b0b4e5c128b4f9,60589a28ec2a2272e38ce5c6,United States,Northeast,13 or older,no,2021-03-22_09h23.53.707,empathy_intonation_perc,2020.2.10,Win32,60,,,,,,,,,,1,,,,,,,,,,,,,,,,,,,,,,,,,,,,,,,,,,,,,,,,56,musgo,,,0,0,0.58313,0,70,70,55,1,REAL,FAKE,,,,,,,,,,,,,,,,,,,,,
,,,,,,,603414a536144802cda025f5,6057c54e64b0b4e5c128b4f9,60589a28ec2a2272e38ce5c6,United States,Northeast,13 or older,no,2021-03-22_09h23.53.707,empathy_intonation_perc,2020.2.10,Win32,60,,,,,,,,,,1,,,,,,,,,,,,,,,,,,,,,,,,,,,,,,,,,,,,,,,,11,cenefa,,,0,0,0.709535,0,71,71,10,1,REAL,FAKE,,,,,,,,,,,,,,,,,,,,,
,,,,,,,603414a536144802cda025f5,6057c54e64b0b4e5c128b4f9,60589a28ec2a2272e38ce5c6,United States,Northeast,13 or older,no,2021-03-22_09h23.53.707,empathy_intonation_perc,2020.2.10,Win32,60,,,,,,,,,,1,,,,,,,,,,,,,,,,,,,,,,,,,,,,,,,,,,,,,,,,64,orgulloso,,,0,0,0.752875,0,72,72,63,1,REAL,FAKE,,,,,,,,,,,,,,,,,,,,,
,,,,,,,603414a536144802cda025f5,6057c54e64b0b4e5c128b4f9,60589a28ec2a2272e38ce5c6,United States,Northeast,13 or older,no,2021-03-22_09h23.53.707,empathy_intonation_perc,2020.2.10,Win32,60,,,,,,,,,,1,,,,,,,,,,,,,,,,,,,,,,,,,,,,,,,,,,,,,,,,20,vido,,,1,1,0.68681,0,73,73,19,1,REAL,FAKE,,,,,,,,,,,,,,,,,,,,,
,,,,,,,603414a536144802cda025f5,6057c54e64b0b4e5c128b4f9,60589a28ec2a2272e38ce5c6,United States,Northeast,13 or older,no,2021-03-22_09h23.53.707,empathy_intonation_perc,2020.2.10,Win32,60,,,,,,,,,,0,,,,,,,,,,,,,,,,,,,,,,,,,,,,,,,,,,,,,,,,84,escuto,,,1,0,1.252725,0,74,74,83,1,REAL,FAKE,,,,,,,,,,,,,,,,,,,,,
,,,,,,,603414a536144802cda025f5,6057c54e64b0b4e5c128b4f9,60589a28ec2a2272e38ce5c6,United States,Northeast,13 or older,no,2021-03-22_09h23.53.707,empathy_intonation_perc,2020.2.10,Win32,60,,,,,,,,,,0,,,,,,,,,,,,,,,,,,,,,,,,,,,,,,,,,,,,,,,,70,temblo,,,0,1,0.716915,0,75,75,69,1,REAL,FAKE,,,,,,,,,,,,,,,,,,,,,
,,,,,,,603414a536144802cda025f5,6057c54e64b0b4e5c128b4f9,60589a28ec2a2272e38ce5c6,United States,Northeast,13 or older,no,2021-03-22_09h23.53.707,empathy_intonation_perc,2020.2.10,Win32,60,,,,,,,,,,1,,,,,,,,,,,,,,,,,,,,,,,,,,,,,,,,,,,,,,,,37,granuja,,,0,0,0.843485,0,76,76,36,1,REAL,FAKE,,,,,,,,,,,,,,,,,,,,,
,,,,,,,603414a536144802cda025f5,6057c54e64b0b4e5c128b4f9,60589a28ec2a2272e38ce5c6,United States,Northeast,13 or older,no,2021-03-22_09h23.53.707,empathy_intonation_perc,2020.2.10,Win32,60,,,,,,,,,,1,,,,,,,,,,,,,,,,,,,,,,,,,,,,,,,,,,,,,,,,43,canela,,,0,0,0.769515,0,77,77,42,1,REAL,FAKE,,,,,,,,,,,,,,,,,,,,,
,,,,,,,603414a536144802cda025f5,6057c54e64b0b4e5c128b4f9,60589a28ec2a2272e38ce5c6,United States,Northeast,13 or older,no,2021-03-22_09h23.53.707,empathy_intonation_perc,2020.2.10,Win32,60,,,,,,,,,,0,,,,,,,,,,,,,,,,,,,,,,,,,,,,,,,,,,,,,,,,63,esposante,,,1,0,1.404365,0,78,78,62,1,REAL,FAKE,,,,,,,,,,,,,,,,,,,,,
,,,,,,,603414a536144802cda025f5,6057c54e64b0b4e5c128b4f9,60589a28ec2a2272e38ce5c6,United States,Northeast,13 or older,no,2021-03-22_09h23.53.707,empathy_intonation_perc,2020.2.10,Win32,60,,,,,,,,,,1,,,,,,,,,,,,,,,,,,,,,,,,,,,,,,,,,,,,,,,,90,clavel,,,0,0,0.67168,0,79,79,89,1,REAL,FAKE,,,,,,,,,,,,,,,,,,,,,
,,,,,,,603414a536144802cda025f5,6057c54e64b0b4e5c128b4f9,60589a28ec2a2272e38ce5c6,United States,Northeast,13 or older,no,2021-03-22_09h23.53.707,empathy_intonation_perc,2020.2.10,Win32,60,,,,,,,,,,1,,,,,,,,,,,,,,,,,,,,,,,,,,,,,,,,,,,,,,,,61,seda,,,0,0,0.741585,0,80,80,60,1,REAL,FAKE,,,,,,,,,,,,,,,,,,,,,
,,,,,,,603414a536144802cda025f5,6057c54e64b0b4e5c128b4f9,60589a28ec2a2272e38ce5c6,United States,Northeast,13 or older,no,2021-03-22_09h23.53.707,empathy_intonation_perc,2020.2.10,Win32,60,,,,,,,,,,1,,,,,,,,,,,,,,,,,,,,,,,,,,,,,,,,,,,,,,,,65,bizcocho,,,0,0,1.485455,0,81,81,64,1,REAL,FAKE,,,,,,,,,,,,,,,,,,,,,
,,,,,,,603414a536144802cda025f5,6057c54e64b0b4e5c128b4f9,60589a28ec2a2272e38ce5c6,United States,Northeast,13 or older,no,2021-03-22_09h23.53.707,empathy_intonation_perc,2020.2.10,Win32,60,,,,,,,,,,1,,,,,,,,,,,,,,,,,,,,,,,,,,,,,,,,,,,,,,,,78,frondoso,,,0,0,0.802945,0,82,82,77,1,REAL,FAKE,,,,,,,,,,,,,,,,,,,,,
,,,,,,,603414a536144802cda025f5,6057c54e64b0b4e5c128b4f9,60589a28ec2a2272e38ce5c6,United States,Northeast,13 or older,no,2021-03-22_09h23.53.707,empathy_intonation_perc,2020.2.10,Win32,60,,,,,,,,,,1,,,,,,,,,,,,,,,,,,,,,,,,,,,,,,,,,,,,,,,,60,matar,,,0,0,0.718265,0,83,83,59,1,REAL,FAKE,,,,,,,,,,,,,,,,,,,,,
,,,,,,,603414a536144802cda025f5,6057c54e64b0b4e5c128b4f9,60589a28ec2a2272e38ce5c6,United States,Northeast,13 or older,no,2021-03-22_09h23.53.707,empathy_intonation_perc,2020.2.10,Win32,60,,,,,,,,,,1,,,,,,,,,,,,,,,,,,,,,,,,,,,,,,,,,,,,,,,,26,secuestro,,,1,1,1.46867,0,84,84,25,1,REAL,FAKE,,,,,,,,,,,,,,,,,,,,,
,,,,,,,603414a536144802cda025f5,6057c54e64b0b4e5c128b4f9,60589a28ec2a2272e38ce5c6,United States,Northeast,13 or older,no,2021-03-22_09h23.53.707,empathy_intonation_perc,2020.2.10,Win32,60,,,,,,,,,,0,,,,,,,,,,,,,,,,,,,,,,,,,,,,,,,,,,,,,,,,53,vegada,,,0,1,1.10647,0,85,85,52,1,REAL,FAKE,,,,,,,,,,,,,,,,,,,,,
,,,,,,,603414a536144802cda025f5,6057c54e64b0b4e5c128b4f9,60589a28ec2a2272e38ce5c6,United States,Northeast,13 or older,no,2021-03-22_09h23.53.707,empathy_intonation_perc,2020.2.10,Win32,60,,,,,,,,,,1,,,,,,,,,,,,,,,,,,,,,,,,,,,,,,,,,,,,,,,,14,yunque,,,0,0,0.65144,0,86,86,13,1,REAL,FAKE,,,,,,,,,,,,,,,,,,,,,
,,,,,,,603414a536144802cda025f5,6057c54e64b0b4e5c128b4f9,60589a28ec2a2272e38ce5c6,United States,Northeast,13 or older,no,2021-03-22_09h23.53.707,empathy_intonation_perc,2020.2.10,Win32,60,,,,,,,,,,1,,,,,,,,,,,,,,,,,,,,,,,,,,,,,,,,,,,,,,,,52,camisa,,,0,0,2.2302,0,87,87,51,1,REAL,FAKE,,,,,,,,,,,,,,,,,,,,,
,,,,,,,603414a536144802cda025f5,6057c54e64b0b4e5c128b4f9,60589a28ec2a2272e38ce5c6,United States,Northeast,13 or older,no,2021-03-22_09h23.53.707,empathy_intonation_perc,2020.2.10,Win32,60,,,,,,,,,,0,,,,,,,,,,,,,,,,,,,,,,,,,,,,,,,,,,,,,,,,16,abracer,,,0,1,1.21273,0,88,88,15,1,REAL,FAKE,,,,,,,,,,,,,,,,,,,,,
,,,,,,,603414a536144802cda025f5,6057c54e64b0b4e5c128b4f9,60589a28ec2a2272e38ce5c6,United States,Northeast,13 or older,no,2021-03-22_09h23.53.707,empathy_intonation_perc,2020.2.10,Win32,60,,,,,,,,,,0,,,,,,,,,,,,,,,,,,,,,,,,,,,,,,,,,,,,,,,,4,batilln,,,0,1,0.934995,0,89,89,3,1,REAL,FAKE,,,,,,,,,,,,,,,,,,,,,
,,,,,,,603414a536144802cda025f5,6057c54e64b0b4e5c128b4f9,60589a28ec2a2272e38ce5c6,United States,Northeast,13 or older,no,2021-03-22_09h23.53.707,empathy_intonation_perc,2020.2.10,Win32,60,,,,,,,,,,,,,,,,,,,,,,,,,,,,,,,,,,,,,,,,,,,,,,,,,,,,,,,,,,,,,,,,4,1,2.66168,1,0,0,0,0,0,1,,,,,,,,,,,
,,,,,,,603414a536144802cda025f5,6057c54e64b0b4e5c128b4f9,60589a28ec2a2272e38ce5c6,United States,Northeast,13 or older,no,2021-03-22_09h23.53.707,empathy_intonation_perc,2020.2.10,Win32,60,,,,,,,,,,,,,,,,,,,,1,,,,,,,,,,,,,,,,,,,,,,,,,,,,,,,,,,,,,,,,,,,,,,,,,,,,,,2,0,0,0,0,1,I can easily tell if someone else wants to enter a conversation.,1,0,1,0
,,,,,,,603414a536144802cda025f5,6057c54e64b0b4e5c128b4f9,60589a28ec2a2272e38ce5c6,United States,Northeast,13 or older,no,2021-03-22_09h23.53.707,empathy_intonation_perc,2020.2.10,Win32,60,,,,,,,,,,,,,,,,,,,,2,,,,,,,,,,,,,,,,,,,,,,,,,,,,,,,,,,,,,,,,,,,,,,,,,,,,,,2,0,1,1,1,1,I prefer animals to humans.,0,1,0,0
,,,,,,,603414a536144802cda025f5,6057c54e64b0b4e5c128b4f9,60589a28ec2a2272e38ce5c6,United States,Northeast,13 or older,no,2021-03-22_09h23.53.707,empathy_intonation_perc,2020.2.10,Win32,60,,,,,,,,,,,,,,,,,,,,3,,,,,,,,,,,,,,,,,,,,,,,,,,,,,,,,,,,,,,,,,,,,,,,,,,,,,,2,0,2,2,2,1,I try to keep up with the current trends and fashions.,0,1,0,0
,,,,,,,603414a536144802cda025f5,6057c54e64b0b4e5c128b4f9,60589a28ec2a2272e38ce5c6,United States,Northeast,13 or older,no,2021-03-22_09h23.53.707,empathy_intonation_perc,2020.2.10,Win32,60,,,,,,,,,,,,,,,,,,,,4,,,,,,,,,,,,,,,,,,,,,,,,,,,,,,,,,,,,,,,,,,,,,,,,,,,,,,2,0,3,3,3,1,"I find it difficult to explain to others things that I understand easily, 
  when they dont understand it first time.",1,0,0,1
