instructions_2afc_loop.thisRepN,instructions_2afc_loop.thisTrialN,instructions_2afc_loop.thisN,instructions_2afc_loop.thisIndex,instructions_2afc_loop.ran,instructions_text,continue_text,participant,study_id,session,I am most familiar with Spanish from...*,What part of the US are you from?*,At what age did you begin learning Spanish?*,Are you proficient in any languages other than English/Spanish?*,date,expName,psychopyVersion,OS,frameRate,key_resp_2afc_practice.keys,key_resp_2afc_practice.corr,key_resp_2afc_practice.rt,trials_2afc_practice_loop.thisRepN,trials_2afc_practice_loop.thisTrialN,trials_2afc_practice_loop.thisN,trials_2afc_practice_loop.thisIndex,trials_2afc_practice_loop.ran,path,correct_response,the_col,key_resp_2afc_trial.keys,key_resp_2afc_trial.corr,key_resp_2afc_trial.rt,trials_2afc_loop.thisRepN,trials_2afc_loop.thisTrialN,trials_2afc_loop.thisN,trials_2afc_loop.thisIndex,trials_2afc_loop.ran,item_num,andalusian,argentine,castilian,chilean,cuban,mexican,peruvian,puertorican,key_resp_ac1.keys,key_resp_ac1.corr,key_resp_ac1.rt,ac1_loop.thisRepN,ac1_loop.thisTrialN,ac1_loop.thisN,ac1_loop.thisIndex,ac1_loop.ran,instructions_lextale_loop.thisRepN,instructions_lextale_loop.thisTrialN,instructions_lextale_loop.thisN,instructions_lextale_loop.thisIndex,instructions_lextale_loop.ran,key_resp_lextale_practice.keys,key_resp_lextale_practice.corr,key_resp_lextale_practice.rt,trials_lextale_practice_loop.thisRepN,trials_lextale_practice_loop.thisTrialN,trials_lextale_practice_loop.thisN,trials_lextale_practice_loop.thisIndex,trials_lextale_practice_loop.ran,stim,word,prac_button_real,prac_button_false,key_resp_lextale_trial.keys,key_resp_lextale_trial.corr,key_resp_lextale_trial.rt,trials_lextale_loop.thisRepN,trials_lextale_loop.thisTrialN,trials_lextale_loop.thisN,trials_lextale_loop.thisIndex,trials_lextale_loop.ran,button_real,button_false,key_resp_ac2.keys,key_resp_ac2.corr,key_resp_ac2.rt,check_pass,check_fails,ac2_loop.thisRepN,ac2_loop.thisTrialN,ac2_loop.thisN,ac2_loop.thisIndex,ac2_loop.ran,slider_eq_trial.response,trials_eq_loop.thisRepN,trials_eq_loop.thisTrialN,trials_eq_loop.thisN,trials_eq_loop.thisIndex,trials_eq_loop.ran,item,is_test_item,is_distractor,is_agree_score,is_disagree_score
0,0,0,0,1,"In the following task you are going to hear a series of utterances. 

  You will decide if the utterances sound like questions or not using your keyboard.",(press the spacebar to continue),6037034f07abbf728431e247,605b45a4d25f287719a41696,605ff0e5c03ea5a598d0817b,I am not familiar with Spanish,Midwest,NA,no,2021-03-27_22h59.22.427,empathy_intonation_perc,2020.2.10,MacIntel,60,,,,,,,,,,,,,,,,,,,,,,,,,,,,,,,,,,,,,,,,,,,,,,,,,,,,,,,,,,,,,,,,,,,,,,,,,,,,,,,,,,,,
0,1,1,1,1,"If you believe the utterance is a question, type '1' (for 'yes') and if you do not 
  believe it is a question type '0' (for 'no').

  Let's practice a bit...",(press the spacebar to continue),6037034f07abbf728431e247,605b45a4d25f287719a41696,605ff0e5c03ea5a598d0817b,I am not familiar with Spanish,Midwest,NA,no,2021-03-27_22h59.22.427,empathy_intonation_perc,2020.2.10,MacIntel,60,,,,,,,,,,,,,,,,,,,,,,,,,,,,,,,,,,,,,,,,,,,,,,,,,,,,,,,,,,,,,,,,,,,,,,,,,,,,,,,,,,,,
,,,,,,,6037034f07abbf728431e247,605b45a4d25f287719a41696,605ff0e5c03ea5a598d0817b,I am not familiar with Spanish,Midwest,NA,no,2021-03-27_22h59.22.427,empathy_intonation_perc,2020.2.10,MacIntel,60,0,1,2.60302,0,0,0,6,1,./stim/wavs/peruvian_statement_filler_El-nino-habla-con-su-madre.wav,0,,,,,,,,,,,,,,,,,,,,,,,,,,,,,,,,,,,,,,,,,,,,,,,,,,,,,,,,,,,,,,,,,,,,,,,,,,
,,,,,,,6037034f07abbf728431e247,605b45a4d25f287719a41696,605ff0e5c03ea5a598d0817b,I am not familiar with Spanish,Midwest,NA,no,2021-03-27_22h59.22.427,empathy_intonation_perc,2020.2.10,MacIntel,60,0,0,2.35148,0,1,1,0,1,./stim/wavs/castilian_question_filler_Mi-esposo-conoce-al-chico.wav,1,,,,,,,,,,,,,,,,,,,,,,,,,,,,,,,,,,,,,,,,,,,,,,,,,,,,,,,,,,,,,,,,,,,,,,,,,,
,,,,,,,6037034f07abbf728431e247,605b45a4d25f287719a41696,605ff0e5c03ea5a598d0817b,I am not familiar with Spanish,Midwest,NA,no,2021-03-27_22h59.22.427,empathy_intonation_perc,2020.2.10,MacIntel,60,0,1,1.92732,0,2,2,5,1,./stim/wavs/andalusian_statement_filler_Alberto-nunca-se-afeita.wav,0,,,,,,,,,,,,,,,,,,,,,,,,,,,,,,,,,,,,,,,,,,,,,,,,,,,,,,,,,,,,,,,,,,,,,,,,,,
,,,,,,,6037034f07abbf728431e247,605b45a4d25f287719a41696,605ff0e5c03ea5a598d0817b,I am not familiar with Spanish,Midwest,NA,no,2021-03-27_22h59.22.427,empathy_intonation_perc,2020.2.10,MacIntel,60,1,0,1.64598,0,3,3,4,1,./stim/wavs/cuban_statement_filler_Cocinabas-por-la-noche.wav,0,,,,,,,,,,,,,,,,,,,,,,,,,,,,,,,,,,,,,,,,,,,,,,,,,,,,,,,,,,,,,,,,,,,,,,,,,,
,,,,,,,6037034f07abbf728431e247,605b45a4d25f287719a41696,605ff0e5c03ea5a598d0817b,I am not familiar with Spanish,Midwest,NA,no,2021-03-27_22h59.22.427,empathy_intonation_perc,2020.2.10,MacIntel,60,0,0,1.62364,0,4,4,3,1,./stim/wavs/mexican_question_filler_Felipe-no-tiene-contrasena.wav,1,,,,,,,,,,,,,,,,,,,,,,,,,,,,,,,,,,,,,,,,,,,,,,,,,,,,,,,,,,,,,,,,,,,,,,,,,,
,,,,,,,6037034f07abbf728431e247,605b45a4d25f287719a41696,605ff0e5c03ea5a598d0817b,I am not familiar with Spanish,Midwest,NA,no,2021-03-27_22h59.22.427,empathy_intonation_perc,2020.2.10,MacIntel,60,0,0,2.35207,0,5,5,1,1,./stim/wavs/argentine_question_filler_Mi-vecino-habla-mucho.wav,1,,,,,,,,,,,,,,,,,,,,,,,,,,,,,,,,,,,,,,,,,,,,,,,,,,,,,,,,,,,,,,,,,,,,,,,,,,
,,,,,,,6037034f07abbf728431e247,605b45a4d25f287719a41696,605ff0e5c03ea5a598d0817b,I am not familiar with Spanish,Midwest,NA,no,2021-03-27_22h59.22.427,empathy_intonation_perc,2020.2.10,MacIntel,60,0,0,1.46068,0,6,6,2,1,./stim/wavs/chilean_question_filler_Mi-padre-cantaba-bien.wav,1,,,,,,,,,,,,,,,,,,,,,,,,,,,,,,,,,,,,,,,,,,,,,,,,,,,,,,,,,,,,,,,,,,,,,,,,,,
,,,,,,,6037034f07abbf728431e247,605b45a4d25f287719a41696,605ff0e5c03ea5a598d0817b,I am not familiar with Spanish,Midwest,NA,no,2021-03-27_22h59.22.427,empathy_intonation_perc,2020.2.10,MacIntel,60,1,0,1.474775,0,7,7,7,1,./stim/wavs/puertorican_statement_filler_La-nina-pinta-con-su-amiga.wav,0,,,,,,,,,,,,,,,,,,,,,,,,,,,,,,,,,,,,,,,,,,,,,,,,,,,,,,,,,,,,,,,,,,,,,,,,,,
,,,,,,,6037034f07abbf728431e247,605b45a4d25f287719a41696,605ff0e5c03ea5a598d0817b,I am not familiar with Spanish,Midwest,NA,no,2021-03-27_22h59.22.427,empathy_intonation_perc,2020.2.10,MacIntel,60,,,,,,,,,,1,andalusian,1,1,1.813635,0,0,0,26,1,27,./stim/wavs/andalusian_match_interrogative-total-yn_David-leia-el-libro.wav,./stim/wavs/argentine_match_interrogative-total-yn_David-leia-el-libro.wav,./stim/wavs/castilian_match_interrogative-total-yn_David-leia-el-libro.wav,./stim/wavs/chilean_match_interrogative-total-yn_David-leia-el-libro.wav,./stim/wavs/cuban_match_interrogative-total-yn_David-leia-el-libro.wav,./stim/wavs/mexican_match_interrogative-total-yn_David-leia-el-libro.wav,./stim/wavs/peruvian_match_interrogative-total-yn_David-leia-el-libro.wav,./stim/wavs/puertorican_match_interrogative-total-yn_David-leia-el-libro.wav,,,,,,,,,,,,,,,,,,,,,,,,,,,,,,,,,,,,,,,,,,,,,,,,,,,,,,,,
,,,,,,,6037034f07abbf728431e247,605b45a4d25f287719a41696,605ff0e5c03ea5a598d0817b,I am not familiar with Spanish,Midwest,NA,no,2021-03-27_22h59.22.427,empathy_intonation_perc,2020.2.10,MacIntel,60,,,,,,,,,,0,peruvian,0,1,1.82044,0,1,1,36,1,37,./stim/wavs/andalusian_mismatch_declarative-broad-focus_La-nina-lava-el-plato.wav,./stim/wavs/argentine_mismatch_declarative-broad-focus_La-nina-lava-el-plato.wav,./stim/wavs/castilian_mismatch_declarative-broad-focus_La-nina-lava-el-plato.wav,./stim/wavs/chilean_mismatch_declarative-broad-focus_La-nina-lava-el-plato.wav,./stim/wavs/cuban_mismatch_declarative-broad-focus_La-nina-lava-el-plato.wav,./stim/wavs/mexican_mismatch_declarative-broad-focus_La-nina-lava-el-plato.wav,./stim/wavs/peruvian_mismatch_declarative-broad-focus_La-nina-lava-el-plato.wav,./stim/wavs/puertorican_mismatch_declarative-broad-focus_La-nina-lava-el-plato.wav,,,,,,,,,,,,,,,,,,,,,,,,,,,,,,,,,,,,,,,,,,,,,,,,,,,,,,,,
,,,,,,,6037034f07abbf728431e247,605b45a4d25f287719a41696,605ff0e5c03ea5a598d0817b,I am not familiar with Spanish,Midwest,NA,no,2021-03-27_22h59.22.427,empathy_intonation_perc,2020.2.10,MacIntel,60,,,,,,,,,,0,puertorican,1,0,1.84436,0,2,2,7,1,8,./stim/wavs/andalusian_match_declarative-broad-focus_Marta-abre-el-regalo.wav,./stim/wavs/argentine_match_declarative-broad-focus_Marta-abre-el-regalo.wav,./stim/wavs/castilian_match_declarative-broad-focus_Marta-abre-el-regalo.wav,./stim/wavs/chilean_match_declarative-broad-focus_Marta-abre-el-regalo.wav,./stim/wavs/cuban_match_declarative-broad-focus_Marta-abre-el-regalo.wav,./stim/wavs/mexican_match_declarative-broad-focus_Marta-abre-el-regalo.wav,./stim/wavs/peruvian_match_declarative-broad-focus_Marta-abre-el-regalo.wav,./stim/wavs/puertorican_match_declarative-broad-focus_Marta-abre-el-regalo.wav,,,,,,,,,,,,,,,,,,,,,,,,,,,,,,,,,,,,,,,,,,,,,,,,,,,,,,,,
,,,,,,,6037034f07abbf728431e247,605b45a4d25f287719a41696,605ff0e5c03ea5a598d0817b,I am not familiar with Spanish,Midwest,NA,no,2021-03-27_22h59.22.427,empathy_intonation_perc,2020.2.10,MacIntel,60,,,,,,,,,,1,peruvian,1,1,0.908135,0,3,3,50,1,51,./stim/wavs/andalusian_mismatch_interrogative-partial-wh_Cuando-miraba-la-luna.wav,./stim/wavs/argentine_mismatch_interrogative-partial-wh_Cuando-miraba-la-luna.wav,./stim/wavs/castilian_mismatch_interrogative-partial-wh_Cuando-miraba-la-luna.wav,./stim/wavs/chilean_mismatch_interrogative-partial-wh_Cuando-miraba-la-luna.wav,./stim/wavs/cuban_mismatch_interrogative-partial-wh_Cuando-miraba-la-luna.wav,./stim/wavs/mexican_mismatch_interrogative-partial-wh_Cuando-miraba-la-luna.wav,./stim/wavs/peruvian_mismatch_interrogative-partial-wh_Cuando-miraba-la-luna.wav,./stim/wavs/puertorican_mismatch_interrogative-partial-wh_Cuando-miraba-la-luna.wav,,,,,,,,,,,,,,,,,,,,,,,,,,,,,,,,,,,,,,,,,,,,,,,,,,,,,,,,
,,,,,,,6037034f07abbf728431e247,605b45a4d25f287719a41696,605ff0e5c03ea5a598d0817b,I am not familiar with Spanish,Midwest,NA,no,2021-03-27_22h59.22.427,empathy_intonation_perc,2020.2.10,MacIntel,60,,,,,,,,,,0,castilian,0,1,1.39893,0,4,4,0,1,1,./stim/wavs/andalusian_match_declarative-broad-focus_Ana-lleva-el-abrigo.wav,./stim/wavs/argentine_match_declarative-broad-focus_Ana-lleva-el-abrigo.wav,./stim/wavs/castilian_match_declarative-broad-focus_Ana-lleva-el-abrigo.wav,./stim/wavs/chilean_match_declarative-broad-focus_Ana-lleva-el-abrigo.wav,./stim/wavs/cuban_match_declarative-broad-focus_Ana-lleva-el-abrigo.wav,./stim/wavs/mexican_match_declarative-broad-focus_Ana-lleva-el-abrigo.wav,./stim/wavs/peruvian_match_declarative-broad-focus_Ana-lleva-el-abrigo.wav,./stim/wavs/puertorican_match_declarative-broad-focus_Ana-lleva-el-abrigo.wav,,,,,,,,,,,,,,,,,,,,,,,,,,,,,,,,,,,,,,,,,,,,,,,,,,,,,,,,
,,,,,,,6037034f07abbf728431e247,605b45a4d25f287719a41696,605ff0e5c03ea5a598d0817b,I am not familiar with Spanish,Midwest,NA,no,2021-03-27_22h59.22.427,empathy_intonation_perc,2020.2.10,MacIntel,60,,,,,,,,,,1,argentine,0,0,2.182875,0,5,5,29,1,30,./stim/wavs/andalusian_match_interrogative-total-yn_Maria-bebe-el-vino.wav,./stim/wavs/argentine_match_interrogative-total-yn_Maria-bebe-el-vino.wav,./stim/wavs/castilian_match_interrogative-total-yn_Maria-bebe-el-vino.wav,./stim/wavs/chilean_match_interrogative-total-yn_Maria-bebe-el-vino.wav,./stim/wavs/cuban_match_interrogative-total-yn_Maria-bebe-el-vino.wav,./stim/wavs/mexican_match_interrogative-total-yn_Maria-bebe-el-vino.wav,./stim/wavs/peruvian_match_interrogative-total-yn_Maria-bebe-el-vino.wav,./stim/wavs/puertorican_match_interrogative-total-yn_Maria-bebe-el-vino.wav,,,,,,,,,,,,,,,,,,,,,,,,,,,,,,,,,,,,,,,,,,,,,,,,,,,,,,,,
,,,,,,,6037034f07abbf728431e247,605b45a4d25f287719a41696,605ff0e5c03ea5a598d0817b,I am not familiar with Spanish,Midwest,NA,no,2021-03-27_22h59.22.427,empathy_intonation_perc,2020.2.10,MacIntel,60,,,,,,,,,,1,castilian,1,1,0.961645,0,6,6,21,1,22,./stim/wavs/andalusian_match_interrogative-partial-wh_Por-que-ama-la-navidad.wav,./stim/wavs/argentine_match_interrogative-partial-wh_Por-que-ama-la-navidad.wav,./stim/wavs/castilian_match_interrogative-partial-wh_Por-que-ama-la-navidad.wav,./stim/wavs/chilean_match_interrogative-partial-wh_Por-que-ama-la-navidad.wav,./stim/wavs/cuban_match_interrogative-partial-wh_Por-que-ama-la-navidad.wav,./stim/wavs/mexican_match_interrogative-partial-wh_Por-que-ama-la-navidad.wav,./stim/wavs/peruvian_match_interrogative-partial-wh_Por-que-ama-la-navidad.wav,./stim/wavs/puertorican_match_interrogative-partial-wh_Por-que-ama-la-navidad.wav,,,,,,,,,,,,,,,,,,,,,,,,,,,,,,,,,,,,,,,,,,,,,,,,,,,,,,,,
,,,,,,,6037034f07abbf728431e247,605b45a4d25f287719a41696,605ff0e5c03ea5a598d0817b,I am not familiar with Spanish,Midwest,NA,no,2021-03-27_22h59.22.427,empathy_intonation_perc,2020.2.10,MacIntel,60,,,,,,,,,,1,chilean,1,1,1.03177,0,7,7,18,1,19,./stim/wavs/andalusian_match_interrogative-partial-wh_Cuando-lleva-el-abrigo.wav,./stim/wavs/argentine_match_interrogative-partial-wh_Cuando-lleva-el-abrigo.wav,./stim/wavs/castilian_match_interrogative-partial-wh_Cuando-lleva-el-abrigo.wav,./stim/wavs/chilean_match_interrogative-partial-wh_Cuando-lleva-el-abrigo.wav,./stim/wavs/cuban_match_interrogative-partial-wh_Cuando-lleva-el-abrigo.wav,./stim/wavs/mexican_match_interrogative-partial-wh_Cuando-lleva-el-abrigo.wav,./stim/wavs/peruvian_match_interrogative-partial-wh_Cuando-lleva-el-abrigo.wav,./stim/wavs/puertorican_match_interrogative-partial-wh_Cuando-lleva-el-abrigo.wav,,,,,,,,,,,,,,,,,,,,,,,,,,,,,,,,,,,,,,,,,,,,,,,,,,,,,,,,
,,,,,,,6037034f07abbf728431e247,605b45a4d25f287719a41696,605ff0e5c03ea5a598d0817b,I am not familiar with Spanish,Midwest,NA,no,2021-03-27_22h59.22.427,empathy_intonation_perc,2020.2.10,MacIntel,60,,,,,,,,,,0,mexican,0,1,1.26644,0,8,8,34,1,35,./stim/wavs/andalusian_mismatch_declarative-broad-focus_El-nino-oye-el-rio.wav,./stim/wavs/argentine_mismatch_declarative-broad-focus_El-nino-oye-el-rio.wav,./stim/wavs/castilian_mismatch_declarative-broad-focus_El-nino-oye-el-rio.wav,./stim/wavs/chilean_mismatch_declarative-broad-focus_El-nino-oye-el-rio.wav,./stim/wavs/cuban_mismatch_declarative-broad-focus_El-nino-oye-el-rio.wav,./stim/wavs/mexican_mismatch_declarative-broad-focus_El-nino-oye-el-rio.wav,./stim/wavs/peruvian_mismatch_declarative-broad-focus_El-nino-oye-el-rio.wav,./stim/wavs/puertorican_mismatch_declarative-broad-focus_El-nino-oye-el-rio.wav,,,,,,,,,,,,,,,,,,,,,,,,,,,,,,,,,,,,,,,,,,,,,,,,,,,,,,,,
,,,,,,,6037034f07abbf728431e247,605b45a4d25f287719a41696,605ff0e5c03ea5a598d0817b,I am not familiar with Spanish,Midwest,NA,no,2021-03-27_22h59.22.427,empathy_intonation_perc,2020.2.10,MacIntel,60,,,,,,,,,,0,mexican,0,1,1.2528,0,9,9,8,1,9,./stim/wavs/andalusian_match_declarative-narrow-focus_Ana-lleva-el-abrigo.wav,./stim/wavs/argentine_match_declarative-narrow-focus_Ana-lleva-el-abrigo.wav,./stim/wavs/castilian_match_declarative-narrow-focus_Ana-lleva-el-abrigo.wav,./stim/wavs/chilean_match_declarative-narrow-focus_Ana-lleva-el-abrigo.wav,./stim/wavs/cuban_match_declarative-narrow-focus_Ana-lleva-el-abrigo.wav,./stim/wavs/mexican_match_declarative-narrow-focus_Ana-lleva-el-abrigo.wav,./stim/wavs/peruvian_match_declarative-narrow-focus_Ana-lleva-el-abrigo.wav,./stim/wavs/puertorican_match_declarative-narrow-focus_Ana-lleva-el-abrigo.wav,,,,,,,,,,,,,,,,,,,,,,,,,,,,,,,,,,,,,,,,,,,,,,,,,,,,,,,,
,,,,,,,6037034f07abbf728431e247,605b45a4d25f287719a41696,605ff0e5c03ea5a598d0817b,I am not familiar with Spanish,Midwest,NA,no,2021-03-27_22h59.22.427,empathy_intonation_perc,2020.2.10,MacIntel,60,,,,,,,,,,1,chilean,1,1,0.867845,0,10,10,55,1,56,./stim/wavs/andalusian_mismatch_interrogative-partial-wh_Por-que-vivia-en-Paris.wav,./stim/wavs/argentine_mismatch_interrogative-partial-wh_Por-que-vivia-en-Paris.wav,./stim/wavs/castilian_mismatch_interrogative-partial-wh_Por-que-vivia-en-Paris.wav,./stim/wavs/chilean_mismatch_interrogative-partial-wh_Por-que-vivia-en-Paris.wav,./stim/wavs/cuban_mismatch_interrogative-partial-wh_Por-que-vivia-en-Paris.wav,./stim/wavs/mexican_mismatch_interrogative-partial-wh_Por-que-vivia-en-Paris.wav,./stim/wavs/peruvian_mismatch_interrogative-partial-wh_Por-que-vivia-en-Paris.wav,./stim/wavs/puertorican_mismatch_interrogative-partial-wh_Por-que-vivia-en-Paris.wav,,,,,,,,,,,,,,,,,,,,,,,,,,,,,,,,,,,,,,,,,,,,,,,,,,,,,,,,
,,,,,,,6037034f07abbf728431e247,605b45a4d25f287719a41696,605ff0e5c03ea5a598d0817b,I am not familiar with Spanish,Midwest,NA,no,2021-03-27_22h59.22.427,empathy_intonation_perc,2020.2.10,MacIntel,60,,,,,,,,,,0,peruvian,0,1,1.39811,0,11,11,11,1,12,./stim/wavs/andalusian_match_declarative-narrow-focus_Emilio-ama-la-marcha.wav,./stim/wavs/argentine_match_declarative-narrow-focus_Emilio-ama-la-marcha.wav,./stim/wavs/castilian_match_declarative-narrow-focus_Emilio-ama-la-marcha.wav,./stim/wavs/chilean_match_declarative-narrow-focus_Emilio-ama-la-marcha.wav,./stim/wavs/cuban_match_declarative-narrow-focus_Emilio-ama-la-marcha.wav,./stim/wavs/mexican_match_declarative-narrow-focus_Emilio-ama-la-marcha.wav,./stim/wavs/peruvian_match_declarative-narrow-focus_Emilio-ama-la-marcha.wav,./stim/wavs/puertorican_match_declarative-narrow-focus_Emilio-ama-la-marcha.wav,,,,,,,,,,,,,,,,,,,,,,,,,,,,,,,,,,,,,,,,,,,,,,,,,,,,,,,,
,,,,,,,6037034f07abbf728431e247,605b45a4d25f287719a41696,605ff0e5c03ea5a598d0817b,I am not familiar with Spanish,Midwest,NA,no,2021-03-27_22h59.22.427,empathy_intonation_perc,2020.2.10,MacIntel,60,,,,,,,,,,0,mexican,0,1,1.74564,0,12,12,9,1,10,./stim/wavs/andalusian_match_declarative-narrow-focus_Daniel-iba-a-Bolivia.wav,./stim/wavs/argentine_match_declarative-narrow-focus_Daniel-iba-a-Bolivia.wav,./stim/wavs/castilian_match_declarative-narrow-focus_Daniel-iba-a-Bolivia.wav,./stim/wavs/chilean_match_declarative-narrow-focus_Daniel-iba-a-Bolivia.wav,./stim/wavs/cuban_match_declarative-narrow-focus_Daniel-iba-a-Bolivia.wav,./stim/wavs/mexican_match_declarative-narrow-focus_Daniel-iba-a-Bolivia.wav,./stim/wavs/peruvian_match_declarative-narrow-focus_Daniel-iba-a-Bolivia.wav,./stim/wavs/puertorican_match_declarative-narrow-focus_Daniel-iba-a-Bolivia.wav,,,,,,,,,,,,,,,,,,,,,,,,,,,,,,,,,,,,,,,,,,,,,,,,,,,,,,,,
,,,,,,,6037034f07abbf728431e247,605b45a4d25f287719a41696,605ff0e5c03ea5a598d0817b,I am not familiar with Spanish,Midwest,NA,no,2021-03-27_22h59.22.427,empathy_intonation_perc,2020.2.10,MacIntel,60,,,,,,,,,,1,chilean,1,1,0.87405,0,13,13,24,1,25,./stim/wavs/andalusian_match_interrogative-total-yn_Ana-lleva-el-abrigo.wav,./stim/wavs/argentine_match_interrogative-total-yn_Ana-lleva-el-abrigo.wav,./stim/wavs/castilian_match_interrogative-total-yn_Ana-lleva-el-abrigo.wav,./stim/wavs/chilean_match_interrogative-total-yn_Ana-lleva-el-abrigo.wav,./stim/wavs/cuban_match_interrogative-total-yn_Ana-lleva-el-abrigo.wav,./stim/wavs/mexican_match_interrogative-total-yn_Ana-lleva-el-abrigo.wav,./stim/wavs/peruvian_match_interrogative-total-yn_Ana-lleva-el-abrigo.wav,./stim/wavs/puertorican_match_interrogative-total-yn_Ana-lleva-el-abrigo.wav,,,,,,,,,,,,,,,,,,,,,,,,,,,,,,,,,,,,,,,,,,,,,,,,,,,,,,,,
,,,,,,,6037034f07abbf728431e247,605b45a4d25f287719a41696,605ff0e5c03ea5a598d0817b,I am not familiar with Spanish,Midwest,NA,no,2021-03-27_22h59.22.427,empathy_intonation_perc,2020.2.10,MacIntel,60,,,,,,,,,,0,puertorican,0,1,1.363265,0,14,14,47,1,48,./stim/wavs/andalusian_mismatch_declarative-narrow-focus_Mi-tia-odia-la-lluvia.wav,./stim/wavs/argentine_mismatch_declarative-narrow-focus_Mi-tia-odia-la-lluvia.wav,./stim/wavs/castilian_mismatch_declarative-narrow-focus_Mi-tia-odia-la-lluvia.wav,./stim/wavs/chilean_mismatch_declarative-narrow-focus_Mi-tia-odia-la-lluvia.wav,./stim/wavs/cuban_mismatch_declarative-narrow-focus_Mi-tia-odia-la-lluvia.wav,./stim/wavs/mexican_mismatch_declarative-narrow-focus_Mi-tia-odia-la-lluvia.wav,./stim/wavs/peruvian_mismatch_declarative-narrow-focus_Mi-tia-odia-la-lluvia.wav,./stim/wavs/puertorican_mismatch_declarative-narrow-focus_Mi-tia-odia-la-lluvia.wav,,,,,,,,,,,,,,,,,,,,,,,,,,,,,,,,,,,,,,,,,,,,,,,,,,,,,,,,
,,,,,,,6037034f07abbf728431e247,605b45a4d25f287719a41696,605ff0e5c03ea5a598d0817b,I am not familiar with Spanish,Midwest,NA,no,2021-03-27_22h59.22.427,empathy_intonation_perc,2020.2.10,MacIntel,60,,,,,,,,,,0,argentine,0,1,1.52481,0,15,15,6,1,7,./stim/wavs/andalusian_match_declarative-broad-focus_Mariano-habla-del-tiempo.wav,./stim/wavs/argentine_match_declarative-broad-focus_Mariano-habla-del-tiempo.wav,./stim/wavs/castilian_match_declarative-broad-focus_Mariano-habla-del-tiempo.wav,./stim/wavs/chilean_match_declarative-broad-focus_Mariano-habla-del-tiempo.wav,./stim/wavs/cuban_match_declarative-broad-focus_Mariano-habla-del-tiempo.wav,./stim/wavs/mexican_match_declarative-broad-focus_Mariano-habla-del-tiempo.wav,./stim/wavs/peruvian_match_declarative-broad-focus_Mariano-habla-del-tiempo.wav,./stim/wavs/puertorican_match_declarative-broad-focus_Mariano-habla-del-tiempo.wav,,,,,,,,,,,,,,,,,,,,,,,,,,,,,,,,,,,,,,,,,,,,,,,,,,,,,,,,
,,,,,,,6037034f07abbf728431e247,605b45a4d25f287719a41696,605ff0e5c03ea5a598d0817b,I am not familiar with Spanish,Midwest,NA,no,2021-03-27_22h59.22.427,empathy_intonation_perc,2020.2.10,MacIntel,60,,,,,,,,,,0,chilean,0,1,0.26769,0,16,16,44,1,45,./stim/wavs/andalusian_mismatch_declarative-narrow-focus_La-nina-lava-el-plato.wav,./stim/wavs/argentine_mismatch_declarative-narrow-focus_La-nina-lava-el-plato.wav,./stim/wavs/castilian_mismatch_declarative-narrow-focus_La-nina-lava-el-plato.wav,./stim/wavs/chilean_mismatch_declarative-narrow-focus_La-nina-lava-el-plato.wav,./stim/wavs/cuban_mismatch_declarative-narrow-focus_La-nina-lava-el-plato.wav,./stim/wavs/mexican_mismatch_declarative-narrow-focus_La-nina-lava-el-plato.wav,./stim/wavs/peruvian_mismatch_declarative-narrow-focus_La-nina-lava-el-plato.wav,./stim/wavs/puertorican_mismatch_declarative-narrow-focus_La-nina-lava-el-plato.wav,,,,,,,,,,,,,,,,,,,,,,,,,,,,,,,,,,,,,,,,,,,,,,,,,,,,,,,,
,,,,,,,6037034f07abbf728431e247,605b45a4d25f287719a41696,605ff0e5c03ea5a598d0817b,I am not familiar with Spanish,Midwest,NA,no,2021-03-27_22h59.22.427,empathy_intonation_perc,2020.2.10,MacIntel,60,,,,,,,,,,1,chilean,0,0,1.28316,0,17,17,27,1,28,./stim/wavs/andalusian_match_interrogative-total-yn_Emilio-ama-la-marcha.wav,./stim/wavs/argentine_match_interrogative-total-yn_Emilio-ama-la-marcha.wav,./stim/wavs/castilian_match_interrogative-total-yn_Emilio-ama-la-marcha.wav,./stim/wavs/chilean_match_interrogative-total-yn_Emilio-ama-la-marcha.wav,./stim/wavs/cuban_match_interrogative-total-yn_Emilio-ama-la-marcha.wav,./stim/wavs/mexican_match_interrogative-total-yn_Emilio-ama-la-marcha.wav,./stim/wavs/peruvian_match_interrogative-total-yn_Emilio-ama-la-marcha.wav,./stim/wavs/puertorican_match_interrogative-total-yn_Emilio-ama-la-marcha.wav,,,,,,,,,,,,,,,,,,,,,,,,,,,,,,,,,,,,,,,,,,,,,,,,,,,,,,,,
,,,,,,,6037034f07abbf728431e247,605b45a4d25f287719a41696,605ff0e5c03ea5a598d0817b,I am not familiar with Spanish,Midwest,NA,no,2021-03-27_22h59.22.427,empathy_intonation_perc,2020.2.10,MacIntel,60,,,,,,,,,,1,argentine,1,1,1.185315,0,18,18,20,1,21,./stim/wavs/andalusian_match_interrogative-partial-wh_Por-que-abre-el-regalo.wav,./stim/wavs/argentine_match_interrogative-partial-wh_Por-que-abre-el-regalo.wav,./stim/wavs/castilian_match_interrogative-partial-wh_Por-que-abre-el-regalo.wav,./stim/wavs/chilean_match_interrogative-partial-wh_Por-que-abre-el-regalo.wav,./stim/wavs/cuban_match_interrogative-partial-wh_Por-que-abre-el-regalo.wav,./stim/wavs/mexican_match_interrogative-partial-wh_Por-que-abre-el-regalo.wav,./stim/wavs/peruvian_match_interrogative-partial-wh_Por-que-abre-el-regalo.wav,./stim/wavs/puertorican_match_interrogative-partial-wh_Por-que-abre-el-regalo.wav,,,,,,,,,,,,,,,,,,,,,,,,,,,,,,,,,,,,,,,,,,,,,,,,,,,,,,,,
,,,,,,,6037034f07abbf728431e247,605b45a4d25f287719a41696,605ff0e5c03ea5a598d0817b,I am not familiar with Spanish,Midwest,NA,no,2021-03-27_22h59.22.427,empathy_intonation_perc,2020.2.10,MacIntel,60,,,,,,,,,,1,andalusian,0,0,2.4183,0,19,19,28,1,29,./stim/wavs/andalusian_match_interrogative-total-yn_Manuela-vende-el-carro.wav,./stim/wavs/argentine_match_interrogative-total-yn_Manuela-vende-el-carro.wav,./stim/wavs/castilian_match_interrogative-total-yn_Manuela-vende-el-carro.wav,./stim/wavs/chilean_match_interrogative-total-yn_Manuela-vende-el-carro.wav,./stim/wavs/cuban_match_interrogative-total-yn_Manuela-vende-el-carro.wav,./stim/wavs/mexican_match_interrogative-total-yn_Manuela-vende-el-carro.wav,./stim/wavs/peruvian_match_interrogative-total-yn_Manuela-vende-el-carro.wav,./stim/wavs/puertorican_match_interrogative-total-yn_Manuela-vende-el-carro.wav,,,,,,,,,,,,,,,,,,,,,,,,,,,,,,,,,,,,,,,,,,,,,,,,,,,,,,,,
,,,,,,,6037034f07abbf728431e247,605b45a4d25f287719a41696,605ff0e5c03ea5a598d0817b,I am not familiar with Spanish,Midwest,NA,no,2021-03-27_22h59.22.427,empathy_intonation_perc,2020.2.10,MacIntel,60,,,,,,,,,,0,cuban,0,1,1.74983,0,20,20,4,1,5,./stim/wavs/andalusian_match_declarative-broad-focus_Manuela-vende-el-carro.wav,./stim/wavs/argentine_match_declarative-broad-focus_Manuela-vende-el-carro.wav,./stim/wavs/castilian_match_declarative-broad-focus_Manuela-vende-el-carro.wav,./stim/wavs/chilean_match_declarative-broad-focus_Manuela-vende-el-carro.wav,./stim/wavs/cuban_match_declarative-broad-focus_Manuela-vende-el-carro.wav,./stim/wavs/mexican_match_declarative-broad-focus_Manuela-vende-el-carro.wav,./stim/wavs/peruvian_match_declarative-broad-focus_Manuela-vende-el-carro.wav,./stim/wavs/puertorican_match_declarative-broad-focus_Manuela-vende-el-carro.wav,,,,,,,,,,,,,,,,,,,,,,,,,,,,,,,,,,,,,,,,,,,,,,,,,,,,,,,,
,,,,,,,6037034f07abbf728431e247,605b45a4d25f287719a41696,605ff0e5c03ea5a598d0817b,I am not familiar with Spanish,Midwest,NA,no,2021-03-27_22h59.22.427,empathy_intonation_perc,2020.2.10,MacIntel,60,,,,,,,,,,1,castilian,1,1,1.76994,0,21,21,17,1,18,./stim/wavs/andalusian_match_interrogative-partial-wh_Cuando-leia-el-libro.wav,./stim/wavs/argentine_match_interrogative-partial-wh_Cuando-leia-el-libro.wav,./stim/wavs/castilian_match_interrogative-partial-wh_Cuando-leia-el-libro.wav,./stim/wavs/chilean_match_interrogative-partial-wh_Cuando-leia-el-libro.wav,./stim/wavs/cuban_match_interrogative-partial-wh_Cuando-leia-el-libro.wav,./stim/wavs/mexican_match_interrogative-partial-wh_Cuando-leia-el-libro.wav,./stim/wavs/peruvian_match_interrogative-partial-wh_Cuando-leia-el-libro.wav,./stim/wavs/puertorican_match_interrogative-partial-wh_Cuando-leia-el-libro.wav,,,,,,,,,,,,,,,,,,,,,,,,,,,,,,,,,,,,,,,,,,,,,,,,,,,,,,,,
,,,,,,,6037034f07abbf728431e247,605b45a4d25f287719a41696,605ff0e5c03ea5a598d0817b,I am not familiar with Spanish,Midwest,NA,no,2021-03-27_22h59.22.427,empathy_intonation_perc,2020.2.10,MacIntel,60,,,,,,,,,,1,chilean,1,1,1.701885,0,22,22,19,1,20,./stim/wavs/andalusian_match_interrogative-partial-wh_Cuando-vendia-el-carro.wav,./stim/wavs/argentine_match_interrogative-partial-wh_Cuando-vendia-el-carro.wav,./stim/wavs/castilian_match_interrogative-partial-wh_Cuando-vendia-el-carro.wav,./stim/wavs/chilean_match_interrogative-partial-wh_Cuando-vendia-el-carro.wav,./stim/wavs/cuban_match_interrogative-partial-wh_Cuando-vendia-el-carro.wav,./stim/wavs/mexican_match_interrogative-partial-wh_Cuando-vendia-el-carro.wav,./stim/wavs/peruvian_match_interrogative-partial-wh_Cuando-vendia-el-carro.wav,./stim/wavs/puertorican_match_interrogative-partial-wh_Cuando-vendia-el-carro.wav,,,,,,,,,,,,,,,,,,,,,,,,,,,,,,,,,,,,,,,,,,,,,,,,,,,,,,,,
,,,,,,,6037034f07abbf728431e247,605b45a4d25f287719a41696,605ff0e5c03ea5a598d0817b,I am not familiar with Spanish,Midwest,NA,no,2021-03-27_22h59.22.427,empathy_intonation_perc,2020.2.10,MacIntel,60,,,,,,,,,,1,chilean,0,0,1.53231,0,23,23,61,1,62,./stim/wavs/andalusian_mismatch_interrogative-total-yn_Mi-madre-come-la-fruta.wav,./stim/wavs/argentine_mismatch_interrogative-total-yn_Mi-madre-come-la-fruta.wav,./stim/wavs/castilian_mismatch_interrogative-total-yn_Mi-madre-come-la-fruta.wav,./stim/wavs/chilean_mismatch_interrogative-total-yn_Mi-madre-come-la-fruta.wav,./stim/wavs/cuban_mismatch_interrogative-total-yn_Mi-madre-come-la-fruta.wav,./stim/wavs/mexican_mismatch_interrogative-total-yn_Mi-madre-come-la-fruta.wav,./stim/wavs/peruvian_mismatch_interrogative-total-yn_Mi-madre-come-la-fruta.wav,./stim/wavs/puertorican_mismatch_interrogative-total-yn_Mi-madre-come-la-fruta.wav,,,,,,,,,,,,,,,,,,,,,,,,,,,,,,,,,,,,,,,,,,,,,,,,,,,,,,,,
,,,,,,,6037034f07abbf728431e247,605b45a4d25f287719a41696,605ff0e5c03ea5a598d0817b,I am not familiar with Spanish,Midwest,NA,no,2021-03-27_22h59.22.427,empathy_intonation_perc,2020.2.10,MacIntel,60,,,,,,,,,,0,peruvian,0,1,1.73554,0,24,24,3,1,4,./stim/wavs/andalusian_match_declarative-broad-focus_Emilio-ama-la-marcha.wav,./stim/wavs/argentine_match_declarative-broad-focus_Emilio-ama-la-marcha.wav,./stim/wavs/castilian_match_declarative-broad-focus_Emilio-ama-la-marcha.wav,./stim/wavs/chilean_match_declarative-broad-focus_Emilio-ama-la-marcha.wav,./stim/wavs/cuban_match_declarative-broad-focus_Emilio-ama-la-marcha.wav,./stim/wavs/mexican_match_declarative-broad-focus_Emilio-ama-la-marcha.wav,./stim/wavs/peruvian_match_declarative-broad-focus_Emilio-ama-la-marcha.wav,./stim/wavs/puertorican_match_declarative-broad-focus_Emilio-ama-la-marcha.wav,,,,,,,,,,,,,,,,,,,,,,,,,,,,,,,,,,,,,,,,,,,,,,,,,,,,,,,,
,,,,,,,6037034f07abbf728431e247,605b45a4d25f287719a41696,605ff0e5c03ea5a598d0817b,I am not familiar with Spanish,Midwest,NA,no,2021-03-27_22h59.22.427,empathy_intonation_perc,2020.2.10,MacIntel,60,,,,,,,,,,0,cuban,1,0,1.650965,0,25,25,43,1,44,./stim/wavs/andalusian_mismatch_declarative-narrow-focus_La-maestra-vive-en-Paris.wav,./stim/wavs/argentine_mismatch_declarative-narrow-focus_La-maestra-vive-en-Paris.wav,./stim/wavs/castilian_mismatch_declarative-narrow-focus_La-maestra-vive-en-Paris.wav,./stim/wavs/chilean_mismatch_declarative-narrow-focus_La-maestra-vive-en-Paris.wav,./stim/wavs/cuban_mismatch_declarative-narrow-focus_La-maestra-vive-en-Paris.wav,./stim/wavs/mexican_mismatch_declarative-narrow-focus_La-maestra-vive-en-Paris.wav,./stim/wavs/peruvian_mismatch_declarative-narrow-focus_La-maestra-vive-en-Paris.wav,./stim/wavs/puertorican_mismatch_declarative-narrow-focus_La-maestra-vive-en-Paris.wav,,,,,,,,,,,,,,,,,,,,,,,,,,,,,,,,,,,,,,,,,,,,,,,,,,,,,,,,
,,,,,,,6037034f07abbf728431e247,605b45a4d25f287719a41696,605ff0e5c03ea5a598d0817b,I am not familiar with Spanish,Midwest,NA,no,2021-03-27_22h59.22.427,empathy_intonation_perc,2020.2.10,MacIntel,60,,,,,,,,,,1,castilian,0,0,1.43183,0,26,26,22,1,23,./stim/wavs/andalusian_match_interrogative-partial-wh_Por-que-hablaba-del-agua.wav,./stim/wavs/argentine_match_interrogative-partial-wh_Por-que-hablaba-del-agua.wav,./stim/wavs/castilian_match_interrogative-partial-wh_Por-que-hablaba-del-agua.wav,./stim/wavs/chilean_match_interrogative-partial-wh_Por-que-hablaba-del-agua.wav,./stim/wavs/cuban_match_interrogative-partial-wh_Por-que-hablaba-del-agua.wav,./stim/wavs/mexican_match_interrogative-partial-wh_Por-que-hablaba-del-agua.wav,./stim/wavs/peruvian_match_interrogative-partial-wh_Por-que-hablaba-del-agua.wav,./stim/wavs/puertorican_match_interrogative-partial-wh_Por-que-hablaba-del-agua.wav,,,,,,,,,,,,,,,,,,,,,,,,,,,,,,,,,,,,,,,,,,,,,,,,,,,,,,,,
,,,,,,,6037034f07abbf728431e247,605b45a4d25f287719a41696,605ff0e5c03ea5a598d0817b,I am not familiar with Spanish,Midwest,NA,no,2021-03-27_22h59.22.427,empathy_intonation_perc,2020.2.10,MacIntel,60,,,,,,,,,,0,peruvian,0,1,1.599755,0,27,27,37,1,38,./stim/wavs/andalusian_mismatch_declarative-broad-focus_Mi-madre-come-la-fruta.wav,./stim/wavs/argentine_mismatch_declarative-broad-focus_Mi-madre-come-la-fruta.wav,./stim/wavs/castilian_mismatch_declarative-broad-focus_Mi-madre-come-la-fruta.wav,./stim/wavs/chilean_mismatch_declarative-broad-focus_Mi-madre-come-la-fruta.wav,./stim/wavs/cuban_mismatch_declarative-broad-focus_Mi-madre-come-la-fruta.wav,./stim/wavs/mexican_mismatch_declarative-broad-focus_Mi-madre-come-la-fruta.wav,./stim/wavs/peruvian_mismatch_declarative-broad-focus_Mi-madre-come-la-fruta.wav,./stim/wavs/puertorican_mismatch_declarative-broad-focus_Mi-madre-come-la-fruta.wav,,,,,,,,,,,,,,,,,,,,,,,,,,,,,,,,,,,,,,,,,,,,,,,,,,,,,,,,
,,,,,,,6037034f07abbf728431e247,605b45a4d25f287719a41696,605ff0e5c03ea5a598d0817b,I am not familiar with Spanish,Midwest,NA,no,2021-03-27_22h59.22.427,empathy_intonation_perc,2020.2.10,MacIntel,60,,,,,,,,,,1,argentine,0,0,2.275225,0,28,28,30,1,31,./stim/wavs/andalusian_match_interrogative-total-yn_Mariano-habla-del-tiempo.wav,./stim/wavs/argentine_match_interrogative-total-yn_Mariano-habla-del-tiempo.wav,./stim/wavs/castilian_match_interrogative-total-yn_Mariano-habla-del-tiempo.wav,./stim/wavs/chilean_match_interrogative-total-yn_Mariano-habla-del-tiempo.wav,./stim/wavs/cuban_match_interrogative-total-yn_Mariano-habla-del-tiempo.wav,./stim/wavs/mexican_match_interrogative-total-yn_Mariano-habla-del-tiempo.wav,./stim/wavs/peruvian_match_interrogative-total-yn_Mariano-habla-del-tiempo.wav,./stim/wavs/puertorican_match_interrogative-total-yn_Mariano-habla-del-tiempo.wav,,,,,,,,,,,,,,,,,,,,,,,,,,,,,,,,,,,,,,,,,,,,,,,,,,,,,,,,
,,,,,,,6037034f07abbf728431e247,605b45a4d25f287719a41696,605ff0e5c03ea5a598d0817b,I am not familiar with Spanish,Midwest,NA,no,2021-03-27_22h59.22.427,empathy_intonation_perc,2020.2.10,MacIntel,60,,,,,,,,,,1,argentine,0,0,1.073285,0,29,29,51,1,52,./stim/wavs/andalusian_mismatch_interrogative-partial-wh_Por-que-desayuna-muy-bien.wav,./stim/wavs/argentine_mismatch_interrogative-partial-wh_Por-que-desayuna-muy-bien.wav,./stim/wavs/castilian_mismatch_interrogative-partial-wh_Por-que-desayuna-muy-bien.wav,./stim/wavs/chilean_mismatch_interrogative-partial-wh_Por-que-desayuna-muy-bien.wav,./stim/wavs/cuban_mismatch_interrogative-partial-wh_Por-que-desayuna-muy-bien.wav,./stim/wavs/mexican_mismatch_interrogative-partial-wh_Por-que-desayuna-muy-bien.wav,./stim/wavs/peruvian_mismatch_interrogative-partial-wh_Por-que-desayuna-muy-bien.wav,./stim/wavs/puertorican_mismatch_interrogative-partial-wh_Por-que-desayuna-muy-bien.wav,,,,,,,,,,,,,,,,,,,,,,,,,,,,,,,,,,,,,,,,,,,,,,,,,,,,,,,,
,,,,,,,6037034f07abbf728431e247,605b45a4d25f287719a41696,605ff0e5c03ea5a598d0817b,I am not familiar with Spanish,Midwest,NA,no,2021-03-27_22h59.22.427,empathy_intonation_perc,2020.2.10,MacIntel,60,,,,,,,,,,0,peruvian,1,0,1.43571,0,30,30,13,1,14,./stim/wavs/andalusian_match_declarative-narrow-focus_Maria-bebe-el-vino.wav,./stim/wavs/argentine_match_declarative-narrow-focus_Maria-bebe-el-vino.wav,./stim/wavs/castilian_match_declarative-narrow-focus_Maria-bebe-el-vino.wav,./stim/wavs/chilean_match_declarative-narrow-focus_Maria-bebe-el-vino.wav,./stim/wavs/cuban_match_declarative-narrow-focus_Maria-bebe-el-vino.wav,./stim/wavs/mexican_match_declarative-narrow-focus_Maria-bebe-el-vino.wav,./stim/wavs/peruvian_match_declarative-narrow-focus_Maria-bebe-el-vino.wav,./stim/wavs/puertorican_match_declarative-narrow-focus_Maria-bebe-el-vino.wav,,,,,,,,,,,,,,,,,,,,,,,,,,,,,,,,,,,,,,,,,,,,,,,,,,,,,,,,
,,,,,,,6037034f07abbf728431e247,605b45a4d25f287719a41696,605ff0e5c03ea5a598d0817b,I am not familiar with Spanish,Midwest,NA,no,2021-03-27_22h59.22.427,empathy_intonation_perc,2020.2.10,MacIntel,60,,,,,,,,,,1,andalusian,0,0,1.19058,0,31,31,58,1,59,./stim/wavs/andalusian_mismatch_interrogative-total-yn_El-nino-oye-el-rio.wav,./stim/wavs/argentine_mismatch_interrogative-total-yn_El-nino-oye-el-rio.wav,./stim/wavs/castilian_mismatch_interrogative-total-yn_El-nino-oye-el-rio.wav,./stim/wavs/chilean_mismatch_interrogative-total-yn_El-nino-oye-el-rio.wav,./stim/wavs/cuban_mismatch_interrogative-total-yn_El-nino-oye-el-rio.wav,./stim/wavs/mexican_mismatch_interrogative-total-yn_El-nino-oye-el-rio.wav,./stim/wavs/peruvian_mismatch_interrogative-total-yn_El-nino-oye-el-rio.wav,./stim/wavs/puertorican_mismatch_interrogative-total-yn_El-nino-oye-el-rio.wav,,,,,,,,,,,,,,,,,,,,,,,,,,,,,,,,,,,,,,,,,,,,,,,,,,,,,,,,
,,,,,,,6037034f07abbf728431e247,605b45a4d25f287719a41696,605ff0e5c03ea5a598d0817b,I am not familiar with Spanish,Midwest,NA,no,2021-03-27_22h59.22.427,empathy_intonation_perc,2020.2.10,MacIntel,60,,,,,,,,,,1,castilian,0,0,0.915605,0,32,32,16,1,17,./stim/wavs/andalusian_match_interrogative-partial-wh_Cuando-bebia-el-vino.wav,./stim/wavs/argentine_match_interrogative-partial-wh_Cuando-bebia-el-vino.wav,./stim/wavs/castilian_match_interrogative-partial-wh_Cuando-bebia-el-vino.wav,./stim/wavs/chilean_match_interrogative-partial-wh_Cuando-bebia-el-vino.wav,./stim/wavs/cuban_match_interrogative-partial-wh_Cuando-bebia-el-vino.wav,./stim/wavs/mexican_match_interrogative-partial-wh_Cuando-bebia-el-vino.wav,./stim/wavs/peruvian_match_interrogative-partial-wh_Cuando-bebia-el-vino.wav,./stim/wavs/puertorican_match_interrogative-partial-wh_Cuando-bebia-el-vino.wav,,,,,,,,,,,,,,,,,,,,,,,,,,,,,,,,,,,,,,,,,,,,,,,,,,,,,,,,
,,,,,,,6037034f07abbf728431e247,605b45a4d25f287719a41696,605ff0e5c03ea5a598d0817b,I am not familiar with Spanish,Midwest,NA,no,2021-03-27_22h59.22.427,empathy_intonation_perc,2020.2.10,MacIntel,60,,,,,,,,,,1,cuban,0,0,0.96951,0,33,33,63,1,64,./stim/wavs/andalusian_mismatch_interrogative-total-yn_Mi-tia-odia-la-lluvia.wav,./stim/wavs/argentine_mismatch_interrogative-total-yn_Mi-tia-odia-la-lluvia.wav,./stim/wavs/castilian_mismatch_interrogative-total-yn_Mi-tia-odia-la-lluvia.wav,./stim/wavs/chilean_mismatch_interrogative-total-yn_Mi-tia-odia-la-lluvia.wav,./stim/wavs/cuban_mismatch_interrogative-total-yn_Mi-tia-odia-la-lluvia.wav,./stim/wavs/mexican_mismatch_interrogative-total-yn_Mi-tia-odia-la-lluvia.wav,./stim/wavs/peruvian_mismatch_interrogative-total-yn_Mi-tia-odia-la-lluvia.wav,./stim/wavs/puertorican_mismatch_interrogative-total-yn_Mi-tia-odia-la-lluvia.wav,,,,,,,,,,,,,,,,,,,,,,,,,,,,,,,,,,,,,,,,,,,,,,,,,,,,,,,,
,,,,,,,6037034f07abbf728431e247,605b45a4d25f287719a41696,605ff0e5c03ea5a598d0817b,I am not familiar with Spanish,Midwest,NA,no,2021-03-27_22h59.22.427,empathy_intonation_perc,2020.2.10,MacIntel,60,,,,,,,,,,1,chilean,0,0,0.70239,0,34,34,25,1,26,./stim/wavs/andalusian_match_interrogative-total-yn_Daniel-iba-a-Bolivia.wav,./stim/wavs/argentine_match_interrogative-total-yn_Daniel-iba-a-Bolivia.wav,./stim/wavs/castilian_match_interrogative-total-yn_Daniel-iba-a-Bolivia.wav,./stim/wavs/chilean_match_interrogative-total-yn_Daniel-iba-a-Bolivia.wav,./stim/wavs/cuban_match_interrogative-total-yn_Daniel-iba-a-Bolivia.wav,./stim/wavs/mexican_match_interrogative-total-yn_Daniel-iba-a-Bolivia.wav,./stim/wavs/peruvian_match_interrogative-total-yn_Daniel-iba-a-Bolivia.wav,./stim/wavs/puertorican_match_interrogative-total-yn_Daniel-iba-a-Bolivia.wav,,,,,,,,,,,,,,,,,,,,,,,,,,,,,,,,,,,,,,,,,,,,,,,,,,,,,,,,
,,,,,,,6037034f07abbf728431e247,605b45a4d25f287719a41696,605ff0e5c03ea5a598d0817b,I am not familiar with Spanish,Midwest,NA,no,2021-03-27_22h59.22.427,empathy_intonation_perc,2020.2.10,MacIntel,60,,,,,,,,,,0,castilian,0,1,1.693535,0,35,35,40,1,41,./stim/wavs/andalusian_mismatch_declarative-narrow-focus_El-bebe-comia-muy-bien.wav,./stim/wavs/argentine_mismatch_declarative-narrow-focus_El-bebe-comia-muy-bien.wav,./stim/wavs/castilian_mismatch_declarative-narrow-focus_El-bebe-comia-muy-bien.wav,./stim/wavs/chilean_mismatch_declarative-narrow-focus_El-bebe-comia-muy-bien.wav,./stim/wavs/cuban_mismatch_declarative-narrow-focus_El-bebe-comia-muy-bien.wav,./stim/wavs/mexican_mismatch_declarative-narrow-focus_El-bebe-comia-muy-bien.wav,./stim/wavs/peruvian_mismatch_declarative-narrow-focus_El-bebe-comia-muy-bien.wav,./stim/wavs/puertorican_mismatch_declarative-narrow-focus_El-bebe-comia-muy-bien.wav,,,,,,,,,,,,,,,,,,,,,,,,,,,,,,,,,,,,,,,,,,,,,,,,,,,,,,,,
,,,,,,,6037034f07abbf728431e247,605b45a4d25f287719a41696,605ff0e5c03ea5a598d0817b,I am not familiar with Spanish,Midwest,NA,no,2021-03-27_22h59.22.427,empathy_intonation_perc,2020.2.10,MacIntel,60,,,,,,,,,,1,peruvian,0,0,5.5341,0,36,36,31,1,32,./stim/wavs/andalusian_match_interrogative-total-yn_Marta-abre-el-regalo.wav,./stim/wavs/argentine_match_interrogative-total-yn_Marta-abre-el-regalo.wav,./stim/wavs/castilian_match_interrogative-total-yn_Marta-abre-el-regalo.wav,./stim/wavs/chilean_match_interrogative-total-yn_Marta-abre-el-regalo.wav,./stim/wavs/cuban_match_interrogative-total-yn_Marta-abre-el-regalo.wav,./stim/wavs/mexican_match_interrogative-total-yn_Marta-abre-el-regalo.wav,./stim/wavs/peruvian_match_interrogative-total-yn_Marta-abre-el-regalo.wav,./stim/wavs/puertorican_match_interrogative-total-yn_Marta-abre-el-regalo.wav,,,,,,,,,,,,,,,,,,,,,,,,,,,,,,,,,,,,,,,,,,,,,,,,,,,,,,,,
,,,,,,,6037034f07abbf728431e247,605b45a4d25f287719a41696,605ff0e5c03ea5a598d0817b,I am not familiar with Spanish,Midwest,NA,no,2021-03-27_22h59.22.427,empathy_intonation_perc,2020.2.10,MacIntel,60,,,,,,,,,,0,mexican,1,0,1.867735,0,37,37,10,1,11,./stim/wavs/andalusian_match_declarative-narrow-focus_David-leia-el-libro.wav,./stim/wavs/argentine_match_declarative-narrow-focus_David-leia-el-libro.wav,./stim/wavs/castilian_match_declarative-narrow-focus_David-leia-el-libro.wav,./stim/wavs/chilean_match_declarative-narrow-focus_David-leia-el-libro.wav,./stim/wavs/cuban_match_declarative-narrow-focus_David-leia-el-libro.wav,./stim/wavs/mexican_match_declarative-narrow-focus_David-leia-el-libro.wav,./stim/wavs/peruvian_match_declarative-narrow-focus_David-leia-el-libro.wav,./stim/wavs/puertorican_match_declarative-narrow-focus_David-leia-el-libro.wav,,,,,,,,,,,,,,,,,,,,,,,,,,,,,,,,,,,,,,,,,,,,,,,,,,,,,,,,
,,,,,,,6037034f07abbf728431e247,605b45a4d25f287719a41696,605ff0e5c03ea5a598d0817b,I am not familiar with Spanish,Midwest,NA,no,2021-03-27_22h59.22.427,empathy_intonation_perc,2020.2.10,MacIntel,60,,,,,,,,,,0,mexican,0,1,2.682145,0,38,38,46,1,47,./stim/wavs/andalusian_mismatch_declarative-narrow-focus_Mi-novio-viene-del-lago.wav,./stim/wavs/argentine_mismatch_declarative-narrow-focus_Mi-novio-viene-del-lago.wav,./stim/wavs/castilian_mismatch_declarative-narrow-focus_Mi-novio-viene-del-lago.wav,./stim/wavs/chilean_mismatch_declarative-narrow-focus_Mi-novio-viene-del-lago.wav,./stim/wavs/cuban_mismatch_declarative-narrow-focus_Mi-novio-viene-del-lago.wav,./stim/wavs/mexican_mismatch_declarative-narrow-focus_Mi-novio-viene-del-lago.wav,./stim/wavs/peruvian_mismatch_declarative-narrow-focus_Mi-novio-viene-del-lago.wav,./stim/wavs/puertorican_mismatch_declarative-narrow-focus_Mi-novio-viene-del-lago.wav,,,,,,,,,,,,,,,,,,,,,,,,,,,,,,,,,,,,,,,,,,,,,,,,,,,,,,,,
,,,,,,,6037034f07abbf728431e247,605b45a4d25f287719a41696,605ff0e5c03ea5a598d0817b,I am not familiar with Spanish,Midwest,NA,no,2021-03-27_22h59.22.427,empathy_intonation_perc,2020.2.10,MacIntel,60,,,,,,,,,,1,peruvian,0,0,1.661435,0,39,39,60,1,61,./stim/wavs/andalusian_mismatch_interrogative-total-yn_La-nina-lava-el-plato.wav,./stim/wavs/argentine_mismatch_interrogative-total-yn_La-nina-lava-el-plato.wav,./stim/wavs/castilian_mismatch_interrogative-total-yn_La-nina-lava-el-plato.wav,./stim/wavs/chilean_mismatch_interrogative-total-yn_La-nina-lava-el-plato.wav,./stim/wavs/cuban_mismatch_interrogative-total-yn_La-nina-lava-el-plato.wav,./stim/wavs/mexican_mismatch_interrogative-total-yn_La-nina-lava-el-plato.wav,./stim/wavs/peruvian_mismatch_interrogative-total-yn_La-nina-lava-el-plato.wav,./stim/wavs/puertorican_mismatch_interrogative-total-yn_La-nina-lava-el-plato.wav,,,,,,,,,,,,,,,,,,,,,,,,,,,,,,,,,,,,,,,,,,,,,,,,,,,,,,,,
,,,,,,,6037034f07abbf728431e247,605b45a4d25f287719a41696,605ff0e5c03ea5a598d0817b,I am not familiar with Spanish,Midwest,NA,no,2021-03-27_22h59.22.427,empathy_intonation_perc,2020.2.10,MacIntel,60,,,,,,,,,,1,chilean,1,1,1.37002,0,40,40,59,1,60,./stim/wavs/andalusian_mismatch_interrogative-total-yn_La-maestra-vive-en-Paris.wav,./stim/wavs/argentine_mismatch_interrogative-total-yn_La-maestra-vive-en-Paris.wav,./stim/wavs/castilian_mismatch_interrogative-total-yn_La-maestra-vive-en-Paris.wav,./stim/wavs/chilean_mismatch_interrogative-total-yn_La-maestra-vive-en-Paris.wav,./stim/wavs/cuban_mismatch_interrogative-total-yn_La-maestra-vive-en-Paris.wav,./stim/wavs/mexican_mismatch_interrogative-total-yn_La-maestra-vive-en-Paris.wav,./stim/wavs/peruvian_mismatch_interrogative-total-yn_La-maestra-vive-en-Paris.wav,./stim/wavs/puertorican_mismatch_interrogative-total-yn_La-maestra-vive-en-Paris.wav,,,,,,,,,,,,,,,,,,,,,,,,,,,,,,,,,,,,,,,,,,,,,,,,,,,,,,,,
,,,,,,,6037034f07abbf728431e247,605b45a4d25f287719a41696,605ff0e5c03ea5a598d0817b,I am not familiar with Spanish,Midwest,NA,no,2021-03-27_22h59.22.427,empathy_intonation_perc,2020.2.10,MacIntel,60,,,,,,,,,,1,peruvian,1,1,0.81259,0,41,41,53,1,54,./stim/wavs/andalusian_mismatch_interrogative-partial-wh_Por-que-oia-el-rio.wav,./stim/wavs/argentine_mismatch_interrogative-partial-wh_Por-que-oia-el-rio.wav,./stim/wavs/castilian_mismatch_interrogative-partial-wh_Por-que-oia-el-rio.wav,./stim/wavs/chilean_mismatch_interrogative-partial-wh_Por-que-oia-el-rio.wav,./stim/wavs/cuban_mismatch_interrogative-partial-wh_Por-que-oia-el-rio.wav,./stim/wavs/mexican_mismatch_interrogative-partial-wh_Por-que-oia-el-rio.wav,./stim/wavs/peruvian_mismatch_interrogative-partial-wh_Por-que-oia-el-rio.wav,./stim/wavs/puertorican_mismatch_interrogative-partial-wh_Por-que-oia-el-rio.wav,,,,,,,,,,,,,,,,,,,,,,,,,,,,,,,,,,,,,,,,,,,,,,,,,,,,,,,,
,,,,,,,6037034f07abbf728431e247,605b45a4d25f287719a41696,605ff0e5c03ea5a598d0817b,I am not familiar with Spanish,Midwest,NA,no,2021-03-27_22h59.22.427,empathy_intonation_perc,2020.2.10,MacIntel,60,,,,,,,,,,0,peruvian,0,1,1.208835,0,42,42,42,1,43,./stim/wavs/andalusian_mismatch_declarative-narrow-focus_El-nino-oye-el-rio.wav,./stim/wavs/argentine_mismatch_declarative-narrow-focus_El-nino-oye-el-rio.wav,./stim/wavs/castilian_mismatch_declarative-narrow-focus_El-nino-oye-el-rio.wav,./stim/wavs/chilean_mismatch_declarative-narrow-focus_El-nino-oye-el-rio.wav,./stim/wavs/cuban_mismatch_declarative-narrow-focus_El-nino-oye-el-rio.wav,./stim/wavs/mexican_mismatch_declarative-narrow-focus_El-nino-oye-el-rio.wav,./stim/wavs/peruvian_mismatch_declarative-narrow-focus_El-nino-oye-el-rio.wav,./stim/wavs/puertorican_mismatch_declarative-narrow-focus_El-nino-oye-el-rio.wav,,,,,,,,,,,,,,,,,,,,,,,,,,,,,,,,,,,,,,,,,,,,,,,,,,,,,,,,
,,,,,,,6037034f07abbf728431e247,605b45a4d25f287719a41696,605ff0e5c03ea5a598d0817b,I am not familiar with Spanish,Midwest,NA,no,2021-03-27_22h59.22.427,empathy_intonation_perc,2020.2.10,MacIntel,60,,,,,,,,,,0,chilean,0,1,0.934445,0,43,43,15,1,16,./stim/wavs/andalusian_match_declarative-narrow-focus_Marta-abre-el-regalo.wav,./stim/wavs/argentine_match_declarative-narrow-focus_Marta-abre-el-regalo.wav,./stim/wavs/castilian_match_declarative-narrow-focus_Marta-abre-el-regalo.wav,./stim/wavs/chilean_match_declarative-narrow-focus_Marta-abre-el-regalo.wav,./stim/wavs/cuban_match_declarative-narrow-focus_Marta-abre-el-regalo.wav,./stim/wavs/mexican_match_declarative-narrow-focus_Marta-abre-el-regalo.wav,./stim/wavs/peruvian_match_declarative-narrow-focus_Marta-abre-el-regalo.wav,./stim/wavs/puertorican_match_declarative-narrow-focus_Marta-abre-el-regalo.wav,,,,,,,,,,,,,,,,,,,,,,,,,,,,,,,,,,,,,,,,,,,,,,,,,,,,,,,,
,,,,,,,6037034f07abbf728431e247,605b45a4d25f287719a41696,605ff0e5c03ea5a598d0817b,I am not familiar with Spanish,Midwest,NA,no,2021-03-27_22h59.22.427,empathy_intonation_perc,2020.2.10,MacIntel,60,,,,,,,,,,1,andalusian,1,1,0.86911,0,44,44,54,1,55,./stim/wavs/andalusian_mismatch_interrogative-partial-wh_Por-que-venia-del-lago.wav,./stim/wavs/argentine_mismatch_interrogative-partial-wh_Por-que-venia-del-lago.wav,./stim/wavs/castilian_mismatch_interrogative-partial-wh_Por-que-venia-del-lago.wav,./stim/wavs/chilean_mismatch_interrogative-partial-wh_Por-que-venia-del-lago.wav,./stim/wavs/cuban_mismatch_interrogative-partial-wh_Por-que-venia-del-lago.wav,./stim/wavs/mexican_mismatch_interrogative-partial-wh_Por-que-venia-del-lago.wav,./stim/wavs/peruvian_mismatch_interrogative-partial-wh_Por-que-venia-del-lago.wav,./stim/wavs/puertorican_mismatch_interrogative-partial-wh_Por-que-venia-del-lago.wav,,,,,,,,,,,,,,,,,,,,,,,,,,,,,,,,,,,,,,,,,,,,,,,,,,,,,,,,
,,,,,,,6037034f07abbf728431e247,605b45a4d25f287719a41696,605ff0e5c03ea5a598d0817b,I am not familiar with Spanish,Midwest,NA,no,2021-03-27_22h59.22.427,empathy_intonation_perc,2020.2.10,MacIntel,60,,,,,,,,,,0,puertorican,1,0,1.253685,0,45,45,41,1,42,./stim/wavs/andalusian_mismatch_declarative-narrow-focus_El-hombre-mira-la-luna.wav,./stim/wavs/argentine_mismatch_declarative-narrow-focus_El-hombre-mira-la-luna.wav,./stim/wavs/castilian_mismatch_declarative-narrow-focus_El-hombre-mira-la-luna.wav,./stim/wavs/chilean_mismatch_declarative-narrow-focus_El-hombre-mira-la-luna.wav,./stim/wavs/cuban_mismatch_declarative-narrow-focus_El-hombre-mira-la-luna.wav,./stim/wavs/mexican_mismatch_declarative-narrow-focus_El-hombre-mira-la-luna.wav,./stim/wavs/peruvian_mismatch_declarative-narrow-focus_El-hombre-mira-la-luna.wav,./stim/wavs/puertorican_mismatch_declarative-narrow-focus_El-hombre-mira-la-luna.wav,,,,,,,,,,,,,,,,,,,,,,,,,,,,,,,,,,,,,,,,,,,,,,,,,,,,,,,,
,,,,,,,6037034f07abbf728431e247,605b45a4d25f287719a41696,605ff0e5c03ea5a598d0817b,I am not familiar with Spanish,Midwest,NA,no,2021-03-27_22h59.22.427,empathy_intonation_perc,2020.2.10,MacIntel,60,,,,,,,,,,1,argentine,1,1,1.014525,0,46,46,52,1,53,./stim/wavs/andalusian_mismatch_interrogative-partial-wh_Por-que-odiaba-la-lluvia.wav,./stim/wavs/argentine_mismatch_interrogative-partial-wh_Por-que-odiaba-la-lluvia.wav,./stim/wavs/castilian_mismatch_interrogative-partial-wh_Por-que-odiaba-la-lluvia.wav,./stim/wavs/chilean_mismatch_interrogative-partial-wh_Por-que-odiaba-la-lluvia.wav,./stim/wavs/cuban_mismatch_interrogative-partial-wh_Por-que-odiaba-la-lluvia.wav,./stim/wavs/mexican_mismatch_interrogative-partial-wh_Por-que-odiaba-la-lluvia.wav,./stim/wavs/peruvian_mismatch_interrogative-partial-wh_Por-que-odiaba-la-lluvia.wav,./stim/wavs/puertorican_mismatch_interrogative-partial-wh_Por-que-odiaba-la-lluvia.wav,,,,,,,,,,,,,,,,,,,,,,,,,,,,,,,,,,,,,,,,,,,,,,,,,,,,,,,,
,,,,,,,6037034f07abbf728431e247,605b45a4d25f287719a41696,605ff0e5c03ea5a598d0817b,I am not familiar with Spanish,Midwest,NA,no,2021-03-27_22h59.22.427,empathy_intonation_perc,2020.2.10,MacIntel,60,,,,,,,,,,0,puertorican,0,1,0.84117,0,47,47,35,1,36,./stim/wavs/andalusian_mismatch_declarative-broad-focus_La-maestra-vive-en-Paris.wav,./stim/wavs/argentine_mismatch_declarative-broad-focus_La-maestra-vive-en-Paris.wav,./stim/wavs/castilian_mismatch_declarative-broad-focus_La-maestra-vive-en-Paris.wav,./stim/wavs/chilean_mismatch_declarative-broad-focus_La-maestra-vive-en-Paris.wav,./stim/wavs/cuban_mismatch_declarative-broad-focus_La-maestra-vive-en-Paris.wav,./stim/wavs/mexican_mismatch_declarative-broad-focus_La-maestra-vive-en-Paris.wav,./stim/wavs/peruvian_mismatch_declarative-broad-focus_La-maestra-vive-en-Paris.wav,./stim/wavs/puertorican_mismatch_declarative-broad-focus_La-maestra-vive-en-Paris.wav,,,,,,,,,,,,,,,,,,,,,,,,,,,,,,,,,,,,,,,,,,,,,,,,,,,,,,,,
,,,,,,,6037034f07abbf728431e247,605b45a4d25f287719a41696,605ff0e5c03ea5a598d0817b,I am not familiar with Spanish,Midwest,NA,no,2021-03-27_22h59.22.427,empathy_intonation_perc,2020.2.10,MacIntel,60,,,,,,,,,,1,andalusian,0,0,1.158765,0,48,48,48,1,49,./stim/wavs/andalusian_mismatch_interrogative-partial-wh_Cuando-comia-la-fruta.wav,./stim/wavs/argentine_mismatch_interrogative-partial-wh_Cuando-comia-la-fruta.wav,./stim/wavs/castilian_mismatch_interrogative-partial-wh_Cuando-comia-la-fruta.wav,./stim/wavs/chilean_mismatch_interrogative-partial-wh_Cuando-comia-la-fruta.wav,./stim/wavs/cuban_mismatch_interrogative-partial-wh_Cuando-comia-la-fruta.wav,./stim/wavs/mexican_mismatch_interrogative-partial-wh_Cuando-comia-la-fruta.wav,./stim/wavs/peruvian_mismatch_interrogative-partial-wh_Cuando-comia-la-fruta.wav,./stim/wavs/puertorican_mismatch_interrogative-partial-wh_Cuando-comia-la-fruta.wav,,,,,,,,,,,,,,,,,,,,,,,,,,,,,,,,,,,,,,,,,,,,,,,,,,,,,,,,
,,,,,,,6037034f07abbf728431e247,605b45a4d25f287719a41696,605ff0e5c03ea5a598d0817b,I am not familiar with Spanish,Midwest,NA,no,2021-03-27_22h59.22.427,empathy_intonation_perc,2020.2.10,MacIntel,60,,,,,,,,,,0,mexican,0,1,0.841395,0,49,49,1,1,2,./stim/wavs/andalusian_match_declarative-broad-focus_Daniel-iba-a-Bolivia.wav,./stim/wavs/argentine_match_declarative-broad-focus_Daniel-iba-a-Bolivia.wav,./stim/wavs/castilian_match_declarative-broad-focus_Daniel-iba-a-Bolivia.wav,./stim/wavs/chilean_match_declarative-broad-focus_Daniel-iba-a-Bolivia.wav,./stim/wavs/cuban_match_declarative-broad-focus_Daniel-iba-a-Bolivia.wav,./stim/wavs/mexican_match_declarative-broad-focus_Daniel-iba-a-Bolivia.wav,./stim/wavs/peruvian_match_declarative-broad-focus_Daniel-iba-a-Bolivia.wav,./stim/wavs/puertorican_match_declarative-broad-focus_Daniel-iba-a-Bolivia.wav,,,,,,,,,,,,,,,,,,,,,,,,,,,,,,,,,,,,,,,,,,,,,,,,,,,,,,,,
,,,,,,,6037034f07abbf728431e247,605b45a4d25f287719a41696,605ff0e5c03ea5a598d0817b,I am not familiar with Spanish,Midwest,NA,no,2021-03-27_22h59.22.427,empathy_intonation_perc,2020.2.10,MacIntel,60,,,,,,,,,,0,chilean,0,1,0.83767,0,50,50,39,1,40,./stim/wavs/andalusian_mismatch_declarative-broad-focus_Mi-tia-odia-la-lluvia.wav,./stim/wavs/argentine_mismatch_declarative-broad-focus_Mi-tia-odia-la-lluvia.wav,./stim/wavs/castilian_mismatch_declarative-broad-focus_Mi-tia-odia-la-lluvia.wav,./stim/wavs/chilean_mismatch_declarative-broad-focus_Mi-tia-odia-la-lluvia.wav,./stim/wavs/cuban_mismatch_declarative-broad-focus_Mi-tia-odia-la-lluvia.wav,./stim/wavs/mexican_mismatch_declarative-broad-focus_Mi-tia-odia-la-lluvia.wav,./stim/wavs/peruvian_mismatch_declarative-broad-focus_Mi-tia-odia-la-lluvia.wav,./stim/wavs/puertorican_mismatch_declarative-broad-focus_Mi-tia-odia-la-lluvia.wav,,,,,,,,,,,,,,,,,,,,,,,,,,,,,,,,,,,,,,,,,,,,,,,,,,,,,,,,
,,,,,,,6037034f07abbf728431e247,605b45a4d25f287719a41696,605ff0e5c03ea5a598d0817b,I am not familiar with Spanish,Midwest,NA,no,2021-03-27_22h59.22.427,empathy_intonation_perc,2020.2.10,MacIntel,60,,,,,,,,,,0,castilian,0,1,0.64422,0,51,51,2,1,3,./stim/wavs/andalusian_match_declarative-broad-focus_David-leia-el-libro.wav,./stim/wavs/argentine_match_declarative-broad-focus_David-leia-el-libro.wav,./stim/wavs/castilian_match_declarative-broad-focus_David-leia-el-libro.wav,./stim/wavs/chilean_match_declarative-broad-focus_David-leia-el-libro.wav,./stim/wavs/cuban_match_declarative-broad-focus_David-leia-el-libro.wav,./stim/wavs/mexican_match_declarative-broad-focus_David-leia-el-libro.wav,./stim/wavs/peruvian_match_declarative-broad-focus_David-leia-el-libro.wav,./stim/wavs/puertorican_match_declarative-broad-focus_David-leia-el-libro.wav,,,,,,,,,,,,,,,,,,,,,,,,,,,,,,,,,,,,,,,,,,,,,,,,,,,,,,,,
,,,,,,,6037034f07abbf728431e247,605b45a4d25f287719a41696,605ff0e5c03ea5a598d0817b,I am not familiar with Spanish,Midwest,NA,no,2021-03-27_22h59.22.427,empathy_intonation_perc,2020.2.10,MacIntel,60,,,,,,,,,,0,mexican,0,1,0.586255,0,52,52,33,1,34,./stim/wavs/andalusian_mismatch_declarative-broad-focus_El-hombre-mira-la-luna.wav,./stim/wavs/argentine_mismatch_declarative-broad-focus_El-hombre-mira-la-luna.wav,./stim/wavs/castilian_mismatch_declarative-broad-focus_El-hombre-mira-la-luna.wav,./stim/wavs/chilean_mismatch_declarative-broad-focus_El-hombre-mira-la-luna.wav,./stim/wavs/cuban_mismatch_declarative-broad-focus_El-hombre-mira-la-luna.wav,./stim/wavs/mexican_mismatch_declarative-broad-focus_El-hombre-mira-la-luna.wav,./stim/wavs/peruvian_mismatch_declarative-broad-focus_El-hombre-mira-la-luna.wav,./stim/wavs/puertorican_mismatch_declarative-broad-focus_El-hombre-mira-la-luna.wav,,,,,,,,,,,,,,,,,,,,,,,,,,,,,,,,,,,,,,,,,,,,,,,,,,,,,,,,
,,,,,,,6037034f07abbf728431e247,605b45a4d25f287719a41696,605ff0e5c03ea5a598d0817b,I am not familiar with Spanish,Midwest,NA,no,2021-03-27_22h59.22.427,empathy_intonation_perc,2020.2.10,MacIntel,60,,,,,,,,,,0,argentine,1,0,0.501075,0,53,53,32,1,33,./stim/wavs/andalusian_mismatch_declarative-broad-focus_El-bebe-comia-muy-bien.wav,./stim/wavs/argentine_mismatch_declarative-broad-focus_El-bebe-comia-muy-bien.wav,./stim/wavs/castilian_mismatch_declarative-broad-focus_El-bebe-comia-muy-bien.wav,./stim/wavs/chilean_mismatch_declarative-broad-focus_El-bebe-comia-muy-bien.wav,./stim/wavs/cuban_mismatch_declarative-broad-focus_El-bebe-comia-muy-bien.wav,./stim/wavs/mexican_mismatch_declarative-broad-focus_El-bebe-comia-muy-bien.wav,./stim/wavs/peruvian_mismatch_declarative-broad-focus_El-bebe-comia-muy-bien.wav,./stim/wavs/puertorican_mismatch_declarative-broad-focus_El-bebe-comia-muy-bien.wav,,,,,,,,,,,,,,,,,,,,,,,,,,,,,,,,,,,,,,,,,,,,,,,,,,,,,,,,
,,,,,,,6037034f07abbf728431e247,605b45a4d25f287719a41696,605ff0e5c03ea5a598d0817b,I am not familiar with Spanish,Midwest,NA,no,2021-03-27_22h59.22.427,empathy_intonation_perc,2020.2.10,MacIntel,60,,,,,,,,,,0,andalusian,0,1,1.258605,0,54,54,38,1,39,./stim/wavs/andalusian_mismatch_declarative-broad-focus_Mi-novio-viene-del-lago.wav,./stim/wavs/argentine_mismatch_declarative-broad-focus_Mi-novio-viene-del-lago.wav,./stim/wavs/castilian_mismatch_declarative-broad-focus_Mi-novio-viene-del-lago.wav,./stim/wavs/chilean_mismatch_declarative-broad-focus_Mi-novio-viene-del-lago.wav,./stim/wavs/cuban_mismatch_declarative-broad-focus_Mi-novio-viene-del-lago.wav,./stim/wavs/mexican_mismatch_declarative-broad-focus_Mi-novio-viene-del-lago.wav,./stim/wavs/peruvian_mismatch_declarative-broad-focus_Mi-novio-viene-del-lago.wav,./stim/wavs/puertorican_mismatch_declarative-broad-focus_Mi-novio-viene-del-lago.wav,,,,,,,,,,,,,,,,,,,,,,,,,,,,,,,,,,,,,,,,,,,,,,,,,,,,,,,,
,,,,,,,6037034f07abbf728431e247,605b45a4d25f287719a41696,605ff0e5c03ea5a598d0817b,I am not familiar with Spanish,Midwest,NA,no,2021-03-27_22h59.22.427,empathy_intonation_perc,2020.2.10,MacIntel,60,,,,,,,,,,1,castilian,1,1,1.688625,0,55,55,57,1,58,./stim/wavs/andalusian_mismatch_interrogative-total-yn_El-hombre-mira-la-luna.wav,./stim/wavs/argentine_mismatch_interrogative-total-yn_El-hombre-mira-la-luna.wav,./stim/wavs/castilian_mismatch_interrogative-total-yn_El-hombre-mira-la-luna.wav,./stim/wavs/chilean_mismatch_interrogative-total-yn_El-hombre-mira-la-luna.wav,./stim/wavs/cuban_mismatch_interrogative-total-yn_El-hombre-mira-la-luna.wav,./stim/wavs/mexican_mismatch_interrogative-total-yn_El-hombre-mira-la-luna.wav,./stim/wavs/peruvian_mismatch_interrogative-total-yn_El-hombre-mira-la-luna.wav,./stim/wavs/puertorican_mismatch_interrogative-total-yn_El-hombre-mira-la-luna.wav,,,,,,,,,,,,,,,,,,,,,,,,,,,,,,,,,,,,,,,,,,,,,,,,,,,,,,,,
,,,,,,,6037034f07abbf728431e247,605b45a4d25f287719a41696,605ff0e5c03ea5a598d0817b,I am not familiar with Spanish,Midwest,NA,no,2021-03-27_22h59.22.427,empathy_intonation_perc,2020.2.10,MacIntel,60,,,,,,,,,,1,peruvian,0,0,1.37806,0,56,56,23,1,24,./stim/wavs/andalusian_match_interrogative-partial-wh_Por-que-iba-a-Bolivia.wav,./stim/wavs/argentine_match_interrogative-partial-wh_Por-que-iba-a-Bolivia.wav,./stim/wavs/castilian_match_interrogative-partial-wh_Por-que-iba-a-Bolivia.wav,./stim/wavs/chilean_match_interrogative-partial-wh_Por-que-iba-a-Bolivia.wav,./stim/wavs/cuban_match_interrogative-partial-wh_Por-que-iba-a-Bolivia.wav,./stim/wavs/mexican_match_interrogative-partial-wh_Por-que-iba-a-Bolivia.wav,./stim/wavs/peruvian_match_interrogative-partial-wh_Por-que-iba-a-Bolivia.wav,./stim/wavs/puertorican_match_interrogative-partial-wh_Por-que-iba-a-Bolivia.wav,,,,,,,,,,,,,,,,,,,,,,,,,,,,,,,,,,,,,,,,,,,,,,,,,,,,,,,,
,,,,,,,6037034f07abbf728431e247,605b45a4d25f287719a41696,605ff0e5c03ea5a598d0817b,I am not familiar with Spanish,Midwest,NA,no,2021-03-27_22h59.22.427,empathy_intonation_perc,2020.2.10,MacIntel,60,,,,,,,,,,0,mexican,0,1,0.875145,0,57,57,45,1,46,./stim/wavs/andalusian_mismatch_declarative-narrow-focus_Mi-madre-come-la-fruta.wav,./stim/wavs/argentine_mismatch_declarative-narrow-focus_Mi-madre-come-la-fruta.wav,./stim/wavs/castilian_mismatch_declarative-narrow-focus_Mi-madre-come-la-fruta.wav,./stim/wavs/chilean_mismatch_declarative-narrow-focus_Mi-madre-come-la-fruta.wav,./stim/wavs/cuban_mismatch_declarative-narrow-focus_Mi-madre-come-la-fruta.wav,./stim/wavs/mexican_mismatch_declarative-narrow-focus_Mi-madre-come-la-fruta.wav,./stim/wavs/peruvian_mismatch_declarative-narrow-focus_Mi-madre-come-la-fruta.wav,./stim/wavs/puertorican_mismatch_declarative-narrow-focus_Mi-madre-come-la-fruta.wav,,,,,,,,,,,,,,,,,,,,,,,,,,,,,,,,,,,,,,,,,,,,,,,,,,,,,,,,
,,,,,,,6037034f07abbf728431e247,605b45a4d25f287719a41696,605ff0e5c03ea5a598d0817b,I am not familiar with Spanish,Midwest,NA,no,2021-03-27_22h59.22.427,empathy_intonation_perc,2020.2.10,MacIntel,60,,,,,,,,,,1,peruvian,0,0,1.050495,0,58,58,62,1,63,./stim/wavs/andalusian_mismatch_interrogative-total-yn_Mi-novio-viene-del-lago.wav,./stim/wavs/argentine_mismatch_interrogative-total-yn_Mi-novio-viene-del-lago.wav,./stim/wavs/castilian_mismatch_interrogative-total-yn_Mi-novio-viene-del-lago.wav,./stim/wavs/chilean_mismatch_interrogative-total-yn_Mi-novio-viene-del-lago.wav,./stim/wavs/cuban_mismatch_interrogative-total-yn_Mi-novio-viene-del-lago.wav,./stim/wavs/mexican_mismatch_interrogative-total-yn_Mi-novio-viene-del-lago.wav,./stim/wavs/peruvian_mismatch_interrogative-total-yn_Mi-novio-viene-del-lago.wav,./stim/wavs/puertorican_mismatch_interrogative-total-yn_Mi-novio-viene-del-lago.wav,,,,,,,,,,,,,,,,,,,,,,,,,,,,,,,,,,,,,,,,,,,,,,,,,,,,,,,,
,,,,,,,6037034f07abbf728431e247,605b45a4d25f287719a41696,605ff0e5c03ea5a598d0817b,I am not familiar with Spanish,Midwest,NA,no,2021-03-27_22h59.22.427,empathy_intonation_perc,2020.2.10,MacIntel,60,,,,,,,,,,0,andalusian,1,0,0.88589,0,59,59,12,1,13,./stim/wavs/andalusian_match_declarative-narrow-focus_Manuela-vende-el-carro.wav,./stim/wavs/argentine_match_declarative-narrow-focus_Manuela-vende-el-carro.wav,./stim/wavs/castilian_match_declarative-narrow-focus_Manuela-vende-el-carro.wav,./stim/wavs/chilean_match_declarative-narrow-focus_Manuela-vende-el-carro.wav,./stim/wavs/cuban_match_declarative-narrow-focus_Manuela-vende-el-carro.wav,./stim/wavs/mexican_match_declarative-narrow-focus_Manuela-vende-el-carro.wav,./stim/wavs/peruvian_match_declarative-narrow-focus_Manuela-vende-el-carro.wav,./stim/wavs/puertorican_match_declarative-narrow-focus_Manuela-vende-el-carro.wav,,,,,,,,,,,,,,,,,,,,,,,,,,,,,,,,,,,,,,,,,,,,,,,,,,,,,,,,
,,,,,,,6037034f07abbf728431e247,605b45a4d25f287719a41696,605ff0e5c03ea5a598d0817b,I am not familiar with Spanish,Midwest,NA,no,2021-03-27_22h59.22.427,empathy_intonation_perc,2020.2.10,MacIntel,60,,,,,,,,,,0,cuban,0,1,1.01764,0,60,60,5,1,6,./stim/wavs/andalusian_match_declarative-broad-focus_Maria-bebe-el-vino.wav,./stim/wavs/argentine_match_declarative-broad-focus_Maria-bebe-el-vino.wav,./stim/wavs/castilian_match_declarative-broad-focus_Maria-bebe-el-vino.wav,./stim/wavs/chilean_match_declarative-broad-focus_Maria-bebe-el-vino.wav,./stim/wavs/cuban_match_declarative-broad-focus_Maria-bebe-el-vino.wav,./stim/wavs/mexican_match_declarative-broad-focus_Maria-bebe-el-vino.wav,./stim/wavs/peruvian_match_declarative-broad-focus_Maria-bebe-el-vino.wav,./stim/wavs/puertorican_match_declarative-broad-focus_Maria-bebe-el-vino.wav,,,,,,,,,,,,,,,,,,,,,,,,,,,,,,,,,,,,,,,,,,,,,,,,,,,,,,,,
,,,,,,,6037034f07abbf728431e247,605b45a4d25f287719a41696,605ff0e5c03ea5a598d0817b,I am not familiar with Spanish,Midwest,NA,no,2021-03-27_22h59.22.427,empathy_intonation_perc,2020.2.10,MacIntel,60,,,,,,,,,,1,peruvian,0,0,0.903165,0,61,61,49,1,50,./stim/wavs/andalusian_mismatch_interrogative-partial-wh_Cuando-lavaba-el-plato.wav,./stim/wavs/argentine_mismatch_interrogative-partial-wh_Cuando-lavaba-el-plato.wav,./stim/wavs/castilian_mismatch_interrogative-partial-wh_Cuando-lavaba-el-plato.wav,./stim/wavs/chilean_mismatch_interrogative-partial-wh_Cuando-lavaba-el-plato.wav,./stim/wavs/cuban_mismatch_interrogative-partial-wh_Cuando-lavaba-el-plato.wav,./stim/wavs/mexican_mismatch_interrogative-partial-wh_Cuando-lavaba-el-plato.wav,./stim/wavs/peruvian_mismatch_interrogative-partial-wh_Cuando-lavaba-el-plato.wav,./stim/wavs/puertorican_mismatch_interrogative-partial-wh_Cuando-lavaba-el-plato.wav,,,,,,,,,,,,,,,,,,,,,,,,,,,,,,,,,,,,,,,,,,,,,,,,,,,,,,,,
,,,,,,,6037034f07abbf728431e247,605b45a4d25f287719a41696,605ff0e5c03ea5a598d0817b,I am not familiar with Spanish,Midwest,NA,no,2021-03-27_22h59.22.427,empathy_intonation_perc,2020.2.10,MacIntel,60,,,,,,,,,,1,andalusian,0,0,0.9162,0,62,62,56,1,57,./stim/wavs/andalusian_mismatch_interrogative-total-yn_El-bebe-comia-muy-bien.wav,./stim/wavs/argentine_mismatch_interrogative-total-yn_El-bebe-comia-muy-bien.wav,./stim/wavs/castilian_mismatch_interrogative-total-yn_El-bebe-comia-muy-bien.wav,./stim/wavs/chilean_mismatch_interrogative-total-yn_El-bebe-comia-muy-bien.wav,./stim/wavs/cuban_mismatch_interrogative-total-yn_El-bebe-comia-muy-bien.wav,./stim/wavs/mexican_mismatch_interrogative-total-yn_El-bebe-comia-muy-bien.wav,./stim/wavs/peruvian_mismatch_interrogative-total-yn_El-bebe-comia-muy-bien.wav,./stim/wavs/puertorican_mismatch_interrogative-total-yn_El-bebe-comia-muy-bien.wav,,,,,,,,,,,,,,,,,,,,,,,,,,,,,,,,,,,,,,,,,,,,,,,,,,,,,,,,
,,,,,,,6037034f07abbf728431e247,605b45a4d25f287719a41696,605ff0e5c03ea5a598d0817b,I am not familiar with Spanish,Midwest,NA,no,2021-03-27_22h59.22.427,empathy_intonation_perc,2020.2.10,MacIntel,60,,,,,,,,,,0,castilian,0,1,0.95995,0,63,63,14,1,15,./stim/wavs/andalusian_match_declarative-narrow-focus_Mariano-habla-del-tiempo.wav,./stim/wavs/argentine_match_declarative-narrow-focus_Mariano-habla-del-tiempo.wav,./stim/wavs/castilian_match_declarative-narrow-focus_Mariano-habla-del-tiempo.wav,./stim/wavs/chilean_match_declarative-narrow-focus_Mariano-habla-del-tiempo.wav,./stim/wavs/cuban_match_declarative-narrow-focus_Mariano-habla-del-tiempo.wav,./stim/wavs/mexican_match_declarative-narrow-focus_Mariano-habla-del-tiempo.wav,./stim/wavs/peruvian_match_declarative-narrow-focus_Mariano-habla-del-tiempo.wav,./stim/wavs/puertorican_match_declarative-narrow-focus_Mariano-habla-del-tiempo.wav,,,,,,,,,,,,,,,,,,,,,,,,,,,,,,,,,,,,,,,,,,,,,,,,,,,,,,,,
,,,,,,,6037034f07abbf728431e247,605b45a4d25f287719a41696,605ff0e5c03ea5a598d0817b,I am not familiar with Spanish,Midwest,NA,no,2021-03-27_22h59.22.427,empathy_intonation_perc,2020.2.10,MacIntel,60,,,,,,,,,,,,,,,,,,,,,,,,,,,,,1,0,1.427925,0,0,0,0,1,,,,,,,,,,,,,,,,,,,,,,,,,,,,,,,,,,,,,,,,,,,,,,,,
,,,,,"Great! Now we will move on. The next task consists of about 60 trials, in each of which you will see a string of letters. 
  
  Your task is to decide whether this is a real Spanish word or not.",(press the spacebar to continue),6037034f07abbf728431e247,605b45a4d25f287719a41696,605ff0e5c03ea5a598d0817b,I am not familiar with Spanish,Midwest,NA,no,2021-03-27_22h59.22.427,empathy_intonation_perc,2020.2.10,MacIntel,60,,,,,,,,,,,,,,,,,,,,,,,,,,,,,,,,,,,,,0,0,0,0,1,,,,,,,,,,,,,,,,,,,,,,,,,,,,,,,,,,,,,,,,,,,
,,,,,"If you think it is an existing Spanish word, you type '1' (for 'REAL'), and if you think it is not an existing Spanish word, you type '0' (for 'FAKE').",(press the spacebar to continue),6037034f07abbf728431e247,605b45a4d25f287719a41696,605ff0e5c03ea5a598d0817b,I am not familiar with Spanish,Midwest,NA,no,2021-03-27_22h59.22.427,empathy_intonation_perc,2020.2.10,MacIntel,60,,,,,,,,,,,,,,,,,,,,,,,,,,,,,,,,,,,,,0,1,1,1,1,,,,,,,,,,,,,,,,,,,,,,,,,,,,,,,,,,,,,,,,,,,
,,,,,"If you are sure that the word exists, even though you dont know its exact meaning, you may still respond '1' (REAL). 
  
  But if you are not sure if it is an existing word, you should respond '0' (FAKE).
  
  Let's do a practice round...",(press the spacebar to continue),6037034f07abbf728431e247,605b45a4d25f287719a41696,605ff0e5c03ea5a598d0817b,I am not familiar with Spanish,Midwest,NA,no,2021-03-27_22h59.22.427,empathy_intonation_perc,2020.2.10,MacIntel,60,,,,,,,,,,,,,,,,,,,,,,,,,,,,,,,,,,,,,0,2,2,2,1,,,,,,,,,,,,,,,,,,,,,,,,,,,,,,,,,,,,,,,,,,,
,,,,,,,6037034f07abbf728431e247,605b45a4d25f287719a41696,605ff0e5c03ea5a598d0817b,I am not familiar with Spanish,Midwest,NA,no,2021-03-27_22h59.22.427,empathy_intonation_perc,2020.2.10,MacIntel,60,,,,,,,,,,0,,,,,,,,,,,,,,,,,,,,,,,,,,,,,,,,0,1,2.073865,0,0,0,0,1,0,depiste,REAL,FAKE,,,,,,,,,,,,,,,,,,,,,,,,,,,,,,,
,,,,,,,6037034f07abbf728431e247,605b45a4d25f287719a41696,605ff0e5c03ea5a598d0817b,I am not familiar with Spanish,Midwest,NA,no,2021-03-27_22h59.22.427,empathy_intonation_perc,2020.2.10,MacIntel,60,,,,,,,,,,1,,,,,,,,,,,,,,,,,,,,,,,,,,,,,,,,1,1,1.0244,0,1,1,1,1,0,s,REAL,FAKE,,,,,,,,,,,,,,,,,,,,,,,,,,,,,,,
,,,,,,,6037034f07abbf728431e247,605b45a4d25f287719a41696,605ff0e5c03ea5a598d0817b,I am not familiar with Spanish,Midwest,NA,no,2021-03-27_22h59.22.427,empathy_intonation_perc,2020.2.10,MacIntel,60,,,,,,,,,,0,,,,,,,,,,,,,,,,,,,,,,,,,,,,,,,,0,1,1.32866,0,2,2,2,1,0,con,REAL,FAKE,,,,,,,,,,,,,,,,,,,,,,,,,,,,,,,
,,,,,,,6037034f07abbf728431e247,605b45a4d25f287719a41696,605ff0e5c03ea5a598d0817b,I am not familiar with Spanish,Midwest,NA,no,2021-03-27_22h59.22.427,empathy_intonation_perc,2020.2.10,MacIntel,60,,,,,,,,,,0,,,,,,,,,,,,,,,,,,,,,,,,,,,,,,,,0,1,0.85842,0,3,3,3,1,0,calpar,REAL,FAKE,,,,,,,,,,,,,,,,,,,,,,,,,,,,,,,
,,,,,,,6037034f07abbf728431e247,605b45a4d25f287719a41696,605ff0e5c03ea5a598d0817b,I am not familiar with Spanish,Midwest,NA,no,2021-03-27_22h59.22.427,empathy_intonation_perc,2020.2.10,MacIntel,60,,,,,,,,,,0,,,,,,,,,,,,,,,,,,,,,,,,,,,,,,,,0,1,0.84479,0,4,4,4,1,0,joten,REAL,FAKE,,,,,,,,,,,,,,,,,,,,,,,,,,,,,,,
,,,,,,,6037034f07abbf728431e247,605b45a4d25f287719a41696,605ff0e5c03ea5a598d0817b,I am not familiar with Spanish,Midwest,NA,no,2021-03-27_22h59.22.427,empathy_intonation_perc,2020.2.10,MacIntel,60,,,,,,,,,,1,,,,,,,,,,,,,,,,,,,,,,,,,,,,,,,,1,1,0.880955,0,5,5,5,1,0,sacapuntas,REAL,FAKE,,,,,,,,,,,,,,,,,,,,,,,,,,,,,,,
,,,,,,,6037034f07abbf728431e247,605b45a4d25f287719a41696,605ff0e5c03ea5a598d0817b,I am not familiar with Spanish,Midwest,NA,no,2021-03-27_22h59.22.427,empathy_intonation_perc,2020.2.10,MacIntel,60,,,,,,,,,,0,,,,,,,,,,,,,,,,,,,,,,,,,,,,,,,,1,0,1.217025,0,6,6,6,1,0,priba,REAL,FAKE,,,,,,,,,,,,,,,,,,,,,,,,,,,,,,,
,,,,,,,6037034f07abbf728431e247,605b45a4d25f287719a41696,605ff0e5c03ea5a598d0817b,I am not familiar with Spanish,Midwest,NA,no,2021-03-27_22h59.22.427,empathy_intonation_perc,2020.2.10,MacIntel,60,,,,,,,,,,0,,,,,,,,,,,,,,,,,,,,,,,,,,,,,,,,1,0,1.20973,0,7,7,7,1,0,pelasula,REAL,FAKE,,,,,,,,,,,,,,,,,,,,,,,,,,,,,,,
,,,,,,,6037034f07abbf728431e247,605b45a4d25f287719a41696,605ff0e5c03ea5a598d0817b,I am not familiar with Spanish,Midwest,NA,no,2021-03-27_22h59.22.427,empathy_intonation_perc,2020.2.10,MacIntel,60,,,,,,,,,,1,,,,,,,,,,,,,,,,,,,,,,,,,,,,,,,,1,1,0.7404,0,8,8,8,1,0,bien,REAL,FAKE,,,,,,,,,,,,,,,,,,,,,,,,,,,,,,,
,,,,,,,6037034f07abbf728431e247,605b45a4d25f287719a41696,605ff0e5c03ea5a598d0817b,I am not familiar with Spanish,Midwest,NA,no,2021-03-27_22h59.22.427,empathy_intonation_perc,2020.2.10,MacIntel,60,,,,,,,,,,1,,,,,,,,,,,,,,,,,,,,,,,,,,,,,,,,1,1,0.646875,0,9,9,9,1,0,casa,REAL,FAKE,,,,,,,,,,,,,,,,,,,,,,,,,,,,,,,
,,,,,,,6037034f07abbf728431e247,605b45a4d25f287719a41696,605ff0e5c03ea5a598d0817b,I am not familiar with Spanish,Midwest,NA,no,2021-03-27_22h59.22.427,empathy_intonation_perc,2020.2.10,MacIntel,60,,,,,,,,,,0,,,,,,,,,,,,,,,,,,,,,,,,,,,,,,,,0,1,0.83136,0,10,10,10,1,0,lejo,REAL,FAKE,,,,,,,,,,,,,,,,,,,,,,,,,,,,,,,
,,,,,,,6037034f07abbf728431e247,605b45a4d25f287719a41696,605ff0e5c03ea5a598d0817b,I am not familiar with Spanish,Midwest,NA,no,2021-03-27_22h59.22.427,empathy_intonation_perc,2020.2.10,MacIntel,60,,,,,,,,,,0,,,,,,,,,,,,,,,,,,,,,,,,,,,,,,,,0,1,1.176745,0,11,11,11,1,0,pretantas,REAL,FAKE,,,,,,,,,,,,,,,,,,,,,,,,,,,,,,,
,,,,,,,6037034f07abbf728431e247,605b45a4d25f287719a41696,605ff0e5c03ea5a598d0817b,I am not familiar with Spanish,Midwest,NA,no,2021-03-27_22h59.22.427,empathy_intonation_perc,2020.2.10,MacIntel,60,,,,,,,,,,1,,,,,,,,,,,,,,,,,,,,,,,,,,,,,,,,,,,,,,,,38,estornudar,,,0,0,3.1897,0,0,0,37,1,REAL,FAKE,,,,,,,,,,,,,,,,,,,,,
,,,,,,,6037034f07abbf728431e247,605b45a4d25f287719a41696,605ff0e5c03ea5a598d0817b,I am not familiar with Spanish,Midwest,NA,no,2021-03-27_22h59.22.427,empathy_intonation_perc,2020.2.10,MacIntel,60,,,,,,,,,,1,,,,,,,,,,,,,,,,,,,,,,,,,,,,,,,,,,,,,,,,7,psimo,,,1,1,1.43412,0,1,1,6,1,REAL,FAKE,,,,,,,,,,,,,,,,,,,,,
,,,,,,,6037034f07abbf728431e247,605b45a4d25f287719a41696,605ff0e5c03ea5a598d0817b,I am not familiar with Spanish,Midwest,NA,no,2021-03-27_22h59.22.427,empathy_intonation_perc,2020.2.10,MacIntel,60,,,,,,,,,,1,,,,,,,,,,,,,,,,,,,,,,,,,,,,,,,,,,,,,,,,54,fomentar,,,0,0,0.776945,0,2,2,53,1,REAL,FAKE,,,,,,,,,,,,,,,,,,,,,
,,,,,,,6037034f07abbf728431e247,605b45a4d25f287719a41696,605ff0e5c03ea5a598d0817b,I am not familiar with Spanish,Midwest,NA,no,2021-03-27_22h59.22.427,empathy_intonation_perc,2020.2.10,MacIntel,60,,,,,,,,,,0,,,,,,,,,,,,,,,,,,,,,,,,,,,,,,,,,,,,,,,,8,cadea,,,1,0,0.77633,0,3,3,7,1,REAL,FAKE,,,,,,,,,,,,,,,,,,,,,
,,,,,,,6037034f07abbf728431e247,605b45a4d25f287719a41696,605ff0e5c03ea5a598d0817b,I am not familiar with Spanish,Midwest,NA,no,2021-03-27_22h59.22.427,empathy_intonation_perc,2020.2.10,MacIntel,60,,,,,,,,,,1,,,,,,,,,,,,,,,,,,,,,,,,,,,,,,,,,,,,,,,,12,asesinato,,,0,0,0.974405,0,4,4,11,1,REAL,FAKE,,,,,,,,,,,,,,,,,,,,,
,,,,,,,6037034f07abbf728431e247,605b45a4d25f287719a41696,605ff0e5c03ea5a598d0817b,I am not familiar with Spanish,Midwest,NA,no,2021-03-27_22h59.22.427,empathy_intonation_perc,2020.2.10,MacIntel,60,,,,,,,,,,1,,,,,,,,,,,,,,,,,,,,,,,,,,,,,,,,,,,,,,,,28,merodear,,,0,0,1.010235,0,5,5,27,1,REAL,FAKE,,,,,,,,,,,,,,,,,,,,,
,,,,,,,6037034f07abbf728431e247,605b45a4d25f287719a41696,605ff0e5c03ea5a598d0817b,I am not familiar with Spanish,Midwest,NA,no,2021-03-27_22h59.22.427,empathy_intonation_perc,2020.2.10,MacIntel,60,,,,,,,,,,0,,,,,,,,,,,,,,,,,,,,,,,,,,,,,,,,,,,,,,,,35,rompido,,,0,1,0.982955,0,6,6,34,1,REAL,FAKE,,,,,,,,,,,,,,,,,,,,,
,,,,,,,6037034f07abbf728431e247,605b45a4d25f287719a41696,605ff0e5c03ea5a598d0817b,I am not familiar with Spanish,Midwest,NA,no,2021-03-27_22h59.22.427,empathy_intonation_perc,2020.2.10,MacIntel,60,,,,,,,,,,0,,,,,,,,,,,,,,,,,,,,,,,,,,,,,,,,,,,,,,,,17,floroso,,,1,0,0.98035,0,7,7,16,1,REAL,FAKE,,,,,,,,,,,,,,,,,,,,,
,,,,,,,6037034f07abbf728431e247,605b45a4d25f287719a41696,605ff0e5c03ea5a598d0817b,I am not familiar with Spanish,Midwest,NA,no,2021-03-27_22h59.22.427,empathy_intonation_perc,2020.2.10,MacIntel,60,,,,,,,,,,0,,,,,,,,,,,,,,,,,,,,,,,,,,,,,,,,,,,,,,,,79,tropaje,,,1,0,0.77588,0,8,8,78,1,REAL,FAKE,,,,,,,,,,,,,,,,,,,,,
,,,,,,,6037034f07abbf728431e247,605b45a4d25f287719a41696,605ff0e5c03ea5a598d0817b,I am not familiar with Spanish,Midwest,NA,no,2021-03-27_22h59.22.427,empathy_intonation_perc,2020.2.10,MacIntel,60,,,,,,,,,,1,,,,,,,,,,,,,,,,,,,,,,,,,,,,,,,,,,,,,,,,64,orgulloso,,,0,0,0.85883,0,9,9,63,1,REAL,FAKE,,,,,,,,,,,,,,,,,,,,,
,,,,,,,6037034f07abbf728431e247,605b45a4d25f287719a41696,605ff0e5c03ea5a598d0817b,I am not familiar with Spanish,Midwest,NA,no,2021-03-27_22h59.22.427,empathy_intonation_perc,2020.2.10,MacIntel,60,,,,,,,,,,0,,,,,,,,,,,,,,,,,,,,,,,,,,,,,,,,,,,,,,,,63,esposante,,,1,0,0.866945,0,10,10,62,1,REAL,FAKE,,,,,,,,,,,,,,,,,,,,,
,,,,,,,6037034f07abbf728431e247,605b45a4d25f287719a41696,605ff0e5c03ea5a598d0817b,I am not familiar with Spanish,Midwest,NA,no,2021-03-27_22h59.22.427,empathy_intonation_perc,2020.2.10,MacIntel,60,,,,,,,,,,0,,,,,,,,,,,,,,,,,,,,,,,,,,,,,,,,,,,,,,,,42,cadallo,,,1,0,0.733455,0,11,11,41,1,REAL,FAKE,,,,,,,,,,,,,,,,,,,,,
,,,,,,,6037034f07abbf728431e247,605b45a4d25f287719a41696,605ff0e5c03ea5a598d0817b,I am not familiar with Spanish,Midwest,NA,no,2021-03-27_22h59.22.427,empathy_intonation_perc,2020.2.10,MacIntel,60,,,,,,,,,,1,,,,,,,,,,,,,,,,,,,,,,,,,,,,,,,,,,,,,,,,22,lacayo,,,0,0,0.683275,0,12,12,21,1,REAL,FAKE,,,,,,,,,,,,,,,,,,,,,
,,,,,,,6037034f07abbf728431e247,605b45a4d25f287719a41696,605ff0e5c03ea5a598d0817b,I am not familiar with Spanish,Midwest,NA,no,2021-03-27_22h59.22.427,empathy_intonation_perc,2020.2.10,MacIntel,60,,,,,,,,,,1,,,,,,,,,,,,,,,,,,,,,,,,,,,,,,,,,,,,,,,,71,polvoriento,,,1,1,1.02694,0,13,13,70,1,REAL,FAKE,,,,,,,,,,,,,,,,,,,,,
,,,,,,,6037034f07abbf728431e247,605b45a4d25f287719a41696,605ff0e5c03ea5a598d0817b,I am not familiar with Spanish,Midwest,NA,no,2021-03-27_22h59.22.427,empathy_intonation_perc,2020.2.10,MacIntel,60,,,,,,,,,,1,,,,,,,,,,,,,,,,,,,,,,,,,,,,,,,,,,,,,,,,67,cabello,,,1,1,0.744805,0,14,14,66,1,REAL,FAKE,,,,,,,,,,,,,,,,,,,,,
,,,,,,,6037034f07abbf728431e247,605b45a4d25f287719a41696,605ff0e5c03ea5a598d0817b,I am not familiar with Spanish,Midwest,NA,no,2021-03-27_22h59.22.427,empathy_intonation_perc,2020.2.10,MacIntel,60,,,,,,,,,,1,,,,,,,,,,,,,,,,,,,,,,,,,,,,,,,,,,,,,,,,61,seda,,,1,1,1.04659,0,15,15,60,1,REAL,FAKE,,,,,,,,,,,,,,,,,,,,,
,,,,,,,6037034f07abbf728431e247,605b45a4d25f287719a41696,605ff0e5c03ea5a598d0817b,I am not familiar with Spanish,Midwest,NA,no,2021-03-27_22h59.22.427,empathy_intonation_perc,2020.2.10,MacIntel,60,,,,,,,,,,1,,,,,,,,,,,,,,,,,,,,,,,,,,,,,,,,,,,,,,,,60,matar,,,1,1,0.66183,0,16,16,59,1,REAL,FAKE,,,,,,,,,,,,,,,,,,,,,
,,,,,,,6037034f07abbf728431e247,605b45a4d25f287719a41696,605ff0e5c03ea5a598d0817b,I am not familiar with Spanish,Midwest,NA,no,2021-03-27_22h59.22.427,empathy_intonation_perc,2020.2.10,MacIntel,60,,,,,,,,,,0,,,,,,,,,,,,,,,,,,,,,,,,,,,,,,,,,,,,,,,,70,temblo,,,1,0,0.99271,0,17,17,69,1,REAL,FAKE,,,,,,,,,,,,,,,,,,,,,
,,,,,,,6037034f07abbf728431e247,605b45a4d25f287719a41696,605ff0e5c03ea5a598d0817b,I am not familiar with Spanish,Midwest,NA,no,2021-03-27_22h59.22.427,empathy_intonation_perc,2020.2.10,MacIntel,60,,,,,,,,,,1,,,,,,,,,,,,,,,,,,,,,,,,,,,,,,,,,,,,,,,,41,rebuscar,,,1,1,0.69283,0,18,18,40,1,REAL,FAKE,,,,,,,,,,,,,,,,,,,,,
,,,,,,,6037034f07abbf728431e247,605b45a4d25f287719a41696,605ff0e5c03ea5a598d0817b,I am not familiar with Spanish,Midwest,NA,no,2021-03-27_22h59.22.427,empathy_intonation_perc,2020.2.10,MacIntel,60,,,,,,,,,,0,,,,,,,,,,,,,,,,,,,,,,,,,,,,,,,,,,,,,,,,18,arsa,,,0,1,0.79273,0,19,19,17,1,REAL,FAKE,,,,,,,,,,,,,,,,,,,,,
,,,,,,,6037034f07abbf728431e247,605b45a4d25f287719a41696,605ff0e5c03ea5a598d0817b,I am not familiar with Spanish,Midwest,NA,no,2021-03-27_22h59.22.427,empathy_intonation_perc,2020.2.10,MacIntel,60,,,,,,,,,,0,,,,,,,,,,,,,,,,,,,,,,,,,,,,,,,,,,,,,,,,10,antar,,,0,1,2.196305,0,20,20,9,1,REAL,FAKE,,,,,,,,,,,,,,,,,,,,,
,,,,,,,6037034f07abbf728431e247,605b45a4d25f287719a41696,605ff0e5c03ea5a598d0817b,I am not familiar with Spanish,Midwest,NA,no,2021-03-27_22h59.22.427,empathy_intonation_perc,2020.2.10,MacIntel,60,,,,,,,,,,1,,,,,,,,,,,,,,,,,,,,,,,,,,,,,,,,,,,,,,,,89,prisa,,,0,0,1.143,0,21,21,88,1,REAL,FAKE,,,,,,,,,,,,,,,,,,,,,
,,,,,,,6037034f07abbf728431e247,605b45a4d25f287719a41696,605ff0e5c03ea5a598d0817b,I am not familiar with Spanish,Midwest,NA,no,2021-03-27_22h59.22.427,empathy_intonation_perc,2020.2.10,MacIntel,60,,,,,,,,,,1,,,,,,,,,,,,,,,,,,,,,,,,,,,,,,,,,,,,,,,,57,tacao,,,1,1,1.07586,0,22,22,56,1,REAL,FAKE,,,,,,,,,,,,,,,,,,,,,
,,,,,,,6037034f07abbf728431e247,605b45a4d25f287719a41696,605ff0e5c03ea5a598d0817b,I am not familiar with Spanish,Midwest,NA,no,2021-03-27_22h59.22.427,empathy_intonation_perc,2020.2.10,MacIntel,60,,,,,,,,,,1,,,,,,,,,,,,,,,,,,,,,,,,,,,,,,,,,,,,,,,,62,flaco,,,0,0,1.3254,0,23,23,61,1,REAL,FAKE,,,,,,,,,,,,,,,,,,,,,
,,,,,,,6037034f07abbf728431e247,605b45a4d25f287719a41696,605ff0e5c03ea5a598d0817b,I am not familiar with Spanish,Midwest,NA,no,2021-03-27_22h59.22.427,empathy_intonation_perc,2020.2.10,MacIntel,60,,,,,,,,,,0,,,,,,,,,,,,,,,,,,,,,,,,,,,,,,,,,,,,,,,,29,decar,,,0,1,1.09567,0,24,24,28,1,REAL,FAKE,,,,,,,,,,,,,,,,,,,,,
,,,,,,,6037034f07abbf728431e247,605b45a4d25f287719a41696,605ff0e5c03ea5a598d0817b,I am not familiar with Spanish,Midwest,NA,no,2021-03-27_22h59.22.427,empathy_intonation_perc,2020.2.10,MacIntel,60,,,,,,,,,,1,,,,,,,,,,,,,,,,,,,,,,,,,,,,,,,,,,,,,,,,65,bizcocho,,,0,0,2.42756,0,25,25,64,1,REAL,FAKE,,,,,,,,,,,,,,,,,,,,,
,,,,,,,6037034f07abbf728431e247,605b45a4d25f287719a41696,605ff0e5c03ea5a598d0817b,I am not familiar with Spanish,Midwest,NA,no,2021-03-27_22h59.22.427,empathy_intonation_perc,2020.2.10,MacIntel,60,,,,,,,,,,0,,,,,,,,,,,,,,,,,,,,,,,,,,,,,,,,,,,,,,,,58,plaudir,,,1,0,1.090745,0,26,26,57,1,REAL,FAKE,,,,,,,,,,,,,,,,,,,,,
,,,,,,,6037034f07abbf728431e247,605b45a4d25f287719a41696,605ff0e5c03ea5a598d0817b,I am not familiar with Spanish,Midwest,NA,no,2021-03-27_22h59.22.427,empathy_intonation_perc,2020.2.10,MacIntel,60,,,,,,,,,,0,,,,,,,,,,,,,,,,,,,,,,,,,,,,,,,,,,,,,,,,19,brecedad,,,0,1,1.28005,0,27,27,18,1,REAL,FAKE,,,,,,,,,,,,,,,,,,,,,
,,,,,,,6037034f07abbf728431e247,605b45a4d25f287719a41696,605ff0e5c03ea5a598d0817b,I am not familiar with Spanish,Midwest,NA,no,2021-03-27_22h59.22.427,empathy_intonation_perc,2020.2.10,MacIntel,60,,,,,,,,,,1,,,,,,,,,,,,,,,,,,,,,,,,,,,,,,,,,,,,,,,,9,hacha,,,1,1,1.26334,0,28,28,8,1,REAL,FAKE,,,,,,,,,,,,,,,,,,,,,
,,,,,,,6037034f07abbf728431e247,605b45a4d25f287719a41696,605ff0e5c03ea5a598d0817b,I am not familiar with Spanish,Midwest,NA,no,2021-03-27_22h59.22.427,empathy_intonation_perc,2020.2.10,MacIntel,60,,,,,,,,,,0,,,,,,,,,,,,,,,,,,,,,,,,,,,,,,,,,,,,,,,,47,cartinar,,,1,0,0.727025,0,29,29,46,1,REAL,FAKE,,,,,,,,,,,,,,,,,,,,,
,,,,,,,6037034f07abbf728431e247,605b45a4d25f287719a41696,605ff0e5c03ea5a598d0817b,I am not familiar with Spanish,Midwest,NA,no,2021-03-27_22h59.22.427,empathy_intonation_perc,2020.2.10,MacIntel,60,,,,,,,,,,1,,,,,,,,,,,,,,,,,,,,,,,,,,,,,,,,,,,,,,,,20,vido,,,1,1,0.777635,0,30,30,19,1,REAL,FAKE,,,,,,,,,,,,,,,,,,,,,
,,,,,,,6037034f07abbf728431e247,605b45a4d25f287719a41696,605ff0e5c03ea5a598d0817b,I am not familiar with Spanish,Midwest,NA,no,2021-03-27_22h59.22.427,empathy_intonation_perc,2020.2.10,MacIntel,60,,,,,,,,,,1,,,,,,,,,,,,,,,,,,,,,,,,,,,,,,,,,,,,,,,,5,zapato,,,1,1,0.97585,0,31,31,4,1,REAL,FAKE,,,,,,,,,,,,,,,,,,,,,
,,,,,,,6037034f07abbf728431e247,605b45a4d25f287719a41696,605ff0e5c03ea5a598d0817b,I am not familiar with Spanish,Midwest,NA,no,2021-03-27_22h59.22.427,empathy_intonation_perc,2020.2.10,MacIntel,60,,,,,,,,,,1,,,,,,,,,,,,,,,,,,,,,,,,,,,,,,,,,,,,,,,,52,camisa,,,0,0,0.93477,0,32,32,51,1,REAL,FAKE,,,,,,,,,,,,,,,,,,,,,
,,,,,,,6037034f07abbf728431e247,605b45a4d25f287719a41696,605ff0e5c03ea5a598d0817b,I am not familiar with Spanish,Midwest,NA,no,2021-03-27_22h59.22.427,empathy_intonation_perc,2020.2.10,MacIntel,60,,,,,,,,,,1,,,,,,,,,,,,,,,,,,,,,,,,,,,,,,,,,,,,,,,,51,candado,,,0,0,0.77638,0,33,33,50,1,REAL,FAKE,,,,,,,,,,,,,,,,,,,,,
,,,,,,,6037034f07abbf728431e247,605b45a4d25f287719a41696,605ff0e5c03ea5a598d0817b,I am not familiar with Spanish,Midwest,NA,no,2021-03-27_22h59.22.427,empathy_intonation_perc,2020.2.10,MacIntel,60,,,,,,,,,,1,,,,,,,,,,,,,,,,,,,,,,,,,,,,,,,,,,,,,,,,59,besar,,,0,0,1.412805,0,34,34,58,1,REAL,FAKE,,,,,,,,,,,,,,,,,,,,,
,,,,,,,6037034f07abbf728431e247,605b45a4d25f287719a41696,605ff0e5c03ea5a598d0817b,I am not familiar with Spanish,Midwest,NA,no,2021-03-27_22h59.22.427,empathy_intonation_perc,2020.2.10,MacIntel,60,,,,,,,,,,0,,,,,,,,,,,,,,,,,,,,,,,,,,,,,,,,,,,,,,,,1,terzo,,,0,1,0.73105,0,35,35,0,1,REAL,FAKE,,,,,,,,,,,,,,,,,,,,,
,,,,,,,6037034f07abbf728431e247,605b45a4d25f287719a41696,605ff0e5c03ea5a598d0817b,I am not familiar with Spanish,Midwest,NA,no,2021-03-27_22h59.22.427,empathy_intonation_perc,2020.2.10,MacIntel,60,,,,,,,,,,1,,,,,,,,,,,,,,,,,,,,,,,,,,,,,,,,,,,,,,,,36,loro,,,0,0,1.09468,0,36,36,35,1,REAL,FAKE,,,,,,,,,,,,,,,,,,,,,
,,,,,,,6037034f07abbf728431e247,605b45a4d25f287719a41696,605ff0e5c03ea5a598d0817b,I am not familiar with Spanish,Midwest,NA,no,2021-03-27_22h59.22.427,empathy_intonation_perc,2020.2.10,MacIntel,60,,,,,,,,,,0,,,,,,,,,,,,,,,,,,,,,,,,,,,,,,,,,,,,,,,,82,empirador,,,0,1,1.764745,0,37,37,81,1,REAL,FAKE,,,,,,,,,,,,,,,,,,,,,
,,,,,,,6037034f07abbf728431e247,605b45a4d25f287719a41696,605ff0e5c03ea5a598d0817b,I am not familiar with Spanish,Midwest,NA,no,2021-03-27_22h59.22.427,empathy_intonation_perc,2020.2.10,MacIntel,60,,,,,,,,,,0,,,,,,,,,,,,,,,,,,,,,,,,,,,,,,,,,,,,,,,,16,abracer,,,1,0,0.779885,0,38,38,15,1,REAL,FAKE,,,,,,,,,,,,,,,,,,,,,
,,,,,,,6037034f07abbf728431e247,605b45a4d25f287719a41696,605ff0e5c03ea5a598d0817b,I am not familiar with Spanish,Midwest,NA,no,2021-03-27_22h59.22.427,empathy_intonation_perc,2020.2.10,MacIntel,60,,,,,,,,,,0,,,,,,,,,,,,,,,,,,,,,,,,,,,,,,,,,,,,,,,,23,lampera,,,1,0,0.658695,0,39,39,22,1,REAL,FAKE,,,,,,,,,,,,,,,,,,,,,
,,,,,,,6037034f07abbf728431e247,605b45a4d25f287719a41696,605ff0e5c03ea5a598d0817b,I am not familiar with Spanish,Midwest,NA,no,2021-03-27_22h59.22.427,empathy_intonation_perc,2020.2.10,MacIntel,60,,,,,,,,,,1,,,,,,,,,,,,,,,,,,,,,,,,,,,,,,,,,,,,,,,,3,pulmones,,,1,1,0.49558,0,40,40,2,1,REAL,FAKE,,,,,,,,,,,,,,,,,,,,,
,,,,,,,6037034f07abbf728431e247,605b45a4d25f287719a41696,605ff0e5c03ea5a598d0817b,I am not familiar with Spanish,Midwest,NA,no,2021-03-27_22h59.22.427,empathy_intonation_perc,2020.2.10,MacIntel,60,,,,,,,,,,1,,,,,,,,,,,,,,,,,,,,,,,,,,,,,,,,,,,,,,,,83,guante,,,1,1,2.34646,0,41,41,82,1,REAL,FAKE,,,,,,,,,,,,,,,,,,,,,
,,,,,,,6037034f07abbf728431e247,605b45a4d25f287719a41696,605ff0e5c03ea5a598d0817b,I am not familiar with Spanish,Midwest,NA,no,2021-03-27_22h59.22.427,empathy_intonation_perc,2020.2.10,MacIntel,60,,,,,,,,,,1,,,,,,,,,,,,,,,,,,,,,,,,,,,,,,,,,,,,,,,,80,hormiga,,,0,0,1.666725,0,42,42,79,1,REAL,FAKE,,,,,,,,,,,,,,,,,,,,,
,,,,,,,6037034f07abbf728431e247,605b45a4d25f287719a41696,605ff0e5c03ea5a598d0817b,I am not familiar with Spanish,Midwest,NA,no,2021-03-27_22h59.22.427,empathy_intonation_perc,2020.2.10,MacIntel,60,,,,,,,,,,1,,,,,,,,,,,,,,,,,,,,,,,,,,,,,,,,,,,,,,,,78,frondoso,,,0,0,5.35531,0,43,43,77,1,REAL,FAKE,,,,,,,,,,,,,,,,,,,,,
,,,,,,,6037034f07abbf728431e247,605b45a4d25f287719a41696,605ff0e5c03ea5a598d0817b,I am not familiar with Spanish,Midwest,NA,no,2021-03-27_22h59.22.427,empathy_intonation_perc,2020.2.10,MacIntel,60,,,,,,,,,,1,,,,,,,,,,,,,,,,,,,,,,,,,,,,,,,,,,,,,,,,26,secuestro,,,0,0,1.011945,0,44,44,25,1,REAL,FAKE,,,,,,,,,,,,,,,,,,,,,
,,,,,,,6037034f07abbf728431e247,605b45a4d25f287719a41696,605ff0e5c03ea5a598d0817b,I am not familiar with Spanish,Midwest,NA,no,2021-03-27_22h59.22.427,empathy_intonation_perc,2020.2.10,MacIntel,60,,,,,,,,,,1,,,,,,,,,,,,,,,,,,,,,,,,,,,,,,,,,,,,,,,,68,alegre,,,1,1,0.884175,0,45,45,67,1,REAL,FAKE,,,,,,,,,,,,,,,,,,,,,
,,,,,,,6037034f07abbf728431e247,605b45a4d25f287719a41696,605ff0e5c03ea5a598d0817b,I am not familiar with Spanish,Midwest,NA,no,2021-03-27_22h59.22.427,empathy_intonation_perc,2020.2.10,MacIntel,60,,,,,,,,,,1,,,,,,,,,,,,,,,,,,,,,,,,,,,,,,,,,,,,,,,,14,yunque,,,1,1,1.078145,0,46,46,13,1,REAL,FAKE,,,,,,,,,,,,,,,,,,,,,
,,,,,,,6037034f07abbf728431e247,605b45a4d25f287719a41696,605ff0e5c03ea5a598d0817b,I am not familiar with Spanish,Midwest,NA,no,2021-03-27_22h59.22.427,empathy_intonation_perc,2020.2.10,MacIntel,60,,,,,,,,,,1,,,,,,,,,,,,,,,,,,,,,,,,,,,,,,,,,,,,,,,,55,nevar,,,0,0,0.663965,0,47,47,54,1,REAL,FAKE,,,,,,,,,,,,,,,,,,,,,
,,,,,,,6037034f07abbf728431e247,605b45a4d25f287719a41696,605ff0e5c03ea5a598d0817b,I am not familiar with Spanish,Midwest,NA,no,2021-03-27_22h59.22.427,empathy_intonation_perc,2020.2.10,MacIntel,60,,,,,,,,,,0,,,,,,,,,,,,,,,,,,,,,,,,,,,,,,,,,,,,,,,,32,fatacidad,,,0,1,1.27409,0,48,48,31,1,REAL,FAKE,,,,,,,,,,,,,,,,,,,,,
,,,,,,,6037034f07abbf728431e247,605b45a4d25f287719a41696,605ff0e5c03ea5a598d0817b,I am not familiar with Spanish,Midwest,NA,no,2021-03-27_22h59.22.427,empathy_intonation_perc,2020.2.10,MacIntel,60,,,,,,,,,,0,,,,,,,,,,,,,,,,,,,,,,,,,,,,,,,,,,,,,,,,87,grodo,,,0,1,0.77853,0,49,49,86,1,REAL,FAKE,,,,,,,,,,,,,,,,,,,,,
,,,,,,,6037034f07abbf728431e247,605b45a4d25f287719a41696,605ff0e5c03ea5a598d0817b,I am not familiar with Spanish,Midwest,NA,no,2021-03-27_22h59.22.427,empathy_intonation_perc,2020.2.10,MacIntel,60,,,,,,,,,,0,,,,,,,,,,,,,,,,,,,,,,,,,,,,,,,,,,,,,,,,21,capillo,,,1,0,1.028775,0,50,50,20,1,REAL,FAKE,,,,,,,,,,,,,,,,,,,,,
,,,,,,,6037034f07abbf728431e247,605b45a4d25f287719a41696,605ff0e5c03ea5a598d0817b,I am not familiar with Spanish,Midwest,NA,no,2021-03-27_22h59.22.427,empathy_intonation_perc,2020.2.10,MacIntel,60,,,,,,,,,,0,,,,,,,,,,,,,,,,,,,,,,,,,,,,,,,,,,,,,,,,4,batilln,,,1,0,0.944915,0,51,51,3,1,REAL,FAKE,,,,,,,,,,,,,,,,,,,,,
,,,,,,,6037034f07abbf728431e247,605b45a4d25f287719a41696,605ff0e5c03ea5a598d0817b,I am not familiar with Spanish,Midwest,NA,no,2021-03-27_22h59.22.427,empathy_intonation_perc,2020.2.10,MacIntel,60,,,,,,,,,,1,,,,,,,,,,,,,,,,,,,,,,,,,,,,,,,,,,,,,,,,77,tiburn,,,1,1,0.581125,0,52,52,76,1,REAL,FAKE,,,,,,,,,,,,,,,,,,,,,
,,,,,,,6037034f07abbf728431e247,605b45a4d25f287719a41696,605ff0e5c03ea5a598d0817b,I am not familiar with Spanish,Midwest,NA,no,2021-03-27_22h59.22.427,empathy_intonation_perc,2020.2.10,MacIntel,60,,,,,,,,,,1,,,,,,,,,,,,,,,,,,,,,,,,,,,,,,,,,,,,,,,,37,granuja,,,0,0,0.643285,0,53,53,36,1,REAL,FAKE,,,,,,,,,,,,,,,,,,,,,
,,,,,,,6037034f07abbf728431e247,605b45a4d25f287719a41696,605ff0e5c03ea5a598d0817b,I am not familiar with Spanish,Midwest,NA,no,2021-03-27_22h59.22.427,empathy_intonation_perc,2020.2.10,MacIntel,60,,,,,,,,,,1,,,,,,,,,,,,,,,,,,,,,,,,,,,,,,,,,,,,,,,,56,musgo,,,0,0,0.960305,0,54,54,55,1,REAL,FAKE,,,,,,,,,,,,,,,,,,,,,
,,,,,,,6037034f07abbf728431e247,605b45a4d25f287719a41696,605ff0e5c03ea5a598d0817b,I am not familiar with Spanish,Midwest,NA,no,2021-03-27_22h59.22.427,empathy_intonation_perc,2020.2.10,MacIntel,60,,,,,,,,,,1,,,,,,,,,,,,,,,,,,,,,,,,,,,,,,,,,,,,,,,,76,atar,,,0,0,0.693465,0,55,55,75,1,REAL,FAKE,,,,,,,,,,,,,,,,,,,,,
,,,,,,,6037034f07abbf728431e247,605b45a4d25f287719a41696,605ff0e5c03ea5a598d0817b,I am not familiar with Spanish,Midwest,NA,no,2021-03-27_22h59.22.427,empathy_intonation_perc,2020.2.10,MacIntel,60,,,,,,,,,,0,,,,,,,,,,,,,,,,,,,,,,,,,,,,,,,,,,,,,,,,27,acutacin,,,0,1,0.679355,0,56,56,26,1,REAL,FAKE,,,,,,,,,,,,,,,,,,,,,
,,,,,,,6037034f07abbf728431e247,605b45a4d25f287719a41696,605ff0e5c03ea5a598d0817b,I am not familiar with Spanish,Midwest,NA,no,2021-03-27_22h59.22.427,empathy_intonation_perc,2020.2.10,MacIntel,60,,,,,,,,,,1,,,,,,,,,,,,,,,,,,,,,,,,,,,,,,,,,,,,,,,,6,tergiversar,,,0,0,0.64337,0,57,57,5,1,REAL,FAKE,,,,,,,,,,,,,,,,,,,,,
,,,,,,,6037034f07abbf728431e247,605b45a4d25f287719a41696,605ff0e5c03ea5a598d0817b,I am not familiar with Spanish,Midwest,NA,no,2021-03-27_22h59.22.427,empathy_intonation_perc,2020.2.10,MacIntel,60,,,,,,,,,,1,,,,,,,,,,,,,,,,,,,,,,,,,,,,,,,,,,,,,,,,34,aviso,,,0,0,0.53194,0,58,58,33,1,REAL,FAKE,,,,,,,,,,,,,,,,,,,,,
,,,,,,,6037034f07abbf728431e247,605b45a4d25f287719a41696,605ff0e5c03ea5a598d0817b,I am not familiar with Spanish,Midwest,NA,no,2021-03-27_22h59.22.427,empathy_intonation_perc,2020.2.10,MacIntel,60,,,,,,,,,,1,,,,,,,,,,,,,,,,,,,,,,,,,,,,,,,,,,,,,,,,40,alfombra,,,0,0,1.42362,0,59,59,39,1,REAL,FAKE,,,,,,,,,,,,,,,,,,,,,
,,,,,,,6037034f07abbf728431e247,605b45a4d25f287719a41696,605ff0e5c03ea5a598d0817b,I am not familiar with Spanish,Midwest,NA,no,2021-03-27_22h59.22.427,empathy_intonation_perc,2020.2.10,MacIntel,60,,,,,,,,,,1,,,,,,,,,,,,,,,,,,,,,,,,,,,,,,,,,,,,,,,,85,lad,,,1,1,1.54871,0,60,60,84,1,REAL,FAKE,,,,,,,,,,,,,,,,,,,,,
,,,,,,,6037034f07abbf728431e247,605b45a4d25f287719a41696,605ff0e5c03ea5a598d0817b,I am not familiar with Spanish,Midwest,NA,no,2021-03-27_22h59.22.427,empathy_intonation_perc,2020.2.10,MacIntel,60,,,,,,,,,,1,,,,,,,,,,,,,,,,,,,,,,,,,,,,,,,,,,,,,,,,2,pellizcar,,,1,1,1.19751,0,61,61,1,1,REAL,FAKE,,,,,,,,,,,,,,,,,,,,,
,,,,,,,6037034f07abbf728431e247,605b45a4d25f287719a41696,605ff0e5c03ea5a598d0817b,I am not familiar with Spanish,Midwest,NA,no,2021-03-27_22h59.22.427,empathy_intonation_perc,2020.2.10,MacIntel,60,,,,,,,,,,0,,,,,,,,,,,,,,,,,,,,,,,,,,,,,,,,,,,,,,,,50,flamida,,,0,1,1.526565,0,62,62,49,1,REAL,FAKE,,,,,,,,,,,,,,,,,,,,,
,,,,,,,6037034f07abbf728431e247,605b45a4d25f287719a41696,605ff0e5c03ea5a598d0817b,I am not familiar with Spanish,Midwest,NA,no,2021-03-27_22h59.22.427,empathy_intonation_perc,2020.2.10,MacIntel,60,,,,,,,,,,1,,,,,,,,,,,,,,,,,,,,,,,,,,,,,,,,,,,,,,,,90,clavel,,,1,1,1.045765,0,63,63,89,1,REAL,FAKE,,,,,,,,,,,,,,,,,,,,,
,,,,,,,6037034f07abbf728431e247,605b45a4d25f287719a41696,605ff0e5c03ea5a598d0817b,I am not familiar with Spanish,Midwest,NA,no,2021-03-27_22h59.22.427,empathy_intonation_perc,2020.2.10,MacIntel,60,,,,,,,,,,1,,,,,,,,,,,,,,,,,,,,,,,,,,,,,,,,,,,,,,,,43,canela,,,0,0,2.6077,0,64,64,42,1,REAL,FAKE,,,,,,,,,,,,,,,,,,,,,
,,,,,,,6037034f07abbf728431e247,605b45a4d25f287719a41696,605ff0e5c03ea5a598d0817b,I am not familiar with Spanish,Midwest,NA,no,2021-03-27_22h59.22.427,empathy_intonation_perc,2020.2.10,MacIntel,60,,,,,,,,,,1,,,,,,,,,,,,,,,,,,,,,,,,,,,,,,,,,,,,,,,,73,hervidor,,,0,0,1.24259,0,65,65,72,1,REAL,FAKE,,,,,,,,,,,,,,,,,,,,,
,,,,,,,6037034f07abbf728431e247,605b45a4d25f287719a41696,605ff0e5c03ea5a598d0817b,I am not familiar with Spanish,Midwest,NA,no,2021-03-27_22h59.22.427,empathy_intonation_perc,2020.2.10,MacIntel,60,,,,,,,,,,1,,,,,,,,,,,,,,,,,,,,,,,,,,,,,,,,,,,,,,,,11,cenefa,,,0,0,0.82279,0,66,66,10,1,REAL,FAKE,,,,,,,,,,,,,,,,,,,,,
,,,,,,,6037034f07abbf728431e247,605b45a4d25f287719a41696,605ff0e5c03ea5a598d0817b,I am not familiar with Spanish,Midwest,NA,no,2021-03-27_22h59.22.427,empathy_intonation_perc,2020.2.10,MacIntel,60,,,,,,,,,,1,,,,,,,,,,,,,,,,,,,,,,,,,,,,,,,,,,,,,,,,31,pandilla,,,0,0,1.11264,0,67,67,30,1,REAL,FAKE,,,,,,,,,,,,,,,,,,,,,
,,,,,,,6037034f07abbf728431e247,605b45a4d25f287719a41696,605ff0e5c03ea5a598d0817b,I am not familiar with Spanish,Midwest,NA,no,2021-03-27_22h59.22.427,empathy_intonation_perc,2020.2.10,MacIntel,60,,,,,,,,,,1,,,,,,,,,,,,,,,,,,,,,,,,,,,,,,,,,,,,,,,,25,bisagra,,,0,0,1.726975,0,68,68,24,1,REAL,FAKE,,,,,,,,,,,,,,,,,,,,,
,,,,,,,6037034f07abbf728431e247,605b45a4d25f287719a41696,605ff0e5c03ea5a598d0817b,I am not familiar with Spanish,Midwest,NA,no,2021-03-27_22h59.22.427,empathy_intonation_perc,2020.2.10,MacIntel,60,,,,,,,,,,0,,,,,,,,,,,,,,,,,,,,,,,,,,,,,,,,,,,,,,,,53,vegada,,,1,0,0.675835,0,69,69,52,1,REAL,FAKE,,,,,,,,,,,,,,,,,,,,,
,,,,,,,6037034f07abbf728431e247,605b45a4d25f287719a41696,605ff0e5c03ea5a598d0817b,I am not familiar with Spanish,Midwest,NA,no,2021-03-27_22h59.22.427,empathy_intonation_perc,2020.2.10,MacIntel,60,,,,,,,,,,1,,,,,,,,,,,,,,,,,,,,,,,,,,,,,,,,,,,,,,,,45,jilguero,,,0,0,0.9464,0,70,70,44,1,REAL,FAKE,,,,,,,,,,,,,,,,,,,,,
,,,,,,,6037034f07abbf728431e247,605b45a4d25f287719a41696,605ff0e5c03ea5a598d0817b,I am not familiar with Spanish,Midwest,NA,no,2021-03-27_22h59.22.427,empathy_intonation_perc,2020.2.10,MacIntel,60,,,,,,,,,,0,,,,,,,,,,,,,,,,,,,,,,,,,,,,,,,,,,,,,,,,72,pemicin,,,1,0,0.86425,0,71,71,71,1,REAL,FAKE,,,,,,,,,,,,,,,,,,,,,
,,,,,,,6037034f07abbf728431e247,605b45a4d25f287719a41696,605ff0e5c03ea5a598d0817b,I am not familiar with Spanish,Midwest,NA,no,2021-03-27_22h59.22.427,empathy_intonation_perc,2020.2.10,MacIntel,60,,,,,,,,,,1,,,,,,,,,,,,,,,,,,,,,,,,,,,,,,,,,,,,,,,,75,yacer,,,1,1,0.959565,0,72,72,74,1,REAL,FAKE,,,,,,,,,,,,,,,,,,,,,
,,,,,,,6037034f07abbf728431e247,605b45a4d25f287719a41696,605ff0e5c03ea5a598d0817b,I am not familiar with Spanish,Midwest,NA,no,2021-03-27_22h59.22.427,empathy_intonation_perc,2020.2.10,MacIntel,60,,,,,,,,,,0,,,,,,,,,,,,,,,,,,,,,,,,,,,,,,,,,,,,,,,,30,alardio,,,0,1,3.358565,0,73,73,29,1,REAL,FAKE,,,,,,,,,,,,,,,,,,,,,
,,,,,,,6037034f07abbf728431e247,605b45a4d25f287719a41696,605ff0e5c03ea5a598d0817b,I am not familiar with Spanish,Midwest,NA,no,2021-03-27_22h59.22.427,empathy_intonation_perc,2020.2.10,MacIntel,60,,,,,,,,,,0,,,,,,,,,,,,,,,,,,,,,,,,,,,,,,,,,,,,,,,,33,pauca,,,0,1,1.341335,0,74,74,32,1,REAL,FAKE,,,,,,,,,,,,,,,,,,,,,
,,,,,,,6037034f07abbf728431e247,605b45a4d25f287719a41696,605ff0e5c03ea5a598d0817b,I am not familiar with Spanish,Midwest,NA,no,2021-03-27_22h59.22.427,empathy_intonation_perc,2020.2.10,MacIntel,60,,,,,,,,,,0,,,,,,,,,,,,,,,,,,,,,,,,,,,,,,,,,,,,,,,,74,cintro,,,1,0,1.005815,0,75,75,73,1,REAL,FAKE,,,,,,,,,,,,,,,,,,,,,
,,,,,,,6037034f07abbf728431e247,605b45a4d25f287719a41696,605ff0e5c03ea5a598d0817b,I am not familiar with Spanish,Midwest,NA,no,2021-03-27_22h59.22.427,empathy_intonation_perc,2020.2.10,MacIntel,60,,,,,,,,,,1,,,,,,,,,,,,,,,,,,,,,,,,,,,,,,,,,,,,,,,,39,torpe,,,1,1,2.309085,0,76,76,38,1,REAL,FAKE,,,,,,,,,,,,,,,,,,,,,
,,,,,,,6037034f07abbf728431e247,605b45a4d25f287719a41696,605ff0e5c03ea5a598d0817b,I am not familiar with Spanish,Midwest,NA,no,2021-03-27_22h59.22.427,empathy_intonation_perc,2020.2.10,MacIntel,60,,,,,,,,,,1,,,,,,,,,,,,,,,,,,,,,,,,,,,,,,,,,,,,,,,,48,ladrn,,,1,1,0.930205,0,77,77,47,1,REAL,FAKE,,,,,,,,,,,,,,,,,,,,,
,,,,,,,6037034f07abbf728431e247,605b45a4d25f287719a41696,605ff0e5c03ea5a598d0817b,I am not familiar with Spanish,Midwest,NA,no,2021-03-27_22h59.22.427,empathy_intonation_perc,2020.2.10,MacIntel,60,,,,,,,,,,1,,,,,,,,,,,,,,,,,,,,,,,,,,,,,,,,,,,,,,,,81,pozo,,,0,0,0.72733,0,78,78,80,1,REAL,FAKE,,,,,,,,,,,,,,,,,,,,,
,,,,,,,6037034f07abbf728431e247,605b45a4d25f287719a41696,605ff0e5c03ea5a598d0817b,I am not familiar with Spanish,Midwest,NA,no,2021-03-27_22h59.22.427,empathy_intonation_perc,2020.2.10,MacIntel,60,,,,,,,,,,1,,,,,,,,,,,,,,,,,,,,,,,,,,,,,,,,,,,,,,,,49,ganar,,,0,0,0.80979,0,79,79,48,1,REAL,FAKE,,,,,,,,,,,,,,,,,,,,,
,,,,,,,6037034f07abbf728431e247,605b45a4d25f287719a41696,605ff0e5c03ea5a598d0817b,I am not familiar with Spanish,Midwest,NA,no,2021-03-27_22h59.22.427,empathy_intonation_perc,2020.2.10,MacIntel,60,,,,,,,,,,0,,,,,,,,,,,,,,,,,,,,,,,,,,,,,,,,,,,,,,,,66,hacido,,,1,0,1.3291,0,80,80,65,1,REAL,FAKE,,,,,,,,,,,,,,,,,,,,,
,,,,,,,6037034f07abbf728431e247,605b45a4d25f287719a41696,605ff0e5c03ea5a598d0817b,I am not familiar with Spanish,Midwest,NA,no,2021-03-27_22h59.22.427,empathy_intonation_perc,2020.2.10,MacIntel,60,,,,,,,,,,1,,,,,,,,,,,,,,,,,,,,,,,,,,,,,,,,,,,,,,,,86,barato,,,0,0,7.51094,0,81,81,85,1,REAL,FAKE,,,,,,,,,,,,,,,,,,,,,
,,,,,,,6037034f07abbf728431e247,605b45a4d25f287719a41696,605ff0e5c03ea5a598d0817b,I am not familiar with Spanish,Midwest,NA,no,2021-03-27_22h59.22.427,empathy_intonation_perc,2020.2.10,MacIntel,60,,,,,,,,,,1,,,,,,,,,,,,,,,,,,,,,,,,,,,,,,,,,,,,,,,,13,helar,,,0,0,0.65827,0,82,82,12,1,REAL,FAKE,,,,,,,,,,,,,,,,,,,,,
,,,,,,,6037034f07abbf728431e247,605b45a4d25f287719a41696,605ff0e5c03ea5a598d0817b,I am not familiar with Spanish,Midwest,NA,no,2021-03-27_22h59.22.427,empathy_intonation_perc,2020.2.10,MacIntel,60,,,,,,,,,,1,,,,,,,,,,,,,,,,,,,,,,,,,,,,,,,,,,,,,,,,88,acantilado,,,0,0,1.1147,0,83,83,87,1,REAL,FAKE,,,,,,,,,,,,,,,,,,,,,
,,,,,,,6037034f07abbf728431e247,605b45a4d25f287719a41696,605ff0e5c03ea5a598d0817b,I am not familiar with Spanish,Midwest,NA,no,2021-03-27_22h59.22.427,empathy_intonation_perc,2020.2.10,MacIntel,60,,,,,,,,,,1,,,,,,,,,,,,,,,,,,,,,,,,,,,,,,,,,,,,,,,,44,cuchara,,,0,0,1.135375,0,84,84,43,1,REAL,FAKE,,,,,,,,,,,,,,,,,,,,,
,,,,,,,6037034f07abbf728431e247,605b45a4d25f287719a41696,605ff0e5c03ea5a598d0817b,I am not familiar with Spanish,Midwest,NA,no,2021-03-27_22h59.22.427,empathy_intonation_perc,2020.2.10,MacIntel,60,,,,,,,,,,1,,,,,,,,,,,,,,,,,,,,,,,,,,,,,,,,,,,,,,,,69,engatusar,,,0,0,1.425175,0,85,85,68,1,REAL,FAKE,,,,,,,,,,,,,,,,,,,,,
,,,,,,,6037034f07abbf728431e247,605b45a4d25f287719a41696,605ff0e5c03ea5a598d0817b,I am not familiar with Spanish,Midwest,NA,no,2021-03-27_22h59.22.427,empathy_intonation_perc,2020.2.10,MacIntel,60,,,,,,,,,,1,,,,,,,,,,,,,,,,,,,,,,,,,,,,,,,,,,,,,,,,15,regar,,,0,0,1.273955,0,86,86,14,1,REAL,FAKE,,,,,,,,,,,,,,,,,,,,,
,,,,,,,6037034f07abbf728431e247,605b45a4d25f287719a41696,605ff0e5c03ea5a598d0817b,I am not familiar with Spanish,Midwest,NA,no,2021-03-27_22h59.22.427,empathy_intonation_perc,2020.2.10,MacIntel,60,,,,,,,,,,1,,,,,,,,,,,,,,,,,,,,,,,,,,,,,,,,,,,,,,,,24,ltigo,,,1,1,2.676915,0,87,87,23,1,REAL,FAKE,,,,,,,,,,,,,,,,,,,,,
,,,,,,,6037034f07abbf728431e247,605b45a4d25f287719a41696,605ff0e5c03ea5a598d0817b,I am not familiar with Spanish,Midwest,NA,no,2021-03-27_22h59.22.427,empathy_intonation_perc,2020.2.10,MacIntel,60,,,,,,,,,,1,,,,,,,,,,,,,,,,,,,,,,,,,,,,,,,,,,,,,,,,46,martillo,,,1,1,5.228685,0,88,88,45,1,REAL,FAKE,,,,,,,,,,,,,,,,,,,,,
,,,,,,,6037034f07abbf728431e247,605b45a4d25f287719a41696,605ff0e5c03ea5a598d0817b,I am not familiar with Spanish,Midwest,NA,no,2021-03-27_22h59.22.427,empathy_intonation_perc,2020.2.10,MacIntel,60,,,,,,,,,,0,,,,,,,,,,,,,,,,,,,,,,,,,,,,,,,,,,,,,,,,84,escuto,,,1,0,0.92859,0,89,89,83,1,REAL,FAKE,,,,,,,,,,,,,,,,,,,,,
