instructions_2afc_loop.thisRepN,instructions_2afc_loop.thisTrialN,instructions_2afc_loop.thisN,instructions_2afc_loop.thisIndex,instructions_2afc_loop.ran,instructions_text,continue_text,participant,study_id,session,I am most familiar with Spanish from...*,What part of the US are you from?*,At what age did you begin learning Spanish?*,Are you proficient in any languages other than English/Spanish?*,date,expName,psychopyVersion,OS,frameRate,key_resp_2afc_practice.keys,key_resp_2afc_practice.corr,key_resp_2afc_practice.rt,trials_2afc_practice_loop.thisRepN,trials_2afc_practice_loop.thisTrialN,trials_2afc_practice_loop.thisN,trials_2afc_practice_loop.thisIndex,trials_2afc_practice_loop.ran,path,correct_response,the_col,key_resp_2afc_trial.keys,key_resp_2afc_trial.corr,key_resp_2afc_trial.rt,trials_2afc_loop.thisRepN,trials_2afc_loop.thisTrialN,trials_2afc_loop.thisN,trials_2afc_loop.thisIndex,trials_2afc_loop.ran,item_num,andalusian,argentine,castilian,chilean,cuban,mexican,peruvian,puertorican,key_resp_ac1.keys,key_resp_ac1.corr,key_resp_ac1.rt,ac1_loop.thisRepN,ac1_loop.thisTrialN,ac1_loop.thisN,ac1_loop.thisIndex,ac1_loop.ran,instructions_lextale_loop.thisRepN,instructions_lextale_loop.thisTrialN,instructions_lextale_loop.thisN,instructions_lextale_loop.thisIndex,instructions_lextale_loop.ran,key_resp_lextale_practice.keys,key_resp_lextale_practice.corr,key_resp_lextale_practice.rt,trials_lextale_practice_loop.thisRepN,trials_lextale_practice_loop.thisTrialN,trials_lextale_practice_loop.thisN,trials_lextale_practice_loop.thisIndex,trials_lextale_practice_loop.ran,stim,word,prac_button_real,prac_button_false,key_resp_lextale_trial.keys,key_resp_lextale_trial.corr,key_resp_lextale_trial.rt,trials_lextale_loop.thisRepN,trials_lextale_loop.thisTrialN,trials_lextale_loop.thisN,trials_lextale_loop.thisIndex,trials_lextale_loop.ran,button_real,button_false,key_resp_ac2.keys,key_resp_ac2.corr,key_resp_ac2.rt,check_pass,check_fails,ac2_loop.thisRepN,ac2_loop.thisTrialN,ac2_loop.thisN,ac2_loop.thisIndex,ac2_loop.ran,slider_eq_trial.response,trials_eq_loop.thisRepN,trials_eq_loop.thisTrialN,trials_eq_loop.thisN,trials_eq_loop.thisIndex,trials_eq_loop.ran,item,is_test_item,is_distractor,is_agree_score,is_disagree_score
0,0,0,0,1,"In the following task you are going to hear a series of utterances. 

  You will decide if the utterances sound like questions or not using your keyboard.",(press the spacebar to continue),604243ad9743df09e0f72587,605b45a4d25f287719a41696,605ba708c286ac8a5a456c39,Mexico,Midwest,13 or older,no,2021-03-24_16h57.39.124,empathy_intonation_perc,2020.2.10,Win32,60,,,,,,,,,,,,,,,,,,,,,,,,,,,,,,,,,,,,,,,,,,,,,,,,,,,,,,,,,,,,,,,,,,,,,,,,,,,,,,,,,,,,
0,1,1,1,1,"If you believe the utterance is a question, type '1' (for 'yes') and if you do not 
  believe it is a question type '0' (for 'no').

  Let's practice a bit...",(press the spacebar to continue),604243ad9743df09e0f72587,605b45a4d25f287719a41696,605ba708c286ac8a5a456c39,Mexico,Midwest,13 or older,no,2021-03-24_16h57.39.124,empathy_intonation_perc,2020.2.10,Win32,60,,,,,,,,,,,,,,,,,,,,,,,,,,,,,,,,,,,,,,,,,,,,,,,,,,,,,,,,,,,,,,,,,,,,,,,,,,,,,,,,,,,,
,,,,,,,604243ad9743df09e0f72587,605b45a4d25f287719a41696,605ba708c286ac8a5a456c39,Mexico,Midwest,13 or older,no,2021-03-24_16h57.39.124,empathy_intonation_perc,2020.2.10,Win32,60,0,1,2.362865,0,0,0,6,1,./stim/wavs/peruvian_statement_filler_El-nino-habla-con-su-madre.wav,0,,,,,,,,,,,,,,,,,,,,,,,,,,,,,,,,,,,,,,,,,,,,,,,,,,,,,,,,,,,,,,,,,,,,,,,,,,
,,,,,,,604243ad9743df09e0f72587,605b45a4d25f287719a41696,605ba708c286ac8a5a456c39,Mexico,Midwest,13 or older,no,2021-03-24_16h57.39.124,empathy_intonation_perc,2020.2.10,Win32,60,0,1,1.680345,0,1,1,4,1,./stim/wavs/cuban_statement_filler_Cocinabas-por-la-noche.wav,0,,,,,,,,,,,,,,,,,,,,,,,,,,,,,,,,,,,,,,,,,,,,,,,,,,,,,,,,,,,,,,,,,,,,,,,,,,
,,,,,,,604243ad9743df09e0f72587,605b45a4d25f287719a41696,605ba708c286ac8a5a456c39,Mexico,Midwest,13 or older,no,2021-03-24_16h57.39.124,empathy_intonation_perc,2020.2.10,Win32,60,0,1,1.983555,0,2,2,7,1,./stim/wavs/puertorican_statement_filler_La-nina-pinta-con-su-amiga.wav,0,,,,,,,,,,,,,,,,,,,,,,,,,,,,,,,,,,,,,,,,,,,,,,,,,,,,,,,,,,,,,,,,,,,,,,,,,,
,,,,,,,604243ad9743df09e0f72587,605b45a4d25f287719a41696,605ba708c286ac8a5a456c39,Mexico,Midwest,13 or older,no,2021-03-24_16h57.39.124,empathy_intonation_perc,2020.2.10,Win32,60,0,1,2.139815,0,3,3,5,1,./stim/wavs/andalusian_statement_filler_Alberto-nunca-se-afeita.wav,0,,,,,,,,,,,,,,,,,,,,,,,,,,,,,,,,,,,,,,,,,,,,,,,,,,,,,,,,,,,,,,,,,,,,,,,,,,
,,,,,,,604243ad9743df09e0f72587,605b45a4d25f287719a41696,605ba708c286ac8a5a456c39,Mexico,Midwest,13 or older,no,2021-03-24_16h57.39.124,empathy_intonation_perc,2020.2.10,Win32,60,1,1,1.896945,0,4,4,0,1,./stim/wavs/castilian_question_filler_Mi-esposo-conoce-al-chico.wav,1,,,,,,,,,,,,,,,,,,,,,,,,,,,,,,,,,,,,,,,,,,,,,,,,,,,,,,,,,,,,,,,,,,,,,,,,,,
,,,,,,,604243ad9743df09e0f72587,605b45a4d25f287719a41696,605ba708c286ac8a5a456c39,Mexico,Midwest,13 or older,no,2021-03-24_16h57.39.124,empathy_intonation_perc,2020.2.10,Win32,60,0,0,1.70566,0,5,5,2,1,./stim/wavs/chilean_question_filler_Mi-padre-cantaba-bien.wav,1,,,,,,,,,,,,,,,,,,,,,,,,,,,,,,,,,,,,,,,,,,,,,,,,,,,,,,,,,,,,,,,,,,,,,,,,,,
,,,,,,,604243ad9743df09e0f72587,605b45a4d25f287719a41696,605ba708c286ac8a5a456c39,Mexico,Midwest,13 or older,no,2021-03-24_16h57.39.124,empathy_intonation_perc,2020.2.10,Win32,60,1,1,1.728675,0,6,6,3,1,./stim/wavs/mexican_question_filler_Felipe-no-tiene-contrasena.wav,1,,,,,,,,,,,,,,,,,,,,,,,,,,,,,,,,,,,,,,,,,,,,,,,,,,,,,,,,,,,,,,,,,,,,,,,,,,
,,,,,,,604243ad9743df09e0f72587,605b45a4d25f287719a41696,605ba708c286ac8a5a456c39,Mexico,Midwest,13 or older,no,2021-03-24_16h57.39.124,empathy_intonation_perc,2020.2.10,Win32,60,1,1,1.334445,0,7,7,1,1,./stim/wavs/argentine_question_filler_Mi-vecino-habla-mucho.wav,1,,,,,,,,,,,,,,,,,,,,,,,,,,,,,,,,,,,,,,,,,,,,,,,,,,,,,,,,,,,,,,,,,,,,,,,,,,
,,,,,,,604243ad9743df09e0f72587,605b45a4d25f287719a41696,605ba708c286ac8a5a456c39,Mexico,Midwest,13 or older,no,2021-03-24_16h57.39.124,empathy_intonation_perc,2020.2.10,Win32,60,,,,,,,,,,0,castilian,0,1,1.62318,0,0,0,10,1,11,./stim/wavs/andalusian_match_declarative-narrow-focus_David-leia-el-libro.wav,./stim/wavs/argentine_match_declarative-narrow-focus_David-leia-el-libro.wav,./stim/wavs/castilian_match_declarative-narrow-focus_David-leia-el-libro.wav,./stim/wavs/chilean_match_declarative-narrow-focus_David-leia-el-libro.wav,./stim/wavs/cuban_match_declarative-narrow-focus_David-leia-el-libro.wav,./stim/wavs/mexican_match_declarative-narrow-focus_David-leia-el-libro.wav,./stim/wavs/peruvian_match_declarative-narrow-focus_David-leia-el-libro.wav,./stim/wavs/puertorican_match_declarative-narrow-focus_David-leia-el-libro.wav,,,,,,,,,,,,,,,,,,,,,,,,,,,,,,,,,,,,,,,,,,,,,,,,,,,,,,,,
,,,,,,,604243ad9743df09e0f72587,605b45a4d25f287719a41696,605ba708c286ac8a5a456c39,Mexico,Midwest,13 or older,no,2021-03-24_16h57.39.124,empathy_intonation_perc,2020.2.10,Win32,60,,,,,,,,,,1,andalusian,0,0,1.76855,0,1,1,53,1,54,./stim/wavs/andalusian_mismatch_interrogative-partial-wh_Por-que-oia-el-rio.wav,./stim/wavs/argentine_mismatch_interrogative-partial-wh_Por-que-oia-el-rio.wav,./stim/wavs/castilian_mismatch_interrogative-partial-wh_Por-que-oia-el-rio.wav,./stim/wavs/chilean_mismatch_interrogative-partial-wh_Por-que-oia-el-rio.wav,./stim/wavs/cuban_mismatch_interrogative-partial-wh_Por-que-oia-el-rio.wav,./stim/wavs/mexican_mismatch_interrogative-partial-wh_Por-que-oia-el-rio.wav,./stim/wavs/peruvian_mismatch_interrogative-partial-wh_Por-que-oia-el-rio.wav,./stim/wavs/puertorican_mismatch_interrogative-partial-wh_Por-que-oia-el-rio.wav,,,,,,,,,,,,,,,,,,,,,,,,,,,,,,,,,,,,,,,,,,,,,,,,,,,,,,,,
,,,,,,,604243ad9743df09e0f72587,605b45a4d25f287719a41696,605ba708c286ac8a5a456c39,Mexico,Midwest,13 or older,no,2021-03-24_16h57.39.124,empathy_intonation_perc,2020.2.10,Win32,60,,,,,,,,,,1,peruvian,1,1,1.781515,0,2,2,26,1,27,./stim/wavs/andalusian_match_interrogative-total-yn_David-leia-el-libro.wav,./stim/wavs/argentine_match_interrogative-total-yn_David-leia-el-libro.wav,./stim/wavs/castilian_match_interrogative-total-yn_David-leia-el-libro.wav,./stim/wavs/chilean_match_interrogative-total-yn_David-leia-el-libro.wav,./stim/wavs/cuban_match_interrogative-total-yn_David-leia-el-libro.wav,./stim/wavs/mexican_match_interrogative-total-yn_David-leia-el-libro.wav,./stim/wavs/peruvian_match_interrogative-total-yn_David-leia-el-libro.wav,./stim/wavs/puertorican_match_interrogative-total-yn_David-leia-el-libro.wav,,,,,,,,,,,,,,,,,,,,,,,,,,,,,,,,,,,,,,,,,,,,,,,,,,,,,,,,
,,,,,,,604243ad9743df09e0f72587,605b45a4d25f287719a41696,605ba708c286ac8a5a456c39,Mexico,Midwest,13 or older,no,2021-03-24_16h57.39.124,empathy_intonation_perc,2020.2.10,Win32,60,,,,,,,,,,1,argentine,0,0,1.537435,0,3,3,50,1,51,./stim/wavs/andalusian_mismatch_interrogative-partial-wh_Cuando-miraba-la-luna.wav,./stim/wavs/argentine_mismatch_interrogative-partial-wh_Cuando-miraba-la-luna.wav,./stim/wavs/castilian_mismatch_interrogative-partial-wh_Cuando-miraba-la-luna.wav,./stim/wavs/chilean_mismatch_interrogative-partial-wh_Cuando-miraba-la-luna.wav,./stim/wavs/cuban_mismatch_interrogative-partial-wh_Cuando-miraba-la-luna.wav,./stim/wavs/mexican_mismatch_interrogative-partial-wh_Cuando-miraba-la-luna.wav,./stim/wavs/peruvian_mismatch_interrogative-partial-wh_Cuando-miraba-la-luna.wav,./stim/wavs/puertorican_mismatch_interrogative-partial-wh_Cuando-miraba-la-luna.wav,,,,,,,,,,,,,,,,,,,,,,,,,,,,,,,,,,,,,,,,,,,,,,,,,,,,,,,,
,,,,,,,604243ad9743df09e0f72587,605b45a4d25f287719a41696,605ba708c286ac8a5a456c39,Mexico,Midwest,13 or older,no,2021-03-24_16h57.39.124,empathy_intonation_perc,2020.2.10,Win32,60,,,,,,,,,,0,chilean,0,1,2.00192,0,4,4,34,1,35,./stim/wavs/andalusian_mismatch_declarative-broad-focus_El-nino-oye-el-rio.wav,./stim/wavs/argentine_mismatch_declarative-broad-focus_El-nino-oye-el-rio.wav,./stim/wavs/castilian_mismatch_declarative-broad-focus_El-nino-oye-el-rio.wav,./stim/wavs/chilean_mismatch_declarative-broad-focus_El-nino-oye-el-rio.wav,./stim/wavs/cuban_mismatch_declarative-broad-focus_El-nino-oye-el-rio.wav,./stim/wavs/mexican_mismatch_declarative-broad-focus_El-nino-oye-el-rio.wav,./stim/wavs/peruvian_mismatch_declarative-broad-focus_El-nino-oye-el-rio.wav,./stim/wavs/puertorican_mismatch_declarative-broad-focus_El-nino-oye-el-rio.wav,,,,,,,,,,,,,,,,,,,,,,,,,,,,,,,,,,,,,,,,,,,,,,,,,,,,,,,,
,,,,,,,604243ad9743df09e0f72587,605b45a4d25f287719a41696,605ba708c286ac8a5a456c39,Mexico,Midwest,13 or older,no,2021-03-24_16h57.39.124,empathy_intonation_perc,2020.2.10,Win32,60,,,,,,,,,,1,cuban,0,0,2.066035,0,5,5,23,1,24,./stim/wavs/andalusian_match_interrogative-partial-wh_Por-que-iba-a-Bolivia.wav,./stim/wavs/argentine_match_interrogative-partial-wh_Por-que-iba-a-Bolivia.wav,./stim/wavs/castilian_match_interrogative-partial-wh_Por-que-iba-a-Bolivia.wav,./stim/wavs/chilean_match_interrogative-partial-wh_Por-que-iba-a-Bolivia.wav,./stim/wavs/cuban_match_interrogative-partial-wh_Por-que-iba-a-Bolivia.wav,./stim/wavs/mexican_match_interrogative-partial-wh_Por-que-iba-a-Bolivia.wav,./stim/wavs/peruvian_match_interrogative-partial-wh_Por-que-iba-a-Bolivia.wav,./stim/wavs/puertorican_match_interrogative-partial-wh_Por-que-iba-a-Bolivia.wav,,,,,,,,,,,,,,,,,,,,,,,,,,,,,,,,,,,,,,,,,,,,,,,,,,,,,,,,
,,,,,,,604243ad9743df09e0f72587,605b45a4d25f287719a41696,605ba708c286ac8a5a456c39,Mexico,Midwest,13 or older,no,2021-03-24_16h57.39.124,empathy_intonation_perc,2020.2.10,Win32,60,,,,,,,,,,0,chilean,0,1,1.36226,0,6,6,13,1,14,./stim/wavs/andalusian_match_declarative-narrow-focus_Maria-bebe-el-vino.wav,./stim/wavs/argentine_match_declarative-narrow-focus_Maria-bebe-el-vino.wav,./stim/wavs/castilian_match_declarative-narrow-focus_Maria-bebe-el-vino.wav,./stim/wavs/chilean_match_declarative-narrow-focus_Maria-bebe-el-vino.wav,./stim/wavs/cuban_match_declarative-narrow-focus_Maria-bebe-el-vino.wav,./stim/wavs/mexican_match_declarative-narrow-focus_Maria-bebe-el-vino.wav,./stim/wavs/peruvian_match_declarative-narrow-focus_Maria-bebe-el-vino.wav,./stim/wavs/puertorican_match_declarative-narrow-focus_Maria-bebe-el-vino.wav,,,,,,,,,,,,,,,,,,,,,,,,,,,,,,,,,,,,,,,,,,,,,,,,,,,,,,,,
,,,,,,,604243ad9743df09e0f72587,605b45a4d25f287719a41696,605ba708c286ac8a5a456c39,Mexico,Midwest,13 or older,no,2021-03-24_16h57.39.124,empathy_intonation_perc,2020.2.10,Win32,60,,,,,,,,,,1,cuban,0,0,1.70355,0,7,7,60,1,61,./stim/wavs/andalusian_mismatch_interrogative-total-yn_La-nina-lava-el-plato.wav,./stim/wavs/argentine_mismatch_interrogative-total-yn_La-nina-lava-el-plato.wav,./stim/wavs/castilian_mismatch_interrogative-total-yn_La-nina-lava-el-plato.wav,./stim/wavs/chilean_mismatch_interrogative-total-yn_La-nina-lava-el-plato.wav,./stim/wavs/cuban_mismatch_interrogative-total-yn_La-nina-lava-el-plato.wav,./stim/wavs/mexican_mismatch_interrogative-total-yn_La-nina-lava-el-plato.wav,./stim/wavs/peruvian_mismatch_interrogative-total-yn_La-nina-lava-el-plato.wav,./stim/wavs/puertorican_mismatch_interrogative-total-yn_La-nina-lava-el-plato.wav,,,,,,,,,,,,,,,,,,,,,,,,,,,,,,,,,,,,,,,,,,,,,,,,,,,,,,,,
,,,,,,,604243ad9743df09e0f72587,605b45a4d25f287719a41696,605ba708c286ac8a5a456c39,Mexico,Midwest,13 or older,no,2021-03-24_16h57.39.124,empathy_intonation_perc,2020.2.10,Win32,60,,,,,,,,,,1,argentine,1,1,1.653585,0,8,8,61,1,62,./stim/wavs/andalusian_mismatch_interrogative-total-yn_Mi-madre-come-la-fruta.wav,./stim/wavs/argentine_mismatch_interrogative-total-yn_Mi-madre-come-la-fruta.wav,./stim/wavs/castilian_mismatch_interrogative-total-yn_Mi-madre-come-la-fruta.wav,./stim/wavs/chilean_mismatch_interrogative-total-yn_Mi-madre-come-la-fruta.wav,./stim/wavs/cuban_mismatch_interrogative-total-yn_Mi-madre-come-la-fruta.wav,./stim/wavs/mexican_mismatch_interrogative-total-yn_Mi-madre-come-la-fruta.wav,./stim/wavs/peruvian_mismatch_interrogative-total-yn_Mi-madre-come-la-fruta.wav,./stim/wavs/puertorican_mismatch_interrogative-total-yn_Mi-madre-come-la-fruta.wav,,,,,,,,,,,,,,,,,,,,,,,,,,,,,,,,,,,,,,,,,,,,,,,,,,,,,,,,
,,,,,,,604243ad9743df09e0f72587,605b45a4d25f287719a41696,605ba708c286ac8a5a456c39,Mexico,Midwest,13 or older,no,2021-03-24_16h57.39.124,empathy_intonation_perc,2020.2.10,Win32,60,,,,,,,,,,1,chilean,1,1,1.44629,0,9,9,17,1,18,./stim/wavs/andalusian_match_interrogative-partial-wh_Cuando-leia-el-libro.wav,./stim/wavs/argentine_match_interrogative-partial-wh_Cuando-leia-el-libro.wav,./stim/wavs/castilian_match_interrogative-partial-wh_Cuando-leia-el-libro.wav,./stim/wavs/chilean_match_interrogative-partial-wh_Cuando-leia-el-libro.wav,./stim/wavs/cuban_match_interrogative-partial-wh_Cuando-leia-el-libro.wav,./stim/wavs/mexican_match_interrogative-partial-wh_Cuando-leia-el-libro.wav,./stim/wavs/peruvian_match_interrogative-partial-wh_Cuando-leia-el-libro.wav,./stim/wavs/puertorican_match_interrogative-partial-wh_Cuando-leia-el-libro.wav,,,,,,,,,,,,,,,,,,,,,,,,,,,,,,,,,,,,,,,,,,,,,,,,,,,,,,,,
,,,,,,,604243ad9743df09e0f72587,605b45a4d25f287719a41696,605ba708c286ac8a5a456c39,Mexico,Midwest,13 or older,no,2021-03-24_16h57.39.124,empathy_intonation_perc,2020.2.10,Win32,60,,,,,,,,,,0,argentine,0,1,1.872875,0,10,10,37,1,38,./stim/wavs/andalusian_mismatch_declarative-broad-focus_Mi-madre-come-la-fruta.wav,./stim/wavs/argentine_mismatch_declarative-broad-focus_Mi-madre-come-la-fruta.wav,./stim/wavs/castilian_mismatch_declarative-broad-focus_Mi-madre-come-la-fruta.wav,./stim/wavs/chilean_mismatch_declarative-broad-focus_Mi-madre-come-la-fruta.wav,./stim/wavs/cuban_mismatch_declarative-broad-focus_Mi-madre-come-la-fruta.wav,./stim/wavs/mexican_mismatch_declarative-broad-focus_Mi-madre-come-la-fruta.wav,./stim/wavs/peruvian_mismatch_declarative-broad-focus_Mi-madre-come-la-fruta.wav,./stim/wavs/puertorican_mismatch_declarative-broad-focus_Mi-madre-come-la-fruta.wav,,,,,,,,,,,,,,,,,,,,,,,,,,,,,,,,,,,,,,,,,,,,,,,,,,,,,,,,
,,,,,,,604243ad9743df09e0f72587,605b45a4d25f287719a41696,605ba708c286ac8a5a456c39,Mexico,Midwest,13 or older,no,2021-03-24_16h57.39.124,empathy_intonation_perc,2020.2.10,Win32,60,,,,,,,,,,0,cuban,0,1,1.776645,0,11,11,47,1,48,./stim/wavs/andalusian_mismatch_declarative-narrow-focus_Mi-tia-odia-la-lluvia.wav,./stim/wavs/argentine_mismatch_declarative-narrow-focus_Mi-tia-odia-la-lluvia.wav,./stim/wavs/castilian_mismatch_declarative-narrow-focus_Mi-tia-odia-la-lluvia.wav,./stim/wavs/chilean_mismatch_declarative-narrow-focus_Mi-tia-odia-la-lluvia.wav,./stim/wavs/cuban_mismatch_declarative-narrow-focus_Mi-tia-odia-la-lluvia.wav,./stim/wavs/mexican_mismatch_declarative-narrow-focus_Mi-tia-odia-la-lluvia.wav,./stim/wavs/peruvian_mismatch_declarative-narrow-focus_Mi-tia-odia-la-lluvia.wav,./stim/wavs/puertorican_mismatch_declarative-narrow-focus_Mi-tia-odia-la-lluvia.wav,,,,,,,,,,,,,,,,,,,,,,,,,,,,,,,,,,,,,,,,,,,,,,,,,,,,,,,,
,,,,,,,604243ad9743df09e0f72587,605b45a4d25f287719a41696,605ba708c286ac8a5a456c39,Mexico,Midwest,13 or older,no,2021-03-24_16h57.39.124,empathy_intonation_perc,2020.2.10,Win32,60,,,,,,,,,,1,argentine,0,0,2.139925,0,12,12,63,1,64,./stim/wavs/andalusian_mismatch_interrogative-total-yn_Mi-tia-odia-la-lluvia.wav,./stim/wavs/argentine_mismatch_interrogative-total-yn_Mi-tia-odia-la-lluvia.wav,./stim/wavs/castilian_mismatch_interrogative-total-yn_Mi-tia-odia-la-lluvia.wav,./stim/wavs/chilean_mismatch_interrogative-total-yn_Mi-tia-odia-la-lluvia.wav,./stim/wavs/cuban_mismatch_interrogative-total-yn_Mi-tia-odia-la-lluvia.wav,./stim/wavs/mexican_mismatch_interrogative-total-yn_Mi-tia-odia-la-lluvia.wav,./stim/wavs/peruvian_mismatch_interrogative-total-yn_Mi-tia-odia-la-lluvia.wav,./stim/wavs/puertorican_mismatch_interrogative-total-yn_Mi-tia-odia-la-lluvia.wav,,,,,,,,,,,,,,,,,,,,,,,,,,,,,,,,,,,,,,,,,,,,,,,,,,,,,,,,
,,,,,,,604243ad9743df09e0f72587,605b45a4d25f287719a41696,605ba708c286ac8a5a456c39,Mexico,Midwest,13 or older,no,2021-03-24_16h57.39.124,empathy_intonation_perc,2020.2.10,Win32,60,,,,,,,,,,0,cuban,0,1,1.601,0,13,13,3,1,4,./stim/wavs/andalusian_match_declarative-broad-focus_Emilio-ama-la-marcha.wav,./stim/wavs/argentine_match_declarative-broad-focus_Emilio-ama-la-marcha.wav,./stim/wavs/castilian_match_declarative-broad-focus_Emilio-ama-la-marcha.wav,./stim/wavs/chilean_match_declarative-broad-focus_Emilio-ama-la-marcha.wav,./stim/wavs/cuban_match_declarative-broad-focus_Emilio-ama-la-marcha.wav,./stim/wavs/mexican_match_declarative-broad-focus_Emilio-ama-la-marcha.wav,./stim/wavs/peruvian_match_declarative-broad-focus_Emilio-ama-la-marcha.wav,./stim/wavs/puertorican_match_declarative-broad-focus_Emilio-ama-la-marcha.wav,,,,,,,,,,,,,,,,,,,,,,,,,,,,,,,,,,,,,,,,,,,,,,,,,,,,,,,,
,,,,,,,604243ad9743df09e0f72587,605b45a4d25f287719a41696,605ba708c286ac8a5a456c39,Mexico,Midwest,13 or older,no,2021-03-24_16h57.39.124,empathy_intonation_perc,2020.2.10,Win32,60,,,,,,,,,,1,cuban,0,0,1.955925,0,14,14,18,1,19,./stim/wavs/andalusian_match_interrogative-partial-wh_Cuando-lleva-el-abrigo.wav,./stim/wavs/argentine_match_interrogative-partial-wh_Cuando-lleva-el-abrigo.wav,./stim/wavs/castilian_match_interrogative-partial-wh_Cuando-lleva-el-abrigo.wav,./stim/wavs/chilean_match_interrogative-partial-wh_Cuando-lleva-el-abrigo.wav,./stim/wavs/cuban_match_interrogative-partial-wh_Cuando-lleva-el-abrigo.wav,./stim/wavs/mexican_match_interrogative-partial-wh_Cuando-lleva-el-abrigo.wav,./stim/wavs/peruvian_match_interrogative-partial-wh_Cuando-lleva-el-abrigo.wav,./stim/wavs/puertorican_match_interrogative-partial-wh_Cuando-lleva-el-abrigo.wav,,,,,,,,,,,,,,,,,,,,,,,,,,,,,,,,,,,,,,,,,,,,,,,,,,,,,,,,
,,,,,,,604243ad9743df09e0f72587,605b45a4d25f287719a41696,605ba708c286ac8a5a456c39,Mexico,Midwest,13 or older,no,2021-03-24_16h57.39.124,empathy_intonation_perc,2020.2.10,Win32,60,,,,,,,,,,0,andalusian,1,0,1.512745,0,15,15,36,1,37,./stim/wavs/andalusian_mismatch_declarative-broad-focus_La-nina-lava-el-plato.wav,./stim/wavs/argentine_mismatch_declarative-broad-focus_La-nina-lava-el-plato.wav,./stim/wavs/castilian_mismatch_declarative-broad-focus_La-nina-lava-el-plato.wav,./stim/wavs/chilean_mismatch_declarative-broad-focus_La-nina-lava-el-plato.wav,./stim/wavs/cuban_mismatch_declarative-broad-focus_La-nina-lava-el-plato.wav,./stim/wavs/mexican_mismatch_declarative-broad-focus_La-nina-lava-el-plato.wav,./stim/wavs/peruvian_mismatch_declarative-broad-focus_La-nina-lava-el-plato.wav,./stim/wavs/puertorican_mismatch_declarative-broad-focus_La-nina-lava-el-plato.wav,,,,,,,,,,,,,,,,,,,,,,,,,,,,,,,,,,,,,,,,,,,,,,,,,,,,,,,,
,,,,,,,604243ad9743df09e0f72587,605b45a4d25f287719a41696,605ba708c286ac8a5a456c39,Mexico,Midwest,13 or older,no,2021-03-24_16h57.39.124,empathy_intonation_perc,2020.2.10,Win32,60,,,,,,,,,,0,argentine,0,1,1.52661,0,16,16,40,1,41,./stim/wavs/andalusian_mismatch_declarative-narrow-focus_El-bebe-comia-muy-bien.wav,./stim/wavs/argentine_mismatch_declarative-narrow-focus_El-bebe-comia-muy-bien.wav,./stim/wavs/castilian_mismatch_declarative-narrow-focus_El-bebe-comia-muy-bien.wav,./stim/wavs/chilean_mismatch_declarative-narrow-focus_El-bebe-comia-muy-bien.wav,./stim/wavs/cuban_mismatch_declarative-narrow-focus_El-bebe-comia-muy-bien.wav,./stim/wavs/mexican_mismatch_declarative-narrow-focus_El-bebe-comia-muy-bien.wav,./stim/wavs/peruvian_mismatch_declarative-narrow-focus_El-bebe-comia-muy-bien.wav,./stim/wavs/puertorican_mismatch_declarative-narrow-focus_El-bebe-comia-muy-bien.wav,,,,,,,,,,,,,,,,,,,,,,,,,,,,,,,,,,,,,,,,,,,,,,,,,,,,,,,,
,,,,,,,604243ad9743df09e0f72587,605b45a4d25f287719a41696,605ba708c286ac8a5a456c39,Mexico,Midwest,13 or older,no,2021-03-24_16h57.39.124,empathy_intonation_perc,2020.2.10,Win32,60,,,,,,,,,,0,argentine,0,1,1.621315,0,17,17,9,1,10,./stim/wavs/andalusian_match_declarative-narrow-focus_Daniel-iba-a-Bolivia.wav,./stim/wavs/argentine_match_declarative-narrow-focus_Daniel-iba-a-Bolivia.wav,./stim/wavs/castilian_match_declarative-narrow-focus_Daniel-iba-a-Bolivia.wav,./stim/wavs/chilean_match_declarative-narrow-focus_Daniel-iba-a-Bolivia.wav,./stim/wavs/cuban_match_declarative-narrow-focus_Daniel-iba-a-Bolivia.wav,./stim/wavs/mexican_match_declarative-narrow-focus_Daniel-iba-a-Bolivia.wav,./stim/wavs/peruvian_match_declarative-narrow-focus_Daniel-iba-a-Bolivia.wav,./stim/wavs/puertorican_match_declarative-narrow-focus_Daniel-iba-a-Bolivia.wav,,,,,,,,,,,,,,,,,,,,,,,,,,,,,,,,,,,,,,,,,,,,,,,,,,,,,,,,
,,,,,,,604243ad9743df09e0f72587,605b45a4d25f287719a41696,605ba708c286ac8a5a456c39,Mexico,Midwest,13 or older,no,2021-03-24_16h57.39.124,empathy_intonation_perc,2020.2.10,Win32,60,,,,,,,,,,1,peruvian,0,0,2.20701,0,18,18,22,1,23,./stim/wavs/andalusian_match_interrogative-partial-wh_Por-que-hablaba-del-agua.wav,./stim/wavs/argentine_match_interrogative-partial-wh_Por-que-hablaba-del-agua.wav,./stim/wavs/castilian_match_interrogative-partial-wh_Por-que-hablaba-del-agua.wav,./stim/wavs/chilean_match_interrogative-partial-wh_Por-que-hablaba-del-agua.wav,./stim/wavs/cuban_match_interrogative-partial-wh_Por-que-hablaba-del-agua.wav,./stim/wavs/mexican_match_interrogative-partial-wh_Por-que-hablaba-del-agua.wav,./stim/wavs/peruvian_match_interrogative-partial-wh_Por-que-hablaba-del-agua.wav,./stim/wavs/puertorican_match_interrogative-partial-wh_Por-que-hablaba-del-agua.wav,,,,,,,,,,,,,,,,,,,,,,,,,,,,,,,,,,,,,,,,,,,,,,,,,,,,,,,,
,,,,,,,604243ad9743df09e0f72587,605b45a4d25f287719a41696,605ba708c286ac8a5a456c39,Mexico,Midwest,13 or older,no,2021-03-24_16h57.39.124,empathy_intonation_perc,2020.2.10,Win32,60,,,,,,,,,,1,mexican,1,1,1.80145,0,19,19,52,1,53,./stim/wavs/andalusian_mismatch_interrogative-partial-wh_Por-que-odiaba-la-lluvia.wav,./stim/wavs/argentine_mismatch_interrogative-partial-wh_Por-que-odiaba-la-lluvia.wav,./stim/wavs/castilian_mismatch_interrogative-partial-wh_Por-que-odiaba-la-lluvia.wav,./stim/wavs/chilean_mismatch_interrogative-partial-wh_Por-que-odiaba-la-lluvia.wav,./stim/wavs/cuban_mismatch_interrogative-partial-wh_Por-que-odiaba-la-lluvia.wav,./stim/wavs/mexican_mismatch_interrogative-partial-wh_Por-que-odiaba-la-lluvia.wav,./stim/wavs/peruvian_mismatch_interrogative-partial-wh_Por-que-odiaba-la-lluvia.wav,./stim/wavs/puertorican_mismatch_interrogative-partial-wh_Por-que-odiaba-la-lluvia.wav,,,,,,,,,,,,,,,,,,,,,,,,,,,,,,,,,,,,,,,,,,,,,,,,,,,,,,,,
,,,,,,,604243ad9743df09e0f72587,605b45a4d25f287719a41696,605ba708c286ac8a5a456c39,Mexico,Midwest,13 or older,no,2021-03-24_16h57.39.124,empathy_intonation_perc,2020.2.10,Win32,60,,,,,,,,,,0,peruvian,0,1,1.86017,0,20,20,46,1,47,./stim/wavs/andalusian_mismatch_declarative-narrow-focus_Mi-novio-viene-del-lago.wav,./stim/wavs/argentine_mismatch_declarative-narrow-focus_Mi-novio-viene-del-lago.wav,./stim/wavs/castilian_mismatch_declarative-narrow-focus_Mi-novio-viene-del-lago.wav,./stim/wavs/chilean_mismatch_declarative-narrow-focus_Mi-novio-viene-del-lago.wav,./stim/wavs/cuban_mismatch_declarative-narrow-focus_Mi-novio-viene-del-lago.wav,./stim/wavs/mexican_mismatch_declarative-narrow-focus_Mi-novio-viene-del-lago.wav,./stim/wavs/peruvian_mismatch_declarative-narrow-focus_Mi-novio-viene-del-lago.wav,./stim/wavs/puertorican_mismatch_declarative-narrow-focus_Mi-novio-viene-del-lago.wav,,,,,,,,,,,,,,,,,,,,,,,,,,,,,,,,,,,,,,,,,,,,,,,,,,,,,,,,
,,,,,,,604243ad9743df09e0f72587,605b45a4d25f287719a41696,605ba708c286ac8a5a456c39,Mexico,Midwest,13 or older,no,2021-03-24_16h57.39.124,empathy_intonation_perc,2020.2.10,Win32,60,,,,,,,,,,1,mexican,1,1,1.74062,0,21,21,59,1,60,./stim/wavs/andalusian_mismatch_interrogative-total-yn_La-maestra-vive-en-Paris.wav,./stim/wavs/argentine_mismatch_interrogative-total-yn_La-maestra-vive-en-Paris.wav,./stim/wavs/castilian_mismatch_interrogative-total-yn_La-maestra-vive-en-Paris.wav,./stim/wavs/chilean_mismatch_interrogative-total-yn_La-maestra-vive-en-Paris.wav,./stim/wavs/cuban_mismatch_interrogative-total-yn_La-maestra-vive-en-Paris.wav,./stim/wavs/mexican_mismatch_interrogative-total-yn_La-maestra-vive-en-Paris.wav,./stim/wavs/peruvian_mismatch_interrogative-total-yn_La-maestra-vive-en-Paris.wav,./stim/wavs/puertorican_mismatch_interrogative-total-yn_La-maestra-vive-en-Paris.wav,,,,,,,,,,,,,,,,,,,,,,,,,,,,,,,,,,,,,,,,,,,,,,,,,,,,,,,,
,,,,,,,604243ad9743df09e0f72587,605b45a4d25f287719a41696,605ba708c286ac8a5a456c39,Mexico,Midwest,13 or older,no,2021-03-24_16h57.39.124,empathy_intonation_perc,2020.2.10,Win32,60,,,,,,,,,,1,cuban,0,0,1.89908,0,22,22,30,1,31,./stim/wavs/andalusian_match_interrogative-total-yn_Mariano-habla-del-tiempo.wav,./stim/wavs/argentine_match_interrogative-total-yn_Mariano-habla-del-tiempo.wav,./stim/wavs/castilian_match_interrogative-total-yn_Mariano-habla-del-tiempo.wav,./stim/wavs/chilean_match_interrogative-total-yn_Mariano-habla-del-tiempo.wav,./stim/wavs/cuban_match_interrogative-total-yn_Mariano-habla-del-tiempo.wav,./stim/wavs/mexican_match_interrogative-total-yn_Mariano-habla-del-tiempo.wav,./stim/wavs/peruvian_match_interrogative-total-yn_Mariano-habla-del-tiempo.wav,./stim/wavs/puertorican_match_interrogative-total-yn_Mariano-habla-del-tiempo.wav,,,,,,,,,,,,,,,,,,,,,,,,,,,,,,,,,,,,,,,,,,,,,,,,,,,,,,,,
,,,,,,,604243ad9743df09e0f72587,605b45a4d25f287719a41696,605ba708c286ac8a5a456c39,Mexico,Midwest,13 or older,no,2021-03-24_16h57.39.124,empathy_intonation_perc,2020.2.10,Win32,60,,,,,,,,,,1,mexican,1,1,1.48098,0,23,23,55,1,56,./stim/wavs/andalusian_mismatch_interrogative-partial-wh_Por-que-vivia-en-Paris.wav,./stim/wavs/argentine_mismatch_interrogative-partial-wh_Por-que-vivia-en-Paris.wav,./stim/wavs/castilian_mismatch_interrogative-partial-wh_Por-que-vivia-en-Paris.wav,./stim/wavs/chilean_mismatch_interrogative-partial-wh_Por-que-vivia-en-Paris.wav,./stim/wavs/cuban_mismatch_interrogative-partial-wh_Por-que-vivia-en-Paris.wav,./stim/wavs/mexican_mismatch_interrogative-partial-wh_Por-que-vivia-en-Paris.wav,./stim/wavs/peruvian_mismatch_interrogative-partial-wh_Por-que-vivia-en-Paris.wav,./stim/wavs/puertorican_mismatch_interrogative-partial-wh_Por-que-vivia-en-Paris.wav,,,,,,,,,,,,,,,,,,,,,,,,,,,,,,,,,,,,,,,,,,,,,,,,,,,,,,,,
,,,,,,,604243ad9743df09e0f72587,605b45a4d25f287719a41696,605ba708c286ac8a5a456c39,Mexico,Midwest,13 or older,no,2021-03-24_16h57.39.124,empathy_intonation_perc,2020.2.10,Win32,60,,,,,,,,,,1,castilian,1,1,1.76132,0,24,24,28,1,29,./stim/wavs/andalusian_match_interrogative-total-yn_Manuela-vende-el-carro.wav,./stim/wavs/argentine_match_interrogative-total-yn_Manuela-vende-el-carro.wav,./stim/wavs/castilian_match_interrogative-total-yn_Manuela-vende-el-carro.wav,./stim/wavs/chilean_match_interrogative-total-yn_Manuela-vende-el-carro.wav,./stim/wavs/cuban_match_interrogative-total-yn_Manuela-vende-el-carro.wav,./stim/wavs/mexican_match_interrogative-total-yn_Manuela-vende-el-carro.wav,./stim/wavs/peruvian_match_interrogative-total-yn_Manuela-vende-el-carro.wav,./stim/wavs/puertorican_match_interrogative-total-yn_Manuela-vende-el-carro.wav,,,,,,,,,,,,,,,,,,,,,,,,,,,,,,,,,,,,,,,,,,,,,,,,,,,,,,,,
,,,,,,,604243ad9743df09e0f72587,605b45a4d25f287719a41696,605ba708c286ac8a5a456c39,Mexico,Midwest,13 or older,no,2021-03-24_16h57.39.124,empathy_intonation_perc,2020.2.10,Win32,60,,,,,,,,,,0,mexican,0,1,1.486385,0,25,25,2,1,3,./stim/wavs/andalusian_match_declarative-broad-focus_David-leia-el-libro.wav,./stim/wavs/argentine_match_declarative-broad-focus_David-leia-el-libro.wav,./stim/wavs/castilian_match_declarative-broad-focus_David-leia-el-libro.wav,./stim/wavs/chilean_match_declarative-broad-focus_David-leia-el-libro.wav,./stim/wavs/cuban_match_declarative-broad-focus_David-leia-el-libro.wav,./stim/wavs/mexican_match_declarative-broad-focus_David-leia-el-libro.wav,./stim/wavs/peruvian_match_declarative-broad-focus_David-leia-el-libro.wav,./stim/wavs/puertorican_match_declarative-broad-focus_David-leia-el-libro.wav,,,,,,,,,,,,,,,,,,,,,,,,,,,,,,,,,,,,,,,,,,,,,,,,,,,,,,,,
,,,,,,,604243ad9743df09e0f72587,605b45a4d25f287719a41696,605ba708c286ac8a5a456c39,Mexico,Midwest,13 or older,no,2021-03-24_16h57.39.124,empathy_intonation_perc,2020.2.10,Win32,60,,,,,,,,,,1,andalusian,0,0,1.81696,0,26,26,20,1,21,./stim/wavs/andalusian_match_interrogative-partial-wh_Por-que-abre-el-regalo.wav,./stim/wavs/argentine_match_interrogative-partial-wh_Por-que-abre-el-regalo.wav,./stim/wavs/castilian_match_interrogative-partial-wh_Por-que-abre-el-regalo.wav,./stim/wavs/chilean_match_interrogative-partial-wh_Por-que-abre-el-regalo.wav,./stim/wavs/cuban_match_interrogative-partial-wh_Por-que-abre-el-regalo.wav,./stim/wavs/mexican_match_interrogative-partial-wh_Por-que-abre-el-regalo.wav,./stim/wavs/peruvian_match_interrogative-partial-wh_Por-que-abre-el-regalo.wav,./stim/wavs/puertorican_match_interrogative-partial-wh_Por-que-abre-el-regalo.wav,,,,,,,,,,,,,,,,,,,,,,,,,,,,,,,,,,,,,,,,,,,,,,,,,,,,,,,,
,,,,,,,604243ad9743df09e0f72587,605b45a4d25f287719a41696,605ba708c286ac8a5a456c39,Mexico,Midwest,13 or older,no,2021-03-24_16h57.39.124,empathy_intonation_perc,2020.2.10,Win32,60,,,,,,,,,,1,chilean,1,1,1.632445,0,27,27,21,1,22,./stim/wavs/andalusian_match_interrogative-partial-wh_Por-que-ama-la-navidad.wav,./stim/wavs/argentine_match_interrogative-partial-wh_Por-que-ama-la-navidad.wav,./stim/wavs/castilian_match_interrogative-partial-wh_Por-que-ama-la-navidad.wav,./stim/wavs/chilean_match_interrogative-partial-wh_Por-que-ama-la-navidad.wav,./stim/wavs/cuban_match_interrogative-partial-wh_Por-que-ama-la-navidad.wav,./stim/wavs/mexican_match_interrogative-partial-wh_Por-que-ama-la-navidad.wav,./stim/wavs/peruvian_match_interrogative-partial-wh_Por-que-ama-la-navidad.wav,./stim/wavs/puertorican_match_interrogative-partial-wh_Por-que-ama-la-navidad.wav,,,,,,,,,,,,,,,,,,,,,,,,,,,,,,,,,,,,,,,,,,,,,,,,,,,,,,,,
,,,,,,,604243ad9743df09e0f72587,605b45a4d25f287719a41696,605ba708c286ac8a5a456c39,Mexico,Midwest,13 or older,no,2021-03-24_16h57.39.124,empathy_intonation_perc,2020.2.10,Win32,60,,,,,,,,,,1,mexican,1,1,1.36935,0,28,28,54,1,55,./stim/wavs/andalusian_mismatch_interrogative-partial-wh_Por-que-venia-del-lago.wav,./stim/wavs/argentine_mismatch_interrogative-partial-wh_Por-que-venia-del-lago.wav,./stim/wavs/castilian_mismatch_interrogative-partial-wh_Por-que-venia-del-lago.wav,./stim/wavs/chilean_mismatch_interrogative-partial-wh_Por-que-venia-del-lago.wav,./stim/wavs/cuban_mismatch_interrogative-partial-wh_Por-que-venia-del-lago.wav,./stim/wavs/mexican_mismatch_interrogative-partial-wh_Por-que-venia-del-lago.wav,./stim/wavs/peruvian_mismatch_interrogative-partial-wh_Por-que-venia-del-lago.wav,./stim/wavs/puertorican_mismatch_interrogative-partial-wh_Por-que-venia-del-lago.wav,,,,,,,,,,,,,,,,,,,,,,,,,,,,,,,,,,,,,,,,,,,,,,,,,,,,,,,,
,,,,,,,604243ad9743df09e0f72587,605b45a4d25f287719a41696,605ba708c286ac8a5a456c39,Mexico,Midwest,13 or older,no,2021-03-24_16h57.39.124,empathy_intonation_perc,2020.2.10,Win32,60,,,,,,,,,,1,chilean,1,1,1.9256,0,29,29,49,1,50,./stim/wavs/andalusian_mismatch_interrogative-partial-wh_Cuando-lavaba-el-plato.wav,./stim/wavs/argentine_mismatch_interrogative-partial-wh_Cuando-lavaba-el-plato.wav,./stim/wavs/castilian_mismatch_interrogative-partial-wh_Cuando-lavaba-el-plato.wav,./stim/wavs/chilean_mismatch_interrogative-partial-wh_Cuando-lavaba-el-plato.wav,./stim/wavs/cuban_mismatch_interrogative-partial-wh_Cuando-lavaba-el-plato.wav,./stim/wavs/mexican_mismatch_interrogative-partial-wh_Cuando-lavaba-el-plato.wav,./stim/wavs/peruvian_mismatch_interrogative-partial-wh_Cuando-lavaba-el-plato.wav,./stim/wavs/puertorican_mismatch_interrogative-partial-wh_Cuando-lavaba-el-plato.wav,,,,,,,,,,,,,,,,,,,,,,,,,,,,,,,,,,,,,,,,,,,,,,,,,,,,,,,,
,,,,,,,604243ad9743df09e0f72587,605b45a4d25f287719a41696,605ba708c286ac8a5a456c39,Mexico,Midwest,13 or older,no,2021-03-24_16h57.39.124,empathy_intonation_perc,2020.2.10,Win32,60,,,,,,,,,,1,cuban,0,0,1.74792,0,30,30,62,1,63,./stim/wavs/andalusian_mismatch_interrogative-total-yn_Mi-novio-viene-del-lago.wav,./stim/wavs/argentine_mismatch_interrogative-total-yn_Mi-novio-viene-del-lago.wav,./stim/wavs/castilian_mismatch_interrogative-total-yn_Mi-novio-viene-del-lago.wav,./stim/wavs/chilean_mismatch_interrogative-total-yn_Mi-novio-viene-del-lago.wav,./stim/wavs/cuban_mismatch_interrogative-total-yn_Mi-novio-viene-del-lago.wav,./stim/wavs/mexican_mismatch_interrogative-total-yn_Mi-novio-viene-del-lago.wav,./stim/wavs/peruvian_mismatch_interrogative-total-yn_Mi-novio-viene-del-lago.wav,./stim/wavs/puertorican_mismatch_interrogative-total-yn_Mi-novio-viene-del-lago.wav,,,,,,,,,,,,,,,,,,,,,,,,,,,,,,,,,,,,,,,,,,,,,,,,,,,,,,,,
,,,,,,,604243ad9743df09e0f72587,605b45a4d25f287719a41696,605ba708c286ac8a5a456c39,Mexico,Midwest,13 or older,no,2021-03-24_16h57.39.124,empathy_intonation_perc,2020.2.10,Win32,60,,,,,,,,,,0,andalusian,0,1,1.737475,0,31,31,39,1,40,./stim/wavs/andalusian_mismatch_declarative-broad-focus_Mi-tia-odia-la-lluvia.wav,./stim/wavs/argentine_mismatch_declarative-broad-focus_Mi-tia-odia-la-lluvia.wav,./stim/wavs/castilian_mismatch_declarative-broad-focus_Mi-tia-odia-la-lluvia.wav,./stim/wavs/chilean_mismatch_declarative-broad-focus_Mi-tia-odia-la-lluvia.wav,./stim/wavs/cuban_mismatch_declarative-broad-focus_Mi-tia-odia-la-lluvia.wav,./stim/wavs/mexican_mismatch_declarative-broad-focus_Mi-tia-odia-la-lluvia.wav,./stim/wavs/peruvian_mismatch_declarative-broad-focus_Mi-tia-odia-la-lluvia.wav,./stim/wavs/puertorican_mismatch_declarative-broad-focus_Mi-tia-odia-la-lluvia.wav,,,,,,,,,,,,,,,,,,,,,,,,,,,,,,,,,,,,,,,,,,,,,,,,,,,,,,,,
,,,,,,,604243ad9743df09e0f72587,605b45a4d25f287719a41696,605ba708c286ac8a5a456c39,Mexico,Midwest,13 or older,no,2021-03-24_16h57.39.124,empathy_intonation_perc,2020.2.10,Win32,60,,,,,,,,,,0,chilean,0,1,1.679575,0,32,32,7,1,8,./stim/wavs/andalusian_match_declarative-broad-focus_Marta-abre-el-regalo.wav,./stim/wavs/argentine_match_declarative-broad-focus_Marta-abre-el-regalo.wav,./stim/wavs/castilian_match_declarative-broad-focus_Marta-abre-el-regalo.wav,./stim/wavs/chilean_match_declarative-broad-focus_Marta-abre-el-regalo.wav,./stim/wavs/cuban_match_declarative-broad-focus_Marta-abre-el-regalo.wav,./stim/wavs/mexican_match_declarative-broad-focus_Marta-abre-el-regalo.wav,./stim/wavs/peruvian_match_declarative-broad-focus_Marta-abre-el-regalo.wav,./stim/wavs/puertorican_match_declarative-broad-focus_Marta-abre-el-regalo.wav,,,,,,,,,,,,,,,,,,,,,,,,,,,,,,,,,,,,,,,,,,,,,,,,,,,,,,,,
,,,,,,,604243ad9743df09e0f72587,605b45a4d25f287719a41696,605ba708c286ac8a5a456c39,Mexico,Midwest,13 or older,no,2021-03-24_16h57.39.124,empathy_intonation_perc,2020.2.10,Win32,60,,,,,,,,,,1,argentine,1,1,1.444975,0,33,33,29,1,30,./stim/wavs/andalusian_match_interrogative-total-yn_Maria-bebe-el-vino.wav,./stim/wavs/argentine_match_interrogative-total-yn_Maria-bebe-el-vino.wav,./stim/wavs/castilian_match_interrogative-total-yn_Maria-bebe-el-vino.wav,./stim/wavs/chilean_match_interrogative-total-yn_Maria-bebe-el-vino.wav,./stim/wavs/cuban_match_interrogative-total-yn_Maria-bebe-el-vino.wav,./stim/wavs/mexican_match_interrogative-total-yn_Maria-bebe-el-vino.wav,./stim/wavs/peruvian_match_interrogative-total-yn_Maria-bebe-el-vino.wav,./stim/wavs/puertorican_match_interrogative-total-yn_Maria-bebe-el-vino.wav,,,,,,,,,,,,,,,,,,,,,,,,,,,,,,,,,,,,,,,,,,,,,,,,,,,,,,,,
,,,,,,,604243ad9743df09e0f72587,605b45a4d25f287719a41696,605ba708c286ac8a5a456c39,Mexico,Midwest,13 or older,no,2021-03-24_16h57.39.124,empathy_intonation_perc,2020.2.10,Win32,60,,,,,,,,,,0,cuban,0,1,1.551145,0,34,34,42,1,43,./stim/wavs/andalusian_mismatch_declarative-narrow-focus_El-nino-oye-el-rio.wav,./stim/wavs/argentine_mismatch_declarative-narrow-focus_El-nino-oye-el-rio.wav,./stim/wavs/castilian_mismatch_declarative-narrow-focus_El-nino-oye-el-rio.wav,./stim/wavs/chilean_mismatch_declarative-narrow-focus_El-nino-oye-el-rio.wav,./stim/wavs/cuban_mismatch_declarative-narrow-focus_El-nino-oye-el-rio.wav,./stim/wavs/mexican_mismatch_declarative-narrow-focus_El-nino-oye-el-rio.wav,./stim/wavs/peruvian_mismatch_declarative-narrow-focus_El-nino-oye-el-rio.wav,./stim/wavs/puertorican_mismatch_declarative-narrow-focus_El-nino-oye-el-rio.wav,,,,,,,,,,,,,,,,,,,,,,,,,,,,,,,,,,,,,,,,,,,,,,,,,,,,,,,,
,,,,,,,604243ad9743df09e0f72587,605b45a4d25f287719a41696,605ba708c286ac8a5a456c39,Mexico,Midwest,13 or older,no,2021-03-24_16h57.39.124,empathy_intonation_perc,2020.2.10,Win32,60,,,,,,,,,,1,chilean,1,1,1.748655,0,35,35,31,1,32,./stim/wavs/andalusian_match_interrogative-total-yn_Marta-abre-el-regalo.wav,./stim/wavs/argentine_match_interrogative-total-yn_Marta-abre-el-regalo.wav,./stim/wavs/castilian_match_interrogative-total-yn_Marta-abre-el-regalo.wav,./stim/wavs/chilean_match_interrogative-total-yn_Marta-abre-el-regalo.wav,./stim/wavs/cuban_match_interrogative-total-yn_Marta-abre-el-regalo.wav,./stim/wavs/mexican_match_interrogative-total-yn_Marta-abre-el-regalo.wav,./stim/wavs/peruvian_match_interrogative-total-yn_Marta-abre-el-regalo.wav,./stim/wavs/puertorican_match_interrogative-total-yn_Marta-abre-el-regalo.wav,,,,,,,,,,,,,,,,,,,,,,,,,,,,,,,,,,,,,,,,,,,,,,,,,,,,,,,,
,,,,,,,604243ad9743df09e0f72587,605b45a4d25f287719a41696,605ba708c286ac8a5a456c39,Mexico,Midwest,13 or older,no,2021-03-24_16h57.39.124,empathy_intonation_perc,2020.2.10,Win32,60,,,,,,,,,,1,cuban,1,1,1.273805,0,36,36,48,1,49,./stim/wavs/andalusian_mismatch_interrogative-partial-wh_Cuando-comia-la-fruta.wav,./stim/wavs/argentine_mismatch_interrogative-partial-wh_Cuando-comia-la-fruta.wav,./stim/wavs/castilian_mismatch_interrogative-partial-wh_Cuando-comia-la-fruta.wav,./stim/wavs/chilean_mismatch_interrogative-partial-wh_Cuando-comia-la-fruta.wav,./stim/wavs/cuban_mismatch_interrogative-partial-wh_Cuando-comia-la-fruta.wav,./stim/wavs/mexican_mismatch_interrogative-partial-wh_Cuando-comia-la-fruta.wav,./stim/wavs/peruvian_mismatch_interrogative-partial-wh_Cuando-comia-la-fruta.wav,./stim/wavs/puertorican_mismatch_interrogative-partial-wh_Cuando-comia-la-fruta.wav,,,,,,,,,,,,,,,,,,,,,,,,,,,,,,,,,,,,,,,,,,,,,,,,,,,,,,,,
,,,,,,,604243ad9743df09e0f72587,605b45a4d25f287719a41696,605ba708c286ac8a5a456c39,Mexico,Midwest,13 or older,no,2021-03-24_16h57.39.124,empathy_intonation_perc,2020.2.10,Win32,60,,,,,,,,,,0,mexican,0,1,1.5856,0,37,37,4,1,5,./stim/wavs/andalusian_match_declarative-broad-focus_Manuela-vende-el-carro.wav,./stim/wavs/argentine_match_declarative-broad-focus_Manuela-vende-el-carro.wav,./stim/wavs/castilian_match_declarative-broad-focus_Manuela-vende-el-carro.wav,./stim/wavs/chilean_match_declarative-broad-focus_Manuela-vende-el-carro.wav,./stim/wavs/cuban_match_declarative-broad-focus_Manuela-vende-el-carro.wav,./stim/wavs/mexican_match_declarative-broad-focus_Manuela-vende-el-carro.wav,./stim/wavs/peruvian_match_declarative-broad-focus_Manuela-vende-el-carro.wav,./stim/wavs/puertorican_match_declarative-broad-focus_Manuela-vende-el-carro.wav,,,,,,,,,,,,,,,,,,,,,,,,,,,,,,,,,,,,,,,,,,,,,,,,,,,,,,,,
,,,,,,,604243ad9743df09e0f72587,605b45a4d25f287719a41696,605ba708c286ac8a5a456c39,Mexico,Midwest,13 or older,no,2021-03-24_16h57.39.124,empathy_intonation_perc,2020.2.10,Win32,60,,,,,,,,,,1,argentine,0,0,1.58936,0,38,38,16,1,17,./stim/wavs/andalusian_match_interrogative-partial-wh_Cuando-bebia-el-vino.wav,./stim/wavs/argentine_match_interrogative-partial-wh_Cuando-bebia-el-vino.wav,./stim/wavs/castilian_match_interrogative-partial-wh_Cuando-bebia-el-vino.wav,./stim/wavs/chilean_match_interrogative-partial-wh_Cuando-bebia-el-vino.wav,./stim/wavs/cuban_match_interrogative-partial-wh_Cuando-bebia-el-vino.wav,./stim/wavs/mexican_match_interrogative-partial-wh_Cuando-bebia-el-vino.wav,./stim/wavs/peruvian_match_interrogative-partial-wh_Cuando-bebia-el-vino.wav,./stim/wavs/puertorican_match_interrogative-partial-wh_Cuando-bebia-el-vino.wav,,,,,,,,,,,,,,,,,,,,,,,,,,,,,,,,,,,,,,,,,,,,,,,,,,,,,,,,
,,,,,,,604243ad9743df09e0f72587,605b45a4d25f287719a41696,605ba708c286ac8a5a456c39,Mexico,Midwest,13 or older,no,2021-03-24_16h57.39.124,empathy_intonation_perc,2020.2.10,Win32,60,,,,,,,,,,0,mexican,0,1,1.80147,0,39,39,0,1,1,./stim/wavs/andalusian_match_declarative-broad-focus_Ana-lleva-el-abrigo.wav,./stim/wavs/argentine_match_declarative-broad-focus_Ana-lleva-el-abrigo.wav,./stim/wavs/castilian_match_declarative-broad-focus_Ana-lleva-el-abrigo.wav,./stim/wavs/chilean_match_declarative-broad-focus_Ana-lleva-el-abrigo.wav,./stim/wavs/cuban_match_declarative-broad-focus_Ana-lleva-el-abrigo.wav,./stim/wavs/mexican_match_declarative-broad-focus_Ana-lleva-el-abrigo.wav,./stim/wavs/peruvian_match_declarative-broad-focus_Ana-lleva-el-abrigo.wav,./stim/wavs/puertorican_match_declarative-broad-focus_Ana-lleva-el-abrigo.wav,,,,,,,,,,,,,,,,,,,,,,,,,,,,,,,,,,,,,,,,,,,,,,,,,,,,,,,,
,,,,,,,604243ad9743df09e0f72587,605b45a4d25f287719a41696,605ba708c286ac8a5a456c39,Mexico,Midwest,13 or older,no,2021-03-24_16h57.39.124,empathy_intonation_perc,2020.2.10,Win32,60,,,,,,,,,,1,mexican,1,1,1.523545,0,40,40,27,1,28,./stim/wavs/andalusian_match_interrogative-total-yn_Emilio-ama-la-marcha.wav,./stim/wavs/argentine_match_interrogative-total-yn_Emilio-ama-la-marcha.wav,./stim/wavs/castilian_match_interrogative-total-yn_Emilio-ama-la-marcha.wav,./stim/wavs/chilean_match_interrogative-total-yn_Emilio-ama-la-marcha.wav,./stim/wavs/cuban_match_interrogative-total-yn_Emilio-ama-la-marcha.wav,./stim/wavs/mexican_match_interrogative-total-yn_Emilio-ama-la-marcha.wav,./stim/wavs/peruvian_match_interrogative-total-yn_Emilio-ama-la-marcha.wav,./stim/wavs/puertorican_match_interrogative-total-yn_Emilio-ama-la-marcha.wav,,,,,,,,,,,,,,,,,,,,,,,,,,,,,,,,,,,,,,,,,,,,,,,,,,,,,,,,
,,,,,,,604243ad9743df09e0f72587,605b45a4d25f287719a41696,605ba708c286ac8a5a456c39,Mexico,Midwest,13 or older,no,2021-03-24_16h57.39.124,empathy_intonation_perc,2020.2.10,Win32,60,,,,,,,,,,1,castilian,1,1,1.553145,0,41,41,57,1,58,./stim/wavs/andalusian_mismatch_interrogative-total-yn_El-hombre-mira-la-luna.wav,./stim/wavs/argentine_mismatch_interrogative-total-yn_El-hombre-mira-la-luna.wav,./stim/wavs/castilian_mismatch_interrogative-total-yn_El-hombre-mira-la-luna.wav,./stim/wavs/chilean_mismatch_interrogative-total-yn_El-hombre-mira-la-luna.wav,./stim/wavs/cuban_mismatch_interrogative-total-yn_El-hombre-mira-la-luna.wav,./stim/wavs/mexican_mismatch_interrogative-total-yn_El-hombre-mira-la-luna.wav,./stim/wavs/peruvian_mismatch_interrogative-total-yn_El-hombre-mira-la-luna.wav,./stim/wavs/puertorican_mismatch_interrogative-total-yn_El-hombre-mira-la-luna.wav,,,,,,,,,,,,,,,,,,,,,,,,,,,,,,,,,,,,,,,,,,,,,,,,,,,,,,,,
,,,,,,,604243ad9743df09e0f72587,605b45a4d25f287719a41696,605ba708c286ac8a5a456c39,Mexico,Midwest,13 or older,no,2021-03-24_16h57.39.124,empathy_intonation_perc,2020.2.10,Win32,60,,,,,,,,,,0,mexican,0,1,1.574215,0,42,42,1,1,2,./stim/wavs/andalusian_match_declarative-broad-focus_Daniel-iba-a-Bolivia.wav,./stim/wavs/argentine_match_declarative-broad-focus_Daniel-iba-a-Bolivia.wav,./stim/wavs/castilian_match_declarative-broad-focus_Daniel-iba-a-Bolivia.wav,./stim/wavs/chilean_match_declarative-broad-focus_Daniel-iba-a-Bolivia.wav,./stim/wavs/cuban_match_declarative-broad-focus_Daniel-iba-a-Bolivia.wav,./stim/wavs/mexican_match_declarative-broad-focus_Daniel-iba-a-Bolivia.wav,./stim/wavs/peruvian_match_declarative-broad-focus_Daniel-iba-a-Bolivia.wav,./stim/wavs/puertorican_match_declarative-broad-focus_Daniel-iba-a-Bolivia.wav,,,,,,,,,,,,,,,,,,,,,,,,,,,,,,,,,,,,,,,,,,,,,,,,,,,,,,,,
,,,,,,,604243ad9743df09e0f72587,605b45a4d25f287719a41696,605ba708c286ac8a5a456c39,Mexico,Midwest,13 or older,no,2021-03-24_16h57.39.124,empathy_intonation_perc,2020.2.10,Win32,60,,,,,,,,,,1,argentine,1,1,1.468635,0,43,43,58,1,59,./stim/wavs/andalusian_mismatch_interrogative-total-yn_El-nino-oye-el-rio.wav,./stim/wavs/argentine_mismatch_interrogative-total-yn_El-nino-oye-el-rio.wav,./stim/wavs/castilian_mismatch_interrogative-total-yn_El-nino-oye-el-rio.wav,./stim/wavs/chilean_mismatch_interrogative-total-yn_El-nino-oye-el-rio.wav,./stim/wavs/cuban_mismatch_interrogative-total-yn_El-nino-oye-el-rio.wav,./stim/wavs/mexican_mismatch_interrogative-total-yn_El-nino-oye-el-rio.wav,./stim/wavs/peruvian_mismatch_interrogative-total-yn_El-nino-oye-el-rio.wav,./stim/wavs/puertorican_mismatch_interrogative-total-yn_El-nino-oye-el-rio.wav,,,,,,,,,,,,,,,,,,,,,,,,,,,,,,,,,,,,,,,,,,,,,,,,,,,,,,,,
,,,,,,,604243ad9743df09e0f72587,605b45a4d25f287719a41696,605ba708c286ac8a5a456c39,Mexico,Midwest,13 or older,no,2021-03-24_16h57.39.124,empathy_intonation_perc,2020.2.10,Win32,60,,,,,,,,,,0,peruvian,0,1,1.76229,0,44,44,15,1,16,./stim/wavs/andalusian_match_declarative-narrow-focus_Marta-abre-el-regalo.wav,./stim/wavs/argentine_match_declarative-narrow-focus_Marta-abre-el-regalo.wav,./stim/wavs/castilian_match_declarative-narrow-focus_Marta-abre-el-regalo.wav,./stim/wavs/chilean_match_declarative-narrow-focus_Marta-abre-el-regalo.wav,./stim/wavs/cuban_match_declarative-narrow-focus_Marta-abre-el-regalo.wav,./stim/wavs/mexican_match_declarative-narrow-focus_Marta-abre-el-regalo.wav,./stim/wavs/peruvian_match_declarative-narrow-focus_Marta-abre-el-regalo.wav,./stim/wavs/puertorican_match_declarative-narrow-focus_Marta-abre-el-regalo.wav,,,,,,,,,,,,,,,,,,,,,,,,,,,,,,,,,,,,,,,,,,,,,,,,,,,,,,,,
,,,,,,,604243ad9743df09e0f72587,605b45a4d25f287719a41696,605ba708c286ac8a5a456c39,Mexico,Midwest,13 or older,no,2021-03-24_16h57.39.124,empathy_intonation_perc,2020.2.10,Win32,60,,,,,,,,,,0,andalusian,0,1,1.830075,0,45,45,14,1,15,./stim/wavs/andalusian_match_declarative-narrow-focus_Mariano-habla-del-tiempo.wav,./stim/wavs/argentine_match_declarative-narrow-focus_Mariano-habla-del-tiempo.wav,./stim/wavs/castilian_match_declarative-narrow-focus_Mariano-habla-del-tiempo.wav,./stim/wavs/chilean_match_declarative-narrow-focus_Mariano-habla-del-tiempo.wav,./stim/wavs/cuban_match_declarative-narrow-focus_Mariano-habla-del-tiempo.wav,./stim/wavs/mexican_match_declarative-narrow-focus_Mariano-habla-del-tiempo.wav,./stim/wavs/peruvian_match_declarative-narrow-focus_Mariano-habla-del-tiempo.wav,./stim/wavs/puertorican_match_declarative-narrow-focus_Mariano-habla-del-tiempo.wav,,,,,,,,,,,,,,,,,,,,,,,,,,,,,,,,,,,,,,,,,,,,,,,,,,,,,,,,
,,,,,,,604243ad9743df09e0f72587,605b45a4d25f287719a41696,605ba708c286ac8a5a456c39,Mexico,Midwest,13 or older,no,2021-03-24_16h57.39.124,empathy_intonation_perc,2020.2.10,Win32,60,,,,,,,,,,1,cuban,0,0,1.720125,0,46,46,51,1,52,./stim/wavs/andalusian_mismatch_interrogative-partial-wh_Por-que-desayuna-muy-bien.wav,./stim/wavs/argentine_mismatch_interrogative-partial-wh_Por-que-desayuna-muy-bien.wav,./stim/wavs/castilian_mismatch_interrogative-partial-wh_Por-que-desayuna-muy-bien.wav,./stim/wavs/chilean_mismatch_interrogative-partial-wh_Por-que-desayuna-muy-bien.wav,./stim/wavs/cuban_mismatch_interrogative-partial-wh_Por-que-desayuna-muy-bien.wav,./stim/wavs/mexican_mismatch_interrogative-partial-wh_Por-que-desayuna-muy-bien.wav,./stim/wavs/peruvian_mismatch_interrogative-partial-wh_Por-que-desayuna-muy-bien.wav,./stim/wavs/puertorican_mismatch_interrogative-partial-wh_Por-que-desayuna-muy-bien.wav,,,,,,,,,,,,,,,,,,,,,,,,,,,,,,,,,,,,,,,,,,,,,,,,,,,,,,,,
,,,,,,,604243ad9743df09e0f72587,605b45a4d25f287719a41696,605ba708c286ac8a5a456c39,Mexico,Midwest,13 or older,no,2021-03-24_16h57.39.124,empathy_intonation_perc,2020.2.10,Win32,60,,,,,,,,,,0,mexican,0,1,1.68748,0,47,47,41,1,42,./stim/wavs/andalusian_mismatch_declarative-narrow-focus_El-hombre-mira-la-luna.wav,./stim/wavs/argentine_mismatch_declarative-narrow-focus_El-hombre-mira-la-luna.wav,./stim/wavs/castilian_mismatch_declarative-narrow-focus_El-hombre-mira-la-luna.wav,./stim/wavs/chilean_mismatch_declarative-narrow-focus_El-hombre-mira-la-luna.wav,./stim/wavs/cuban_mismatch_declarative-narrow-focus_El-hombre-mira-la-luna.wav,./stim/wavs/mexican_mismatch_declarative-narrow-focus_El-hombre-mira-la-luna.wav,./stim/wavs/peruvian_mismatch_declarative-narrow-focus_El-hombre-mira-la-luna.wav,./stim/wavs/puertorican_mismatch_declarative-narrow-focus_El-hombre-mira-la-luna.wav,,,,,,,,,,,,,,,,,,,,,,,,,,,,,,,,,,,,,,,,,,,,,,,,,,,,,,,,
,,,,,,,604243ad9743df09e0f72587,605b45a4d25f287719a41696,605ba708c286ac8a5a456c39,Mexico,Midwest,13 or older,no,2021-03-24_16h57.39.124,empathy_intonation_perc,2020.2.10,Win32,60,,,,,,,,,,0,cuban,0,1,1.7524,0,48,48,43,1,44,./stim/wavs/andalusian_mismatch_declarative-narrow-focus_La-maestra-vive-en-Paris.wav,./stim/wavs/argentine_mismatch_declarative-narrow-focus_La-maestra-vive-en-Paris.wav,./stim/wavs/castilian_mismatch_declarative-narrow-focus_La-maestra-vive-en-Paris.wav,./stim/wavs/chilean_mismatch_declarative-narrow-focus_La-maestra-vive-en-Paris.wav,./stim/wavs/cuban_mismatch_declarative-narrow-focus_La-maestra-vive-en-Paris.wav,./stim/wavs/mexican_mismatch_declarative-narrow-focus_La-maestra-vive-en-Paris.wav,./stim/wavs/peruvian_mismatch_declarative-narrow-focus_La-maestra-vive-en-Paris.wav,./stim/wavs/puertorican_mismatch_declarative-narrow-focus_La-maestra-vive-en-Paris.wav,,,,,,,,,,,,,,,,,,,,,,,,,,,,,,,,,,,,,,,,,,,,,,,,,,,,,,,,
,,,,,,,604243ad9743df09e0f72587,605b45a4d25f287719a41696,605ba708c286ac8a5a456c39,Mexico,Midwest,13 or older,no,2021-03-24_16h57.39.124,empathy_intonation_perc,2020.2.10,Win32,60,,,,,,,,,,0,mexican,0,1,1.907275,0,49,49,32,1,33,./stim/wavs/andalusian_mismatch_declarative-broad-focus_El-bebe-comia-muy-bien.wav,./stim/wavs/argentine_mismatch_declarative-broad-focus_El-bebe-comia-muy-bien.wav,./stim/wavs/castilian_mismatch_declarative-broad-focus_El-bebe-comia-muy-bien.wav,./stim/wavs/chilean_mismatch_declarative-broad-focus_El-bebe-comia-muy-bien.wav,./stim/wavs/cuban_mismatch_declarative-broad-focus_El-bebe-comia-muy-bien.wav,./stim/wavs/mexican_mismatch_declarative-broad-focus_El-bebe-comia-muy-bien.wav,./stim/wavs/peruvian_mismatch_declarative-broad-focus_El-bebe-comia-muy-bien.wav,./stim/wavs/puertorican_mismatch_declarative-broad-focus_El-bebe-comia-muy-bien.wav,,,,,,,,,,,,,,,,,,,,,,,,,,,,,,,,,,,,,,,,,,,,,,,,,,,,,,,,
,,,,,,,604243ad9743df09e0f72587,605b45a4d25f287719a41696,605ba708c286ac8a5a456c39,Mexico,Midwest,13 or older,no,2021-03-24_16h57.39.124,empathy_intonation_perc,2020.2.10,Win32,60,,,,,,,,,,1,chilean,1,1,1.5063,0,50,50,25,1,26,./stim/wavs/andalusian_match_interrogative-total-yn_Daniel-iba-a-Bolivia.wav,./stim/wavs/argentine_match_interrogative-total-yn_Daniel-iba-a-Bolivia.wav,./stim/wavs/castilian_match_interrogative-total-yn_Daniel-iba-a-Bolivia.wav,./stim/wavs/chilean_match_interrogative-total-yn_Daniel-iba-a-Bolivia.wav,./stim/wavs/cuban_match_interrogative-total-yn_Daniel-iba-a-Bolivia.wav,./stim/wavs/mexican_match_interrogative-total-yn_Daniel-iba-a-Bolivia.wav,./stim/wavs/peruvian_match_interrogative-total-yn_Daniel-iba-a-Bolivia.wav,./stim/wavs/puertorican_match_interrogative-total-yn_Daniel-iba-a-Bolivia.wav,,,,,,,,,,,,,,,,,,,,,,,,,,,,,,,,,,,,,,,,,,,,,,,,,,,,,,,,
,,,,,,,604243ad9743df09e0f72587,605b45a4d25f287719a41696,605ba708c286ac8a5a456c39,Mexico,Midwest,13 or older,no,2021-03-24_16h57.39.124,empathy_intonation_perc,2020.2.10,Win32,60,,,,,,,,,,0,mexican,0,1,1.66379,0,51,51,12,1,13,./stim/wavs/andalusian_match_declarative-narrow-focus_Manuela-vende-el-carro.wav,./stim/wavs/argentine_match_declarative-narrow-focus_Manuela-vende-el-carro.wav,./stim/wavs/castilian_match_declarative-narrow-focus_Manuela-vende-el-carro.wav,./stim/wavs/chilean_match_declarative-narrow-focus_Manuela-vende-el-carro.wav,./stim/wavs/cuban_match_declarative-narrow-focus_Manuela-vende-el-carro.wav,./stim/wavs/mexican_match_declarative-narrow-focus_Manuela-vende-el-carro.wav,./stim/wavs/peruvian_match_declarative-narrow-focus_Manuela-vende-el-carro.wav,./stim/wavs/puertorican_match_declarative-narrow-focus_Manuela-vende-el-carro.wav,,,,,,,,,,,,,,,,,,,,,,,,,,,,,,,,,,,,,,,,,,,,,,,,,,,,,,,,
,,,,,,,604243ad9743df09e0f72587,605b45a4d25f287719a41696,605ba708c286ac8a5a456c39,Mexico,Midwest,13 or older,no,2021-03-24_16h57.39.124,empathy_intonation_perc,2020.2.10,Win32,60,,,,,,,,,,1,mexican,1,1,1.50601,0,52,52,19,1,20,./stim/wavs/andalusian_match_interrogative-partial-wh_Cuando-vendia-el-carro.wav,./stim/wavs/argentine_match_interrogative-partial-wh_Cuando-vendia-el-carro.wav,./stim/wavs/castilian_match_interrogative-partial-wh_Cuando-vendia-el-carro.wav,./stim/wavs/chilean_match_interrogative-partial-wh_Cuando-vendia-el-carro.wav,./stim/wavs/cuban_match_interrogative-partial-wh_Cuando-vendia-el-carro.wav,./stim/wavs/mexican_match_interrogative-partial-wh_Cuando-vendia-el-carro.wav,./stim/wavs/peruvian_match_interrogative-partial-wh_Cuando-vendia-el-carro.wav,./stim/wavs/puertorican_match_interrogative-partial-wh_Cuando-vendia-el-carro.wav,,,,,,,,,,,,,,,,,,,,,,,,,,,,,,,,,,,,,,,,,,,,,,,,,,,,,,,,
,,,,,,,604243ad9743df09e0f72587,605b45a4d25f287719a41696,605ba708c286ac8a5a456c39,Mexico,Midwest,13 or older,no,2021-03-24_16h57.39.124,empathy_intonation_perc,2020.2.10,Win32,60,,,,,,,,,,0,argentine,0,1,1.623815,0,53,53,33,1,34,./stim/wavs/andalusian_mismatch_declarative-broad-focus_El-hombre-mira-la-luna.wav,./stim/wavs/argentine_mismatch_declarative-broad-focus_El-hombre-mira-la-luna.wav,./stim/wavs/castilian_mismatch_declarative-broad-focus_El-hombre-mira-la-luna.wav,./stim/wavs/chilean_mismatch_declarative-broad-focus_El-hombre-mira-la-luna.wav,./stim/wavs/cuban_mismatch_declarative-broad-focus_El-hombre-mira-la-luna.wav,./stim/wavs/mexican_mismatch_declarative-broad-focus_El-hombre-mira-la-luna.wav,./stim/wavs/peruvian_mismatch_declarative-broad-focus_El-hombre-mira-la-luna.wav,./stim/wavs/puertorican_mismatch_declarative-broad-focus_El-hombre-mira-la-luna.wav,,,,,,,,,,,,,,,,,,,,,,,,,,,,,,,,,,,,,,,,,,,,,,,,,,,,,,,,
,,,,,,,604243ad9743df09e0f72587,605b45a4d25f287719a41696,605ba708c286ac8a5a456c39,Mexico,Midwest,13 or older,no,2021-03-24_16h57.39.124,empathy_intonation_perc,2020.2.10,Win32,60,,,,,,,,,,0,andalusian,0,1,2.06682,0,54,54,6,1,7,./stim/wavs/andalusian_match_declarative-broad-focus_Mariano-habla-del-tiempo.wav,./stim/wavs/argentine_match_declarative-broad-focus_Mariano-habla-del-tiempo.wav,./stim/wavs/castilian_match_declarative-broad-focus_Mariano-habla-del-tiempo.wav,./stim/wavs/chilean_match_declarative-broad-focus_Mariano-habla-del-tiempo.wav,./stim/wavs/cuban_match_declarative-broad-focus_Mariano-habla-del-tiempo.wav,./stim/wavs/mexican_match_declarative-broad-focus_Mariano-habla-del-tiempo.wav,./stim/wavs/peruvian_match_declarative-broad-focus_Mariano-habla-del-tiempo.wav,./stim/wavs/puertorican_match_declarative-broad-focus_Mariano-habla-del-tiempo.wav,,,,,,,,,,,,,,,,,,,,,,,,,,,,,,,,,,,,,,,,,,,,,,,,,,,,,,,,
,,,,,,,604243ad9743df09e0f72587,605b45a4d25f287719a41696,605ba708c286ac8a5a456c39,Mexico,Midwest,13 or older,no,2021-03-24_16h57.39.124,empathy_intonation_perc,2020.2.10,Win32,60,,,,,,,,,,1,puertorican,0,0,1.666855,0,55,55,56,1,57,./stim/wavs/andalusian_mismatch_interrogative-total-yn_El-bebe-comia-muy-bien.wav,./stim/wavs/argentine_mismatch_interrogative-total-yn_El-bebe-comia-muy-bien.wav,./stim/wavs/castilian_mismatch_interrogative-total-yn_El-bebe-comia-muy-bien.wav,./stim/wavs/chilean_mismatch_interrogative-total-yn_El-bebe-comia-muy-bien.wav,./stim/wavs/cuban_mismatch_interrogative-total-yn_El-bebe-comia-muy-bien.wav,./stim/wavs/mexican_mismatch_interrogative-total-yn_El-bebe-comia-muy-bien.wav,./stim/wavs/peruvian_mismatch_interrogative-total-yn_El-bebe-comia-muy-bien.wav,./stim/wavs/puertorican_mismatch_interrogative-total-yn_El-bebe-comia-muy-bien.wav,,,,,,,,,,,,,,,,,,,,,,,,,,,,,,,,,,,,,,,,,,,,,,,,,,,,,,,,
,,,,,,,604243ad9743df09e0f72587,605b45a4d25f287719a41696,605ba708c286ac8a5a456c39,Mexico,Midwest,13 or older,no,2021-03-24_16h57.39.124,empathy_intonation_perc,2020.2.10,Win32,60,,,,,,,,,,0,puertorican,0,1,1.689945,0,56,56,38,1,39,./stim/wavs/andalusian_mismatch_declarative-broad-focus_Mi-novio-viene-del-lago.wav,./stim/wavs/argentine_mismatch_declarative-broad-focus_Mi-novio-viene-del-lago.wav,./stim/wavs/castilian_mismatch_declarative-broad-focus_Mi-novio-viene-del-lago.wav,./stim/wavs/chilean_mismatch_declarative-broad-focus_Mi-novio-viene-del-lago.wav,./stim/wavs/cuban_mismatch_declarative-broad-focus_Mi-novio-viene-del-lago.wav,./stim/wavs/mexican_mismatch_declarative-broad-focus_Mi-novio-viene-del-lago.wav,./stim/wavs/peruvian_mismatch_declarative-broad-focus_Mi-novio-viene-del-lago.wav,./stim/wavs/puertorican_mismatch_declarative-broad-focus_Mi-novio-viene-del-lago.wav,,,,,,,,,,,,,,,,,,,,,,,,,,,,,,,,,,,,,,,,,,,,,,,,,,,,,,,,
,,,,,,,604243ad9743df09e0f72587,605b45a4d25f287719a41696,605ba708c286ac8a5a456c39,Mexico,Midwest,13 or older,no,2021-03-24_16h57.39.124,empathy_intonation_perc,2020.2.10,Win32,60,,,,,,,,,,0,puertorican,1,0,1.466815,0,57,57,5,1,6,./stim/wavs/andalusian_match_declarative-broad-focus_Maria-bebe-el-vino.wav,./stim/wavs/argentine_match_declarative-broad-focus_Maria-bebe-el-vino.wav,./stim/wavs/castilian_match_declarative-broad-focus_Maria-bebe-el-vino.wav,./stim/wavs/chilean_match_declarative-broad-focus_Maria-bebe-el-vino.wav,./stim/wavs/cuban_match_declarative-broad-focus_Maria-bebe-el-vino.wav,./stim/wavs/mexican_match_declarative-broad-focus_Maria-bebe-el-vino.wav,./stim/wavs/peruvian_match_declarative-broad-focus_Maria-bebe-el-vino.wav,./stim/wavs/puertorican_match_declarative-broad-focus_Maria-bebe-el-vino.wav,,,,,,,,,,,,,,,,,,,,,,,,,,,,,,,,,,,,,,,,,,,,,,,,,,,,,,,,
,,,,,,,604243ad9743df09e0f72587,605b45a4d25f287719a41696,605ba708c286ac8a5a456c39,Mexico,Midwest,13 or older,no,2021-03-24_16h57.39.124,empathy_intonation_perc,2020.2.10,Win32,60,,,,,,,,,,0,mexican,0,1,1.625275,0,58,58,45,1,46,./stim/wavs/andalusian_mismatch_declarative-narrow-focus_Mi-madre-come-la-fruta.wav,./stim/wavs/argentine_mismatch_declarative-narrow-focus_Mi-madre-come-la-fruta.wav,./stim/wavs/castilian_mismatch_declarative-narrow-focus_Mi-madre-come-la-fruta.wav,./stim/wavs/chilean_mismatch_declarative-narrow-focus_Mi-madre-come-la-fruta.wav,./stim/wavs/cuban_mismatch_declarative-narrow-focus_Mi-madre-come-la-fruta.wav,./stim/wavs/mexican_mismatch_declarative-narrow-focus_Mi-madre-come-la-fruta.wav,./stim/wavs/peruvian_mismatch_declarative-narrow-focus_Mi-madre-come-la-fruta.wav,./stim/wavs/puertorican_mismatch_declarative-narrow-focus_Mi-madre-come-la-fruta.wav,,,,,,,,,,,,,,,,,,,,,,,,,,,,,,,,,,,,,,,,,,,,,,,,,,,,,,,,
,,,,,,,604243ad9743df09e0f72587,605b45a4d25f287719a41696,605ba708c286ac8a5a456c39,Mexico,Midwest,13 or older,no,2021-03-24_16h57.39.124,empathy_intonation_perc,2020.2.10,Win32,60,,,,,,,,,,0,castilian,0,1,1.835735,0,59,59,11,1,12,./stim/wavs/andalusian_match_declarative-narrow-focus_Emilio-ama-la-marcha.wav,./stim/wavs/argentine_match_declarative-narrow-focus_Emilio-ama-la-marcha.wav,./stim/wavs/castilian_match_declarative-narrow-focus_Emilio-ama-la-marcha.wav,./stim/wavs/chilean_match_declarative-narrow-focus_Emilio-ama-la-marcha.wav,./stim/wavs/cuban_match_declarative-narrow-focus_Emilio-ama-la-marcha.wav,./stim/wavs/mexican_match_declarative-narrow-focus_Emilio-ama-la-marcha.wav,./stim/wavs/peruvian_match_declarative-narrow-focus_Emilio-ama-la-marcha.wav,./stim/wavs/puertorican_match_declarative-narrow-focus_Emilio-ama-la-marcha.wav,,,,,,,,,,,,,,,,,,,,,,,,,,,,,,,,,,,,,,,,,,,,,,,,,,,,,,,,
,,,,,,,604243ad9743df09e0f72587,605b45a4d25f287719a41696,605ba708c286ac8a5a456c39,Mexico,Midwest,13 or older,no,2021-03-24_16h57.39.124,empathy_intonation_perc,2020.2.10,Win32,60,,,,,,,,,,1,castilian,1,1,1.47568,0,60,60,24,1,25,./stim/wavs/andalusian_match_interrogative-total-yn_Ana-lleva-el-abrigo.wav,./stim/wavs/argentine_match_interrogative-total-yn_Ana-lleva-el-abrigo.wav,./stim/wavs/castilian_match_interrogative-total-yn_Ana-lleva-el-abrigo.wav,./stim/wavs/chilean_match_interrogative-total-yn_Ana-lleva-el-abrigo.wav,./stim/wavs/cuban_match_interrogative-total-yn_Ana-lleva-el-abrigo.wav,./stim/wavs/mexican_match_interrogative-total-yn_Ana-lleva-el-abrigo.wav,./stim/wavs/peruvian_match_interrogative-total-yn_Ana-lleva-el-abrigo.wav,./stim/wavs/puertorican_match_interrogative-total-yn_Ana-lleva-el-abrigo.wav,,,,,,,,,,,,,,,,,,,,,,,,,,,,,,,,,,,,,,,,,,,,,,,,,,,,,,,,
,,,,,,,604243ad9743df09e0f72587,605b45a4d25f287719a41696,605ba708c286ac8a5a456c39,Mexico,Midwest,13 or older,no,2021-03-24_16h57.39.124,empathy_intonation_perc,2020.2.10,Win32,60,,,,,,,,,,0,andalusian,0,1,1.789075,0,61,61,35,1,36,./stim/wavs/andalusian_mismatch_declarative-broad-focus_La-maestra-vive-en-Paris.wav,./stim/wavs/argentine_mismatch_declarative-broad-focus_La-maestra-vive-en-Paris.wav,./stim/wavs/castilian_mismatch_declarative-broad-focus_La-maestra-vive-en-Paris.wav,./stim/wavs/chilean_mismatch_declarative-broad-focus_La-maestra-vive-en-Paris.wav,./stim/wavs/cuban_mismatch_declarative-broad-focus_La-maestra-vive-en-Paris.wav,./stim/wavs/mexican_mismatch_declarative-broad-focus_La-maestra-vive-en-Paris.wav,./stim/wavs/peruvian_mismatch_declarative-broad-focus_La-maestra-vive-en-Paris.wav,./stim/wavs/puertorican_mismatch_declarative-broad-focus_La-maestra-vive-en-Paris.wav,,,,,,,,,,,,,,,,,,,,,,,,,,,,,,,,,,,,,,,,,,,,,,,,,,,,,,,,
,,,,,,,604243ad9743df09e0f72587,605b45a4d25f287719a41696,605ba708c286ac8a5a456c39,Mexico,Midwest,13 or older,no,2021-03-24_16h57.39.124,empathy_intonation_perc,2020.2.10,Win32,60,,,,,,,,,,0,cuban,0,1,1.577165,0,62,62,44,1,45,./stim/wavs/andalusian_mismatch_declarative-narrow-focus_La-nina-lava-el-plato.wav,./stim/wavs/argentine_mismatch_declarative-narrow-focus_La-nina-lava-el-plato.wav,./stim/wavs/castilian_mismatch_declarative-narrow-focus_La-nina-lava-el-plato.wav,./stim/wavs/chilean_mismatch_declarative-narrow-focus_La-nina-lava-el-plato.wav,./stim/wavs/cuban_mismatch_declarative-narrow-focus_La-nina-lava-el-plato.wav,./stim/wavs/mexican_mismatch_declarative-narrow-focus_La-nina-lava-el-plato.wav,./stim/wavs/peruvian_mismatch_declarative-narrow-focus_La-nina-lava-el-plato.wav,./stim/wavs/puertorican_mismatch_declarative-narrow-focus_La-nina-lava-el-plato.wav,,,,,,,,,,,,,,,,,,,,,,,,,,,,,,,,,,,,,,,,,,,,,,,,,,,,,,,,
,,,,,,,604243ad9743df09e0f72587,605b45a4d25f287719a41696,605ba708c286ac8a5a456c39,Mexico,Midwest,13 or older,no,2021-03-24_16h57.39.124,empathy_intonation_perc,2020.2.10,Win32,60,,,,,,,,,,0,peruvian,0,1,1.731295,0,63,63,8,1,9,./stim/wavs/andalusian_match_declarative-narrow-focus_Ana-lleva-el-abrigo.wav,./stim/wavs/argentine_match_declarative-narrow-focus_Ana-lleva-el-abrigo.wav,./stim/wavs/castilian_match_declarative-narrow-focus_Ana-lleva-el-abrigo.wav,./stim/wavs/chilean_match_declarative-narrow-focus_Ana-lleva-el-abrigo.wav,./stim/wavs/cuban_match_declarative-narrow-focus_Ana-lleva-el-abrigo.wav,./stim/wavs/mexican_match_declarative-narrow-focus_Ana-lleva-el-abrigo.wav,./stim/wavs/peruvian_match_declarative-narrow-focus_Ana-lleva-el-abrigo.wav,./stim/wavs/puertorican_match_declarative-narrow-focus_Ana-lleva-el-abrigo.wav,,,,,,,,,,,,,,,,,,,,,,,,,,,,,,,,,,,,,,,,,,,,,,,,,,,,,,,,
,,,,,,,604243ad9743df09e0f72587,605b45a4d25f287719a41696,605ba708c286ac8a5a456c39,Mexico,Midwest,13 or older,no,2021-03-24_16h57.39.124,empathy_intonation_perc,2020.2.10,Win32,60,,,,,,,,,,,,,,,,,,,,,,,,,,,,,h,1,7.935865,0,0,0,0,1,,,,,,,,,,,,,,,,,,,,,,,,,,,,,,,,,,,,,,,,,,,,,,,,
,,,,,"Great! Now we will move on. The next task consists of about 60 trials, in each of which you will see a string of letters. 
  
  Your task is to decide whether this is a real Spanish word or not.",(press the spacebar to continue),604243ad9743df09e0f72587,605b45a4d25f287719a41696,605ba708c286ac8a5a456c39,Mexico,Midwest,13 or older,no,2021-03-24_16h57.39.124,empathy_intonation_perc,2020.2.10,Win32,60,,,,,,,,,,,,,,,,,,,,,,,,,,,,,,,,,,,,,0,0,0,0,1,,,,,,,,,,,,,,,,,,,,,,,,,,,,,,,,,,,,,,,,,,,
,,,,,"If you think it is an existing Spanish word, you type '1' (for 'REAL'), and if you think it is not an existing Spanish word, you type '0' (for 'FAKE').",(press the spacebar to continue),604243ad9743df09e0f72587,605b45a4d25f287719a41696,605ba708c286ac8a5a456c39,Mexico,Midwest,13 or older,no,2021-03-24_16h57.39.124,empathy_intonation_perc,2020.2.10,Win32,60,,,,,,,,,,,,,,,,,,,,,,,,,,,,,,,,,,,,,0,1,1,1,1,,,,,,,,,,,,,,,,,,,,,,,,,,,,,,,,,,,,,,,,,,,
,,,,,"If you are sure that the word exists, even though you dont know its exact meaning, you may still respond '1' (REAL). 
  
  But if you are not sure if it is an existing word, you should respond '0' (FAKE).
  
  Let's do a practice round...",(press the spacebar to continue),604243ad9743df09e0f72587,605b45a4d25f287719a41696,605ba708c286ac8a5a456c39,Mexico,Midwest,13 or older,no,2021-03-24_16h57.39.124,empathy_intonation_perc,2020.2.10,Win32,60,,,,,,,,,,,,,,,,,,,,,,,,,,,,,,,,,,,,,0,2,2,2,1,,,,,,,,,,,,,,,,,,,,,,,,,,,,,,,,,,,,,,,,,,,
,,,,,,,604243ad9743df09e0f72587,605b45a4d25f287719a41696,605ba708c286ac8a5a456c39,Mexico,Midwest,13 or older,no,2021-03-24_16h57.39.124,empathy_intonation_perc,2020.2.10,Win32,60,,,,,,,,,,0,,,,,,,,,,,,,,,,,,,,,,,,,,,,,,,,0,1,1.393855,0,0,0,0,1,0,depiste,REAL,FAKE,,,,,,,,,,,,,,,,,,,,,,,,,,,,,,,
,,,,,,,604243ad9743df09e0f72587,605b45a4d25f287719a41696,605ba708c286ac8a5a456c39,Mexico,Midwest,13 or older,no,2021-03-24_16h57.39.124,empathy_intonation_perc,2020.2.10,Win32,60,,,,,,,,,,1,,,,,,,,,,,,,,,,,,,,,,,,,,,,,,,,1,1,0.724885,0,1,1,1,1,0,s,REAL,FAKE,,,,,,,,,,,,,,,,,,,,,,,,,,,,,,,
,,,,,,,604243ad9743df09e0f72587,605b45a4d25f287719a41696,605ba708c286ac8a5a456c39,Mexico,Midwest,13 or older,no,2021-03-24_16h57.39.124,empathy_intonation_perc,2020.2.10,Win32,60,,,,,,,,,,0,,,,,,,,,,,,,,,,,,,,,,,,,,,,,,,,0,1,1.05793,0,2,2,2,1,0,con,REAL,FAKE,,,,,,,,,,,,,,,,,,,,,,,,,,,,,,,
,,,,,,,604243ad9743df09e0f72587,605b45a4d25f287719a41696,605ba708c286ac8a5a456c39,Mexico,Midwest,13 or older,no,2021-03-24_16h57.39.124,empathy_intonation_perc,2020.2.10,Win32,60,,,,,,,,,,0,,,,,,,,,,,,,,,,,,,,,,,,,,,,,,,,0,1,0.786645,0,3,3,3,1,0,calpar,REAL,FAKE,,,,,,,,,,,,,,,,,,,,,,,,,,,,,,,
,,,,,,,604243ad9743df09e0f72587,605b45a4d25f287719a41696,605ba708c286ac8a5a456c39,Mexico,Midwest,13 or older,no,2021-03-24_16h57.39.124,empathy_intonation_perc,2020.2.10,Win32,60,,,,,,,,,,0,,,,,,,,,,,,,,,,,,,,,,,,,,,,,,,,0,1,0.66261,0,4,4,4,1,0,joten,REAL,FAKE,,,,,,,,,,,,,,,,,,,,,,,,,,,,,,,
,,,,,,,604243ad9743df09e0f72587,605b45a4d25f287719a41696,605ba708c286ac8a5a456c39,Mexico,Midwest,13 or older,no,2021-03-24_16h57.39.124,empathy_intonation_perc,2020.2.10,Win32,60,,,,,,,,,,1,,,,,,,,,,,,,,,,,,,,,,,,,,,,,,,,1,1,0.980735,0,5,5,5,1,0,sacapuntas,REAL,FAKE,,,,,,,,,,,,,,,,,,,,,,,,,,,,,,,
,,,,,,,604243ad9743df09e0f72587,605b45a4d25f287719a41696,605ba708c286ac8a5a456c39,Mexico,Midwest,13 or older,no,2021-03-24_16h57.39.124,empathy_intonation_perc,2020.2.10,Win32,60,,,,,,,,,,0,,,,,,,,,,,,,,,,,,,,,,,,,,,,,,,,0,1,0.696785,0,6,6,6,1,0,priba,REAL,FAKE,,,,,,,,,,,,,,,,,,,,,,,,,,,,,,,
,,,,,,,604243ad9743df09e0f72587,605b45a4d25f287719a41696,605ba708c286ac8a5a456c39,Mexico,Midwest,13 or older,no,2021-03-24_16h57.39.124,empathy_intonation_perc,2020.2.10,Win32,60,,,,,,,,,,0,,,,,,,,,,,,,,,,,,,,,,,,,,,,,,,,0,1,1.00741,0,7,7,7,1,0,pelasula,REAL,FAKE,,,,,,,,,,,,,,,,,,,,,,,,,,,,,,,
,,,,,,,604243ad9743df09e0f72587,605b45a4d25f287719a41696,605ba708c286ac8a5a456c39,Mexico,Midwest,13 or older,no,2021-03-24_16h57.39.124,empathy_intonation_perc,2020.2.10,Win32,60,,,,,,,,,,1,,,,,,,,,,,,,,,,,,,,,,,,,,,,,,,,1,1,0.6886,0,8,8,8,1,0,bien,REAL,FAKE,,,,,,,,,,,,,,,,,,,,,,,,,,,,,,,
,,,,,,,604243ad9743df09e0f72587,605b45a4d25f287719a41696,605ba708c286ac8a5a456c39,Mexico,Midwest,13 or older,no,2021-03-24_16h57.39.124,empathy_intonation_perc,2020.2.10,Win32,60,,,,,,,,,,1,,,,,,,,,,,,,,,,,,,,,,,,,,,,,,,,1,1,0.70274,0,9,9,9,1,0,casa,REAL,FAKE,,,,,,,,,,,,,,,,,,,,,,,,,,,,,,,
,,,,,,,604243ad9743df09e0f72587,605b45a4d25f287719a41696,605ba708c286ac8a5a456c39,Mexico,Midwest,13 or older,no,2021-03-24_16h57.39.124,empathy_intonation_perc,2020.2.10,Win32,60,,,,,,,,,,0,,,,,,,,,,,,,,,,,,,,,,,,,,,,,,,,0,1,0.789055,0,10,10,10,1,0,lejo,REAL,FAKE,,,,,,,,,,,,,,,,,,,,,,,,,,,,,,,
,,,,,,,604243ad9743df09e0f72587,605b45a4d25f287719a41696,605ba708c286ac8a5a456c39,Mexico,Midwest,13 or older,no,2021-03-24_16h57.39.124,empathy_intonation_perc,2020.2.10,Win32,60,,,,,,,,,,0,,,,,,,,,,,,,,,,,,,,,,,,,,,,,,,,0,1,0.94399,0,11,11,11,1,0,pretantas,REAL,FAKE,,,,,,,,,,,,,,,,,,,,,,,,,,,,,,,
,,,,,,,604243ad9743df09e0f72587,605b45a4d25f287719a41696,605ba708c286ac8a5a456c39,Mexico,Midwest,13 or older,no,2021-03-24_16h57.39.124,empathy_intonation_perc,2020.2.10,Win32,60,,,,,,,,,,1,,,,,,,,,,,,,,,,,,,,,,,,,,,,,,,,,,,,,,,,43,canela,,,0,0,0.798845,0,0,0,42,1,REAL,FAKE,,,,,,,,,,,,,,,,,,,,,
,,,,,,,604243ad9743df09e0f72587,605b45a4d25f287719a41696,605ba708c286ac8a5a456c39,Mexico,Midwest,13 or older,no,2021-03-24_16h57.39.124,empathy_intonation_perc,2020.2.10,Win32,60,,,,,,,,,,1,,,,,,,,,,,,,,,,,,,,,,,,,,,,,,,,,,,,,,,,85,lad,,,0,0,0.929875,0,1,1,84,1,REAL,FAKE,,,,,,,,,,,,,,,,,,,,,
,,,,,,,604243ad9743df09e0f72587,605b45a4d25f287719a41696,605ba708c286ac8a5a456c39,Mexico,Midwest,13 or older,no,2021-03-24_16h57.39.124,empathy_intonation_perc,2020.2.10,Win32,60,,,,,,,,,,1,,,,,,,,,,,,,,,,,,,,,,,,,,,,,,,,,,,,,,,,64,orgulloso,,,0,0,0.914155,0,2,2,63,1,REAL,FAKE,,,,,,,,,,,,,,,,,,,,,
,,,,,,,604243ad9743df09e0f72587,605b45a4d25f287719a41696,605ba708c286ac8a5a456c39,Mexico,Midwest,13 or older,no,2021-03-24_16h57.39.124,empathy_intonation_perc,2020.2.10,Win32,60,,,,,,,,,,1,,,,,,,,,,,,,,,,,,,,,,,,,,,,,,,,,,,,,,,,22,lacayo,,,0,0,1.028705,0,3,3,21,1,REAL,FAKE,,,,,,,,,,,,,,,,,,,,,
,,,,,,,604243ad9743df09e0f72587,605b45a4d25f287719a41696,605ba708c286ac8a5a456c39,Mexico,Midwest,13 or older,no,2021-03-24_16h57.39.124,empathy_intonation_perc,2020.2.10,Win32,60,,,,,,,,,,0,,,,,,,,,,,,,,,,,,,,,,,,,,,,,,,,,,,,,,,,23,lampera,,,1,0,0.943055,0,4,4,22,1,REAL,FAKE,,,,,,,,,,,,,,,,,,,,,
,,,,,,,604243ad9743df09e0f72587,605b45a4d25f287719a41696,605ba708c286ac8a5a456c39,Mexico,Midwest,13 or older,no,2021-03-24_16h57.39.124,empathy_intonation_perc,2020.2.10,Win32,60,,,,,,,,,,1,,,,,,,,,,,,,,,,,,,,,,,,,,,,,,,,,,,,,,,,54,fomentar,,,0,0,1.315735,0,5,5,53,1,REAL,FAKE,,,,,,,,,,,,,,,,,,,,,
,,,,,,,604243ad9743df09e0f72587,605b45a4d25f287719a41696,605ba708c286ac8a5a456c39,Mexico,Midwest,13 or older,no,2021-03-24_16h57.39.124,empathy_intonation_perc,2020.2.10,Win32,60,,,,,,,,,,1,,,,,,,,,,,,,,,,,,,,,,,,,,,,,,,,,,,,,,,,9,hacha,,,1,1,1.21931,0,6,6,8,1,REAL,FAKE,,,,,,,,,,,,,,,,,,,,,
,,,,,,,604243ad9743df09e0f72587,605b45a4d25f287719a41696,605ba708c286ac8a5a456c39,Mexico,Midwest,13 or older,no,2021-03-24_16h57.39.124,empathy_intonation_perc,2020.2.10,Win32,60,,,,,,,,,,0,,,,,,,,,,,,,,,,,,,,,,,,,,,,,,,,,,,,,,,,16,abracer,,,1,0,1.346375,0,7,7,15,1,REAL,FAKE,,,,,,,,,,,,,,,,,,,,,
,,,,,,,604243ad9743df09e0f72587,605b45a4d25f287719a41696,605ba708c286ac8a5a456c39,Mexico,Midwest,13 or older,no,2021-03-24_16h57.39.124,empathy_intonation_perc,2020.2.10,Win32,60,,,,,,,,,,1,,,,,,,,,,,,,,,,,,,,,,,,,,,,,,,,,,,,,,,,52,camisa,,,1,1,0.831385,0,8,8,51,1,REAL,FAKE,,,,,,,,,,,,,,,,,,,,,
,,,,,,,604243ad9743df09e0f72587,605b45a4d25f287719a41696,605ba708c286ac8a5a456c39,Mexico,Midwest,13 or older,no,2021-03-24_16h57.39.124,empathy_intonation_perc,2020.2.10,Win32,60,,,,,,,,,,1,,,,,,,,,,,,,,,,,,,,,,,,,,,,,,,,,,,,,,,,36,loro,,,0,0,0.71324,0,9,9,35,1,REAL,FAKE,,,,,,,,,,,,,,,,,,,,,
,,,,,,,604243ad9743df09e0f72587,605b45a4d25f287719a41696,605ba708c286ac8a5a456c39,Mexico,Midwest,13 or older,no,2021-03-24_16h57.39.124,empathy_intonation_perc,2020.2.10,Win32,60,,,,,,,,,,0,,,,,,,,,,,,,,,,,,,,,,,,,,,,,,,,,,,,,,,,33,pauca,,,0,1,0.67815,0,10,10,32,1,REAL,FAKE,,,,,,,,,,,,,,,,,,,,,
,,,,,,,604243ad9743df09e0f72587,605b45a4d25f287719a41696,605ba708c286ac8a5a456c39,Mexico,Midwest,13 or older,no,2021-03-24_16h57.39.124,empathy_intonation_perc,2020.2.10,Win32,60,,,,,,,,,,1,,,,,,,,,,,,,,,,,,,,,,,,,,,,,,,,,,,,,,,,45,jilguero,,,0,0,0.83461,0,11,11,44,1,REAL,FAKE,,,,,,,,,,,,,,,,,,,,,
,,,,,,,604243ad9743df09e0f72587,605b45a4d25f287719a41696,605ba708c286ac8a5a456c39,Mexico,Midwest,13 or older,no,2021-03-24_16h57.39.124,empathy_intonation_perc,2020.2.10,Win32,60,,,,,,,,,,1,,,,,,,,,,,,,,,,,,,,,,,,,,,,,,,,,,,,,,,,34,aviso,,,0,0,0.823435,0,12,12,33,1,REAL,FAKE,,,,,,,,,,,,,,,,,,,,,
,,,,,,,604243ad9743df09e0f72587,605b45a4d25f287719a41696,605ba708c286ac8a5a456c39,Mexico,Midwest,13 or older,no,2021-03-24_16h57.39.124,empathy_intonation_perc,2020.2.10,Win32,60,,,,,,,,,,1,,,,,,,,,,,,,,,,,,,,,,,,,,,,,,,,,,,,,,,,71,polvoriento,,,0,0,0.94303,0,13,13,70,1,REAL,FAKE,,,,,,,,,,,,,,,,,,,,,
,,,,,,,604243ad9743df09e0f72587,605b45a4d25f287719a41696,605ba708c286ac8a5a456c39,Mexico,Midwest,13 or older,no,2021-03-24_16h57.39.124,empathy_intonation_perc,2020.2.10,Win32,60,,,,,,,,,,1,,,,,,,,,,,,,,,,,,,,,,,,,,,,,,,,,,,,,,,,46,martillo,,,0,0,1.04414,0,14,14,45,1,REAL,FAKE,,,,,,,,,,,,,,,,,,,,,
,,,,,,,604243ad9743df09e0f72587,605b45a4d25f287719a41696,605ba708c286ac8a5a456c39,Mexico,Midwest,13 or older,no,2021-03-24_16h57.39.124,empathy_intonation_perc,2020.2.10,Win32,60,,,,,,,,,,1,,,,,,,,,,,,,,,,,,,,,,,,,,,,,,,,,,,,,,,,89,prisa,,,0,0,0.87894,0,15,15,88,1,REAL,FAKE,,,,,,,,,,,,,,,,,,,,,
,,,,,,,604243ad9743df09e0f72587,605b45a4d25f287719a41696,605ba708c286ac8a5a456c39,Mexico,Midwest,13 or older,no,2021-03-24_16h57.39.124,empathy_intonation_perc,2020.2.10,Win32,60,,,,,,,,,,0,,,,,,,,,,,,,,,,,,,,,,,,,,,,,,,,,,,,,,,,50,flamida,,,0,1,0.941085,0,16,16,49,1,REAL,FAKE,,,,,,,,,,,,,,,,,,,,,
,,,,,,,604243ad9743df09e0f72587,605b45a4d25f287719a41696,605ba708c286ac8a5a456c39,Mexico,Midwest,13 or older,no,2021-03-24_16h57.39.124,empathy_intonation_perc,2020.2.10,Win32,60,,,,,,,,,,1,,,,,,,,,,,,,,,,,,,,,,,,,,,,,,,,,,,,,,,,38,estornudar,,,0,0,1.07421,0,17,17,37,1,REAL,FAKE,,,,,,,,,,,,,,,,,,,,,
,,,,,,,604243ad9743df09e0f72587,605b45a4d25f287719a41696,605ba708c286ac8a5a456c39,Mexico,Midwest,13 or older,no,2021-03-24_16h57.39.124,empathy_intonation_perc,2020.2.10,Win32,60,,,,,,,,,,1,,,,,,,,,,,,,,,,,,,,,,,,,,,,,,,,,,,,,,,,12,asesinato,,,0,0,1.18486,0,18,18,11,1,REAL,FAKE,,,,,,,,,,,,,,,,,,,,,
,,,,,,,604243ad9743df09e0f72587,605b45a4d25f287719a41696,605ba708c286ac8a5a456c39,Mexico,Midwest,13 or older,no,2021-03-24_16h57.39.124,empathy_intonation_perc,2020.2.10,Win32,60,,,,,,,,,,0,,,,,,,,,,,,,,,,,,,,,,,,,,,,,,,,,,,,,,,,10,antar,,,1,0,0.755995,0,19,19,9,1,REAL,FAKE,,,,,,,,,,,,,,,,,,,,,
,,,,,,,604243ad9743df09e0f72587,605b45a4d25f287719a41696,605ba708c286ac8a5a456c39,Mexico,Midwest,13 or older,no,2021-03-24_16h57.39.124,empathy_intonation_perc,2020.2.10,Win32,60,,,,,,,,,,1,,,,,,,,,,,,,,,,,,,,,,,,,,,,,,,,,,,,,,,,31,pandilla,,,0,0,1.186475,0,20,20,30,1,REAL,FAKE,,,,,,,,,,,,,,,,,,,,,
,,,,,,,604243ad9743df09e0f72587,605b45a4d25f287719a41696,605ba708c286ac8a5a456c39,Mexico,Midwest,13 or older,no,2021-03-24_16h57.39.124,empathy_intonation_perc,2020.2.10,Win32,60,,,,,,,,,,0,,,,,,,,,,,,,,,,,,,,,,,,,,,,,,,,,,,,,,,,35,rompido,,,1,0,1.01878,0,21,21,34,1,REAL,FAKE,,,,,,,,,,,,,,,,,,,,,
,,,,,,,604243ad9743df09e0f72587,605b45a4d25f287719a41696,605ba708c286ac8a5a456c39,Mexico,Midwest,13 or older,no,2021-03-24_16h57.39.124,empathy_intonation_perc,2020.2.10,Win32,60,,,,,,,,,,1,,,,,,,,,,,,,,,,,,,,,,,,,,,,,,,,,,,,,,,,13,helar,,,1,1,0.93467,0,22,22,12,1,REAL,FAKE,,,,,,,,,,,,,,,,,,,,,
,,,,,,,604243ad9743df09e0f72587,605b45a4d25f287719a41696,605ba708c286ac8a5a456c39,Mexico,Midwest,13 or older,no,2021-03-24_16h57.39.124,empathy_intonation_perc,2020.2.10,Win32,60,,,,,,,,,,1,,,,,,,,,,,,,,,,,,,,,,,,,,,,,,,,,,,,,,,,24,ltigo,,,0,0,0.94543,0,23,23,23,1,REAL,FAKE,,,,,,,,,,,,,,,,,,,,,
,,,,,,,604243ad9743df09e0f72587,605b45a4d25f287719a41696,605ba708c286ac8a5a456c39,Mexico,Midwest,13 or older,no,2021-03-24_16h57.39.124,empathy_intonation_perc,2020.2.10,Win32,60,,,,,,,,,,1,,,,,,,,,,,,,,,,,,,,,,,,,,,,,,,,,,,,,,,,5,zapato,,,1,1,0.70436,0,24,24,4,1,REAL,FAKE,,,,,,,,,,,,,,,,,,,,,
,,,,,,,604243ad9743df09e0f72587,605b45a4d25f287719a41696,605ba708c286ac8a5a456c39,Mexico,Midwest,13 or older,no,2021-03-24_16h57.39.124,empathy_intonation_perc,2020.2.10,Win32,60,,,,,,,,,,1,,,,,,,,,,,,,,,,,,,,,,,,,,,,,,,,,,,,,,,,68,alegre,,,0,0,1.03571,0,25,25,67,1,REAL,FAKE,,,,,,,,,,,,,,,,,,,,,
,,,,,,,604243ad9743df09e0f72587,605b45a4d25f287719a41696,605ba708c286ac8a5a456c39,Mexico,Midwest,13 or older,no,2021-03-24_16h57.39.124,empathy_intonation_perc,2020.2.10,Win32,60,,,,,,,,,,1,,,,,,,,,,,,,,,,,,,,,,,,,,,,,,,,,,,,,,,,61,seda,,,0,0,0.788595,0,26,26,60,1,REAL,FAKE,,,,,,,,,,,,,,,,,,,,,
,,,,,,,604243ad9743df09e0f72587,605b45a4d25f287719a41696,605ba708c286ac8a5a456c39,Mexico,Midwest,13 or older,no,2021-03-24_16h57.39.124,empathy_intonation_perc,2020.2.10,Win32,60,,,,,,,,,,1,,,,,,,,,,,,,,,,,,,,,,,,,,,,,,,,,,,,,,,,49,ganar,,,1,1,0.69595,0,27,27,48,1,REAL,FAKE,,,,,,,,,,,,,,,,,,,,,
,,,,,,,604243ad9743df09e0f72587,605b45a4d25f287719a41696,605ba708c286ac8a5a456c39,Mexico,Midwest,13 or older,no,2021-03-24_16h57.39.124,empathy_intonation_perc,2020.2.10,Win32,60,,,,,,,,,,1,,,,,,,,,,,,,,,,,,,,,,,,,,,,,,,,,,,,,,,,28,merodear,,,0,0,0.95236,0,28,28,27,1,REAL,FAKE,,,,,,,,,,,,,,,,,,,,,
,,,,,,,604243ad9743df09e0f72587,605b45a4d25f287719a41696,605ba708c286ac8a5a456c39,Mexico,Midwest,13 or older,no,2021-03-24_16h57.39.124,empathy_intonation_perc,2020.2.10,Win32,60,,,,,,,,,,1,,,,,,,,,,,,,,,,,,,,,,,,,,,,,,,,,,,,,,,,62,flaco,,,0,0,1.035245,0,29,29,61,1,REAL,FAKE,,,,,,,,,,,,,,,,,,,,,
,,,,,,,604243ad9743df09e0f72587,605b45a4d25f287719a41696,605ba708c286ac8a5a456c39,Mexico,Midwest,13 or older,no,2021-03-24_16h57.39.124,empathy_intonation_perc,2020.2.10,Win32,60,,,,,,,,,,1,,,,,,,,,,,,,,,,,,,,,,,,,,,,,,,,,,,,,,,,11,cenefa,,,0,0,1.069165,0,30,30,10,1,REAL,FAKE,,,,,,,,,,,,,,,,,,,,,
,,,,,,,604243ad9743df09e0f72587,605b45a4d25f287719a41696,605ba708c286ac8a5a456c39,Mexico,Midwest,13 or older,no,2021-03-24_16h57.39.124,empathy_intonation_perc,2020.2.10,Win32,60,,,,,,,,,,0,,,,,,,,,,,,,,,,,,,,,,,,,,,,,,,,,,,,,,,,87,grodo,,,0,1,0.915435,0,31,31,86,1,REAL,FAKE,,,,,,,,,,,,,,,,,,,,,
,,,,,,,604243ad9743df09e0f72587,605b45a4d25f287719a41696,605ba708c286ac8a5a456c39,Mexico,Midwest,13 or older,no,2021-03-24_16h57.39.124,empathy_intonation_perc,2020.2.10,Win32,60,,,,,,,,,,1,,,,,,,,,,,,,,,,,,,,,,,,,,,,,,,,,,,,,,,,37,granuja,,,0,0,1.11193,0,32,32,36,1,REAL,FAKE,,,,,,,,,,,,,,,,,,,,,
,,,,,,,604243ad9743df09e0f72587,605b45a4d25f287719a41696,605ba708c286ac8a5a456c39,Mexico,Midwest,13 or older,no,2021-03-24_16h57.39.124,empathy_intonation_perc,2020.2.10,Win32,60,,,,,,,,,,0,,,,,,,,,,,,,,,,,,,,,,,,,,,,,,,,,,,,,,,,30,alardio,,,0,1,1.005975,0,33,33,29,1,REAL,FAKE,,,,,,,,,,,,,,,,,,,,,
,,,,,,,604243ad9743df09e0f72587,605b45a4d25f287719a41696,605ba708c286ac8a5a456c39,Mexico,Midwest,13 or older,no,2021-03-24_16h57.39.124,empathy_intonation_perc,2020.2.10,Win32,60,,,,,,,,,,1,,,,,,,,,,,,,,,,,,,,,,,,,,,,,,,,,,,,,,,,77,tiburn,,,0,0,1.128705,0,34,34,76,1,REAL,FAKE,,,,,,,,,,,,,,,,,,,,,
,,,,,,,604243ad9743df09e0f72587,605b45a4d25f287719a41696,605ba708c286ac8a5a456c39,Mexico,Midwest,13 or older,no,2021-03-24_16h57.39.124,empathy_intonation_perc,2020.2.10,Win32,60,,,,,,,,,,1,,,,,,,,,,,,,,,,,,,,,,,,,,,,,,,,,,,,,,,,25,bisagra,,,0,0,0.902955,0,35,35,24,1,REAL,FAKE,,,,,,,,,,,,,,,,,,,,,
,,,,,,,604243ad9743df09e0f72587,605b45a4d25f287719a41696,605ba708c286ac8a5a456c39,Mexico,Midwest,13 or older,no,2021-03-24_16h57.39.124,empathy_intonation_perc,2020.2.10,Win32,60,,,,,,,,,,1,,,,,,,,,,,,,,,,,,,,,,,,,,,,,,,,,,,,,,,,20,vido,,,0,0,2.15547,0,36,36,19,1,REAL,FAKE,,,,,,,,,,,,,,,,,,,,,
,,,,,,,604243ad9743df09e0f72587,605b45a4d25f287719a41696,605ba708c286ac8a5a456c39,Mexico,Midwest,13 or older,no,2021-03-24_16h57.39.124,empathy_intonation_perc,2020.2.10,Win32,60,,,,,,,,,,1,,,,,,,,,,,,,,,,,,,,,,,,,,,,,,,,,,,,,,,,48,ladrn,,,0,0,0.856845,0,37,37,47,1,REAL,FAKE,,,,,,,,,,,,,,,,,,,,,
,,,,,,,604243ad9743df09e0f72587,605b45a4d25f287719a41696,605ba708c286ac8a5a456c39,Mexico,Midwest,13 or older,no,2021-03-24_16h57.39.124,empathy_intonation_perc,2020.2.10,Win32,60,,,,,,,,,,1,,,,,,,,,,,,,,,,,,,,,,,,,,,,,,,,,,,,,,,,86,barato,,,0,0,0.944445,0,38,38,85,1,REAL,FAKE,,,,,,,,,,,,,,,,,,,,,
,,,,,,,604243ad9743df09e0f72587,605b45a4d25f287719a41696,605ba708c286ac8a5a456c39,Mexico,Midwest,13 or older,no,2021-03-24_16h57.39.124,empathy_intonation_perc,2020.2.10,Win32,60,,,,,,,,,,0,,,,,,,,,,,,,,,,,,,,,,,,,,,,,,,,,,,,,,,,82,empirador,,,0,1,1.44432,0,39,39,81,1,REAL,FAKE,,,,,,,,,,,,,,,,,,,,,
,,,,,,,604243ad9743df09e0f72587,605b45a4d25f287719a41696,605ba708c286ac8a5a456c39,Mexico,Midwest,13 or older,no,2021-03-24_16h57.39.124,empathy_intonation_perc,2020.2.10,Win32,60,,,,,,,,,,1,,,,,,,,,,,,,,,,,,,,,,,,,,,,,,,,,,,,,,,,59,besar,,,1,1,1.085285,0,40,40,58,1,REAL,FAKE,,,,,,,,,,,,,,,,,,,,,
,,,,,,,604243ad9743df09e0f72587,605b45a4d25f287719a41696,605ba708c286ac8a5a456c39,Mexico,Midwest,13 or older,no,2021-03-24_16h57.39.124,empathy_intonation_perc,2020.2.10,Win32,60,,,,,,,,,,0,,,,,,,,,,,,,,,,,,,,,,,,,,,,,,,,,,,,,,,,74,cintro,,,0,1,0.8542,0,41,41,73,1,REAL,FAKE,,,,,,,,,,,,,,,,,,,,,
,,,,,,,604243ad9743df09e0f72587,605b45a4d25f287719a41696,605ba708c286ac8a5a456c39,Mexico,Midwest,13 or older,no,2021-03-24_16h57.39.124,empathy_intonation_perc,2020.2.10,Win32,60,,,,,,,,,,1,,,,,,,,,,,,,,,,,,,,,,,,,,,,,,,,,,,,,,,,60,matar,,,0,0,1.25303,0,42,42,59,1,REAL,FAKE,,,,,,,,,,,,,,,,,,,,,
,,,,,,,604243ad9743df09e0f72587,605b45a4d25f287719a41696,605ba708c286ac8a5a456c39,Mexico,Midwest,13 or older,no,2021-03-24_16h57.39.124,empathy_intonation_perc,2020.2.10,Win32,60,,,,,,,,,,0,,,,,,,,,,,,,,,,,,,,,,,,,,,,,,,,,,,,,,,,53,vegada,,,0,1,0.925695,0,43,43,52,1,REAL,FAKE,,,,,,,,,,,,,,,,,,,,,
,,,,,,,604243ad9743df09e0f72587,605b45a4d25f287719a41696,605ba708c286ac8a5a456c39,Mexico,Midwest,13 or older,no,2021-03-24_16h57.39.124,empathy_intonation_perc,2020.2.10,Win32,60,,,,,,,,,,1,,,,,,,,,,,,,,,,,,,,,,,,,,,,,,,,,,,,,,,,83,guante,,,0,0,1.073025,0,44,44,82,1,REAL,FAKE,,,,,,,,,,,,,,,,,,,,,
,,,,,,,604243ad9743df09e0f72587,605b45a4d25f287719a41696,605ba708c286ac8a5a456c39,Mexico,Midwest,13 or older,no,2021-03-24_16h57.39.124,empathy_intonation_perc,2020.2.10,Win32,60,,,,,,,,,,1,,,,,,,,,,,,,,,,,,,,,,,,,,,,,,,,,,,,,,,,76,atar,,,0,0,0.823335,0,45,45,75,1,REAL,FAKE,,,,,,,,,,,,,,,,,,,,,
,,,,,,,604243ad9743df09e0f72587,605b45a4d25f287719a41696,605ba708c286ac8a5a456c39,Mexico,Midwest,13 or older,no,2021-03-24_16h57.39.124,empathy_intonation_perc,2020.2.10,Win32,60,,,,,,,,,,0,,,,,,,,,,,,,,,,,,,,,,,,,,,,,,,,,,,,,,,,32,fatacidad,,,0,1,1.83454,0,46,46,31,1,REAL,FAKE,,,,,,,,,,,,,,,,,,,,,
,,,,,,,604243ad9743df09e0f72587,605b45a4d25f287719a41696,605ba708c286ac8a5a456c39,Mexico,Midwest,13 or older,no,2021-03-24_16h57.39.124,empathy_intonation_perc,2020.2.10,Win32,60,,,,,,,,,,0,,,,,,,,,,,,,,,,,,,,,,,,,,,,,,,,,,,,,,,,70,temblo,,,0,1,1.186195,0,47,47,69,1,REAL,FAKE,,,,,,,,,,,,,,,,,,,,,
,,,,,,,604243ad9743df09e0f72587,605b45a4d25f287719a41696,605ba708c286ac8a5a456c39,Mexico,Midwest,13 or older,no,2021-03-24_16h57.39.124,empathy_intonation_perc,2020.2.10,Win32,60,,,,,,,,,,0,,,,,,,,,,,,,,,,,,,,,,,,,,,,,,,,,,,,,,,,17,floroso,,,0,1,0.997565,0,48,48,16,1,REAL,FAKE,,,,,,,,,,,,,,,,,,,,,
,,,,,,,604243ad9743df09e0f72587,605b45a4d25f287719a41696,605ba708c286ac8a5a456c39,Mexico,Midwest,13 or older,no,2021-03-24_16h57.39.124,empathy_intonation_perc,2020.2.10,Win32,60,,,,,,,,,,1,,,,,,,,,,,,,,,,,,,,,,,,,,,,,,,,,,,,,,,,57,tacao,,,0,0,1.121825,0,49,49,56,1,REAL,FAKE,,,,,,,,,,,,,,,,,,,,,
,,,,,,,604243ad9743df09e0f72587,605b45a4d25f287719a41696,605ba708c286ac8a5a456c39,Mexico,Midwest,13 or older,no,2021-03-24_16h57.39.124,empathy_intonation_perc,2020.2.10,Win32,60,,,,,,,,,,0,,,,,,,,,,,,,,,,,,,,,,,,,,,,,,,,,,,,,,,,42,cadallo,,,0,1,1.166525,0,50,50,41,1,REAL,FAKE,,,,,,,,,,,,,,,,,,,,,
,,,,,,,604243ad9743df09e0f72587,605b45a4d25f287719a41696,605ba708c286ac8a5a456c39,Mexico,Midwest,13 or older,no,2021-03-24_16h57.39.124,empathy_intonation_perc,2020.2.10,Win32,60,,,,,,,,,,0,,,,,,,,,,,,,,,,,,,,,,,,,,,,,,,,,,,,,,,,29,decar,,,1,0,0.97055,0,51,51,28,1,REAL,FAKE,,,,,,,,,,,,,,,,,,,,,
,,,,,,,604243ad9743df09e0f72587,605b45a4d25f287719a41696,605ba708c286ac8a5a456c39,Mexico,Midwest,13 or older,no,2021-03-24_16h57.39.124,empathy_intonation_perc,2020.2.10,Win32,60,,,,,,,,,,1,,,,,,,,,,,,,,,,,,,,,,,,,,,,,,,,,,,,,,,,2,pellizcar,,,0,0,0.949365,0,52,52,1,1,REAL,FAKE,,,,,,,,,,,,,,,,,,,,,
,,,,,,,604243ad9743df09e0f72587,605b45a4d25f287719a41696,605ba708c286ac8a5a456c39,Mexico,Midwest,13 or older,no,2021-03-24_16h57.39.124,empathy_intonation_perc,2020.2.10,Win32,60,,,,,,,,,,1,,,,,,,,,,,,,,,,,,,,,,,,,,,,,,,,,,,,,,,,80,hormiga,,,0,0,1.065545,0,53,53,79,1,REAL,FAKE,,,,,,,,,,,,,,,,,,,,,
,,,,,,,604243ad9743df09e0f72587,605b45a4d25f287719a41696,605ba708c286ac8a5a456c39,Mexico,Midwest,13 or older,no,2021-03-24_16h57.39.124,empathy_intonation_perc,2020.2.10,Win32,60,,,,,,,,,,1,,,,,,,,,,,,,,,,,,,,,,,,,,,,,,,,,,,,,,,,14,yunque,,,0,0,0.89729,0,54,54,13,1,REAL,FAKE,,,,,,,,,,,,,,,,,,,,,
,,,,,,,604243ad9743df09e0f72587,605b45a4d25f287719a41696,605ba708c286ac8a5a456c39,Mexico,Midwest,13 or older,no,2021-03-24_16h57.39.124,empathy_intonation_perc,2020.2.10,Win32,60,,,,,,,,,,0,,,,,,,,,,,,,,,,,,,,,,,,,,,,,,,,,,,,,,,,79,tropaje,,,0,1,0.84039,0,55,55,78,1,REAL,FAKE,,,,,,,,,,,,,,,,,,,,,
,,,,,,,604243ad9743df09e0f72587,605b45a4d25f287719a41696,605ba708c286ac8a5a456c39,Mexico,Midwest,13 or older,no,2021-03-24_16h57.39.124,empathy_intonation_perc,2020.2.10,Win32,60,,,,,,,,,,1,,,,,,,,,,,,,,,,,,,,,,,,,,,,,,,,,,,,,,,,26,secuestro,,,0,0,1.136545,0,56,56,25,1,REAL,FAKE,,,,,,,,,,,,,,,,,,,,,
,,,,,,,604243ad9743df09e0f72587,605b45a4d25f287719a41696,605ba708c286ac8a5a456c39,Mexico,Midwest,13 or older,no,2021-03-24_16h57.39.124,empathy_intonation_perc,2020.2.10,Win32,60,,,,,,,,,,1,,,,,,,,,,,,,,,,,,,,,,,,,,,,,,,,,,,,,,,,51,candado,,,0,0,1.27283,0,57,57,50,1,REAL,FAKE,,,,,,,,,,,,,,,,,,,,,
,,,,,,,604243ad9743df09e0f72587,605b45a4d25f287719a41696,605ba708c286ac8a5a456c39,Mexico,Midwest,13 or older,no,2021-03-24_16h57.39.124,empathy_intonation_perc,2020.2.10,Win32,60,,,,,,,,,,0,,,,,,,,,,,,,,,,,,,,,,,,,,,,,,,,,,,,,,,,63,esposante,,,0,1,0.957955,0,58,58,62,1,REAL,FAKE,,,,,,,,,,,,,,,,,,,,,
,,,,,,,604243ad9743df09e0f72587,605b45a4d25f287719a41696,605ba708c286ac8a5a456c39,Mexico,Midwest,13 or older,no,2021-03-24_16h57.39.124,empathy_intonation_perc,2020.2.10,Win32,60,,,,,,,,,,0,,,,,,,,,,,,,,,,,,,,,,,,,,,,,,,,,,,,,,,,66,hacido,,,1,0,0.985205,0,59,59,65,1,REAL,FAKE,,,,,,,,,,,,,,,,,,,,,
,,,,,,,604243ad9743df09e0f72587,605b45a4d25f287719a41696,605ba708c286ac8a5a456c39,Mexico,Midwest,13 or older,no,2021-03-24_16h57.39.124,empathy_intonation_perc,2020.2.10,Win32,60,,,,,,,,,,0,,,,,,,,,,,,,,,,,,,,,,,,,,,,,,,,,,,,,,,,19,brecedad,,,0,1,0.804835,0,60,60,18,1,REAL,FAKE,,,,,,,,,,,,,,,,,,,,,
,,,,,,,604243ad9743df09e0f72587,605b45a4d25f287719a41696,605ba708c286ac8a5a456c39,Mexico,Midwest,13 or older,no,2021-03-24_16h57.39.124,empathy_intonation_perc,2020.2.10,Win32,60,,,,,,,,,,1,,,,,,,,,,,,,,,,,,,,,,,,,,,,,,,,,,,,,,,,81,pozo,,,0,0,0.7271,0,61,61,80,1,REAL,FAKE,,,,,,,,,,,,,,,,,,,,,
,,,,,,,604243ad9743df09e0f72587,605b45a4d25f287719a41696,605ba708c286ac8a5a456c39,Mexico,Midwest,13 or older,no,2021-03-24_16h57.39.124,empathy_intonation_perc,2020.2.10,Win32,60,,,,,,,,,,1,,,,,,,,,,,,,,,,,,,,,,,,,,,,,,,,,,,,,,,,88,acantilado,,,0,0,0.98746,0,62,62,87,1,REAL,FAKE,,,,,,,,,,,,,,,,,,,,,
,,,,,,,604243ad9743df09e0f72587,605b45a4d25f287719a41696,605ba708c286ac8a5a456c39,Mexico,Midwest,13 or older,no,2021-03-24_16h57.39.124,empathy_intonation_perc,2020.2.10,Win32,60,,,,,,,,,,1,,,,,,,,,,,,,,,,,,,,,,,,,,,,,,,,,,,,,,,,40,alfombra,,,0,0,0.927865,0,63,63,39,1,REAL,FAKE,,,,,,,,,,,,,,,,,,,,,
,,,,,,,604243ad9743df09e0f72587,605b45a4d25f287719a41696,605ba708c286ac8a5a456c39,Mexico,Midwest,13 or older,no,2021-03-24_16h57.39.124,empathy_intonation_perc,2020.2.10,Win32,60,,,,,,,,,,1,,,,,,,,,,,,,,,,,,,,,,,,,,,,,,,,,,,,,,,,78,frondoso,,,0,0,0.93286,0,64,64,77,1,REAL,FAKE,,,,,,,,,,,,,,,,,,,,,
,,,,,,,604243ad9743df09e0f72587,605b45a4d25f287719a41696,605ba708c286ac8a5a456c39,Mexico,Midwest,13 or older,no,2021-03-24_16h57.39.124,empathy_intonation_perc,2020.2.10,Win32,60,,,,,,,,,,0,,,,,,,,,,,,,,,,,,,,,,,,,,,,,,,,,,,,,,,,1,terzo,,,0,1,1.00925,0,65,65,0,1,REAL,FAKE,,,,,,,,,,,,,,,,,,,,,
,,,,,,,604243ad9743df09e0f72587,605b45a4d25f287719a41696,605ba708c286ac8a5a456c39,Mexico,Midwest,13 or older,no,2021-03-24_16h57.39.124,empathy_intonation_perc,2020.2.10,Win32,60,,,,,,,,,,1,,,,,,,,,,,,,,,,,,,,,,,,,,,,,,,,,,,,,,,,55,nevar,,,0,0,1.29958,0,66,66,54,1,REAL,FAKE,,,,,,,,,,,,,,,,,,,,,
,,,,,,,604243ad9743df09e0f72587,605b45a4d25f287719a41696,605ba708c286ac8a5a456c39,Mexico,Midwest,13 or older,no,2021-03-24_16h57.39.124,empathy_intonation_perc,2020.2.10,Win32,60,,,,,,,,,,1,,,,,,,,,,,,,,,,,,,,,,,,,,,,,,,,,,,,,,,,15,regar,,,0,0,1.457215,0,67,67,14,1,REAL,FAKE,,,,,,,,,,,,,,,,,,,,,
,,,,,,,604243ad9743df09e0f72587,605b45a4d25f287719a41696,605ba708c286ac8a5a456c39,Mexico,Midwest,13 or older,no,2021-03-24_16h57.39.124,empathy_intonation_perc,2020.2.10,Win32,60,,,,,,,,,,1,,,,,,,,,,,,,,,,,,,,,,,,,,,,,,,,,,,,,,,,3,pulmones,,,0,0,0.89133,0,68,68,2,1,REAL,FAKE,,,,,,,,,,,,,,,,,,,,,
,,,,,,,604243ad9743df09e0f72587,605b45a4d25f287719a41696,605ba708c286ac8a5a456c39,Mexico,Midwest,13 or older,no,2021-03-24_16h57.39.124,empathy_intonation_perc,2020.2.10,Win32,60,,,,,,,,,,0,,,,,,,,,,,,,,,,,,,,,,,,,,,,,,,,,,,,,,,,72,pemicin,,,0,1,0.977635,0,69,69,71,1,REAL,FAKE,,,,,,,,,,,,,,,,,,,,,
,,,,,,,604243ad9743df09e0f72587,605b45a4d25f287719a41696,605ba708c286ac8a5a456c39,Mexico,Midwest,13 or older,no,2021-03-24_16h57.39.124,empathy_intonation_perc,2020.2.10,Win32,60,,,,,,,,,,0,,,,,,,,,,,,,,,,,,,,,,,,,,,,,,,,,,,,,,,,4,batilln,,,0,1,1.077665,0,70,70,3,1,REAL,FAKE,,,,,,,,,,,,,,,,,,,,,
,,,,,,,604243ad9743df09e0f72587,605b45a4d25f287719a41696,605ba708c286ac8a5a456c39,Mexico,Midwest,13 or older,no,2021-03-24_16h57.39.124,empathy_intonation_perc,2020.2.10,Win32,60,,,,,,,,,,0,,,,,,,,,,,,,,,,,,,,,,,,,,,,,,,,,,,,,,,,8,cadea,,,0,1,1.13878,0,71,71,7,1,REAL,FAKE,,,,,,,,,,,,,,,,,,,,,
,,,,,,,604243ad9743df09e0f72587,605b45a4d25f287719a41696,605ba708c286ac8a5a456c39,Mexico,Midwest,13 or older,no,2021-03-24_16h57.39.124,empathy_intonation_perc,2020.2.10,Win32,60,,,,,,,,,,0,,,,,,,,,,,,,,,,,,,,,,,,,,,,,,,,,,,,,,,,47,cartinar,,,1,0,1.42448,0,72,72,46,1,REAL,FAKE,,,,,,,,,,,,,,,,,,,,,
,,,,,,,604243ad9743df09e0f72587,605b45a4d25f287719a41696,605ba708c286ac8a5a456c39,Mexico,Midwest,13 or older,no,2021-03-24_16h57.39.124,empathy_intonation_perc,2020.2.10,Win32,60,,,,,,,,,,0,,,,,,,,,,,,,,,,,,,,,,,,,,,,,,,,,,,,,,,,21,capillo,,,1,0,1.337685,0,73,73,20,1,REAL,FAKE,,,,,,,,,,,,,,,,,,,,,
,,,,,,,604243ad9743df09e0f72587,605b45a4d25f287719a41696,605ba708c286ac8a5a456c39,Mexico,Midwest,13 or older,no,2021-03-24_16h57.39.124,empathy_intonation_perc,2020.2.10,Win32,60,,,,,,,,,,0,,,,,,,,,,,,,,,,,,,,,,,,,,,,,,,,,,,,,,,,27,acutacin,,,0,1,0.81487,0,74,74,26,1,REAL,FAKE,,,,,,,,,,,,,,,,,,,,,
,,,,,,,604243ad9743df09e0f72587,605b45a4d25f287719a41696,605ba708c286ac8a5a456c39,Mexico,Midwest,13 or older,no,2021-03-24_16h57.39.124,empathy_intonation_perc,2020.2.10,Win32,60,,,,,,,,,,1,,,,,,,,,,,,,,,,,,,,,,,,,,,,,,,,,,,,,,,,41,rebuscar,,,0,0,0.9126,0,75,75,40,1,REAL,FAKE,,,,,,,,,,,,,,,,,,,,,
,,,,,,,604243ad9743df09e0f72587,605b45a4d25f287719a41696,605ba708c286ac8a5a456c39,Mexico,Midwest,13 or older,no,2021-03-24_16h57.39.124,empathy_intonation_perc,2020.2.10,Win32,60,,,,,,,,,,1,,,,,,,,,,,,,,,,,,,,,,,,,,,,,,,,,,,,,,,,90,clavel,,,0,0,1.168765,0,76,76,89,1,REAL,FAKE,,,,,,,,,,,,,,,,,,,,,
,,,,,,,604243ad9743df09e0f72587,605b45a4d25f287719a41696,605ba708c286ac8a5a456c39,Mexico,Midwest,13 or older,no,2021-03-24_16h57.39.124,empathy_intonation_perc,2020.2.10,Win32,60,,,,,,,,,,1,,,,,,,,,,,,,,,,,,,,,,,,,,,,,,,,,,,,,,,,7,psimo,,,0,0,0.84066,0,77,77,6,1,REAL,FAKE,,,,,,,,,,,,,,,,,,,,,
,,,,,,,604243ad9743df09e0f72587,605b45a4d25f287719a41696,605ba708c286ac8a5a456c39,Mexico,Midwest,13 or older,no,2021-03-24_16h57.39.124,empathy_intonation_perc,2020.2.10,Win32,60,,,,,,,,,,1,,,,,,,,,,,,,,,,,,,,,,,,,,,,,,,,,,,,,,,,6,tergiversar,,,0,0,1.10735,0,78,78,5,1,REAL,FAKE,,,,,,,,,,,,,,,,,,,,,
,,,,,,,604243ad9743df09e0f72587,605b45a4d25f287719a41696,605ba708c286ac8a5a456c39,Mexico,Midwest,13 or older,no,2021-03-24_16h57.39.124,empathy_intonation_perc,2020.2.10,Win32,60,,,,,,,,,,0,,,,,,,,,,,,,,,,,,,,,,,,,,,,,,,,,,,,,,,,84,escuto,,,0,1,1.3769,0,79,79,83,1,REAL,FAKE,,,,,,,,,,,,,,,,,,,,,
,,,,,,,604243ad9743df09e0f72587,605b45a4d25f287719a41696,605ba708c286ac8a5a456c39,Mexico,Midwest,13 or older,no,2021-03-24_16h57.39.124,empathy_intonation_perc,2020.2.10,Win32,60,,,,,,,,,,1,,,,,,,,,,,,,,,,,,,,,,,,,,,,,,,,,,,,,,,,73,hervidor,,,0,0,1.068525,0,80,80,72,1,REAL,FAKE,,,,,,,,,,,,,,,,,,,,,
,,,,,,,604243ad9743df09e0f72587,605b45a4d25f287719a41696,605ba708c286ac8a5a456c39,Mexico,Midwest,13 or older,no,2021-03-24_16h57.39.124,empathy_intonation_perc,2020.2.10,Win32,60,,,,,,,,,,1,,,,,,,,,,,,,,,,,,,,,,,,,,,,,,,,,,,,,,,,56,musgo,,,0,0,0.964265,0,81,81,55,1,REAL,FAKE,,,,,,,,,,,,,,,,,,,,,
,,,,,,,604243ad9743df09e0f72587,605b45a4d25f287719a41696,605ba708c286ac8a5a456c39,Mexico,Midwest,13 or older,no,2021-03-24_16h57.39.124,empathy_intonation_perc,2020.2.10,Win32,60,,,,,,,,,,1,,,,,,,,,,,,,,,,,,,,,,,,,,,,,,,,,,,,,,,,65,bizcocho,,,0,0,1.19891,0,82,82,64,1,REAL,FAKE,,,,,,,,,,,,,,,,,,,,,
,,,,,,,604243ad9743df09e0f72587,605b45a4d25f287719a41696,605ba708c286ac8a5a456c39,Mexico,Midwest,13 or older,no,2021-03-24_16h57.39.124,empathy_intonation_perc,2020.2.10,Win32,60,,,,,,,,,,1,,,,,,,,,,,,,,,,,,,,,,,,,,,,,,,,,,,,,,,,67,cabello,,,0,0,0.97753,0,83,83,66,1,REAL,FAKE,,,,,,,,,,,,,,,,,,,,,
,,,,,,,604243ad9743df09e0f72587,605b45a4d25f287719a41696,605ba708c286ac8a5a456c39,Mexico,Midwest,13 or older,no,2021-03-24_16h57.39.124,empathy_intonation_perc,2020.2.10,Win32,60,,,,,,,,,,1,,,,,,,,,,,,,,,,,,,,,,,,,,,,,,,,,,,,,,,,75,yacer,,,0,0,0.894545,0,84,84,74,1,REAL,FAKE,,,,,,,,,,,,,,,,,,,,,
,,,,,,,604243ad9743df09e0f72587,605b45a4d25f287719a41696,605ba708c286ac8a5a456c39,Mexico,Midwest,13 or older,no,2021-03-24_16h57.39.124,empathy_intonation_perc,2020.2.10,Win32,60,,,,,,,,,,0,,,,,,,,,,,,,,,,,,,,,,,,,,,,,,,,,,,,,,,,58,plaudir,,,0,1,1.004645,0,85,85,57,1,REAL,FAKE,,,,,,,,,,,,,,,,,,,,,
,,,,,,,604243ad9743df09e0f72587,605b45a4d25f287719a41696,605ba708c286ac8a5a456c39,Mexico,Midwest,13 or older,no,2021-03-24_16h57.39.124,empathy_intonation_perc,2020.2.10,Win32,60,,,,,,,,,,1,,,,,,,,,,,,,,,,,,,,,,,,,,,,,,,,,,,,,,,,44,cuchara,,,0,0,0.918945,0,86,86,43,1,REAL,FAKE,,,,,,,,,,,,,,,,,,,,,
,,,,,,,604243ad9743df09e0f72587,605b45a4d25f287719a41696,605ba708c286ac8a5a456c39,Mexico,Midwest,13 or older,no,2021-03-24_16h57.39.124,empathy_intonation_perc,2020.2.10,Win32,60,,,,,,,,,,1,,,,,,,,,,,,,,,,,,,,,,,,,,,,,,,,,,,,,,,,39,torpe,,,0,0,0.81102,0,87,87,38,1,REAL,FAKE,,,,,,,,,,,,,,,,,,,,,
,,,,,,,604243ad9743df09e0f72587,605b45a4d25f287719a41696,605ba708c286ac8a5a456c39,Mexico,Midwest,13 or older,no,2021-03-24_16h57.39.124,empathy_intonation_perc,2020.2.10,Win32,60,,,,,,,,,,1,,,,,,,,,,,,,,,,,,,,,,,,,,,,,,,,,,,,,,,,69,engatusar,,,0,0,0.87594,0,88,88,68,1,REAL,FAKE,,,,,,,,,,,,,,,,,,,,,
,,,,,,,604243ad9743df09e0f72587,605b45a4d25f287719a41696,605ba708c286ac8a5a456c39,Mexico,Midwest,13 or older,no,2021-03-24_16h57.39.124,empathy_intonation_perc,2020.2.10,Win32,60,,,,,,,,,,0,,,,,,,,,,,,,,,,,,,,,,,,,,,,,,,,,,,,,,,,18,arsa,,,0,1,0.82661,0,89,89,17,1,REAL,FAKE,,,,,,,,,,,,,,,,,,,,,
,,,,,,,604243ad9743df09e0f72587,605b45a4d25f287719a41696,605ba708c286ac8a5a456c39,Mexico,Midwest,13 or older,no,2021-03-24_16h57.39.124,empathy_intonation_perc,2020.2.10,Win32,60,,,,,,,,,,,,,,,,,,,,,,,,,,,,,,,,,,,,,,,,,,,,,,,,,,,,,,,,,,,,,,,,4,1,3.81108,1,0,0,0,0,0,1,,,,,,,,,,,
,,,,,,,604243ad9743df09e0f72587,605b45a4d25f287719a41696,605ba708c286ac8a5a456c39,Mexico,Midwest,13 or older,no,2021-03-24_16h57.39.124,empathy_intonation_perc,2020.2.10,Win32,60,,,,,,,,,,,,,,,,,,,,1,,,,,,,,,,,,,,,,,,,,,,,,,,,,,,,,,,,,,,,,,,,,,,,,,,,,,,1,0,0,0,0,1,I can easily tell if someone else wants to enter a conversation.,1,0,1,0
,,,,,,,604243ad9743df09e0f72587,605b45a4d25f287719a41696,605ba708c286ac8a5a456c39,Mexico,Midwest,13 or older,no,2021-03-24_16h57.39.124,empathy_intonation_perc,2020.2.10,Win32,60,,,,,,,,,,,,,,,,,,,,2,,,,,,,,,,,,,,,,,,,,,,,,,,,,,,,,,,,,,,,,,,,,,,,,,,,,,,4,0,1,1,1,1,I prefer animals to humans.,0,1,0,0
,,,,,,,604243ad9743df09e0f72587,605b45a4d25f287719a41696,605ba708c286ac8a5a456c39,Mexico,Midwest,13 or older,no,2021-03-24_16h57.39.124,empathy_intonation_perc,2020.2.10,Win32,60,,,,,,,,,,,,,,,,,,,,3,,,,,,,,,,,,,,,,,,,,,,,,,,,,,,,,,,,,,,,,,,,,,,,,,,,,,,3,0,2,2,2,1,I try to keep up with the current trends and fashions.,0,1,0,0
,,,,,,,604243ad9743df09e0f72587,605b45a4d25f287719a41696,605ba708c286ac8a5a456c39,Mexico,Midwest,13 or older,no,2021-03-24_16h57.39.124,empathy_intonation_perc,2020.2.10,Win32,60,,,,,,,,,,,,,,,,,,,,4,,,,,,,,,,,,,,,,,,,,,,,,,,,,,,,,,,,,,,,,,,,,,,,,,,,,,,5,0,3,3,3,1,"I find it difficult to explain to others things that I understand easily, 
  when they dont understand it first time.",1,0,0,1
,,,,,,,604243ad9743df09e0f72587,605b45a4d25f287719a41696,605ba708c286ac8a5a456c39,Mexico,Midwest,13 or older,no,2021-03-24_16h57.39.124,empathy_intonation_perc,2020.2.10,Win32,60,,,,,,,,,,,,,,,,,,,,5,,,,,,,,,,,,,,,,,,,,,,,,,,,,,,,,,,,,,,,,,,,,,,,,,,,,,,2,0,4,4,4,1,I dream most nights.,0,1,0,0
,,,,,,,604243ad9743df09e0f72587,605b45a4d25f287719a41696,605ba708c286ac8a5a456c39,Mexico,Midwest,13 or older,no,2021-03-24_16h57.39.124,empathy_intonation_perc,2020.2.10,Win32,60,,,,,,,,,,,,,,,,,,,,6,,,,,,,,,,,,,,,,,,,,,,,,,,,,,,,,,,,,,,,,,,,,,,,,,,,,,,1,0,5,5,5,1,I really enjoy caring for other people.,1,0,1,0
,,,,,,,604243ad9743df09e0f72587,605b45a4d25f287719a41696,605ba708c286ac8a5a456c39,Mexico,Midwest,13 or older,no,2021-03-24_16h57.39.124,empathy_intonation_perc,2020.2.10,Win32,60,,,,,,,,,,,,,,,,,,,,7,,,,,,,,,,,,,,,,,,,,,,,,,,,,,,,,,,,,,,,,,,,,,,,,,,,,,,3,0,6,6,6,1,I try to solve my own problems rather than discussing them with others.,0,1,0,0
,,,,,,,604243ad9743df09e0f72587,605b45a4d25f287719a41696,605ba708c286ac8a5a456c39,Mexico,Midwest,13 or older,no,2021-03-24_16h57.39.124,empathy_intonation_perc,2020.2.10,Win32,60,,,,,,,,,,,,,,,,,,,,8,,,,,,,,,,,,,,,,,,,,,,,,,,,,,,,,,,,,,,,,,,,,,,,,,,,,,,5,0,7,7,7,1,I find it hard to know what to do in a social situation.,1,0,0,1
,,,,,,,604243ad9743df09e0f72587,605b45a4d25f287719a41696,605ba708c286ac8a5a456c39,Mexico,Midwest,13 or older,no,2021-03-24_16h57.39.124,empathy_intonation_perc,2020.2.10,Win32,60,,,,,,,,,,,,,,,,,,,,9,,,,,,,,,,,,,,,,,,,,,,,,,,,,,,,,,,,,,,,,,,,,,,,,,,,,,,2,0,8,8,8,1,I am at my best first thing in the morning.,0,1,0,0
