instructions_2afc_loop.thisRepN,instructions_2afc_loop.thisTrialN,instructions_2afc_loop.thisN,instructions_2afc_loop.thisIndex,instructions_2afc_loop.ran,instructions_text,continue_text,participant,study_id,session,I am most familiar with Spanish from...*,What part of the US are you from?*,At what age did you begin learning Spanish?*,Are you proficient in any languages other than English/Spanish?*,date,expName,psychopyVersion,OS,frameRate,key_resp_2afc_practice.keys,key_resp_2afc_practice.corr,key_resp_2afc_practice.rt,trials_2afc_practice_loop.thisRepN,trials_2afc_practice_loop.thisTrialN,trials_2afc_practice_loop.thisN,trials_2afc_practice_loop.thisIndex,trials_2afc_practice_loop.ran,path,correct_response,the_col,key_resp_2afc_trial.keys,key_resp_2afc_trial.corr,key_resp_2afc_trial.rt,trials_2afc_loop.thisRepN,trials_2afc_loop.thisTrialN,trials_2afc_loop.thisN,trials_2afc_loop.thisIndex,trials_2afc_loop.ran,item_num,andalusian,argentine,castilian,chilean,cuban,mexican,peruvian,puertorican,key_resp_ac1.keys,key_resp_ac1.corr,key_resp_ac1.rt,ac1_loop.thisRepN,ac1_loop.thisTrialN,ac1_loop.thisN,ac1_loop.thisIndex,ac1_loop.ran,instructions_lextale_loop.thisRepN,instructions_lextale_loop.thisTrialN,instructions_lextale_loop.thisN,instructions_lextale_loop.thisIndex,instructions_lextale_loop.ran,key_resp_lextale_practice.keys,key_resp_lextale_practice.corr,key_resp_lextale_practice.rt,trials_lextale_practice_loop.thisRepN,trials_lextale_practice_loop.thisTrialN,trials_lextale_practice_loop.thisN,trials_lextale_practice_loop.thisIndex,trials_lextale_practice_loop.ran,stim,word,prac_button_real,prac_button_false,key_resp_lextale_trial.keys,key_resp_lextale_trial.corr,key_resp_lextale_trial.rt,trials_lextale_loop.thisRepN,trials_lextale_loop.thisTrialN,trials_lextale_loop.thisN,trials_lextale_loop.thisIndex,trials_lextale_loop.ran,button_real,button_false,key_resp_ac2.keys,key_resp_ac2.corr,key_resp_ac2.rt,check_pass,check_fails,ac2_loop.thisRepN,ac2_loop.thisTrialN,ac2_loop.thisN,ac2_loop.thisIndex,ac2_loop.ran,slider_eq_trial.response,trials_eq_loop.thisRepN,trials_eq_loop.thisTrialN,trials_eq_loop.thisN,trials_eq_loop.thisIndex,trials_eq_loop.ran,item,is_test_item,is_distractor,is_agree_score,is_disagree_score
0,0,0,0,1,"In the following task you are going to hear a series of utterances. 

  You will decide if the utterances sound like questions or not using your keyboard.",(press the spacebar to continue),60439d78a013a237855f2ac8,6057c54e64b0b4e5c128b4f9,605807d45e746ac201e09a3b,Spain,East coast,13 or older,no,2021-03-21_22h59.08.184,empathy_intonation_perc,2020.2.10,Win32,60,,,,,,,,,,,,,,,,,,,,,,,,,,,,,,,,,,,,,,,,,,,,,,,,,,,,,,,,,,,,,,,,,,,,,,,,,,,,,,,,,,,,
0,1,1,1,1,"If you believe the utterance is a question, type '1' (for 'yes') and if you do not 
  believe it is a question type '0' (for 'no').

  Let's practice a bit...",(press the spacebar to continue),60439d78a013a237855f2ac8,6057c54e64b0b4e5c128b4f9,605807d45e746ac201e09a3b,Spain,East coast,13 or older,no,2021-03-21_22h59.08.184,empathy_intonation_perc,2020.2.10,Win32,60,,,,,,,,,,,,,,,,,,,,,,,,,,,,,,,,,,,,,,,,,,,,,,,,,,,,,,,,,,,,,,,,,,,,,,,,,,,,,,,,,,,,
,,,,,,,60439d78a013a237855f2ac8,6057c54e64b0b4e5c128b4f9,605807d45e746ac201e09a3b,Spain,East coast,13 or older,no,2021-03-21_22h59.08.184,empathy_intonation_perc,2020.2.10,Win32,60,0,1,6.597945,0,0,0,6,1,./stim/wavs/peruvian_statement_filler_El-nino-habla-con-su-madre.wav,0,,,,,,,,,,,,,,,,,,,,,,,,,,,,,,,,,,,,,,,,,,,,,,,,,,,,,,,,,,,,,,,,,,,,,,,,,,
,,,,,,,60439d78a013a237855f2ac8,6057c54e64b0b4e5c128b4f9,605807d45e746ac201e09a3b,Spain,East coast,13 or older,no,2021-03-21_22h59.08.184,empathy_intonation_perc,2020.2.10,Win32,60,0,1,2.531095,0,1,1,5,1,./stim/wavs/andalusian_statement_filler_Alberto-nunca-se-afeita.wav,0,,,,,,,,,,,,,,,,,,,,,,,,,,,,,,,,,,,,,,,,,,,,,,,,,,,,,,,,,,,,,,,,,,,,,,,,,,
,,,,,,,60439d78a013a237855f2ac8,6057c54e64b0b4e5c128b4f9,605807d45e746ac201e09a3b,Spain,East coast,13 or older,no,2021-03-21_22h59.08.184,empathy_intonation_perc,2020.2.10,Win32,60,0,1,2.58453,0,2,2,7,1,./stim/wavs/puertorican_statement_filler_La-nina-pinta-con-su-amiga.wav,0,,,,,,,,,,,,,,,,,,,,,,,,,,,,,,,,,,,,,,,,,,,,,,,,,,,,,,,,,,,,,,,,,,,,,,,,,,
,,,,,,,60439d78a013a237855f2ac8,6057c54e64b0b4e5c128b4f9,605807d45e746ac201e09a3b,Spain,East coast,13 or older,no,2021-03-21_22h59.08.184,empathy_intonation_perc,2020.2.10,Win32,60,1,1,2.015075,0,3,3,1,1,./stim/wavs/argentine_question_filler_Mi-vecino-habla-mucho.wav,1,,,,,,,,,,,,,,,,,,,,,,,,,,,,,,,,,,,,,,,,,,,,,,,,,,,,,,,,,,,,,,,,,,,,,,,,,,
,,,,,,,60439d78a013a237855f2ac8,6057c54e64b0b4e5c128b4f9,605807d45e746ac201e09a3b,Spain,East coast,13 or older,no,2021-03-21_22h59.08.184,empathy_intonation_perc,2020.2.10,Win32,60,0,0,2.251645,0,4,4,2,1,./stim/wavs/chilean_question_filler_Mi-padre-cantaba-bien.wav,1,,,,,,,,,,,,,,,,,,,,,,,,,,,,,,,,,,,,,,,,,,,,,,,,,,,,,,,,,,,,,,,,,,,,,,,,,,
,,,,,,,60439d78a013a237855f2ac8,6057c54e64b0b4e5c128b4f9,605807d45e746ac201e09a3b,Spain,East coast,13 or older,no,2021-03-21_22h59.08.184,empathy_intonation_perc,2020.2.10,Win32,60,1,1,6.22369,0,5,5,3,1,./stim/wavs/mexican_question_filler_Felipe-no-tiene-contrasena.wav,1,,,,,,,,,,,,,,,,,,,,,,,,,,,,,,,,,,,,,,,,,,,,,,,,,,,,,,,,,,,,,,,,,,,,,,,,,,
,,,,,,,60439d78a013a237855f2ac8,6057c54e64b0b4e5c128b4f9,605807d45e746ac201e09a3b,Spain,East coast,13 or older,no,2021-03-21_22h59.08.184,empathy_intonation_perc,2020.2.10,Win32,60,0,1,2.48691,0,6,6,4,1,./stim/wavs/cuban_statement_filler_Cocinabas-por-la-noche.wav,0,,,,,,,,,,,,,,,,,,,,,,,,,,,,,,,,,,,,,,,,,,,,,,,,,,,,,,,,,,,,,,,,,,,,,,,,,,
,,,,,,,60439d78a013a237855f2ac8,6057c54e64b0b4e5c128b4f9,605807d45e746ac201e09a3b,Spain,East coast,13 or older,no,2021-03-21_22h59.08.184,empathy_intonation_perc,2020.2.10,Win32,60,1,1,1.944835,0,7,7,0,1,./stim/wavs/castilian_question_filler_Mi-esposo-conoce-al-chico.wav,1,,,,,,,,,,,,,,,,,,,,,,,,,,,,,,,,,,,,,,,,,,,,,,,,,,,,,,,,,,,,,,,,,,,,,,,,,,
,,,,,,,60439d78a013a237855f2ac8,6057c54e64b0b4e5c128b4f9,605807d45e746ac201e09a3b,Spain,East coast,13 or older,no,2021-03-21_22h59.08.184,empathy_intonation_perc,2020.2.10,Win32,60,,,,,,,,,,1,peruvian,1,1,2.111165,0,0,0,27,1,28,./stim/wavs/andalusian_match_interrogative-total-yn_Emilio-ama-la-marcha.wav,./stim/wavs/argentine_match_interrogative-total-yn_Emilio-ama-la-marcha.wav,./stim/wavs/castilian_match_interrogative-total-yn_Emilio-ama-la-marcha.wav,./stim/wavs/chilean_match_interrogative-total-yn_Emilio-ama-la-marcha.wav,./stim/wavs/cuban_match_interrogative-total-yn_Emilio-ama-la-marcha.wav,./stim/wavs/mexican_match_interrogative-total-yn_Emilio-ama-la-marcha.wav,./stim/wavs/peruvian_match_interrogative-total-yn_Emilio-ama-la-marcha.wav,./stim/wavs/puertorican_match_interrogative-total-yn_Emilio-ama-la-marcha.wav,,,,,,,,,,,,,,,,,,,,,,,,,,,,,,,,,,,,,,,,,,,,,,,,,,,,,,,,
,,,,,,,60439d78a013a237855f2ac8,6057c54e64b0b4e5c128b4f9,605807d45e746ac201e09a3b,Spain,East coast,13 or older,no,2021-03-21_22h59.08.184,empathy_intonation_perc,2020.2.10,Win32,60,,,,,,,,,,0,castilian,0,1,1.749165,0,1,1,10,1,11,./stim/wavs/andalusian_match_declarative-narrow-focus_David-leia-el-libro.wav,./stim/wavs/argentine_match_declarative-narrow-focus_David-leia-el-libro.wav,./stim/wavs/castilian_match_declarative-narrow-focus_David-leia-el-libro.wav,./stim/wavs/chilean_match_declarative-narrow-focus_David-leia-el-libro.wav,./stim/wavs/cuban_match_declarative-narrow-focus_David-leia-el-libro.wav,./stim/wavs/mexican_match_declarative-narrow-focus_David-leia-el-libro.wav,./stim/wavs/peruvian_match_declarative-narrow-focus_David-leia-el-libro.wav,./stim/wavs/puertorican_match_declarative-narrow-focus_David-leia-el-libro.wav,,,,,,,,,,,,,,,,,,,,,,,,,,,,,,,,,,,,,,,,,,,,,,,,,,,,,,,,
,,,,,,,60439d78a013a237855f2ac8,6057c54e64b0b4e5c128b4f9,605807d45e746ac201e09a3b,Spain,East coast,13 or older,no,2021-03-21_22h59.08.184,empathy_intonation_perc,2020.2.10,Win32,60,,,,,,,,,,0,cuban,0,1,1.37799,0,2,2,13,1,14,./stim/wavs/andalusian_match_declarative-narrow-focus_Maria-bebe-el-vino.wav,./stim/wavs/argentine_match_declarative-narrow-focus_Maria-bebe-el-vino.wav,./stim/wavs/castilian_match_declarative-narrow-focus_Maria-bebe-el-vino.wav,./stim/wavs/chilean_match_declarative-narrow-focus_Maria-bebe-el-vino.wav,./stim/wavs/cuban_match_declarative-narrow-focus_Maria-bebe-el-vino.wav,./stim/wavs/mexican_match_declarative-narrow-focus_Maria-bebe-el-vino.wav,./stim/wavs/peruvian_match_declarative-narrow-focus_Maria-bebe-el-vino.wav,./stim/wavs/puertorican_match_declarative-narrow-focus_Maria-bebe-el-vino.wav,,,,,,,,,,,,,,,,,,,,,,,,,,,,,,,,,,,,,,,,,,,,,,,,,,,,,,,,
,,,,,,,60439d78a013a237855f2ac8,6057c54e64b0b4e5c128b4f9,605807d45e746ac201e09a3b,Spain,East coast,13 or older,no,2021-03-21_22h59.08.184,empathy_intonation_perc,2020.2.10,Win32,60,,,,,,,,,,0,argentine,0,1,1.887905,0,3,3,3,1,4,./stim/wavs/andalusian_match_declarative-broad-focus_Emilio-ama-la-marcha.wav,./stim/wavs/argentine_match_declarative-broad-focus_Emilio-ama-la-marcha.wav,./stim/wavs/castilian_match_declarative-broad-focus_Emilio-ama-la-marcha.wav,./stim/wavs/chilean_match_declarative-broad-focus_Emilio-ama-la-marcha.wav,./stim/wavs/cuban_match_declarative-broad-focus_Emilio-ama-la-marcha.wav,./stim/wavs/mexican_match_declarative-broad-focus_Emilio-ama-la-marcha.wav,./stim/wavs/peruvian_match_declarative-broad-focus_Emilio-ama-la-marcha.wav,./stim/wavs/puertorican_match_declarative-broad-focus_Emilio-ama-la-marcha.wav,,,,,,,,,,,,,,,,,,,,,,,,,,,,,,,,,,,,,,,,,,,,,,,,,,,,,,,,
,,,,,,,60439d78a013a237855f2ac8,6057c54e64b0b4e5c128b4f9,605807d45e746ac201e09a3b,Spain,East coast,13 or older,no,2021-03-21_22h59.08.184,empathy_intonation_perc,2020.2.10,Win32,60,,,,,,,,,,1,cuban,0,0,1.561125,0,4,4,48,1,49,./stim/wavs/andalusian_mismatch_interrogative-partial-wh_Cuando-comia-la-fruta.wav,./stim/wavs/argentine_mismatch_interrogative-partial-wh_Cuando-comia-la-fruta.wav,./stim/wavs/castilian_mismatch_interrogative-partial-wh_Cuando-comia-la-fruta.wav,./stim/wavs/chilean_mismatch_interrogative-partial-wh_Cuando-comia-la-fruta.wav,./stim/wavs/cuban_mismatch_interrogative-partial-wh_Cuando-comia-la-fruta.wav,./stim/wavs/mexican_mismatch_interrogative-partial-wh_Cuando-comia-la-fruta.wav,./stim/wavs/peruvian_mismatch_interrogative-partial-wh_Cuando-comia-la-fruta.wav,./stim/wavs/puertorican_mismatch_interrogative-partial-wh_Cuando-comia-la-fruta.wav,,,,,,,,,,,,,,,,,,,,,,,,,,,,,,,,,,,,,,,,,,,,,,,,,,,,,,,,
,,,,,,,60439d78a013a237855f2ac8,6057c54e64b0b4e5c128b4f9,605807d45e746ac201e09a3b,Spain,East coast,13 or older,no,2021-03-21_22h59.08.184,empathy_intonation_perc,2020.2.10,Win32,60,,,,,,,,,,1,argentine,0,0,3.384125,0,5,5,62,1,63,./stim/wavs/andalusian_mismatch_interrogative-total-yn_Mi-novio-viene-del-lago.wav,./stim/wavs/argentine_mismatch_interrogative-total-yn_Mi-novio-viene-del-lago.wav,./stim/wavs/castilian_mismatch_interrogative-total-yn_Mi-novio-viene-del-lago.wav,./stim/wavs/chilean_mismatch_interrogative-total-yn_Mi-novio-viene-del-lago.wav,./stim/wavs/cuban_mismatch_interrogative-total-yn_Mi-novio-viene-del-lago.wav,./stim/wavs/mexican_mismatch_interrogative-total-yn_Mi-novio-viene-del-lago.wav,./stim/wavs/peruvian_mismatch_interrogative-total-yn_Mi-novio-viene-del-lago.wav,./stim/wavs/puertorican_mismatch_interrogative-total-yn_Mi-novio-viene-del-lago.wav,,,,,,,,,,,,,,,,,,,,,,,,,,,,,,,,,,,,,,,,,,,,,,,,,,,,,,,,
,,,,,,,60439d78a013a237855f2ac8,6057c54e64b0b4e5c128b4f9,605807d45e746ac201e09a3b,Spain,East coast,13 or older,no,2021-03-21_22h59.08.184,empathy_intonation_perc,2020.2.10,Win32,60,,,,,,,,,,0,castilian,0,1,1.94297,0,6,6,34,1,35,./stim/wavs/andalusian_mismatch_declarative-broad-focus_El-nino-oye-el-rio.wav,./stim/wavs/argentine_mismatch_declarative-broad-focus_El-nino-oye-el-rio.wav,./stim/wavs/castilian_mismatch_declarative-broad-focus_El-nino-oye-el-rio.wav,./stim/wavs/chilean_mismatch_declarative-broad-focus_El-nino-oye-el-rio.wav,./stim/wavs/cuban_mismatch_declarative-broad-focus_El-nino-oye-el-rio.wav,./stim/wavs/mexican_mismatch_declarative-broad-focus_El-nino-oye-el-rio.wav,./stim/wavs/peruvian_mismatch_declarative-broad-focus_El-nino-oye-el-rio.wav,./stim/wavs/puertorican_mismatch_declarative-broad-focus_El-nino-oye-el-rio.wav,,,,,,,,,,,,,,,,,,,,,,,,,,,,,,,,,,,,,,,,,,,,,,,,,,,,,,,,
,,,,,,,60439d78a013a237855f2ac8,6057c54e64b0b4e5c128b4f9,605807d45e746ac201e09a3b,Spain,East coast,13 or older,no,2021-03-21_22h59.08.184,empathy_intonation_perc,2020.2.10,Win32,60,,,,,,,,,,0,argentine,0,1,2.238065,0,7,7,44,1,45,./stim/wavs/andalusian_mismatch_declarative-narrow-focus_La-nina-lava-el-plato.wav,./stim/wavs/argentine_mismatch_declarative-narrow-focus_La-nina-lava-el-plato.wav,./stim/wavs/castilian_mismatch_declarative-narrow-focus_La-nina-lava-el-plato.wav,./stim/wavs/chilean_mismatch_declarative-narrow-focus_La-nina-lava-el-plato.wav,./stim/wavs/cuban_mismatch_declarative-narrow-focus_La-nina-lava-el-plato.wav,./stim/wavs/mexican_mismatch_declarative-narrow-focus_La-nina-lava-el-plato.wav,./stim/wavs/peruvian_mismatch_declarative-narrow-focus_La-nina-lava-el-plato.wav,./stim/wavs/puertorican_mismatch_declarative-narrow-focus_La-nina-lava-el-plato.wav,,,,,,,,,,,,,,,,,,,,,,,,,,,,,,,,,,,,,,,,,,,,,,,,,,,,,,,,
,,,,,,,60439d78a013a237855f2ac8,6057c54e64b0b4e5c128b4f9,605807d45e746ac201e09a3b,Spain,East coast,13 or older,no,2021-03-21_22h59.08.184,empathy_intonation_perc,2020.2.10,Win32,60,,,,,,,,,,0,mexican,0,1,1.715545,0,8,8,8,1,9,./stim/wavs/andalusian_match_declarative-narrow-focus_Ana-lleva-el-abrigo.wav,./stim/wavs/argentine_match_declarative-narrow-focus_Ana-lleva-el-abrigo.wav,./stim/wavs/castilian_match_declarative-narrow-focus_Ana-lleva-el-abrigo.wav,./stim/wavs/chilean_match_declarative-narrow-focus_Ana-lleva-el-abrigo.wav,./stim/wavs/cuban_match_declarative-narrow-focus_Ana-lleva-el-abrigo.wav,./stim/wavs/mexican_match_declarative-narrow-focus_Ana-lleva-el-abrigo.wav,./stim/wavs/peruvian_match_declarative-narrow-focus_Ana-lleva-el-abrigo.wav,./stim/wavs/puertorican_match_declarative-narrow-focus_Ana-lleva-el-abrigo.wav,,,,,,,,,,,,,,,,,,,,,,,,,,,,,,,,,,,,,,,,,,,,,,,,,,,,,,,,
,,,,,,,60439d78a013a237855f2ac8,6057c54e64b0b4e5c128b4f9,605807d45e746ac201e09a3b,Spain,East coast,13 or older,no,2021-03-21_22h59.08.184,empathy_intonation_perc,2020.2.10,Win32,60,,,,,,,,,,0,castilian,0,1,2.181215,0,9,9,33,1,34,./stim/wavs/andalusian_mismatch_declarative-broad-focus_El-hombre-mira-la-luna.wav,./stim/wavs/argentine_mismatch_declarative-broad-focus_El-hombre-mira-la-luna.wav,./stim/wavs/castilian_mismatch_declarative-broad-focus_El-hombre-mira-la-luna.wav,./stim/wavs/chilean_mismatch_declarative-broad-focus_El-hombre-mira-la-luna.wav,./stim/wavs/cuban_mismatch_declarative-broad-focus_El-hombre-mira-la-luna.wav,./stim/wavs/mexican_mismatch_declarative-broad-focus_El-hombre-mira-la-luna.wav,./stim/wavs/peruvian_mismatch_declarative-broad-focus_El-hombre-mira-la-luna.wav,./stim/wavs/puertorican_mismatch_declarative-broad-focus_El-hombre-mira-la-luna.wav,,,,,,,,,,,,,,,,,,,,,,,,,,,,,,,,,,,,,,,,,,,,,,,,,,,,,,,,
,,,,,,,60439d78a013a237855f2ac8,6057c54e64b0b4e5c128b4f9,605807d45e746ac201e09a3b,Spain,East coast,13 or older,no,2021-03-21_22h59.08.184,empathy_intonation_perc,2020.2.10,Win32,60,,,,,,,,,,1,mexican,1,1,1.64907,0,10,10,19,1,20,./stim/wavs/andalusian_match_interrogative-partial-wh_Cuando-vendia-el-carro.wav,./stim/wavs/argentine_match_interrogative-partial-wh_Cuando-vendia-el-carro.wav,./stim/wavs/castilian_match_interrogative-partial-wh_Cuando-vendia-el-carro.wav,./stim/wavs/chilean_match_interrogative-partial-wh_Cuando-vendia-el-carro.wav,./stim/wavs/cuban_match_interrogative-partial-wh_Cuando-vendia-el-carro.wav,./stim/wavs/mexican_match_interrogative-partial-wh_Cuando-vendia-el-carro.wav,./stim/wavs/peruvian_match_interrogative-partial-wh_Cuando-vendia-el-carro.wav,./stim/wavs/puertorican_match_interrogative-partial-wh_Cuando-vendia-el-carro.wav,,,,,,,,,,,,,,,,,,,,,,,,,,,,,,,,,,,,,,,,,,,,,,,,,,,,,,,,
,,,,,,,60439d78a013a237855f2ac8,6057c54e64b0b4e5c128b4f9,605807d45e746ac201e09a3b,Spain,East coast,13 or older,no,2021-03-21_22h59.08.184,empathy_intonation_perc,2020.2.10,Win32,60,,,,,,,,,,1,peruvian,1,1,1.723495,0,11,11,20,1,21,./stim/wavs/andalusian_match_interrogative-partial-wh_Por-que-abre-el-regalo.wav,./stim/wavs/argentine_match_interrogative-partial-wh_Por-que-abre-el-regalo.wav,./stim/wavs/castilian_match_interrogative-partial-wh_Por-que-abre-el-regalo.wav,./stim/wavs/chilean_match_interrogative-partial-wh_Por-que-abre-el-regalo.wav,./stim/wavs/cuban_match_interrogative-partial-wh_Por-que-abre-el-regalo.wav,./stim/wavs/mexican_match_interrogative-partial-wh_Por-que-abre-el-regalo.wav,./stim/wavs/peruvian_match_interrogative-partial-wh_Por-que-abre-el-regalo.wav,./stim/wavs/puertorican_match_interrogative-partial-wh_Por-que-abre-el-regalo.wav,,,,,,,,,,,,,,,,,,,,,,,,,,,,,,,,,,,,,,,,,,,,,,,,,,,,,,,,
,,,,,,,60439d78a013a237855f2ac8,6057c54e64b0b4e5c128b4f9,605807d45e746ac201e09a3b,Spain,East coast,13 or older,no,2021-03-21_22h59.08.184,empathy_intonation_perc,2020.2.10,Win32,60,,,,,,,,,,1,castilian,1,1,1.508075,0,12,12,57,1,58,./stim/wavs/andalusian_mismatch_interrogative-total-yn_El-hombre-mira-la-luna.wav,./stim/wavs/argentine_mismatch_interrogative-total-yn_El-hombre-mira-la-luna.wav,./stim/wavs/castilian_mismatch_interrogative-total-yn_El-hombre-mira-la-luna.wav,./stim/wavs/chilean_mismatch_interrogative-total-yn_El-hombre-mira-la-luna.wav,./stim/wavs/cuban_mismatch_interrogative-total-yn_El-hombre-mira-la-luna.wav,./stim/wavs/mexican_mismatch_interrogative-total-yn_El-hombre-mira-la-luna.wav,./stim/wavs/peruvian_mismatch_interrogative-total-yn_El-hombre-mira-la-luna.wav,./stim/wavs/puertorican_mismatch_interrogative-total-yn_El-hombre-mira-la-luna.wav,,,,,,,,,,,,,,,,,,,,,,,,,,,,,,,,,,,,,,,,,,,,,,,,,,,,,,,,
,,,,,,,60439d78a013a237855f2ac8,6057c54e64b0b4e5c128b4f9,605807d45e746ac201e09a3b,Spain,East coast,13 or older,no,2021-03-21_22h59.08.184,empathy_intonation_perc,2020.2.10,Win32,60,,,,,,,,,,1,argentine,1,1,1.74035,0,13,13,26,1,27,./stim/wavs/andalusian_match_interrogative-total-yn_David-leia-el-libro.wav,./stim/wavs/argentine_match_interrogative-total-yn_David-leia-el-libro.wav,./stim/wavs/castilian_match_interrogative-total-yn_David-leia-el-libro.wav,./stim/wavs/chilean_match_interrogative-total-yn_David-leia-el-libro.wav,./stim/wavs/cuban_match_interrogative-total-yn_David-leia-el-libro.wav,./stim/wavs/mexican_match_interrogative-total-yn_David-leia-el-libro.wav,./stim/wavs/peruvian_match_interrogative-total-yn_David-leia-el-libro.wav,./stim/wavs/puertorican_match_interrogative-total-yn_David-leia-el-libro.wav,,,,,,,,,,,,,,,,,,,,,,,,,,,,,,,,,,,,,,,,,,,,,,,,,,,,,,,,
,,,,,,,60439d78a013a237855f2ac8,6057c54e64b0b4e5c128b4f9,605807d45e746ac201e09a3b,Spain,East coast,13 or older,no,2021-03-21_22h59.08.184,empathy_intonation_perc,2020.2.10,Win32,60,,,,,,,,,,1,cuban,0,0,2.164905,0,14,14,30,1,31,./stim/wavs/andalusian_match_interrogative-total-yn_Mariano-habla-del-tiempo.wav,./stim/wavs/argentine_match_interrogative-total-yn_Mariano-habla-del-tiempo.wav,./stim/wavs/castilian_match_interrogative-total-yn_Mariano-habla-del-tiempo.wav,./stim/wavs/chilean_match_interrogative-total-yn_Mariano-habla-del-tiempo.wav,./stim/wavs/cuban_match_interrogative-total-yn_Mariano-habla-del-tiempo.wav,./stim/wavs/mexican_match_interrogative-total-yn_Mariano-habla-del-tiempo.wav,./stim/wavs/peruvian_match_interrogative-total-yn_Mariano-habla-del-tiempo.wav,./stim/wavs/puertorican_match_interrogative-total-yn_Mariano-habla-del-tiempo.wav,,,,,,,,,,,,,,,,,,,,,,,,,,,,,,,,,,,,,,,,,,,,,,,,,,,,,,,,
,,,,,,,60439d78a013a237855f2ac8,6057c54e64b0b4e5c128b4f9,605807d45e746ac201e09a3b,Spain,East coast,13 or older,no,2021-03-21_22h59.08.184,empathy_intonation_perc,2020.2.10,Win32,60,,,,,,,,,,1,castilian,1,1,1.706015,0,15,15,23,1,24,./stim/wavs/andalusian_match_interrogative-partial-wh_Por-que-iba-a-Bolivia.wav,./stim/wavs/argentine_match_interrogative-partial-wh_Por-que-iba-a-Bolivia.wav,./stim/wavs/castilian_match_interrogative-partial-wh_Por-que-iba-a-Bolivia.wav,./stim/wavs/chilean_match_interrogative-partial-wh_Por-que-iba-a-Bolivia.wav,./stim/wavs/cuban_match_interrogative-partial-wh_Por-que-iba-a-Bolivia.wav,./stim/wavs/mexican_match_interrogative-partial-wh_Por-que-iba-a-Bolivia.wav,./stim/wavs/peruvian_match_interrogative-partial-wh_Por-que-iba-a-Bolivia.wav,./stim/wavs/puertorican_match_interrogative-partial-wh_Por-que-iba-a-Bolivia.wav,,,,,,,,,,,,,,,,,,,,,,,,,,,,,,,,,,,,,,,,,,,,,,,,,,,,,,,,
,,,,,,,60439d78a013a237855f2ac8,6057c54e64b0b4e5c128b4f9,605807d45e746ac201e09a3b,Spain,East coast,13 or older,no,2021-03-21_22h59.08.184,empathy_intonation_perc,2020.2.10,Win32,60,,,,,,,,,,1,puertorican,0,0,1.667005,0,16,16,61,1,62,./stim/wavs/andalusian_mismatch_interrogative-total-yn_Mi-madre-come-la-fruta.wav,./stim/wavs/argentine_mismatch_interrogative-total-yn_Mi-madre-come-la-fruta.wav,./stim/wavs/castilian_mismatch_interrogative-total-yn_Mi-madre-come-la-fruta.wav,./stim/wavs/chilean_mismatch_interrogative-total-yn_Mi-madre-come-la-fruta.wav,./stim/wavs/cuban_mismatch_interrogative-total-yn_Mi-madre-come-la-fruta.wav,./stim/wavs/mexican_mismatch_interrogative-total-yn_Mi-madre-come-la-fruta.wav,./stim/wavs/peruvian_mismatch_interrogative-total-yn_Mi-madre-come-la-fruta.wav,./stim/wavs/puertorican_mismatch_interrogative-total-yn_Mi-madre-come-la-fruta.wav,,,,,,,,,,,,,,,,,,,,,,,,,,,,,,,,,,,,,,,,,,,,,,,,,,,,,,,,
,,,,,,,60439d78a013a237855f2ac8,6057c54e64b0b4e5c128b4f9,605807d45e746ac201e09a3b,Spain,East coast,13 or older,no,2021-03-21_22h59.08.184,empathy_intonation_perc,2020.2.10,Win32,60,,,,,,,,,,0,castilian,0,1,4.13314,0,17,17,40,1,41,./stim/wavs/andalusian_mismatch_declarative-narrow-focus_El-bebe-comia-muy-bien.wav,./stim/wavs/argentine_mismatch_declarative-narrow-focus_El-bebe-comia-muy-bien.wav,./stim/wavs/castilian_mismatch_declarative-narrow-focus_El-bebe-comia-muy-bien.wav,./stim/wavs/chilean_mismatch_declarative-narrow-focus_El-bebe-comia-muy-bien.wav,./stim/wavs/cuban_mismatch_declarative-narrow-focus_El-bebe-comia-muy-bien.wav,./stim/wavs/mexican_mismatch_declarative-narrow-focus_El-bebe-comia-muy-bien.wav,./stim/wavs/peruvian_mismatch_declarative-narrow-focus_El-bebe-comia-muy-bien.wav,./stim/wavs/puertorican_mismatch_declarative-narrow-focus_El-bebe-comia-muy-bien.wav,,,,,,,,,,,,,,,,,,,,,,,,,,,,,,,,,,,,,,,,,,,,,,,,,,,,,,,,
,,,,,,,60439d78a013a237855f2ac8,6057c54e64b0b4e5c128b4f9,605807d45e746ac201e09a3b,Spain,East coast,13 or older,no,2021-03-21_22h59.08.184,empathy_intonation_perc,2020.2.10,Win32,60,,,,,,,,,,0,andalusian,0,1,2.615075,0,18,18,42,1,43,./stim/wavs/andalusian_mismatch_declarative-narrow-focus_El-nino-oye-el-rio.wav,./stim/wavs/argentine_mismatch_declarative-narrow-focus_El-nino-oye-el-rio.wav,./stim/wavs/castilian_mismatch_declarative-narrow-focus_El-nino-oye-el-rio.wav,./stim/wavs/chilean_mismatch_declarative-narrow-focus_El-nino-oye-el-rio.wav,./stim/wavs/cuban_mismatch_declarative-narrow-focus_El-nino-oye-el-rio.wav,./stim/wavs/mexican_mismatch_declarative-narrow-focus_El-nino-oye-el-rio.wav,./stim/wavs/peruvian_mismatch_declarative-narrow-focus_El-nino-oye-el-rio.wav,./stim/wavs/puertorican_mismatch_declarative-narrow-focus_El-nino-oye-el-rio.wav,,,,,,,,,,,,,,,,,,,,,,,,,,,,,,,,,,,,,,,,,,,,,,,,,,,,,,,,
,,,,,,,60439d78a013a237855f2ac8,6057c54e64b0b4e5c128b4f9,605807d45e746ac201e09a3b,Spain,East coast,13 or older,no,2021-03-21_22h59.08.184,empathy_intonation_perc,2020.2.10,Win32,60,,,,,,,,,,0,argentine,0,1,1.803935,0,19,19,4,1,5,./stim/wavs/andalusian_match_declarative-broad-focus_Manuela-vende-el-carro.wav,./stim/wavs/argentine_match_declarative-broad-focus_Manuela-vende-el-carro.wav,./stim/wavs/castilian_match_declarative-broad-focus_Manuela-vende-el-carro.wav,./stim/wavs/chilean_match_declarative-broad-focus_Manuela-vende-el-carro.wav,./stim/wavs/cuban_match_declarative-broad-focus_Manuela-vende-el-carro.wav,./stim/wavs/mexican_match_declarative-broad-focus_Manuela-vende-el-carro.wav,./stim/wavs/peruvian_match_declarative-broad-focus_Manuela-vende-el-carro.wav,./stim/wavs/puertorican_match_declarative-broad-focus_Manuela-vende-el-carro.wav,,,,,,,,,,,,,,,,,,,,,,,,,,,,,,,,,,,,,,,,,,,,,,,,,,,,,,,,
,,,,,,,60439d78a013a237855f2ac8,6057c54e64b0b4e5c128b4f9,605807d45e746ac201e09a3b,Spain,East coast,13 or older,no,2021-03-21_22h59.08.184,empathy_intonation_perc,2020.2.10,Win32,60,,,,,,,,,,0,puertorican,0,1,2.03205,0,20,20,14,1,15,./stim/wavs/andalusian_match_declarative-narrow-focus_Mariano-habla-del-tiempo.wav,./stim/wavs/argentine_match_declarative-narrow-focus_Mariano-habla-del-tiempo.wav,./stim/wavs/castilian_match_declarative-narrow-focus_Mariano-habla-del-tiempo.wav,./stim/wavs/chilean_match_declarative-narrow-focus_Mariano-habla-del-tiempo.wav,./stim/wavs/cuban_match_declarative-narrow-focus_Mariano-habla-del-tiempo.wav,./stim/wavs/mexican_match_declarative-narrow-focus_Mariano-habla-del-tiempo.wav,./stim/wavs/peruvian_match_declarative-narrow-focus_Mariano-habla-del-tiempo.wav,./stim/wavs/puertorican_match_declarative-narrow-focus_Mariano-habla-del-tiempo.wav,,,,,,,,,,,,,,,,,,,,,,,,,,,,,,,,,,,,,,,,,,,,,,,,,,,,,,,,
,,,,,,,60439d78a013a237855f2ac8,6057c54e64b0b4e5c128b4f9,605807d45e746ac201e09a3b,Spain,East coast,13 or older,no,2021-03-21_22h59.08.184,empathy_intonation_perc,2020.2.10,Win32,60,,,,,,,,,,0,andalusian,0,1,2.188415,0,21,21,35,1,36,./stim/wavs/andalusian_mismatch_declarative-broad-focus_La-maestra-vive-en-Paris.wav,./stim/wavs/argentine_mismatch_declarative-broad-focus_La-maestra-vive-en-Paris.wav,./stim/wavs/castilian_mismatch_declarative-broad-focus_La-maestra-vive-en-Paris.wav,./stim/wavs/chilean_mismatch_declarative-broad-focus_La-maestra-vive-en-Paris.wav,./stim/wavs/cuban_mismatch_declarative-broad-focus_La-maestra-vive-en-Paris.wav,./stim/wavs/mexican_mismatch_declarative-broad-focus_La-maestra-vive-en-Paris.wav,./stim/wavs/peruvian_mismatch_declarative-broad-focus_La-maestra-vive-en-Paris.wav,./stim/wavs/puertorican_mismatch_declarative-broad-focus_La-maestra-vive-en-Paris.wav,,,,,,,,,,,,,,,,,,,,,,,,,,,,,,,,,,,,,,,,,,,,,,,,,,,,,,,,
,,,,,,,60439d78a013a237855f2ac8,6057c54e64b0b4e5c128b4f9,605807d45e746ac201e09a3b,Spain,East coast,13 or older,no,2021-03-21_22h59.08.184,empathy_intonation_perc,2020.2.10,Win32,60,,,,,,,,,,1,puertorican,0,0,2.026555,0,22,22,60,1,61,./stim/wavs/andalusian_mismatch_interrogative-total-yn_La-nina-lava-el-plato.wav,./stim/wavs/argentine_mismatch_interrogative-total-yn_La-nina-lava-el-plato.wav,./stim/wavs/castilian_mismatch_interrogative-total-yn_La-nina-lava-el-plato.wav,./stim/wavs/chilean_mismatch_interrogative-total-yn_La-nina-lava-el-plato.wav,./stim/wavs/cuban_mismatch_interrogative-total-yn_La-nina-lava-el-plato.wav,./stim/wavs/mexican_mismatch_interrogative-total-yn_La-nina-lava-el-plato.wav,./stim/wavs/peruvian_mismatch_interrogative-total-yn_La-nina-lava-el-plato.wav,./stim/wavs/puertorican_mismatch_interrogative-total-yn_La-nina-lava-el-plato.wav,,,,,,,,,,,,,,,,,,,,,,,,,,,,,,,,,,,,,,,,,,,,,,,,,,,,,,,,
,,,,,,,60439d78a013a237855f2ac8,6057c54e64b0b4e5c128b4f9,605807d45e746ac201e09a3b,Spain,East coast,13 or older,no,2021-03-21_22h59.08.184,empathy_intonation_perc,2020.2.10,Win32,60,,,,,,,,,,1,castilian,1,1,1.974175,0,23,23,58,1,59,./stim/wavs/andalusian_mismatch_interrogative-total-yn_El-nino-oye-el-rio.wav,./stim/wavs/argentine_mismatch_interrogative-total-yn_El-nino-oye-el-rio.wav,./stim/wavs/castilian_mismatch_interrogative-total-yn_El-nino-oye-el-rio.wav,./stim/wavs/chilean_mismatch_interrogative-total-yn_El-nino-oye-el-rio.wav,./stim/wavs/cuban_mismatch_interrogative-total-yn_El-nino-oye-el-rio.wav,./stim/wavs/mexican_mismatch_interrogative-total-yn_El-nino-oye-el-rio.wav,./stim/wavs/peruvian_mismatch_interrogative-total-yn_El-nino-oye-el-rio.wav,./stim/wavs/puertorican_mismatch_interrogative-total-yn_El-nino-oye-el-rio.wav,,,,,,,,,,,,,,,,,,,,,,,,,,,,,,,,,,,,,,,,,,,,,,,,,,,,,,,,
,,,,,,,60439d78a013a237855f2ac8,6057c54e64b0b4e5c128b4f9,605807d45e746ac201e09a3b,Spain,East coast,13 or older,no,2021-03-21_22h59.08.184,empathy_intonation_perc,2020.2.10,Win32,60,,,,,,,,,,0,mexican,0,1,1.73305,0,24,24,6,1,7,./stim/wavs/andalusian_match_declarative-broad-focus_Mariano-habla-del-tiempo.wav,./stim/wavs/argentine_match_declarative-broad-focus_Mariano-habla-del-tiempo.wav,./stim/wavs/castilian_match_declarative-broad-focus_Mariano-habla-del-tiempo.wav,./stim/wavs/chilean_match_declarative-broad-focus_Mariano-habla-del-tiempo.wav,./stim/wavs/cuban_match_declarative-broad-focus_Mariano-habla-del-tiempo.wav,./stim/wavs/mexican_match_declarative-broad-focus_Mariano-habla-del-tiempo.wav,./stim/wavs/peruvian_match_declarative-broad-focus_Mariano-habla-del-tiempo.wav,./stim/wavs/puertorican_match_declarative-broad-focus_Mariano-habla-del-tiempo.wav,,,,,,,,,,,,,,,,,,,,,,,,,,,,,,,,,,,,,,,,,,,,,,,,,,,,,,,,
,,,,,,,60439d78a013a237855f2ac8,6057c54e64b0b4e5c128b4f9,605807d45e746ac201e09a3b,Spain,East coast,13 or older,no,2021-03-21_22h59.08.184,empathy_intonation_perc,2020.2.10,Win32,60,,,,,,,,,,1,castilian,1,1,1.932235,0,25,25,16,1,17,./stim/wavs/andalusian_match_interrogative-partial-wh_Cuando-bebia-el-vino.wav,./stim/wavs/argentine_match_interrogative-partial-wh_Cuando-bebia-el-vino.wav,./stim/wavs/castilian_match_interrogative-partial-wh_Cuando-bebia-el-vino.wav,./stim/wavs/chilean_match_interrogative-partial-wh_Cuando-bebia-el-vino.wav,./stim/wavs/cuban_match_interrogative-partial-wh_Cuando-bebia-el-vino.wav,./stim/wavs/mexican_match_interrogative-partial-wh_Cuando-bebia-el-vino.wav,./stim/wavs/peruvian_match_interrogative-partial-wh_Cuando-bebia-el-vino.wav,./stim/wavs/puertorican_match_interrogative-partial-wh_Cuando-bebia-el-vino.wav,,,,,,,,,,,,,,,,,,,,,,,,,,,,,,,,,,,,,,,,,,,,,,,,,,,,,,,,
,,,,,,,60439d78a013a237855f2ac8,6057c54e64b0b4e5c128b4f9,605807d45e746ac201e09a3b,Spain,East coast,13 or older,no,2021-03-21_22h59.08.184,empathy_intonation_perc,2020.2.10,Win32,60,,,,,,,,,,0,andalusian,0,1,2.18837,0,26,26,47,1,48,./stim/wavs/andalusian_mismatch_declarative-narrow-focus_Mi-tia-odia-la-lluvia.wav,./stim/wavs/argentine_mismatch_declarative-narrow-focus_Mi-tia-odia-la-lluvia.wav,./stim/wavs/castilian_mismatch_declarative-narrow-focus_Mi-tia-odia-la-lluvia.wav,./stim/wavs/chilean_mismatch_declarative-narrow-focus_Mi-tia-odia-la-lluvia.wav,./stim/wavs/cuban_mismatch_declarative-narrow-focus_Mi-tia-odia-la-lluvia.wav,./stim/wavs/mexican_mismatch_declarative-narrow-focus_Mi-tia-odia-la-lluvia.wav,./stim/wavs/peruvian_mismatch_declarative-narrow-focus_Mi-tia-odia-la-lluvia.wav,./stim/wavs/puertorican_mismatch_declarative-narrow-focus_Mi-tia-odia-la-lluvia.wav,,,,,,,,,,,,,,,,,,,,,,,,,,,,,,,,,,,,,,,,,,,,,,,,,,,,,,,,
,,,,,,,60439d78a013a237855f2ac8,6057c54e64b0b4e5c128b4f9,605807d45e746ac201e09a3b,Spain,East coast,13 or older,no,2021-03-21_22h59.08.184,empathy_intonation_perc,2020.2.10,Win32,60,,,,,,,,,,0,andalusian,0,1,2.73073,0,27,27,11,1,12,./stim/wavs/andalusian_match_declarative-narrow-focus_Emilio-ama-la-marcha.wav,./stim/wavs/argentine_match_declarative-narrow-focus_Emilio-ama-la-marcha.wav,./stim/wavs/castilian_match_declarative-narrow-focus_Emilio-ama-la-marcha.wav,./stim/wavs/chilean_match_declarative-narrow-focus_Emilio-ama-la-marcha.wav,./stim/wavs/cuban_match_declarative-narrow-focus_Emilio-ama-la-marcha.wav,./stim/wavs/mexican_match_declarative-narrow-focus_Emilio-ama-la-marcha.wav,./stim/wavs/peruvian_match_declarative-narrow-focus_Emilio-ama-la-marcha.wav,./stim/wavs/puertorican_match_declarative-narrow-focus_Emilio-ama-la-marcha.wav,,,,,,,,,,,,,,,,,,,,,,,,,,,,,,,,,,,,,,,,,,,,,,,,,,,,,,,,
,,,,,,,60439d78a013a237855f2ac8,6057c54e64b0b4e5c128b4f9,605807d45e746ac201e09a3b,Spain,East coast,13 or older,no,2021-03-21_22h59.08.184,empathy_intonation_perc,2020.2.10,Win32,60,,,,,,,,,,1,andalusian,1,1,1.04244,0,28,28,55,1,56,./stim/wavs/andalusian_mismatch_interrogative-partial-wh_Por-que-vivia-en-Paris.wav,./stim/wavs/argentine_mismatch_interrogative-partial-wh_Por-que-vivia-en-Paris.wav,./stim/wavs/castilian_mismatch_interrogative-partial-wh_Por-que-vivia-en-Paris.wav,./stim/wavs/chilean_mismatch_interrogative-partial-wh_Por-que-vivia-en-Paris.wav,./stim/wavs/cuban_mismatch_interrogative-partial-wh_Por-que-vivia-en-Paris.wav,./stim/wavs/mexican_mismatch_interrogative-partial-wh_Por-que-vivia-en-Paris.wav,./stim/wavs/peruvian_mismatch_interrogative-partial-wh_Por-que-vivia-en-Paris.wav,./stim/wavs/puertorican_mismatch_interrogative-partial-wh_Por-que-vivia-en-Paris.wav,,,,,,,,,,,,,,,,,,,,,,,,,,,,,,,,,,,,,,,,,,,,,,,,,,,,,,,,
,,,,,,,60439d78a013a237855f2ac8,6057c54e64b0b4e5c128b4f9,605807d45e746ac201e09a3b,Spain,East coast,13 or older,no,2021-03-21_22h59.08.184,empathy_intonation_perc,2020.2.10,Win32,60,,,,,,,,,,1,peruvian,1,1,2.133215,0,29,29,59,1,60,./stim/wavs/andalusian_mismatch_interrogative-total-yn_La-maestra-vive-en-Paris.wav,./stim/wavs/argentine_mismatch_interrogative-total-yn_La-maestra-vive-en-Paris.wav,./stim/wavs/castilian_mismatch_interrogative-total-yn_La-maestra-vive-en-Paris.wav,./stim/wavs/chilean_mismatch_interrogative-total-yn_La-maestra-vive-en-Paris.wav,./stim/wavs/cuban_mismatch_interrogative-total-yn_La-maestra-vive-en-Paris.wav,./stim/wavs/mexican_mismatch_interrogative-total-yn_La-maestra-vive-en-Paris.wav,./stim/wavs/peruvian_mismatch_interrogative-total-yn_La-maestra-vive-en-Paris.wav,./stim/wavs/puertorican_mismatch_interrogative-total-yn_La-maestra-vive-en-Paris.wav,,,,,,,,,,,,,,,,,,,,,,,,,,,,,,,,,,,,,,,,,,,,,,,,,,,,,,,,
,,,,,,,60439d78a013a237855f2ac8,6057c54e64b0b4e5c128b4f9,605807d45e746ac201e09a3b,Spain,East coast,13 or older,no,2021-03-21_22h59.08.184,empathy_intonation_perc,2020.2.10,Win32,60,,,,,,,,,,0,castilian,0,1,1.99888,0,30,30,15,1,16,./stim/wavs/andalusian_match_declarative-narrow-focus_Marta-abre-el-regalo.wav,./stim/wavs/argentine_match_declarative-narrow-focus_Marta-abre-el-regalo.wav,./stim/wavs/castilian_match_declarative-narrow-focus_Marta-abre-el-regalo.wav,./stim/wavs/chilean_match_declarative-narrow-focus_Marta-abre-el-regalo.wav,./stim/wavs/cuban_match_declarative-narrow-focus_Marta-abre-el-regalo.wav,./stim/wavs/mexican_match_declarative-narrow-focus_Marta-abre-el-regalo.wav,./stim/wavs/peruvian_match_declarative-narrow-focus_Marta-abre-el-regalo.wav,./stim/wavs/puertorican_match_declarative-narrow-focus_Marta-abre-el-regalo.wav,,,,,,,,,,,,,,,,,,,,,,,,,,,,,,,,,,,,,,,,,,,,,,,,,,,,,,,,
,,,,,,,60439d78a013a237855f2ac8,6057c54e64b0b4e5c128b4f9,605807d45e746ac201e09a3b,Spain,East coast,13 or older,no,2021-03-21_22h59.08.184,empathy_intonation_perc,2020.2.10,Win32,60,,,,,,,,,,1,argentine,1,1,2.258175,0,31,31,31,1,32,./stim/wavs/andalusian_match_interrogative-total-yn_Marta-abre-el-regalo.wav,./stim/wavs/argentine_match_interrogative-total-yn_Marta-abre-el-regalo.wav,./stim/wavs/castilian_match_interrogative-total-yn_Marta-abre-el-regalo.wav,./stim/wavs/chilean_match_interrogative-total-yn_Marta-abre-el-regalo.wav,./stim/wavs/cuban_match_interrogative-total-yn_Marta-abre-el-regalo.wav,./stim/wavs/mexican_match_interrogative-total-yn_Marta-abre-el-regalo.wav,./stim/wavs/peruvian_match_interrogative-total-yn_Marta-abre-el-regalo.wav,./stim/wavs/puertorican_match_interrogative-total-yn_Marta-abre-el-regalo.wav,,,,,,,,,,,,,,,,,,,,,,,,,,,,,,,,,,,,,,,,,,,,,,,,,,,,,,,,
,,,,,,,60439d78a013a237855f2ac8,6057c54e64b0b4e5c128b4f9,605807d45e746ac201e09a3b,Spain,East coast,13 or older,no,2021-03-21_22h59.08.184,empathy_intonation_perc,2020.2.10,Win32,60,,,,,,,,,,1,mexican,1,1,1.734045,0,32,32,25,1,26,./stim/wavs/andalusian_match_interrogative-total-yn_Daniel-iba-a-Bolivia.wav,./stim/wavs/argentine_match_interrogative-total-yn_Daniel-iba-a-Bolivia.wav,./stim/wavs/castilian_match_interrogative-total-yn_Daniel-iba-a-Bolivia.wav,./stim/wavs/chilean_match_interrogative-total-yn_Daniel-iba-a-Bolivia.wav,./stim/wavs/cuban_match_interrogative-total-yn_Daniel-iba-a-Bolivia.wav,./stim/wavs/mexican_match_interrogative-total-yn_Daniel-iba-a-Bolivia.wav,./stim/wavs/peruvian_match_interrogative-total-yn_Daniel-iba-a-Bolivia.wav,./stim/wavs/puertorican_match_interrogative-total-yn_Daniel-iba-a-Bolivia.wav,,,,,,,,,,,,,,,,,,,,,,,,,,,,,,,,,,,,,,,,,,,,,,,,,,,,,,,,
,,,,,,,60439d78a013a237855f2ac8,6057c54e64b0b4e5c128b4f9,605807d45e746ac201e09a3b,Spain,East coast,13 or older,no,2021-03-21_22h59.08.184,empathy_intonation_perc,2020.2.10,Win32,60,,,,,,,,,,1,castilian,1,1,1.25322,0,33,33,21,1,22,./stim/wavs/andalusian_match_interrogative-partial-wh_Por-que-ama-la-navidad.wav,./stim/wavs/argentine_match_interrogative-partial-wh_Por-que-ama-la-navidad.wav,./stim/wavs/castilian_match_interrogative-partial-wh_Por-que-ama-la-navidad.wav,./stim/wavs/chilean_match_interrogative-partial-wh_Por-que-ama-la-navidad.wav,./stim/wavs/cuban_match_interrogative-partial-wh_Por-que-ama-la-navidad.wav,./stim/wavs/mexican_match_interrogative-partial-wh_Por-que-ama-la-navidad.wav,./stim/wavs/peruvian_match_interrogative-partial-wh_Por-que-ama-la-navidad.wav,./stim/wavs/puertorican_match_interrogative-partial-wh_Por-que-ama-la-navidad.wav,,,,,,,,,,,,,,,,,,,,,,,,,,,,,,,,,,,,,,,,,,,,,,,,,,,,,,,,
,,,,,,,60439d78a013a237855f2ac8,6057c54e64b0b4e5c128b4f9,605807d45e746ac201e09a3b,Spain,East coast,13 or older,no,2021-03-21_22h59.08.184,empathy_intonation_perc,2020.2.10,Win32,60,,,,,,,,,,0,peruvian,1,0,2.734985,0,34,34,9,1,10,./stim/wavs/andalusian_match_declarative-narrow-focus_Daniel-iba-a-Bolivia.wav,./stim/wavs/argentine_match_declarative-narrow-focus_Daniel-iba-a-Bolivia.wav,./stim/wavs/castilian_match_declarative-narrow-focus_Daniel-iba-a-Bolivia.wav,./stim/wavs/chilean_match_declarative-narrow-focus_Daniel-iba-a-Bolivia.wav,./stim/wavs/cuban_match_declarative-narrow-focus_Daniel-iba-a-Bolivia.wav,./stim/wavs/mexican_match_declarative-narrow-focus_Daniel-iba-a-Bolivia.wav,./stim/wavs/peruvian_match_declarative-narrow-focus_Daniel-iba-a-Bolivia.wav,./stim/wavs/puertorican_match_declarative-narrow-focus_Daniel-iba-a-Bolivia.wav,,,,,,,,,,,,,,,,,,,,,,,,,,,,,,,,,,,,,,,,,,,,,,,,,,,,,,,,
,,,,,,,60439d78a013a237855f2ac8,6057c54e64b0b4e5c128b4f9,605807d45e746ac201e09a3b,Spain,East coast,13 or older,no,2021-03-21_22h59.08.184,empathy_intonation_perc,2020.2.10,Win32,60,,,,,,,,,,1,andalusian,1,1,2.511745,0,35,35,51,1,52,./stim/wavs/andalusian_mismatch_interrogative-partial-wh_Por-que-desayuna-muy-bien.wav,./stim/wavs/argentine_mismatch_interrogative-partial-wh_Por-que-desayuna-muy-bien.wav,./stim/wavs/castilian_mismatch_interrogative-partial-wh_Por-que-desayuna-muy-bien.wav,./stim/wavs/chilean_mismatch_interrogative-partial-wh_Por-que-desayuna-muy-bien.wav,./stim/wavs/cuban_mismatch_interrogative-partial-wh_Por-que-desayuna-muy-bien.wav,./stim/wavs/mexican_mismatch_interrogative-partial-wh_Por-que-desayuna-muy-bien.wav,./stim/wavs/peruvian_mismatch_interrogative-partial-wh_Por-que-desayuna-muy-bien.wav,./stim/wavs/puertorican_mismatch_interrogative-partial-wh_Por-que-desayuna-muy-bien.wav,,,,,,,,,,,,,,,,,,,,,,,,,,,,,,,,,,,,,,,,,,,,,,,,,,,,,,,,
,,,,,,,60439d78a013a237855f2ac8,6057c54e64b0b4e5c128b4f9,605807d45e746ac201e09a3b,Spain,East coast,13 or older,no,2021-03-21_22h59.08.184,empathy_intonation_perc,2020.2.10,Win32,60,,,,,,,,,,1,peruvian,0,0,5.28109,0,36,36,56,1,57,./stim/wavs/andalusian_mismatch_interrogative-total-yn_El-bebe-comia-muy-bien.wav,./stim/wavs/argentine_mismatch_interrogative-total-yn_El-bebe-comia-muy-bien.wav,./stim/wavs/castilian_mismatch_interrogative-total-yn_El-bebe-comia-muy-bien.wav,./stim/wavs/chilean_mismatch_interrogative-total-yn_El-bebe-comia-muy-bien.wav,./stim/wavs/cuban_mismatch_interrogative-total-yn_El-bebe-comia-muy-bien.wav,./stim/wavs/mexican_mismatch_interrogative-total-yn_El-bebe-comia-muy-bien.wav,./stim/wavs/peruvian_mismatch_interrogative-total-yn_El-bebe-comia-muy-bien.wav,./stim/wavs/puertorican_mismatch_interrogative-total-yn_El-bebe-comia-muy-bien.wav,,,,,,,,,,,,,,,,,,,,,,,,,,,,,,,,,,,,,,,,,,,,,,,,,,,,,,,,
,,,,,,,60439d78a013a237855f2ac8,6057c54e64b0b4e5c128b4f9,605807d45e746ac201e09a3b,Spain,East coast,13 or older,no,2021-03-21_22h59.08.184,empathy_intonation_perc,2020.2.10,Win32,60,,,,,,,,,,0,puertorican,0,1,1.832625,0,37,37,43,1,44,./stim/wavs/andalusian_mismatch_declarative-narrow-focus_La-maestra-vive-en-Paris.wav,./stim/wavs/argentine_mismatch_declarative-narrow-focus_La-maestra-vive-en-Paris.wav,./stim/wavs/castilian_mismatch_declarative-narrow-focus_La-maestra-vive-en-Paris.wav,./stim/wavs/chilean_mismatch_declarative-narrow-focus_La-maestra-vive-en-Paris.wav,./stim/wavs/cuban_mismatch_declarative-narrow-focus_La-maestra-vive-en-Paris.wav,./stim/wavs/mexican_mismatch_declarative-narrow-focus_La-maestra-vive-en-Paris.wav,./stim/wavs/peruvian_mismatch_declarative-narrow-focus_La-maestra-vive-en-Paris.wav,./stim/wavs/puertorican_mismatch_declarative-narrow-focus_La-maestra-vive-en-Paris.wav,,,,,,,,,,,,,,,,,,,,,,,,,,,,,,,,,,,,,,,,,,,,,,,,,,,,,,,,
,,,,,,,60439d78a013a237855f2ac8,6057c54e64b0b4e5c128b4f9,605807d45e746ac201e09a3b,Spain,East coast,13 or older,no,2021-03-21_22h59.08.184,empathy_intonation_perc,2020.2.10,Win32,60,,,,,,,,,,1,castilian,1,1,1.673905,0,38,38,29,1,30,./stim/wavs/andalusian_match_interrogative-total-yn_Maria-bebe-el-vino.wav,./stim/wavs/argentine_match_interrogative-total-yn_Maria-bebe-el-vino.wav,./stim/wavs/castilian_match_interrogative-total-yn_Maria-bebe-el-vino.wav,./stim/wavs/chilean_match_interrogative-total-yn_Maria-bebe-el-vino.wav,./stim/wavs/cuban_match_interrogative-total-yn_Maria-bebe-el-vino.wav,./stim/wavs/mexican_match_interrogative-total-yn_Maria-bebe-el-vino.wav,./stim/wavs/peruvian_match_interrogative-total-yn_Maria-bebe-el-vino.wav,./stim/wavs/puertorican_match_interrogative-total-yn_Maria-bebe-el-vino.wav,,,,,,,,,,,,,,,,,,,,,,,,,,,,,,,,,,,,,,,,,,,,,,,,,,,,,,,,
,,,,,,,60439d78a013a237855f2ac8,6057c54e64b0b4e5c128b4f9,605807d45e746ac201e09a3b,Spain,East coast,13 or older,no,2021-03-21_22h59.08.184,empathy_intonation_perc,2020.2.10,Win32,60,,,,,,,,,,1,argentine,1,1,4.043245,0,39,39,53,1,54,./stim/wavs/andalusian_mismatch_interrogative-partial-wh_Por-que-oia-el-rio.wav,./stim/wavs/argentine_mismatch_interrogative-partial-wh_Por-que-oia-el-rio.wav,./stim/wavs/castilian_mismatch_interrogative-partial-wh_Por-que-oia-el-rio.wav,./stim/wavs/chilean_mismatch_interrogative-partial-wh_Por-que-oia-el-rio.wav,./stim/wavs/cuban_mismatch_interrogative-partial-wh_Por-que-oia-el-rio.wav,./stim/wavs/mexican_mismatch_interrogative-partial-wh_Por-que-oia-el-rio.wav,./stim/wavs/peruvian_mismatch_interrogative-partial-wh_Por-que-oia-el-rio.wav,./stim/wavs/puertorican_mismatch_interrogative-partial-wh_Por-que-oia-el-rio.wav,,,,,,,,,,,,,,,,,,,,,,,,,,,,,,,,,,,,,,,,,,,,,,,,,,,,,,,,
,,,,,,,60439d78a013a237855f2ac8,6057c54e64b0b4e5c128b4f9,605807d45e746ac201e09a3b,Spain,East coast,13 or older,no,2021-03-21_22h59.08.184,empathy_intonation_perc,2020.2.10,Win32,60,,,,,,,,,,1,peruvian,1,1,1.71617,0,40,40,52,1,53,./stim/wavs/andalusian_mismatch_interrogative-partial-wh_Por-que-odiaba-la-lluvia.wav,./stim/wavs/argentine_mismatch_interrogative-partial-wh_Por-que-odiaba-la-lluvia.wav,./stim/wavs/castilian_mismatch_interrogative-partial-wh_Por-que-odiaba-la-lluvia.wav,./stim/wavs/chilean_mismatch_interrogative-partial-wh_Por-que-odiaba-la-lluvia.wav,./stim/wavs/cuban_mismatch_interrogative-partial-wh_Por-que-odiaba-la-lluvia.wav,./stim/wavs/mexican_mismatch_interrogative-partial-wh_Por-que-odiaba-la-lluvia.wav,./stim/wavs/peruvian_mismatch_interrogative-partial-wh_Por-que-odiaba-la-lluvia.wav,./stim/wavs/puertorican_mismatch_interrogative-partial-wh_Por-que-odiaba-la-lluvia.wav,,,,,,,,,,,,,,,,,,,,,,,,,,,,,,,,,,,,,,,,,,,,,,,,,,,,,,,,
,,,,,,,60439d78a013a237855f2ac8,6057c54e64b0b4e5c128b4f9,605807d45e746ac201e09a3b,Spain,East coast,13 or older,no,2021-03-21_22h59.08.184,empathy_intonation_perc,2020.2.10,Win32,60,,,,,,,,,,0,puertorican,0,1,1.577765,0,41,41,39,1,40,./stim/wavs/andalusian_mismatch_declarative-broad-focus_Mi-tia-odia-la-lluvia.wav,./stim/wavs/argentine_mismatch_declarative-broad-focus_Mi-tia-odia-la-lluvia.wav,./stim/wavs/castilian_mismatch_declarative-broad-focus_Mi-tia-odia-la-lluvia.wav,./stim/wavs/chilean_mismatch_declarative-broad-focus_Mi-tia-odia-la-lluvia.wav,./stim/wavs/cuban_mismatch_declarative-broad-focus_Mi-tia-odia-la-lluvia.wav,./stim/wavs/mexican_mismatch_declarative-broad-focus_Mi-tia-odia-la-lluvia.wav,./stim/wavs/peruvian_mismatch_declarative-broad-focus_Mi-tia-odia-la-lluvia.wav,./stim/wavs/puertorican_mismatch_declarative-broad-focus_Mi-tia-odia-la-lluvia.wav,,,,,,,,,,,,,,,,,,,,,,,,,,,,,,,,,,,,,,,,,,,,,,,,,,,,,,,,
,,,,,,,60439d78a013a237855f2ac8,6057c54e64b0b4e5c128b4f9,605807d45e746ac201e09a3b,Spain,East coast,13 or older,no,2021-03-21_22h59.08.184,empathy_intonation_perc,2020.2.10,Win32,60,,,,,,,,,,0,chilean,0,1,1.525105,0,42,42,0,1,1,./stim/wavs/andalusian_match_declarative-broad-focus_Ana-lleva-el-abrigo.wav,./stim/wavs/argentine_match_declarative-broad-focus_Ana-lleva-el-abrigo.wav,./stim/wavs/castilian_match_declarative-broad-focus_Ana-lleva-el-abrigo.wav,./stim/wavs/chilean_match_declarative-broad-focus_Ana-lleva-el-abrigo.wav,./stim/wavs/cuban_match_declarative-broad-focus_Ana-lleva-el-abrigo.wav,./stim/wavs/mexican_match_declarative-broad-focus_Ana-lleva-el-abrigo.wav,./stim/wavs/peruvian_match_declarative-broad-focus_Ana-lleva-el-abrigo.wav,./stim/wavs/puertorican_match_declarative-broad-focus_Ana-lleva-el-abrigo.wav,,,,,,,,,,,,,,,,,,,,,,,,,,,,,,,,,,,,,,,,,,,,,,,,,,,,,,,,
,,,,,,,60439d78a013a237855f2ac8,6057c54e64b0b4e5c128b4f9,605807d45e746ac201e09a3b,Spain,East coast,13 or older,no,2021-03-21_22h59.08.184,empathy_intonation_perc,2020.2.10,Win32,60,,,,,,,,,,1,cuban,0,0,3.63184,0,43,43,28,1,29,./stim/wavs/andalusian_match_interrogative-total-yn_Manuela-vende-el-carro.wav,./stim/wavs/argentine_match_interrogative-total-yn_Manuela-vende-el-carro.wav,./stim/wavs/castilian_match_interrogative-total-yn_Manuela-vende-el-carro.wav,./stim/wavs/chilean_match_interrogative-total-yn_Manuela-vende-el-carro.wav,./stim/wavs/cuban_match_interrogative-total-yn_Manuela-vende-el-carro.wav,./stim/wavs/mexican_match_interrogative-total-yn_Manuela-vende-el-carro.wav,./stim/wavs/peruvian_match_interrogative-total-yn_Manuela-vende-el-carro.wav,./stim/wavs/puertorican_match_interrogative-total-yn_Manuela-vende-el-carro.wav,,,,,,,,,,,,,,,,,,,,,,,,,,,,,,,,,,,,,,,,,,,,,,,,,,,,,,,,
,,,,,,,60439d78a013a237855f2ac8,6057c54e64b0b4e5c128b4f9,605807d45e746ac201e09a3b,Spain,East coast,13 or older,no,2021-03-21_22h59.08.184,empathy_intonation_perc,2020.2.10,Win32,60,,,,,,,,,,1,mexican,1,1,1.51574,0,44,44,24,1,25,./stim/wavs/andalusian_match_interrogative-total-yn_Ana-lleva-el-abrigo.wav,./stim/wavs/argentine_match_interrogative-total-yn_Ana-lleva-el-abrigo.wav,./stim/wavs/castilian_match_interrogative-total-yn_Ana-lleva-el-abrigo.wav,./stim/wavs/chilean_match_interrogative-total-yn_Ana-lleva-el-abrigo.wav,./stim/wavs/cuban_match_interrogative-total-yn_Ana-lleva-el-abrigo.wav,./stim/wavs/mexican_match_interrogative-total-yn_Ana-lleva-el-abrigo.wav,./stim/wavs/peruvian_match_interrogative-total-yn_Ana-lleva-el-abrigo.wav,./stim/wavs/puertorican_match_interrogative-total-yn_Ana-lleva-el-abrigo.wav,,,,,,,,,,,,,,,,,,,,,,,,,,,,,,,,,,,,,,,,,,,,,,,,,,,,,,,,
,,,,,,,60439d78a013a237855f2ac8,6057c54e64b0b4e5c128b4f9,605807d45e746ac201e09a3b,Spain,East coast,13 or older,no,2021-03-21_22h59.08.184,empathy_intonation_perc,2020.2.10,Win32,60,,,,,,,,,,0,castilian,0,1,1.71561,0,45,45,5,1,6,./stim/wavs/andalusian_match_declarative-broad-focus_Maria-bebe-el-vino.wav,./stim/wavs/argentine_match_declarative-broad-focus_Maria-bebe-el-vino.wav,./stim/wavs/castilian_match_declarative-broad-focus_Maria-bebe-el-vino.wav,./stim/wavs/chilean_match_declarative-broad-focus_Maria-bebe-el-vino.wav,./stim/wavs/cuban_match_declarative-broad-focus_Maria-bebe-el-vino.wav,./stim/wavs/mexican_match_declarative-broad-focus_Maria-bebe-el-vino.wav,./stim/wavs/peruvian_match_declarative-broad-focus_Maria-bebe-el-vino.wav,./stim/wavs/puertorican_match_declarative-broad-focus_Maria-bebe-el-vino.wav,,,,,,,,,,,,,,,,,,,,,,,,,,,,,,,,,,,,,,,,,,,,,,,,,,,,,,,,
,,,,,,,60439d78a013a237855f2ac8,6057c54e64b0b4e5c128b4f9,605807d45e746ac201e09a3b,Spain,East coast,13 or older,no,2021-03-21_22h59.08.184,empathy_intonation_perc,2020.2.10,Win32,60,,,,,,,,,,0,andalusian,0,1,1.82779,0,46,46,45,1,46,./stim/wavs/andalusian_mismatch_declarative-narrow-focus_Mi-madre-come-la-fruta.wav,./stim/wavs/argentine_mismatch_declarative-narrow-focus_Mi-madre-come-la-fruta.wav,./stim/wavs/castilian_mismatch_declarative-narrow-focus_Mi-madre-come-la-fruta.wav,./stim/wavs/chilean_mismatch_declarative-narrow-focus_Mi-madre-come-la-fruta.wav,./stim/wavs/cuban_mismatch_declarative-narrow-focus_Mi-madre-come-la-fruta.wav,./stim/wavs/mexican_mismatch_declarative-narrow-focus_Mi-madre-come-la-fruta.wav,./stim/wavs/peruvian_mismatch_declarative-narrow-focus_Mi-madre-come-la-fruta.wav,./stim/wavs/puertorican_mismatch_declarative-narrow-focus_Mi-madre-come-la-fruta.wav,,,,,,,,,,,,,,,,,,,,,,,,,,,,,,,,,,,,,,,,,,,,,,,,,,,,,,,,
,,,,,,,60439d78a013a237855f2ac8,6057c54e64b0b4e5c128b4f9,605807d45e746ac201e09a3b,Spain,East coast,13 or older,no,2021-03-21_22h59.08.184,empathy_intonation_perc,2020.2.10,Win32,60,,,,,,,,,,0,argentine,0,1,2.36031,0,47,47,2,1,3,./stim/wavs/andalusian_match_declarative-broad-focus_David-leia-el-libro.wav,./stim/wavs/argentine_match_declarative-broad-focus_David-leia-el-libro.wav,./stim/wavs/castilian_match_declarative-broad-focus_David-leia-el-libro.wav,./stim/wavs/chilean_match_declarative-broad-focus_David-leia-el-libro.wav,./stim/wavs/cuban_match_declarative-broad-focus_David-leia-el-libro.wav,./stim/wavs/mexican_match_declarative-broad-focus_David-leia-el-libro.wav,./stim/wavs/peruvian_match_declarative-broad-focus_David-leia-el-libro.wav,./stim/wavs/puertorican_match_declarative-broad-focus_David-leia-el-libro.wav,,,,,,,,,,,,,,,,,,,,,,,,,,,,,,,,,,,,,,,,,,,,,,,,,,,,,,,,
,,,,,,,60439d78a013a237855f2ac8,6057c54e64b0b4e5c128b4f9,605807d45e746ac201e09a3b,Spain,East coast,13 or older,no,2021-03-21_22h59.08.184,empathy_intonation_perc,2020.2.10,Win32,60,,,,,,,,,,0,chilean,0,1,1.59179,0,48,48,46,1,47,./stim/wavs/andalusian_mismatch_declarative-narrow-focus_Mi-novio-viene-del-lago.wav,./stim/wavs/argentine_mismatch_declarative-narrow-focus_Mi-novio-viene-del-lago.wav,./stim/wavs/castilian_mismatch_declarative-narrow-focus_Mi-novio-viene-del-lago.wav,./stim/wavs/chilean_mismatch_declarative-narrow-focus_Mi-novio-viene-del-lago.wav,./stim/wavs/cuban_mismatch_declarative-narrow-focus_Mi-novio-viene-del-lago.wav,./stim/wavs/mexican_mismatch_declarative-narrow-focus_Mi-novio-viene-del-lago.wav,./stim/wavs/peruvian_mismatch_declarative-narrow-focus_Mi-novio-viene-del-lago.wav,./stim/wavs/puertorican_mismatch_declarative-narrow-focus_Mi-novio-viene-del-lago.wav,,,,,,,,,,,,,,,,,,,,,,,,,,,,,,,,,,,,,,,,,,,,,,,,,,,,,,,,
,,,,,,,60439d78a013a237855f2ac8,6057c54e64b0b4e5c128b4f9,605807d45e746ac201e09a3b,Spain,East coast,13 or older,no,2021-03-21_22h59.08.184,empathy_intonation_perc,2020.2.10,Win32,60,,,,,,,,,,1,cuban,0,0,1.557615,0,49,49,49,1,50,./stim/wavs/andalusian_mismatch_interrogative-partial-wh_Cuando-lavaba-el-plato.wav,./stim/wavs/argentine_mismatch_interrogative-partial-wh_Cuando-lavaba-el-plato.wav,./stim/wavs/castilian_mismatch_interrogative-partial-wh_Cuando-lavaba-el-plato.wav,./stim/wavs/chilean_mismatch_interrogative-partial-wh_Cuando-lavaba-el-plato.wav,./stim/wavs/cuban_mismatch_interrogative-partial-wh_Cuando-lavaba-el-plato.wav,./stim/wavs/mexican_mismatch_interrogative-partial-wh_Cuando-lavaba-el-plato.wav,./stim/wavs/peruvian_mismatch_interrogative-partial-wh_Cuando-lavaba-el-plato.wav,./stim/wavs/puertorican_mismatch_interrogative-partial-wh_Cuando-lavaba-el-plato.wav,,,,,,,,,,,,,,,,,,,,,,,,,,,,,,,,,,,,,,,,,,,,,,,,,,,,,,,,
,,,,,,,60439d78a013a237855f2ac8,6057c54e64b0b4e5c128b4f9,605807d45e746ac201e09a3b,Spain,East coast,13 or older,no,2021-03-21_22h59.08.184,empathy_intonation_perc,2020.2.10,Win32,60,,,,,,,,,,1,castilian,1,1,1.498815,0,50,50,17,1,18,./stim/wavs/andalusian_match_interrogative-partial-wh_Cuando-leia-el-libro.wav,./stim/wavs/argentine_match_interrogative-partial-wh_Cuando-leia-el-libro.wav,./stim/wavs/castilian_match_interrogative-partial-wh_Cuando-leia-el-libro.wav,./stim/wavs/chilean_match_interrogative-partial-wh_Cuando-leia-el-libro.wav,./stim/wavs/cuban_match_interrogative-partial-wh_Cuando-leia-el-libro.wav,./stim/wavs/mexican_match_interrogative-partial-wh_Cuando-leia-el-libro.wav,./stim/wavs/peruvian_match_interrogative-partial-wh_Cuando-leia-el-libro.wav,./stim/wavs/puertorican_match_interrogative-partial-wh_Cuando-leia-el-libro.wav,,,,,,,,,,,,,,,,,,,,,,,,,,,,,,,,,,,,,,,,,,,,,,,,,,,,,,,,
,,,,,,,60439d78a013a237855f2ac8,6057c54e64b0b4e5c128b4f9,605807d45e746ac201e09a3b,Spain,East coast,13 or older,no,2021-03-21_22h59.08.184,empathy_intonation_perc,2020.2.10,Win32,60,,,,,,,,,,0,puertorican,0,1,1.58764,0,51,51,41,1,42,./stim/wavs/andalusian_mismatch_declarative-narrow-focus_El-hombre-mira-la-luna.wav,./stim/wavs/argentine_mismatch_declarative-narrow-focus_El-hombre-mira-la-luna.wav,./stim/wavs/castilian_mismatch_declarative-narrow-focus_El-hombre-mira-la-luna.wav,./stim/wavs/chilean_mismatch_declarative-narrow-focus_El-hombre-mira-la-luna.wav,./stim/wavs/cuban_mismatch_declarative-narrow-focus_El-hombre-mira-la-luna.wav,./stim/wavs/mexican_mismatch_declarative-narrow-focus_El-hombre-mira-la-luna.wav,./stim/wavs/peruvian_mismatch_declarative-narrow-focus_El-hombre-mira-la-luna.wav,./stim/wavs/puertorican_mismatch_declarative-narrow-focus_El-hombre-mira-la-luna.wav,,,,,,,,,,,,,,,,,,,,,,,,,,,,,,,,,,,,,,,,,,,,,,,,,,,,,,,,
,,,,,,,60439d78a013a237855f2ac8,6057c54e64b0b4e5c128b4f9,605807d45e746ac201e09a3b,Spain,East coast,13 or older,no,2021-03-21_22h59.08.184,empathy_intonation_perc,2020.2.10,Win32,60,,,,,,,,,,1,chilean,1,1,1.384775,0,52,52,18,1,19,./stim/wavs/andalusian_match_interrogative-partial-wh_Cuando-lleva-el-abrigo.wav,./stim/wavs/argentine_match_interrogative-partial-wh_Cuando-lleva-el-abrigo.wav,./stim/wavs/castilian_match_interrogative-partial-wh_Cuando-lleva-el-abrigo.wav,./stim/wavs/chilean_match_interrogative-partial-wh_Cuando-lleva-el-abrigo.wav,./stim/wavs/cuban_match_interrogative-partial-wh_Cuando-lleva-el-abrigo.wav,./stim/wavs/mexican_match_interrogative-partial-wh_Cuando-lleva-el-abrigo.wav,./stim/wavs/peruvian_match_interrogative-partial-wh_Cuando-lleva-el-abrigo.wav,./stim/wavs/puertorican_match_interrogative-partial-wh_Cuando-lleva-el-abrigo.wav,,,,,,,,,,,,,,,,,,,,,,,,,,,,,,,,,,,,,,,,,,,,,,,,,,,,,,,,
,,,,,,,60439d78a013a237855f2ac8,6057c54e64b0b4e5c128b4f9,605807d45e746ac201e09a3b,Spain,East coast,13 or older,no,2021-03-21_22h59.08.184,empathy_intonation_perc,2020.2.10,Win32,60,,,,,,,,,,1,mexican,1,1,1.199215,0,53,53,54,1,55,./stim/wavs/andalusian_mismatch_interrogative-partial-wh_Por-que-venia-del-lago.wav,./stim/wavs/argentine_mismatch_interrogative-partial-wh_Por-que-venia-del-lago.wav,./stim/wavs/castilian_mismatch_interrogative-partial-wh_Por-que-venia-del-lago.wav,./stim/wavs/chilean_mismatch_interrogative-partial-wh_Por-que-venia-del-lago.wav,./stim/wavs/cuban_mismatch_interrogative-partial-wh_Por-que-venia-del-lago.wav,./stim/wavs/mexican_mismatch_interrogative-partial-wh_Por-que-venia-del-lago.wav,./stim/wavs/peruvian_mismatch_interrogative-partial-wh_Por-que-venia-del-lago.wav,./stim/wavs/puertorican_mismatch_interrogative-partial-wh_Por-que-venia-del-lago.wav,,,,,,,,,,,,,,,,,,,,,,,,,,,,,,,,,,,,,,,,,,,,,,,,,,,,,,,,
,,,,,,,60439d78a013a237855f2ac8,6057c54e64b0b4e5c128b4f9,605807d45e746ac201e09a3b,Spain,East coast,13 or older,no,2021-03-21_22h59.08.184,empathy_intonation_perc,2020.2.10,Win32,60,,,,,,,,,,1,argentine,1,1,1.6915,0,54,54,63,1,64,./stim/wavs/andalusian_mismatch_interrogative-total-yn_Mi-tia-odia-la-lluvia.wav,./stim/wavs/argentine_mismatch_interrogative-total-yn_Mi-tia-odia-la-lluvia.wav,./stim/wavs/castilian_mismatch_interrogative-total-yn_Mi-tia-odia-la-lluvia.wav,./stim/wavs/chilean_mismatch_interrogative-total-yn_Mi-tia-odia-la-lluvia.wav,./stim/wavs/cuban_mismatch_interrogative-total-yn_Mi-tia-odia-la-lluvia.wav,./stim/wavs/mexican_mismatch_interrogative-total-yn_Mi-tia-odia-la-lluvia.wav,./stim/wavs/peruvian_mismatch_interrogative-total-yn_Mi-tia-odia-la-lluvia.wav,./stim/wavs/puertorican_mismatch_interrogative-total-yn_Mi-tia-odia-la-lluvia.wav,,,,,,,,,,,,,,,,,,,,,,,,,,,,,,,,,,,,,,,,,,,,,,,,,,,,,,,,
,,,,,,,60439d78a013a237855f2ac8,6057c54e64b0b4e5c128b4f9,605807d45e746ac201e09a3b,Spain,East coast,13 or older,no,2021-03-21_22h59.08.184,empathy_intonation_perc,2020.2.10,Win32,60,,,,,,,,,,0,peruvian,0,1,1.53209,0,55,55,37,1,38,./stim/wavs/andalusian_mismatch_declarative-broad-focus_Mi-madre-come-la-fruta.wav,./stim/wavs/argentine_mismatch_declarative-broad-focus_Mi-madre-come-la-fruta.wav,./stim/wavs/castilian_mismatch_declarative-broad-focus_Mi-madre-come-la-fruta.wav,./stim/wavs/chilean_mismatch_declarative-broad-focus_Mi-madre-come-la-fruta.wav,./stim/wavs/cuban_mismatch_declarative-broad-focus_Mi-madre-come-la-fruta.wav,./stim/wavs/mexican_mismatch_declarative-broad-focus_Mi-madre-come-la-fruta.wav,./stim/wavs/peruvian_mismatch_declarative-broad-focus_Mi-madre-come-la-fruta.wav,./stim/wavs/puertorican_mismatch_declarative-broad-focus_Mi-madre-come-la-fruta.wav,,,,,,,,,,,,,,,,,,,,,,,,,,,,,,,,,,,,,,,,,,,,,,,,,,,,,,,,
,,,,,,,60439d78a013a237855f2ac8,6057c54e64b0b4e5c128b4f9,605807d45e746ac201e09a3b,Spain,East coast,13 or older,no,2021-03-21_22h59.08.184,empathy_intonation_perc,2020.2.10,Win32,60,,,,,,,,,,1,cuban,1,1,3.86723,0,56,56,22,1,23,./stim/wavs/andalusian_match_interrogative-partial-wh_Por-que-hablaba-del-agua.wav,./stim/wavs/argentine_match_interrogative-partial-wh_Por-que-hablaba-del-agua.wav,./stim/wavs/castilian_match_interrogative-partial-wh_Por-que-hablaba-del-agua.wav,./stim/wavs/chilean_match_interrogative-partial-wh_Por-que-hablaba-del-agua.wav,./stim/wavs/cuban_match_interrogative-partial-wh_Por-que-hablaba-del-agua.wav,./stim/wavs/mexican_match_interrogative-partial-wh_Por-que-hablaba-del-agua.wav,./stim/wavs/peruvian_match_interrogative-partial-wh_Por-que-hablaba-del-agua.wav,./stim/wavs/puertorican_match_interrogative-partial-wh_Por-que-hablaba-del-agua.wav,,,,,,,,,,,,,,,,,,,,,,,,,,,,,,,,,,,,,,,,,,,,,,,,,,,,,,,,
,,,,,,,60439d78a013a237855f2ac8,6057c54e64b0b4e5c128b4f9,605807d45e746ac201e09a3b,Spain,East coast,13 or older,no,2021-03-21_22h59.08.184,empathy_intonation_perc,2020.2.10,Win32,60,,,,,,,,,,0,andalusian,0,1,1.89872,0,57,57,36,1,37,./stim/wavs/andalusian_mismatch_declarative-broad-focus_La-nina-lava-el-plato.wav,./stim/wavs/argentine_mismatch_declarative-broad-focus_La-nina-lava-el-plato.wav,./stim/wavs/castilian_mismatch_declarative-broad-focus_La-nina-lava-el-plato.wav,./stim/wavs/chilean_mismatch_declarative-broad-focus_La-nina-lava-el-plato.wav,./stim/wavs/cuban_mismatch_declarative-broad-focus_La-nina-lava-el-plato.wav,./stim/wavs/mexican_mismatch_declarative-broad-focus_La-nina-lava-el-plato.wav,./stim/wavs/peruvian_mismatch_declarative-broad-focus_La-nina-lava-el-plato.wav,./stim/wavs/puertorican_mismatch_declarative-broad-focus_La-nina-lava-el-plato.wav,,,,,,,,,,,,,,,,,,,,,,,,,,,,,,,,,,,,,,,,,,,,,,,,,,,,,,,,
,,,,,,,60439d78a013a237855f2ac8,6057c54e64b0b4e5c128b4f9,605807d45e746ac201e09a3b,Spain,East coast,13 or older,no,2021-03-21_22h59.08.184,empathy_intonation_perc,2020.2.10,Win32,60,,,,,,,,,,0,castilian,0,1,2.057795,0,58,58,38,1,39,./stim/wavs/andalusian_mismatch_declarative-broad-focus_Mi-novio-viene-del-lago.wav,./stim/wavs/argentine_mismatch_declarative-broad-focus_Mi-novio-viene-del-lago.wav,./stim/wavs/castilian_mismatch_declarative-broad-focus_Mi-novio-viene-del-lago.wav,./stim/wavs/chilean_mismatch_declarative-broad-focus_Mi-novio-viene-del-lago.wav,./stim/wavs/cuban_mismatch_declarative-broad-focus_Mi-novio-viene-del-lago.wav,./stim/wavs/mexican_mismatch_declarative-broad-focus_Mi-novio-viene-del-lago.wav,./stim/wavs/peruvian_mismatch_declarative-broad-focus_Mi-novio-viene-del-lago.wav,./stim/wavs/puertorican_mismatch_declarative-broad-focus_Mi-novio-viene-del-lago.wav,,,,,,,,,,,,,,,,,,,,,,,,,,,,,,,,,,,,,,,,,,,,,,,,,,,,,,,,
,,,,,,,60439d78a013a237855f2ac8,6057c54e64b0b4e5c128b4f9,605807d45e746ac201e09a3b,Spain,East coast,13 or older,no,2021-03-21_22h59.08.184,empathy_intonation_perc,2020.2.10,Win32,60,,,,,,,,,,0,puertorican,0,1,1.548585,0,59,59,12,1,13,./stim/wavs/andalusian_match_declarative-narrow-focus_Manuela-vende-el-carro.wav,./stim/wavs/argentine_match_declarative-narrow-focus_Manuela-vende-el-carro.wav,./stim/wavs/castilian_match_declarative-narrow-focus_Manuela-vende-el-carro.wav,./stim/wavs/chilean_match_declarative-narrow-focus_Manuela-vende-el-carro.wav,./stim/wavs/cuban_match_declarative-narrow-focus_Manuela-vende-el-carro.wav,./stim/wavs/mexican_match_declarative-narrow-focus_Manuela-vende-el-carro.wav,./stim/wavs/peruvian_match_declarative-narrow-focus_Manuela-vende-el-carro.wav,./stim/wavs/puertorican_match_declarative-narrow-focus_Manuela-vende-el-carro.wav,,,,,,,,,,,,,,,,,,,,,,,,,,,,,,,,,,,,,,,,,,,,,,,,,,,,,,,,
,,,,,,,60439d78a013a237855f2ac8,6057c54e64b0b4e5c128b4f9,605807d45e746ac201e09a3b,Spain,East coast,13 or older,no,2021-03-21_22h59.08.184,empathy_intonation_perc,2020.2.10,Win32,60,,,,,,,,,,0,puertorican,0,1,1.815285,0,60,60,32,1,33,./stim/wavs/andalusian_mismatch_declarative-broad-focus_El-bebe-comia-muy-bien.wav,./stim/wavs/argentine_mismatch_declarative-broad-focus_El-bebe-comia-muy-bien.wav,./stim/wavs/castilian_mismatch_declarative-broad-focus_El-bebe-comia-muy-bien.wav,./stim/wavs/chilean_mismatch_declarative-broad-focus_El-bebe-comia-muy-bien.wav,./stim/wavs/cuban_mismatch_declarative-broad-focus_El-bebe-comia-muy-bien.wav,./stim/wavs/mexican_mismatch_declarative-broad-focus_El-bebe-comia-muy-bien.wav,./stim/wavs/peruvian_mismatch_declarative-broad-focus_El-bebe-comia-muy-bien.wav,./stim/wavs/puertorican_mismatch_declarative-broad-focus_El-bebe-comia-muy-bien.wav,,,,,,,,,,,,,,,,,,,,,,,,,,,,,,,,,,,,,,,,,,,,,,,,,,,,,,,,
,,,,,,,60439d78a013a237855f2ac8,6057c54e64b0b4e5c128b4f9,605807d45e746ac201e09a3b,Spain,East coast,13 or older,no,2021-03-21_22h59.08.184,empathy_intonation_perc,2020.2.10,Win32,60,,,,,,,,,,0,andalusian,0,1,2.631445,0,61,61,1,1,2,./stim/wavs/andalusian_match_declarative-broad-focus_Daniel-iba-a-Bolivia.wav,./stim/wavs/argentine_match_declarative-broad-focus_Daniel-iba-a-Bolivia.wav,./stim/wavs/castilian_match_declarative-broad-focus_Daniel-iba-a-Bolivia.wav,./stim/wavs/chilean_match_declarative-broad-focus_Daniel-iba-a-Bolivia.wav,./stim/wavs/cuban_match_declarative-broad-focus_Daniel-iba-a-Bolivia.wav,./stim/wavs/mexican_match_declarative-broad-focus_Daniel-iba-a-Bolivia.wav,./stim/wavs/peruvian_match_declarative-broad-focus_Daniel-iba-a-Bolivia.wav,./stim/wavs/puertorican_match_declarative-broad-focus_Daniel-iba-a-Bolivia.wav,,,,,,,,,,,,,,,,,,,,,,,,,,,,,,,,,,,,,,,,,,,,,,,,,,,,,,,,
,,,,,,,60439d78a013a237855f2ac8,6057c54e64b0b4e5c128b4f9,605807d45e746ac201e09a3b,Spain,East coast,13 or older,no,2021-03-21_22h59.08.184,empathy_intonation_perc,2020.2.10,Win32,60,,,,,,,,,,1,castilian,1,1,1.403295,0,62,62,50,1,51,./stim/wavs/andalusian_mismatch_interrogative-partial-wh_Cuando-miraba-la-luna.wav,./stim/wavs/argentine_mismatch_interrogative-partial-wh_Cuando-miraba-la-luna.wav,./stim/wavs/castilian_mismatch_interrogative-partial-wh_Cuando-miraba-la-luna.wav,./stim/wavs/chilean_mismatch_interrogative-partial-wh_Cuando-miraba-la-luna.wav,./stim/wavs/cuban_mismatch_interrogative-partial-wh_Cuando-miraba-la-luna.wav,./stim/wavs/mexican_mismatch_interrogative-partial-wh_Cuando-miraba-la-luna.wav,./stim/wavs/peruvian_mismatch_interrogative-partial-wh_Cuando-miraba-la-luna.wav,./stim/wavs/puertorican_mismatch_interrogative-partial-wh_Cuando-miraba-la-luna.wav,,,,,,,,,,,,,,,,,,,,,,,,,,,,,,,,,,,,,,,,,,,,,,,,,,,,,,,,
,,,,,,,60439d78a013a237855f2ac8,6057c54e64b0b4e5c128b4f9,605807d45e746ac201e09a3b,Spain,East coast,13 or older,no,2021-03-21_22h59.08.184,empathy_intonation_perc,2020.2.10,Win32,60,,,,,,,,,,0,puertorican,0,1,1.4728,0,63,63,7,1,8,./stim/wavs/andalusian_match_declarative-broad-focus_Marta-abre-el-regalo.wav,./stim/wavs/argentine_match_declarative-broad-focus_Marta-abre-el-regalo.wav,./stim/wavs/castilian_match_declarative-broad-focus_Marta-abre-el-regalo.wav,./stim/wavs/chilean_match_declarative-broad-focus_Marta-abre-el-regalo.wav,./stim/wavs/cuban_match_declarative-broad-focus_Marta-abre-el-regalo.wav,./stim/wavs/mexican_match_declarative-broad-focus_Marta-abre-el-regalo.wav,./stim/wavs/peruvian_match_declarative-broad-focus_Marta-abre-el-regalo.wav,./stim/wavs/puertorican_match_declarative-broad-focus_Marta-abre-el-regalo.wav,,,,,,,,,,,,,,,,,,,,,,,,,,,,,,,,,,,,,,,,,,,,,,,,,,,,,,,,
,,,,,,,60439d78a013a237855f2ac8,6057c54e64b0b4e5c128b4f9,605807d45e746ac201e09a3b,Spain,East coast,13 or older,no,2021-03-21_22h59.08.184,empathy_intonation_perc,2020.2.10,Win32,60,,,,,,,,,,,,,,,,,,,,,,,,,,,,,h,1,5.51169,0,0,0,0,1,,,,,,,,,,,,,,,,,,,,,,,,,,,,,,,,,,,,,,,,,,,,,,,,
,,,,,"Great! Now we will move on. The next task consists of about 60 trials, in each of which you will see a string of letters. 
  
  Your task is to decide whether this is a real Spanish word or not.",(press the spacebar to continue),60439d78a013a237855f2ac8,6057c54e64b0b4e5c128b4f9,605807d45e746ac201e09a3b,Spain,East coast,13 or older,no,2021-03-21_22h59.08.184,empathy_intonation_perc,2020.2.10,Win32,60,,,,,,,,,,,,,,,,,,,,,,,,,,,,,,,,,,,,,0,0,0,0,1,,,,,,,,,,,,,,,,,,,,,,,,,,,,,,,,,,,,,,,,,,,
,,,,,"If you think it is an existing Spanish word, you type '1' (for 'REAL'), and if you think it is not an existing Spanish word, you type '0' (for 'FAKE').",(press the spacebar to continue),60439d78a013a237855f2ac8,6057c54e64b0b4e5c128b4f9,605807d45e746ac201e09a3b,Spain,East coast,13 or older,no,2021-03-21_22h59.08.184,empathy_intonation_perc,2020.2.10,Win32,60,,,,,,,,,,,,,,,,,,,,,,,,,,,,,,,,,,,,,0,1,1,1,1,,,,,,,,,,,,,,,,,,,,,,,,,,,,,,,,,,,,,,,,,,,
,,,,,"If you are sure that the word exists, even though you dont know its exact meaning, you may still respond '1' (REAL). 
  
  But if you are not sure if it is an existing word, you should respond '0' (FAKE).
  
  Let's do a practice round...",(press the spacebar to continue),60439d78a013a237855f2ac8,6057c54e64b0b4e5c128b4f9,605807d45e746ac201e09a3b,Spain,East coast,13 or older,no,2021-03-21_22h59.08.184,empathy_intonation_perc,2020.2.10,Win32,60,,,,,,,,,,,,,,,,,,,,,,,,,,,,,,,,,,,,,0,2,2,2,1,,,,,,,,,,,,,,,,,,,,,,,,,,,,,,,,,,,,,,,,,,,
,,,,,,,60439d78a013a237855f2ac8,6057c54e64b0b4e5c128b4f9,605807d45e746ac201e09a3b,Spain,East coast,13 or older,no,2021-03-21_22h59.08.184,empathy_intonation_perc,2020.2.10,Win32,60,,,,,,,,,,0,,,,,,,,,,,,,,,,,,,,,,,,,,,,,,,,0,1,3.13011,0,0,0,0,1,0,depiste,REAL,FAKE,,,,,,,,,,,,,,,,,,,,,,,,,,,,,,,
,,,,,,,60439d78a013a237855f2ac8,6057c54e64b0b4e5c128b4f9,605807d45e746ac201e09a3b,Spain,East coast,13 or older,no,2021-03-21_22h59.08.184,empathy_intonation_perc,2020.2.10,Win32,60,,,,,,,,,,1,,,,,,,,,,,,,,,,,,,,,,,,,,,,,,,,1,1,0.63055,0,1,1,1,1,0,s,REAL,FAKE,,,,,,,,,,,,,,,,,,,,,,,,,,,,,,,
,,,,,,,60439d78a013a237855f2ac8,6057c54e64b0b4e5c128b4f9,605807d45e746ac201e09a3b,Spain,East coast,13 or older,no,2021-03-21_22h59.08.184,empathy_intonation_perc,2020.2.10,Win32,60,,,,,,,,,,0,,,,,,,,,,,,,,,,,,,,,,,,,,,,,,,,1,0,1.031605,0,2,2,2,1,0,con,REAL,FAKE,,,,,,,,,,,,,,,,,,,,,,,,,,,,,,,
,,,,,,,60439d78a013a237855f2ac8,6057c54e64b0b4e5c128b4f9,605807d45e746ac201e09a3b,Spain,East coast,13 or older,no,2021-03-21_22h59.08.184,empathy_intonation_perc,2020.2.10,Win32,60,,,,,,,,,,0,,,,,,,,,,,,,,,,,,,,,,,,,,,,,,,,0,1,1.19084,0,3,3,3,1,0,calpar,REAL,FAKE,,,,,,,,,,,,,,,,,,,,,,,,,,,,,,,
,,,,,,,60439d78a013a237855f2ac8,6057c54e64b0b4e5c128b4f9,605807d45e746ac201e09a3b,Spain,East coast,13 or older,no,2021-03-21_22h59.08.184,empathy_intonation_perc,2020.2.10,Win32,60,,,,,,,,,,0,,,,,,,,,,,,,,,,,,,,,,,,,,,,,,,,0,1,0.91138,0,4,4,4,1,0,joten,REAL,FAKE,,,,,,,,,,,,,,,,,,,,,,,,,,,,,,,
,,,,,,,60439d78a013a237855f2ac8,6057c54e64b0b4e5c128b4f9,605807d45e746ac201e09a3b,Spain,East coast,13 or older,no,2021-03-21_22h59.08.184,empathy_intonation_perc,2020.2.10,Win32,60,,,,,,,,,,1,,,,,,,,,,,,,,,,,,,,,,,,,,,,,,,,0,0,0.97676,0,5,5,5,1,0,sacapuntas,REAL,FAKE,,,,,,,,,,,,,,,,,,,,,,,,,,,,,,,
,,,,,,,60439d78a013a237855f2ac8,6057c54e64b0b4e5c128b4f9,605807d45e746ac201e09a3b,Spain,East coast,13 or older,no,2021-03-21_22h59.08.184,empathy_intonation_perc,2020.2.10,Win32,60,,,,,,,,,,0,,,,,,,,,,,,,,,,,,,,,,,,,,,,,,,,1,0,0.96677,0,6,6,6,1,0,priba,REAL,FAKE,,,,,,,,,,,,,,,,,,,,,,,,,,,,,,,
,,,,,,,60439d78a013a237855f2ac8,6057c54e64b0b4e5c128b4f9,605807d45e746ac201e09a3b,Spain,East coast,13 or older,no,2021-03-21_22h59.08.184,empathy_intonation_perc,2020.2.10,Win32,60,,,,,,,,,,0,,,,,,,,,,,,,,,,,,,,,,,,,,,,,,,,1,0,0.82878,0,7,7,7,1,0,pelasula,REAL,FAKE,,,,,,,,,,,,,,,,,,,,,,,,,,,,,,,
,,,,,,,60439d78a013a237855f2ac8,6057c54e64b0b4e5c128b4f9,605807d45e746ac201e09a3b,Spain,East coast,13 or older,no,2021-03-21_22h59.08.184,empathy_intonation_perc,2020.2.10,Win32,60,,,,,,,,,,1,,,,,,,,,,,,,,,,,,,,,,,,,,,,,,,,1,1,0.609885,0,8,8,8,1,0,bien,REAL,FAKE,,,,,,,,,,,,,,,,,,,,,,,,,,,,,,,
,,,,,,,60439d78a013a237855f2ac8,6057c54e64b0b4e5c128b4f9,605807d45e746ac201e09a3b,Spain,East coast,13 or older,no,2021-03-21_22h59.08.184,empathy_intonation_perc,2020.2.10,Win32,60,,,,,,,,,,1,,,,,,,,,,,,,,,,,,,,,,,,,,,,,,,,1,1,0.653345,0,9,9,9,1,0,casa,REAL,FAKE,,,,,,,,,,,,,,,,,,,,,,,,,,,,,,,
,,,,,,,60439d78a013a237855f2ac8,6057c54e64b0b4e5c128b4f9,605807d45e746ac201e09a3b,Spain,East coast,13 or older,no,2021-03-21_22h59.08.184,empathy_intonation_perc,2020.2.10,Win32,60,,,,,,,,,,0,,,,,,,,,,,,,,,,,,,,,,,,,,,,,,,,1,0,0.91116,0,10,10,10,1,0,lejo,REAL,FAKE,,,,,,,,,,,,,,,,,,,,,,,,,,,,,,,
,,,,,,,60439d78a013a237855f2ac8,6057c54e64b0b4e5c128b4f9,605807d45e746ac201e09a3b,Spain,East coast,13 or older,no,2021-03-21_22h59.08.184,empathy_intonation_perc,2020.2.10,Win32,60,,,,,,,,,,0,,,,,,,,,,,,,,,,,,,,,,,,,,,,,,,,1,0,1.06403,0,11,11,11,1,0,pretantas,REAL,FAKE,,,,,,,,,,,,,,,,,,,,,,,,,,,,,,,
,,,,,,,60439d78a013a237855f2ac8,6057c54e64b0b4e5c128b4f9,605807d45e746ac201e09a3b,Spain,East coast,13 or older,no,2021-03-21_22h59.08.184,empathy_intonation_perc,2020.2.10,Win32,60,,,,,,,,,,1,,,,,,,,,,,,,,,,,,,,,,,,,,,,,,,,,,,,,,,,61,seda,,,1,1,0.91385,0,0,0,60,1,REAL,FAKE,,,,,,,,,,,,,,,,,,,,,
,,,,,,,60439d78a013a237855f2ac8,6057c54e64b0b4e5c128b4f9,605807d45e746ac201e09a3b,Spain,East coast,13 or older,no,2021-03-21_22h59.08.184,empathy_intonation_perc,2020.2.10,Win32,60,,,,,,,,,,1,,,,,,,,,,,,,,,,,,,,,,,,,,,,,,,,,,,,,,,,15,regar,,,1,1,0.74537,0,1,1,14,1,REAL,FAKE,,,,,,,,,,,,,,,,,,,,,
,,,,,,,60439d78a013a237855f2ac8,6057c54e64b0b4e5c128b4f9,605807d45e746ac201e09a3b,Spain,East coast,13 or older,no,2021-03-21_22h59.08.184,empathy_intonation_perc,2020.2.10,Win32,60,,,,,,,,,,1,,,,,,,,,,,,,,,,,,,,,,,,,,,,,,,,,,,,,,,,7,psimo,,,1,1,0.904535,0,2,2,6,1,REAL,FAKE,,,,,,,,,,,,,,,,,,,,,
,,,,,,,60439d78a013a237855f2ac8,6057c54e64b0b4e5c128b4f9,605807d45e746ac201e09a3b,Spain,East coast,13 or older,no,2021-03-21_22h59.08.184,empathy_intonation_perc,2020.2.10,Win32,60,,,,,,,,,,1,,,,,,,,,,,,,,,,,,,,,,,,,,,,,,,,,,,,,,,,60,matar,,,1,1,0.81881,0,3,3,59,1,REAL,FAKE,,,,,,,,,,,,,,,,,,,,,
,,,,,,,60439d78a013a237855f2ac8,6057c54e64b0b4e5c128b4f9,605807d45e746ac201e09a3b,Spain,East coast,13 or older,no,2021-03-21_22h59.08.184,empathy_intonation_perc,2020.2.10,Win32,60,,,,,,,,,,1,,,,,,,,,,,,,,,,,,,,,,,,,,,,,,,,,,,,,,,,55,nevar,,,0,0,0.812995,0,4,4,54,1,REAL,FAKE,,,,,,,,,,,,,,,,,,,,,
,,,,,,,60439d78a013a237855f2ac8,6057c54e64b0b4e5c128b4f9,605807d45e746ac201e09a3b,Spain,East coast,13 or older,no,2021-03-21_22h59.08.184,empathy_intonation_perc,2020.2.10,Win32,60,,,,,,,,,,0,,,,,,,,,,,,,,,,,,,,,,,,,,,,,,,,,,,,,,,,70,temblo,,,1,0,0.91369,0,5,5,69,1,REAL,FAKE,,,,,,,,,,,,,,,,,,,,,
,,,,,,,60439d78a013a237855f2ac8,6057c54e64b0b4e5c128b4f9,605807d45e746ac201e09a3b,Spain,East coast,13 or older,no,2021-03-21_22h59.08.184,empathy_intonation_perc,2020.2.10,Win32,60,,,,,,,,,,1,,,,,,,,,,,,,,,,,,,,,,,,,,,,,,,,,,,,,,,,86,barato,,,0,0,1.734935,0,6,6,85,1,REAL,FAKE,,,,,,,,,,,,,,,,,,,,,
,,,,,,,60439d78a013a237855f2ac8,6057c54e64b0b4e5c128b4f9,605807d45e746ac201e09a3b,Spain,East coast,13 or older,no,2021-03-21_22h59.08.184,empathy_intonation_perc,2020.2.10,Win32,60,,,,,,,,,,1,,,,,,,,,,,,,,,,,,,,,,,,,,,,,,,,,,,,,,,,65,bizcocho,,,0,0,1.19435,0,7,7,64,1,REAL,FAKE,,,,,,,,,,,,,,,,,,,,,
,,,,,,,60439d78a013a237855f2ac8,6057c54e64b0b4e5c128b4f9,605807d45e746ac201e09a3b,Spain,East coast,13 or older,no,2021-03-21_22h59.08.184,empathy_intonation_perc,2020.2.10,Win32,60,,,,,,,,,,1,,,,,,,,,,,,,,,,,,,,,,,,,,,,,,,,,,,,,,,,89,prisa,,,1,1,0.820535,0,8,8,88,1,REAL,FAKE,,,,,,,,,,,,,,,,,,,,,
,,,,,,,60439d78a013a237855f2ac8,6057c54e64b0b4e5c128b4f9,605807d45e746ac201e09a3b,Spain,East coast,13 or older,no,2021-03-21_22h59.08.184,empathy_intonation_perc,2020.2.10,Win32,60,,,,,,,,,,1,,,,,,,,,,,,,,,,,,,,,,,,,,,,,,,,,,,,,,,,44,cuchara,,,1,1,0.775385,0,9,9,43,1,REAL,FAKE,,,,,,,,,,,,,,,,,,,,,
,,,,,,,60439d78a013a237855f2ac8,6057c54e64b0b4e5c128b4f9,605807d45e746ac201e09a3b,Spain,East coast,13 or older,no,2021-03-21_22h59.08.184,empathy_intonation_perc,2020.2.10,Win32,60,,,,,,,,,,0,,,,,,,,,,,,,,,,,,,,,,,,,,,,,,,,,,,,,,,,16,abracer,,,1,0,0.892635,0,10,10,15,1,REAL,FAKE,,,,,,,,,,,,,,,,,,,,,
,,,,,,,60439d78a013a237855f2ac8,6057c54e64b0b4e5c128b4f9,605807d45e746ac201e09a3b,Spain,East coast,13 or older,no,2021-03-21_22h59.08.184,empathy_intonation_perc,2020.2.10,Win32,60,,,,,,,,,,1,,,,,,,,,,,,,,,,,,,,,,,,,,,,,,,,,,,,,,,,77,tiburn,,,1,1,0.73306,0,11,11,76,1,REAL,FAKE,,,,,,,,,,,,,,,,,,,,,
,,,,,,,60439d78a013a237855f2ac8,6057c54e64b0b4e5c128b4f9,605807d45e746ac201e09a3b,Spain,East coast,13 or older,no,2021-03-21_22h59.08.184,empathy_intonation_perc,2020.2.10,Win32,60,,,,,,,,,,0,,,,,,,,,,,,,,,,,,,,,,,,,,,,,,,,,,,,,,,,82,empirador,,,1,0,0.748105,0,12,12,81,1,REAL,FAKE,,,,,,,,,,,,,,,,,,,,,
,,,,,,,60439d78a013a237855f2ac8,6057c54e64b0b4e5c128b4f9,605807d45e746ac201e09a3b,Spain,East coast,13 or older,no,2021-03-21_22h59.08.184,empathy_intonation_perc,2020.2.10,Win32,60,,,,,,,,,,1,,,,,,,,,,,,,,,,,,,,,,,,,,,,,,,,,,,,,,,,25,bisagra,,,0,0,0.914025,0,13,13,24,1,REAL,FAKE,,,,,,,,,,,,,,,,,,,,,
,,,,,,,60439d78a013a237855f2ac8,6057c54e64b0b4e5c128b4f9,605807d45e746ac201e09a3b,Spain,East coast,13 or older,no,2021-03-21_22h59.08.184,empathy_intonation_perc,2020.2.10,Win32,60,,,,,,,,,,1,,,,,,,,,,,,,,,,,,,,,,,,,,,,,,,,,,,,,,,,46,martillo,,,0,0,1.506105,0,14,14,45,1,REAL,FAKE,,,,,,,,,,,,,,,,,,,,,
,,,,,,,60439d78a013a237855f2ac8,6057c54e64b0b4e5c128b4f9,605807d45e746ac201e09a3b,Spain,East coast,13 or older,no,2021-03-21_22h59.08.184,empathy_intonation_perc,2020.2.10,Win32,60,,,,,,,,,,0,,,,,,,,,,,,,,,,,,,,,,,,,,,,,,,,,,,,,,,,53,vegada,,,1,0,0.896505,0,15,15,52,1,REAL,FAKE,,,,,,,,,,,,,,,,,,,,,
,,,,,,,60439d78a013a237855f2ac8,6057c54e64b0b4e5c128b4f9,605807d45e746ac201e09a3b,Spain,East coast,13 or older,no,2021-03-21_22h59.08.184,empathy_intonation_perc,2020.2.10,Win32,60,,,,,,,,,,1,,,,,,,,,,,,,,,,,,,,,,,,,,,,,,,,,,,,,,,,64,orgulloso,,,0,0,1.105395,0,16,16,63,1,REAL,FAKE,,,,,,,,,,,,,,,,,,,,,
,,,,,,,60439d78a013a237855f2ac8,6057c54e64b0b4e5c128b4f9,605807d45e746ac201e09a3b,Spain,East coast,13 or older,no,2021-03-21_22h59.08.184,empathy_intonation_perc,2020.2.10,Win32,60,,,,,,,,,,1,,,,,,,,,,,,,,,,,,,,,,,,,,,,,,,,,,,,,,,,59,besar,,,1,1,0.665775,0,17,17,58,1,REAL,FAKE,,,,,,,,,,,,,,,,,,,,,
,,,,,,,60439d78a013a237855f2ac8,6057c54e64b0b4e5c128b4f9,605807d45e746ac201e09a3b,Spain,East coast,13 or older,no,2021-03-21_22h59.08.184,empathy_intonation_perc,2020.2.10,Win32,60,,,,,,,,,,1,,,,,,,,,,,,,,,,,,,,,,,,,,,,,,,,,,,,,,,,41,rebuscar,,,1,1,0.835875,0,18,18,40,1,REAL,FAKE,,,,,,,,,,,,,,,,,,,,,
,,,,,,,60439d78a013a237855f2ac8,6057c54e64b0b4e5c128b4f9,605807d45e746ac201e09a3b,Spain,East coast,13 or older,no,2021-03-21_22h59.08.184,empathy_intonation_perc,2020.2.10,Win32,60,,,,,,,,,,0,,,,,,,,,,,,,,,,,,,,,,,,,,,,,,,,,,,,,,,,50,flamida,,,0,1,2.34455,0,19,19,49,1,REAL,FAKE,,,,,,,,,,,,,,,,,,,,,
,,,,,,,60439d78a013a237855f2ac8,6057c54e64b0b4e5c128b4f9,605807d45e746ac201e09a3b,Spain,East coast,13 or older,no,2021-03-21_22h59.08.184,empathy_intonation_perc,2020.2.10,Win32,60,,,,,,,,,,1,,,,,,,,,,,,,,,,,,,,,,,,,,,,,,,,,,,,,,,,34,aviso,,,0,0,1.477985,0,20,20,33,1,REAL,FAKE,,,,,,,,,,,,,,,,,,,,,
,,,,,,,60439d78a013a237855f2ac8,6057c54e64b0b4e5c128b4f9,605807d45e746ac201e09a3b,Spain,East coast,13 or older,no,2021-03-21_22h59.08.184,empathy_intonation_perc,2020.2.10,Win32,60,,,,,,,,,,0,,,,,,,,,,,,,,,,,,,,,,,,,,,,,,,,,,,,,,,,18,arsa,,,1,0,1.230135,0,21,21,17,1,REAL,FAKE,,,,,,,,,,,,,,,,,,,,,
,,,,,,,60439d78a013a237855f2ac8,6057c54e64b0b4e5c128b4f9,605807d45e746ac201e09a3b,Spain,East coast,13 or older,no,2021-03-21_22h59.08.184,empathy_intonation_perc,2020.2.10,Win32,60,,,,,,,,,,1,,,,,,,,,,,,,,,,,,,,,,,,,,,,,,,,,,,,,,,,36,loro,,,0,0,0.762075,0,22,22,35,1,REAL,FAKE,,,,,,,,,,,,,,,,,,,,,
,,,,,,,60439d78a013a237855f2ac8,6057c54e64b0b4e5c128b4f9,605807d45e746ac201e09a3b,Spain,East coast,13 or older,no,2021-03-21_22h59.08.184,empathy_intonation_perc,2020.2.10,Win32,60,,,,,,,,,,0,,,,,,,,,,,,,,,,,,,,,,,,,,,,,,,,,,,,,,,,17,floroso,,,1,0,0.90346,0,23,23,16,1,REAL,FAKE,,,,,,,,,,,,,,,,,,,,,
,,,,,,,60439d78a013a237855f2ac8,6057c54e64b0b4e5c128b4f9,605807d45e746ac201e09a3b,Spain,East coast,13 or older,no,2021-03-21_22h59.08.184,empathy_intonation_perc,2020.2.10,Win32,60,,,,,,,,,,0,,,,,,,,,,,,,,,,,,,,,,,,,,,,,,,,,,,,,,,,1,terzo,,,1,0,0.614345,0,24,24,0,1,REAL,FAKE,,,,,,,,,,,,,,,,,,,,,
,,,,,,,60439d78a013a237855f2ac8,6057c54e64b0b4e5c128b4f9,605807d45e746ac201e09a3b,Spain,East coast,13 or older,no,2021-03-21_22h59.08.184,empathy_intonation_perc,2020.2.10,Win32,60,,,,,,,,,,1,,,,,,,,,,,,,,,,,,,,,,,,,,,,,,,,,,,,,,,,2,pellizcar,,,1,1,1.5306,0,25,25,1,1,REAL,FAKE,,,,,,,,,,,,,,,,,,,,,
,,,,,,,60439d78a013a237855f2ac8,6057c54e64b0b4e5c128b4f9,605807d45e746ac201e09a3b,Spain,East coast,13 or older,no,2021-03-21_22h59.08.184,empathy_intonation_perc,2020.2.10,Win32,60,,,,,,,,,,0,,,,,,,,,,,,,,,,,,,,,,,,,,,,,,,,,,,,,,,,47,cartinar,,,1,0,0.97849,0,26,26,46,1,REAL,FAKE,,,,,,,,,,,,,,,,,,,,,
,,,,,,,60439d78a013a237855f2ac8,6057c54e64b0b4e5c128b4f9,605807d45e746ac201e09a3b,Spain,East coast,13 or older,no,2021-03-21_22h59.08.184,empathy_intonation_perc,2020.2.10,Win32,60,,,,,,,,,,1,,,,,,,,,,,,,,,,,,,,,,,,,,,,,,,,,,,,,,,,43,canela,,,1,1,0.590365,0,27,27,42,1,REAL,FAKE,,,,,,,,,,,,,,,,,,,,,
,,,,,,,60439d78a013a237855f2ac8,6057c54e64b0b4e5c128b4f9,605807d45e746ac201e09a3b,Spain,East coast,13 or older,no,2021-03-21_22h59.08.184,empathy_intonation_perc,2020.2.10,Win32,60,,,,,,,,,,1,,,,,,,,,,,,,,,,,,,,,,,,,,,,,,,,,,,,,,,,9,hacha,,,1,1,0.930085,0,28,28,8,1,REAL,FAKE,,,,,,,,,,,,,,,,,,,,,
,,,,,,,60439d78a013a237855f2ac8,6057c54e64b0b4e5c128b4f9,605807d45e746ac201e09a3b,Spain,East coast,13 or older,no,2021-03-21_22h59.08.184,empathy_intonation_perc,2020.2.10,Win32,60,,,,,,,,,,1,,,,,,,,,,,,,,,,,,,,,,,,,,,,,,,,,,,,,,,,31,pandilla,,,1,1,0.750945,0,29,29,30,1,REAL,FAKE,,,,,,,,,,,,,,,,,,,,,
,,,,,,,60439d78a013a237855f2ac8,6057c54e64b0b4e5c128b4f9,605807d45e746ac201e09a3b,Spain,East coast,13 or older,no,2021-03-21_22h59.08.184,empathy_intonation_perc,2020.2.10,Win32,60,,,,,,,,,,1,,,,,,,,,,,,,,,,,,,,,,,,,,,,,,,,,,,,,,,,11,cenefa,,,0,0,1.006965,0,30,30,10,1,REAL,FAKE,,,,,,,,,,,,,,,,,,,,,
,,,,,,,60439d78a013a237855f2ac8,6057c54e64b0b4e5c128b4f9,605807d45e746ac201e09a3b,Spain,East coast,13 or older,no,2021-03-21_22h59.08.184,empathy_intonation_perc,2020.2.10,Win32,60,,,,,,,,,,1,,,,,,,,,,,,,,,,,,,,,,,,,,,,,,,,,,,,,,,,83,guante,,,1,1,0.628145,0,31,31,82,1,REAL,FAKE,,,,,,,,,,,,,,,,,,,,,
,,,,,,,60439d78a013a237855f2ac8,6057c54e64b0b4e5c128b4f9,605807d45e746ac201e09a3b,Spain,East coast,13 or older,no,2021-03-21_22h59.08.184,empathy_intonation_perc,2020.2.10,Win32,60,,,,,,,,,,1,,,,,,,,,,,,,,,,,,,,,,,,,,,,,,,,,,,,,,,,73,hervidor,,,0,0,1.53379,0,32,32,72,1,REAL,FAKE,,,,,,,,,,,,,,,,,,,,,
,,,,,,,60439d78a013a237855f2ac8,6057c54e64b0b4e5c128b4f9,605807d45e746ac201e09a3b,Spain,East coast,13 or older,no,2021-03-21_22h59.08.184,empathy_intonation_perc,2020.2.10,Win32,60,,,,,,,,,,0,,,,,,,,,,,,,,,,,,,,,,,,,,,,,,,,,,,,,,,,74,cintro,,,1,0,0.91515,0,33,33,73,1,REAL,FAKE,,,,,,,,,,,,,,,,,,,,,
,,,,,,,60439d78a013a237855f2ac8,6057c54e64b0b4e5c128b4f9,605807d45e746ac201e09a3b,Spain,East coast,13 or older,no,2021-03-21_22h59.08.184,empathy_intonation_perc,2020.2.10,Win32,60,,,,,,,,,,1,,,,,,,,,,,,,,,,,,,,,,,,,,,,,,,,,,,,,,,,80,hormiga,,,0,0,0.73343,0,34,34,79,1,REAL,FAKE,,,,,,,,,,,,,,,,,,,,,
,,,,,,,60439d78a013a237855f2ac8,6057c54e64b0b4e5c128b4f9,605807d45e746ac201e09a3b,Spain,East coast,13 or older,no,2021-03-21_22h59.08.184,empathy_intonation_perc,2020.2.10,Win32,60,,,,,,,,,,1,,,,,,,,,,,,,,,,,,,,,,,,,,,,,,,,,,,,,,,,40,alfombra,,,0,0,1.01207,0,35,35,39,1,REAL,FAKE,,,,,,,,,,,,,,,,,,,,,
,,,,,,,60439d78a013a237855f2ac8,6057c54e64b0b4e5c128b4f9,605807d45e746ac201e09a3b,Spain,East coast,13 or older,no,2021-03-21_22h59.08.184,empathy_intonation_perc,2020.2.10,Win32,60,,,,,,,,,,0,,,,,,,,,,,,,,,,,,,,,,,,,,,,,,,,,,,,,,,,4,batilln,,,1,0,0.749985,0,36,36,3,1,REAL,FAKE,,,,,,,,,,,,,,,,,,,,,
,,,,,,,60439d78a013a237855f2ac8,6057c54e64b0b4e5c128b4f9,605807d45e746ac201e09a3b,Spain,East coast,13 or older,no,2021-03-21_22h59.08.184,empathy_intonation_perc,2020.2.10,Win32,60,,,,,,,,,,0,,,,,,,,,,,,,,,,,,,,,,,,,,,,,,,,,,,,,,,,66,hacido,,,1,0,0.61121,0,37,37,65,1,REAL,FAKE,,,,,,,,,,,,,,,,,,,,,
,,,,,,,60439d78a013a237855f2ac8,6057c54e64b0b4e5c128b4f9,605807d45e746ac201e09a3b,Spain,East coast,13 or older,no,2021-03-21_22h59.08.184,empathy_intonation_perc,2020.2.10,Win32,60,,,,,,,,,,1,,,,,,,,,,,,,,,,,,,,,,,,,,,,,,,,,,,,,,,,39,torpe,,,1,1,0.999525,0,38,38,38,1,REAL,FAKE,,,,,,,,,,,,,,,,,,,,,
,,,,,,,60439d78a013a237855f2ac8,6057c54e64b0b4e5c128b4f9,605807d45e746ac201e09a3b,Spain,East coast,13 or older,no,2021-03-21_22h59.08.184,empathy_intonation_perc,2020.2.10,Win32,60,,,,,,,,,,1,,,,,,,,,,,,,,,,,,,,,,,,,,,,,,,,,,,,,,,,88,acantilado,,,0,0,0.75451,0,39,39,87,1,REAL,FAKE,,,,,,,,,,,,,,,,,,,,,
,,,,,,,60439d78a013a237855f2ac8,6057c54e64b0b4e5c128b4f9,605807d45e746ac201e09a3b,Spain,East coast,13 or older,no,2021-03-21_22h59.08.184,empathy_intonation_perc,2020.2.10,Win32,60,,,,,,,,,,1,,,,,,,,,,,,,,,,,,,,,,,,,,,,,,,,,,,,,,,,37,granuja,,,1,1,0.72909,0,40,40,36,1,REAL,FAKE,,,,,,,,,,,,,,,,,,,,,
,,,,,,,60439d78a013a237855f2ac8,6057c54e64b0b4e5c128b4f9,605807d45e746ac201e09a3b,Spain,East coast,13 or older,no,2021-03-21_22h59.08.184,empathy_intonation_perc,2020.2.10,Win32,60,,,,,,,,,,0,,,,,,,,,,,,,,,,,,,,,,,,,,,,,,,,,,,,,,,,58,plaudir,,,0,1,0.947575,0,41,41,57,1,REAL,FAKE,,,,,,,,,,,,,,,,,,,,,
,,,,,,,60439d78a013a237855f2ac8,6057c54e64b0b4e5c128b4f9,605807d45e746ac201e09a3b,Spain,East coast,13 or older,no,2021-03-21_22h59.08.184,empathy_intonation_perc,2020.2.10,Win32,60,,,,,,,,,,0,,,,,,,,,,,,,,,,,,,,,,,,,,,,,,,,,,,,,,,,72,pemicin,,,1,0,1.66316,0,42,42,71,1,REAL,FAKE,,,,,,,,,,,,,,,,,,,,,
,,,,,,,60439d78a013a237855f2ac8,6057c54e64b0b4e5c128b4f9,605807d45e746ac201e09a3b,Spain,East coast,13 or older,no,2021-03-21_22h59.08.184,empathy_intonation_perc,2020.2.10,Win32,60,,,,,,,,,,1,,,,,,,,,,,,,,,,,,,,,,,,,,,,,,,,,,,,,,,,22,lacayo,,,0,0,0.847965,0,43,43,21,1,REAL,FAKE,,,,,,,,,,,,,,,,,,,,,
,,,,,,,60439d78a013a237855f2ac8,6057c54e64b0b4e5c128b4f9,605807d45e746ac201e09a3b,Spain,East coast,13 or older,no,2021-03-21_22h59.08.184,empathy_intonation_perc,2020.2.10,Win32,60,,,,,,,,,,0,,,,,,,,,,,,,,,,,,,,,,,,,,,,,,,,,,,,,,,,8,cadea,,,1,0,0.76233,0,44,44,7,1,REAL,FAKE,,,,,,,,,,,,,,,,,,,,,
,,,,,,,60439d78a013a237855f2ac8,6057c54e64b0b4e5c128b4f9,605807d45e746ac201e09a3b,Spain,East coast,13 or older,no,2021-03-21_22h59.08.184,empathy_intonation_perc,2020.2.10,Win32,60,,,,,,,,,,0,,,,,,,,,,,,,,,,,,,,,,,,,,,,,,,,,,,,,,,,23,lampera,,,1,0,0.582405,0,45,45,22,1,REAL,FAKE,,,,,,,,,,,,,,,,,,,,,
,,,,,,,60439d78a013a237855f2ac8,6057c54e64b0b4e5c128b4f9,605807d45e746ac201e09a3b,Spain,East coast,13 or older,no,2021-03-21_22h59.08.184,empathy_intonation_perc,2020.2.10,Win32,60,,,,,,,,,,1,,,,,,,,,,,,,,,,,,,,,,,,,,,,,,,,,,,,,,,,69,engatusar,,,1,1,0.87469,0,46,46,68,1,REAL,FAKE,,,,,,,,,,,,,,,,,,,,,
,,,,,,,60439d78a013a237855f2ac8,6057c54e64b0b4e5c128b4f9,605807d45e746ac201e09a3b,Spain,East coast,13 or older,no,2021-03-21_22h59.08.184,empathy_intonation_perc,2020.2.10,Win32,60,,,,,,,,,,1,,,,,,,,,,,,,,,,,,,,,,,,,,,,,,,,,,,,,,,,6,tergiversar,,,1,1,2.14074,0,47,47,5,1,REAL,FAKE,,,,,,,,,,,,,,,,,,,,,
,,,,,,,60439d78a013a237855f2ac8,6057c54e64b0b4e5c128b4f9,605807d45e746ac201e09a3b,Spain,East coast,13 or older,no,2021-03-21_22h59.08.184,empathy_intonation_perc,2020.2.10,Win32,60,,,,,,,,,,0,,,,,,,,,,,,,,,,,,,,,,,,,,,,,,,,,,,,,,,,87,grodo,,,1,0,0.78132,0,48,48,86,1,REAL,FAKE,,,,,,,,,,,,,,,,,,,,,
,,,,,,,60439d78a013a237855f2ac8,6057c54e64b0b4e5c128b4f9,605807d45e746ac201e09a3b,Spain,East coast,13 or older,no,2021-03-21_22h59.08.184,empathy_intonation_perc,2020.2.10,Win32,60,,,,,,,,,,0,,,,,,,,,,,,,,,,,,,,,,,,,,,,,,,,,,,,,,,,33,pauca,,,0,1,1.09766,0,49,49,32,1,REAL,FAKE,,,,,,,,,,,,,,,,,,,,,
,,,,,,,60439d78a013a237855f2ac8,6057c54e64b0b4e5c128b4f9,605807d45e746ac201e09a3b,Spain,East coast,13 or older,no,2021-03-21_22h59.08.184,empathy_intonation_perc,2020.2.10,Win32,60,,,,,,,,,,1,,,,,,,,,,,,,,,,,,,,,,,,,,,,,,,,,,,,,,,,3,pulmones,,,0,0,0.913265,0,50,50,2,1,REAL,FAKE,,,,,,,,,,,,,,,,,,,,,
,,,,,,,60439d78a013a237855f2ac8,6057c54e64b0b4e5c128b4f9,605807d45e746ac201e09a3b,Spain,East coast,13 or older,no,2021-03-21_22h59.08.184,empathy_intonation_perc,2020.2.10,Win32,60,,,,,,,,,,1,,,,,,,,,,,,,,,,,,,,,,,,,,,,,,,,,,,,,,,,28,merodear,,,0,0,1.11245,0,51,51,27,1,REAL,FAKE,,,,,,,,,,,,,,,,,,,,,
,,,,,,,60439d78a013a237855f2ac8,6057c54e64b0b4e5c128b4f9,605807d45e746ac201e09a3b,Spain,East coast,13 or older,no,2021-03-21_22h59.08.184,empathy_intonation_perc,2020.2.10,Win32,60,,,,,,,,,,0,,,,,,,,,,,,,,,,,,,,,,,,,,,,,,,,,,,,,,,,10,antar,,,1,0,0.647855,0,52,52,9,1,REAL,FAKE,,,,,,,,,,,,,,,,,,,,,
,,,,,,,60439d78a013a237855f2ac8,6057c54e64b0b4e5c128b4f9,605807d45e746ac201e09a3b,Spain,East coast,13 or older,no,2021-03-21_22h59.08.184,empathy_intonation_perc,2020.2.10,Win32,60,,,,,,,,,,0,,,,,,,,,,,,,,,,,,,,,,,,,,,,,,,,,,,,,,,,21,capillo,,,1,0,0.697695,0,53,53,20,1,REAL,FAKE,,,,,,,,,,,,,,,,,,,,,
,,,,,,,60439d78a013a237855f2ac8,6057c54e64b0b4e5c128b4f9,605807d45e746ac201e09a3b,Spain,East coast,13 or older,no,2021-03-21_22h59.08.184,empathy_intonation_perc,2020.2.10,Win32,60,,,,,,,,,,0,,,,,,,,,,,,,,,,,,,,,,,,,,,,,,,,,,,,,,,,32,fatacidad,,,0,1,1.72915,0,54,54,31,1,REAL,FAKE,,,,,,,,,,,,,,,,,,,,,
,,,,,,,60439d78a013a237855f2ac8,6057c54e64b0b4e5c128b4f9,605807d45e746ac201e09a3b,Spain,East coast,13 or older,no,2021-03-21_22h59.08.184,empathy_intonation_perc,2020.2.10,Win32,60,,,,,,,,,,1,,,,,,,,,,,,,,,,,,,,,,,,,,,,,,,,,,,,,,,,14,yunque,,,0,0,2.018235,0,55,55,13,1,REAL,FAKE,,,,,,,,,,,,,,,,,,,,,
,,,,,,,60439d78a013a237855f2ac8,6057c54e64b0b4e5c128b4f9,605807d45e746ac201e09a3b,Spain,East coast,13 or older,no,2021-03-21_22h59.08.184,empathy_intonation_perc,2020.2.10,Win32,60,,,,,,,,,,1,,,,,,,,,,,,,,,,,,,,,,,,,,,,,,,,,,,,,,,,26,secuestro,,,1,1,0.820685,0,56,56,25,1,REAL,FAKE,,,,,,,,,,,,,,,,,,,,,
,,,,,,,60439d78a013a237855f2ac8,6057c54e64b0b4e5c128b4f9,605807d45e746ac201e09a3b,Spain,East coast,13 or older,no,2021-03-21_22h59.08.184,empathy_intonation_perc,2020.2.10,Win32,60,,,,,,,,,,1,,,,,,,,,,,,,,,,,,,,,,,,,,,,,,,,,,,,,,,,56,musgo,,,0,0,0.807685,0,57,57,55,1,REAL,FAKE,,,,,,,,,,,,,,,,,,,,,
,,,,,,,60439d78a013a237855f2ac8,6057c54e64b0b4e5c128b4f9,605807d45e746ac201e09a3b,Spain,East coast,13 or older,no,2021-03-21_22h59.08.184,empathy_intonation_perc,2020.2.10,Win32,60,,,,,,,,,,0,,,,,,,,,,,,,,,,,,,,,,,,,,,,,,,,,,,,,,,,84,escuto,,,1,0,0.572405,0,58,58,83,1,REAL,FAKE,,,,,,,,,,,,,,,,,,,,,
,,,,,,,60439d78a013a237855f2ac8,6057c54e64b0b4e5c128b4f9,605807d45e746ac201e09a3b,Spain,East coast,13 or older,no,2021-03-21_22h59.08.184,empathy_intonation_perc,2020.2.10,Win32,60,,,,,,,,,,1,,,,,,,,,,,,,,,,,,,,,,,,,,,,,,,,,,,,,,,,68,alegre,,,1,1,0.71386,0,59,59,67,1,REAL,FAKE,,,,,,,,,,,,,,,,,,,,,
,,,,,,,60439d78a013a237855f2ac8,6057c54e64b0b4e5c128b4f9,605807d45e746ac201e09a3b,Spain,East coast,13 or older,no,2021-03-21_22h59.08.184,empathy_intonation_perc,2020.2.10,Win32,60,,,,,,,,,,1,,,,,,,,,,,,,,,,,,,,,,,,,,,,,,,,,,,,,,,,20,vido,,,1,1,0.53003,0,60,60,19,1,REAL,FAKE,,,,,,,,,,,,,,,,,,,,,
,,,,,,,60439d78a013a237855f2ac8,6057c54e64b0b4e5c128b4f9,605807d45e746ac201e09a3b,Spain,East coast,13 or older,no,2021-03-21_22h59.08.184,empathy_intonation_perc,2020.2.10,Win32,60,,,,,,,,,,1,,,,,,,,,,,,,,,,,,,,,,,,,,,,,,,,,,,,,,,,51,candado,,,1,1,1.67238,0,61,61,50,1,REAL,FAKE,,,,,,,,,,,,,,,,,,,,,
,,,,,,,60439d78a013a237855f2ac8,6057c54e64b0b4e5c128b4f9,605807d45e746ac201e09a3b,Spain,East coast,13 or older,no,2021-03-21_22h59.08.184,empathy_intonation_perc,2020.2.10,Win32,60,,,,,,,,,,1,,,,,,,,,,,,,,,,,,,,,,,,,,,,,,,,,,,,,,,,5,zapato,,,1,1,0.847055,0,62,62,4,1,REAL,FAKE,,,,,,,,,,,,,,,,,,,,,
,,,,,,,60439d78a013a237855f2ac8,6057c54e64b0b4e5c128b4f9,605807d45e746ac201e09a3b,Spain,East coast,13 or older,no,2021-03-21_22h59.08.184,empathy_intonation_perc,2020.2.10,Win32,60,,,,,,,,,,1,,,,,,,,,,,,,,,,,,,,,,,,,,,,,,,,,,,,,,,,48,ladrn,,,1,1,0.91479,0,63,63,47,1,REAL,FAKE,,,,,,,,,,,,,,,,,,,,,
,,,,,,,60439d78a013a237855f2ac8,6057c54e64b0b4e5c128b4f9,605807d45e746ac201e09a3b,Spain,East coast,13 or older,no,2021-03-21_22h59.08.184,empathy_intonation_perc,2020.2.10,Win32,60,,,,,,,,,,1,,,,,,,,,,,,,,,,,,,,,,,,,,,,,,,,,,,,,,,,71,polvoriento,,,1,1,1.330265,0,64,64,70,1,REAL,FAKE,,,,,,,,,,,,,,,,,,,,,
,,,,,,,60439d78a013a237855f2ac8,6057c54e64b0b4e5c128b4f9,605807d45e746ac201e09a3b,Spain,East coast,13 or older,no,2021-03-21_22h59.08.184,empathy_intonation_perc,2020.2.10,Win32,60,,,,,,,,,,1,,,,,,,,,,,,,,,,,,,,,,,,,,,,,,,,,,,,,,,,90,clavel,,,0,0,0.65006,0,65,65,89,1,REAL,FAKE,,,,,,,,,,,,,,,,,,,,,
,,,,,,,60439d78a013a237855f2ac8,6057c54e64b0b4e5c128b4f9,605807d45e746ac201e09a3b,Spain,East coast,13 or older,no,2021-03-21_22h59.08.184,empathy_intonation_perc,2020.2.10,Win32,60,,,,,,,,,,0,,,,,,,,,,,,,,,,,,,,,,,,,,,,,,,,,,,,,,,,63,esposante,,,1,0,1.09803,0,66,66,62,1,REAL,FAKE,,,,,,,,,,,,,,,,,,,,,
,,,,,,,60439d78a013a237855f2ac8,6057c54e64b0b4e5c128b4f9,605807d45e746ac201e09a3b,Spain,East coast,13 or older,no,2021-03-21_22h59.08.184,empathy_intonation_perc,2020.2.10,Win32,60,,,,,,,,,,1,,,,,,,,,,,,,,,,,,,,,,,,,,,,,,,,,,,,,,,,85,lad,,,0,0,0.8617,0,67,67,84,1,REAL,FAKE,,,,,,,,,,,,,,,,,,,,,
,,,,,,,60439d78a013a237855f2ac8,6057c54e64b0b4e5c128b4f9,605807d45e746ac201e09a3b,Spain,East coast,13 or older,no,2021-03-21_22h59.08.184,empathy_intonation_perc,2020.2.10,Win32,60,,,,,,,,,,1,,,,,,,,,,,,,,,,,,,,,,,,,,,,,,,,,,,,,,,,57,tacao,,,0,0,1.25428,0,68,68,56,1,REAL,FAKE,,,,,,,,,,,,,,,,,,,,,
,,,,,,,60439d78a013a237855f2ac8,6057c54e64b0b4e5c128b4f9,605807d45e746ac201e09a3b,Spain,East coast,13 or older,no,2021-03-21_22h59.08.184,empathy_intonation_perc,2020.2.10,Win32,60,,,,,,,,,,0,,,,,,,,,,,,,,,,,,,,,,,,,,,,,,,,,,,,,,,,42,cadallo,,,1,0,1.086895,0,69,69,41,1,REAL,FAKE,,,,,,,,,,,,,,,,,,,,,
,,,,,,,60439d78a013a237855f2ac8,6057c54e64b0b4e5c128b4f9,605807d45e746ac201e09a3b,Spain,East coast,13 or older,no,2021-03-21_22h59.08.184,empathy_intonation_perc,2020.2.10,Win32,60,,,,,,,,,,0,,,,,,,,,,,,,,,,,,,,,,,,,,,,,,,,,,,,,,,,30,alardio,,,0,1,0.8629,0,70,70,29,1,REAL,FAKE,,,,,,,,,,,,,,,,,,,,,
,,,,,,,60439d78a013a237855f2ac8,6057c54e64b0b4e5c128b4f9,605807d45e746ac201e09a3b,Spain,East coast,13 or older,no,2021-03-21_22h59.08.184,empathy_intonation_perc,2020.2.10,Win32,60,,,,,,,,,,1,,,,,,,,,,,,,,,,,,,,,,,,,,,,,,,,,,,,,,,,54,fomentar,,,0,0,1.049175,0,71,71,53,1,REAL,FAKE,,,,,,,,,,,,,,,,,,,,,
,,,,,,,60439d78a013a237855f2ac8,6057c54e64b0b4e5c128b4f9,605807d45e746ac201e09a3b,Spain,East coast,13 or older,no,2021-03-21_22h59.08.184,empathy_intonation_perc,2020.2.10,Win32,60,,,,,,,,,,1,,,,,,,,,,,,,,,,,,,,,,,,,,,,,,,,,,,,,,,,62,flaco,,,1,1,0.663025,0,72,72,61,1,REAL,FAKE,,,,,,,,,,,,,,,,,,,,,
,,,,,,,60439d78a013a237855f2ac8,6057c54e64b0b4e5c128b4f9,605807d45e746ac201e09a3b,Spain,East coast,13 or older,no,2021-03-21_22h59.08.184,empathy_intonation_perc,2020.2.10,Win32,60,,,,,,,,,,1,,,,,,,,,,,,,,,,,,,,,,,,,,,,,,,,,,,,,,,,24,ltigo,,,0,0,0.94049,0,73,73,23,1,REAL,FAKE,,,,,,,,,,,,,,,,,,,,,
,,,,,,,60439d78a013a237855f2ac8,6057c54e64b0b4e5c128b4f9,605807d45e746ac201e09a3b,Spain,East coast,13 or older,no,2021-03-21_22h59.08.184,empathy_intonation_perc,2020.2.10,Win32,60,,,,,,,,,,1,,,,,,,,,,,,,,,,,,,,,,,,,,,,,,,,,,,,,,,,13,helar,,,0,0,1.063545,0,74,74,12,1,REAL,FAKE,,,,,,,,,,,,,,,,,,,,,
,,,,,,,60439d78a013a237855f2ac8,6057c54e64b0b4e5c128b4f9,605807d45e746ac201e09a3b,Spain,East coast,13 or older,no,2021-03-21_22h59.08.184,empathy_intonation_perc,2020.2.10,Win32,60,,,,,,,,,,1,,,,,,,,,,,,,,,,,,,,,,,,,,,,,,,,,,,,,,,,81,pozo,,,1,1,1.07877,0,75,75,80,1,REAL,FAKE,,,,,,,,,,,,,,,,,,,,,
,,,,,,,60439d78a013a237855f2ac8,6057c54e64b0b4e5c128b4f9,605807d45e746ac201e09a3b,Spain,East coast,13 or older,no,2021-03-21_22h59.08.184,empathy_intonation_perc,2020.2.10,Win32,60,,,,,,,,,,0,,,,,,,,,,,,,,,,,,,,,,,,,,,,,,,,,,,,,,,,79,tropaje,,,1,0,1.053185,0,76,76,78,1,REAL,FAKE,,,,,,,,,,,,,,,,,,,,,
,,,,,,,60439d78a013a237855f2ac8,6057c54e64b0b4e5c128b4f9,605807d45e746ac201e09a3b,Spain,East coast,13 or older,no,2021-03-21_22h59.08.184,empathy_intonation_perc,2020.2.10,Win32,60,,,,,,,,,,1,,,,,,,,,,,,,,,,,,,,,,,,,,,,,,,,,,,,,,,,38,estornudar,,,1,1,0.881195,0,77,77,37,1,REAL,FAKE,,,,,,,,,,,,,,,,,,,,,
,,,,,,,60439d78a013a237855f2ac8,6057c54e64b0b4e5c128b4f9,605807d45e746ac201e09a3b,Spain,East coast,13 or older,no,2021-03-21_22h59.08.184,empathy_intonation_perc,2020.2.10,Win32,60,,,,,,,,,,0,,,,,,,,,,,,,,,,,,,,,,,,,,,,,,,,,,,,,,,,29,decar,,,1,0,1.912365,0,78,78,28,1,REAL,FAKE,,,,,,,,,,,,,,,,,,,,,
,,,,,,,60439d78a013a237855f2ac8,6057c54e64b0b4e5c128b4f9,605807d45e746ac201e09a3b,Spain,East coast,13 or older,no,2021-03-21_22h59.08.184,empathy_intonation_perc,2020.2.10,Win32,60,,,,,,,,,,0,,,,,,,,,,,,,,,,,,,,,,,,,,,,,,,,,,,,,,,,35,rompido,,,0,1,0.841245,0,79,79,34,1,REAL,FAKE,,,,,,,,,,,,,,,,,,,,,
,,,,,,,60439d78a013a237855f2ac8,6057c54e64b0b4e5c128b4f9,605807d45e746ac201e09a3b,Spain,East coast,13 or older,no,2021-03-21_22h59.08.184,empathy_intonation_perc,2020.2.10,Win32,60,,,,,,,,,,1,,,,,,,,,,,,,,,,,,,,,,,,,,,,,,,,,,,,,,,,45,jilguero,,,0,0,1.299685,0,80,80,44,1,REAL,FAKE,,,,,,,,,,,,,,,,,,,,,
,,,,,,,60439d78a013a237855f2ac8,6057c54e64b0b4e5c128b4f9,605807d45e746ac201e09a3b,Spain,East coast,13 or older,no,2021-03-21_22h59.08.184,empathy_intonation_perc,2020.2.10,Win32,60,,,,,,,,,,1,,,,,,,,,,,,,,,,,,,,,,,,,,,,,,,,,,,,,,,,78,frondoso,,,0,0,0.95619,0,81,81,77,1,REAL,FAKE,,,,,,,,,,,,,,,,,,,,,
,,,,,,,60439d78a013a237855f2ac8,6057c54e64b0b4e5c128b4f9,605807d45e746ac201e09a3b,Spain,East coast,13 or older,no,2021-03-21_22h59.08.184,empathy_intonation_perc,2020.2.10,Win32,60,,,,,,,,,,1,,,,,,,,,,,,,,,,,,,,,,,,,,,,,,,,,,,,,,,,75,yacer,,,1,1,0.60241,0,82,82,74,1,REAL,FAKE,,,,,,,,,,,,,,,,,,,,,
,,,,,,,60439d78a013a237855f2ac8,6057c54e64b0b4e5c128b4f9,605807d45e746ac201e09a3b,Spain,East coast,13 or older,no,2021-03-21_22h59.08.184,empathy_intonation_perc,2020.2.10,Win32,60,,,,,,,,,,0,,,,,,,,,,,,,,,,,,,,,,,,,,,,,,,,,,,,,,,,19,brecedad,,,0,1,0.814255,0,83,83,18,1,REAL,FAKE,,,,,,,,,,,,,,,,,,,,,
,,,,,,,60439d78a013a237855f2ac8,6057c54e64b0b4e5c128b4f9,605807d45e746ac201e09a3b,Spain,East coast,13 or older,no,2021-03-21_22h59.08.184,empathy_intonation_perc,2020.2.10,Win32,60,,,,,,,,,,0,,,,,,,,,,,,,,,,,,,,,,,,,,,,,,,,,,,,,,,,27,acutacin,,,1,0,1.002225,0,84,84,26,1,REAL,FAKE,,,,,,,,,,,,,,,,,,,,,
,,,,,,,60439d78a013a237855f2ac8,6057c54e64b0b4e5c128b4f9,605807d45e746ac201e09a3b,Spain,East coast,13 or older,no,2021-03-21_22h59.08.184,empathy_intonation_perc,2020.2.10,Win32,60,,,,,,,,,,1,,,,,,,,,,,,,,,,,,,,,,,,,,,,,,,,,,,,,,,,52,camisa,,,1,1,0.628635,0,85,85,51,1,REAL,FAKE,,,,,,,,,,,,,,,,,,,,,
,,,,,,,60439d78a013a237855f2ac8,6057c54e64b0b4e5c128b4f9,605807d45e746ac201e09a3b,Spain,East coast,13 or older,no,2021-03-21_22h59.08.184,empathy_intonation_perc,2020.2.10,Win32,60,,,,,,,,,,1,,,,,,,,,,,,,,,,,,,,,,,,,,,,,,,,,,,,,,,,76,atar,,,1,1,0.600545,0,86,86,75,1,REAL,FAKE,,,,,,,,,,,,,,,,,,,,,
,,,,,,,60439d78a013a237855f2ac8,6057c54e64b0b4e5c128b4f9,605807d45e746ac201e09a3b,Spain,East coast,13 or older,no,2021-03-21_22h59.08.184,empathy_intonation_perc,2020.2.10,Win32,60,,,,,,,,,,1,,,,,,,,,,,,,,,,,,,,,,,,,,,,,,,,,,,,,,,,12,asesinato,,,0,0,1.049695,0,87,87,11,1,REAL,FAKE,,,,,,,,,,,,,,,,,,,,,
,,,,,,,60439d78a013a237855f2ac8,6057c54e64b0b4e5c128b4f9,605807d45e746ac201e09a3b,Spain,East coast,13 or older,no,2021-03-21_22h59.08.184,empathy_intonation_perc,2020.2.10,Win32,60,,,,,,,,,,1,,,,,,,,,,,,,,,,,,,,,,,,,,,,,,,,,,,,,,,,49,ganar,,,0,0,0.758975,0,88,88,48,1,REAL,FAKE,,,,,,,,,,,,,,,,,,,,,
,,,,,,,60439d78a013a237855f2ac8,6057c54e64b0b4e5c128b4f9,605807d45e746ac201e09a3b,Spain,East coast,13 or older,no,2021-03-21_22h59.08.184,empathy_intonation_perc,2020.2.10,Win32,60,,,,,,,,,,1,,,,,,,,,,,,,,,,,,,,,,,,,,,,,,,,,,,,,,,,67,cabello,,,1,1,0.546255,0,89,89,66,1,REAL,FAKE,,,,,,,,,,,,,,,,,,,,,
,,,,,,,60439d78a013a237855f2ac8,6057c54e64b0b4e5c128b4f9,605807d45e746ac201e09a3b,Spain,East coast,13 or older,no,2021-03-21_22h59.08.184,empathy_intonation_perc,2020.2.10,Win32,60,,,,,,,,,,,,,,,,,,,,,,,,,,,,,,,,,,,,,,,,,,,,,,,,,,,,,,,,,,,,,,,,4,1,9.354395,1,0,0,0,0,0,1,,,,,,,,,,,
,,,,,,,60439d78a013a237855f2ac8,6057c54e64b0b4e5c128b4f9,605807d45e746ac201e09a3b,Spain,East coast,13 or older,no,2021-03-21_22h59.08.184,empathy_intonation_perc,2020.2.10,Win32,60,,,,,,,,,,,,,,,,,,,,1,,,,,,,,,,,,,,,,,,,,,,,,,,,,,,,,,,,,,,,,,,,,,,,,,,,,,,2,0,0,0,0,1,I can easily tell if someone else wants to enter a conversation.,1,0,1,0
,,,,,,,60439d78a013a237855f2ac8,6057c54e64b0b4e5c128b4f9,605807d45e746ac201e09a3b,Spain,East coast,13 or older,no,2021-03-21_22h59.08.184,empathy_intonation_perc,2020.2.10,Win32,60,,,,,,,,,,,,,,,,,,,,2,,,,,,,,,,,,,,,,,,,,,,,,,,,,,,,,,,,,,,,,,,,,,,,,,,,,,,2,0,1,1,1,1,I prefer animals to humans.,0,1,0,0
,,,,,,,60439d78a013a237855f2ac8,6057c54e64b0b4e5c128b4f9,605807d45e746ac201e09a3b,Spain,East coast,13 or older,no,2021-03-21_22h59.08.184,empathy_intonation_perc,2020.2.10,Win32,60,,,,,,,,,,,,,,,,,,,,3,,,,,,,,,,,,,,,,,,,,,,,,,,,,,,,,,,,,,,,,,,,,,,,,,,,,,,1,0,2,2,2,1,I try to keep up with the current trends and fashions.,0,1,0,0
,,,,,,,60439d78a013a237855f2ac8,6057c54e64b0b4e5c128b4f9,605807d45e746ac201e09a3b,Spain,East coast,13 or older,no,2021-03-21_22h59.08.184,empathy_intonation_perc,2020.2.10,Win32,60,,,,,,,,,,,,,,,,,,,,4,,,,,,,,,,,,,,,,,,,,,,,,,,,,,,,,,,,,,,,,,,,,,,,,,,,,,,4,0,3,3,3,1,"I find it difficult to explain to others things that I understand easily, 
  when they dont understand it first time.",1,0,0,1
,,,,,,,60439d78a013a237855f2ac8,6057c54e64b0b4e5c128b4f9,605807d45e746ac201e09a3b,Spain,East coast,13 or older,no,2021-03-21_22h59.08.184,empathy_intonation_perc,2020.2.10,Win32,60,,,,,,,,,,,,,,,,,,,,5,,,,,,,,,,,,,,,,,,,,,,,,,,,,,,,,,,,,,,,,,,,,,,,,,,,,,,1,0,4,4,4,1,I dream most nights.,0,1,0,0
,,,,,,,60439d78a013a237855f2ac8,6057c54e64b0b4e5c128b4f9,605807d45e746ac201e09a3b,Spain,East coast,13 or older,no,2021-03-21_22h59.08.184,empathy_intonation_perc,2020.2.10,Win32,60,,,,,,,,,,,,,,,,,,,,6,,,,,,,,,,,,,,,,,,,,,,,,,,,,,,,,,,,,,,,,,,,,,,,,,,,,,,2,0,5,5,5,1,I really enjoy caring for other people.,1,0,1,0
,,,,,,,60439d78a013a237855f2ac8,6057c54e64b0b4e5c128b4f9,605807d45e746ac201e09a3b,Spain,East coast,13 or older,no,2021-03-21_22h59.08.184,empathy_intonation_perc,2020.2.10,Win32,60,,,,,,,,,,,,,,,,,,,,7,,,,,,,,,,,,,,,,,,,,,,,,,,,,,,,,,,,,,,,,,,,,,,,,,,,,,,3,0,6,6,6,1,I try to solve my own problems rather than discussing them with others.,0,1,0,0
,,,,,,,60439d78a013a237855f2ac8,6057c54e64b0b4e5c128b4f9,605807d45e746ac201e09a3b,Spain,East coast,13 or older,no,2021-03-21_22h59.08.184,empathy_intonation_perc,2020.2.10,Win32,60,,,,,,,,,,,,,,,,,,,,8,,,,,,,,,,,,,,,,,,,,,,,,,,,,,,,,,,,,,,,,,,,,,,,,,,,,,,5,0,7,7,7,1,I find it hard to know what to do in a social situation.,1,0,0,1
