instructions_2afc_loop.thisRepN,instructions_2afc_loop.thisTrialN,instructions_2afc_loop.thisN,instructions_2afc_loop.thisIndex,instructions_2afc_loop.ran,instructions_text,continue_text,participant,study_id,session,I am most familiar with Spanish from...*,What part of the US are you from?*,At what age did you begin learning Spanish?*,Are you proficient in any languages other than English/Spanish?*,date,expName,psychopyVersion,OS,frameRate,key_resp_2afc_practice.keys,key_resp_2afc_practice.corr,key_resp_2afc_practice.rt,trials_2afc_practice_loop.thisRepN,trials_2afc_practice_loop.thisTrialN,trials_2afc_practice_loop.thisN,trials_2afc_practice_loop.thisIndex,trials_2afc_practice_loop.ran,path,correct_response,the_col,key_resp_2afc_trial.keys,key_resp_2afc_trial.corr,key_resp_2afc_trial.rt,trials_2afc_loop.thisRepN,trials_2afc_loop.thisTrialN,trials_2afc_loop.thisN,trials_2afc_loop.thisIndex,trials_2afc_loop.ran,item_num,andalusian,argentine,castilian,chilean,cuban,mexican,peruvian,puertorican,key_resp_ac1.keys,key_resp_ac1.corr,key_resp_ac1.rt,ac1_loop.thisRepN,ac1_loop.thisTrialN,ac1_loop.thisN,ac1_loop.thisIndex,ac1_loop.ran,instructions_lextale_loop.thisRepN,instructions_lextale_loop.thisTrialN,instructions_lextale_loop.thisN,instructions_lextale_loop.thisIndex,instructions_lextale_loop.ran,key_resp_lextale_practice.keys,key_resp_lextale_practice.corr,key_resp_lextale_practice.rt,trials_lextale_practice_loop.thisRepN,trials_lextale_practice_loop.thisTrialN,trials_lextale_practice_loop.thisN,trials_lextale_practice_loop.thisIndex,trials_lextale_practice_loop.ran,stim,word,prac_button_real,prac_button_false,key_resp_lextale_trial.keys,key_resp_lextale_trial.corr,key_resp_lextale_trial.rt,trials_lextale_loop.thisRepN,trials_lextale_loop.thisTrialN,trials_lextale_loop.thisN,trials_lextale_loop.thisIndex,trials_lextale_loop.ran,button_real,button_false,key_resp_ac2.keys,key_resp_ac2.corr,key_resp_ac2.rt,check_pass,check_fails,ac2_loop.thisRepN,ac2_loop.thisTrialN,ac2_loop.thisN,ac2_loop.thisIndex,ac2_loop.ran,slider_eq_trial.response,trials_eq_loop.thisRepN,trials_eq_loop.thisTrialN,trials_eq_loop.thisN,trials_eq_loop.thisIndex,trials_eq_loop.ran,item,is_test_item,is_distractor,is_agree_score,is_disagree_score
0,0,0,0,1,"In the following task you are going to hear a series of utterances. 

  You will decide if the utterances sound like questions or not using your keyboard.",(press the spacebar to continue),60485c6bfddf0e195cb18b62,60568611ec04488a9e9da93b,6056b4895f7fbeb3e25c48f8,I am not familiar with Spanish,South,NA,no,2021-03-20_21h54.17.899,empathy_intonation_perc,2020.2.10,Win32,60,,,,,,,,,,,,,,,,,,,,,,,,,,,,,,,,,,,,,,,,,,,,,,,,,,,,,,,,,,,,,,,,,,,,,,,,,,,,,,,,,,,,
0,1,1,1,1,"If you believe the utterance is a question, type '1' (for 'yes') and if you do not 
  believe it is a question type '0' (for 'no').

  Let's practice a bit...",(press the spacebar to continue),60485c6bfddf0e195cb18b62,60568611ec04488a9e9da93b,6056b4895f7fbeb3e25c48f8,I am not familiar with Spanish,South,NA,no,2021-03-20_21h54.17.899,empathy_intonation_perc,2020.2.10,Win32,60,,,,,,,,,,,,,,,,,,,,,,,,,,,,,,,,,,,,,,,,,,,,,,,,,,,,,,,,,,,,,,,,,,,,,,,,,,,,,,,,,,,,
,,,,,,,60485c6bfddf0e195cb18b62,60568611ec04488a9e9da93b,6056b4895f7fbeb3e25c48f8,I am not familiar with Spanish,South,NA,no,2021-03-20_21h54.17.899,empathy_intonation_perc,2020.2.10,Win32,60,1,1,3.857235,0,0,0,1,1,./stim/wavs/argentine_question_filler_Mi-vecino-habla-mucho.wav,1,,,,,,,,,,,,,,,,,,,,,,,,,,,,,,,,,,,,,,,,,,,,,,,,,,,,,,,,,,,,,,,,,,,,,,,,,,
,,,,,,,60485c6bfddf0e195cb18b62,60568611ec04488a9e9da93b,6056b4895f7fbeb3e25c48f8,I am not familiar with Spanish,South,NA,no,2021-03-20_21h54.17.899,empathy_intonation_perc,2020.2.10,Win32,60,0,0,1.776045,0,1,1,3,1,./stim/wavs/mexican_question_filler_Felipe-no-tiene-contrasena.wav,1,,,,,,,,,,,,,,,,,,,,,,,,,,,,,,,,,,,,,,,,,,,,,,,,,,,,,,,,,,,,,,,,,,,,,,,,,,
,,,,,,,60485c6bfddf0e195cb18b62,60568611ec04488a9e9da93b,6056b4895f7fbeb3e25c48f8,I am not familiar with Spanish,South,NA,no,2021-03-20_21h54.17.899,empathy_intonation_perc,2020.2.10,Win32,60,0,1,1.64584,0,2,2,4,1,./stim/wavs/cuban_statement_filler_Cocinabas-por-la-noche.wav,0,,,,,,,,,,,,,,,,,,,,,,,,,,,,,,,,,,,,,,,,,,,,,,,,,,,,,,,,,,,,,,,,,,,,,,,,,,
,,,,,,,60485c6bfddf0e195cb18b62,60568611ec04488a9e9da93b,6056b4895f7fbeb3e25c48f8,I am not familiar with Spanish,South,NA,no,2021-03-20_21h54.17.899,empathy_intonation_perc,2020.2.10,Win32,60,0,1,1.77096,0,3,3,7,1,./stim/wavs/puertorican_statement_filler_La-nina-pinta-con-su-amiga.wav,0,,,,,,,,,,,,,,,,,,,,,,,,,,,,,,,,,,,,,,,,,,,,,,,,,,,,,,,,,,,,,,,,,,,,,,,,,,
,,,,,,,60485c6bfddf0e195cb18b62,60568611ec04488a9e9da93b,6056b4895f7fbeb3e25c48f8,I am not familiar with Spanish,South,NA,no,2021-03-20_21h54.17.899,empathy_intonation_perc,2020.2.10,Win32,60,0,1,2.67088,0,4,4,6,1,./stim/wavs/peruvian_statement_filler_El-nino-habla-con-su-madre.wav,0,,,,,,,,,,,,,,,,,,,,,,,,,,,,,,,,,,,,,,,,,,,,,,,,,,,,,,,,,,,,,,,,,,,,,,,,,,
,,,,,,,60485c6bfddf0e195cb18b62,60568611ec04488a9e9da93b,6056b4895f7fbeb3e25c48f8,I am not familiar with Spanish,South,NA,no,2021-03-20_21h54.17.899,empathy_intonation_perc,2020.2.10,Win32,60,0,1,2.15338,0,5,5,5,1,./stim/wavs/andalusian_statement_filler_Alberto-nunca-se-afeita.wav,0,,,,,,,,,,,,,,,,,,,,,,,,,,,,,,,,,,,,,,,,,,,,,,,,,,,,,,,,,,,,,,,,,,,,,,,,,,
,,,,,,,60485c6bfddf0e195cb18b62,60568611ec04488a9e9da93b,6056b4895f7fbeb3e25c48f8,I am not familiar with Spanish,South,NA,no,2021-03-20_21h54.17.899,empathy_intonation_perc,2020.2.10,Win32,60,0,0,3.91208,0,6,6,2,1,./stim/wavs/chilean_question_filler_Mi-padre-cantaba-bien.wav,1,,,,,,,,,,,,,,,,,,,,,,,,,,,,,,,,,,,,,,,,,,,,,,,,,,,,,,,,,,,,,,,,,,,,,,,,,,
,,,,,,,60485c6bfddf0e195cb18b62,60568611ec04488a9e9da93b,6056b4895f7fbeb3e25c48f8,I am not familiar with Spanish,South,NA,no,2021-03-20_21h54.17.899,empathy_intonation_perc,2020.2.10,Win32,60,1,1,2.17822,0,7,7,0,1,./stim/wavs/castilian_question_filler_Mi-esposo-conoce-al-chico.wav,1,,,,,,,,,,,,,,,,,,,,,,,,,,,,,,,,,,,,,,,,,,,,,,,,,,,,,,,,,,,,,,,,,,,,,,,,,,
,,,,,,,60485c6bfddf0e195cb18b62,60568611ec04488a9e9da93b,6056b4895f7fbeb3e25c48f8,I am not familiar with Spanish,South,NA,no,2021-03-20_21h54.17.899,empathy_intonation_perc,2020.2.10,Win32,60,,,,,,,,,,1,mexican,0,0,1.405585,0,0,0,50,1,51,./stim/wavs/andalusian_mismatch_interrogative-partial-wh_Cuando-miraba-la-luna.wav,./stim/wavs/argentine_mismatch_interrogative-partial-wh_Cuando-miraba-la-luna.wav,./stim/wavs/castilian_mismatch_interrogative-partial-wh_Cuando-miraba-la-luna.wav,./stim/wavs/chilean_mismatch_interrogative-partial-wh_Cuando-miraba-la-luna.wav,./stim/wavs/cuban_mismatch_interrogative-partial-wh_Cuando-miraba-la-luna.wav,./stim/wavs/mexican_mismatch_interrogative-partial-wh_Cuando-miraba-la-luna.wav,./stim/wavs/peruvian_mismatch_interrogative-partial-wh_Cuando-miraba-la-luna.wav,./stim/wavs/puertorican_mismatch_interrogative-partial-wh_Cuando-miraba-la-luna.wav,,,,,,,,,,,,,,,,,,,,,,,,,,,,,,,,,,,,,,,,,,,,,,,,,,,,,,,,
,,,,,,,60485c6bfddf0e195cb18b62,60568611ec04488a9e9da93b,6056b4895f7fbeb3e25c48f8,I am not familiar with Spanish,South,NA,no,2021-03-20_21h54.17.899,empathy_intonation_perc,2020.2.10,Win32,60,,,,,,,,,,0,andalusian,0,1,1.63137,0,1,1,3,1,4,./stim/wavs/andalusian_match_declarative-broad-focus_Emilio-ama-la-marcha.wav,./stim/wavs/argentine_match_declarative-broad-focus_Emilio-ama-la-marcha.wav,./stim/wavs/castilian_match_declarative-broad-focus_Emilio-ama-la-marcha.wav,./stim/wavs/chilean_match_declarative-broad-focus_Emilio-ama-la-marcha.wav,./stim/wavs/cuban_match_declarative-broad-focus_Emilio-ama-la-marcha.wav,./stim/wavs/mexican_match_declarative-broad-focus_Emilio-ama-la-marcha.wav,./stim/wavs/peruvian_match_declarative-broad-focus_Emilio-ama-la-marcha.wav,./stim/wavs/puertorican_match_declarative-broad-focus_Emilio-ama-la-marcha.wav,,,,,,,,,,,,,,,,,,,,,,,,,,,,,,,,,,,,,,,,,,,,,,,,,,,,,,,,
,,,,,,,60485c6bfddf0e195cb18b62,60568611ec04488a9e9da93b,6056b4895f7fbeb3e25c48f8,I am not familiar with Spanish,South,NA,no,2021-03-20_21h54.17.899,empathy_intonation_perc,2020.2.10,Win32,60,,,,,,,,,,0,mexican,0,1,1.476195,0,2,2,12,1,13,./stim/wavs/andalusian_match_declarative-narrow-focus_Manuela-vende-el-carro.wav,./stim/wavs/argentine_match_declarative-narrow-focus_Manuela-vende-el-carro.wav,./stim/wavs/castilian_match_declarative-narrow-focus_Manuela-vende-el-carro.wav,./stim/wavs/chilean_match_declarative-narrow-focus_Manuela-vende-el-carro.wav,./stim/wavs/cuban_match_declarative-narrow-focus_Manuela-vende-el-carro.wav,./stim/wavs/mexican_match_declarative-narrow-focus_Manuela-vende-el-carro.wav,./stim/wavs/peruvian_match_declarative-narrow-focus_Manuela-vende-el-carro.wav,./stim/wavs/puertorican_match_declarative-narrow-focus_Manuela-vende-el-carro.wav,,,,,,,,,,,,,,,,,,,,,,,,,,,,,,,,,,,,,,,,,,,,,,,,,,,,,,,,
,,,,,,,60485c6bfddf0e195cb18b62,60568611ec04488a9e9da93b,6056b4895f7fbeb3e25c48f8,I am not familiar with Spanish,South,NA,no,2021-03-20_21h54.17.899,empathy_intonation_perc,2020.2.10,Win32,60,,,,,,,,,,0,puertorican,0,1,1.50101,0,3,3,15,1,16,./stim/wavs/andalusian_match_declarative-narrow-focus_Marta-abre-el-regalo.wav,./stim/wavs/argentine_match_declarative-narrow-focus_Marta-abre-el-regalo.wav,./stim/wavs/castilian_match_declarative-narrow-focus_Marta-abre-el-regalo.wav,./stim/wavs/chilean_match_declarative-narrow-focus_Marta-abre-el-regalo.wav,./stim/wavs/cuban_match_declarative-narrow-focus_Marta-abre-el-regalo.wav,./stim/wavs/mexican_match_declarative-narrow-focus_Marta-abre-el-regalo.wav,./stim/wavs/peruvian_match_declarative-narrow-focus_Marta-abre-el-regalo.wav,./stim/wavs/puertorican_match_declarative-narrow-focus_Marta-abre-el-regalo.wav,,,,,,,,,,,,,,,,,,,,,,,,,,,,,,,,,,,,,,,,,,,,,,,,,,,,,,,,
,,,,,,,60485c6bfddf0e195cb18b62,60568611ec04488a9e9da93b,6056b4895f7fbeb3e25c48f8,I am not familiar with Spanish,South,NA,no,2021-03-20_21h54.17.899,empathy_intonation_perc,2020.2.10,Win32,60,,,,,,,,,,1,argentine,0,0,1.64119,0,4,4,22,1,23,./stim/wavs/andalusian_match_interrogative-partial-wh_Por-que-hablaba-del-agua.wav,./stim/wavs/argentine_match_interrogative-partial-wh_Por-que-hablaba-del-agua.wav,./stim/wavs/castilian_match_interrogative-partial-wh_Por-que-hablaba-del-agua.wav,./stim/wavs/chilean_match_interrogative-partial-wh_Por-que-hablaba-del-agua.wav,./stim/wavs/cuban_match_interrogative-partial-wh_Por-que-hablaba-del-agua.wav,./stim/wavs/mexican_match_interrogative-partial-wh_Por-que-hablaba-del-agua.wav,./stim/wavs/peruvian_match_interrogative-partial-wh_Por-que-hablaba-del-agua.wav,./stim/wavs/puertorican_match_interrogative-partial-wh_Por-que-hablaba-del-agua.wav,,,,,,,,,,,,,,,,,,,,,,,,,,,,,,,,,,,,,,,,,,,,,,,,,,,,,,,,
,,,,,,,60485c6bfddf0e195cb18b62,60568611ec04488a9e9da93b,6056b4895f7fbeb3e25c48f8,I am not familiar with Spanish,South,NA,no,2021-03-20_21h54.17.899,empathy_intonation_perc,2020.2.10,Win32,60,,,,,,,,,,1,argentine,1,1,1.60346,0,5,5,29,1,30,./stim/wavs/andalusian_match_interrogative-total-yn_Maria-bebe-el-vino.wav,./stim/wavs/argentine_match_interrogative-total-yn_Maria-bebe-el-vino.wav,./stim/wavs/castilian_match_interrogative-total-yn_Maria-bebe-el-vino.wav,./stim/wavs/chilean_match_interrogative-total-yn_Maria-bebe-el-vino.wav,./stim/wavs/cuban_match_interrogative-total-yn_Maria-bebe-el-vino.wav,./stim/wavs/mexican_match_interrogative-total-yn_Maria-bebe-el-vino.wav,./stim/wavs/peruvian_match_interrogative-total-yn_Maria-bebe-el-vino.wav,./stim/wavs/puertorican_match_interrogative-total-yn_Maria-bebe-el-vino.wav,,,,,,,,,,,,,,,,,,,,,,,,,,,,,,,,,,,,,,,,,,,,,,,,,,,,,,,,
,,,,,,,60485c6bfddf0e195cb18b62,60568611ec04488a9e9da93b,6056b4895f7fbeb3e25c48f8,I am not familiar with Spanish,South,NA,no,2021-03-20_21h54.17.899,empathy_intonation_perc,2020.2.10,Win32,60,,,,,,,,,,1,castilian,1,1,1.6077,0,6,6,51,1,52,./stim/wavs/andalusian_mismatch_interrogative-partial-wh_Por-que-desayuna-muy-bien.wav,./stim/wavs/argentine_mismatch_interrogative-partial-wh_Por-que-desayuna-muy-bien.wav,./stim/wavs/castilian_mismatch_interrogative-partial-wh_Por-que-desayuna-muy-bien.wav,./stim/wavs/chilean_mismatch_interrogative-partial-wh_Por-que-desayuna-muy-bien.wav,./stim/wavs/cuban_mismatch_interrogative-partial-wh_Por-que-desayuna-muy-bien.wav,./stim/wavs/mexican_mismatch_interrogative-partial-wh_Por-que-desayuna-muy-bien.wav,./stim/wavs/peruvian_mismatch_interrogative-partial-wh_Por-que-desayuna-muy-bien.wav,./stim/wavs/puertorican_mismatch_interrogative-partial-wh_Por-que-desayuna-muy-bien.wav,,,,,,,,,,,,,,,,,,,,,,,,,,,,,,,,,,,,,,,,,,,,,,,,,,,,,,,,
,,,,,,,60485c6bfddf0e195cb18b62,60568611ec04488a9e9da93b,6056b4895f7fbeb3e25c48f8,I am not familiar with Spanish,South,NA,no,2021-03-20_21h54.17.899,empathy_intonation_perc,2020.2.10,Win32,60,,,,,,,,,,0,peruvian,0,1,1.8004,0,7,7,36,1,37,./stim/wavs/andalusian_mismatch_declarative-broad-focus_La-nina-lava-el-plato.wav,./stim/wavs/argentine_mismatch_declarative-broad-focus_La-nina-lava-el-plato.wav,./stim/wavs/castilian_mismatch_declarative-broad-focus_La-nina-lava-el-plato.wav,./stim/wavs/chilean_mismatch_declarative-broad-focus_La-nina-lava-el-plato.wav,./stim/wavs/cuban_mismatch_declarative-broad-focus_La-nina-lava-el-plato.wav,./stim/wavs/mexican_mismatch_declarative-broad-focus_La-nina-lava-el-plato.wav,./stim/wavs/peruvian_mismatch_declarative-broad-focus_La-nina-lava-el-plato.wav,./stim/wavs/puertorican_mismatch_declarative-broad-focus_La-nina-lava-el-plato.wav,,,,,,,,,,,,,,,,,,,,,,,,,,,,,,,,,,,,,,,,,,,,,,,,,,,,,,,,
,,,,,,,60485c6bfddf0e195cb18b62,60568611ec04488a9e9da93b,6056b4895f7fbeb3e25c48f8,I am not familiar with Spanish,South,NA,no,2021-03-20_21h54.17.899,empathy_intonation_perc,2020.2.10,Win32,60,,,,,,,,,,1,andalusian,0,0,1.87686,0,8,8,19,1,20,./stim/wavs/andalusian_match_interrogative-partial-wh_Cuando-vendia-el-carro.wav,./stim/wavs/argentine_match_interrogative-partial-wh_Cuando-vendia-el-carro.wav,./stim/wavs/castilian_match_interrogative-partial-wh_Cuando-vendia-el-carro.wav,./stim/wavs/chilean_match_interrogative-partial-wh_Cuando-vendia-el-carro.wav,./stim/wavs/cuban_match_interrogative-partial-wh_Cuando-vendia-el-carro.wav,./stim/wavs/mexican_match_interrogative-partial-wh_Cuando-vendia-el-carro.wav,./stim/wavs/peruvian_match_interrogative-partial-wh_Cuando-vendia-el-carro.wav,./stim/wavs/puertorican_match_interrogative-partial-wh_Cuando-vendia-el-carro.wav,,,,,,,,,,,,,,,,,,,,,,,,,,,,,,,,,,,,,,,,,,,,,,,,,,,,,,,,
,,,,,,,60485c6bfddf0e195cb18b62,60568611ec04488a9e9da93b,6056b4895f7fbeb3e25c48f8,I am not familiar with Spanish,South,NA,no,2021-03-20_21h54.17.899,empathy_intonation_perc,2020.2.10,Win32,60,,,,,,,,,,1,puertorican,0,0,1.721055,0,9,9,55,1,56,./stim/wavs/andalusian_mismatch_interrogative-partial-wh_Por-que-vivia-en-Paris.wav,./stim/wavs/argentine_mismatch_interrogative-partial-wh_Por-que-vivia-en-Paris.wav,./stim/wavs/castilian_mismatch_interrogative-partial-wh_Por-que-vivia-en-Paris.wav,./stim/wavs/chilean_mismatch_interrogative-partial-wh_Por-que-vivia-en-Paris.wav,./stim/wavs/cuban_mismatch_interrogative-partial-wh_Por-que-vivia-en-Paris.wav,./stim/wavs/mexican_mismatch_interrogative-partial-wh_Por-que-vivia-en-Paris.wav,./stim/wavs/peruvian_mismatch_interrogative-partial-wh_Por-que-vivia-en-Paris.wav,./stim/wavs/puertorican_mismatch_interrogative-partial-wh_Por-que-vivia-en-Paris.wav,,,,,,,,,,,,,,,,,,,,,,,,,,,,,,,,,,,,,,,,,,,,,,,,,,,,,,,,
,,,,,,,60485c6bfddf0e195cb18b62,60568611ec04488a9e9da93b,6056b4895f7fbeb3e25c48f8,I am not familiar with Spanish,South,NA,no,2021-03-20_21h54.17.899,empathy_intonation_perc,2020.2.10,Win32,60,,,,,,,,,,1,puertorican,0,0,1.93395,0,10,10,30,1,31,./stim/wavs/andalusian_match_interrogative-total-yn_Mariano-habla-del-tiempo.wav,./stim/wavs/argentine_match_interrogative-total-yn_Mariano-habla-del-tiempo.wav,./stim/wavs/castilian_match_interrogative-total-yn_Mariano-habla-del-tiempo.wav,./stim/wavs/chilean_match_interrogative-total-yn_Mariano-habla-del-tiempo.wav,./stim/wavs/cuban_match_interrogative-total-yn_Mariano-habla-del-tiempo.wav,./stim/wavs/mexican_match_interrogative-total-yn_Mariano-habla-del-tiempo.wav,./stim/wavs/peruvian_match_interrogative-total-yn_Mariano-habla-del-tiempo.wav,./stim/wavs/puertorican_match_interrogative-total-yn_Mariano-habla-del-tiempo.wav,,,,,,,,,,,,,,,,,,,,,,,,,,,,,,,,,,,,,,,,,,,,,,,,,,,,,,,,
,,,,,,,60485c6bfddf0e195cb18b62,60568611ec04488a9e9da93b,6056b4895f7fbeb3e25c48f8,I am not familiar with Spanish,South,NA,no,2021-03-20_21h54.17.899,empathy_intonation_perc,2020.2.10,Win32,60,,,,,,,,,,1,peruvian,1,1,2.203865,0,11,11,16,1,17,./stim/wavs/andalusian_match_interrogative-partial-wh_Cuando-bebia-el-vino.wav,./stim/wavs/argentine_match_interrogative-partial-wh_Cuando-bebia-el-vino.wav,./stim/wavs/castilian_match_interrogative-partial-wh_Cuando-bebia-el-vino.wav,./stim/wavs/chilean_match_interrogative-partial-wh_Cuando-bebia-el-vino.wav,./stim/wavs/cuban_match_interrogative-partial-wh_Cuando-bebia-el-vino.wav,./stim/wavs/mexican_match_interrogative-partial-wh_Cuando-bebia-el-vino.wav,./stim/wavs/peruvian_match_interrogative-partial-wh_Cuando-bebia-el-vino.wav,./stim/wavs/puertorican_match_interrogative-partial-wh_Cuando-bebia-el-vino.wav,,,,,,,,,,,,,,,,,,,,,,,,,,,,,,,,,,,,,,,,,,,,,,,,,,,,,,,,
,,,,,,,60485c6bfddf0e195cb18b62,60568611ec04488a9e9da93b,6056b4895f7fbeb3e25c48f8,I am not familiar with Spanish,South,NA,no,2021-03-20_21h54.17.899,empathy_intonation_perc,2020.2.10,Win32,60,,,,,,,,,,0,puertorican,0,1,1.78629,0,12,12,33,1,34,./stim/wavs/andalusian_mismatch_declarative-broad-focus_El-hombre-mira-la-luna.wav,./stim/wavs/argentine_mismatch_declarative-broad-focus_El-hombre-mira-la-luna.wav,./stim/wavs/castilian_mismatch_declarative-broad-focus_El-hombre-mira-la-luna.wav,./stim/wavs/chilean_mismatch_declarative-broad-focus_El-hombre-mira-la-luna.wav,./stim/wavs/cuban_mismatch_declarative-broad-focus_El-hombre-mira-la-luna.wav,./stim/wavs/mexican_mismatch_declarative-broad-focus_El-hombre-mira-la-luna.wav,./stim/wavs/peruvian_mismatch_declarative-broad-focus_El-hombre-mira-la-luna.wav,./stim/wavs/puertorican_mismatch_declarative-broad-focus_El-hombre-mira-la-luna.wav,,,,,,,,,,,,,,,,,,,,,,,,,,,,,,,,,,,,,,,,,,,,,,,,,,,,,,,,
,,,,,,,60485c6bfddf0e195cb18b62,60568611ec04488a9e9da93b,6056b4895f7fbeb3e25c48f8,I am not familiar with Spanish,South,NA,no,2021-03-20_21h54.17.899,empathy_intonation_perc,2020.2.10,Win32,60,,,,,,,,,,0,andalusian,0,1,1.889695,0,13,13,32,1,33,./stim/wavs/andalusian_mismatch_declarative-broad-focus_El-bebe-comia-muy-bien.wav,./stim/wavs/argentine_mismatch_declarative-broad-focus_El-bebe-comia-muy-bien.wav,./stim/wavs/castilian_mismatch_declarative-broad-focus_El-bebe-comia-muy-bien.wav,./stim/wavs/chilean_mismatch_declarative-broad-focus_El-bebe-comia-muy-bien.wav,./stim/wavs/cuban_mismatch_declarative-broad-focus_El-bebe-comia-muy-bien.wav,./stim/wavs/mexican_mismatch_declarative-broad-focus_El-bebe-comia-muy-bien.wav,./stim/wavs/peruvian_mismatch_declarative-broad-focus_El-bebe-comia-muy-bien.wav,./stim/wavs/puertorican_mismatch_declarative-broad-focus_El-bebe-comia-muy-bien.wav,,,,,,,,,,,,,,,,,,,,,,,,,,,,,,,,,,,,,,,,,,,,,,,,,,,,,,,,
,,,,,,,60485c6bfddf0e195cb18b62,60568611ec04488a9e9da93b,6056b4895f7fbeb3e25c48f8,I am not familiar with Spanish,South,NA,no,2021-03-20_21h54.17.899,empathy_intonation_perc,2020.2.10,Win32,60,,,,,,,,,,1,puertorican,0,0,1.614955,0,14,14,63,1,64,./stim/wavs/andalusian_mismatch_interrogative-total-yn_Mi-tia-odia-la-lluvia.wav,./stim/wavs/argentine_mismatch_interrogative-total-yn_Mi-tia-odia-la-lluvia.wav,./stim/wavs/castilian_mismatch_interrogative-total-yn_Mi-tia-odia-la-lluvia.wav,./stim/wavs/chilean_mismatch_interrogative-total-yn_Mi-tia-odia-la-lluvia.wav,./stim/wavs/cuban_mismatch_interrogative-total-yn_Mi-tia-odia-la-lluvia.wav,./stim/wavs/mexican_mismatch_interrogative-total-yn_Mi-tia-odia-la-lluvia.wav,./stim/wavs/peruvian_mismatch_interrogative-total-yn_Mi-tia-odia-la-lluvia.wav,./stim/wavs/puertorican_mismatch_interrogative-total-yn_Mi-tia-odia-la-lluvia.wav,,,,,,,,,,,,,,,,,,,,,,,,,,,,,,,,,,,,,,,,,,,,,,,,,,,,,,,,
,,,,,,,60485c6bfddf0e195cb18b62,60568611ec04488a9e9da93b,6056b4895f7fbeb3e25c48f8,I am not familiar with Spanish,South,NA,no,2021-03-20_21h54.17.899,empathy_intonation_perc,2020.2.10,Win32,60,,,,,,,,,,0,chilean,0,1,1.892,0,15,15,6,1,7,./stim/wavs/andalusian_match_declarative-broad-focus_Mariano-habla-del-tiempo.wav,./stim/wavs/argentine_match_declarative-broad-focus_Mariano-habla-del-tiempo.wav,./stim/wavs/castilian_match_declarative-broad-focus_Mariano-habla-del-tiempo.wav,./stim/wavs/chilean_match_declarative-broad-focus_Mariano-habla-del-tiempo.wav,./stim/wavs/cuban_match_declarative-broad-focus_Mariano-habla-del-tiempo.wav,./stim/wavs/mexican_match_declarative-broad-focus_Mariano-habla-del-tiempo.wav,./stim/wavs/peruvian_match_declarative-broad-focus_Mariano-habla-del-tiempo.wav,./stim/wavs/puertorican_match_declarative-broad-focus_Mariano-habla-del-tiempo.wav,,,,,,,,,,,,,,,,,,,,,,,,,,,,,,,,,,,,,,,,,,,,,,,,,,,,,,,,
,,,,,,,60485c6bfddf0e195cb18b62,60568611ec04488a9e9da93b,6056b4895f7fbeb3e25c48f8,I am not familiar with Spanish,South,NA,no,2021-03-20_21h54.17.899,empathy_intonation_perc,2020.2.10,Win32,60,,,,,,,,,,0,mexican,0,1,1.76162,0,16,16,37,1,38,./stim/wavs/andalusian_mismatch_declarative-broad-focus_Mi-madre-come-la-fruta.wav,./stim/wavs/argentine_mismatch_declarative-broad-focus_Mi-madre-come-la-fruta.wav,./stim/wavs/castilian_mismatch_declarative-broad-focus_Mi-madre-come-la-fruta.wav,./stim/wavs/chilean_mismatch_declarative-broad-focus_Mi-madre-come-la-fruta.wav,./stim/wavs/cuban_mismatch_declarative-broad-focus_Mi-madre-come-la-fruta.wav,./stim/wavs/mexican_mismatch_declarative-broad-focus_Mi-madre-come-la-fruta.wav,./stim/wavs/peruvian_mismatch_declarative-broad-focus_Mi-madre-come-la-fruta.wav,./stim/wavs/puertorican_mismatch_declarative-broad-focus_Mi-madre-come-la-fruta.wav,,,,,,,,,,,,,,,,,,,,,,,,,,,,,,,,,,,,,,,,,,,,,,,,,,,,,,,,
,,,,,,,60485c6bfddf0e195cb18b62,60568611ec04488a9e9da93b,6056b4895f7fbeb3e25c48f8,I am not familiar with Spanish,South,NA,no,2021-03-20_21h54.17.899,empathy_intonation_perc,2020.2.10,Win32,60,,,,,,,,,,0,chilean,0,1,1.814465,0,17,17,41,1,42,./stim/wavs/andalusian_mismatch_declarative-narrow-focus_El-hombre-mira-la-luna.wav,./stim/wavs/argentine_mismatch_declarative-narrow-focus_El-hombre-mira-la-luna.wav,./stim/wavs/castilian_mismatch_declarative-narrow-focus_El-hombre-mira-la-luna.wav,./stim/wavs/chilean_mismatch_declarative-narrow-focus_El-hombre-mira-la-luna.wav,./stim/wavs/cuban_mismatch_declarative-narrow-focus_El-hombre-mira-la-luna.wav,./stim/wavs/mexican_mismatch_declarative-narrow-focus_El-hombre-mira-la-luna.wav,./stim/wavs/peruvian_mismatch_declarative-narrow-focus_El-hombre-mira-la-luna.wav,./stim/wavs/puertorican_mismatch_declarative-narrow-focus_El-hombre-mira-la-luna.wav,,,,,,,,,,,,,,,,,,,,,,,,,,,,,,,,,,,,,,,,,,,,,,,,,,,,,,,,
,,,,,,,60485c6bfddf0e195cb18b62,60568611ec04488a9e9da93b,6056b4895f7fbeb3e25c48f8,I am not familiar with Spanish,South,NA,no,2021-03-20_21h54.17.899,empathy_intonation_perc,2020.2.10,Win32,60,,,,,,,,,,0,andalusian,0,1,1.85112,0,18,18,7,1,8,./stim/wavs/andalusian_match_declarative-broad-focus_Marta-abre-el-regalo.wav,./stim/wavs/argentine_match_declarative-broad-focus_Marta-abre-el-regalo.wav,./stim/wavs/castilian_match_declarative-broad-focus_Marta-abre-el-regalo.wav,./stim/wavs/chilean_match_declarative-broad-focus_Marta-abre-el-regalo.wav,./stim/wavs/cuban_match_declarative-broad-focus_Marta-abre-el-regalo.wav,./stim/wavs/mexican_match_declarative-broad-focus_Marta-abre-el-regalo.wav,./stim/wavs/peruvian_match_declarative-broad-focus_Marta-abre-el-regalo.wav,./stim/wavs/puertorican_match_declarative-broad-focus_Marta-abre-el-regalo.wav,,,,,,,,,,,,,,,,,,,,,,,,,,,,,,,,,,,,,,,,,,,,,,,,,,,,,,,,
,,,,,,,60485c6bfddf0e195cb18b62,60568611ec04488a9e9da93b,6056b4895f7fbeb3e25c48f8,I am not familiar with Spanish,South,NA,no,2021-03-20_21h54.17.899,empathy_intonation_perc,2020.2.10,Win32,60,,,,,,,,,,1,andalusian,1,1,1.578025,0,19,19,61,1,62,./stim/wavs/andalusian_mismatch_interrogative-total-yn_Mi-madre-come-la-fruta.wav,./stim/wavs/argentine_mismatch_interrogative-total-yn_Mi-madre-come-la-fruta.wav,./stim/wavs/castilian_mismatch_interrogative-total-yn_Mi-madre-come-la-fruta.wav,./stim/wavs/chilean_mismatch_interrogative-total-yn_Mi-madre-come-la-fruta.wav,./stim/wavs/cuban_mismatch_interrogative-total-yn_Mi-madre-come-la-fruta.wav,./stim/wavs/mexican_mismatch_interrogative-total-yn_Mi-madre-come-la-fruta.wav,./stim/wavs/peruvian_mismatch_interrogative-total-yn_Mi-madre-come-la-fruta.wav,./stim/wavs/puertorican_mismatch_interrogative-total-yn_Mi-madre-come-la-fruta.wav,,,,,,,,,,,,,,,,,,,,,,,,,,,,,,,,,,,,,,,,,,,,,,,,,,,,,,,,
,,,,,,,60485c6bfddf0e195cb18b62,60568611ec04488a9e9da93b,6056b4895f7fbeb3e25c48f8,I am not familiar with Spanish,South,NA,no,2021-03-20_21h54.17.899,empathy_intonation_perc,2020.2.10,Win32,60,,,,,,,,,,1,chilean,0,0,2.347765,0,20,20,52,1,53,./stim/wavs/andalusian_mismatch_interrogative-partial-wh_Por-que-odiaba-la-lluvia.wav,./stim/wavs/argentine_mismatch_interrogative-partial-wh_Por-que-odiaba-la-lluvia.wav,./stim/wavs/castilian_mismatch_interrogative-partial-wh_Por-que-odiaba-la-lluvia.wav,./stim/wavs/chilean_mismatch_interrogative-partial-wh_Por-que-odiaba-la-lluvia.wav,./stim/wavs/cuban_mismatch_interrogative-partial-wh_Por-que-odiaba-la-lluvia.wav,./stim/wavs/mexican_mismatch_interrogative-partial-wh_Por-que-odiaba-la-lluvia.wav,./stim/wavs/peruvian_mismatch_interrogative-partial-wh_Por-que-odiaba-la-lluvia.wav,./stim/wavs/puertorican_mismatch_interrogative-partial-wh_Por-que-odiaba-la-lluvia.wav,,,,,,,,,,,,,,,,,,,,,,,,,,,,,,,,,,,,,,,,,,,,,,,,,,,,,,,,
,,,,,,,60485c6bfddf0e195cb18b62,60568611ec04488a9e9da93b,6056b4895f7fbeb3e25c48f8,I am not familiar with Spanish,South,NA,no,2021-03-20_21h54.17.899,empathy_intonation_perc,2020.2.10,Win32,60,,,,,,,,,,1,castilian,0,0,1.797095,0,21,21,26,1,27,./stim/wavs/andalusian_match_interrogative-total-yn_David-leia-el-libro.wav,./stim/wavs/argentine_match_interrogative-total-yn_David-leia-el-libro.wav,./stim/wavs/castilian_match_interrogative-total-yn_David-leia-el-libro.wav,./stim/wavs/chilean_match_interrogative-total-yn_David-leia-el-libro.wav,./stim/wavs/cuban_match_interrogative-total-yn_David-leia-el-libro.wav,./stim/wavs/mexican_match_interrogative-total-yn_David-leia-el-libro.wav,./stim/wavs/peruvian_match_interrogative-total-yn_David-leia-el-libro.wav,./stim/wavs/puertorican_match_interrogative-total-yn_David-leia-el-libro.wav,,,,,,,,,,,,,,,,,,,,,,,,,,,,,,,,,,,,,,,,,,,,,,,,,,,,,,,,
,,,,,,,60485c6bfddf0e195cb18b62,60568611ec04488a9e9da93b,6056b4895f7fbeb3e25c48f8,I am not familiar with Spanish,South,NA,no,2021-03-20_21h54.17.899,empathy_intonation_perc,2020.2.10,Win32,60,,,,,,,,,,0,mexican,0,1,1.529195,0,22,22,8,1,9,./stim/wavs/andalusian_match_declarative-narrow-focus_Ana-lleva-el-abrigo.wav,./stim/wavs/argentine_match_declarative-narrow-focus_Ana-lleva-el-abrigo.wav,./stim/wavs/castilian_match_declarative-narrow-focus_Ana-lleva-el-abrigo.wav,./stim/wavs/chilean_match_declarative-narrow-focus_Ana-lleva-el-abrigo.wav,./stim/wavs/cuban_match_declarative-narrow-focus_Ana-lleva-el-abrigo.wav,./stim/wavs/mexican_match_declarative-narrow-focus_Ana-lleva-el-abrigo.wav,./stim/wavs/peruvian_match_declarative-narrow-focus_Ana-lleva-el-abrigo.wav,./stim/wavs/puertorican_match_declarative-narrow-focus_Ana-lleva-el-abrigo.wav,,,,,,,,,,,,,,,,,,,,,,,,,,,,,,,,,,,,,,,,,,,,,,,,,,,,,,,,
,,,,,,,60485c6bfddf0e195cb18b62,60568611ec04488a9e9da93b,6056b4895f7fbeb3e25c48f8,I am not familiar with Spanish,South,NA,no,2021-03-20_21h54.17.899,empathy_intonation_perc,2020.2.10,Win32,60,,,,,,,,,,1,peruvian,0,0,2.65862,0,23,23,58,1,59,./stim/wavs/andalusian_mismatch_interrogative-total-yn_El-nino-oye-el-rio.wav,./stim/wavs/argentine_mismatch_interrogative-total-yn_El-nino-oye-el-rio.wav,./stim/wavs/castilian_mismatch_interrogative-total-yn_El-nino-oye-el-rio.wav,./stim/wavs/chilean_mismatch_interrogative-total-yn_El-nino-oye-el-rio.wav,./stim/wavs/cuban_mismatch_interrogative-total-yn_El-nino-oye-el-rio.wav,./stim/wavs/mexican_mismatch_interrogative-total-yn_El-nino-oye-el-rio.wav,./stim/wavs/peruvian_mismatch_interrogative-total-yn_El-nino-oye-el-rio.wav,./stim/wavs/puertorican_mismatch_interrogative-total-yn_El-nino-oye-el-rio.wav,,,,,,,,,,,,,,,,,,,,,,,,,,,,,,,,,,,,,,,,,,,,,,,,,,,,,,,,
,,,,,,,60485c6bfddf0e195cb18b62,60568611ec04488a9e9da93b,6056b4895f7fbeb3e25c48f8,I am not familiar with Spanish,South,NA,no,2021-03-20_21h54.17.899,empathy_intonation_perc,2020.2.10,Win32,60,,,,,,,,,,0,puertorican,1,0,2.730985,0,24,24,13,1,14,./stim/wavs/andalusian_match_declarative-narrow-focus_Maria-bebe-el-vino.wav,./stim/wavs/argentine_match_declarative-narrow-focus_Maria-bebe-el-vino.wav,./stim/wavs/castilian_match_declarative-narrow-focus_Maria-bebe-el-vino.wav,./stim/wavs/chilean_match_declarative-narrow-focus_Maria-bebe-el-vino.wav,./stim/wavs/cuban_match_declarative-narrow-focus_Maria-bebe-el-vino.wav,./stim/wavs/mexican_match_declarative-narrow-focus_Maria-bebe-el-vino.wav,./stim/wavs/peruvian_match_declarative-narrow-focus_Maria-bebe-el-vino.wav,./stim/wavs/puertorican_match_declarative-narrow-focus_Maria-bebe-el-vino.wav,,,,,,,,,,,,,,,,,,,,,,,,,,,,,,,,,,,,,,,,,,,,,,,,,,,,,,,,
,,,,,,,60485c6bfddf0e195cb18b62,60568611ec04488a9e9da93b,6056b4895f7fbeb3e25c48f8,I am not familiar with Spanish,South,NA,no,2021-03-20_21h54.17.899,empathy_intonation_perc,2020.2.10,Win32,60,,,,,,,,,,1,castilian,0,0,1.852305,0,25,25,24,1,25,./stim/wavs/andalusian_match_interrogative-total-yn_Ana-lleva-el-abrigo.wav,./stim/wavs/argentine_match_interrogative-total-yn_Ana-lleva-el-abrigo.wav,./stim/wavs/castilian_match_interrogative-total-yn_Ana-lleva-el-abrigo.wav,./stim/wavs/chilean_match_interrogative-total-yn_Ana-lleva-el-abrigo.wav,./stim/wavs/cuban_match_interrogative-total-yn_Ana-lleva-el-abrigo.wav,./stim/wavs/mexican_match_interrogative-total-yn_Ana-lleva-el-abrigo.wav,./stim/wavs/peruvian_match_interrogative-total-yn_Ana-lleva-el-abrigo.wav,./stim/wavs/puertorican_match_interrogative-total-yn_Ana-lleva-el-abrigo.wav,,,,,,,,,,,,,,,,,,,,,,,,,,,,,,,,,,,,,,,,,,,,,,,,,,,,,,,,
,,,,,,,60485c6bfddf0e195cb18b62,60568611ec04488a9e9da93b,6056b4895f7fbeb3e25c48f8,I am not familiar with Spanish,South,NA,no,2021-03-20_21h54.17.899,empathy_intonation_perc,2020.2.10,Win32,60,,,,,,,,,,1,peruvian,1,1,2.558915,0,26,26,27,1,28,./stim/wavs/andalusian_match_interrogative-total-yn_Emilio-ama-la-marcha.wav,./stim/wavs/argentine_match_interrogative-total-yn_Emilio-ama-la-marcha.wav,./stim/wavs/castilian_match_interrogative-total-yn_Emilio-ama-la-marcha.wav,./stim/wavs/chilean_match_interrogative-total-yn_Emilio-ama-la-marcha.wav,./stim/wavs/cuban_match_interrogative-total-yn_Emilio-ama-la-marcha.wav,./stim/wavs/mexican_match_interrogative-total-yn_Emilio-ama-la-marcha.wav,./stim/wavs/peruvian_match_interrogative-total-yn_Emilio-ama-la-marcha.wav,./stim/wavs/puertorican_match_interrogative-total-yn_Emilio-ama-la-marcha.wav,,,,,,,,,,,,,,,,,,,,,,,,,,,,,,,,,,,,,,,,,,,,,,,,,,,,,,,,
,,,,,,,60485c6bfddf0e195cb18b62,60568611ec04488a9e9da93b,6056b4895f7fbeb3e25c48f8,I am not familiar with Spanish,South,NA,no,2021-03-20_21h54.17.899,empathy_intonation_perc,2020.2.10,Win32,60,,,,,,,,,,1,cuban,0,0,1.69549,0,27,27,20,1,21,./stim/wavs/andalusian_match_interrogative-partial-wh_Por-que-abre-el-regalo.wav,./stim/wavs/argentine_match_interrogative-partial-wh_Por-que-abre-el-regalo.wav,./stim/wavs/castilian_match_interrogative-partial-wh_Por-que-abre-el-regalo.wav,./stim/wavs/chilean_match_interrogative-partial-wh_Por-que-abre-el-regalo.wav,./stim/wavs/cuban_match_interrogative-partial-wh_Por-que-abre-el-regalo.wav,./stim/wavs/mexican_match_interrogative-partial-wh_Por-que-abre-el-regalo.wav,./stim/wavs/peruvian_match_interrogative-partial-wh_Por-que-abre-el-regalo.wav,./stim/wavs/puertorican_match_interrogative-partial-wh_Por-que-abre-el-regalo.wav,,,,,,,,,,,,,,,,,,,,,,,,,,,,,,,,,,,,,,,,,,,,,,,,,,,,,,,,
,,,,,,,60485c6bfddf0e195cb18b62,60568611ec04488a9e9da93b,6056b4895f7fbeb3e25c48f8,I am not familiar with Spanish,South,NA,no,2021-03-20_21h54.17.899,empathy_intonation_perc,2020.2.10,Win32,60,,,,,,,,,,0,peruvian,1,0,2.00722,0,28,28,43,1,44,./stim/wavs/andalusian_mismatch_declarative-narrow-focus_La-maestra-vive-en-Paris.wav,./stim/wavs/argentine_mismatch_declarative-narrow-focus_La-maestra-vive-en-Paris.wav,./stim/wavs/castilian_mismatch_declarative-narrow-focus_La-maestra-vive-en-Paris.wav,./stim/wavs/chilean_mismatch_declarative-narrow-focus_La-maestra-vive-en-Paris.wav,./stim/wavs/cuban_mismatch_declarative-narrow-focus_La-maestra-vive-en-Paris.wav,./stim/wavs/mexican_mismatch_declarative-narrow-focus_La-maestra-vive-en-Paris.wav,./stim/wavs/peruvian_mismatch_declarative-narrow-focus_La-maestra-vive-en-Paris.wav,./stim/wavs/puertorican_mismatch_declarative-narrow-focus_La-maestra-vive-en-Paris.wav,,,,,,,,,,,,,,,,,,,,,,,,,,,,,,,,,,,,,,,,,,,,,,,,,,,,,,,,
,,,,,,,60485c6bfddf0e195cb18b62,60568611ec04488a9e9da93b,6056b4895f7fbeb3e25c48f8,I am not familiar with Spanish,South,NA,no,2021-03-20_21h54.17.899,empathy_intonation_perc,2020.2.10,Win32,60,,,,,,,,,,0,mexican,0,1,2.125785,0,29,29,11,1,12,./stim/wavs/andalusian_match_declarative-narrow-focus_Emilio-ama-la-marcha.wav,./stim/wavs/argentine_match_declarative-narrow-focus_Emilio-ama-la-marcha.wav,./stim/wavs/castilian_match_declarative-narrow-focus_Emilio-ama-la-marcha.wav,./stim/wavs/chilean_match_declarative-narrow-focus_Emilio-ama-la-marcha.wav,./stim/wavs/cuban_match_declarative-narrow-focus_Emilio-ama-la-marcha.wav,./stim/wavs/mexican_match_declarative-narrow-focus_Emilio-ama-la-marcha.wav,./stim/wavs/peruvian_match_declarative-narrow-focus_Emilio-ama-la-marcha.wav,./stim/wavs/puertorican_match_declarative-narrow-focus_Emilio-ama-la-marcha.wav,,,,,,,,,,,,,,,,,,,,,,,,,,,,,,,,,,,,,,,,,,,,,,,,,,,,,,,,
,,,,,,,60485c6bfddf0e195cb18b62,60568611ec04488a9e9da93b,6056b4895f7fbeb3e25c48f8,I am not familiar with Spanish,South,NA,no,2021-03-20_21h54.17.899,empathy_intonation_perc,2020.2.10,Win32,60,,,,,,,,,,1,puertorican,0,0,2.189595,0,30,30,25,1,26,./stim/wavs/andalusian_match_interrogative-total-yn_Daniel-iba-a-Bolivia.wav,./stim/wavs/argentine_match_interrogative-total-yn_Daniel-iba-a-Bolivia.wav,./stim/wavs/castilian_match_interrogative-total-yn_Daniel-iba-a-Bolivia.wav,./stim/wavs/chilean_match_interrogative-total-yn_Daniel-iba-a-Bolivia.wav,./stim/wavs/cuban_match_interrogative-total-yn_Daniel-iba-a-Bolivia.wav,./stim/wavs/mexican_match_interrogative-total-yn_Daniel-iba-a-Bolivia.wav,./stim/wavs/peruvian_match_interrogative-total-yn_Daniel-iba-a-Bolivia.wav,./stim/wavs/puertorican_match_interrogative-total-yn_Daniel-iba-a-Bolivia.wav,,,,,,,,,,,,,,,,,,,,,,,,,,,,,,,,,,,,,,,,,,,,,,,,,,,,,,,,
,,,,,,,60485c6bfddf0e195cb18b62,60568611ec04488a9e9da93b,6056b4895f7fbeb3e25c48f8,I am not familiar with Spanish,South,NA,no,2021-03-20_21h54.17.899,empathy_intonation_perc,2020.2.10,Win32,60,,,,,,,,,,1,argentine,0,0,1.748255,0,31,31,17,1,18,./stim/wavs/andalusian_match_interrogative-partial-wh_Cuando-leia-el-libro.wav,./stim/wavs/argentine_match_interrogative-partial-wh_Cuando-leia-el-libro.wav,./stim/wavs/castilian_match_interrogative-partial-wh_Cuando-leia-el-libro.wav,./stim/wavs/chilean_match_interrogative-partial-wh_Cuando-leia-el-libro.wav,./stim/wavs/cuban_match_interrogative-partial-wh_Cuando-leia-el-libro.wav,./stim/wavs/mexican_match_interrogative-partial-wh_Cuando-leia-el-libro.wav,./stim/wavs/peruvian_match_interrogative-partial-wh_Cuando-leia-el-libro.wav,./stim/wavs/puertorican_match_interrogative-partial-wh_Cuando-leia-el-libro.wav,,,,,,,,,,,,,,,,,,,,,,,,,,,,,,,,,,,,,,,,,,,,,,,,,,,,,,,,
,,,,,,,60485c6bfddf0e195cb18b62,60568611ec04488a9e9da93b,6056b4895f7fbeb3e25c48f8,I am not familiar with Spanish,South,NA,no,2021-03-20_21h54.17.899,empathy_intonation_perc,2020.2.10,Win32,60,,,,,,,,,,1,puertorican,0,0,1.554355,0,32,32,23,1,24,./stim/wavs/andalusian_match_interrogative-partial-wh_Por-que-iba-a-Bolivia.wav,./stim/wavs/argentine_match_interrogative-partial-wh_Por-que-iba-a-Bolivia.wav,./stim/wavs/castilian_match_interrogative-partial-wh_Por-que-iba-a-Bolivia.wav,./stim/wavs/chilean_match_interrogative-partial-wh_Por-que-iba-a-Bolivia.wav,./stim/wavs/cuban_match_interrogative-partial-wh_Por-que-iba-a-Bolivia.wav,./stim/wavs/mexican_match_interrogative-partial-wh_Por-que-iba-a-Bolivia.wav,./stim/wavs/peruvian_match_interrogative-partial-wh_Por-que-iba-a-Bolivia.wav,./stim/wavs/puertorican_match_interrogative-partial-wh_Por-que-iba-a-Bolivia.wav,,,,,,,,,,,,,,,,,,,,,,,,,,,,,,,,,,,,,,,,,,,,,,,,,,,,,,,,
,,,,,,,60485c6bfddf0e195cb18b62,60568611ec04488a9e9da93b,6056b4895f7fbeb3e25c48f8,I am not familiar with Spanish,South,NA,no,2021-03-20_21h54.17.899,empathy_intonation_perc,2020.2.10,Win32,60,,,,,,,,,,0,castilian,0,1,2.1559,0,33,33,40,1,41,./stim/wavs/andalusian_mismatch_declarative-narrow-focus_El-bebe-comia-muy-bien.wav,./stim/wavs/argentine_mismatch_declarative-narrow-focus_El-bebe-comia-muy-bien.wav,./stim/wavs/castilian_mismatch_declarative-narrow-focus_El-bebe-comia-muy-bien.wav,./stim/wavs/chilean_mismatch_declarative-narrow-focus_El-bebe-comia-muy-bien.wav,./stim/wavs/cuban_mismatch_declarative-narrow-focus_El-bebe-comia-muy-bien.wav,./stim/wavs/mexican_mismatch_declarative-narrow-focus_El-bebe-comia-muy-bien.wav,./stim/wavs/peruvian_mismatch_declarative-narrow-focus_El-bebe-comia-muy-bien.wav,./stim/wavs/puertorican_mismatch_declarative-narrow-focus_El-bebe-comia-muy-bien.wav,,,,,,,,,,,,,,,,,,,,,,,,,,,,,,,,,,,,,,,,,,,,,,,,,,,,,,,,
,,,,,,,60485c6bfddf0e195cb18b62,60568611ec04488a9e9da93b,6056b4895f7fbeb3e25c48f8,I am not familiar with Spanish,South,NA,no,2021-03-20_21h54.17.899,empathy_intonation_perc,2020.2.10,Win32,60,,,,,,,,,,1,mexican,0,0,2.23159,0,34,34,56,1,57,./stim/wavs/andalusian_mismatch_interrogative-total-yn_El-bebe-comia-muy-bien.wav,./stim/wavs/argentine_mismatch_interrogative-total-yn_El-bebe-comia-muy-bien.wav,./stim/wavs/castilian_mismatch_interrogative-total-yn_El-bebe-comia-muy-bien.wav,./stim/wavs/chilean_mismatch_interrogative-total-yn_El-bebe-comia-muy-bien.wav,./stim/wavs/cuban_mismatch_interrogative-total-yn_El-bebe-comia-muy-bien.wav,./stim/wavs/mexican_mismatch_interrogative-total-yn_El-bebe-comia-muy-bien.wav,./stim/wavs/peruvian_mismatch_interrogative-total-yn_El-bebe-comia-muy-bien.wav,./stim/wavs/puertorican_mismatch_interrogative-total-yn_El-bebe-comia-muy-bien.wav,,,,,,,,,,,,,,,,,,,,,,,,,,,,,,,,,,,,,,,,,,,,,,,,,,,,,,,,
,,,,,,,60485c6bfddf0e195cb18b62,60568611ec04488a9e9da93b,6056b4895f7fbeb3e25c48f8,I am not familiar with Spanish,South,NA,no,2021-03-20_21h54.17.899,empathy_intonation_perc,2020.2.10,Win32,60,,,,,,,,,,1,chilean,0,0,2.15123,0,35,35,28,1,29,./stim/wavs/andalusian_match_interrogative-total-yn_Manuela-vende-el-carro.wav,./stim/wavs/argentine_match_interrogative-total-yn_Manuela-vende-el-carro.wav,./stim/wavs/castilian_match_interrogative-total-yn_Manuela-vende-el-carro.wav,./stim/wavs/chilean_match_interrogative-total-yn_Manuela-vende-el-carro.wav,./stim/wavs/cuban_match_interrogative-total-yn_Manuela-vende-el-carro.wav,./stim/wavs/mexican_match_interrogative-total-yn_Manuela-vende-el-carro.wav,./stim/wavs/peruvian_match_interrogative-total-yn_Manuela-vende-el-carro.wav,./stim/wavs/puertorican_match_interrogative-total-yn_Manuela-vende-el-carro.wav,,,,,,,,,,,,,,,,,,,,,,,,,,,,,,,,,,,,,,,,,,,,,,,,,,,,,,,,
,,,,,,,60485c6bfddf0e195cb18b62,60568611ec04488a9e9da93b,6056b4895f7fbeb3e25c48f8,I am not familiar with Spanish,South,NA,no,2021-03-20_21h54.17.899,empathy_intonation_perc,2020.2.10,Win32,60,,,,,,,,,,0,chilean,1,0,1.736555,0,36,36,39,1,40,./stim/wavs/andalusian_mismatch_declarative-broad-focus_Mi-tia-odia-la-lluvia.wav,./stim/wavs/argentine_mismatch_declarative-broad-focus_Mi-tia-odia-la-lluvia.wav,./stim/wavs/castilian_mismatch_declarative-broad-focus_Mi-tia-odia-la-lluvia.wav,./stim/wavs/chilean_mismatch_declarative-broad-focus_Mi-tia-odia-la-lluvia.wav,./stim/wavs/cuban_mismatch_declarative-broad-focus_Mi-tia-odia-la-lluvia.wav,./stim/wavs/mexican_mismatch_declarative-broad-focus_Mi-tia-odia-la-lluvia.wav,./stim/wavs/peruvian_mismatch_declarative-broad-focus_Mi-tia-odia-la-lluvia.wav,./stim/wavs/puertorican_mismatch_declarative-broad-focus_Mi-tia-odia-la-lluvia.wav,,,,,,,,,,,,,,,,,,,,,,,,,,,,,,,,,,,,,,,,,,,,,,,,,,,,,,,,
,,,,,,,60485c6bfddf0e195cb18b62,60568611ec04488a9e9da93b,6056b4895f7fbeb3e25c48f8,I am not familiar with Spanish,South,NA,no,2021-03-20_21h54.17.899,empathy_intonation_perc,2020.2.10,Win32,60,,,,,,,,,,0,cuban,1,0,1.601605,0,37,37,14,1,15,./stim/wavs/andalusian_match_declarative-narrow-focus_Mariano-habla-del-tiempo.wav,./stim/wavs/argentine_match_declarative-narrow-focus_Mariano-habla-del-tiempo.wav,./stim/wavs/castilian_match_declarative-narrow-focus_Mariano-habla-del-tiempo.wav,./stim/wavs/chilean_match_declarative-narrow-focus_Mariano-habla-del-tiempo.wav,./stim/wavs/cuban_match_declarative-narrow-focus_Mariano-habla-del-tiempo.wav,./stim/wavs/mexican_match_declarative-narrow-focus_Mariano-habla-del-tiempo.wav,./stim/wavs/peruvian_match_declarative-narrow-focus_Mariano-habla-del-tiempo.wav,./stim/wavs/puertorican_match_declarative-narrow-focus_Mariano-habla-del-tiempo.wav,,,,,,,,,,,,,,,,,,,,,,,,,,,,,,,,,,,,,,,,,,,,,,,,,,,,,,,,
,,,,,,,60485c6bfddf0e195cb18b62,60568611ec04488a9e9da93b,6056b4895f7fbeb3e25c48f8,I am not familiar with Spanish,South,NA,no,2021-03-20_21h54.17.899,empathy_intonation_perc,2020.2.10,Win32,60,,,,,,,,,,0,mexican,0,1,1.618515,0,38,38,35,1,36,./stim/wavs/andalusian_mismatch_declarative-broad-focus_La-maestra-vive-en-Paris.wav,./stim/wavs/argentine_mismatch_declarative-broad-focus_La-maestra-vive-en-Paris.wav,./stim/wavs/castilian_mismatch_declarative-broad-focus_La-maestra-vive-en-Paris.wav,./stim/wavs/chilean_mismatch_declarative-broad-focus_La-maestra-vive-en-Paris.wav,./stim/wavs/cuban_mismatch_declarative-broad-focus_La-maestra-vive-en-Paris.wav,./stim/wavs/mexican_mismatch_declarative-broad-focus_La-maestra-vive-en-Paris.wav,./stim/wavs/peruvian_mismatch_declarative-broad-focus_La-maestra-vive-en-Paris.wav,./stim/wavs/puertorican_mismatch_declarative-broad-focus_La-maestra-vive-en-Paris.wav,,,,,,,,,,,,,,,,,,,,,,,,,,,,,,,,,,,,,,,,,,,,,,,,,,,,,,,,
,,,,,,,60485c6bfddf0e195cb18b62,60568611ec04488a9e9da93b,6056b4895f7fbeb3e25c48f8,I am not familiar with Spanish,South,NA,no,2021-03-20_21h54.17.899,empathy_intonation_perc,2020.2.10,Win32,60,,,,,,,,,,0,cuban,0,1,1.84996,0,39,39,47,1,48,./stim/wavs/andalusian_mismatch_declarative-narrow-focus_Mi-tia-odia-la-lluvia.wav,./stim/wavs/argentine_mismatch_declarative-narrow-focus_Mi-tia-odia-la-lluvia.wav,./stim/wavs/castilian_mismatch_declarative-narrow-focus_Mi-tia-odia-la-lluvia.wav,./stim/wavs/chilean_mismatch_declarative-narrow-focus_Mi-tia-odia-la-lluvia.wav,./stim/wavs/cuban_mismatch_declarative-narrow-focus_Mi-tia-odia-la-lluvia.wav,./stim/wavs/mexican_mismatch_declarative-narrow-focus_Mi-tia-odia-la-lluvia.wav,./stim/wavs/peruvian_mismatch_declarative-narrow-focus_Mi-tia-odia-la-lluvia.wav,./stim/wavs/puertorican_mismatch_declarative-narrow-focus_Mi-tia-odia-la-lluvia.wav,,,,,,,,,,,,,,,,,,,,,,,,,,,,,,,,,,,,,,,,,,,,,,,,,,,,,,,,
,,,,,,,60485c6bfddf0e195cb18b62,60568611ec04488a9e9da93b,6056b4895f7fbeb3e25c48f8,I am not familiar with Spanish,South,NA,no,2021-03-20_21h54.17.899,empathy_intonation_perc,2020.2.10,Win32,60,,,,,,,,,,0,chilean,0,1,1.799485,0,40,40,44,1,45,./stim/wavs/andalusian_mismatch_declarative-narrow-focus_La-nina-lava-el-plato.wav,./stim/wavs/argentine_mismatch_declarative-narrow-focus_La-nina-lava-el-plato.wav,./stim/wavs/castilian_mismatch_declarative-narrow-focus_La-nina-lava-el-plato.wav,./stim/wavs/chilean_mismatch_declarative-narrow-focus_La-nina-lava-el-plato.wav,./stim/wavs/cuban_mismatch_declarative-narrow-focus_La-nina-lava-el-plato.wav,./stim/wavs/mexican_mismatch_declarative-narrow-focus_La-nina-lava-el-plato.wav,./stim/wavs/peruvian_mismatch_declarative-narrow-focus_La-nina-lava-el-plato.wav,./stim/wavs/puertorican_mismatch_declarative-narrow-focus_La-nina-lava-el-plato.wav,,,,,,,,,,,,,,,,,,,,,,,,,,,,,,,,,,,,,,,,,,,,,,,,,,,,,,,,
,,,,,,,60485c6bfddf0e195cb18b62,60568611ec04488a9e9da93b,6056b4895f7fbeb3e25c48f8,I am not familiar with Spanish,South,NA,no,2021-03-20_21h54.17.899,empathy_intonation_perc,2020.2.10,Win32,60,,,,,,,,,,0,peruvian,1,0,1.99401,0,41,41,46,1,47,./stim/wavs/andalusian_mismatch_declarative-narrow-focus_Mi-novio-viene-del-lago.wav,./stim/wavs/argentine_mismatch_declarative-narrow-focus_Mi-novio-viene-del-lago.wav,./stim/wavs/castilian_mismatch_declarative-narrow-focus_Mi-novio-viene-del-lago.wav,./stim/wavs/chilean_mismatch_declarative-narrow-focus_Mi-novio-viene-del-lago.wav,./stim/wavs/cuban_mismatch_declarative-narrow-focus_Mi-novio-viene-del-lago.wav,./stim/wavs/mexican_mismatch_declarative-narrow-focus_Mi-novio-viene-del-lago.wav,./stim/wavs/peruvian_mismatch_declarative-narrow-focus_Mi-novio-viene-del-lago.wav,./stim/wavs/puertorican_mismatch_declarative-narrow-focus_Mi-novio-viene-del-lago.wav,,,,,,,,,,,,,,,,,,,,,,,,,,,,,,,,,,,,,,,,,,,,,,,,,,,,,,,,
,,,,,,,60485c6bfddf0e195cb18b62,60568611ec04488a9e9da93b,6056b4895f7fbeb3e25c48f8,I am not familiar with Spanish,South,NA,no,2021-03-20_21h54.17.899,empathy_intonation_perc,2020.2.10,Win32,60,,,,,,,,,,0,argentine,0,1,1.538205,0,42,42,45,1,46,./stim/wavs/andalusian_mismatch_declarative-narrow-focus_Mi-madre-come-la-fruta.wav,./stim/wavs/argentine_mismatch_declarative-narrow-focus_Mi-madre-come-la-fruta.wav,./stim/wavs/castilian_mismatch_declarative-narrow-focus_Mi-madre-come-la-fruta.wav,./stim/wavs/chilean_mismatch_declarative-narrow-focus_Mi-madre-come-la-fruta.wav,./stim/wavs/cuban_mismatch_declarative-narrow-focus_Mi-madre-come-la-fruta.wav,./stim/wavs/mexican_mismatch_declarative-narrow-focus_Mi-madre-come-la-fruta.wav,./stim/wavs/peruvian_mismatch_declarative-narrow-focus_Mi-madre-come-la-fruta.wav,./stim/wavs/puertorican_mismatch_declarative-narrow-focus_Mi-madre-come-la-fruta.wav,,,,,,,,,,,,,,,,,,,,,,,,,,,,,,,,,,,,,,,,,,,,,,,,,,,,,,,,
,,,,,,,60485c6bfddf0e195cb18b62,60568611ec04488a9e9da93b,6056b4895f7fbeb3e25c48f8,I am not familiar with Spanish,South,NA,no,2021-03-20_21h54.17.899,empathy_intonation_perc,2020.2.10,Win32,60,,,,,,,,,,0,mexican,0,1,1.866595,0,43,43,10,1,11,./stim/wavs/andalusian_match_declarative-narrow-focus_David-leia-el-libro.wav,./stim/wavs/argentine_match_declarative-narrow-focus_David-leia-el-libro.wav,./stim/wavs/castilian_match_declarative-narrow-focus_David-leia-el-libro.wav,./stim/wavs/chilean_match_declarative-narrow-focus_David-leia-el-libro.wav,./stim/wavs/cuban_match_declarative-narrow-focus_David-leia-el-libro.wav,./stim/wavs/mexican_match_declarative-narrow-focus_David-leia-el-libro.wav,./stim/wavs/peruvian_match_declarative-narrow-focus_David-leia-el-libro.wav,./stim/wavs/puertorican_match_declarative-narrow-focus_David-leia-el-libro.wav,,,,,,,,,,,,,,,,,,,,,,,,,,,,,,,,,,,,,,,,,,,,,,,,,,,,,,,,
,,,,,,,60485c6bfddf0e195cb18b62,60568611ec04488a9e9da93b,6056b4895f7fbeb3e25c48f8,I am not familiar with Spanish,South,NA,no,2021-03-20_21h54.17.899,empathy_intonation_perc,2020.2.10,Win32,60,,,,,,,,,,1,peruvian,0,0,2.13099,0,44,44,57,1,58,./stim/wavs/andalusian_mismatch_interrogative-total-yn_El-hombre-mira-la-luna.wav,./stim/wavs/argentine_mismatch_interrogative-total-yn_El-hombre-mira-la-luna.wav,./stim/wavs/castilian_mismatch_interrogative-total-yn_El-hombre-mira-la-luna.wav,./stim/wavs/chilean_mismatch_interrogative-total-yn_El-hombre-mira-la-luna.wav,./stim/wavs/cuban_mismatch_interrogative-total-yn_El-hombre-mira-la-luna.wav,./stim/wavs/mexican_mismatch_interrogative-total-yn_El-hombre-mira-la-luna.wav,./stim/wavs/peruvian_mismatch_interrogative-total-yn_El-hombre-mira-la-luna.wav,./stim/wavs/puertorican_mismatch_interrogative-total-yn_El-hombre-mira-la-luna.wav,,,,,,,,,,,,,,,,,,,,,,,,,,,,,,,,,,,,,,,,,,,,,,,,,,,,,,,,
,,,,,,,60485c6bfddf0e195cb18b62,60568611ec04488a9e9da93b,6056b4895f7fbeb3e25c48f8,I am not familiar with Spanish,South,NA,no,2021-03-20_21h54.17.899,empathy_intonation_perc,2020.2.10,Win32,60,,,,,,,,,,0,andalusian,0,1,2.48186,0,45,45,38,1,39,./stim/wavs/andalusian_mismatch_declarative-broad-focus_Mi-novio-viene-del-lago.wav,./stim/wavs/argentine_mismatch_declarative-broad-focus_Mi-novio-viene-del-lago.wav,./stim/wavs/castilian_mismatch_declarative-broad-focus_Mi-novio-viene-del-lago.wav,./stim/wavs/chilean_mismatch_declarative-broad-focus_Mi-novio-viene-del-lago.wav,./stim/wavs/cuban_mismatch_declarative-broad-focus_Mi-novio-viene-del-lago.wav,./stim/wavs/mexican_mismatch_declarative-broad-focus_Mi-novio-viene-del-lago.wav,./stim/wavs/peruvian_mismatch_declarative-broad-focus_Mi-novio-viene-del-lago.wav,./stim/wavs/puertorican_mismatch_declarative-broad-focus_Mi-novio-viene-del-lago.wav,,,,,,,,,,,,,,,,,,,,,,,,,,,,,,,,,,,,,,,,,,,,,,,,,,,,,,,,
,,,,,,,60485c6bfddf0e195cb18b62,60568611ec04488a9e9da93b,6056b4895f7fbeb3e25c48f8,I am not familiar with Spanish,South,NA,no,2021-03-20_21h54.17.899,empathy_intonation_perc,2020.2.10,Win32,60,,,,,,,,,,0,puertorican,0,1,2.55676,0,46,46,42,1,43,./stim/wavs/andalusian_mismatch_declarative-narrow-focus_El-nino-oye-el-rio.wav,./stim/wavs/argentine_mismatch_declarative-narrow-focus_El-nino-oye-el-rio.wav,./stim/wavs/castilian_mismatch_declarative-narrow-focus_El-nino-oye-el-rio.wav,./stim/wavs/chilean_mismatch_declarative-narrow-focus_El-nino-oye-el-rio.wav,./stim/wavs/cuban_mismatch_declarative-narrow-focus_El-nino-oye-el-rio.wav,./stim/wavs/mexican_mismatch_declarative-narrow-focus_El-nino-oye-el-rio.wav,./stim/wavs/peruvian_mismatch_declarative-narrow-focus_El-nino-oye-el-rio.wav,./stim/wavs/puertorican_mismatch_declarative-narrow-focus_El-nino-oye-el-rio.wav,,,,,,,,,,,,,,,,,,,,,,,,,,,,,,,,,,,,,,,,,,,,,,,,,,,,,,,,
,,,,,,,60485c6bfddf0e195cb18b62,60568611ec04488a9e9da93b,6056b4895f7fbeb3e25c48f8,I am not familiar with Spanish,South,NA,no,2021-03-20_21h54.17.899,empathy_intonation_perc,2020.2.10,Win32,60,,,,,,,,,,1,andalusian,0,0,2.20343,0,47,47,60,1,61,./stim/wavs/andalusian_mismatch_interrogative-total-yn_La-nina-lava-el-plato.wav,./stim/wavs/argentine_mismatch_interrogative-total-yn_La-nina-lava-el-plato.wav,./stim/wavs/castilian_mismatch_interrogative-total-yn_La-nina-lava-el-plato.wav,./stim/wavs/chilean_mismatch_interrogative-total-yn_La-nina-lava-el-plato.wav,./stim/wavs/cuban_mismatch_interrogative-total-yn_La-nina-lava-el-plato.wav,./stim/wavs/mexican_mismatch_interrogative-total-yn_La-nina-lava-el-plato.wav,./stim/wavs/peruvian_mismatch_interrogative-total-yn_La-nina-lava-el-plato.wav,./stim/wavs/puertorican_mismatch_interrogative-total-yn_La-nina-lava-el-plato.wav,,,,,,,,,,,,,,,,,,,,,,,,,,,,,,,,,,,,,,,,,,,,,,,,,,,,,,,,
,,,,,,,60485c6bfddf0e195cb18b62,60568611ec04488a9e9da93b,6056b4895f7fbeb3e25c48f8,I am not familiar with Spanish,South,NA,no,2021-03-20_21h54.17.899,empathy_intonation_perc,2020.2.10,Win32,60,,,,,,,,,,1,peruvian,1,1,1.45942,0,48,48,53,1,54,./stim/wavs/andalusian_mismatch_interrogative-partial-wh_Por-que-oia-el-rio.wav,./stim/wavs/argentine_mismatch_interrogative-partial-wh_Por-que-oia-el-rio.wav,./stim/wavs/castilian_mismatch_interrogative-partial-wh_Por-que-oia-el-rio.wav,./stim/wavs/chilean_mismatch_interrogative-partial-wh_Por-que-oia-el-rio.wav,./stim/wavs/cuban_mismatch_interrogative-partial-wh_Por-que-oia-el-rio.wav,./stim/wavs/mexican_mismatch_interrogative-partial-wh_Por-que-oia-el-rio.wav,./stim/wavs/peruvian_mismatch_interrogative-partial-wh_Por-que-oia-el-rio.wav,./stim/wavs/puertorican_mismatch_interrogative-partial-wh_Por-que-oia-el-rio.wav,,,,,,,,,,,,,,,,,,,,,,,,,,,,,,,,,,,,,,,,,,,,,,,,,,,,,,,,
,,,,,,,60485c6bfddf0e195cb18b62,60568611ec04488a9e9da93b,6056b4895f7fbeb3e25c48f8,I am not familiar with Spanish,South,NA,no,2021-03-20_21h54.17.899,empathy_intonation_perc,2020.2.10,Win32,60,,,,,,,,,,0,andalusian,0,1,1.47294,0,49,49,5,1,6,./stim/wavs/andalusian_match_declarative-broad-focus_Maria-bebe-el-vino.wav,./stim/wavs/argentine_match_declarative-broad-focus_Maria-bebe-el-vino.wav,./stim/wavs/castilian_match_declarative-broad-focus_Maria-bebe-el-vino.wav,./stim/wavs/chilean_match_declarative-broad-focus_Maria-bebe-el-vino.wav,./stim/wavs/cuban_match_declarative-broad-focus_Maria-bebe-el-vino.wav,./stim/wavs/mexican_match_declarative-broad-focus_Maria-bebe-el-vino.wav,./stim/wavs/peruvian_match_declarative-broad-focus_Maria-bebe-el-vino.wav,./stim/wavs/puertorican_match_declarative-broad-focus_Maria-bebe-el-vino.wav,,,,,,,,,,,,,,,,,,,,,,,,,,,,,,,,,,,,,,,,,,,,,,,,,,,,,,,,
,,,,,,,60485c6bfddf0e195cb18b62,60568611ec04488a9e9da93b,6056b4895f7fbeb3e25c48f8,I am not familiar with Spanish,South,NA,no,2021-03-20_21h54.17.899,empathy_intonation_perc,2020.2.10,Win32,60,,,,,,,,,,1,castilian,1,1,1.301895,0,50,50,49,1,50,./stim/wavs/andalusian_mismatch_interrogative-partial-wh_Cuando-lavaba-el-plato.wav,./stim/wavs/argentine_mismatch_interrogative-partial-wh_Cuando-lavaba-el-plato.wav,./stim/wavs/castilian_mismatch_interrogative-partial-wh_Cuando-lavaba-el-plato.wav,./stim/wavs/chilean_mismatch_interrogative-partial-wh_Cuando-lavaba-el-plato.wav,./stim/wavs/cuban_mismatch_interrogative-partial-wh_Cuando-lavaba-el-plato.wav,./stim/wavs/mexican_mismatch_interrogative-partial-wh_Cuando-lavaba-el-plato.wav,./stim/wavs/peruvian_mismatch_interrogative-partial-wh_Cuando-lavaba-el-plato.wav,./stim/wavs/puertorican_mismatch_interrogative-partial-wh_Cuando-lavaba-el-plato.wav,,,,,,,,,,,,,,,,,,,,,,,,,,,,,,,,,,,,,,,,,,,,,,,,,,,,,,,,
,,,,,,,60485c6bfddf0e195cb18b62,60568611ec04488a9e9da93b,6056b4895f7fbeb3e25c48f8,I am not familiar with Spanish,South,NA,no,2021-03-20_21h54.17.899,empathy_intonation_perc,2020.2.10,Win32,60,,,,,,,,,,0,peruvian,0,1,1.74944,0,51,51,34,1,35,./stim/wavs/andalusian_mismatch_declarative-broad-focus_El-nino-oye-el-rio.wav,./stim/wavs/argentine_mismatch_declarative-broad-focus_El-nino-oye-el-rio.wav,./stim/wavs/castilian_mismatch_declarative-broad-focus_El-nino-oye-el-rio.wav,./stim/wavs/chilean_mismatch_declarative-broad-focus_El-nino-oye-el-rio.wav,./stim/wavs/cuban_mismatch_declarative-broad-focus_El-nino-oye-el-rio.wav,./stim/wavs/mexican_mismatch_declarative-broad-focus_El-nino-oye-el-rio.wav,./stim/wavs/peruvian_mismatch_declarative-broad-focus_El-nino-oye-el-rio.wav,./stim/wavs/puertorican_mismatch_declarative-broad-focus_El-nino-oye-el-rio.wav,,,,,,,,,,,,,,,,,,,,,,,,,,,,,,,,,,,,,,,,,,,,,,,,,,,,,,,,
,,,,,,,60485c6bfddf0e195cb18b62,60568611ec04488a9e9da93b,6056b4895f7fbeb3e25c48f8,I am not familiar with Spanish,South,NA,no,2021-03-20_21h54.17.899,empathy_intonation_perc,2020.2.10,Win32,60,,,,,,,,,,1,peruvian,1,1,1.12547,0,52,52,48,1,49,./stim/wavs/andalusian_mismatch_interrogative-partial-wh_Cuando-comia-la-fruta.wav,./stim/wavs/argentine_mismatch_interrogative-partial-wh_Cuando-comia-la-fruta.wav,./stim/wavs/castilian_mismatch_interrogative-partial-wh_Cuando-comia-la-fruta.wav,./stim/wavs/chilean_mismatch_interrogative-partial-wh_Cuando-comia-la-fruta.wav,./stim/wavs/cuban_mismatch_interrogative-partial-wh_Cuando-comia-la-fruta.wav,./stim/wavs/mexican_mismatch_interrogative-partial-wh_Cuando-comia-la-fruta.wav,./stim/wavs/peruvian_mismatch_interrogative-partial-wh_Cuando-comia-la-fruta.wav,./stim/wavs/puertorican_mismatch_interrogative-partial-wh_Cuando-comia-la-fruta.wav,,,,,,,,,,,,,,,,,,,,,,,,,,,,,,,,,,,,,,,,,,,,,,,,,,,,,,,,
,,,,,,,60485c6bfddf0e195cb18b62,60568611ec04488a9e9da93b,6056b4895f7fbeb3e25c48f8,I am not familiar with Spanish,South,NA,no,2021-03-20_21h54.17.899,empathy_intonation_perc,2020.2.10,Win32,60,,,,,,,,,,0,castilian,0,1,1.812535,0,53,53,2,1,3,./stim/wavs/andalusian_match_declarative-broad-focus_David-leia-el-libro.wav,./stim/wavs/argentine_match_declarative-broad-focus_David-leia-el-libro.wav,./stim/wavs/castilian_match_declarative-broad-focus_David-leia-el-libro.wav,./stim/wavs/chilean_match_declarative-broad-focus_David-leia-el-libro.wav,./stim/wavs/cuban_match_declarative-broad-focus_David-leia-el-libro.wav,./stim/wavs/mexican_match_declarative-broad-focus_David-leia-el-libro.wav,./stim/wavs/peruvian_match_declarative-broad-focus_David-leia-el-libro.wav,./stim/wavs/puertorican_match_declarative-broad-focus_David-leia-el-libro.wav,,,,,,,,,,,,,,,,,,,,,,,,,,,,,,,,,,,,,,,,,,,,,,,,,,,,,,,,
,,,,,,,60485c6bfddf0e195cb18b62,60568611ec04488a9e9da93b,6056b4895f7fbeb3e25c48f8,I am not familiar with Spanish,South,NA,no,2021-03-20_21h54.17.899,empathy_intonation_perc,2020.2.10,Win32,60,,,,,,,,,,0,castilian,0,1,1.509305,0,54,54,0,1,1,./stim/wavs/andalusian_match_declarative-broad-focus_Ana-lleva-el-abrigo.wav,./stim/wavs/argentine_match_declarative-broad-focus_Ana-lleva-el-abrigo.wav,./stim/wavs/castilian_match_declarative-broad-focus_Ana-lleva-el-abrigo.wav,./stim/wavs/chilean_match_declarative-broad-focus_Ana-lleva-el-abrigo.wav,./stim/wavs/cuban_match_declarative-broad-focus_Ana-lleva-el-abrigo.wav,./stim/wavs/mexican_match_declarative-broad-focus_Ana-lleva-el-abrigo.wav,./stim/wavs/peruvian_match_declarative-broad-focus_Ana-lleva-el-abrigo.wav,./stim/wavs/puertorican_match_declarative-broad-focus_Ana-lleva-el-abrigo.wav,,,,,,,,,,,,,,,,,,,,,,,,,,,,,,,,,,,,,,,,,,,,,,,,,,,,,,,,
,,,,,,,60485c6bfddf0e195cb18b62,60568611ec04488a9e9da93b,6056b4895f7fbeb3e25c48f8,I am not familiar with Spanish,South,NA,no,2021-03-20_21h54.17.899,empathy_intonation_perc,2020.2.10,Win32,60,,,,,,,,,,0,chilean,0,1,1.55251,0,55,55,9,1,10,./stim/wavs/andalusian_match_declarative-narrow-focus_Daniel-iba-a-Bolivia.wav,./stim/wavs/argentine_match_declarative-narrow-focus_Daniel-iba-a-Bolivia.wav,./stim/wavs/castilian_match_declarative-narrow-focus_Daniel-iba-a-Bolivia.wav,./stim/wavs/chilean_match_declarative-narrow-focus_Daniel-iba-a-Bolivia.wav,./stim/wavs/cuban_match_declarative-narrow-focus_Daniel-iba-a-Bolivia.wav,./stim/wavs/mexican_match_declarative-narrow-focus_Daniel-iba-a-Bolivia.wav,./stim/wavs/peruvian_match_declarative-narrow-focus_Daniel-iba-a-Bolivia.wav,./stim/wavs/puertorican_match_declarative-narrow-focus_Daniel-iba-a-Bolivia.wav,,,,,,,,,,,,,,,,,,,,,,,,,,,,,,,,,,,,,,,,,,,,,,,,,,,,,,,,
,,,,,,,60485c6bfddf0e195cb18b62,60568611ec04488a9e9da93b,6056b4895f7fbeb3e25c48f8,I am not familiar with Spanish,South,NA,no,2021-03-20_21h54.17.899,empathy_intonation_perc,2020.2.10,Win32,60,,,,,,,,,,1,argentine,1,1,1.097335,0,56,56,21,1,22,./stim/wavs/andalusian_match_interrogative-partial-wh_Por-que-ama-la-navidad.wav,./stim/wavs/argentine_match_interrogative-partial-wh_Por-que-ama-la-navidad.wav,./stim/wavs/castilian_match_interrogative-partial-wh_Por-que-ama-la-navidad.wav,./stim/wavs/chilean_match_interrogative-partial-wh_Por-que-ama-la-navidad.wav,./stim/wavs/cuban_match_interrogative-partial-wh_Por-que-ama-la-navidad.wav,./stim/wavs/mexican_match_interrogative-partial-wh_Por-que-ama-la-navidad.wav,./stim/wavs/peruvian_match_interrogative-partial-wh_Por-que-ama-la-navidad.wav,./stim/wavs/puertorican_match_interrogative-partial-wh_Por-que-ama-la-navidad.wav,,,,,,,,,,,,,,,,,,,,,,,,,,,,,,,,,,,,,,,,,,,,,,,,,,,,,,,,
,,,,,,,60485c6bfddf0e195cb18b62,60568611ec04488a9e9da93b,6056b4895f7fbeb3e25c48f8,I am not familiar with Spanish,South,NA,no,2021-03-20_21h54.17.899,empathy_intonation_perc,2020.2.10,Win32,60,,,,,,,,,,1,cuban,0,0,1.57649,0,57,57,59,1,60,./stim/wavs/andalusian_mismatch_interrogative-total-yn_La-maestra-vive-en-Paris.wav,./stim/wavs/argentine_mismatch_interrogative-total-yn_La-maestra-vive-en-Paris.wav,./stim/wavs/castilian_mismatch_interrogative-total-yn_La-maestra-vive-en-Paris.wav,./stim/wavs/chilean_mismatch_interrogative-total-yn_La-maestra-vive-en-Paris.wav,./stim/wavs/cuban_mismatch_interrogative-total-yn_La-maestra-vive-en-Paris.wav,./stim/wavs/mexican_mismatch_interrogative-total-yn_La-maestra-vive-en-Paris.wav,./stim/wavs/peruvian_mismatch_interrogative-total-yn_La-maestra-vive-en-Paris.wav,./stim/wavs/puertorican_mismatch_interrogative-total-yn_La-maestra-vive-en-Paris.wav,,,,,,,,,,,,,,,,,,,,,,,,,,,,,,,,,,,,,,,,,,,,,,,,,,,,,,,,
,,,,,,,60485c6bfddf0e195cb18b62,60568611ec04488a9e9da93b,6056b4895f7fbeb3e25c48f8,I am not familiar with Spanish,South,NA,no,2021-03-20_21h54.17.899,empathy_intonation_perc,2020.2.10,Win32,60,,,,,,,,,,1,peruvian,1,1,0.59574,0,58,58,54,1,55,./stim/wavs/andalusian_mismatch_interrogative-partial-wh_Por-que-venia-del-lago.wav,./stim/wavs/argentine_mismatch_interrogative-partial-wh_Por-que-venia-del-lago.wav,./stim/wavs/castilian_mismatch_interrogative-partial-wh_Por-que-venia-del-lago.wav,./stim/wavs/chilean_mismatch_interrogative-partial-wh_Por-que-venia-del-lago.wav,./stim/wavs/cuban_mismatch_interrogative-partial-wh_Por-que-venia-del-lago.wav,./stim/wavs/mexican_mismatch_interrogative-partial-wh_Por-que-venia-del-lago.wav,./stim/wavs/peruvian_mismatch_interrogative-partial-wh_Por-que-venia-del-lago.wav,./stim/wavs/puertorican_mismatch_interrogative-partial-wh_Por-que-venia-del-lago.wav,,,,,,,,,,,,,,,,,,,,,,,,,,,,,,,,,,,,,,,,,,,,,,,,,,,,,,,,
,,,,,,,60485c6bfddf0e195cb18b62,60568611ec04488a9e9da93b,6056b4895f7fbeb3e25c48f8,I am not familiar with Spanish,South,NA,no,2021-03-20_21h54.17.899,empathy_intonation_perc,2020.2.10,Win32,60,,,,,,,,,,0,argentine,0,1,1.47789,0,59,59,1,1,2,./stim/wavs/andalusian_match_declarative-broad-focus_Daniel-iba-a-Bolivia.wav,./stim/wavs/argentine_match_declarative-broad-focus_Daniel-iba-a-Bolivia.wav,./stim/wavs/castilian_match_declarative-broad-focus_Daniel-iba-a-Bolivia.wav,./stim/wavs/chilean_match_declarative-broad-focus_Daniel-iba-a-Bolivia.wav,./stim/wavs/cuban_match_declarative-broad-focus_Daniel-iba-a-Bolivia.wav,./stim/wavs/mexican_match_declarative-broad-focus_Daniel-iba-a-Bolivia.wav,./stim/wavs/peruvian_match_declarative-broad-focus_Daniel-iba-a-Bolivia.wav,./stim/wavs/puertorican_match_declarative-broad-focus_Daniel-iba-a-Bolivia.wav,,,,,,,,,,,,,,,,,,,,,,,,,,,,,,,,,,,,,,,,,,,,,,,,,,,,,,,,
,,,,,,,60485c6bfddf0e195cb18b62,60568611ec04488a9e9da93b,6056b4895f7fbeb3e25c48f8,I am not familiar with Spanish,South,NA,no,2021-03-20_21h54.17.899,empathy_intonation_perc,2020.2.10,Win32,60,,,,,,,,,,1,andalusian,0,0,1.646505,0,60,60,31,1,32,./stim/wavs/andalusian_match_interrogative-total-yn_Marta-abre-el-regalo.wav,./stim/wavs/argentine_match_interrogative-total-yn_Marta-abre-el-regalo.wav,./stim/wavs/castilian_match_interrogative-total-yn_Marta-abre-el-regalo.wav,./stim/wavs/chilean_match_interrogative-total-yn_Marta-abre-el-regalo.wav,./stim/wavs/cuban_match_interrogative-total-yn_Marta-abre-el-regalo.wav,./stim/wavs/mexican_match_interrogative-total-yn_Marta-abre-el-regalo.wav,./stim/wavs/peruvian_match_interrogative-total-yn_Marta-abre-el-regalo.wav,./stim/wavs/puertorican_match_interrogative-total-yn_Marta-abre-el-regalo.wav,,,,,,,,,,,,,,,,,,,,,,,,,,,,,,,,,,,,,,,,,,,,,,,,,,,,,,,,
,,,,,,,60485c6bfddf0e195cb18b62,60568611ec04488a9e9da93b,6056b4895f7fbeb3e25c48f8,I am not familiar with Spanish,South,NA,no,2021-03-20_21h54.17.899,empathy_intonation_perc,2020.2.10,Win32,60,,,,,,,,,,1,chilean,0,0,1.628835,0,61,61,62,1,63,./stim/wavs/andalusian_mismatch_interrogative-total-yn_Mi-novio-viene-del-lago.wav,./stim/wavs/argentine_mismatch_interrogative-total-yn_Mi-novio-viene-del-lago.wav,./stim/wavs/castilian_mismatch_interrogative-total-yn_Mi-novio-viene-del-lago.wav,./stim/wavs/chilean_mismatch_interrogative-total-yn_Mi-novio-viene-del-lago.wav,./stim/wavs/cuban_mismatch_interrogative-total-yn_Mi-novio-viene-del-lago.wav,./stim/wavs/mexican_mismatch_interrogative-total-yn_Mi-novio-viene-del-lago.wav,./stim/wavs/peruvian_mismatch_interrogative-total-yn_Mi-novio-viene-del-lago.wav,./stim/wavs/puertorican_mismatch_interrogative-total-yn_Mi-novio-viene-del-lago.wav,,,,,,,,,,,,,,,,,,,,,,,,,,,,,,,,,,,,,,,,,,,,,,,,,,,,,,,,
,,,,,,,60485c6bfddf0e195cb18b62,60568611ec04488a9e9da93b,6056b4895f7fbeb3e25c48f8,I am not familiar with Spanish,South,NA,no,2021-03-20_21h54.17.899,empathy_intonation_perc,2020.2.10,Win32,60,,,,,,,,,,1,cuban,0,0,2.30901,0,62,62,18,1,19,./stim/wavs/andalusian_match_interrogative-partial-wh_Cuando-lleva-el-abrigo.wav,./stim/wavs/argentine_match_interrogative-partial-wh_Cuando-lleva-el-abrigo.wav,./stim/wavs/castilian_match_interrogative-partial-wh_Cuando-lleva-el-abrigo.wav,./stim/wavs/chilean_match_interrogative-partial-wh_Cuando-lleva-el-abrigo.wav,./stim/wavs/cuban_match_interrogative-partial-wh_Cuando-lleva-el-abrigo.wav,./stim/wavs/mexican_match_interrogative-partial-wh_Cuando-lleva-el-abrigo.wav,./stim/wavs/peruvian_match_interrogative-partial-wh_Cuando-lleva-el-abrigo.wav,./stim/wavs/puertorican_match_interrogative-partial-wh_Cuando-lleva-el-abrigo.wav,,,,,,,,,,,,,,,,,,,,,,,,,,,,,,,,,,,,,,,,,,,,,,,,,,,,,,,,
,,,,,,,60485c6bfddf0e195cb18b62,60568611ec04488a9e9da93b,6056b4895f7fbeb3e25c48f8,I am not familiar with Spanish,South,NA,no,2021-03-20_21h54.17.899,empathy_intonation_perc,2020.2.10,Win32,60,,,,,,,,,,0,argentine,0,1,2.49315,0,63,63,4,1,5,./stim/wavs/andalusian_match_declarative-broad-focus_Manuela-vende-el-carro.wav,./stim/wavs/argentine_match_declarative-broad-focus_Manuela-vende-el-carro.wav,./stim/wavs/castilian_match_declarative-broad-focus_Manuela-vende-el-carro.wav,./stim/wavs/chilean_match_declarative-broad-focus_Manuela-vende-el-carro.wav,./stim/wavs/cuban_match_declarative-broad-focus_Manuela-vende-el-carro.wav,./stim/wavs/mexican_match_declarative-broad-focus_Manuela-vende-el-carro.wav,./stim/wavs/peruvian_match_declarative-broad-focus_Manuela-vende-el-carro.wav,./stim/wavs/puertorican_match_declarative-broad-focus_Manuela-vende-el-carro.wav,,,,,,,,,,,,,,,,,,,,,,,,,,,,,,,,,,,,,,,,,,,,,,,,,,,,,,,,
,,,,,,,60485c6bfddf0e195cb18b62,60568611ec04488a9e9da93b,6056b4895f7fbeb3e25c48f8,I am not familiar with Spanish,South,NA,no,2021-03-20_21h54.17.899,empathy_intonation_perc,2020.2.10,Win32,60,,,,,,,,,,,,,,,,,,,,,,,,,,,,,h,1,3.01777,0,0,0,0,1,,,,,,,,,,,,,,,,,,,,,,,,,,,,,,,,,,,,,,,,,,,,,,,,
,,,,,"Great! Now we will move on. The next task consists of about 60 trials, in each of which you will see a string of letters. 
  
  Your task is to decide whether this is a real Spanish word or not.",(press the spacebar to continue),60485c6bfddf0e195cb18b62,60568611ec04488a9e9da93b,6056b4895f7fbeb3e25c48f8,I am not familiar with Spanish,South,NA,no,2021-03-20_21h54.17.899,empathy_intonation_perc,2020.2.10,Win32,60,,,,,,,,,,,,,,,,,,,,,,,,,,,,,,,,,,,,,0,0,0,0,1,,,,,,,,,,,,,,,,,,,,,,,,,,,,,,,,,,,,,,,,,,,
,,,,,"If you think it is an existing Spanish word, you type '1' (for 'REAL'), and if you think it is not an existing Spanish word, you type '0' (for 'FAKE').",(press the spacebar to continue),60485c6bfddf0e195cb18b62,60568611ec04488a9e9da93b,6056b4895f7fbeb3e25c48f8,I am not familiar with Spanish,South,NA,no,2021-03-20_21h54.17.899,empathy_intonation_perc,2020.2.10,Win32,60,,,,,,,,,,,,,,,,,,,,,,,,,,,,,,,,,,,,,0,1,1,1,1,,,,,,,,,,,,,,,,,,,,,,,,,,,,,,,,,,,,,,,,,,,
,,,,,"If you are sure that the word exists, even though you dont know its exact meaning, you may still respond '1' (REAL). 
  
  But if you are not sure if it is an existing word, you should respond '0' (FAKE).
  
  Let's do a practice round...",(press the spacebar to continue),60485c6bfddf0e195cb18b62,60568611ec04488a9e9da93b,6056b4895f7fbeb3e25c48f8,I am not familiar with Spanish,South,NA,no,2021-03-20_21h54.17.899,empathy_intonation_perc,2020.2.10,Win32,60,,,,,,,,,,,,,,,,,,,,,,,,,,,,,,,,,,,,,0,2,2,2,1,,,,,,,,,,,,,,,,,,,,,,,,,,,,,,,,,,,,,,,,,,,
,,,,,,,60485c6bfddf0e195cb18b62,60568611ec04488a9e9da93b,6056b4895f7fbeb3e25c48f8,I am not familiar with Spanish,South,NA,no,2021-03-20_21h54.17.899,empathy_intonation_perc,2020.2.10,Win32,60,,,,,,,,,,0,,,,,,,,,,,,,,,,,,,,,,,,,,,,,,,,0,1,8.75748,0,0,0,0,1,0,depiste,REAL,FAKE,,,,,,,,,,,,,,,,,,,,,,,,,,,,,,,
,,,,,,,60485c6bfddf0e195cb18b62,60568611ec04488a9e9da93b,6056b4895f7fbeb3e25c48f8,I am not familiar with Spanish,South,NA,no,2021-03-20_21h54.17.899,empathy_intonation_perc,2020.2.10,Win32,60,,,,,,,,,,1,,,,,,,,,,,,,,,,,,,,,,,,,,,,,,,,1,1,1.288015,0,1,1,1,1,0,s,REAL,FAKE,,,,,,,,,,,,,,,,,,,,,,,,,,,,,,,
,,,,,,,60485c6bfddf0e195cb18b62,60568611ec04488a9e9da93b,6056b4895f7fbeb3e25c48f8,I am not familiar with Spanish,South,NA,no,2021-03-20_21h54.17.899,empathy_intonation_perc,2020.2.10,Win32,60,,,,,,,,,,0,,,,,,,,,,,,,,,,,,,,,,,,,,,,,,,,1,0,1.211545,0,2,2,2,1,0,con,REAL,FAKE,,,,,,,,,,,,,,,,,,,,,,,,,,,,,,,
,,,,,,,60485c6bfddf0e195cb18b62,60568611ec04488a9e9da93b,6056b4895f7fbeb3e25c48f8,I am not familiar with Spanish,South,NA,no,2021-03-20_21h54.17.899,empathy_intonation_perc,2020.2.10,Win32,60,,,,,,,,,,0,,,,,,,,,,,,,,,,,,,,,,,,,,,,,,,,0,1,2.491045,0,3,3,3,1,0,calpar,REAL,FAKE,,,,,,,,,,,,,,,,,,,,,,,,,,,,,,,
,,,,,,,60485c6bfddf0e195cb18b62,60568611ec04488a9e9da93b,6056b4895f7fbeb3e25c48f8,I am not familiar with Spanish,South,NA,no,2021-03-20_21h54.17.899,empathy_intonation_perc,2020.2.10,Win32,60,,,,,,,,,,0,,,,,,,,,,,,,,,,,,,,,,,,,,,,,,,,0,1,0.95253,0,4,4,4,1,0,joten,REAL,FAKE,,,,,,,,,,,,,,,,,,,,,,,,,,,,,,,
,,,,,,,60485c6bfddf0e195cb18b62,60568611ec04488a9e9da93b,6056b4895f7fbeb3e25c48f8,I am not familiar with Spanish,South,NA,no,2021-03-20_21h54.17.899,empathy_intonation_perc,2020.2.10,Win32,60,,,,,,,,,,1,,,,,,,,,,,,,,,,,,,,,,,,,,,,,,,,0,0,1.078785,0,5,5,5,1,0,sacapuntas,REAL,FAKE,,,,,,,,,,,,,,,,,,,,,,,,,,,,,,,
,,,,,,,60485c6bfddf0e195cb18b62,60568611ec04488a9e9da93b,6056b4895f7fbeb3e25c48f8,I am not familiar with Spanish,South,NA,no,2021-03-20_21h54.17.899,empathy_intonation_perc,2020.2.10,Win32,60,,,,,,,,,,0,,,,,,,,,,,,,,,,,,,,,,,,,,,,,,,,0,1,0.858845,0,6,6,6,1,0,priba,REAL,FAKE,,,,,,,,,,,,,,,,,,,,,,,,,,,,,,,
,,,,,,,60485c6bfddf0e195cb18b62,60568611ec04488a9e9da93b,6056b4895f7fbeb3e25c48f8,I am not familiar with Spanish,South,NA,no,2021-03-20_21h54.17.899,empathy_intonation_perc,2020.2.10,Win32,60,,,,,,,,,,0,,,,,,,,,,,,,,,,,,,,,,,,,,,,,,,,1,0,1.331435,0,7,7,7,1,0,pelasula,REAL,FAKE,,,,,,,,,,,,,,,,,,,,,,,,,,,,,,,
,,,,,,,60485c6bfddf0e195cb18b62,60568611ec04488a9e9da93b,6056b4895f7fbeb3e25c48f8,I am not familiar with Spanish,South,NA,no,2021-03-20_21h54.17.899,empathy_intonation_perc,2020.2.10,Win32,60,,,,,,,,,,1,,,,,,,,,,,,,,,,,,,,,,,,,,,,,,,,1,1,1.149205,0,8,8,8,1,0,bien,REAL,FAKE,,,,,,,,,,,,,,,,,,,,,,,,,,,,,,,
,,,,,,,60485c6bfddf0e195cb18b62,60568611ec04488a9e9da93b,6056b4895f7fbeb3e25c48f8,I am not familiar with Spanish,South,NA,no,2021-03-20_21h54.17.899,empathy_intonation_perc,2020.2.10,Win32,60,,,,,,,,,,1,,,,,,,,,,,,,,,,,,,,,,,,,,,,,,,,1,1,0.74268,0,9,9,9,1,0,casa,REAL,FAKE,,,,,,,,,,,,,,,,,,,,,,,,,,,,,,,
,,,,,,,60485c6bfddf0e195cb18b62,60568611ec04488a9e9da93b,6056b4895f7fbeb3e25c48f8,I am not familiar with Spanish,South,NA,no,2021-03-20_21h54.17.899,empathy_intonation_perc,2020.2.10,Win32,60,,,,,,,,,,0,,,,,,,,,,,,,,,,,,,,,,,,,,,,,,,,0,1,1.365955,0,10,10,10,1,0,lejo,REAL,FAKE,,,,,,,,,,,,,,,,,,,,,,,,,,,,,,,
,,,,,,,60485c6bfddf0e195cb18b62,60568611ec04488a9e9da93b,6056b4895f7fbeb3e25c48f8,I am not familiar with Spanish,South,NA,no,2021-03-20_21h54.17.899,empathy_intonation_perc,2020.2.10,Win32,60,,,,,,,,,,0,,,,,,,,,,,,,,,,,,,,,,,,,,,,,,,,0,1,1.749455,0,11,11,11,1,0,pretantas,REAL,FAKE,,,,,,,,,,,,,,,,,,,,,,,,,,,,,,,
,,,,,,,60485c6bfddf0e195cb18b62,60568611ec04488a9e9da93b,6056b4895f7fbeb3e25c48f8,I am not familiar with Spanish,South,NA,no,2021-03-20_21h54.17.899,empathy_intonation_perc,2020.2.10,Win32,60,,,,,,,,,,1,,,,,,,,,,,,,,,,,,,,,,,,,,,,,,,,,,,,,,,,20,vido,,,1,1,1.442535,0,0,0,19,1,REAL,FAKE,,,,,,,,,,,,,,,,,,,,,
,,,,,,,60485c6bfddf0e195cb18b62,60568611ec04488a9e9da93b,6056b4895f7fbeb3e25c48f8,I am not familiar with Spanish,South,NA,no,2021-03-20_21h54.17.899,empathy_intonation_perc,2020.2.10,Win32,60,,,,,,,,,,1,,,,,,,,,,,,,,,,,,,,,,,,,,,,,,,,,,,,,,,,15,regar,,,1,1,1.0984,0,1,1,14,1,REAL,FAKE,,,,,,,,,,,,,,,,,,,,,
,,,,,,,60485c6bfddf0e195cb18b62,60568611ec04488a9e9da93b,6056b4895f7fbeb3e25c48f8,I am not familiar with Spanish,South,NA,no,2021-03-20_21h54.17.899,empathy_intonation_perc,2020.2.10,Win32,60,,,,,,,,,,1,,,,,,,,,,,,,,,,,,,,,,,,,,,,,,,,,,,,,,,,90,clavel,,,0,0,0.80766,0,2,2,89,1,REAL,FAKE,,,,,,,,,,,,,,,,,,,,,
,,,,,,,60485c6bfddf0e195cb18b62,60568611ec04488a9e9da93b,6056b4895f7fbeb3e25c48f8,I am not familiar with Spanish,South,NA,no,2021-03-20_21h54.17.899,empathy_intonation_perc,2020.2.10,Win32,60,,,,,,,,,,0,,,,,,,,,,,,,,,,,,,,,,,,,,,,,,,,,,,,,,,,74,cintro,,,0,1,1.0297,0,3,3,73,1,REAL,FAKE,,,,,,,,,,,,,,,,,,,,,
,,,,,,,60485c6bfddf0e195cb18b62,60568611ec04488a9e9da93b,6056b4895f7fbeb3e25c48f8,I am not familiar with Spanish,South,NA,no,2021-03-20_21h54.17.899,empathy_intonation_perc,2020.2.10,Win32,60,,,,,,,,,,1,,,,,,,,,,,,,,,,,,,,,,,,,,,,,,,,,,,,,,,,55,nevar,,,0,0,1.59022,0,4,4,54,1,REAL,FAKE,,,,,,,,,,,,,,,,,,,,,
,,,,,,,60485c6bfddf0e195cb18b62,60568611ec04488a9e9da93b,6056b4895f7fbeb3e25c48f8,I am not familiar with Spanish,South,NA,no,2021-03-20_21h54.17.899,empathy_intonation_perc,2020.2.10,Win32,60,,,,,,,,,,1,,,,,,,,,,,,,,,,,,,,,,,,,,,,,,,,,,,,,,,,59,besar,,,1,1,1.01508,0,5,5,58,1,REAL,FAKE,,,,,,,,,,,,,,,,,,,,,
,,,,,,,60485c6bfddf0e195cb18b62,60568611ec04488a9e9da93b,6056b4895f7fbeb3e25c48f8,I am not familiar with Spanish,South,NA,no,2021-03-20_21h54.17.899,empathy_intonation_perc,2020.2.10,Win32,60,,,,,,,,,,1,,,,,,,,,,,,,,,,,,,,,,,,,,,,,,,,,,,,,,,,28,merodear,,,0,0,1.04115,0,6,6,27,1,REAL,FAKE,,,,,,,,,,,,,,,,,,,,,
,,,,,,,60485c6bfddf0e195cb18b62,60568611ec04488a9e9da93b,6056b4895f7fbeb3e25c48f8,I am not familiar with Spanish,South,NA,no,2021-03-20_21h54.17.899,empathy_intonation_perc,2020.2.10,Win32,60,,,,,,,,,,1,,,,,,,,,,,,,,,,,,,,,,,,,,,,,,,,,,,,,,,,80,hormiga,,,0,0,1.066555,0,7,7,79,1,REAL,FAKE,,,,,,,,,,,,,,,,,,,,,
,,,,,,,60485c6bfddf0e195cb18b62,60568611ec04488a9e9da93b,6056b4895f7fbeb3e25c48f8,I am not familiar with Spanish,South,NA,no,2021-03-20_21h54.17.899,empathy_intonation_perc,2020.2.10,Win32,60,,,,,,,,,,1,,,,,,,,,,,,,,,,,,,,,,,,,,,,,,,,,,,,,,,,68,alegre,,,1,1,1.149465,0,8,8,67,1,REAL,FAKE,,,,,,,,,,,,,,,,,,,,,
,,,,,,,60485c6bfddf0e195cb18b62,60568611ec04488a9e9da93b,6056b4895f7fbeb3e25c48f8,I am not familiar with Spanish,South,NA,no,2021-03-20_21h54.17.899,empathy_intonation_perc,2020.2.10,Win32,60,,,,,,,,,,1,,,,,,,,,,,,,,,,,,,,,,,,,,,,,,,,,,,,,,,,61,seda,,,1,1,1.045085,0,9,9,60,1,REAL,FAKE,,,,,,,,,,,,,,,,,,,,,
,,,,,,,60485c6bfddf0e195cb18b62,60568611ec04488a9e9da93b,6056b4895f7fbeb3e25c48f8,I am not familiar with Spanish,South,NA,no,2021-03-20_21h54.17.899,empathy_intonation_perc,2020.2.10,Win32,60,,,,,,,,,,1,,,,,,,,,,,,,,,,,,,,,,,,,,,,,,,,,,,,,,,,39,torpe,,,0,0,0.847255,0,10,10,38,1,REAL,FAKE,,,,,,,,,,,,,,,,,,,,,
,,,,,,,60485c6bfddf0e195cb18b62,60568611ec04488a9e9da93b,6056b4895f7fbeb3e25c48f8,I am not familiar with Spanish,South,NA,no,2021-03-20_21h54.17.899,empathy_intonation_perc,2020.2.10,Win32,60,,,,,,,,,,1,,,,,,,,,,,,,,,,,,,,,,,,,,,,,,,,,,,,,,,,43,canela,,,0,0,1.015225,0,11,11,42,1,REAL,FAKE,,,,,,,,,,,,,,,,,,,,,
,,,,,,,60485c6bfddf0e195cb18b62,60568611ec04488a9e9da93b,6056b4895f7fbeb3e25c48f8,I am not familiar with Spanish,South,NA,no,2021-03-20_21h54.17.899,empathy_intonation_perc,2020.2.10,Win32,60,,,,,,,,,,1,,,,,,,,,,,,,,,,,,,,,,,,,,,,,,,,,,,,,,,,85,lad,,,1,1,1.315355,0,12,12,84,1,REAL,FAKE,,,,,,,,,,,,,,,,,,,,,
,,,,,,,60485c6bfddf0e195cb18b62,60568611ec04488a9e9da93b,6056b4895f7fbeb3e25c48f8,I am not familiar with Spanish,South,NA,no,2021-03-20_21h54.17.899,empathy_intonation_perc,2020.2.10,Win32,60,,,,,,,,,,1,,,,,,,,,,,,,,,,,,,,,,,,,,,,,,,,,,,,,,,,56,musgo,,,0,0,1.05705,0,13,13,55,1,REAL,FAKE,,,,,,,,,,,,,,,,,,,,,
,,,,,,,60485c6bfddf0e195cb18b62,60568611ec04488a9e9da93b,6056b4895f7fbeb3e25c48f8,I am not familiar with Spanish,South,NA,no,2021-03-20_21h54.17.899,empathy_intonation_perc,2020.2.10,Win32,60,,,,,,,,,,1,,,,,,,,,,,,,,,,,,,,,,,,,,,,,,,,,,,,,,,,3,pulmones,,,0,0,0.87273,0,14,14,2,1,REAL,FAKE,,,,,,,,,,,,,,,,,,,,,
,,,,,,,60485c6bfddf0e195cb18b62,60568611ec04488a9e9da93b,6056b4895f7fbeb3e25c48f8,I am not familiar with Spanish,South,NA,no,2021-03-20_21h54.17.899,empathy_intonation_perc,2020.2.10,Win32,60,,,,,,,,,,1,,,,,,,,,,,,,,,,,,,,,,,,,,,,,,,,,,,,,,,,69,engatusar,,,1,1,2.063925,0,15,15,68,1,REAL,FAKE,,,,,,,,,,,,,,,,,,,,,
,,,,,,,60485c6bfddf0e195cb18b62,60568611ec04488a9e9da93b,6056b4895f7fbeb3e25c48f8,I am not familiar with Spanish,South,NA,no,2021-03-20_21h54.17.899,empathy_intonation_perc,2020.2.10,Win32,60,,,,,,,,,,1,,,,,,,,,,,,,,,,,,,,,,,,,,,,,,,,,,,,,,,,88,acantilado,,,0,0,1.90352,0,16,16,87,1,REAL,FAKE,,,,,,,,,,,,,,,,,,,,,
,,,,,,,60485c6bfddf0e195cb18b62,60568611ec04488a9e9da93b,6056b4895f7fbeb3e25c48f8,I am not familiar with Spanish,South,NA,no,2021-03-20_21h54.17.899,empathy_intonation_perc,2020.2.10,Win32,60,,,,,,,,,,1,,,,,,,,,,,,,,,,,,,,,,,,,,,,,,,,,,,,,,,,41,rebuscar,,,1,1,0.94946,0,17,17,40,1,REAL,FAKE,,,,,,,,,,,,,,,,,,,,,
,,,,,,,60485c6bfddf0e195cb18b62,60568611ec04488a9e9da93b,6056b4895f7fbeb3e25c48f8,I am not familiar with Spanish,South,NA,no,2021-03-20_21h54.17.899,empathy_intonation_perc,2020.2.10,Win32,60,,,,,,,,,,0,,,,,,,,,,,,,,,,,,,,,,,,,,,,,,,,,,,,,,,,72,pemicin,,,0,1,1.1114,0,18,18,71,1,REAL,FAKE,,,,,,,,,,,,,,,,,,,,,
,,,,,,,60485c6bfddf0e195cb18b62,60568611ec04488a9e9da93b,6056b4895f7fbeb3e25c48f8,I am not familiar with Spanish,South,NA,no,2021-03-20_21h54.17.899,empathy_intonation_perc,2020.2.10,Win32,60,,,,,,,,,,0,,,,,,,,,,,,,,,,,,,,,,,,,,,,,,,,,,,,,,,,47,cartinar,,,0,1,2.150665,0,19,19,46,1,REAL,FAKE,,,,,,,,,,,,,,,,,,,,,
,,,,,,,60485c6bfddf0e195cb18b62,60568611ec04488a9e9da93b,6056b4895f7fbeb3e25c48f8,I am not familiar with Spanish,South,NA,no,2021-03-20_21h54.17.899,empathy_intonation_perc,2020.2.10,Win32,60,,,,,,,,,,1,,,,,,,,,,,,,,,,,,,,,,,,,,,,,,,,,,,,,,,,65,bizcocho,,,0,0,0.862675,0,20,20,64,1,REAL,FAKE,,,,,,,,,,,,,,,,,,,,,
,,,,,,,60485c6bfddf0e195cb18b62,60568611ec04488a9e9da93b,6056b4895f7fbeb3e25c48f8,I am not familiar with Spanish,South,NA,no,2021-03-20_21h54.17.899,empathy_intonation_perc,2020.2.10,Win32,60,,,,,,,,,,0,,,,,,,,,,,,,,,,,,,,,,,,,,,,,,,,,,,,,,,,53,vegada,,,1,0,1.08124,0,21,21,52,1,REAL,FAKE,,,,,,,,,,,,,,,,,,,,,
,,,,,,,60485c6bfddf0e195cb18b62,60568611ec04488a9e9da93b,6056b4895f7fbeb3e25c48f8,I am not familiar with Spanish,South,NA,no,2021-03-20_21h54.17.899,empathy_intonation_perc,2020.2.10,Win32,60,,,,,,,,,,0,,,,,,,,,,,,,,,,,,,,,,,,,,,,,,,,,,,,,,,,23,lampera,,,1,0,0.90161,0,22,22,22,1,REAL,FAKE,,,,,,,,,,,,,,,,,,,,,
,,,,,,,60485c6bfddf0e195cb18b62,60568611ec04488a9e9da93b,6056b4895f7fbeb3e25c48f8,I am not familiar with Spanish,South,NA,no,2021-03-20_21h54.17.899,empathy_intonation_perc,2020.2.10,Win32,60,,,,,,,,,,0,,,,,,,,,,,,,,,,,,,,,,,,,,,,,,,,,,,,,,,,27,acutacin,,,1,0,1.93992,0,23,23,26,1,REAL,FAKE,,,,,,,,,,,,,,,,,,,,,
,,,,,,,60485c6bfddf0e195cb18b62,60568611ec04488a9e9da93b,6056b4895f7fbeb3e25c48f8,I am not familiar with Spanish,South,NA,no,2021-03-20_21h54.17.899,empathy_intonation_perc,2020.2.10,Win32,60,,,,,,,,,,0,,,,,,,,,,,,,,,,,,,,,,,,,,,,,,,,,,,,,,,,29,decar,,,1,0,1.290715,0,24,24,28,1,REAL,FAKE,,,,,,,,,,,,,,,,,,,,,
,,,,,,,60485c6bfddf0e195cb18b62,60568611ec04488a9e9da93b,6056b4895f7fbeb3e25c48f8,I am not familiar with Spanish,South,NA,no,2021-03-20_21h54.17.899,empathy_intonation_perc,2020.2.10,Win32,60,,,,,,,,,,0,,,,,,,,,,,,,,,,,,,,,,,,,,,,,,,,,,,,,,,,32,fatacidad,,,0,1,1.07808,0,25,25,31,1,REAL,FAKE,,,,,,,,,,,,,,,,,,,,,
,,,,,,,60485c6bfddf0e195cb18b62,60568611ec04488a9e9da93b,6056b4895f7fbeb3e25c48f8,I am not familiar with Spanish,South,NA,no,2021-03-20_21h54.17.899,empathy_intonation_perc,2020.2.10,Win32,60,,,,,,,,,,1,,,,,,,,,,,,,,,,,,,,,,,,,,,,,,,,,,,,,,,,67,cabello,,,0,0,1.43385,0,26,26,66,1,REAL,FAKE,,,,,,,,,,,,,,,,,,,,,
,,,,,,,60485c6bfddf0e195cb18b62,60568611ec04488a9e9da93b,6056b4895f7fbeb3e25c48f8,I am not familiar with Spanish,South,NA,no,2021-03-20_21h54.17.899,empathy_intonation_perc,2020.2.10,Win32,60,,,,,,,,,,1,,,,,,,,,,,,,,,,,,,,,,,,,,,,,,,,,,,,,,,,45,jilguero,,,0,0,1.84084,0,27,27,44,1,REAL,FAKE,,,,,,,,,,,,,,,,,,,,,
,,,,,,,60485c6bfddf0e195cb18b62,60568611ec04488a9e9da93b,6056b4895f7fbeb3e25c48f8,I am not familiar with Spanish,South,NA,no,2021-03-20_21h54.17.899,empathy_intonation_perc,2020.2.10,Win32,60,,,,,,,,,,0,,,,,,,,,,,,,,,,,,,,,,,,,,,,,,,,,,,,,,,,50,flamida,,,0,1,1.196335,0,28,28,49,1,REAL,FAKE,,,,,,,,,,,,,,,,,,,,,
,,,,,,,60485c6bfddf0e195cb18b62,60568611ec04488a9e9da93b,6056b4895f7fbeb3e25c48f8,I am not familiar with Spanish,South,NA,no,2021-03-20_21h54.17.899,empathy_intonation_perc,2020.2.10,Win32,60,,,,,,,,,,1,,,,,,,,,,,,,,,,,,,,,,,,,,,,,,,,,,,,,,,,14,yunque,,,0,0,0.873025,0,29,29,13,1,REAL,FAKE,,,,,,,,,,,,,,,,,,,,,
,,,,,,,60485c6bfddf0e195cb18b62,60568611ec04488a9e9da93b,6056b4895f7fbeb3e25c48f8,I am not familiar with Spanish,South,NA,no,2021-03-20_21h54.17.899,empathy_intonation_perc,2020.2.10,Win32,60,,,,,,,,,,1,,,,,,,,,,,,,,,,,,,,,,,,,,,,,,,,,,,,,,,,22,lacayo,,,1,1,0.810065,0,30,30,21,1,REAL,FAKE,,,,,,,,,,,,,,,,,,,,,
,,,,,,,60485c6bfddf0e195cb18b62,60568611ec04488a9e9da93b,6056b4895f7fbeb3e25c48f8,I am not familiar with Spanish,South,NA,no,2021-03-20_21h54.17.899,empathy_intonation_perc,2020.2.10,Win32,60,,,,,,,,,,1,,,,,,,,,,,,,,,,,,,,,,,,,,,,,,,,,,,,,,,,2,pellizcar,,,0,0,0.99275,0,31,31,1,1,REAL,FAKE,,,,,,,,,,,,,,,,,,,,,
,,,,,,,60485c6bfddf0e195cb18b62,60568611ec04488a9e9da93b,6056b4895f7fbeb3e25c48f8,I am not familiar with Spanish,South,NA,no,2021-03-20_21h54.17.899,empathy_intonation_perc,2020.2.10,Win32,60,,,,,,,,,,1,,,,,,,,,,,,,,,,,,,,,,,,,,,,,,,,,,,,,,,,13,helar,,,0,0,0.78,0,32,32,12,1,REAL,FAKE,,,,,,,,,,,,,,,,,,,,,
,,,,,,,60485c6bfddf0e195cb18b62,60568611ec04488a9e9da93b,6056b4895f7fbeb3e25c48f8,I am not familiar with Spanish,South,NA,no,2021-03-20_21h54.17.899,empathy_intonation_perc,2020.2.10,Win32,60,,,,,,,,,,1,,,,,,,,,,,,,,,,,,,,,,,,,,,,,,,,,,,,,,,,40,alfombra,,,0,0,1.34297,0,33,33,39,1,REAL,FAKE,,,,,,,,,,,,,,,,,,,,,
,,,,,,,60485c6bfddf0e195cb18b62,60568611ec04488a9e9da93b,6056b4895f7fbeb3e25c48f8,I am not familiar with Spanish,South,NA,no,2021-03-20_21h54.17.899,empathy_intonation_perc,2020.2.10,Win32,60,,,,,,,,,,0,,,,,,,,,,,,,,,,,,,,,,,,,,,,,,,,,,,,,,,,35,rompido,,,1,0,0.847195,0,34,34,34,1,REAL,FAKE,,,,,,,,,,,,,,,,,,,,,
,,,,,,,60485c6bfddf0e195cb18b62,60568611ec04488a9e9da93b,6056b4895f7fbeb3e25c48f8,I am not familiar with Spanish,South,NA,no,2021-03-20_21h54.17.899,empathy_intonation_perc,2020.2.10,Win32,60,,,,,,,,,,1,,,,,,,,,,,,,,,,,,,,,,,,,,,,,,,,,,,,,,,,89,prisa,,,0,0,1.91515,0,35,35,88,1,REAL,FAKE,,,,,,,,,,,,,,,,,,,,,
,,,,,,,60485c6bfddf0e195cb18b62,60568611ec04488a9e9da93b,6056b4895f7fbeb3e25c48f8,I am not familiar with Spanish,South,NA,no,2021-03-20_21h54.17.899,empathy_intonation_perc,2020.2.10,Win32,60,,,,,,,,,,0,,,,,,,,,,,,,,,,,,,,,,,,,,,,,,,,,,,,,,,,66,hacido,,,1,0,1.13631,0,36,36,65,1,REAL,FAKE,,,,,,,,,,,,,,,,,,,,,
,,,,,,,60485c6bfddf0e195cb18b62,60568611ec04488a9e9da93b,6056b4895f7fbeb3e25c48f8,I am not familiar with Spanish,South,NA,no,2021-03-20_21h54.17.899,empathy_intonation_perc,2020.2.10,Win32,60,,,,,,,,,,1,,,,,,,,,,,,,,,,,,,,,,,,,,,,,,,,,,,,,,,,11,cenefa,,,0,0,1.032435,0,37,37,10,1,REAL,FAKE,,,,,,,,,,,,,,,,,,,,,
,,,,,,,60485c6bfddf0e195cb18b62,60568611ec04488a9e9da93b,6056b4895f7fbeb3e25c48f8,I am not familiar with Spanish,South,NA,no,2021-03-20_21h54.17.899,empathy_intonation_perc,2020.2.10,Win32,60,,,,,,,,,,0,,,,,,,,,,,,,,,,,,,,,,,,,,,,,,,,,,,,,,,,19,brecedad,,,0,1,0.876035,0,38,38,18,1,REAL,FAKE,,,,,,,,,,,,,,,,,,,,,
,,,,,,,60485c6bfddf0e195cb18b62,60568611ec04488a9e9da93b,6056b4895f7fbeb3e25c48f8,I am not familiar with Spanish,South,NA,no,2021-03-20_21h54.17.899,empathy_intonation_perc,2020.2.10,Win32,60,,,,,,,,,,1,,,,,,,,,,,,,,,,,,,,,,,,,,,,,,,,,,,,,,,,38,estornudar,,,0,0,1.15914,0,39,39,37,1,REAL,FAKE,,,,,,,,,,,,,,,,,,,,,
,,,,,,,60485c6bfddf0e195cb18b62,60568611ec04488a9e9da93b,6056b4895f7fbeb3e25c48f8,I am not familiar with Spanish,South,NA,no,2021-03-20_21h54.17.899,empathy_intonation_perc,2020.2.10,Win32,60,,,,,,,,,,0,,,,,,,,,,,,,,,,,,,,,,,,,,,,,,,,,,,,,,,,30,alardio,,,1,0,0.909945,0,40,40,29,1,REAL,FAKE,,,,,,,,,,,,,,,,,,,,,
,,,,,,,60485c6bfddf0e195cb18b62,60568611ec04488a9e9da93b,6056b4895f7fbeb3e25c48f8,I am not familiar with Spanish,South,NA,no,2021-03-20_21h54.17.899,empathy_intonation_perc,2020.2.10,Win32,60,,,,,,,,,,1,,,,,,,,,,,,,,,,,,,,,,,,,,,,,,,,,,,,,,,,60,matar,,,1,1,1.328025,0,41,41,59,1,REAL,FAKE,,,,,,,,,,,,,,,,,,,,,
,,,,,,,60485c6bfddf0e195cb18b62,60568611ec04488a9e9da93b,6056b4895f7fbeb3e25c48f8,I am not familiar with Spanish,South,NA,no,2021-03-20_21h54.17.899,empathy_intonation_perc,2020.2.10,Win32,60,,,,,,,,,,1,,,,,,,,,,,,,,,,,,,,,,,,,,,,,,,,,,,,,,,,75,yacer,,,0,0,1.329835,0,42,42,74,1,REAL,FAKE,,,,,,,,,,,,,,,,,,,,,
,,,,,,,60485c6bfddf0e195cb18b62,60568611ec04488a9e9da93b,6056b4895f7fbeb3e25c48f8,I am not familiar with Spanish,South,NA,no,2021-03-20_21h54.17.899,empathy_intonation_perc,2020.2.10,Win32,60,,,,,,,,,,1,,,,,,,,,,,,,,,,,,,,,,,,,,,,,,,,,,,,,,,,78,frondoso,,,0,0,0.87413,0,43,43,77,1,REAL,FAKE,,,,,,,,,,,,,,,,,,,,,
,,,,,,,60485c6bfddf0e195cb18b62,60568611ec04488a9e9da93b,6056b4895f7fbeb3e25c48f8,I am not familiar with Spanish,South,NA,no,2021-03-20_21h54.17.899,empathy_intonation_perc,2020.2.10,Win32,60,,,,,,,,,,1,,,,,,,,,,,,,,,,,,,,,,,,,,,,,,,,,,,,,,,,44,cuchara,,,1,1,0.948675,0,44,44,43,1,REAL,FAKE,,,,,,,,,,,,,,,,,,,,,
,,,,,,,60485c6bfddf0e195cb18b62,60568611ec04488a9e9da93b,6056b4895f7fbeb3e25c48f8,I am not familiar with Spanish,South,NA,no,2021-03-20_21h54.17.899,empathy_intonation_perc,2020.2.10,Win32,60,,,,,,,,,,0,,,,,,,,,,,,,,,,,,,,,,,,,,,,,,,,,,,,,,,,4,batilln,,,0,1,1.25416,0,45,45,3,1,REAL,FAKE,,,,,,,,,,,,,,,,,,,,,
,,,,,,,60485c6bfddf0e195cb18b62,60568611ec04488a9e9da93b,6056b4895f7fbeb3e25c48f8,I am not familiar with Spanish,South,NA,no,2021-03-20_21h54.17.899,empathy_intonation_perc,2020.2.10,Win32,60,,,,,,,,,,1,,,,,,,,,,,,,,,,,,,,,,,,,,,,,,,,,,,,,,,,7,psimo,,,1,1,1.08319,0,46,46,6,1,REAL,FAKE,,,,,,,,,,,,,,,,,,,,,
,,,,,,,60485c6bfddf0e195cb18b62,60568611ec04488a9e9da93b,6056b4895f7fbeb3e25c48f8,I am not familiar with Spanish,South,NA,no,2021-03-20_21h54.17.899,empathy_intonation_perc,2020.2.10,Win32,60,,,,,,,,,,1,,,,,,,,,,,,,,,,,,,,,,,,,,,,,,,,,,,,,,,,86,barato,,,0,0,0.90949,0,47,47,85,1,REAL,FAKE,,,,,,,,,,,,,,,,,,,,,
,,,,,,,60485c6bfddf0e195cb18b62,60568611ec04488a9e9da93b,6056b4895f7fbeb3e25c48f8,I am not familiar with Spanish,South,NA,no,2021-03-20_21h54.17.899,empathy_intonation_perc,2020.2.10,Win32,60,,,,,,,,,,1,,,,,,,,,,,,,,,,,,,,,,,,,,,,,,,,,,,,,,,,52,camisa,,,0,0,0.62304,0,48,48,51,1,REAL,FAKE,,,,,,,,,,,,,,,,,,,,,
,,,,,,,60485c6bfddf0e195cb18b62,60568611ec04488a9e9da93b,6056b4895f7fbeb3e25c48f8,I am not familiar with Spanish,South,NA,no,2021-03-20_21h54.17.899,empathy_intonation_perc,2020.2.10,Win32,60,,,,,,,,,,0,,,,,,,,,,,,,,,,,,,,,,,,,,,,,,,,,,,,,,,,8,cadea,,,1,0,0.888015,0,49,49,7,1,REAL,FAKE,,,,,,,,,,,,,,,,,,,,,
,,,,,,,60485c6bfddf0e195cb18b62,60568611ec04488a9e9da93b,6056b4895f7fbeb3e25c48f8,I am not familiar with Spanish,South,NA,no,2021-03-20_21h54.17.899,empathy_intonation_perc,2020.2.10,Win32,60,,,,,,,,,,1,,,,,,,,,,,,,,,,,,,,,,,,,,,,,,,,,,,,,,,,49,ganar,,,0,0,1.66609,0,50,50,48,1,REAL,FAKE,,,,,,,,,,,,,,,,,,,,,
,,,,,,,60485c6bfddf0e195cb18b62,60568611ec04488a9e9da93b,6056b4895f7fbeb3e25c48f8,I am not familiar with Spanish,South,NA,no,2021-03-20_21h54.17.899,empathy_intonation_perc,2020.2.10,Win32,60,,,,,,,,,,0,,,,,,,,,,,,,,,,,,,,,,,,,,,,,,,,,,,,,,,,21,capillo,,,0,1,0.778435,0,51,51,20,1,REAL,FAKE,,,,,,,,,,,,,,,,,,,,,
,,,,,,,60485c6bfddf0e195cb18b62,60568611ec04488a9e9da93b,6056b4895f7fbeb3e25c48f8,I am not familiar with Spanish,South,NA,no,2021-03-20_21h54.17.899,empathy_intonation_perc,2020.2.10,Win32,60,,,,,,,,,,1,,,,,,,,,,,,,,,,,,,,,,,,,,,,,,,,,,,,,,,,51,candado,,,0,0,1.131725,0,52,52,50,1,REAL,FAKE,,,,,,,,,,,,,,,,,,,,,
,,,,,,,60485c6bfddf0e195cb18b62,60568611ec04488a9e9da93b,6056b4895f7fbeb3e25c48f8,I am not familiar with Spanish,South,NA,no,2021-03-20_21h54.17.899,empathy_intonation_perc,2020.2.10,Win32,60,,,,,,,,,,1,,,,,,,,,,,,,,,,,,,,,,,,,,,,,,,,,,,,,,,,12,asesinato,,,1,1,2.13642,0,53,53,11,1,REAL,FAKE,,,,,,,,,,,,,,,,,,,,,
,,,,,,,60485c6bfddf0e195cb18b62,60568611ec04488a9e9da93b,6056b4895f7fbeb3e25c48f8,I am not familiar with Spanish,South,NA,no,2021-03-20_21h54.17.899,empathy_intonation_perc,2020.2.10,Win32,60,,,,,,,,,,1,,,,,,,,,,,,,,,,,,,,,,,,,,,,,,,,,,,,,,,,25,bisagra,,,0,0,1.41028,0,54,54,24,1,REAL,FAKE,,,,,,,,,,,,,,,,,,,,,
,,,,,,,60485c6bfddf0e195cb18b62,60568611ec04488a9e9da93b,6056b4895f7fbeb3e25c48f8,I am not familiar with Spanish,South,NA,no,2021-03-20_21h54.17.899,empathy_intonation_perc,2020.2.10,Win32,60,,,,,,,,,,0,,,,,,,,,,,,,,,,,,,,,,,,,,,,,,,,,,,,,,,,33,pauca,,,0,1,1.183735,0,55,55,32,1,REAL,FAKE,,,,,,,,,,,,,,,,,,,,,
,,,,,,,60485c6bfddf0e195cb18b62,60568611ec04488a9e9da93b,6056b4895f7fbeb3e25c48f8,I am not familiar with Spanish,South,NA,no,2021-03-20_21h54.17.899,empathy_intonation_perc,2020.2.10,Win32,60,,,,,,,,,,0,,,,,,,,,,,,,,,,,,,,,,,,,,,,,,,,,,,,,,,,17,floroso,,,1,0,0.991215,0,56,56,16,1,REAL,FAKE,,,,,,,,,,,,,,,,,,,,,
,,,,,,,60485c6bfddf0e195cb18b62,60568611ec04488a9e9da93b,6056b4895f7fbeb3e25c48f8,I am not familiar with Spanish,South,NA,no,2021-03-20_21h54.17.899,empathy_intonation_perc,2020.2.10,Win32,60,,,,,,,,,,0,,,,,,,,,,,,,,,,,,,,,,,,,,,,,,,,,,,,,,,,16,abracer,,,0,1,1.39743,0,57,57,15,1,REAL,FAKE,,,,,,,,,,,,,,,,,,,,,
,,,,,,,60485c6bfddf0e195cb18b62,60568611ec04488a9e9da93b,6056b4895f7fbeb3e25c48f8,I am not familiar with Spanish,South,NA,no,2021-03-20_21h54.17.899,empathy_intonation_perc,2020.2.10,Win32,60,,,,,,,,,,1,,,,,,,,,,,,,,,,,,,,,,,,,,,,,,,,,,,,,,,,64,orgulloso,,,0,0,1.57763,0,58,58,63,1,REAL,FAKE,,,,,,,,,,,,,,,,,,,,,
,,,,,,,60485c6bfddf0e195cb18b62,60568611ec04488a9e9da93b,6056b4895f7fbeb3e25c48f8,I am not familiar with Spanish,South,NA,no,2021-03-20_21h54.17.899,empathy_intonation_perc,2020.2.10,Win32,60,,,,,,,,,,1,,,,,,,,,,,,,,,,,,,,,,,,,,,,,,,,,,,,,,,,31,pandilla,,,0,0,1.44675,0,59,59,30,1,REAL,FAKE,,,,,,,,,,,,,,,,,,,,,
,,,,,,,60485c6bfddf0e195cb18b62,60568611ec04488a9e9da93b,6056b4895f7fbeb3e25c48f8,I am not familiar with Spanish,South,NA,no,2021-03-20_21h54.17.899,empathy_intonation_perc,2020.2.10,Win32,60,,,,,,,,,,0,,,,,,,,,,,,,,,,,,,,,,,,,,,,,,,,,,,,,,,,10,antar,,,1,0,0.781975,0,60,60,9,1,REAL,FAKE,,,,,,,,,,,,,,,,,,,,,
,,,,,,,60485c6bfddf0e195cb18b62,60568611ec04488a9e9da93b,6056b4895f7fbeb3e25c48f8,I am not familiar with Spanish,South,NA,no,2021-03-20_21h54.17.899,empathy_intonation_perc,2020.2.10,Win32,60,,,,,,,,,,1,,,,,,,,,,,,,,,,,,,,,,,,,,,,,,,,,,,,,,,,57,tacao,,,0,0,1.81533,0,61,61,56,1,REAL,FAKE,,,,,,,,,,,,,,,,,,,,,
,,,,,,,60485c6bfddf0e195cb18b62,60568611ec04488a9e9da93b,6056b4895f7fbeb3e25c48f8,I am not familiar with Spanish,South,NA,no,2021-03-20_21h54.17.899,empathy_intonation_perc,2020.2.10,Win32,60,,,,,,,,,,0,,,,,,,,,,,,,,,,,,,,,,,,,,,,,,,,,,,,,,,,18,arsa,,,0,1,1.22613,0,62,62,17,1,REAL,FAKE,,,,,,,,,,,,,,,,,,,,,
,,,,,,,60485c6bfddf0e195cb18b62,60568611ec04488a9e9da93b,6056b4895f7fbeb3e25c48f8,I am not familiar with Spanish,South,NA,no,2021-03-20_21h54.17.899,empathy_intonation_perc,2020.2.10,Win32,60,,,,,,,,,,1,,,,,,,,,,,,,,,,,,,,,,,,,,,,,,,,,,,,,,,,5,zapato,,,1,1,0.758145,0,63,63,4,1,REAL,FAKE,,,,,,,,,,,,,,,,,,,,,
,,,,,,,60485c6bfddf0e195cb18b62,60568611ec04488a9e9da93b,6056b4895f7fbeb3e25c48f8,I am not familiar with Spanish,South,NA,no,2021-03-20_21h54.17.899,empathy_intonation_perc,2020.2.10,Win32,60,,,,,,,,,,1,,,,,,,,,,,,,,,,,,,,,,,,,,,,,,,,,,,,,,,,83,guante,,,0,0,1.57626,0,64,64,82,1,REAL,FAKE,,,,,,,,,,,,,,,,,,,,,
,,,,,,,60485c6bfddf0e195cb18b62,60568611ec04488a9e9da93b,6056b4895f7fbeb3e25c48f8,I am not familiar with Spanish,South,NA,no,2021-03-20_21h54.17.899,empathy_intonation_perc,2020.2.10,Win32,60,,,,,,,,,,1,,,,,,,,,,,,,,,,,,,,,,,,,,,,,,,,,,,,,,,,54,fomentar,,,0,0,1.223245,0,65,65,53,1,REAL,FAKE,,,,,,,,,,,,,,,,,,,,,
,,,,,,,60485c6bfddf0e195cb18b62,60568611ec04488a9e9da93b,6056b4895f7fbeb3e25c48f8,I am not familiar with Spanish,South,NA,no,2021-03-20_21h54.17.899,empathy_intonation_perc,2020.2.10,Win32,60,,,,,,,,,,1,,,,,,,,,,,,,,,,,,,,,,,,,,,,,,,,,,,,,,,,76,atar,,,0,0,0.740815,0,66,66,75,1,REAL,FAKE,,,,,,,,,,,,,,,,,,,,,
,,,,,,,60485c6bfddf0e195cb18b62,60568611ec04488a9e9da93b,6056b4895f7fbeb3e25c48f8,I am not familiar with Spanish,South,NA,no,2021-03-20_21h54.17.899,empathy_intonation_perc,2020.2.10,Win32,60,,,,,,,,,,1,,,,,,,,,,,,,,,,,,,,,,,,,,,,,,,,,,,,,,,,9,hacha,,,1,1,0.78403,0,67,67,8,1,REAL,FAKE,,,,,,,,,,,,,,,,,,,,,
,,,,,,,60485c6bfddf0e195cb18b62,60568611ec04488a9e9da93b,6056b4895f7fbeb3e25c48f8,I am not familiar with Spanish,South,NA,no,2021-03-20_21h54.17.899,empathy_intonation_perc,2020.2.10,Win32,60,,,,,,,,,,1,,,,,,,,,,,,,,,,,,,,,,,,,,,,,,,,,,,,,,,,77,tiburn,,,0,0,1.836795,0,68,68,76,1,REAL,FAKE,,,,,,,,,,,,,,,,,,,,,
,,,,,,,60485c6bfddf0e195cb18b62,60568611ec04488a9e9da93b,6056b4895f7fbeb3e25c48f8,I am not familiar with Spanish,South,NA,no,2021-03-20_21h54.17.899,empathy_intonation_perc,2020.2.10,Win32,60,,,,,,,,,,1,,,,,,,,,,,,,,,,,,,,,,,,,,,,,,,,,,,,,,,,36,loro,,,0,0,0.900215,0,69,69,35,1,REAL,FAKE,,,,,,,,,,,,,,,,,,,,,
,,,,,,,60485c6bfddf0e195cb18b62,60568611ec04488a9e9da93b,6056b4895f7fbeb3e25c48f8,I am not familiar with Spanish,South,NA,no,2021-03-20_21h54.17.899,empathy_intonation_perc,2020.2.10,Win32,60,,,,,,,,,,0,,,,,,,,,,,,,,,,,,,,,,,,,,,,,,,,,,,,,,,,42,cadallo,,,0,1,1.30656,0,70,70,41,1,REAL,FAKE,,,,,,,,,,,,,,,,,,,,,
,,,,,,,60485c6bfddf0e195cb18b62,60568611ec04488a9e9da93b,6056b4895f7fbeb3e25c48f8,I am not familiar with Spanish,South,NA,no,2021-03-20_21h54.17.899,empathy_intonation_perc,2020.2.10,Win32,60,,,,,,,,,,0,,,,,,,,,,,,,,,,,,,,,,,,,,,,,,,,,,,,,,,,58,plaudir,,,0,1,0.976175,0,71,71,57,1,REAL,FAKE,,,,,,,,,,,,,,,,,,,,,
,,,,,,,60485c6bfddf0e195cb18b62,60568611ec04488a9e9da93b,6056b4895f7fbeb3e25c48f8,I am not familiar with Spanish,South,NA,no,2021-03-20_21h54.17.899,empathy_intonation_perc,2020.2.10,Win32,60,,,,,,,,,,1,,,,,,,,,,,,,,,,,,,,,,,,,,,,,,,,,,,,,,,,26,secuestro,,,0,0,1.123435,0,72,72,25,1,REAL,FAKE,,,,,,,,,,,,,,,,,,,,,
,,,,,,,60485c6bfddf0e195cb18b62,60568611ec04488a9e9da93b,6056b4895f7fbeb3e25c48f8,I am not familiar with Spanish,South,NA,no,2021-03-20_21h54.17.899,empathy_intonation_perc,2020.2.10,Win32,60,,,,,,,,,,1,,,,,,,,,,,,,,,,,,,,,,,,,,,,,,,,,,,,,,,,62,flaco,,,1,1,1.710965,0,73,73,61,1,REAL,FAKE,,,,,,,,,,,,,,,,,,,,,
,,,,,,,60485c6bfddf0e195cb18b62,60568611ec04488a9e9da93b,6056b4895f7fbeb3e25c48f8,I am not familiar with Spanish,South,NA,no,2021-03-20_21h54.17.899,empathy_intonation_perc,2020.2.10,Win32,60,,,,,,,,,,1,,,,,,,,,,,,,,,,,,,,,,,,,,,,,,,,,,,,,,,,34,aviso,,,0,0,2.114735,0,74,74,33,1,REAL,FAKE,,,,,,,,,,,,,,,,,,,,,
,,,,,,,60485c6bfddf0e195cb18b62,60568611ec04488a9e9da93b,6056b4895f7fbeb3e25c48f8,I am not familiar with Spanish,South,NA,no,2021-03-20_21h54.17.899,empathy_intonation_perc,2020.2.10,Win32,60,,,,,,,,,,0,,,,,,,,,,,,,,,,,,,,,,,,,,,,,,,,,,,,,,,,87,grodo,,,0,1,1.01793,0,75,75,86,1,REAL,FAKE,,,,,,,,,,,,,,,,,,,,,
,,,,,,,60485c6bfddf0e195cb18b62,60568611ec04488a9e9da93b,6056b4895f7fbeb3e25c48f8,I am not familiar with Spanish,South,NA,no,2021-03-20_21h54.17.899,empathy_intonation_perc,2020.2.10,Win32,60,,,,,,,,,,1,,,,,,,,,,,,,,,,,,,,,,,,,,,,,,,,,,,,,,,,81,pozo,,,1,1,0.82323,0,76,76,80,1,REAL,FAKE,,,,,,,,,,,,,,,,,,,,,
,,,,,,,60485c6bfddf0e195cb18b62,60568611ec04488a9e9da93b,6056b4895f7fbeb3e25c48f8,I am not familiar with Spanish,South,NA,no,2021-03-20_21h54.17.899,empathy_intonation_perc,2020.2.10,Win32,60,,,,,,,,,,0,,,,,,,,,,,,,,,,,,,,,,,,,,,,,,,,,,,,,,,,63,esposante,,,1,0,1.017805,0,77,77,62,1,REAL,FAKE,,,,,,,,,,,,,,,,,,,,,
,,,,,,,60485c6bfddf0e195cb18b62,60568611ec04488a9e9da93b,6056b4895f7fbeb3e25c48f8,I am not familiar with Spanish,South,NA,no,2021-03-20_21h54.17.899,empathy_intonation_perc,2020.2.10,Win32,60,,,,,,,,,,0,,,,,,,,,,,,,,,,,,,,,,,,,,,,,,,,,,,,,,,,79,tropaje,,,0,1,1.0185,0,78,78,78,1,REAL,FAKE,,,,,,,,,,,,,,,,,,,,,
,,,,,,,60485c6bfddf0e195cb18b62,60568611ec04488a9e9da93b,6056b4895f7fbeb3e25c48f8,I am not familiar with Spanish,South,NA,no,2021-03-20_21h54.17.899,empathy_intonation_perc,2020.2.10,Win32,60,,,,,,,,,,1,,,,,,,,,,,,,,,,,,,,,,,,,,,,,,,,,,,,,,,,48,ladrn,,,0,0,1.74938,0,79,79,47,1,REAL,FAKE,,,,,,,,,,,,,,,,,,,,,
,,,,,,,60485c6bfddf0e195cb18b62,60568611ec04488a9e9da93b,6056b4895f7fbeb3e25c48f8,I am not familiar with Spanish,South,NA,no,2021-03-20_21h54.17.899,empathy_intonation_perc,2020.2.10,Win32,60,,,,,,,,,,1,,,,,,,,,,,,,,,,,,,,,,,,,,,,,,,,,,,,,,,,37,granuja,,,0,0,1.36554,0,80,80,36,1,REAL,FAKE,,,,,,,,,,,,,,,,,,,,,
,,,,,,,60485c6bfddf0e195cb18b62,60568611ec04488a9e9da93b,6056b4895f7fbeb3e25c48f8,I am not familiar with Spanish,South,NA,no,2021-03-20_21h54.17.899,empathy_intonation_perc,2020.2.10,Win32,60,,,,,,,,,,0,,,,,,,,,,,,,,,,,,,,,,,,,,,,,,,,,,,,,,,,1,terzo,,,0,1,0.82259,0,81,81,0,1,REAL,FAKE,,,,,,,,,,,,,,,,,,,,,
,,,,,,,60485c6bfddf0e195cb18b62,60568611ec04488a9e9da93b,6056b4895f7fbeb3e25c48f8,I am not familiar with Spanish,South,NA,no,2021-03-20_21h54.17.899,empathy_intonation_perc,2020.2.10,Win32,60,,,,,,,,,,1,,,,,,,,,,,,,,,,,,,,,,,,,,,,,,,,,,,,,,,,73,hervidor,,,1,1,1.109185,0,82,82,72,1,REAL,FAKE,,,,,,,,,,,,,,,,,,,,,
,,,,,,,60485c6bfddf0e195cb18b62,60568611ec04488a9e9da93b,6056b4895f7fbeb3e25c48f8,I am not familiar with Spanish,South,NA,no,2021-03-20_21h54.17.899,empathy_intonation_perc,2020.2.10,Win32,60,,,,,,,,,,1,,,,,,,,,,,,,,,,,,,,,,,,,,,,,,,,,,,,,,,,24,ltigo,,,1,1,1.228185,0,83,83,23,1,REAL,FAKE,,,,,,,,,,,,,,,,,,,,,
,,,,,,,60485c6bfddf0e195cb18b62,60568611ec04488a9e9da93b,6056b4895f7fbeb3e25c48f8,I am not familiar with Spanish,South,NA,no,2021-03-20_21h54.17.899,empathy_intonation_perc,2020.2.10,Win32,60,,,,,,,,,,0,,,,,,,,,,,,,,,,,,,,,,,,,,,,,,,,,,,,,,,,82,empirador,,,0,1,1.75741,0,84,84,81,1,REAL,FAKE,,,,,,,,,,,,,,,,,,,,,
,,,,,,,60485c6bfddf0e195cb18b62,60568611ec04488a9e9da93b,6056b4895f7fbeb3e25c48f8,I am not familiar with Spanish,South,NA,no,2021-03-20_21h54.17.899,empathy_intonation_perc,2020.2.10,Win32,60,,,,,,,,,,0,,,,,,,,,,,,,,,,,,,,,,,,,,,,,,,,,,,,,,,,84,escuto,,,0,1,0.93666,0,85,85,83,1,REAL,FAKE,,,,,,,,,,,,,,,,,,,,,
,,,,,,,60485c6bfddf0e195cb18b62,60568611ec04488a9e9da93b,6056b4895f7fbeb3e25c48f8,I am not familiar with Spanish,South,NA,no,2021-03-20_21h54.17.899,empathy_intonation_perc,2020.2.10,Win32,60,,,,,,,,,,1,,,,,,,,,,,,,,,,,,,,,,,,,,,,,,,,,,,,,,,,71,polvoriento,,,0,0,2.226105,0,86,86,70,1,REAL,FAKE,,,,,,,,,,,,,,,,,,,,,
,,,,,,,60485c6bfddf0e195cb18b62,60568611ec04488a9e9da93b,6056b4895f7fbeb3e25c48f8,I am not familiar with Spanish,South,NA,no,2021-03-20_21h54.17.899,empathy_intonation_perc,2020.2.10,Win32,60,,,,,,,,,,1,,,,,,,,,,,,,,,,,,,,,,,,,,,,,,,,,,,,,,,,46,martillo,,,1,1,1.735795,0,87,87,45,1,REAL,FAKE,,,,,,,,,,,,,,,,,,,,,
,,,,,,,60485c6bfddf0e195cb18b62,60568611ec04488a9e9da93b,6056b4895f7fbeb3e25c48f8,I am not familiar with Spanish,South,NA,no,2021-03-20_21h54.17.899,empathy_intonation_perc,2020.2.10,Win32,60,,,,,,,,,,1,,,,,,,,,,,,,,,,,,,,,,,,,,,,,,,,,,,,,,,,6,tergiversar,,,0,0,1.222945,0,88,88,5,1,REAL,FAKE,,,,,,,,,,,,,,,,,,,,,
,,,,,,,60485c6bfddf0e195cb18b62,60568611ec04488a9e9da93b,6056b4895f7fbeb3e25c48f8,I am not familiar with Spanish,South,NA,no,2021-03-20_21h54.17.899,empathy_intonation_perc,2020.2.10,Win32,60,,,,,,,,,,0,,,,,,,,,,,,,,,,,,,,,,,,,,,,,,,,,,,,,,,,70,temblo,,,0,1,1.785165,0,89,89,69,1,REAL,FAKE,,,,,,,,,,,,,,,,,,,,,
,,,,,,,60485c6bfddf0e195cb18b62,60568611ec04488a9e9da93b,6056b4895f7fbeb3e25c48f8,I am not familiar with Spanish,South,NA,no,2021-03-20_21h54.17.899,empathy_intonation_perc,2020.2.10,Win32,60,,,,,,,,,,,,,,,,,,,,,,,,,,,,,,,,,,,,,,,,,,,,,,,,,,,,,,,,,,,,,,,,4,1,3.03213,1,0,0,0,0,0,1,,,,,,,,,,,
,,,,,,,60485c6bfddf0e195cb18b62,60568611ec04488a9e9da93b,6056b4895f7fbeb3e25c48f8,I am not familiar with Spanish,South,NA,no,2021-03-20_21h54.17.899,empathy_intonation_perc,2020.2.10,Win32,60,,,,,,,,,,,,,,,,,,,,1,,,,,,,,,,,,,,,,,,,,,,,,,,,,,,,,,,,,,,,,,,,,,,,,,,,,,,4,0,0,0,0,1,I can easily tell if someone else wants to enter a conversation.,1,0,1,0
,,,,,,,60485c6bfddf0e195cb18b62,60568611ec04488a9e9da93b,6056b4895f7fbeb3e25c48f8,I am not familiar with Spanish,South,NA,no,2021-03-20_21h54.17.899,empathy_intonation_perc,2020.2.10,Win32,60,,,,,,,,,,,,,,,,,,,,2,,,,,,,,,,,,,,,,,,,,,,,,,,,,,,,,,,,,,,,,,,,,,,,,,,,,,,5,0,1,1,1,1,I prefer animals to humans.,0,1,0,0
