instructions_2afc_loop.thisRepN,instructions_2afc_loop.thisTrialN,instructions_2afc_loop.thisN,instructions_2afc_loop.thisIndex,instructions_2afc_loop.ran,instructions_text,continue_text,participant,study_id,session,I am most familiar with Spanish from...*,What part of the US are you from?*,At what age did you begin learning Spanish?*,Are you proficient in any languages other than English/Spanish?*,date,expName,psychopyVersion,OS,frameRate,key_resp_2afc_practice.keys,key_resp_2afc_practice.corr,key_resp_2afc_practice.rt,trials_2afc_practice_loop.thisRepN,trials_2afc_practice_loop.thisTrialN,trials_2afc_practice_loop.thisN,trials_2afc_practice_loop.thisIndex,trials_2afc_practice_loop.ran,path,correct_response,the_col,key_resp_2afc_trial.keys,key_resp_2afc_trial.corr,key_resp_2afc_trial.rt,trials_2afc_loop.thisRepN,trials_2afc_loop.thisTrialN,trials_2afc_loop.thisN,trials_2afc_loop.thisIndex,trials_2afc_loop.ran,item_num,andalusian,argentine,castilian,chilean,cuban,mexican,peruvian,puertorican,key_resp_ac1.keys,key_resp_ac1.corr,key_resp_ac1.rt,ac1_loop.thisRepN,ac1_loop.thisTrialN,ac1_loop.thisN,ac1_loop.thisIndex,ac1_loop.ran,instructions_lextale_loop.thisRepN,instructions_lextale_loop.thisTrialN,instructions_lextale_loop.thisN,instructions_lextale_loop.thisIndex,instructions_lextale_loop.ran,key_resp_lextale_practice.keys,key_resp_lextale_practice.corr,key_resp_lextale_practice.rt,trials_lextale_practice_loop.thisRepN,trials_lextale_practice_loop.thisTrialN,trials_lextale_practice_loop.thisN,trials_lextale_practice_loop.thisIndex,trials_lextale_practice_loop.ran,stim,word,prac_button_real,prac_button_false,key_resp_lextale_trial.keys,key_resp_lextale_trial.corr,key_resp_lextale_trial.rt,trials_lextale_loop.thisRepN,trials_lextale_loop.thisTrialN,trials_lextale_loop.thisN,trials_lextale_loop.thisIndex,trials_lextale_loop.ran,button_real,button_false,key_resp_ac2.keys,key_resp_ac2.corr,key_resp_ac2.rt,check_pass,check_fails,ac2_loop.thisRepN,ac2_loop.thisTrialN,ac2_loop.thisN,ac2_loop.thisIndex,ac2_loop.ran,slider_eq_trial.response,trials_eq_loop.thisRepN,trials_eq_loop.thisTrialN,trials_eq_loop.thisN,trials_eq_loop.thisIndex,trials_eq_loop.ran,item,is_test_item,is_distractor,is_agree_score,is_disagree_score
0,0,0,0,1,"In the following task you are going to hear a series of utterances. 

  You will decide if the utterances sound like questions or not using your keyboard.",(press the spacebar to continue),60498abf0459d95ae80f42ac,605b45a4d25f287719a41696,605b98643d3fca33f2ad43be,Costa Rica,Northeast,NA,no,2021-03-24_21h02.08.924,empathy_intonation_perc,2020.2.10,Win32,60,,,,,,,,,,,,,,,,,,,,,,,,,,,,,,,,,,,,,,,,,,,,,,,,,,,,,,,,,,,,,,,,,,,,,,,,,,,,,,,,,,,,
0,1,1,1,1,"If you believe the utterance is a question, type '1' (for 'yes') and if you do not 
  believe it is a question type '0' (for 'no').

  Let's practice a bit...",(press the spacebar to continue),60498abf0459d95ae80f42ac,605b45a4d25f287719a41696,605b98643d3fca33f2ad43be,Costa Rica,Northeast,NA,no,2021-03-24_21h02.08.924,empathy_intonation_perc,2020.2.10,Win32,60,,,,,,,,,,,,,,,,,,,,,,,,,,,,,,,,,,,,,,,,,,,,,,,,,,,,,,,,,,,,,,,,,,,,,,,,,,,,,,,,,,,,
,,,,,,,60498abf0459d95ae80f42ac,605b45a4d25f287719a41696,605b98643d3fca33f2ad43be,Costa Rica,Northeast,NA,no,2021-03-24_21h02.08.924,empathy_intonation_perc,2020.2.10,Win32,60,1,1,2.948,0,0,0,1,1,./stim/wavs/argentine_question_filler_Mi-vecino-habla-mucho.wav,1,,,,,,,,,,,,,,,,,,,,,,,,,,,,,,,,,,,,,,,,,,,,,,,,,,,,,,,,,,,,,,,,,,,,,,,,,,
,,,,,,,60498abf0459d95ae80f42ac,605b45a4d25f287719a41696,605b98643d3fca33f2ad43be,Costa Rica,Northeast,NA,no,2021-03-24_21h02.08.924,empathy_intonation_perc,2020.2.10,Win32,60,1,1,2.136,0,1,1,2,1,./stim/wavs/chilean_question_filler_Mi-padre-cantaba-bien.wav,1,,,,,,,,,,,,,,,,,,,,,,,,,,,,,,,,,,,,,,,,,,,,,,,,,,,,,,,,,,,,,,,,,,,,,,,,,,
,,,,,,,60498abf0459d95ae80f42ac,605b45a4d25f287719a41696,605b98643d3fca33f2ad43be,Costa Rica,Northeast,NA,no,2021-03-24_21h02.08.924,empathy_intonation_perc,2020.2.10,Win32,60,0,0,6.226,0,2,2,0,1,./stim/wavs/castilian_question_filler_Mi-esposo-conoce-al-chico.wav,1,,,,,,,,,,,,,,,,,,,,,,,,,,,,,,,,,,,,,,,,,,,,,,,,,,,,,,,,,,,,,,,,,,,,,,,,,,
,,,,,,,60498abf0459d95ae80f42ac,605b45a4d25f287719a41696,605b98643d3fca33f2ad43be,Costa Rica,Northeast,NA,no,2021-03-24_21h02.08.924,empathy_intonation_perc,2020.2.10,Win32,60,0,1,3.164,0,3,3,6,1,./stim/wavs/peruvian_statement_filler_El-nino-habla-con-su-madre.wav,0,,,,,,,,,,,,,,,,,,,,,,,,,,,,,,,,,,,,,,,,,,,,,,,,,,,,,,,,,,,,,,,,,,,,,,,,,,
,,,,,,,60498abf0459d95ae80f42ac,605b45a4d25f287719a41696,605b98643d3fca33f2ad43be,Costa Rica,Northeast,NA,no,2021-03-24_21h02.08.924,empathy_intonation_perc,2020.2.10,Win32,60,0,1,2.791,0,4,4,4,1,./stim/wavs/cuban_statement_filler_Cocinabas-por-la-noche.wav,0,,,,,,,,,,,,,,,,,,,,,,,,,,,,,,,,,,,,,,,,,,,,,,,,,,,,,,,,,,,,,,,,,,,,,,,,,,
,,,,,,,60498abf0459d95ae80f42ac,605b45a4d25f287719a41696,605b98643d3fca33f2ad43be,Costa Rica,Northeast,NA,no,2021-03-24_21h02.08.924,empathy_intonation_perc,2020.2.10,Win32,60,1,1,1.875,0,5,5,3,1,./stim/wavs/mexican_question_filler_Felipe-no-tiene-contrasena.wav,1,,,,,,,,,,,,,,,,,,,,,,,,,,,,,,,,,,,,,,,,,,,,,,,,,,,,,,,,,,,,,,,,,,,,,,,,,,
,,,,,,,60498abf0459d95ae80f42ac,605b45a4d25f287719a41696,605b98643d3fca33f2ad43be,Costa Rica,Northeast,NA,no,2021-03-24_21h02.08.924,empathy_intonation_perc,2020.2.10,Win32,60,1,0,2.194,0,6,6,7,1,./stim/wavs/puertorican_statement_filler_La-nina-pinta-con-su-amiga.wav,0,,,,,,,,,,,,,,,,,,,,,,,,,,,,,,,,,,,,,,,,,,,,,,,,,,,,,,,,,,,,,,,,,,,,,,,,,,
,,,,,,,60498abf0459d95ae80f42ac,605b45a4d25f287719a41696,605b98643d3fca33f2ad43be,Costa Rica,Northeast,NA,no,2021-03-24_21h02.08.924,empathy_intonation_perc,2020.2.10,Win32,60,1,0,2.06,0,7,7,5,1,./stim/wavs/andalusian_statement_filler_Alberto-nunca-se-afeita.wav,0,,,,,,,,,,,,,,,,,,,,,,,,,,,,,,,,,,,,,,,,,,,,,,,,,,,,,,,,,,,,,,,,,,,,,,,,,,
,,,,,,,60498abf0459d95ae80f42ac,605b45a4d25f287719a41696,605b98643d3fca33f2ad43be,Costa Rica,Northeast,NA,no,2021-03-24_21h02.08.924,empathy_intonation_perc,2020.2.10,Win32,60,,,,,,,,,,0,argentine,1,0,1.67,0,0,0,33,1,34,./stim/wavs/andalusian_mismatch_declarative-broad-focus_El-hombre-mira-la-luna.wav,./stim/wavs/argentine_mismatch_declarative-broad-focus_El-hombre-mira-la-luna.wav,./stim/wavs/castilian_mismatch_declarative-broad-focus_El-hombre-mira-la-luna.wav,./stim/wavs/chilean_mismatch_declarative-broad-focus_El-hombre-mira-la-luna.wav,./stim/wavs/cuban_mismatch_declarative-broad-focus_El-hombre-mira-la-luna.wav,./stim/wavs/mexican_mismatch_declarative-broad-focus_El-hombre-mira-la-luna.wav,./stim/wavs/peruvian_mismatch_declarative-broad-focus_El-hombre-mira-la-luna.wav,./stim/wavs/puertorican_mismatch_declarative-broad-focus_El-hombre-mira-la-luna.wav,,,,,,,,,,,,,,,,,,,,,,,,,,,,,,,,,,,,,,,,,,,,,,,,,,,,,,,,
,,,,,,,60498abf0459d95ae80f42ac,605b45a4d25f287719a41696,605b98643d3fca33f2ad43be,Costa Rica,Northeast,NA,no,2021-03-24_21h02.08.924,empathy_intonation_perc,2020.2.10,Win32,60,,,,,,,,,,1,argentine,1,1,1.588,0,1,1,21,1,22,./stim/wavs/andalusian_match_interrogative-partial-wh_Por-que-ama-la-navidad.wav,./stim/wavs/argentine_match_interrogative-partial-wh_Por-que-ama-la-navidad.wav,./stim/wavs/castilian_match_interrogative-partial-wh_Por-que-ama-la-navidad.wav,./stim/wavs/chilean_match_interrogative-partial-wh_Por-que-ama-la-navidad.wav,./stim/wavs/cuban_match_interrogative-partial-wh_Por-que-ama-la-navidad.wav,./stim/wavs/mexican_match_interrogative-partial-wh_Por-que-ama-la-navidad.wav,./stim/wavs/peruvian_match_interrogative-partial-wh_Por-que-ama-la-navidad.wav,./stim/wavs/puertorican_match_interrogative-partial-wh_Por-que-ama-la-navidad.wav,,,,,,,,,,,,,,,,,,,,,,,,,,,,,,,,,,,,,,,,,,,,,,,,,,,,,,,,
,,,,,,,60498abf0459d95ae80f42ac,605b45a4d25f287719a41696,605b98643d3fca33f2ad43be,Costa Rica,Northeast,NA,no,2021-03-24_21h02.08.924,empathy_intonation_perc,2020.2.10,Win32,60,,,,,,,,,,1,argentine,0,0,1.199,0,2,2,16,1,17,./stim/wavs/andalusian_match_interrogative-partial-wh_Cuando-bebia-el-vino.wav,./stim/wavs/argentine_match_interrogative-partial-wh_Cuando-bebia-el-vino.wav,./stim/wavs/castilian_match_interrogative-partial-wh_Cuando-bebia-el-vino.wav,./stim/wavs/chilean_match_interrogative-partial-wh_Cuando-bebia-el-vino.wav,./stim/wavs/cuban_match_interrogative-partial-wh_Cuando-bebia-el-vino.wav,./stim/wavs/mexican_match_interrogative-partial-wh_Cuando-bebia-el-vino.wav,./stim/wavs/peruvian_match_interrogative-partial-wh_Cuando-bebia-el-vino.wav,./stim/wavs/puertorican_match_interrogative-partial-wh_Cuando-bebia-el-vino.wav,,,,,,,,,,,,,,,,,,,,,,,,,,,,,,,,,,,,,,,,,,,,,,,,,,,,,,,,
,,,,,,,60498abf0459d95ae80f42ac,605b45a4d25f287719a41696,605b98643d3fca33f2ad43be,Costa Rica,Northeast,NA,no,2021-03-24_21h02.08.924,empathy_intonation_perc,2020.2.10,Win32,60,,,,,,,,,,0,argentine,0,1,1.721,0,3,3,37,1,38,./stim/wavs/andalusian_mismatch_declarative-broad-focus_Mi-madre-come-la-fruta.wav,./stim/wavs/argentine_mismatch_declarative-broad-focus_Mi-madre-come-la-fruta.wav,./stim/wavs/castilian_mismatch_declarative-broad-focus_Mi-madre-come-la-fruta.wav,./stim/wavs/chilean_mismatch_declarative-broad-focus_Mi-madre-come-la-fruta.wav,./stim/wavs/cuban_mismatch_declarative-broad-focus_Mi-madre-come-la-fruta.wav,./stim/wavs/mexican_mismatch_declarative-broad-focus_Mi-madre-come-la-fruta.wav,./stim/wavs/peruvian_mismatch_declarative-broad-focus_Mi-madre-come-la-fruta.wav,./stim/wavs/puertorican_mismatch_declarative-broad-focus_Mi-madre-come-la-fruta.wav,,,,,,,,,,,,,,,,,,,,,,,,,,,,,,,,,,,,,,,,,,,,,,,,,,,,,,,,
,,,,,,,60498abf0459d95ae80f42ac,605b45a4d25f287719a41696,605b98643d3fca33f2ad43be,Costa Rica,Northeast,NA,no,2021-03-24_21h02.08.924,empathy_intonation_perc,2020.2.10,Win32,60,,,,,,,,,,1,cuban,0,0,1.642,0,4,4,62,1,63,./stim/wavs/andalusian_mismatch_interrogative-total-yn_Mi-novio-viene-del-lago.wav,./stim/wavs/argentine_mismatch_interrogative-total-yn_Mi-novio-viene-del-lago.wav,./stim/wavs/castilian_mismatch_interrogative-total-yn_Mi-novio-viene-del-lago.wav,./stim/wavs/chilean_mismatch_interrogative-total-yn_Mi-novio-viene-del-lago.wav,./stim/wavs/cuban_mismatch_interrogative-total-yn_Mi-novio-viene-del-lago.wav,./stim/wavs/mexican_mismatch_interrogative-total-yn_Mi-novio-viene-del-lago.wav,./stim/wavs/peruvian_mismatch_interrogative-total-yn_Mi-novio-viene-del-lago.wav,./stim/wavs/puertorican_mismatch_interrogative-total-yn_Mi-novio-viene-del-lago.wav,,,,,,,,,,,,,,,,,,,,,,,,,,,,,,,,,,,,,,,,,,,,,,,,,,,,,,,,
,,,,,,,60498abf0459d95ae80f42ac,605b45a4d25f287719a41696,605b98643d3fca33f2ad43be,Costa Rica,Northeast,NA,no,2021-03-24_21h02.08.924,empathy_intonation_perc,2020.2.10,Win32,60,,,,,,,,,,1,puertorican,1,1,1.591,0,5,5,20,1,21,./stim/wavs/andalusian_match_interrogative-partial-wh_Por-que-abre-el-regalo.wav,./stim/wavs/argentine_match_interrogative-partial-wh_Por-que-abre-el-regalo.wav,./stim/wavs/castilian_match_interrogative-partial-wh_Por-que-abre-el-regalo.wav,./stim/wavs/chilean_match_interrogative-partial-wh_Por-que-abre-el-regalo.wav,./stim/wavs/cuban_match_interrogative-partial-wh_Por-que-abre-el-regalo.wav,./stim/wavs/mexican_match_interrogative-partial-wh_Por-que-abre-el-regalo.wav,./stim/wavs/peruvian_match_interrogative-partial-wh_Por-que-abre-el-regalo.wav,./stim/wavs/puertorican_match_interrogative-partial-wh_Por-que-abre-el-regalo.wav,,,,,,,,,,,,,,,,,,,,,,,,,,,,,,,,,,,,,,,,,,,,,,,,,,,,,,,,
,,,,,,,60498abf0459d95ae80f42ac,605b45a4d25f287719a41696,605b98643d3fca33f2ad43be,Costa Rica,Northeast,NA,no,2021-03-24_21h02.08.924,empathy_intonation_perc,2020.2.10,Win32,60,,,,,,,,,,0,cuban,0,1,1.639,0,6,6,0,1,1,./stim/wavs/andalusian_match_declarative-broad-focus_Ana-lleva-el-abrigo.wav,./stim/wavs/argentine_match_declarative-broad-focus_Ana-lleva-el-abrigo.wav,./stim/wavs/castilian_match_declarative-broad-focus_Ana-lleva-el-abrigo.wav,./stim/wavs/chilean_match_declarative-broad-focus_Ana-lleva-el-abrigo.wav,./stim/wavs/cuban_match_declarative-broad-focus_Ana-lleva-el-abrigo.wav,./stim/wavs/mexican_match_declarative-broad-focus_Ana-lleva-el-abrigo.wav,./stim/wavs/peruvian_match_declarative-broad-focus_Ana-lleva-el-abrigo.wav,./stim/wavs/puertorican_match_declarative-broad-focus_Ana-lleva-el-abrigo.wav,,,,,,,,,,,,,,,,,,,,,,,,,,,,,,,,,,,,,,,,,,,,,,,,,,,,,,,,
,,,,,,,60498abf0459d95ae80f42ac,605b45a4d25f287719a41696,605b98643d3fca33f2ad43be,Costa Rica,Northeast,NA,no,2021-03-24_21h02.08.924,empathy_intonation_perc,2020.2.10,Win32,60,,,,,,,,,,0,castilian,1,0,1.79,0,7,7,1,1,2,./stim/wavs/andalusian_match_declarative-broad-focus_Daniel-iba-a-Bolivia.wav,./stim/wavs/argentine_match_declarative-broad-focus_Daniel-iba-a-Bolivia.wav,./stim/wavs/castilian_match_declarative-broad-focus_Daniel-iba-a-Bolivia.wav,./stim/wavs/chilean_match_declarative-broad-focus_Daniel-iba-a-Bolivia.wav,./stim/wavs/cuban_match_declarative-broad-focus_Daniel-iba-a-Bolivia.wav,./stim/wavs/mexican_match_declarative-broad-focus_Daniel-iba-a-Bolivia.wav,./stim/wavs/peruvian_match_declarative-broad-focus_Daniel-iba-a-Bolivia.wav,./stim/wavs/puertorican_match_declarative-broad-focus_Daniel-iba-a-Bolivia.wav,,,,,,,,,,,,,,,,,,,,,,,,,,,,,,,,,,,,,,,,,,,,,,,,,,,,,,,,
,,,,,,,60498abf0459d95ae80f42ac,605b45a4d25f287719a41696,605b98643d3fca33f2ad43be,Costa Rica,Northeast,NA,no,2021-03-24_21h02.08.924,empathy_intonation_perc,2020.2.10,Win32,60,,,,,,,,,,1,argentine,1,1,1.794,0,8,8,25,1,26,./stim/wavs/andalusian_match_interrogative-total-yn_Daniel-iba-a-Bolivia.wav,./stim/wavs/argentine_match_interrogative-total-yn_Daniel-iba-a-Bolivia.wav,./stim/wavs/castilian_match_interrogative-total-yn_Daniel-iba-a-Bolivia.wav,./stim/wavs/chilean_match_interrogative-total-yn_Daniel-iba-a-Bolivia.wav,./stim/wavs/cuban_match_interrogative-total-yn_Daniel-iba-a-Bolivia.wav,./stim/wavs/mexican_match_interrogative-total-yn_Daniel-iba-a-Bolivia.wav,./stim/wavs/peruvian_match_interrogative-total-yn_Daniel-iba-a-Bolivia.wav,./stim/wavs/puertorican_match_interrogative-total-yn_Daniel-iba-a-Bolivia.wav,,,,,,,,,,,,,,,,,,,,,,,,,,,,,,,,,,,,,,,,,,,,,,,,,,,,,,,,
,,,,,,,60498abf0459d95ae80f42ac,605b45a4d25f287719a41696,605b98643d3fca33f2ad43be,Costa Rica,Northeast,NA,no,2021-03-24_21h02.08.924,empathy_intonation_perc,2020.2.10,Win32,60,,,,,,,,,,1,peruvian,0,0,1.696,0,9,9,50,1,51,./stim/wavs/andalusian_mismatch_interrogative-partial-wh_Cuando-miraba-la-luna.wav,./stim/wavs/argentine_mismatch_interrogative-partial-wh_Cuando-miraba-la-luna.wav,./stim/wavs/castilian_mismatch_interrogative-partial-wh_Cuando-miraba-la-luna.wav,./stim/wavs/chilean_mismatch_interrogative-partial-wh_Cuando-miraba-la-luna.wav,./stim/wavs/cuban_mismatch_interrogative-partial-wh_Cuando-miraba-la-luna.wav,./stim/wavs/mexican_mismatch_interrogative-partial-wh_Cuando-miraba-la-luna.wav,./stim/wavs/peruvian_mismatch_interrogative-partial-wh_Cuando-miraba-la-luna.wav,./stim/wavs/puertorican_mismatch_interrogative-partial-wh_Cuando-miraba-la-luna.wav,,,,,,,,,,,,,,,,,,,,,,,,,,,,,,,,,,,,,,,,,,,,,,,,,,,,,,,,
,,,,,,,60498abf0459d95ae80f42ac,605b45a4d25f287719a41696,605b98643d3fca33f2ad43be,Costa Rica,Northeast,NA,no,2021-03-24_21h02.08.924,empathy_intonation_perc,2020.2.10,Win32,60,,,,,,,,,,0,mexican,1,0,1.91,0,10,10,12,1,13,./stim/wavs/andalusian_match_declarative-narrow-focus_Manuela-vende-el-carro.wav,./stim/wavs/argentine_match_declarative-narrow-focus_Manuela-vende-el-carro.wav,./stim/wavs/castilian_match_declarative-narrow-focus_Manuela-vende-el-carro.wav,./stim/wavs/chilean_match_declarative-narrow-focus_Manuela-vende-el-carro.wav,./stim/wavs/cuban_match_declarative-narrow-focus_Manuela-vende-el-carro.wav,./stim/wavs/mexican_match_declarative-narrow-focus_Manuela-vende-el-carro.wav,./stim/wavs/peruvian_match_declarative-narrow-focus_Manuela-vende-el-carro.wav,./stim/wavs/puertorican_match_declarative-narrow-focus_Manuela-vende-el-carro.wav,,,,,,,,,,,,,,,,,,,,,,,,,,,,,,,,,,,,,,,,,,,,,,,,,,,,,,,,
,,,,,,,60498abf0459d95ae80f42ac,605b45a4d25f287719a41696,605b98643d3fca33f2ad43be,Costa Rica,Northeast,NA,no,2021-03-24_21h02.08.924,empathy_intonation_perc,2020.2.10,Win32,60,,,,,,,,,,0,cuban,0,1,1.705,0,11,11,2,1,3,./stim/wavs/andalusian_match_declarative-broad-focus_David-leia-el-libro.wav,./stim/wavs/argentine_match_declarative-broad-focus_David-leia-el-libro.wav,./stim/wavs/castilian_match_declarative-broad-focus_David-leia-el-libro.wav,./stim/wavs/chilean_match_declarative-broad-focus_David-leia-el-libro.wav,./stim/wavs/cuban_match_declarative-broad-focus_David-leia-el-libro.wav,./stim/wavs/mexican_match_declarative-broad-focus_David-leia-el-libro.wav,./stim/wavs/peruvian_match_declarative-broad-focus_David-leia-el-libro.wav,./stim/wavs/puertorican_match_declarative-broad-focus_David-leia-el-libro.wav,,,,,,,,,,,,,,,,,,,,,,,,,,,,,,,,,,,,,,,,,,,,,,,,,,,,,,,,
,,,,,,,60498abf0459d95ae80f42ac,605b45a4d25f287719a41696,605b98643d3fca33f2ad43be,Costa Rica,Northeast,NA,no,2021-03-24_21h02.08.924,empathy_intonation_perc,2020.2.10,Win32,60,,,,,,,,,,1,argentine,0,0,1.977,0,12,12,31,1,32,./stim/wavs/andalusian_match_interrogative-total-yn_Marta-abre-el-regalo.wav,./stim/wavs/argentine_match_interrogative-total-yn_Marta-abre-el-regalo.wav,./stim/wavs/castilian_match_interrogative-total-yn_Marta-abre-el-regalo.wav,./stim/wavs/chilean_match_interrogative-total-yn_Marta-abre-el-regalo.wav,./stim/wavs/cuban_match_interrogative-total-yn_Marta-abre-el-regalo.wav,./stim/wavs/mexican_match_interrogative-total-yn_Marta-abre-el-regalo.wav,./stim/wavs/peruvian_match_interrogative-total-yn_Marta-abre-el-regalo.wav,./stim/wavs/puertorican_match_interrogative-total-yn_Marta-abre-el-regalo.wav,,,,,,,,,,,,,,,,,,,,,,,,,,,,,,,,,,,,,,,,,,,,,,,,,,,,,,,,
,,,,,,,60498abf0459d95ae80f42ac,605b45a4d25f287719a41696,605b98643d3fca33f2ad43be,Costa Rica,Northeast,NA,no,2021-03-24_21h02.08.924,empathy_intonation_perc,2020.2.10,Win32,60,,,,,,,,,,0,cuban,1,0,1.442,0,13,13,32,1,33,./stim/wavs/andalusian_mismatch_declarative-broad-focus_El-bebe-comia-muy-bien.wav,./stim/wavs/argentine_mismatch_declarative-broad-focus_El-bebe-comia-muy-bien.wav,./stim/wavs/castilian_mismatch_declarative-broad-focus_El-bebe-comia-muy-bien.wav,./stim/wavs/chilean_mismatch_declarative-broad-focus_El-bebe-comia-muy-bien.wav,./stim/wavs/cuban_mismatch_declarative-broad-focus_El-bebe-comia-muy-bien.wav,./stim/wavs/mexican_mismatch_declarative-broad-focus_El-bebe-comia-muy-bien.wav,./stim/wavs/peruvian_mismatch_declarative-broad-focus_El-bebe-comia-muy-bien.wav,./stim/wavs/puertorican_mismatch_declarative-broad-focus_El-bebe-comia-muy-bien.wav,,,,,,,,,,,,,,,,,,,,,,,,,,,,,,,,,,,,,,,,,,,,,,,,,,,,,,,,
,,,,,,,60498abf0459d95ae80f42ac,605b45a4d25f287719a41696,605b98643d3fca33f2ad43be,Costa Rica,Northeast,NA,no,2021-03-24_21h02.08.924,empathy_intonation_perc,2020.2.10,Win32,60,,,,,,,,,,1,cuban,0,0,1.575,0,14,14,23,1,24,./stim/wavs/andalusian_match_interrogative-partial-wh_Por-que-iba-a-Bolivia.wav,./stim/wavs/argentine_match_interrogative-partial-wh_Por-que-iba-a-Bolivia.wav,./stim/wavs/castilian_match_interrogative-partial-wh_Por-que-iba-a-Bolivia.wav,./stim/wavs/chilean_match_interrogative-partial-wh_Por-que-iba-a-Bolivia.wav,./stim/wavs/cuban_match_interrogative-partial-wh_Por-que-iba-a-Bolivia.wav,./stim/wavs/mexican_match_interrogative-partial-wh_Por-que-iba-a-Bolivia.wav,./stim/wavs/peruvian_match_interrogative-partial-wh_Por-que-iba-a-Bolivia.wav,./stim/wavs/puertorican_match_interrogative-partial-wh_Por-que-iba-a-Bolivia.wav,,,,,,,,,,,,,,,,,,,,,,,,,,,,,,,,,,,,,,,,,,,,,,,,,,,,,,,,
,,,,,,,60498abf0459d95ae80f42ac,605b45a4d25f287719a41696,605b98643d3fca33f2ad43be,Costa Rica,Northeast,NA,no,2021-03-24_21h02.08.924,empathy_intonation_perc,2020.2.10,Win32,60,,,,,,,,,,1,andalusian,0,0,1.787,0,15,15,63,1,64,./stim/wavs/andalusian_mismatch_interrogative-total-yn_Mi-tia-odia-la-lluvia.wav,./stim/wavs/argentine_mismatch_interrogative-total-yn_Mi-tia-odia-la-lluvia.wav,./stim/wavs/castilian_mismatch_interrogative-total-yn_Mi-tia-odia-la-lluvia.wav,./stim/wavs/chilean_mismatch_interrogative-total-yn_Mi-tia-odia-la-lluvia.wav,./stim/wavs/cuban_mismatch_interrogative-total-yn_Mi-tia-odia-la-lluvia.wav,./stim/wavs/mexican_mismatch_interrogative-total-yn_Mi-tia-odia-la-lluvia.wav,./stim/wavs/peruvian_mismatch_interrogative-total-yn_Mi-tia-odia-la-lluvia.wav,./stim/wavs/puertorican_mismatch_interrogative-total-yn_Mi-tia-odia-la-lluvia.wav,,,,,,,,,,,,,,,,,,,,,,,,,,,,,,,,,,,,,,,,,,,,,,,,,,,,,,,,
,,,,,,,60498abf0459d95ae80f42ac,605b45a4d25f287719a41696,605b98643d3fca33f2ad43be,Costa Rica,Northeast,NA,no,2021-03-24_21h02.08.924,empathy_intonation_perc,2020.2.10,Win32,60,,,,,,,,,,1,mexican,1,1,1.54,0,16,16,27,1,28,./stim/wavs/andalusian_match_interrogative-total-yn_Emilio-ama-la-marcha.wav,./stim/wavs/argentine_match_interrogative-total-yn_Emilio-ama-la-marcha.wav,./stim/wavs/castilian_match_interrogative-total-yn_Emilio-ama-la-marcha.wav,./stim/wavs/chilean_match_interrogative-total-yn_Emilio-ama-la-marcha.wav,./stim/wavs/cuban_match_interrogative-total-yn_Emilio-ama-la-marcha.wav,./stim/wavs/mexican_match_interrogative-total-yn_Emilio-ama-la-marcha.wav,./stim/wavs/peruvian_match_interrogative-total-yn_Emilio-ama-la-marcha.wav,./stim/wavs/puertorican_match_interrogative-total-yn_Emilio-ama-la-marcha.wav,,,,,,,,,,,,,,,,,,,,,,,,,,,,,,,,,,,,,,,,,,,,,,,,,,,,,,,,
,,,,,,,60498abf0459d95ae80f42ac,605b45a4d25f287719a41696,605b98643d3fca33f2ad43be,Costa Rica,Northeast,NA,no,2021-03-24_21h02.08.924,empathy_intonation_perc,2020.2.10,Win32,60,,,,,,,,,,1,chilean,1,1,1.741,0,17,17,24,1,25,./stim/wavs/andalusian_match_interrogative-total-yn_Ana-lleva-el-abrigo.wav,./stim/wavs/argentine_match_interrogative-total-yn_Ana-lleva-el-abrigo.wav,./stim/wavs/castilian_match_interrogative-total-yn_Ana-lleva-el-abrigo.wav,./stim/wavs/chilean_match_interrogative-total-yn_Ana-lleva-el-abrigo.wav,./stim/wavs/cuban_match_interrogative-total-yn_Ana-lleva-el-abrigo.wav,./stim/wavs/mexican_match_interrogative-total-yn_Ana-lleva-el-abrigo.wav,./stim/wavs/peruvian_match_interrogative-total-yn_Ana-lleva-el-abrigo.wav,./stim/wavs/puertorican_match_interrogative-total-yn_Ana-lleva-el-abrigo.wav,,,,,,,,,,,,,,,,,,,,,,,,,,,,,,,,,,,,,,,,,,,,,,,,,,,,,,,,
,,,,,,,60498abf0459d95ae80f42ac,605b45a4d25f287719a41696,605b98643d3fca33f2ad43be,Costa Rica,Northeast,NA,no,2021-03-24_21h02.08.924,empathy_intonation_perc,2020.2.10,Win32,60,,,,,,,,,,1,puertorican,1,1,1.742,0,18,18,30,1,31,./stim/wavs/andalusian_match_interrogative-total-yn_Mariano-habla-del-tiempo.wav,./stim/wavs/argentine_match_interrogative-total-yn_Mariano-habla-del-tiempo.wav,./stim/wavs/castilian_match_interrogative-total-yn_Mariano-habla-del-tiempo.wav,./stim/wavs/chilean_match_interrogative-total-yn_Mariano-habla-del-tiempo.wav,./stim/wavs/cuban_match_interrogative-total-yn_Mariano-habla-del-tiempo.wav,./stim/wavs/mexican_match_interrogative-total-yn_Mariano-habla-del-tiempo.wav,./stim/wavs/peruvian_match_interrogative-total-yn_Mariano-habla-del-tiempo.wav,./stim/wavs/puertorican_match_interrogative-total-yn_Mariano-habla-del-tiempo.wav,,,,,,,,,,,,,,,,,,,,,,,,,,,,,,,,,,,,,,,,,,,,,,,,,,,,,,,,
,,,,,,,60498abf0459d95ae80f42ac,605b45a4d25f287719a41696,605b98643d3fca33f2ad43be,Costa Rica,Northeast,NA,no,2021-03-24_21h02.08.924,empathy_intonation_perc,2020.2.10,Win32,60,,,,,,,,,,0,puertorican,1,0,1.54,0,19,19,34,1,35,./stim/wavs/andalusian_mismatch_declarative-broad-focus_El-nino-oye-el-rio.wav,./stim/wavs/argentine_mismatch_declarative-broad-focus_El-nino-oye-el-rio.wav,./stim/wavs/castilian_mismatch_declarative-broad-focus_El-nino-oye-el-rio.wav,./stim/wavs/chilean_mismatch_declarative-broad-focus_El-nino-oye-el-rio.wav,./stim/wavs/cuban_mismatch_declarative-broad-focus_El-nino-oye-el-rio.wav,./stim/wavs/mexican_mismatch_declarative-broad-focus_El-nino-oye-el-rio.wav,./stim/wavs/peruvian_mismatch_declarative-broad-focus_El-nino-oye-el-rio.wav,./stim/wavs/puertorican_mismatch_declarative-broad-focus_El-nino-oye-el-rio.wav,,,,,,,,,,,,,,,,,,,,,,,,,,,,,,,,,,,,,,,,,,,,,,,,,,,,,,,,
,,,,,,,60498abf0459d95ae80f42ac,605b45a4d25f287719a41696,605b98643d3fca33f2ad43be,Costa Rica,Northeast,NA,no,2021-03-24_21h02.08.924,empathy_intonation_perc,2020.2.10,Win32,60,,,,,,,,,,0,chilean,0,1,1.336,0,20,20,9,1,10,./stim/wavs/andalusian_match_declarative-narrow-focus_Daniel-iba-a-Bolivia.wav,./stim/wavs/argentine_match_declarative-narrow-focus_Daniel-iba-a-Bolivia.wav,./stim/wavs/castilian_match_declarative-narrow-focus_Daniel-iba-a-Bolivia.wav,./stim/wavs/chilean_match_declarative-narrow-focus_Daniel-iba-a-Bolivia.wav,./stim/wavs/cuban_match_declarative-narrow-focus_Daniel-iba-a-Bolivia.wav,./stim/wavs/mexican_match_declarative-narrow-focus_Daniel-iba-a-Bolivia.wav,./stim/wavs/peruvian_match_declarative-narrow-focus_Daniel-iba-a-Bolivia.wav,./stim/wavs/puertorican_match_declarative-narrow-focus_Daniel-iba-a-Bolivia.wav,,,,,,,,,,,,,,,,,,,,,,,,,,,,,,,,,,,,,,,,,,,,,,,,,,,,,,,,
,,,,,,,60498abf0459d95ae80f42ac,605b45a4d25f287719a41696,605b98643d3fca33f2ad43be,Costa Rica,Northeast,NA,no,2021-03-24_21h02.08.924,empathy_intonation_perc,2020.2.10,Win32,60,,,,,,,,,,1,peruvian,1,1,1.857,0,21,21,57,1,58,./stim/wavs/andalusian_mismatch_interrogative-total-yn_El-hombre-mira-la-luna.wav,./stim/wavs/argentine_mismatch_interrogative-total-yn_El-hombre-mira-la-luna.wav,./stim/wavs/castilian_mismatch_interrogative-total-yn_El-hombre-mira-la-luna.wav,./stim/wavs/chilean_mismatch_interrogative-total-yn_El-hombre-mira-la-luna.wav,./stim/wavs/cuban_mismatch_interrogative-total-yn_El-hombre-mira-la-luna.wav,./stim/wavs/mexican_mismatch_interrogative-total-yn_El-hombre-mira-la-luna.wav,./stim/wavs/peruvian_mismatch_interrogative-total-yn_El-hombre-mira-la-luna.wav,./stim/wavs/puertorican_mismatch_interrogative-total-yn_El-hombre-mira-la-luna.wav,,,,,,,,,,,,,,,,,,,,,,,,,,,,,,,,,,,,,,,,,,,,,,,,,,,,,,,,
,,,,,,,60498abf0459d95ae80f42ac,605b45a4d25f287719a41696,605b98643d3fca33f2ad43be,Costa Rica,Northeast,NA,no,2021-03-24_21h02.08.924,empathy_intonation_perc,2020.2.10,Win32,60,,,,,,,,,,1,andalusian,1,1,1.493,0,22,22,59,1,60,./stim/wavs/andalusian_mismatch_interrogative-total-yn_La-maestra-vive-en-Paris.wav,./stim/wavs/argentine_mismatch_interrogative-total-yn_La-maestra-vive-en-Paris.wav,./stim/wavs/castilian_mismatch_interrogative-total-yn_La-maestra-vive-en-Paris.wav,./stim/wavs/chilean_mismatch_interrogative-total-yn_La-maestra-vive-en-Paris.wav,./stim/wavs/cuban_mismatch_interrogative-total-yn_La-maestra-vive-en-Paris.wav,./stim/wavs/mexican_mismatch_interrogative-total-yn_La-maestra-vive-en-Paris.wav,./stim/wavs/peruvian_mismatch_interrogative-total-yn_La-maestra-vive-en-Paris.wav,./stim/wavs/puertorican_mismatch_interrogative-total-yn_La-maestra-vive-en-Paris.wav,,,,,,,,,,,,,,,,,,,,,,,,,,,,,,,,,,,,,,,,,,,,,,,,,,,,,,,,
,,,,,,,60498abf0459d95ae80f42ac,605b45a4d25f287719a41696,605b98643d3fca33f2ad43be,Costa Rica,Northeast,NA,no,2021-03-24_21h02.08.924,empathy_intonation_perc,2020.2.10,Win32,60,,,,,,,,,,1,chilean,0,0,1.239,0,23,23,56,1,57,./stim/wavs/andalusian_mismatch_interrogative-total-yn_El-bebe-comia-muy-bien.wav,./stim/wavs/argentine_mismatch_interrogative-total-yn_El-bebe-comia-muy-bien.wav,./stim/wavs/castilian_mismatch_interrogative-total-yn_El-bebe-comia-muy-bien.wav,./stim/wavs/chilean_mismatch_interrogative-total-yn_El-bebe-comia-muy-bien.wav,./stim/wavs/cuban_mismatch_interrogative-total-yn_El-bebe-comia-muy-bien.wav,./stim/wavs/mexican_mismatch_interrogative-total-yn_El-bebe-comia-muy-bien.wav,./stim/wavs/peruvian_mismatch_interrogative-total-yn_El-bebe-comia-muy-bien.wav,./stim/wavs/puertorican_mismatch_interrogative-total-yn_El-bebe-comia-muy-bien.wav,,,,,,,,,,,,,,,,,,,,,,,,,,,,,,,,,,,,,,,,,,,,,,,,,,,,,,,,
,,,,,,,60498abf0459d95ae80f42ac,605b45a4d25f287719a41696,605b98643d3fca33f2ad43be,Costa Rica,Northeast,NA,no,2021-03-24_21h02.08.924,empathy_intonation_perc,2020.2.10,Win32,60,,,,,,,,,,0,argentine,1,0,1.491,0,24,24,6,1,7,./stim/wavs/andalusian_match_declarative-broad-focus_Mariano-habla-del-tiempo.wav,./stim/wavs/argentine_match_declarative-broad-focus_Mariano-habla-del-tiempo.wav,./stim/wavs/castilian_match_declarative-broad-focus_Mariano-habla-del-tiempo.wav,./stim/wavs/chilean_match_declarative-broad-focus_Mariano-habla-del-tiempo.wav,./stim/wavs/cuban_match_declarative-broad-focus_Mariano-habla-del-tiempo.wav,./stim/wavs/mexican_match_declarative-broad-focus_Mariano-habla-del-tiempo.wav,./stim/wavs/peruvian_match_declarative-broad-focus_Mariano-habla-del-tiempo.wav,./stim/wavs/puertorican_match_declarative-broad-focus_Mariano-habla-del-tiempo.wav,,,,,,,,,,,,,,,,,,,,,,,,,,,,,,,,,,,,,,,,,,,,,,,,,,,,,,,,
,,,,,,,60498abf0459d95ae80f42ac,605b45a4d25f287719a41696,605b98643d3fca33f2ad43be,Costa Rica,Northeast,NA,no,2021-03-24_21h02.08.924,empathy_intonation_perc,2020.2.10,Win32,60,,,,,,,,,,1,mexican,1,1,1.364,0,25,25,48,1,49,./stim/wavs/andalusian_mismatch_interrogative-partial-wh_Cuando-comia-la-fruta.wav,./stim/wavs/argentine_mismatch_interrogative-partial-wh_Cuando-comia-la-fruta.wav,./stim/wavs/castilian_mismatch_interrogative-partial-wh_Cuando-comia-la-fruta.wav,./stim/wavs/chilean_mismatch_interrogative-partial-wh_Cuando-comia-la-fruta.wav,./stim/wavs/cuban_mismatch_interrogative-partial-wh_Cuando-comia-la-fruta.wav,./stim/wavs/mexican_mismatch_interrogative-partial-wh_Cuando-comia-la-fruta.wav,./stim/wavs/peruvian_mismatch_interrogative-partial-wh_Cuando-comia-la-fruta.wav,./stim/wavs/puertorican_mismatch_interrogative-partial-wh_Cuando-comia-la-fruta.wav,,,,,,,,,,,,,,,,,,,,,,,,,,,,,,,,,,,,,,,,,,,,,,,,,,,,,,,,
,,,,,,,60498abf0459d95ae80f42ac,605b45a4d25f287719a41696,605b98643d3fca33f2ad43be,Costa Rica,Northeast,NA,no,2021-03-24_21h02.08.924,empathy_intonation_perc,2020.2.10,Win32,60,,,,,,,,,,1,cuban,0,0,1.431,0,26,26,52,1,53,./stim/wavs/andalusian_mismatch_interrogative-partial-wh_Por-que-odiaba-la-lluvia.wav,./stim/wavs/argentine_mismatch_interrogative-partial-wh_Por-que-odiaba-la-lluvia.wav,./stim/wavs/castilian_mismatch_interrogative-partial-wh_Por-que-odiaba-la-lluvia.wav,./stim/wavs/chilean_mismatch_interrogative-partial-wh_Por-que-odiaba-la-lluvia.wav,./stim/wavs/cuban_mismatch_interrogative-partial-wh_Por-que-odiaba-la-lluvia.wav,./stim/wavs/mexican_mismatch_interrogative-partial-wh_Por-que-odiaba-la-lluvia.wav,./stim/wavs/peruvian_mismatch_interrogative-partial-wh_Por-que-odiaba-la-lluvia.wav,./stim/wavs/puertorican_mismatch_interrogative-partial-wh_Por-que-odiaba-la-lluvia.wav,,,,,,,,,,,,,,,,,,,,,,,,,,,,,,,,,,,,,,,,,,,,,,,,,,,,,,,,
,,,,,,,60498abf0459d95ae80f42ac,605b45a4d25f287719a41696,605b98643d3fca33f2ad43be,Costa Rica,Northeast,NA,no,2021-03-24_21h02.08.924,empathy_intonation_perc,2020.2.10,Win32,60,,,,,,,,,,1,mexican,1,1,1.389,0,27,27,53,1,54,./stim/wavs/andalusian_mismatch_interrogative-partial-wh_Por-que-oia-el-rio.wav,./stim/wavs/argentine_mismatch_interrogative-partial-wh_Por-que-oia-el-rio.wav,./stim/wavs/castilian_mismatch_interrogative-partial-wh_Por-que-oia-el-rio.wav,./stim/wavs/chilean_mismatch_interrogative-partial-wh_Por-que-oia-el-rio.wav,./stim/wavs/cuban_mismatch_interrogative-partial-wh_Por-que-oia-el-rio.wav,./stim/wavs/mexican_mismatch_interrogative-partial-wh_Por-que-oia-el-rio.wav,./stim/wavs/peruvian_mismatch_interrogative-partial-wh_Por-que-oia-el-rio.wav,./stim/wavs/puertorican_mismatch_interrogative-partial-wh_Por-que-oia-el-rio.wav,,,,,,,,,,,,,,,,,,,,,,,,,,,,,,,,,,,,,,,,,,,,,,,,,,,,,,,,
,,,,,,,60498abf0459d95ae80f42ac,605b45a4d25f287719a41696,605b98643d3fca33f2ad43be,Costa Rica,Northeast,NA,no,2021-03-24_21h02.08.924,empathy_intonation_perc,2020.2.10,Win32,60,,,,,,,,,,1,mexican,1,1,1.486,0,28,28,49,1,50,./stim/wavs/andalusian_mismatch_interrogative-partial-wh_Cuando-lavaba-el-plato.wav,./stim/wavs/argentine_mismatch_interrogative-partial-wh_Cuando-lavaba-el-plato.wav,./stim/wavs/castilian_mismatch_interrogative-partial-wh_Cuando-lavaba-el-plato.wav,./stim/wavs/chilean_mismatch_interrogative-partial-wh_Cuando-lavaba-el-plato.wav,./stim/wavs/cuban_mismatch_interrogative-partial-wh_Cuando-lavaba-el-plato.wav,./stim/wavs/mexican_mismatch_interrogative-partial-wh_Cuando-lavaba-el-plato.wav,./stim/wavs/peruvian_mismatch_interrogative-partial-wh_Cuando-lavaba-el-plato.wav,./stim/wavs/puertorican_mismatch_interrogative-partial-wh_Cuando-lavaba-el-plato.wav,,,,,,,,,,,,,,,,,,,,,,,,,,,,,,,,,,,,,,,,,,,,,,,,,,,,,,,,
,,,,,,,60498abf0459d95ae80f42ac,605b45a4d25f287719a41696,605b98643d3fca33f2ad43be,Costa Rica,Northeast,NA,no,2021-03-24_21h02.08.924,empathy_intonation_perc,2020.2.10,Win32,60,,,,,,,,,,0,chilean,0,1,1.353,0,29,29,38,1,39,./stim/wavs/andalusian_mismatch_declarative-broad-focus_Mi-novio-viene-del-lago.wav,./stim/wavs/argentine_mismatch_declarative-broad-focus_Mi-novio-viene-del-lago.wav,./stim/wavs/castilian_mismatch_declarative-broad-focus_Mi-novio-viene-del-lago.wav,./stim/wavs/chilean_mismatch_declarative-broad-focus_Mi-novio-viene-del-lago.wav,./stim/wavs/cuban_mismatch_declarative-broad-focus_Mi-novio-viene-del-lago.wav,./stim/wavs/mexican_mismatch_declarative-broad-focus_Mi-novio-viene-del-lago.wav,./stim/wavs/peruvian_mismatch_declarative-broad-focus_Mi-novio-viene-del-lago.wav,./stim/wavs/puertorican_mismatch_declarative-broad-focus_Mi-novio-viene-del-lago.wav,,,,,,,,,,,,,,,,,,,,,,,,,,,,,,,,,,,,,,,,,,,,,,,,,,,,,,,,
,,,,,,,60498abf0459d95ae80f42ac,605b45a4d25f287719a41696,605b98643d3fca33f2ad43be,Costa Rica,Northeast,NA,no,2021-03-24_21h02.08.924,empathy_intonation_perc,2020.2.10,Win32,60,,,,,,,,,,0,peruvian,1,0,1.992,0,30,30,10,1,11,./stim/wavs/andalusian_match_declarative-narrow-focus_David-leia-el-libro.wav,./stim/wavs/argentine_match_declarative-narrow-focus_David-leia-el-libro.wav,./stim/wavs/castilian_match_declarative-narrow-focus_David-leia-el-libro.wav,./stim/wavs/chilean_match_declarative-narrow-focus_David-leia-el-libro.wav,./stim/wavs/cuban_match_declarative-narrow-focus_David-leia-el-libro.wav,./stim/wavs/mexican_match_declarative-narrow-focus_David-leia-el-libro.wav,./stim/wavs/peruvian_match_declarative-narrow-focus_David-leia-el-libro.wav,./stim/wavs/puertorican_match_declarative-narrow-focus_David-leia-el-libro.wav,,,,,,,,,,,,,,,,,,,,,,,,,,,,,,,,,,,,,,,,,,,,,,,,,,,,,,,,
,,,,,,,60498abf0459d95ae80f42ac,605b45a4d25f287719a41696,605b98643d3fca33f2ad43be,Costa Rica,Northeast,NA,no,2021-03-24_21h02.08.924,empathy_intonation_perc,2020.2.10,Win32,60,,,,,,,,,,0,peruvian,1,0,2.048,0,31,31,5,1,6,./stim/wavs/andalusian_match_declarative-broad-focus_Maria-bebe-el-vino.wav,./stim/wavs/argentine_match_declarative-broad-focus_Maria-bebe-el-vino.wav,./stim/wavs/castilian_match_declarative-broad-focus_Maria-bebe-el-vino.wav,./stim/wavs/chilean_match_declarative-broad-focus_Maria-bebe-el-vino.wav,./stim/wavs/cuban_match_declarative-broad-focus_Maria-bebe-el-vino.wav,./stim/wavs/mexican_match_declarative-broad-focus_Maria-bebe-el-vino.wav,./stim/wavs/peruvian_match_declarative-broad-focus_Maria-bebe-el-vino.wav,./stim/wavs/puertorican_match_declarative-broad-focus_Maria-bebe-el-vino.wav,,,,,,,,,,,,,,,,,,,,,,,,,,,,,,,,,,,,,,,,,,,,,,,,,,,,,,,,
,,,,,,,60498abf0459d95ae80f42ac,605b45a4d25f287719a41696,605b98643d3fca33f2ad43be,Costa Rica,Northeast,NA,no,2021-03-24_21h02.08.924,empathy_intonation_perc,2020.2.10,Win32,60,,,,,,,,,,1,argentine,0,0,1.789,0,32,32,26,1,27,./stim/wavs/andalusian_match_interrogative-total-yn_David-leia-el-libro.wav,./stim/wavs/argentine_match_interrogative-total-yn_David-leia-el-libro.wav,./stim/wavs/castilian_match_interrogative-total-yn_David-leia-el-libro.wav,./stim/wavs/chilean_match_interrogative-total-yn_David-leia-el-libro.wav,./stim/wavs/cuban_match_interrogative-total-yn_David-leia-el-libro.wav,./stim/wavs/mexican_match_interrogative-total-yn_David-leia-el-libro.wav,./stim/wavs/peruvian_match_interrogative-total-yn_David-leia-el-libro.wav,./stim/wavs/puertorican_match_interrogative-total-yn_David-leia-el-libro.wav,,,,,,,,,,,,,,,,,,,,,,,,,,,,,,,,,,,,,,,,,,,,,,,,,,,,,,,,
,,,,,,,60498abf0459d95ae80f42ac,605b45a4d25f287719a41696,605b98643d3fca33f2ad43be,Costa Rica,Northeast,NA,no,2021-03-24_21h02.08.924,empathy_intonation_perc,2020.2.10,Win32,60,,,,,,,,,,0,peruvian,0,1,2.011,0,33,33,14,1,15,./stim/wavs/andalusian_match_declarative-narrow-focus_Mariano-habla-del-tiempo.wav,./stim/wavs/argentine_match_declarative-narrow-focus_Mariano-habla-del-tiempo.wav,./stim/wavs/castilian_match_declarative-narrow-focus_Mariano-habla-del-tiempo.wav,./stim/wavs/chilean_match_declarative-narrow-focus_Mariano-habla-del-tiempo.wav,./stim/wavs/cuban_match_declarative-narrow-focus_Mariano-habla-del-tiempo.wav,./stim/wavs/mexican_match_declarative-narrow-focus_Mariano-habla-del-tiempo.wav,./stim/wavs/peruvian_match_declarative-narrow-focus_Mariano-habla-del-tiempo.wav,./stim/wavs/puertorican_match_declarative-narrow-focus_Mariano-habla-del-tiempo.wav,,,,,,,,,,,,,,,,,,,,,,,,,,,,,,,,,,,,,,,,,,,,,,,,,,,,,,,,
,,,,,,,60498abf0459d95ae80f42ac,605b45a4d25f287719a41696,605b98643d3fca33f2ad43be,Costa Rica,Northeast,NA,no,2021-03-24_21h02.08.924,empathy_intonation_perc,2020.2.10,Win32,60,,,,,,,,,,1,mexican,1,1,1.892,0,34,34,54,1,55,./stim/wavs/andalusian_mismatch_interrogative-partial-wh_Por-que-venia-del-lago.wav,./stim/wavs/argentine_mismatch_interrogative-partial-wh_Por-que-venia-del-lago.wav,./stim/wavs/castilian_mismatch_interrogative-partial-wh_Por-que-venia-del-lago.wav,./stim/wavs/chilean_mismatch_interrogative-partial-wh_Por-que-venia-del-lago.wav,./stim/wavs/cuban_mismatch_interrogative-partial-wh_Por-que-venia-del-lago.wav,./stim/wavs/mexican_mismatch_interrogative-partial-wh_Por-que-venia-del-lago.wav,./stim/wavs/peruvian_mismatch_interrogative-partial-wh_Por-que-venia-del-lago.wav,./stim/wavs/puertorican_mismatch_interrogative-partial-wh_Por-que-venia-del-lago.wav,,,,,,,,,,,,,,,,,,,,,,,,,,,,,,,,,,,,,,,,,,,,,,,,,,,,,,,,
,,,,,,,60498abf0459d95ae80f42ac,605b45a4d25f287719a41696,605b98643d3fca33f2ad43be,Costa Rica,Northeast,NA,no,2021-03-24_21h02.08.924,empathy_intonation_perc,2020.2.10,Win32,60,,,,,,,,,,1,andalusian,1,1,1.844,0,35,35,17,1,18,./stim/wavs/andalusian_match_interrogative-partial-wh_Cuando-leia-el-libro.wav,./stim/wavs/argentine_match_interrogative-partial-wh_Cuando-leia-el-libro.wav,./stim/wavs/castilian_match_interrogative-partial-wh_Cuando-leia-el-libro.wav,./stim/wavs/chilean_match_interrogative-partial-wh_Cuando-leia-el-libro.wav,./stim/wavs/cuban_match_interrogative-partial-wh_Cuando-leia-el-libro.wav,./stim/wavs/mexican_match_interrogative-partial-wh_Cuando-leia-el-libro.wav,./stim/wavs/peruvian_match_interrogative-partial-wh_Cuando-leia-el-libro.wav,./stim/wavs/puertorican_match_interrogative-partial-wh_Cuando-leia-el-libro.wav,,,,,,,,,,,,,,,,,,,,,,,,,,,,,,,,,,,,,,,,,,,,,,,,,,,,,,,,
,,,,,,,60498abf0459d95ae80f42ac,605b45a4d25f287719a41696,605b98643d3fca33f2ad43be,Costa Rica,Northeast,NA,no,2021-03-24_21h02.08.924,empathy_intonation_perc,2020.2.10,Win32,60,,,,,,,,,,0,chilean,1,0,2.056,0,36,36,39,1,40,./stim/wavs/andalusian_mismatch_declarative-broad-focus_Mi-tia-odia-la-lluvia.wav,./stim/wavs/argentine_mismatch_declarative-broad-focus_Mi-tia-odia-la-lluvia.wav,./stim/wavs/castilian_mismatch_declarative-broad-focus_Mi-tia-odia-la-lluvia.wav,./stim/wavs/chilean_mismatch_declarative-broad-focus_Mi-tia-odia-la-lluvia.wav,./stim/wavs/cuban_mismatch_declarative-broad-focus_Mi-tia-odia-la-lluvia.wav,./stim/wavs/mexican_mismatch_declarative-broad-focus_Mi-tia-odia-la-lluvia.wav,./stim/wavs/peruvian_mismatch_declarative-broad-focus_Mi-tia-odia-la-lluvia.wav,./stim/wavs/puertorican_mismatch_declarative-broad-focus_Mi-tia-odia-la-lluvia.wav,,,,,,,,,,,,,,,,,,,,,,,,,,,,,,,,,,,,,,,,,,,,,,,,,,,,,,,,
,,,,,,,60498abf0459d95ae80f42ac,605b45a4d25f287719a41696,605b98643d3fca33f2ad43be,Costa Rica,Northeast,NA,no,2021-03-24_21h02.08.924,empathy_intonation_perc,2020.2.10,Win32,60,,,,,,,,,,1,argentine,0,0,1.608,0,37,37,22,1,23,./stim/wavs/andalusian_match_interrogative-partial-wh_Por-que-hablaba-del-agua.wav,./stim/wavs/argentine_match_interrogative-partial-wh_Por-que-hablaba-del-agua.wav,./stim/wavs/castilian_match_interrogative-partial-wh_Por-que-hablaba-del-agua.wav,./stim/wavs/chilean_match_interrogative-partial-wh_Por-que-hablaba-del-agua.wav,./stim/wavs/cuban_match_interrogative-partial-wh_Por-que-hablaba-del-agua.wav,./stim/wavs/mexican_match_interrogative-partial-wh_Por-que-hablaba-del-agua.wav,./stim/wavs/peruvian_match_interrogative-partial-wh_Por-que-hablaba-del-agua.wav,./stim/wavs/puertorican_match_interrogative-partial-wh_Por-que-hablaba-del-agua.wav,,,,,,,,,,,,,,,,,,,,,,,,,,,,,,,,,,,,,,,,,,,,,,,,,,,,,,,,
,,,,,,,60498abf0459d95ae80f42ac,605b45a4d25f287719a41696,605b98643d3fca33f2ad43be,Costa Rica,Northeast,NA,no,2021-03-24_21h02.08.924,empathy_intonation_perc,2020.2.10,Win32,60,,,,,,,,,,0,castilian,0,1,1.823,0,38,38,45,1,46,./stim/wavs/andalusian_mismatch_declarative-narrow-focus_Mi-madre-come-la-fruta.wav,./stim/wavs/argentine_mismatch_declarative-narrow-focus_Mi-madre-come-la-fruta.wav,./stim/wavs/castilian_mismatch_declarative-narrow-focus_Mi-madre-come-la-fruta.wav,./stim/wavs/chilean_mismatch_declarative-narrow-focus_Mi-madre-come-la-fruta.wav,./stim/wavs/cuban_mismatch_declarative-narrow-focus_Mi-madre-come-la-fruta.wav,./stim/wavs/mexican_mismatch_declarative-narrow-focus_Mi-madre-come-la-fruta.wav,./stim/wavs/peruvian_mismatch_declarative-narrow-focus_Mi-madre-come-la-fruta.wav,./stim/wavs/puertorican_mismatch_declarative-narrow-focus_Mi-madre-come-la-fruta.wav,,,,,,,,,,,,,,,,,,,,,,,,,,,,,,,,,,,,,,,,,,,,,,,,,,,,,,,,
,,,,,,,60498abf0459d95ae80f42ac,605b45a4d25f287719a41696,605b98643d3fca33f2ad43be,Costa Rica,Northeast,NA,no,2021-03-24_21h02.08.924,empathy_intonation_perc,2020.2.10,Win32,60,,,,,,,,,,1,argentine,0,0,1.946,0,39,39,51,1,52,./stim/wavs/andalusian_mismatch_interrogative-partial-wh_Por-que-desayuna-muy-bien.wav,./stim/wavs/argentine_mismatch_interrogative-partial-wh_Por-que-desayuna-muy-bien.wav,./stim/wavs/castilian_mismatch_interrogative-partial-wh_Por-que-desayuna-muy-bien.wav,./stim/wavs/chilean_mismatch_interrogative-partial-wh_Por-que-desayuna-muy-bien.wav,./stim/wavs/cuban_mismatch_interrogative-partial-wh_Por-que-desayuna-muy-bien.wav,./stim/wavs/mexican_mismatch_interrogative-partial-wh_Por-que-desayuna-muy-bien.wav,./stim/wavs/peruvian_mismatch_interrogative-partial-wh_Por-que-desayuna-muy-bien.wav,./stim/wavs/puertorican_mismatch_interrogative-partial-wh_Por-que-desayuna-muy-bien.wav,,,,,,,,,,,,,,,,,,,,,,,,,,,,,,,,,,,,,,,,,,,,,,,,,,,,,,,,
,,,,,,,60498abf0459d95ae80f42ac,605b45a4d25f287719a41696,605b98643d3fca33f2ad43be,Costa Rica,Northeast,NA,no,2021-03-24_21h02.08.924,empathy_intonation_perc,2020.2.10,Win32,60,,,,,,,,,,1,andalusian,0,0,1.829,0,40,40,18,1,19,./stim/wavs/andalusian_match_interrogative-partial-wh_Cuando-lleva-el-abrigo.wav,./stim/wavs/argentine_match_interrogative-partial-wh_Cuando-lleva-el-abrigo.wav,./stim/wavs/castilian_match_interrogative-partial-wh_Cuando-lleva-el-abrigo.wav,./stim/wavs/chilean_match_interrogative-partial-wh_Cuando-lleva-el-abrigo.wav,./stim/wavs/cuban_match_interrogative-partial-wh_Cuando-lleva-el-abrigo.wav,./stim/wavs/mexican_match_interrogative-partial-wh_Cuando-lleva-el-abrigo.wav,./stim/wavs/peruvian_match_interrogative-partial-wh_Cuando-lleva-el-abrigo.wav,./stim/wavs/puertorican_match_interrogative-partial-wh_Cuando-lleva-el-abrigo.wav,,,,,,,,,,,,,,,,,,,,,,,,,,,,,,,,,,,,,,,,,,,,,,,,,,,,,,,,
,,,,,,,60498abf0459d95ae80f42ac,605b45a4d25f287719a41696,605b98643d3fca33f2ad43be,Costa Rica,Northeast,NA,no,2021-03-24_21h02.08.924,empathy_intonation_perc,2020.2.10,Win32,60,,,,,,,,,,0,puertorican,0,1,1.922,0,41,41,43,1,44,./stim/wavs/andalusian_mismatch_declarative-narrow-focus_La-maestra-vive-en-Paris.wav,./stim/wavs/argentine_mismatch_declarative-narrow-focus_La-maestra-vive-en-Paris.wav,./stim/wavs/castilian_mismatch_declarative-narrow-focus_La-maestra-vive-en-Paris.wav,./stim/wavs/chilean_mismatch_declarative-narrow-focus_La-maestra-vive-en-Paris.wav,./stim/wavs/cuban_mismatch_declarative-narrow-focus_La-maestra-vive-en-Paris.wav,./stim/wavs/mexican_mismatch_declarative-narrow-focus_La-maestra-vive-en-Paris.wav,./stim/wavs/peruvian_mismatch_declarative-narrow-focus_La-maestra-vive-en-Paris.wav,./stim/wavs/puertorican_mismatch_declarative-narrow-focus_La-maestra-vive-en-Paris.wav,,,,,,,,,,,,,,,,,,,,,,,,,,,,,,,,,,,,,,,,,,,,,,,,,,,,,,,,
,,,,,,,60498abf0459d95ae80f42ac,605b45a4d25f287719a41696,605b98643d3fca33f2ad43be,Costa Rica,Northeast,NA,no,2021-03-24_21h02.08.924,empathy_intonation_perc,2020.2.10,Win32,60,,,,,,,,,,1,argentine,1,1,1.643,0,42,42,55,1,56,./stim/wavs/andalusian_mismatch_interrogative-partial-wh_Por-que-vivia-en-Paris.wav,./stim/wavs/argentine_mismatch_interrogative-partial-wh_Por-que-vivia-en-Paris.wav,./stim/wavs/castilian_mismatch_interrogative-partial-wh_Por-que-vivia-en-Paris.wav,./stim/wavs/chilean_mismatch_interrogative-partial-wh_Por-que-vivia-en-Paris.wav,./stim/wavs/cuban_mismatch_interrogative-partial-wh_Por-que-vivia-en-Paris.wav,./stim/wavs/mexican_mismatch_interrogative-partial-wh_Por-que-vivia-en-Paris.wav,./stim/wavs/peruvian_mismatch_interrogative-partial-wh_Por-que-vivia-en-Paris.wav,./stim/wavs/puertorican_mismatch_interrogative-partial-wh_Por-que-vivia-en-Paris.wav,,,,,,,,,,,,,,,,,,,,,,,,,,,,,,,,,,,,,,,,,,,,,,,,,,,,,,,,
,,,,,,,60498abf0459d95ae80f42ac,605b45a4d25f287719a41696,605b98643d3fca33f2ad43be,Costa Rica,Northeast,NA,no,2021-03-24_21h02.08.924,empathy_intonation_perc,2020.2.10,Win32,60,,,,,,,,,,1,peruvian,0,0,2.419,0,43,43,61,1,62,./stim/wavs/andalusian_mismatch_interrogative-total-yn_Mi-madre-come-la-fruta.wav,./stim/wavs/argentine_mismatch_interrogative-total-yn_Mi-madre-come-la-fruta.wav,./stim/wavs/castilian_mismatch_interrogative-total-yn_Mi-madre-come-la-fruta.wav,./stim/wavs/chilean_mismatch_interrogative-total-yn_Mi-madre-come-la-fruta.wav,./stim/wavs/cuban_mismatch_interrogative-total-yn_Mi-madre-come-la-fruta.wav,./stim/wavs/mexican_mismatch_interrogative-total-yn_Mi-madre-come-la-fruta.wav,./stim/wavs/peruvian_mismatch_interrogative-total-yn_Mi-madre-come-la-fruta.wav,./stim/wavs/puertorican_mismatch_interrogative-total-yn_Mi-madre-come-la-fruta.wav,,,,,,,,,,,,,,,,,,,,,,,,,,,,,,,,,,,,,,,,,,,,,,,,,,,,,,,,
,,,,,,,60498abf0459d95ae80f42ac,605b45a4d25f287719a41696,605b98643d3fca33f2ad43be,Costa Rica,Northeast,NA,no,2021-03-24_21h02.08.924,empathy_intonation_perc,2020.2.10,Win32,60,,,,,,,,,,0,andalusian,0,1,1.708,0,44,44,44,1,45,./stim/wavs/andalusian_mismatch_declarative-narrow-focus_La-nina-lava-el-plato.wav,./stim/wavs/argentine_mismatch_declarative-narrow-focus_La-nina-lava-el-plato.wav,./stim/wavs/castilian_mismatch_declarative-narrow-focus_La-nina-lava-el-plato.wav,./stim/wavs/chilean_mismatch_declarative-narrow-focus_La-nina-lava-el-plato.wav,./stim/wavs/cuban_mismatch_declarative-narrow-focus_La-nina-lava-el-plato.wav,./stim/wavs/mexican_mismatch_declarative-narrow-focus_La-nina-lava-el-plato.wav,./stim/wavs/peruvian_mismatch_declarative-narrow-focus_La-nina-lava-el-plato.wav,./stim/wavs/puertorican_mismatch_declarative-narrow-focus_La-nina-lava-el-plato.wav,,,,,,,,,,,,,,,,,,,,,,,,,,,,,,,,,,,,,,,,,,,,,,,,,,,,,,,,
,,,,,,,60498abf0459d95ae80f42ac,605b45a4d25f287719a41696,605b98643d3fca33f2ad43be,Costa Rica,Northeast,NA,no,2021-03-24_21h02.08.924,empathy_intonation_perc,2020.2.10,Win32,60,,,,,,,,,,0,cuban,1,0,2.147,0,45,45,15,1,16,./stim/wavs/andalusian_match_declarative-narrow-focus_Marta-abre-el-regalo.wav,./stim/wavs/argentine_match_declarative-narrow-focus_Marta-abre-el-regalo.wav,./stim/wavs/castilian_match_declarative-narrow-focus_Marta-abre-el-regalo.wav,./stim/wavs/chilean_match_declarative-narrow-focus_Marta-abre-el-regalo.wav,./stim/wavs/cuban_match_declarative-narrow-focus_Marta-abre-el-regalo.wav,./stim/wavs/mexican_match_declarative-narrow-focus_Marta-abre-el-regalo.wav,./stim/wavs/peruvian_match_declarative-narrow-focus_Marta-abre-el-regalo.wav,./stim/wavs/puertorican_match_declarative-narrow-focus_Marta-abre-el-regalo.wav,,,,,,,,,,,,,,,,,,,,,,,,,,,,,,,,,,,,,,,,,,,,,,,,,,,,,,,,
,,,,,,,60498abf0459d95ae80f42ac,605b45a4d25f287719a41696,605b98643d3fca33f2ad43be,Costa Rica,Northeast,NA,no,2021-03-24_21h02.08.924,empathy_intonation_perc,2020.2.10,Win32,60,,,,,,,,,,1,andalusian,0,0,1.609,0,46,46,19,1,20,./stim/wavs/andalusian_match_interrogative-partial-wh_Cuando-vendia-el-carro.wav,./stim/wavs/argentine_match_interrogative-partial-wh_Cuando-vendia-el-carro.wav,./stim/wavs/castilian_match_interrogative-partial-wh_Cuando-vendia-el-carro.wav,./stim/wavs/chilean_match_interrogative-partial-wh_Cuando-vendia-el-carro.wav,./stim/wavs/cuban_match_interrogative-partial-wh_Cuando-vendia-el-carro.wav,./stim/wavs/mexican_match_interrogative-partial-wh_Cuando-vendia-el-carro.wav,./stim/wavs/peruvian_match_interrogative-partial-wh_Cuando-vendia-el-carro.wav,./stim/wavs/puertorican_match_interrogative-partial-wh_Cuando-vendia-el-carro.wav,,,,,,,,,,,,,,,,,,,,,,,,,,,,,,,,,,,,,,,,,,,,,,,,,,,,,,,,
,,,,,,,60498abf0459d95ae80f42ac,605b45a4d25f287719a41696,605b98643d3fca33f2ad43be,Costa Rica,Northeast,NA,no,2021-03-24_21h02.08.924,empathy_intonation_perc,2020.2.10,Win32,60,,,,,,,,,,0,andalusian,1,0,1.503,0,47,47,41,1,42,./stim/wavs/andalusian_mismatch_declarative-narrow-focus_El-hombre-mira-la-luna.wav,./stim/wavs/argentine_mismatch_declarative-narrow-focus_El-hombre-mira-la-luna.wav,./stim/wavs/castilian_mismatch_declarative-narrow-focus_El-hombre-mira-la-luna.wav,./stim/wavs/chilean_mismatch_declarative-narrow-focus_El-hombre-mira-la-luna.wav,./stim/wavs/cuban_mismatch_declarative-narrow-focus_El-hombre-mira-la-luna.wav,./stim/wavs/mexican_mismatch_declarative-narrow-focus_El-hombre-mira-la-luna.wav,./stim/wavs/peruvian_mismatch_declarative-narrow-focus_El-hombre-mira-la-luna.wav,./stim/wavs/puertorican_mismatch_declarative-narrow-focus_El-hombre-mira-la-luna.wav,,,,,,,,,,,,,,,,,,,,,,,,,,,,,,,,,,,,,,,,,,,,,,,,,,,,,,,,
,,,,,,,60498abf0459d95ae80f42ac,605b45a4d25f287719a41696,605b98643d3fca33f2ad43be,Costa Rica,Northeast,NA,no,2021-03-24_21h02.08.924,empathy_intonation_perc,2020.2.10,Win32,60,,,,,,,,,,0,cuban,1,0,1.841,0,48,48,40,1,41,./stim/wavs/andalusian_mismatch_declarative-narrow-focus_El-bebe-comia-muy-bien.wav,./stim/wavs/argentine_mismatch_declarative-narrow-focus_El-bebe-comia-muy-bien.wav,./stim/wavs/castilian_mismatch_declarative-narrow-focus_El-bebe-comia-muy-bien.wav,./stim/wavs/chilean_mismatch_declarative-narrow-focus_El-bebe-comia-muy-bien.wav,./stim/wavs/cuban_mismatch_declarative-narrow-focus_El-bebe-comia-muy-bien.wav,./stim/wavs/mexican_mismatch_declarative-narrow-focus_El-bebe-comia-muy-bien.wav,./stim/wavs/peruvian_mismatch_declarative-narrow-focus_El-bebe-comia-muy-bien.wav,./stim/wavs/puertorican_mismatch_declarative-narrow-focus_El-bebe-comia-muy-bien.wav,,,,,,,,,,,,,,,,,,,,,,,,,,,,,,,,,,,,,,,,,,,,,,,,,,,,,,,,
,,,,,,,60498abf0459d95ae80f42ac,605b45a4d25f287719a41696,605b98643d3fca33f2ad43be,Costa Rica,Northeast,NA,no,2021-03-24_21h02.08.924,empathy_intonation_perc,2020.2.10,Win32,60,,,,,,,,,,0,argentine,1,0,1.771,0,49,49,4,1,5,./stim/wavs/andalusian_match_declarative-broad-focus_Manuela-vende-el-carro.wav,./stim/wavs/argentine_match_declarative-broad-focus_Manuela-vende-el-carro.wav,./stim/wavs/castilian_match_declarative-broad-focus_Manuela-vende-el-carro.wav,./stim/wavs/chilean_match_declarative-broad-focus_Manuela-vende-el-carro.wav,./stim/wavs/cuban_match_declarative-broad-focus_Manuela-vende-el-carro.wav,./stim/wavs/mexican_match_declarative-broad-focus_Manuela-vende-el-carro.wav,./stim/wavs/peruvian_match_declarative-broad-focus_Manuela-vende-el-carro.wav,./stim/wavs/puertorican_match_declarative-broad-focus_Manuela-vende-el-carro.wav,,,,,,,,,,,,,,,,,,,,,,,,,,,,,,,,,,,,,,,,,,,,,,,,,,,,,,,,
,,,,,,,60498abf0459d95ae80f42ac,605b45a4d25f287719a41696,605b98643d3fca33f2ad43be,Costa Rica,Northeast,NA,no,2021-03-24_21h02.08.924,empathy_intonation_perc,2020.2.10,Win32,60,,,,,,,,,,0,andalusian,1,0,1.942,0,50,50,3,1,4,./stim/wavs/andalusian_match_declarative-broad-focus_Emilio-ama-la-marcha.wav,./stim/wavs/argentine_match_declarative-broad-focus_Emilio-ama-la-marcha.wav,./stim/wavs/castilian_match_declarative-broad-focus_Emilio-ama-la-marcha.wav,./stim/wavs/chilean_match_declarative-broad-focus_Emilio-ama-la-marcha.wav,./stim/wavs/cuban_match_declarative-broad-focus_Emilio-ama-la-marcha.wav,./stim/wavs/mexican_match_declarative-broad-focus_Emilio-ama-la-marcha.wav,./stim/wavs/peruvian_match_declarative-broad-focus_Emilio-ama-la-marcha.wav,./stim/wavs/puertorican_match_declarative-broad-focus_Emilio-ama-la-marcha.wav,,,,,,,,,,,,,,,,,,,,,,,,,,,,,,,,,,,,,,,,,,,,,,,,,,,,,,,,
,,,,,,,60498abf0459d95ae80f42ac,605b45a4d25f287719a41696,605b98643d3fca33f2ad43be,Costa Rica,Northeast,NA,no,2021-03-24_21h02.08.924,empathy_intonation_perc,2020.2.10,Win32,60,,,,,,,,,,1,castilian,0,0,1.625,0,51,51,29,1,30,./stim/wavs/andalusian_match_interrogative-total-yn_Maria-bebe-el-vino.wav,./stim/wavs/argentine_match_interrogative-total-yn_Maria-bebe-el-vino.wav,./stim/wavs/castilian_match_interrogative-total-yn_Maria-bebe-el-vino.wav,./stim/wavs/chilean_match_interrogative-total-yn_Maria-bebe-el-vino.wav,./stim/wavs/cuban_match_interrogative-total-yn_Maria-bebe-el-vino.wav,./stim/wavs/mexican_match_interrogative-total-yn_Maria-bebe-el-vino.wav,./stim/wavs/peruvian_match_interrogative-total-yn_Maria-bebe-el-vino.wav,./stim/wavs/puertorican_match_interrogative-total-yn_Maria-bebe-el-vino.wav,,,,,,,,,,,,,,,,,,,,,,,,,,,,,,,,,,,,,,,,,,,,,,,,,,,,,,,,
,,,,,,,60498abf0459d95ae80f42ac,605b45a4d25f287719a41696,605b98643d3fca33f2ad43be,Costa Rica,Northeast,NA,no,2021-03-24_21h02.08.924,empathy_intonation_perc,2020.2.10,Win32,60,,,,,,,,,,0,peruvian,0,1,2.091,0,52,52,47,1,48,./stim/wavs/andalusian_mismatch_declarative-narrow-focus_Mi-tia-odia-la-lluvia.wav,./stim/wavs/argentine_mismatch_declarative-narrow-focus_Mi-tia-odia-la-lluvia.wav,./stim/wavs/castilian_mismatch_declarative-narrow-focus_Mi-tia-odia-la-lluvia.wav,./stim/wavs/chilean_mismatch_declarative-narrow-focus_Mi-tia-odia-la-lluvia.wav,./stim/wavs/cuban_mismatch_declarative-narrow-focus_Mi-tia-odia-la-lluvia.wav,./stim/wavs/mexican_mismatch_declarative-narrow-focus_Mi-tia-odia-la-lluvia.wav,./stim/wavs/peruvian_mismatch_declarative-narrow-focus_Mi-tia-odia-la-lluvia.wav,./stim/wavs/puertorican_mismatch_declarative-narrow-focus_Mi-tia-odia-la-lluvia.wav,,,,,,,,,,,,,,,,,,,,,,,,,,,,,,,,,,,,,,,,,,,,,,,,,,,,,,,,
,,,,,,,60498abf0459d95ae80f42ac,605b45a4d25f287719a41696,605b98643d3fca33f2ad43be,Costa Rica,Northeast,NA,no,2021-03-24_21h02.08.924,empathy_intonation_perc,2020.2.10,Win32,60,,,,,,,,,,0,cuban,0,1,1.698,0,53,53,46,1,47,./stim/wavs/andalusian_mismatch_declarative-narrow-focus_Mi-novio-viene-del-lago.wav,./stim/wavs/argentine_mismatch_declarative-narrow-focus_Mi-novio-viene-del-lago.wav,./stim/wavs/castilian_mismatch_declarative-narrow-focus_Mi-novio-viene-del-lago.wav,./stim/wavs/chilean_mismatch_declarative-narrow-focus_Mi-novio-viene-del-lago.wav,./stim/wavs/cuban_mismatch_declarative-narrow-focus_Mi-novio-viene-del-lago.wav,./stim/wavs/mexican_mismatch_declarative-narrow-focus_Mi-novio-viene-del-lago.wav,./stim/wavs/peruvian_mismatch_declarative-narrow-focus_Mi-novio-viene-del-lago.wav,./stim/wavs/puertorican_mismatch_declarative-narrow-focus_Mi-novio-viene-del-lago.wav,,,,,,,,,,,,,,,,,,,,,,,,,,,,,,,,,,,,,,,,,,,,,,,,,,,,,,,,
,,,,,,,60498abf0459d95ae80f42ac,605b45a4d25f287719a41696,605b98643d3fca33f2ad43be,Costa Rica,Northeast,NA,no,2021-03-24_21h02.08.924,empathy_intonation_perc,2020.2.10,Win32,60,,,,,,,,,,0,mexican,1,0,1.61,0,54,54,42,1,43,./stim/wavs/andalusian_mismatch_declarative-narrow-focus_El-nino-oye-el-rio.wav,./stim/wavs/argentine_mismatch_declarative-narrow-focus_El-nino-oye-el-rio.wav,./stim/wavs/castilian_mismatch_declarative-narrow-focus_El-nino-oye-el-rio.wav,./stim/wavs/chilean_mismatch_declarative-narrow-focus_El-nino-oye-el-rio.wav,./stim/wavs/cuban_mismatch_declarative-narrow-focus_El-nino-oye-el-rio.wav,./stim/wavs/mexican_mismatch_declarative-narrow-focus_El-nino-oye-el-rio.wav,./stim/wavs/peruvian_mismatch_declarative-narrow-focus_El-nino-oye-el-rio.wav,./stim/wavs/puertorican_mismatch_declarative-narrow-focus_El-nino-oye-el-rio.wav,,,,,,,,,,,,,,,,,,,,,,,,,,,,,,,,,,,,,,,,,,,,,,,,,,,,,,,,
,,,,,,,60498abf0459d95ae80f42ac,605b45a4d25f287719a41696,605b98643d3fca33f2ad43be,Costa Rica,Northeast,NA,no,2021-03-24_21h02.08.924,empathy_intonation_perc,2020.2.10,Win32,60,,,,,,,,,,1,peruvian,0,0,1.841,0,55,55,28,1,29,./stim/wavs/andalusian_match_interrogative-total-yn_Manuela-vende-el-carro.wav,./stim/wavs/argentine_match_interrogative-total-yn_Manuela-vende-el-carro.wav,./stim/wavs/castilian_match_interrogative-total-yn_Manuela-vende-el-carro.wav,./stim/wavs/chilean_match_interrogative-total-yn_Manuela-vende-el-carro.wav,./stim/wavs/cuban_match_interrogative-total-yn_Manuela-vende-el-carro.wav,./stim/wavs/mexican_match_interrogative-total-yn_Manuela-vende-el-carro.wav,./stim/wavs/peruvian_match_interrogative-total-yn_Manuela-vende-el-carro.wav,./stim/wavs/puertorican_match_interrogative-total-yn_Manuela-vende-el-carro.wav,,,,,,,,,,,,,,,,,,,,,,,,,,,,,,,,,,,,,,,,,,,,,,,,,,,,,,,,
,,,,,,,60498abf0459d95ae80f42ac,605b45a4d25f287719a41696,605b98643d3fca33f2ad43be,Costa Rica,Northeast,NA,no,2021-03-24_21h02.08.924,empathy_intonation_perc,2020.2.10,Win32,60,,,,,,,,,,0,peruvian,1,0,2.031,0,56,56,11,1,12,./stim/wavs/andalusian_match_declarative-narrow-focus_Emilio-ama-la-marcha.wav,./stim/wavs/argentine_match_declarative-narrow-focus_Emilio-ama-la-marcha.wav,./stim/wavs/castilian_match_declarative-narrow-focus_Emilio-ama-la-marcha.wav,./stim/wavs/chilean_match_declarative-narrow-focus_Emilio-ama-la-marcha.wav,./stim/wavs/cuban_match_declarative-narrow-focus_Emilio-ama-la-marcha.wav,./stim/wavs/mexican_match_declarative-narrow-focus_Emilio-ama-la-marcha.wav,./stim/wavs/peruvian_match_declarative-narrow-focus_Emilio-ama-la-marcha.wav,./stim/wavs/puertorican_match_declarative-narrow-focus_Emilio-ama-la-marcha.wav,,,,,,,,,,,,,,,,,,,,,,,,,,,,,,,,,,,,,,,,,,,,,,,,,,,,,,,,
,,,,,,,60498abf0459d95ae80f42ac,605b45a4d25f287719a41696,605b98643d3fca33f2ad43be,Costa Rica,Northeast,NA,no,2021-03-24_21h02.08.924,empathy_intonation_perc,2020.2.10,Win32,60,,,,,,,,,,0,castilian,0,1,1.741,0,57,57,7,1,8,./stim/wavs/andalusian_match_declarative-broad-focus_Marta-abre-el-regalo.wav,./stim/wavs/argentine_match_declarative-broad-focus_Marta-abre-el-regalo.wav,./stim/wavs/castilian_match_declarative-broad-focus_Marta-abre-el-regalo.wav,./stim/wavs/chilean_match_declarative-broad-focus_Marta-abre-el-regalo.wav,./stim/wavs/cuban_match_declarative-broad-focus_Marta-abre-el-regalo.wav,./stim/wavs/mexican_match_declarative-broad-focus_Marta-abre-el-regalo.wav,./stim/wavs/peruvian_match_declarative-broad-focus_Marta-abre-el-regalo.wav,./stim/wavs/puertorican_match_declarative-broad-focus_Marta-abre-el-regalo.wav,,,,,,,,,,,,,,,,,,,,,,,,,,,,,,,,,,,,,,,,,,,,,,,,,,,,,,,,
,,,,,,,60498abf0459d95ae80f42ac,605b45a4d25f287719a41696,605b98643d3fca33f2ad43be,Costa Rica,Northeast,NA,no,2021-03-24_21h02.08.924,empathy_intonation_perc,2020.2.10,Win32,60,,,,,,,,,,0,castilian,1,0,1.67,0,58,58,13,1,14,./stim/wavs/andalusian_match_declarative-narrow-focus_Maria-bebe-el-vino.wav,./stim/wavs/argentine_match_declarative-narrow-focus_Maria-bebe-el-vino.wav,./stim/wavs/castilian_match_declarative-narrow-focus_Maria-bebe-el-vino.wav,./stim/wavs/chilean_match_declarative-narrow-focus_Maria-bebe-el-vino.wav,./stim/wavs/cuban_match_declarative-narrow-focus_Maria-bebe-el-vino.wav,./stim/wavs/mexican_match_declarative-narrow-focus_Maria-bebe-el-vino.wav,./stim/wavs/peruvian_match_declarative-narrow-focus_Maria-bebe-el-vino.wav,./stim/wavs/puertorican_match_declarative-narrow-focus_Maria-bebe-el-vino.wav,,,,,,,,,,,,,,,,,,,,,,,,,,,,,,,,,,,,,,,,,,,,,,,,,,,,,,,,
,,,,,,,60498abf0459d95ae80f42ac,605b45a4d25f287719a41696,605b98643d3fca33f2ad43be,Costa Rica,Northeast,NA,no,2021-03-24_21h02.08.924,empathy_intonation_perc,2020.2.10,Win32,60,,,,,,,,,,1,cuban,1,1,1.533,0,59,59,60,1,61,./stim/wavs/andalusian_mismatch_interrogative-total-yn_La-nina-lava-el-plato.wav,./stim/wavs/argentine_mismatch_interrogative-total-yn_La-nina-lava-el-plato.wav,./stim/wavs/castilian_mismatch_interrogative-total-yn_La-nina-lava-el-plato.wav,./stim/wavs/chilean_mismatch_interrogative-total-yn_La-nina-lava-el-plato.wav,./stim/wavs/cuban_mismatch_interrogative-total-yn_La-nina-lava-el-plato.wav,./stim/wavs/mexican_mismatch_interrogative-total-yn_La-nina-lava-el-plato.wav,./stim/wavs/peruvian_mismatch_interrogative-total-yn_La-nina-lava-el-plato.wav,./stim/wavs/puertorican_mismatch_interrogative-total-yn_La-nina-lava-el-plato.wav,,,,,,,,,,,,,,,,,,,,,,,,,,,,,,,,,,,,,,,,,,,,,,,,,,,,,,,,
,,,,,,,60498abf0459d95ae80f42ac,605b45a4d25f287719a41696,605b98643d3fca33f2ad43be,Costa Rica,Northeast,NA,no,2021-03-24_21h02.08.924,empathy_intonation_perc,2020.2.10,Win32,60,,,,,,,,,,0,cuban,1,0,1.66,0,60,60,36,1,37,./stim/wavs/andalusian_mismatch_declarative-broad-focus_La-nina-lava-el-plato.wav,./stim/wavs/argentine_mismatch_declarative-broad-focus_La-nina-lava-el-plato.wav,./stim/wavs/castilian_mismatch_declarative-broad-focus_La-nina-lava-el-plato.wav,./stim/wavs/chilean_mismatch_declarative-broad-focus_La-nina-lava-el-plato.wav,./stim/wavs/cuban_mismatch_declarative-broad-focus_La-nina-lava-el-plato.wav,./stim/wavs/mexican_mismatch_declarative-broad-focus_La-nina-lava-el-plato.wav,./stim/wavs/peruvian_mismatch_declarative-broad-focus_La-nina-lava-el-plato.wav,./stim/wavs/puertorican_mismatch_declarative-broad-focus_La-nina-lava-el-plato.wav,,,,,,,,,,,,,,,,,,,,,,,,,,,,,,,,,,,,,,,,,,,,,,,,,,,,,,,,
,,,,,,,60498abf0459d95ae80f42ac,605b45a4d25f287719a41696,605b98643d3fca33f2ad43be,Costa Rica,Northeast,NA,no,2021-03-24_21h02.08.924,empathy_intonation_perc,2020.2.10,Win32,60,,,,,,,,,,1,argentine,0,0,1.507,0,61,61,58,1,59,./stim/wavs/andalusian_mismatch_interrogative-total-yn_El-nino-oye-el-rio.wav,./stim/wavs/argentine_mismatch_interrogative-total-yn_El-nino-oye-el-rio.wav,./stim/wavs/castilian_mismatch_interrogative-total-yn_El-nino-oye-el-rio.wav,./stim/wavs/chilean_mismatch_interrogative-total-yn_El-nino-oye-el-rio.wav,./stim/wavs/cuban_mismatch_interrogative-total-yn_El-nino-oye-el-rio.wav,./stim/wavs/mexican_mismatch_interrogative-total-yn_El-nino-oye-el-rio.wav,./stim/wavs/peruvian_mismatch_interrogative-total-yn_El-nino-oye-el-rio.wav,./stim/wavs/puertorican_mismatch_interrogative-total-yn_El-nino-oye-el-rio.wav,,,,,,,,,,,,,,,,,,,,,,,,,,,,,,,,,,,,,,,,,,,,,,,,,,,,,,,,
,,,,,,,60498abf0459d95ae80f42ac,605b45a4d25f287719a41696,605b98643d3fca33f2ad43be,Costa Rica,Northeast,NA,no,2021-03-24_21h02.08.924,empathy_intonation_perc,2020.2.10,Win32,60,,,,,,,,,,0,castilian,0,1,1.473,0,62,62,8,1,9,./stim/wavs/andalusian_match_declarative-narrow-focus_Ana-lleva-el-abrigo.wav,./stim/wavs/argentine_match_declarative-narrow-focus_Ana-lleva-el-abrigo.wav,./stim/wavs/castilian_match_declarative-narrow-focus_Ana-lleva-el-abrigo.wav,./stim/wavs/chilean_match_declarative-narrow-focus_Ana-lleva-el-abrigo.wav,./stim/wavs/cuban_match_declarative-narrow-focus_Ana-lleva-el-abrigo.wav,./stim/wavs/mexican_match_declarative-narrow-focus_Ana-lleva-el-abrigo.wav,./stim/wavs/peruvian_match_declarative-narrow-focus_Ana-lleva-el-abrigo.wav,./stim/wavs/puertorican_match_declarative-narrow-focus_Ana-lleva-el-abrigo.wav,,,,,,,,,,,,,,,,,,,,,,,,,,,,,,,,,,,,,,,,,,,,,,,,,,,,,,,,
,,,,,,,60498abf0459d95ae80f42ac,605b45a4d25f287719a41696,605b98643d3fca33f2ad43be,Costa Rica,Northeast,NA,no,2021-03-24_21h02.08.924,empathy_intonation_perc,2020.2.10,Win32,60,,,,,,,,,,0,puertorican,0,1,1.844,0,63,63,35,1,36,./stim/wavs/andalusian_mismatch_declarative-broad-focus_La-maestra-vive-en-Paris.wav,./stim/wavs/argentine_mismatch_declarative-broad-focus_La-maestra-vive-en-Paris.wav,./stim/wavs/castilian_mismatch_declarative-broad-focus_La-maestra-vive-en-Paris.wav,./stim/wavs/chilean_mismatch_declarative-broad-focus_La-maestra-vive-en-Paris.wav,./stim/wavs/cuban_mismatch_declarative-broad-focus_La-maestra-vive-en-Paris.wav,./stim/wavs/mexican_mismatch_declarative-broad-focus_La-maestra-vive-en-Paris.wav,./stim/wavs/peruvian_mismatch_declarative-broad-focus_La-maestra-vive-en-Paris.wav,./stim/wavs/puertorican_mismatch_declarative-broad-focus_La-maestra-vive-en-Paris.wav,,,,,,,,,,,,,,,,,,,,,,,,,,,,,,,,,,,,,,,,,,,,,,,,,,,,,,,,
,,,,,,,60498abf0459d95ae80f42ac,605b45a4d25f287719a41696,605b98643d3fca33f2ad43be,Costa Rica,Northeast,NA,no,2021-03-24_21h02.08.924,empathy_intonation_perc,2020.2.10,Win32,60,,,,,,,,,,,,,,,,,,,,,,,,,,,,,h,1,12.997,0,0,0,0,1,,,,,,,,,,,,,,,,,,,,,,,,,,,,,,,,,,,,,,,,,,,,,,,,
,,,,,"Great! Now we will move on. The next task consists of about 60 trials, in each of which you will see a string of letters. 
  
  Your task is to decide whether this is a real Spanish word or not.",(press the spacebar to continue),60498abf0459d95ae80f42ac,605b45a4d25f287719a41696,605b98643d3fca33f2ad43be,Costa Rica,Northeast,NA,no,2021-03-24_21h02.08.924,empathy_intonation_perc,2020.2.10,Win32,60,,,,,,,,,,,,,,,,,,,,,,,,,,,,,,,,,,,,,0,0,0,0,1,,,,,,,,,,,,,,,,,,,,,,,,,,,,,,,,,,,,,,,,,,,
,,,,,"If you think it is an existing Spanish word, you type '1' (for 'REAL'), and if you think it is not an existing Spanish word, you type '0' (for 'FAKE').",(press the spacebar to continue),60498abf0459d95ae80f42ac,605b45a4d25f287719a41696,605b98643d3fca33f2ad43be,Costa Rica,Northeast,NA,no,2021-03-24_21h02.08.924,empathy_intonation_perc,2020.2.10,Win32,60,,,,,,,,,,,,,,,,,,,,,,,,,,,,,,,,,,,,,0,1,1,1,1,,,,,,,,,,,,,,,,,,,,,,,,,,,,,,,,,,,,,,,,,,,
,,,,,"If you are sure that the word exists, even though you dont know its exact meaning, you may still respond '1' (REAL). 
  
  But if you are not sure if it is an existing word, you should respond '0' (FAKE).
  
  Let's do a practice round...",(press the spacebar to continue),60498abf0459d95ae80f42ac,605b45a4d25f287719a41696,605b98643d3fca33f2ad43be,Costa Rica,Northeast,NA,no,2021-03-24_21h02.08.924,empathy_intonation_perc,2020.2.10,Win32,60,,,,,,,,,,,,,,,,,,,,,,,,,,,,,,,,,,,,,0,2,2,2,1,,,,,,,,,,,,,,,,,,,,,,,,,,,,,,,,,,,,,,,,,,,
,,,,,,,60498abf0459d95ae80f42ac,605b45a4d25f287719a41696,605b98643d3fca33f2ad43be,Costa Rica,Northeast,NA,no,2021-03-24_21h02.08.924,empathy_intonation_perc,2020.2.10,Win32,60,,,,,,,,,,0,,,,,,,,,,,,,,,,,,,,,,,,,,,,,,,,1,0,2.269,0,0,0,0,1,0,depiste,REAL,FAKE,,,,,,,,,,,,,,,,,,,,,,,,,,,,,,,
,,,,,,,60498abf0459d95ae80f42ac,605b45a4d25f287719a41696,605b98643d3fca33f2ad43be,Costa Rica,Northeast,NA,no,2021-03-24_21h02.08.924,empathy_intonation_perc,2020.2.10,Win32,60,,,,,,,,,,1,,,,,,,,,,,,,,,,,,,,,,,,,,,,,,,,1,1,2.493,0,1,1,1,1,0,s,REAL,FAKE,,,,,,,,,,,,,,,,,,,,,,,,,,,,,,,
,,,,,,,60498abf0459d95ae80f42ac,605b45a4d25f287719a41696,605b98643d3fca33f2ad43be,Costa Rica,Northeast,NA,no,2021-03-24_21h02.08.924,empathy_intonation_perc,2020.2.10,Win32,60,,,,,,,,,,0,,,,,,,,,,,,,,,,,,,,,,,,,,,,,,,,1,0,1.685,0,2,2,2,1,0,con,REAL,FAKE,,,,,,,,,,,,,,,,,,,,,,,,,,,,,,,
,,,,,,,60498abf0459d95ae80f42ac,605b45a4d25f287719a41696,605b98643d3fca33f2ad43be,Costa Rica,Northeast,NA,no,2021-03-24_21h02.08.924,empathy_intonation_perc,2020.2.10,Win32,60,,,,,,,,,,0,,,,,,,,,,,,,,,,,,,,,,,,,,,,,,,,1,0,1.548,0,3,3,3,1,0,calpar,REAL,FAKE,,,,,,,,,,,,,,,,,,,,,,,,,,,,,,,
,,,,,,,60498abf0459d95ae80f42ac,605b45a4d25f287719a41696,605b98643d3fca33f2ad43be,Costa Rica,Northeast,NA,no,2021-03-24_21h02.08.924,empathy_intonation_perc,2020.2.10,Win32,60,,,,,,,,,,0,,,,,,,,,,,,,,,,,,,,,,,,,,,,,,,,1,0,1.241,0,4,4,4,1,0,joten,REAL,FAKE,,,,,,,,,,,,,,,,,,,,,,,,,,,,,,,
,,,,,,,60498abf0459d95ae80f42ac,605b45a4d25f287719a41696,605b98643d3fca33f2ad43be,Costa Rica,Northeast,NA,no,2021-03-24_21h02.08.924,empathy_intonation_perc,2020.2.10,Win32,60,,,,,,,,,,1,,,,,,,,,,,,,,,,,,,,,,,,,,,,,,,,0,0,1.532,0,5,5,5,1,0,sacapuntas,REAL,FAKE,,,,,,,,,,,,,,,,,,,,,,,,,,,,,,,
,,,,,,,60498abf0459d95ae80f42ac,605b45a4d25f287719a41696,605b98643d3fca33f2ad43be,Costa Rica,Northeast,NA,no,2021-03-24_21h02.08.924,empathy_intonation_perc,2020.2.10,Win32,60,,,,,,,,,,0,,,,,,,,,,,,,,,,,,,,,,,,,,,,,,,,1,0,1.369,0,6,6,6,1,0,priba,REAL,FAKE,,,,,,,,,,,,,,,,,,,,,,,,,,,,,,,
,,,,,,,60498abf0459d95ae80f42ac,605b45a4d25f287719a41696,605b98643d3fca33f2ad43be,Costa Rica,Northeast,NA,no,2021-03-24_21h02.08.924,empathy_intonation_perc,2020.2.10,Win32,60,,,,,,,,,,0,,,,,,,,,,,,,,,,,,,,,,,,,,,,,,,,1,0,2.025,0,7,7,7,1,0,pelasula,REAL,FAKE,,,,,,,,,,,,,,,,,,,,,,,,,,,,,,,
,,,,,,,60498abf0459d95ae80f42ac,605b45a4d25f287719a41696,605b98643d3fca33f2ad43be,Costa Rica,Northeast,NA,no,2021-03-24_21h02.08.924,empathy_intonation_perc,2020.2.10,Win32,60,,,,,,,,,,1,,,,,,,,,,,,,,,,,,,,,,,,,,,,,,,,1,1,1.239,0,8,8,8,1,0,bien,REAL,FAKE,,,,,,,,,,,,,,,,,,,,,,,,,,,,,,,
,,,,,,,60498abf0459d95ae80f42ac,605b45a4d25f287719a41696,605b98643d3fca33f2ad43be,Costa Rica,Northeast,NA,no,2021-03-24_21h02.08.924,empathy_intonation_perc,2020.2.10,Win32,60,,,,,,,,,,1,,,,,,,,,,,,,,,,,,,,,,,,,,,,,,,,1,1,1.195,0,9,9,9,1,0,casa,REAL,FAKE,,,,,,,,,,,,,,,,,,,,,,,,,,,,,,,
,,,,,,,60498abf0459d95ae80f42ac,605b45a4d25f287719a41696,605b98643d3fca33f2ad43be,Costa Rica,Northeast,NA,no,2021-03-24_21h02.08.924,empathy_intonation_perc,2020.2.10,Win32,60,,,,,,,,,,0,,,,,,,,,,,,,,,,,,,,,,,,,,,,,,,,1,0,1.304,0,10,10,10,1,0,lejo,REAL,FAKE,,,,,,,,,,,,,,,,,,,,,,,,,,,,,,,
,,,,,,,60498abf0459d95ae80f42ac,605b45a4d25f287719a41696,605b98643d3fca33f2ad43be,Costa Rica,Northeast,NA,no,2021-03-24_21h02.08.924,empathy_intonation_perc,2020.2.10,Win32,60,,,,,,,,,,0,,,,,,,,,,,,,,,,,,,,,,,,,,,,,,,,0,1,1.552,0,11,11,11,1,0,pretantas,REAL,FAKE,,,,,,,,,,,,,,,,,,,,,,,,,,,,,,,
,,,,,,,60498abf0459d95ae80f42ac,605b45a4d25f287719a41696,605b98643d3fca33f2ad43be,Costa Rica,Northeast,NA,no,2021-03-24_21h02.08.924,empathy_intonation_perc,2020.2.10,Win32,60,,,,,,,,,,0,,,,,,,,,,,,,,,,,,,,,,,,,,,,,,,,,,,,,,,,18,arsa,,,1,0,1.352,0,0,0,17,1,REAL,FAKE,,,,,,,,,,,,,,,,,,,,,
,,,,,,,60498abf0459d95ae80f42ac,605b45a4d25f287719a41696,605b98643d3fca33f2ad43be,Costa Rica,Northeast,NA,no,2021-03-24_21h02.08.924,empathy_intonation_perc,2020.2.10,Win32,60,,,,,,,,,,0,,,,,,,,,,,,,,,,,,,,,,,,,,,,,,,,,,,,,,,,29,decar,,,1,0,1.139,0,1,1,28,1,REAL,FAKE,,,,,,,,,,,,,,,,,,,,,
,,,,,,,60498abf0459d95ae80f42ac,605b45a4d25f287719a41696,605b98643d3fca33f2ad43be,Costa Rica,Northeast,NA,no,2021-03-24_21h02.08.924,empathy_intonation_perc,2020.2.10,Win32,60,,,,,,,,,,1,,,,,,,,,,,,,,,,,,,,,,,,,,,,,,,,,,,,,,,,12,asesinato,,,1,1,1.464,0,2,2,11,1,REAL,FAKE,,,,,,,,,,,,,,,,,,,,,
,,,,,,,60498abf0459d95ae80f42ac,605b45a4d25f287719a41696,605b98643d3fca33f2ad43be,Costa Rica,Northeast,NA,no,2021-03-24_21h02.08.924,empathy_intonation_perc,2020.2.10,Win32,60,,,,,,,,,,1,,,,,,,,,,,,,,,,,,,,,,,,,,,,,,,,,,,,,,,,83,guante,,,0,0,0.896,0,3,3,82,1,REAL,FAKE,,,,,,,,,,,,,,,,,,,,,
,,,,,,,60498abf0459d95ae80f42ac,605b45a4d25f287719a41696,605b98643d3fca33f2ad43be,Costa Rica,Northeast,NA,no,2021-03-24_21h02.08.924,empathy_intonation_perc,2020.2.10,Win32,60,,,,,,,,,,1,,,,,,,,,,,,,,,,,,,,,,,,,,,,,,,,,,,,,,,,48,ladrn,,,1,1,1.153,0,4,4,47,1,REAL,FAKE,,,,,,,,,,,,,,,,,,,,,
,,,,,,,60498abf0459d95ae80f42ac,605b45a4d25f287719a41696,605b98643d3fca33f2ad43be,Costa Rica,Northeast,NA,no,2021-03-24_21h02.08.924,empathy_intonation_perc,2020.2.10,Win32,60,,,,,,,,,,1,,,,,,,,,,,,,,,,,,,,,,,,,,,,,,,,,,,,,,,,44,cuchara,,,1,1,0.852,0,5,5,43,1,REAL,FAKE,,,,,,,,,,,,,,,,,,,,,
,,,,,,,60498abf0459d95ae80f42ac,605b45a4d25f287719a41696,605b98643d3fca33f2ad43be,Costa Rica,Northeast,NA,no,2021-03-24_21h02.08.924,empathy_intonation_perc,2020.2.10,Win32,60,,,,,,,,,,0,,,,,,,,,,,,,,,,,,,,,,,,,,,,,,,,,,,,,,,,30,alardio,,,0,1,0.902,0,6,6,29,1,REAL,FAKE,,,,,,,,,,,,,,,,,,,,,
,,,,,,,60498abf0459d95ae80f42ac,605b45a4d25f287719a41696,605b98643d3fca33f2ad43be,Costa Rica,Northeast,NA,no,2021-03-24_21h02.08.924,empathy_intonation_perc,2020.2.10,Win32,60,,,,,,,,,,0,,,,,,,,,,,,,,,,,,,,,,,,,,,,,,,,,,,,,,,,82,empirador,,,1,0,0.633,0,7,7,81,1,REAL,FAKE,,,,,,,,,,,,,,,,,,,,,
,,,,,,,60498abf0459d95ae80f42ac,605b45a4d25f287719a41696,605b98643d3fca33f2ad43be,Costa Rica,Northeast,NA,no,2021-03-24_21h02.08.924,empathy_intonation_perc,2020.2.10,Win32,60,,,,,,,,,,1,,,,,,,,,,,,,,,,,,,,,,,,,,,,,,,,,,,,,,,,36,loro,,,1,1,0.727,0,8,8,35,1,REAL,FAKE,,,,,,,,,,,,,,,,,,,,,
,,,,,,,60498abf0459d95ae80f42ac,605b45a4d25f287719a41696,605b98643d3fca33f2ad43be,Costa Rica,Northeast,NA,no,2021-03-24_21h02.08.924,empathy_intonation_perc,2020.2.10,Win32,60,,,,,,,,,,1,,,,,,,,,,,,,,,,,,,,,,,,,,,,,,,,,,,,,,,,73,hervidor,,,1,1,0.793,0,9,9,72,1,REAL,FAKE,,,,,,,,,,,,,,,,,,,,,
,,,,,,,60498abf0459d95ae80f42ac,605b45a4d25f287719a41696,605b98643d3fca33f2ad43be,Costa Rica,Northeast,NA,no,2021-03-24_21h02.08.924,empathy_intonation_perc,2020.2.10,Win32,60,,,,,,,,,,1,,,,,,,,,,,,,,,,,,,,,,,,,,,,,,,,,,,,,,,,26,secuestro,,,0,0,0.952,0,10,10,25,1,REAL,FAKE,,,,,,,,,,,,,,,,,,,,,
,,,,,,,60498abf0459d95ae80f42ac,605b45a4d25f287719a41696,605b98643d3fca33f2ad43be,Costa Rica,Northeast,NA,no,2021-03-24_21h02.08.924,empathy_intonation_perc,2020.2.10,Win32,60,,,,,,,,,,1,,,,,,,,,,,,,,,,,,,,,,,,,,,,,,,,,,,,,,,,51,candado,,,1,1,0.688,0,11,11,50,1,REAL,FAKE,,,,,,,,,,,,,,,,,,,,,
,,,,,,,60498abf0459d95ae80f42ac,605b45a4d25f287719a41696,605b98643d3fca33f2ad43be,Costa Rica,Northeast,NA,no,2021-03-24_21h02.08.924,empathy_intonation_perc,2020.2.10,Win32,60,,,,,,,,,,0,,,,,,,,,,,,,,,,,,,,,,,,,,,,,,,,,,,,,,,,16,abracer,,,1,0,0.841,0,12,12,15,1,REAL,FAKE,,,,,,,,,,,,,,,,,,,,,
,,,,,,,60498abf0459d95ae80f42ac,605b45a4d25f287719a41696,605b98643d3fca33f2ad43be,Costa Rica,Northeast,NA,no,2021-03-24_21h02.08.924,empathy_intonation_perc,2020.2.10,Win32,60,,,,,,,,,,1,,,,,,,,,,,,,,,,,,,,,,,,,,,,,,,,,,,,,,,,28,merodear,,,0,0,0.787,0,13,13,27,1,REAL,FAKE,,,,,,,,,,,,,,,,,,,,,
,,,,,,,60498abf0459d95ae80f42ac,605b45a4d25f287719a41696,605b98643d3fca33f2ad43be,Costa Rica,Northeast,NA,no,2021-03-24_21h02.08.924,empathy_intonation_perc,2020.2.10,Win32,60,,,,,,,,,,0,,,,,,,,,,,,,,,,,,,,,,,,,,,,,,,,,,,,,,,,72,pemicin,,,1,0,0.864,0,14,14,71,1,REAL,FAKE,,,,,,,,,,,,,,,,,,,,,
,,,,,,,60498abf0459d95ae80f42ac,605b45a4d25f287719a41696,605b98643d3fca33f2ad43be,Costa Rica,Northeast,NA,no,2021-03-24_21h02.08.924,empathy_intonation_perc,2020.2.10,Win32,60,,,,,,,,,,1,,,,,,,,,,,,,,,,,,,,,,,,,,,,,,,,,,,,,,,,46,martillo,,,1,1,0.849,0,15,15,45,1,REAL,FAKE,,,,,,,,,,,,,,,,,,,,,
,,,,,,,60498abf0459d95ae80f42ac,605b45a4d25f287719a41696,605b98643d3fca33f2ad43be,Costa Rica,Northeast,NA,no,2021-03-24_21h02.08.924,empathy_intonation_perc,2020.2.10,Win32,60,,,,,,,,,,1,,,,,,,,,,,,,,,,,,,,,,,,,,,,,,,,,,,,,,,,81,pozo,,,1,1,0.936,0,16,16,80,1,REAL,FAKE,,,,,,,,,,,,,,,,,,,,,
,,,,,,,60498abf0459d95ae80f42ac,605b45a4d25f287719a41696,605b98643d3fca33f2ad43be,Costa Rica,Northeast,NA,no,2021-03-24_21h02.08.924,empathy_intonation_perc,2020.2.10,Win32,60,,,,,,,,,,0,,,,,,,,,,,,,,,,,,,,,,,,,,,,,,,,,,,,,,,,4,batilln,,,0,1,0.883,0,17,17,3,1,REAL,FAKE,,,,,,,,,,,,,,,,,,,,,
,,,,,,,60498abf0459d95ae80f42ac,605b45a4d25f287719a41696,605b98643d3fca33f2ad43be,Costa Rica,Northeast,NA,no,2021-03-24_21h02.08.924,empathy_intonation_perc,2020.2.10,Win32,60,,,,,,,,,,1,,,,,,,,,,,,,,,,,,,,,,,,,,,,,,,,,,,,,,,,22,lacayo,,,1,1,0.583,0,18,18,21,1,REAL,FAKE,,,,,,,,,,,,,,,,,,,,,
,,,,,,,60498abf0459d95ae80f42ac,605b45a4d25f287719a41696,605b98643d3fca33f2ad43be,Costa Rica,Northeast,NA,no,2021-03-24_21h02.08.924,empathy_intonation_perc,2020.2.10,Win32,60,,,,,,,,,,0,,,,,,,,,,,,,,,,,,,,,,,,,,,,,,,,,,,,,,,,63,esposante,,,1,0,0.869,0,19,19,62,1,REAL,FAKE,,,,,,,,,,,,,,,,,,,,,
,,,,,,,60498abf0459d95ae80f42ac,605b45a4d25f287719a41696,605b98643d3fca33f2ad43be,Costa Rica,Northeast,NA,no,2021-03-24_21h02.08.924,empathy_intonation_perc,2020.2.10,Win32,60,,,,,,,,,,0,,,,,,,,,,,,,,,,,,,,,,,,,,,,,,,,,,,,,,,,23,lampera,,,1,0,0.671,0,20,20,22,1,REAL,FAKE,,,,,,,,,,,,,,,,,,,,,
,,,,,,,60498abf0459d95ae80f42ac,605b45a4d25f287719a41696,605b98643d3fca33f2ad43be,Costa Rica,Northeast,NA,no,2021-03-24_21h02.08.924,empathy_intonation_perc,2020.2.10,Win32,60,,,,,,,,,,0,,,,,,,,,,,,,,,,,,,,,,,,,,,,,,,,,,,,,,,,1,terzo,,,0,1,0.537,0,21,21,0,1,REAL,FAKE,,,,,,,,,,,,,,,,,,,,,
,,,,,,,60498abf0459d95ae80f42ac,605b45a4d25f287719a41696,605b98643d3fca33f2ad43be,Costa Rica,Northeast,NA,no,2021-03-24_21h02.08.924,empathy_intonation_perc,2020.2.10,Win32,60,,,,,,,,,,0,,,,,,,,,,,,,,,,,,,,,,,,,,,,,,,,,,,,,,,,79,tropaje,,,0,1,0.886,0,22,22,78,1,REAL,FAKE,,,,,,,,,,,,,,,,,,,,,
,,,,,,,60498abf0459d95ae80f42ac,605b45a4d25f287719a41696,605b98643d3fca33f2ad43be,Costa Rica,Northeast,NA,no,2021-03-24_21h02.08.924,empathy_intonation_perc,2020.2.10,Win32,60,,,,,,,,,,1,,,,,,,,,,,,,,,,,,,,,,,,,,,,,,,,,,,,,,,,61,seda,,,0,0,0.849,0,23,23,60,1,REAL,FAKE,,,,,,,,,,,,,,,,,,,,,
,,,,,,,60498abf0459d95ae80f42ac,605b45a4d25f287719a41696,605b98643d3fca33f2ad43be,Costa Rica,Northeast,NA,no,2021-03-24_21h02.08.924,empathy_intonation_perc,2020.2.10,Win32,60,,,,,,,,,,1,,,,,,,,,,,,,,,,,,,,,,,,,,,,,,,,,,,,,,,,49,ganar,,,0,0,0.745,0,24,24,48,1,REAL,FAKE,,,,,,,,,,,,,,,,,,,,,
,,,,,,,60498abf0459d95ae80f42ac,605b45a4d25f287719a41696,605b98643d3fca33f2ad43be,Costa Rica,Northeast,NA,no,2021-03-24_21h02.08.924,empathy_intonation_perc,2020.2.10,Win32,60,,,,,,,,,,1,,,,,,,,,,,,,,,,,,,,,,,,,,,,,,,,,,,,,,,,88,acantilado,,,1,1,0.682,0,25,25,87,1,REAL,FAKE,,,,,,,,,,,,,,,,,,,,,
,,,,,,,60498abf0459d95ae80f42ac,605b45a4d25f287719a41696,605b98643d3fca33f2ad43be,Costa Rica,Northeast,NA,no,2021-03-24_21h02.08.924,empathy_intonation_perc,2020.2.10,Win32,60,,,,,,,,,,1,,,,,,,,,,,,,,,,,,,,,,,,,,,,,,,,,,,,,,,,80,hormiga,,,1,1,0.793,0,26,26,79,1,REAL,FAKE,,,,,,,,,,,,,,,,,,,,,
,,,,,,,60498abf0459d95ae80f42ac,605b45a4d25f287719a41696,605b98643d3fca33f2ad43be,Costa Rica,Northeast,NA,no,2021-03-24_21h02.08.924,empathy_intonation_perc,2020.2.10,Win32,60,,,,,,,,,,1,,,,,,,,,,,,,,,,,,,,,,,,,,,,,,,,,,,,,,,,38,estornudar,,,1,1,0.718,0,27,27,37,1,REAL,FAKE,,,,,,,,,,,,,,,,,,,,,
,,,,,,,60498abf0459d95ae80f42ac,605b45a4d25f287719a41696,605b98643d3fca33f2ad43be,Costa Rica,Northeast,NA,no,2021-03-24_21h02.08.924,empathy_intonation_perc,2020.2.10,Win32,60,,,,,,,,,,1,,,,,,,,,,,,,,,,,,,,,,,,,,,,,,,,,,,,,,,,25,bisagra,,,0,0,0.484,0,28,28,24,1,REAL,FAKE,,,,,,,,,,,,,,,,,,,,,
,,,,,,,60498abf0459d95ae80f42ac,605b45a4d25f287719a41696,605b98643d3fca33f2ad43be,Costa Rica,Northeast,NA,no,2021-03-24_21h02.08.924,empathy_intonation_perc,2020.2.10,Win32,60,,,,,,,,,,1,,,,,,,,,,,,,,,,,,,,,,,,,,,,,,,,,,,,,,,,40,alfombra,,,0,0,1.153,0,29,29,39,1,REAL,FAKE,,,,,,,,,,,,,,,,,,,,,
,,,,,,,60498abf0459d95ae80f42ac,605b45a4d25f287719a41696,605b98643d3fca33f2ad43be,Costa Rica,Northeast,NA,no,2021-03-24_21h02.08.924,empathy_intonation_perc,2020.2.10,Win32,60,,,,,,,,,,1,,,,,,,,,,,,,,,,,,,,,,,,,,,,,,,,,,,,,,,,62,flaco,,,0,0,0.884,0,30,30,61,1,REAL,FAKE,,,,,,,,,,,,,,,,,,,,,
,,,,,,,60498abf0459d95ae80f42ac,605b45a4d25f287719a41696,605b98643d3fca33f2ad43be,Costa Rica,Northeast,NA,no,2021-03-24_21h02.08.924,empathy_intonation_perc,2020.2.10,Win32,60,,,,,,,,,,1,,,,,,,,,,,,,,,,,,,,,,,,,,,,,,,,,,,,,,,,24,ltigo,,,1,1,0.63,0,31,31,23,1,REAL,FAKE,,,,,,,,,,,,,,,,,,,,,
,,,,,,,60498abf0459d95ae80f42ac,605b45a4d25f287719a41696,605b98643d3fca33f2ad43be,Costa Rica,Northeast,NA,no,2021-03-24_21h02.08.924,empathy_intonation_perc,2020.2.10,Win32,60,,,,,,,,,,0,,,,,,,,,,,,,,,,,,,,,,,,,,,,,,,,,,,,,,,,50,flamida,,,1,0,0.733,0,32,32,49,1,REAL,FAKE,,,,,,,,,,,,,,,,,,,,,
,,,,,,,60498abf0459d95ae80f42ac,605b45a4d25f287719a41696,605b98643d3fca33f2ad43be,Costa Rica,Northeast,NA,no,2021-03-24_21h02.08.924,empathy_intonation_perc,2020.2.10,Win32,60,,,,,,,,,,1,,,,,,,,,,,,,,,,,,,,,,,,,,,,,,,,,,,,,,,,68,alegre,,,1,1,0.694,0,33,33,67,1,REAL,FAKE,,,,,,,,,,,,,,,,,,,,,
,,,,,,,60498abf0459d95ae80f42ac,605b45a4d25f287719a41696,605b98643d3fca33f2ad43be,Costa Rica,Northeast,NA,no,2021-03-24_21h02.08.924,empathy_intonation_perc,2020.2.10,Win32,60,,,,,,,,,,1,,,,,,,,,,,,,,,,,,,,,,,,,,,,,,,,,,,,,,,,15,regar,,,0,0,0.681,0,34,34,14,1,REAL,FAKE,,,,,,,,,,,,,,,,,,,,,
,,,,,,,60498abf0459d95ae80f42ac,605b45a4d25f287719a41696,605b98643d3fca33f2ad43be,Costa Rica,Northeast,NA,no,2021-03-24_21h02.08.924,empathy_intonation_perc,2020.2.10,Win32,60,,,,,,,,,,1,,,,,,,,,,,,,,,,,,,,,,,,,,,,,,,,,,,,,,,,77,tiburn,,,1,1,0.805,0,35,35,76,1,REAL,FAKE,,,,,,,,,,,,,,,,,,,,,
,,,,,,,60498abf0459d95ae80f42ac,605b45a4d25f287719a41696,605b98643d3fca33f2ad43be,Costa Rica,Northeast,NA,no,2021-03-24_21h02.08.924,empathy_intonation_perc,2020.2.10,Win32,60,,,,,,,,,,1,,,,,,,,,,,,,,,,,,,,,,,,,,,,,,,,,,,,,,,,65,bizcocho,,,0,0,0.904,0,36,36,64,1,REAL,FAKE,,,,,,,,,,,,,,,,,,,,,
,,,,,,,60498abf0459d95ae80f42ac,605b45a4d25f287719a41696,605b98643d3fca33f2ad43be,Costa Rica,Northeast,NA,no,2021-03-24_21h02.08.924,empathy_intonation_perc,2020.2.10,Win32,60,,,,,,,,,,1,,,,,,,,,,,,,,,,,,,,,,,,,,,,,,,,,,,,,,,,5,zapato,,,0,0,0.885,0,37,37,4,1,REAL,FAKE,,,,,,,,,,,,,,,,,,,,,
,,,,,,,60498abf0459d95ae80f42ac,605b45a4d25f287719a41696,605b98643d3fca33f2ad43be,Costa Rica,Northeast,NA,no,2021-03-24_21h02.08.924,empathy_intonation_perc,2020.2.10,Win32,60,,,,,,,,,,0,,,,,,,,,,,,,,,,,,,,,,,,,,,,,,,,,,,,,,,,87,grodo,,,1,0,0.586,0,38,38,86,1,REAL,FAKE,,,,,,,,,,,,,,,,,,,,,
,,,,,,,60498abf0459d95ae80f42ac,605b45a4d25f287719a41696,605b98643d3fca33f2ad43be,Costa Rica,Northeast,NA,no,2021-03-24_21h02.08.924,empathy_intonation_perc,2020.2.10,Win32,60,,,,,,,,,,0,,,,,,,,,,,,,,,,,,,,,,,,,,,,,,,,,,,,,,,,10,antar,,,1,0,0.962,0,39,39,9,1,REAL,FAKE,,,,,,,,,,,,,,,,,,,,,
,,,,,,,60498abf0459d95ae80f42ac,605b45a4d25f287719a41696,605b98643d3fca33f2ad43be,Costa Rica,Northeast,NA,no,2021-03-24_21h02.08.924,empathy_intonation_perc,2020.2.10,Win32,60,,,,,,,,,,1,,,,,,,,,,,,,,,,,,,,,,,,,,,,,,,,,,,,,,,,3,pulmones,,,1,1,0.98,0,40,40,2,1,REAL,FAKE,,,,,,,,,,,,,,,,,,,,,
,,,,,,,60498abf0459d95ae80f42ac,605b45a4d25f287719a41696,605b98643d3fca33f2ad43be,Costa Rica,Northeast,NA,no,2021-03-24_21h02.08.924,empathy_intonation_perc,2020.2.10,Win32,60,,,,,,,,,,1,,,,,,,,,,,,,,,,,,,,,,,,,,,,,,,,,,,,,,,,64,orgulloso,,,0,0,0.588,0,41,41,63,1,REAL,FAKE,,,,,,,,,,,,,,,,,,,,,
,,,,,,,60498abf0459d95ae80f42ac,605b45a4d25f287719a41696,605b98643d3fca33f2ad43be,Costa Rica,Northeast,NA,no,2021-03-24_21h02.08.924,empathy_intonation_perc,2020.2.10,Win32,60,,,,,,,,,,0,,,,,,,,,,,,,,,,,,,,,,,,,,,,,,,,,,,,,,,,17,floroso,,,0,1,0.988,0,42,42,16,1,REAL,FAKE,,,,,,,,,,,,,,,,,,,,,
,,,,,,,60498abf0459d95ae80f42ac,605b45a4d25f287719a41696,605b98643d3fca33f2ad43be,Costa Rica,Northeast,NA,no,2021-03-24_21h02.08.924,empathy_intonation_perc,2020.2.10,Win32,60,,,,,,,,,,1,,,,,,,,,,,,,,,,,,,,,,,,,,,,,,,,,,,,,,,,55,nevar,,,1,1,0.589,0,43,43,54,1,REAL,FAKE,,,,,,,,,,,,,,,,,,,,,
,,,,,,,60498abf0459d95ae80f42ac,605b45a4d25f287719a41696,605b98643d3fca33f2ad43be,Costa Rica,Northeast,NA,no,2021-03-24_21h02.08.924,empathy_intonation_perc,2020.2.10,Win32,60,,,,,,,,,,1,,,,,,,,,,,,,,,,,,,,,,,,,,,,,,,,,,,,,,,,89,prisa,,,1,1,0.787,0,44,44,88,1,REAL,FAKE,,,,,,,,,,,,,,,,,,,,,
,,,,,,,60498abf0459d95ae80f42ac,605b45a4d25f287719a41696,605b98643d3fca33f2ad43be,Costa Rica,Northeast,NA,no,2021-03-24_21h02.08.924,empathy_intonation_perc,2020.2.10,Win32,60,,,,,,,,,,0,,,,,,,,,,,,,,,,,,,,,,,,,,,,,,,,,,,,,,,,47,cartinar,,,1,0,0.648,0,45,45,46,1,REAL,FAKE,,,,,,,,,,,,,,,,,,,,,
,,,,,,,60498abf0459d95ae80f42ac,605b45a4d25f287719a41696,605b98643d3fca33f2ad43be,Costa Rica,Northeast,NA,no,2021-03-24_21h02.08.924,empathy_intonation_perc,2020.2.10,Win32,60,,,,,,,,,,1,,,,,,,,,,,,,,,,,,,,,,,,,,,,,,,,,,,,,,,,59,besar,,,0,0,0.592,0,46,46,58,1,REAL,FAKE,,,,,,,,,,,,,,,,,,,,,
,,,,,,,60498abf0459d95ae80f42ac,605b45a4d25f287719a41696,605b98643d3fca33f2ad43be,Costa Rica,Northeast,NA,no,2021-03-24_21h02.08.924,empathy_intonation_perc,2020.2.10,Win32,60,,,,,,,,,,1,,,,,,,,,,,,,,,,,,,,,,,,,,,,,,,,,,,,,,,,14,yunque,,,1,1,1.035,0,47,47,13,1,REAL,FAKE,,,,,,,,,,,,,,,,,,,,,
,,,,,,,60498abf0459d95ae80f42ac,605b45a4d25f287719a41696,605b98643d3fca33f2ad43be,Costa Rica,Northeast,NA,no,2021-03-24_21h02.08.924,empathy_intonation_perc,2020.2.10,Win32,60,,,,,,,,,,0,,,,,,,,,,,,,,,,,,,,,,,,,,,,,,,,,,,,,,,,42,cadallo,,,1,0,0.839,0,48,48,41,1,REAL,FAKE,,,,,,,,,,,,,,,,,,,,,
,,,,,,,60498abf0459d95ae80f42ac,605b45a4d25f287719a41696,605b98643d3fca33f2ad43be,Costa Rica,Northeast,NA,no,2021-03-24_21h02.08.924,empathy_intonation_perc,2020.2.10,Win32,60,,,,,,,,,,0,,,,,,,,,,,,,,,,,,,,,,,,,,,,,,,,,,,,,,,,74,cintro,,,1,0,0.534,0,49,49,73,1,REAL,FAKE,,,,,,,,,,,,,,,,,,,,,
,,,,,,,60498abf0459d95ae80f42ac,605b45a4d25f287719a41696,605b98643d3fca33f2ad43be,Costa Rica,Northeast,NA,no,2021-03-24_21h02.08.924,empathy_intonation_perc,2020.2.10,Win32,60,,,,,,,,,,1,,,,,,,,,,,,,,,,,,,,,,,,,,,,,,,,,,,,,,,,7,psimo,,,0,0,0.481,0,50,50,6,1,REAL,FAKE,,,,,,,,,,,,,,,,,,,,,
,,,,,,,60498abf0459d95ae80f42ac,605b45a4d25f287719a41696,605b98643d3fca33f2ad43be,Costa Rica,Northeast,NA,no,2021-03-24_21h02.08.924,empathy_intonation_perc,2020.2.10,Win32,60,,,,,,,,,,1,,,,,,,,,,,,,,,,,,,,,,,,,,,,,,,,,,,,,,,,6,tergiversar,,,1,1,0.637,0,51,51,5,1,REAL,FAKE,,,,,,,,,,,,,,,,,,,,,
,,,,,,,60498abf0459d95ae80f42ac,605b45a4d25f287719a41696,605b98643d3fca33f2ad43be,Costa Rica,Northeast,NA,no,2021-03-24_21h02.08.924,empathy_intonation_perc,2020.2.10,Win32,60,,,,,,,,,,1,,,,,,,,,,,,,,,,,,,,,,,,,,,,,,,,,,,,,,,,76,atar,,,0,0,0.417,0,52,52,75,1,REAL,FAKE,,,,,,,,,,,,,,,,,,,,,
,,,,,,,60498abf0459d95ae80f42ac,605b45a4d25f287719a41696,605b98643d3fca33f2ad43be,Costa Rica,Northeast,NA,no,2021-03-24_21h02.08.924,empathy_intonation_perc,2020.2.10,Win32,60,,,,,,,,,,1,,,,,,,,,,,,,,,,,,,,,,,,,,,,,,,,,,,,,,,,31,pandilla,,,1,1,0.502,0,53,53,30,1,REAL,FAKE,,,,,,,,,,,,,,,,,,,,,
,,,,,,,60498abf0459d95ae80f42ac,605b45a4d25f287719a41696,605b98643d3fca33f2ad43be,Costa Rica,Northeast,NA,no,2021-03-24_21h02.08.924,empathy_intonation_perc,2020.2.10,Win32,60,,,,,,,,,,1,,,,,,,,,,,,,,,,,,,,,,,,,,,,,,,,,,,,,,,,2,pellizcar,,,0,0,0.481,0,54,54,1,1,REAL,FAKE,,,,,,,,,,,,,,,,,,,,,
,,,,,,,60498abf0459d95ae80f42ac,605b45a4d25f287719a41696,605b98643d3fca33f2ad43be,Costa Rica,Northeast,NA,no,2021-03-24_21h02.08.924,empathy_intonation_perc,2020.2.10,Win32,60,,,,,,,,,,0,,,,,,,,,,,,,,,,,,,,,,,,,,,,,,,,,,,,,,,,35,rompido,,,1,0,0.499,0,55,55,34,1,REAL,FAKE,,,,,,,,,,,,,,,,,,,,,
,,,,,,,60498abf0459d95ae80f42ac,605b45a4d25f287719a41696,605b98643d3fca33f2ad43be,Costa Rica,Northeast,NA,no,2021-03-24_21h02.08.924,empathy_intonation_perc,2020.2.10,Win32,60,,,,,,,,,,1,,,,,,,,,,,,,,,,,,,,,,,,,,,,,,,,,,,,,,,,11,cenefa,,,0,0,0.434,0,56,56,10,1,REAL,FAKE,,,,,,,,,,,,,,,,,,,,,
,,,,,,,60498abf0459d95ae80f42ac,605b45a4d25f287719a41696,605b98643d3fca33f2ad43be,Costa Rica,Northeast,NA,no,2021-03-24_21h02.08.924,empathy_intonation_perc,2020.2.10,Win32,60,,,,,,,,,,1,,,,,,,,,,,,,,,,,,,,,,,,,,,,,,,,,,,,,,,,9,hacha,,,1,1,0.435,0,57,57,8,1,REAL,FAKE,,,,,,,,,,,,,,,,,,,,,
,,,,,,,60498abf0459d95ae80f42ac,605b45a4d25f287719a41696,605b98643d3fca33f2ad43be,Costa Rica,Northeast,NA,no,2021-03-24_21h02.08.924,empathy_intonation_perc,2020.2.10,Win32,60,,,,,,,,,,1,,,,,,,,,,,,,,,,,,,,,,,,,,,,,,,,,,,,,,,,57,tacao,,,1,1,0.488,0,58,58,56,1,REAL,FAKE,,,,,,,,,,,,,,,,,,,,,
,,,,,,,60498abf0459d95ae80f42ac,605b45a4d25f287719a41696,605b98643d3fca33f2ad43be,Costa Rica,Northeast,NA,no,2021-03-24_21h02.08.924,empathy_intonation_perc,2020.2.10,Win32,60,,,,,,,,,,1,,,,,,,,,,,,,,,,,,,,,,,,,,,,,,,,,,,,,,,,37,granuja,,,1,1,0.633,0,59,59,36,1,REAL,FAKE,,,,,,,,,,,,,,,,,,,,,
,,,,,,,60498abf0459d95ae80f42ac,605b45a4d25f287719a41696,605b98643d3fca33f2ad43be,Costa Rica,Northeast,NA,no,2021-03-24_21h02.08.924,empathy_intonation_perc,2020.2.10,Win32,60,,,,,,,,,,0,,,,,,,,,,,,,,,,,,,,,,,,,,,,,,,,,,,,,,,,32,fatacidad,,,0,1,0.594,0,60,60,31,1,REAL,FAKE,,,,,,,,,,,,,,,,,,,,,
,,,,,,,60498abf0459d95ae80f42ac,605b45a4d25f287719a41696,605b98643d3fca33f2ad43be,Costa Rica,Northeast,NA,no,2021-03-24_21h02.08.924,empathy_intonation_perc,2020.2.10,Win32,60,,,,,,,,,,1,,,,,,,,,,,,,,,,,,,,,,,,,,,,,,,,,,,,,,,,41,rebuscar,,,0,0,0.698,0,61,61,40,1,REAL,FAKE,,,,,,,,,,,,,,,,,,,,,
,,,,,,,60498abf0459d95ae80f42ac,605b45a4d25f287719a41696,605b98643d3fca33f2ad43be,Costa Rica,Northeast,NA,no,2021-03-24_21h02.08.924,empathy_intonation_perc,2020.2.10,Win32,60,,,,,,,,,,1,,,,,,,,,,,,,,,,,,,,,,,,,,,,,,,,,,,,,,,,71,polvoriento,,,0,0,0.634,0,62,62,70,1,REAL,FAKE,,,,,,,,,,,,,,,,,,,,,
,,,,,,,60498abf0459d95ae80f42ac,605b45a4d25f287719a41696,605b98643d3fca33f2ad43be,Costa Rica,Northeast,NA,no,2021-03-24_21h02.08.924,empathy_intonation_perc,2020.2.10,Win32,60,,,,,,,,,,0,,,,,,,,,,,,,,,,,,,,,,,,,,,,,,,,,,,,,,,,19,brecedad,,,0,1,0.846,0,63,63,18,1,REAL,FAKE,,,,,,,,,,,,,,,,,,,,,
,,,,,,,60498abf0459d95ae80f42ac,605b45a4d25f287719a41696,605b98643d3fca33f2ad43be,Costa Rica,Northeast,NA,no,2021-03-24_21h02.08.924,empathy_intonation_perc,2020.2.10,Win32,60,,,,,,,,,,1,,,,,,,,,,,,,,,,,,,,,,,,,,,,,,,,,,,,,,,,60,matar,,,1,1,0.484,0,64,64,59,1,REAL,FAKE,,,,,,,,,,,,,,,,,,,,,
,,,,,,,60498abf0459d95ae80f42ac,605b45a4d25f287719a41696,605b98643d3fca33f2ad43be,Costa Rica,Northeast,NA,no,2021-03-24_21h02.08.924,empathy_intonation_perc,2020.2.10,Win32,60,,,,,,,,,,0,,,,,,,,,,,,,,,,,,,,,,,,,,,,,,,,,,,,,,,,53,vegada,,,1,0,0.745,0,65,65,52,1,REAL,FAKE,,,,,,,,,,,,,,,,,,,,,
,,,,,,,60498abf0459d95ae80f42ac,605b45a4d25f287719a41696,605b98643d3fca33f2ad43be,Costa Rica,Northeast,NA,no,2021-03-24_21h02.08.924,empathy_intonation_perc,2020.2.10,Win32,60,,,,,,,,,,0,,,,,,,,,,,,,,,,,,,,,,,,,,,,,,,,,,,,,,,,66,hacido,,,1,0,0.684,0,66,66,65,1,REAL,FAKE,,,,,,,,,,,,,,,,,,,,,
,,,,,,,60498abf0459d95ae80f42ac,605b45a4d25f287719a41696,605b98643d3fca33f2ad43be,Costa Rica,Northeast,NA,no,2021-03-24_21h02.08.924,empathy_intonation_perc,2020.2.10,Win32,60,,,,,,,,,,1,,,,,,,,,,,,,,,,,,,,,,,,,,,,,,,,,,,,,,,,86,barato,,,0,0,0.37,0,67,67,85,1,REAL,FAKE,,,,,,,,,,,,,,,,,,,,,
,,,,,,,60498abf0459d95ae80f42ac,605b45a4d25f287719a41696,605b98643d3fca33f2ad43be,Costa Rica,Northeast,NA,no,2021-03-24_21h02.08.924,empathy_intonation_perc,2020.2.10,Win32,60,,,,,,,,,,1,,,,,,,,,,,,,,,,,,,,,,,,,,,,,,,,,,,,,,,,52,camisa,,,1,1,0.737,0,68,68,51,1,REAL,FAKE,,,,,,,,,,,,,,,,,,,,,
,,,,,,,60498abf0459d95ae80f42ac,605b45a4d25f287719a41696,605b98643d3fca33f2ad43be,Costa Rica,Northeast,NA,no,2021-03-24_21h02.08.924,empathy_intonation_perc,2020.2.10,Win32,60,,,,,,,,,,1,,,,,,,,,,,,,,,,,,,,,,,,,,,,,,,,,,,,,,,,69,engatusar,,,0,0,0.708,0,69,69,68,1,REAL,FAKE,,,,,,,,,,,,,,,,,,,,,
,,,,,,,60498abf0459d95ae80f42ac,605b45a4d25f287719a41696,605b98643d3fca33f2ad43be,Costa Rica,Northeast,NA,no,2021-03-24_21h02.08.924,empathy_intonation_perc,2020.2.10,Win32,60,,,,,,,,,,1,,,,,,,,,,,,,,,,,,,,,,,,,,,,,,,,,,,,,,,,90,clavel,,,1,1,0.623,0,70,70,89,1,REAL,FAKE,,,,,,,,,,,,,,,,,,,,,
,,,,,,,60498abf0459d95ae80f42ac,605b45a4d25f287719a41696,605b98643d3fca33f2ad43be,Costa Rica,Northeast,NA,no,2021-03-24_21h02.08.924,empathy_intonation_perc,2020.2.10,Win32,60,,,,,,,,,,0,,,,,,,,,,,,,,,,,,,,,,,,,,,,,,,,,,,,,,,,27,acutacin,,,1,0,0.744,0,71,71,26,1,REAL,FAKE,,,,,,,,,,,,,,,,,,,,,
,,,,,,,60498abf0459d95ae80f42ac,605b45a4d25f287719a41696,605b98643d3fca33f2ad43be,Costa Rica,Northeast,NA,no,2021-03-24_21h02.08.924,empathy_intonation_perc,2020.2.10,Win32,60,,,,,,,,,,1,,,,,,,,,,,,,,,,,,,,,,,,,,,,,,,,,,,,,,,,85,lad,,,1,1,0.84,0,72,72,84,1,REAL,FAKE,,,,,,,,,,,,,,,,,,,,,
,,,,,,,60498abf0459d95ae80f42ac,605b45a4d25f287719a41696,605b98643d3fca33f2ad43be,Costa Rica,Northeast,NA,no,2021-03-24_21h02.08.924,empathy_intonation_perc,2020.2.10,Win32,60,,,,,,,,,,1,,,,,,,,,,,,,,,,,,,,,,,,,,,,,,,,,,,,,,,,75,yacer,,,1,1,0.688,0,73,73,74,1,REAL,FAKE,,,,,,,,,,,,,,,,,,,,,
,,,,,,,60498abf0459d95ae80f42ac,605b45a4d25f287719a41696,605b98643d3fca33f2ad43be,Costa Rica,Northeast,NA,no,2021-03-24_21h02.08.924,empathy_intonation_perc,2020.2.10,Win32,60,,,,,,,,,,0,,,,,,,,,,,,,,,,,,,,,,,,,,,,,,,,,,,,,,,,84,escuto,,,0,1,0.616,0,74,74,83,1,REAL,FAKE,,,,,,,,,,,,,,,,,,,,,
,,,,,,,60498abf0459d95ae80f42ac,605b45a4d25f287719a41696,605b98643d3fca33f2ad43be,Costa Rica,Northeast,NA,no,2021-03-24_21h02.08.924,empathy_intonation_perc,2020.2.10,Win32,60,,,,,,,,,,0,,,,,,,,,,,,,,,,,,,,,,,,,,,,,,,,,,,,,,,,21,capillo,,,0,1,0.833,0,75,75,20,1,REAL,FAKE,,,,,,,,,,,,,,,,,,,,,
,,,,,,,60498abf0459d95ae80f42ac,605b45a4d25f287719a41696,605b98643d3fca33f2ad43be,Costa Rica,Northeast,NA,no,2021-03-24_21h02.08.924,empathy_intonation_perc,2020.2.10,Win32,60,,,,,,,,,,1,,,,,,,,,,,,,,,,,,,,,,,,,,,,,,,,,,,,,,,,45,jilguero,,,0,0,0.782,0,76,76,44,1,REAL,FAKE,,,,,,,,,,,,,,,,,,,,,
,,,,,,,60498abf0459d95ae80f42ac,605b45a4d25f287719a41696,605b98643d3fca33f2ad43be,Costa Rica,Northeast,NA,no,2021-03-24_21h02.08.924,empathy_intonation_perc,2020.2.10,Win32,60,,,,,,,,,,1,,,,,,,,,,,,,,,,,,,,,,,,,,,,,,,,,,,,,,,,13,helar,,,0,0,0.683,0,77,77,12,1,REAL,FAKE,,,,,,,,,,,,,,,,,,,,,
,,,,,,,60498abf0459d95ae80f42ac,605b45a4d25f287719a41696,605b98643d3fca33f2ad43be,Costa Rica,Northeast,NA,no,2021-03-24_21h02.08.924,empathy_intonation_perc,2020.2.10,Win32,60,,,,,,,,,,1,,,,,,,,,,,,,,,,,,,,,,,,,,,,,,,,,,,,,,,,67,cabello,,,0,0,0.85,0,78,78,66,1,REAL,FAKE,,,,,,,,,,,,,,,,,,,,,
,,,,,,,60498abf0459d95ae80f42ac,605b45a4d25f287719a41696,605b98643d3fca33f2ad43be,Costa Rica,Northeast,NA,no,2021-03-24_21h02.08.924,empathy_intonation_perc,2020.2.10,Win32,60,,,,,,,,,,1,,,,,,,,,,,,,,,,,,,,,,,,,,,,,,,,,,,,,,,,54,fomentar,,,0,0,0.801,0,79,79,53,1,REAL,FAKE,,,,,,,,,,,,,,,,,,,,,
,,,,,,,60498abf0459d95ae80f42ac,605b45a4d25f287719a41696,605b98643d3fca33f2ad43be,Costa Rica,Northeast,NA,no,2021-03-24_21h02.08.924,empathy_intonation_perc,2020.2.10,Win32,60,,,,,,,,,,0,,,,,,,,,,,,,,,,,,,,,,,,,,,,,,,,,,,,,,,,70,temblo,,,1,0,0.584,0,80,80,69,1,REAL,FAKE,,,,,,,,,,,,,,,,,,,,,
,,,,,,,60498abf0459d95ae80f42ac,605b45a4d25f287719a41696,605b98643d3fca33f2ad43be,Costa Rica,Northeast,NA,no,2021-03-24_21h02.08.924,empathy_intonation_perc,2020.2.10,Win32,60,,,,,,,,,,1,,,,,,,,,,,,,,,,,,,,,,,,,,,,,,,,,,,,,,,,39,torpe,,,1,1,0.685,0,81,81,38,1,REAL,FAKE,,,,,,,,,,,,,,,,,,,,,
,,,,,,,60498abf0459d95ae80f42ac,605b45a4d25f287719a41696,605b98643d3fca33f2ad43be,Costa Rica,Northeast,NA,no,2021-03-24_21h02.08.924,empathy_intonation_perc,2020.2.10,Win32,60,,,,,,,,,,1,,,,,,,,,,,,,,,,,,,,,,,,,,,,,,,,,,,,,,,,34,aviso,,,1,1,0.688,0,82,82,33,1,REAL,FAKE,,,,,,,,,,,,,,,,,,,,,
,,,,,,,60498abf0459d95ae80f42ac,605b45a4d25f287719a41696,605b98643d3fca33f2ad43be,Costa Rica,Northeast,NA,no,2021-03-24_21h02.08.924,empathy_intonation_perc,2020.2.10,Win32,60,,,,,,,,,,1,,,,,,,,,,,,,,,,,,,,,,,,,,,,,,,,,,,,,,,,78,frondoso,,,0,0,0.383,0,83,83,77,1,REAL,FAKE,,,,,,,,,,,,,,,,,,,,,
,,,,,,,60498abf0459d95ae80f42ac,605b45a4d25f287719a41696,605b98643d3fca33f2ad43be,Costa Rica,Northeast,NA,no,2021-03-24_21h02.08.924,empathy_intonation_perc,2020.2.10,Win32,60,,,,,,,,,,1,,,,,,,,,,,,,,,,,,,,,,,,,,,,,,,,,,,,,,,,20,vido,,,1,1,0.688,0,84,84,19,1,REAL,FAKE,,,,,,,,,,,,,,,,,,,,,
,,,,,,,60498abf0459d95ae80f42ac,605b45a4d25f287719a41696,605b98643d3fca33f2ad43be,Costa Rica,Northeast,NA,no,2021-03-24_21h02.08.924,empathy_intonation_perc,2020.2.10,Win32,60,,,,,,,,,,0,,,,,,,,,,,,,,,,,,,,,,,,,,,,,,,,,,,,,,,,58,plaudir,,,0,1,0.933,0,85,85,57,1,REAL,FAKE,,,,,,,,,,,,,,,,,,,,,
,,,,,,,60498abf0459d95ae80f42ac,605b45a4d25f287719a41696,605b98643d3fca33f2ad43be,Costa Rica,Northeast,NA,no,2021-03-24_21h02.08.924,empathy_intonation_perc,2020.2.10,Win32,60,,,,,,,,,,1,,,,,,,,,,,,,,,,,,,,,,,,,,,,,,,,,,,,,,,,56,musgo,,,1,1,0.749,0,86,86,55,1,REAL,FAKE,,,,,,,,,,,,,,,,,,,,,
,,,,,,,60498abf0459d95ae80f42ac,605b45a4d25f287719a41696,605b98643d3fca33f2ad43be,Costa Rica,Northeast,NA,no,2021-03-24_21h02.08.924,empathy_intonation_perc,2020.2.10,Win32,60,,,,,,,,,,1,,,,,,,,,,,,,,,,,,,,,,,,,,,,,,,,,,,,,,,,43,canela,,,0,0,0.383,0,87,87,42,1,REAL,FAKE,,,,,,,,,,,,,,,,,,,,,
,,,,,,,60498abf0459d95ae80f42ac,605b45a4d25f287719a41696,605b98643d3fca33f2ad43be,Costa Rica,Northeast,NA,no,2021-03-24_21h02.08.924,empathy_intonation_perc,2020.2.10,Win32,60,,,,,,,,,,0,,,,,,,,,,,,,,,,,,,,,,,,,,,,,,,,,,,,,,,,8,cadea,,,1,0,0.488,0,88,88,7,1,REAL,FAKE,,,,,,,,,,,,,,,,,,,,,
,,,,,,,60498abf0459d95ae80f42ac,605b45a4d25f287719a41696,605b98643d3fca33f2ad43be,Costa Rica,Northeast,NA,no,2021-03-24_21h02.08.924,empathy_intonation_perc,2020.2.10,Win32,60,,,,,,,,,,0,,,,,,,,,,,,,,,,,,,,,,,,,,,,,,,,,,,,,,,,33,pauca,,,0,1,0.534,0,89,89,32,1,REAL,FAKE,,,,,,,,,,,,,,,,,,,,,
,,,,,,,60498abf0459d95ae80f42ac,605b45a4d25f287719a41696,605b98643d3fca33f2ad43be,Costa Rica,Northeast,NA,no,2021-03-24_21h02.08.924,empathy_intonation_perc,2020.2.10,Win32,60,,,,,,,,,,,,,,,,,,,,,,,,,,,,,,,,,,,,,,,,,,,,,,,,,,,,,,,,,,,,,,,,4,1,9.294,1,0,0,0,0,0,1,,,,,,,,,,,
,,,,,,,60498abf0459d95ae80f42ac,605b45a4d25f287719a41696,605b98643d3fca33f2ad43be,Costa Rica,Northeast,NA,no,2021-03-24_21h02.08.924,empathy_intonation_perc,2020.2.10,Win32,60,,,,,,,,,,,,,,,,,,,,1,,,,,,,,,,,,,,,,,,,,,,,,,,,,,,,,,,,,,,,,,,,,,,,,,,,,,,2,0,0,0,0,1,I can easily tell if someone else wants to enter a conversation.,1,0,1,0
,,,,,,,60498abf0459d95ae80f42ac,605b45a4d25f287719a41696,605b98643d3fca33f2ad43be,Costa Rica,Northeast,NA,no,2021-03-24_21h02.08.924,empathy_intonation_perc,2020.2.10,Win32,60,,,,,,,,,,,,,,,,,,,,2,,,,,,,,,,,,,,,,,,,,,,,,,,,,,,,,,,,,,,,,,,,,,,,,,,,,,,3,0,1,1,1,1,I prefer animals to humans.,0,1,0,0
,,,,,,,60498abf0459d95ae80f42ac,605b45a4d25f287719a41696,605b98643d3fca33f2ad43be,Costa Rica,Northeast,NA,no,2021-03-24_21h02.08.924,empathy_intonation_perc,2020.2.10,Win32,60,,,,,,,,,,,,,,,,,,,,3,,,,,,,,,,,,,,,,,,,,,,,,,,,,,,,,,,,,,,,,,,,,,,,,,,,,,,3,0,2,2,2,1,I try to keep up with the current trends and fashions.,0,1,0,0
,,,,,,,60498abf0459d95ae80f42ac,605b45a4d25f287719a41696,605b98643d3fca33f2ad43be,Costa Rica,Northeast,NA,no,2021-03-24_21h02.08.924,empathy_intonation_perc,2020.2.10,Win32,60,,,,,,,,,,,,,,,,,,,,4,,,,,,,,,,,,,,,,,,,,,,,,,,,,,,,,,,,,,,,,,,,,,,,,,,,,,,2,0,3,3,3,1,"I find it difficult to explain to others things that I understand easily, 
  when they dont understand it first time.",1,0,0,1
,,,,,,,60498abf0459d95ae80f42ac,605b45a4d25f287719a41696,605b98643d3fca33f2ad43be,Costa Rica,Northeast,NA,no,2021-03-24_21h02.08.924,empathy_intonation_perc,2020.2.10,Win32,60,,,,,,,,,,,,,,,,,,,,5,,,,,,,,,,,,,,,,,,,,,,,,,,,,,,,,,,,,,,,,,,,,,,,,,,,,,,1,0,4,4,4,1,I dream most nights.,0,1,0,0
,,,,,,,60498abf0459d95ae80f42ac,605b45a4d25f287719a41696,605b98643d3fca33f2ad43be,Costa Rica,Northeast,NA,no,2021-03-24_21h02.08.924,empathy_intonation_perc,2020.2.10,Win32,60,,,,,,,,,,,,,,,,,,,,6,,,,,,,,,,,,,,,,,,,,,,,,,,,,,,,,,,,,,,,,,,,,,,,,,,,,,,1,0,5,5,5,1,I really enjoy caring for other people.,1,0,1,0
,,,,,,,60498abf0459d95ae80f42ac,605b45a4d25f287719a41696,605b98643d3fca33f2ad43be,Costa Rica,Northeast,NA,no,2021-03-24_21h02.08.924,empathy_intonation_perc,2020.2.10,Win32,60,,,,,,,,,,,,,,,,,,,,7,,,,,,,,,,,,,,,,,,,,,,,,,,,,,,,,,,,,,,,,,,,,,,,,,,,,,,1,0,6,6,6,1,I try to solve my own problems rather than discussing them with others.,0,1,0,0
,,,,,,,60498abf0459d95ae80f42ac,605b45a4d25f287719a41696,605b98643d3fca33f2ad43be,Costa Rica,Northeast,NA,no,2021-03-24_21h02.08.924,empathy_intonation_perc,2020.2.10,Win32,60,,,,,,,,,,,,,,,,,,,,8,,,,,,,,,,,,,,,,,,,,,,,,,,,,,,,,,,,,,,,,,,,,,,,,,,,,,,3,0,7,7,7,1,I find it hard to know what to do in a social situation.,1,0,0,1
,,,,,,,60498abf0459d95ae80f42ac,605b45a4d25f287719a41696,605b98643d3fca33f2ad43be,Costa Rica,Northeast,NA,no,2021-03-24_21h02.08.924,empathy_intonation_perc,2020.2.10,Win32,60,,,,,,,,,,,,,,,,,,,,9,,,,,,,,,,,,,,,,,,,,,,,,,,,,,,,,,,,,,,,,,,,,,,,,,,,,,,2,0,8,8,8,1,I am at my best first thing in the morning.,0,1,0,0
,,,,,,,60498abf0459d95ae80f42ac,605b45a4d25f287719a41696,605b98643d3fca33f2ad43be,Costa Rica,Northeast,NA,no,2021-03-24_21h02.08.924,empathy_intonation_perc,2020.2.10,Win32,60,,,,,,,,,,,,,,,,,,,,10,,,,,,,,,,,,,,,,,,,,,,,,,,,,,,,,,,,,,,,,,,,,,,,,,,,,,,2,0,9,9,9,1,"People often tell me that I went too far in driving my point home in a 
  discussion.",1,0,0,1
,,,,,,,60498abf0459d95ae80f42ac,605b45a4d25f287719a41696,605b98643d3fca33f2ad43be,Costa Rica,Northeast,NA,no,2021-03-24_21h02.08.924,empathy_intonation_perc,2020.2.10,Win32,60,,,,,,,,,,,,,,,,,,,,11,,,,,,,,,,,,,,,,,,,,,,,,,,,,,,,,,,,,,,,,,,,,,,,,,,,,,,3,0,10,10,10,1,It doesnt bother me too much if I am late meeting a friend.,1,0,0,1
,,,,,,,60498abf0459d95ae80f42ac,605b45a4d25f287719a41696,605b98643d3fca33f2ad43be,Costa Rica,Northeast,NA,no,2021-03-24_21h02.08.924,empathy_intonation_perc,2020.2.10,Win32,60,,,,,,,,,,,,,,,,,,,,12,,,,,,,,,,,,,,,,,,,,,,,,,,,,,,,,,,,,,,,,,,,,,,,,,,,,,,3,0,11,11,11,1,"Friendships and relationships are just too difficult, so I tend not to 
  bother with them.",1,0,0,1
