instructions_2afc_loop.thisRepN,instructions_2afc_loop.thisTrialN,instructions_2afc_loop.thisN,instructions_2afc_loop.thisIndex,instructions_2afc_loop.ran,instructions_text,continue_text,participant,study_id,session,I am most familiar with Spanish from...*,What part of the US are you from?*,At what age did you begin learning Spanish?*,Are you proficient in any languages other than English/Spanish?*,date,expName,psychopyVersion,OS,frameRate,key_resp_2afc_practice.keys,key_resp_2afc_practice.corr,key_resp_2afc_practice.rt,trials_2afc_practice_loop.thisRepN,trials_2afc_practice_loop.thisTrialN,trials_2afc_practice_loop.thisN,trials_2afc_practice_loop.thisIndex,trials_2afc_practice_loop.ran,path,correct_response,the_col,key_resp_2afc_trial.keys,key_resp_2afc_trial.corr,key_resp_2afc_trial.rt,trials_2afc_loop.thisRepN,trials_2afc_loop.thisTrialN,trials_2afc_loop.thisN,trials_2afc_loop.thisIndex,trials_2afc_loop.ran,item_num,andalusian,argentine,castilian,chilean,cuban,mexican,peruvian,puertorican,key_resp_ac1.keys,key_resp_ac1.corr,key_resp_ac1.rt,ac1_loop.thisRepN,ac1_loop.thisTrialN,ac1_loop.thisN,ac1_loop.thisIndex,ac1_loop.ran,instructions_lextale_loop.thisRepN,instructions_lextale_loop.thisTrialN,instructions_lextale_loop.thisN,instructions_lextale_loop.thisIndex,instructions_lextale_loop.ran,key_resp_lextale_practice.keys,key_resp_lextale_practice.corr,key_resp_lextale_practice.rt,trials_lextale_practice_loop.thisRepN,trials_lextale_practice_loop.thisTrialN,trials_lextale_practice_loop.thisN,trials_lextale_practice_loop.thisIndex,trials_lextale_practice_loop.ran,stim,word,prac_button_real,prac_button_false,key_resp_lextale_trial.keys,key_resp_lextale_trial.corr,key_resp_lextale_trial.rt,trials_lextale_loop.thisRepN,trials_lextale_loop.thisTrialN,trials_lextale_loop.thisN,trials_lextale_loop.thisIndex,trials_lextale_loop.ran,button_real,button_false,key_resp_ac2.keys,key_resp_ac2.corr,key_resp_ac2.rt,check_pass,check_fails,ac2_loop.thisRepN,ac2_loop.thisTrialN,ac2_loop.thisN,ac2_loop.thisIndex,ac2_loop.ran,slider_eq_trial.response,trials_eq_loop.thisRepN,trials_eq_loop.thisTrialN,trials_eq_loop.thisN,trials_eq_loop.thisIndex,trials_eq_loop.ran,item,is_test_item,is_distractor,is_agree_score,is_disagree_score
0,0,0,0,1,"In the following task you are going to hear a series of utterances. 

  You will decide if the utterances sound like questions or not using your keyboard.",(press the spacebar to continue),60514fe20a8ea24a26a96e85,6057c54e64b0b4e5c128b4f9,605823993aebeca996445d64,Mexico,East coast,12 or younger,no,2021-03-22_00h59.52.643,empathy_intonation_perc,2020.2.10,Win32,60,,,,,,,,,,,,,,,,,,,,,,,,,,,,,,,,,,,,,,,,,,,,,,,,,,,,,,,,,,,,,,,,,,,,,,,,,,,,,,,,,,,,
0,1,1,1,1,"If you believe the utterance is a question, type '1' (for 'yes') and if you do not 
  believe it is a question type '0' (for 'no').

  Let's practice a bit...",(press the spacebar to continue),60514fe20a8ea24a26a96e85,6057c54e64b0b4e5c128b4f9,605823993aebeca996445d64,Mexico,East coast,12 or younger,no,2021-03-22_00h59.52.643,empathy_intonation_perc,2020.2.10,Win32,60,,,,,,,,,,,,,,,,,,,,,,,,,,,,,,,,,,,,,,,,,,,,,,,,,,,,,,,,,,,,,,,,,,,,,,,,,,,,,,,,,,,,
,,,,,,,60514fe20a8ea24a26a96e85,6057c54e64b0b4e5c128b4f9,605823993aebeca996445d64,Mexico,East coast,12 or younger,no,2021-03-22_00h59.52.643,empathy_intonation_perc,2020.2.10,Win32,60,1,1,3.82566,0,0,0,1,1,./stim/wavs/argentine_question_filler_Mi-vecino-habla-mucho.wav,1,,,,,,,,,,,,,,,,,,,,,,,,,,,,,,,,,,,,,,,,,,,,,,,,,,,,,,,,,,,,,,,,,,,,,,,,,,
,,,,,,,60514fe20a8ea24a26a96e85,6057c54e64b0b4e5c128b4f9,605823993aebeca996445d64,Mexico,East coast,12 or younger,no,2021-03-22_00h59.52.643,empathy_intonation_perc,2020.2.10,Win32,60,1,1,2.892685,0,1,1,0,1,./stim/wavs/castilian_question_filler_Mi-esposo-conoce-al-chico.wav,1,,,,,,,,,,,,,,,,,,,,,,,,,,,,,,,,,,,,,,,,,,,,,,,,,,,,,,,,,,,,,,,,,,,,,,,,,,
,,,,,,,60514fe20a8ea24a26a96e85,6057c54e64b0b4e5c128b4f9,605823993aebeca996445d64,Mexico,East coast,12 or younger,no,2021-03-22_00h59.52.643,empathy_intonation_perc,2020.2.10,Win32,60,0,1,3.371715,0,2,2,6,1,./stim/wavs/peruvian_statement_filler_El-nino-habla-con-su-madre.wav,0,,,,,,,,,,,,,,,,,,,,,,,,,,,,,,,,,,,,,,,,,,,,,,,,,,,,,,,,,,,,,,,,,,,,,,,,,,
,,,,,,,60514fe20a8ea24a26a96e85,6057c54e64b0b4e5c128b4f9,605823993aebeca996445d64,Mexico,East coast,12 or younger,no,2021-03-22_00h59.52.643,empathy_intonation_perc,2020.2.10,Win32,60,0,1,1.986635,0,3,3,5,1,./stim/wavs/andalusian_statement_filler_Alberto-nunca-se-afeita.wav,0,,,,,,,,,,,,,,,,,,,,,,,,,,,,,,,,,,,,,,,,,,,,,,,,,,,,,,,,,,,,,,,,,,,,,,,,,,
,,,,,,,60514fe20a8ea24a26a96e85,6057c54e64b0b4e5c128b4f9,605823993aebeca996445d64,Mexico,East coast,12 or younger,no,2021-03-22_00h59.52.643,empathy_intonation_perc,2020.2.10,Win32,60,0,1,1.79291,0,4,4,7,1,./stim/wavs/puertorican_statement_filler_La-nina-pinta-con-su-amiga.wav,0,,,,,,,,,,,,,,,,,,,,,,,,,,,,,,,,,,,,,,,,,,,,,,,,,,,,,,,,,,,,,,,,,,,,,,,,,,
,,,,,,,60514fe20a8ea24a26a96e85,6057c54e64b0b4e5c128b4f9,605823993aebeca996445d64,Mexico,East coast,12 or younger,no,2021-03-22_00h59.52.643,empathy_intonation_perc,2020.2.10,Win32,60,0,0,1.719545,0,5,5,2,1,./stim/wavs/chilean_question_filler_Mi-padre-cantaba-bien.wav,1,,,,,,,,,,,,,,,,,,,,,,,,,,,,,,,,,,,,,,,,,,,,,,,,,,,,,,,,,,,,,,,,,,,,,,,,,,
,,,,,,,60514fe20a8ea24a26a96e85,6057c54e64b0b4e5c128b4f9,605823993aebeca996445d64,Mexico,East coast,12 or younger,no,2021-03-22_00h59.52.643,empathy_intonation_perc,2020.2.10,Win32,60,0,1,1.638875,0,6,6,4,1,./stim/wavs/cuban_statement_filler_Cocinabas-por-la-noche.wav,0,,,,,,,,,,,,,,,,,,,,,,,,,,,,,,,,,,,,,,,,,,,,,,,,,,,,,,,,,,,,,,,,,,,,,,,,,,
,,,,,,,60514fe20a8ea24a26a96e85,6057c54e64b0b4e5c128b4f9,605823993aebeca996445d64,Mexico,East coast,12 or younger,no,2021-03-22_00h59.52.643,empathy_intonation_perc,2020.2.10,Win32,60,1,1,2.22034,0,7,7,3,1,./stim/wavs/mexican_question_filler_Felipe-no-tiene-contrasena.wav,1,,,,,,,,,,,,,,,,,,,,,,,,,,,,,,,,,,,,,,,,,,,,,,,,,,,,,,,,,,,,,,,,,,,,,,,,,,
,,,,,,,60514fe20a8ea24a26a96e85,6057c54e64b0b4e5c128b4f9,605823993aebeca996445d64,Mexico,East coast,12 or younger,no,2021-03-22_00h59.52.643,empathy_intonation_perc,2020.2.10,Win32,60,,,,,,,,,,0,chilean,0,1,2.24637,0,0,0,39,1,40,./stim/wavs/andalusian_mismatch_declarative-broad-focus_Mi-tia-odia-la-lluvia.wav,./stim/wavs/argentine_mismatch_declarative-broad-focus_Mi-tia-odia-la-lluvia.wav,./stim/wavs/castilian_mismatch_declarative-broad-focus_Mi-tia-odia-la-lluvia.wav,./stim/wavs/chilean_mismatch_declarative-broad-focus_Mi-tia-odia-la-lluvia.wav,./stim/wavs/cuban_mismatch_declarative-broad-focus_Mi-tia-odia-la-lluvia.wav,./stim/wavs/mexican_mismatch_declarative-broad-focus_Mi-tia-odia-la-lluvia.wav,./stim/wavs/peruvian_mismatch_declarative-broad-focus_Mi-tia-odia-la-lluvia.wav,./stim/wavs/puertorican_mismatch_declarative-broad-focus_Mi-tia-odia-la-lluvia.wav,,,,,,,,,,,,,,,,,,,,,,,,,,,,,,,,,,,,,,,,,,,,,,,,,,,,,,,,
,,,,,,,60514fe20a8ea24a26a96e85,6057c54e64b0b4e5c128b4f9,605823993aebeca996445d64,Mexico,East coast,12 or younger,no,2021-03-22_00h59.52.643,empathy_intonation_perc,2020.2.10,Win32,60,,,,,,,,,,0,andalusian,1,0,2.945135,0,1,1,13,1,14,./stim/wavs/andalusian_match_declarative-narrow-focus_Maria-bebe-el-vino.wav,./stim/wavs/argentine_match_declarative-narrow-focus_Maria-bebe-el-vino.wav,./stim/wavs/castilian_match_declarative-narrow-focus_Maria-bebe-el-vino.wav,./stim/wavs/chilean_match_declarative-narrow-focus_Maria-bebe-el-vino.wav,./stim/wavs/cuban_match_declarative-narrow-focus_Maria-bebe-el-vino.wav,./stim/wavs/mexican_match_declarative-narrow-focus_Maria-bebe-el-vino.wav,./stim/wavs/peruvian_match_declarative-narrow-focus_Maria-bebe-el-vino.wav,./stim/wavs/puertorican_match_declarative-narrow-focus_Maria-bebe-el-vino.wav,,,,,,,,,,,,,,,,,,,,,,,,,,,,,,,,,,,,,,,,,,,,,,,,,,,,,,,,
,,,,,,,60514fe20a8ea24a26a96e85,6057c54e64b0b4e5c128b4f9,605823993aebeca996445d64,Mexico,East coast,12 or younger,no,2021-03-22_00h59.52.643,empathy_intonation_perc,2020.2.10,Win32,60,,,,,,,,,,1,chilean,0,0,3.884975,0,2,2,59,1,60,./stim/wavs/andalusian_mismatch_interrogative-total-yn_La-maestra-vive-en-Paris.wav,./stim/wavs/argentine_mismatch_interrogative-total-yn_La-maestra-vive-en-Paris.wav,./stim/wavs/castilian_mismatch_interrogative-total-yn_La-maestra-vive-en-Paris.wav,./stim/wavs/chilean_mismatch_interrogative-total-yn_La-maestra-vive-en-Paris.wav,./stim/wavs/cuban_mismatch_interrogative-total-yn_La-maestra-vive-en-Paris.wav,./stim/wavs/mexican_mismatch_interrogative-total-yn_La-maestra-vive-en-Paris.wav,./stim/wavs/peruvian_mismatch_interrogative-total-yn_La-maestra-vive-en-Paris.wav,./stim/wavs/puertorican_mismatch_interrogative-total-yn_La-maestra-vive-en-Paris.wav,,,,,,,,,,,,,,,,,,,,,,,,,,,,,,,,,,,,,,,,,,,,,,,,,,,,,,,,
,,,,,,,60514fe20a8ea24a26a96e85,6057c54e64b0b4e5c128b4f9,605823993aebeca996445d64,Mexico,East coast,12 or younger,no,2021-03-22_00h59.52.643,empathy_intonation_perc,2020.2.10,Win32,60,,,,,,,,,,1,mexican,1,1,1.81487,0,3,3,56,1,57,./stim/wavs/andalusian_mismatch_interrogative-total-yn_El-bebe-comia-muy-bien.wav,./stim/wavs/argentine_mismatch_interrogative-total-yn_El-bebe-comia-muy-bien.wav,./stim/wavs/castilian_mismatch_interrogative-total-yn_El-bebe-comia-muy-bien.wav,./stim/wavs/chilean_mismatch_interrogative-total-yn_El-bebe-comia-muy-bien.wav,./stim/wavs/cuban_mismatch_interrogative-total-yn_El-bebe-comia-muy-bien.wav,./stim/wavs/mexican_mismatch_interrogative-total-yn_El-bebe-comia-muy-bien.wav,./stim/wavs/peruvian_mismatch_interrogative-total-yn_El-bebe-comia-muy-bien.wav,./stim/wavs/puertorican_mismatch_interrogative-total-yn_El-bebe-comia-muy-bien.wav,,,,,,,,,,,,,,,,,,,,,,,,,,,,,,,,,,,,,,,,,,,,,,,,,,,,,,,,
,,,,,,,60514fe20a8ea24a26a96e85,6057c54e64b0b4e5c128b4f9,605823993aebeca996445d64,Mexico,East coast,12 or younger,no,2021-03-22_00h59.52.643,empathy_intonation_perc,2020.2.10,Win32,60,,,,,,,,,,0,argentine,0,1,1.752955,0,4,4,40,1,41,./stim/wavs/andalusian_mismatch_declarative-narrow-focus_El-bebe-comia-muy-bien.wav,./stim/wavs/argentine_mismatch_declarative-narrow-focus_El-bebe-comia-muy-bien.wav,./stim/wavs/castilian_mismatch_declarative-narrow-focus_El-bebe-comia-muy-bien.wav,./stim/wavs/chilean_mismatch_declarative-narrow-focus_El-bebe-comia-muy-bien.wav,./stim/wavs/cuban_mismatch_declarative-narrow-focus_El-bebe-comia-muy-bien.wav,./stim/wavs/mexican_mismatch_declarative-narrow-focus_El-bebe-comia-muy-bien.wav,./stim/wavs/peruvian_mismatch_declarative-narrow-focus_El-bebe-comia-muy-bien.wav,./stim/wavs/puertorican_mismatch_declarative-narrow-focus_El-bebe-comia-muy-bien.wav,,,,,,,,,,,,,,,,,,,,,,,,,,,,,,,,,,,,,,,,,,,,,,,,,,,,,,,,
,,,,,,,60514fe20a8ea24a26a96e85,6057c54e64b0b4e5c128b4f9,605823993aebeca996445d64,Mexico,East coast,12 or younger,no,2021-03-22_00h59.52.643,empathy_intonation_perc,2020.2.10,Win32,60,,,,,,,,,,1,argentine,1,1,1.730555,0,5,5,24,1,25,./stim/wavs/andalusian_match_interrogative-total-yn_Ana-lleva-el-abrigo.wav,./stim/wavs/argentine_match_interrogative-total-yn_Ana-lleva-el-abrigo.wav,./stim/wavs/castilian_match_interrogative-total-yn_Ana-lleva-el-abrigo.wav,./stim/wavs/chilean_match_interrogative-total-yn_Ana-lleva-el-abrigo.wav,./stim/wavs/cuban_match_interrogative-total-yn_Ana-lleva-el-abrigo.wav,./stim/wavs/mexican_match_interrogative-total-yn_Ana-lleva-el-abrigo.wav,./stim/wavs/peruvian_match_interrogative-total-yn_Ana-lleva-el-abrigo.wav,./stim/wavs/puertorican_match_interrogative-total-yn_Ana-lleva-el-abrigo.wav,,,,,,,,,,,,,,,,,,,,,,,,,,,,,,,,,,,,,,,,,,,,,,,,,,,,,,,,
,,,,,,,60514fe20a8ea24a26a96e85,6057c54e64b0b4e5c128b4f9,605823993aebeca996445d64,Mexico,East coast,12 or younger,no,2021-03-22_00h59.52.643,empathy_intonation_perc,2020.2.10,Win32,60,,,,,,,,,,0,mexican,0,1,1.83595,0,6,6,35,1,36,./stim/wavs/andalusian_mismatch_declarative-broad-focus_La-maestra-vive-en-Paris.wav,./stim/wavs/argentine_mismatch_declarative-broad-focus_La-maestra-vive-en-Paris.wav,./stim/wavs/castilian_mismatch_declarative-broad-focus_La-maestra-vive-en-Paris.wav,./stim/wavs/chilean_mismatch_declarative-broad-focus_La-maestra-vive-en-Paris.wav,./stim/wavs/cuban_mismatch_declarative-broad-focus_La-maestra-vive-en-Paris.wav,./stim/wavs/mexican_mismatch_declarative-broad-focus_La-maestra-vive-en-Paris.wav,./stim/wavs/peruvian_mismatch_declarative-broad-focus_La-maestra-vive-en-Paris.wav,./stim/wavs/puertorican_mismatch_declarative-broad-focus_La-maestra-vive-en-Paris.wav,,,,,,,,,,,,,,,,,,,,,,,,,,,,,,,,,,,,,,,,,,,,,,,,,,,,,,,,
,,,,,,,60514fe20a8ea24a26a96e85,6057c54e64b0b4e5c128b4f9,605823993aebeca996445d64,Mexico,East coast,12 or younger,no,2021-03-22_00h59.52.643,empathy_intonation_perc,2020.2.10,Win32,60,,,,,,,,,,0,mexican,0,1,1.80851,0,7,7,6,1,7,./stim/wavs/andalusian_match_declarative-broad-focus_Mariano-habla-del-tiempo.wav,./stim/wavs/argentine_match_declarative-broad-focus_Mariano-habla-del-tiempo.wav,./stim/wavs/castilian_match_declarative-broad-focus_Mariano-habla-del-tiempo.wav,./stim/wavs/chilean_match_declarative-broad-focus_Mariano-habla-del-tiempo.wav,./stim/wavs/cuban_match_declarative-broad-focus_Mariano-habla-del-tiempo.wav,./stim/wavs/mexican_match_declarative-broad-focus_Mariano-habla-del-tiempo.wav,./stim/wavs/peruvian_match_declarative-broad-focus_Mariano-habla-del-tiempo.wav,./stim/wavs/puertorican_match_declarative-broad-focus_Mariano-habla-del-tiempo.wav,,,,,,,,,,,,,,,,,,,,,,,,,,,,,,,,,,,,,,,,,,,,,,,,,,,,,,,,
,,,,,,,60514fe20a8ea24a26a96e85,6057c54e64b0b4e5c128b4f9,605823993aebeca996445d64,Mexico,East coast,12 or younger,no,2021-03-22_00h59.52.643,empathy_intonation_perc,2020.2.10,Win32,60,,,,,,,,,,1,andalusian,1,1,1.591975,0,8,8,60,1,61,./stim/wavs/andalusian_mismatch_interrogative-total-yn_La-nina-lava-el-plato.wav,./stim/wavs/argentine_mismatch_interrogative-total-yn_La-nina-lava-el-plato.wav,./stim/wavs/castilian_mismatch_interrogative-total-yn_La-nina-lava-el-plato.wav,./stim/wavs/chilean_mismatch_interrogative-total-yn_La-nina-lava-el-plato.wav,./stim/wavs/cuban_mismatch_interrogative-total-yn_La-nina-lava-el-plato.wav,./stim/wavs/mexican_mismatch_interrogative-total-yn_La-nina-lava-el-plato.wav,./stim/wavs/peruvian_mismatch_interrogative-total-yn_La-nina-lava-el-plato.wav,./stim/wavs/puertorican_mismatch_interrogative-total-yn_La-nina-lava-el-plato.wav,,,,,,,,,,,,,,,,,,,,,,,,,,,,,,,,,,,,,,,,,,,,,,,,,,,,,,,,
,,,,,,,60514fe20a8ea24a26a96e85,6057c54e64b0b4e5c128b4f9,605823993aebeca996445d64,Mexico,East coast,12 or younger,no,2021-03-22_00h59.52.643,empathy_intonation_perc,2020.2.10,Win32,60,,,,,,,,,,1,chilean,1,1,1.96619,0,9,9,55,1,56,./stim/wavs/andalusian_mismatch_interrogative-partial-wh_Por-que-vivia-en-Paris.wav,./stim/wavs/argentine_mismatch_interrogative-partial-wh_Por-que-vivia-en-Paris.wav,./stim/wavs/castilian_mismatch_interrogative-partial-wh_Por-que-vivia-en-Paris.wav,./stim/wavs/chilean_mismatch_interrogative-partial-wh_Por-que-vivia-en-Paris.wav,./stim/wavs/cuban_mismatch_interrogative-partial-wh_Por-que-vivia-en-Paris.wav,./stim/wavs/mexican_mismatch_interrogative-partial-wh_Por-que-vivia-en-Paris.wav,./stim/wavs/peruvian_mismatch_interrogative-partial-wh_Por-que-vivia-en-Paris.wav,./stim/wavs/puertorican_mismatch_interrogative-partial-wh_Por-que-vivia-en-Paris.wav,,,,,,,,,,,,,,,,,,,,,,,,,,,,,,,,,,,,,,,,,,,,,,,,,,,,,,,,
,,,,,,,60514fe20a8ea24a26a96e85,6057c54e64b0b4e5c128b4f9,605823993aebeca996445d64,Mexico,East coast,12 or younger,no,2021-03-22_00h59.52.643,empathy_intonation_perc,2020.2.10,Win32,60,,,,,,,,,,1,andalusian,1,1,1.558865,0,10,10,27,1,28,./stim/wavs/andalusian_match_interrogative-total-yn_Emilio-ama-la-marcha.wav,./stim/wavs/argentine_match_interrogative-total-yn_Emilio-ama-la-marcha.wav,./stim/wavs/castilian_match_interrogative-total-yn_Emilio-ama-la-marcha.wav,./stim/wavs/chilean_match_interrogative-total-yn_Emilio-ama-la-marcha.wav,./stim/wavs/cuban_match_interrogative-total-yn_Emilio-ama-la-marcha.wav,./stim/wavs/mexican_match_interrogative-total-yn_Emilio-ama-la-marcha.wav,./stim/wavs/peruvian_match_interrogative-total-yn_Emilio-ama-la-marcha.wav,./stim/wavs/puertorican_match_interrogative-total-yn_Emilio-ama-la-marcha.wav,,,,,,,,,,,,,,,,,,,,,,,,,,,,,,,,,,,,,,,,,,,,,,,,,,,,,,,,
,,,,,,,60514fe20a8ea24a26a96e85,6057c54e64b0b4e5c128b4f9,605823993aebeca996445d64,Mexico,East coast,12 or younger,no,2021-03-22_00h59.52.643,empathy_intonation_perc,2020.2.10,Win32,60,,,,,,,,,,0,chilean,0,1,1.60814,0,11,11,11,1,12,./stim/wavs/andalusian_match_declarative-narrow-focus_Emilio-ama-la-marcha.wav,./stim/wavs/argentine_match_declarative-narrow-focus_Emilio-ama-la-marcha.wav,./stim/wavs/castilian_match_declarative-narrow-focus_Emilio-ama-la-marcha.wav,./stim/wavs/chilean_match_declarative-narrow-focus_Emilio-ama-la-marcha.wav,./stim/wavs/cuban_match_declarative-narrow-focus_Emilio-ama-la-marcha.wav,./stim/wavs/mexican_match_declarative-narrow-focus_Emilio-ama-la-marcha.wav,./stim/wavs/peruvian_match_declarative-narrow-focus_Emilio-ama-la-marcha.wav,./stim/wavs/puertorican_match_declarative-narrow-focus_Emilio-ama-la-marcha.wav,,,,,,,,,,,,,,,,,,,,,,,,,,,,,,,,,,,,,,,,,,,,,,,,,,,,,,,,
,,,,,,,60514fe20a8ea24a26a96e85,6057c54e64b0b4e5c128b4f9,605823993aebeca996445d64,Mexico,East coast,12 or younger,no,2021-03-22_00h59.52.643,empathy_intonation_perc,2020.2.10,Win32,60,,,,,,,,,,0,andalusian,0,1,1.91441,0,12,12,4,1,5,./stim/wavs/andalusian_match_declarative-broad-focus_Manuela-vende-el-carro.wav,./stim/wavs/argentine_match_declarative-broad-focus_Manuela-vende-el-carro.wav,./stim/wavs/castilian_match_declarative-broad-focus_Manuela-vende-el-carro.wav,./stim/wavs/chilean_match_declarative-broad-focus_Manuela-vende-el-carro.wav,./stim/wavs/cuban_match_declarative-broad-focus_Manuela-vende-el-carro.wav,./stim/wavs/mexican_match_declarative-broad-focus_Manuela-vende-el-carro.wav,./stim/wavs/peruvian_match_declarative-broad-focus_Manuela-vende-el-carro.wav,./stim/wavs/puertorican_match_declarative-broad-focus_Manuela-vende-el-carro.wav,,,,,,,,,,,,,,,,,,,,,,,,,,,,,,,,,,,,,,,,,,,,,,,,,,,,,,,,
,,,,,,,60514fe20a8ea24a26a96e85,6057c54e64b0b4e5c128b4f9,605823993aebeca996445d64,Mexico,East coast,12 or younger,no,2021-03-22_00h59.52.643,empathy_intonation_perc,2020.2.10,Win32,60,,,,,,,,,,0,castilian,0,1,1.788795,0,13,13,0,1,1,./stim/wavs/andalusian_match_declarative-broad-focus_Ana-lleva-el-abrigo.wav,./stim/wavs/argentine_match_declarative-broad-focus_Ana-lleva-el-abrigo.wav,./stim/wavs/castilian_match_declarative-broad-focus_Ana-lleva-el-abrigo.wav,./stim/wavs/chilean_match_declarative-broad-focus_Ana-lleva-el-abrigo.wav,./stim/wavs/cuban_match_declarative-broad-focus_Ana-lleva-el-abrigo.wav,./stim/wavs/mexican_match_declarative-broad-focus_Ana-lleva-el-abrigo.wav,./stim/wavs/peruvian_match_declarative-broad-focus_Ana-lleva-el-abrigo.wav,./stim/wavs/puertorican_match_declarative-broad-focus_Ana-lleva-el-abrigo.wav,,,,,,,,,,,,,,,,,,,,,,,,,,,,,,,,,,,,,,,,,,,,,,,,,,,,,,,,
,,,,,,,60514fe20a8ea24a26a96e85,6057c54e64b0b4e5c128b4f9,605823993aebeca996445d64,Mexico,East coast,12 or younger,no,2021-03-22_00h59.52.643,empathy_intonation_perc,2020.2.10,Win32,60,,,,,,,,,,0,peruvian,0,1,1.66862,0,14,14,46,1,47,./stim/wavs/andalusian_mismatch_declarative-narrow-focus_Mi-novio-viene-del-lago.wav,./stim/wavs/argentine_mismatch_declarative-narrow-focus_Mi-novio-viene-del-lago.wav,./stim/wavs/castilian_mismatch_declarative-narrow-focus_Mi-novio-viene-del-lago.wav,./stim/wavs/chilean_mismatch_declarative-narrow-focus_Mi-novio-viene-del-lago.wav,./stim/wavs/cuban_mismatch_declarative-narrow-focus_Mi-novio-viene-del-lago.wav,./stim/wavs/mexican_mismatch_declarative-narrow-focus_Mi-novio-viene-del-lago.wav,./stim/wavs/peruvian_mismatch_declarative-narrow-focus_Mi-novio-viene-del-lago.wav,./stim/wavs/puertorican_mismatch_declarative-narrow-focus_Mi-novio-viene-del-lago.wav,,,,,,,,,,,,,,,,,,,,,,,,,,,,,,,,,,,,,,,,,,,,,,,,,,,,,,,,
,,,,,,,60514fe20a8ea24a26a96e85,6057c54e64b0b4e5c128b4f9,605823993aebeca996445d64,Mexico,East coast,12 or younger,no,2021-03-22_00h59.52.643,empathy_intonation_perc,2020.2.10,Win32,60,,,,,,,,,,1,andalusian,0,0,1.72845,0,15,15,48,1,49,./stim/wavs/andalusian_mismatch_interrogative-partial-wh_Cuando-comia-la-fruta.wav,./stim/wavs/argentine_mismatch_interrogative-partial-wh_Cuando-comia-la-fruta.wav,./stim/wavs/castilian_mismatch_interrogative-partial-wh_Cuando-comia-la-fruta.wav,./stim/wavs/chilean_mismatch_interrogative-partial-wh_Cuando-comia-la-fruta.wav,./stim/wavs/cuban_mismatch_interrogative-partial-wh_Cuando-comia-la-fruta.wav,./stim/wavs/mexican_mismatch_interrogative-partial-wh_Cuando-comia-la-fruta.wav,./stim/wavs/peruvian_mismatch_interrogative-partial-wh_Cuando-comia-la-fruta.wav,./stim/wavs/puertorican_mismatch_interrogative-partial-wh_Cuando-comia-la-fruta.wav,,,,,,,,,,,,,,,,,,,,,,,,,,,,,,,,,,,,,,,,,,,,,,,,,,,,,,,,
,,,,,,,60514fe20a8ea24a26a96e85,6057c54e64b0b4e5c128b4f9,605823993aebeca996445d64,Mexico,East coast,12 or younger,no,2021-03-22_00h59.52.643,empathy_intonation_perc,2020.2.10,Win32,60,,,,,,,,,,0,cuban,0,1,1.403255,0,16,16,32,1,33,./stim/wavs/andalusian_mismatch_declarative-broad-focus_El-bebe-comia-muy-bien.wav,./stim/wavs/argentine_mismatch_declarative-broad-focus_El-bebe-comia-muy-bien.wav,./stim/wavs/castilian_mismatch_declarative-broad-focus_El-bebe-comia-muy-bien.wav,./stim/wavs/chilean_mismatch_declarative-broad-focus_El-bebe-comia-muy-bien.wav,./stim/wavs/cuban_mismatch_declarative-broad-focus_El-bebe-comia-muy-bien.wav,./stim/wavs/mexican_mismatch_declarative-broad-focus_El-bebe-comia-muy-bien.wav,./stim/wavs/peruvian_mismatch_declarative-broad-focus_El-bebe-comia-muy-bien.wav,./stim/wavs/puertorican_mismatch_declarative-broad-focus_El-bebe-comia-muy-bien.wav,,,,,,,,,,,,,,,,,,,,,,,,,,,,,,,,,,,,,,,,,,,,,,,,,,,,,,,,
,,,,,,,60514fe20a8ea24a26a96e85,6057c54e64b0b4e5c128b4f9,605823993aebeca996445d64,Mexico,East coast,12 or younger,no,2021-03-22_00h59.52.643,empathy_intonation_perc,2020.2.10,Win32,60,,,,,,,,,,1,castilian,1,1,1.625605,0,17,17,50,1,51,./stim/wavs/andalusian_mismatch_interrogative-partial-wh_Cuando-miraba-la-luna.wav,./stim/wavs/argentine_mismatch_interrogative-partial-wh_Cuando-miraba-la-luna.wav,./stim/wavs/castilian_mismatch_interrogative-partial-wh_Cuando-miraba-la-luna.wav,./stim/wavs/chilean_mismatch_interrogative-partial-wh_Cuando-miraba-la-luna.wav,./stim/wavs/cuban_mismatch_interrogative-partial-wh_Cuando-miraba-la-luna.wav,./stim/wavs/mexican_mismatch_interrogative-partial-wh_Cuando-miraba-la-luna.wav,./stim/wavs/peruvian_mismatch_interrogative-partial-wh_Cuando-miraba-la-luna.wav,./stim/wavs/puertorican_mismatch_interrogative-partial-wh_Cuando-miraba-la-luna.wav,,,,,,,,,,,,,,,,,,,,,,,,,,,,,,,,,,,,,,,,,,,,,,,,,,,,,,,,
,,,,,,,60514fe20a8ea24a26a96e85,6057c54e64b0b4e5c128b4f9,605823993aebeca996445d64,Mexico,East coast,12 or younger,no,2021-03-22_00h59.52.643,empathy_intonation_perc,2020.2.10,Win32,60,,,,,,,,,,0,chilean,0,1,1.99304,0,18,18,38,1,39,./stim/wavs/andalusian_mismatch_declarative-broad-focus_Mi-novio-viene-del-lago.wav,./stim/wavs/argentine_mismatch_declarative-broad-focus_Mi-novio-viene-del-lago.wav,./stim/wavs/castilian_mismatch_declarative-broad-focus_Mi-novio-viene-del-lago.wav,./stim/wavs/chilean_mismatch_declarative-broad-focus_Mi-novio-viene-del-lago.wav,./stim/wavs/cuban_mismatch_declarative-broad-focus_Mi-novio-viene-del-lago.wav,./stim/wavs/mexican_mismatch_declarative-broad-focus_Mi-novio-viene-del-lago.wav,./stim/wavs/peruvian_mismatch_declarative-broad-focus_Mi-novio-viene-del-lago.wav,./stim/wavs/puertorican_mismatch_declarative-broad-focus_Mi-novio-viene-del-lago.wav,,,,,,,,,,,,,,,,,,,,,,,,,,,,,,,,,,,,,,,,,,,,,,,,,,,,,,,,
,,,,,,,60514fe20a8ea24a26a96e85,6057c54e64b0b4e5c128b4f9,605823993aebeca996445d64,Mexico,East coast,12 or younger,no,2021-03-22_00h59.52.643,empathy_intonation_perc,2020.2.10,Win32,60,,,,,,,,,,0,chilean,0,1,1.51144,0,19,19,41,1,42,./stim/wavs/andalusian_mismatch_declarative-narrow-focus_El-hombre-mira-la-luna.wav,./stim/wavs/argentine_mismatch_declarative-narrow-focus_El-hombre-mira-la-luna.wav,./stim/wavs/castilian_mismatch_declarative-narrow-focus_El-hombre-mira-la-luna.wav,./stim/wavs/chilean_mismatch_declarative-narrow-focus_El-hombre-mira-la-luna.wav,./stim/wavs/cuban_mismatch_declarative-narrow-focus_El-hombre-mira-la-luna.wav,./stim/wavs/mexican_mismatch_declarative-narrow-focus_El-hombre-mira-la-luna.wav,./stim/wavs/peruvian_mismatch_declarative-narrow-focus_El-hombre-mira-la-luna.wav,./stim/wavs/puertorican_mismatch_declarative-narrow-focus_El-hombre-mira-la-luna.wav,,,,,,,,,,,,,,,,,,,,,,,,,,,,,,,,,,,,,,,,,,,,,,,,,,,,,,,,
,,,,,,,60514fe20a8ea24a26a96e85,6057c54e64b0b4e5c128b4f9,605823993aebeca996445d64,Mexico,East coast,12 or younger,no,2021-03-22_00h59.52.643,empathy_intonation_perc,2020.2.10,Win32,60,,,,,,,,,,0,argentine,0,1,1.57647,0,20,20,36,1,37,./stim/wavs/andalusian_mismatch_declarative-broad-focus_La-nina-lava-el-plato.wav,./stim/wavs/argentine_mismatch_declarative-broad-focus_La-nina-lava-el-plato.wav,./stim/wavs/castilian_mismatch_declarative-broad-focus_La-nina-lava-el-plato.wav,./stim/wavs/chilean_mismatch_declarative-broad-focus_La-nina-lava-el-plato.wav,./stim/wavs/cuban_mismatch_declarative-broad-focus_La-nina-lava-el-plato.wav,./stim/wavs/mexican_mismatch_declarative-broad-focus_La-nina-lava-el-plato.wav,./stim/wavs/peruvian_mismatch_declarative-broad-focus_La-nina-lava-el-plato.wav,./stim/wavs/puertorican_mismatch_declarative-broad-focus_La-nina-lava-el-plato.wav,,,,,,,,,,,,,,,,,,,,,,,,,,,,,,,,,,,,,,,,,,,,,,,,,,,,,,,,
,,,,,,,60514fe20a8ea24a26a96e85,6057c54e64b0b4e5c128b4f9,605823993aebeca996445d64,Mexico,East coast,12 or younger,no,2021-03-22_00h59.52.643,empathy_intonation_perc,2020.2.10,Win32,60,,,,,,,,,,0,castilian,0,1,2.25905,0,21,21,37,1,38,./stim/wavs/andalusian_mismatch_declarative-broad-focus_Mi-madre-come-la-fruta.wav,./stim/wavs/argentine_mismatch_declarative-broad-focus_Mi-madre-come-la-fruta.wav,./stim/wavs/castilian_mismatch_declarative-broad-focus_Mi-madre-come-la-fruta.wav,./stim/wavs/chilean_mismatch_declarative-broad-focus_Mi-madre-come-la-fruta.wav,./stim/wavs/cuban_mismatch_declarative-broad-focus_Mi-madre-come-la-fruta.wav,./stim/wavs/mexican_mismatch_declarative-broad-focus_Mi-madre-come-la-fruta.wav,./stim/wavs/peruvian_mismatch_declarative-broad-focus_Mi-madre-come-la-fruta.wav,./stim/wavs/puertorican_mismatch_declarative-broad-focus_Mi-madre-come-la-fruta.wav,,,,,,,,,,,,,,,,,,,,,,,,,,,,,,,,,,,,,,,,,,,,,,,,,,,,,,,,
,,,,,,,60514fe20a8ea24a26a96e85,6057c54e64b0b4e5c128b4f9,605823993aebeca996445d64,Mexico,East coast,12 or younger,no,2021-03-22_00h59.52.643,empathy_intonation_perc,2020.2.10,Win32,60,,,,,,,,,,0,castilian,0,1,1.50543,0,22,22,10,1,11,./stim/wavs/andalusian_match_declarative-narrow-focus_David-leia-el-libro.wav,./stim/wavs/argentine_match_declarative-narrow-focus_David-leia-el-libro.wav,./stim/wavs/castilian_match_declarative-narrow-focus_David-leia-el-libro.wav,./stim/wavs/chilean_match_declarative-narrow-focus_David-leia-el-libro.wav,./stim/wavs/cuban_match_declarative-narrow-focus_David-leia-el-libro.wav,./stim/wavs/mexican_match_declarative-narrow-focus_David-leia-el-libro.wav,./stim/wavs/peruvian_match_declarative-narrow-focus_David-leia-el-libro.wav,./stim/wavs/puertorican_match_declarative-narrow-focus_David-leia-el-libro.wav,,,,,,,,,,,,,,,,,,,,,,,,,,,,,,,,,,,,,,,,,,,,,,,,,,,,,,,,
,,,,,,,60514fe20a8ea24a26a96e85,6057c54e64b0b4e5c128b4f9,605823993aebeca996445d64,Mexico,East coast,12 or younger,no,2021-03-22_00h59.52.643,empathy_intonation_perc,2020.2.10,Win32,60,,,,,,,,,,1,mexican,1,1,1.9522,0,23,23,62,1,63,./stim/wavs/andalusian_mismatch_interrogative-total-yn_Mi-novio-viene-del-lago.wav,./stim/wavs/argentine_mismatch_interrogative-total-yn_Mi-novio-viene-del-lago.wav,./stim/wavs/castilian_mismatch_interrogative-total-yn_Mi-novio-viene-del-lago.wav,./stim/wavs/chilean_mismatch_interrogative-total-yn_Mi-novio-viene-del-lago.wav,./stim/wavs/cuban_mismatch_interrogative-total-yn_Mi-novio-viene-del-lago.wav,./stim/wavs/mexican_mismatch_interrogative-total-yn_Mi-novio-viene-del-lago.wav,./stim/wavs/peruvian_mismatch_interrogative-total-yn_Mi-novio-viene-del-lago.wav,./stim/wavs/puertorican_mismatch_interrogative-total-yn_Mi-novio-viene-del-lago.wav,,,,,,,,,,,,,,,,,,,,,,,,,,,,,,,,,,,,,,,,,,,,,,,,,,,,,,,,
,,,,,,,60514fe20a8ea24a26a96e85,6057c54e64b0b4e5c128b4f9,605823993aebeca996445d64,Mexico,East coast,12 or younger,no,2021-03-22_00h59.52.643,empathy_intonation_perc,2020.2.10,Win32,60,,,,,,,,,,1,castilian,1,1,1.520745,0,24,24,29,1,30,./stim/wavs/andalusian_match_interrogative-total-yn_Maria-bebe-el-vino.wav,./stim/wavs/argentine_match_interrogative-total-yn_Maria-bebe-el-vino.wav,./stim/wavs/castilian_match_interrogative-total-yn_Maria-bebe-el-vino.wav,./stim/wavs/chilean_match_interrogative-total-yn_Maria-bebe-el-vino.wav,./stim/wavs/cuban_match_interrogative-total-yn_Maria-bebe-el-vino.wav,./stim/wavs/mexican_match_interrogative-total-yn_Maria-bebe-el-vino.wav,./stim/wavs/peruvian_match_interrogative-total-yn_Maria-bebe-el-vino.wav,./stim/wavs/puertorican_match_interrogative-total-yn_Maria-bebe-el-vino.wav,,,,,,,,,,,,,,,,,,,,,,,,,,,,,,,,,,,,,,,,,,,,,,,,,,,,,,,,
,,,,,,,60514fe20a8ea24a26a96e85,6057c54e64b0b4e5c128b4f9,605823993aebeca996445d64,Mexico,East coast,12 or younger,no,2021-03-22_00h59.52.643,empathy_intonation_perc,2020.2.10,Win32,60,,,,,,,,,,1,cuban,0,0,1.842835,0,25,25,51,1,52,./stim/wavs/andalusian_mismatch_interrogative-partial-wh_Por-que-desayuna-muy-bien.wav,./stim/wavs/argentine_mismatch_interrogative-partial-wh_Por-que-desayuna-muy-bien.wav,./stim/wavs/castilian_mismatch_interrogative-partial-wh_Por-que-desayuna-muy-bien.wav,./stim/wavs/chilean_mismatch_interrogative-partial-wh_Por-que-desayuna-muy-bien.wav,./stim/wavs/cuban_mismatch_interrogative-partial-wh_Por-que-desayuna-muy-bien.wav,./stim/wavs/mexican_mismatch_interrogative-partial-wh_Por-que-desayuna-muy-bien.wav,./stim/wavs/peruvian_mismatch_interrogative-partial-wh_Por-que-desayuna-muy-bien.wav,./stim/wavs/puertorican_mismatch_interrogative-partial-wh_Por-que-desayuna-muy-bien.wav,,,,,,,,,,,,,,,,,,,,,,,,,,,,,,,,,,,,,,,,,,,,,,,,,,,,,,,,
,,,,,,,60514fe20a8ea24a26a96e85,6057c54e64b0b4e5c128b4f9,605823993aebeca996445d64,Mexico,East coast,12 or younger,no,2021-03-22_00h59.52.643,empathy_intonation_perc,2020.2.10,Win32,60,,,,,,,,,,1,peruvian,1,1,1.783135,0,26,26,28,1,29,./stim/wavs/andalusian_match_interrogative-total-yn_Manuela-vende-el-carro.wav,./stim/wavs/argentine_match_interrogative-total-yn_Manuela-vende-el-carro.wav,./stim/wavs/castilian_match_interrogative-total-yn_Manuela-vende-el-carro.wav,./stim/wavs/chilean_match_interrogative-total-yn_Manuela-vende-el-carro.wav,./stim/wavs/cuban_match_interrogative-total-yn_Manuela-vende-el-carro.wav,./stim/wavs/mexican_match_interrogative-total-yn_Manuela-vende-el-carro.wav,./stim/wavs/peruvian_match_interrogative-total-yn_Manuela-vende-el-carro.wav,./stim/wavs/puertorican_match_interrogative-total-yn_Manuela-vende-el-carro.wav,,,,,,,,,,,,,,,,,,,,,,,,,,,,,,,,,,,,,,,,,,,,,,,,,,,,,,,,
,,,,,,,60514fe20a8ea24a26a96e85,6057c54e64b0b4e5c128b4f9,605823993aebeca996445d64,Mexico,East coast,12 or younger,no,2021-03-22_00h59.52.643,empathy_intonation_perc,2020.2.10,Win32,60,,,,,,,,,,0,cuban,0,1,1.766465,0,27,27,47,1,48,./stim/wavs/andalusian_mismatch_declarative-narrow-focus_Mi-tia-odia-la-lluvia.wav,./stim/wavs/argentine_mismatch_declarative-narrow-focus_Mi-tia-odia-la-lluvia.wav,./stim/wavs/castilian_mismatch_declarative-narrow-focus_Mi-tia-odia-la-lluvia.wav,./stim/wavs/chilean_mismatch_declarative-narrow-focus_Mi-tia-odia-la-lluvia.wav,./stim/wavs/cuban_mismatch_declarative-narrow-focus_Mi-tia-odia-la-lluvia.wav,./stim/wavs/mexican_mismatch_declarative-narrow-focus_Mi-tia-odia-la-lluvia.wav,./stim/wavs/peruvian_mismatch_declarative-narrow-focus_Mi-tia-odia-la-lluvia.wav,./stim/wavs/puertorican_mismatch_declarative-narrow-focus_Mi-tia-odia-la-lluvia.wav,,,,,,,,,,,,,,,,,,,,,,,,,,,,,,,,,,,,,,,,,,,,,,,,,,,,,,,,
,,,,,,,60514fe20a8ea24a26a96e85,6057c54e64b0b4e5c128b4f9,605823993aebeca996445d64,Mexico,East coast,12 or younger,no,2021-03-22_00h59.52.643,empathy_intonation_perc,2020.2.10,Win32,60,,,,,,,,,,0,cuban,0,1,2.003885,0,28,28,33,1,34,./stim/wavs/andalusian_mismatch_declarative-broad-focus_El-hombre-mira-la-luna.wav,./stim/wavs/argentine_mismatch_declarative-broad-focus_El-hombre-mira-la-luna.wav,./stim/wavs/castilian_mismatch_declarative-broad-focus_El-hombre-mira-la-luna.wav,./stim/wavs/chilean_mismatch_declarative-broad-focus_El-hombre-mira-la-luna.wav,./stim/wavs/cuban_mismatch_declarative-broad-focus_El-hombre-mira-la-luna.wav,./stim/wavs/mexican_mismatch_declarative-broad-focus_El-hombre-mira-la-luna.wav,./stim/wavs/peruvian_mismatch_declarative-broad-focus_El-hombre-mira-la-luna.wav,./stim/wavs/puertorican_mismatch_declarative-broad-focus_El-hombre-mira-la-luna.wav,,,,,,,,,,,,,,,,,,,,,,,,,,,,,,,,,,,,,,,,,,,,,,,,,,,,,,,,
,,,,,,,60514fe20a8ea24a26a96e85,6057c54e64b0b4e5c128b4f9,605823993aebeca996445d64,Mexico,East coast,12 or younger,no,2021-03-22_00h59.52.643,empathy_intonation_perc,2020.2.10,Win32,60,,,,,,,,,,1,peruvian,0,0,3.17759,0,29,29,52,1,53,./stim/wavs/andalusian_mismatch_interrogative-partial-wh_Por-que-odiaba-la-lluvia.wav,./stim/wavs/argentine_mismatch_interrogative-partial-wh_Por-que-odiaba-la-lluvia.wav,./stim/wavs/castilian_mismatch_interrogative-partial-wh_Por-que-odiaba-la-lluvia.wav,./stim/wavs/chilean_mismatch_interrogative-partial-wh_Por-que-odiaba-la-lluvia.wav,./stim/wavs/cuban_mismatch_interrogative-partial-wh_Por-que-odiaba-la-lluvia.wav,./stim/wavs/mexican_mismatch_interrogative-partial-wh_Por-que-odiaba-la-lluvia.wav,./stim/wavs/peruvian_mismatch_interrogative-partial-wh_Por-que-odiaba-la-lluvia.wav,./stim/wavs/puertorican_mismatch_interrogative-partial-wh_Por-que-odiaba-la-lluvia.wav,,,,,,,,,,,,,,,,,,,,,,,,,,,,,,,,,,,,,,,,,,,,,,,,,,,,,,,,
,,,,,,,60514fe20a8ea24a26a96e85,6057c54e64b0b4e5c128b4f9,605823993aebeca996445d64,Mexico,East coast,12 or younger,no,2021-03-22_00h59.52.643,empathy_intonation_perc,2020.2.10,Win32,60,,,,,,,,,,1,cuban,0,0,1.83587,0,30,30,63,1,64,./stim/wavs/andalusian_mismatch_interrogative-total-yn_Mi-tia-odia-la-lluvia.wav,./stim/wavs/argentine_mismatch_interrogative-total-yn_Mi-tia-odia-la-lluvia.wav,./stim/wavs/castilian_mismatch_interrogative-total-yn_Mi-tia-odia-la-lluvia.wav,./stim/wavs/chilean_mismatch_interrogative-total-yn_Mi-tia-odia-la-lluvia.wav,./stim/wavs/cuban_mismatch_interrogative-total-yn_Mi-tia-odia-la-lluvia.wav,./stim/wavs/mexican_mismatch_interrogative-total-yn_Mi-tia-odia-la-lluvia.wav,./stim/wavs/peruvian_mismatch_interrogative-total-yn_Mi-tia-odia-la-lluvia.wav,./stim/wavs/puertorican_mismatch_interrogative-total-yn_Mi-tia-odia-la-lluvia.wav,,,,,,,,,,,,,,,,,,,,,,,,,,,,,,,,,,,,,,,,,,,,,,,,,,,,,,,,
,,,,,,,60514fe20a8ea24a26a96e85,6057c54e64b0b4e5c128b4f9,605823993aebeca996445d64,Mexico,East coast,12 or younger,no,2021-03-22_00h59.52.643,empathy_intonation_perc,2020.2.10,Win32,60,,,,,,,,,,1,mexican,0,0,1.4603,0,31,31,21,1,22,./stim/wavs/andalusian_match_interrogative-partial-wh_Por-que-ama-la-navidad.wav,./stim/wavs/argentine_match_interrogative-partial-wh_Por-que-ama-la-navidad.wav,./stim/wavs/castilian_match_interrogative-partial-wh_Por-que-ama-la-navidad.wav,./stim/wavs/chilean_match_interrogative-partial-wh_Por-que-ama-la-navidad.wav,./stim/wavs/cuban_match_interrogative-partial-wh_Por-que-ama-la-navidad.wav,./stim/wavs/mexican_match_interrogative-partial-wh_Por-que-ama-la-navidad.wav,./stim/wavs/peruvian_match_interrogative-partial-wh_Por-que-ama-la-navidad.wav,./stim/wavs/puertorican_match_interrogative-partial-wh_Por-que-ama-la-navidad.wav,,,,,,,,,,,,,,,,,,,,,,,,,,,,,,,,,,,,,,,,,,,,,,,,,,,,,,,,
,,,,,,,60514fe20a8ea24a26a96e85,6057c54e64b0b4e5c128b4f9,605823993aebeca996445d64,Mexico,East coast,12 or younger,no,2021-03-22_00h59.52.643,empathy_intonation_perc,2020.2.10,Win32,60,,,,,,,,,,0,cuban,0,1,1.62519,0,32,32,34,1,35,./stim/wavs/andalusian_mismatch_declarative-broad-focus_El-nino-oye-el-rio.wav,./stim/wavs/argentine_mismatch_declarative-broad-focus_El-nino-oye-el-rio.wav,./stim/wavs/castilian_mismatch_declarative-broad-focus_El-nino-oye-el-rio.wav,./stim/wavs/chilean_mismatch_declarative-broad-focus_El-nino-oye-el-rio.wav,./stim/wavs/cuban_mismatch_declarative-broad-focus_El-nino-oye-el-rio.wav,./stim/wavs/mexican_mismatch_declarative-broad-focus_El-nino-oye-el-rio.wav,./stim/wavs/peruvian_mismatch_declarative-broad-focus_El-nino-oye-el-rio.wav,./stim/wavs/puertorican_mismatch_declarative-broad-focus_El-nino-oye-el-rio.wav,,,,,,,,,,,,,,,,,,,,,,,,,,,,,,,,,,,,,,,,,,,,,,,,,,,,,,,,
,,,,,,,60514fe20a8ea24a26a96e85,6057c54e64b0b4e5c128b4f9,605823993aebeca996445d64,Mexico,East coast,12 or younger,no,2021-03-22_00h59.52.643,empathy_intonation_perc,2020.2.10,Win32,60,,,,,,,,,,0,mexican,0,1,1.54806,0,33,33,12,1,13,./stim/wavs/andalusian_match_declarative-narrow-focus_Manuela-vende-el-carro.wav,./stim/wavs/argentine_match_declarative-narrow-focus_Manuela-vende-el-carro.wav,./stim/wavs/castilian_match_declarative-narrow-focus_Manuela-vende-el-carro.wav,./stim/wavs/chilean_match_declarative-narrow-focus_Manuela-vende-el-carro.wav,./stim/wavs/cuban_match_declarative-narrow-focus_Manuela-vende-el-carro.wav,./stim/wavs/mexican_match_declarative-narrow-focus_Manuela-vende-el-carro.wav,./stim/wavs/peruvian_match_declarative-narrow-focus_Manuela-vende-el-carro.wav,./stim/wavs/puertorican_match_declarative-narrow-focus_Manuela-vende-el-carro.wav,,,,,,,,,,,,,,,,,,,,,,,,,,,,,,,,,,,,,,,,,,,,,,,,,,,,,,,,
,,,,,,,60514fe20a8ea24a26a96e85,6057c54e64b0b4e5c128b4f9,605823993aebeca996445d64,Mexico,East coast,12 or younger,no,2021-03-22_00h59.52.643,empathy_intonation_perc,2020.2.10,Win32,60,,,,,,,,,,1,castilian,1,1,1.625445,0,34,34,61,1,62,./stim/wavs/andalusian_mismatch_interrogative-total-yn_Mi-madre-come-la-fruta.wav,./stim/wavs/argentine_mismatch_interrogative-total-yn_Mi-madre-come-la-fruta.wav,./stim/wavs/castilian_mismatch_interrogative-total-yn_Mi-madre-come-la-fruta.wav,./stim/wavs/chilean_mismatch_interrogative-total-yn_Mi-madre-come-la-fruta.wav,./stim/wavs/cuban_mismatch_interrogative-total-yn_Mi-madre-come-la-fruta.wav,./stim/wavs/mexican_mismatch_interrogative-total-yn_Mi-madre-come-la-fruta.wav,./stim/wavs/peruvian_mismatch_interrogative-total-yn_Mi-madre-come-la-fruta.wav,./stim/wavs/puertorican_mismatch_interrogative-total-yn_Mi-madre-come-la-fruta.wav,,,,,,,,,,,,,,,,,,,,,,,,,,,,,,,,,,,,,,,,,,,,,,,,,,,,,,,,
,,,,,,,60514fe20a8ea24a26a96e85,6057c54e64b0b4e5c128b4f9,605823993aebeca996445d64,Mexico,East coast,12 or younger,no,2021-03-22_00h59.52.643,empathy_intonation_perc,2020.2.10,Win32,60,,,,,,,,,,1,mexican,1,1,1.64409,0,35,35,54,1,55,./stim/wavs/andalusian_mismatch_interrogative-partial-wh_Por-que-venia-del-lago.wav,./stim/wavs/argentine_mismatch_interrogative-partial-wh_Por-que-venia-del-lago.wav,./stim/wavs/castilian_mismatch_interrogative-partial-wh_Por-que-venia-del-lago.wav,./stim/wavs/chilean_mismatch_interrogative-partial-wh_Por-que-venia-del-lago.wav,./stim/wavs/cuban_mismatch_interrogative-partial-wh_Por-que-venia-del-lago.wav,./stim/wavs/mexican_mismatch_interrogative-partial-wh_Por-que-venia-del-lago.wav,./stim/wavs/peruvian_mismatch_interrogative-partial-wh_Por-que-venia-del-lago.wav,./stim/wavs/puertorican_mismatch_interrogative-partial-wh_Por-que-venia-del-lago.wav,,,,,,,,,,,,,,,,,,,,,,,,,,,,,,,,,,,,,,,,,,,,,,,,,,,,,,,,
,,,,,,,60514fe20a8ea24a26a96e85,6057c54e64b0b4e5c128b4f9,605823993aebeca996445d64,Mexico,East coast,12 or younger,no,2021-03-22_00h59.52.643,empathy_intonation_perc,2020.2.10,Win32,60,,,,,,,,,,1,peruvian,1,1,1.621085,0,36,36,25,1,26,./stim/wavs/andalusian_match_interrogative-total-yn_Daniel-iba-a-Bolivia.wav,./stim/wavs/argentine_match_interrogative-total-yn_Daniel-iba-a-Bolivia.wav,./stim/wavs/castilian_match_interrogative-total-yn_Daniel-iba-a-Bolivia.wav,./stim/wavs/chilean_match_interrogative-total-yn_Daniel-iba-a-Bolivia.wav,./stim/wavs/cuban_match_interrogative-total-yn_Daniel-iba-a-Bolivia.wav,./stim/wavs/mexican_match_interrogative-total-yn_Daniel-iba-a-Bolivia.wav,./stim/wavs/peruvian_match_interrogative-total-yn_Daniel-iba-a-Bolivia.wav,./stim/wavs/puertorican_match_interrogative-total-yn_Daniel-iba-a-Bolivia.wav,,,,,,,,,,,,,,,,,,,,,,,,,,,,,,,,,,,,,,,,,,,,,,,,,,,,,,,,
,,,,,,,60514fe20a8ea24a26a96e85,6057c54e64b0b4e5c128b4f9,605823993aebeca996445d64,Mexico,East coast,12 or younger,no,2021-03-22_00h59.52.643,empathy_intonation_perc,2020.2.10,Win32,60,,,,,,,,,,0,mexican,0,1,1.4938,0,37,37,45,1,46,./stim/wavs/andalusian_mismatch_declarative-narrow-focus_Mi-madre-come-la-fruta.wav,./stim/wavs/argentine_mismatch_declarative-narrow-focus_Mi-madre-come-la-fruta.wav,./stim/wavs/castilian_mismatch_declarative-narrow-focus_Mi-madre-come-la-fruta.wav,./stim/wavs/chilean_mismatch_declarative-narrow-focus_Mi-madre-come-la-fruta.wav,./stim/wavs/cuban_mismatch_declarative-narrow-focus_Mi-madre-come-la-fruta.wav,./stim/wavs/mexican_mismatch_declarative-narrow-focus_Mi-madre-come-la-fruta.wav,./stim/wavs/peruvian_mismatch_declarative-narrow-focus_Mi-madre-come-la-fruta.wav,./stim/wavs/puertorican_mismatch_declarative-narrow-focus_Mi-madre-come-la-fruta.wav,,,,,,,,,,,,,,,,,,,,,,,,,,,,,,,,,,,,,,,,,,,,,,,,,,,,,,,,
,,,,,,,60514fe20a8ea24a26a96e85,6057c54e64b0b4e5c128b4f9,605823993aebeca996445d64,Mexico,East coast,12 or younger,no,2021-03-22_00h59.52.643,empathy_intonation_perc,2020.2.10,Win32,60,,,,,,,,,,1,peruvian,1,1,1.60635,0,38,38,57,1,58,./stim/wavs/andalusian_mismatch_interrogative-total-yn_El-hombre-mira-la-luna.wav,./stim/wavs/argentine_mismatch_interrogative-total-yn_El-hombre-mira-la-luna.wav,./stim/wavs/castilian_mismatch_interrogative-total-yn_El-hombre-mira-la-luna.wav,./stim/wavs/chilean_mismatch_interrogative-total-yn_El-hombre-mira-la-luna.wav,./stim/wavs/cuban_mismatch_interrogative-total-yn_El-hombre-mira-la-luna.wav,./stim/wavs/mexican_mismatch_interrogative-total-yn_El-hombre-mira-la-luna.wav,./stim/wavs/peruvian_mismatch_interrogative-total-yn_El-hombre-mira-la-luna.wav,./stim/wavs/puertorican_mismatch_interrogative-total-yn_El-hombre-mira-la-luna.wav,,,,,,,,,,,,,,,,,,,,,,,,,,,,,,,,,,,,,,,,,,,,,,,,,,,,,,,,
,,,,,,,60514fe20a8ea24a26a96e85,6057c54e64b0b4e5c128b4f9,605823993aebeca996445d64,Mexico,East coast,12 or younger,no,2021-03-22_00h59.52.643,empathy_intonation_perc,2020.2.10,Win32,60,,,,,,,,,,0,andalusian,0,1,1.689445,0,39,39,3,1,4,./stim/wavs/andalusian_match_declarative-broad-focus_Emilio-ama-la-marcha.wav,./stim/wavs/argentine_match_declarative-broad-focus_Emilio-ama-la-marcha.wav,./stim/wavs/castilian_match_declarative-broad-focus_Emilio-ama-la-marcha.wav,./stim/wavs/chilean_match_declarative-broad-focus_Emilio-ama-la-marcha.wav,./stim/wavs/cuban_match_declarative-broad-focus_Emilio-ama-la-marcha.wav,./stim/wavs/mexican_match_declarative-broad-focus_Emilio-ama-la-marcha.wav,./stim/wavs/peruvian_match_declarative-broad-focus_Emilio-ama-la-marcha.wav,./stim/wavs/puertorican_match_declarative-broad-focus_Emilio-ama-la-marcha.wav,,,,,,,,,,,,,,,,,,,,,,,,,,,,,,,,,,,,,,,,,,,,,,,,,,,,,,,,
,,,,,,,60514fe20a8ea24a26a96e85,6057c54e64b0b4e5c128b4f9,605823993aebeca996445d64,Mexico,East coast,12 or younger,no,2021-03-22_00h59.52.643,empathy_intonation_perc,2020.2.10,Win32,60,,,,,,,,,,0,chilean,0,1,1.252215,0,40,40,5,1,6,./stim/wavs/andalusian_match_declarative-broad-focus_Maria-bebe-el-vino.wav,./stim/wavs/argentine_match_declarative-broad-focus_Maria-bebe-el-vino.wav,./stim/wavs/castilian_match_declarative-broad-focus_Maria-bebe-el-vino.wav,./stim/wavs/chilean_match_declarative-broad-focus_Maria-bebe-el-vino.wav,./stim/wavs/cuban_match_declarative-broad-focus_Maria-bebe-el-vino.wav,./stim/wavs/mexican_match_declarative-broad-focus_Maria-bebe-el-vino.wav,./stim/wavs/peruvian_match_declarative-broad-focus_Maria-bebe-el-vino.wav,./stim/wavs/puertorican_match_declarative-broad-focus_Maria-bebe-el-vino.wav,,,,,,,,,,,,,,,,,,,,,,,,,,,,,,,,,,,,,,,,,,,,,,,,,,,,,,,,
,,,,,,,60514fe20a8ea24a26a96e85,6057c54e64b0b4e5c128b4f9,605823993aebeca996445d64,Mexico,East coast,12 or younger,no,2021-03-22_00h59.52.643,empathy_intonation_perc,2020.2.10,Win32,60,,,,,,,,,,0,chilean,0,1,1.592895,0,41,41,42,1,43,./stim/wavs/andalusian_mismatch_declarative-narrow-focus_El-nino-oye-el-rio.wav,./stim/wavs/argentine_mismatch_declarative-narrow-focus_El-nino-oye-el-rio.wav,./stim/wavs/castilian_mismatch_declarative-narrow-focus_El-nino-oye-el-rio.wav,./stim/wavs/chilean_mismatch_declarative-narrow-focus_El-nino-oye-el-rio.wav,./stim/wavs/cuban_mismatch_declarative-narrow-focus_El-nino-oye-el-rio.wav,./stim/wavs/mexican_mismatch_declarative-narrow-focus_El-nino-oye-el-rio.wav,./stim/wavs/peruvian_mismatch_declarative-narrow-focus_El-nino-oye-el-rio.wav,./stim/wavs/puertorican_mismatch_declarative-narrow-focus_El-nino-oye-el-rio.wav,,,,,,,,,,,,,,,,,,,,,,,,,,,,,,,,,,,,,,,,,,,,,,,,,,,,,,,,
,,,,,,,60514fe20a8ea24a26a96e85,6057c54e64b0b4e5c128b4f9,605823993aebeca996445d64,Mexico,East coast,12 or younger,no,2021-03-22_00h59.52.643,empathy_intonation_perc,2020.2.10,Win32,60,,,,,,,,,,1,puertorican,0,0,1.510645,0,42,42,58,1,59,./stim/wavs/andalusian_mismatch_interrogative-total-yn_El-nino-oye-el-rio.wav,./stim/wavs/argentine_mismatch_interrogative-total-yn_El-nino-oye-el-rio.wav,./stim/wavs/castilian_mismatch_interrogative-total-yn_El-nino-oye-el-rio.wav,./stim/wavs/chilean_mismatch_interrogative-total-yn_El-nino-oye-el-rio.wav,./stim/wavs/cuban_mismatch_interrogative-total-yn_El-nino-oye-el-rio.wav,./stim/wavs/mexican_mismatch_interrogative-total-yn_El-nino-oye-el-rio.wav,./stim/wavs/peruvian_mismatch_interrogative-total-yn_El-nino-oye-el-rio.wav,./stim/wavs/puertorican_mismatch_interrogative-total-yn_El-nino-oye-el-rio.wav,,,,,,,,,,,,,,,,,,,,,,,,,,,,,,,,,,,,,,,,,,,,,,,,,,,,,,,,
,,,,,,,60514fe20a8ea24a26a96e85,6057c54e64b0b4e5c128b4f9,605823993aebeca996445d64,Mexico,East coast,12 or younger,no,2021-03-22_00h59.52.643,empathy_intonation_perc,2020.2.10,Win32,60,,,,,,,,,,1,mexican,0,0,1.54293,0,43,43,23,1,24,./stim/wavs/andalusian_match_interrogative-partial-wh_Por-que-iba-a-Bolivia.wav,./stim/wavs/argentine_match_interrogative-partial-wh_Por-que-iba-a-Bolivia.wav,./stim/wavs/castilian_match_interrogative-partial-wh_Por-que-iba-a-Bolivia.wav,./stim/wavs/chilean_match_interrogative-partial-wh_Por-que-iba-a-Bolivia.wav,./stim/wavs/cuban_match_interrogative-partial-wh_Por-que-iba-a-Bolivia.wav,./stim/wavs/mexican_match_interrogative-partial-wh_Por-que-iba-a-Bolivia.wav,./stim/wavs/peruvian_match_interrogative-partial-wh_Por-que-iba-a-Bolivia.wav,./stim/wavs/puertorican_match_interrogative-partial-wh_Por-que-iba-a-Bolivia.wav,,,,,,,,,,,,,,,,,,,,,,,,,,,,,,,,,,,,,,,,,,,,,,,,,,,,,,,,
,,,,,,,60514fe20a8ea24a26a96e85,6057c54e64b0b4e5c128b4f9,605823993aebeca996445d64,Mexico,East coast,12 or younger,no,2021-03-22_00h59.52.643,empathy_intonation_perc,2020.2.10,Win32,60,,,,,,,,,,1,chilean,1,1,1.61076,0,44,44,49,1,50,./stim/wavs/andalusian_mismatch_interrogative-partial-wh_Cuando-lavaba-el-plato.wav,./stim/wavs/argentine_mismatch_interrogative-partial-wh_Cuando-lavaba-el-plato.wav,./stim/wavs/castilian_mismatch_interrogative-partial-wh_Cuando-lavaba-el-plato.wav,./stim/wavs/chilean_mismatch_interrogative-partial-wh_Cuando-lavaba-el-plato.wav,./stim/wavs/cuban_mismatch_interrogative-partial-wh_Cuando-lavaba-el-plato.wav,./stim/wavs/mexican_mismatch_interrogative-partial-wh_Cuando-lavaba-el-plato.wav,./stim/wavs/peruvian_mismatch_interrogative-partial-wh_Cuando-lavaba-el-plato.wav,./stim/wavs/puertorican_mismatch_interrogative-partial-wh_Cuando-lavaba-el-plato.wav,,,,,,,,,,,,,,,,,,,,,,,,,,,,,,,,,,,,,,,,,,,,,,,,,,,,,,,,
,,,,,,,60514fe20a8ea24a26a96e85,6057c54e64b0b4e5c128b4f9,605823993aebeca996445d64,Mexico,East coast,12 or younger,no,2021-03-22_00h59.52.643,empathy_intonation_perc,2020.2.10,Win32,60,,,,,,,,,,0,peruvian,0,1,1.876625,0,45,45,44,1,45,./stim/wavs/andalusian_mismatch_declarative-narrow-focus_La-nina-lava-el-plato.wav,./stim/wavs/argentine_mismatch_declarative-narrow-focus_La-nina-lava-el-plato.wav,./stim/wavs/castilian_mismatch_declarative-narrow-focus_La-nina-lava-el-plato.wav,./stim/wavs/chilean_mismatch_declarative-narrow-focus_La-nina-lava-el-plato.wav,./stim/wavs/cuban_mismatch_declarative-narrow-focus_La-nina-lava-el-plato.wav,./stim/wavs/mexican_mismatch_declarative-narrow-focus_La-nina-lava-el-plato.wav,./stim/wavs/peruvian_mismatch_declarative-narrow-focus_La-nina-lava-el-plato.wav,./stim/wavs/puertorican_mismatch_declarative-narrow-focus_La-nina-lava-el-plato.wav,,,,,,,,,,,,,,,,,,,,,,,,,,,,,,,,,,,,,,,,,,,,,,,,,,,,,,,,
,,,,,,,60514fe20a8ea24a26a96e85,6057c54e64b0b4e5c128b4f9,605823993aebeca996445d64,Mexico,East coast,12 or younger,no,2021-03-22_00h59.52.643,empathy_intonation_perc,2020.2.10,Win32,60,,,,,,,,,,0,castilian,0,1,2.184395,0,46,46,8,1,9,./stim/wavs/andalusian_match_declarative-narrow-focus_Ana-lleva-el-abrigo.wav,./stim/wavs/argentine_match_declarative-narrow-focus_Ana-lleva-el-abrigo.wav,./stim/wavs/castilian_match_declarative-narrow-focus_Ana-lleva-el-abrigo.wav,./stim/wavs/chilean_match_declarative-narrow-focus_Ana-lleva-el-abrigo.wav,./stim/wavs/cuban_match_declarative-narrow-focus_Ana-lleva-el-abrigo.wav,./stim/wavs/mexican_match_declarative-narrow-focus_Ana-lleva-el-abrigo.wav,./stim/wavs/peruvian_match_declarative-narrow-focus_Ana-lleva-el-abrigo.wav,./stim/wavs/puertorican_match_declarative-narrow-focus_Ana-lleva-el-abrigo.wav,,,,,,,,,,,,,,,,,,,,,,,,,,,,,,,,,,,,,,,,,,,,,,,,,,,,,,,,
,,,,,,,60514fe20a8ea24a26a96e85,6057c54e64b0b4e5c128b4f9,605823993aebeca996445d64,Mexico,East coast,12 or younger,no,2021-03-22_00h59.52.643,empathy_intonation_perc,2020.2.10,Win32,60,,,,,,,,,,1,puertorican,0,0,1.64483,0,47,47,30,1,31,./stim/wavs/andalusian_match_interrogative-total-yn_Mariano-habla-del-tiempo.wav,./stim/wavs/argentine_match_interrogative-total-yn_Mariano-habla-del-tiempo.wav,./stim/wavs/castilian_match_interrogative-total-yn_Mariano-habla-del-tiempo.wav,./stim/wavs/chilean_match_interrogative-total-yn_Mariano-habla-del-tiempo.wav,./stim/wavs/cuban_match_interrogative-total-yn_Mariano-habla-del-tiempo.wav,./stim/wavs/mexican_match_interrogative-total-yn_Mariano-habla-del-tiempo.wav,./stim/wavs/peruvian_match_interrogative-total-yn_Mariano-habla-del-tiempo.wav,./stim/wavs/puertorican_match_interrogative-total-yn_Mariano-habla-del-tiempo.wav,,,,,,,,,,,,,,,,,,,,,,,,,,,,,,,,,,,,,,,,,,,,,,,,,,,,,,,,
,,,,,,,60514fe20a8ea24a26a96e85,6057c54e64b0b4e5c128b4f9,605823993aebeca996445d64,Mexico,East coast,12 or younger,no,2021-03-22_00h59.52.643,empathy_intonation_perc,2020.2.10,Win32,60,,,,,,,,,,1,mexican,1,1,1.738395,0,48,48,31,1,32,./stim/wavs/andalusian_match_interrogative-total-yn_Marta-abre-el-regalo.wav,./stim/wavs/argentine_match_interrogative-total-yn_Marta-abre-el-regalo.wav,./stim/wavs/castilian_match_interrogative-total-yn_Marta-abre-el-regalo.wav,./stim/wavs/chilean_match_interrogative-total-yn_Marta-abre-el-regalo.wav,./stim/wavs/cuban_match_interrogative-total-yn_Marta-abre-el-regalo.wav,./stim/wavs/mexican_match_interrogative-total-yn_Marta-abre-el-regalo.wav,./stim/wavs/peruvian_match_interrogative-total-yn_Marta-abre-el-regalo.wav,./stim/wavs/puertorican_match_interrogative-total-yn_Marta-abre-el-regalo.wav,,,,,,,,,,,,,,,,,,,,,,,,,,,,,,,,,,,,,,,,,,,,,,,,,,,,,,,,
,,,,,,,60514fe20a8ea24a26a96e85,6057c54e64b0b4e5c128b4f9,605823993aebeca996445d64,Mexico,East coast,12 or younger,no,2021-03-22_00h59.52.643,empathy_intonation_perc,2020.2.10,Win32,60,,,,,,,,,,1,peruvian,0,0,1.495975,0,49,49,16,1,17,./stim/wavs/andalusian_match_interrogative-partial-wh_Cuando-bebia-el-vino.wav,./stim/wavs/argentine_match_interrogative-partial-wh_Cuando-bebia-el-vino.wav,./stim/wavs/castilian_match_interrogative-partial-wh_Cuando-bebia-el-vino.wav,./stim/wavs/chilean_match_interrogative-partial-wh_Cuando-bebia-el-vino.wav,./stim/wavs/cuban_match_interrogative-partial-wh_Cuando-bebia-el-vino.wav,./stim/wavs/mexican_match_interrogative-partial-wh_Cuando-bebia-el-vino.wav,./stim/wavs/peruvian_match_interrogative-partial-wh_Cuando-bebia-el-vino.wav,./stim/wavs/puertorican_match_interrogative-partial-wh_Cuando-bebia-el-vino.wav,,,,,,,,,,,,,,,,,,,,,,,,,,,,,,,,,,,,,,,,,,,,,,,,,,,,,,,,
,,,,,,,60514fe20a8ea24a26a96e85,6057c54e64b0b4e5c128b4f9,605823993aebeca996445d64,Mexico,East coast,12 or younger,no,2021-03-22_00h59.52.643,empathy_intonation_perc,2020.2.10,Win32,60,,,,,,,,,,0,cuban,0,1,1.701785,0,50,50,2,1,3,./stim/wavs/andalusian_match_declarative-broad-focus_David-leia-el-libro.wav,./stim/wavs/argentine_match_declarative-broad-focus_David-leia-el-libro.wav,./stim/wavs/castilian_match_declarative-broad-focus_David-leia-el-libro.wav,./stim/wavs/chilean_match_declarative-broad-focus_David-leia-el-libro.wav,./stim/wavs/cuban_match_declarative-broad-focus_David-leia-el-libro.wav,./stim/wavs/mexican_match_declarative-broad-focus_David-leia-el-libro.wav,./stim/wavs/peruvian_match_declarative-broad-focus_David-leia-el-libro.wav,./stim/wavs/puertorican_match_declarative-broad-focus_David-leia-el-libro.wav,,,,,,,,,,,,,,,,,,,,,,,,,,,,,,,,,,,,,,,,,,,,,,,,,,,,,,,,
,,,,,,,60514fe20a8ea24a26a96e85,6057c54e64b0b4e5c128b4f9,605823993aebeca996445d64,Mexico,East coast,12 or younger,no,2021-03-22_00h59.52.643,empathy_intonation_perc,2020.2.10,Win32,60,,,,,,,,,,1,peruvian,0,0,1.571355,0,51,51,18,1,19,./stim/wavs/andalusian_match_interrogative-partial-wh_Cuando-lleva-el-abrigo.wav,./stim/wavs/argentine_match_interrogative-partial-wh_Cuando-lleva-el-abrigo.wav,./stim/wavs/castilian_match_interrogative-partial-wh_Cuando-lleva-el-abrigo.wav,./stim/wavs/chilean_match_interrogative-partial-wh_Cuando-lleva-el-abrigo.wav,./stim/wavs/cuban_match_interrogative-partial-wh_Cuando-lleva-el-abrigo.wav,./stim/wavs/mexican_match_interrogative-partial-wh_Cuando-lleva-el-abrigo.wav,./stim/wavs/peruvian_match_interrogative-partial-wh_Cuando-lleva-el-abrigo.wav,./stim/wavs/puertorican_match_interrogative-partial-wh_Cuando-lleva-el-abrigo.wav,,,,,,,,,,,,,,,,,,,,,,,,,,,,,,,,,,,,,,,,,,,,,,,,,,,,,,,,
,,,,,,,60514fe20a8ea24a26a96e85,6057c54e64b0b4e5c128b4f9,605823993aebeca996445d64,Mexico,East coast,12 or younger,no,2021-03-22_00h59.52.643,empathy_intonation_perc,2020.2.10,Win32,60,,,,,,,,,,0,chilean,0,1,1.23647,0,52,52,9,1,10,./stim/wavs/andalusian_match_declarative-narrow-focus_Daniel-iba-a-Bolivia.wav,./stim/wavs/argentine_match_declarative-narrow-focus_Daniel-iba-a-Bolivia.wav,./stim/wavs/castilian_match_declarative-narrow-focus_Daniel-iba-a-Bolivia.wav,./stim/wavs/chilean_match_declarative-narrow-focus_Daniel-iba-a-Bolivia.wav,./stim/wavs/cuban_match_declarative-narrow-focus_Daniel-iba-a-Bolivia.wav,./stim/wavs/mexican_match_declarative-narrow-focus_Daniel-iba-a-Bolivia.wav,./stim/wavs/peruvian_match_declarative-narrow-focus_Daniel-iba-a-Bolivia.wav,./stim/wavs/puertorican_match_declarative-narrow-focus_Daniel-iba-a-Bolivia.wav,,,,,,,,,,,,,,,,,,,,,,,,,,,,,,,,,,,,,,,,,,,,,,,,,,,,,,,,
,,,,,,,60514fe20a8ea24a26a96e85,6057c54e64b0b4e5c128b4f9,605823993aebeca996445d64,Mexico,East coast,12 or younger,no,2021-03-22_00h59.52.643,empathy_intonation_perc,2020.2.10,Win32,60,,,,,,,,,,0,puertorican,0,1,1.583145,0,53,53,43,1,44,./stim/wavs/andalusian_mismatch_declarative-narrow-focus_La-maestra-vive-en-Paris.wav,./stim/wavs/argentine_mismatch_declarative-narrow-focus_La-maestra-vive-en-Paris.wav,./stim/wavs/castilian_mismatch_declarative-narrow-focus_La-maestra-vive-en-Paris.wav,./stim/wavs/chilean_mismatch_declarative-narrow-focus_La-maestra-vive-en-Paris.wav,./stim/wavs/cuban_mismatch_declarative-narrow-focus_La-maestra-vive-en-Paris.wav,./stim/wavs/mexican_mismatch_declarative-narrow-focus_La-maestra-vive-en-Paris.wav,./stim/wavs/peruvian_mismatch_declarative-narrow-focus_La-maestra-vive-en-Paris.wav,./stim/wavs/puertorican_mismatch_declarative-narrow-focus_La-maestra-vive-en-Paris.wav,,,,,,,,,,,,,,,,,,,,,,,,,,,,,,,,,,,,,,,,,,,,,,,,,,,,,,,,
,,,,,,,60514fe20a8ea24a26a96e85,6057c54e64b0b4e5c128b4f9,605823993aebeca996445d64,Mexico,East coast,12 or younger,no,2021-03-22_00h59.52.643,empathy_intonation_perc,2020.2.10,Win32,60,,,,,,,,,,1,argentine,0,0,1.394365,0,54,54,17,1,18,./stim/wavs/andalusian_match_interrogative-partial-wh_Cuando-leia-el-libro.wav,./stim/wavs/argentine_match_interrogative-partial-wh_Cuando-leia-el-libro.wav,./stim/wavs/castilian_match_interrogative-partial-wh_Cuando-leia-el-libro.wav,./stim/wavs/chilean_match_interrogative-partial-wh_Cuando-leia-el-libro.wav,./stim/wavs/cuban_match_interrogative-partial-wh_Cuando-leia-el-libro.wav,./stim/wavs/mexican_match_interrogative-partial-wh_Cuando-leia-el-libro.wav,./stim/wavs/peruvian_match_interrogative-partial-wh_Cuando-leia-el-libro.wav,./stim/wavs/puertorican_match_interrogative-partial-wh_Cuando-leia-el-libro.wav,,,,,,,,,,,,,,,,,,,,,,,,,,,,,,,,,,,,,,,,,,,,,,,,,,,,,,,,
,,,,,,,60514fe20a8ea24a26a96e85,6057c54e64b0b4e5c128b4f9,605823993aebeca996445d64,Mexico,East coast,12 or younger,no,2021-03-22_00h59.52.643,empathy_intonation_perc,2020.2.10,Win32,60,,,,,,,,,,0,chilean,0,1,1.47352,0,55,55,7,1,8,./stim/wavs/andalusian_match_declarative-broad-focus_Marta-abre-el-regalo.wav,./stim/wavs/argentine_match_declarative-broad-focus_Marta-abre-el-regalo.wav,./stim/wavs/castilian_match_declarative-broad-focus_Marta-abre-el-regalo.wav,./stim/wavs/chilean_match_declarative-broad-focus_Marta-abre-el-regalo.wav,./stim/wavs/cuban_match_declarative-broad-focus_Marta-abre-el-regalo.wav,./stim/wavs/mexican_match_declarative-broad-focus_Marta-abre-el-regalo.wav,./stim/wavs/peruvian_match_declarative-broad-focus_Marta-abre-el-regalo.wav,./stim/wavs/puertorican_match_declarative-broad-focus_Marta-abre-el-regalo.wav,,,,,,,,,,,,,,,,,,,,,,,,,,,,,,,,,,,,,,,,,,,,,,,,,,,,,,,,
,,,,,,,60514fe20a8ea24a26a96e85,6057c54e64b0b4e5c128b4f9,605823993aebeca996445d64,Mexico,East coast,12 or younger,no,2021-03-22_00h59.52.643,empathy_intonation_perc,2020.2.10,Win32,60,,,,,,,,,,0,andalusian,0,1,2.129545,0,56,56,1,1,2,./stim/wavs/andalusian_match_declarative-broad-focus_Daniel-iba-a-Bolivia.wav,./stim/wavs/argentine_match_declarative-broad-focus_Daniel-iba-a-Bolivia.wav,./stim/wavs/castilian_match_declarative-broad-focus_Daniel-iba-a-Bolivia.wav,./stim/wavs/chilean_match_declarative-broad-focus_Daniel-iba-a-Bolivia.wav,./stim/wavs/cuban_match_declarative-broad-focus_Daniel-iba-a-Bolivia.wav,./stim/wavs/mexican_match_declarative-broad-focus_Daniel-iba-a-Bolivia.wav,./stim/wavs/peruvian_match_declarative-broad-focus_Daniel-iba-a-Bolivia.wav,./stim/wavs/puertorican_match_declarative-broad-focus_Daniel-iba-a-Bolivia.wav,,,,,,,,,,,,,,,,,,,,,,,,,,,,,,,,,,,,,,,,,,,,,,,,,,,,,,,,
,,,,,,,60514fe20a8ea24a26a96e85,6057c54e64b0b4e5c128b4f9,605823993aebeca996445d64,Mexico,East coast,12 or younger,no,2021-03-22_00h59.52.643,empathy_intonation_perc,2020.2.10,Win32,60,,,,,,,,,,0,mexican,0,1,1.501015,0,57,57,15,1,16,./stim/wavs/andalusian_match_declarative-narrow-focus_Marta-abre-el-regalo.wav,./stim/wavs/argentine_match_declarative-narrow-focus_Marta-abre-el-regalo.wav,./stim/wavs/castilian_match_declarative-narrow-focus_Marta-abre-el-regalo.wav,./stim/wavs/chilean_match_declarative-narrow-focus_Marta-abre-el-regalo.wav,./stim/wavs/cuban_match_declarative-narrow-focus_Marta-abre-el-regalo.wav,./stim/wavs/mexican_match_declarative-narrow-focus_Marta-abre-el-regalo.wav,./stim/wavs/peruvian_match_declarative-narrow-focus_Marta-abre-el-regalo.wav,./stim/wavs/puertorican_match_declarative-narrow-focus_Marta-abre-el-regalo.wav,,,,,,,,,,,,,,,,,,,,,,,,,,,,,,,,,,,,,,,,,,,,,,,,,,,,,,,,
,,,,,,,60514fe20a8ea24a26a96e85,6057c54e64b0b4e5c128b4f9,605823993aebeca996445d64,Mexico,East coast,12 or younger,no,2021-03-22_00h59.52.643,empathy_intonation_perc,2020.2.10,Win32,60,,,,,,,,,,1,puertorican,0,0,1.673595,0,58,58,26,1,27,./stim/wavs/andalusian_match_interrogative-total-yn_David-leia-el-libro.wav,./stim/wavs/argentine_match_interrogative-total-yn_David-leia-el-libro.wav,./stim/wavs/castilian_match_interrogative-total-yn_David-leia-el-libro.wav,./stim/wavs/chilean_match_interrogative-total-yn_David-leia-el-libro.wav,./stim/wavs/cuban_match_interrogative-total-yn_David-leia-el-libro.wav,./stim/wavs/mexican_match_interrogative-total-yn_David-leia-el-libro.wav,./stim/wavs/peruvian_match_interrogative-total-yn_David-leia-el-libro.wav,./stim/wavs/puertorican_match_interrogative-total-yn_David-leia-el-libro.wav,,,,,,,,,,,,,,,,,,,,,,,,,,,,,,,,,,,,,,,,,,,,,,,,,,,,,,,,
,,,,,,,60514fe20a8ea24a26a96e85,6057c54e64b0b4e5c128b4f9,605823993aebeca996445d64,Mexico,East coast,12 or younger,no,2021-03-22_00h59.52.643,empathy_intonation_perc,2020.2.10,Win32,60,,,,,,,,,,1,castilian,1,1,1.775955,0,59,59,53,1,54,./stim/wavs/andalusian_mismatch_interrogative-partial-wh_Por-que-oia-el-rio.wav,./stim/wavs/argentine_mismatch_interrogative-partial-wh_Por-que-oia-el-rio.wav,./stim/wavs/castilian_mismatch_interrogative-partial-wh_Por-que-oia-el-rio.wav,./stim/wavs/chilean_mismatch_interrogative-partial-wh_Por-que-oia-el-rio.wav,./stim/wavs/cuban_mismatch_interrogative-partial-wh_Por-que-oia-el-rio.wav,./stim/wavs/mexican_mismatch_interrogative-partial-wh_Por-que-oia-el-rio.wav,./stim/wavs/peruvian_mismatch_interrogative-partial-wh_Por-que-oia-el-rio.wav,./stim/wavs/puertorican_mismatch_interrogative-partial-wh_Por-que-oia-el-rio.wav,,,,,,,,,,,,,,,,,,,,,,,,,,,,,,,,,,,,,,,,,,,,,,,,,,,,,,,,
,,,,,,,60514fe20a8ea24a26a96e85,6057c54e64b0b4e5c128b4f9,605823993aebeca996445d64,Mexico,East coast,12 or younger,no,2021-03-22_00h59.52.643,empathy_intonation_perc,2020.2.10,Win32,60,,,,,,,,,,1,cuban,0,0,1.46803,0,60,60,19,1,20,./stim/wavs/andalusian_match_interrogative-partial-wh_Cuando-vendia-el-carro.wav,./stim/wavs/argentine_match_interrogative-partial-wh_Cuando-vendia-el-carro.wav,./stim/wavs/castilian_match_interrogative-partial-wh_Cuando-vendia-el-carro.wav,./stim/wavs/chilean_match_interrogative-partial-wh_Cuando-vendia-el-carro.wav,./stim/wavs/cuban_match_interrogative-partial-wh_Cuando-vendia-el-carro.wav,./stim/wavs/mexican_match_interrogative-partial-wh_Cuando-vendia-el-carro.wav,./stim/wavs/peruvian_match_interrogative-partial-wh_Cuando-vendia-el-carro.wav,./stim/wavs/puertorican_match_interrogative-partial-wh_Cuando-vendia-el-carro.wav,,,,,,,,,,,,,,,,,,,,,,,,,,,,,,,,,,,,,,,,,,,,,,,,,,,,,,,,
,,,,,,,60514fe20a8ea24a26a96e85,6057c54e64b0b4e5c128b4f9,605823993aebeca996445d64,Mexico,East coast,12 or younger,no,2021-03-22_00h59.52.643,empathy_intonation_perc,2020.2.10,Win32,60,,,,,,,,,,1,puertorican,0,0,1.294455,0,61,61,22,1,23,./stim/wavs/andalusian_match_interrogative-partial-wh_Por-que-hablaba-del-agua.wav,./stim/wavs/argentine_match_interrogative-partial-wh_Por-que-hablaba-del-agua.wav,./stim/wavs/castilian_match_interrogative-partial-wh_Por-que-hablaba-del-agua.wav,./stim/wavs/chilean_match_interrogative-partial-wh_Por-que-hablaba-del-agua.wav,./stim/wavs/cuban_match_interrogative-partial-wh_Por-que-hablaba-del-agua.wav,./stim/wavs/mexican_match_interrogative-partial-wh_Por-que-hablaba-del-agua.wav,./stim/wavs/peruvian_match_interrogative-partial-wh_Por-que-hablaba-del-agua.wav,./stim/wavs/puertorican_match_interrogative-partial-wh_Por-que-hablaba-del-agua.wav,,,,,,,,,,,,,,,,,,,,,,,,,,,,,,,,,,,,,,,,,,,,,,,,,,,,,,,,
,,,,,,,60514fe20a8ea24a26a96e85,6057c54e64b0b4e5c128b4f9,605823993aebeca996445d64,Mexico,East coast,12 or younger,no,2021-03-22_00h59.52.643,empathy_intonation_perc,2020.2.10,Win32,60,,,,,,,,,,0,peruvian,0,1,1.76052,0,62,62,14,1,15,./stim/wavs/andalusian_match_declarative-narrow-focus_Mariano-habla-del-tiempo.wav,./stim/wavs/argentine_match_declarative-narrow-focus_Mariano-habla-del-tiempo.wav,./stim/wavs/castilian_match_declarative-narrow-focus_Mariano-habla-del-tiempo.wav,./stim/wavs/chilean_match_declarative-narrow-focus_Mariano-habla-del-tiempo.wav,./stim/wavs/cuban_match_declarative-narrow-focus_Mariano-habla-del-tiempo.wav,./stim/wavs/mexican_match_declarative-narrow-focus_Mariano-habla-del-tiempo.wav,./stim/wavs/peruvian_match_declarative-narrow-focus_Mariano-habla-del-tiempo.wav,./stim/wavs/puertorican_match_declarative-narrow-focus_Mariano-habla-del-tiempo.wav,,,,,,,,,,,,,,,,,,,,,,,,,,,,,,,,,,,,,,,,,,,,,,,,,,,,,,,,
,,,,,,,60514fe20a8ea24a26a96e85,6057c54e64b0b4e5c128b4f9,605823993aebeca996445d64,Mexico,East coast,12 or younger,no,2021-03-22_00h59.52.643,empathy_intonation_perc,2020.2.10,Win32,60,,,,,,,,,,1,peruvian,1,1,1.967615,0,63,63,20,1,21,./stim/wavs/andalusian_match_interrogative-partial-wh_Por-que-abre-el-regalo.wav,./stim/wavs/argentine_match_interrogative-partial-wh_Por-que-abre-el-regalo.wav,./stim/wavs/castilian_match_interrogative-partial-wh_Por-que-abre-el-regalo.wav,./stim/wavs/chilean_match_interrogative-partial-wh_Por-que-abre-el-regalo.wav,./stim/wavs/cuban_match_interrogative-partial-wh_Por-que-abre-el-regalo.wav,./stim/wavs/mexican_match_interrogative-partial-wh_Por-que-abre-el-regalo.wav,./stim/wavs/peruvian_match_interrogative-partial-wh_Por-que-abre-el-regalo.wav,./stim/wavs/puertorican_match_interrogative-partial-wh_Por-que-abre-el-regalo.wav,,,,,,,,,,,,,,,,,,,,,,,,,,,,,,,,,,,,,,,,,,,,,,,,,,,,,,,,
,,,,,,,60514fe20a8ea24a26a96e85,6057c54e64b0b4e5c128b4f9,605823993aebeca996445d64,Mexico,East coast,12 or younger,no,2021-03-22_00h59.52.643,empathy_intonation_perc,2020.2.10,Win32,60,,,,,,,,,,,,,,,,,,,,,,,,,,,,,h,1,3.96841,0,0,0,0,1,,,,,,,,,,,,,,,,,,,,,,,,,,,,,,,,,,,,,,,,,,,,,,,,
,,,,,"Great! Now we will move on. The next task consists of about 60 trials, in each of which you will see a string of letters. 
  
  Your task is to decide whether this is a real Spanish word or not.",(press the spacebar to continue),60514fe20a8ea24a26a96e85,6057c54e64b0b4e5c128b4f9,605823993aebeca996445d64,Mexico,East coast,12 or younger,no,2021-03-22_00h59.52.643,empathy_intonation_perc,2020.2.10,Win32,60,,,,,,,,,,,,,,,,,,,,,,,,,,,,,,,,,,,,,0,0,0,0,1,,,,,,,,,,,,,,,,,,,,,,,,,,,,,,,,,,,,,,,,,,,
,,,,,"If you think it is an existing Spanish word, you type '1' (for 'REAL'), and if you think it is not an existing Spanish word, you type '0' (for 'FAKE').",(press the spacebar to continue),60514fe20a8ea24a26a96e85,6057c54e64b0b4e5c128b4f9,605823993aebeca996445d64,Mexico,East coast,12 or younger,no,2021-03-22_00h59.52.643,empathy_intonation_perc,2020.2.10,Win32,60,,,,,,,,,,,,,,,,,,,,,,,,,,,,,,,,,,,,,0,1,1,1,1,,,,,,,,,,,,,,,,,,,,,,,,,,,,,,,,,,,,,,,,,,,
,,,,,"If you are sure that the word exists, even though you dont know its exact meaning, you may still respond '1' (REAL). 
  
  But if you are not sure if it is an existing word, you should respond '0' (FAKE).
  
  Let's do a practice round...",(press the spacebar to continue),60514fe20a8ea24a26a96e85,6057c54e64b0b4e5c128b4f9,605823993aebeca996445d64,Mexico,East coast,12 or younger,no,2021-03-22_00h59.52.643,empathy_intonation_perc,2020.2.10,Win32,60,,,,,,,,,,,,,,,,,,,,,,,,,,,,,,,,,,,,,0,2,2,2,1,,,,,,,,,,,,,,,,,,,,,,,,,,,,,,,,,,,,,,,,,,,
,,,,,,,60514fe20a8ea24a26a96e85,6057c54e64b0b4e5c128b4f9,605823993aebeca996445d64,Mexico,East coast,12 or younger,no,2021-03-22_00h59.52.643,empathy_intonation_perc,2020.2.10,Win32,60,,,,,,,,,,0,,,,,,,,,,,,,,,,,,,,,,,,,,,,,,,,1,0,6.269675,0,0,0,0,1,0,depiste,REAL,FAKE,,,,,,,,,,,,,,,,,,,,,,,,,,,,,,,
,,,,,,,60514fe20a8ea24a26a96e85,6057c54e64b0b4e5c128b4f9,605823993aebeca996445d64,Mexico,East coast,12 or younger,no,2021-03-22_00h59.52.643,empathy_intonation_perc,2020.2.10,Win32,60,,,,,,,,,,1,,,,,,,,,,,,,,,,,,,,,,,,,,,,,,,,1,1,0.87387,0,1,1,1,1,0,s,REAL,FAKE,,,,,,,,,,,,,,,,,,,,,,,,,,,,,,,
,,,,,,,60514fe20a8ea24a26a96e85,6057c54e64b0b4e5c128b4f9,605823993aebeca996445d64,Mexico,East coast,12 or younger,no,2021-03-22_00h59.52.643,empathy_intonation_perc,2020.2.10,Win32,60,,,,,,,,,,0,,,,,,,,,,,,,,,,,,,,,,,,,,,,,,,,1,0,0.8741,0,2,2,2,1,0,con,REAL,FAKE,,,,,,,,,,,,,,,,,,,,,,,,,,,,,,,
,,,,,,,60514fe20a8ea24a26a96e85,6057c54e64b0b4e5c128b4f9,605823993aebeca996445d64,Mexico,East coast,12 or younger,no,2021-03-22_00h59.52.643,empathy_intonation_perc,2020.2.10,Win32,60,,,,,,,,,,0,,,,,,,,,,,,,,,,,,,,,,,,,,,,,,,,1,0,0.734815,0,3,3,3,1,0,calpar,REAL,FAKE,,,,,,,,,,,,,,,,,,,,,,,,,,,,,,,
,,,,,,,60514fe20a8ea24a26a96e85,6057c54e64b0b4e5c128b4f9,605823993aebeca996445d64,Mexico,East coast,12 or younger,no,2021-03-22_00h59.52.643,empathy_intonation_perc,2020.2.10,Win32,60,,,,,,,,,,0,,,,,,,,,,,,,,,,,,,,,,,,,,,,,,,,0,1,0.77648,0,4,4,4,1,0,joten,REAL,FAKE,,,,,,,,,,,,,,,,,,,,,,,,,,,,,,,
,,,,,,,60514fe20a8ea24a26a96e85,6057c54e64b0b4e5c128b4f9,605823993aebeca996445d64,Mexico,East coast,12 or younger,no,2021-03-22_00h59.52.643,empathy_intonation_perc,2020.2.10,Win32,60,,,,,,,,,,1,,,,,,,,,,,,,,,,,,,,,,,,,,,,,,,,1,1,1.096775,0,5,5,5,1,0,sacapuntas,REAL,FAKE,,,,,,,,,,,,,,,,,,,,,,,,,,,,,,,
,,,,,,,60514fe20a8ea24a26a96e85,6057c54e64b0b4e5c128b4f9,605823993aebeca996445d64,Mexico,East coast,12 or younger,no,2021-03-22_00h59.52.643,empathy_intonation_perc,2020.2.10,Win32,60,,,,,,,,,,0,,,,,,,,,,,,,,,,,,,,,,,,,,,,,,,,0,1,1.039045,0,6,6,6,1,0,priba,REAL,FAKE,,,,,,,,,,,,,,,,,,,,,,,,,,,,,,,
,,,,,,,60514fe20a8ea24a26a96e85,6057c54e64b0b4e5c128b4f9,605823993aebeca996445d64,Mexico,East coast,12 or younger,no,2021-03-22_00h59.52.643,empathy_intonation_perc,2020.2.10,Win32,60,,,,,,,,,,0,,,,,,,,,,,,,,,,,,,,,,,,,,,,,,,,1,0,1.100215,0,7,7,7,1,0,pelasula,REAL,FAKE,,,,,,,,,,,,,,,,,,,,,,,,,,,,,,,
,,,,,,,60514fe20a8ea24a26a96e85,6057c54e64b0b4e5c128b4f9,605823993aebeca996445d64,Mexico,East coast,12 or younger,no,2021-03-22_00h59.52.643,empathy_intonation_perc,2020.2.10,Win32,60,,,,,,,,,,1,,,,,,,,,,,,,,,,,,,,,,,,,,,,,,,,1,1,0.69056,0,8,8,8,1,0,bien,REAL,FAKE,,,,,,,,,,,,,,,,,,,,,,,,,,,,,,,
,,,,,,,60514fe20a8ea24a26a96e85,6057c54e64b0b4e5c128b4f9,605823993aebeca996445d64,Mexico,East coast,12 or younger,no,2021-03-22_00h59.52.643,empathy_intonation_perc,2020.2.10,Win32,60,,,,,,,,,,1,,,,,,,,,,,,,,,,,,,,,,,,,,,,,,,,1,1,0.608455,0,9,9,9,1,0,casa,REAL,FAKE,,,,,,,,,,,,,,,,,,,,,,,,,,,,,,,
,,,,,,,60514fe20a8ea24a26a96e85,6057c54e64b0b4e5c128b4f9,605823993aebeca996445d64,Mexico,East coast,12 or younger,no,2021-03-22_00h59.52.643,empathy_intonation_perc,2020.2.10,Win32,60,,,,,,,,,,0,,,,,,,,,,,,,,,,,,,,,,,,,,,,,,,,1,0,0.76507,0,10,10,10,1,0,lejo,REAL,FAKE,,,,,,,,,,,,,,,,,,,,,,,,,,,,,,,
,,,,,,,60514fe20a8ea24a26a96e85,6057c54e64b0b4e5c128b4f9,605823993aebeca996445d64,Mexico,East coast,12 or younger,no,2021-03-22_00h59.52.643,empathy_intonation_perc,2020.2.10,Win32,60,,,,,,,,,,0,,,,,,,,,,,,,,,,,,,,,,,,,,,,,,,,0,1,1.652515,0,11,11,11,1,0,pretantas,REAL,FAKE,,,,,,,,,,,,,,,,,,,,,,,,,,,,,,,
,,,,,,,60514fe20a8ea24a26a96e85,6057c54e64b0b4e5c128b4f9,605823993aebeca996445d64,Mexico,East coast,12 or younger,no,2021-03-22_00h59.52.643,empathy_intonation_perc,2020.2.10,Win32,60,,,,,,,,,,0,,,,,,,,,,,,,,,,,,,,,,,,,,,,,,,,,,,,,,,,18,arsa,,,1,0,0.986065,0,0,0,17,1,REAL,FAKE,,,,,,,,,,,,,,,,,,,,,
,,,,,,,60514fe20a8ea24a26a96e85,6057c54e64b0b4e5c128b4f9,605823993aebeca996445d64,Mexico,East coast,12 or younger,no,2021-03-22_00h59.52.643,empathy_intonation_perc,2020.2.10,Win32,60,,,,,,,,,,1,,,,,,,,,,,,,,,,,,,,,,,,,,,,,,,,,,,,,,,,56,musgo,,,0,0,0.92139,0,1,1,55,1,REAL,FAKE,,,,,,,,,,,,,,,,,,,,,
,,,,,,,60514fe20a8ea24a26a96e85,6057c54e64b0b4e5c128b4f9,605823993aebeca996445d64,Mexico,East coast,12 or younger,no,2021-03-22_00h59.52.643,empathy_intonation_perc,2020.2.10,Win32,60,,,,,,,,,,0,,,,,,,,,,,,,,,,,,,,,,,,,,,,,,,,,,,,,,,,35,rompido,,,1,0,0.99216,0,2,2,34,1,REAL,FAKE,,,,,,,,,,,,,,,,,,,,,
,,,,,,,60514fe20a8ea24a26a96e85,6057c54e64b0b4e5c128b4f9,605823993aebeca996445d64,Mexico,East coast,12 or younger,no,2021-03-22_00h59.52.643,empathy_intonation_perc,2020.2.10,Win32,60,,,,,,,,,,1,,,,,,,,,,,,,,,,,,,,,,,,,,,,,,,,,,,,,,,,12,asesinato,,,0,0,1.254325,0,3,3,11,1,REAL,FAKE,,,,,,,,,,,,,,,,,,,,,
,,,,,,,60514fe20a8ea24a26a96e85,6057c54e64b0b4e5c128b4f9,605823993aebeca996445d64,Mexico,East coast,12 or younger,no,2021-03-22_00h59.52.643,empathy_intonation_perc,2020.2.10,Win32,60,,,,,,,,,,1,,,,,,,,,,,,,,,,,,,,,,,,,,,,,,,,,,,,,,,,37,granuja,,,0,0,0.82208,0,4,4,36,1,REAL,FAKE,,,,,,,,,,,,,,,,,,,,,
,,,,,,,60514fe20a8ea24a26a96e85,6057c54e64b0b4e5c128b4f9,605823993aebeca996445d64,Mexico,East coast,12 or younger,no,2021-03-22_00h59.52.643,empathy_intonation_perc,2020.2.10,Win32,60,,,,,,,,,,1,,,,,,,,,,,,,,,,,,,,,,,,,,,,,,,,,,,,,,,,44,cuchara,,,1,1,0.65063,0,5,5,43,1,REAL,FAKE,,,,,,,,,,,,,,,,,,,,,
,,,,,,,60514fe20a8ea24a26a96e85,6057c54e64b0b4e5c128b4f9,605823993aebeca996445d64,Mexico,East coast,12 or younger,no,2021-03-22_00h59.52.643,empathy_intonation_perc,2020.2.10,Win32,60,,,,,,,,,,1,,,,,,,,,,,,,,,,,,,,,,,,,,,,,,,,,,,,,,,,68,alegre,,,1,1,0.81182,0,6,6,67,1,REAL,FAKE,,,,,,,,,,,,,,,,,,,,,
,,,,,,,60514fe20a8ea24a26a96e85,6057c54e64b0b4e5c128b4f9,605823993aebeca996445d64,Mexico,East coast,12 or younger,no,2021-03-22_00h59.52.643,empathy_intonation_perc,2020.2.10,Win32,60,,,,,,,,,,1,,,,,,,,,,,,,,,,,,,,,,,,,,,,,,,,,,,,,,,,5,zapato,,,1,1,0.6258,0,7,7,4,1,REAL,FAKE,,,,,,,,,,,,,,,,,,,,,
,,,,,,,60514fe20a8ea24a26a96e85,6057c54e64b0b4e5c128b4f9,605823993aebeca996445d64,Mexico,East coast,12 or younger,no,2021-03-22_00h59.52.643,empathy_intonation_perc,2020.2.10,Win32,60,,,,,,,,,,1,,,,,,,,,,,,,,,,,,,,,,,,,,,,,,,,,,,,,,,,78,frondoso,,,0,0,0.717295,0,8,8,77,1,REAL,FAKE,,,,,,,,,,,,,,,,,,,,,
,,,,,,,60514fe20a8ea24a26a96e85,6057c54e64b0b4e5c128b4f9,605823993aebeca996445d64,Mexico,East coast,12 or younger,no,2021-03-22_00h59.52.643,empathy_intonation_perc,2020.2.10,Win32,60,,,,,,,,,,0,,,,,,,,,,,,,,,,,,,,,,,,,,,,,,,,,,,,,,,,21,capillo,,,1,0,0.84354,0,9,9,20,1,REAL,FAKE,,,,,,,,,,,,,,,,,,,,,
,,,,,,,60514fe20a8ea24a26a96e85,6057c54e64b0b4e5c128b4f9,605823993aebeca996445d64,Mexico,East coast,12 or younger,no,2021-03-22_00h59.52.643,empathy_intonation_perc,2020.2.10,Win32,60,,,,,,,,,,1,,,,,,,,,,,,,,,,,,,,,,,,,,,,,,,,,,,,,,,,9,hacha,,,0,0,0.881545,0,10,10,8,1,REAL,FAKE,,,,,,,,,,,,,,,,,,,,,
,,,,,,,60514fe20a8ea24a26a96e85,6057c54e64b0b4e5c128b4f9,605823993aebeca996445d64,Mexico,East coast,12 or younger,no,2021-03-22_00h59.52.643,empathy_intonation_perc,2020.2.10,Win32,60,,,,,,,,,,0,,,,,,,,,,,,,,,,,,,,,,,,,,,,,,,,,,,,,,,,8,cadea,,,0,1,1.296955,0,11,11,7,1,REAL,FAKE,,,,,,,,,,,,,,,,,,,,,
,,,,,,,60514fe20a8ea24a26a96e85,6057c54e64b0b4e5c128b4f9,605823993aebeca996445d64,Mexico,East coast,12 or younger,no,2021-03-22_00h59.52.643,empathy_intonation_perc,2020.2.10,Win32,60,,,,,,,,,,1,,,,,,,,,,,,,,,,,,,,,,,,,,,,,,,,,,,,,,,,54,fomentar,,,1,1,1.449275,0,12,12,53,1,REAL,FAKE,,,,,,,,,,,,,,,,,,,,,
,,,,,,,60514fe20a8ea24a26a96e85,6057c54e64b0b4e5c128b4f9,605823993aebeca996445d64,Mexico,East coast,12 or younger,no,2021-03-22_00h59.52.643,empathy_intonation_perc,2020.2.10,Win32,60,,,,,,,,,,1,,,,,,,,,,,,,,,,,,,,,,,,,,,,,,,,,,,,,,,,24,ltigo,,,1,1,0.69296,0,13,13,23,1,REAL,FAKE,,,,,,,,,,,,,,,,,,,,,
,,,,,,,60514fe20a8ea24a26a96e85,6057c54e64b0b4e5c128b4f9,605823993aebeca996445d64,Mexico,East coast,12 or younger,no,2021-03-22_00h59.52.643,empathy_intonation_perc,2020.2.10,Win32,60,,,,,,,,,,1,,,,,,,,,,,,,,,,,,,,,,,,,,,,,,,,,,,,,,,,85,lad,,,0,0,0.72591,0,14,14,84,1,REAL,FAKE,,,,,,,,,,,,,,,,,,,,,
,,,,,,,60514fe20a8ea24a26a96e85,6057c54e64b0b4e5c128b4f9,605823993aebeca996445d64,Mexico,East coast,12 or younger,no,2021-03-22_00h59.52.643,empathy_intonation_perc,2020.2.10,Win32,60,,,,,,,,,,0,,,,,,,,,,,,,,,,,,,,,,,,,,,,,,,,,,,,,,,,82,empirador,,,1,0,1.05431,0,15,15,81,1,REAL,FAKE,,,,,,,,,,,,,,,,,,,,,
,,,,,,,60514fe20a8ea24a26a96e85,6057c54e64b0b4e5c128b4f9,605823993aebeca996445d64,Mexico,East coast,12 or younger,no,2021-03-22_00h59.52.643,empathy_intonation_perc,2020.2.10,Win32,60,,,,,,,,,,1,,,,,,,,,,,,,,,,,,,,,,,,,,,,,,,,,,,,,,,,3,pulmones,,,1,1,0.92791,0,16,16,2,1,REAL,FAKE,,,,,,,,,,,,,,,,,,,,,
,,,,,,,60514fe20a8ea24a26a96e85,6057c54e64b0b4e5c128b4f9,605823993aebeca996445d64,Mexico,East coast,12 or younger,no,2021-03-22_00h59.52.643,empathy_intonation_perc,2020.2.10,Win32,60,,,,,,,,,,1,,,,,,,,,,,,,,,,,,,,,,,,,,,,,,,,,,,,,,,,71,polvoriento,,,0,0,0.680725,0,17,17,70,1,REAL,FAKE,,,,,,,,,,,,,,,,,,,,,
,,,,,,,60514fe20a8ea24a26a96e85,6057c54e64b0b4e5c128b4f9,605823993aebeca996445d64,Mexico,East coast,12 or younger,no,2021-03-22_00h59.52.643,empathy_intonation_perc,2020.2.10,Win32,60,,,,,,,,,,1,,,,,,,,,,,,,,,,,,,,,,,,,,,,,,,,,,,,,,,,55,nevar,,,1,1,0.78916,0,18,18,54,1,REAL,FAKE,,,,,,,,,,,,,,,,,,,,,
,,,,,,,60514fe20a8ea24a26a96e85,6057c54e64b0b4e5c128b4f9,605823993aebeca996445d64,Mexico,East coast,12 or younger,no,2021-03-22_00h59.52.643,empathy_intonation_perc,2020.2.10,Win32,60,,,,,,,,,,0,,,,,,,,,,,,,,,,,,,,,,,,,,,,,,,,,,,,,,,,23,lampera,,,1,0,0.54382,0,19,19,22,1,REAL,FAKE,,,,,,,,,,,,,,,,,,,,,
,,,,,,,60514fe20a8ea24a26a96e85,6057c54e64b0b4e5c128b4f9,605823993aebeca996445d64,Mexico,East coast,12 or younger,no,2021-03-22_00h59.52.643,empathy_intonation_perc,2020.2.10,Win32,60,,,,,,,,,,1,,,,,,,,,,,,,,,,,,,,,,,,,,,,,,,,,,,,,,,,62,flaco,,,1,1,0.874015,0,20,20,61,1,REAL,FAKE,,,,,,,,,,,,,,,,,,,,,
,,,,,,,60514fe20a8ea24a26a96e85,6057c54e64b0b4e5c128b4f9,605823993aebeca996445d64,Mexico,East coast,12 or younger,no,2021-03-22_00h59.52.643,empathy_intonation_perc,2020.2.10,Win32,60,,,,,,,,,,1,,,,,,,,,,,,,,,,,,,,,,,,,,,,,,,,,,,,,,,,38,estornudar,,,0,0,0.922005,0,21,21,37,1,REAL,FAKE,,,,,,,,,,,,,,,,,,,,,
,,,,,,,60514fe20a8ea24a26a96e85,6057c54e64b0b4e5c128b4f9,605823993aebeca996445d64,Mexico,East coast,12 or younger,no,2021-03-22_00h59.52.643,empathy_intonation_perc,2020.2.10,Win32,60,,,,,,,,,,1,,,,,,,,,,,,,,,,,,,,,,,,,,,,,,,,,,,,,,,,75,yacer,,,0,0,0.646375,0,22,22,74,1,REAL,FAKE,,,,,,,,,,,,,,,,,,,,,
,,,,,,,60514fe20a8ea24a26a96e85,6057c54e64b0b4e5c128b4f9,605823993aebeca996445d64,Mexico,East coast,12 or younger,no,2021-03-22_00h59.52.643,empathy_intonation_perc,2020.2.10,Win32,60,,,,,,,,,,0,,,,,,,,,,,,,,,,,,,,,,,,,,,,,,,,,,,,,,,,58,plaudir,,,0,1,0.7399,0,23,23,57,1,REAL,FAKE,,,,,,,,,,,,,,,,,,,,,
,,,,,,,60514fe20a8ea24a26a96e85,6057c54e64b0b4e5c128b4f9,605823993aebeca996445d64,Mexico,East coast,12 or younger,no,2021-03-22_00h59.52.643,empathy_intonation_perc,2020.2.10,Win32,60,,,,,,,,,,1,,,,,,,,,,,,,,,,,,,,,,,,,,,,,,,,,,,,,,,,48,ladrn,,,1,1,0.96623,0,24,24,47,1,REAL,FAKE,,,,,,,,,,,,,,,,,,,,,
,,,,,,,60514fe20a8ea24a26a96e85,6057c54e64b0b4e5c128b4f9,605823993aebeca996445d64,Mexico,East coast,12 or younger,no,2021-03-22_00h59.52.643,empathy_intonation_perc,2020.2.10,Win32,60,,,,,,,,,,1,,,,,,,,,,,,,,,,,,,,,,,,,,,,,,,,,,,,,,,,52,camisa,,,1,1,0.84568,0,25,25,51,1,REAL,FAKE,,,,,,,,,,,,,,,,,,,,,
,,,,,,,60514fe20a8ea24a26a96e85,6057c54e64b0b4e5c128b4f9,605823993aebeca996445d64,Mexico,East coast,12 or younger,no,2021-03-22_00h59.52.643,empathy_intonation_perc,2020.2.10,Win32,60,,,,,,,,,,1,,,,,,,,,,,,,,,,,,,,,,,,,,,,,,,,,,,,,,,,73,hervidor,,,0,0,0.726115,0,26,26,72,1,REAL,FAKE,,,,,,,,,,,,,,,,,,,,,
,,,,,,,60514fe20a8ea24a26a96e85,6057c54e64b0b4e5c128b4f9,605823993aebeca996445d64,Mexico,East coast,12 or younger,no,2021-03-22_00h59.52.643,empathy_intonation_perc,2020.2.10,Win32,60,,,,,,,,,,1,,,,,,,,,,,,,,,,,,,,,,,,,,,,,,,,,,,,,,,,64,orgulloso,,,0,0,0.784395,0,27,27,63,1,REAL,FAKE,,,,,,,,,,,,,,,,,,,,,
,,,,,,,60514fe20a8ea24a26a96e85,6057c54e64b0b4e5c128b4f9,605823993aebeca996445d64,Mexico,East coast,12 or younger,no,2021-03-22_00h59.52.643,empathy_intonation_perc,2020.2.10,Win32,60,,,,,,,,,,1,,,,,,,,,,,,,,,,,,,,,,,,,,,,,,,,,,,,,,,,2,pellizcar,,,1,1,1.217485,0,28,28,1,1,REAL,FAKE,,,,,,,,,,,,,,,,,,,,,
,,,,,,,60514fe20a8ea24a26a96e85,6057c54e64b0b4e5c128b4f9,605823993aebeca996445d64,Mexico,East coast,12 or younger,no,2021-03-22_00h59.52.643,empathy_intonation_perc,2020.2.10,Win32,60,,,,,,,,,,0,,,,,,,,,,,,,,,,,,,,,,,,,,,,,,,,,,,,,,,,87,grodo,,,0,1,0.92331,0,29,29,86,1,REAL,FAKE,,,,,,,,,,,,,,,,,,,,,
,,,,,,,60514fe20a8ea24a26a96e85,6057c54e64b0b4e5c128b4f9,605823993aebeca996445d64,Mexico,East coast,12 or younger,no,2021-03-22_00h59.52.643,empathy_intonation_perc,2020.2.10,Win32,60,,,,,,,,,,0,,,,,,,,,,,,,,,,,,,,,,,,,,,,,,,,,,,,,,,,42,cadallo,,,0,1,0.75635,0,30,30,41,1,REAL,FAKE,,,,,,,,,,,,,,,,,,,,,
,,,,,,,60514fe20a8ea24a26a96e85,6057c54e64b0b4e5c128b4f9,605823993aebeca996445d64,Mexico,East coast,12 or younger,no,2021-03-22_00h59.52.643,empathy_intonation_perc,2020.2.10,Win32,60,,,,,,,,,,1,,,,,,,,,,,,,,,,,,,,,,,,,,,,,,,,,,,,,,,,60,matar,,,1,1,0.745775,0,31,31,59,1,REAL,FAKE,,,,,,,,,,,,,,,,,,,,,
,,,,,,,60514fe20a8ea24a26a96e85,6057c54e64b0b4e5c128b4f9,605823993aebeca996445d64,Mexico,East coast,12 or younger,no,2021-03-22_00h59.52.643,empathy_intonation_perc,2020.2.10,Win32,60,,,,,,,,,,1,,,,,,,,,,,,,,,,,,,,,,,,,,,,,,,,,,,,,,,,49,ganar,,,1,1,0.60241,0,32,32,48,1,REAL,FAKE,,,,,,,,,,,,,,,,,,,,,
,,,,,,,60514fe20a8ea24a26a96e85,6057c54e64b0b4e5c128b4f9,605823993aebeca996445d64,Mexico,East coast,12 or younger,no,2021-03-22_00h59.52.643,empathy_intonation_perc,2020.2.10,Win32,60,,,,,,,,,,1,,,,,,,,,,,,,,,,,,,,,,,,,,,,,,,,,,,,,,,,15,regar,,,1,1,0.55331,0,33,33,14,1,REAL,FAKE,,,,,,,,,,,,,,,,,,,,,
,,,,,,,60514fe20a8ea24a26a96e85,6057c54e64b0b4e5c128b4f9,605823993aebeca996445d64,Mexico,East coast,12 or younger,no,2021-03-22_00h59.52.643,empathy_intonation_perc,2020.2.10,Win32,60,,,,,,,,,,0,,,,,,,,,,,,,,,,,,,,,,,,,,,,,,,,,,,,,,,,84,escuto,,,1,0,1.166925,0,34,34,83,1,REAL,FAKE,,,,,,,,,,,,,,,,,,,,,
,,,,,,,60514fe20a8ea24a26a96e85,6057c54e64b0b4e5c128b4f9,605823993aebeca996445d64,Mexico,East coast,12 or younger,no,2021-03-22_00h59.52.643,empathy_intonation_perc,2020.2.10,Win32,60,,,,,,,,,,1,,,,,,,,,,,,,,,,,,,,,,,,,,,,,,,,,,,,,,,,43,canela,,,0,0,1.086485,0,35,35,42,1,REAL,FAKE,,,,,,,,,,,,,,,,,,,,,
,,,,,,,60514fe20a8ea24a26a96e85,6057c54e64b0b4e5c128b4f9,605823993aebeca996445d64,Mexico,East coast,12 or younger,no,2021-03-22_00h59.52.643,empathy_intonation_perc,2020.2.10,Win32,60,,,,,,,,,,1,,,,,,,,,,,,,,,,,,,,,,,,,,,,,,,,,,,,,,,,65,bizcocho,,,0,0,0.589845,0,36,36,64,1,REAL,FAKE,,,,,,,,,,,,,,,,,,,,,
,,,,,,,60514fe20a8ea24a26a96e85,6057c54e64b0b4e5c128b4f9,605823993aebeca996445d64,Mexico,East coast,12 or younger,no,2021-03-22_00h59.52.643,empathy_intonation_perc,2020.2.10,Win32,60,,,,,,,,,,0,,,,,,,,,,,,,,,,,,,,,,,,,,,,,,,,,,,,,,,,30,alardio,,,0,1,0.683345,0,37,37,29,1,REAL,FAKE,,,,,,,,,,,,,,,,,,,,,
,,,,,,,60514fe20a8ea24a26a96e85,6057c54e64b0b4e5c128b4f9,605823993aebeca996445d64,Mexico,East coast,12 or younger,no,2021-03-22_00h59.52.643,empathy_intonation_perc,2020.2.10,Win32,60,,,,,,,,,,1,,,,,,,,,,,,,,,,,,,,,,,,,,,,,,,,,,,,,,,,22,lacayo,,,1,1,1.114395,0,38,38,21,1,REAL,FAKE,,,,,,,,,,,,,,,,,,,,,
,,,,,,,60514fe20a8ea24a26a96e85,6057c54e64b0b4e5c128b4f9,605823993aebeca996445d64,Mexico,East coast,12 or younger,no,2021-03-22_00h59.52.643,empathy_intonation_perc,2020.2.10,Win32,60,,,,,,,,,,0,,,,,,,,,,,,,,,,,,,,,,,,,,,,,,,,,,,,,,,,63,esposante,,,0,1,0.53789,0,39,39,62,1,REAL,FAKE,,,,,,,,,,,,,,,,,,,,,
,,,,,,,60514fe20a8ea24a26a96e85,6057c54e64b0b4e5c128b4f9,605823993aebeca996445d64,Mexico,East coast,12 or younger,no,2021-03-22_00h59.52.643,empathy_intonation_perc,2020.2.10,Win32,60,,,,,,,,,,0,,,,,,,,,,,,,,,,,,,,,,,,,,,,,,,,,,,,,,,,74,cintro,,,0,1,0.61006,0,40,40,73,1,REAL,FAKE,,,,,,,,,,,,,,,,,,,,,
,,,,,,,60514fe20a8ea24a26a96e85,6057c54e64b0b4e5c128b4f9,605823993aebeca996445d64,Mexico,East coast,12 or younger,no,2021-03-22_00h59.52.643,empathy_intonation_perc,2020.2.10,Win32,60,,,,,,,,,,1,,,,,,,,,,,,,,,,,,,,,,,,,,,,,,,,,,,,,,,,7,psimo,,,1,1,0.65294,0,41,41,6,1,REAL,FAKE,,,,,,,,,,,,,,,,,,,,,
,,,,,,,60514fe20a8ea24a26a96e85,6057c54e64b0b4e5c128b4f9,605823993aebeca996445d64,Mexico,East coast,12 or younger,no,2021-03-22_00h59.52.643,empathy_intonation_perc,2020.2.10,Win32,60,,,,,,,,,,1,,,,,,,,,,,,,,,,,,,,,,,,,,,,,,,,,,,,,,,,67,cabello,,,0,0,0.663785,0,42,42,66,1,REAL,FAKE,,,,,,,,,,,,,,,,,,,,,
,,,,,,,60514fe20a8ea24a26a96e85,6057c54e64b0b4e5c128b4f9,605823993aebeca996445d64,Mexico,East coast,12 or younger,no,2021-03-22_00h59.52.643,empathy_intonation_perc,2020.2.10,Win32,60,,,,,,,,,,0,,,,,,,,,,,,,,,,,,,,,,,,,,,,,,,,,,,,,,,,53,vegada,,,0,1,3.35139,0,43,43,52,1,REAL,FAKE,,,,,,,,,,,,,,,,,,,,,
,,,,,,,60514fe20a8ea24a26a96e85,6057c54e64b0b4e5c128b4f9,605823993aebeca996445d64,Mexico,East coast,12 or younger,no,2021-03-22_00h59.52.643,empathy_intonation_perc,2020.2.10,Win32,60,,,,,,,,,,1,,,,,,,,,,,,,,,,,,,,,,,,,,,,,,,,,,,,,,,,88,acantilado,,,0,0,0.69952,0,44,44,87,1,REAL,FAKE,,,,,,,,,,,,,,,,,,,,,
,,,,,,,60514fe20a8ea24a26a96e85,6057c54e64b0b4e5c128b4f9,605823993aebeca996445d64,Mexico,East coast,12 or younger,no,2021-03-22_00h59.52.643,empathy_intonation_perc,2020.2.10,Win32,60,,,,,,,,,,1,,,,,,,,,,,,,,,,,,,,,,,,,,,,,,,,,,,,,,,,31,pandilla,,,1,1,0.670795,0,45,45,30,1,REAL,FAKE,,,,,,,,,,,,,,,,,,,,,
,,,,,,,60514fe20a8ea24a26a96e85,6057c54e64b0b4e5c128b4f9,605823993aebeca996445d64,Mexico,East coast,12 or younger,no,2021-03-22_00h59.52.643,empathy_intonation_perc,2020.2.10,Win32,60,,,,,,,,,,0,,,,,,,,,,,,,,,,,,,,,,,,,,,,,,,,,,,,,,,,29,decar,,,1,0,0.662485,0,46,46,28,1,REAL,FAKE,,,,,,,,,,,,,,,,,,,,,
,,,,,,,60514fe20a8ea24a26a96e85,6057c54e64b0b4e5c128b4f9,605823993aebeca996445d64,Mexico,East coast,12 or younger,no,2021-03-22_00h59.52.643,empathy_intonation_perc,2020.2.10,Win32,60,,,,,,,,,,1,,,,,,,,,,,,,,,,,,,,,,,,,,,,,,,,,,,,,,,,89,prisa,,,1,1,0.79876,0,47,47,88,1,REAL,FAKE,,,,,,,,,,,,,,,,,,,,,
,,,,,,,60514fe20a8ea24a26a96e85,6057c54e64b0b4e5c128b4f9,605823993aebeca996445d64,Mexico,East coast,12 or younger,no,2021-03-22_00h59.52.643,empathy_intonation_perc,2020.2.10,Win32,60,,,,,,,,,,1,,,,,,,,,,,,,,,,,,,,,,,,,,,,,,,,,,,,,,,,26,secuestro,,,1,1,1.086235,0,48,48,25,1,REAL,FAKE,,,,,,,,,,,,,,,,,,,,,
,,,,,,,60514fe20a8ea24a26a96e85,6057c54e64b0b4e5c128b4f9,605823993aebeca996445d64,Mexico,East coast,12 or younger,no,2021-03-22_00h59.52.643,empathy_intonation_perc,2020.2.10,Win32,60,,,,,,,,,,0,,,,,,,,,,,,,,,,,,,,,,,,,,,,,,,,,,,,,,,,66,hacido,,,0,1,0.689625,0,49,49,65,1,REAL,FAKE,,,,,,,,,,,,,,,,,,,,,
,,,,,,,60514fe20a8ea24a26a96e85,6057c54e64b0b4e5c128b4f9,605823993aebeca996445d64,Mexico,East coast,12 or younger,no,2021-03-22_00h59.52.643,empathy_intonation_perc,2020.2.10,Win32,60,,,,,,,,,,0,,,,,,,,,,,,,,,,,,,,,,,,,,,,,,,,,,,,,,,,70,temblo,,,0,1,0.88936,0,50,50,69,1,REAL,FAKE,,,,,,,,,,,,,,,,,,,,,
,,,,,,,60514fe20a8ea24a26a96e85,6057c54e64b0b4e5c128b4f9,605823993aebeca996445d64,Mexico,East coast,12 or younger,no,2021-03-22_00h59.52.643,empathy_intonation_perc,2020.2.10,Win32,60,,,,,,,,,,1,,,,,,,,,,,,,,,,,,,,,,,,,,,,,,,,,,,,,,,,51,candado,,,0,0,0.66912,0,51,51,50,1,REAL,FAKE,,,,,,,,,,,,,,,,,,,,,
,,,,,,,60514fe20a8ea24a26a96e85,6057c54e64b0b4e5c128b4f9,605823993aebeca996445d64,Mexico,East coast,12 or younger,no,2021-03-22_00h59.52.643,empathy_intonation_perc,2020.2.10,Win32,60,,,,,,,,,,1,,,,,,,,,,,,,,,,,,,,,,,,,,,,,,,,,,,,,,,,77,tiburn,,,1,1,1.283085,0,52,52,76,1,REAL,FAKE,,,,,,,,,,,,,,,,,,,,,
,,,,,,,60514fe20a8ea24a26a96e85,6057c54e64b0b4e5c128b4f9,605823993aebeca996445d64,Mexico,East coast,12 or younger,no,2021-03-22_00h59.52.643,empathy_intonation_perc,2020.2.10,Win32,60,,,,,,,,,,1,,,,,,,,,,,,,,,,,,,,,,,,,,,,,,,,,,,,,,,,14,yunque,,,0,0,0.513845,0,53,53,13,1,REAL,FAKE,,,,,,,,,,,,,,,,,,,,,
,,,,,,,60514fe20a8ea24a26a96e85,6057c54e64b0b4e5c128b4f9,605823993aebeca996445d64,Mexico,East coast,12 or younger,no,2021-03-22_00h59.52.643,empathy_intonation_perc,2020.2.10,Win32,60,,,,,,,,,,1,,,,,,,,,,,,,,,,,,,,,,,,,,,,,,,,,,,,,,,,59,besar,,,1,1,0.66884,0,54,54,58,1,REAL,FAKE,,,,,,,,,,,,,,,,,,,,,
,,,,,,,60514fe20a8ea24a26a96e85,6057c54e64b0b4e5c128b4f9,605823993aebeca996445d64,Mexico,East coast,12 or younger,no,2021-03-22_00h59.52.643,empathy_intonation_perc,2020.2.10,Win32,60,,,,,,,,,,0,,,,,,,,,,,,,,,,,,,,,,,,,,,,,,,,,,,,,,,,19,brecedad,,,0,1,0.61369,0,55,55,18,1,REAL,FAKE,,,,,,,,,,,,,,,,,,,,,
,,,,,,,60514fe20a8ea24a26a96e85,6057c54e64b0b4e5c128b4f9,605823993aebeca996445d64,Mexico,East coast,12 or younger,no,2021-03-22_00h59.52.643,empathy_intonation_perc,2020.2.10,Win32,60,,,,,,,,,,0,,,,,,,,,,,,,,,,,,,,,,,,,,,,,,,,,,,,,,,,32,fatacidad,,,0,1,0.717565,0,56,56,31,1,REAL,FAKE,,,,,,,,,,,,,,,,,,,,,
,,,,,,,60514fe20a8ea24a26a96e85,6057c54e64b0b4e5c128b4f9,605823993aebeca996445d64,Mexico,East coast,12 or younger,no,2021-03-22_00h59.52.643,empathy_intonation_perc,2020.2.10,Win32,60,,,,,,,,,,1,,,,,,,,,,,,,,,,,,,,,,,,,,,,,,,,,,,,,,,,45,jilguero,,,0,0,0.531915,0,57,57,44,1,REAL,FAKE,,,,,,,,,,,,,,,,,,,,,
,,,,,,,60514fe20a8ea24a26a96e85,6057c54e64b0b4e5c128b4f9,605823993aebeca996445d64,Mexico,East coast,12 or younger,no,2021-03-22_00h59.52.643,empathy_intonation_perc,2020.2.10,Win32,60,,,,,,,,,,1,,,,,,,,,,,,,,,,,,,,,,,,,,,,,,,,,,,,,,,,83,guante,,,0,0,0.979095,0,58,58,82,1,REAL,FAKE,,,,,,,,,,,,,,,,,,,,,
,,,,,,,60514fe20a8ea24a26a96e85,6057c54e64b0b4e5c128b4f9,605823993aebeca996445d64,Mexico,East coast,12 or younger,no,2021-03-22_00h59.52.643,empathy_intonation_perc,2020.2.10,Win32,60,,,,,,,,,,0,,,,,,,,,,,,,,,,,,,,,,,,,,,,,,,,,,,,,,,,72,pemicin,,,0,1,0.66386,0,59,59,71,1,REAL,FAKE,,,,,,,,,,,,,,,,,,,,,
,,,,,,,60514fe20a8ea24a26a96e85,6057c54e64b0b4e5c128b4f9,605823993aebeca996445d64,Mexico,East coast,12 or younger,no,2021-03-22_00h59.52.643,empathy_intonation_perc,2020.2.10,Win32,60,,,,,,,,,,1,,,,,,,,,,,,,,,,,,,,,,,,,,,,,,,,,,,,,,,,57,tacao,,,1,1,0.968045,0,60,60,56,1,REAL,FAKE,,,,,,,,,,,,,,,,,,,,,
,,,,,,,60514fe20a8ea24a26a96e85,6057c54e64b0b4e5c128b4f9,605823993aebeca996445d64,Mexico,East coast,12 or younger,no,2021-03-22_00h59.52.643,empathy_intonation_perc,2020.2.10,Win32,60,,,,,,,,,,0,,,,,,,,,,,,,,,,,,,,,,,,,,,,,,,,,,,,,,,,33,pauca,,,1,0,0.978585,0,61,61,32,1,REAL,FAKE,,,,,,,,,,,,,,,,,,,,,
,,,,,,,60514fe20a8ea24a26a96e85,6057c54e64b0b4e5c128b4f9,605823993aebeca996445d64,Mexico,East coast,12 or younger,no,2021-03-22_00h59.52.643,empathy_intonation_perc,2020.2.10,Win32,60,,,,,,,,,,1,,,,,,,,,,,,,,,,,,,,,,,,,,,,,,,,,,,,,,,,34,aviso,,,1,1,1.029645,0,62,62,33,1,REAL,FAKE,,,,,,,,,,,,,,,,,,,,,
,,,,,,,60514fe20a8ea24a26a96e85,6057c54e64b0b4e5c128b4f9,605823993aebeca996445d64,Mexico,East coast,12 or younger,no,2021-03-22_00h59.52.643,empathy_intonation_perc,2020.2.10,Win32,60,,,,,,,,,,1,,,,,,,,,,,,,,,,,,,,,,,,,,,,,,,,,,,,,,,,13,helar,,,0,0,0.59531,0,63,63,12,1,REAL,FAKE,,,,,,,,,,,,,,,,,,,,,
,,,,,,,60514fe20a8ea24a26a96e85,6057c54e64b0b4e5c128b4f9,605823993aebeca996445d64,Mexico,East coast,12 or younger,no,2021-03-22_00h59.52.643,empathy_intonation_perc,2020.2.10,Win32,60,,,,,,,,,,1,,,,,,,,,,,,,,,,,,,,,,,,,,,,,,,,,,,,,,,,36,loro,,,0,0,0.5939,0,64,64,35,1,REAL,FAKE,,,,,,,,,,,,,,,,,,,,,
,,,,,,,60514fe20a8ea24a26a96e85,6057c54e64b0b4e5c128b4f9,605823993aebeca996445d64,Mexico,East coast,12 or younger,no,2021-03-22_00h59.52.643,empathy_intonation_perc,2020.2.10,Win32,60,,,,,,,,,,0,,,,,,,,,,,,,,,,,,,,,,,,,,,,,,,,,,,,,,,,50,flamida,,,0,1,0.801815,0,65,65,49,1,REAL,FAKE,,,,,,,,,,,,,,,,,,,,,
,,,,,,,60514fe20a8ea24a26a96e85,6057c54e64b0b4e5c128b4f9,605823993aebeca996445d64,Mexico,East coast,12 or younger,no,2021-03-22_00h59.52.643,empathy_intonation_perc,2020.2.10,Win32,60,,,,,,,,,,1,,,,,,,,,,,,,,,,,,,,,,,,,,,,,,,,,,,,,,,,46,martillo,,,1,1,0.78349,0,66,66,45,1,REAL,FAKE,,,,,,,,,,,,,,,,,,,,,
,,,,,,,60514fe20a8ea24a26a96e85,6057c54e64b0b4e5c128b4f9,605823993aebeca996445d64,Mexico,East coast,12 or younger,no,2021-03-22_00h59.52.643,empathy_intonation_perc,2020.2.10,Win32,60,,,,,,,,,,1,,,,,,,,,,,,,,,,,,,,,,,,,,,,,,,,,,,,,,,,61,seda,,,1,1,0.573085,0,67,67,60,1,REAL,FAKE,,,,,,,,,,,,,,,,,,,,,
,,,,,,,60514fe20a8ea24a26a96e85,6057c54e64b0b4e5c128b4f9,605823993aebeca996445d64,Mexico,East coast,12 or younger,no,2021-03-22_00h59.52.643,empathy_intonation_perc,2020.2.10,Win32,60,,,,,,,,,,1,,,,,,,,,,,,,,,,,,,,,,,,,,,,,,,,,,,,,,,,76,atar,,,0,0,0.568385,0,68,68,75,1,REAL,FAKE,,,,,,,,,,,,,,,,,,,,,
,,,,,,,60514fe20a8ea24a26a96e85,6057c54e64b0b4e5c128b4f9,605823993aebeca996445d64,Mexico,East coast,12 or younger,no,2021-03-22_00h59.52.643,empathy_intonation_perc,2020.2.10,Win32,60,,,,,,,,,,0,,,,,,,,,,,,,,,,,,,,,,,,,,,,,,,,,,,,,,,,17,floroso,,,0,1,0.643945,0,69,69,16,1,REAL,FAKE,,,,,,,,,,,,,,,,,,,,,
,,,,,,,60514fe20a8ea24a26a96e85,6057c54e64b0b4e5c128b4f9,605823993aebeca996445d64,Mexico,East coast,12 or younger,no,2021-03-22_00h59.52.643,empathy_intonation_perc,2020.2.10,Win32,60,,,,,,,,,,1,,,,,,,,,,,,,,,,,,,,,,,,,,,,,,,,,,,,,,,,69,engatusar,,,0,0,0.592635,0,70,70,68,1,REAL,FAKE,,,,,,,,,,,,,,,,,,,,,
,,,,,,,60514fe20a8ea24a26a96e85,6057c54e64b0b4e5c128b4f9,605823993aebeca996445d64,Mexico,East coast,12 or younger,no,2021-03-22_00h59.52.643,empathy_intonation_perc,2020.2.10,Win32,60,,,,,,,,,,1,,,,,,,,,,,,,,,,,,,,,,,,,,,,,,,,,,,,,,,,25,bisagra,,,0,0,0.66496,0,71,71,24,1,REAL,FAKE,,,,,,,,,,,,,,,,,,,,,
,,,,,,,60514fe20a8ea24a26a96e85,6057c54e64b0b4e5c128b4f9,605823993aebeca996445d64,Mexico,East coast,12 or younger,no,2021-03-22_00h59.52.643,empathy_intonation_perc,2020.2.10,Win32,60,,,,,,,,,,1,,,,,,,,,,,,,,,,,,,,,,,,,,,,,,,,,,,,,,,,11,cenefa,,,0,0,0.617175,0,72,72,10,1,REAL,FAKE,,,,,,,,,,,,,,,,,,,,,
,,,,,,,60514fe20a8ea24a26a96e85,6057c54e64b0b4e5c128b4f9,605823993aebeca996445d64,Mexico,East coast,12 or younger,no,2021-03-22_00h59.52.643,empathy_intonation_perc,2020.2.10,Win32,60,,,,,,,,,,0,,,,,,,,,,,,,,,,,,,,,,,,,,,,,,,,,,,,,,,,1,terzo,,,1,0,1.04403,0,73,73,0,1,REAL,FAKE,,,,,,,,,,,,,,,,,,,,,
,,,,,,,60514fe20a8ea24a26a96e85,6057c54e64b0b4e5c128b4f9,605823993aebeca996445d64,Mexico,East coast,12 or younger,no,2021-03-22_00h59.52.643,empathy_intonation_perc,2020.2.10,Win32,60,,,,,,,,,,1,,,,,,,,,,,,,,,,,,,,,,,,,,,,,,,,,,,,,,,,6,tergiversar,,,0,0,0.628265,0,74,74,5,1,REAL,FAKE,,,,,,,,,,,,,,,,,,,,,
,,,,,,,60514fe20a8ea24a26a96e85,6057c54e64b0b4e5c128b4f9,605823993aebeca996445d64,Mexico,East coast,12 or younger,no,2021-03-22_00h59.52.643,empathy_intonation_perc,2020.2.10,Win32,60,,,,,,,,,,1,,,,,,,,,,,,,,,,,,,,,,,,,,,,,,,,,,,,,,,,86,barato,,,1,1,0.804725,0,75,75,85,1,REAL,FAKE,,,,,,,,,,,,,,,,,,,,,
,,,,,,,60514fe20a8ea24a26a96e85,6057c54e64b0b4e5c128b4f9,605823993aebeca996445d64,Mexico,East coast,12 or younger,no,2021-03-22_00h59.52.643,empathy_intonation_perc,2020.2.10,Win32,60,,,,,,,,,,0,,,,,,,,,,,,,,,,,,,,,,,,,,,,,,,,,,,,,,,,4,batilln,,,1,0,0.71427,0,76,76,3,1,REAL,FAKE,,,,,,,,,,,,,,,,,,,,,
,,,,,,,60514fe20a8ea24a26a96e85,6057c54e64b0b4e5c128b4f9,605823993aebeca996445d64,Mexico,East coast,12 or younger,no,2021-03-22_00h59.52.643,empathy_intonation_perc,2020.2.10,Win32,60,,,,,,,,,,1,,,,,,,,,,,,,,,,,,,,,,,,,,,,,,,,,,,,,,,,39,torpe,,,0,0,0.85844,0,77,77,38,1,REAL,FAKE,,,,,,,,,,,,,,,,,,,,,
,,,,,,,60514fe20a8ea24a26a96e85,6057c54e64b0b4e5c128b4f9,605823993aebeca996445d64,Mexico,East coast,12 or younger,no,2021-03-22_00h59.52.643,empathy_intonation_perc,2020.2.10,Win32,60,,,,,,,,,,1,,,,,,,,,,,,,,,,,,,,,,,,,,,,,,,,,,,,,,,,28,merodear,,,0,0,0.64515,0,78,78,27,1,REAL,FAKE,,,,,,,,,,,,,,,,,,,,,
,,,,,,,60514fe20a8ea24a26a96e85,6057c54e64b0b4e5c128b4f9,605823993aebeca996445d64,Mexico,East coast,12 or younger,no,2021-03-22_00h59.52.643,empathy_intonation_perc,2020.2.10,Win32,60,,,,,,,,,,0,,,,,,,,,,,,,,,,,,,,,,,,,,,,,,,,,,,,,,,,10,antar,,,1,0,0.718895,0,79,79,9,1,REAL,FAKE,,,,,,,,,,,,,,,,,,,,,
,,,,,,,60514fe20a8ea24a26a96e85,6057c54e64b0b4e5c128b4f9,605823993aebeca996445d64,Mexico,East coast,12 or younger,no,2021-03-22_00h59.52.643,empathy_intonation_perc,2020.2.10,Win32,60,,,,,,,,,,0,,,,,,,,,,,,,,,,,,,,,,,,,,,,,,,,,,,,,,,,16,abracer,,,1,0,0.991555,0,80,80,15,1,REAL,FAKE,,,,,,,,,,,,,,,,,,,,,
,,,,,,,60514fe20a8ea24a26a96e85,6057c54e64b0b4e5c128b4f9,605823993aebeca996445d64,Mexico,East coast,12 or younger,no,2021-03-22_00h59.52.643,empathy_intonation_perc,2020.2.10,Win32,60,,,,,,,,,,0,,,,,,,,,,,,,,,,,,,,,,,,,,,,,,,,,,,,,,,,27,acutacin,,,0,1,0.716685,0,81,81,26,1,REAL,FAKE,,,,,,,,,,,,,,,,,,,,,
,,,,,,,60514fe20a8ea24a26a96e85,6057c54e64b0b4e5c128b4f9,605823993aebeca996445d64,Mexico,East coast,12 or younger,no,2021-03-22_00h59.52.643,empathy_intonation_perc,2020.2.10,Win32,60,,,,,,,,,,0,,,,,,,,,,,,,,,,,,,,,,,,,,,,,,,,,,,,,,,,47,cartinar,,,1,0,0.594075,0,82,82,46,1,REAL,FAKE,,,,,,,,,,,,,,,,,,,,,
,,,,,,,60514fe20a8ea24a26a96e85,6057c54e64b0b4e5c128b4f9,605823993aebeca996445d64,Mexico,East coast,12 or younger,no,2021-03-22_00h59.52.643,empathy_intonation_perc,2020.2.10,Win32,60,,,,,,,,,,1,,,,,,,,,,,,,,,,,,,,,,,,,,,,,,,,,,,,,,,,41,rebuscar,,,1,1,0.6862,0,83,83,40,1,REAL,FAKE,,,,,,,,,,,,,,,,,,,,,
,,,,,,,60514fe20a8ea24a26a96e85,6057c54e64b0b4e5c128b4f9,605823993aebeca996445d64,Mexico,East coast,12 or younger,no,2021-03-22_00h59.52.643,empathy_intonation_perc,2020.2.10,Win32,60,,,,,,,,,,1,,,,,,,,,,,,,,,,,,,,,,,,,,,,,,,,,,,,,,,,90,clavel,,,0,0,0.76217,0,84,84,89,1,REAL,FAKE,,,,,,,,,,,,,,,,,,,,,
,,,,,,,60514fe20a8ea24a26a96e85,6057c54e64b0b4e5c128b4f9,605823993aebeca996445d64,Mexico,East coast,12 or younger,no,2021-03-22_00h59.52.643,empathy_intonation_perc,2020.2.10,Win32,60,,,,,,,,,,1,,,,,,,,,,,,,,,,,,,,,,,,,,,,,,,,,,,,,,,,81,pozo,,,0,0,1.19246,0,85,85,80,1,REAL,FAKE,,,,,,,,,,,,,,,,,,,,,
,,,,,,,60514fe20a8ea24a26a96e85,6057c54e64b0b4e5c128b4f9,605823993aebeca996445d64,Mexico,East coast,12 or younger,no,2021-03-22_00h59.52.643,empathy_intonation_perc,2020.2.10,Win32,60,,,,,,,,,,1,,,,,,,,,,,,,,,,,,,,,,,,,,,,,,,,,,,,,,,,80,hormiga,,,1,1,0.948145,0,86,86,79,1,REAL,FAKE,,,,,,,,,,,,,,,,,,,,,
,,,,,,,60514fe20a8ea24a26a96e85,6057c54e64b0b4e5c128b4f9,605823993aebeca996445d64,Mexico,East coast,12 or younger,no,2021-03-22_00h59.52.643,empathy_intonation_perc,2020.2.10,Win32,60,,,,,,,,,,0,,,,,,,,,,,,,,,,,,,,,,,,,,,,,,,,,,,,,,,,79,tropaje,,,0,1,0.80746,0,87,87,78,1,REAL,FAKE,,,,,,,,,,,,,,,,,,,,,
,,,,,,,60514fe20a8ea24a26a96e85,6057c54e64b0b4e5c128b4f9,605823993aebeca996445d64,Mexico,East coast,12 or younger,no,2021-03-22_00h59.52.643,empathy_intonation_perc,2020.2.10,Win32,60,,,,,,,,,,1,,,,,,,,,,,,,,,,,,,,,,,,,,,,,,,,,,,,,,,,20,vido,,,1,1,0.647945,0,88,88,19,1,REAL,FAKE,,,,,,,,,,,,,,,,,,,,,
,,,,,,,60514fe20a8ea24a26a96e85,6057c54e64b0b4e5c128b4f9,605823993aebeca996445d64,Mexico,East coast,12 or younger,no,2021-03-22_00h59.52.643,empathy_intonation_perc,2020.2.10,Win32,60,,,,,,,,,,1,,,,,,,,,,,,,,,,,,,,,,,,,,,,,,,,,,,,,,,,40,alfombra,,,0,0,0.632225,0,89,89,39,1,REAL,FAKE,,,,,,,,,,,,,,,,,,,,,
,,,,,,,60514fe20a8ea24a26a96e85,6057c54e64b0b4e5c128b4f9,605823993aebeca996445d64,Mexico,East coast,12 or younger,no,2021-03-22_00h59.52.643,empathy_intonation_perc,2020.2.10,Win32,60,,,,,,,,,,,,,,,,,,,,,,,,,,,,,,,,,,,,,,,,,,,,,,,,,,,,,,,,,,,,,,,,4,1,3.52418,1,0,0,0,0,0,1,,,,,,,,,,,
,,,,,,,60514fe20a8ea24a26a96e85,6057c54e64b0b4e5c128b4f9,605823993aebeca996445d64,Mexico,East coast,12 or younger,no,2021-03-22_00h59.52.643,empathy_intonation_perc,2020.2.10,Win32,60,,,,,,,,,,,,,,,,,,,,1,,,,,,,,,,,,,,,,,,,,,,,,,,,,,,,,,,,,,,,,,,,,,,,,,,,,,,1,0,0,0,0,1,I can easily tell if someone else wants to enter a conversation.,1,0,1,0
,,,,,,,60514fe20a8ea24a26a96e85,6057c54e64b0b4e5c128b4f9,605823993aebeca996445d64,Mexico,East coast,12 or younger,no,2021-03-22_00h59.52.643,empathy_intonation_perc,2020.2.10,Win32,60,,,,,,,,,,,,,,,,,,,,2,,,,,,,,,,,,,,,,,,,,,,,,,,,,,,,,,,,,,,,,,,,,,,,,,,,,,,3,0,1,1,1,1,I prefer animals to humans.,0,1,0,0
,,,,,,,60514fe20a8ea24a26a96e85,6057c54e64b0b4e5c128b4f9,605823993aebeca996445d64,Mexico,East coast,12 or younger,no,2021-03-22_00h59.52.643,empathy_intonation_perc,2020.2.10,Win32,60,,,,,,,,,,,,,,,,,,,,3,,,,,,,,,,,,,,,,,,,,,,,,,,,,,,,,,,,,,,,,,,,,,,,,,,,,,,4,0,2,2,2,1,I try to keep up with the current trends and fashions.,0,1,0,0
,,,,,,,60514fe20a8ea24a26a96e85,6057c54e64b0b4e5c128b4f9,605823993aebeca996445d64,Mexico,East coast,12 or younger,no,2021-03-22_00h59.52.643,empathy_intonation_perc,2020.2.10,Win32,60,,,,,,,,,,,,,,,,,,,,4,,,,,,,,,,,,,,,,,,,,,,,,,,,,,,,,,,,,,,,,,,,,,,,,,,,,,,2,0,3,3,3,1,"I find it difficult to explain to others things that I understand easily, 
  when they dont understand it first time.",1,0,0,1
,,,,,,,60514fe20a8ea24a26a96e85,6057c54e64b0b4e5c128b4f9,605823993aebeca996445d64,Mexico,East coast,12 or younger,no,2021-03-22_00h59.52.643,empathy_intonation_perc,2020.2.10,Win32,60,,,,,,,,,,,,,,,,,,,,5,,,,,,,,,,,,,,,,,,,,,,,,,,,,,,,,,,,,,,,,,,,,,,,,,,,,,,4,0,4,4,4,1,I dream most nights.,0,1,0,0
,,,,,,,60514fe20a8ea24a26a96e85,6057c54e64b0b4e5c128b4f9,605823993aebeca996445d64,Mexico,East coast,12 or younger,no,2021-03-22_00h59.52.643,empathy_intonation_perc,2020.2.10,Win32,60,,,,,,,,,,,,,,,,,,,,6,,,,,,,,,,,,,,,,,,,,,,,,,,,,,,,,,,,,,,,,,,,,,,,,,,,,,,1,0,5,5,5,1,I really enjoy caring for other people.,1,0,1,0
