instructions_2afc_loop.thisRepN,instructions_2afc_loop.thisTrialN,instructions_2afc_loop.thisN,instructions_2afc_loop.thisIndex,instructions_2afc_loop.ran,instructions_text,continue_text,participant,study_id,session,I am most familiar with Spanish from...*,What part of the US are you from?*,At what age did you begin learning Spanish?*,Are you proficient in any languages other than English/Spanish?*,date,expName,psychopyVersion,OS,frameRate,key_resp_2afc_practice.keys,key_resp_2afc_practice.corr,key_resp_2afc_practice.rt,trials_2afc_practice_loop.thisRepN,trials_2afc_practice_loop.thisTrialN,trials_2afc_practice_loop.thisN,trials_2afc_practice_loop.thisIndex,trials_2afc_practice_loop.ran,path,correct_response,the_col,key_resp_2afc_trial.keys,key_resp_2afc_trial.corr,key_resp_2afc_trial.rt,trials_2afc_loop.thisRepN,trials_2afc_loop.thisTrialN,trials_2afc_loop.thisN,trials_2afc_loop.thisIndex,trials_2afc_loop.ran,item_num,andalusian,argentine,castilian,chilean,cuban,mexican,peruvian,puertorican,key_resp_ac1.keys,key_resp_ac1.corr,key_resp_ac1.rt,ac1_loop.thisRepN,ac1_loop.thisTrialN,ac1_loop.thisN,ac1_loop.thisIndex,ac1_loop.ran,instructions_lextale_loop.thisRepN,instructions_lextale_loop.thisTrialN,instructions_lextale_loop.thisN,instructions_lextale_loop.thisIndex,instructions_lextale_loop.ran,key_resp_lextale_practice.keys,key_resp_lextale_practice.corr,key_resp_lextale_practice.rt,trials_lextale_practice_loop.thisRepN,trials_lextale_practice_loop.thisTrialN,trials_lextale_practice_loop.thisN,trials_lextale_practice_loop.thisIndex,trials_lextale_practice_loop.ran,stim,word,prac_button_real,prac_button_false,key_resp_lextale_trial.keys,key_resp_lextale_trial.corr,key_resp_lextale_trial.rt,trials_lextale_loop.thisRepN,trials_lextale_loop.thisTrialN,trials_lextale_loop.thisN,trials_lextale_loop.thisIndex,trials_lextale_loop.ran,button_real,button_false,key_resp_ac2.keys,key_resp_ac2.corr,key_resp_ac2.rt,check_pass,check_fails,ac2_loop.thisRepN,ac2_loop.thisTrialN,ac2_loop.thisN,ac2_loop.thisIndex,ac2_loop.ran,slider_eq_trial.response,trials_eq_loop.thisRepN,trials_eq_loop.thisTrialN,trials_eq_loop.thisN,trials_eq_loop.thisIndex,trials_eq_loop.ran,item,is_test_item,is_distractor,is_agree_score,is_disagree_score
0,0,0,0,1,"In the following task you are going to hear a series of utterances. 

  You will decide if the utterances sound like questions or not using your keyboard.",(press the spacebar to continue),6057880f8633bbd79c6f10d8,605b45a4d25f287719a41696,605f29508d6d1f810f2bb70d,United States,Northeast,13 or older,no,2021-03-27_08h49.09.157,empathy_intonation_perc,2020.2.10,Win32,60,,,,,,,,,,,,,,,,,,,,,,,,,,,,,,,,,,,,,,,,,,,,,,,,,,,,,,,,,,,,,,,,,,,,,,,,,,,,,,,,,,,,
0,1,1,1,1,"If you believe the utterance is a question, type '1' (for 'yes') and if you do not 
  believe it is a question type '0' (for 'no').

  Let's practice a bit...",(press the spacebar to continue),6057880f8633bbd79c6f10d8,605b45a4d25f287719a41696,605f29508d6d1f810f2bb70d,United States,Northeast,13 or older,no,2021-03-27_08h49.09.157,empathy_intonation_perc,2020.2.10,Win32,60,,,,,,,,,,,,,,,,,,,,,,,,,,,,,,,,,,,,,,,,,,,,,,,,,,,,,,,,,,,,,,,,,,,,,,,,,,,,,,,,,,,,
,,,,,,,6057880f8633bbd79c6f10d8,605b45a4d25f287719a41696,605f29508d6d1f810f2bb70d,United States,Northeast,13 or older,no,2021-03-27_08h49.09.157,empathy_intonation_perc,2020.2.10,Win32,60,0,1,3.462015,0,0,0,5,1,./stim/wavs/andalusian_statement_filler_Alberto-nunca-se-afeita.wav,0,,,,,,,,,,,,,,,,,,,,,,,,,,,,,,,,,,,,,,,,,,,,,,,,,,,,,,,,,,,,,,,,,,,,,,,,,,
,,,,,,,6057880f8633bbd79c6f10d8,605b45a4d25f287719a41696,605f29508d6d1f810f2bb70d,United States,Northeast,13 or older,no,2021-03-27_08h49.09.157,empathy_intonation_perc,2020.2.10,Win32,60,0,1,3.19821,0,1,1,6,1,./stim/wavs/peruvian_statement_filler_El-nino-habla-con-su-madre.wav,0,,,,,,,,,,,,,,,,,,,,,,,,,,,,,,,,,,,,,,,,,,,,,,,,,,,,,,,,,,,,,,,,,,,,,,,,,,
,,,,,,,6057880f8633bbd79c6f10d8,605b45a4d25f287719a41696,605f29508d6d1f810f2bb70d,United States,Northeast,13 or older,no,2021-03-27_08h49.09.157,empathy_intonation_perc,2020.2.10,Win32,60,1,1,1.8144,0,2,2,3,1,./stim/wavs/mexican_question_filler_Felipe-no-tiene-contrasena.wav,1,,,,,,,,,,,,,,,,,,,,,,,,,,,,,,,,,,,,,,,,,,,,,,,,,,,,,,,,,,,,,,,,,,,,,,,,,,
,,,,,,,6057880f8633bbd79c6f10d8,605b45a4d25f287719a41696,605f29508d6d1f810f2bb70d,United States,Northeast,13 or older,no,2021-03-27_08h49.09.157,empathy_intonation_perc,2020.2.10,Win32,60,1,1,2.082125,0,3,3,0,1,./stim/wavs/castilian_question_filler_Mi-esposo-conoce-al-chico.wav,1,,,,,,,,,,,,,,,,,,,,,,,,,,,,,,,,,,,,,,,,,,,,,,,,,,,,,,,,,,,,,,,,,,,,,,,,,,
,,,,,,,6057880f8633bbd79c6f10d8,605b45a4d25f287719a41696,605f29508d6d1f810f2bb70d,United States,Northeast,13 or older,no,2021-03-27_08h49.09.157,empathy_intonation_perc,2020.2.10,Win32,60,0,0,1.5325,0,4,4,2,1,./stim/wavs/chilean_question_filler_Mi-padre-cantaba-bien.wav,1,,,,,,,,,,,,,,,,,,,,,,,,,,,,,,,,,,,,,,,,,,,,,,,,,,,,,,,,,,,,,,,,,,,,,,,,,,
,,,,,,,6057880f8633bbd79c6f10d8,605b45a4d25f287719a41696,605f29508d6d1f810f2bb70d,United States,Northeast,13 or older,no,2021-03-27_08h49.09.157,empathy_intonation_perc,2020.2.10,Win32,60,1,1,1.466055,0,5,5,1,1,./stim/wavs/argentine_question_filler_Mi-vecino-habla-mucho.wav,1,,,,,,,,,,,,,,,,,,,,,,,,,,,,,,,,,,,,,,,,,,,,,,,,,,,,,,,,,,,,,,,,,,,,,,,,,,
,,,,,,,6057880f8633bbd79c6f10d8,605b45a4d25f287719a41696,605f29508d6d1f810f2bb70d,United States,Northeast,13 or older,no,2021-03-27_08h49.09.157,empathy_intonation_perc,2020.2.10,Win32,60,0,1,1.865635,0,6,6,4,1,./stim/wavs/cuban_statement_filler_Cocinabas-por-la-noche.wav,0,,,,,,,,,,,,,,,,,,,,,,,,,,,,,,,,,,,,,,,,,,,,,,,,,,,,,,,,,,,,,,,,,,,,,,,,,,
,,,,,,,6057880f8633bbd79c6f10d8,605b45a4d25f287719a41696,605f29508d6d1f810f2bb70d,United States,Northeast,13 or older,no,2021-03-27_08h49.09.157,empathy_intonation_perc,2020.2.10,Win32,60,0,1,1.81581,0,7,7,7,1,./stim/wavs/puertorican_statement_filler_La-nina-pinta-con-su-amiga.wav,0,,,,,,,,,,,,,,,,,,,,,,,,,,,,,,,,,,,,,,,,,,,,,,,,,,,,,,,,,,,,,,,,,,,,,,,,,,
,,,,,,,6057880f8633bbd79c6f10d8,605b45a4d25f287719a41696,605f29508d6d1f810f2bb70d,United States,Northeast,13 or older,no,2021-03-27_08h49.09.157,empathy_intonation_perc,2020.2.10,Win32,60,,,,,,,,,,0,puertorican,0,1,1.741305,0,0,0,12,1,13,./stim/wavs/andalusian_match_declarative-narrow-focus_Manuela-vende-el-carro.wav,./stim/wavs/argentine_match_declarative-narrow-focus_Manuela-vende-el-carro.wav,./stim/wavs/castilian_match_declarative-narrow-focus_Manuela-vende-el-carro.wav,./stim/wavs/chilean_match_declarative-narrow-focus_Manuela-vende-el-carro.wav,./stim/wavs/cuban_match_declarative-narrow-focus_Manuela-vende-el-carro.wav,./stim/wavs/mexican_match_declarative-narrow-focus_Manuela-vende-el-carro.wav,./stim/wavs/peruvian_match_declarative-narrow-focus_Manuela-vende-el-carro.wav,./stim/wavs/puertorican_match_declarative-narrow-focus_Manuela-vende-el-carro.wav,,,,,,,,,,,,,,,,,,,,,,,,,,,,,,,,,,,,,,,,,,,,,,,,,,,,,,,,
,,,,,,,6057880f8633bbd79c6f10d8,605b45a4d25f287719a41696,605f29508d6d1f810f2bb70d,United States,Northeast,13 or older,no,2021-03-27_08h49.09.157,empathy_intonation_perc,2020.2.10,Win32,60,,,,,,,,,,1,cuban,0,0,1.88583,0,1,1,62,1,63,./stim/wavs/andalusian_mismatch_interrogative-total-yn_Mi-novio-viene-del-lago.wav,./stim/wavs/argentine_mismatch_interrogative-total-yn_Mi-novio-viene-del-lago.wav,./stim/wavs/castilian_mismatch_interrogative-total-yn_Mi-novio-viene-del-lago.wav,./stim/wavs/chilean_mismatch_interrogative-total-yn_Mi-novio-viene-del-lago.wav,./stim/wavs/cuban_mismatch_interrogative-total-yn_Mi-novio-viene-del-lago.wav,./stim/wavs/mexican_mismatch_interrogative-total-yn_Mi-novio-viene-del-lago.wav,./stim/wavs/peruvian_mismatch_interrogative-total-yn_Mi-novio-viene-del-lago.wav,./stim/wavs/puertorican_mismatch_interrogative-total-yn_Mi-novio-viene-del-lago.wav,,,,,,,,,,,,,,,,,,,,,,,,,,,,,,,,,,,,,,,,,,,,,,,,,,,,,,,,
,,,,,,,6057880f8633bbd79c6f10d8,605b45a4d25f287719a41696,605f29508d6d1f810f2bb70d,United States,Northeast,13 or older,no,2021-03-27_08h49.09.157,empathy_intonation_perc,2020.2.10,Win32,60,,,,,,,,,,1,andalusian,0,0,1.900655,0,2,2,18,1,19,./stim/wavs/andalusian_match_interrogative-partial-wh_Cuando-lleva-el-abrigo.wav,./stim/wavs/argentine_match_interrogative-partial-wh_Cuando-lleva-el-abrigo.wav,./stim/wavs/castilian_match_interrogative-partial-wh_Cuando-lleva-el-abrigo.wav,./stim/wavs/chilean_match_interrogative-partial-wh_Cuando-lleva-el-abrigo.wav,./stim/wavs/cuban_match_interrogative-partial-wh_Cuando-lleva-el-abrigo.wav,./stim/wavs/mexican_match_interrogative-partial-wh_Cuando-lleva-el-abrigo.wav,./stim/wavs/peruvian_match_interrogative-partial-wh_Cuando-lleva-el-abrigo.wav,./stim/wavs/puertorican_match_interrogative-partial-wh_Cuando-lleva-el-abrigo.wav,,,,,,,,,,,,,,,,,,,,,,,,,,,,,,,,,,,,,,,,,,,,,,,,,,,,,,,,
,,,,,,,6057880f8633bbd79c6f10d8,605b45a4d25f287719a41696,605f29508d6d1f810f2bb70d,United States,Northeast,13 or older,no,2021-03-27_08h49.09.157,empathy_intonation_perc,2020.2.10,Win32,60,,,,,,,,,,0,chilean,0,1,1.432145,0,3,3,10,1,11,./stim/wavs/andalusian_match_declarative-narrow-focus_David-leia-el-libro.wav,./stim/wavs/argentine_match_declarative-narrow-focus_David-leia-el-libro.wav,./stim/wavs/castilian_match_declarative-narrow-focus_David-leia-el-libro.wav,./stim/wavs/chilean_match_declarative-narrow-focus_David-leia-el-libro.wav,./stim/wavs/cuban_match_declarative-narrow-focus_David-leia-el-libro.wav,./stim/wavs/mexican_match_declarative-narrow-focus_David-leia-el-libro.wav,./stim/wavs/peruvian_match_declarative-narrow-focus_David-leia-el-libro.wav,./stim/wavs/puertorican_match_declarative-narrow-focus_David-leia-el-libro.wav,,,,,,,,,,,,,,,,,,,,,,,,,,,,,,,,,,,,,,,,,,,,,,,,,,,,,,,,
,,,,,,,6057880f8633bbd79c6f10d8,605b45a4d25f287719a41696,605f29508d6d1f810f2bb70d,United States,Northeast,13 or older,no,2021-03-27_08h49.09.157,empathy_intonation_perc,2020.2.10,Win32,60,,,,,,,,,,1,puertorican,0,0,1.618085,0,4,4,61,1,62,./stim/wavs/andalusian_mismatch_interrogative-total-yn_Mi-madre-come-la-fruta.wav,./stim/wavs/argentine_mismatch_interrogative-total-yn_Mi-madre-come-la-fruta.wav,./stim/wavs/castilian_mismatch_interrogative-total-yn_Mi-madre-come-la-fruta.wav,./stim/wavs/chilean_mismatch_interrogative-total-yn_Mi-madre-come-la-fruta.wav,./stim/wavs/cuban_mismatch_interrogative-total-yn_Mi-madre-come-la-fruta.wav,./stim/wavs/mexican_mismatch_interrogative-total-yn_Mi-madre-come-la-fruta.wav,./stim/wavs/peruvian_mismatch_interrogative-total-yn_Mi-madre-come-la-fruta.wav,./stim/wavs/puertorican_mismatch_interrogative-total-yn_Mi-madre-come-la-fruta.wav,,,,,,,,,,,,,,,,,,,,,,,,,,,,,,,,,,,,,,,,,,,,,,,,,,,,,,,,
,,,,,,,6057880f8633bbd79c6f10d8,605b45a4d25f287719a41696,605f29508d6d1f810f2bb70d,United States,Northeast,13 or older,no,2021-03-27_08h49.09.157,empathy_intonation_perc,2020.2.10,Win32,60,,,,,,,,,,1,cuban,0,0,1.894715,0,5,5,59,1,60,./stim/wavs/andalusian_mismatch_interrogative-total-yn_La-maestra-vive-en-Paris.wav,./stim/wavs/argentine_mismatch_interrogative-total-yn_La-maestra-vive-en-Paris.wav,./stim/wavs/castilian_mismatch_interrogative-total-yn_La-maestra-vive-en-Paris.wav,./stim/wavs/chilean_mismatch_interrogative-total-yn_La-maestra-vive-en-Paris.wav,./stim/wavs/cuban_mismatch_interrogative-total-yn_La-maestra-vive-en-Paris.wav,./stim/wavs/mexican_mismatch_interrogative-total-yn_La-maestra-vive-en-Paris.wav,./stim/wavs/peruvian_mismatch_interrogative-total-yn_La-maestra-vive-en-Paris.wav,./stim/wavs/puertorican_mismatch_interrogative-total-yn_La-maestra-vive-en-Paris.wav,,,,,,,,,,,,,,,,,,,,,,,,,,,,,,,,,,,,,,,,,,,,,,,,,,,,,,,,
,,,,,,,6057880f8633bbd79c6f10d8,605b45a4d25f287719a41696,605f29508d6d1f810f2bb70d,United States,Northeast,13 or older,no,2021-03-27_08h49.09.157,empathy_intonation_perc,2020.2.10,Win32,60,,,,,,,,,,0,chilean,0,1,2.051335,0,6,6,14,1,15,./stim/wavs/andalusian_match_declarative-narrow-focus_Mariano-habla-del-tiempo.wav,./stim/wavs/argentine_match_declarative-narrow-focus_Mariano-habla-del-tiempo.wav,./stim/wavs/castilian_match_declarative-narrow-focus_Mariano-habla-del-tiempo.wav,./stim/wavs/chilean_match_declarative-narrow-focus_Mariano-habla-del-tiempo.wav,./stim/wavs/cuban_match_declarative-narrow-focus_Mariano-habla-del-tiempo.wav,./stim/wavs/mexican_match_declarative-narrow-focus_Mariano-habla-del-tiempo.wav,./stim/wavs/peruvian_match_declarative-narrow-focus_Mariano-habla-del-tiempo.wav,./stim/wavs/puertorican_match_declarative-narrow-focus_Mariano-habla-del-tiempo.wav,,,,,,,,,,,,,,,,,,,,,,,,,,,,,,,,,,,,,,,,,,,,,,,,,,,,,,,,
,,,,,,,6057880f8633bbd79c6f10d8,605b45a4d25f287719a41696,605f29508d6d1f810f2bb70d,United States,Northeast,13 or older,no,2021-03-27_08h49.09.157,empathy_intonation_perc,2020.2.10,Win32,60,,,,,,,,,,0,cuban,0,1,1.615845,0,7,7,45,1,46,./stim/wavs/andalusian_mismatch_declarative-narrow-focus_Mi-madre-come-la-fruta.wav,./stim/wavs/argentine_mismatch_declarative-narrow-focus_Mi-madre-come-la-fruta.wav,./stim/wavs/castilian_mismatch_declarative-narrow-focus_Mi-madre-come-la-fruta.wav,./stim/wavs/chilean_mismatch_declarative-narrow-focus_Mi-madre-come-la-fruta.wav,./stim/wavs/cuban_mismatch_declarative-narrow-focus_Mi-madre-come-la-fruta.wav,./stim/wavs/mexican_mismatch_declarative-narrow-focus_Mi-madre-come-la-fruta.wav,./stim/wavs/peruvian_mismatch_declarative-narrow-focus_Mi-madre-come-la-fruta.wav,./stim/wavs/puertorican_mismatch_declarative-narrow-focus_Mi-madre-come-la-fruta.wav,,,,,,,,,,,,,,,,,,,,,,,,,,,,,,,,,,,,,,,,,,,,,,,,,,,,,,,,
,,,,,,,6057880f8633bbd79c6f10d8,605b45a4d25f287719a41696,605f29508d6d1f810f2bb70d,United States,Northeast,13 or older,no,2021-03-27_08h49.09.157,empathy_intonation_perc,2020.2.10,Win32,60,,,,,,,,,,0,mexican,0,1,1.472195,0,8,8,4,1,5,./stim/wavs/andalusian_match_declarative-broad-focus_Manuela-vende-el-carro.wav,./stim/wavs/argentine_match_declarative-broad-focus_Manuela-vende-el-carro.wav,./stim/wavs/castilian_match_declarative-broad-focus_Manuela-vende-el-carro.wav,./stim/wavs/chilean_match_declarative-broad-focus_Manuela-vende-el-carro.wav,./stim/wavs/cuban_match_declarative-broad-focus_Manuela-vende-el-carro.wav,./stim/wavs/mexican_match_declarative-broad-focus_Manuela-vende-el-carro.wav,./stim/wavs/peruvian_match_declarative-broad-focus_Manuela-vende-el-carro.wav,./stim/wavs/puertorican_match_declarative-broad-focus_Manuela-vende-el-carro.wav,,,,,,,,,,,,,,,,,,,,,,,,,,,,,,,,,,,,,,,,,,,,,,,,,,,,,,,,
,,,,,,,6057880f8633bbd79c6f10d8,605b45a4d25f287719a41696,605f29508d6d1f810f2bb70d,United States,Northeast,13 or older,no,2021-03-27_08h49.09.157,empathy_intonation_perc,2020.2.10,Win32,60,,,,,,,,,,1,cuban,0,0,1.8512,0,9,9,58,1,59,./stim/wavs/andalusian_mismatch_interrogative-total-yn_El-nino-oye-el-rio.wav,./stim/wavs/argentine_mismatch_interrogative-total-yn_El-nino-oye-el-rio.wav,./stim/wavs/castilian_mismatch_interrogative-total-yn_El-nino-oye-el-rio.wav,./stim/wavs/chilean_mismatch_interrogative-total-yn_El-nino-oye-el-rio.wav,./stim/wavs/cuban_mismatch_interrogative-total-yn_El-nino-oye-el-rio.wav,./stim/wavs/mexican_mismatch_interrogative-total-yn_El-nino-oye-el-rio.wav,./stim/wavs/peruvian_mismatch_interrogative-total-yn_El-nino-oye-el-rio.wav,./stim/wavs/puertorican_mismatch_interrogative-total-yn_El-nino-oye-el-rio.wav,,,,,,,,,,,,,,,,,,,,,,,,,,,,,,,,,,,,,,,,,,,,,,,,,,,,,,,,
,,,,,,,6057880f8633bbd79c6f10d8,605b45a4d25f287719a41696,605f29508d6d1f810f2bb70d,United States,Northeast,13 or older,no,2021-03-27_08h49.09.157,empathy_intonation_perc,2020.2.10,Win32,60,,,,,,,,,,0,andalusian,0,1,2.072605,0,10,10,3,1,4,./stim/wavs/andalusian_match_declarative-broad-focus_Emilio-ama-la-marcha.wav,./stim/wavs/argentine_match_declarative-broad-focus_Emilio-ama-la-marcha.wav,./stim/wavs/castilian_match_declarative-broad-focus_Emilio-ama-la-marcha.wav,./stim/wavs/chilean_match_declarative-broad-focus_Emilio-ama-la-marcha.wav,./stim/wavs/cuban_match_declarative-broad-focus_Emilio-ama-la-marcha.wav,./stim/wavs/mexican_match_declarative-broad-focus_Emilio-ama-la-marcha.wav,./stim/wavs/peruvian_match_declarative-broad-focus_Emilio-ama-la-marcha.wav,./stim/wavs/puertorican_match_declarative-broad-focus_Emilio-ama-la-marcha.wav,,,,,,,,,,,,,,,,,,,,,,,,,,,,,,,,,,,,,,,,,,,,,,,,,,,,,,,,
,,,,,,,6057880f8633bbd79c6f10d8,605b45a4d25f287719a41696,605f29508d6d1f810f2bb70d,United States,Northeast,13 or older,no,2021-03-27_08h49.09.157,empathy_intonation_perc,2020.2.10,Win32,60,,,,,,,,,,1,castilian,1,1,1.67225,0,11,11,17,1,18,./stim/wavs/andalusian_match_interrogative-partial-wh_Cuando-leia-el-libro.wav,./stim/wavs/argentine_match_interrogative-partial-wh_Cuando-leia-el-libro.wav,./stim/wavs/castilian_match_interrogative-partial-wh_Cuando-leia-el-libro.wav,./stim/wavs/chilean_match_interrogative-partial-wh_Cuando-leia-el-libro.wav,./stim/wavs/cuban_match_interrogative-partial-wh_Cuando-leia-el-libro.wav,./stim/wavs/mexican_match_interrogative-partial-wh_Cuando-leia-el-libro.wav,./stim/wavs/peruvian_match_interrogative-partial-wh_Cuando-leia-el-libro.wav,./stim/wavs/puertorican_match_interrogative-partial-wh_Cuando-leia-el-libro.wav,,,,,,,,,,,,,,,,,,,,,,,,,,,,,,,,,,,,,,,,,,,,,,,,,,,,,,,,
,,,,,,,6057880f8633bbd79c6f10d8,605b45a4d25f287719a41696,605f29508d6d1f810f2bb70d,United States,Northeast,13 or older,no,2021-03-27_08h49.09.157,empathy_intonation_perc,2020.2.10,Win32,60,,,,,,,,,,0,puertorican,0,1,2.176125,0,12,12,33,1,34,./stim/wavs/andalusian_mismatch_declarative-broad-focus_El-hombre-mira-la-luna.wav,./stim/wavs/argentine_mismatch_declarative-broad-focus_El-hombre-mira-la-luna.wav,./stim/wavs/castilian_mismatch_declarative-broad-focus_El-hombre-mira-la-luna.wav,./stim/wavs/chilean_mismatch_declarative-broad-focus_El-hombre-mira-la-luna.wav,./stim/wavs/cuban_mismatch_declarative-broad-focus_El-hombre-mira-la-luna.wav,./stim/wavs/mexican_mismatch_declarative-broad-focus_El-hombre-mira-la-luna.wav,./stim/wavs/peruvian_mismatch_declarative-broad-focus_El-hombre-mira-la-luna.wav,./stim/wavs/puertorican_mismatch_declarative-broad-focus_El-hombre-mira-la-luna.wav,,,,,,,,,,,,,,,,,,,,,,,,,,,,,,,,,,,,,,,,,,,,,,,,,,,,,,,,
,,,,,,,6057880f8633bbd79c6f10d8,605b45a4d25f287719a41696,605f29508d6d1f810f2bb70d,United States,Northeast,13 or older,no,2021-03-27_08h49.09.157,empathy_intonation_perc,2020.2.10,Win32,60,,,,,,,,,,0,mexican,0,1,1.601115,0,13,13,5,1,6,./stim/wavs/andalusian_match_declarative-broad-focus_Maria-bebe-el-vino.wav,./stim/wavs/argentine_match_declarative-broad-focus_Maria-bebe-el-vino.wav,./stim/wavs/castilian_match_declarative-broad-focus_Maria-bebe-el-vino.wav,./stim/wavs/chilean_match_declarative-broad-focus_Maria-bebe-el-vino.wav,./stim/wavs/cuban_match_declarative-broad-focus_Maria-bebe-el-vino.wav,./stim/wavs/mexican_match_declarative-broad-focus_Maria-bebe-el-vino.wav,./stim/wavs/peruvian_match_declarative-broad-focus_Maria-bebe-el-vino.wav,./stim/wavs/puertorican_match_declarative-broad-focus_Maria-bebe-el-vino.wav,,,,,,,,,,,,,,,,,,,,,,,,,,,,,,,,,,,,,,,,,,,,,,,,,,,,,,,,
,,,,,,,6057880f8633bbd79c6f10d8,605b45a4d25f287719a41696,605f29508d6d1f810f2bb70d,United States,Northeast,13 or older,no,2021-03-27_08h49.09.157,empathy_intonation_perc,2020.2.10,Win32,60,,,,,,,,,,1,cuban,1,1,1.65982,0,14,14,49,1,50,./stim/wavs/andalusian_mismatch_interrogative-partial-wh_Cuando-lavaba-el-plato.wav,./stim/wavs/argentine_mismatch_interrogative-partial-wh_Cuando-lavaba-el-plato.wav,./stim/wavs/castilian_mismatch_interrogative-partial-wh_Cuando-lavaba-el-plato.wav,./stim/wavs/chilean_mismatch_interrogative-partial-wh_Cuando-lavaba-el-plato.wav,./stim/wavs/cuban_mismatch_interrogative-partial-wh_Cuando-lavaba-el-plato.wav,./stim/wavs/mexican_mismatch_interrogative-partial-wh_Cuando-lavaba-el-plato.wav,./stim/wavs/peruvian_mismatch_interrogative-partial-wh_Cuando-lavaba-el-plato.wav,./stim/wavs/puertorican_mismatch_interrogative-partial-wh_Cuando-lavaba-el-plato.wav,,,,,,,,,,,,,,,,,,,,,,,,,,,,,,,,,,,,,,,,,,,,,,,,,,,,,,,,
,,,,,,,6057880f8633bbd79c6f10d8,605b45a4d25f287719a41696,605f29508d6d1f810f2bb70d,United States,Northeast,13 or older,no,2021-03-27_08h49.09.157,empathy_intonation_perc,2020.2.10,Win32,60,,,,,,,,,,1,chilean,1,1,1.593935,0,15,15,54,1,55,./stim/wavs/andalusian_mismatch_interrogative-partial-wh_Por-que-venia-del-lago.wav,./stim/wavs/argentine_mismatch_interrogative-partial-wh_Por-que-venia-del-lago.wav,./stim/wavs/castilian_mismatch_interrogative-partial-wh_Por-que-venia-del-lago.wav,./stim/wavs/chilean_mismatch_interrogative-partial-wh_Por-que-venia-del-lago.wav,./stim/wavs/cuban_mismatch_interrogative-partial-wh_Por-que-venia-del-lago.wav,./stim/wavs/mexican_mismatch_interrogative-partial-wh_Por-que-venia-del-lago.wav,./stim/wavs/peruvian_mismatch_interrogative-partial-wh_Por-que-venia-del-lago.wav,./stim/wavs/puertorican_mismatch_interrogative-partial-wh_Por-que-venia-del-lago.wav,,,,,,,,,,,,,,,,,,,,,,,,,,,,,,,,,,,,,,,,,,,,,,,,,,,,,,,,
,,,,,,,6057880f8633bbd79c6f10d8,605b45a4d25f287719a41696,605f29508d6d1f810f2bb70d,United States,Northeast,13 or older,no,2021-03-27_08h49.09.157,empathy_intonation_perc,2020.2.10,Win32,60,,,,,,,,,,1,cuban,0,0,1.49004,0,16,16,63,1,64,./stim/wavs/andalusian_mismatch_interrogative-total-yn_Mi-tia-odia-la-lluvia.wav,./stim/wavs/argentine_mismatch_interrogative-total-yn_Mi-tia-odia-la-lluvia.wav,./stim/wavs/castilian_mismatch_interrogative-total-yn_Mi-tia-odia-la-lluvia.wav,./stim/wavs/chilean_mismatch_interrogative-total-yn_Mi-tia-odia-la-lluvia.wav,./stim/wavs/cuban_mismatch_interrogative-total-yn_Mi-tia-odia-la-lluvia.wav,./stim/wavs/mexican_mismatch_interrogative-total-yn_Mi-tia-odia-la-lluvia.wav,./stim/wavs/peruvian_mismatch_interrogative-total-yn_Mi-tia-odia-la-lluvia.wav,./stim/wavs/puertorican_mismatch_interrogative-total-yn_Mi-tia-odia-la-lluvia.wav,,,,,,,,,,,,,,,,,,,,,,,,,,,,,,,,,,,,,,,,,,,,,,,,,,,,,,,,
,,,,,,,6057880f8633bbd79c6f10d8,605b45a4d25f287719a41696,605f29508d6d1f810f2bb70d,United States,Northeast,13 or older,no,2021-03-27_08h49.09.157,empathy_intonation_perc,2020.2.10,Win32,60,,,,,,,,,,0,peruvian,0,1,1.669665,0,17,17,36,1,37,./stim/wavs/andalusian_mismatch_declarative-broad-focus_La-nina-lava-el-plato.wav,./stim/wavs/argentine_mismatch_declarative-broad-focus_La-nina-lava-el-plato.wav,./stim/wavs/castilian_mismatch_declarative-broad-focus_La-nina-lava-el-plato.wav,./stim/wavs/chilean_mismatch_declarative-broad-focus_La-nina-lava-el-plato.wav,./stim/wavs/cuban_mismatch_declarative-broad-focus_La-nina-lava-el-plato.wav,./stim/wavs/mexican_mismatch_declarative-broad-focus_La-nina-lava-el-plato.wav,./stim/wavs/peruvian_mismatch_declarative-broad-focus_La-nina-lava-el-plato.wav,./stim/wavs/puertorican_mismatch_declarative-broad-focus_La-nina-lava-el-plato.wav,,,,,,,,,,,,,,,,,,,,,,,,,,,,,,,,,,,,,,,,,,,,,,,,,,,,,,,,
,,,,,,,6057880f8633bbd79c6f10d8,605b45a4d25f287719a41696,605f29508d6d1f810f2bb70d,United States,Northeast,13 or older,no,2021-03-27_08h49.09.157,empathy_intonation_perc,2020.2.10,Win32,60,,,,,,,,,,1,castilian,1,1,2.12777,0,18,18,56,1,57,./stim/wavs/andalusian_mismatch_interrogative-total-yn_El-bebe-comia-muy-bien.wav,./stim/wavs/argentine_mismatch_interrogative-total-yn_El-bebe-comia-muy-bien.wav,./stim/wavs/castilian_mismatch_interrogative-total-yn_El-bebe-comia-muy-bien.wav,./stim/wavs/chilean_mismatch_interrogative-total-yn_El-bebe-comia-muy-bien.wav,./stim/wavs/cuban_mismatch_interrogative-total-yn_El-bebe-comia-muy-bien.wav,./stim/wavs/mexican_mismatch_interrogative-total-yn_El-bebe-comia-muy-bien.wav,./stim/wavs/peruvian_mismatch_interrogative-total-yn_El-bebe-comia-muy-bien.wav,./stim/wavs/puertorican_mismatch_interrogative-total-yn_El-bebe-comia-muy-bien.wav,,,,,,,,,,,,,,,,,,,,,,,,,,,,,,,,,,,,,,,,,,,,,,,,,,,,,,,,
,,,,,,,6057880f8633bbd79c6f10d8,605b45a4d25f287719a41696,605f29508d6d1f810f2bb70d,United States,Northeast,13 or older,no,2021-03-27_08h49.09.157,empathy_intonation_perc,2020.2.10,Win32,60,,,,,,,,,,0,cuban,0,1,1.59832,0,19,19,46,1,47,./stim/wavs/andalusian_mismatch_declarative-narrow-focus_Mi-novio-viene-del-lago.wav,./stim/wavs/argentine_mismatch_declarative-narrow-focus_Mi-novio-viene-del-lago.wav,./stim/wavs/castilian_mismatch_declarative-narrow-focus_Mi-novio-viene-del-lago.wav,./stim/wavs/chilean_mismatch_declarative-narrow-focus_Mi-novio-viene-del-lago.wav,./stim/wavs/cuban_mismatch_declarative-narrow-focus_Mi-novio-viene-del-lago.wav,./stim/wavs/mexican_mismatch_declarative-narrow-focus_Mi-novio-viene-del-lago.wav,./stim/wavs/peruvian_mismatch_declarative-narrow-focus_Mi-novio-viene-del-lago.wav,./stim/wavs/puertorican_mismatch_declarative-narrow-focus_Mi-novio-viene-del-lago.wav,,,,,,,,,,,,,,,,,,,,,,,,,,,,,,,,,,,,,,,,,,,,,,,,,,,,,,,,
,,,,,,,6057880f8633bbd79c6f10d8,605b45a4d25f287719a41696,605f29508d6d1f810f2bb70d,United States,Northeast,13 or older,no,2021-03-27_08h49.09.157,empathy_intonation_perc,2020.2.10,Win32,60,,,,,,,,,,0,cuban,0,1,1.58248,0,20,20,35,1,36,./stim/wavs/andalusian_mismatch_declarative-broad-focus_La-maestra-vive-en-Paris.wav,./stim/wavs/argentine_mismatch_declarative-broad-focus_La-maestra-vive-en-Paris.wav,./stim/wavs/castilian_mismatch_declarative-broad-focus_La-maestra-vive-en-Paris.wav,./stim/wavs/chilean_mismatch_declarative-broad-focus_La-maestra-vive-en-Paris.wav,./stim/wavs/cuban_mismatch_declarative-broad-focus_La-maestra-vive-en-Paris.wav,./stim/wavs/mexican_mismatch_declarative-broad-focus_La-maestra-vive-en-Paris.wav,./stim/wavs/peruvian_mismatch_declarative-broad-focus_La-maestra-vive-en-Paris.wav,./stim/wavs/puertorican_mismatch_declarative-broad-focus_La-maestra-vive-en-Paris.wav,,,,,,,,,,,,,,,,,,,,,,,,,,,,,,,,,,,,,,,,,,,,,,,,,,,,,,,,
,,,,,,,6057880f8633bbd79c6f10d8,605b45a4d25f287719a41696,605f29508d6d1f810f2bb70d,United States,Northeast,13 or older,no,2021-03-27_08h49.09.157,empathy_intonation_perc,2020.2.10,Win32,60,,,,,,,,,,1,castilian,1,1,1.78343,0,21,21,23,1,24,./stim/wavs/andalusian_match_interrogative-partial-wh_Por-que-iba-a-Bolivia.wav,./stim/wavs/argentine_match_interrogative-partial-wh_Por-que-iba-a-Bolivia.wav,./stim/wavs/castilian_match_interrogative-partial-wh_Por-que-iba-a-Bolivia.wav,./stim/wavs/chilean_match_interrogative-partial-wh_Por-que-iba-a-Bolivia.wav,./stim/wavs/cuban_match_interrogative-partial-wh_Por-que-iba-a-Bolivia.wav,./stim/wavs/mexican_match_interrogative-partial-wh_Por-que-iba-a-Bolivia.wav,./stim/wavs/peruvian_match_interrogative-partial-wh_Por-que-iba-a-Bolivia.wav,./stim/wavs/puertorican_match_interrogative-partial-wh_Por-que-iba-a-Bolivia.wav,,,,,,,,,,,,,,,,,,,,,,,,,,,,,,,,,,,,,,,,,,,,,,,,,,,,,,,,
,,,,,,,6057880f8633bbd79c6f10d8,605b45a4d25f287719a41696,605f29508d6d1f810f2bb70d,United States,Northeast,13 or older,no,2021-03-27_08h49.09.157,empathy_intonation_perc,2020.2.10,Win32,60,,,,,,,,,,0,cuban,0,1,1.7152,0,22,22,6,1,7,./stim/wavs/andalusian_match_declarative-broad-focus_Mariano-habla-del-tiempo.wav,./stim/wavs/argentine_match_declarative-broad-focus_Mariano-habla-del-tiempo.wav,./stim/wavs/castilian_match_declarative-broad-focus_Mariano-habla-del-tiempo.wav,./stim/wavs/chilean_match_declarative-broad-focus_Mariano-habla-del-tiempo.wav,./stim/wavs/cuban_match_declarative-broad-focus_Mariano-habla-del-tiempo.wav,./stim/wavs/mexican_match_declarative-broad-focus_Mariano-habla-del-tiempo.wav,./stim/wavs/peruvian_match_declarative-broad-focus_Mariano-habla-del-tiempo.wav,./stim/wavs/puertorican_match_declarative-broad-focus_Mariano-habla-del-tiempo.wav,,,,,,,,,,,,,,,,,,,,,,,,,,,,,,,,,,,,,,,,,,,,,,,,,,,,,,,,
,,,,,,,6057880f8633bbd79c6f10d8,605b45a4d25f287719a41696,605f29508d6d1f810f2bb70d,United States,Northeast,13 or older,no,2021-03-27_08h49.09.157,empathy_intonation_perc,2020.2.10,Win32,60,,,,,,,,,,0,mexican,0,1,2.74577,0,23,23,32,1,33,./stim/wavs/andalusian_mismatch_declarative-broad-focus_El-bebe-comia-muy-bien.wav,./stim/wavs/argentine_mismatch_declarative-broad-focus_El-bebe-comia-muy-bien.wav,./stim/wavs/castilian_mismatch_declarative-broad-focus_El-bebe-comia-muy-bien.wav,./stim/wavs/chilean_mismatch_declarative-broad-focus_El-bebe-comia-muy-bien.wav,./stim/wavs/cuban_mismatch_declarative-broad-focus_El-bebe-comia-muy-bien.wav,./stim/wavs/mexican_mismatch_declarative-broad-focus_El-bebe-comia-muy-bien.wav,./stim/wavs/peruvian_mismatch_declarative-broad-focus_El-bebe-comia-muy-bien.wav,./stim/wavs/puertorican_mismatch_declarative-broad-focus_El-bebe-comia-muy-bien.wav,,,,,,,,,,,,,,,,,,,,,,,,,,,,,,,,,,,,,,,,,,,,,,,,,,,,,,,,
,,,,,,,6057880f8633bbd79c6f10d8,605b45a4d25f287719a41696,605f29508d6d1f810f2bb70d,United States,Northeast,13 or older,no,2021-03-27_08h49.09.157,empathy_intonation_perc,2020.2.10,Win32,60,,,,,,,,,,1,mexican,0,0,1.433065,0,24,24,31,1,32,./stim/wavs/andalusian_match_interrogative-total-yn_Marta-abre-el-regalo.wav,./stim/wavs/argentine_match_interrogative-total-yn_Marta-abre-el-regalo.wav,./stim/wavs/castilian_match_interrogative-total-yn_Marta-abre-el-regalo.wav,./stim/wavs/chilean_match_interrogative-total-yn_Marta-abre-el-regalo.wav,./stim/wavs/cuban_match_interrogative-total-yn_Marta-abre-el-regalo.wav,./stim/wavs/mexican_match_interrogative-total-yn_Marta-abre-el-regalo.wav,./stim/wavs/peruvian_match_interrogative-total-yn_Marta-abre-el-regalo.wav,./stim/wavs/puertorican_match_interrogative-total-yn_Marta-abre-el-regalo.wav,,,,,,,,,,,,,,,,,,,,,,,,,,,,,,,,,,,,,,,,,,,,,,,,,,,,,,,,
,,,,,,,6057880f8633bbd79c6f10d8,605b45a4d25f287719a41696,605f29508d6d1f810f2bb70d,United States,Northeast,13 or older,no,2021-03-27_08h49.09.157,empathy_intonation_perc,2020.2.10,Win32,60,,,,,,,,,,1,chilean,1,1,1.82926,0,25,25,48,1,49,./stim/wavs/andalusian_mismatch_interrogative-partial-wh_Cuando-comia-la-fruta.wav,./stim/wavs/argentine_mismatch_interrogative-partial-wh_Cuando-comia-la-fruta.wav,./stim/wavs/castilian_mismatch_interrogative-partial-wh_Cuando-comia-la-fruta.wav,./stim/wavs/chilean_mismatch_interrogative-partial-wh_Cuando-comia-la-fruta.wav,./stim/wavs/cuban_mismatch_interrogative-partial-wh_Cuando-comia-la-fruta.wav,./stim/wavs/mexican_mismatch_interrogative-partial-wh_Cuando-comia-la-fruta.wav,./stim/wavs/peruvian_mismatch_interrogative-partial-wh_Cuando-comia-la-fruta.wav,./stim/wavs/puertorican_mismatch_interrogative-partial-wh_Cuando-comia-la-fruta.wav,,,,,,,,,,,,,,,,,,,,,,,,,,,,,,,,,,,,,,,,,,,,,,,,,,,,,,,,
,,,,,,,6057880f8633bbd79c6f10d8,605b45a4d25f287719a41696,605f29508d6d1f810f2bb70d,United States,Northeast,13 or older,no,2021-03-27_08h49.09.157,empathy_intonation_perc,2020.2.10,Win32,60,,,,,,,,,,0,argentine,0,1,1.732865,0,26,26,34,1,35,./stim/wavs/andalusian_mismatch_declarative-broad-focus_El-nino-oye-el-rio.wav,./stim/wavs/argentine_mismatch_declarative-broad-focus_El-nino-oye-el-rio.wav,./stim/wavs/castilian_mismatch_declarative-broad-focus_El-nino-oye-el-rio.wav,./stim/wavs/chilean_mismatch_declarative-broad-focus_El-nino-oye-el-rio.wav,./stim/wavs/cuban_mismatch_declarative-broad-focus_El-nino-oye-el-rio.wav,./stim/wavs/mexican_mismatch_declarative-broad-focus_El-nino-oye-el-rio.wav,./stim/wavs/peruvian_mismatch_declarative-broad-focus_El-nino-oye-el-rio.wav,./stim/wavs/puertorican_mismatch_declarative-broad-focus_El-nino-oye-el-rio.wav,,,,,,,,,,,,,,,,,,,,,,,,,,,,,,,,,,,,,,,,,,,,,,,,,,,,,,,,
,,,,,,,6057880f8633bbd79c6f10d8,605b45a4d25f287719a41696,605f29508d6d1f810f2bb70d,United States,Northeast,13 or older,no,2021-03-27_08h49.09.157,empathy_intonation_perc,2020.2.10,Win32,60,,,,,,,,,,0,puertorican,0,1,1.51586,0,27,27,13,1,14,./stim/wavs/andalusian_match_declarative-narrow-focus_Maria-bebe-el-vino.wav,./stim/wavs/argentine_match_declarative-narrow-focus_Maria-bebe-el-vino.wav,./stim/wavs/castilian_match_declarative-narrow-focus_Maria-bebe-el-vino.wav,./stim/wavs/chilean_match_declarative-narrow-focus_Maria-bebe-el-vino.wav,./stim/wavs/cuban_match_declarative-narrow-focus_Maria-bebe-el-vino.wav,./stim/wavs/mexican_match_declarative-narrow-focus_Maria-bebe-el-vino.wav,./stim/wavs/peruvian_match_declarative-narrow-focus_Maria-bebe-el-vino.wav,./stim/wavs/puertorican_match_declarative-narrow-focus_Maria-bebe-el-vino.wav,,,,,,,,,,,,,,,,,,,,,,,,,,,,,,,,,,,,,,,,,,,,,,,,,,,,,,,,
,,,,,,,6057880f8633bbd79c6f10d8,605b45a4d25f287719a41696,605f29508d6d1f810f2bb70d,United States,Northeast,13 or older,no,2021-03-27_08h49.09.157,empathy_intonation_perc,2020.2.10,Win32,60,,,,,,,,,,1,castilian,0,0,1.96469,0,28,28,26,1,27,./stim/wavs/andalusian_match_interrogative-total-yn_David-leia-el-libro.wav,./stim/wavs/argentine_match_interrogative-total-yn_David-leia-el-libro.wav,./stim/wavs/castilian_match_interrogative-total-yn_David-leia-el-libro.wav,./stim/wavs/chilean_match_interrogative-total-yn_David-leia-el-libro.wav,./stim/wavs/cuban_match_interrogative-total-yn_David-leia-el-libro.wav,./stim/wavs/mexican_match_interrogative-total-yn_David-leia-el-libro.wav,./stim/wavs/peruvian_match_interrogative-total-yn_David-leia-el-libro.wav,./stim/wavs/puertorican_match_interrogative-total-yn_David-leia-el-libro.wav,,,,,,,,,,,,,,,,,,,,,,,,,,,,,,,,,,,,,,,,,,,,,,,,,,,,,,,,
,,,,,,,6057880f8633bbd79c6f10d8,605b45a4d25f287719a41696,605f29508d6d1f810f2bb70d,United States,Northeast,13 or older,no,2021-03-27_08h49.09.157,empathy_intonation_perc,2020.2.10,Win32,60,,,,,,,,,,1,chilean,1,1,2.098635,0,29,29,16,1,17,./stim/wavs/andalusian_match_interrogative-partial-wh_Cuando-bebia-el-vino.wav,./stim/wavs/argentine_match_interrogative-partial-wh_Cuando-bebia-el-vino.wav,./stim/wavs/castilian_match_interrogative-partial-wh_Cuando-bebia-el-vino.wav,./stim/wavs/chilean_match_interrogative-partial-wh_Cuando-bebia-el-vino.wav,./stim/wavs/cuban_match_interrogative-partial-wh_Cuando-bebia-el-vino.wav,./stim/wavs/mexican_match_interrogative-partial-wh_Cuando-bebia-el-vino.wav,./stim/wavs/peruvian_match_interrogative-partial-wh_Cuando-bebia-el-vino.wav,./stim/wavs/puertorican_match_interrogative-partial-wh_Cuando-bebia-el-vino.wav,,,,,,,,,,,,,,,,,,,,,,,,,,,,,,,,,,,,,,,,,,,,,,,,,,,,,,,,
,,,,,,,6057880f8633bbd79c6f10d8,605b45a4d25f287719a41696,605f29508d6d1f810f2bb70d,United States,Northeast,13 or older,no,2021-03-27_08h49.09.157,empathy_intonation_perc,2020.2.10,Win32,60,,,,,,,,,,1,castilian,1,1,1.735375,0,30,30,19,1,20,./stim/wavs/andalusian_match_interrogative-partial-wh_Cuando-vendia-el-carro.wav,./stim/wavs/argentine_match_interrogative-partial-wh_Cuando-vendia-el-carro.wav,./stim/wavs/castilian_match_interrogative-partial-wh_Cuando-vendia-el-carro.wav,./stim/wavs/chilean_match_interrogative-partial-wh_Cuando-vendia-el-carro.wav,./stim/wavs/cuban_match_interrogative-partial-wh_Cuando-vendia-el-carro.wav,./stim/wavs/mexican_match_interrogative-partial-wh_Cuando-vendia-el-carro.wav,./stim/wavs/peruvian_match_interrogative-partial-wh_Cuando-vendia-el-carro.wav,./stim/wavs/puertorican_match_interrogative-partial-wh_Cuando-vendia-el-carro.wav,,,,,,,,,,,,,,,,,,,,,,,,,,,,,,,,,,,,,,,,,,,,,,,,,,,,,,,,
,,,,,,,6057880f8633bbd79c6f10d8,605b45a4d25f287719a41696,605f29508d6d1f810f2bb70d,United States,Northeast,13 or older,no,2021-03-27_08h49.09.157,empathy_intonation_perc,2020.2.10,Win32,60,,,,,,,,,,0,chilean,0,1,1.398475,0,31,31,15,1,16,./stim/wavs/andalusian_match_declarative-narrow-focus_Marta-abre-el-regalo.wav,./stim/wavs/argentine_match_declarative-narrow-focus_Marta-abre-el-regalo.wav,./stim/wavs/castilian_match_declarative-narrow-focus_Marta-abre-el-regalo.wav,./stim/wavs/chilean_match_declarative-narrow-focus_Marta-abre-el-regalo.wav,./stim/wavs/cuban_match_declarative-narrow-focus_Marta-abre-el-regalo.wav,./stim/wavs/mexican_match_declarative-narrow-focus_Marta-abre-el-regalo.wav,./stim/wavs/peruvian_match_declarative-narrow-focus_Marta-abre-el-regalo.wav,./stim/wavs/puertorican_match_declarative-narrow-focus_Marta-abre-el-regalo.wav,,,,,,,,,,,,,,,,,,,,,,,,,,,,,,,,,,,,,,,,,,,,,,,,,,,,,,,,
,,,,,,,6057880f8633bbd79c6f10d8,605b45a4d25f287719a41696,605f29508d6d1f810f2bb70d,United States,Northeast,13 or older,no,2021-03-27_08h49.09.157,empathy_intonation_perc,2020.2.10,Win32,60,,,,,,,,,,1,argentine,1,1,1.80518,0,32,32,55,1,56,./stim/wavs/andalusian_mismatch_interrogative-partial-wh_Por-que-vivia-en-Paris.wav,./stim/wavs/argentine_mismatch_interrogative-partial-wh_Por-que-vivia-en-Paris.wav,./stim/wavs/castilian_mismatch_interrogative-partial-wh_Por-que-vivia-en-Paris.wav,./stim/wavs/chilean_mismatch_interrogative-partial-wh_Por-que-vivia-en-Paris.wav,./stim/wavs/cuban_mismatch_interrogative-partial-wh_Por-que-vivia-en-Paris.wav,./stim/wavs/mexican_mismatch_interrogative-partial-wh_Por-que-vivia-en-Paris.wav,./stim/wavs/peruvian_mismatch_interrogative-partial-wh_Por-que-vivia-en-Paris.wav,./stim/wavs/puertorican_mismatch_interrogative-partial-wh_Por-que-vivia-en-Paris.wav,,,,,,,,,,,,,,,,,,,,,,,,,,,,,,,,,,,,,,,,,,,,,,,,,,,,,,,,
,,,,,,,6057880f8633bbd79c6f10d8,605b45a4d25f287719a41696,605f29508d6d1f810f2bb70d,United States,Northeast,13 or older,no,2021-03-27_08h49.09.157,empathy_intonation_perc,2020.2.10,Win32,60,,,,,,,,,,1,andalusian,1,1,2.157145,0,33,33,21,1,22,./stim/wavs/andalusian_match_interrogative-partial-wh_Por-que-ama-la-navidad.wav,./stim/wavs/argentine_match_interrogative-partial-wh_Por-que-ama-la-navidad.wav,./stim/wavs/castilian_match_interrogative-partial-wh_Por-que-ama-la-navidad.wav,./stim/wavs/chilean_match_interrogative-partial-wh_Por-que-ama-la-navidad.wav,./stim/wavs/cuban_match_interrogative-partial-wh_Por-que-ama-la-navidad.wav,./stim/wavs/mexican_match_interrogative-partial-wh_Por-que-ama-la-navidad.wav,./stim/wavs/peruvian_match_interrogative-partial-wh_Por-que-ama-la-navidad.wav,./stim/wavs/puertorican_match_interrogative-partial-wh_Por-que-ama-la-navidad.wav,,,,,,,,,,,,,,,,,,,,,,,,,,,,,,,,,,,,,,,,,,,,,,,,,,,,,,,,
,,,,,,,6057880f8633bbd79c6f10d8,605b45a4d25f287719a41696,605f29508d6d1f810f2bb70d,United States,Northeast,13 or older,no,2021-03-27_08h49.09.157,empathy_intonation_perc,2020.2.10,Win32,60,,,,,,,,,,0,chilean,0,1,1.798355,0,34,34,47,1,48,./stim/wavs/andalusian_mismatch_declarative-narrow-focus_Mi-tia-odia-la-lluvia.wav,./stim/wavs/argentine_mismatch_declarative-narrow-focus_Mi-tia-odia-la-lluvia.wav,./stim/wavs/castilian_mismatch_declarative-narrow-focus_Mi-tia-odia-la-lluvia.wav,./stim/wavs/chilean_mismatch_declarative-narrow-focus_Mi-tia-odia-la-lluvia.wav,./stim/wavs/cuban_mismatch_declarative-narrow-focus_Mi-tia-odia-la-lluvia.wav,./stim/wavs/mexican_mismatch_declarative-narrow-focus_Mi-tia-odia-la-lluvia.wav,./stim/wavs/peruvian_mismatch_declarative-narrow-focus_Mi-tia-odia-la-lluvia.wav,./stim/wavs/puertorican_mismatch_declarative-narrow-focus_Mi-tia-odia-la-lluvia.wav,,,,,,,,,,,,,,,,,,,,,,,,,,,,,,,,,,,,,,,,,,,,,,,,,,,,,,,,
,,,,,,,6057880f8633bbd79c6f10d8,605b45a4d25f287719a41696,605f29508d6d1f810f2bb70d,United States,Northeast,13 or older,no,2021-03-27_08h49.09.157,empathy_intonation_perc,2020.2.10,Win32,60,,,,,,,,,,1,castilian,1,1,1.76278,0,35,35,50,1,51,./stim/wavs/andalusian_mismatch_interrogative-partial-wh_Cuando-miraba-la-luna.wav,./stim/wavs/argentine_mismatch_interrogative-partial-wh_Cuando-miraba-la-luna.wav,./stim/wavs/castilian_mismatch_interrogative-partial-wh_Cuando-miraba-la-luna.wav,./stim/wavs/chilean_mismatch_interrogative-partial-wh_Cuando-miraba-la-luna.wav,./stim/wavs/cuban_mismatch_interrogative-partial-wh_Cuando-miraba-la-luna.wav,./stim/wavs/mexican_mismatch_interrogative-partial-wh_Cuando-miraba-la-luna.wav,./stim/wavs/peruvian_mismatch_interrogative-partial-wh_Cuando-miraba-la-luna.wav,./stim/wavs/puertorican_mismatch_interrogative-partial-wh_Cuando-miraba-la-luna.wav,,,,,,,,,,,,,,,,,,,,,,,,,,,,,,,,,,,,,,,,,,,,,,,,,,,,,,,,
,,,,,,,6057880f8633bbd79c6f10d8,605b45a4d25f287719a41696,605f29508d6d1f810f2bb70d,United States,Northeast,13 or older,no,2021-03-27_08h49.09.157,empathy_intonation_perc,2020.2.10,Win32,60,,,,,,,,,,1,puertorican,0,0,1.51582,0,36,36,25,1,26,./stim/wavs/andalusian_match_interrogative-total-yn_Daniel-iba-a-Bolivia.wav,./stim/wavs/argentine_match_interrogative-total-yn_Daniel-iba-a-Bolivia.wav,./stim/wavs/castilian_match_interrogative-total-yn_Daniel-iba-a-Bolivia.wav,./stim/wavs/chilean_match_interrogative-total-yn_Daniel-iba-a-Bolivia.wav,./stim/wavs/cuban_match_interrogative-total-yn_Daniel-iba-a-Bolivia.wav,./stim/wavs/mexican_match_interrogative-total-yn_Daniel-iba-a-Bolivia.wav,./stim/wavs/peruvian_match_interrogative-total-yn_Daniel-iba-a-Bolivia.wav,./stim/wavs/puertorican_match_interrogative-total-yn_Daniel-iba-a-Bolivia.wav,,,,,,,,,,,,,,,,,,,,,,,,,,,,,,,,,,,,,,,,,,,,,,,,,,,,,,,,
,,,,,,,6057880f8633bbd79c6f10d8,605b45a4d25f287719a41696,605f29508d6d1f810f2bb70d,United States,Northeast,13 or older,no,2021-03-27_08h49.09.157,empathy_intonation_perc,2020.2.10,Win32,60,,,,,,,,,,0,peruvian,0,1,1.87935,0,37,37,38,1,39,./stim/wavs/andalusian_mismatch_declarative-broad-focus_Mi-novio-viene-del-lago.wav,./stim/wavs/argentine_mismatch_declarative-broad-focus_Mi-novio-viene-del-lago.wav,./stim/wavs/castilian_mismatch_declarative-broad-focus_Mi-novio-viene-del-lago.wav,./stim/wavs/chilean_mismatch_declarative-broad-focus_Mi-novio-viene-del-lago.wav,./stim/wavs/cuban_mismatch_declarative-broad-focus_Mi-novio-viene-del-lago.wav,./stim/wavs/mexican_mismatch_declarative-broad-focus_Mi-novio-viene-del-lago.wav,./stim/wavs/peruvian_mismatch_declarative-broad-focus_Mi-novio-viene-del-lago.wav,./stim/wavs/puertorican_mismatch_declarative-broad-focus_Mi-novio-viene-del-lago.wav,,,,,,,,,,,,,,,,,,,,,,,,,,,,,,,,,,,,,,,,,,,,,,,,,,,,,,,,
,,,,,,,6057880f8633bbd79c6f10d8,605b45a4d25f287719a41696,605f29508d6d1f810f2bb70d,United States,Northeast,13 or older,no,2021-03-27_08h49.09.157,empathy_intonation_perc,2020.2.10,Win32,60,,,,,,,,,,0,castilian,0,1,3.282555,0,38,38,2,1,3,./stim/wavs/andalusian_match_declarative-broad-focus_David-leia-el-libro.wav,./stim/wavs/argentine_match_declarative-broad-focus_David-leia-el-libro.wav,./stim/wavs/castilian_match_declarative-broad-focus_David-leia-el-libro.wav,./stim/wavs/chilean_match_declarative-broad-focus_David-leia-el-libro.wav,./stim/wavs/cuban_match_declarative-broad-focus_David-leia-el-libro.wav,./stim/wavs/mexican_match_declarative-broad-focus_David-leia-el-libro.wav,./stim/wavs/peruvian_match_declarative-broad-focus_David-leia-el-libro.wav,./stim/wavs/puertorican_match_declarative-broad-focus_David-leia-el-libro.wav,,,,,,,,,,,,,,,,,,,,,,,,,,,,,,,,,,,,,,,,,,,,,,,,,,,,,,,,
,,,,,,,6057880f8633bbd79c6f10d8,605b45a4d25f287719a41696,605f29508d6d1f810f2bb70d,United States,Northeast,13 or older,no,2021-03-27_08h49.09.157,empathy_intonation_perc,2020.2.10,Win32,60,,,,,,,,,,1,argentine,1,1,2.033515,0,39,39,27,1,28,./stim/wavs/andalusian_match_interrogative-total-yn_Emilio-ama-la-marcha.wav,./stim/wavs/argentine_match_interrogative-total-yn_Emilio-ama-la-marcha.wav,./stim/wavs/castilian_match_interrogative-total-yn_Emilio-ama-la-marcha.wav,./stim/wavs/chilean_match_interrogative-total-yn_Emilio-ama-la-marcha.wav,./stim/wavs/cuban_match_interrogative-total-yn_Emilio-ama-la-marcha.wav,./stim/wavs/mexican_match_interrogative-total-yn_Emilio-ama-la-marcha.wav,./stim/wavs/peruvian_match_interrogative-total-yn_Emilio-ama-la-marcha.wav,./stim/wavs/puertorican_match_interrogative-total-yn_Emilio-ama-la-marcha.wav,,,,,,,,,,,,,,,,,,,,,,,,,,,,,,,,,,,,,,,,,,,,,,,,,,,,,,,,
,,,,,,,6057880f8633bbd79c6f10d8,605b45a4d25f287719a41696,605f29508d6d1f810f2bb70d,United States,Northeast,13 or older,no,2021-03-27_08h49.09.157,empathy_intonation_perc,2020.2.10,Win32,60,,,,,,,,,,1,cuban,0,0,1.63184,0,40,40,30,1,31,./stim/wavs/andalusian_match_interrogative-total-yn_Mariano-habla-del-tiempo.wav,./stim/wavs/argentine_match_interrogative-total-yn_Mariano-habla-del-tiempo.wav,./stim/wavs/castilian_match_interrogative-total-yn_Mariano-habla-del-tiempo.wav,./stim/wavs/chilean_match_interrogative-total-yn_Mariano-habla-del-tiempo.wav,./stim/wavs/cuban_match_interrogative-total-yn_Mariano-habla-del-tiempo.wav,./stim/wavs/mexican_match_interrogative-total-yn_Mariano-habla-del-tiempo.wav,./stim/wavs/peruvian_match_interrogative-total-yn_Mariano-habla-del-tiempo.wav,./stim/wavs/puertorican_match_interrogative-total-yn_Mariano-habla-del-tiempo.wav,,,,,,,,,,,,,,,,,,,,,,,,,,,,,,,,,,,,,,,,,,,,,,,,,,,,,,,,
,,,,,,,6057880f8633bbd79c6f10d8,605b45a4d25f287719a41696,605f29508d6d1f810f2bb70d,United States,Northeast,13 or older,no,2021-03-27_08h49.09.157,empathy_intonation_perc,2020.2.10,Win32,60,,,,,,,,,,0,peruvian,0,1,1.482245,0,41,41,9,1,10,./stim/wavs/andalusian_match_declarative-narrow-focus_Daniel-iba-a-Bolivia.wav,./stim/wavs/argentine_match_declarative-narrow-focus_Daniel-iba-a-Bolivia.wav,./stim/wavs/castilian_match_declarative-narrow-focus_Daniel-iba-a-Bolivia.wav,./stim/wavs/chilean_match_declarative-narrow-focus_Daniel-iba-a-Bolivia.wav,./stim/wavs/cuban_match_declarative-narrow-focus_Daniel-iba-a-Bolivia.wav,./stim/wavs/mexican_match_declarative-narrow-focus_Daniel-iba-a-Bolivia.wav,./stim/wavs/peruvian_match_declarative-narrow-focus_Daniel-iba-a-Bolivia.wav,./stim/wavs/puertorican_match_declarative-narrow-focus_Daniel-iba-a-Bolivia.wav,,,,,,,,,,,,,,,,,,,,,,,,,,,,,,,,,,,,,,,,,,,,,,,,,,,,,,,,
,,,,,,,6057880f8633bbd79c6f10d8,605b45a4d25f287719a41696,605f29508d6d1f810f2bb70d,United States,Northeast,13 or older,no,2021-03-27_08h49.09.157,empathy_intonation_perc,2020.2.10,Win32,60,,,,,,,,,,1,argentine,1,1,1.41632,0,42,42,53,1,54,./stim/wavs/andalusian_mismatch_interrogative-partial-wh_Por-que-oia-el-rio.wav,./stim/wavs/argentine_mismatch_interrogative-partial-wh_Por-que-oia-el-rio.wav,./stim/wavs/castilian_mismatch_interrogative-partial-wh_Por-que-oia-el-rio.wav,./stim/wavs/chilean_mismatch_interrogative-partial-wh_Por-que-oia-el-rio.wav,./stim/wavs/cuban_mismatch_interrogative-partial-wh_Por-que-oia-el-rio.wav,./stim/wavs/mexican_mismatch_interrogative-partial-wh_Por-que-oia-el-rio.wav,./stim/wavs/peruvian_mismatch_interrogative-partial-wh_Por-que-oia-el-rio.wav,./stim/wavs/puertorican_mismatch_interrogative-partial-wh_Por-que-oia-el-rio.wav,,,,,,,,,,,,,,,,,,,,,,,,,,,,,,,,,,,,,,,,,,,,,,,,,,,,,,,,
,,,,,,,6057880f8633bbd79c6f10d8,605b45a4d25f287719a41696,605f29508d6d1f810f2bb70d,United States,Northeast,13 or older,no,2021-03-27_08h49.09.157,empathy_intonation_perc,2020.2.10,Win32,60,,,,,,,,,,1,cuban,0,0,1.664695,0,43,43,28,1,29,./stim/wavs/andalusian_match_interrogative-total-yn_Manuela-vende-el-carro.wav,./stim/wavs/argentine_match_interrogative-total-yn_Manuela-vende-el-carro.wav,./stim/wavs/castilian_match_interrogative-total-yn_Manuela-vende-el-carro.wav,./stim/wavs/chilean_match_interrogative-total-yn_Manuela-vende-el-carro.wav,./stim/wavs/cuban_match_interrogative-total-yn_Manuela-vende-el-carro.wav,./stim/wavs/mexican_match_interrogative-total-yn_Manuela-vende-el-carro.wav,./stim/wavs/peruvian_match_interrogative-total-yn_Manuela-vende-el-carro.wav,./stim/wavs/puertorican_match_interrogative-total-yn_Manuela-vende-el-carro.wav,,,,,,,,,,,,,,,,,,,,,,,,,,,,,,,,,,,,,,,,,,,,,,,,,,,,,,,,
,,,,,,,6057880f8633bbd79c6f10d8,605b45a4d25f287719a41696,605f29508d6d1f810f2bb70d,United States,Northeast,13 or older,no,2021-03-27_08h49.09.157,empathy_intonation_perc,2020.2.10,Win32,60,,,,,,,,,,1,cuban,0,0,1.394125,0,44,44,57,1,58,./stim/wavs/andalusian_mismatch_interrogative-total-yn_El-hombre-mira-la-luna.wav,./stim/wavs/argentine_mismatch_interrogative-total-yn_El-hombre-mira-la-luna.wav,./stim/wavs/castilian_mismatch_interrogative-total-yn_El-hombre-mira-la-luna.wav,./stim/wavs/chilean_mismatch_interrogative-total-yn_El-hombre-mira-la-luna.wav,./stim/wavs/cuban_mismatch_interrogative-total-yn_El-hombre-mira-la-luna.wav,./stim/wavs/mexican_mismatch_interrogative-total-yn_El-hombre-mira-la-luna.wav,./stim/wavs/peruvian_mismatch_interrogative-total-yn_El-hombre-mira-la-luna.wav,./stim/wavs/puertorican_mismatch_interrogative-total-yn_El-hombre-mira-la-luna.wav,,,,,,,,,,,,,,,,,,,,,,,,,,,,,,,,,,,,,,,,,,,,,,,,,,,,,,,,
,,,,,,,6057880f8633bbd79c6f10d8,605b45a4d25f287719a41696,605f29508d6d1f810f2bb70d,United States,Northeast,13 or older,no,2021-03-27_08h49.09.157,empathy_intonation_perc,2020.2.10,Win32,60,,,,,,,,,,0,peruvian,0,1,1.748995,0,45,45,8,1,9,./stim/wavs/andalusian_match_declarative-narrow-focus_Ana-lleva-el-abrigo.wav,./stim/wavs/argentine_match_declarative-narrow-focus_Ana-lleva-el-abrigo.wav,./stim/wavs/castilian_match_declarative-narrow-focus_Ana-lleva-el-abrigo.wav,./stim/wavs/chilean_match_declarative-narrow-focus_Ana-lleva-el-abrigo.wav,./stim/wavs/cuban_match_declarative-narrow-focus_Ana-lleva-el-abrigo.wav,./stim/wavs/mexican_match_declarative-narrow-focus_Ana-lleva-el-abrigo.wav,./stim/wavs/peruvian_match_declarative-narrow-focus_Ana-lleva-el-abrigo.wav,./stim/wavs/puertorican_match_declarative-narrow-focus_Ana-lleva-el-abrigo.wav,,,,,,,,,,,,,,,,,,,,,,,,,,,,,,,,,,,,,,,,,,,,,,,,,,,,,,,,
,,,,,,,6057880f8633bbd79c6f10d8,605b45a4d25f287719a41696,605f29508d6d1f810f2bb70d,United States,Northeast,13 or older,no,2021-03-27_08h49.09.157,empathy_intonation_perc,2020.2.10,Win32,60,,,,,,,,,,1,mexican,1,1,1.416535,0,46,46,52,1,53,./stim/wavs/andalusian_mismatch_interrogative-partial-wh_Por-que-odiaba-la-lluvia.wav,./stim/wavs/argentine_mismatch_interrogative-partial-wh_Por-que-odiaba-la-lluvia.wav,./stim/wavs/castilian_mismatch_interrogative-partial-wh_Por-que-odiaba-la-lluvia.wav,./stim/wavs/chilean_mismatch_interrogative-partial-wh_Por-que-odiaba-la-lluvia.wav,./stim/wavs/cuban_mismatch_interrogative-partial-wh_Por-que-odiaba-la-lluvia.wav,./stim/wavs/mexican_mismatch_interrogative-partial-wh_Por-que-odiaba-la-lluvia.wav,./stim/wavs/peruvian_mismatch_interrogative-partial-wh_Por-que-odiaba-la-lluvia.wav,./stim/wavs/puertorican_mismatch_interrogative-partial-wh_Por-que-odiaba-la-lluvia.wav,,,,,,,,,,,,,,,,,,,,,,,,,,,,,,,,,,,,,,,,,,,,,,,,,,,,,,,,
,,,,,,,6057880f8633bbd79c6f10d8,605b45a4d25f287719a41696,605f29508d6d1f810f2bb70d,United States,Northeast,13 or older,no,2021-03-27_08h49.09.157,empathy_intonation_perc,2020.2.10,Win32,60,,,,,,,,,,0,chilean,0,1,2.477975,0,47,47,39,1,40,./stim/wavs/andalusian_mismatch_declarative-broad-focus_Mi-tia-odia-la-lluvia.wav,./stim/wavs/argentine_mismatch_declarative-broad-focus_Mi-tia-odia-la-lluvia.wav,./stim/wavs/castilian_mismatch_declarative-broad-focus_Mi-tia-odia-la-lluvia.wav,./stim/wavs/chilean_mismatch_declarative-broad-focus_Mi-tia-odia-la-lluvia.wav,./stim/wavs/cuban_mismatch_declarative-broad-focus_Mi-tia-odia-la-lluvia.wav,./stim/wavs/mexican_mismatch_declarative-broad-focus_Mi-tia-odia-la-lluvia.wav,./stim/wavs/peruvian_mismatch_declarative-broad-focus_Mi-tia-odia-la-lluvia.wav,./stim/wavs/puertorican_mismatch_declarative-broad-focus_Mi-tia-odia-la-lluvia.wav,,,,,,,,,,,,,,,,,,,,,,,,,,,,,,,,,,,,,,,,,,,,,,,,,,,,,,,,
,,,,,,,6057880f8633bbd79c6f10d8,605b45a4d25f287719a41696,605f29508d6d1f810f2bb70d,United States,Northeast,13 or older,no,2021-03-27_08h49.09.157,empathy_intonation_perc,2020.2.10,Win32,60,,,,,,,,,,1,chilean,0,0,1.83218,0,48,48,24,1,25,./stim/wavs/andalusian_match_interrogative-total-yn_Ana-lleva-el-abrigo.wav,./stim/wavs/argentine_match_interrogative-total-yn_Ana-lleva-el-abrigo.wav,./stim/wavs/castilian_match_interrogative-total-yn_Ana-lleva-el-abrigo.wav,./stim/wavs/chilean_match_interrogative-total-yn_Ana-lleva-el-abrigo.wav,./stim/wavs/cuban_match_interrogative-total-yn_Ana-lleva-el-abrigo.wav,./stim/wavs/mexican_match_interrogative-total-yn_Ana-lleva-el-abrigo.wav,./stim/wavs/peruvian_match_interrogative-total-yn_Ana-lleva-el-abrigo.wav,./stim/wavs/puertorican_match_interrogative-total-yn_Ana-lleva-el-abrigo.wav,,,,,,,,,,,,,,,,,,,,,,,,,,,,,,,,,,,,,,,,,,,,,,,,,,,,,,,,
,,,,,,,6057880f8633bbd79c6f10d8,605b45a4d25f287719a41696,605f29508d6d1f810f2bb70d,United States,Northeast,13 or older,no,2021-03-27_08h49.09.157,empathy_intonation_perc,2020.2.10,Win32,60,,,,,,,,,,0,peruvian,0,1,2.081835,0,49,49,40,1,41,./stim/wavs/andalusian_mismatch_declarative-narrow-focus_El-bebe-comia-muy-bien.wav,./stim/wavs/argentine_mismatch_declarative-narrow-focus_El-bebe-comia-muy-bien.wav,./stim/wavs/castilian_mismatch_declarative-narrow-focus_El-bebe-comia-muy-bien.wav,./stim/wavs/chilean_mismatch_declarative-narrow-focus_El-bebe-comia-muy-bien.wav,./stim/wavs/cuban_mismatch_declarative-narrow-focus_El-bebe-comia-muy-bien.wav,./stim/wavs/mexican_mismatch_declarative-narrow-focus_El-bebe-comia-muy-bien.wav,./stim/wavs/peruvian_mismatch_declarative-narrow-focus_El-bebe-comia-muy-bien.wav,./stim/wavs/puertorican_mismatch_declarative-narrow-focus_El-bebe-comia-muy-bien.wav,,,,,,,,,,,,,,,,,,,,,,,,,,,,,,,,,,,,,,,,,,,,,,,,,,,,,,,,
,,,,,,,6057880f8633bbd79c6f10d8,605b45a4d25f287719a41696,605f29508d6d1f810f2bb70d,United States,Northeast,13 or older,no,2021-03-27_08h49.09.157,empathy_intonation_perc,2020.2.10,Win32,60,,,,,,,,,,0,peruvian,0,1,1.696495,0,50,50,7,1,8,./stim/wavs/andalusian_match_declarative-broad-focus_Marta-abre-el-regalo.wav,./stim/wavs/argentine_match_declarative-broad-focus_Marta-abre-el-regalo.wav,./stim/wavs/castilian_match_declarative-broad-focus_Marta-abre-el-regalo.wav,./stim/wavs/chilean_match_declarative-broad-focus_Marta-abre-el-regalo.wav,./stim/wavs/cuban_match_declarative-broad-focus_Marta-abre-el-regalo.wav,./stim/wavs/mexican_match_declarative-broad-focus_Marta-abre-el-regalo.wav,./stim/wavs/peruvian_match_declarative-broad-focus_Marta-abre-el-regalo.wav,./stim/wavs/puertorican_match_declarative-broad-focus_Marta-abre-el-regalo.wav,,,,,,,,,,,,,,,,,,,,,,,,,,,,,,,,,,,,,,,,,,,,,,,,,,,,,,,,
,,,,,,,6057880f8633bbd79c6f10d8,605b45a4d25f287719a41696,605f29508d6d1f810f2bb70d,United States,Northeast,13 or older,no,2021-03-27_08h49.09.157,empathy_intonation_perc,2020.2.10,Win32,60,,,,,,,,,,1,cuban,0,0,2.21517,0,51,51,51,1,52,./stim/wavs/andalusian_mismatch_interrogative-partial-wh_Por-que-desayuna-muy-bien.wav,./stim/wavs/argentine_mismatch_interrogative-partial-wh_Por-que-desayuna-muy-bien.wav,./stim/wavs/castilian_mismatch_interrogative-partial-wh_Por-que-desayuna-muy-bien.wav,./stim/wavs/chilean_mismatch_interrogative-partial-wh_Por-que-desayuna-muy-bien.wav,./stim/wavs/cuban_mismatch_interrogative-partial-wh_Por-que-desayuna-muy-bien.wav,./stim/wavs/mexican_mismatch_interrogative-partial-wh_Por-que-desayuna-muy-bien.wav,./stim/wavs/peruvian_mismatch_interrogative-partial-wh_Por-que-desayuna-muy-bien.wav,./stim/wavs/puertorican_mismatch_interrogative-partial-wh_Por-que-desayuna-muy-bien.wav,,,,,,,,,,,,,,,,,,,,,,,,,,,,,,,,,,,,,,,,,,,,,,,,,,,,,,,,
,,,,,,,6057880f8633bbd79c6f10d8,605b45a4d25f287719a41696,605f29508d6d1f810f2bb70d,United States,Northeast,13 or older,no,2021-03-27_08h49.09.157,empathy_intonation_perc,2020.2.10,Win32,60,,,,,,,,,,1,chilean,0,0,1.78305,0,52,52,29,1,30,./stim/wavs/andalusian_match_interrogative-total-yn_Maria-bebe-el-vino.wav,./stim/wavs/argentine_match_interrogative-total-yn_Maria-bebe-el-vino.wav,./stim/wavs/castilian_match_interrogative-total-yn_Maria-bebe-el-vino.wav,./stim/wavs/chilean_match_interrogative-total-yn_Maria-bebe-el-vino.wav,./stim/wavs/cuban_match_interrogative-total-yn_Maria-bebe-el-vino.wav,./stim/wavs/mexican_match_interrogative-total-yn_Maria-bebe-el-vino.wav,./stim/wavs/peruvian_match_interrogative-total-yn_Maria-bebe-el-vino.wav,./stim/wavs/puertorican_match_interrogative-total-yn_Maria-bebe-el-vino.wav,,,,,,,,,,,,,,,,,,,,,,,,,,,,,,,,,,,,,,,,,,,,,,,,,,,,,,,,
,,,,,,,6057880f8633bbd79c6f10d8,605b45a4d25f287719a41696,605f29508d6d1f810f2bb70d,United States,Northeast,13 or older,no,2021-03-27_08h49.09.157,empathy_intonation_perc,2020.2.10,Win32,60,,,,,,,,,,0,puertorican,0,1,1.532235,0,53,53,11,1,12,./stim/wavs/andalusian_match_declarative-narrow-focus_Emilio-ama-la-marcha.wav,./stim/wavs/argentine_match_declarative-narrow-focus_Emilio-ama-la-marcha.wav,./stim/wavs/castilian_match_declarative-narrow-focus_Emilio-ama-la-marcha.wav,./stim/wavs/chilean_match_declarative-narrow-focus_Emilio-ama-la-marcha.wav,./stim/wavs/cuban_match_declarative-narrow-focus_Emilio-ama-la-marcha.wav,./stim/wavs/mexican_match_declarative-narrow-focus_Emilio-ama-la-marcha.wav,./stim/wavs/peruvian_match_declarative-narrow-focus_Emilio-ama-la-marcha.wav,./stim/wavs/puertorican_match_declarative-narrow-focus_Emilio-ama-la-marcha.wav,,,,,,,,,,,,,,,,,,,,,,,,,,,,,,,,,,,,,,,,,,,,,,,,,,,,,,,,
,,,,,,,6057880f8633bbd79c6f10d8,605b45a4d25f287719a41696,605f29508d6d1f810f2bb70d,United States,Northeast,13 or older,no,2021-03-27_08h49.09.157,empathy_intonation_perc,2020.2.10,Win32,60,,,,,,,,,,0,castilian,0,1,1.695825,0,54,54,1,1,2,./stim/wavs/andalusian_match_declarative-broad-focus_Daniel-iba-a-Bolivia.wav,./stim/wavs/argentine_match_declarative-broad-focus_Daniel-iba-a-Bolivia.wav,./stim/wavs/castilian_match_declarative-broad-focus_Daniel-iba-a-Bolivia.wav,./stim/wavs/chilean_match_declarative-broad-focus_Daniel-iba-a-Bolivia.wav,./stim/wavs/cuban_match_declarative-broad-focus_Daniel-iba-a-Bolivia.wav,./stim/wavs/mexican_match_declarative-broad-focus_Daniel-iba-a-Bolivia.wav,./stim/wavs/peruvian_match_declarative-broad-focus_Daniel-iba-a-Bolivia.wav,./stim/wavs/puertorican_match_declarative-broad-focus_Daniel-iba-a-Bolivia.wav,,,,,,,,,,,,,,,,,,,,,,,,,,,,,,,,,,,,,,,,,,,,,,,,,,,,,,,,
,,,,,,,6057880f8633bbd79c6f10d8,605b45a4d25f287719a41696,605f29508d6d1f810f2bb70d,United States,Northeast,13 or older,no,2021-03-27_08h49.09.157,empathy_intonation_perc,2020.2.10,Win32,60,,,,,,,,,,0,argentine,0,1,1.665915,0,55,55,42,1,43,./stim/wavs/andalusian_mismatch_declarative-narrow-focus_El-nino-oye-el-rio.wav,./stim/wavs/argentine_mismatch_declarative-narrow-focus_El-nino-oye-el-rio.wav,./stim/wavs/castilian_mismatch_declarative-narrow-focus_El-nino-oye-el-rio.wav,./stim/wavs/chilean_mismatch_declarative-narrow-focus_El-nino-oye-el-rio.wav,./stim/wavs/cuban_mismatch_declarative-narrow-focus_El-nino-oye-el-rio.wav,./stim/wavs/mexican_mismatch_declarative-narrow-focus_El-nino-oye-el-rio.wav,./stim/wavs/peruvian_mismatch_declarative-narrow-focus_El-nino-oye-el-rio.wav,./stim/wavs/puertorican_mismatch_declarative-narrow-focus_El-nino-oye-el-rio.wav,,,,,,,,,,,,,,,,,,,,,,,,,,,,,,,,,,,,,,,,,,,,,,,,,,,,,,,,
,,,,,,,6057880f8633bbd79c6f10d8,605b45a4d25f287719a41696,605f29508d6d1f810f2bb70d,United States,Northeast,13 or older,no,2021-03-27_08h49.09.157,empathy_intonation_perc,2020.2.10,Win32,60,,,,,,,,,,1,mexican,1,1,1.856545,0,56,56,60,1,61,./stim/wavs/andalusian_mismatch_interrogative-total-yn_La-nina-lava-el-plato.wav,./stim/wavs/argentine_mismatch_interrogative-total-yn_La-nina-lava-el-plato.wav,./stim/wavs/castilian_mismatch_interrogative-total-yn_La-nina-lava-el-plato.wav,./stim/wavs/chilean_mismatch_interrogative-total-yn_La-nina-lava-el-plato.wav,./stim/wavs/cuban_mismatch_interrogative-total-yn_La-nina-lava-el-plato.wav,./stim/wavs/mexican_mismatch_interrogative-total-yn_La-nina-lava-el-plato.wav,./stim/wavs/peruvian_mismatch_interrogative-total-yn_La-nina-lava-el-plato.wav,./stim/wavs/puertorican_mismatch_interrogative-total-yn_La-nina-lava-el-plato.wav,,,,,,,,,,,,,,,,,,,,,,,,,,,,,,,,,,,,,,,,,,,,,,,,,,,,,,,,
,,,,,,,6057880f8633bbd79c6f10d8,605b45a4d25f287719a41696,605f29508d6d1f810f2bb70d,United States,Northeast,13 or older,no,2021-03-27_08h49.09.157,empathy_intonation_perc,2020.2.10,Win32,60,,,,,,,,,,1,andalusian,1,1,1.49996,0,57,57,22,1,23,./stim/wavs/andalusian_match_interrogative-partial-wh_Por-que-hablaba-del-agua.wav,./stim/wavs/argentine_match_interrogative-partial-wh_Por-que-hablaba-del-agua.wav,./stim/wavs/castilian_match_interrogative-partial-wh_Por-que-hablaba-del-agua.wav,./stim/wavs/chilean_match_interrogative-partial-wh_Por-que-hablaba-del-agua.wav,./stim/wavs/cuban_match_interrogative-partial-wh_Por-que-hablaba-del-agua.wav,./stim/wavs/mexican_match_interrogative-partial-wh_Por-que-hablaba-del-agua.wav,./stim/wavs/peruvian_match_interrogative-partial-wh_Por-que-hablaba-del-agua.wav,./stim/wavs/puertorican_match_interrogative-partial-wh_Por-que-hablaba-del-agua.wav,,,,,,,,,,,,,,,,,,,,,,,,,,,,,,,,,,,,,,,,,,,,,,,,,,,,,,,,
,,,,,,,6057880f8633bbd79c6f10d8,605b45a4d25f287719a41696,605f29508d6d1f810f2bb70d,United States,Northeast,13 or older,no,2021-03-27_08h49.09.157,empathy_intonation_perc,2020.2.10,Win32,60,,,,,,,,,,0,peruvian,0,1,1.76948,0,58,58,44,1,45,./stim/wavs/andalusian_mismatch_declarative-narrow-focus_La-nina-lava-el-plato.wav,./stim/wavs/argentine_mismatch_declarative-narrow-focus_La-nina-lava-el-plato.wav,./stim/wavs/castilian_mismatch_declarative-narrow-focus_La-nina-lava-el-plato.wav,./stim/wavs/chilean_mismatch_declarative-narrow-focus_La-nina-lava-el-plato.wav,./stim/wavs/cuban_mismatch_declarative-narrow-focus_La-nina-lava-el-plato.wav,./stim/wavs/mexican_mismatch_declarative-narrow-focus_La-nina-lava-el-plato.wav,./stim/wavs/peruvian_mismatch_declarative-narrow-focus_La-nina-lava-el-plato.wav,./stim/wavs/puertorican_mismatch_declarative-narrow-focus_La-nina-lava-el-plato.wav,,,,,,,,,,,,,,,,,,,,,,,,,,,,,,,,,,,,,,,,,,,,,,,,,,,,,,,,
,,,,,,,6057880f8633bbd79c6f10d8,605b45a4d25f287719a41696,605f29508d6d1f810f2bb70d,United States,Northeast,13 or older,no,2021-03-27_08h49.09.157,empathy_intonation_perc,2020.2.10,Win32,60,,,,,,,,,,0,cuban,0,1,1.99996,0,59,59,37,1,38,./stim/wavs/andalusian_mismatch_declarative-broad-focus_Mi-madre-come-la-fruta.wav,./stim/wavs/argentine_mismatch_declarative-broad-focus_Mi-madre-come-la-fruta.wav,./stim/wavs/castilian_mismatch_declarative-broad-focus_Mi-madre-come-la-fruta.wav,./stim/wavs/chilean_mismatch_declarative-broad-focus_Mi-madre-come-la-fruta.wav,./stim/wavs/cuban_mismatch_declarative-broad-focus_Mi-madre-come-la-fruta.wav,./stim/wavs/mexican_mismatch_declarative-broad-focus_Mi-madre-come-la-fruta.wav,./stim/wavs/peruvian_mismatch_declarative-broad-focus_Mi-madre-come-la-fruta.wav,./stim/wavs/puertorican_mismatch_declarative-broad-focus_Mi-madre-come-la-fruta.wav,,,,,,,,,,,,,,,,,,,,,,,,,,,,,,,,,,,,,,,,,,,,,,,,,,,,,,,,
,,,,,,,6057880f8633bbd79c6f10d8,605b45a4d25f287719a41696,605f29508d6d1f810f2bb70d,United States,Northeast,13 or older,no,2021-03-27_08h49.09.157,empathy_intonation_perc,2020.2.10,Win32,60,,,,,,,,,,0,puertorican,0,1,1.95842,0,60,60,43,1,44,./stim/wavs/andalusian_mismatch_declarative-narrow-focus_La-maestra-vive-en-Paris.wav,./stim/wavs/argentine_mismatch_declarative-narrow-focus_La-maestra-vive-en-Paris.wav,./stim/wavs/castilian_mismatch_declarative-narrow-focus_La-maestra-vive-en-Paris.wav,./stim/wavs/chilean_mismatch_declarative-narrow-focus_La-maestra-vive-en-Paris.wav,./stim/wavs/cuban_mismatch_declarative-narrow-focus_La-maestra-vive-en-Paris.wav,./stim/wavs/mexican_mismatch_declarative-narrow-focus_La-maestra-vive-en-Paris.wav,./stim/wavs/peruvian_mismatch_declarative-narrow-focus_La-maestra-vive-en-Paris.wav,./stim/wavs/puertorican_mismatch_declarative-narrow-focus_La-maestra-vive-en-Paris.wav,,,,,,,,,,,,,,,,,,,,,,,,,,,,,,,,,,,,,,,,,,,,,,,,,,,,,,,,
,,,,,,,6057880f8633bbd79c6f10d8,605b45a4d25f287719a41696,605f29508d6d1f810f2bb70d,United States,Northeast,13 or older,no,2021-03-27_08h49.09.157,empathy_intonation_perc,2020.2.10,Win32,60,,,,,,,,,,0,argentine,0,1,1.391495,0,61,61,0,1,1,./stim/wavs/andalusian_match_declarative-broad-focus_Ana-lleva-el-abrigo.wav,./stim/wavs/argentine_match_declarative-broad-focus_Ana-lleva-el-abrigo.wav,./stim/wavs/castilian_match_declarative-broad-focus_Ana-lleva-el-abrigo.wav,./stim/wavs/chilean_match_declarative-broad-focus_Ana-lleva-el-abrigo.wav,./stim/wavs/cuban_match_declarative-broad-focus_Ana-lleva-el-abrigo.wav,./stim/wavs/mexican_match_declarative-broad-focus_Ana-lleva-el-abrigo.wav,./stim/wavs/peruvian_match_declarative-broad-focus_Ana-lleva-el-abrigo.wav,./stim/wavs/puertorican_match_declarative-broad-focus_Ana-lleva-el-abrigo.wav,,,,,,,,,,,,,,,,,,,,,,,,,,,,,,,,,,,,,,,,,,,,,,,,,,,,,,,,
,,,,,,,6057880f8633bbd79c6f10d8,605b45a4d25f287719a41696,605f29508d6d1f810f2bb70d,United States,Northeast,13 or older,no,2021-03-27_08h49.09.157,empathy_intonation_perc,2020.2.10,Win32,60,,,,,,,,,,0,chilean,0,1,1.615645,0,62,62,41,1,42,./stim/wavs/andalusian_mismatch_declarative-narrow-focus_El-hombre-mira-la-luna.wav,./stim/wavs/argentine_mismatch_declarative-narrow-focus_El-hombre-mira-la-luna.wav,./stim/wavs/castilian_mismatch_declarative-narrow-focus_El-hombre-mira-la-luna.wav,./stim/wavs/chilean_mismatch_declarative-narrow-focus_El-hombre-mira-la-luna.wav,./stim/wavs/cuban_mismatch_declarative-narrow-focus_El-hombre-mira-la-luna.wav,./stim/wavs/mexican_mismatch_declarative-narrow-focus_El-hombre-mira-la-luna.wav,./stim/wavs/peruvian_mismatch_declarative-narrow-focus_El-hombre-mira-la-luna.wav,./stim/wavs/puertorican_mismatch_declarative-narrow-focus_El-hombre-mira-la-luna.wav,,,,,,,,,,,,,,,,,,,,,,,,,,,,,,,,,,,,,,,,,,,,,,,,,,,,,,,,
,,,,,,,6057880f8633bbd79c6f10d8,605b45a4d25f287719a41696,605f29508d6d1f810f2bb70d,United States,Northeast,13 or older,no,2021-03-27_08h49.09.157,empathy_intonation_perc,2020.2.10,Win32,60,,,,,,,,,,1,cuban,1,1,2.264455,0,63,63,20,1,21,./stim/wavs/andalusian_match_interrogative-partial-wh_Por-que-abre-el-regalo.wav,./stim/wavs/argentine_match_interrogative-partial-wh_Por-que-abre-el-regalo.wav,./stim/wavs/castilian_match_interrogative-partial-wh_Por-que-abre-el-regalo.wav,./stim/wavs/chilean_match_interrogative-partial-wh_Por-que-abre-el-regalo.wav,./stim/wavs/cuban_match_interrogative-partial-wh_Por-que-abre-el-regalo.wav,./stim/wavs/mexican_match_interrogative-partial-wh_Por-que-abre-el-regalo.wav,./stim/wavs/peruvian_match_interrogative-partial-wh_Por-que-abre-el-regalo.wav,./stim/wavs/puertorican_match_interrogative-partial-wh_Por-que-abre-el-regalo.wav,,,,,,,,,,,,,,,,,,,,,,,,,,,,,,,,,,,,,,,,,,,,,,,,,,,,,,,,
,,,,,,,6057880f8633bbd79c6f10d8,605b45a4d25f287719a41696,605f29508d6d1f810f2bb70d,United States,Northeast,13 or older,no,2021-03-27_08h49.09.157,empathy_intonation_perc,2020.2.10,Win32,60,,,,,,,,,,,,,,,,,,,,,,,,,,,,,h,1,3.24742,0,0,0,0,1,,,,,,,,,,,,,,,,,,,,,,,,,,,,,,,,,,,,,,,,,,,,,,,,
,,,,,"Great! Now we will move on. The next task consists of about 60 trials, in each of which you will see a string of letters. 
  
  Your task is to decide whether this is a real Spanish word or not.",(press the spacebar to continue),6057880f8633bbd79c6f10d8,605b45a4d25f287719a41696,605f29508d6d1f810f2bb70d,United States,Northeast,13 or older,no,2021-03-27_08h49.09.157,empathy_intonation_perc,2020.2.10,Win32,60,,,,,,,,,,,,,,,,,,,,,,,,,,,,,,,,,,,,,0,0,0,0,1,,,,,,,,,,,,,,,,,,,,,,,,,,,,,,,,,,,,,,,,,,,
,,,,,"If you think it is an existing Spanish word, you type '1' (for 'REAL'), and if you think it is not an existing Spanish word, you type '0' (for 'FAKE').",(press the spacebar to continue),6057880f8633bbd79c6f10d8,605b45a4d25f287719a41696,605f29508d6d1f810f2bb70d,United States,Northeast,13 or older,no,2021-03-27_08h49.09.157,empathy_intonation_perc,2020.2.10,Win32,60,,,,,,,,,,,,,,,,,,,,,,,,,,,,,,,,,,,,,0,1,1,1,1,,,,,,,,,,,,,,,,,,,,,,,,,,,,,,,,,,,,,,,,,,,
,,,,,"If you are sure that the word exists, even though you dont know its exact meaning, you may still respond '1' (REAL). 
  
  But if you are not sure if it is an existing word, you should respond '0' (FAKE).
  
  Let's do a practice round...",(press the spacebar to continue),6057880f8633bbd79c6f10d8,605b45a4d25f287719a41696,605f29508d6d1f810f2bb70d,United States,Northeast,13 or older,no,2021-03-27_08h49.09.157,empathy_intonation_perc,2020.2.10,Win32,60,,,,,,,,,,,,,,,,,,,,,,,,,,,,,,,,,,,,,0,2,2,2,1,,,,,,,,,,,,,,,,,,,,,,,,,,,,,,,,,,,,,,,,,,,
,,,,,,,6057880f8633bbd79c6f10d8,605b45a4d25f287719a41696,605f29508d6d1f810f2bb70d,United States,Northeast,13 or older,no,2021-03-27_08h49.09.157,empathy_intonation_perc,2020.2.10,Win32,60,,,,,,,,,,0,,,,,,,,,,,,,,,,,,,,,,,,,,,,,,,,1,0,1.38384,0,0,0,0,1,0,depiste,REAL,FAKE,,,,,,,,,,,,,,,,,,,,,,,,,,,,,,,
,,,,,,,6057880f8633bbd79c6f10d8,605b45a4d25f287719a41696,605f29508d6d1f810f2bb70d,United States,Northeast,13 or older,no,2021-03-27_08h49.09.157,empathy_intonation_perc,2020.2.10,Win32,60,,,,,,,,,,1,,,,,,,,,,,,,,,,,,,,,,,,,,,,,,,,1,1,1.232775,0,1,1,1,1,0,s,REAL,FAKE,,,,,,,,,,,,,,,,,,,,,,,,,,,,,,,
,,,,,,,6057880f8633bbd79c6f10d8,605b45a4d25f287719a41696,605f29508d6d1f810f2bb70d,United States,Northeast,13 or older,no,2021-03-27_08h49.09.157,empathy_intonation_perc,2020.2.10,Win32,60,,,,,,,,,,0,,,,,,,,,,,,,,,,,,,,,,,,,,,,,,,,1,0,1.182765,0,2,2,2,1,0,con,REAL,FAKE,,,,,,,,,,,,,,,,,,,,,,,,,,,,,,,
,,,,,,,6057880f8633bbd79c6f10d8,605b45a4d25f287719a41696,605f29508d6d1f810f2bb70d,United States,Northeast,13 or older,no,2021-03-27_08h49.09.157,empathy_intonation_perc,2020.2.10,Win32,60,,,,,,,,,,0,,,,,,,,,,,,,,,,,,,,,,,,,,,,,,,,0,1,1.5323,0,3,3,3,1,0,calpar,REAL,FAKE,,,,,,,,,,,,,,,,,,,,,,,,,,,,,,,
,,,,,,,6057880f8633bbd79c6f10d8,605b45a4d25f287719a41696,605f29508d6d1f810f2bb70d,United States,Northeast,13 or older,no,2021-03-27_08h49.09.157,empathy_intonation_perc,2020.2.10,Win32,60,,,,,,,,,,0,,,,,,,,,,,,,,,,,,,,,,,,,,,,,,,,0,1,1.983295,0,4,4,4,1,0,joten,REAL,FAKE,,,,,,,,,,,,,,,,,,,,,,,,,,,,,,,
,,,,,,,6057880f8633bbd79c6f10d8,605b45a4d25f287719a41696,605f29508d6d1f810f2bb70d,United States,Northeast,13 or older,no,2021-03-27_08h49.09.157,empathy_intonation_perc,2020.2.10,Win32,60,,,,,,,,,,1,,,,,,,,,,,,,,,,,,,,,,,,,,,,,,,,1,1,1.105015,0,5,5,5,1,0,sacapuntas,REAL,FAKE,,,,,,,,,,,,,,,,,,,,,,,,,,,,,,,
,,,,,,,6057880f8633bbd79c6f10d8,605b45a4d25f287719a41696,605f29508d6d1f810f2bb70d,United States,Northeast,13 or older,no,2021-03-27_08h49.09.157,empathy_intonation_perc,2020.2.10,Win32,60,,,,,,,,,,0,,,,,,,,,,,,,,,,,,,,,,,,,,,,,,,,0,1,1.357185,0,6,6,6,1,0,priba,REAL,FAKE,,,,,,,,,,,,,,,,,,,,,,,,,,,,,,,
,,,,,,,6057880f8633bbd79c6f10d8,605b45a4d25f287719a41696,605f29508d6d1f810f2bb70d,United States,Northeast,13 or older,no,2021-03-27_08h49.09.157,empathy_intonation_perc,2020.2.10,Win32,60,,,,,,,,,,0,,,,,,,,,,,,,,,,,,,,,,,,,,,,,,,,0,1,1.15712,0,7,7,7,1,0,pelasula,REAL,FAKE,,,,,,,,,,,,,,,,,,,,,,,,,,,,,,,
,,,,,,,6057880f8633bbd79c6f10d8,605b45a4d25f287719a41696,605f29508d6d1f810f2bb70d,United States,Northeast,13 or older,no,2021-03-27_08h49.09.157,empathy_intonation_perc,2020.2.10,Win32,60,,,,,,,,,,1,,,,,,,,,,,,,,,,,,,,,,,,,,,,,,,,1,1,0.883495,0,8,8,8,1,0,bien,REAL,FAKE,,,,,,,,,,,,,,,,,,,,,,,,,,,,,,,
,,,,,,,6057880f8633bbd79c6f10d8,605b45a4d25f287719a41696,605f29508d6d1f810f2bb70d,United States,Northeast,13 or older,no,2021-03-27_08h49.09.157,empathy_intonation_perc,2020.2.10,Win32,60,,,,,,,,,,1,,,,,,,,,,,,,,,,,,,,,,,,,,,,,,,,1,1,0.62846,0,9,9,9,1,0,casa,REAL,FAKE,,,,,,,,,,,,,,,,,,,,,,,,,,,,,,,
,,,,,,,6057880f8633bbd79c6f10d8,605b45a4d25f287719a41696,605f29508d6d1f810f2bb70d,United States,Northeast,13 or older,no,2021-03-27_08h49.09.157,empathy_intonation_perc,2020.2.10,Win32,60,,,,,,,,,,0,,,,,,,,,,,,,,,,,,,,,,,,,,,,,,,,1,0,0.78402,0,10,10,10,1,0,lejo,REAL,FAKE,,,,,,,,,,,,,,,,,,,,,,,,,,,,,,,
,,,,,,,6057880f8633bbd79c6f10d8,605b45a4d25f287719a41696,605f29508d6d1f810f2bb70d,United States,Northeast,13 or older,no,2021-03-27_08h49.09.157,empathy_intonation_perc,2020.2.10,Win32,60,,,,,,,,,,0,,,,,,,,,,,,,,,,,,,,,,,,,,,,,,,,0,1,0.874605,0,11,11,11,1,0,pretantas,REAL,FAKE,,,,,,,,,,,,,,,,,,,,,,,,,,,,,,,
,,,,,,,6057880f8633bbd79c6f10d8,605b45a4d25f287719a41696,605f29508d6d1f810f2bb70d,United States,Northeast,13 or older,no,2021-03-27_08h49.09.157,empathy_intonation_perc,2020.2.10,Win32,60,,,,,,,,,,1,,,,,,,,,,,,,,,,,,,,,,,,,,,,,,,,,,,,,,,,54,fomentar,,,1,1,1.083215,0,0,0,53,1,REAL,FAKE,,,,,,,,,,,,,,,,,,,,,
,,,,,,,6057880f8633bbd79c6f10d8,605b45a4d25f287719a41696,605f29508d6d1f810f2bb70d,United States,Northeast,13 or older,no,2021-03-27_08h49.09.157,empathy_intonation_perc,2020.2.10,Win32,60,,,,,,,,,,0,,,,,,,,,,,,,,,,,,,,,,,,,,,,,,,,,,,,,,,,87,grodo,,,0,1,1.115865,0,1,1,86,1,REAL,FAKE,,,,,,,,,,,,,,,,,,,,,
,,,,,,,6057880f8633bbd79c6f10d8,605b45a4d25f287719a41696,605f29508d6d1f810f2bb70d,United States,Northeast,13 or older,no,2021-03-27_08h49.09.157,empathy_intonation_perc,2020.2.10,Win32,60,,,,,,,,,,1,,,,,,,,,,,,,,,,,,,,,,,,,,,,,,,,,,,,,,,,26,secuestro,,,1,1,1.14938,0,2,2,25,1,REAL,FAKE,,,,,,,,,,,,,,,,,,,,,
,,,,,,,6057880f8633bbd79c6f10d8,605b45a4d25f287719a41696,605f29508d6d1f810f2bb70d,United States,Northeast,13 or older,no,2021-03-27_08h49.09.157,empathy_intonation_perc,2020.2.10,Win32,60,,,,,,,,,,0,,,,,,,,,,,,,,,,,,,,,,,,,,,,,,,,,,,,,,,,72,pemicin,,,1,0,1.25242,0,3,3,71,1,REAL,FAKE,,,,,,,,,,,,,,,,,,,,,
,,,,,,,6057880f8633bbd79c6f10d8,605b45a4d25f287719a41696,605f29508d6d1f810f2bb70d,United States,Northeast,13 or older,no,2021-03-27_08h49.09.157,empathy_intonation_perc,2020.2.10,Win32,60,,,,,,,,,,1,,,,,,,,,,,,,,,,,,,,,,,,,,,,,,,,,,,,,,,,9,hacha,,,0,0,1.023555,0,4,4,8,1,REAL,FAKE,,,,,,,,,,,,,,,,,,,,,
,,,,,,,6057880f8633bbd79c6f10d8,605b45a4d25f287719a41696,605f29508d6d1f810f2bb70d,United States,Northeast,13 or older,no,2021-03-27_08h49.09.157,empathy_intonation_perc,2020.2.10,Win32,60,,,,,,,,,,1,,,,,,,,,,,,,,,,,,,,,,,,,,,,,,,,,,,,,,,,46,martillo,,,1,1,0.85511,0,5,5,45,1,REAL,FAKE,,,,,,,,,,,,,,,,,,,,,
,,,,,,,6057880f8633bbd79c6f10d8,605b45a4d25f287719a41696,605f29508d6d1f810f2bb70d,United States,Northeast,13 or older,no,2021-03-27_08h49.09.157,empathy_intonation_perc,2020.2.10,Win32,60,,,,,,,,,,1,,,,,,,,,,,,,,,,,,,,,,,,,,,,,,,,,,,,,,,,85,lad,,,0,0,1.54236,0,6,6,84,1,REAL,FAKE,,,,,,,,,,,,,,,,,,,,,
,,,,,,,6057880f8633bbd79c6f10d8,605b45a4d25f287719a41696,605f29508d6d1f810f2bb70d,United States,Northeast,13 or older,no,2021-03-27_08h49.09.157,empathy_intonation_perc,2020.2.10,Win32,60,,,,,,,,,,1,,,,,,,,,,,,,,,,,,,,,,,,,,,,,,,,,,,,,,,,86,barato,,,1,1,0.78282,0,7,7,85,1,REAL,FAKE,,,,,,,,,,,,,,,,,,,,,
,,,,,,,6057880f8633bbd79c6f10d8,605b45a4d25f287719a41696,605f29508d6d1f810f2bb70d,United States,Northeast,13 or older,no,2021-03-27_08h49.09.157,empathy_intonation_perc,2020.2.10,Win32,60,,,,,,,,,,0,,,,,,,,,,,,,,,,,,,,,,,,,,,,,,,,,,,,,,,,58,plaudir,,,0,1,0.903825,0,8,8,57,1,REAL,FAKE,,,,,,,,,,,,,,,,,,,,,
,,,,,,,6057880f8633bbd79c6f10d8,605b45a4d25f287719a41696,605f29508d6d1f810f2bb70d,United States,Northeast,13 or older,no,2021-03-27_08h49.09.157,empathy_intonation_perc,2020.2.10,Win32,60,,,,,,,,,,1,,,,,,,,,,,,,,,,,,,,,,,,,,,,,,,,,,,,,,,,83,guante,,,0,0,1.84797,0,9,9,82,1,REAL,FAKE,,,,,,,,,,,,,,,,,,,,,
,,,,,,,6057880f8633bbd79c6f10d8,605b45a4d25f287719a41696,605f29508d6d1f810f2bb70d,United States,Northeast,13 or older,no,2021-03-27_08h49.09.157,empathy_intonation_perc,2020.2.10,Win32,60,,,,,,,,,,0,,,,,,,,,,,,,,,,,,,,,,,,,,,,,,,,,,,,,,,,33,pauca,,,0,1,0.899765,0,10,10,32,1,REAL,FAKE,,,,,,,,,,,,,,,,,,,,,
,,,,,,,6057880f8633bbd79c6f10d8,605b45a4d25f287719a41696,605f29508d6d1f810f2bb70d,United States,Northeast,13 or older,no,2021-03-27_08h49.09.157,empathy_intonation_perc,2020.2.10,Win32,60,,,,,,,,,,1,,,,,,,,,,,,,,,,,,,,,,,,,,,,,,,,,,,,,,,,22,lacayo,,,0,0,1.216185,0,11,11,21,1,REAL,FAKE,,,,,,,,,,,,,,,,,,,,,
,,,,,,,6057880f8633bbd79c6f10d8,605b45a4d25f287719a41696,605f29508d6d1f810f2bb70d,United States,Northeast,13 or older,no,2021-03-27_08h49.09.157,empathy_intonation_perc,2020.2.10,Win32,60,,,,,,,,,,0,,,,,,,,,,,,,,,,,,,,,,,,,,,,,,,,,,,,,,,,50,flamida,,,1,0,1.341465,0,12,12,49,1,REAL,FAKE,,,,,,,,,,,,,,,,,,,,,
,,,,,,,6057880f8633bbd79c6f10d8,605b45a4d25f287719a41696,605f29508d6d1f810f2bb70d,United States,Northeast,13 or older,no,2021-03-27_08h49.09.157,empathy_intonation_perc,2020.2.10,Win32,60,,,,,,,,,,1,,,,,,,,,,,,,,,,,,,,,,,,,,,,,,,,,,,,,,,,7,psimo,,,1,1,0.65003,0,13,13,6,1,REAL,FAKE,,,,,,,,,,,,,,,,,,,,,
,,,,,,,6057880f8633bbd79c6f10d8,605b45a4d25f287719a41696,605f29508d6d1f810f2bb70d,United States,Northeast,13 or older,no,2021-03-27_08h49.09.157,empathy_intonation_perc,2020.2.10,Win32,60,,,,,,,,,,0,,,,,,,,,,,,,,,,,,,,,,,,,,,,,,,,,,,,,,,,32,fatacidad,,,1,0,1.137185,0,14,14,31,1,REAL,FAKE,,,,,,,,,,,,,,,,,,,,,
,,,,,,,6057880f8633bbd79c6f10d8,605b45a4d25f287719a41696,605f29508d6d1f810f2bb70d,United States,Northeast,13 or older,no,2021-03-27_08h49.09.157,empathy_intonation_perc,2020.2.10,Win32,60,,,,,,,,,,1,,,,,,,,,,,,,,,,,,,,,,,,,,,,,,,,,,,,,,,,20,vido,,,1,1,0.60425,0,15,15,19,1,REAL,FAKE,,,,,,,,,,,,,,,,,,,,,
,,,,,,,6057880f8633bbd79c6f10d8,605b45a4d25f287719a41696,605f29508d6d1f810f2bb70d,United States,Northeast,13 or older,no,2021-03-27_08h49.09.157,empathy_intonation_perc,2020.2.10,Win32,60,,,,,,,,,,1,,,,,,,,,,,,,,,,,,,,,,,,,,,,,,,,,,,,,,,,68,alegre,,,1,1,0.858815,0,16,16,67,1,REAL,FAKE,,,,,,,,,,,,,,,,,,,,,
,,,,,,,6057880f8633bbd79c6f10d8,605b45a4d25f287719a41696,605f29508d6d1f810f2bb70d,United States,Northeast,13 or older,no,2021-03-27_08h49.09.157,empathy_intonation_perc,2020.2.10,Win32,60,,,,,,,,,,1,,,,,,,,,,,,,,,,,,,,,,,,,,,,,,,,,,,,,,,,89,prisa,,,0,0,0.77244,0,17,17,88,1,REAL,FAKE,,,,,,,,,,,,,,,,,,,,,
,,,,,,,6057880f8633bbd79c6f10d8,605b45a4d25f287719a41696,605f29508d6d1f810f2bb70d,United States,Northeast,13 or older,no,2021-03-27_08h49.09.157,empathy_intonation_perc,2020.2.10,Win32,60,,,,,,,,,,1,,,,,,,,,,,,,,,,,,,,,,,,,,,,,,,,,,,,,,,,40,alfombra,,,0,0,0.7333,0,18,18,39,1,REAL,FAKE,,,,,,,,,,,,,,,,,,,,,
,,,,,,,6057880f8633bbd79c6f10d8,605b45a4d25f287719a41696,605f29508d6d1f810f2bb70d,United States,Northeast,13 or older,no,2021-03-27_08h49.09.157,empathy_intonation_perc,2020.2.10,Win32,60,,,,,,,,,,1,,,,,,,,,,,,,,,,,,,,,,,,,,,,,,,,,,,,,,,,51,candado,,,0,0,1.66116,0,19,19,50,1,REAL,FAKE,,,,,,,,,,,,,,,,,,,,,
,,,,,,,6057880f8633bbd79c6f10d8,605b45a4d25f287719a41696,605f29508d6d1f810f2bb70d,United States,Northeast,13 or older,no,2021-03-27_08h49.09.157,empathy_intonation_perc,2020.2.10,Win32,60,,,,,,,,,,1,,,,,,,,,,,,,,,,,,,,,,,,,,,,,,,,,,,,,,,,25,bisagra,,,0,0,1.158665,0,20,20,24,1,REAL,FAKE,,,,,,,,,,,,,,,,,,,,,
,,,,,,,6057880f8633bbd79c6f10d8,605b45a4d25f287719a41696,605f29508d6d1f810f2bb70d,United States,Northeast,13 or older,no,2021-03-27_08h49.09.157,empathy_intonation_perc,2020.2.10,Win32,60,,,,,,,,,,0,,,,,,,,,,,,,,,,,,,,,,,,,,,,,,,,,,,,,,,,1,terzo,,,0,1,0.983625,0,21,21,0,1,REAL,FAKE,,,,,,,,,,,,,,,,,,,,,
,,,,,,,6057880f8633bbd79c6f10d8,605b45a4d25f287719a41696,605f29508d6d1f810f2bb70d,United States,Northeast,13 or older,no,2021-03-27_08h49.09.157,empathy_intonation_perc,2020.2.10,Win32,60,,,,,,,,,,1,,,,,,,,,,,,,,,,,,,,,,,,,,,,,,,,,,,,,,,,6,tergiversar,,,0,0,0.86669,0,22,22,5,1,REAL,FAKE,,,,,,,,,,,,,,,,,,,,,
,,,,,,,6057880f8633bbd79c6f10d8,605b45a4d25f287719a41696,605f29508d6d1f810f2bb70d,United States,Northeast,13 or older,no,2021-03-27_08h49.09.157,empathy_intonation_perc,2020.2.10,Win32,60,,,,,,,,,,1,,,,,,,,,,,,,,,,,,,,,,,,,,,,,,,,,,,,,,,,36,loro,,,1,1,1.59235,0,23,23,35,1,REAL,FAKE,,,,,,,,,,,,,,,,,,,,,
,,,,,,,6057880f8633bbd79c6f10d8,605b45a4d25f287719a41696,605f29508d6d1f810f2bb70d,United States,Northeast,13 or older,no,2021-03-27_08h49.09.157,empathy_intonation_perc,2020.2.10,Win32,60,,,,,,,,,,1,,,,,,,,,,,,,,,,,,,,,,,,,,,,,,,,,,,,,,,,38,estornudar,,,1,1,0.873285,0,24,24,37,1,REAL,FAKE,,,,,,,,,,,,,,,,,,,,,
,,,,,,,6057880f8633bbd79c6f10d8,605b45a4d25f287719a41696,605f29508d6d1f810f2bb70d,United States,Northeast,13 or older,no,2021-03-27_08h49.09.157,empathy_intonation_perc,2020.2.10,Win32,60,,,,,,,,,,1,,,,,,,,,,,,,,,,,,,,,,,,,,,,,,,,,,,,,,,,12,asesinato,,,1,1,1.09422,0,25,25,11,1,REAL,FAKE,,,,,,,,,,,,,,,,,,,,,
,,,,,,,6057880f8633bbd79c6f10d8,605b45a4d25f287719a41696,605f29508d6d1f810f2bb70d,United States,Northeast,13 or older,no,2021-03-27_08h49.09.157,empathy_intonation_perc,2020.2.10,Win32,60,,,,,,,,,,1,,,,,,,,,,,,,,,,,,,,,,,,,,,,,,,,,,,,,,,,88,acantilado,,,0,0,1.022585,0,26,26,87,1,REAL,FAKE,,,,,,,,,,,,,,,,,,,,,
,,,,,,,6057880f8633bbd79c6f10d8,605b45a4d25f287719a41696,605f29508d6d1f810f2bb70d,United States,Northeast,13 or older,no,2021-03-27_08h49.09.157,empathy_intonation_perc,2020.2.10,Win32,60,,,,,,,,,,1,,,,,,,,,,,,,,,,,,,,,,,,,,,,,,,,,,,,,,,,43,canela,,,0,0,0.699705,0,27,27,42,1,REAL,FAKE,,,,,,,,,,,,,,,,,,,,,
,,,,,,,6057880f8633bbd79c6f10d8,605b45a4d25f287719a41696,605f29508d6d1f810f2bb70d,United States,Northeast,13 or older,no,2021-03-27_08h49.09.157,empathy_intonation_perc,2020.2.10,Win32,60,,,,,,,,,,1,,,,,,,,,,,,,,,,,,,,,,,,,,,,,,,,,,,,,,,,65,bizcocho,,,0,0,0.79987,0,28,28,64,1,REAL,FAKE,,,,,,,,,,,,,,,,,,,,,
,,,,,,,6057880f8633bbd79c6f10d8,605b45a4d25f287719a41696,605f29508d6d1f810f2bb70d,United States,Northeast,13 or older,no,2021-03-27_08h49.09.157,empathy_intonation_perc,2020.2.10,Win32,60,,,,,,,,,,0,,,,,,,,,,,,,,,,,,,,,,,,,,,,,,,,,,,,,,,,17,floroso,,,0,1,1.4432,0,29,29,16,1,REAL,FAKE,,,,,,,,,,,,,,,,,,,,,
,,,,,,,6057880f8633bbd79c6f10d8,605b45a4d25f287719a41696,605f29508d6d1f810f2bb70d,United States,Northeast,13 or older,no,2021-03-27_08h49.09.157,empathy_intonation_perc,2020.2.10,Win32,60,,,,,,,,,,0,,,,,,,,,,,,,,,,,,,,,,,,,,,,,,,,,,,,,,,,42,cadallo,,,0,1,0.82578,0,30,30,41,1,REAL,FAKE,,,,,,,,,,,,,,,,,,,,,
,,,,,,,6057880f8633bbd79c6f10d8,605b45a4d25f287719a41696,605f29508d6d1f810f2bb70d,United States,Northeast,13 or older,no,2021-03-27_08h49.09.157,empathy_intonation_perc,2020.2.10,Win32,60,,,,,,,,,,0,,,,,,,,,,,,,,,,,,,,,,,,,,,,,,,,,,,,,,,,66,hacido,,,1,0,0.810535,0,31,31,65,1,REAL,FAKE,,,,,,,,,,,,,,,,,,,,,
,,,,,,,6057880f8633bbd79c6f10d8,605b45a4d25f287719a41696,605f29508d6d1f810f2bb70d,United States,Northeast,13 or older,no,2021-03-27_08h49.09.157,empathy_intonation_perc,2020.2.10,Win32,60,,,,,,,,,,1,,,,,,,,,,,,,,,,,,,,,,,,,,,,,,,,,,,,,,,,56,musgo,,,0,0,0.81069,0,32,32,55,1,REAL,FAKE,,,,,,,,,,,,,,,,,,,,,
,,,,,,,6057880f8633bbd79c6f10d8,605b45a4d25f287719a41696,605f29508d6d1f810f2bb70d,United States,Northeast,13 or older,no,2021-03-27_08h49.09.157,empathy_intonation_perc,2020.2.10,Win32,60,,,,,,,,,,1,,,,,,,,,,,,,,,,,,,,,,,,,,,,,,,,,,,,,,,,13,helar,,,0,0,1.07071,0,33,33,12,1,REAL,FAKE,,,,,,,,,,,,,,,,,,,,,
,,,,,,,6057880f8633bbd79c6f10d8,605b45a4d25f287719a41696,605f29508d6d1f810f2bb70d,United States,Northeast,13 or older,no,2021-03-27_08h49.09.157,empathy_intonation_perc,2020.2.10,Win32,60,,,,,,,,,,0,,,,,,,,,,,,,,,,,,,,,,,,,,,,,,,,,,,,,,,,84,escuto,,,0,1,0.8565,0,34,34,83,1,REAL,FAKE,,,,,,,,,,,,,,,,,,,,,
,,,,,,,6057880f8633bbd79c6f10d8,605b45a4d25f287719a41696,605f29508d6d1f810f2bb70d,United States,Northeast,13 or older,no,2021-03-27_08h49.09.157,empathy_intonation_perc,2020.2.10,Win32,60,,,,,,,,,,0,,,,,,,,,,,,,,,,,,,,,,,,,,,,,,,,,,,,,,,,16,abracer,,,1,0,0.75939,0,35,35,15,1,REAL,FAKE,,,,,,,,,,,,,,,,,,,,,
,,,,,,,6057880f8633bbd79c6f10d8,605b45a4d25f287719a41696,605f29508d6d1f810f2bb70d,United States,Northeast,13 or older,no,2021-03-27_08h49.09.157,empathy_intonation_perc,2020.2.10,Win32,60,,,,,,,,,,1,,,,,,,,,,,,,,,,,,,,,,,,,,,,,,,,,,,,,,,,37,granuja,,,1,1,0.93614,0,36,36,36,1,REAL,FAKE,,,,,,,,,,,,,,,,,,,,,
,,,,,,,6057880f8633bbd79c6f10d8,605b45a4d25f287719a41696,605f29508d6d1f810f2bb70d,United States,Northeast,13 or older,no,2021-03-27_08h49.09.157,empathy_intonation_perc,2020.2.10,Win32,60,,,,,,,,,,1,,,,,,,,,,,,,,,,,,,,,,,,,,,,,,,,,,,,,,,,49,ganar,,,1,1,0.61725,0,37,37,48,1,REAL,FAKE,,,,,,,,,,,,,,,,,,,,,
,,,,,,,6057880f8633bbd79c6f10d8,605b45a4d25f287719a41696,605f29508d6d1f810f2bb70d,United States,Northeast,13 or older,no,2021-03-27_08h49.09.157,empathy_intonation_perc,2020.2.10,Win32,60,,,,,,,,,,1,,,,,,,,,,,,,,,,,,,,,,,,,,,,,,,,,,,,,,,,73,hervidor,,,0,0,0.766175,0,38,38,72,1,REAL,FAKE,,,,,,,,,,,,,,,,,,,,,
,,,,,,,6057880f8633bbd79c6f10d8,605b45a4d25f287719a41696,605f29508d6d1f810f2bb70d,United States,Northeast,13 or older,no,2021-03-27_08h49.09.157,empathy_intonation_perc,2020.2.10,Win32,60,,,,,,,,,,0,,,,,,,,,,,,,,,,,,,,,,,,,,,,,,,,,,,,,,,,74,cintro,,,0,1,0.96066,0,39,39,73,1,REAL,FAKE,,,,,,,,,,,,,,,,,,,,,
,,,,,,,6057880f8633bbd79c6f10d8,605b45a4d25f287719a41696,605f29508d6d1f810f2bb70d,United States,Northeast,13 or older,no,2021-03-27_08h49.09.157,empathy_intonation_perc,2020.2.10,Win32,60,,,,,,,,,,0,,,,,,,,,,,,,,,,,,,,,,,,,,,,,,,,,,,,,,,,19,brecedad,,,0,1,1.305585,0,40,40,18,1,REAL,FAKE,,,,,,,,,,,,,,,,,,,,,
,,,,,,,6057880f8633bbd79c6f10d8,605b45a4d25f287719a41696,605f29508d6d1f810f2bb70d,United States,Northeast,13 or older,no,2021-03-27_08h49.09.157,empathy_intonation_perc,2020.2.10,Win32,60,,,,,,,,,,1,,,,,,,,,,,,,,,,,,,,,,,,,,,,,,,,,,,,,,,,24,ltigo,,,1,1,1.89269,0,41,41,23,1,REAL,FAKE,,,,,,,,,,,,,,,,,,,,,
,,,,,,,6057880f8633bbd79c6f10d8,605b45a4d25f287719a41696,605f29508d6d1f810f2bb70d,United States,Northeast,13 or older,no,2021-03-27_08h49.09.157,empathy_intonation_perc,2020.2.10,Win32,60,,,,,,,,,,1,,,,,,,,,,,,,,,,,,,,,,,,,,,,,,,,,,,,,,,,57,tacao,,,1,1,0.70255,0,42,42,56,1,REAL,FAKE,,,,,,,,,,,,,,,,,,,,,
,,,,,,,6057880f8633bbd79c6f10d8,605b45a4d25f287719a41696,605f29508d6d1f810f2bb70d,United States,Northeast,13 or older,no,2021-03-27_08h49.09.157,empathy_intonation_perc,2020.2.10,Win32,60,,,,,,,,,,0,,,,,,,,,,,,,,,,,,,,,,,,,,,,,,,,,,,,,,,,29,decar,,,1,0,0.760095,0,43,43,28,1,REAL,FAKE,,,,,,,,,,,,,,,,,,,,,
,,,,,,,6057880f8633bbd79c6f10d8,605b45a4d25f287719a41696,605f29508d6d1f810f2bb70d,United States,Northeast,13 or older,no,2021-03-27_08h49.09.157,empathy_intonation_perc,2020.2.10,Win32,60,,,,,,,,,,1,,,,,,,,,,,,,,,,,,,,,,,,,,,,,,,,,,,,,,,,55,nevar,,,1,1,0.699835,0,44,44,54,1,REAL,FAKE,,,,,,,,,,,,,,,,,,,,,
,,,,,,,6057880f8633bbd79c6f10d8,605b45a4d25f287719a41696,605f29508d6d1f810f2bb70d,United States,Northeast,13 or older,no,2021-03-27_08h49.09.157,empathy_intonation_perc,2020.2.10,Win32,60,,,,,,,,,,0,,,,,,,,,,,,,,,,,,,,,,,,,,,,,,,,,,,,,,,,82,empirador,,,1,0,0.794535,0,45,45,81,1,REAL,FAKE,,,,,,,,,,,,,,,,,,,,,
,,,,,,,6057880f8633bbd79c6f10d8,605b45a4d25f287719a41696,605f29508d6d1f810f2bb70d,United States,Northeast,13 or older,no,2021-03-27_08h49.09.157,empathy_intonation_perc,2020.2.10,Win32,60,,,,,,,,,,1,,,,,,,,,,,,,,,,,,,,,,,,,,,,,,,,,,,,,,,,48,ladrn,,,0,0,0.81052,0,46,46,47,1,REAL,FAKE,,,,,,,,,,,,,,,,,,,,,
,,,,,,,6057880f8633bbd79c6f10d8,605b45a4d25f287719a41696,605f29508d6d1f810f2bb70d,United States,Northeast,13 or older,no,2021-03-27_08h49.09.157,empathy_intonation_perc,2020.2.10,Win32,60,,,,,,,,,,0,,,,,,,,,,,,,,,,,,,,,,,,,,,,,,,,,,,,,,,,70,temblo,,,0,1,0.8501,0,47,47,69,1,REAL,FAKE,,,,,,,,,,,,,,,,,,,,,
,,,,,,,6057880f8633bbd79c6f10d8,605b45a4d25f287719a41696,605f29508d6d1f810f2bb70d,United States,Northeast,13 or older,no,2021-03-27_08h49.09.157,empathy_intonation_perc,2020.2.10,Win32,60,,,,,,,,,,1,,,,,,,,,,,,,,,,,,,,,,,,,,,,,,,,,,,,,,,,60,matar,,,1,1,0.654555,0,48,48,59,1,REAL,FAKE,,,,,,,,,,,,,,,,,,,,,
,,,,,,,6057880f8633bbd79c6f10d8,605b45a4d25f287719a41696,605f29508d6d1f810f2bb70d,United States,Northeast,13 or older,no,2021-03-27_08h49.09.157,empathy_intonation_perc,2020.2.10,Win32,60,,,,,,,,,,0,,,,,,,,,,,,,,,,,,,,,,,,,,,,,,,,,,,,,,,,21,capillo,,,1,0,1.654015,0,49,49,20,1,REAL,FAKE,,,,,,,,,,,,,,,,,,,,,
,,,,,,,6057880f8633bbd79c6f10d8,605b45a4d25f287719a41696,605f29508d6d1f810f2bb70d,United States,Northeast,13 or older,no,2021-03-27_08h49.09.157,empathy_intonation_perc,2020.2.10,Win32,60,,,,,,,,,,1,,,,,,,,,,,,,,,,,,,,,,,,,,,,,,,,,,,,,,,,76,atar,,,1,1,0.59974,0,50,50,75,1,REAL,FAKE,,,,,,,,,,,,,,,,,,,,,
,,,,,,,6057880f8633bbd79c6f10d8,605b45a4d25f287719a41696,605f29508d6d1f810f2bb70d,United States,Northeast,13 or older,no,2021-03-27_08h49.09.157,empathy_intonation_perc,2020.2.10,Win32,60,,,,,,,,,,1,,,,,,,,,,,,,,,,,,,,,,,,,,,,,,,,,,,,,,,,3,pulmones,,,0,0,0.54182,0,51,51,2,1,REAL,FAKE,,,,,,,,,,,,,,,,,,,,,
,,,,,,,6057880f8633bbd79c6f10d8,605b45a4d25f287719a41696,605f29508d6d1f810f2bb70d,United States,Northeast,13 or older,no,2021-03-27_08h49.09.157,empathy_intonation_perc,2020.2.10,Win32,60,,,,,,,,,,1,,,,,,,,,,,,,,,,,,,,,,,,,,,,,,,,,,,,,,,,41,rebuscar,,,0,0,1.13297,0,52,52,40,1,REAL,FAKE,,,,,,,,,,,,,,,,,,,,,
,,,,,,,6057880f8633bbd79c6f10d8,605b45a4d25f287719a41696,605f29508d6d1f810f2bb70d,United States,Northeast,13 or older,no,2021-03-27_08h49.09.157,empathy_intonation_perc,2020.2.10,Win32,60,,,,,,,,,,1,,,,,,,,,,,,,,,,,,,,,,,,,,,,,,,,,,,,,,,,71,polvoriento,,,0,0,0.828005,0,53,53,70,1,REAL,FAKE,,,,,,,,,,,,,,,,,,,,,
,,,,,,,6057880f8633bbd79c6f10d8,605b45a4d25f287719a41696,605f29508d6d1f810f2bb70d,United States,Northeast,13 or older,no,2021-03-27_08h49.09.157,empathy_intonation_perc,2020.2.10,Win32,60,,,,,,,,,,1,,,,,,,,,,,,,,,,,,,,,,,,,,,,,,,,,,,,,,,,69,engatusar,,,0,0,0.866775,0,54,54,68,1,REAL,FAKE,,,,,,,,,,,,,,,,,,,,,
,,,,,,,6057880f8633bbd79c6f10d8,605b45a4d25f287719a41696,605f29508d6d1f810f2bb70d,United States,Northeast,13 or older,no,2021-03-27_08h49.09.157,empathy_intonation_perc,2020.2.10,Win32,60,,,,,,,,,,0,,,,,,,,,,,,,,,,,,,,,,,,,,,,,,,,,,,,,,,,8,cadea,,,1,0,1.08323,0,55,55,7,1,REAL,FAKE,,,,,,,,,,,,,,,,,,,,,
,,,,,,,6057880f8633bbd79c6f10d8,605b45a4d25f287719a41696,605f29508d6d1f810f2bb70d,United States,Northeast,13 or older,no,2021-03-27_08h49.09.157,empathy_intonation_perc,2020.2.10,Win32,60,,,,,,,,,,1,,,,,,,,,,,,,,,,,,,,,,,,,,,,,,,,,,,,,,,,80,hormiga,,,0,0,0.88401,0,56,56,79,1,REAL,FAKE,,,,,,,,,,,,,,,,,,,,,
,,,,,,,6057880f8633bbd79c6f10d8,605b45a4d25f287719a41696,605f29508d6d1f810f2bb70d,United States,Northeast,13 or older,no,2021-03-27_08h49.09.157,empathy_intonation_perc,2020.2.10,Win32,60,,,,,,,,,,0,,,,,,,,,,,,,,,,,,,,,,,,,,,,,,,,,,,,,,,,53,vegada,,,0,1,0.700685,0,57,57,52,1,REAL,FAKE,,,,,,,,,,,,,,,,,,,,,
,,,,,,,6057880f8633bbd79c6f10d8,605b45a4d25f287719a41696,605f29508d6d1f810f2bb70d,United States,Northeast,13 or older,no,2021-03-27_08h49.09.157,empathy_intonation_perc,2020.2.10,Win32,60,,,,,,,,,,1,,,,,,,,,,,,,,,,,,,,,,,,,,,,,,,,,,,,,,,,31,pandilla,,,1,1,0.671345,0,58,58,30,1,REAL,FAKE,,,,,,,,,,,,,,,,,,,,,
,,,,,,,6057880f8633bbd79c6f10d8,605b45a4d25f287719a41696,605f29508d6d1f810f2bb70d,United States,Northeast,13 or older,no,2021-03-27_08h49.09.157,empathy_intonation_perc,2020.2.10,Win32,60,,,,,,,,,,0,,,,,,,,,,,,,,,,,,,,,,,,,,,,,,,,,,,,,,,,18,arsa,,,0,1,0.66772,0,59,59,17,1,REAL,FAKE,,,,,,,,,,,,,,,,,,,,,
,,,,,,,6057880f8633bbd79c6f10d8,605b45a4d25f287719a41696,605f29508d6d1f810f2bb70d,United States,Northeast,13 or older,no,2021-03-27_08h49.09.157,empathy_intonation_perc,2020.2.10,Win32,60,,,,,,,,,,0,,,,,,,,,,,,,,,,,,,,,,,,,,,,,,,,,,,,,,,,79,tropaje,,,0,1,0.68336,0,60,60,78,1,REAL,FAKE,,,,,,,,,,,,,,,,,,,,,
,,,,,,,6057880f8633bbd79c6f10d8,605b45a4d25f287719a41696,605f29508d6d1f810f2bb70d,United States,Northeast,13 or older,no,2021-03-27_08h49.09.157,empathy_intonation_perc,2020.2.10,Win32,60,,,,,,,,,,1,,,,,,,,,,,,,,,,,,,,,,,,,,,,,,,,,,,,,,,,81,pozo,,,0,0,0.904825,0,61,61,80,1,REAL,FAKE,,,,,,,,,,,,,,,,,,,,,
,,,,,,,6057880f8633bbd79c6f10d8,605b45a4d25f287719a41696,605f29508d6d1f810f2bb70d,United States,Northeast,13 or older,no,2021-03-27_08h49.09.157,empathy_intonation_perc,2020.2.10,Win32,60,,,,,,,,,,1,,,,,,,,,,,,,,,,,,,,,,,,,,,,,,,,,,,,,,,,64,orgulloso,,,0,0,1.436705,0,62,62,63,1,REAL,FAKE,,,,,,,,,,,,,,,,,,,,,
,,,,,,,6057880f8633bbd79c6f10d8,605b45a4d25f287719a41696,605f29508d6d1f810f2bb70d,United States,Northeast,13 or older,no,2021-03-27_08h49.09.157,empathy_intonation_perc,2020.2.10,Win32,60,,,,,,,,,,1,,,,,,,,,,,,,,,,,,,,,,,,,,,,,,,,,,,,,,,,28,merodear,,,0,0,1.33316,0,63,63,27,1,REAL,FAKE,,,,,,,,,,,,,,,,,,,,,
,,,,,,,6057880f8633bbd79c6f10d8,605b45a4d25f287719a41696,605f29508d6d1f810f2bb70d,United States,Northeast,13 or older,no,2021-03-27_08h49.09.157,empathy_intonation_perc,2020.2.10,Win32,60,,,,,,,,,,1,,,,,,,,,,,,,,,,,,,,,,,,,,,,,,,,,,,,,,,,11,cenefa,,,0,0,0.650375,0,64,64,10,1,REAL,FAKE,,,,,,,,,,,,,,,,,,,,,
,,,,,,,6057880f8633bbd79c6f10d8,605b45a4d25f287719a41696,605f29508d6d1f810f2bb70d,United States,Northeast,13 or older,no,2021-03-27_08h49.09.157,empathy_intonation_perc,2020.2.10,Win32,60,,,,,,,,,,1,,,,,,,,,,,,,,,,,,,,,,,,,,,,,,,,,,,,,,,,39,torpe,,,0,0,0.774125,0,65,65,38,1,REAL,FAKE,,,,,,,,,,,,,,,,,,,,,
,,,,,,,6057880f8633bbd79c6f10d8,605b45a4d25f287719a41696,605f29508d6d1f810f2bb70d,United States,Northeast,13 or older,no,2021-03-27_08h49.09.157,empathy_intonation_perc,2020.2.10,Win32,60,,,,,,,,,,0,,,,,,,,,,,,,,,,,,,,,,,,,,,,,,,,,,,,,,,,35,rompido,,,1,0,1.449415,0,66,66,34,1,REAL,FAKE,,,,,,,,,,,,,,,,,,,,,
,,,,,,,6057880f8633bbd79c6f10d8,605b45a4d25f287719a41696,605f29508d6d1f810f2bb70d,United States,Northeast,13 or older,no,2021-03-27_08h49.09.157,empathy_intonation_perc,2020.2.10,Win32,60,,,,,,,,,,1,,,,,,,,,,,,,,,,,,,,,,,,,,,,,,,,,,,,,,,,59,besar,,,1,1,0.616735,0,67,67,58,1,REAL,FAKE,,,,,,,,,,,,,,,,,,,,,
,,,,,,,6057880f8633bbd79c6f10d8,605b45a4d25f287719a41696,605f29508d6d1f810f2bb70d,United States,Northeast,13 or older,no,2021-03-27_08h49.09.157,empathy_intonation_perc,2020.2.10,Win32,60,,,,,,,,,,1,,,,,,,,,,,,,,,,,,,,,,,,,,,,,,,,,,,,,,,,90,clavel,,,0,0,0.75293,0,68,68,89,1,REAL,FAKE,,,,,,,,,,,,,,,,,,,,,
,,,,,,,6057880f8633bbd79c6f10d8,605b45a4d25f287719a41696,605f29508d6d1f810f2bb70d,United States,Northeast,13 or older,no,2021-03-27_08h49.09.157,empathy_intonation_perc,2020.2.10,Win32,60,,,,,,,,,,1,,,,,,,,,,,,,,,,,,,,,,,,,,,,,,,,,,,,,,,,34,aviso,,,0,0,0.799545,0,69,69,33,1,REAL,FAKE,,,,,,,,,,,,,,,,,,,,,
,,,,,,,6057880f8633bbd79c6f10d8,605b45a4d25f287719a41696,605f29508d6d1f810f2bb70d,United States,Northeast,13 or older,no,2021-03-27_08h49.09.157,empathy_intonation_perc,2020.2.10,Win32,60,,,,,,,,,,1,,,,,,,,,,,,,,,,,,,,,,,,,,,,,,,,,,,,,,,,75,yacer,,,0,0,0.76731,0,70,70,74,1,REAL,FAKE,,,,,,,,,,,,,,,,,,,,,
,,,,,,,6057880f8633bbd79c6f10d8,605b45a4d25f287719a41696,605f29508d6d1f810f2bb70d,United States,Northeast,13 or older,no,2021-03-27_08h49.09.157,empathy_intonation_perc,2020.2.10,Win32,60,,,,,,,,,,1,,,,,,,,,,,,,,,,,,,,,,,,,,,,,,,,,,,,,,,,15,regar,,,0,0,0.732965,0,71,71,14,1,REAL,FAKE,,,,,,,,,,,,,,,,,,,,,
,,,,,,,6057880f8633bbd79c6f10d8,605b45a4d25f287719a41696,605f29508d6d1f810f2bb70d,United States,Northeast,13 or older,no,2021-03-27_08h49.09.157,empathy_intonation_perc,2020.2.10,Win32,60,,,,,,,,,,0,,,,,,,,,,,,,,,,,,,,,,,,,,,,,,,,,,,,,,,,4,batilln,,,1,0,0.916295,0,72,72,3,1,REAL,FAKE,,,,,,,,,,,,,,,,,,,,,
,,,,,,,6057880f8633bbd79c6f10d8,605b45a4d25f287719a41696,605f29508d6d1f810f2bb70d,United States,Northeast,13 or older,no,2021-03-27_08h49.09.157,empathy_intonation_perc,2020.2.10,Win32,60,,,,,,,,,,1,,,,,,,,,,,,,,,,,,,,,,,,,,,,,,,,,,,,,,,,77,tiburn,,,1,1,0.777715,0,73,73,76,1,REAL,FAKE,,,,,,,,,,,,,,,,,,,,,
,,,,,,,6057880f8633bbd79c6f10d8,605b45a4d25f287719a41696,605f29508d6d1f810f2bb70d,United States,Northeast,13 or older,no,2021-03-27_08h49.09.157,empathy_intonation_perc,2020.2.10,Win32,60,,,,,,,,,,0,,,,,,,,,,,,,,,,,,,,,,,,,,,,,,,,,,,,,,,,27,acutacin,,,0,1,0.789185,0,74,74,26,1,REAL,FAKE,,,,,,,,,,,,,,,,,,,,,
,,,,,,,6057880f8633bbd79c6f10d8,605b45a4d25f287719a41696,605f29508d6d1f810f2bb70d,United States,Northeast,13 or older,no,2021-03-27_08h49.09.157,empathy_intonation_perc,2020.2.10,Win32,60,,,,,,,,,,1,,,,,,,,,,,,,,,,,,,,,,,,,,,,,,,,,,,,,,,,52,camisa,,,1,1,0.83792,0,75,75,51,1,REAL,FAKE,,,,,,,,,,,,,,,,,,,,,
,,,,,,,6057880f8633bbd79c6f10d8,605b45a4d25f287719a41696,605f29508d6d1f810f2bb70d,United States,Northeast,13 or older,no,2021-03-27_08h49.09.157,empathy_intonation_perc,2020.2.10,Win32,60,,,,,,,,,,1,,,,,,,,,,,,,,,,,,,,,,,,,,,,,,,,,,,,,,,,61,seda,,,1,1,0.940715,0,76,76,60,1,REAL,FAKE,,,,,,,,,,,,,,,,,,,,,
,,,,,,,6057880f8633bbd79c6f10d8,605b45a4d25f287719a41696,605f29508d6d1f810f2bb70d,United States,Northeast,13 or older,no,2021-03-27_08h49.09.157,empathy_intonation_perc,2020.2.10,Win32,60,,,,,,,,,,0,,,,,,,,,,,,,,,,,,,,,,,,,,,,,,,,,,,,,,,,63,esposante,,,1,0,1.2029,0,77,77,62,1,REAL,FAKE,,,,,,,,,,,,,,,,,,,,,
,,,,,,,6057880f8633bbd79c6f10d8,605b45a4d25f287719a41696,605f29508d6d1f810f2bb70d,United States,Northeast,13 or older,no,2021-03-27_08h49.09.157,empathy_intonation_perc,2020.2.10,Win32,60,,,,,,,,,,1,,,,,,,,,,,,,,,,,,,,,,,,,,,,,,,,,,,,,,,,45,jilguero,,,0,0,0.668935,0,78,78,44,1,REAL,FAKE,,,,,,,,,,,,,,,,,,,,,
,,,,,,,6057880f8633bbd79c6f10d8,605b45a4d25f287719a41696,605f29508d6d1f810f2bb70d,United States,Northeast,13 or older,no,2021-03-27_08h49.09.157,empathy_intonation_perc,2020.2.10,Win32,60,,,,,,,,,,1,,,,,,,,,,,,,,,,,,,,,,,,,,,,,,,,,,,,,,,,62,flaco,,,0,0,1.182865,0,79,79,61,1,REAL,FAKE,,,,,,,,,,,,,,,,,,,,,
,,,,,,,6057880f8633bbd79c6f10d8,605b45a4d25f287719a41696,605f29508d6d1f810f2bb70d,United States,Northeast,13 or older,no,2021-03-27_08h49.09.157,empathy_intonation_perc,2020.2.10,Win32,60,,,,,,,,,,0,,,,,,,,,,,,,,,,,,,,,,,,,,,,,,,,,,,,,,,,23,lampera,,,1,0,0.667195,0,80,80,22,1,REAL,FAKE,,,,,,,,,,,,,,,,,,,,,
,,,,,,,6057880f8633bbd79c6f10d8,605b45a4d25f287719a41696,605f29508d6d1f810f2bb70d,United States,Northeast,13 or older,no,2021-03-27_08h49.09.157,empathy_intonation_perc,2020.2.10,Win32,60,,,,,,,,,,0,,,,,,,,,,,,,,,,,,,,,,,,,,,,,,,,,,,,,,,,30,alardio,,,0,1,0.783155,0,81,81,29,1,REAL,FAKE,,,,,,,,,,,,,,,,,,,,,
,,,,,,,6057880f8633bbd79c6f10d8,605b45a4d25f287719a41696,605f29508d6d1f810f2bb70d,United States,Northeast,13 or older,no,2021-03-27_08h49.09.157,empathy_intonation_perc,2020.2.10,Win32,60,,,,,,,,,,1,,,,,,,,,,,,,,,,,,,,,,,,,,,,,,,,,,,,,,,,67,cabello,,,1,1,0.999775,0,82,82,66,1,REAL,FAKE,,,,,,,,,,,,,,,,,,,,,
,,,,,,,6057880f8633bbd79c6f10d8,605b45a4d25f287719a41696,605f29508d6d1f810f2bb70d,United States,Northeast,13 or older,no,2021-03-27_08h49.09.157,empathy_intonation_perc,2020.2.10,Win32,60,,,,,,,,,,1,,,,,,,,,,,,,,,,,,,,,,,,,,,,,,,,,,,,,,,,44,cuchara,,,1,1,1.44325,0,83,83,43,1,REAL,FAKE,,,,,,,,,,,,,,,,,,,,,
,,,,,,,6057880f8633bbd79c6f10d8,605b45a4d25f287719a41696,605f29508d6d1f810f2bb70d,United States,Northeast,13 or older,no,2021-03-27_08h49.09.157,empathy_intonation_perc,2020.2.10,Win32,60,,,,,,,,,,0,,,,,,,,,,,,,,,,,,,,,,,,,,,,,,,,,,,,,,,,10,antar,,,1,0,0.82756,0,84,84,9,1,REAL,FAKE,,,,,,,,,,,,,,,,,,,,,
,,,,,,,6057880f8633bbd79c6f10d8,605b45a4d25f287719a41696,605f29508d6d1f810f2bb70d,United States,Northeast,13 or older,no,2021-03-27_08h49.09.157,empathy_intonation_perc,2020.2.10,Win32,60,,,,,,,,,,1,,,,,,,,,,,,,,,,,,,,,,,,,,,,,,,,,,,,,,,,78,frondoso,,,0,0,0.700135,0,85,85,77,1,REAL,FAKE,,,,,,,,,,,,,,,,,,,,,
,,,,,,,6057880f8633bbd79c6f10d8,605b45a4d25f287719a41696,605f29508d6d1f810f2bb70d,United States,Northeast,13 or older,no,2021-03-27_08h49.09.157,empathy_intonation_perc,2020.2.10,Win32,60,,,,,,,,,,0,,,,,,,,,,,,,,,,,,,,,,,,,,,,,,,,,,,,,,,,47,cartinar,,,0,1,1.399685,0,86,86,46,1,REAL,FAKE,,,,,,,,,,,,,,,,,,,,,
,,,,,,,6057880f8633bbd79c6f10d8,605b45a4d25f287719a41696,605f29508d6d1f810f2bb70d,United States,Northeast,13 or older,no,2021-03-27_08h49.09.157,empathy_intonation_perc,2020.2.10,Win32,60,,,,,,,,,,1,,,,,,,,,,,,,,,,,,,,,,,,,,,,,,,,,,,,,,,,5,zapato,,,1,1,0.57249,0,87,87,4,1,REAL,FAKE,,,,,,,,,,,,,,,,,,,,,
,,,,,,,6057880f8633bbd79c6f10d8,605b45a4d25f287719a41696,605f29508d6d1f810f2bb70d,United States,Northeast,13 or older,no,2021-03-27_08h49.09.157,empathy_intonation_perc,2020.2.10,Win32,60,,,,,,,,,,1,,,,,,,,,,,,,,,,,,,,,,,,,,,,,,,,,,,,,,,,2,pellizcar,,,0,0,0.916075,0,88,88,1,1,REAL,FAKE,,,,,,,,,,,,,,,,,,,,,
,,,,,,,6057880f8633bbd79c6f10d8,605b45a4d25f287719a41696,605f29508d6d1f810f2bb70d,United States,Northeast,13 or older,no,2021-03-27_08h49.09.157,empathy_intonation_perc,2020.2.10,Win32,60,,,,,,,,,,1,,,,,,,,,,,,,,,,,,,,,,,,,,,,,,,,,,,,,,,,14,yunque,,,0,0,1.20574,0,89,89,13,1,REAL,FAKE,,,,,,,,,,,,,,,,,,,,,
,,,,,,,6057880f8633bbd79c6f10d8,605b45a4d25f287719a41696,605f29508d6d1f810f2bb70d,United States,Northeast,13 or older,no,2021-03-27_08h49.09.157,empathy_intonation_perc,2020.2.10,Win32,60,,,,,,,,,,,,,,,,,,,,,,,,,,,,,,,,,,,,,,,,,,,,,,,,,,,,,,,,,,,,,,,,4,1,2.498105,1,0,0,0,0,0,1,,,,,,,,,,,
,,,,,,,6057880f8633bbd79c6f10d8,605b45a4d25f287719a41696,605f29508d6d1f810f2bb70d,United States,Northeast,13 or older,no,2021-03-27_08h49.09.157,empathy_intonation_perc,2020.2.10,Win32,60,,,,,,,,,,,,,,,,,,,,1,,,,,,,,,,,,,,,,,,,,,,,,,,,,,,,,,,,,,,,,,,,,,,,,,,,,,,1,0,0,0,0,1,I can easily tell if someone else wants to enter a conversation.,1,0,1,0
,,,,,,,6057880f8633bbd79c6f10d8,605b45a4d25f287719a41696,605f29508d6d1f810f2bb70d,United States,Northeast,13 or older,no,2021-03-27_08h49.09.157,empathy_intonation_perc,2020.2.10,Win32,60,,,,,,,,,,,,,,,,,,,,2,,,,,,,,,,,,,,,,,,,,,,,,,,,,,,,,,,,,,,,,,,,,,,,,,,,,,,3,0,1,1,1,1,I prefer animals to humans.,0,1,0,0
,,,,,,,6057880f8633bbd79c6f10d8,605b45a4d25f287719a41696,605f29508d6d1f810f2bb70d,United States,Northeast,13 or older,no,2021-03-27_08h49.09.157,empathy_intonation_perc,2020.2.10,Win32,60,,,,,,,,,,,,,,,,,,,,3,,,,,,,,,,,,,,,,,,,,,,,,,,,,,,,,,,,,,,,,,,,,,,,,,,,,,,1,0,2,2,2,1,I try to keep up with the current trends and fashions.,0,1,0,0
,,,,,,,6057880f8633bbd79c6f10d8,605b45a4d25f287719a41696,605f29508d6d1f810f2bb70d,United States,Northeast,13 or older,no,2021-03-27_08h49.09.157,empathy_intonation_perc,2020.2.10,Win32,60,,,,,,,,,,,,,,,,,,,,4,,,,,,,,,,,,,,,,,,,,,,,,,,,,,,,,,,,,,,,,,,,,,,,,,,,,,,2,0,3,3,3,1,"I find it difficult to explain to others things that I understand easily, 
  when they dont understand it first time.",1,0,0,1
