instructions_2afc_loop.thisRepN,instructions_2afc_loop.thisTrialN,instructions_2afc_loop.thisN,instructions_2afc_loop.thisIndex,instructions_2afc_loop.ran,instructions_text,continue_text,participant,study_id,session,I am most familiar with Spanish from...*,What part of the US are you from?*,At what age did you begin learning Spanish?*,Are you proficient in any languages other than English/Spanish?*,date,expName,psychopyVersion,OS,frameRate,key_resp_2afc_practice.keys,key_resp_2afc_practice.corr,key_resp_2afc_practice.rt,trials_2afc_practice_loop.thisRepN,trials_2afc_practice_loop.thisTrialN,trials_2afc_practice_loop.thisN,trials_2afc_practice_loop.thisIndex,trials_2afc_practice_loop.ran,path,correct_response,the_col,key_resp_2afc_trial.keys,key_resp_2afc_trial.corr,key_resp_2afc_trial.rt,trials_2afc_loop.thisRepN,trials_2afc_loop.thisTrialN,trials_2afc_loop.thisN,trials_2afc_loop.thisIndex,trials_2afc_loop.ran,item_num,andalusian,argentine,castilian,chilean,cuban,mexican,peruvian,puertorican,key_resp_ac1.keys,key_resp_ac1.corr,key_resp_ac1.rt,ac1_loop.thisRepN,ac1_loop.thisTrialN,ac1_loop.thisN,ac1_loop.thisIndex,ac1_loop.ran,instructions_lextale_loop.thisRepN,instructions_lextale_loop.thisTrialN,instructions_lextale_loop.thisN,instructions_lextale_loop.thisIndex,instructions_lextale_loop.ran,key_resp_lextale_practice.keys,key_resp_lextale_practice.corr,key_resp_lextale_practice.rt,trials_lextale_practice_loop.thisRepN,trials_lextale_practice_loop.thisTrialN,trials_lextale_practice_loop.thisN,trials_lextale_practice_loop.thisIndex,trials_lextale_practice_loop.ran,stim,word,prac_button_real,prac_button_false,key_resp_lextale_trial.keys,key_resp_lextale_trial.corr,key_resp_lextale_trial.rt,trials_lextale_loop.thisRepN,trials_lextale_loop.thisTrialN,trials_lextale_loop.thisN,trials_lextale_loop.thisIndex,trials_lextale_loop.ran,button_real,button_false,key_resp_ac2.keys,key_resp_ac2.corr,key_resp_ac2.rt,check_pass,check_fails,ac2_loop.thisRepN,ac2_loop.thisTrialN,ac2_loop.thisN,ac2_loop.thisIndex,ac2_loop.ran,slider_eq_trial.response,trials_eq_loop.thisRepN,trials_eq_loop.thisTrialN,trials_eq_loop.thisN,trials_eq_loop.thisIndex,trials_eq_loop.ran,item,is_test_item,is_distractor,is_agree_score,is_disagree_score
0,0,0,0,1,"In the following task you are going to hear a series of utterances. 

  You will decide if the utterances sound like questions or not using your keyboard.",(press the spacebar to continue),60579ed57a769950e21bcda2,605b45a4d25f287719a41696,605ba1e6fd35ae10ad260a20,United States,East coast,13 or older,no,2021-03-24_16h35.31.095,empathy_intonation_perc,2020.2.10,Win32,60,,,,,,,,,,,,,,,,,,,,,,,,,,,,,,,,,,,,,,,,,,,,,,,,,,,,,,,,,,,,,,,,,,,,,,,,,,,,,,,,,,,,
0,1,1,1,1,"If you believe the utterance is a question, type '1' (for 'yes') and if you do not 
  believe it is a question type '0' (for 'no').

  Let's practice a bit...",(press the spacebar to continue),60579ed57a769950e21bcda2,605b45a4d25f287719a41696,605ba1e6fd35ae10ad260a20,United States,East coast,13 or older,no,2021-03-24_16h35.31.095,empathy_intonation_perc,2020.2.10,Win32,60,,,,,,,,,,,,,,,,,,,,,,,,,,,,,,,,,,,,,,,,,,,,,,,,,,,,,,,,,,,,,,,,,,,,,,,,,,,,,,,,,,,,
,,,,,,,60579ed57a769950e21bcda2,605b45a4d25f287719a41696,605ba1e6fd35ae10ad260a20,United States,East coast,13 or older,no,2021-03-24_16h35.31.095,empathy_intonation_perc,2020.2.10,Win32,60,0,1,7.697555,0,0,0,5,1,./stim/wavs/andalusian_statement_filler_Alberto-nunca-se-afeita.wav,0,,,,,,,,,,,,,,,,,,,,,,,,,,,,,,,,,,,,,,,,,,,,,,,,,,,,,,,,,,,,,,,,,,,,,,,,,,
,,,,,,,60579ed57a769950e21bcda2,605b45a4d25f287719a41696,605ba1e6fd35ae10ad260a20,United States,East coast,13 or older,no,2021-03-24_16h35.31.095,empathy_intonation_perc,2020.2.10,Win32,60,1,1,5.13517,0,1,1,0,1,./stim/wavs/castilian_question_filler_Mi-esposo-conoce-al-chico.wav,1,,,,,,,,,,,,,,,,,,,,,,,,,,,,,,,,,,,,,,,,,,,,,,,,,,,,,,,,,,,,,,,,,,,,,,,,,,
,,,,,,,60579ed57a769950e21bcda2,605b45a4d25f287719a41696,605ba1e6fd35ae10ad260a20,United States,East coast,13 or older,no,2021-03-24_16h35.31.095,empathy_intonation_perc,2020.2.10,Win32,60,0,1,3.76813,0,2,2,7,1,./stim/wavs/puertorican_statement_filler_La-nina-pinta-con-su-amiga.wav,0,,,,,,,,,,,,,,,,,,,,,,,,,,,,,,,,,,,,,,,,,,,,,,,,,,,,,,,,,,,,,,,,,,,,,,,,,,
,,,,,,,60579ed57a769950e21bcda2,605b45a4d25f287719a41696,605ba1e6fd35ae10ad260a20,United States,East coast,13 or older,no,2021-03-24_16h35.31.095,empathy_intonation_perc,2020.2.10,Win32,60,0,1,3.373065,0,3,3,6,1,./stim/wavs/peruvian_statement_filler_El-nino-habla-con-su-madre.wav,0,,,,,,,,,,,,,,,,,,,,,,,,,,,,,,,,,,,,,,,,,,,,,,,,,,,,,,,,,,,,,,,,,,,,,,,,,,
,,,,,,,60579ed57a769950e21bcda2,605b45a4d25f287719a41696,605ba1e6fd35ae10ad260a20,United States,East coast,13 or older,no,2021-03-24_16h35.31.095,empathy_intonation_perc,2020.2.10,Win32,60,0,1,3.56632,0,4,4,4,1,./stim/wavs/cuban_statement_filler_Cocinabas-por-la-noche.wav,0,,,,,,,,,,,,,,,,,,,,,,,,,,,,,,,,,,,,,,,,,,,,,,,,,,,,,,,,,,,,,,,,,,,,,,,,,,
,,,,,,,60579ed57a769950e21bcda2,605b45a4d25f287719a41696,605ba1e6fd35ae10ad260a20,United States,East coast,13 or older,no,2021-03-24_16h35.31.095,empathy_intonation_perc,2020.2.10,Win32,60,1,1,1.651185,0,5,5,1,1,./stim/wavs/argentine_question_filler_Mi-vecino-habla-mucho.wav,1,,,,,,,,,,,,,,,,,,,,,,,,,,,,,,,,,,,,,,,,,,,,,,,,,,,,,,,,,,,,,,,,,,,,,,,,,,
,,,,,,,60579ed57a769950e21bcda2,605b45a4d25f287719a41696,605ba1e6fd35ae10ad260a20,United States,East coast,13 or older,no,2021-03-24_16h35.31.095,empathy_intonation_perc,2020.2.10,Win32,60,0,0,3.31862,0,6,6,2,1,./stim/wavs/chilean_question_filler_Mi-padre-cantaba-bien.wav,1,,,,,,,,,,,,,,,,,,,,,,,,,,,,,,,,,,,,,,,,,,,,,,,,,,,,,,,,,,,,,,,,,,,,,,,,,,
,,,,,,,60579ed57a769950e21bcda2,605b45a4d25f287719a41696,605ba1e6fd35ae10ad260a20,United States,East coast,13 or older,no,2021-03-24_16h35.31.095,empathy_intonation_perc,2020.2.10,Win32,60,1,1,5.30766,0,7,7,3,1,./stim/wavs/mexican_question_filler_Felipe-no-tiene-contrasena.wav,1,,,,,,,,,,,,,,,,,,,,,,,,,,,,,,,,,,,,,,,,,,,,,,,,,,,,,,,,,,,,,,,,,,,,,,,,,,
,,,,,,,60579ed57a769950e21bcda2,605b45a4d25f287719a41696,605ba1e6fd35ae10ad260a20,United States,East coast,13 or older,no,2021-03-24_16h35.31.095,empathy_intonation_perc,2020.2.10,Win32,60,,,,,,,,,,0,castilian,0,1,1.82305,0,0,0,41,1,42,./stim/wavs/andalusian_mismatch_declarative-narrow-focus_El-hombre-mira-la-luna.wav,./stim/wavs/argentine_mismatch_declarative-narrow-focus_El-hombre-mira-la-luna.wav,./stim/wavs/castilian_mismatch_declarative-narrow-focus_El-hombre-mira-la-luna.wav,./stim/wavs/chilean_mismatch_declarative-narrow-focus_El-hombre-mira-la-luna.wav,./stim/wavs/cuban_mismatch_declarative-narrow-focus_El-hombre-mira-la-luna.wav,./stim/wavs/mexican_mismatch_declarative-narrow-focus_El-hombre-mira-la-luna.wav,./stim/wavs/peruvian_mismatch_declarative-narrow-focus_El-hombre-mira-la-luna.wav,./stim/wavs/puertorican_mismatch_declarative-narrow-focus_El-hombre-mira-la-luna.wav,,,,,,,,,,,,,,,,,,,,,,,,,,,,,,,,,,,,,,,,,,,,,,,,,,,,,,,,
,,,,,,,60579ed57a769950e21bcda2,605b45a4d25f287719a41696,605ba1e6fd35ae10ad260a20,United States,East coast,13 or older,no,2021-03-24_16h35.31.095,empathy_intonation_perc,2020.2.10,Win32,60,,,,,,,,,,0,puertorican,0,1,1.70168,0,1,1,6,1,7,./stim/wavs/andalusian_match_declarative-broad-focus_Mariano-habla-del-tiempo.wav,./stim/wavs/argentine_match_declarative-broad-focus_Mariano-habla-del-tiempo.wav,./stim/wavs/castilian_match_declarative-broad-focus_Mariano-habla-del-tiempo.wav,./stim/wavs/chilean_match_declarative-broad-focus_Mariano-habla-del-tiempo.wav,./stim/wavs/cuban_match_declarative-broad-focus_Mariano-habla-del-tiempo.wav,./stim/wavs/mexican_match_declarative-broad-focus_Mariano-habla-del-tiempo.wav,./stim/wavs/peruvian_match_declarative-broad-focus_Mariano-habla-del-tiempo.wav,./stim/wavs/puertorican_match_declarative-broad-focus_Mariano-habla-del-tiempo.wav,,,,,,,,,,,,,,,,,,,,,,,,,,,,,,,,,,,,,,,,,,,,,,,,,,,,,,,,
,,,,,,,60579ed57a769950e21bcda2,605b45a4d25f287719a41696,605ba1e6fd35ae10ad260a20,United States,East coast,13 or older,no,2021-03-24_16h35.31.095,empathy_intonation_perc,2020.2.10,Win32,60,,,,,,,,,,0,mexican,0,1,3.46007,0,2,2,10,1,11,./stim/wavs/andalusian_match_declarative-narrow-focus_David-leia-el-libro.wav,./stim/wavs/argentine_match_declarative-narrow-focus_David-leia-el-libro.wav,./stim/wavs/castilian_match_declarative-narrow-focus_David-leia-el-libro.wav,./stim/wavs/chilean_match_declarative-narrow-focus_David-leia-el-libro.wav,./stim/wavs/cuban_match_declarative-narrow-focus_David-leia-el-libro.wav,./stim/wavs/mexican_match_declarative-narrow-focus_David-leia-el-libro.wav,./stim/wavs/peruvian_match_declarative-narrow-focus_David-leia-el-libro.wav,./stim/wavs/puertorican_match_declarative-narrow-focus_David-leia-el-libro.wav,,,,,,,,,,,,,,,,,,,,,,,,,,,,,,,,,,,,,,,,,,,,,,,,,,,,,,,,
,,,,,,,60579ed57a769950e21bcda2,605b45a4d25f287719a41696,605ba1e6fd35ae10ad260a20,United States,East coast,13 or older,no,2021-03-24_16h35.31.095,empathy_intonation_perc,2020.2.10,Win32,60,,,,,,,,,,0,chilean,0,1,1.736415,0,3,3,36,1,37,./stim/wavs/andalusian_mismatch_declarative-broad-focus_La-nina-lava-el-plato.wav,./stim/wavs/argentine_mismatch_declarative-broad-focus_La-nina-lava-el-plato.wav,./stim/wavs/castilian_mismatch_declarative-broad-focus_La-nina-lava-el-plato.wav,./stim/wavs/chilean_mismatch_declarative-broad-focus_La-nina-lava-el-plato.wav,./stim/wavs/cuban_mismatch_declarative-broad-focus_La-nina-lava-el-plato.wav,./stim/wavs/mexican_mismatch_declarative-broad-focus_La-nina-lava-el-plato.wav,./stim/wavs/peruvian_mismatch_declarative-broad-focus_La-nina-lava-el-plato.wav,./stim/wavs/puertorican_mismatch_declarative-broad-focus_La-nina-lava-el-plato.wav,,,,,,,,,,,,,,,,,,,,,,,,,,,,,,,,,,,,,,,,,,,,,,,,,,,,,,,,
,,,,,,,60579ed57a769950e21bcda2,605b45a4d25f287719a41696,605ba1e6fd35ae10ad260a20,United States,East coast,13 or older,no,2021-03-24_16h35.31.095,empathy_intonation_perc,2020.2.10,Win32,60,,,,,,,,,,0,cuban,0,1,1.985335,0,4,4,37,1,38,./stim/wavs/andalusian_mismatch_declarative-broad-focus_Mi-madre-come-la-fruta.wav,./stim/wavs/argentine_mismatch_declarative-broad-focus_Mi-madre-come-la-fruta.wav,./stim/wavs/castilian_mismatch_declarative-broad-focus_Mi-madre-come-la-fruta.wav,./stim/wavs/chilean_mismatch_declarative-broad-focus_Mi-madre-come-la-fruta.wav,./stim/wavs/cuban_mismatch_declarative-broad-focus_Mi-madre-come-la-fruta.wav,./stim/wavs/mexican_mismatch_declarative-broad-focus_Mi-madre-come-la-fruta.wav,./stim/wavs/peruvian_mismatch_declarative-broad-focus_Mi-madre-come-la-fruta.wav,./stim/wavs/puertorican_mismatch_declarative-broad-focus_Mi-madre-come-la-fruta.wav,,,,,,,,,,,,,,,,,,,,,,,,,,,,,,,,,,,,,,,,,,,,,,,,,,,,,,,,
,,,,,,,60579ed57a769950e21bcda2,605b45a4d25f287719a41696,605ba1e6fd35ae10ad260a20,United States,East coast,13 or older,no,2021-03-24_16h35.31.095,empathy_intonation_perc,2020.2.10,Win32,60,,,,,,,,,,1,cuban,1,1,1.966195,0,5,5,62,1,63,./stim/wavs/andalusian_mismatch_interrogative-total-yn_Mi-novio-viene-del-lago.wav,./stim/wavs/argentine_mismatch_interrogative-total-yn_Mi-novio-viene-del-lago.wav,./stim/wavs/castilian_mismatch_interrogative-total-yn_Mi-novio-viene-del-lago.wav,./stim/wavs/chilean_mismatch_interrogative-total-yn_Mi-novio-viene-del-lago.wav,./stim/wavs/cuban_mismatch_interrogative-total-yn_Mi-novio-viene-del-lago.wav,./stim/wavs/mexican_mismatch_interrogative-total-yn_Mi-novio-viene-del-lago.wav,./stim/wavs/peruvian_mismatch_interrogative-total-yn_Mi-novio-viene-del-lago.wav,./stim/wavs/puertorican_mismatch_interrogative-total-yn_Mi-novio-viene-del-lago.wav,,,,,,,,,,,,,,,,,,,,,,,,,,,,,,,,,,,,,,,,,,,,,,,,,,,,,,,,
,,,,,,,60579ed57a769950e21bcda2,605b45a4d25f287719a41696,605ba1e6fd35ae10ad260a20,United States,East coast,13 or older,no,2021-03-24_16h35.31.095,empathy_intonation_perc,2020.2.10,Win32,60,,,,,,,,,,0,andalusian,0,1,2.3188,0,6,6,43,1,44,./stim/wavs/andalusian_mismatch_declarative-narrow-focus_La-maestra-vive-en-Paris.wav,./stim/wavs/argentine_mismatch_declarative-narrow-focus_La-maestra-vive-en-Paris.wav,./stim/wavs/castilian_mismatch_declarative-narrow-focus_La-maestra-vive-en-Paris.wav,./stim/wavs/chilean_mismatch_declarative-narrow-focus_La-maestra-vive-en-Paris.wav,./stim/wavs/cuban_mismatch_declarative-narrow-focus_La-maestra-vive-en-Paris.wav,./stim/wavs/mexican_mismatch_declarative-narrow-focus_La-maestra-vive-en-Paris.wav,./stim/wavs/peruvian_mismatch_declarative-narrow-focus_La-maestra-vive-en-Paris.wav,./stim/wavs/puertorican_mismatch_declarative-narrow-focus_La-maestra-vive-en-Paris.wav,,,,,,,,,,,,,,,,,,,,,,,,,,,,,,,,,,,,,,,,,,,,,,,,,,,,,,,,
,,,,,,,60579ed57a769950e21bcda2,605b45a4d25f287719a41696,605ba1e6fd35ae10ad260a20,United States,East coast,13 or older,no,2021-03-24_16h35.31.095,empathy_intonation_perc,2020.2.10,Win32,60,,,,,,,,,,0,mexican,1,0,7.686715,0,7,7,2,1,3,./stim/wavs/andalusian_match_declarative-broad-focus_David-leia-el-libro.wav,./stim/wavs/argentine_match_declarative-broad-focus_David-leia-el-libro.wav,./stim/wavs/castilian_match_declarative-broad-focus_David-leia-el-libro.wav,./stim/wavs/chilean_match_declarative-broad-focus_David-leia-el-libro.wav,./stim/wavs/cuban_match_declarative-broad-focus_David-leia-el-libro.wav,./stim/wavs/mexican_match_declarative-broad-focus_David-leia-el-libro.wav,./stim/wavs/peruvian_match_declarative-broad-focus_David-leia-el-libro.wav,./stim/wavs/puertorican_match_declarative-broad-focus_David-leia-el-libro.wav,,,,,,,,,,,,,,,,,,,,,,,,,,,,,,,,,,,,,,,,,,,,,,,,,,,,,,,,
,,,,,,,60579ed57a769950e21bcda2,605b45a4d25f287719a41696,605ba1e6fd35ae10ad260a20,United States,East coast,13 or older,no,2021-03-24_16h35.31.095,empathy_intonation_perc,2020.2.10,Win32,60,,,,,,,,,,1,chilean,1,1,2.785055,0,8,8,56,1,57,./stim/wavs/andalusian_mismatch_interrogative-total-yn_El-bebe-comia-muy-bien.wav,./stim/wavs/argentine_mismatch_interrogative-total-yn_El-bebe-comia-muy-bien.wav,./stim/wavs/castilian_mismatch_interrogative-total-yn_El-bebe-comia-muy-bien.wav,./stim/wavs/chilean_mismatch_interrogative-total-yn_El-bebe-comia-muy-bien.wav,./stim/wavs/cuban_mismatch_interrogative-total-yn_El-bebe-comia-muy-bien.wav,./stim/wavs/mexican_mismatch_interrogative-total-yn_El-bebe-comia-muy-bien.wav,./stim/wavs/peruvian_mismatch_interrogative-total-yn_El-bebe-comia-muy-bien.wav,./stim/wavs/puertorican_mismatch_interrogative-total-yn_El-bebe-comia-muy-bien.wav,,,,,,,,,,,,,,,,,,,,,,,,,,,,,,,,,,,,,,,,,,,,,,,,,,,,,,,,
,,,,,,,60579ed57a769950e21bcda2,605b45a4d25f287719a41696,605ba1e6fd35ae10ad260a20,United States,East coast,13 or older,no,2021-03-24_16h35.31.095,empathy_intonation_perc,2020.2.10,Win32,60,,,,,,,,,,1,andalusian,1,1,2.177805,0,9,9,55,1,56,./stim/wavs/andalusian_mismatch_interrogative-partial-wh_Por-que-vivia-en-Paris.wav,./stim/wavs/argentine_mismatch_interrogative-partial-wh_Por-que-vivia-en-Paris.wav,./stim/wavs/castilian_mismatch_interrogative-partial-wh_Por-que-vivia-en-Paris.wav,./stim/wavs/chilean_mismatch_interrogative-partial-wh_Por-que-vivia-en-Paris.wav,./stim/wavs/cuban_mismatch_interrogative-partial-wh_Por-que-vivia-en-Paris.wav,./stim/wavs/mexican_mismatch_interrogative-partial-wh_Por-que-vivia-en-Paris.wav,./stim/wavs/peruvian_mismatch_interrogative-partial-wh_Por-que-vivia-en-Paris.wav,./stim/wavs/puertorican_mismatch_interrogative-partial-wh_Por-que-vivia-en-Paris.wav,,,,,,,,,,,,,,,,,,,,,,,,,,,,,,,,,,,,,,,,,,,,,,,,,,,,,,,,
,,,,,,,60579ed57a769950e21bcda2,605b45a4d25f287719a41696,605ba1e6fd35ae10ad260a20,United States,East coast,13 or older,no,2021-03-24_16h35.31.095,empathy_intonation_perc,2020.2.10,Win32,60,,,,,,,,,,0,puertorican,0,1,1.651315,0,10,10,7,1,8,./stim/wavs/andalusian_match_declarative-broad-focus_Marta-abre-el-regalo.wav,./stim/wavs/argentine_match_declarative-broad-focus_Marta-abre-el-regalo.wav,./stim/wavs/castilian_match_declarative-broad-focus_Marta-abre-el-regalo.wav,./stim/wavs/chilean_match_declarative-broad-focus_Marta-abre-el-regalo.wav,./stim/wavs/cuban_match_declarative-broad-focus_Marta-abre-el-regalo.wav,./stim/wavs/mexican_match_declarative-broad-focus_Marta-abre-el-regalo.wav,./stim/wavs/peruvian_match_declarative-broad-focus_Marta-abre-el-regalo.wav,./stim/wavs/puertorican_match_declarative-broad-focus_Marta-abre-el-regalo.wav,,,,,,,,,,,,,,,,,,,,,,,,,,,,,,,,,,,,,,,,,,,,,,,,,,,,,,,,
,,,,,,,60579ed57a769950e21bcda2,605b45a4d25f287719a41696,605ba1e6fd35ae10ad260a20,United States,East coast,13 or older,no,2021-03-24_16h35.31.095,empathy_intonation_perc,2020.2.10,Win32,60,,,,,,,,,,1,castilian,1,1,3.32576,0,11,11,24,1,25,./stim/wavs/andalusian_match_interrogative-total-yn_Ana-lleva-el-abrigo.wav,./stim/wavs/argentine_match_interrogative-total-yn_Ana-lleva-el-abrigo.wav,./stim/wavs/castilian_match_interrogative-total-yn_Ana-lleva-el-abrigo.wav,./stim/wavs/chilean_match_interrogative-total-yn_Ana-lleva-el-abrigo.wav,./stim/wavs/cuban_match_interrogative-total-yn_Ana-lleva-el-abrigo.wav,./stim/wavs/mexican_match_interrogative-total-yn_Ana-lleva-el-abrigo.wav,./stim/wavs/peruvian_match_interrogative-total-yn_Ana-lleva-el-abrigo.wav,./stim/wavs/puertorican_match_interrogative-total-yn_Ana-lleva-el-abrigo.wav,,,,,,,,,,,,,,,,,,,,,,,,,,,,,,,,,,,,,,,,,,,,,,,,,,,,,,,,
,,,,,,,60579ed57a769950e21bcda2,605b45a4d25f287719a41696,605ba1e6fd35ae10ad260a20,United States,East coast,13 or older,no,2021-03-24_16h35.31.095,empathy_intonation_perc,2020.2.10,Win32,60,,,,,,,,,,0,andalusian,0,1,2.223425,0,12,12,4,1,5,./stim/wavs/andalusian_match_declarative-broad-focus_Manuela-vende-el-carro.wav,./stim/wavs/argentine_match_declarative-broad-focus_Manuela-vende-el-carro.wav,./stim/wavs/castilian_match_declarative-broad-focus_Manuela-vende-el-carro.wav,./stim/wavs/chilean_match_declarative-broad-focus_Manuela-vende-el-carro.wav,./stim/wavs/cuban_match_declarative-broad-focus_Manuela-vende-el-carro.wav,./stim/wavs/mexican_match_declarative-broad-focus_Manuela-vende-el-carro.wav,./stim/wavs/peruvian_match_declarative-broad-focus_Manuela-vende-el-carro.wav,./stim/wavs/puertorican_match_declarative-broad-focus_Manuela-vende-el-carro.wav,,,,,,,,,,,,,,,,,,,,,,,,,,,,,,,,,,,,,,,,,,,,,,,,,,,,,,,,
,,,,,,,60579ed57a769950e21bcda2,605b45a4d25f287719a41696,605ba1e6fd35ae10ad260a20,United States,East coast,13 or older,no,2021-03-24_16h35.31.095,empathy_intonation_perc,2020.2.10,Win32,60,,,,,,,,,,0,chilean,0,1,2.20818,0,13,13,47,1,48,./stim/wavs/andalusian_mismatch_declarative-narrow-focus_Mi-tia-odia-la-lluvia.wav,./stim/wavs/argentine_mismatch_declarative-narrow-focus_Mi-tia-odia-la-lluvia.wav,./stim/wavs/castilian_mismatch_declarative-narrow-focus_Mi-tia-odia-la-lluvia.wav,./stim/wavs/chilean_mismatch_declarative-narrow-focus_Mi-tia-odia-la-lluvia.wav,./stim/wavs/cuban_mismatch_declarative-narrow-focus_Mi-tia-odia-la-lluvia.wav,./stim/wavs/mexican_mismatch_declarative-narrow-focus_Mi-tia-odia-la-lluvia.wav,./stim/wavs/peruvian_mismatch_declarative-narrow-focus_Mi-tia-odia-la-lluvia.wav,./stim/wavs/puertorican_mismatch_declarative-narrow-focus_Mi-tia-odia-la-lluvia.wav,,,,,,,,,,,,,,,,,,,,,,,,,,,,,,,,,,,,,,,,,,,,,,,,,,,,,,,,
,,,,,,,60579ed57a769950e21bcda2,605b45a4d25f287719a41696,605ba1e6fd35ae10ad260a20,United States,East coast,13 or older,no,2021-03-24_16h35.31.095,empathy_intonation_perc,2020.2.10,Win32,60,,,,,,,,,,0,argentine,0,1,2.94617,0,14,14,46,1,47,./stim/wavs/andalusian_mismatch_declarative-narrow-focus_Mi-novio-viene-del-lago.wav,./stim/wavs/argentine_mismatch_declarative-narrow-focus_Mi-novio-viene-del-lago.wav,./stim/wavs/castilian_mismatch_declarative-narrow-focus_Mi-novio-viene-del-lago.wav,./stim/wavs/chilean_mismatch_declarative-narrow-focus_Mi-novio-viene-del-lago.wav,./stim/wavs/cuban_mismatch_declarative-narrow-focus_Mi-novio-viene-del-lago.wav,./stim/wavs/mexican_mismatch_declarative-narrow-focus_Mi-novio-viene-del-lago.wav,./stim/wavs/peruvian_mismatch_declarative-narrow-focus_Mi-novio-viene-del-lago.wav,./stim/wavs/puertorican_mismatch_declarative-narrow-focus_Mi-novio-viene-del-lago.wav,,,,,,,,,,,,,,,,,,,,,,,,,,,,,,,,,,,,,,,,,,,,,,,,,,,,,,,,
,,,,,,,60579ed57a769950e21bcda2,605b45a4d25f287719a41696,605ba1e6fd35ae10ad260a20,United States,East coast,13 or older,no,2021-03-24_16h35.31.095,empathy_intonation_perc,2020.2.10,Win32,60,,,,,,,,,,1,argentine,1,1,2.059985,0,15,15,19,1,20,./stim/wavs/andalusian_match_interrogative-partial-wh_Cuando-vendia-el-carro.wav,./stim/wavs/argentine_match_interrogative-partial-wh_Cuando-vendia-el-carro.wav,./stim/wavs/castilian_match_interrogative-partial-wh_Cuando-vendia-el-carro.wav,./stim/wavs/chilean_match_interrogative-partial-wh_Cuando-vendia-el-carro.wav,./stim/wavs/cuban_match_interrogative-partial-wh_Cuando-vendia-el-carro.wav,./stim/wavs/mexican_match_interrogative-partial-wh_Cuando-vendia-el-carro.wav,./stim/wavs/peruvian_match_interrogative-partial-wh_Cuando-vendia-el-carro.wav,./stim/wavs/puertorican_match_interrogative-partial-wh_Cuando-vendia-el-carro.wav,,,,,,,,,,,,,,,,,,,,,,,,,,,,,,,,,,,,,,,,,,,,,,,,,,,,,,,,
,,,,,,,60579ed57a769950e21bcda2,605b45a4d25f287719a41696,605ba1e6fd35ae10ad260a20,United States,East coast,13 or older,no,2021-03-24_16h35.31.095,empathy_intonation_perc,2020.2.10,Win32,60,,,,,,,,,,1,andalusian,1,1,2.079925,0,16,16,60,1,61,./stim/wavs/andalusian_mismatch_interrogative-total-yn_La-nina-lava-el-plato.wav,./stim/wavs/argentine_mismatch_interrogative-total-yn_La-nina-lava-el-plato.wav,./stim/wavs/castilian_mismatch_interrogative-total-yn_La-nina-lava-el-plato.wav,./stim/wavs/chilean_mismatch_interrogative-total-yn_La-nina-lava-el-plato.wav,./stim/wavs/cuban_mismatch_interrogative-total-yn_La-nina-lava-el-plato.wav,./stim/wavs/mexican_mismatch_interrogative-total-yn_La-nina-lava-el-plato.wav,./stim/wavs/peruvian_mismatch_interrogative-total-yn_La-nina-lava-el-plato.wav,./stim/wavs/puertorican_mismatch_interrogative-total-yn_La-nina-lava-el-plato.wav,,,,,,,,,,,,,,,,,,,,,,,,,,,,,,,,,,,,,,,,,,,,,,,,,,,,,,,,
,,,,,,,60579ed57a769950e21bcda2,605b45a4d25f287719a41696,605ba1e6fd35ae10ad260a20,United States,East coast,13 or older,no,2021-03-24_16h35.31.095,empathy_intonation_perc,2020.2.10,Win32,60,,,,,,,,,,1,mexican,0,0,1.60862,0,17,17,50,1,51,./stim/wavs/andalusian_mismatch_interrogative-partial-wh_Cuando-miraba-la-luna.wav,./stim/wavs/argentine_mismatch_interrogative-partial-wh_Cuando-miraba-la-luna.wav,./stim/wavs/castilian_mismatch_interrogative-partial-wh_Cuando-miraba-la-luna.wav,./stim/wavs/chilean_mismatch_interrogative-partial-wh_Cuando-miraba-la-luna.wav,./stim/wavs/cuban_mismatch_interrogative-partial-wh_Cuando-miraba-la-luna.wav,./stim/wavs/mexican_mismatch_interrogative-partial-wh_Cuando-miraba-la-luna.wav,./stim/wavs/peruvian_mismatch_interrogative-partial-wh_Cuando-miraba-la-luna.wav,./stim/wavs/puertorican_mismatch_interrogative-partial-wh_Cuando-miraba-la-luna.wav,,,,,,,,,,,,,,,,,,,,,,,,,,,,,,,,,,,,,,,,,,,,,,,,,,,,,,,,
,,,,,,,60579ed57a769950e21bcda2,605b45a4d25f287719a41696,605ba1e6fd35ae10ad260a20,United States,East coast,13 or older,no,2021-03-24_16h35.31.095,empathy_intonation_perc,2020.2.10,Win32,60,,,,,,,,,,0,castilian,0,1,1.909295,0,18,18,8,1,9,./stim/wavs/andalusian_match_declarative-narrow-focus_Ana-lleva-el-abrigo.wav,./stim/wavs/argentine_match_declarative-narrow-focus_Ana-lleva-el-abrigo.wav,./stim/wavs/castilian_match_declarative-narrow-focus_Ana-lleva-el-abrigo.wav,./stim/wavs/chilean_match_declarative-narrow-focus_Ana-lleva-el-abrigo.wav,./stim/wavs/cuban_match_declarative-narrow-focus_Ana-lleva-el-abrigo.wav,./stim/wavs/mexican_match_declarative-narrow-focus_Ana-lleva-el-abrigo.wav,./stim/wavs/peruvian_match_declarative-narrow-focus_Ana-lleva-el-abrigo.wav,./stim/wavs/puertorican_match_declarative-narrow-focus_Ana-lleva-el-abrigo.wav,,,,,,,,,,,,,,,,,,,,,,,,,,,,,,,,,,,,,,,,,,,,,,,,,,,,,,,,
,,,,,,,60579ed57a769950e21bcda2,605b45a4d25f287719a41696,605ba1e6fd35ae10ad260a20,United States,East coast,13 or older,no,2021-03-24_16h35.31.095,empathy_intonation_perc,2020.2.10,Win32,60,,,,,,,,,,0,argentine,0,1,2.45184,0,19,19,13,1,14,./stim/wavs/andalusian_match_declarative-narrow-focus_Maria-bebe-el-vino.wav,./stim/wavs/argentine_match_declarative-narrow-focus_Maria-bebe-el-vino.wav,./stim/wavs/castilian_match_declarative-narrow-focus_Maria-bebe-el-vino.wav,./stim/wavs/chilean_match_declarative-narrow-focus_Maria-bebe-el-vino.wav,./stim/wavs/cuban_match_declarative-narrow-focus_Maria-bebe-el-vino.wav,./stim/wavs/mexican_match_declarative-narrow-focus_Maria-bebe-el-vino.wav,./stim/wavs/peruvian_match_declarative-narrow-focus_Maria-bebe-el-vino.wav,./stim/wavs/puertorican_match_declarative-narrow-focus_Maria-bebe-el-vino.wav,,,,,,,,,,,,,,,,,,,,,,,,,,,,,,,,,,,,,,,,,,,,,,,,,,,,,,,,
,,,,,,,60579ed57a769950e21bcda2,605b45a4d25f287719a41696,605ba1e6fd35ae10ad260a20,United States,East coast,13 or older,no,2021-03-24_16h35.31.095,empathy_intonation_perc,2020.2.10,Win32,60,,,,,,,,,,1,mexican,1,1,1.585065,0,20,20,22,1,23,./stim/wavs/andalusian_match_interrogative-partial-wh_Por-que-hablaba-del-agua.wav,./stim/wavs/argentine_match_interrogative-partial-wh_Por-que-hablaba-del-agua.wav,./stim/wavs/castilian_match_interrogative-partial-wh_Por-que-hablaba-del-agua.wav,./stim/wavs/chilean_match_interrogative-partial-wh_Por-que-hablaba-del-agua.wav,./stim/wavs/cuban_match_interrogative-partial-wh_Por-que-hablaba-del-agua.wav,./stim/wavs/mexican_match_interrogative-partial-wh_Por-que-hablaba-del-agua.wav,./stim/wavs/peruvian_match_interrogative-partial-wh_Por-que-hablaba-del-agua.wav,./stim/wavs/puertorican_match_interrogative-partial-wh_Por-que-hablaba-del-agua.wav,,,,,,,,,,,,,,,,,,,,,,,,,,,,,,,,,,,,,,,,,,,,,,,,,,,,,,,,
,,,,,,,60579ed57a769950e21bcda2,605b45a4d25f287719a41696,605ba1e6fd35ae10ad260a20,United States,East coast,13 or older,no,2021-03-24_16h35.31.095,empathy_intonation_perc,2020.2.10,Win32,60,,,,,,,,,,0,andalusian,0,1,2.172675,0,21,21,15,1,16,./stim/wavs/andalusian_match_declarative-narrow-focus_Marta-abre-el-regalo.wav,./stim/wavs/argentine_match_declarative-narrow-focus_Marta-abre-el-regalo.wav,./stim/wavs/castilian_match_declarative-narrow-focus_Marta-abre-el-regalo.wav,./stim/wavs/chilean_match_declarative-narrow-focus_Marta-abre-el-regalo.wav,./stim/wavs/cuban_match_declarative-narrow-focus_Marta-abre-el-regalo.wav,./stim/wavs/mexican_match_declarative-narrow-focus_Marta-abre-el-regalo.wav,./stim/wavs/peruvian_match_declarative-narrow-focus_Marta-abre-el-regalo.wav,./stim/wavs/puertorican_match_declarative-narrow-focus_Marta-abre-el-regalo.wav,,,,,,,,,,,,,,,,,,,,,,,,,,,,,,,,,,,,,,,,,,,,,,,,,,,,,,,,
,,,,,,,60579ed57a769950e21bcda2,605b45a4d25f287719a41696,605ba1e6fd35ae10ad260a20,United States,East coast,13 or older,no,2021-03-24_16h35.31.095,empathy_intonation_perc,2020.2.10,Win32,60,,,,,,,,,,0,peruvian,0,1,2.269685,0,22,22,40,1,41,./stim/wavs/andalusian_mismatch_declarative-narrow-focus_El-bebe-comia-muy-bien.wav,./stim/wavs/argentine_mismatch_declarative-narrow-focus_El-bebe-comia-muy-bien.wav,./stim/wavs/castilian_mismatch_declarative-narrow-focus_El-bebe-comia-muy-bien.wav,./stim/wavs/chilean_mismatch_declarative-narrow-focus_El-bebe-comia-muy-bien.wav,./stim/wavs/cuban_mismatch_declarative-narrow-focus_El-bebe-comia-muy-bien.wav,./stim/wavs/mexican_mismatch_declarative-narrow-focus_El-bebe-comia-muy-bien.wav,./stim/wavs/peruvian_mismatch_declarative-narrow-focus_El-bebe-comia-muy-bien.wav,./stim/wavs/puertorican_mismatch_declarative-narrow-focus_El-bebe-comia-muy-bien.wav,,,,,,,,,,,,,,,,,,,,,,,,,,,,,,,,,,,,,,,,,,,,,,,,,,,,,,,,
,,,,,,,60579ed57a769950e21bcda2,605b45a4d25f287719a41696,605ba1e6fd35ae10ad260a20,United States,East coast,13 or older,no,2021-03-24_16h35.31.095,empathy_intonation_perc,2020.2.10,Win32,60,,,,,,,,,,0,argentine,0,1,2.799845,0,23,23,45,1,46,./stim/wavs/andalusian_mismatch_declarative-narrow-focus_Mi-madre-come-la-fruta.wav,./stim/wavs/argentine_mismatch_declarative-narrow-focus_Mi-madre-come-la-fruta.wav,./stim/wavs/castilian_mismatch_declarative-narrow-focus_Mi-madre-come-la-fruta.wav,./stim/wavs/chilean_mismatch_declarative-narrow-focus_Mi-madre-come-la-fruta.wav,./stim/wavs/cuban_mismatch_declarative-narrow-focus_Mi-madre-come-la-fruta.wav,./stim/wavs/mexican_mismatch_declarative-narrow-focus_Mi-madre-come-la-fruta.wav,./stim/wavs/peruvian_mismatch_declarative-narrow-focus_Mi-madre-come-la-fruta.wav,./stim/wavs/puertorican_mismatch_declarative-narrow-focus_Mi-madre-come-la-fruta.wav,,,,,,,,,,,,,,,,,,,,,,,,,,,,,,,,,,,,,,,,,,,,,,,,,,,,,,,,
,,,,,,,60579ed57a769950e21bcda2,605b45a4d25f287719a41696,605ba1e6fd35ae10ad260a20,United States,East coast,13 or older,no,2021-03-24_16h35.31.095,empathy_intonation_perc,2020.2.10,Win32,60,,,,,,,,,,1,cuban,0,0,1.70857,0,24,24,61,1,62,./stim/wavs/andalusian_mismatch_interrogative-total-yn_Mi-madre-come-la-fruta.wav,./stim/wavs/argentine_mismatch_interrogative-total-yn_Mi-madre-come-la-fruta.wav,./stim/wavs/castilian_mismatch_interrogative-total-yn_Mi-madre-come-la-fruta.wav,./stim/wavs/chilean_mismatch_interrogative-total-yn_Mi-madre-come-la-fruta.wav,./stim/wavs/cuban_mismatch_interrogative-total-yn_Mi-madre-come-la-fruta.wav,./stim/wavs/mexican_mismatch_interrogative-total-yn_Mi-madre-come-la-fruta.wav,./stim/wavs/peruvian_mismatch_interrogative-total-yn_Mi-madre-come-la-fruta.wav,./stim/wavs/puertorican_mismatch_interrogative-total-yn_Mi-madre-come-la-fruta.wav,,,,,,,,,,,,,,,,,,,,,,,,,,,,,,,,,,,,,,,,,,,,,,,,,,,,,,,,
,,,,,,,60579ed57a769950e21bcda2,605b45a4d25f287719a41696,605ba1e6fd35ae10ad260a20,United States,East coast,13 or older,no,2021-03-24_16h35.31.095,empathy_intonation_perc,2020.2.10,Win32,60,,,,,,,,,,1,castilian,1,1,1.71943,0,25,25,18,1,19,./stim/wavs/andalusian_match_interrogative-partial-wh_Cuando-lleva-el-abrigo.wav,./stim/wavs/argentine_match_interrogative-partial-wh_Cuando-lleva-el-abrigo.wav,./stim/wavs/castilian_match_interrogative-partial-wh_Cuando-lleva-el-abrigo.wav,./stim/wavs/chilean_match_interrogative-partial-wh_Cuando-lleva-el-abrigo.wav,./stim/wavs/cuban_match_interrogative-partial-wh_Cuando-lleva-el-abrigo.wav,./stim/wavs/mexican_match_interrogative-partial-wh_Cuando-lleva-el-abrigo.wav,./stim/wavs/peruvian_match_interrogative-partial-wh_Cuando-lleva-el-abrigo.wav,./stim/wavs/puertorican_match_interrogative-partial-wh_Cuando-lleva-el-abrigo.wav,,,,,,,,,,,,,,,,,,,,,,,,,,,,,,,,,,,,,,,,,,,,,,,,,,,,,,,,
,,,,,,,60579ed57a769950e21bcda2,605b45a4d25f287719a41696,605ba1e6fd35ae10ad260a20,United States,East coast,13 or older,no,2021-03-24_16h35.31.095,empathy_intonation_perc,2020.2.10,Win32,60,,,,,,,,,,0,andalusian,0,1,1.775955,0,26,26,34,1,35,./stim/wavs/andalusian_mismatch_declarative-broad-focus_El-nino-oye-el-rio.wav,./stim/wavs/argentine_mismatch_declarative-broad-focus_El-nino-oye-el-rio.wav,./stim/wavs/castilian_mismatch_declarative-broad-focus_El-nino-oye-el-rio.wav,./stim/wavs/chilean_mismatch_declarative-broad-focus_El-nino-oye-el-rio.wav,./stim/wavs/cuban_mismatch_declarative-broad-focus_El-nino-oye-el-rio.wav,./stim/wavs/mexican_mismatch_declarative-broad-focus_El-nino-oye-el-rio.wav,./stim/wavs/peruvian_mismatch_declarative-broad-focus_El-nino-oye-el-rio.wav,./stim/wavs/puertorican_mismatch_declarative-broad-focus_El-nino-oye-el-rio.wav,,,,,,,,,,,,,,,,,,,,,,,,,,,,,,,,,,,,,,,,,,,,,,,,,,,,,,,,
,,,,,,,60579ed57a769950e21bcda2,605b45a4d25f287719a41696,605ba1e6fd35ae10ad260a20,United States,East coast,13 or older,no,2021-03-24_16h35.31.095,empathy_intonation_perc,2020.2.10,Win32,60,,,,,,,,,,0,andalusian,0,1,2.34637,0,27,27,38,1,39,./stim/wavs/andalusian_mismatch_declarative-broad-focus_Mi-novio-viene-del-lago.wav,./stim/wavs/argentine_mismatch_declarative-broad-focus_Mi-novio-viene-del-lago.wav,./stim/wavs/castilian_mismatch_declarative-broad-focus_Mi-novio-viene-del-lago.wav,./stim/wavs/chilean_mismatch_declarative-broad-focus_Mi-novio-viene-del-lago.wav,./stim/wavs/cuban_mismatch_declarative-broad-focus_Mi-novio-viene-del-lago.wav,./stim/wavs/mexican_mismatch_declarative-broad-focus_Mi-novio-viene-del-lago.wav,./stim/wavs/peruvian_mismatch_declarative-broad-focus_Mi-novio-viene-del-lago.wav,./stim/wavs/puertorican_mismatch_declarative-broad-focus_Mi-novio-viene-del-lago.wav,,,,,,,,,,,,,,,,,,,,,,,,,,,,,,,,,,,,,,,,,,,,,,,,,,,,,,,,
,,,,,,,60579ed57a769950e21bcda2,605b45a4d25f287719a41696,605ba1e6fd35ae10ad260a20,United States,East coast,13 or older,no,2021-03-24_16h35.31.095,empathy_intonation_perc,2020.2.10,Win32,60,,,,,,,,,,1,puertorican,1,1,1.458045,0,28,28,16,1,17,./stim/wavs/andalusian_match_interrogative-partial-wh_Cuando-bebia-el-vino.wav,./stim/wavs/argentine_match_interrogative-partial-wh_Cuando-bebia-el-vino.wav,./stim/wavs/castilian_match_interrogative-partial-wh_Cuando-bebia-el-vino.wav,./stim/wavs/chilean_match_interrogative-partial-wh_Cuando-bebia-el-vino.wav,./stim/wavs/cuban_match_interrogative-partial-wh_Cuando-bebia-el-vino.wav,./stim/wavs/mexican_match_interrogative-partial-wh_Cuando-bebia-el-vino.wav,./stim/wavs/peruvian_match_interrogative-partial-wh_Cuando-bebia-el-vino.wav,./stim/wavs/puertorican_match_interrogative-partial-wh_Cuando-bebia-el-vino.wav,,,,,,,,,,,,,,,,,,,,,,,,,,,,,,,,,,,,,,,,,,,,,,,,,,,,,,,,
,,,,,,,60579ed57a769950e21bcda2,605b45a4d25f287719a41696,605ba1e6fd35ae10ad260a20,United States,East coast,13 or older,no,2021-03-24_16h35.31.095,empathy_intonation_perc,2020.2.10,Win32,60,,,,,,,,,,1,chilean,1,1,1.651535,0,29,29,21,1,22,./stim/wavs/andalusian_match_interrogative-partial-wh_Por-que-ama-la-navidad.wav,./stim/wavs/argentine_match_interrogative-partial-wh_Por-que-ama-la-navidad.wav,./stim/wavs/castilian_match_interrogative-partial-wh_Por-que-ama-la-navidad.wav,./stim/wavs/chilean_match_interrogative-partial-wh_Por-que-ama-la-navidad.wav,./stim/wavs/cuban_match_interrogative-partial-wh_Por-que-ama-la-navidad.wav,./stim/wavs/mexican_match_interrogative-partial-wh_Por-que-ama-la-navidad.wav,./stim/wavs/peruvian_match_interrogative-partial-wh_Por-que-ama-la-navidad.wav,./stim/wavs/puertorican_match_interrogative-partial-wh_Por-que-ama-la-navidad.wav,,,,,,,,,,,,,,,,,,,,,,,,,,,,,,,,,,,,,,,,,,,,,,,,,,,,,,,,
,,,,,,,60579ed57a769950e21bcda2,605b45a4d25f287719a41696,605ba1e6fd35ae10ad260a20,United States,East coast,13 or older,no,2021-03-24_16h35.31.095,empathy_intonation_perc,2020.2.10,Win32,60,,,,,,,,,,0,chilean,0,1,1.67476,0,30,30,11,1,12,./stim/wavs/andalusian_match_declarative-narrow-focus_Emilio-ama-la-marcha.wav,./stim/wavs/argentine_match_declarative-narrow-focus_Emilio-ama-la-marcha.wav,./stim/wavs/castilian_match_declarative-narrow-focus_Emilio-ama-la-marcha.wav,./stim/wavs/chilean_match_declarative-narrow-focus_Emilio-ama-la-marcha.wav,./stim/wavs/cuban_match_declarative-narrow-focus_Emilio-ama-la-marcha.wav,./stim/wavs/mexican_match_declarative-narrow-focus_Emilio-ama-la-marcha.wav,./stim/wavs/peruvian_match_declarative-narrow-focus_Emilio-ama-la-marcha.wav,./stim/wavs/puertorican_match_declarative-narrow-focus_Emilio-ama-la-marcha.wav,,,,,,,,,,,,,,,,,,,,,,,,,,,,,,,,,,,,,,,,,,,,,,,,,,,,,,,,
,,,,,,,60579ed57a769950e21bcda2,605b45a4d25f287719a41696,605ba1e6fd35ae10ad260a20,United States,East coast,13 or older,no,2021-03-24_16h35.31.095,empathy_intonation_perc,2020.2.10,Win32,60,,,,,,,,,,0,argentine,0,1,2.07723,0,31,31,44,1,45,./stim/wavs/andalusian_mismatch_declarative-narrow-focus_La-nina-lava-el-plato.wav,./stim/wavs/argentine_mismatch_declarative-narrow-focus_La-nina-lava-el-plato.wav,./stim/wavs/castilian_mismatch_declarative-narrow-focus_La-nina-lava-el-plato.wav,./stim/wavs/chilean_mismatch_declarative-narrow-focus_La-nina-lava-el-plato.wav,./stim/wavs/cuban_mismatch_declarative-narrow-focus_La-nina-lava-el-plato.wav,./stim/wavs/mexican_mismatch_declarative-narrow-focus_La-nina-lava-el-plato.wav,./stim/wavs/peruvian_mismatch_declarative-narrow-focus_La-nina-lava-el-plato.wav,./stim/wavs/puertorican_mismatch_declarative-narrow-focus_La-nina-lava-el-plato.wav,,,,,,,,,,,,,,,,,,,,,,,,,,,,,,,,,,,,,,,,,,,,,,,,,,,,,,,,
,,,,,,,60579ed57a769950e21bcda2,605b45a4d25f287719a41696,605ba1e6fd35ae10ad260a20,United States,East coast,13 or older,no,2021-03-24_16h35.31.095,empathy_intonation_perc,2020.2.10,Win32,60,,,,,,,,,,1,castilian,1,1,1.78432,0,32,32,48,1,49,./stim/wavs/andalusian_mismatch_interrogative-partial-wh_Cuando-comia-la-fruta.wav,./stim/wavs/argentine_mismatch_interrogative-partial-wh_Cuando-comia-la-fruta.wav,./stim/wavs/castilian_mismatch_interrogative-partial-wh_Cuando-comia-la-fruta.wav,./stim/wavs/chilean_mismatch_interrogative-partial-wh_Cuando-comia-la-fruta.wav,./stim/wavs/cuban_mismatch_interrogative-partial-wh_Cuando-comia-la-fruta.wav,./stim/wavs/mexican_mismatch_interrogative-partial-wh_Cuando-comia-la-fruta.wav,./stim/wavs/peruvian_mismatch_interrogative-partial-wh_Cuando-comia-la-fruta.wav,./stim/wavs/puertorican_mismatch_interrogative-partial-wh_Cuando-comia-la-fruta.wav,,,,,,,,,,,,,,,,,,,,,,,,,,,,,,,,,,,,,,,,,,,,,,,,,,,,,,,,
,,,,,,,60579ed57a769950e21bcda2,605b45a4d25f287719a41696,605ba1e6fd35ae10ad260a20,United States,East coast,13 or older,no,2021-03-24_16h35.31.095,empathy_intonation_perc,2020.2.10,Win32,60,,,,,,,,,,1,mexican,1,1,1.738645,0,33,33,23,1,24,./stim/wavs/andalusian_match_interrogative-partial-wh_Por-que-iba-a-Bolivia.wav,./stim/wavs/argentine_match_interrogative-partial-wh_Por-que-iba-a-Bolivia.wav,./stim/wavs/castilian_match_interrogative-partial-wh_Por-que-iba-a-Bolivia.wav,./stim/wavs/chilean_match_interrogative-partial-wh_Por-que-iba-a-Bolivia.wav,./stim/wavs/cuban_match_interrogative-partial-wh_Por-que-iba-a-Bolivia.wav,./stim/wavs/mexican_match_interrogative-partial-wh_Por-que-iba-a-Bolivia.wav,./stim/wavs/peruvian_match_interrogative-partial-wh_Por-que-iba-a-Bolivia.wav,./stim/wavs/puertorican_match_interrogative-partial-wh_Por-que-iba-a-Bolivia.wav,,,,,,,,,,,,,,,,,,,,,,,,,,,,,,,,,,,,,,,,,,,,,,,,,,,,,,,,
,,,,,,,60579ed57a769950e21bcda2,605b45a4d25f287719a41696,605ba1e6fd35ae10ad260a20,United States,East coast,13 or older,no,2021-03-24_16h35.31.095,empathy_intonation_perc,2020.2.10,Win32,60,,,,,,,,,,0,castilian,0,1,2.12778,0,34,34,32,1,33,./stim/wavs/andalusian_mismatch_declarative-broad-focus_El-bebe-comia-muy-bien.wav,./stim/wavs/argentine_mismatch_declarative-broad-focus_El-bebe-comia-muy-bien.wav,./stim/wavs/castilian_mismatch_declarative-broad-focus_El-bebe-comia-muy-bien.wav,./stim/wavs/chilean_mismatch_declarative-broad-focus_El-bebe-comia-muy-bien.wav,./stim/wavs/cuban_mismatch_declarative-broad-focus_El-bebe-comia-muy-bien.wav,./stim/wavs/mexican_mismatch_declarative-broad-focus_El-bebe-comia-muy-bien.wav,./stim/wavs/peruvian_mismatch_declarative-broad-focus_El-bebe-comia-muy-bien.wav,./stim/wavs/puertorican_mismatch_declarative-broad-focus_El-bebe-comia-muy-bien.wav,,,,,,,,,,,,,,,,,,,,,,,,,,,,,,,,,,,,,,,,,,,,,,,,,,,,,,,,
,,,,,,,60579ed57a769950e21bcda2,605b45a4d25f287719a41696,605ba1e6fd35ae10ad260a20,United States,East coast,13 or older,no,2021-03-24_16h35.31.095,empathy_intonation_perc,2020.2.10,Win32,60,,,,,,,,,,1,castilian,1,1,1.951585,0,35,35,27,1,28,./stim/wavs/andalusian_match_interrogative-total-yn_Emilio-ama-la-marcha.wav,./stim/wavs/argentine_match_interrogative-total-yn_Emilio-ama-la-marcha.wav,./stim/wavs/castilian_match_interrogative-total-yn_Emilio-ama-la-marcha.wav,./stim/wavs/chilean_match_interrogative-total-yn_Emilio-ama-la-marcha.wav,./stim/wavs/cuban_match_interrogative-total-yn_Emilio-ama-la-marcha.wav,./stim/wavs/mexican_match_interrogative-total-yn_Emilio-ama-la-marcha.wav,./stim/wavs/peruvian_match_interrogative-total-yn_Emilio-ama-la-marcha.wav,./stim/wavs/puertorican_match_interrogative-total-yn_Emilio-ama-la-marcha.wav,,,,,,,,,,,,,,,,,,,,,,,,,,,,,,,,,,,,,,,,,,,,,,,,,,,,,,,,
,,,,,,,60579ed57a769950e21bcda2,605b45a4d25f287719a41696,605ba1e6fd35ae10ad260a20,United States,East coast,13 or older,no,2021-03-24_16h35.31.095,empathy_intonation_perc,2020.2.10,Win32,60,,,,,,,,,,0,mexican,0,1,1.785035,0,36,36,35,1,36,./stim/wavs/andalusian_mismatch_declarative-broad-focus_La-maestra-vive-en-Paris.wav,./stim/wavs/argentine_mismatch_declarative-broad-focus_La-maestra-vive-en-Paris.wav,./stim/wavs/castilian_mismatch_declarative-broad-focus_La-maestra-vive-en-Paris.wav,./stim/wavs/chilean_mismatch_declarative-broad-focus_La-maestra-vive-en-Paris.wav,./stim/wavs/cuban_mismatch_declarative-broad-focus_La-maestra-vive-en-Paris.wav,./stim/wavs/mexican_mismatch_declarative-broad-focus_La-maestra-vive-en-Paris.wav,./stim/wavs/peruvian_mismatch_declarative-broad-focus_La-maestra-vive-en-Paris.wav,./stim/wavs/puertorican_mismatch_declarative-broad-focus_La-maestra-vive-en-Paris.wav,,,,,,,,,,,,,,,,,,,,,,,,,,,,,,,,,,,,,,,,,,,,,,,,,,,,,,,,
,,,,,,,60579ed57a769950e21bcda2,605b45a4d25f287719a41696,605ba1e6fd35ae10ad260a20,United States,East coast,13 or older,no,2021-03-24_16h35.31.095,empathy_intonation_perc,2020.2.10,Win32,60,,,,,,,,,,0,andalusian,0,1,2.793885,0,37,37,1,1,2,./stim/wavs/andalusian_match_declarative-broad-focus_Daniel-iba-a-Bolivia.wav,./stim/wavs/argentine_match_declarative-broad-focus_Daniel-iba-a-Bolivia.wav,./stim/wavs/castilian_match_declarative-broad-focus_Daniel-iba-a-Bolivia.wav,./stim/wavs/chilean_match_declarative-broad-focus_Daniel-iba-a-Bolivia.wav,./stim/wavs/cuban_match_declarative-broad-focus_Daniel-iba-a-Bolivia.wav,./stim/wavs/mexican_match_declarative-broad-focus_Daniel-iba-a-Bolivia.wav,./stim/wavs/peruvian_match_declarative-broad-focus_Daniel-iba-a-Bolivia.wav,./stim/wavs/puertorican_match_declarative-broad-focus_Daniel-iba-a-Bolivia.wav,,,,,,,,,,,,,,,,,,,,,,,,,,,,,,,,,,,,,,,,,,,,,,,,,,,,,,,,
,,,,,,,60579ed57a769950e21bcda2,605b45a4d25f287719a41696,605ba1e6fd35ae10ad260a20,United States,East coast,13 or older,no,2021-03-24_16h35.31.095,empathy_intonation_perc,2020.2.10,Win32,60,,,,,,,,,,1,argentine,1,1,1.63354,0,38,38,49,1,50,./stim/wavs/andalusian_mismatch_interrogative-partial-wh_Cuando-lavaba-el-plato.wav,./stim/wavs/argentine_mismatch_interrogative-partial-wh_Cuando-lavaba-el-plato.wav,./stim/wavs/castilian_mismatch_interrogative-partial-wh_Cuando-lavaba-el-plato.wav,./stim/wavs/chilean_mismatch_interrogative-partial-wh_Cuando-lavaba-el-plato.wav,./stim/wavs/cuban_mismatch_interrogative-partial-wh_Cuando-lavaba-el-plato.wav,./stim/wavs/mexican_mismatch_interrogative-partial-wh_Cuando-lavaba-el-plato.wav,./stim/wavs/peruvian_mismatch_interrogative-partial-wh_Cuando-lavaba-el-plato.wav,./stim/wavs/puertorican_mismatch_interrogative-partial-wh_Cuando-lavaba-el-plato.wav,,,,,,,,,,,,,,,,,,,,,,,,,,,,,,,,,,,,,,,,,,,,,,,,,,,,,,,,
,,,,,,,60579ed57a769950e21bcda2,605b45a4d25f287719a41696,605ba1e6fd35ae10ad260a20,United States,East coast,13 or older,no,2021-03-24_16h35.31.095,empathy_intonation_perc,2020.2.10,Win32,60,,,,,,,,,,1,puertorican,0,0,2.134945,0,39,39,25,1,26,./stim/wavs/andalusian_match_interrogative-total-yn_Daniel-iba-a-Bolivia.wav,./stim/wavs/argentine_match_interrogative-total-yn_Daniel-iba-a-Bolivia.wav,./stim/wavs/castilian_match_interrogative-total-yn_Daniel-iba-a-Bolivia.wav,./stim/wavs/chilean_match_interrogative-total-yn_Daniel-iba-a-Bolivia.wav,./stim/wavs/cuban_match_interrogative-total-yn_Daniel-iba-a-Bolivia.wav,./stim/wavs/mexican_match_interrogative-total-yn_Daniel-iba-a-Bolivia.wav,./stim/wavs/peruvian_match_interrogative-total-yn_Daniel-iba-a-Bolivia.wav,./stim/wavs/puertorican_match_interrogative-total-yn_Daniel-iba-a-Bolivia.wav,,,,,,,,,,,,,,,,,,,,,,,,,,,,,,,,,,,,,,,,,,,,,,,,,,,,,,,,
,,,,,,,60579ed57a769950e21bcda2,605b45a4d25f287719a41696,605ba1e6fd35ae10ad260a20,United States,East coast,13 or older,no,2021-03-24_16h35.31.095,empathy_intonation_perc,2020.2.10,Win32,60,,,,,,,,,,1,peruvian,0,0,2.922795,0,40,40,58,1,59,./stim/wavs/andalusian_mismatch_interrogative-total-yn_El-nino-oye-el-rio.wav,./stim/wavs/argentine_mismatch_interrogative-total-yn_El-nino-oye-el-rio.wav,./stim/wavs/castilian_mismatch_interrogative-total-yn_El-nino-oye-el-rio.wav,./stim/wavs/chilean_mismatch_interrogative-total-yn_El-nino-oye-el-rio.wav,./stim/wavs/cuban_mismatch_interrogative-total-yn_El-nino-oye-el-rio.wav,./stim/wavs/mexican_mismatch_interrogative-total-yn_El-nino-oye-el-rio.wav,./stim/wavs/peruvian_mismatch_interrogative-total-yn_El-nino-oye-el-rio.wav,./stim/wavs/puertorican_mismatch_interrogative-total-yn_El-nino-oye-el-rio.wav,,,,,,,,,,,,,,,,,,,,,,,,,,,,,,,,,,,,,,,,,,,,,,,,,,,,,,,,
,,,,,,,60579ed57a769950e21bcda2,605b45a4d25f287719a41696,605ba1e6fd35ae10ad260a20,United States,East coast,13 or older,no,2021-03-24_16h35.31.095,empathy_intonation_perc,2020.2.10,Win32,60,,,,,,,,,,1,castilian,1,1,4.866425,0,41,41,29,1,30,./stim/wavs/andalusian_match_interrogative-total-yn_Maria-bebe-el-vino.wav,./stim/wavs/argentine_match_interrogative-total-yn_Maria-bebe-el-vino.wav,./stim/wavs/castilian_match_interrogative-total-yn_Maria-bebe-el-vino.wav,./stim/wavs/chilean_match_interrogative-total-yn_Maria-bebe-el-vino.wav,./stim/wavs/cuban_match_interrogative-total-yn_Maria-bebe-el-vino.wav,./stim/wavs/mexican_match_interrogative-total-yn_Maria-bebe-el-vino.wav,./stim/wavs/peruvian_match_interrogative-total-yn_Maria-bebe-el-vino.wav,./stim/wavs/puertorican_match_interrogative-total-yn_Maria-bebe-el-vino.wav,,,,,,,,,,,,,,,,,,,,,,,,,,,,,,,,,,,,,,,,,,,,,,,,,,,,,,,,
,,,,,,,60579ed57a769950e21bcda2,605b45a4d25f287719a41696,605ba1e6fd35ae10ad260a20,United States,East coast,13 or older,no,2021-03-24_16h35.31.095,empathy_intonation_perc,2020.2.10,Win32,60,,,,,,,,,,0,andalusian,0,1,2.218635,0,42,42,42,1,43,./stim/wavs/andalusian_mismatch_declarative-narrow-focus_El-nino-oye-el-rio.wav,./stim/wavs/argentine_mismatch_declarative-narrow-focus_El-nino-oye-el-rio.wav,./stim/wavs/castilian_mismatch_declarative-narrow-focus_El-nino-oye-el-rio.wav,./stim/wavs/chilean_mismatch_declarative-narrow-focus_El-nino-oye-el-rio.wav,./stim/wavs/cuban_mismatch_declarative-narrow-focus_El-nino-oye-el-rio.wav,./stim/wavs/mexican_mismatch_declarative-narrow-focus_El-nino-oye-el-rio.wav,./stim/wavs/peruvian_mismatch_declarative-narrow-focus_El-nino-oye-el-rio.wav,./stim/wavs/puertorican_mismatch_declarative-narrow-focus_El-nino-oye-el-rio.wav,,,,,,,,,,,,,,,,,,,,,,,,,,,,,,,,,,,,,,,,,,,,,,,,,,,,,,,,
,,,,,,,60579ed57a769950e21bcda2,605b45a4d25f287719a41696,605ba1e6fd35ae10ad260a20,United States,East coast,13 or older,no,2021-03-24_16h35.31.095,empathy_intonation_perc,2020.2.10,Win32,60,,,,,,,,,,1,argentine,1,1,2.910115,0,43,43,59,1,60,./stim/wavs/andalusian_mismatch_interrogative-total-yn_La-maestra-vive-en-Paris.wav,./stim/wavs/argentine_mismatch_interrogative-total-yn_La-maestra-vive-en-Paris.wav,./stim/wavs/castilian_mismatch_interrogative-total-yn_La-maestra-vive-en-Paris.wav,./stim/wavs/chilean_mismatch_interrogative-total-yn_La-maestra-vive-en-Paris.wav,./stim/wavs/cuban_mismatch_interrogative-total-yn_La-maestra-vive-en-Paris.wav,./stim/wavs/mexican_mismatch_interrogative-total-yn_La-maestra-vive-en-Paris.wav,./stim/wavs/peruvian_mismatch_interrogative-total-yn_La-maestra-vive-en-Paris.wav,./stim/wavs/puertorican_mismatch_interrogative-total-yn_La-maestra-vive-en-Paris.wav,,,,,,,,,,,,,,,,,,,,,,,,,,,,,,,,,,,,,,,,,,,,,,,,,,,,,,,,
,,,,,,,60579ed57a769950e21bcda2,605b45a4d25f287719a41696,605ba1e6fd35ae10ad260a20,United States,East coast,13 or older,no,2021-03-24_16h35.31.095,empathy_intonation_perc,2020.2.10,Win32,60,,,,,,,,,,0,castilian,0,1,2.286595,0,44,44,0,1,1,./stim/wavs/andalusian_match_declarative-broad-focus_Ana-lleva-el-abrigo.wav,./stim/wavs/argentine_match_declarative-broad-focus_Ana-lleva-el-abrigo.wav,./stim/wavs/castilian_match_declarative-broad-focus_Ana-lleva-el-abrigo.wav,./stim/wavs/chilean_match_declarative-broad-focus_Ana-lleva-el-abrigo.wav,./stim/wavs/cuban_match_declarative-broad-focus_Ana-lleva-el-abrigo.wav,./stim/wavs/mexican_match_declarative-broad-focus_Ana-lleva-el-abrigo.wav,./stim/wavs/peruvian_match_declarative-broad-focus_Ana-lleva-el-abrigo.wav,./stim/wavs/puertorican_match_declarative-broad-focus_Ana-lleva-el-abrigo.wav,,,,,,,,,,,,,,,,,,,,,,,,,,,,,,,,,,,,,,,,,,,,,,,,,,,,,,,,
,,,,,,,60579ed57a769950e21bcda2,605b45a4d25f287719a41696,605ba1e6fd35ae10ad260a20,United States,East coast,13 or older,no,2021-03-24_16h35.31.095,empathy_intonation_perc,2020.2.10,Win32,60,,,,,,,,,,0,castilian,0,1,4.179455,0,45,45,39,1,40,./stim/wavs/andalusian_mismatch_declarative-broad-focus_Mi-tia-odia-la-lluvia.wav,./stim/wavs/argentine_mismatch_declarative-broad-focus_Mi-tia-odia-la-lluvia.wav,./stim/wavs/castilian_mismatch_declarative-broad-focus_Mi-tia-odia-la-lluvia.wav,./stim/wavs/chilean_mismatch_declarative-broad-focus_Mi-tia-odia-la-lluvia.wav,./stim/wavs/cuban_mismatch_declarative-broad-focus_Mi-tia-odia-la-lluvia.wav,./stim/wavs/mexican_mismatch_declarative-broad-focus_Mi-tia-odia-la-lluvia.wav,./stim/wavs/peruvian_mismatch_declarative-broad-focus_Mi-tia-odia-la-lluvia.wav,./stim/wavs/puertorican_mismatch_declarative-broad-focus_Mi-tia-odia-la-lluvia.wav,,,,,,,,,,,,,,,,,,,,,,,,,,,,,,,,,,,,,,,,,,,,,,,,,,,,,,,,
,,,,,,,60579ed57a769950e21bcda2,605b45a4d25f287719a41696,605ba1e6fd35ae10ad260a20,United States,East coast,13 or older,no,2021-03-24_16h35.31.095,empathy_intonation_perc,2020.2.10,Win32,60,,,,,,,,,,1,cuban,1,1,2.659005,0,46,46,26,1,27,./stim/wavs/andalusian_match_interrogative-total-yn_David-leia-el-libro.wav,./stim/wavs/argentine_match_interrogative-total-yn_David-leia-el-libro.wav,./stim/wavs/castilian_match_interrogative-total-yn_David-leia-el-libro.wav,./stim/wavs/chilean_match_interrogative-total-yn_David-leia-el-libro.wav,./stim/wavs/cuban_match_interrogative-total-yn_David-leia-el-libro.wav,./stim/wavs/mexican_match_interrogative-total-yn_David-leia-el-libro.wav,./stim/wavs/peruvian_match_interrogative-total-yn_David-leia-el-libro.wav,./stim/wavs/puertorican_match_interrogative-total-yn_David-leia-el-libro.wav,,,,,,,,,,,,,,,,,,,,,,,,,,,,,,,,,,,,,,,,,,,,,,,,,,,,,,,,
,,,,,,,60579ed57a769950e21bcda2,605b45a4d25f287719a41696,605ba1e6fd35ae10ad260a20,United States,East coast,13 or older,no,2021-03-24_16h35.31.095,empathy_intonation_perc,2020.2.10,Win32,60,,,,,,,,,,1,puertorican,0,0,1.922635,0,47,47,63,1,64,./stim/wavs/andalusian_mismatch_interrogative-total-yn_Mi-tia-odia-la-lluvia.wav,./stim/wavs/argentine_mismatch_interrogative-total-yn_Mi-tia-odia-la-lluvia.wav,./stim/wavs/castilian_mismatch_interrogative-total-yn_Mi-tia-odia-la-lluvia.wav,./stim/wavs/chilean_mismatch_interrogative-total-yn_Mi-tia-odia-la-lluvia.wav,./stim/wavs/cuban_mismatch_interrogative-total-yn_Mi-tia-odia-la-lluvia.wav,./stim/wavs/mexican_mismatch_interrogative-total-yn_Mi-tia-odia-la-lluvia.wav,./stim/wavs/peruvian_mismatch_interrogative-total-yn_Mi-tia-odia-la-lluvia.wav,./stim/wavs/puertorican_mismatch_interrogative-total-yn_Mi-tia-odia-la-lluvia.wav,,,,,,,,,,,,,,,,,,,,,,,,,,,,,,,,,,,,,,,,,,,,,,,,,,,,,,,,
,,,,,,,60579ed57a769950e21bcda2,605b45a4d25f287719a41696,605ba1e6fd35ae10ad260a20,United States,East coast,13 or older,no,2021-03-24_16h35.31.095,empathy_intonation_perc,2020.2.10,Win32,60,,,,,,,,,,1,castilian,1,1,2.79982,0,48,48,17,1,18,./stim/wavs/andalusian_match_interrogative-partial-wh_Cuando-leia-el-libro.wav,./stim/wavs/argentine_match_interrogative-partial-wh_Cuando-leia-el-libro.wav,./stim/wavs/castilian_match_interrogative-partial-wh_Cuando-leia-el-libro.wav,./stim/wavs/chilean_match_interrogative-partial-wh_Cuando-leia-el-libro.wav,./stim/wavs/cuban_match_interrogative-partial-wh_Cuando-leia-el-libro.wav,./stim/wavs/mexican_match_interrogative-partial-wh_Cuando-leia-el-libro.wav,./stim/wavs/peruvian_match_interrogative-partial-wh_Cuando-leia-el-libro.wav,./stim/wavs/puertorican_match_interrogative-partial-wh_Cuando-leia-el-libro.wav,,,,,,,,,,,,,,,,,,,,,,,,,,,,,,,,,,,,,,,,,,,,,,,,,,,,,,,,
,,,,,,,60579ed57a769950e21bcda2,605b45a4d25f287719a41696,605ba1e6fd35ae10ad260a20,United States,East coast,13 or older,no,2021-03-24_16h35.31.095,empathy_intonation_perc,2020.2.10,Win32,60,,,,,,,,,,1,argentine,1,1,2.03855,0,49,49,52,1,53,./stim/wavs/andalusian_mismatch_interrogative-partial-wh_Por-que-odiaba-la-lluvia.wav,./stim/wavs/argentine_mismatch_interrogative-partial-wh_Por-que-odiaba-la-lluvia.wav,./stim/wavs/castilian_mismatch_interrogative-partial-wh_Por-que-odiaba-la-lluvia.wav,./stim/wavs/chilean_mismatch_interrogative-partial-wh_Por-que-odiaba-la-lluvia.wav,./stim/wavs/cuban_mismatch_interrogative-partial-wh_Por-que-odiaba-la-lluvia.wav,./stim/wavs/mexican_mismatch_interrogative-partial-wh_Por-que-odiaba-la-lluvia.wav,./stim/wavs/peruvian_mismatch_interrogative-partial-wh_Por-que-odiaba-la-lluvia.wav,./stim/wavs/puertorican_mismatch_interrogative-partial-wh_Por-que-odiaba-la-lluvia.wav,,,,,,,,,,,,,,,,,,,,,,,,,,,,,,,,,,,,,,,,,,,,,,,,,,,,,,,,
,,,,,,,60579ed57a769950e21bcda2,605b45a4d25f287719a41696,605ba1e6fd35ae10ad260a20,United States,East coast,13 or older,no,2021-03-24_16h35.31.095,empathy_intonation_perc,2020.2.10,Win32,60,,,,,,,,,,0,argentine,0,1,2.155895,0,50,50,14,1,15,./stim/wavs/andalusian_match_declarative-narrow-focus_Mariano-habla-del-tiempo.wav,./stim/wavs/argentine_match_declarative-narrow-focus_Mariano-habla-del-tiempo.wav,./stim/wavs/castilian_match_declarative-narrow-focus_Mariano-habla-del-tiempo.wav,./stim/wavs/chilean_match_declarative-narrow-focus_Mariano-habla-del-tiempo.wav,./stim/wavs/cuban_match_declarative-narrow-focus_Mariano-habla-del-tiempo.wav,./stim/wavs/mexican_match_declarative-narrow-focus_Mariano-habla-del-tiempo.wav,./stim/wavs/peruvian_match_declarative-narrow-focus_Mariano-habla-del-tiempo.wav,./stim/wavs/puertorican_match_declarative-narrow-focus_Mariano-habla-del-tiempo.wav,,,,,,,,,,,,,,,,,,,,,,,,,,,,,,,,,,,,,,,,,,,,,,,,,,,,,,,,
,,,,,,,60579ed57a769950e21bcda2,605b45a4d25f287719a41696,605ba1e6fd35ae10ad260a20,United States,East coast,13 or older,no,2021-03-24_16h35.31.095,empathy_intonation_perc,2020.2.10,Win32,60,,,,,,,,,,1,peruvian,0,0,2.512705,0,51,51,51,1,52,./stim/wavs/andalusian_mismatch_interrogative-partial-wh_Por-que-desayuna-muy-bien.wav,./stim/wavs/argentine_mismatch_interrogative-partial-wh_Por-que-desayuna-muy-bien.wav,./stim/wavs/castilian_mismatch_interrogative-partial-wh_Por-que-desayuna-muy-bien.wav,./stim/wavs/chilean_mismatch_interrogative-partial-wh_Por-que-desayuna-muy-bien.wav,./stim/wavs/cuban_mismatch_interrogative-partial-wh_Por-que-desayuna-muy-bien.wav,./stim/wavs/mexican_mismatch_interrogative-partial-wh_Por-que-desayuna-muy-bien.wav,./stim/wavs/peruvian_mismatch_interrogative-partial-wh_Por-que-desayuna-muy-bien.wav,./stim/wavs/puertorican_mismatch_interrogative-partial-wh_Por-que-desayuna-muy-bien.wav,,,,,,,,,,,,,,,,,,,,,,,,,,,,,,,,,,,,,,,,,,,,,,,,,,,,,,,,
,,,,,,,60579ed57a769950e21bcda2,605b45a4d25f287719a41696,605ba1e6fd35ae10ad260a20,United States,East coast,13 or older,no,2021-03-24_16h35.31.095,empathy_intonation_perc,2020.2.10,Win32,60,,,,,,,,,,1,cuban,0,0,1.74944,0,52,52,53,1,54,./stim/wavs/andalusian_mismatch_interrogative-partial-wh_Por-que-oia-el-rio.wav,./stim/wavs/argentine_mismatch_interrogative-partial-wh_Por-que-oia-el-rio.wav,./stim/wavs/castilian_mismatch_interrogative-partial-wh_Por-que-oia-el-rio.wav,./stim/wavs/chilean_mismatch_interrogative-partial-wh_Por-que-oia-el-rio.wav,./stim/wavs/cuban_mismatch_interrogative-partial-wh_Por-que-oia-el-rio.wav,./stim/wavs/mexican_mismatch_interrogative-partial-wh_Por-que-oia-el-rio.wav,./stim/wavs/peruvian_mismatch_interrogative-partial-wh_Por-que-oia-el-rio.wav,./stim/wavs/puertorican_mismatch_interrogative-partial-wh_Por-que-oia-el-rio.wav,,,,,,,,,,,,,,,,,,,,,,,,,,,,,,,,,,,,,,,,,,,,,,,,,,,,,,,,
,,,,,,,60579ed57a769950e21bcda2,605b45a4d25f287719a41696,605ba1e6fd35ae10ad260a20,United States,East coast,13 or older,no,2021-03-24_16h35.31.095,empathy_intonation_perc,2020.2.10,Win32,60,,,,,,,,,,1,andalusian,1,1,1.57801,0,53,53,54,1,55,./stim/wavs/andalusian_mismatch_interrogative-partial-wh_Por-que-venia-del-lago.wav,./stim/wavs/argentine_mismatch_interrogative-partial-wh_Por-que-venia-del-lago.wav,./stim/wavs/castilian_mismatch_interrogative-partial-wh_Por-que-venia-del-lago.wav,./stim/wavs/chilean_mismatch_interrogative-partial-wh_Por-que-venia-del-lago.wav,./stim/wavs/cuban_mismatch_interrogative-partial-wh_Por-que-venia-del-lago.wav,./stim/wavs/mexican_mismatch_interrogative-partial-wh_Por-que-venia-del-lago.wav,./stim/wavs/peruvian_mismatch_interrogative-partial-wh_Por-que-venia-del-lago.wav,./stim/wavs/puertorican_mismatch_interrogative-partial-wh_Por-que-venia-del-lago.wav,,,,,,,,,,,,,,,,,,,,,,,,,,,,,,,,,,,,,,,,,,,,,,,,,,,,,,,,
,,,,,,,60579ed57a769950e21bcda2,605b45a4d25f287719a41696,605ba1e6fd35ae10ad260a20,United States,East coast,13 or older,no,2021-03-24_16h35.31.095,empathy_intonation_perc,2020.2.10,Win32,60,,,,,,,,,,1,mexican,1,1,2.491775,0,54,54,31,1,32,./stim/wavs/andalusian_match_interrogative-total-yn_Marta-abre-el-regalo.wav,./stim/wavs/argentine_match_interrogative-total-yn_Marta-abre-el-regalo.wav,./stim/wavs/castilian_match_interrogative-total-yn_Marta-abre-el-regalo.wav,./stim/wavs/chilean_match_interrogative-total-yn_Marta-abre-el-regalo.wav,./stim/wavs/cuban_match_interrogative-total-yn_Marta-abre-el-regalo.wav,./stim/wavs/mexican_match_interrogative-total-yn_Marta-abre-el-regalo.wav,./stim/wavs/peruvian_match_interrogative-total-yn_Marta-abre-el-regalo.wav,./stim/wavs/puertorican_match_interrogative-total-yn_Marta-abre-el-regalo.wav,,,,,,,,,,,,,,,,,,,,,,,,,,,,,,,,,,,,,,,,,,,,,,,,,,,,,,,,
,,,,,,,60579ed57a769950e21bcda2,605b45a4d25f287719a41696,605ba1e6fd35ae10ad260a20,United States,East coast,13 or older,no,2021-03-24_16h35.31.095,empathy_intonation_perc,2020.2.10,Win32,60,,,,,,,,,,1,mexican,1,1,3.0042,0,55,55,30,1,31,./stim/wavs/andalusian_match_interrogative-total-yn_Mariano-habla-del-tiempo.wav,./stim/wavs/argentine_match_interrogative-total-yn_Mariano-habla-del-tiempo.wav,./stim/wavs/castilian_match_interrogative-total-yn_Mariano-habla-del-tiempo.wav,./stim/wavs/chilean_match_interrogative-total-yn_Mariano-habla-del-tiempo.wav,./stim/wavs/cuban_match_interrogative-total-yn_Mariano-habla-del-tiempo.wav,./stim/wavs/mexican_match_interrogative-total-yn_Mariano-habla-del-tiempo.wav,./stim/wavs/peruvian_match_interrogative-total-yn_Mariano-habla-del-tiempo.wav,./stim/wavs/puertorican_match_interrogative-total-yn_Mariano-habla-del-tiempo.wav,,,,,,,,,,,,,,,,,,,,,,,,,,,,,,,,,,,,,,,,,,,,,,,,,,,,,,,,
,,,,,,,60579ed57a769950e21bcda2,605b45a4d25f287719a41696,605ba1e6fd35ae10ad260a20,United States,East coast,13 or older,no,2021-03-24_16h35.31.095,empathy_intonation_perc,2020.2.10,Win32,60,,,,,,,,,,0,peruvian,0,1,2.64387,0,56,56,9,1,10,./stim/wavs/andalusian_match_declarative-narrow-focus_Daniel-iba-a-Bolivia.wav,./stim/wavs/argentine_match_declarative-narrow-focus_Daniel-iba-a-Bolivia.wav,./stim/wavs/castilian_match_declarative-narrow-focus_Daniel-iba-a-Bolivia.wav,./stim/wavs/chilean_match_declarative-narrow-focus_Daniel-iba-a-Bolivia.wav,./stim/wavs/cuban_match_declarative-narrow-focus_Daniel-iba-a-Bolivia.wav,./stim/wavs/mexican_match_declarative-narrow-focus_Daniel-iba-a-Bolivia.wav,./stim/wavs/peruvian_match_declarative-narrow-focus_Daniel-iba-a-Bolivia.wav,./stim/wavs/puertorican_match_declarative-narrow-focus_Daniel-iba-a-Bolivia.wav,,,,,,,,,,,,,,,,,,,,,,,,,,,,,,,,,,,,,,,,,,,,,,,,,,,,,,,,
,,,,,,,60579ed57a769950e21bcda2,605b45a4d25f287719a41696,605ba1e6fd35ae10ad260a20,United States,East coast,13 or older,no,2021-03-24_16h35.31.095,empathy_intonation_perc,2020.2.10,Win32,60,,,,,,,,,,0,castilian,1,0,2.48447,0,57,57,33,1,34,./stim/wavs/andalusian_mismatch_declarative-broad-focus_El-hombre-mira-la-luna.wav,./stim/wavs/argentine_mismatch_declarative-broad-focus_El-hombre-mira-la-luna.wav,./stim/wavs/castilian_mismatch_declarative-broad-focus_El-hombre-mira-la-luna.wav,./stim/wavs/chilean_mismatch_declarative-broad-focus_El-hombre-mira-la-luna.wav,./stim/wavs/cuban_mismatch_declarative-broad-focus_El-hombre-mira-la-luna.wav,./stim/wavs/mexican_mismatch_declarative-broad-focus_El-hombre-mira-la-luna.wav,./stim/wavs/peruvian_mismatch_declarative-broad-focus_El-hombre-mira-la-luna.wav,./stim/wavs/puertorican_mismatch_declarative-broad-focus_El-hombre-mira-la-luna.wav,,,,,,,,,,,,,,,,,,,,,,,,,,,,,,,,,,,,,,,,,,,,,,,,,,,,,,,,
,,,,,,,60579ed57a769950e21bcda2,605b45a4d25f287719a41696,605ba1e6fd35ae10ad260a20,United States,East coast,13 or older,no,2021-03-24_16h35.31.095,empathy_intonation_perc,2020.2.10,Win32,60,,,,,,,,,,0,cuban,0,1,2.525185,0,58,58,12,1,13,./stim/wavs/andalusian_match_declarative-narrow-focus_Manuela-vende-el-carro.wav,./stim/wavs/argentine_match_declarative-narrow-focus_Manuela-vende-el-carro.wav,./stim/wavs/castilian_match_declarative-narrow-focus_Manuela-vende-el-carro.wav,./stim/wavs/chilean_match_declarative-narrow-focus_Manuela-vende-el-carro.wav,./stim/wavs/cuban_match_declarative-narrow-focus_Manuela-vende-el-carro.wav,./stim/wavs/mexican_match_declarative-narrow-focus_Manuela-vende-el-carro.wav,./stim/wavs/peruvian_match_declarative-narrow-focus_Manuela-vende-el-carro.wav,./stim/wavs/puertorican_match_declarative-narrow-focus_Manuela-vende-el-carro.wav,,,,,,,,,,,,,,,,,,,,,,,,,,,,,,,,,,,,,,,,,,,,,,,,,,,,,,,,
,,,,,,,60579ed57a769950e21bcda2,605b45a4d25f287719a41696,605ba1e6fd35ae10ad260a20,United States,East coast,13 or older,no,2021-03-24_16h35.31.095,empathy_intonation_perc,2020.2.10,Win32,60,,,,,,,,,,1,puertorican,0,0,2.013685,0,59,59,20,1,21,./stim/wavs/andalusian_match_interrogative-partial-wh_Por-que-abre-el-regalo.wav,./stim/wavs/argentine_match_interrogative-partial-wh_Por-que-abre-el-regalo.wav,./stim/wavs/castilian_match_interrogative-partial-wh_Por-que-abre-el-regalo.wav,./stim/wavs/chilean_match_interrogative-partial-wh_Por-que-abre-el-regalo.wav,./stim/wavs/cuban_match_interrogative-partial-wh_Por-que-abre-el-regalo.wav,./stim/wavs/mexican_match_interrogative-partial-wh_Por-que-abre-el-regalo.wav,./stim/wavs/peruvian_match_interrogative-partial-wh_Por-que-abre-el-regalo.wav,./stim/wavs/puertorican_match_interrogative-partial-wh_Por-que-abre-el-regalo.wav,,,,,,,,,,,,,,,,,,,,,,,,,,,,,,,,,,,,,,,,,,,,,,,,,,,,,,,,
,,,,,,,60579ed57a769950e21bcda2,605b45a4d25f287719a41696,605ba1e6fd35ae10ad260a20,United States,East coast,13 or older,no,2021-03-24_16h35.31.095,empathy_intonation_perc,2020.2.10,Win32,60,,,,,,,,,,1,puertorican,1,1,1.536215,0,60,60,57,1,58,./stim/wavs/andalusian_mismatch_interrogative-total-yn_El-hombre-mira-la-luna.wav,./stim/wavs/argentine_mismatch_interrogative-total-yn_El-hombre-mira-la-luna.wav,./stim/wavs/castilian_mismatch_interrogative-total-yn_El-hombre-mira-la-luna.wav,./stim/wavs/chilean_mismatch_interrogative-total-yn_El-hombre-mira-la-luna.wav,./stim/wavs/cuban_mismatch_interrogative-total-yn_El-hombre-mira-la-luna.wav,./stim/wavs/mexican_mismatch_interrogative-total-yn_El-hombre-mira-la-luna.wav,./stim/wavs/peruvian_mismatch_interrogative-total-yn_El-hombre-mira-la-luna.wav,./stim/wavs/puertorican_mismatch_interrogative-total-yn_El-hombre-mira-la-luna.wav,,,,,,,,,,,,,,,,,,,,,,,,,,,,,,,,,,,,,,,,,,,,,,,,,,,,,,,,
,,,,,,,60579ed57a769950e21bcda2,605b45a4d25f287719a41696,605ba1e6fd35ae10ad260a20,United States,East coast,13 or older,no,2021-03-24_16h35.31.095,empathy_intonation_perc,2020.2.10,Win32,60,,,,,,,,,,0,cuban,0,1,2.447425,0,61,61,5,1,6,./stim/wavs/andalusian_match_declarative-broad-focus_Maria-bebe-el-vino.wav,./stim/wavs/argentine_match_declarative-broad-focus_Maria-bebe-el-vino.wav,./stim/wavs/castilian_match_declarative-broad-focus_Maria-bebe-el-vino.wav,./stim/wavs/chilean_match_declarative-broad-focus_Maria-bebe-el-vino.wav,./stim/wavs/cuban_match_declarative-broad-focus_Maria-bebe-el-vino.wav,./stim/wavs/mexican_match_declarative-broad-focus_Maria-bebe-el-vino.wav,./stim/wavs/peruvian_match_declarative-broad-focus_Maria-bebe-el-vino.wav,./stim/wavs/puertorican_match_declarative-broad-focus_Maria-bebe-el-vino.wav,,,,,,,,,,,,,,,,,,,,,,,,,,,,,,,,,,,,,,,,,,,,,,,,,,,,,,,,
,,,,,,,60579ed57a769950e21bcda2,605b45a4d25f287719a41696,605ba1e6fd35ae10ad260a20,United States,East coast,13 or older,no,2021-03-24_16h35.31.095,empathy_intonation_perc,2020.2.10,Win32,60,,,,,,,,,,1,chilean,0,0,3.37749,0,62,62,28,1,29,./stim/wavs/andalusian_match_interrogative-total-yn_Manuela-vende-el-carro.wav,./stim/wavs/argentine_match_interrogative-total-yn_Manuela-vende-el-carro.wav,./stim/wavs/castilian_match_interrogative-total-yn_Manuela-vende-el-carro.wav,./stim/wavs/chilean_match_interrogative-total-yn_Manuela-vende-el-carro.wav,./stim/wavs/cuban_match_interrogative-total-yn_Manuela-vende-el-carro.wav,./stim/wavs/mexican_match_interrogative-total-yn_Manuela-vende-el-carro.wav,./stim/wavs/peruvian_match_interrogative-total-yn_Manuela-vende-el-carro.wav,./stim/wavs/puertorican_match_interrogative-total-yn_Manuela-vende-el-carro.wav,,,,,,,,,,,,,,,,,,,,,,,,,,,,,,,,,,,,,,,,,,,,,,,,,,,,,,,,
,,,,,,,60579ed57a769950e21bcda2,605b45a4d25f287719a41696,605ba1e6fd35ae10ad260a20,United States,East coast,13 or older,no,2021-03-24_16h35.31.095,empathy_intonation_perc,2020.2.10,Win32,60,,,,,,,,,,0,puertorican,0,1,1.569585,0,63,63,3,1,4,./stim/wavs/andalusian_match_declarative-broad-focus_Emilio-ama-la-marcha.wav,./stim/wavs/argentine_match_declarative-broad-focus_Emilio-ama-la-marcha.wav,./stim/wavs/castilian_match_declarative-broad-focus_Emilio-ama-la-marcha.wav,./stim/wavs/chilean_match_declarative-broad-focus_Emilio-ama-la-marcha.wav,./stim/wavs/cuban_match_declarative-broad-focus_Emilio-ama-la-marcha.wav,./stim/wavs/mexican_match_declarative-broad-focus_Emilio-ama-la-marcha.wav,./stim/wavs/peruvian_match_declarative-broad-focus_Emilio-ama-la-marcha.wav,./stim/wavs/puertorican_match_declarative-broad-focus_Emilio-ama-la-marcha.wav,,,,,,,,,,,,,,,,,,,,,,,,,,,,,,,,,,,,,,,,,,,,,,,,,,,,,,,,
,,,,,,,60579ed57a769950e21bcda2,605b45a4d25f287719a41696,605ba1e6fd35ae10ad260a20,United States,East coast,13 or older,no,2021-03-24_16h35.31.095,empathy_intonation_perc,2020.2.10,Win32,60,,,,,,,,,,,,,,,,,,,,,,,,,,,,,h,1,4.61189,0,0,0,0,1,,,,,,,,,,,,,,,,,,,,,,,,,,,,,,,,,,,,,,,,,,,,,,,,
,,,,,"Great! Now we will move on. The next task consists of about 60 trials, in each of which you will see a string of letters. 
  
  Your task is to decide whether this is a real Spanish word or not.",(press the spacebar to continue),60579ed57a769950e21bcda2,605b45a4d25f287719a41696,605ba1e6fd35ae10ad260a20,United States,East coast,13 or older,no,2021-03-24_16h35.31.095,empathy_intonation_perc,2020.2.10,Win32,60,,,,,,,,,,,,,,,,,,,,,,,,,,,,,,,,,,,,,0,0,0,0,1,,,,,,,,,,,,,,,,,,,,,,,,,,,,,,,,,,,,,,,,,,,
,,,,,"If you think it is an existing Spanish word, you type '1' (for 'REAL'), and if you think it is not an existing Spanish word, you type '0' (for 'FAKE').",(press the spacebar to continue),60579ed57a769950e21bcda2,605b45a4d25f287719a41696,605ba1e6fd35ae10ad260a20,United States,East coast,13 or older,no,2021-03-24_16h35.31.095,empathy_intonation_perc,2020.2.10,Win32,60,,,,,,,,,,,,,,,,,,,,,,,,,,,,,,,,,,,,,0,1,1,1,1,,,,,,,,,,,,,,,,,,,,,,,,,,,,,,,,,,,,,,,,,,,
,,,,,"If you are sure that the word exists, even though you dont know its exact meaning, you may still respond '1' (REAL). 
  
  But if you are not sure if it is an existing word, you should respond '0' (FAKE).
  
  Let's do a practice round...",(press the spacebar to continue),60579ed57a769950e21bcda2,605b45a4d25f287719a41696,605ba1e6fd35ae10ad260a20,United States,East coast,13 or older,no,2021-03-24_16h35.31.095,empathy_intonation_perc,2020.2.10,Win32,60,,,,,,,,,,,,,,,,,,,,,,,,,,,,,,,,,,,,,0,2,2,2,1,,,,,,,,,,,,,,,,,,,,,,,,,,,,,,,,,,,,,,,,,,,
,,,,,,,60579ed57a769950e21bcda2,605b45a4d25f287719a41696,605ba1e6fd35ae10ad260a20,United States,East coast,13 or older,no,2021-03-24_16h35.31.095,empathy_intonation_perc,2020.2.10,Win32,60,,,,,,,,,,0,,,,,,,,,,,,,,,,,,,,,,,,,,,,,,,,1,0,3.88337,0,0,0,0,1,0,depiste,REAL,FAKE,,,,,,,,,,,,,,,,,,,,,,,,,,,,,,,
,,,,,,,60579ed57a769950e21bcda2,605b45a4d25f287719a41696,605ba1e6fd35ae10ad260a20,United States,East coast,13 or older,no,2021-03-24_16h35.31.095,empathy_intonation_perc,2020.2.10,Win32,60,,,,,,,,,,1,,,,,,,,,,,,,,,,,,,,,,,,,,,,,,,,1,1,0.943715,0,1,1,1,1,0,s,REAL,FAKE,,,,,,,,,,,,,,,,,,,,,,,,,,,,,,,
,,,,,,,60579ed57a769950e21bcda2,605b45a4d25f287719a41696,605ba1e6fd35ae10ad260a20,United States,East coast,13 or older,no,2021-03-24_16h35.31.095,empathy_intonation_perc,2020.2.10,Win32,60,,,,,,,,,,0,,,,,,,,,,,,,,,,,,,,,,,,,,,,,,,,1,0,1.69403,0,2,2,2,1,0,con,REAL,FAKE,,,,,,,,,,,,,,,,,,,,,,,,,,,,,,,
,,,,,,,60579ed57a769950e21bcda2,605b45a4d25f287719a41696,605ba1e6fd35ae10ad260a20,United States,East coast,13 or older,no,2021-03-24_16h35.31.095,empathy_intonation_perc,2020.2.10,Win32,60,,,,,,,,,,0,,,,,,,,,,,,,,,,,,,,,,,,,,,,,,,,1,0,1.056315,0,3,3,3,1,0,calpar,REAL,FAKE,,,,,,,,,,,,,,,,,,,,,,,,,,,,,,,
,,,,,,,60579ed57a769950e21bcda2,605b45a4d25f287719a41696,605ba1e6fd35ae10ad260a20,United States,East coast,13 or older,no,2021-03-24_16h35.31.095,empathy_intonation_perc,2020.2.10,Win32,60,,,,,,,,,,0,,,,,,,,,,,,,,,,,,,,,,,,,,,,,,,,1,0,1.49533,0,4,4,4,1,0,joten,REAL,FAKE,,,,,,,,,,,,,,,,,,,,,,,,,,,,,,,
,,,,,,,60579ed57a769950e21bcda2,605b45a4d25f287719a41696,605ba1e6fd35ae10ad260a20,United States,East coast,13 or older,no,2021-03-24_16h35.31.095,empathy_intonation_perc,2020.2.10,Win32,60,,,,,,,,,,1,,,,,,,,,,,,,,,,,,,,,,,,,,,,,,,,0,0,1.130745,0,5,5,5,1,0,sacapuntas,REAL,FAKE,,,,,,,,,,,,,,,,,,,,,,,,,,,,,,,
,,,,,,,60579ed57a769950e21bcda2,605b45a4d25f287719a41696,605ba1e6fd35ae10ad260a20,United States,East coast,13 or older,no,2021-03-24_16h35.31.095,empathy_intonation_perc,2020.2.10,Win32,60,,,,,,,,,,0,,,,,,,,,,,,,,,,,,,,,,,,,,,,,,,,1,0,0.666915,0,6,6,6,1,0,priba,REAL,FAKE,,,,,,,,,,,,,,,,,,,,,,,,,,,,,,,
,,,,,,,60579ed57a769950e21bcda2,605b45a4d25f287719a41696,605ba1e6fd35ae10ad260a20,United States,East coast,13 or older,no,2021-03-24_16h35.31.095,empathy_intonation_perc,2020.2.10,Win32,60,,,,,,,,,,0,,,,,,,,,,,,,,,,,,,,,,,,,,,,,,,,1,0,0.644525,0,7,7,7,1,0,pelasula,REAL,FAKE,,,,,,,,,,,,,,,,,,,,,,,,,,,,,,,
,,,,,,,60579ed57a769950e21bcda2,605b45a4d25f287719a41696,605ba1e6fd35ae10ad260a20,United States,East coast,13 or older,no,2021-03-24_16h35.31.095,empathy_intonation_perc,2020.2.10,Win32,60,,,,,,,,,,1,,,,,,,,,,,,,,,,,,,,,,,,,,,,,,,,1,1,0.634235,0,8,8,8,1,0,bien,REAL,FAKE,,,,,,,,,,,,,,,,,,,,,,,,,,,,,,,
,,,,,,,60579ed57a769950e21bcda2,605b45a4d25f287719a41696,605ba1e6fd35ae10ad260a20,United States,East coast,13 or older,no,2021-03-24_16h35.31.095,empathy_intonation_perc,2020.2.10,Win32,60,,,,,,,,,,1,,,,,,,,,,,,,,,,,,,,,,,,,,,,,,,,1,1,0.940665,0,9,9,9,1,0,casa,REAL,FAKE,,,,,,,,,,,,,,,,,,,,,,,,,,,,,,,
,,,,,,,60579ed57a769950e21bcda2,605b45a4d25f287719a41696,605ba1e6fd35ae10ad260a20,United States,East coast,13 or older,no,2021-03-24_16h35.31.095,empathy_intonation_perc,2020.2.10,Win32,60,,,,,,,,,,0,,,,,,,,,,,,,,,,,,,,,,,,,,,,,,,,1,0,0.81966,0,10,10,10,1,0,lejo,REAL,FAKE,,,,,,,,,,,,,,,,,,,,,,,,,,,,,,,
,,,,,,,60579ed57a769950e21bcda2,605b45a4d25f287719a41696,605ba1e6fd35ae10ad260a20,United States,East coast,13 or older,no,2021-03-24_16h35.31.095,empathy_intonation_perc,2020.2.10,Win32,60,,,,,,,,,,0,,,,,,,,,,,,,,,,,,,,,,,,,,,,,,,,1,0,0.987005,0,11,11,11,1,0,pretantas,REAL,FAKE,,,,,,,,,,,,,,,,,,,,,,,,,,,,,,,
,,,,,,,60579ed57a769950e21bcda2,605b45a4d25f287719a41696,605ba1e6fd35ae10ad260a20,United States,East coast,13 or older,no,2021-03-24_16h35.31.095,empathy_intonation_perc,2020.2.10,Win32,60,,,,,,,,,,1,,,,,,,,,,,,,,,,,,,,,,,,,,,,,,,,,,,,,,,,54,fomentar,,,1,1,1.59324,0,0,0,53,1,REAL,FAKE,,,,,,,,,,,,,,,,,,,,,
,,,,,,,60579ed57a769950e21bcda2,605b45a4d25f287719a41696,605ba1e6fd35ae10ad260a20,United States,East coast,13 or older,no,2021-03-24_16h35.31.095,empathy_intonation_perc,2020.2.10,Win32,60,,,,,,,,,,0,,,,,,,,,,,,,,,,,,,,,,,,,,,,,,,,,,,,,,,,84,escuto,,,1,0,2.257,0,1,1,83,1,REAL,FAKE,,,,,,,,,,,,,,,,,,,,,
,,,,,,,60579ed57a769950e21bcda2,605b45a4d25f287719a41696,605ba1e6fd35ae10ad260a20,United States,East coast,13 or older,no,2021-03-24_16h35.31.095,empathy_intonation_perc,2020.2.10,Win32,60,,,,,,,,,,1,,,,,,,,,,,,,,,,,,,,,,,,,,,,,,,,,,,,,,,,57,tacao,,,1,1,1.63509,0,2,2,56,1,REAL,FAKE,,,,,,,,,,,,,,,,,,,,,
,,,,,,,60579ed57a769950e21bcda2,605b45a4d25f287719a41696,605ba1e6fd35ae10ad260a20,United States,East coast,13 or older,no,2021-03-24_16h35.31.095,empathy_intonation_perc,2020.2.10,Win32,60,,,,,,,,,,1,,,,,,,,,,,,,,,,,,,,,,,,,,,,,,,,,,,,,,,,24,ltigo,,,1,1,1.650985,0,3,3,23,1,REAL,FAKE,,,,,,,,,,,,,,,,,,,,,
,,,,,,,60579ed57a769950e21bcda2,605b45a4d25f287719a41696,605ba1e6fd35ae10ad260a20,United States,East coast,13 or older,no,2021-03-24_16h35.31.095,empathy_intonation_perc,2020.2.10,Win32,60,,,,,,,,,,1,,,,,,,,,,,,,,,,,,,,,,,,,,,,,,,,,,,,,,,,39,torpe,,,0,0,0.893685,0,4,4,38,1,REAL,FAKE,,,,,,,,,,,,,,,,,,,,,
,,,,,,,60579ed57a769950e21bcda2,605b45a4d25f287719a41696,605ba1e6fd35ae10ad260a20,United States,East coast,13 or older,no,2021-03-24_16h35.31.095,empathy_intonation_perc,2020.2.10,Win32,60,,,,,,,,,,0,,,,,,,,,,,,,,,,,,,,,,,,,,,,,,,,,,,,,,,,70,temblo,,,0,1,1.092705,0,5,5,69,1,REAL,FAKE,,,,,,,,,,,,,,,,,,,,,
,,,,,,,60579ed57a769950e21bcda2,605b45a4d25f287719a41696,605ba1e6fd35ae10ad260a20,United States,East coast,13 or older,no,2021-03-24_16h35.31.095,empathy_intonation_perc,2020.2.10,Win32,60,,,,,,,,,,1,,,,,,,,,,,,,,,,,,,,,,,,,,,,,,,,,,,,,,,,83,guante,,,1,1,2.012415,0,6,6,82,1,REAL,FAKE,,,,,,,,,,,,,,,,,,,,,
,,,,,,,60579ed57a769950e21bcda2,605b45a4d25f287719a41696,605ba1e6fd35ae10ad260a20,United States,East coast,13 or older,no,2021-03-24_16h35.31.095,empathy_intonation_perc,2020.2.10,Win32,60,,,,,,,,,,1,,,,,,,,,,,,,,,,,,,,,,,,,,,,,,,,,,,,,,,,86,barato,,,1,1,0.854915,0,7,7,85,1,REAL,FAKE,,,,,,,,,,,,,,,,,,,,,
,,,,,,,60579ed57a769950e21bcda2,605b45a4d25f287719a41696,605ba1e6fd35ae10ad260a20,United States,East coast,13 or older,no,2021-03-24_16h35.31.095,empathy_intonation_perc,2020.2.10,Win32,60,,,,,,,,,,1,,,,,,,,,,,,,,,,,,,,,,,,,,,,,,,,,,,,,,,,2,pellizcar,,,0,0,2.5212,0,8,8,1,1,REAL,FAKE,,,,,,,,,,,,,,,,,,,,,
,,,,,,,60579ed57a769950e21bcda2,605b45a4d25f287719a41696,605ba1e6fd35ae10ad260a20,United States,East coast,13 or older,no,2021-03-24_16h35.31.095,empathy_intonation_perc,2020.2.10,Win32,60,,,,,,,,,,0,,,,,,,,,,,,,,,,,,,,,,,,,,,,,,,,,,,,,,,,53,vegada,,,1,0,4.187955,0,9,9,52,1,REAL,FAKE,,,,,,,,,,,,,,,,,,,,,
,,,,,,,60579ed57a769950e21bcda2,605b45a4d25f287719a41696,605ba1e6fd35ae10ad260a20,United States,East coast,13 or older,no,2021-03-24_16h35.31.095,empathy_intonation_perc,2020.2.10,Win32,60,,,,,,,,,,1,,,,,,,,,,,,,,,,,,,,,,,,,,,,,,,,,,,,,,,,15,regar,,,1,1,0.74303,0,10,10,14,1,REAL,FAKE,,,,,,,,,,,,,,,,,,,,,
,,,,,,,60579ed57a769950e21bcda2,605b45a4d25f287719a41696,605ba1e6fd35ae10ad260a20,United States,East coast,13 or older,no,2021-03-24_16h35.31.095,empathy_intonation_perc,2020.2.10,Win32,60,,,,,,,,,,1,,,,,,,,,,,,,,,,,,,,,,,,,,,,,,,,,,,,,,,,26,secuestro,,,1,1,2.45305,0,11,11,25,1,REAL,FAKE,,,,,,,,,,,,,,,,,,,,,
,,,,,,,60579ed57a769950e21bcda2,605b45a4d25f287719a41696,605ba1e6fd35ae10ad260a20,United States,East coast,13 or older,no,2021-03-24_16h35.31.095,empathy_intonation_perc,2020.2.10,Win32,60,,,,,,,,,,1,,,,,,,,,,,,,,,,,,,,,,,,,,,,,,,,,,,,,,,,45,jilguero,,,0,0,0.968145,0,12,12,44,1,REAL,FAKE,,,,,,,,,,,,,,,,,,,,,
,,,,,,,60579ed57a769950e21bcda2,605b45a4d25f287719a41696,605ba1e6fd35ae10ad260a20,United States,East coast,13 or older,no,2021-03-24_16h35.31.095,empathy_intonation_perc,2020.2.10,Win32,60,,,,,,,,,,0,,,,,,,,,,,,,,,,,,,,,,,,,,,,,,,,,,,,,,,,19,brecedad,,,0,1,1.148045,0,13,13,18,1,REAL,FAKE,,,,,,,,,,,,,,,,,,,,,
,,,,,,,60579ed57a769950e21bcda2,605b45a4d25f287719a41696,605ba1e6fd35ae10ad260a20,United States,East coast,13 or older,no,2021-03-24_16h35.31.095,empathy_intonation_perc,2020.2.10,Win32,60,,,,,,,,,,0,,,,,,,,,,,,,,,,,,,,,,,,,,,,,,,,,,,,,,,,58,plaudir,,,0,1,3.208615,0,14,14,57,1,REAL,FAKE,,,,,,,,,,,,,,,,,,,,,
,,,,,,,60579ed57a769950e21bcda2,605b45a4d25f287719a41696,605ba1e6fd35ae10ad260a20,United States,East coast,13 or older,no,2021-03-24_16h35.31.095,empathy_intonation_perc,2020.2.10,Win32,60,,,,,,,,,,0,,,,,,,,,,,,,,,,,,,,,,,,,,,,,,,,,,,,,,,,74,cintro,,,1,0,1.563615,0,15,15,73,1,REAL,FAKE,,,,,,,,,,,,,,,,,,,,,
,,,,,,,60579ed57a769950e21bcda2,605b45a4d25f287719a41696,605ba1e6fd35ae10ad260a20,United States,East coast,13 or older,no,2021-03-24_16h35.31.095,empathy_intonation_perc,2020.2.10,Win32,60,,,,,,,,,,1,,,,,,,,,,,,,,,,,,,,,,,,,,,,,,,,,,,,,,,,20,vido,,,1,1,2.667075,0,16,16,19,1,REAL,FAKE,,,,,,,,,,,,,,,,,,,,,
,,,,,,,60579ed57a769950e21bcda2,605b45a4d25f287719a41696,605ba1e6fd35ae10ad260a20,United States,East coast,13 or older,no,2021-03-24_16h35.31.095,empathy_intonation_perc,2020.2.10,Win32,60,,,,,,,,,,1,,,,,,,,,,,,,,,,,,,,,,,,,,,,,,,,,,,,,,,,56,musgo,,,0,0,0.745735,0,17,17,55,1,REAL,FAKE,,,,,,,,,,,,,,,,,,,,,
,,,,,,,60579ed57a769950e21bcda2,605b45a4d25f287719a41696,605ba1e6fd35ae10ad260a20,United States,East coast,13 or older,no,2021-03-24_16h35.31.095,empathy_intonation_perc,2020.2.10,Win32,60,,,,,,,,,,1,,,,,,,,,,,,,,,,,,,,,,,,,,,,,,,,,,,,,,,,40,alfombra,,,1,1,4.08076,0,18,18,39,1,REAL,FAKE,,,,,,,,,,,,,,,,,,,,,
,,,,,,,60579ed57a769950e21bcda2,605b45a4d25f287719a41696,605ba1e6fd35ae10ad260a20,United States,East coast,13 or older,no,2021-03-24_16h35.31.095,empathy_intonation_perc,2020.2.10,Win32,60,,,,,,,,,,1,,,,,,,,,,,,,,,,,,,,,,,,,,,,,,,,,,,,,,,,25,bisagra,,,0,0,1.985475,0,19,19,24,1,REAL,FAKE,,,,,,,,,,,,,,,,,,,,,
,,,,,,,60579ed57a769950e21bcda2,605b45a4d25f287719a41696,605ba1e6fd35ae10ad260a20,United States,East coast,13 or older,no,2021-03-24_16h35.31.095,empathy_intonation_perc,2020.2.10,Win32,60,,,,,,,,,,0,,,,,,,,,,,,,,,,,,,,,,,,,,,,,,,,,,,,,,,,32,fatacidad,,,0,1,3.11452,0,20,20,31,1,REAL,FAKE,,,,,,,,,,,,,,,,,,,,,
,,,,,,,60579ed57a769950e21bcda2,605b45a4d25f287719a41696,605ba1e6fd35ae10ad260a20,United States,East coast,13 or older,no,2021-03-24_16h35.31.095,empathy_intonation_perc,2020.2.10,Win32,60,,,,,,,,,,1,,,,,,,,,,,,,,,,,,,,,,,,,,,,,,,,,,,,,,,,80,hormiga,,,1,1,1.237925,0,21,21,79,1,REAL,FAKE,,,,,,,,,,,,,,,,,,,,,
,,,,,,,60579ed57a769950e21bcda2,605b45a4d25f287719a41696,605ba1e6fd35ae10ad260a20,United States,East coast,13 or older,no,2021-03-24_16h35.31.095,empathy_intonation_perc,2020.2.10,Win32,60,,,,,,,,,,1,,,,,,,,,,,,,,,,,,,,,,,,,,,,,,,,,,,,,,,,3,pulmones,,,1,1,1.00123,0,22,22,2,1,REAL,FAKE,,,,,,,,,,,,,,,,,,,,,
,,,,,,,60579ed57a769950e21bcda2,605b45a4d25f287719a41696,605ba1e6fd35ae10ad260a20,United States,East coast,13 or older,no,2021-03-24_16h35.31.095,empathy_intonation_perc,2020.2.10,Win32,60,,,,,,,,,,1,,,,,,,,,,,,,,,,,,,,,,,,,,,,,,,,,,,,,,,,22,lacayo,,,0,0,0.794985,0,23,23,21,1,REAL,FAKE,,,,,,,,,,,,,,,,,,,,,
,,,,,,,60579ed57a769950e21bcda2,605b45a4d25f287719a41696,605ba1e6fd35ae10ad260a20,United States,East coast,13 or older,no,2021-03-24_16h35.31.095,empathy_intonation_perc,2020.2.10,Win32,60,,,,,,,,,,1,,,,,,,,,,,,,,,,,,,,,,,,,,,,,,,,,,,,,,,,48,ladrn,,,1,1,0.91269,0,24,24,47,1,REAL,FAKE,,,,,,,,,,,,,,,,,,,,,
,,,,,,,60579ed57a769950e21bcda2,605b45a4d25f287719a41696,605ba1e6fd35ae10ad260a20,United States,East coast,13 or older,no,2021-03-24_16h35.31.095,empathy_intonation_perc,2020.2.10,Win32,60,,,,,,,,,,0,,,,,,,,,,,,,,,,,,,,,,,,,,,,,,,,,,,,,,,,29,decar,,,0,1,1.45565,0,25,25,28,1,REAL,FAKE,,,,,,,,,,,,,,,,,,,,,
,,,,,,,60579ed57a769950e21bcda2,605b45a4d25f287719a41696,605ba1e6fd35ae10ad260a20,United States,East coast,13 or older,no,2021-03-24_16h35.31.095,empathy_intonation_perc,2020.2.10,Win32,60,,,,,,,,,,0,,,,,,,,,,,,,,,,,,,,,,,,,,,,,,,,,,,,,,,,8,cadea,,,0,1,1.859295,0,26,26,7,1,REAL,FAKE,,,,,,,,,,,,,,,,,,,,,
,,,,,,,60579ed57a769950e21bcda2,605b45a4d25f287719a41696,605ba1e6fd35ae10ad260a20,United States,East coast,13 or older,no,2021-03-24_16h35.31.095,empathy_intonation_perc,2020.2.10,Win32,60,,,,,,,,,,0,,,,,,,,,,,,,,,,,,,,,,,,,,,,,,,,,,,,,,,,27,acutacin,,,1,0,1.498545,0,27,27,26,1,REAL,FAKE,,,,,,,,,,,,,,,,,,,,,
,,,,,,,60579ed57a769950e21bcda2,605b45a4d25f287719a41696,605ba1e6fd35ae10ad260a20,United States,East coast,13 or older,no,2021-03-24_16h35.31.095,empathy_intonation_perc,2020.2.10,Win32,60,,,,,,,,,,1,,,,,,,,,,,,,,,,,,,,,,,,,,,,,,,,,,,,,,,,61,seda,,,0,0,0.993235,0,28,28,60,1,REAL,FAKE,,,,,,,,,,,,,,,,,,,,,
,,,,,,,60579ed57a769950e21bcda2,605b45a4d25f287719a41696,605ba1e6fd35ae10ad260a20,United States,East coast,13 or older,no,2021-03-24_16h35.31.095,empathy_intonation_perc,2020.2.10,Win32,60,,,,,,,,,,1,,,,,,,,,,,,,,,,,,,,,,,,,,,,,,,,,,,,,,,,7,psimo,,,1,1,0.80007,0,29,29,6,1,REAL,FAKE,,,,,,,,,,,,,,,,,,,,,
,,,,,,,60579ed57a769950e21bcda2,605b45a4d25f287719a41696,605ba1e6fd35ae10ad260a20,United States,East coast,13 or older,no,2021-03-24_16h35.31.095,empathy_intonation_perc,2020.2.10,Win32,60,,,,,,,,,,1,,,,,,,,,,,,,,,,,,,,,,,,,,,,,,,,,,,,,,,,37,granuja,,,0,0,1.074475,0,30,30,36,1,REAL,FAKE,,,,,,,,,,,,,,,,,,,,,
,,,,,,,60579ed57a769950e21bcda2,605b45a4d25f287719a41696,605ba1e6fd35ae10ad260a20,United States,East coast,13 or older,no,2021-03-24_16h35.31.095,empathy_intonation_perc,2020.2.10,Win32,60,,,,,,,,,,1,,,,,,,,,,,,,,,,,,,,,,,,,,,,,,,,,,,,,,,,38,estornudar,,,0,0,3.55035,0,31,31,37,1,REAL,FAKE,,,,,,,,,,,,,,,,,,,,,
,,,,,,,60579ed57a769950e21bcda2,605b45a4d25f287719a41696,605ba1e6fd35ae10ad260a20,United States,East coast,13 or older,no,2021-03-24_16h35.31.095,empathy_intonation_perc,2020.2.10,Win32,60,,,,,,,,,,0,,,,,,,,,,,,,,,,,,,,,,,,,,,,,,,,,,,,,,,,63,esposante,,,0,1,1.908475,0,32,32,62,1,REAL,FAKE,,,,,,,,,,,,,,,,,,,,,
,,,,,,,60579ed57a769950e21bcda2,605b45a4d25f287719a41696,605ba1e6fd35ae10ad260a20,United States,East coast,13 or older,no,2021-03-24_16h35.31.095,empathy_intonation_perc,2020.2.10,Win32,60,,,,,,,,,,1,,,,,,,,,,,,,,,,,,,,,,,,,,,,,,,,,,,,,,,,52,camisa,,,1,1,1.05383,0,33,33,51,1,REAL,FAKE,,,,,,,,,,,,,,,,,,,,,
,,,,,,,60579ed57a769950e21bcda2,605b45a4d25f287719a41696,605ba1e6fd35ae10ad260a20,United States,East coast,13 or older,no,2021-03-24_16h35.31.095,empathy_intonation_perc,2020.2.10,Win32,60,,,,,,,,,,0,,,,,,,,,,,,,,,,,,,,,,,,,,,,,,,,,,,,,,,,47,cartinar,,,0,1,2.298545,0,34,34,46,1,REAL,FAKE,,,,,,,,,,,,,,,,,,,,,
,,,,,,,60579ed57a769950e21bcda2,605b45a4d25f287719a41696,605ba1e6fd35ae10ad260a20,United States,East coast,13 or older,no,2021-03-24_16h35.31.095,empathy_intonation_perc,2020.2.10,Win32,60,,,,,,,,,,1,,,,,,,,,,,,,,,,,,,,,,,,,,,,,,,,,,,,,,,,88,acantilado,,,1,1,1.48284,0,35,35,87,1,REAL,FAKE,,,,,,,,,,,,,,,,,,,,,
,,,,,,,60579ed57a769950e21bcda2,605b45a4d25f287719a41696,605ba1e6fd35ae10ad260a20,United States,East coast,13 or older,no,2021-03-24_16h35.31.095,empathy_intonation_perc,2020.2.10,Win32,60,,,,,,,,,,1,,,,,,,,,,,,,,,,,,,,,,,,,,,,,,,,,,,,,,,,75,yacer,,,0,0,0.816975,0,36,36,74,1,REAL,FAKE,,,,,,,,,,,,,,,,,,,,,
,,,,,,,60579ed57a769950e21bcda2,605b45a4d25f287719a41696,605ba1e6fd35ae10ad260a20,United States,East coast,13 or older,no,2021-03-24_16h35.31.095,empathy_intonation_perc,2020.2.10,Win32,60,,,,,,,,,,1,,,,,,,,,,,,,,,,,,,,,,,,,,,,,,,,,,,,,,,,64,orgulloso,,,1,1,1.59053,0,37,37,63,1,REAL,FAKE,,,,,,,,,,,,,,,,,,,,,
,,,,,,,60579ed57a769950e21bcda2,605b45a4d25f287719a41696,605ba1e6fd35ae10ad260a20,United States,East coast,13 or older,no,2021-03-24_16h35.31.095,empathy_intonation_perc,2020.2.10,Win32,60,,,,,,,,,,1,,,,,,,,,,,,,,,,,,,,,,,,,,,,,,,,,,,,,,,,89,prisa,,,0,0,0.964685,0,38,38,88,1,REAL,FAKE,,,,,,,,,,,,,,,,,,,,,
,,,,,,,60579ed57a769950e21bcda2,605b45a4d25f287719a41696,605ba1e6fd35ae10ad260a20,United States,East coast,13 or older,no,2021-03-24_16h35.31.095,empathy_intonation_perc,2020.2.10,Win32,60,,,,,,,,,,1,,,,,,,,,,,,,,,,,,,,,,,,,,,,,,,,,,,,,,,,55,nevar,,,0,0,1.13961,0,39,39,54,1,REAL,FAKE,,,,,,,,,,,,,,,,,,,,,
,,,,,,,60579ed57a769950e21bcda2,605b45a4d25f287719a41696,605ba1e6fd35ae10ad260a20,United States,East coast,13 or older,no,2021-03-24_16h35.31.095,empathy_intonation_perc,2020.2.10,Win32,60,,,,,,,,,,1,,,,,,,,,,,,,,,,,,,,,,,,,,,,,,,,,,,,,,,,34,aviso,,,0,0,1.035925,0,40,40,33,1,REAL,FAKE,,,,,,,,,,,,,,,,,,,,,
,,,,,,,60579ed57a769950e21bcda2,605b45a4d25f287719a41696,605ba1e6fd35ae10ad260a20,United States,East coast,13 or older,no,2021-03-24_16h35.31.095,empathy_intonation_perc,2020.2.10,Win32,60,,,,,,,,,,1,,,,,,,,,,,,,,,,,,,,,,,,,,,,,,,,,,,,,,,,62,flaco,,,1,1,1.078665,0,41,41,61,1,REAL,FAKE,,,,,,,,,,,,,,,,,,,,,
,,,,,,,60579ed57a769950e21bcda2,605b45a4d25f287719a41696,605ba1e6fd35ae10ad260a20,United States,East coast,13 or older,no,2021-03-24_16h35.31.095,empathy_intonation_perc,2020.2.10,Win32,60,,,,,,,,,,1,,,,,,,,,,,,,,,,,,,,,,,,,,,,,,,,,,,,,,,,46,martillo,,,0,0,1.19294,0,42,42,45,1,REAL,FAKE,,,,,,,,,,,,,,,,,,,,,
,,,,,,,60579ed57a769950e21bcda2,605b45a4d25f287719a41696,605ba1e6fd35ae10ad260a20,United States,East coast,13 or older,no,2021-03-24_16h35.31.095,empathy_intonation_perc,2020.2.10,Win32,60,,,,,,,,,,0,,,,,,,,,,,,,,,,,,,,,,,,,,,,,,,,,,,,,,,,23,lampera,,,1,0,0.754245,0,43,43,22,1,REAL,FAKE,,,,,,,,,,,,,,,,,,,,,
,,,,,,,60579ed57a769950e21bcda2,605b45a4d25f287719a41696,605ba1e6fd35ae10ad260a20,United States,East coast,13 or older,no,2021-03-24_16h35.31.095,empathy_intonation_perc,2020.2.10,Win32,60,,,,,,,,,,0,,,,,,,,,,,,,,,,,,,,,,,,,,,,,,,,,,,,,,,,17,floroso,,,1,0,0.814535,0,44,44,16,1,REAL,FAKE,,,,,,,,,,,,,,,,,,,,,
,,,,,,,60579ed57a769950e21bcda2,605b45a4d25f287719a41696,605ba1e6fd35ae10ad260a20,United States,East coast,13 or older,no,2021-03-24_16h35.31.095,empathy_intonation_perc,2020.2.10,Win32,60,,,,,,,,,,0,,,,,,,,,,,,,,,,,,,,,,,,,,,,,,,,,,,,,,,,1,terzo,,,0,1,0.74488,0,45,45,0,1,REAL,FAKE,,,,,,,,,,,,,,,,,,,,,
,,,,,,,60579ed57a769950e21bcda2,605b45a4d25f287719a41696,605ba1e6fd35ae10ad260a20,United States,East coast,13 or older,no,2021-03-24_16h35.31.095,empathy_intonation_perc,2020.2.10,Win32,60,,,,,,,,,,0,,,,,,,,,,,,,,,,,,,,,,,,,,,,,,,,,,,,,,,,82,empirador,,,0,1,6.932785,0,46,46,81,1,REAL,FAKE,,,,,,,,,,,,,,,,,,,,,
,,,,,,,60579ed57a769950e21bcda2,605b45a4d25f287719a41696,605ba1e6fd35ae10ad260a20,United States,East coast,13 or older,no,2021-03-24_16h35.31.095,empathy_intonation_perc,2020.2.10,Win32,60,,,,,,,,,,1,,,,,,,,,,,,,,,,,,,,,,,,,,,,,,,,,,,,,,,,31,pandilla,,,1,1,0.85544,0,47,47,30,1,REAL,FAKE,,,,,,,,,,,,,,,,,,,,,
,,,,,,,60579ed57a769950e21bcda2,605b45a4d25f287719a41696,605ba1e6fd35ae10ad260a20,United States,East coast,13 or older,no,2021-03-24_16h35.31.095,empathy_intonation_perc,2020.2.10,Win32,60,,,,,,,,,,0,,,,,,,,,,,,,,,,,,,,,,,,,,,,,,,,,,,,,,,,87,grodo,,,0,1,0.84811,0,48,48,86,1,REAL,FAKE,,,,,,,,,,,,,,,,,,,,,
,,,,,,,60579ed57a769950e21bcda2,605b45a4d25f287719a41696,605ba1e6fd35ae10ad260a20,United States,East coast,13 or older,no,2021-03-24_16h35.31.095,empathy_intonation_perc,2020.2.10,Win32,60,,,,,,,,,,1,,,,,,,,,,,,,,,,,,,,,,,,,,,,,,,,,,,,,,,,9,hacha,,,1,1,0.71634,0,49,49,8,1,REAL,FAKE,,,,,,,,,,,,,,,,,,,,,
,,,,,,,60579ed57a769950e21bcda2,605b45a4d25f287719a41696,605ba1e6fd35ae10ad260a20,United States,East coast,13 or older,no,2021-03-24_16h35.31.095,empathy_intonation_perc,2020.2.10,Win32,60,,,,,,,,,,1,,,,,,,,,,,,,,,,,,,,,,,,,,,,,,,,,,,,,,,,68,alegre,,,1,1,0.950785,0,50,50,67,1,REAL,FAKE,,,,,,,,,,,,,,,,,,,,,
,,,,,,,60579ed57a769950e21bcda2,605b45a4d25f287719a41696,605ba1e6fd35ae10ad260a20,United States,East coast,13 or older,no,2021-03-24_16h35.31.095,empathy_intonation_perc,2020.2.10,Win32,60,,,,,,,,,,1,,,,,,,,,,,,,,,,,,,,,,,,,,,,,,,,,,,,,,,,85,lad,,,0,0,0.94961,0,51,51,84,1,REAL,FAKE,,,,,,,,,,,,,,,,,,,,,
,,,,,,,60579ed57a769950e21bcda2,605b45a4d25f287719a41696,605ba1e6fd35ae10ad260a20,United States,East coast,13 or older,no,2021-03-24_16h35.31.095,empathy_intonation_perc,2020.2.10,Win32,60,,,,,,,,,,1,,,,,,,,,,,,,,,,,,,,,,,,,,,,,,,,,,,,,,,,69,engatusar,,,1,1,1.42093,0,52,52,68,1,REAL,FAKE,,,,,,,,,,,,,,,,,,,,,
,,,,,,,60579ed57a769950e21bcda2,605b45a4d25f287719a41696,605ba1e6fd35ae10ad260a20,United States,East coast,13 or older,no,2021-03-24_16h35.31.095,empathy_intonation_perc,2020.2.10,Win32,60,,,,,,,,,,0,,,,,,,,,,,,,,,,,,,,,,,,,,,,,,,,,,,,,,,,4,batilln,,,0,1,0.9546,0,53,53,3,1,REAL,FAKE,,,,,,,,,,,,,,,,,,,,,
,,,,,,,60579ed57a769950e21bcda2,605b45a4d25f287719a41696,605ba1e6fd35ae10ad260a20,United States,East coast,13 or older,no,2021-03-24_16h35.31.095,empathy_intonation_perc,2020.2.10,Win32,60,,,,,,,,,,1,,,,,,,,,,,,,,,,,,,,,,,,,,,,,,,,,,,,,,,,77,tiburn,,,1,1,0.769265,0,54,54,76,1,REAL,FAKE,,,,,,,,,,,,,,,,,,,,,
,,,,,,,60579ed57a769950e21bcda2,605b45a4d25f287719a41696,605ba1e6fd35ae10ad260a20,United States,East coast,13 or older,no,2021-03-24_16h35.31.095,empathy_intonation_perc,2020.2.10,Win32,60,,,,,,,,,,1,,,,,,,,,,,,,,,,,,,,,,,,,,,,,,,,,,,,,,,,13,helar,,,0,0,0.568555,0,55,55,12,1,REAL,FAKE,,,,,,,,,,,,,,,,,,,,,
,,,,,,,60579ed57a769950e21bcda2,605b45a4d25f287719a41696,605ba1e6fd35ae10ad260a20,United States,East coast,13 or older,no,2021-03-24_16h35.31.095,empathy_intonation_perc,2020.2.10,Win32,60,,,,,,,,,,1,,,,,,,,,,,,,,,,,,,,,,,,,,,,,,,,,,,,,,,,6,tergiversar,,,0,0,0.933425,0,56,56,5,1,REAL,FAKE,,,,,,,,,,,,,,,,,,,,,
,,,,,,,60579ed57a769950e21bcda2,605b45a4d25f287719a41696,605ba1e6fd35ae10ad260a20,United States,East coast,13 or older,no,2021-03-24_16h35.31.095,empathy_intonation_perc,2020.2.10,Win32,60,,,,,,,,,,1,,,,,,,,,,,,,,,,,,,,,,,,,,,,,,,,,,,,,,,,14,yunque,,,0,0,1.070525,0,57,57,13,1,REAL,FAKE,,,,,,,,,,,,,,,,,,,,,
,,,,,,,60579ed57a769950e21bcda2,605b45a4d25f287719a41696,605ba1e6fd35ae10ad260a20,United States,East coast,13 or older,no,2021-03-24_16h35.31.095,empathy_intonation_perc,2020.2.10,Win32,60,,,,,,,,,,0,,,,,,,,,,,,,,,,,,,,,,,,,,,,,,,,,,,,,,,,21,capillo,,,1,0,0.805665,0,58,58,20,1,REAL,FAKE,,,,,,,,,,,,,,,,,,,,,
,,,,,,,60579ed57a769950e21bcda2,605b45a4d25f287719a41696,605ba1e6fd35ae10ad260a20,United States,East coast,13 or older,no,2021-03-24_16h35.31.095,empathy_intonation_perc,2020.2.10,Win32,60,,,,,,,,,,1,,,,,,,,,,,,,,,,,,,,,,,,,,,,,,,,,,,,,,,,81,pozo,,,0,0,0.74305,0,59,59,80,1,REAL,FAKE,,,,,,,,,,,,,,,,,,,,,
,,,,,,,60579ed57a769950e21bcda2,605b45a4d25f287719a41696,605ba1e6fd35ae10ad260a20,United States,East coast,13 or older,no,2021-03-24_16h35.31.095,empathy_intonation_perc,2020.2.10,Win32,60,,,,,,,,,,0,,,,,,,,,,,,,,,,,,,,,,,,,,,,,,,,,,,,,,,,33,pauca,,,0,1,0.97496,0,60,60,32,1,REAL,FAKE,,,,,,,,,,,,,,,,,,,,,
,,,,,,,60579ed57a769950e21bcda2,605b45a4d25f287719a41696,605ba1e6fd35ae10ad260a20,United States,East coast,13 or older,no,2021-03-24_16h35.31.095,empathy_intonation_perc,2020.2.10,Win32,60,,,,,,,,,,1,,,,,,,,,,,,,,,,,,,,,,,,,,,,,,,,,,,,,,,,60,matar,,,1,1,0.870745,0,61,61,59,1,REAL,FAKE,,,,,,,,,,,,,,,,,,,,,
,,,,,,,60579ed57a769950e21bcda2,605b45a4d25f287719a41696,605ba1e6fd35ae10ad260a20,United States,East coast,13 or older,no,2021-03-24_16h35.31.095,empathy_intonation_perc,2020.2.10,Win32,60,,,,,,,,,,1,,,,,,,,,,,,,,,,,,,,,,,,,,,,,,,,,,,,,,,,12,asesinato,,,1,1,1.354275,0,62,62,11,1,REAL,FAKE,,,,,,,,,,,,,,,,,,,,,
,,,,,,,60579ed57a769950e21bcda2,605b45a4d25f287719a41696,605ba1e6fd35ae10ad260a20,United States,East coast,13 or older,no,2021-03-24_16h35.31.095,empathy_intonation_perc,2020.2.10,Win32,60,,,,,,,,,,0,,,,,,,,,,,,,,,,,,,,,,,,,,,,,,,,,,,,,,,,42,cadallo,,,0,1,0.768955,0,63,63,41,1,REAL,FAKE,,,,,,,,,,,,,,,,,,,,,
,,,,,,,60579ed57a769950e21bcda2,605b45a4d25f287719a41696,605ba1e6fd35ae10ad260a20,United States,East coast,13 or older,no,2021-03-24_16h35.31.095,empathy_intonation_perc,2020.2.10,Win32,60,,,,,,,,,,1,,,,,,,,,,,,,,,,,,,,,,,,,,,,,,,,,,,,,,,,59,besar,,,0,0,1.183,0,64,64,58,1,REAL,FAKE,,,,,,,,,,,,,,,,,,,,,
,,,,,,,60579ed57a769950e21bcda2,605b45a4d25f287719a41696,605ba1e6fd35ae10ad260a20,United States,East coast,13 or older,no,2021-03-24_16h35.31.095,empathy_intonation_perc,2020.2.10,Win32,60,,,,,,,,,,1,,,,,,,,,,,,,,,,,,,,,,,,,,,,,,,,,,,,,,,,71,polvoriento,,,0,0,2.357895,0,65,65,70,1,REAL,FAKE,,,,,,,,,,,,,,,,,,,,,
,,,,,,,60579ed57a769950e21bcda2,605b45a4d25f287719a41696,605ba1e6fd35ae10ad260a20,United States,East coast,13 or older,no,2021-03-24_16h35.31.095,empathy_intonation_perc,2020.2.10,Win32,60,,,,,,,,,,1,,,,,,,,,,,,,,,,,,,,,,,,,,,,,,,,,,,,,,,,36,loro,,,0,0,0.765635,0,66,66,35,1,REAL,FAKE,,,,,,,,,,,,,,,,,,,,,
,,,,,,,60579ed57a769950e21bcda2,605b45a4d25f287719a41696,605ba1e6fd35ae10ad260a20,United States,East coast,13 or older,no,2021-03-24_16h35.31.095,empathy_intonation_perc,2020.2.10,Win32,60,,,,,,,,,,1,,,,,,,,,,,,,,,,,,,,,,,,,,,,,,,,,,,,,,,,5,zapato,,,1,1,0.63287,0,67,67,4,1,REAL,FAKE,,,,,,,,,,,,,,,,,,,,,
,,,,,,,60579ed57a769950e21bcda2,605b45a4d25f287719a41696,605ba1e6fd35ae10ad260a20,United States,East coast,13 or older,no,2021-03-24_16h35.31.095,empathy_intonation_perc,2020.2.10,Win32,60,,,,,,,,,,0,,,,,,,,,,,,,,,,,,,,,,,,,,,,,,,,,,,,,,,,79,tropaje,,,1,0,0.94591,0,68,68,78,1,REAL,FAKE,,,,,,,,,,,,,,,,,,,,,
,,,,,,,60579ed57a769950e21bcda2,605b45a4d25f287719a41696,605ba1e6fd35ae10ad260a20,United States,East coast,13 or older,no,2021-03-24_16h35.31.095,empathy_intonation_perc,2020.2.10,Win32,60,,,,,,,,,,1,,,,,,,,,,,,,,,,,,,,,,,,,,,,,,,,,,,,,,,,44,cuchara,,,1,1,2.01639,0,69,69,43,1,REAL,FAKE,,,,,,,,,,,,,,,,,,,,,
,,,,,,,60579ed57a769950e21bcda2,605b45a4d25f287719a41696,605ba1e6fd35ae10ad260a20,United States,East coast,13 or older,no,2021-03-24_16h35.31.095,empathy_intonation_perc,2020.2.10,Win32,60,,,,,,,,,,0,,,,,,,,,,,,,,,,,,,,,,,,,,,,,,,,,,,,,,,,66,hacido,,,0,1,0.918515,0,70,70,65,1,REAL,FAKE,,,,,,,,,,,,,,,,,,,,,
,,,,,,,60579ed57a769950e21bcda2,605b45a4d25f287719a41696,605ba1e6fd35ae10ad260a20,United States,East coast,13 or older,no,2021-03-24_16h35.31.095,empathy_intonation_perc,2020.2.10,Win32,60,,,,,,,,,,1,,,,,,,,,,,,,,,,,,,,,,,,,,,,,,,,,,,,,,,,28,merodear,,,0,0,1.324735,0,71,71,27,1,REAL,FAKE,,,,,,,,,,,,,,,,,,,,,
,,,,,,,60579ed57a769950e21bcda2,605b45a4d25f287719a41696,605ba1e6fd35ae10ad260a20,United States,East coast,13 or older,no,2021-03-24_16h35.31.095,empathy_intonation_perc,2020.2.10,Win32,60,,,,,,,,,,1,,,,,,,,,,,,,,,,,,,,,,,,,,,,,,,,,,,,,,,,90,clavel,,,0,0,1.390305,0,72,72,89,1,REAL,FAKE,,,,,,,,,,,,,,,,,,,,,
,,,,,,,60579ed57a769950e21bcda2,605b45a4d25f287719a41696,605ba1e6fd35ae10ad260a20,United States,East coast,13 or older,no,2021-03-24_16h35.31.095,empathy_intonation_perc,2020.2.10,Win32,60,,,,,,,,,,1,,,,,,,,,,,,,,,,,,,,,,,,,,,,,,,,,,,,,,,,65,bizcocho,,,1,1,1.691065,0,73,73,64,1,REAL,FAKE,,,,,,,,,,,,,,,,,,,,,
,,,,,,,60579ed57a769950e21bcda2,605b45a4d25f287719a41696,605ba1e6fd35ae10ad260a20,United States,East coast,13 or older,no,2021-03-24_16h35.31.095,empathy_intonation_perc,2020.2.10,Win32,60,,,,,,,,,,0,,,,,,,,,,,,,,,,,,,,,,,,,,,,,,,,,,,,,,,,18,arsa,,,0,1,1.06787,0,74,74,17,1,REAL,FAKE,,,,,,,,,,,,,,,,,,,,,
,,,,,,,60579ed57a769950e21bcda2,605b45a4d25f287719a41696,605ba1e6fd35ae10ad260a20,United States,East coast,13 or older,no,2021-03-24_16h35.31.095,empathy_intonation_perc,2020.2.10,Win32,60,,,,,,,,,,1,,,,,,,,,,,,,,,,,,,,,,,,,,,,,,,,,,,,,,,,41,rebuscar,,,1,1,0.797165,0,75,75,40,1,REAL,FAKE,,,,,,,,,,,,,,,,,,,,,
,,,,,,,60579ed57a769950e21bcda2,605b45a4d25f287719a41696,605ba1e6fd35ae10ad260a20,United States,East coast,13 or older,no,2021-03-24_16h35.31.095,empathy_intonation_perc,2020.2.10,Win32,60,,,,,,,,,,1,,,,,,,,,,,,,,,,,,,,,,,,,,,,,,,,,,,,,,,,73,hervidor,,,0,0,1.1439,0,76,76,72,1,REAL,FAKE,,,,,,,,,,,,,,,,,,,,,
,,,,,,,60579ed57a769950e21bcda2,605b45a4d25f287719a41696,605ba1e6fd35ae10ad260a20,United States,East coast,13 or older,no,2021-03-24_16h35.31.095,empathy_intonation_perc,2020.2.10,Win32,60,,,,,,,,,,0,,,,,,,,,,,,,,,,,,,,,,,,,,,,,,,,,,,,,,,,50,flamida,,,1,0,0.724785,0,77,77,49,1,REAL,FAKE,,,,,,,,,,,,,,,,,,,,,
,,,,,,,60579ed57a769950e21bcda2,605b45a4d25f287719a41696,605ba1e6fd35ae10ad260a20,United States,East coast,13 or older,no,2021-03-24_16h35.31.095,empathy_intonation_perc,2020.2.10,Win32,60,,,,,,,,,,1,,,,,,,,,,,,,,,,,,,,,,,,,,,,,,,,,,,,,,,,43,canela,,,1,1,1.03619,0,78,78,42,1,REAL,FAKE,,,,,,,,,,,,,,,,,,,,,
,,,,,,,60579ed57a769950e21bcda2,605b45a4d25f287719a41696,605ba1e6fd35ae10ad260a20,United States,East coast,13 or older,no,2021-03-24_16h35.31.095,empathy_intonation_perc,2020.2.10,Win32,60,,,,,,,,,,0,,,,,,,,,,,,,,,,,,,,,,,,,,,,,,,,,,,,,,,,16,abracer,,,0,1,0.72702,0,79,79,15,1,REAL,FAKE,,,,,,,,,,,,,,,,,,,,,
,,,,,,,60579ed57a769950e21bcda2,605b45a4d25f287719a41696,605ba1e6fd35ae10ad260a20,United States,East coast,13 or older,no,2021-03-24_16h35.31.095,empathy_intonation_perc,2020.2.10,Win32,60,,,,,,,,,,1,,,,,,,,,,,,,,,,,,,,,,,,,,,,,,,,,,,,,,,,76,atar,,,1,1,0.611945,0,80,80,75,1,REAL,FAKE,,,,,,,,,,,,,,,,,,,,,
,,,,,,,60579ed57a769950e21bcda2,605b45a4d25f287719a41696,605ba1e6fd35ae10ad260a20,United States,East coast,13 or older,no,2021-03-24_16h35.31.095,empathy_intonation_perc,2020.2.10,Win32,60,,,,,,,,,,1,,,,,,,,,,,,,,,,,,,,,,,,,,,,,,,,,,,,,,,,78,frondoso,,,0,0,0.60117,0,81,81,77,1,REAL,FAKE,,,,,,,,,,,,,,,,,,,,,
,,,,,,,60579ed57a769950e21bcda2,605b45a4d25f287719a41696,605ba1e6fd35ae10ad260a20,United States,East coast,13 or older,no,2021-03-24_16h35.31.095,empathy_intonation_perc,2020.2.10,Win32,60,,,,,,,,,,1,,,,,,,,,,,,,,,,,,,,,,,,,,,,,,,,,,,,,,,,51,candado,,,0,0,1.45393,0,82,82,50,1,REAL,FAKE,,,,,,,,,,,,,,,,,,,,,
,,,,,,,60579ed57a769950e21bcda2,605b45a4d25f287719a41696,605ba1e6fd35ae10ad260a20,United States,East coast,13 or older,no,2021-03-24_16h35.31.095,empathy_intonation_perc,2020.2.10,Win32,60,,,,,,,,,,1,,,,,,,,,,,,,,,,,,,,,,,,,,,,,,,,,,,,,,,,49,ganar,,,0,0,0.79032,0,83,83,48,1,REAL,FAKE,,,,,,,,,,,,,,,,,,,,,
,,,,,,,60579ed57a769950e21bcda2,605b45a4d25f287719a41696,605ba1e6fd35ae10ad260a20,United States,East coast,13 or older,no,2021-03-24_16h35.31.095,empathy_intonation_perc,2020.2.10,Win32,60,,,,,,,,,,0,,,,,,,,,,,,,,,,,,,,,,,,,,,,,,,,,,,,,,,,30,alardio,,,0,1,0.80735,0,84,84,29,1,REAL,FAKE,,,,,,,,,,,,,,,,,,,,,
,,,,,,,60579ed57a769950e21bcda2,605b45a4d25f287719a41696,605ba1e6fd35ae10ad260a20,United States,East coast,13 or older,no,2021-03-24_16h35.31.095,empathy_intonation_perc,2020.2.10,Win32,60,,,,,,,,,,0,,,,,,,,,,,,,,,,,,,,,,,,,,,,,,,,,,,,,,,,10,antar,,,1,0,0.86242,0,85,85,9,1,REAL,FAKE,,,,,,,,,,,,,,,,,,,,,
,,,,,,,60579ed57a769950e21bcda2,605b45a4d25f287719a41696,605ba1e6fd35ae10ad260a20,United States,East coast,13 or older,no,2021-03-24_16h35.31.095,empathy_intonation_perc,2020.2.10,Win32,60,,,,,,,,,,1,,,,,,,,,,,,,,,,,,,,,,,,,,,,,,,,,,,,,,,,67,cabello,,,1,1,1.02133,0,86,86,66,1,REAL,FAKE,,,,,,,,,,,,,,,,,,,,,
,,,,,,,60579ed57a769950e21bcda2,605b45a4d25f287719a41696,605ba1e6fd35ae10ad260a20,United States,East coast,13 or older,no,2021-03-24_16h35.31.095,empathy_intonation_perc,2020.2.10,Win32,60,,,,,,,,,,1,,,,,,,,,,,,,,,,,,,,,,,,,,,,,,,,,,,,,,,,11,cenefa,,,0,0,0.82955,0,87,87,10,1,REAL,FAKE,,,,,,,,,,,,,,,,,,,,,
,,,,,,,60579ed57a769950e21bcda2,605b45a4d25f287719a41696,605ba1e6fd35ae10ad260a20,United States,East coast,13 or older,no,2021-03-24_16h35.31.095,empathy_intonation_perc,2020.2.10,Win32,60,,,,,,,,,,0,,,,,,,,,,,,,,,,,,,,,,,,,,,,,,,,,,,,,,,,35,rompido,,,1,0,1.03482,0,88,88,34,1,REAL,FAKE,,,,,,,,,,,,,,,,,,,,,
,,,,,,,60579ed57a769950e21bcda2,605b45a4d25f287719a41696,605ba1e6fd35ae10ad260a20,United States,East coast,13 or older,no,2021-03-24_16h35.31.095,empathy_intonation_perc,2020.2.10,Win32,60,,,,,,,,,,0,,,,,,,,,,,,,,,,,,,,,,,,,,,,,,,,,,,,,,,,72,pemicin,,,1,0,1.9858,0,89,89,71,1,REAL,FAKE,,,,,,,,,,,,,,,,,,,,,
,,,,,,,60579ed57a769950e21bcda2,605b45a4d25f287719a41696,605ba1e6fd35ae10ad260a20,United States,East coast,13 or older,no,2021-03-24_16h35.31.095,empathy_intonation_perc,2020.2.10,Win32,60,,,,,,,,,,,,,,,,,,,,,,,,,,,,,,,,,,,,,,,,,,,,,,,,,,,,,,,,,,,,,,,,4,1,3.471985,1,0,0,0,0,0,1,,,,,,,,,,,
,,,,,,,60579ed57a769950e21bcda2,605b45a4d25f287719a41696,605ba1e6fd35ae10ad260a20,United States,East coast,13 or older,no,2021-03-24_16h35.31.095,empathy_intonation_perc,2020.2.10,Win32,60,,,,,,,,,,,,,,,,,,,,1,,,,,,,,,,,,,,,,,,,,,,,,,,,,,,,,,,,,,,,,,,,,,,,,,,,,,,2,0,0,0,0,1,I can easily tell if someone else wants to enter a conversation.,1,0,1,0
,,,,,,,60579ed57a769950e21bcda2,605b45a4d25f287719a41696,605ba1e6fd35ae10ad260a20,United States,East coast,13 or older,no,2021-03-24_16h35.31.095,empathy_intonation_perc,2020.2.10,Win32,60,,,,,,,,,,,,,,,,,,,,2,,,,,,,,,,,,,,,,,,,,,,,,,,,,,,,,,,,,,,,,,,,,,,,,,,,,,,1,0,1,1,1,1,I prefer animals to humans.,0,1,0,0
,,,,,,,60579ed57a769950e21bcda2,605b45a4d25f287719a41696,605ba1e6fd35ae10ad260a20,United States,East coast,13 or older,no,2021-03-24_16h35.31.095,empathy_intonation_perc,2020.2.10,Win32,60,,,,,,,,,,,,,,,,,,,,3,,,,,,,,,,,,,,,,,,,,,,,,,,,,,,,,,,,,,,,,,,,,,,,,,,,,,,4,0,2,2,2,1,I try to keep up with the current trends and fashions.,0,1,0,0
