instructions_2afc_loop.thisRepN,instructions_2afc_loop.thisTrialN,instructions_2afc_loop.thisN,instructions_2afc_loop.thisIndex,instructions_2afc_loop.ran,instructions_text,continue_text,participant,study_id,session,I am most familiar with Spanish from...*,What part of the US are you from?*,At what age did you begin learning Spanish?*,Are you proficient in any languages other than English/Spanish?*,date,expName,psychopyVersion,OS,frameRate,key_resp_2afc_practice.keys,key_resp_2afc_practice.corr,key_resp_2afc_practice.rt,trials_2afc_practice_loop.thisRepN,trials_2afc_practice_loop.thisTrialN,trials_2afc_practice_loop.thisN,trials_2afc_practice_loop.thisIndex,trials_2afc_practice_loop.ran,path,correct_response,the_col,key_resp_2afc_trial.keys,key_resp_2afc_trial.corr,key_resp_2afc_trial.rt,trials_2afc_loop.thisRepN,trials_2afc_loop.thisTrialN,trials_2afc_loop.thisN,trials_2afc_loop.thisIndex,trials_2afc_loop.ran,item_num,andalusian,argentine,castilian,chilean,cuban,mexican,peruvian,puertorican,key_resp_ac1.keys,key_resp_ac1.corr,key_resp_ac1.rt,ac1_loop.thisRepN,ac1_loop.thisTrialN,ac1_loop.thisN,ac1_loop.thisIndex,ac1_loop.ran,instructions_lextale_loop.thisRepN,instructions_lextale_loop.thisTrialN,instructions_lextale_loop.thisN,instructions_lextale_loop.thisIndex,instructions_lextale_loop.ran,key_resp_lextale_practice.keys,key_resp_lextale_practice.corr,key_resp_lextale_practice.rt,trials_lextale_practice_loop.thisRepN,trials_lextale_practice_loop.thisTrialN,trials_lextale_practice_loop.thisN,trials_lextale_practice_loop.thisIndex,trials_lextale_practice_loop.ran,stim,word,prac_button_real,prac_button_false,key_resp_lextale_trial.keys,key_resp_lextale_trial.corr,key_resp_lextale_trial.rt,trials_lextale_loop.thisRepN,trials_lextale_loop.thisTrialN,trials_lextale_loop.thisN,trials_lextale_loop.thisIndex,trials_lextale_loop.ran,button_real,button_false,key_resp_ac2.keys,key_resp_ac2.corr,key_resp_ac2.rt,check_pass,check_fails,ac2_loop.thisRepN,ac2_loop.thisTrialN,ac2_loop.thisN,ac2_loop.thisIndex,ac2_loop.ran,slider_eq_trial.response,trials_eq_loop.thisRepN,trials_eq_loop.thisTrialN,trials_eq_loop.thisN,trials_eq_loop.thisIndex,trials_eq_loop.ran,item,is_test_item,is_distractor,is_agree_score,is_disagree_score
0,0,0,0,1,"In the following task you are going to hear a series of utterances. 

  You will decide if the utterances sound like questions or not using your keyboard.",(press the spacebar to continue),605796ef0a4b32599655c385,605b45a4d25f287719a41696,605baa3c8b9160854b9da221,Puerto Rico,East coast,13 or older,no,2021-03-24_17h08.57.413,empathy_intonation_perc,2020.2.10,Linux x86_64,60,,,,,,,,,,,,,,,,,,,,,,,,,,,,,,,,,,,,,,,,,,,,,,,,,,,,,,,,,,,,,,,,,,,,,,,,,,,,,,,,,,,,
0,1,1,1,1,"If you believe the utterance is a question, type '1' (for 'yes') and if you do not 
  believe it is a question type '0' (for 'no').

  Let's practice a bit...",(press the spacebar to continue),605796ef0a4b32599655c385,605b45a4d25f287719a41696,605baa3c8b9160854b9da221,Puerto Rico,East coast,13 or older,no,2021-03-24_17h08.57.413,empathy_intonation_perc,2020.2.10,Linux x86_64,60,,,,,,,,,,,,,,,,,,,,,,,,,,,,,,,,,,,,,,,,,,,,,,,,,,,,,,,,,,,,,,,,,,,,,,,,,,,,,,,,,,,,
,,,,,,,605796ef0a4b32599655c385,605b45a4d25f287719a41696,605baa3c8b9160854b9da221,Puerto Rico,East coast,13 or older,no,2021-03-24_17h08.57.413,empathy_intonation_perc,2020.2.10,Linux x86_64,60,1,1,1.918665,0,0,0,2,1,./stim/wavs/chilean_question_filler_Mi-padre-cantaba-bien.wav,1,,,,,,,,,,,,,,,,,,,,,,,,,,,,,,,,,,,,,,,,,,,,,,,,,,,,,,,,,,,,,,,,,,,,,,,,,,
,,,,,,,605796ef0a4b32599655c385,605b45a4d25f287719a41696,605baa3c8b9160854b9da221,Puerto Rico,East coast,13 or older,no,2021-03-24_17h08.57.413,empathy_intonation_perc,2020.2.10,Linux x86_64,60,1,1,2.062555,0,1,1,3,1,./stim/wavs/mexican_question_filler_Felipe-no-tiene-contrasena.wav,1,,,,,,,,,,,,,,,,,,,,,,,,,,,,,,,,,,,,,,,,,,,,,,,,,,,,,,,,,,,,,,,,,,,,,,,,,,
,,,,,,,605796ef0a4b32599655c385,605b45a4d25f287719a41696,605baa3c8b9160854b9da221,Puerto Rico,East coast,13 or older,no,2021-03-24_17h08.57.413,empathy_intonation_perc,2020.2.10,Linux x86_64,60,0,1,2.18648,0,2,2,7,1,./stim/wavs/puertorican_statement_filler_La-nina-pinta-con-su-amiga.wav,0,,,,,,,,,,,,,,,,,,,,,,,,,,,,,,,,,,,,,,,,,,,,,,,,,,,,,,,,,,,,,,,,,,,,,,,,,,
,,,,,,,605796ef0a4b32599655c385,605b45a4d25f287719a41696,605baa3c8b9160854b9da221,Puerto Rico,East coast,13 or older,no,2021-03-24_17h08.57.413,empathy_intonation_perc,2020.2.10,Linux x86_64,60,0,0,2.170545,0,3,3,1,1,./stim/wavs/argentine_question_filler_Mi-vecino-habla-mucho.wav,1,,,,,,,,,,,,,,,,,,,,,,,,,,,,,,,,,,,,,,,,,,,,,,,,,,,,,,,,,,,,,,,,,,,,,,,,,,
,,,,,,,605796ef0a4b32599655c385,605b45a4d25f287719a41696,605baa3c8b9160854b9da221,Puerto Rico,East coast,13 or older,no,2021-03-24_17h08.57.413,empathy_intonation_perc,2020.2.10,Linux x86_64,60,0,1,2.41523,0,4,4,6,1,./stim/wavs/peruvian_statement_filler_El-nino-habla-con-su-madre.wav,0,,,,,,,,,,,,,,,,,,,,,,,,,,,,,,,,,,,,,,,,,,,,,,,,,,,,,,,,,,,,,,,,,,,,,,,,,,
,,,,,,,605796ef0a4b32599655c385,605b45a4d25f287719a41696,605baa3c8b9160854b9da221,Puerto Rico,East coast,13 or older,no,2021-03-24_17h08.57.413,empathy_intonation_perc,2020.2.10,Linux x86_64,60,0,1,2.241045,0,5,5,4,1,./stim/wavs/cuban_statement_filler_Cocinabas-por-la-noche.wav,0,,,,,,,,,,,,,,,,,,,,,,,,,,,,,,,,,,,,,,,,,,,,,,,,,,,,,,,,,,,,,,,,,,,,,,,,,,
,,,,,,,605796ef0a4b32599655c385,605b45a4d25f287719a41696,605baa3c8b9160854b9da221,Puerto Rico,East coast,13 or older,no,2021-03-24_17h08.57.413,empathy_intonation_perc,2020.2.10,Linux x86_64,60,0,1,2.04416,0,6,6,5,1,./stim/wavs/andalusian_statement_filler_Alberto-nunca-se-afeita.wav,0,,,,,,,,,,,,,,,,,,,,,,,,,,,,,,,,,,,,,,,,,,,,,,,,,,,,,,,,,,,,,,,,,,,,,,,,,,
,,,,,,,605796ef0a4b32599655c385,605b45a4d25f287719a41696,605baa3c8b9160854b9da221,Puerto Rico,East coast,13 or older,no,2021-03-24_17h08.57.413,empathy_intonation_perc,2020.2.10,Linux x86_64,60,1,1,2.156255,0,7,7,0,1,./stim/wavs/castilian_question_filler_Mi-esposo-conoce-al-chico.wav,1,,,,,,,,,,,,,,,,,,,,,,,,,,,,,,,,,,,,,,,,,,,,,,,,,,,,,,,,,,,,,,,,,,,,,,,,,,
,,,,,,,605796ef0a4b32599655c385,605b45a4d25f287719a41696,605baa3c8b9160854b9da221,Puerto Rico,East coast,13 or older,no,2021-03-24_17h08.57.413,empathy_intonation_perc,2020.2.10,Linux x86_64,60,,,,,,,,,,0,argentine,0,1,1.881545,0,0,0,36,1,37,./stim/wavs/andalusian_mismatch_declarative-broad-focus_La-nina-lava-el-plato.wav,./stim/wavs/argentine_mismatch_declarative-broad-focus_La-nina-lava-el-plato.wav,./stim/wavs/castilian_mismatch_declarative-broad-focus_La-nina-lava-el-plato.wav,./stim/wavs/chilean_mismatch_declarative-broad-focus_La-nina-lava-el-plato.wav,./stim/wavs/cuban_mismatch_declarative-broad-focus_La-nina-lava-el-plato.wav,./stim/wavs/mexican_mismatch_declarative-broad-focus_La-nina-lava-el-plato.wav,./stim/wavs/peruvian_mismatch_declarative-broad-focus_La-nina-lava-el-plato.wav,./stim/wavs/puertorican_mismatch_declarative-broad-focus_La-nina-lava-el-plato.wav,,,,,,,,,,,,,,,,,,,,,,,,,,,,,,,,,,,,,,,,,,,,,,,,,,,,,,,,
,,,,,,,605796ef0a4b32599655c385,605b45a4d25f287719a41696,605baa3c8b9160854b9da221,Puerto Rico,East coast,13 or older,no,2021-03-24_17h08.57.413,empathy_intonation_perc,2020.2.10,Linux x86_64,60,,,,,,,,,,0,chilean,0,1,1.86705,0,1,1,40,1,41,./stim/wavs/andalusian_mismatch_declarative-narrow-focus_El-bebe-comia-muy-bien.wav,./stim/wavs/argentine_mismatch_declarative-narrow-focus_El-bebe-comia-muy-bien.wav,./stim/wavs/castilian_mismatch_declarative-narrow-focus_El-bebe-comia-muy-bien.wav,./stim/wavs/chilean_mismatch_declarative-narrow-focus_El-bebe-comia-muy-bien.wav,./stim/wavs/cuban_mismatch_declarative-narrow-focus_El-bebe-comia-muy-bien.wav,./stim/wavs/mexican_mismatch_declarative-narrow-focus_El-bebe-comia-muy-bien.wav,./stim/wavs/peruvian_mismatch_declarative-narrow-focus_El-bebe-comia-muy-bien.wav,./stim/wavs/puertorican_mismatch_declarative-narrow-focus_El-bebe-comia-muy-bien.wav,,,,,,,,,,,,,,,,,,,,,,,,,,,,,,,,,,,,,,,,,,,,,,,,,,,,,,,,
,,,,,,,605796ef0a4b32599655c385,605b45a4d25f287719a41696,605baa3c8b9160854b9da221,Puerto Rico,East coast,13 or older,no,2021-03-24_17h08.57.413,empathy_intonation_perc,2020.2.10,Linux x86_64,60,,,,,,,,,,1,castilian,1,1,1.73835,0,2,2,17,1,18,./stim/wavs/andalusian_match_interrogative-partial-wh_Cuando-leia-el-libro.wav,./stim/wavs/argentine_match_interrogative-partial-wh_Cuando-leia-el-libro.wav,./stim/wavs/castilian_match_interrogative-partial-wh_Cuando-leia-el-libro.wav,./stim/wavs/chilean_match_interrogative-partial-wh_Cuando-leia-el-libro.wav,./stim/wavs/cuban_match_interrogative-partial-wh_Cuando-leia-el-libro.wav,./stim/wavs/mexican_match_interrogative-partial-wh_Cuando-leia-el-libro.wav,./stim/wavs/peruvian_match_interrogative-partial-wh_Cuando-leia-el-libro.wav,./stim/wavs/puertorican_match_interrogative-partial-wh_Cuando-leia-el-libro.wav,,,,,,,,,,,,,,,,,,,,,,,,,,,,,,,,,,,,,,,,,,,,,,,,,,,,,,,,
,,,,,,,605796ef0a4b32599655c385,605b45a4d25f287719a41696,605baa3c8b9160854b9da221,Puerto Rico,East coast,13 or older,no,2021-03-24_17h08.57.413,empathy_intonation_perc,2020.2.10,Linux x86_64,60,,,,,,,,,,0,cuban,0,1,1.874575,0,3,3,6,1,7,./stim/wavs/andalusian_match_declarative-broad-focus_Mariano-habla-del-tiempo.wav,./stim/wavs/argentine_match_declarative-broad-focus_Mariano-habla-del-tiempo.wav,./stim/wavs/castilian_match_declarative-broad-focus_Mariano-habla-del-tiempo.wav,./stim/wavs/chilean_match_declarative-broad-focus_Mariano-habla-del-tiempo.wav,./stim/wavs/cuban_match_declarative-broad-focus_Mariano-habla-del-tiempo.wav,./stim/wavs/mexican_match_declarative-broad-focus_Mariano-habla-del-tiempo.wav,./stim/wavs/peruvian_match_declarative-broad-focus_Mariano-habla-del-tiempo.wav,./stim/wavs/puertorican_match_declarative-broad-focus_Mariano-habla-del-tiempo.wav,,,,,,,,,,,,,,,,,,,,,,,,,,,,,,,,,,,,,,,,,,,,,,,,,,,,,,,,
,,,,,,,605796ef0a4b32599655c385,605b45a4d25f287719a41696,605baa3c8b9160854b9da221,Puerto Rico,East coast,13 or older,no,2021-03-24_17h08.57.413,empathy_intonation_perc,2020.2.10,Linux x86_64,60,,,,,,,,,,0,cuban,0,1,1.525175,0,4,4,33,1,34,./stim/wavs/andalusian_mismatch_declarative-broad-focus_El-hombre-mira-la-luna.wav,./stim/wavs/argentine_mismatch_declarative-broad-focus_El-hombre-mira-la-luna.wav,./stim/wavs/castilian_mismatch_declarative-broad-focus_El-hombre-mira-la-luna.wav,./stim/wavs/chilean_mismatch_declarative-broad-focus_El-hombre-mira-la-luna.wav,./stim/wavs/cuban_mismatch_declarative-broad-focus_El-hombre-mira-la-luna.wav,./stim/wavs/mexican_mismatch_declarative-broad-focus_El-hombre-mira-la-luna.wav,./stim/wavs/peruvian_mismatch_declarative-broad-focus_El-hombre-mira-la-luna.wav,./stim/wavs/puertorican_mismatch_declarative-broad-focus_El-hombre-mira-la-luna.wav,,,,,,,,,,,,,,,,,,,,,,,,,,,,,,,,,,,,,,,,,,,,,,,,,,,,,,,,
,,,,,,,605796ef0a4b32599655c385,605b45a4d25f287719a41696,605baa3c8b9160854b9da221,Puerto Rico,East coast,13 or older,no,2021-03-24_17h08.57.413,empathy_intonation_perc,2020.2.10,Linux x86_64,60,,,,,,,,,,0,argentine,0,1,1.75288,0,5,5,44,1,45,./stim/wavs/andalusian_mismatch_declarative-narrow-focus_La-nina-lava-el-plato.wav,./stim/wavs/argentine_mismatch_declarative-narrow-focus_La-nina-lava-el-plato.wav,./stim/wavs/castilian_mismatch_declarative-narrow-focus_La-nina-lava-el-plato.wav,./stim/wavs/chilean_mismatch_declarative-narrow-focus_La-nina-lava-el-plato.wav,./stim/wavs/cuban_mismatch_declarative-narrow-focus_La-nina-lava-el-plato.wav,./stim/wavs/mexican_mismatch_declarative-narrow-focus_La-nina-lava-el-plato.wav,./stim/wavs/peruvian_mismatch_declarative-narrow-focus_La-nina-lava-el-plato.wav,./stim/wavs/puertorican_mismatch_declarative-narrow-focus_La-nina-lava-el-plato.wav,,,,,,,,,,,,,,,,,,,,,,,,,,,,,,,,,,,,,,,,,,,,,,,,,,,,,,,,
,,,,,,,605796ef0a4b32599655c385,605b45a4d25f287719a41696,605baa3c8b9160854b9da221,Puerto Rico,East coast,13 or older,no,2021-03-24_17h08.57.413,empathy_intonation_perc,2020.2.10,Linux x86_64,60,,,,,,,,,,1,castilian,1,1,1.907255,0,6,6,63,1,64,./stim/wavs/andalusian_mismatch_interrogative-total-yn_Mi-tia-odia-la-lluvia.wav,./stim/wavs/argentine_mismatch_interrogative-total-yn_Mi-tia-odia-la-lluvia.wav,./stim/wavs/castilian_mismatch_interrogative-total-yn_Mi-tia-odia-la-lluvia.wav,./stim/wavs/chilean_mismatch_interrogative-total-yn_Mi-tia-odia-la-lluvia.wav,./stim/wavs/cuban_mismatch_interrogative-total-yn_Mi-tia-odia-la-lluvia.wav,./stim/wavs/mexican_mismatch_interrogative-total-yn_Mi-tia-odia-la-lluvia.wav,./stim/wavs/peruvian_mismatch_interrogative-total-yn_Mi-tia-odia-la-lluvia.wav,./stim/wavs/puertorican_mismatch_interrogative-total-yn_Mi-tia-odia-la-lluvia.wav,,,,,,,,,,,,,,,,,,,,,,,,,,,,,,,,,,,,,,,,,,,,,,,,,,,,,,,,
,,,,,,,605796ef0a4b32599655c385,605b45a4d25f287719a41696,605baa3c8b9160854b9da221,Puerto Rico,East coast,13 or older,no,2021-03-24_17h08.57.413,empathy_intonation_perc,2020.2.10,Linux x86_64,60,,,,,,,,,,0,cuban,0,1,2.11178,0,7,7,1,1,2,./stim/wavs/andalusian_match_declarative-broad-focus_Daniel-iba-a-Bolivia.wav,./stim/wavs/argentine_match_declarative-broad-focus_Daniel-iba-a-Bolivia.wav,./stim/wavs/castilian_match_declarative-broad-focus_Daniel-iba-a-Bolivia.wav,./stim/wavs/chilean_match_declarative-broad-focus_Daniel-iba-a-Bolivia.wav,./stim/wavs/cuban_match_declarative-broad-focus_Daniel-iba-a-Bolivia.wav,./stim/wavs/mexican_match_declarative-broad-focus_Daniel-iba-a-Bolivia.wav,./stim/wavs/peruvian_match_declarative-broad-focus_Daniel-iba-a-Bolivia.wav,./stim/wavs/puertorican_match_declarative-broad-focus_Daniel-iba-a-Bolivia.wav,,,,,,,,,,,,,,,,,,,,,,,,,,,,,,,,,,,,,,,,,,,,,,,,,,,,,,,,
,,,,,,,605796ef0a4b32599655c385,605b45a4d25f287719a41696,605baa3c8b9160854b9da221,Puerto Rico,East coast,13 or older,no,2021-03-24_17h08.57.413,empathy_intonation_perc,2020.2.10,Linux x86_64,60,,,,,,,,,,1,chilean,0,0,1.873285,0,8,8,28,1,29,./stim/wavs/andalusian_match_interrogative-total-yn_Manuela-vende-el-carro.wav,./stim/wavs/argentine_match_interrogative-total-yn_Manuela-vende-el-carro.wav,./stim/wavs/castilian_match_interrogative-total-yn_Manuela-vende-el-carro.wav,./stim/wavs/chilean_match_interrogative-total-yn_Manuela-vende-el-carro.wav,./stim/wavs/cuban_match_interrogative-total-yn_Manuela-vende-el-carro.wav,./stim/wavs/mexican_match_interrogative-total-yn_Manuela-vende-el-carro.wav,./stim/wavs/peruvian_match_interrogative-total-yn_Manuela-vende-el-carro.wav,./stim/wavs/puertorican_match_interrogative-total-yn_Manuela-vende-el-carro.wav,,,,,,,,,,,,,,,,,,,,,,,,,,,,,,,,,,,,,,,,,,,,,,,,,,,,,,,,
,,,,,,,605796ef0a4b32599655c385,605b45a4d25f287719a41696,605baa3c8b9160854b9da221,Puerto Rico,East coast,13 or older,no,2021-03-24_17h08.57.413,empathy_intonation_perc,2020.2.10,Linux x86_64,60,,,,,,,,,,0,mexican,1,0,1.740495,0,9,9,15,1,16,./stim/wavs/andalusian_match_declarative-narrow-focus_Marta-abre-el-regalo.wav,./stim/wavs/argentine_match_declarative-narrow-focus_Marta-abre-el-regalo.wav,./stim/wavs/castilian_match_declarative-narrow-focus_Marta-abre-el-regalo.wav,./stim/wavs/chilean_match_declarative-narrow-focus_Marta-abre-el-regalo.wav,./stim/wavs/cuban_match_declarative-narrow-focus_Marta-abre-el-regalo.wav,./stim/wavs/mexican_match_declarative-narrow-focus_Marta-abre-el-regalo.wav,./stim/wavs/peruvian_match_declarative-narrow-focus_Marta-abre-el-regalo.wav,./stim/wavs/puertorican_match_declarative-narrow-focus_Marta-abre-el-regalo.wav,,,,,,,,,,,,,,,,,,,,,,,,,,,,,,,,,,,,,,,,,,,,,,,,,,,,,,,,
,,,,,,,605796ef0a4b32599655c385,605b45a4d25f287719a41696,605baa3c8b9160854b9da221,Puerto Rico,East coast,13 or older,no,2021-03-24_17h08.57.413,empathy_intonation_perc,2020.2.10,Linux x86_64,60,,,,,,,,,,0,castilian,1,0,1.93485,0,10,10,5,1,6,./stim/wavs/andalusian_match_declarative-broad-focus_Maria-bebe-el-vino.wav,./stim/wavs/argentine_match_declarative-broad-focus_Maria-bebe-el-vino.wav,./stim/wavs/castilian_match_declarative-broad-focus_Maria-bebe-el-vino.wav,./stim/wavs/chilean_match_declarative-broad-focus_Maria-bebe-el-vino.wav,./stim/wavs/cuban_match_declarative-broad-focus_Maria-bebe-el-vino.wav,./stim/wavs/mexican_match_declarative-broad-focus_Maria-bebe-el-vino.wav,./stim/wavs/peruvian_match_declarative-broad-focus_Maria-bebe-el-vino.wav,./stim/wavs/puertorican_match_declarative-broad-focus_Maria-bebe-el-vino.wav,,,,,,,,,,,,,,,,,,,,,,,,,,,,,,,,,,,,,,,,,,,,,,,,,,,,,,,,
,,,,,,,605796ef0a4b32599655c385,605b45a4d25f287719a41696,605baa3c8b9160854b9da221,Puerto Rico,East coast,13 or older,no,2021-03-24_17h08.57.413,empathy_intonation_perc,2020.2.10,Linux x86_64,60,,,,,,,,,,0,puertorican,0,1,1.559465,0,11,11,0,1,1,./stim/wavs/andalusian_match_declarative-broad-focus_Ana-lleva-el-abrigo.wav,./stim/wavs/argentine_match_declarative-broad-focus_Ana-lleva-el-abrigo.wav,./stim/wavs/castilian_match_declarative-broad-focus_Ana-lleva-el-abrigo.wav,./stim/wavs/chilean_match_declarative-broad-focus_Ana-lleva-el-abrigo.wav,./stim/wavs/cuban_match_declarative-broad-focus_Ana-lleva-el-abrigo.wav,./stim/wavs/mexican_match_declarative-broad-focus_Ana-lleva-el-abrigo.wav,./stim/wavs/peruvian_match_declarative-broad-focus_Ana-lleva-el-abrigo.wav,./stim/wavs/puertorican_match_declarative-broad-focus_Ana-lleva-el-abrigo.wav,,,,,,,,,,,,,,,,,,,,,,,,,,,,,,,,,,,,,,,,,,,,,,,,,,,,,,,,
,,,,,,,605796ef0a4b32599655c385,605b45a4d25f287719a41696,605baa3c8b9160854b9da221,Puerto Rico,East coast,13 or older,no,2021-03-24_17h08.57.413,empathy_intonation_perc,2020.2.10,Linux x86_64,60,,,,,,,,,,1,argentine,0,0,2.277715,0,12,12,60,1,61,./stim/wavs/andalusian_mismatch_interrogative-total-yn_La-nina-lava-el-plato.wav,./stim/wavs/argentine_mismatch_interrogative-total-yn_La-nina-lava-el-plato.wav,./stim/wavs/castilian_mismatch_interrogative-total-yn_La-nina-lava-el-plato.wav,./stim/wavs/chilean_mismatch_interrogative-total-yn_La-nina-lava-el-plato.wav,./stim/wavs/cuban_mismatch_interrogative-total-yn_La-nina-lava-el-plato.wav,./stim/wavs/mexican_mismatch_interrogative-total-yn_La-nina-lava-el-plato.wav,./stim/wavs/peruvian_mismatch_interrogative-total-yn_La-nina-lava-el-plato.wav,./stim/wavs/puertorican_mismatch_interrogative-total-yn_La-nina-lava-el-plato.wav,,,,,,,,,,,,,,,,,,,,,,,,,,,,,,,,,,,,,,,,,,,,,,,,,,,,,,,,
,,,,,,,605796ef0a4b32599655c385,605b45a4d25f287719a41696,605baa3c8b9160854b9da221,Puerto Rico,East coast,13 or older,no,2021-03-24_17h08.57.413,empathy_intonation_perc,2020.2.10,Linux x86_64,60,,,,,,,,,,1,chilean,1,1,1.89041,0,13,13,24,1,25,./stim/wavs/andalusian_match_interrogative-total-yn_Ana-lleva-el-abrigo.wav,./stim/wavs/argentine_match_interrogative-total-yn_Ana-lleva-el-abrigo.wav,./stim/wavs/castilian_match_interrogative-total-yn_Ana-lleva-el-abrigo.wav,./stim/wavs/chilean_match_interrogative-total-yn_Ana-lleva-el-abrigo.wav,./stim/wavs/cuban_match_interrogative-total-yn_Ana-lleva-el-abrigo.wav,./stim/wavs/mexican_match_interrogative-total-yn_Ana-lleva-el-abrigo.wav,./stim/wavs/peruvian_match_interrogative-total-yn_Ana-lleva-el-abrigo.wav,./stim/wavs/puertorican_match_interrogative-total-yn_Ana-lleva-el-abrigo.wav,,,,,,,,,,,,,,,,,,,,,,,,,,,,,,,,,,,,,,,,,,,,,,,,,,,,,,,,
,,,,,,,605796ef0a4b32599655c385,605b45a4d25f287719a41696,605baa3c8b9160854b9da221,Puerto Rico,East coast,13 or older,no,2021-03-24_17h08.57.413,empathy_intonation_perc,2020.2.10,Linux x86_64,60,,,,,,,,,,0,argentine,0,1,2.185255,0,14,14,12,1,13,./stim/wavs/andalusian_match_declarative-narrow-focus_Manuela-vende-el-carro.wav,./stim/wavs/argentine_match_declarative-narrow-focus_Manuela-vende-el-carro.wav,./stim/wavs/castilian_match_declarative-narrow-focus_Manuela-vende-el-carro.wav,./stim/wavs/chilean_match_declarative-narrow-focus_Manuela-vende-el-carro.wav,./stim/wavs/cuban_match_declarative-narrow-focus_Manuela-vende-el-carro.wav,./stim/wavs/mexican_match_declarative-narrow-focus_Manuela-vende-el-carro.wav,./stim/wavs/peruvian_match_declarative-narrow-focus_Manuela-vende-el-carro.wav,./stim/wavs/puertorican_match_declarative-narrow-focus_Manuela-vende-el-carro.wav,,,,,,,,,,,,,,,,,,,,,,,,,,,,,,,,,,,,,,,,,,,,,,,,,,,,,,,,
,,,,,,,605796ef0a4b32599655c385,605b45a4d25f287719a41696,605baa3c8b9160854b9da221,Puerto Rico,East coast,13 or older,no,2021-03-24_17h08.57.413,empathy_intonation_perc,2020.2.10,Linux x86_64,60,,,,,,,,,,1,chilean,1,1,1.726795,0,15,15,27,1,28,./stim/wavs/andalusian_match_interrogative-total-yn_Emilio-ama-la-marcha.wav,./stim/wavs/argentine_match_interrogative-total-yn_Emilio-ama-la-marcha.wav,./stim/wavs/castilian_match_interrogative-total-yn_Emilio-ama-la-marcha.wav,./stim/wavs/chilean_match_interrogative-total-yn_Emilio-ama-la-marcha.wav,./stim/wavs/cuban_match_interrogative-total-yn_Emilio-ama-la-marcha.wav,./stim/wavs/mexican_match_interrogative-total-yn_Emilio-ama-la-marcha.wav,./stim/wavs/peruvian_match_interrogative-total-yn_Emilio-ama-la-marcha.wav,./stim/wavs/puertorican_match_interrogative-total-yn_Emilio-ama-la-marcha.wav,,,,,,,,,,,,,,,,,,,,,,,,,,,,,,,,,,,,,,,,,,,,,,,,,,,,,,,,
,,,,,,,605796ef0a4b32599655c385,605b45a4d25f287719a41696,605baa3c8b9160854b9da221,Puerto Rico,East coast,13 or older,no,2021-03-24_17h08.57.413,empathy_intonation_perc,2020.2.10,Linux x86_64,60,,,,,,,,,,0,castilian,1,0,2.02186,0,16,16,47,1,48,./stim/wavs/andalusian_mismatch_declarative-narrow-focus_Mi-tia-odia-la-lluvia.wav,./stim/wavs/argentine_mismatch_declarative-narrow-focus_Mi-tia-odia-la-lluvia.wav,./stim/wavs/castilian_mismatch_declarative-narrow-focus_Mi-tia-odia-la-lluvia.wav,./stim/wavs/chilean_mismatch_declarative-narrow-focus_Mi-tia-odia-la-lluvia.wav,./stim/wavs/cuban_mismatch_declarative-narrow-focus_Mi-tia-odia-la-lluvia.wav,./stim/wavs/mexican_mismatch_declarative-narrow-focus_Mi-tia-odia-la-lluvia.wav,./stim/wavs/peruvian_mismatch_declarative-narrow-focus_Mi-tia-odia-la-lluvia.wav,./stim/wavs/puertorican_mismatch_declarative-narrow-focus_Mi-tia-odia-la-lluvia.wav,,,,,,,,,,,,,,,,,,,,,,,,,,,,,,,,,,,,,,,,,,,,,,,,,,,,,,,,
,,,,,,,605796ef0a4b32599655c385,605b45a4d25f287719a41696,605baa3c8b9160854b9da221,Puerto Rico,East coast,13 or older,no,2021-03-24_17h08.57.413,empathy_intonation_perc,2020.2.10,Linux x86_64,60,,,,,,,,,,1,andalusian,1,1,1.768495,0,17,17,48,1,49,./stim/wavs/andalusian_mismatch_interrogative-partial-wh_Cuando-comia-la-fruta.wav,./stim/wavs/argentine_mismatch_interrogative-partial-wh_Cuando-comia-la-fruta.wav,./stim/wavs/castilian_mismatch_interrogative-partial-wh_Cuando-comia-la-fruta.wav,./stim/wavs/chilean_mismatch_interrogative-partial-wh_Cuando-comia-la-fruta.wav,./stim/wavs/cuban_mismatch_interrogative-partial-wh_Cuando-comia-la-fruta.wav,./stim/wavs/mexican_mismatch_interrogative-partial-wh_Cuando-comia-la-fruta.wav,./stim/wavs/peruvian_mismatch_interrogative-partial-wh_Cuando-comia-la-fruta.wav,./stim/wavs/puertorican_mismatch_interrogative-partial-wh_Cuando-comia-la-fruta.wav,,,,,,,,,,,,,,,,,,,,,,,,,,,,,,,,,,,,,,,,,,,,,,,,,,,,,,,,
,,,,,,,605796ef0a4b32599655c385,605b45a4d25f287719a41696,605baa3c8b9160854b9da221,Puerto Rico,East coast,13 or older,no,2021-03-24_17h08.57.413,empathy_intonation_perc,2020.2.10,Linux x86_64,60,,,,,,,,,,0,puertorican,0,1,1.766965,0,18,18,7,1,8,./stim/wavs/andalusian_match_declarative-broad-focus_Marta-abre-el-regalo.wav,./stim/wavs/argentine_match_declarative-broad-focus_Marta-abre-el-regalo.wav,./stim/wavs/castilian_match_declarative-broad-focus_Marta-abre-el-regalo.wav,./stim/wavs/chilean_match_declarative-broad-focus_Marta-abre-el-regalo.wav,./stim/wavs/cuban_match_declarative-broad-focus_Marta-abre-el-regalo.wav,./stim/wavs/mexican_match_declarative-broad-focus_Marta-abre-el-regalo.wav,./stim/wavs/peruvian_match_declarative-broad-focus_Marta-abre-el-regalo.wav,./stim/wavs/puertorican_match_declarative-broad-focus_Marta-abre-el-regalo.wav,,,,,,,,,,,,,,,,,,,,,,,,,,,,,,,,,,,,,,,,,,,,,,,,,,,,,,,,
,,,,,,,605796ef0a4b32599655c385,605b45a4d25f287719a41696,605baa3c8b9160854b9da221,Puerto Rico,East coast,13 or older,no,2021-03-24_17h08.57.413,empathy_intonation_perc,2020.2.10,Linux x86_64,60,,,,,,,,,,1,peruvian,1,1,2.2911,0,19,19,29,1,30,./stim/wavs/andalusian_match_interrogative-total-yn_Maria-bebe-el-vino.wav,./stim/wavs/argentine_match_interrogative-total-yn_Maria-bebe-el-vino.wav,./stim/wavs/castilian_match_interrogative-total-yn_Maria-bebe-el-vino.wav,./stim/wavs/chilean_match_interrogative-total-yn_Maria-bebe-el-vino.wav,./stim/wavs/cuban_match_interrogative-total-yn_Maria-bebe-el-vino.wav,./stim/wavs/mexican_match_interrogative-total-yn_Maria-bebe-el-vino.wav,./stim/wavs/peruvian_match_interrogative-total-yn_Maria-bebe-el-vino.wav,./stim/wavs/puertorican_match_interrogative-total-yn_Maria-bebe-el-vino.wav,,,,,,,,,,,,,,,,,,,,,,,,,,,,,,,,,,,,,,,,,,,,,,,,,,,,,,,,
,,,,,,,605796ef0a4b32599655c385,605b45a4d25f287719a41696,605baa3c8b9160854b9da221,Puerto Rico,East coast,13 or older,no,2021-03-24_17h08.57.413,empathy_intonation_perc,2020.2.10,Linux x86_64,60,,,,,,,,,,0,andalusian,1,0,1.917935,0,20,20,2,1,3,./stim/wavs/andalusian_match_declarative-broad-focus_David-leia-el-libro.wav,./stim/wavs/argentine_match_declarative-broad-focus_David-leia-el-libro.wav,./stim/wavs/castilian_match_declarative-broad-focus_David-leia-el-libro.wav,./stim/wavs/chilean_match_declarative-broad-focus_David-leia-el-libro.wav,./stim/wavs/cuban_match_declarative-broad-focus_David-leia-el-libro.wav,./stim/wavs/mexican_match_declarative-broad-focus_David-leia-el-libro.wav,./stim/wavs/peruvian_match_declarative-broad-focus_David-leia-el-libro.wav,./stim/wavs/puertorican_match_declarative-broad-focus_David-leia-el-libro.wav,,,,,,,,,,,,,,,,,,,,,,,,,,,,,,,,,,,,,,,,,,,,,,,,,,,,,,,,
,,,,,,,605796ef0a4b32599655c385,605b45a4d25f287719a41696,605baa3c8b9160854b9da221,Puerto Rico,East coast,13 or older,no,2021-03-24_17h08.57.413,empathy_intonation_perc,2020.2.10,Linux x86_64,60,,,,,,,,,,0,andalusian,0,1,2.226095,0,21,21,37,1,38,./stim/wavs/andalusian_mismatch_declarative-broad-focus_Mi-madre-come-la-fruta.wav,./stim/wavs/argentine_mismatch_declarative-broad-focus_Mi-madre-come-la-fruta.wav,./stim/wavs/castilian_mismatch_declarative-broad-focus_Mi-madre-come-la-fruta.wav,./stim/wavs/chilean_mismatch_declarative-broad-focus_Mi-madre-come-la-fruta.wav,./stim/wavs/cuban_mismatch_declarative-broad-focus_Mi-madre-come-la-fruta.wav,./stim/wavs/mexican_mismatch_declarative-broad-focus_Mi-madre-come-la-fruta.wav,./stim/wavs/peruvian_mismatch_declarative-broad-focus_Mi-madre-come-la-fruta.wav,./stim/wavs/puertorican_mismatch_declarative-broad-focus_Mi-madre-come-la-fruta.wav,,,,,,,,,,,,,,,,,,,,,,,,,,,,,,,,,,,,,,,,,,,,,,,,,,,,,,,,
,,,,,,,605796ef0a4b32599655c385,605b45a4d25f287719a41696,605baa3c8b9160854b9da221,Puerto Rico,East coast,13 or older,no,2021-03-24_17h08.57.413,empathy_intonation_perc,2020.2.10,Linux x86_64,60,,,,,,,,,,1,cuban,0,0,4.065735,0,22,22,26,1,27,./stim/wavs/andalusian_match_interrogative-total-yn_David-leia-el-libro.wav,./stim/wavs/argentine_match_interrogative-total-yn_David-leia-el-libro.wav,./stim/wavs/castilian_match_interrogative-total-yn_David-leia-el-libro.wav,./stim/wavs/chilean_match_interrogative-total-yn_David-leia-el-libro.wav,./stim/wavs/cuban_match_interrogative-total-yn_David-leia-el-libro.wav,./stim/wavs/mexican_match_interrogative-total-yn_David-leia-el-libro.wav,./stim/wavs/peruvian_match_interrogative-total-yn_David-leia-el-libro.wav,./stim/wavs/puertorican_match_interrogative-total-yn_David-leia-el-libro.wav,,,,,,,,,,,,,,,,,,,,,,,,,,,,,,,,,,,,,,,,,,,,,,,,,,,,,,,,
,,,,,,,605796ef0a4b32599655c385,605b45a4d25f287719a41696,605baa3c8b9160854b9da221,Puerto Rico,East coast,13 or older,no,2021-03-24_17h08.57.413,empathy_intonation_perc,2020.2.10,Linux x86_64,60,,,,,,,,,,0,chilean,0,1,2.40181,0,23,23,9,1,10,./stim/wavs/andalusian_match_declarative-narrow-focus_Daniel-iba-a-Bolivia.wav,./stim/wavs/argentine_match_declarative-narrow-focus_Daniel-iba-a-Bolivia.wav,./stim/wavs/castilian_match_declarative-narrow-focus_Daniel-iba-a-Bolivia.wav,./stim/wavs/chilean_match_declarative-narrow-focus_Daniel-iba-a-Bolivia.wav,./stim/wavs/cuban_match_declarative-narrow-focus_Daniel-iba-a-Bolivia.wav,./stim/wavs/mexican_match_declarative-narrow-focus_Daniel-iba-a-Bolivia.wav,./stim/wavs/peruvian_match_declarative-narrow-focus_Daniel-iba-a-Bolivia.wav,./stim/wavs/puertorican_match_declarative-narrow-focus_Daniel-iba-a-Bolivia.wav,,,,,,,,,,,,,,,,,,,,,,,,,,,,,,,,,,,,,,,,,,,,,,,,,,,,,,,,
,,,,,,,605796ef0a4b32599655c385,605b45a4d25f287719a41696,605baa3c8b9160854b9da221,Puerto Rico,East coast,13 or older,no,2021-03-24_17h08.57.413,empathy_intonation_perc,2020.2.10,Linux x86_64,60,,,,,,,,,,1,mexican,1,1,2.09239,0,24,24,54,1,55,./stim/wavs/andalusian_mismatch_interrogative-partial-wh_Por-que-venia-del-lago.wav,./stim/wavs/argentine_mismatch_interrogative-partial-wh_Por-que-venia-del-lago.wav,./stim/wavs/castilian_mismatch_interrogative-partial-wh_Por-que-venia-del-lago.wav,./stim/wavs/chilean_mismatch_interrogative-partial-wh_Por-que-venia-del-lago.wav,./stim/wavs/cuban_mismatch_interrogative-partial-wh_Por-que-venia-del-lago.wav,./stim/wavs/mexican_mismatch_interrogative-partial-wh_Por-que-venia-del-lago.wav,./stim/wavs/peruvian_mismatch_interrogative-partial-wh_Por-que-venia-del-lago.wav,./stim/wavs/puertorican_mismatch_interrogative-partial-wh_Por-que-venia-del-lago.wav,,,,,,,,,,,,,,,,,,,,,,,,,,,,,,,,,,,,,,,,,,,,,,,,,,,,,,,,
,,,,,,,605796ef0a4b32599655c385,605b45a4d25f287719a41696,605baa3c8b9160854b9da221,Puerto Rico,East coast,13 or older,no,2021-03-24_17h08.57.413,empathy_intonation_perc,2020.2.10,Linux x86_64,60,,,,,,,,,,0,mexican,1,0,1.554875,0,25,25,4,1,5,./stim/wavs/andalusian_match_declarative-broad-focus_Manuela-vende-el-carro.wav,./stim/wavs/argentine_match_declarative-broad-focus_Manuela-vende-el-carro.wav,./stim/wavs/castilian_match_declarative-broad-focus_Manuela-vende-el-carro.wav,./stim/wavs/chilean_match_declarative-broad-focus_Manuela-vende-el-carro.wav,./stim/wavs/cuban_match_declarative-broad-focus_Manuela-vende-el-carro.wav,./stim/wavs/mexican_match_declarative-broad-focus_Manuela-vende-el-carro.wav,./stim/wavs/peruvian_match_declarative-broad-focus_Manuela-vende-el-carro.wav,./stim/wavs/puertorican_match_declarative-broad-focus_Manuela-vende-el-carro.wav,,,,,,,,,,,,,,,,,,,,,,,,,,,,,,,,,,,,,,,,,,,,,,,,,,,,,,,,
,,,,,,,605796ef0a4b32599655c385,605b45a4d25f287719a41696,605baa3c8b9160854b9da221,Puerto Rico,East coast,13 or older,no,2021-03-24_17h08.57.413,empathy_intonation_perc,2020.2.10,Linux x86_64,60,,,,,,,,,,0,puertorican,1,0,3.75393,0,26,26,10,1,11,./stim/wavs/andalusian_match_declarative-narrow-focus_David-leia-el-libro.wav,./stim/wavs/argentine_match_declarative-narrow-focus_David-leia-el-libro.wav,./stim/wavs/castilian_match_declarative-narrow-focus_David-leia-el-libro.wav,./stim/wavs/chilean_match_declarative-narrow-focus_David-leia-el-libro.wav,./stim/wavs/cuban_match_declarative-narrow-focus_David-leia-el-libro.wav,./stim/wavs/mexican_match_declarative-narrow-focus_David-leia-el-libro.wav,./stim/wavs/peruvian_match_declarative-narrow-focus_David-leia-el-libro.wav,./stim/wavs/puertorican_match_declarative-narrow-focus_David-leia-el-libro.wav,,,,,,,,,,,,,,,,,,,,,,,,,,,,,,,,,,,,,,,,,,,,,,,,,,,,,,,,
,,,,,,,605796ef0a4b32599655c385,605b45a4d25f287719a41696,605baa3c8b9160854b9da221,Puerto Rico,East coast,13 or older,no,2021-03-24_17h08.57.413,empathy_intonation_perc,2020.2.10,Linux x86_64,60,,,,,,,,,,1,andalusian,1,1,3.50439,0,27,27,56,1,57,./stim/wavs/andalusian_mismatch_interrogative-total-yn_El-bebe-comia-muy-bien.wav,./stim/wavs/argentine_mismatch_interrogative-total-yn_El-bebe-comia-muy-bien.wav,./stim/wavs/castilian_mismatch_interrogative-total-yn_El-bebe-comia-muy-bien.wav,./stim/wavs/chilean_mismatch_interrogative-total-yn_El-bebe-comia-muy-bien.wav,./stim/wavs/cuban_mismatch_interrogative-total-yn_El-bebe-comia-muy-bien.wav,./stim/wavs/mexican_mismatch_interrogative-total-yn_El-bebe-comia-muy-bien.wav,./stim/wavs/peruvian_mismatch_interrogative-total-yn_El-bebe-comia-muy-bien.wav,./stim/wavs/puertorican_mismatch_interrogative-total-yn_El-bebe-comia-muy-bien.wav,,,,,,,,,,,,,,,,,,,,,,,,,,,,,,,,,,,,,,,,,,,,,,,,,,,,,,,,
,,,,,,,605796ef0a4b32599655c385,605b45a4d25f287719a41696,605baa3c8b9160854b9da221,Puerto Rico,East coast,13 or older,no,2021-03-24_17h08.57.413,empathy_intonation_perc,2020.2.10,Linux x86_64,60,,,,,,,,,,1,mexican,1,1,1.47205,0,28,28,19,1,20,./stim/wavs/andalusian_match_interrogative-partial-wh_Cuando-vendia-el-carro.wav,./stim/wavs/argentine_match_interrogative-partial-wh_Cuando-vendia-el-carro.wav,./stim/wavs/castilian_match_interrogative-partial-wh_Cuando-vendia-el-carro.wav,./stim/wavs/chilean_match_interrogative-partial-wh_Cuando-vendia-el-carro.wav,./stim/wavs/cuban_match_interrogative-partial-wh_Cuando-vendia-el-carro.wav,./stim/wavs/mexican_match_interrogative-partial-wh_Cuando-vendia-el-carro.wav,./stim/wavs/peruvian_match_interrogative-partial-wh_Cuando-vendia-el-carro.wav,./stim/wavs/puertorican_match_interrogative-partial-wh_Cuando-vendia-el-carro.wav,,,,,,,,,,,,,,,,,,,,,,,,,,,,,,,,,,,,,,,,,,,,,,,,,,,,,,,,
,,,,,,,605796ef0a4b32599655c385,605b45a4d25f287719a41696,605baa3c8b9160854b9da221,Puerto Rico,East coast,13 or older,no,2021-03-24_17h08.57.413,empathy_intonation_perc,2020.2.10,Linux x86_64,60,,,,,,,,,,0,cuban,1,0,1.5661,0,29,29,8,1,9,./stim/wavs/andalusian_match_declarative-narrow-focus_Ana-lleva-el-abrigo.wav,./stim/wavs/argentine_match_declarative-narrow-focus_Ana-lleva-el-abrigo.wav,./stim/wavs/castilian_match_declarative-narrow-focus_Ana-lleva-el-abrigo.wav,./stim/wavs/chilean_match_declarative-narrow-focus_Ana-lleva-el-abrigo.wav,./stim/wavs/cuban_match_declarative-narrow-focus_Ana-lleva-el-abrigo.wav,./stim/wavs/mexican_match_declarative-narrow-focus_Ana-lleva-el-abrigo.wav,./stim/wavs/peruvian_match_declarative-narrow-focus_Ana-lleva-el-abrigo.wav,./stim/wavs/puertorican_match_declarative-narrow-focus_Ana-lleva-el-abrigo.wav,,,,,,,,,,,,,,,,,,,,,,,,,,,,,,,,,,,,,,,,,,,,,,,,,,,,,,,,
,,,,,,,605796ef0a4b32599655c385,605b45a4d25f287719a41696,605baa3c8b9160854b9da221,Puerto Rico,East coast,13 or older,no,2021-03-24_17h08.57.413,empathy_intonation_perc,2020.2.10,Linux x86_64,60,,,,,,,,,,1,andalusian,1,1,1.802095,0,30,30,16,1,17,./stim/wavs/andalusian_match_interrogative-partial-wh_Cuando-bebia-el-vino.wav,./stim/wavs/argentine_match_interrogative-partial-wh_Cuando-bebia-el-vino.wav,./stim/wavs/castilian_match_interrogative-partial-wh_Cuando-bebia-el-vino.wav,./stim/wavs/chilean_match_interrogative-partial-wh_Cuando-bebia-el-vino.wav,./stim/wavs/cuban_match_interrogative-partial-wh_Cuando-bebia-el-vino.wav,./stim/wavs/mexican_match_interrogative-partial-wh_Cuando-bebia-el-vino.wav,./stim/wavs/peruvian_match_interrogative-partial-wh_Cuando-bebia-el-vino.wav,./stim/wavs/puertorican_match_interrogative-partial-wh_Cuando-bebia-el-vino.wav,,,,,,,,,,,,,,,,,,,,,,,,,,,,,,,,,,,,,,,,,,,,,,,,,,,,,,,,
,,,,,,,605796ef0a4b32599655c385,605b45a4d25f287719a41696,605baa3c8b9160854b9da221,Puerto Rico,East coast,13 or older,no,2021-03-24_17h08.57.413,empathy_intonation_perc,2020.2.10,Linux x86_64,60,,,,,,,,,,1,argentine,1,1,1.355505,0,31,31,22,1,23,./stim/wavs/andalusian_match_interrogative-partial-wh_Por-que-hablaba-del-agua.wav,./stim/wavs/argentine_match_interrogative-partial-wh_Por-que-hablaba-del-agua.wav,./stim/wavs/castilian_match_interrogative-partial-wh_Por-que-hablaba-del-agua.wav,./stim/wavs/chilean_match_interrogative-partial-wh_Por-que-hablaba-del-agua.wav,./stim/wavs/cuban_match_interrogative-partial-wh_Por-que-hablaba-del-agua.wav,./stim/wavs/mexican_match_interrogative-partial-wh_Por-que-hablaba-del-agua.wav,./stim/wavs/peruvian_match_interrogative-partial-wh_Por-que-hablaba-del-agua.wav,./stim/wavs/puertorican_match_interrogative-partial-wh_Por-que-hablaba-del-agua.wav,,,,,,,,,,,,,,,,,,,,,,,,,,,,,,,,,,,,,,,,,,,,,,,,,,,,,,,,
,,,,,,,605796ef0a4b32599655c385,605b45a4d25f287719a41696,605baa3c8b9160854b9da221,Puerto Rico,East coast,13 or older,no,2021-03-24_17h08.57.413,empathy_intonation_perc,2020.2.10,Linux x86_64,60,,,,,,,,,,0,cuban,1,0,1.436255,0,32,32,43,1,44,./stim/wavs/andalusian_mismatch_declarative-narrow-focus_La-maestra-vive-en-Paris.wav,./stim/wavs/argentine_mismatch_declarative-narrow-focus_La-maestra-vive-en-Paris.wav,./stim/wavs/castilian_mismatch_declarative-narrow-focus_La-maestra-vive-en-Paris.wav,./stim/wavs/chilean_mismatch_declarative-narrow-focus_La-maestra-vive-en-Paris.wav,./stim/wavs/cuban_mismatch_declarative-narrow-focus_La-maestra-vive-en-Paris.wav,./stim/wavs/mexican_mismatch_declarative-narrow-focus_La-maestra-vive-en-Paris.wav,./stim/wavs/peruvian_mismatch_declarative-narrow-focus_La-maestra-vive-en-Paris.wav,./stim/wavs/puertorican_mismatch_declarative-narrow-focus_La-maestra-vive-en-Paris.wav,,,,,,,,,,,,,,,,,,,,,,,,,,,,,,,,,,,,,,,,,,,,,,,,,,,,,,,,
,,,,,,,605796ef0a4b32599655c385,605b45a4d25f287719a41696,605baa3c8b9160854b9da221,Puerto Rico,East coast,13 or older,no,2021-03-24_17h08.57.413,empathy_intonation_perc,2020.2.10,Linux x86_64,60,,,,,,,,,,0,andalusian,0,1,2.1078,0,33,33,14,1,15,./stim/wavs/andalusian_match_declarative-narrow-focus_Mariano-habla-del-tiempo.wav,./stim/wavs/argentine_match_declarative-narrow-focus_Mariano-habla-del-tiempo.wav,./stim/wavs/castilian_match_declarative-narrow-focus_Mariano-habla-del-tiempo.wav,./stim/wavs/chilean_match_declarative-narrow-focus_Mariano-habla-del-tiempo.wav,./stim/wavs/cuban_match_declarative-narrow-focus_Mariano-habla-del-tiempo.wav,./stim/wavs/mexican_match_declarative-narrow-focus_Mariano-habla-del-tiempo.wav,./stim/wavs/peruvian_match_declarative-narrow-focus_Mariano-habla-del-tiempo.wav,./stim/wavs/puertorican_match_declarative-narrow-focus_Mariano-habla-del-tiempo.wav,,,,,,,,,,,,,,,,,,,,,,,,,,,,,,,,,,,,,,,,,,,,,,,,,,,,,,,,
,,,,,,,605796ef0a4b32599655c385,605b45a4d25f287719a41696,605baa3c8b9160854b9da221,Puerto Rico,East coast,13 or older,no,2021-03-24_17h08.57.413,empathy_intonation_perc,2020.2.10,Linux x86_64,60,,,,,,,,,,0,andalusian,0,1,3.323185,0,34,34,45,1,46,./stim/wavs/andalusian_mismatch_declarative-narrow-focus_Mi-madre-come-la-fruta.wav,./stim/wavs/argentine_mismatch_declarative-narrow-focus_Mi-madre-come-la-fruta.wav,./stim/wavs/castilian_mismatch_declarative-narrow-focus_Mi-madre-come-la-fruta.wav,./stim/wavs/chilean_mismatch_declarative-narrow-focus_Mi-madre-come-la-fruta.wav,./stim/wavs/cuban_mismatch_declarative-narrow-focus_Mi-madre-come-la-fruta.wav,./stim/wavs/mexican_mismatch_declarative-narrow-focus_Mi-madre-come-la-fruta.wav,./stim/wavs/peruvian_mismatch_declarative-narrow-focus_Mi-madre-come-la-fruta.wav,./stim/wavs/puertorican_mismatch_declarative-narrow-focus_Mi-madre-come-la-fruta.wav,,,,,,,,,,,,,,,,,,,,,,,,,,,,,,,,,,,,,,,,,,,,,,,,,,,,,,,,
,,,,,,,605796ef0a4b32599655c385,605b45a4d25f287719a41696,605baa3c8b9160854b9da221,Puerto Rico,East coast,13 or older,no,2021-03-24_17h08.57.413,empathy_intonation_perc,2020.2.10,Linux x86_64,60,,,,,,,,,,0,castilian,0,1,5.025105,0,35,35,34,1,35,./stim/wavs/andalusian_mismatch_declarative-broad-focus_El-nino-oye-el-rio.wav,./stim/wavs/argentine_mismatch_declarative-broad-focus_El-nino-oye-el-rio.wav,./stim/wavs/castilian_mismatch_declarative-broad-focus_El-nino-oye-el-rio.wav,./stim/wavs/chilean_mismatch_declarative-broad-focus_El-nino-oye-el-rio.wav,./stim/wavs/cuban_mismatch_declarative-broad-focus_El-nino-oye-el-rio.wav,./stim/wavs/mexican_mismatch_declarative-broad-focus_El-nino-oye-el-rio.wav,./stim/wavs/peruvian_mismatch_declarative-broad-focus_El-nino-oye-el-rio.wav,./stim/wavs/puertorican_mismatch_declarative-broad-focus_El-nino-oye-el-rio.wav,,,,,,,,,,,,,,,,,,,,,,,,,,,,,,,,,,,,,,,,,,,,,,,,,,,,,,,,
,,,,,,,605796ef0a4b32599655c385,605b45a4d25f287719a41696,605baa3c8b9160854b9da221,Puerto Rico,East coast,13 or older,no,2021-03-24_17h08.57.413,empathy_intonation_perc,2020.2.10,Linux x86_64,60,,,,,,,,,,0,andalusian,0,1,3.3037,0,36,36,35,1,36,./stim/wavs/andalusian_mismatch_declarative-broad-focus_La-maestra-vive-en-Paris.wav,./stim/wavs/argentine_mismatch_declarative-broad-focus_La-maestra-vive-en-Paris.wav,./stim/wavs/castilian_mismatch_declarative-broad-focus_La-maestra-vive-en-Paris.wav,./stim/wavs/chilean_mismatch_declarative-broad-focus_La-maestra-vive-en-Paris.wav,./stim/wavs/cuban_mismatch_declarative-broad-focus_La-maestra-vive-en-Paris.wav,./stim/wavs/mexican_mismatch_declarative-broad-focus_La-maestra-vive-en-Paris.wav,./stim/wavs/peruvian_mismatch_declarative-broad-focus_La-maestra-vive-en-Paris.wav,./stim/wavs/puertorican_mismatch_declarative-broad-focus_La-maestra-vive-en-Paris.wav,,,,,,,,,,,,,,,,,,,,,,,,,,,,,,,,,,,,,,,,,,,,,,,,,,,,,,,,
,,,,,,,605796ef0a4b32599655c385,605b45a4d25f287719a41696,605baa3c8b9160854b9da221,Puerto Rico,East coast,13 or older,no,2021-03-24_17h08.57.413,empathy_intonation_perc,2020.2.10,Linux x86_64,60,,,,,,,,,,1,argentine,1,1,3.5363,0,37,37,21,1,22,./stim/wavs/andalusian_match_interrogative-partial-wh_Por-que-ama-la-navidad.wav,./stim/wavs/argentine_match_interrogative-partial-wh_Por-que-ama-la-navidad.wav,./stim/wavs/castilian_match_interrogative-partial-wh_Por-que-ama-la-navidad.wav,./stim/wavs/chilean_match_interrogative-partial-wh_Por-que-ama-la-navidad.wav,./stim/wavs/cuban_match_interrogative-partial-wh_Por-que-ama-la-navidad.wav,./stim/wavs/mexican_match_interrogative-partial-wh_Por-que-ama-la-navidad.wav,./stim/wavs/peruvian_match_interrogative-partial-wh_Por-que-ama-la-navidad.wav,./stim/wavs/puertorican_match_interrogative-partial-wh_Por-que-ama-la-navidad.wav,,,,,,,,,,,,,,,,,,,,,,,,,,,,,,,,,,,,,,,,,,,,,,,,,,,,,,,,
,,,,,,,605796ef0a4b32599655c385,605b45a4d25f287719a41696,605baa3c8b9160854b9da221,Puerto Rico,East coast,13 or older,no,2021-03-24_17h08.57.413,empathy_intonation_perc,2020.2.10,Linux x86_64,60,,,,,,,,,,1,chilean,1,1,2.48119,0,38,38,49,1,50,./stim/wavs/andalusian_mismatch_interrogative-partial-wh_Cuando-lavaba-el-plato.wav,./stim/wavs/argentine_mismatch_interrogative-partial-wh_Cuando-lavaba-el-plato.wav,./stim/wavs/castilian_mismatch_interrogative-partial-wh_Cuando-lavaba-el-plato.wav,./stim/wavs/chilean_mismatch_interrogative-partial-wh_Cuando-lavaba-el-plato.wav,./stim/wavs/cuban_mismatch_interrogative-partial-wh_Cuando-lavaba-el-plato.wav,./stim/wavs/mexican_mismatch_interrogative-partial-wh_Cuando-lavaba-el-plato.wav,./stim/wavs/peruvian_mismatch_interrogative-partial-wh_Cuando-lavaba-el-plato.wav,./stim/wavs/puertorican_mismatch_interrogative-partial-wh_Cuando-lavaba-el-plato.wav,,,,,,,,,,,,,,,,,,,,,,,,,,,,,,,,,,,,,,,,,,,,,,,,,,,,,,,,
,,,,,,,605796ef0a4b32599655c385,605b45a4d25f287719a41696,605baa3c8b9160854b9da221,Puerto Rico,East coast,13 or older,no,2021-03-24_17h08.57.413,empathy_intonation_perc,2020.2.10,Linux x86_64,60,,,,,,,,,,0,peruvian,0,1,1.818935,0,39,39,41,1,42,./stim/wavs/andalusian_mismatch_declarative-narrow-focus_El-hombre-mira-la-luna.wav,./stim/wavs/argentine_mismatch_declarative-narrow-focus_El-hombre-mira-la-luna.wav,./stim/wavs/castilian_mismatch_declarative-narrow-focus_El-hombre-mira-la-luna.wav,./stim/wavs/chilean_mismatch_declarative-narrow-focus_El-hombre-mira-la-luna.wav,./stim/wavs/cuban_mismatch_declarative-narrow-focus_El-hombre-mira-la-luna.wav,./stim/wavs/mexican_mismatch_declarative-narrow-focus_El-hombre-mira-la-luna.wav,./stim/wavs/peruvian_mismatch_declarative-narrow-focus_El-hombre-mira-la-luna.wav,./stim/wavs/puertorican_mismatch_declarative-narrow-focus_El-hombre-mira-la-luna.wav,,,,,,,,,,,,,,,,,,,,,,,,,,,,,,,,,,,,,,,,,,,,,,,,,,,,,,,,
,,,,,,,605796ef0a4b32599655c385,605b45a4d25f287719a41696,605baa3c8b9160854b9da221,Puerto Rico,East coast,13 or older,no,2021-03-24_17h08.57.413,empathy_intonation_perc,2020.2.10,Linux x86_64,60,,,,,,,,,,1,mexican,0,0,4.88934,0,40,40,25,1,26,./stim/wavs/andalusian_match_interrogative-total-yn_Daniel-iba-a-Bolivia.wav,./stim/wavs/argentine_match_interrogative-total-yn_Daniel-iba-a-Bolivia.wav,./stim/wavs/castilian_match_interrogative-total-yn_Daniel-iba-a-Bolivia.wav,./stim/wavs/chilean_match_interrogative-total-yn_Daniel-iba-a-Bolivia.wav,./stim/wavs/cuban_match_interrogative-total-yn_Daniel-iba-a-Bolivia.wav,./stim/wavs/mexican_match_interrogative-total-yn_Daniel-iba-a-Bolivia.wav,./stim/wavs/peruvian_match_interrogative-total-yn_Daniel-iba-a-Bolivia.wav,./stim/wavs/puertorican_match_interrogative-total-yn_Daniel-iba-a-Bolivia.wav,,,,,,,,,,,,,,,,,,,,,,,,,,,,,,,,,,,,,,,,,,,,,,,,,,,,,,,,
,,,,,,,605796ef0a4b32599655c385,605b45a4d25f287719a41696,605baa3c8b9160854b9da221,Puerto Rico,East coast,13 or older,no,2021-03-24_17h08.57.413,empathy_intonation_perc,2020.2.10,Linux x86_64,60,,,,,,,,,,1,argentine,0,0,1.90049,0,41,41,58,1,59,./stim/wavs/andalusian_mismatch_interrogative-total-yn_El-nino-oye-el-rio.wav,./stim/wavs/argentine_mismatch_interrogative-total-yn_El-nino-oye-el-rio.wav,./stim/wavs/castilian_mismatch_interrogative-total-yn_El-nino-oye-el-rio.wav,./stim/wavs/chilean_mismatch_interrogative-total-yn_El-nino-oye-el-rio.wav,./stim/wavs/cuban_mismatch_interrogative-total-yn_El-nino-oye-el-rio.wav,./stim/wavs/mexican_mismatch_interrogative-total-yn_El-nino-oye-el-rio.wav,./stim/wavs/peruvian_mismatch_interrogative-total-yn_El-nino-oye-el-rio.wav,./stim/wavs/puertorican_mismatch_interrogative-total-yn_El-nino-oye-el-rio.wav,,,,,,,,,,,,,,,,,,,,,,,,,,,,,,,,,,,,,,,,,,,,,,,,,,,,,,,,
,,,,,,,605796ef0a4b32599655c385,605b45a4d25f287719a41696,605baa3c8b9160854b9da221,Puerto Rico,East coast,13 or older,no,2021-03-24_17h08.57.413,empathy_intonation_perc,2020.2.10,Linux x86_64,60,,,,,,,,,,1,chilean,0,0,3.48661,0,42,42,18,1,19,./stim/wavs/andalusian_match_interrogative-partial-wh_Cuando-lleva-el-abrigo.wav,./stim/wavs/argentine_match_interrogative-partial-wh_Cuando-lleva-el-abrigo.wav,./stim/wavs/castilian_match_interrogative-partial-wh_Cuando-lleva-el-abrigo.wav,./stim/wavs/chilean_match_interrogative-partial-wh_Cuando-lleva-el-abrigo.wav,./stim/wavs/cuban_match_interrogative-partial-wh_Cuando-lleva-el-abrigo.wav,./stim/wavs/mexican_match_interrogative-partial-wh_Cuando-lleva-el-abrigo.wav,./stim/wavs/peruvian_match_interrogative-partial-wh_Cuando-lleva-el-abrigo.wav,./stim/wavs/puertorican_match_interrogative-partial-wh_Cuando-lleva-el-abrigo.wav,,,,,,,,,,,,,,,,,,,,,,,,,,,,,,,,,,,,,,,,,,,,,,,,,,,,,,,,
,,,,,,,605796ef0a4b32599655c385,605b45a4d25f287719a41696,605baa3c8b9160854b9da221,Puerto Rico,East coast,13 or older,no,2021-03-24_17h08.57.413,empathy_intonation_perc,2020.2.10,Linux x86_64,60,,,,,,,,,,1,chilean,1,1,1.767315,0,43,43,31,1,32,./stim/wavs/andalusian_match_interrogative-total-yn_Marta-abre-el-regalo.wav,./stim/wavs/argentine_match_interrogative-total-yn_Marta-abre-el-regalo.wav,./stim/wavs/castilian_match_interrogative-total-yn_Marta-abre-el-regalo.wav,./stim/wavs/chilean_match_interrogative-total-yn_Marta-abre-el-regalo.wav,./stim/wavs/cuban_match_interrogative-total-yn_Marta-abre-el-regalo.wav,./stim/wavs/mexican_match_interrogative-total-yn_Marta-abre-el-regalo.wav,./stim/wavs/peruvian_match_interrogative-total-yn_Marta-abre-el-regalo.wav,./stim/wavs/puertorican_match_interrogative-total-yn_Marta-abre-el-regalo.wav,,,,,,,,,,,,,,,,,,,,,,,,,,,,,,,,,,,,,,,,,,,,,,,,,,,,,,,,
,,,,,,,605796ef0a4b32599655c385,605b45a4d25f287719a41696,605baa3c8b9160854b9da221,Puerto Rico,East coast,13 or older,no,2021-03-24_17h08.57.413,empathy_intonation_perc,2020.2.10,Linux x86_64,60,,,,,,,,,,0,puertorican,1,0,1.7182,0,44,44,3,1,4,./stim/wavs/andalusian_match_declarative-broad-focus_Emilio-ama-la-marcha.wav,./stim/wavs/argentine_match_declarative-broad-focus_Emilio-ama-la-marcha.wav,./stim/wavs/castilian_match_declarative-broad-focus_Emilio-ama-la-marcha.wav,./stim/wavs/chilean_match_declarative-broad-focus_Emilio-ama-la-marcha.wav,./stim/wavs/cuban_match_declarative-broad-focus_Emilio-ama-la-marcha.wav,./stim/wavs/mexican_match_declarative-broad-focus_Emilio-ama-la-marcha.wav,./stim/wavs/peruvian_match_declarative-broad-focus_Emilio-ama-la-marcha.wav,./stim/wavs/puertorican_match_declarative-broad-focus_Emilio-ama-la-marcha.wav,,,,,,,,,,,,,,,,,,,,,,,,,,,,,,,,,,,,,,,,,,,,,,,,,,,,,,,,
,,,,,,,605796ef0a4b32599655c385,605b45a4d25f287719a41696,605baa3c8b9160854b9da221,Puerto Rico,East coast,13 or older,no,2021-03-24_17h08.57.413,empathy_intonation_perc,2020.2.10,Linux x86_64,60,,,,,,,,,,0,peruvian,1,0,2.3707,0,45,45,11,1,12,./stim/wavs/andalusian_match_declarative-narrow-focus_Emilio-ama-la-marcha.wav,./stim/wavs/argentine_match_declarative-narrow-focus_Emilio-ama-la-marcha.wav,./stim/wavs/castilian_match_declarative-narrow-focus_Emilio-ama-la-marcha.wav,./stim/wavs/chilean_match_declarative-narrow-focus_Emilio-ama-la-marcha.wav,./stim/wavs/cuban_match_declarative-narrow-focus_Emilio-ama-la-marcha.wav,./stim/wavs/mexican_match_declarative-narrow-focus_Emilio-ama-la-marcha.wav,./stim/wavs/peruvian_match_declarative-narrow-focus_Emilio-ama-la-marcha.wav,./stim/wavs/puertorican_match_declarative-narrow-focus_Emilio-ama-la-marcha.wav,,,,,,,,,,,,,,,,,,,,,,,,,,,,,,,,,,,,,,,,,,,,,,,,,,,,,,,,
,,,,,,,605796ef0a4b32599655c385,605b45a4d25f287719a41696,605baa3c8b9160854b9da221,Puerto Rico,East coast,13 or older,no,2021-03-24_17h08.57.413,empathy_intonation_perc,2020.2.10,Linux x86_64,60,,,,,,,,,,0,cuban,0,1,1.850595,0,46,46,38,1,39,./stim/wavs/andalusian_mismatch_declarative-broad-focus_Mi-novio-viene-del-lago.wav,./stim/wavs/argentine_mismatch_declarative-broad-focus_Mi-novio-viene-del-lago.wav,./stim/wavs/castilian_mismatch_declarative-broad-focus_Mi-novio-viene-del-lago.wav,./stim/wavs/chilean_mismatch_declarative-broad-focus_Mi-novio-viene-del-lago.wav,./stim/wavs/cuban_mismatch_declarative-broad-focus_Mi-novio-viene-del-lago.wav,./stim/wavs/mexican_mismatch_declarative-broad-focus_Mi-novio-viene-del-lago.wav,./stim/wavs/peruvian_mismatch_declarative-broad-focus_Mi-novio-viene-del-lago.wav,./stim/wavs/puertorican_mismatch_declarative-broad-focus_Mi-novio-viene-del-lago.wav,,,,,,,,,,,,,,,,,,,,,,,,,,,,,,,,,,,,,,,,,,,,,,,,,,,,,,,,
,,,,,,,605796ef0a4b32599655c385,605b45a4d25f287719a41696,605baa3c8b9160854b9da221,Puerto Rico,East coast,13 or older,no,2021-03-24_17h08.57.413,empathy_intonation_perc,2020.2.10,Linux x86_64,60,,,,,,,,,,1,castilian,1,1,2.560175,0,47,47,55,1,56,./stim/wavs/andalusian_mismatch_interrogative-partial-wh_Por-que-vivia-en-Paris.wav,./stim/wavs/argentine_mismatch_interrogative-partial-wh_Por-que-vivia-en-Paris.wav,./stim/wavs/castilian_mismatch_interrogative-partial-wh_Por-que-vivia-en-Paris.wav,./stim/wavs/chilean_mismatch_interrogative-partial-wh_Por-que-vivia-en-Paris.wav,./stim/wavs/cuban_mismatch_interrogative-partial-wh_Por-que-vivia-en-Paris.wav,./stim/wavs/mexican_mismatch_interrogative-partial-wh_Por-que-vivia-en-Paris.wav,./stim/wavs/peruvian_mismatch_interrogative-partial-wh_Por-que-vivia-en-Paris.wav,./stim/wavs/puertorican_mismatch_interrogative-partial-wh_Por-que-vivia-en-Paris.wav,,,,,,,,,,,,,,,,,,,,,,,,,,,,,,,,,,,,,,,,,,,,,,,,,,,,,,,,
,,,,,,,605796ef0a4b32599655c385,605b45a4d25f287719a41696,605baa3c8b9160854b9da221,Puerto Rico,East coast,13 or older,no,2021-03-24_17h08.57.413,empathy_intonation_perc,2020.2.10,Linux x86_64,60,,,,,,,,,,1,chilean,0,0,1.754,0,48,48,57,1,58,./stim/wavs/andalusian_mismatch_interrogative-total-yn_El-hombre-mira-la-luna.wav,./stim/wavs/argentine_mismatch_interrogative-total-yn_El-hombre-mira-la-luna.wav,./stim/wavs/castilian_mismatch_interrogative-total-yn_El-hombre-mira-la-luna.wav,./stim/wavs/chilean_mismatch_interrogative-total-yn_El-hombre-mira-la-luna.wav,./stim/wavs/cuban_mismatch_interrogative-total-yn_El-hombre-mira-la-luna.wav,./stim/wavs/mexican_mismatch_interrogative-total-yn_El-hombre-mira-la-luna.wav,./stim/wavs/peruvian_mismatch_interrogative-total-yn_El-hombre-mira-la-luna.wav,./stim/wavs/puertorican_mismatch_interrogative-total-yn_El-hombre-mira-la-luna.wav,,,,,,,,,,,,,,,,,,,,,,,,,,,,,,,,,,,,,,,,,,,,,,,,,,,,,,,,
,,,,,,,605796ef0a4b32599655c385,605b45a4d25f287719a41696,605baa3c8b9160854b9da221,Puerto Rico,East coast,13 or older,no,2021-03-24_17h08.57.413,empathy_intonation_perc,2020.2.10,Linux x86_64,60,,,,,,,,,,0,puertorican,0,1,2.098275,0,49,49,32,1,33,./stim/wavs/andalusian_mismatch_declarative-broad-focus_El-bebe-comia-muy-bien.wav,./stim/wavs/argentine_mismatch_declarative-broad-focus_El-bebe-comia-muy-bien.wav,./stim/wavs/castilian_mismatch_declarative-broad-focus_El-bebe-comia-muy-bien.wav,./stim/wavs/chilean_mismatch_declarative-broad-focus_El-bebe-comia-muy-bien.wav,./stim/wavs/cuban_mismatch_declarative-broad-focus_El-bebe-comia-muy-bien.wav,./stim/wavs/mexican_mismatch_declarative-broad-focus_El-bebe-comia-muy-bien.wav,./stim/wavs/peruvian_mismatch_declarative-broad-focus_El-bebe-comia-muy-bien.wav,./stim/wavs/puertorican_mismatch_declarative-broad-focus_El-bebe-comia-muy-bien.wav,,,,,,,,,,,,,,,,,,,,,,,,,,,,,,,,,,,,,,,,,,,,,,,,,,,,,,,,
,,,,,,,605796ef0a4b32599655c385,605b45a4d25f287719a41696,605baa3c8b9160854b9da221,Puerto Rico,East coast,13 or older,no,2021-03-24_17h08.57.413,empathy_intonation_perc,2020.2.10,Linux x86_64,60,,,,,,,,,,1,mexican,1,1,1.557195,0,50,50,62,1,63,./stim/wavs/andalusian_mismatch_interrogative-total-yn_Mi-novio-viene-del-lago.wav,./stim/wavs/argentine_mismatch_interrogative-total-yn_Mi-novio-viene-del-lago.wav,./stim/wavs/castilian_mismatch_interrogative-total-yn_Mi-novio-viene-del-lago.wav,./stim/wavs/chilean_mismatch_interrogative-total-yn_Mi-novio-viene-del-lago.wav,./stim/wavs/cuban_mismatch_interrogative-total-yn_Mi-novio-viene-del-lago.wav,./stim/wavs/mexican_mismatch_interrogative-total-yn_Mi-novio-viene-del-lago.wav,./stim/wavs/peruvian_mismatch_interrogative-total-yn_Mi-novio-viene-del-lago.wav,./stim/wavs/puertorican_mismatch_interrogative-total-yn_Mi-novio-viene-del-lago.wav,,,,,,,,,,,,,,,,,,,,,,,,,,,,,,,,,,,,,,,,,,,,,,,,,,,,,,,,
,,,,,,,605796ef0a4b32599655c385,605b45a4d25f287719a41696,605baa3c8b9160854b9da221,Puerto Rico,East coast,13 or older,no,2021-03-24_17h08.57.413,empathy_intonation_perc,2020.2.10,Linux x86_64,60,,,,,,,,,,1,argentine,0,0,1.985585,0,51,51,59,1,60,./stim/wavs/andalusian_mismatch_interrogative-total-yn_La-maestra-vive-en-Paris.wav,./stim/wavs/argentine_mismatch_interrogative-total-yn_La-maestra-vive-en-Paris.wav,./stim/wavs/castilian_mismatch_interrogative-total-yn_La-maestra-vive-en-Paris.wav,./stim/wavs/chilean_mismatch_interrogative-total-yn_La-maestra-vive-en-Paris.wav,./stim/wavs/cuban_mismatch_interrogative-total-yn_La-maestra-vive-en-Paris.wav,./stim/wavs/mexican_mismatch_interrogative-total-yn_La-maestra-vive-en-Paris.wav,./stim/wavs/peruvian_mismatch_interrogative-total-yn_La-maestra-vive-en-Paris.wav,./stim/wavs/puertorican_mismatch_interrogative-total-yn_La-maestra-vive-en-Paris.wav,,,,,,,,,,,,,,,,,,,,,,,,,,,,,,,,,,,,,,,,,,,,,,,,,,,,,,,,
,,,,,,,605796ef0a4b32599655c385,605b45a4d25f287719a41696,605baa3c8b9160854b9da221,Puerto Rico,East coast,13 or older,no,2021-03-24_17h08.57.413,empathy_intonation_perc,2020.2.10,Linux x86_64,60,,,,,,,,,,0,castilian,0,1,1.698895,0,52,52,13,1,14,./stim/wavs/andalusian_match_declarative-narrow-focus_Maria-bebe-el-vino.wav,./stim/wavs/argentine_match_declarative-narrow-focus_Maria-bebe-el-vino.wav,./stim/wavs/castilian_match_declarative-narrow-focus_Maria-bebe-el-vino.wav,./stim/wavs/chilean_match_declarative-narrow-focus_Maria-bebe-el-vino.wav,./stim/wavs/cuban_match_declarative-narrow-focus_Maria-bebe-el-vino.wav,./stim/wavs/mexican_match_declarative-narrow-focus_Maria-bebe-el-vino.wav,./stim/wavs/peruvian_match_declarative-narrow-focus_Maria-bebe-el-vino.wav,./stim/wavs/puertorican_match_declarative-narrow-focus_Maria-bebe-el-vino.wav,,,,,,,,,,,,,,,,,,,,,,,,,,,,,,,,,,,,,,,,,,,,,,,,,,,,,,,,
,,,,,,,605796ef0a4b32599655c385,605b45a4d25f287719a41696,605baa3c8b9160854b9da221,Puerto Rico,East coast,13 or older,no,2021-03-24_17h08.57.413,empathy_intonation_perc,2020.2.10,Linux x86_64,60,,,,,,,,,,1,peruvian,0,0,2.08728,0,53,53,61,1,62,./stim/wavs/andalusian_mismatch_interrogative-total-yn_Mi-madre-come-la-fruta.wav,./stim/wavs/argentine_mismatch_interrogative-total-yn_Mi-madre-come-la-fruta.wav,./stim/wavs/castilian_mismatch_interrogative-total-yn_Mi-madre-come-la-fruta.wav,./stim/wavs/chilean_mismatch_interrogative-total-yn_Mi-madre-come-la-fruta.wav,./stim/wavs/cuban_mismatch_interrogative-total-yn_Mi-madre-come-la-fruta.wav,./stim/wavs/mexican_mismatch_interrogative-total-yn_Mi-madre-come-la-fruta.wav,./stim/wavs/peruvian_mismatch_interrogative-total-yn_Mi-madre-come-la-fruta.wav,./stim/wavs/puertorican_mismatch_interrogative-total-yn_Mi-madre-come-la-fruta.wav,,,,,,,,,,,,,,,,,,,,,,,,,,,,,,,,,,,,,,,,,,,,,,,,,,,,,,,,
,,,,,,,605796ef0a4b32599655c385,605b45a4d25f287719a41696,605baa3c8b9160854b9da221,Puerto Rico,East coast,13 or older,no,2021-03-24_17h08.57.413,empathy_intonation_perc,2020.2.10,Linux x86_64,60,,,,,,,,,,1,castilian,0,0,3.295005,0,54,54,53,1,54,./stim/wavs/andalusian_mismatch_interrogative-partial-wh_Por-que-oia-el-rio.wav,./stim/wavs/argentine_mismatch_interrogative-partial-wh_Por-que-oia-el-rio.wav,./stim/wavs/castilian_mismatch_interrogative-partial-wh_Por-que-oia-el-rio.wav,./stim/wavs/chilean_mismatch_interrogative-partial-wh_Por-que-oia-el-rio.wav,./stim/wavs/cuban_mismatch_interrogative-partial-wh_Por-que-oia-el-rio.wav,./stim/wavs/mexican_mismatch_interrogative-partial-wh_Por-que-oia-el-rio.wav,./stim/wavs/peruvian_mismatch_interrogative-partial-wh_Por-que-oia-el-rio.wav,./stim/wavs/puertorican_mismatch_interrogative-partial-wh_Por-que-oia-el-rio.wav,,,,,,,,,,,,,,,,,,,,,,,,,,,,,,,,,,,,,,,,,,,,,,,,,,,,,,,,
,,,,,,,605796ef0a4b32599655c385,605b45a4d25f287719a41696,605baa3c8b9160854b9da221,Puerto Rico,East coast,13 or older,no,2021-03-24_17h08.57.413,empathy_intonation_perc,2020.2.10,Linux x86_64,60,,,,,,,,,,1,argentine,1,1,1.919495,0,55,55,20,1,21,./stim/wavs/andalusian_match_interrogative-partial-wh_Por-que-abre-el-regalo.wav,./stim/wavs/argentine_match_interrogative-partial-wh_Por-que-abre-el-regalo.wav,./stim/wavs/castilian_match_interrogative-partial-wh_Por-que-abre-el-regalo.wav,./stim/wavs/chilean_match_interrogative-partial-wh_Por-que-abre-el-regalo.wav,./stim/wavs/cuban_match_interrogative-partial-wh_Por-que-abre-el-regalo.wav,./stim/wavs/mexican_match_interrogative-partial-wh_Por-que-abre-el-regalo.wav,./stim/wavs/peruvian_match_interrogative-partial-wh_Por-que-abre-el-regalo.wav,./stim/wavs/puertorican_match_interrogative-partial-wh_Por-que-abre-el-regalo.wav,,,,,,,,,,,,,,,,,,,,,,,,,,,,,,,,,,,,,,,,,,,,,,,,,,,,,,,,
,,,,,,,605796ef0a4b32599655c385,605b45a4d25f287719a41696,605baa3c8b9160854b9da221,Puerto Rico,East coast,13 or older,no,2021-03-24_17h08.57.413,empathy_intonation_perc,2020.2.10,Linux x86_64,60,,,,,,,,,,1,peruvian,0,0,1.865525,0,56,56,30,1,31,./stim/wavs/andalusian_match_interrogative-total-yn_Mariano-habla-del-tiempo.wav,./stim/wavs/argentine_match_interrogative-total-yn_Mariano-habla-del-tiempo.wav,./stim/wavs/castilian_match_interrogative-total-yn_Mariano-habla-del-tiempo.wav,./stim/wavs/chilean_match_interrogative-total-yn_Mariano-habla-del-tiempo.wav,./stim/wavs/cuban_match_interrogative-total-yn_Mariano-habla-del-tiempo.wav,./stim/wavs/mexican_match_interrogative-total-yn_Mariano-habla-del-tiempo.wav,./stim/wavs/peruvian_match_interrogative-total-yn_Mariano-habla-del-tiempo.wav,./stim/wavs/puertorican_match_interrogative-total-yn_Mariano-habla-del-tiempo.wav,,,,,,,,,,,,,,,,,,,,,,,,,,,,,,,,,,,,,,,,,,,,,,,,,,,,,,,,
,,,,,,,605796ef0a4b32599655c385,605b45a4d25f287719a41696,605baa3c8b9160854b9da221,Puerto Rico,East coast,13 or older,no,2021-03-24_17h08.57.413,empathy_intonation_perc,2020.2.10,Linux x86_64,60,,,,,,,,,,0,puertorican,0,1,1.587785,0,57,57,39,1,40,./stim/wavs/andalusian_mismatch_declarative-broad-focus_Mi-tia-odia-la-lluvia.wav,./stim/wavs/argentine_mismatch_declarative-broad-focus_Mi-tia-odia-la-lluvia.wav,./stim/wavs/castilian_mismatch_declarative-broad-focus_Mi-tia-odia-la-lluvia.wav,./stim/wavs/chilean_mismatch_declarative-broad-focus_Mi-tia-odia-la-lluvia.wav,./stim/wavs/cuban_mismatch_declarative-broad-focus_Mi-tia-odia-la-lluvia.wav,./stim/wavs/mexican_mismatch_declarative-broad-focus_Mi-tia-odia-la-lluvia.wav,./stim/wavs/peruvian_mismatch_declarative-broad-focus_Mi-tia-odia-la-lluvia.wav,./stim/wavs/puertorican_mismatch_declarative-broad-focus_Mi-tia-odia-la-lluvia.wav,,,,,,,,,,,,,,,,,,,,,,,,,,,,,,,,,,,,,,,,,,,,,,,,,,,,,,,,
,,,,,,,605796ef0a4b32599655c385,605b45a4d25f287719a41696,605baa3c8b9160854b9da221,Puerto Rico,East coast,13 or older,no,2021-03-24_17h08.57.413,empathy_intonation_perc,2020.2.10,Linux x86_64,60,,,,,,,,,,1,chilean,1,1,1.21978,0,58,58,52,1,53,./stim/wavs/andalusian_mismatch_interrogative-partial-wh_Por-que-odiaba-la-lluvia.wav,./stim/wavs/argentine_mismatch_interrogative-partial-wh_Por-que-odiaba-la-lluvia.wav,./stim/wavs/castilian_mismatch_interrogative-partial-wh_Por-que-odiaba-la-lluvia.wav,./stim/wavs/chilean_mismatch_interrogative-partial-wh_Por-que-odiaba-la-lluvia.wav,./stim/wavs/cuban_mismatch_interrogative-partial-wh_Por-que-odiaba-la-lluvia.wav,./stim/wavs/mexican_mismatch_interrogative-partial-wh_Por-que-odiaba-la-lluvia.wav,./stim/wavs/peruvian_mismatch_interrogative-partial-wh_Por-que-odiaba-la-lluvia.wav,./stim/wavs/puertorican_mismatch_interrogative-partial-wh_Por-que-odiaba-la-lluvia.wav,,,,,,,,,,,,,,,,,,,,,,,,,,,,,,,,,,,,,,,,,,,,,,,,,,,,,,,,
,,,,,,,605796ef0a4b32599655c385,605b45a4d25f287719a41696,605baa3c8b9160854b9da221,Puerto Rico,East coast,13 or older,no,2021-03-24_17h08.57.413,empathy_intonation_perc,2020.2.10,Linux x86_64,60,,,,,,,,,,0,mexican,0,1,1.61911,0,59,59,42,1,43,./stim/wavs/andalusian_mismatch_declarative-narrow-focus_El-nino-oye-el-rio.wav,./stim/wavs/argentine_mismatch_declarative-narrow-focus_El-nino-oye-el-rio.wav,./stim/wavs/castilian_mismatch_declarative-narrow-focus_El-nino-oye-el-rio.wav,./stim/wavs/chilean_mismatch_declarative-narrow-focus_El-nino-oye-el-rio.wav,./stim/wavs/cuban_mismatch_declarative-narrow-focus_El-nino-oye-el-rio.wav,./stim/wavs/mexican_mismatch_declarative-narrow-focus_El-nino-oye-el-rio.wav,./stim/wavs/peruvian_mismatch_declarative-narrow-focus_El-nino-oye-el-rio.wav,./stim/wavs/puertorican_mismatch_declarative-narrow-focus_El-nino-oye-el-rio.wav,,,,,,,,,,,,,,,,,,,,,,,,,,,,,,,,,,,,,,,,,,,,,,,,,,,,,,,,
,,,,,,,605796ef0a4b32599655c385,605b45a4d25f287719a41696,605baa3c8b9160854b9da221,Puerto Rico,East coast,13 or older,no,2021-03-24_17h08.57.413,empathy_intonation_perc,2020.2.10,Linux x86_64,60,,,,,,,,,,1,cuban,1,1,0.950605,0,60,60,23,1,24,./stim/wavs/andalusian_match_interrogative-partial-wh_Por-que-iba-a-Bolivia.wav,./stim/wavs/argentine_match_interrogative-partial-wh_Por-que-iba-a-Bolivia.wav,./stim/wavs/castilian_match_interrogative-partial-wh_Por-que-iba-a-Bolivia.wav,./stim/wavs/chilean_match_interrogative-partial-wh_Por-que-iba-a-Bolivia.wav,./stim/wavs/cuban_match_interrogative-partial-wh_Por-que-iba-a-Bolivia.wav,./stim/wavs/mexican_match_interrogative-partial-wh_Por-que-iba-a-Bolivia.wav,./stim/wavs/peruvian_match_interrogative-partial-wh_Por-que-iba-a-Bolivia.wav,./stim/wavs/puertorican_match_interrogative-partial-wh_Por-que-iba-a-Bolivia.wav,,,,,,,,,,,,,,,,,,,,,,,,,,,,,,,,,,,,,,,,,,,,,,,,,,,,,,,,
,,,,,,,605796ef0a4b32599655c385,605b45a4d25f287719a41696,605baa3c8b9160854b9da221,Puerto Rico,East coast,13 or older,no,2021-03-24_17h08.57.413,empathy_intonation_perc,2020.2.10,Linux x86_64,60,,,,,,,,,,1,chilean,1,1,0.723065,0,61,61,51,1,52,./stim/wavs/andalusian_mismatch_interrogative-partial-wh_Por-que-desayuna-muy-bien.wav,./stim/wavs/argentine_mismatch_interrogative-partial-wh_Por-que-desayuna-muy-bien.wav,./stim/wavs/castilian_mismatch_interrogative-partial-wh_Por-que-desayuna-muy-bien.wav,./stim/wavs/chilean_mismatch_interrogative-partial-wh_Por-que-desayuna-muy-bien.wav,./stim/wavs/cuban_mismatch_interrogative-partial-wh_Por-que-desayuna-muy-bien.wav,./stim/wavs/mexican_mismatch_interrogative-partial-wh_Por-que-desayuna-muy-bien.wav,./stim/wavs/peruvian_mismatch_interrogative-partial-wh_Por-que-desayuna-muy-bien.wav,./stim/wavs/puertorican_mismatch_interrogative-partial-wh_Por-que-desayuna-muy-bien.wav,,,,,,,,,,,,,,,,,,,,,,,,,,,,,,,,,,,,,,,,,,,,,,,,,,,,,,,,
,,,,,,,605796ef0a4b32599655c385,605b45a4d25f287719a41696,605baa3c8b9160854b9da221,Puerto Rico,East coast,13 or older,no,2021-03-24_17h08.57.413,empathy_intonation_perc,2020.2.10,Linux x86_64,60,,,,,,,,,,1,castilian,1,1,1.883905,0,62,62,50,1,51,./stim/wavs/andalusian_mismatch_interrogative-partial-wh_Cuando-miraba-la-luna.wav,./stim/wavs/argentine_mismatch_interrogative-partial-wh_Cuando-miraba-la-luna.wav,./stim/wavs/castilian_mismatch_interrogative-partial-wh_Cuando-miraba-la-luna.wav,./stim/wavs/chilean_mismatch_interrogative-partial-wh_Cuando-miraba-la-luna.wav,./stim/wavs/cuban_mismatch_interrogative-partial-wh_Cuando-miraba-la-luna.wav,./stim/wavs/mexican_mismatch_interrogative-partial-wh_Cuando-miraba-la-luna.wav,./stim/wavs/peruvian_mismatch_interrogative-partial-wh_Cuando-miraba-la-luna.wav,./stim/wavs/puertorican_mismatch_interrogative-partial-wh_Cuando-miraba-la-luna.wav,,,,,,,,,,,,,,,,,,,,,,,,,,,,,,,,,,,,,,,,,,,,,,,,,,,,,,,,
,,,,,,,605796ef0a4b32599655c385,605b45a4d25f287719a41696,605baa3c8b9160854b9da221,Puerto Rico,East coast,13 or older,no,2021-03-24_17h08.57.413,empathy_intonation_perc,2020.2.10,Linux x86_64,60,,,,,,,,,,0,castilian,0,1,2.0201,0,63,63,46,1,47,./stim/wavs/andalusian_mismatch_declarative-narrow-focus_Mi-novio-viene-del-lago.wav,./stim/wavs/argentine_mismatch_declarative-narrow-focus_Mi-novio-viene-del-lago.wav,./stim/wavs/castilian_mismatch_declarative-narrow-focus_Mi-novio-viene-del-lago.wav,./stim/wavs/chilean_mismatch_declarative-narrow-focus_Mi-novio-viene-del-lago.wav,./stim/wavs/cuban_mismatch_declarative-narrow-focus_Mi-novio-viene-del-lago.wav,./stim/wavs/mexican_mismatch_declarative-narrow-focus_Mi-novio-viene-del-lago.wav,./stim/wavs/peruvian_mismatch_declarative-narrow-focus_Mi-novio-viene-del-lago.wav,./stim/wavs/puertorican_mismatch_declarative-narrow-focus_Mi-novio-viene-del-lago.wav,,,,,,,,,,,,,,,,,,,,,,,,,,,,,,,,,,,,,,,,,,,,,,,,,,,,,,,,
,,,,,,,605796ef0a4b32599655c385,605b45a4d25f287719a41696,605baa3c8b9160854b9da221,Puerto Rico,East coast,13 or older,no,2021-03-24_17h08.57.413,empathy_intonation_perc,2020.2.10,Linux x86_64,60,,,,,,,,,,,,,,,,,,,,,,,,,,,,,h,1,3.317445,0,0,0,0,1,,,,,,,,,,,,,,,,,,,,,,,,,,,,,,,,,,,,,,,,,,,,,,,,
,,,,,"Great! Now we will move on. The next task consists of about 60 trials, in each of which you will see a string of letters. 
  
  Your task is to decide whether this is a real Spanish word or not.",(press the spacebar to continue),605796ef0a4b32599655c385,605b45a4d25f287719a41696,605baa3c8b9160854b9da221,Puerto Rico,East coast,13 or older,no,2021-03-24_17h08.57.413,empathy_intonation_perc,2020.2.10,Linux x86_64,60,,,,,,,,,,,,,,,,,,,,,,,,,,,,,,,,,,,,,0,0,0,0,1,,,,,,,,,,,,,,,,,,,,,,,,,,,,,,,,,,,,,,,,,,,
,,,,,"If you think it is an existing Spanish word, you type '1' (for 'REAL'), and if you think it is not an existing Spanish word, you type '0' (for 'FAKE').",(press the spacebar to continue),605796ef0a4b32599655c385,605b45a4d25f287719a41696,605baa3c8b9160854b9da221,Puerto Rico,East coast,13 or older,no,2021-03-24_17h08.57.413,empathy_intonation_perc,2020.2.10,Linux x86_64,60,,,,,,,,,,,,,,,,,,,,,,,,,,,,,,,,,,,,,0,1,1,1,1,,,,,,,,,,,,,,,,,,,,,,,,,,,,,,,,,,,,,,,,,,,
,,,,,"If you are sure that the word exists, even though you dont know its exact meaning, you may still respond '1' (REAL). 
  
  But if you are not sure if it is an existing word, you should respond '0' (FAKE).
  
  Let's do a practice round...",(press the spacebar to continue),605796ef0a4b32599655c385,605b45a4d25f287719a41696,605baa3c8b9160854b9da221,Puerto Rico,East coast,13 or older,no,2021-03-24_17h08.57.413,empathy_intonation_perc,2020.2.10,Linux x86_64,60,,,,,,,,,,,,,,,,,,,,,,,,,,,,,,,,,,,,,0,2,2,2,1,,,,,,,,,,,,,,,,,,,,,,,,,,,,,,,,,,,,,,,,,,,
,,,,,,,605796ef0a4b32599655c385,605b45a4d25f287719a41696,605baa3c8b9160854b9da221,Puerto Rico,East coast,13 or older,no,2021-03-24_17h08.57.413,empathy_intonation_perc,2020.2.10,Linux x86_64,60,,,,,,,,,,0,,,,,,,,,,,,,,,,,,,,,,,,,,,,,,,,0,1,1.786085,0,0,0,0,1,0,depiste,REAL,FAKE,,,,,,,,,,,,,,,,,,,,,,,,,,,,,,,
,,,,,,,605796ef0a4b32599655c385,605b45a4d25f287719a41696,605baa3c8b9160854b9da221,Puerto Rico,East coast,13 or older,no,2021-03-24_17h08.57.413,empathy_intonation_perc,2020.2.10,Linux x86_64,60,,,,,,,,,,1,,,,,,,,,,,,,,,,,,,,,,,,,,,,,,,,1,1,2.114755,0,1,1,1,1,0,s,REAL,FAKE,,,,,,,,,,,,,,,,,,,,,,,,,,,,,,,
,,,,,,,605796ef0a4b32599655c385,605b45a4d25f287719a41696,605baa3c8b9160854b9da221,Puerto Rico,East coast,13 or older,no,2021-03-24_17h08.57.413,empathy_intonation_perc,2020.2.10,Linux x86_64,60,,,,,,,,,,0,,,,,,,,,,,,,,,,,,,,,,,,,,,,,,,,0,1,1.21648,0,2,2,2,1,0,con,REAL,FAKE,,,,,,,,,,,,,,,,,,,,,,,,,,,,,,,
,,,,,,,605796ef0a4b32599655c385,605b45a4d25f287719a41696,605baa3c8b9160854b9da221,Puerto Rico,East coast,13 or older,no,2021-03-24_17h08.57.413,empathy_intonation_perc,2020.2.10,Linux x86_64,60,,,,,,,,,,0,,,,,,,,,,,,,,,,,,,,,,,,,,,,,,,,1,0,0.79371,0,3,3,3,1,0,calpar,REAL,FAKE,,,,,,,,,,,,,,,,,,,,,,,,,,,,,,,
,,,,,,,605796ef0a4b32599655c385,605b45a4d25f287719a41696,605baa3c8b9160854b9da221,Puerto Rico,East coast,13 or older,no,2021-03-24_17h08.57.413,empathy_intonation_perc,2020.2.10,Linux x86_64,60,,,,,,,,,,0,,,,,,,,,,,,,,,,,,,,,,,,,,,,,,,,0,1,1.12845,0,4,4,4,1,0,joten,REAL,FAKE,,,,,,,,,,,,,,,,,,,,,,,,,,,,,,,
,,,,,,,605796ef0a4b32599655c385,605b45a4d25f287719a41696,605baa3c8b9160854b9da221,Puerto Rico,East coast,13 or older,no,2021-03-24_17h08.57.413,empathy_intonation_perc,2020.2.10,Linux x86_64,60,,,,,,,,,,1,,,,,,,,,,,,,,,,,,,,,,,,,,,,,,,,1,1,1.279935,0,5,5,5,1,0,sacapuntas,REAL,FAKE,,,,,,,,,,,,,,,,,,,,,,,,,,,,,,,
,,,,,,,605796ef0a4b32599655c385,605b45a4d25f287719a41696,605baa3c8b9160854b9da221,Puerto Rico,East coast,13 or older,no,2021-03-24_17h08.57.413,empathy_intonation_perc,2020.2.10,Linux x86_64,60,,,,,,,,,,0,,,,,,,,,,,,,,,,,,,,,,,,,,,,,,,,1,0,0.81361,0,6,6,6,1,0,priba,REAL,FAKE,,,,,,,,,,,,,,,,,,,,,,,,,,,,,,,
,,,,,,,605796ef0a4b32599655c385,605b45a4d25f287719a41696,605baa3c8b9160854b9da221,Puerto Rico,East coast,13 or older,no,2021-03-24_17h08.57.413,empathy_intonation_perc,2020.2.10,Linux x86_64,60,,,,,,,,,,0,,,,,,,,,,,,,,,,,,,,,,,,,,,,,,,,1,0,0.93271,0,7,7,7,1,0,pelasula,REAL,FAKE,,,,,,,,,,,,,,,,,,,,,,,,,,,,,,,
,,,,,,,605796ef0a4b32599655c385,605b45a4d25f287719a41696,605baa3c8b9160854b9da221,Puerto Rico,East coast,13 or older,no,2021-03-24_17h08.57.413,empathy_intonation_perc,2020.2.10,Linux x86_64,60,,,,,,,,,,1,,,,,,,,,,,,,,,,,,,,,,,,,,,,,,,,1,1,0.732875,0,8,8,8,1,0,bien,REAL,FAKE,,,,,,,,,,,,,,,,,,,,,,,,,,,,,,,
,,,,,,,605796ef0a4b32599655c385,605b45a4d25f287719a41696,605baa3c8b9160854b9da221,Puerto Rico,East coast,13 or older,no,2021-03-24_17h08.57.413,empathy_intonation_perc,2020.2.10,Linux x86_64,60,,,,,,,,,,1,,,,,,,,,,,,,,,,,,,,,,,,,,,,,,,,1,1,0.70028,0,9,9,9,1,0,casa,REAL,FAKE,,,,,,,,,,,,,,,,,,,,,,,,,,,,,,,
,,,,,,,605796ef0a4b32599655c385,605b45a4d25f287719a41696,605baa3c8b9160854b9da221,Puerto Rico,East coast,13 or older,no,2021-03-24_17h08.57.413,empathy_intonation_perc,2020.2.10,Linux x86_64,60,,,,,,,,,,0,,,,,,,,,,,,,,,,,,,,,,,,,,,,,,,,0,1,0.796485,0,10,10,10,1,0,lejo,REAL,FAKE,,,,,,,,,,,,,,,,,,,,,,,,,,,,,,,
,,,,,,,605796ef0a4b32599655c385,605b45a4d25f287719a41696,605baa3c8b9160854b9da221,Puerto Rico,East coast,13 or older,no,2021-03-24_17h08.57.413,empathy_intonation_perc,2020.2.10,Linux x86_64,60,,,,,,,,,,0,,,,,,,,,,,,,,,,,,,,,,,,,,,,,,,,1,0,0.996905,0,11,11,11,1,0,pretantas,REAL,FAKE,,,,,,,,,,,,,,,,,,,,,,,,,,,,,,,
,,,,,,,605796ef0a4b32599655c385,605b45a4d25f287719a41696,605baa3c8b9160854b9da221,Puerto Rico,East coast,13 or older,no,2021-03-24_17h08.57.413,empathy_intonation_perc,2020.2.10,Linux x86_64,60,,,,,,,,,,1,,,,,,,,,,,,,,,,,,,,,,,,,,,,,,,,,,,,,,,,68,alegre,,,1,1,1.16575,0,0,0,67,1,REAL,FAKE,,,,,,,,,,,,,,,,,,,,,
,,,,,,,605796ef0a4b32599655c385,605b45a4d25f287719a41696,605baa3c8b9160854b9da221,Puerto Rico,East coast,13 or older,no,2021-03-24_17h08.57.413,empathy_intonation_perc,2020.2.10,Linux x86_64,60,,,,,,,,,,1,,,,,,,,,,,,,,,,,,,,,,,,,,,,,,,,,,,,,,,,44,cuchara,,,1,1,0.89807,0,1,1,43,1,REAL,FAKE,,,,,,,,,,,,,,,,,,,,,
,,,,,,,605796ef0a4b32599655c385,605b45a4d25f287719a41696,605baa3c8b9160854b9da221,Puerto Rico,East coast,13 or older,no,2021-03-24_17h08.57.413,empathy_intonation_perc,2020.2.10,Linux x86_64,60,,,,,,,,,,0,,,,,,,,,,,,,,,,,,,,,,,,,,,,,,,,,,,,,,,,1,terzo,,,1,0,1.042115,0,2,2,0,1,REAL,FAKE,,,,,,,,,,,,,,,,,,,,,
,,,,,,,605796ef0a4b32599655c385,605b45a4d25f287719a41696,605baa3c8b9160854b9da221,Puerto Rico,East coast,13 or older,no,2021-03-24_17h08.57.413,empathy_intonation_perc,2020.2.10,Linux x86_64,60,,,,,,,,,,0,,,,,,,,,,,,,,,,,,,,,,,,,,,,,,,,,,,,,,,,33,pauca,,,1,0,0.781685,0,3,3,32,1,REAL,FAKE,,,,,,,,,,,,,,,,,,,,,
,,,,,,,605796ef0a4b32599655c385,605b45a4d25f287719a41696,605baa3c8b9160854b9da221,Puerto Rico,East coast,13 or older,no,2021-03-24_17h08.57.413,empathy_intonation_perc,2020.2.10,Linux x86_64,60,,,,,,,,,,1,,,,,,,,,,,,,,,,,,,,,,,,,,,,,,,,,,,,,,,,76,atar,,,0,0,0.59711,0,4,4,75,1,REAL,FAKE,,,,,,,,,,,,,,,,,,,,,
,,,,,,,605796ef0a4b32599655c385,605b45a4d25f287719a41696,605baa3c8b9160854b9da221,Puerto Rico,East coast,13 or older,no,2021-03-24_17h08.57.413,empathy_intonation_perc,2020.2.10,Linux x86_64,60,,,,,,,,,,0,,,,,,,,,,,,,,,,,,,,,,,,,,,,,,,,,,,,,,,,23,lampera,,,0,1,1.36507,0,5,5,22,1,REAL,FAKE,,,,,,,,,,,,,,,,,,,,,
,,,,,,,605796ef0a4b32599655c385,605b45a4d25f287719a41696,605baa3c8b9160854b9da221,Puerto Rico,East coast,13 or older,no,2021-03-24_17h08.57.413,empathy_intonation_perc,2020.2.10,Linux x86_64,60,,,,,,,,,,1,,,,,,,,,,,,,,,,,,,,,,,,,,,,,,,,,,,,,,,,62,flaco,,,0,0,0.777275,0,6,6,61,1,REAL,FAKE,,,,,,,,,,,,,,,,,,,,,
,,,,,,,605796ef0a4b32599655c385,605b45a4d25f287719a41696,605baa3c8b9160854b9da221,Puerto Rico,East coast,13 or older,no,2021-03-24_17h08.57.413,empathy_intonation_perc,2020.2.10,Linux x86_64,60,,,,,,,,,,1,,,,,,,,,,,,,,,,,,,,,,,,,,,,,,,,,,,,,,,,57,tacao,,,0,0,0.91407,0,7,7,56,1,REAL,FAKE,,,,,,,,,,,,,,,,,,,,,
,,,,,,,605796ef0a4b32599655c385,605b45a4d25f287719a41696,605baa3c8b9160854b9da221,Puerto Rico,East coast,13 or older,no,2021-03-24_17h08.57.413,empathy_intonation_perc,2020.2.10,Linux x86_64,60,,,,,,,,,,0,,,,,,,,,,,,,,,,,,,,,,,,,,,,,,,,,,,,,,,,21,capillo,,,1,0,0.61664,0,8,8,20,1,REAL,FAKE,,,,,,,,,,,,,,,,,,,,,
,,,,,,,605796ef0a4b32599655c385,605b45a4d25f287719a41696,605baa3c8b9160854b9da221,Puerto Rico,East coast,13 or older,no,2021-03-24_17h08.57.413,empathy_intonation_perc,2020.2.10,Linux x86_64,60,,,,,,,,,,1,,,,,,,,,,,,,,,,,,,,,,,,,,,,,,,,,,,,,,,,28,merodear,,,0,0,0.7694,0,9,9,27,1,REAL,FAKE,,,,,,,,,,,,,,,,,,,,,
,,,,,,,605796ef0a4b32599655c385,605b45a4d25f287719a41696,605baa3c8b9160854b9da221,Puerto Rico,East coast,13 or older,no,2021-03-24_17h08.57.413,empathy_intonation_perc,2020.2.10,Linux x86_64,60,,,,,,,,,,0,,,,,,,,,,,,,,,,,,,,,,,,,,,,,,,,,,,,,,,,87,grodo,,,0,1,0.81748,0,10,10,86,1,REAL,FAKE,,,,,,,,,,,,,,,,,,,,,
,,,,,,,605796ef0a4b32599655c385,605b45a4d25f287719a41696,605baa3c8b9160854b9da221,Puerto Rico,East coast,13 or older,no,2021-03-24_17h08.57.413,empathy_intonation_perc,2020.2.10,Linux x86_64,60,,,,,,,,,,1,,,,,,,,,,,,,,,,,,,,,,,,,,,,,,,,,,,,,,,,60,matar,,,1,1,0.751495,0,11,11,59,1,REAL,FAKE,,,,,,,,,,,,,,,,,,,,,
,,,,,,,605796ef0a4b32599655c385,605b45a4d25f287719a41696,605baa3c8b9160854b9da221,Puerto Rico,East coast,13 or older,no,2021-03-24_17h08.57.413,empathy_intonation_perc,2020.2.10,Linux x86_64,60,,,,,,,,,,0,,,,,,,,,,,,,,,,,,,,,,,,,,,,,,,,,,,,,,,,27,acutacin,,,0,1,0.62755,0,12,12,26,1,REAL,FAKE,,,,,,,,,,,,,,,,,,,,,
,,,,,,,605796ef0a4b32599655c385,605b45a4d25f287719a41696,605baa3c8b9160854b9da221,Puerto Rico,East coast,13 or older,no,2021-03-24_17h08.57.413,empathy_intonation_perc,2020.2.10,Linux x86_64,60,,,,,,,,,,0,,,,,,,,,,,,,,,,,,,,,,,,,,,,,,,,,,,,,,,,79,tropaje,,,1,0,0.7654,0,13,13,78,1,REAL,FAKE,,,,,,,,,,,,,,,,,,,,,
,,,,,,,605796ef0a4b32599655c385,605b45a4d25f287719a41696,605baa3c8b9160854b9da221,Puerto Rico,East coast,13 or older,no,2021-03-24_17h08.57.413,empathy_intonation_perc,2020.2.10,Linux x86_64,60,,,,,,,,,,0,,,,,,,,,,,,,,,,,,,,,,,,,,,,,,,,,,,,,,,,70,temblo,,,1,0,1.013135,0,14,14,69,1,REAL,FAKE,,,,,,,,,,,,,,,,,,,,,
,,,,,,,605796ef0a4b32599655c385,605b45a4d25f287719a41696,605baa3c8b9160854b9da221,Puerto Rico,East coast,13 or older,no,2021-03-24_17h08.57.413,empathy_intonation_perc,2020.2.10,Linux x86_64,60,,,,,,,,,,1,,,,,,,,,,,,,,,,,,,,,,,,,,,,,,,,,,,,,,,,65,bizcocho,,,0,0,0.75714,0,15,15,64,1,REAL,FAKE,,,,,,,,,,,,,,,,,,,,,
,,,,,,,605796ef0a4b32599655c385,605b45a4d25f287719a41696,605baa3c8b9160854b9da221,Puerto Rico,East coast,13 or older,no,2021-03-24_17h08.57.413,empathy_intonation_perc,2020.2.10,Linux x86_64,60,,,,,,,,,,1,,,,,,,,,,,,,,,,,,,,,,,,,,,,,,,,,,,,,,,,2,pellizcar,,,0,0,0.736715,0,16,16,1,1,REAL,FAKE,,,,,,,,,,,,,,,,,,,,,
,,,,,,,605796ef0a4b32599655c385,605b45a4d25f287719a41696,605baa3c8b9160854b9da221,Puerto Rico,East coast,13 or older,no,2021-03-24_17h08.57.413,empathy_intonation_perc,2020.2.10,Linux x86_64,60,,,,,,,,,,1,,,,,,,,,,,,,,,,,,,,,,,,,,,,,,,,,,,,,,,,46,martillo,,,1,1,0.54812,0,17,17,45,1,REAL,FAKE,,,,,,,,,,,,,,,,,,,,,
,,,,,,,605796ef0a4b32599655c385,605b45a4d25f287719a41696,605baa3c8b9160854b9da221,Puerto Rico,East coast,13 or older,no,2021-03-24_17h08.57.413,empathy_intonation_perc,2020.2.10,Linux x86_64,60,,,,,,,,,,1,,,,,,,,,,,,,,,,,,,,,,,,,,,,,,,,,,,,,,,,37,granuja,,,1,1,0.61584,0,18,18,36,1,REAL,FAKE,,,,,,,,,,,,,,,,,,,,,
,,,,,,,605796ef0a4b32599655c385,605b45a4d25f287719a41696,605baa3c8b9160854b9da221,Puerto Rico,East coast,13 or older,no,2021-03-24_17h08.57.413,empathy_intonation_perc,2020.2.10,Linux x86_64,60,,,,,,,,,,0,,,,,,,,,,,,,,,,,,,,,,,,,,,,,,,,,,,,,,,,53,vegada,,,1,0,0.53857,0,19,19,52,1,REAL,FAKE,,,,,,,,,,,,,,,,,,,,,
,,,,,,,605796ef0a4b32599655c385,605b45a4d25f287719a41696,605baa3c8b9160854b9da221,Puerto Rico,East coast,13 or older,no,2021-03-24_17h08.57.413,empathy_intonation_perc,2020.2.10,Linux x86_64,60,,,,,,,,,,0,,,,,,,,,,,,,,,,,,,,,,,,,,,,,,,,,,,,,,,,82,empirador,,,1,0,0.768805,0,20,20,81,1,REAL,FAKE,,,,,,,,,,,,,,,,,,,,,
,,,,,,,605796ef0a4b32599655c385,605b45a4d25f287719a41696,605baa3c8b9160854b9da221,Puerto Rico,East coast,13 or older,no,2021-03-24_17h08.57.413,empathy_intonation_perc,2020.2.10,Linux x86_64,60,,,,,,,,,,1,,,,,,,,,,,,,,,,,,,,,,,,,,,,,,,,,,,,,,,,67,cabello,,,1,1,0.69889,0,21,21,66,1,REAL,FAKE,,,,,,,,,,,,,,,,,,,,,
,,,,,,,605796ef0a4b32599655c385,605b45a4d25f287719a41696,605baa3c8b9160854b9da221,Puerto Rico,East coast,13 or older,no,2021-03-24_17h08.57.413,empathy_intonation_perc,2020.2.10,Linux x86_64,60,,,,,,,,,,0,,,,,,,,,,,,,,,,,,,,,,,,,,,,,,,,,,,,,,,,30,alardio,,,1,0,0.617705,0,22,22,29,1,REAL,FAKE,,,,,,,,,,,,,,,,,,,,,
,,,,,,,605796ef0a4b32599655c385,605b45a4d25f287719a41696,605baa3c8b9160854b9da221,Puerto Rico,East coast,13 or older,no,2021-03-24_17h08.57.413,empathy_intonation_perc,2020.2.10,Linux x86_64,60,,,,,,,,,,0,,,,,,,,,,,,,,,,,,,,,,,,,,,,,,,,,,,,,,,,42,cadallo,,,1,0,0.79932,0,23,23,41,1,REAL,FAKE,,,,,,,,,,,,,,,,,,,,,
,,,,,,,605796ef0a4b32599655c385,605b45a4d25f287719a41696,605baa3c8b9160854b9da221,Puerto Rico,East coast,13 or older,no,2021-03-24_17h08.57.413,empathy_intonation_perc,2020.2.10,Linux x86_64,60,,,,,,,,,,1,,,,,,,,,,,,,,,,,,,,,,,,,,,,,,,,,,,,,,,,11,cenefa,,,0,0,0.833655,0,24,24,10,1,REAL,FAKE,,,,,,,,,,,,,,,,,,,,,
,,,,,,,605796ef0a4b32599655c385,605b45a4d25f287719a41696,605baa3c8b9160854b9da221,Puerto Rico,East coast,13 or older,no,2021-03-24_17h08.57.413,empathy_intonation_perc,2020.2.10,Linux x86_64,60,,,,,,,,,,1,,,,,,,,,,,,,,,,,,,,,,,,,,,,,,,,,,,,,,,,73,hervidor,,,0,0,1.033115,0,25,25,72,1,REAL,FAKE,,,,,,,,,,,,,,,,,,,,,
,,,,,,,605796ef0a4b32599655c385,605b45a4d25f287719a41696,605baa3c8b9160854b9da221,Puerto Rico,East coast,13 or older,no,2021-03-24_17h08.57.413,empathy_intonation_perc,2020.2.10,Linux x86_64,60,,,,,,,,,,1,,,,,,,,,,,,,,,,,,,,,,,,,,,,,,,,,,,,,,,,89,prisa,,,1,1,0.63022,0,26,26,88,1,REAL,FAKE,,,,,,,,,,,,,,,,,,,,,
,,,,,,,605796ef0a4b32599655c385,605b45a4d25f287719a41696,605baa3c8b9160854b9da221,Puerto Rico,East coast,13 or older,no,2021-03-24_17h08.57.413,empathy_intonation_perc,2020.2.10,Linux x86_64,60,,,,,,,,,,1,,,,,,,,,,,,,,,,,,,,,,,,,,,,,,,,,,,,,,,,24,ltigo,,,0,0,0.612115,0,27,27,23,1,REAL,FAKE,,,,,,,,,,,,,,,,,,,,,
,,,,,,,605796ef0a4b32599655c385,605b45a4d25f287719a41696,605baa3c8b9160854b9da221,Puerto Rico,East coast,13 or older,no,2021-03-24_17h08.57.413,empathy_intonation_perc,2020.2.10,Linux x86_64,60,,,,,,,,,,1,,,,,,,,,,,,,,,,,,,,,,,,,,,,,,,,,,,,,,,,5,zapato,,,0,0,0.76357,0,28,28,4,1,REAL,FAKE,,,,,,,,,,,,,,,,,,,,,
,,,,,,,605796ef0a4b32599655c385,605b45a4d25f287719a41696,605baa3c8b9160854b9da221,Puerto Rico,East coast,13 or older,no,2021-03-24_17h08.57.413,empathy_intonation_perc,2020.2.10,Linux x86_64,60,,,,,,,,,,1,,,,,,,,,,,,,,,,,,,,,,,,,,,,,,,,,,,,,,,,55,nevar,,,0,0,0.946425,0,29,29,54,1,REAL,FAKE,,,,,,,,,,,,,,,,,,,,,
,,,,,,,605796ef0a4b32599655c385,605b45a4d25f287719a41696,605baa3c8b9160854b9da221,Puerto Rico,East coast,13 or older,no,2021-03-24_17h08.57.413,empathy_intonation_perc,2020.2.10,Linux x86_64,60,,,,,,,,,,1,,,,,,,,,,,,,,,,,,,,,,,,,,,,,,,,,,,,,,,,22,lacayo,,,0,0,0.80426,0,30,30,21,1,REAL,FAKE,,,,,,,,,,,,,,,,,,,,,
,,,,,,,605796ef0a4b32599655c385,605b45a4d25f287719a41696,605baa3c8b9160854b9da221,Puerto Rico,East coast,13 or older,no,2021-03-24_17h08.57.413,empathy_intonation_perc,2020.2.10,Linux x86_64,60,,,,,,,,,,0,,,,,,,,,,,,,,,,,,,,,,,,,,,,,,,,,,,,,,,,66,hacido,,,1,0,0.55215,0,31,31,65,1,REAL,FAKE,,,,,,,,,,,,,,,,,,,,,
,,,,,,,605796ef0a4b32599655c385,605b45a4d25f287719a41696,605baa3c8b9160854b9da221,Puerto Rico,East coast,13 or older,no,2021-03-24_17h08.57.413,empathy_intonation_perc,2020.2.10,Linux x86_64,60,,,,,,,,,,0,,,,,,,,,,,,,,,,,,,,,,,,,,,,,,,,,,,,,,,,10,antar,,,0,1,0.714235,0,32,32,9,1,REAL,FAKE,,,,,,,,,,,,,,,,,,,,,
,,,,,,,605796ef0a4b32599655c385,605b45a4d25f287719a41696,605baa3c8b9160854b9da221,Puerto Rico,East coast,13 or older,no,2021-03-24_17h08.57.413,empathy_intonation_perc,2020.2.10,Linux x86_64,60,,,,,,,,,,1,,,,,,,,,,,,,,,,,,,,,,,,,,,,,,,,,,,,,,,,85,lad,,,0,0,0.730485,0,33,33,84,1,REAL,FAKE,,,,,,,,,,,,,,,,,,,,,
,,,,,,,605796ef0a4b32599655c385,605b45a4d25f287719a41696,605baa3c8b9160854b9da221,Puerto Rico,East coast,13 or older,no,2021-03-24_17h08.57.413,empathy_intonation_perc,2020.2.10,Linux x86_64,60,,,,,,,,,,1,,,,,,,,,,,,,,,,,,,,,,,,,,,,,,,,,,,,,,,,64,orgulloso,,,0,0,0.88378,0,34,34,63,1,REAL,FAKE,,,,,,,,,,,,,,,,,,,,,
,,,,,,,605796ef0a4b32599655c385,605b45a4d25f287719a41696,605baa3c8b9160854b9da221,Puerto Rico,East coast,13 or older,no,2021-03-24_17h08.57.413,empathy_intonation_perc,2020.2.10,Linux x86_64,60,,,,,,,,,,0,,,,,,,,,,,,,,,,,,,,,,,,,,,,,,,,,,,,,,,,18,arsa,,,1,0,0.884035,0,35,35,17,1,REAL,FAKE,,,,,,,,,,,,,,,,,,,,,
,,,,,,,605796ef0a4b32599655c385,605b45a4d25f287719a41696,605baa3c8b9160854b9da221,Puerto Rico,East coast,13 or older,no,2021-03-24_17h08.57.413,empathy_intonation_perc,2020.2.10,Linux x86_64,60,,,,,,,,,,0,,,,,,,,,,,,,,,,,,,,,,,,,,,,,,,,,,,,,,,,74,cintro,,,1,0,0.54552,0,36,36,73,1,REAL,FAKE,,,,,,,,,,,,,,,,,,,,,
,,,,,,,605796ef0a4b32599655c385,605b45a4d25f287719a41696,605baa3c8b9160854b9da221,Puerto Rico,East coast,13 or older,no,2021-03-24_17h08.57.413,empathy_intonation_perc,2020.2.10,Linux x86_64,60,,,,,,,,,,0,,,,,,,,,,,,,,,,,,,,,,,,,,,,,,,,,,,,,,,,29,decar,,,1,0,0.54964,0,37,37,28,1,REAL,FAKE,,,,,,,,,,,,,,,,,,,,,
,,,,,,,605796ef0a4b32599655c385,605b45a4d25f287719a41696,605baa3c8b9160854b9da221,Puerto Rico,East coast,13 or older,no,2021-03-24_17h08.57.413,empathy_intonation_perc,2020.2.10,Linux x86_64,60,,,,,,,,,,1,,,,,,,,,,,,,,,,,,,,,,,,,,,,,,,,,,,,,,,,41,rebuscar,,,0,0,0.68395,0,38,38,40,1,REAL,FAKE,,,,,,,,,,,,,,,,,,,,,
,,,,,,,605796ef0a4b32599655c385,605b45a4d25f287719a41696,605baa3c8b9160854b9da221,Puerto Rico,East coast,13 or older,no,2021-03-24_17h08.57.413,empathy_intonation_perc,2020.2.10,Linux x86_64,60,,,,,,,,,,1,,,,,,,,,,,,,,,,,,,,,,,,,,,,,,,,,,,,,,,,49,ganar,,,1,1,0.601915,0,39,39,48,1,REAL,FAKE,,,,,,,,,,,,,,,,,,,,,
,,,,,,,605796ef0a4b32599655c385,605b45a4d25f287719a41696,605baa3c8b9160854b9da221,Puerto Rico,East coast,13 or older,no,2021-03-24_17h08.57.413,empathy_intonation_perc,2020.2.10,Linux x86_64,60,,,,,,,,,,1,,,,,,,,,,,,,,,,,,,,,,,,,,,,,,,,,,,,,,,,77,tiburn,,,0,0,5.28601,0,40,40,76,1,REAL,FAKE,,,,,,,,,,,,,,,,,,,,,
,,,,,,,605796ef0a4b32599655c385,605b45a4d25f287719a41696,605baa3c8b9160854b9da221,Puerto Rico,East coast,13 or older,no,2021-03-24_17h08.57.413,empathy_intonation_perc,2020.2.10,Linux x86_64,60,,,,,,,,,,1,,,,,,,,,,,,,,,,,,,,,,,,,,,,,,,,,,,,,,,,36,loro,,,0,0,0.754455,0,41,41,35,1,REAL,FAKE,,,,,,,,,,,,,,,,,,,,,
,,,,,,,605796ef0a4b32599655c385,605b45a4d25f287719a41696,605baa3c8b9160854b9da221,Puerto Rico,East coast,13 or older,no,2021-03-24_17h08.57.413,empathy_intonation_perc,2020.2.10,Linux x86_64,60,,,,,,,,,,1,,,,,,,,,,,,,,,,,,,,,,,,,,,,,,,,,,,,,,,,25,bisagra,,,0,0,0.632445,0,42,42,24,1,REAL,FAKE,,,,,,,,,,,,,,,,,,,,,
,,,,,,,605796ef0a4b32599655c385,605b45a4d25f287719a41696,605baa3c8b9160854b9da221,Puerto Rico,East coast,13 or older,no,2021-03-24_17h08.57.413,empathy_intonation_perc,2020.2.10,Linux x86_64,60,,,,,,,,,,1,,,,,,,,,,,,,,,,,,,,,,,,,,,,,,,,,,,,,,,,81,pozo,,,1,1,0.598165,0,43,43,80,1,REAL,FAKE,,,,,,,,,,,,,,,,,,,,,
,,,,,,,605796ef0a4b32599655c385,605b45a4d25f287719a41696,605baa3c8b9160854b9da221,Puerto Rico,East coast,13 or older,no,2021-03-24_17h08.57.413,empathy_intonation_perc,2020.2.10,Linux x86_64,60,,,,,,,,,,0,,,,,,,,,,,,,,,,,,,,,,,,,,,,,,,,,,,,,,,,72,pemicin,,,0,1,0.380065,0,44,44,71,1,REAL,FAKE,,,,,,,,,,,,,,,,,,,,,
,,,,,,,605796ef0a4b32599655c385,605b45a4d25f287719a41696,605baa3c8b9160854b9da221,Puerto Rico,East coast,13 or older,no,2021-03-24_17h08.57.413,empathy_intonation_perc,2020.2.10,Linux x86_64,60,,,,,,,,,,0,,,,,,,,,,,,,,,,,,,,,,,,,,,,,,,,,,,,,,,,35,rompido,,,0,1,0.748355,0,45,45,34,1,REAL,FAKE,,,,,,,,,,,,,,,,,,,,,
,,,,,,,605796ef0a4b32599655c385,605b45a4d25f287719a41696,605baa3c8b9160854b9da221,Puerto Rico,East coast,13 or older,no,2021-03-24_17h08.57.413,empathy_intonation_perc,2020.2.10,Linux x86_64,60,,,,,,,,,,1,,,,,,,,,,,,,,,,,,,,,,,,,,,,,,,,,,,,,,,,59,besar,,,1,1,1.6046,0,46,46,58,1,REAL,FAKE,,,,,,,,,,,,,,,,,,,,,
,,,,,,,605796ef0a4b32599655c385,605b45a4d25f287719a41696,605baa3c8b9160854b9da221,Puerto Rico,East coast,13 or older,no,2021-03-24_17h08.57.413,empathy_intonation_perc,2020.2.10,Linux x86_64,60,,,,,,,,,,1,,,,,,,,,,,,,,,,,,,,,,,,,,,,,,,,,,,,,,,,9,hacha,,,1,1,0.54974,0,47,47,8,1,REAL,FAKE,,,,,,,,,,,,,,,,,,,,,
,,,,,,,605796ef0a4b32599655c385,605b45a4d25f287719a41696,605baa3c8b9160854b9da221,Puerto Rico,East coast,13 or older,no,2021-03-24_17h08.57.413,empathy_intonation_perc,2020.2.10,Linux x86_64,60,,,,,,,,,,1,,,,,,,,,,,,,,,,,,,,,,,,,,,,,,,,,,,,,,,,43,canela,,,1,1,0.615835,0,48,48,42,1,REAL,FAKE,,,,,,,,,,,,,,,,,,,,,
,,,,,,,605796ef0a4b32599655c385,605b45a4d25f287719a41696,605baa3c8b9160854b9da221,Puerto Rico,East coast,13 or older,no,2021-03-24_17h08.57.413,empathy_intonation_perc,2020.2.10,Linux x86_64,60,,,,,,,,,,1,,,,,,,,,,,,,,,,,,,,,,,,,,,,,,,,,,,,,,,,14,yunque,,,0,0,0.66598,0,49,49,13,1,REAL,FAKE,,,,,,,,,,,,,,,,,,,,,
,,,,,,,605796ef0a4b32599655c385,605b45a4d25f287719a41696,605baa3c8b9160854b9da221,Puerto Rico,East coast,13 or older,no,2021-03-24_17h08.57.413,empathy_intonation_perc,2020.2.10,Linux x86_64,60,,,,,,,,,,0,,,,,,,,,,,,,,,,,,,,,,,,,,,,,,,,,,,,,,,,4,batilln,,,0,1,0.70101,0,50,50,3,1,REAL,FAKE,,,,,,,,,,,,,,,,,,,,,
,,,,,,,605796ef0a4b32599655c385,605b45a4d25f287719a41696,605baa3c8b9160854b9da221,Puerto Rico,East coast,13 or older,no,2021-03-24_17h08.57.413,empathy_intonation_perc,2020.2.10,Linux x86_64,60,,,,,,,,,,1,,,,,,,,,,,,,,,,,,,,,,,,,,,,,,,,,,,,,,,,26,secuestro,,,0,0,0.647725,0,51,51,25,1,REAL,FAKE,,,,,,,,,,,,,,,,,,,,,
,,,,,,,605796ef0a4b32599655c385,605b45a4d25f287719a41696,605baa3c8b9160854b9da221,Puerto Rico,East coast,13 or older,no,2021-03-24_17h08.57.413,empathy_intonation_perc,2020.2.10,Linux x86_64,60,,,,,,,,,,1,,,,,,,,,,,,,,,,,,,,,,,,,,,,,,,,,,,,,,,,71,polvoriento,,,1,1,0.56572,0,52,52,70,1,REAL,FAKE,,,,,,,,,,,,,,,,,,,,,
,,,,,,,605796ef0a4b32599655c385,605b45a4d25f287719a41696,605baa3c8b9160854b9da221,Puerto Rico,East coast,13 or older,no,2021-03-24_17h08.57.413,empathy_intonation_perc,2020.2.10,Linux x86_64,60,,,,,,,,,,0,,,,,,,,,,,,,,,,,,,,,,,,,,,,,,,,,,,,,,,,47,cartinar,,,1,0,0.715815,0,53,53,46,1,REAL,FAKE,,,,,,,,,,,,,,,,,,,,,
,,,,,,,605796ef0a4b32599655c385,605b45a4d25f287719a41696,605baa3c8b9160854b9da221,Puerto Rico,East coast,13 or older,no,2021-03-24_17h08.57.413,empathy_intonation_perc,2020.2.10,Linux x86_64,60,,,,,,,,,,1,,,,,,,,,,,,,,,,,,,,,,,,,,,,,,,,,,,,,,,,61,seda,,,0,0,0.712435,0,54,54,60,1,REAL,FAKE,,,,,,,,,,,,,,,,,,,,,
,,,,,,,605796ef0a4b32599655c385,605b45a4d25f287719a41696,605baa3c8b9160854b9da221,Puerto Rico,East coast,13 or older,no,2021-03-24_17h08.57.413,empathy_intonation_perc,2020.2.10,Linux x86_64,60,,,,,,,,,,0,,,,,,,,,,,,,,,,,,,,,,,,,,,,,,,,,,,,,,,,63,esposante,,,0,1,0.45458,0,55,55,62,1,REAL,FAKE,,,,,,,,,,,,,,,,,,,,,
,,,,,,,605796ef0a4b32599655c385,605b45a4d25f287719a41696,605baa3c8b9160854b9da221,Puerto Rico,East coast,13 or older,no,2021-03-24_17h08.57.413,empathy_intonation_perc,2020.2.10,Linux x86_64,60,,,,,,,,,,1,,,,,,,,,,,,,,,,,,,,,,,,,,,,,,,,,,,,,,,,20,vido,,,0,0,0.41599,0,56,56,19,1,REAL,FAKE,,,,,,,,,,,,,,,,,,,,,
,,,,,,,605796ef0a4b32599655c385,605b45a4d25f287719a41696,605baa3c8b9160854b9da221,Puerto Rico,East coast,13 or older,no,2021-03-24_17h08.57.413,empathy_intonation_perc,2020.2.10,Linux x86_64,60,,,,,,,,,,1,,,,,,,,,,,,,,,,,,,,,,,,,,,,,,,,,,,,,,,,15,regar,,,1,1,0.66549,0,57,57,14,1,REAL,FAKE,,,,,,,,,,,,,,,,,,,,,
,,,,,,,605796ef0a4b32599655c385,605b45a4d25f287719a41696,605baa3c8b9160854b9da221,Puerto Rico,East coast,13 or older,no,2021-03-24_17h08.57.413,empathy_intonation_perc,2020.2.10,Linux x86_64,60,,,,,,,,,,0,,,,,,,,,,,,,,,,,,,,,,,,,,,,,,,,,,,,,,,,16,abracer,,,0,1,0.48606,0,58,58,15,1,REAL,FAKE,,,,,,,,,,,,,,,,,,,,,
,,,,,,,605796ef0a4b32599655c385,605b45a4d25f287719a41696,605baa3c8b9160854b9da221,Puerto Rico,East coast,13 or older,no,2021-03-24_17h08.57.413,empathy_intonation_perc,2020.2.10,Linux x86_64,60,,,,,,,,,,1,,,,,,,,,,,,,,,,,,,,,,,,,,,,,,,,,,,,,,,,51,candado,,,1,1,0.412295,0,59,59,50,1,REAL,FAKE,,,,,,,,,,,,,,,,,,,,,
,,,,,,,605796ef0a4b32599655c385,605b45a4d25f287719a41696,605baa3c8b9160854b9da221,Puerto Rico,East coast,13 or older,no,2021-03-24_17h08.57.413,empathy_intonation_perc,2020.2.10,Linux x86_64,60,,,,,,,,,,0,,,,,,,,,,,,,,,,,,,,,,,,,,,,,,,,,,,,,,,,8,cadea,,,0,1,0.320385,0,60,60,7,1,REAL,FAKE,,,,,,,,,,,,,,,,,,,,,
,,,,,,,605796ef0a4b32599655c385,605b45a4d25f287719a41696,605baa3c8b9160854b9da221,Puerto Rico,East coast,13 or older,no,2021-03-24_17h08.57.413,empathy_intonation_perc,2020.2.10,Linux x86_64,60,,,,,,,,,,1,,,,,,,,,,,,,,,,,,,,,,,,,,,,,,,,,,,,,,,,39,torpe,,,0,0,0.73035,0,61,61,38,1,REAL,FAKE,,,,,,,,,,,,,,,,,,,,,
,,,,,,,605796ef0a4b32599655c385,605b45a4d25f287719a41696,605baa3c8b9160854b9da221,Puerto Rico,East coast,13 or older,no,2021-03-24_17h08.57.413,empathy_intonation_perc,2020.2.10,Linux x86_64,60,,,,,,,,,,1,,,,,,,,,,,,,,,,,,,,,,,,,,,,,,,,,,,,,,,,52,camisa,,,0,0,0.571385,0,62,62,51,1,REAL,FAKE,,,,,,,,,,,,,,,,,,,,,
,,,,,,,605796ef0a4b32599655c385,605b45a4d25f287719a41696,605baa3c8b9160854b9da221,Puerto Rico,East coast,13 or older,no,2021-03-24_17h08.57.413,empathy_intonation_perc,2020.2.10,Linux x86_64,60,,,,,,,,,,1,,,,,,,,,,,,,,,,,,,,,,,,,,,,,,,,,,,,,,,,3,pulmones,,,0,0,0.60431,0,63,63,2,1,REAL,FAKE,,,,,,,,,,,,,,,,,,,,,
,,,,,,,605796ef0a4b32599655c385,605b45a4d25f287719a41696,605baa3c8b9160854b9da221,Puerto Rico,East coast,13 or older,no,2021-03-24_17h08.57.413,empathy_intonation_perc,2020.2.10,Linux x86_64,60,,,,,,,,,,1,,,,,,,,,,,,,,,,,,,,,,,,,,,,,,,,,,,,,,,,38,estornudar,,,1,1,0.266345,0,64,64,37,1,REAL,FAKE,,,,,,,,,,,,,,,,,,,,,
,,,,,,,605796ef0a4b32599655c385,605b45a4d25f287719a41696,605baa3c8b9160854b9da221,Puerto Rico,East coast,13 or older,no,2021-03-24_17h08.57.413,empathy_intonation_perc,2020.2.10,Linux x86_64,60,,,,,,,,,,0,,,,,,,,,,,,,,,,,,,,,,,,,,,,,,,,,,,,,,,,50,flamida,,,0,1,0.34889,0,65,65,49,1,REAL,FAKE,,,,,,,,,,,,,,,,,,,,,
,,,,,,,605796ef0a4b32599655c385,605b45a4d25f287719a41696,605baa3c8b9160854b9da221,Puerto Rico,East coast,13 or older,no,2021-03-24_17h08.57.413,empathy_intonation_perc,2020.2.10,Linux x86_64,60,,,,,,,,,,1,,,,,,,,,,,,,,,,,,,,,,,,,,,,,,,,,,,,,,,,45,jilguero,,,1,1,0.38141,0,66,66,44,1,REAL,FAKE,,,,,,,,,,,,,,,,,,,,,
,,,,,,,605796ef0a4b32599655c385,605b45a4d25f287719a41696,605baa3c8b9160854b9da221,Puerto Rico,East coast,13 or older,no,2021-03-24_17h08.57.413,empathy_intonation_perc,2020.2.10,Linux x86_64,60,,,,,,,,,,1,,,,,,,,,,,,,,,,,,,,,,,,,,,,,,,,,,,,,,,,40,alfombra,,,0,0,0.36168,0,67,67,39,1,REAL,FAKE,,,,,,,,,,,,,,,,,,,,,
,,,,,,,605796ef0a4b32599655c385,605b45a4d25f287719a41696,605baa3c8b9160854b9da221,Puerto Rico,East coast,13 or older,no,2021-03-24_17h08.57.413,empathy_intonation_perc,2020.2.10,Linux x86_64,60,,,,,,,,,,1,,,,,,,,,,,,,,,,,,,,,,,,,,,,,,,,,,,,,,,,31,pandilla,,,1,1,0.745675,0,68,68,30,1,REAL,FAKE,,,,,,,,,,,,,,,,,,,,,
,,,,,,,605796ef0a4b32599655c385,605b45a4d25f287719a41696,605baa3c8b9160854b9da221,Puerto Rico,East coast,13 or older,no,2021-03-24_17h08.57.413,empathy_intonation_perc,2020.2.10,Linux x86_64,60,,,,,,,,,,1,,,,,,,,,,,,,,,,,,,,,,,,,,,,,,,,,,,,,,,,88,acantilado,,,0,0,0.64875,0,69,69,87,1,REAL,FAKE,,,,,,,,,,,,,,,,,,,,,
,,,,,,,605796ef0a4b32599655c385,605b45a4d25f287719a41696,605baa3c8b9160854b9da221,Puerto Rico,East coast,13 or older,no,2021-03-24_17h08.57.413,empathy_intonation_perc,2020.2.10,Linux x86_64,60,,,,,,,,,,1,,,,,,,,,,,,,,,,,,,,,,,,,,,,,,,,,,,,,,,,56,musgo,,,1,1,0.53007,0,70,70,55,1,REAL,FAKE,,,,,,,,,,,,,,,,,,,,,
,,,,,,,605796ef0a4b32599655c385,605b45a4d25f287719a41696,605baa3c8b9160854b9da221,Puerto Rico,East coast,13 or older,no,2021-03-24_17h08.57.413,empathy_intonation_perc,2020.2.10,Linux x86_64,60,,,,,,,,,,0,,,,,,,,,,,,,,,,,,,,,,,,,,,,,,,,,,,,,,,,17,floroso,,,0,1,0.401105,0,71,71,16,1,REAL,FAKE,,,,,,,,,,,,,,,,,,,,,
,,,,,,,605796ef0a4b32599655c385,605b45a4d25f287719a41696,605baa3c8b9160854b9da221,Puerto Rico,East coast,13 or older,no,2021-03-24_17h08.57.413,empathy_intonation_perc,2020.2.10,Linux x86_64,60,,,,,,,,,,1,,,,,,,,,,,,,,,,,,,,,,,,,,,,,,,,,,,,,,,,13,helar,,,0,0,1.02015,0,72,72,12,1,REAL,FAKE,,,,,,,,,,,,,,,,,,,,,
,,,,,,,605796ef0a4b32599655c385,605b45a4d25f287719a41696,605baa3c8b9160854b9da221,Puerto Rico,East coast,13 or older,no,2021-03-24_17h08.57.413,empathy_intonation_perc,2020.2.10,Linux x86_64,60,,,,,,,,,,0,,,,,,,,,,,,,,,,,,,,,,,,,,,,,,,,,,,,,,,,58,plaudir,,,0,1,0.77901,0,73,73,57,1,REAL,FAKE,,,,,,,,,,,,,,,,,,,,,
,,,,,,,605796ef0a4b32599655c385,605b45a4d25f287719a41696,605baa3c8b9160854b9da221,Puerto Rico,East coast,13 or older,no,2021-03-24_17h08.57.413,empathy_intonation_perc,2020.2.10,Linux x86_64,60,,,,,,,,,,1,,,,,,,,,,,,,,,,,,,,,,,,,,,,,,,,,,,,,,,,78,frondoso,,,0,0,0.755235,0,74,74,77,1,REAL,FAKE,,,,,,,,,,,,,,,,,,,,,
,,,,,,,605796ef0a4b32599655c385,605b45a4d25f287719a41696,605baa3c8b9160854b9da221,Puerto Rico,East coast,13 or older,no,2021-03-24_17h08.57.413,empathy_intonation_perc,2020.2.10,Linux x86_64,60,,,,,,,,,,1,,,,,,,,,,,,,,,,,,,,,,,,,,,,,,,,,,,,,,,,48,ladrn,,,1,1,0.583375,0,75,75,47,1,REAL,FAKE,,,,,,,,,,,,,,,,,,,,,
,,,,,,,605796ef0a4b32599655c385,605b45a4d25f287719a41696,605baa3c8b9160854b9da221,Puerto Rico,East coast,13 or older,no,2021-03-24_17h08.57.413,empathy_intonation_perc,2020.2.10,Linux x86_64,60,,,,,,,,,,1,,,,,,,,,,,,,,,,,,,,,,,,,,,,,,,,,,,,,,,,86,barato,,,1,1,0.683325,0,76,76,85,1,REAL,FAKE,,,,,,,,,,,,,,,,,,,,,
,,,,,,,605796ef0a4b32599655c385,605b45a4d25f287719a41696,605baa3c8b9160854b9da221,Puerto Rico,East coast,13 or older,no,2021-03-24_17h08.57.413,empathy_intonation_perc,2020.2.10,Linux x86_64,60,,,,,,,,,,0,,,,,,,,,,,,,,,,,,,,,,,,,,,,,,,,,,,,,,,,19,brecedad,,,0,1,4.663565,0,77,77,18,1,REAL,FAKE,,,,,,,,,,,,,,,,,,,,,
,,,,,,,605796ef0a4b32599655c385,605b45a4d25f287719a41696,605baa3c8b9160854b9da221,Puerto Rico,East coast,13 or older,no,2021-03-24_17h08.57.413,empathy_intonation_perc,2020.2.10,Linux x86_64,60,,,,,,,,,,1,,,,,,,,,,,,,,,,,,,,,,,,,,,,,,,,,,,,,,,,34,aviso,,,1,1,0.742535,0,78,78,33,1,REAL,FAKE,,,,,,,,,,,,,,,,,,,,,
,,,,,,,605796ef0a4b32599655c385,605b45a4d25f287719a41696,605baa3c8b9160854b9da221,Puerto Rico,East coast,13 or older,no,2021-03-24_17h08.57.413,empathy_intonation_perc,2020.2.10,Linux x86_64,60,,,,,,,,,,1,,,,,,,,,,,,,,,,,,,,,,,,,,,,,,,,,,,,,,,,12,asesinato,,,1,1,0.562965,0,79,79,11,1,REAL,FAKE,,,,,,,,,,,,,,,,,,,,,
,,,,,,,605796ef0a4b32599655c385,605b45a4d25f287719a41696,605baa3c8b9160854b9da221,Puerto Rico,East coast,13 or older,no,2021-03-24_17h08.57.413,empathy_intonation_perc,2020.2.10,Linux x86_64,60,,,,,,,,,,1,,,,,,,,,,,,,,,,,,,,,,,,,,,,,,,,,,,,,,,,75,yacer,,,0,0,0.704435,0,80,80,74,1,REAL,FAKE,,,,,,,,,,,,,,,,,,,,,
,,,,,,,605796ef0a4b32599655c385,605b45a4d25f287719a41696,605baa3c8b9160854b9da221,Puerto Rico,East coast,13 or older,no,2021-03-24_17h08.57.413,empathy_intonation_perc,2020.2.10,Linux x86_64,60,,,,,,,,,,1,,,,,,,,,,,,,,,,,,,,,,,,,,,,,,,,,,,,,,,,90,clavel,,,0,0,0.748125,0,81,81,89,1,REAL,FAKE,,,,,,,,,,,,,,,,,,,,,
,,,,,,,605796ef0a4b32599655c385,605b45a4d25f287719a41696,605baa3c8b9160854b9da221,Puerto Rico,East coast,13 or older,no,2021-03-24_17h08.57.413,empathy_intonation_perc,2020.2.10,Linux x86_64,60,,,,,,,,,,1,,,,,,,,,,,,,,,,,,,,,,,,,,,,,,,,,,,,,,,,7,psimo,,,1,1,0.431875,0,82,82,6,1,REAL,FAKE,,,,,,,,,,,,,,,,,,,,,
,,,,,,,605796ef0a4b32599655c385,605b45a4d25f287719a41696,605baa3c8b9160854b9da221,Puerto Rico,East coast,13 or older,no,2021-03-24_17h08.57.413,empathy_intonation_perc,2020.2.10,Linux x86_64,60,,,,,,,,,,0,,,,,,,,,,,,,,,,,,,,,,,,,,,,,,,,,,,,,,,,32,fatacidad,,,0,1,0.852645,0,83,83,31,1,REAL,FAKE,,,,,,,,,,,,,,,,,,,,,
,,,,,,,605796ef0a4b32599655c385,605b45a4d25f287719a41696,605baa3c8b9160854b9da221,Puerto Rico,East coast,13 or older,no,2021-03-24_17h08.57.413,empathy_intonation_perc,2020.2.10,Linux x86_64,60,,,,,,,,,,1,,,,,,,,,,,,,,,,,,,,,,,,,,,,,,,,,,,,,,,,69,engatusar,,,1,1,0.670015,0,84,84,68,1,REAL,FAKE,,,,,,,,,,,,,,,,,,,,,
,,,,,,,605796ef0a4b32599655c385,605b45a4d25f287719a41696,605baa3c8b9160854b9da221,Puerto Rico,East coast,13 or older,no,2021-03-24_17h08.57.413,empathy_intonation_perc,2020.2.10,Linux x86_64,60,,,,,,,,,,1,,,,,,,,,,,,,,,,,,,,,,,,,,,,,,,,,,,,,,,,54,fomentar,,,0,0,1.26501,0,85,85,53,1,REAL,FAKE,,,,,,,,,,,,,,,,,,,,,
,,,,,,,605796ef0a4b32599655c385,605b45a4d25f287719a41696,605baa3c8b9160854b9da221,Puerto Rico,East coast,13 or older,no,2021-03-24_17h08.57.413,empathy_intonation_perc,2020.2.10,Linux x86_64,60,,,,,,,,,,1,,,,,,,,,,,,,,,,,,,,,,,,,,,,,,,,,,,,,,,,83,guante,,,1,1,0.62072,0,86,86,82,1,REAL,FAKE,,,,,,,,,,,,,,,,,,,,,
,,,,,,,605796ef0a4b32599655c385,605b45a4d25f287719a41696,605baa3c8b9160854b9da221,Puerto Rico,East coast,13 or older,no,2021-03-24_17h08.57.413,empathy_intonation_perc,2020.2.10,Linux x86_64,60,,,,,,,,,,1,,,,,,,,,,,,,,,,,,,,,,,,,,,,,,,,,,,,,,,,6,tergiversar,,,0,0,2.33342,0,87,87,5,1,REAL,FAKE,,,,,,,,,,,,,,,,,,,,,
,,,,,,,605796ef0a4b32599655c385,605b45a4d25f287719a41696,605baa3c8b9160854b9da221,Puerto Rico,East coast,13 or older,no,2021-03-24_17h08.57.413,empathy_intonation_perc,2020.2.10,Linux x86_64,60,,,,,,,,,,0,,,,,,,,,,,,,,,,,,,,,,,,,,,,,,,,,,,,,,,,84,escuto,,,1,0,0.72702,0,88,88,83,1,REAL,FAKE,,,,,,,,,,,,,,,,,,,,,
,,,,,,,605796ef0a4b32599655c385,605b45a4d25f287719a41696,605baa3c8b9160854b9da221,Puerto Rico,East coast,13 or older,no,2021-03-24_17h08.57.413,empathy_intonation_perc,2020.2.10,Linux x86_64,60,,,,,,,,,,1,,,,,,,,,,,,,,,,,,,,,,,,,,,,,,,,,,,,,,,,80,hormiga,,,1,1,2.380705,0,89,89,79,1,REAL,FAKE,,,,,,,,,,,,,,,,,,,,,
,,,,,,,605796ef0a4b32599655c385,605b45a4d25f287719a41696,605baa3c8b9160854b9da221,Puerto Rico,East coast,13 or older,no,2021-03-24_17h08.57.413,empathy_intonation_perc,2020.2.10,Linux x86_64,60,,,,,,,,,,,,,,,,,,,,,,,,,,,,,,,,,,,,,,,,,,,,,,,,,,,,,,,,,,,,,,,,4,1,1.55379,1,0,0,0,0,0,1,,,,,,,,,,,
,,,,,,,605796ef0a4b32599655c385,605b45a4d25f287719a41696,605baa3c8b9160854b9da221,Puerto Rico,East coast,13 or older,no,2021-03-24_17h08.57.413,empathy_intonation_perc,2020.2.10,Linux x86_64,60,,,,,,,,,,,,,,,,,,,,1,,,,,,,,,,,,,,,,,,,,,,,,,,,,,,,,,,,,,,,,,,,,,,,,,,,,,,4,0,0,0,0,1,I can easily tell if someone else wants to enter a conversation.,1,0,1,0
