instructions_2afc_loop.thisRepN,instructions_2afc_loop.thisTrialN,instructions_2afc_loop.thisN,instructions_2afc_loop.thisIndex,instructions_2afc_loop.ran,instructions_text,continue_text,participant,study_id,session,I am most familiar with Spanish from...*,What part of the US are you from?*,At what age did you begin learning Spanish?*,Are you proficient in any languages other than English/Spanish?*,date,expName,psychopyVersion,OS,frameRate,fbclid,key_resp_2afc_practice.keys,key_resp_2afc_practice.corr,key_resp_2afc_practice.rt,trials_2afc_practice_loop.thisRepN,trials_2afc_practice_loop.thisTrialN,trials_2afc_practice_loop.thisN,trials_2afc_practice_loop.thisIndex,trials_2afc_practice_loop.ran,path,correct_response,the_col,key_resp_2afc_trial.keys,key_resp_2afc_trial.corr,key_resp_2afc_trial.rt,trials_2afc_loop.thisRepN,trials_2afc_loop.thisTrialN,trials_2afc_loop.thisN,trials_2afc_loop.thisIndex,trials_2afc_loop.ran,item_num,andalusian,argentine,castilian,chilean,cuban,mexican,peruvian,puertorican,key_resp_ac1.keys,key_resp_ac1.corr,key_resp_ac1.rt,ac1_loop.thisRepN,ac1_loop.thisTrialN,ac1_loop.thisN,ac1_loop.thisIndex,ac1_loop.ran,instructions_lextale_loop.thisRepN,instructions_lextale_loop.thisTrialN,instructions_lextale_loop.thisN,instructions_lextale_loop.thisIndex,instructions_lextale_loop.ran,key_resp_lextale_practice.keys,key_resp_lextale_practice.corr,key_resp_lextale_practice.rt,trials_lextale_practice_loop.thisRepN,trials_lextale_practice_loop.thisTrialN,trials_lextale_practice_loop.thisN,trials_lextale_practice_loop.thisIndex,trials_lextale_practice_loop.ran,stim,word,prac_button_real,prac_button_false,key_resp_lextale_trial.keys,key_resp_lextale_trial.corr,key_resp_lextale_trial.rt,trials_lextale_loop.thisRepN,trials_lextale_loop.thisTrialN,trials_lextale_loop.thisN,trials_lextale_loop.thisIndex,trials_lextale_loop.ran,button_real,button_false,key_resp_ac2.keys,key_resp_ac2.corr,key_resp_ac2.rt,check_pass,check_fails,ac2_loop.thisRepN,ac2_loop.thisTrialN,ac2_loop.thisN,ac2_loop.thisIndex,ac2_loop.ran,slider_eq_trial.response,trials_eq_loop.thisRepN,trials_eq_loop.thisTrialN,trials_eq_loop.thisN,trials_eq_loop.thisIndex,trials_eq_loop.ran,item,is_test_item,is_distractor,is_agree_score,is_disagree_score
0,0,0,0,1,"In the following task you are going to hear a series of utterances. 

  You will decide if the utterances sound like questions or not using your keyboard.",(press the spacebar to continue),midd17,midd,ma,Mexico,Southwest,12 or younger,no,2021-03-27_19h16.57.365,empathy_intonation_perc,2020.2.10,Win32,60,IwAR3580Za733zFChdHsYfYZcqF0zhBYb-tsbZSAFWe2xHiPwy4sHcgkPvxB8,,,,,,,,,,,,,,,,,,,,,,,,,,,,,,,,,,,,,,,,,,,,,,,,,,,,,,,,,,,,,,,,,,,,,,,,,,,,,,,,,,,,
0,1,1,1,1,"If you believe the utterance is a question, type '1' (for 'yes') and if you do not 
  believe it is a question type '0' (for 'no').

  Let's practice a bit...",(press the spacebar to continue),midd17,midd,ma,Mexico,Southwest,12 or younger,no,2021-03-27_19h16.57.365,empathy_intonation_perc,2020.2.10,Win32,60,IwAR3580Za733zFChdHsYfYZcqF0zhBYb-tsbZSAFWe2xHiPwy4sHcgkPvxB8,,,,,,,,,,,,,,,,,,,,,,,,,,,,,,,,,,,,,,,,,,,,,,,,,,,,,,,,,,,,,,,,,,,,,,,,,,,,,,,,,,,,
,,,,,,,midd17,midd,ma,Mexico,Southwest,12 or younger,no,2021-03-27_19h16.57.365,empathy_intonation_perc,2020.2.10,Win32,60,IwAR3580Za733zFChdHsYfYZcqF0zhBYb-tsbZSAFWe2xHiPwy4sHcgkPvxB8,1,1,4.313455,0,0,0,3,1,./stim/wavs/mexican_question_filler_Felipe-no-tiene-contrasena.wav,1,,,,,,,,,,,,,,,,,,,,,,,,,,,,,,,,,,,,,,,,,,,,,,,,,,,,,,,,,,,,,,,,,,,,,,,,,,
,,,,,,,midd17,midd,ma,Mexico,Southwest,12 or younger,no,2021-03-27_19h16.57.365,empathy_intonation_perc,2020.2.10,Win32,60,IwAR3580Za733zFChdHsYfYZcqF0zhBYb-tsbZSAFWe2xHiPwy4sHcgkPvxB8,0,1,2.920115,0,1,1,5,1,./stim/wavs/andalusian_statement_filler_Alberto-nunca-se-afeita.wav,0,,,,,,,,,,,,,,,,,,,,,,,,,,,,,,,,,,,,,,,,,,,,,,,,,,,,,,,,,,,,,,,,,,,,,,,,,,
,,,,,,,midd17,midd,ma,Mexico,Southwest,12 or younger,no,2021-03-27_19h16.57.365,empathy_intonation_perc,2020.2.10,Win32,60,IwAR3580Za733zFChdHsYfYZcqF0zhBYb-tsbZSAFWe2xHiPwy4sHcgkPvxB8,1,1,2.489435,0,2,2,0,1,./stim/wavs/castilian_question_filler_Mi-esposo-conoce-al-chico.wav,1,,,,,,,,,,,,,,,,,,,,,,,,,,,,,,,,,,,,,,,,,,,,,,,,,,,,,,,,,,,,,,,,,,,,,,,,,,
,,,,,,,midd17,midd,ma,Mexico,Southwest,12 or younger,no,2021-03-27_19h16.57.365,empathy_intonation_perc,2020.2.10,Win32,60,IwAR3580Za733zFChdHsYfYZcqF0zhBYb-tsbZSAFWe2xHiPwy4sHcgkPvxB8,0,1,2.183395,0,3,3,7,1,./stim/wavs/puertorican_statement_filler_La-nina-pinta-con-su-amiga.wav,0,,,,,,,,,,,,,,,,,,,,,,,,,,,,,,,,,,,,,,,,,,,,,,,,,,,,,,,,,,,,,,,,,,,,,,,,,,
,,,,,,,midd17,midd,ma,Mexico,Southwest,12 or younger,no,2021-03-27_19h16.57.365,empathy_intonation_perc,2020.2.10,Win32,60,IwAR3580Za733zFChdHsYfYZcqF0zhBYb-tsbZSAFWe2xHiPwy4sHcgkPvxB8,1,1,1.63205,0,4,4,1,1,./stim/wavs/argentine_question_filler_Mi-vecino-habla-mucho.wav,1,,,,,,,,,,,,,,,,,,,,,,,,,,,,,,,,,,,,,,,,,,,,,,,,,,,,,,,,,,,,,,,,,,,,,,,,,,
,,,,,,,midd17,midd,ma,Mexico,Southwest,12 or younger,no,2021-03-27_19h16.57.365,empathy_intonation_perc,2020.2.10,Win32,60,IwAR3580Za733zFChdHsYfYZcqF0zhBYb-tsbZSAFWe2xHiPwy4sHcgkPvxB8,0,0,4.48254,0,5,5,2,1,./stim/wavs/chilean_question_filler_Mi-padre-cantaba-bien.wav,1,,,,,,,,,,,,,,,,,,,,,,,,,,,,,,,,,,,,,,,,,,,,,,,,,,,,,,,,,,,,,,,,,,,,,,,,,,
,,,,,,,midd17,midd,ma,Mexico,Southwest,12 or younger,no,2021-03-27_19h16.57.365,empathy_intonation_perc,2020.2.10,Win32,60,IwAR3580Za733zFChdHsYfYZcqF0zhBYb-tsbZSAFWe2xHiPwy4sHcgkPvxB8,0,1,2.439415,0,6,6,6,1,./stim/wavs/peruvian_statement_filler_El-nino-habla-con-su-madre.wav,0,,,,,,,,,,,,,,,,,,,,,,,,,,,,,,,,,,,,,,,,,,,,,,,,,,,,,,,,,,,,,,,,,,,,,,,,,,
,,,,,,,midd17,midd,ma,Mexico,Southwest,12 or younger,no,2021-03-27_19h16.57.365,empathy_intonation_perc,2020.2.10,Win32,60,IwAR3580Za733zFChdHsYfYZcqF0zhBYb-tsbZSAFWe2xHiPwy4sHcgkPvxB8,0,1,1.771715,0,7,7,4,1,./stim/wavs/cuban_statement_filler_Cocinabas-por-la-noche.wav,0,,,,,,,,,,,,,,,,,,,,,,,,,,,,,,,,,,,,,,,,,,,,,,,,,,,,,,,,,,,,,,,,,,,,,,,,,,
,,,,,,,midd17,midd,ma,Mexico,Southwest,12 or younger,no,2021-03-27_19h16.57.365,empathy_intonation_perc,2020.2.10,Win32,60,IwAR3580Za733zFChdHsYfYZcqF0zhBYb-tsbZSAFWe2xHiPwy4sHcgkPvxB8,,,,,,,,,,0,cuban,0,1,2.10504,0,0,0,43,1,44,./stim/wavs/andalusian_mismatch_declarative-narrow-focus_La-maestra-vive-en-Paris.wav,./stim/wavs/argentine_mismatch_declarative-narrow-focus_La-maestra-vive-en-Paris.wav,./stim/wavs/castilian_mismatch_declarative-narrow-focus_La-maestra-vive-en-Paris.wav,./stim/wavs/chilean_mismatch_declarative-narrow-focus_La-maestra-vive-en-Paris.wav,./stim/wavs/cuban_mismatch_declarative-narrow-focus_La-maestra-vive-en-Paris.wav,./stim/wavs/mexican_mismatch_declarative-narrow-focus_La-maestra-vive-en-Paris.wav,./stim/wavs/peruvian_mismatch_declarative-narrow-focus_La-maestra-vive-en-Paris.wav,./stim/wavs/puertorican_mismatch_declarative-narrow-focus_La-maestra-vive-en-Paris.wav,,,,,,,,,,,,,,,,,,,,,,,,,,,,,,,,,,,,,,,,,,,,,,,,,,,,,,,,
,,,,,,,midd17,midd,ma,Mexico,Southwest,12 or younger,no,2021-03-27_19h16.57.365,empathy_intonation_perc,2020.2.10,Win32,60,IwAR3580Za733zFChdHsYfYZcqF0zhBYb-tsbZSAFWe2xHiPwy4sHcgkPvxB8,,,,,,,,,,1,puertorican,0,0,1.98699,0,1,1,58,1,59,./stim/wavs/andalusian_mismatch_interrogative-total-yn_El-nino-oye-el-rio.wav,./stim/wavs/argentine_mismatch_interrogative-total-yn_El-nino-oye-el-rio.wav,./stim/wavs/castilian_mismatch_interrogative-total-yn_El-nino-oye-el-rio.wav,./stim/wavs/chilean_mismatch_interrogative-total-yn_El-nino-oye-el-rio.wav,./stim/wavs/cuban_mismatch_interrogative-total-yn_El-nino-oye-el-rio.wav,./stim/wavs/mexican_mismatch_interrogative-total-yn_El-nino-oye-el-rio.wav,./stim/wavs/peruvian_mismatch_interrogative-total-yn_El-nino-oye-el-rio.wav,./stim/wavs/puertorican_mismatch_interrogative-total-yn_El-nino-oye-el-rio.wav,,,,,,,,,,,,,,,,,,,,,,,,,,,,,,,,,,,,,,,,,,,,,,,,,,,,,,,,
,,,,,,,midd17,midd,ma,Mexico,Southwest,12 or younger,no,2021-03-27_19h16.57.365,empathy_intonation_perc,2020.2.10,Win32,60,IwAR3580Za733zFChdHsYfYZcqF0zhBYb-tsbZSAFWe2xHiPwy4sHcgkPvxB8,,,,,,,,,,0,peruvian,0,1,1.91499,0,2,2,37,1,38,./stim/wavs/andalusian_mismatch_declarative-broad-focus_Mi-madre-come-la-fruta.wav,./stim/wavs/argentine_mismatch_declarative-broad-focus_Mi-madre-come-la-fruta.wav,./stim/wavs/castilian_mismatch_declarative-broad-focus_Mi-madre-come-la-fruta.wav,./stim/wavs/chilean_mismatch_declarative-broad-focus_Mi-madre-come-la-fruta.wav,./stim/wavs/cuban_mismatch_declarative-broad-focus_Mi-madre-come-la-fruta.wav,./stim/wavs/mexican_mismatch_declarative-broad-focus_Mi-madre-come-la-fruta.wav,./stim/wavs/peruvian_mismatch_declarative-broad-focus_Mi-madre-come-la-fruta.wav,./stim/wavs/puertorican_mismatch_declarative-broad-focus_Mi-madre-come-la-fruta.wav,,,,,,,,,,,,,,,,,,,,,,,,,,,,,,,,,,,,,,,,,,,,,,,,,,,,,,,,
,,,,,,,midd17,midd,ma,Mexico,Southwest,12 or younger,no,2021-03-27_19h16.57.365,empathy_intonation_perc,2020.2.10,Win32,60,IwAR3580Za733zFChdHsYfYZcqF0zhBYb-tsbZSAFWe2xHiPwy4sHcgkPvxB8,,,,,,,,,,0,cuban,0,1,1.616605,0,3,3,14,1,15,./stim/wavs/andalusian_match_declarative-narrow-focus_Mariano-habla-del-tiempo.wav,./stim/wavs/argentine_match_declarative-narrow-focus_Mariano-habla-del-tiempo.wav,./stim/wavs/castilian_match_declarative-narrow-focus_Mariano-habla-del-tiempo.wav,./stim/wavs/chilean_match_declarative-narrow-focus_Mariano-habla-del-tiempo.wav,./stim/wavs/cuban_match_declarative-narrow-focus_Mariano-habla-del-tiempo.wav,./stim/wavs/mexican_match_declarative-narrow-focus_Mariano-habla-del-tiempo.wav,./stim/wavs/peruvian_match_declarative-narrow-focus_Mariano-habla-del-tiempo.wav,./stim/wavs/puertorican_match_declarative-narrow-focus_Mariano-habla-del-tiempo.wav,,,,,,,,,,,,,,,,,,,,,,,,,,,,,,,,,,,,,,,,,,,,,,,,,,,,,,,,
,,,,,,,midd17,midd,ma,Mexico,Southwest,12 or younger,no,2021-03-27_19h16.57.365,empathy_intonation_perc,2020.2.10,Win32,60,IwAR3580Za733zFChdHsYfYZcqF0zhBYb-tsbZSAFWe2xHiPwy4sHcgkPvxB8,,,,,,,,,,1,cuban,0,0,1.765245,0,4,4,20,1,21,./stim/wavs/andalusian_match_interrogative-partial-wh_Por-que-abre-el-regalo.wav,./stim/wavs/argentine_match_interrogative-partial-wh_Por-que-abre-el-regalo.wav,./stim/wavs/castilian_match_interrogative-partial-wh_Por-que-abre-el-regalo.wav,./stim/wavs/chilean_match_interrogative-partial-wh_Por-que-abre-el-regalo.wav,./stim/wavs/cuban_match_interrogative-partial-wh_Por-que-abre-el-regalo.wav,./stim/wavs/mexican_match_interrogative-partial-wh_Por-que-abre-el-regalo.wav,./stim/wavs/peruvian_match_interrogative-partial-wh_Por-que-abre-el-regalo.wav,./stim/wavs/puertorican_match_interrogative-partial-wh_Por-que-abre-el-regalo.wav,,,,,,,,,,,,,,,,,,,,,,,,,,,,,,,,,,,,,,,,,,,,,,,,,,,,,,,,
,,,,,,,midd17,midd,ma,Mexico,Southwest,12 or younger,no,2021-03-27_19h16.57.365,empathy_intonation_perc,2020.2.10,Win32,60,IwAR3580Za733zFChdHsYfYZcqF0zhBYb-tsbZSAFWe2xHiPwy4sHcgkPvxB8,,,,,,,,,,1,castilian,1,1,2.440135,0,5,5,30,1,31,./stim/wavs/andalusian_match_interrogative-total-yn_Mariano-habla-del-tiempo.wav,./stim/wavs/argentine_match_interrogative-total-yn_Mariano-habla-del-tiempo.wav,./stim/wavs/castilian_match_interrogative-total-yn_Mariano-habla-del-tiempo.wav,./stim/wavs/chilean_match_interrogative-total-yn_Mariano-habla-del-tiempo.wav,./stim/wavs/cuban_match_interrogative-total-yn_Mariano-habla-del-tiempo.wav,./stim/wavs/mexican_match_interrogative-total-yn_Mariano-habla-del-tiempo.wav,./stim/wavs/peruvian_match_interrogative-total-yn_Mariano-habla-del-tiempo.wav,./stim/wavs/puertorican_match_interrogative-total-yn_Mariano-habla-del-tiempo.wav,,,,,,,,,,,,,,,,,,,,,,,,,,,,,,,,,,,,,,,,,,,,,,,,,,,,,,,,
,,,,,,,midd17,midd,ma,Mexico,Southwest,12 or younger,no,2021-03-27_19h16.57.365,empathy_intonation_perc,2020.2.10,Win32,60,IwAR3580Za733zFChdHsYfYZcqF0zhBYb-tsbZSAFWe2xHiPwy4sHcgkPvxB8,,,,,,,,,,1,chilean,1,1,2.836545,0,6,6,56,1,57,./stim/wavs/andalusian_mismatch_interrogative-total-yn_El-bebe-comia-muy-bien.wav,./stim/wavs/argentine_mismatch_interrogative-total-yn_El-bebe-comia-muy-bien.wav,./stim/wavs/castilian_mismatch_interrogative-total-yn_El-bebe-comia-muy-bien.wav,./stim/wavs/chilean_mismatch_interrogative-total-yn_El-bebe-comia-muy-bien.wav,./stim/wavs/cuban_mismatch_interrogative-total-yn_El-bebe-comia-muy-bien.wav,./stim/wavs/mexican_mismatch_interrogative-total-yn_El-bebe-comia-muy-bien.wav,./stim/wavs/peruvian_mismatch_interrogative-total-yn_El-bebe-comia-muy-bien.wav,./stim/wavs/puertorican_mismatch_interrogative-total-yn_El-bebe-comia-muy-bien.wav,,,,,,,,,,,,,,,,,,,,,,,,,,,,,,,,,,,,,,,,,,,,,,,,,,,,,,,,
,,,,,,,midd17,midd,ma,Mexico,Southwest,12 or younger,no,2021-03-27_19h16.57.365,empathy_intonation_perc,2020.2.10,Win32,60,IwAR3580Za733zFChdHsYfYZcqF0zhBYb-tsbZSAFWe2xHiPwy4sHcgkPvxB8,,,,,,,,,,1,argentine,1,1,2.18825,0,7,7,59,1,60,./stim/wavs/andalusian_mismatch_interrogative-total-yn_La-maestra-vive-en-Paris.wav,./stim/wavs/argentine_mismatch_interrogative-total-yn_La-maestra-vive-en-Paris.wav,./stim/wavs/castilian_mismatch_interrogative-total-yn_La-maestra-vive-en-Paris.wav,./stim/wavs/chilean_mismatch_interrogative-total-yn_La-maestra-vive-en-Paris.wav,./stim/wavs/cuban_mismatch_interrogative-total-yn_La-maestra-vive-en-Paris.wav,./stim/wavs/mexican_mismatch_interrogative-total-yn_La-maestra-vive-en-Paris.wav,./stim/wavs/peruvian_mismatch_interrogative-total-yn_La-maestra-vive-en-Paris.wav,./stim/wavs/puertorican_mismatch_interrogative-total-yn_La-maestra-vive-en-Paris.wav,,,,,,,,,,,,,,,,,,,,,,,,,,,,,,,,,,,,,,,,,,,,,,,,,,,,,,,,
,,,,,,,midd17,midd,ma,Mexico,Southwest,12 or younger,no,2021-03-27_19h16.57.365,empathy_intonation_perc,2020.2.10,Win32,60,IwAR3580Za733zFChdHsYfYZcqF0zhBYb-tsbZSAFWe2xHiPwy4sHcgkPvxB8,,,,,,,,,,1,peruvian,1,1,3.409765,0,8,8,54,1,55,./stim/wavs/andalusian_mismatch_interrogative-partial-wh_Por-que-venia-del-lago.wav,./stim/wavs/argentine_mismatch_interrogative-partial-wh_Por-que-venia-del-lago.wav,./stim/wavs/castilian_mismatch_interrogative-partial-wh_Por-que-venia-del-lago.wav,./stim/wavs/chilean_mismatch_interrogative-partial-wh_Por-que-venia-del-lago.wav,./stim/wavs/cuban_mismatch_interrogative-partial-wh_Por-que-venia-del-lago.wav,./stim/wavs/mexican_mismatch_interrogative-partial-wh_Por-que-venia-del-lago.wav,./stim/wavs/peruvian_mismatch_interrogative-partial-wh_Por-que-venia-del-lago.wav,./stim/wavs/puertorican_mismatch_interrogative-partial-wh_Por-que-venia-del-lago.wav,,,,,,,,,,,,,,,,,,,,,,,,,,,,,,,,,,,,,,,,,,,,,,,,,,,,,,,,
,,,,,,,midd17,midd,ma,Mexico,Southwest,12 or younger,no,2021-03-27_19h16.57.365,empathy_intonation_perc,2020.2.10,Win32,60,IwAR3580Za733zFChdHsYfYZcqF0zhBYb-tsbZSAFWe2xHiPwy4sHcgkPvxB8,,,,,,,,,,0,castilian,0,1,2.732375,0,9,9,15,1,16,./stim/wavs/andalusian_match_declarative-narrow-focus_Marta-abre-el-regalo.wav,./stim/wavs/argentine_match_declarative-narrow-focus_Marta-abre-el-regalo.wav,./stim/wavs/castilian_match_declarative-narrow-focus_Marta-abre-el-regalo.wav,./stim/wavs/chilean_match_declarative-narrow-focus_Marta-abre-el-regalo.wav,./stim/wavs/cuban_match_declarative-narrow-focus_Marta-abre-el-regalo.wav,./stim/wavs/mexican_match_declarative-narrow-focus_Marta-abre-el-regalo.wav,./stim/wavs/peruvian_match_declarative-narrow-focus_Marta-abre-el-regalo.wav,./stim/wavs/puertorican_match_declarative-narrow-focus_Marta-abre-el-regalo.wav,,,,,,,,,,,,,,,,,,,,,,,,,,,,,,,,,,,,,,,,,,,,,,,,,,,,,,,,
,,,,,,,midd17,midd,ma,Mexico,Southwest,12 or younger,no,2021-03-27_19h16.57.365,empathy_intonation_perc,2020.2.10,Win32,60,IwAR3580Za733zFChdHsYfYZcqF0zhBYb-tsbZSAFWe2xHiPwy4sHcgkPvxB8,,,,,,,,,,0,castilian,0,1,3.180855,0,10,10,32,1,33,./stim/wavs/andalusian_mismatch_declarative-broad-focus_El-bebe-comia-muy-bien.wav,./stim/wavs/argentine_mismatch_declarative-broad-focus_El-bebe-comia-muy-bien.wav,./stim/wavs/castilian_mismatch_declarative-broad-focus_El-bebe-comia-muy-bien.wav,./stim/wavs/chilean_mismatch_declarative-broad-focus_El-bebe-comia-muy-bien.wav,./stim/wavs/cuban_mismatch_declarative-broad-focus_El-bebe-comia-muy-bien.wav,./stim/wavs/mexican_mismatch_declarative-broad-focus_El-bebe-comia-muy-bien.wav,./stim/wavs/peruvian_mismatch_declarative-broad-focus_El-bebe-comia-muy-bien.wav,./stim/wavs/puertorican_mismatch_declarative-broad-focus_El-bebe-comia-muy-bien.wav,,,,,,,,,,,,,,,,,,,,,,,,,,,,,,,,,,,,,,,,,,,,,,,,,,,,,,,,
,,,,,,,midd17,midd,ma,Mexico,Southwest,12 or younger,no,2021-03-27_19h16.57.365,empathy_intonation_perc,2020.2.10,Win32,60,IwAR3580Za733zFChdHsYfYZcqF0zhBYb-tsbZSAFWe2xHiPwy4sHcgkPvxB8,,,,,,,,,,0,puertorican,0,1,1.96219,0,11,11,7,1,8,./stim/wavs/andalusian_match_declarative-broad-focus_Marta-abre-el-regalo.wav,./stim/wavs/argentine_match_declarative-broad-focus_Marta-abre-el-regalo.wav,./stim/wavs/castilian_match_declarative-broad-focus_Marta-abre-el-regalo.wav,./stim/wavs/chilean_match_declarative-broad-focus_Marta-abre-el-regalo.wav,./stim/wavs/cuban_match_declarative-broad-focus_Marta-abre-el-regalo.wav,./stim/wavs/mexican_match_declarative-broad-focus_Marta-abre-el-regalo.wav,./stim/wavs/peruvian_match_declarative-broad-focus_Marta-abre-el-regalo.wav,./stim/wavs/puertorican_match_declarative-broad-focus_Marta-abre-el-regalo.wav,,,,,,,,,,,,,,,,,,,,,,,,,,,,,,,,,,,,,,,,,,,,,,,,,,,,,,,,
,,,,,,,midd17,midd,ma,Mexico,Southwest,12 or younger,no,2021-03-27_19h16.57.365,empathy_intonation_perc,2020.2.10,Win32,60,IwAR3580Za733zFChdHsYfYZcqF0zhBYb-tsbZSAFWe2xHiPwy4sHcgkPvxB8,,,,,,,,,,1,argentine,0,0,4.39023,0,12,12,17,1,18,./stim/wavs/andalusian_match_interrogative-partial-wh_Cuando-leia-el-libro.wav,./stim/wavs/argentine_match_interrogative-partial-wh_Cuando-leia-el-libro.wav,./stim/wavs/castilian_match_interrogative-partial-wh_Cuando-leia-el-libro.wav,./stim/wavs/chilean_match_interrogative-partial-wh_Cuando-leia-el-libro.wav,./stim/wavs/cuban_match_interrogative-partial-wh_Cuando-leia-el-libro.wav,./stim/wavs/mexican_match_interrogative-partial-wh_Cuando-leia-el-libro.wav,./stim/wavs/peruvian_match_interrogative-partial-wh_Cuando-leia-el-libro.wav,./stim/wavs/puertorican_match_interrogative-partial-wh_Cuando-leia-el-libro.wav,,,,,,,,,,,,,,,,,,,,,,,,,,,,,,,,,,,,,,,,,,,,,,,,,,,,,,,,
,,,,,,,midd17,midd,ma,Mexico,Southwest,12 or younger,no,2021-03-27_19h16.57.365,empathy_intonation_perc,2020.2.10,Win32,60,IwAR3580Za733zFChdHsYfYZcqF0zhBYb-tsbZSAFWe2xHiPwy4sHcgkPvxB8,,,,,,,,,,1,argentine,1,1,1.816565,0,13,13,61,1,62,./stim/wavs/andalusian_mismatch_interrogative-total-yn_Mi-madre-come-la-fruta.wav,./stim/wavs/argentine_mismatch_interrogative-total-yn_Mi-madre-come-la-fruta.wav,./stim/wavs/castilian_mismatch_interrogative-total-yn_Mi-madre-come-la-fruta.wav,./stim/wavs/chilean_mismatch_interrogative-total-yn_Mi-madre-come-la-fruta.wav,./stim/wavs/cuban_mismatch_interrogative-total-yn_Mi-madre-come-la-fruta.wav,./stim/wavs/mexican_mismatch_interrogative-total-yn_Mi-madre-come-la-fruta.wav,./stim/wavs/peruvian_mismatch_interrogative-total-yn_Mi-madre-come-la-fruta.wav,./stim/wavs/puertorican_mismatch_interrogative-total-yn_Mi-madre-come-la-fruta.wav,,,,,,,,,,,,,,,,,,,,,,,,,,,,,,,,,,,,,,,,,,,,,,,,,,,,,,,,
,,,,,,,midd17,midd,ma,Mexico,Southwest,12 or younger,no,2021-03-27_19h16.57.365,empathy_intonation_perc,2020.2.10,Win32,60,IwAR3580Za733zFChdHsYfYZcqF0zhBYb-tsbZSAFWe2xHiPwy4sHcgkPvxB8,,,,,,,,,,0,cuban,0,1,2.113535,0,14,14,12,1,13,./stim/wavs/andalusian_match_declarative-narrow-focus_Manuela-vende-el-carro.wav,./stim/wavs/argentine_match_declarative-narrow-focus_Manuela-vende-el-carro.wav,./stim/wavs/castilian_match_declarative-narrow-focus_Manuela-vende-el-carro.wav,./stim/wavs/chilean_match_declarative-narrow-focus_Manuela-vende-el-carro.wav,./stim/wavs/cuban_match_declarative-narrow-focus_Manuela-vende-el-carro.wav,./stim/wavs/mexican_match_declarative-narrow-focus_Manuela-vende-el-carro.wav,./stim/wavs/peruvian_match_declarative-narrow-focus_Manuela-vende-el-carro.wav,./stim/wavs/puertorican_match_declarative-narrow-focus_Manuela-vende-el-carro.wav,,,,,,,,,,,,,,,,,,,,,,,,,,,,,,,,,,,,,,,,,,,,,,,,,,,,,,,,
,,,,,,,midd17,midd,ma,Mexico,Southwest,12 or younger,no,2021-03-27_19h16.57.365,empathy_intonation_perc,2020.2.10,Win32,60,IwAR3580Za733zFChdHsYfYZcqF0zhBYb-tsbZSAFWe2xHiPwy4sHcgkPvxB8,,,,,,,,,,0,castilian,0,1,3.74961,0,15,15,10,1,11,./stim/wavs/andalusian_match_declarative-narrow-focus_David-leia-el-libro.wav,./stim/wavs/argentine_match_declarative-narrow-focus_David-leia-el-libro.wav,./stim/wavs/castilian_match_declarative-narrow-focus_David-leia-el-libro.wav,./stim/wavs/chilean_match_declarative-narrow-focus_David-leia-el-libro.wav,./stim/wavs/cuban_match_declarative-narrow-focus_David-leia-el-libro.wav,./stim/wavs/mexican_match_declarative-narrow-focus_David-leia-el-libro.wav,./stim/wavs/peruvian_match_declarative-narrow-focus_David-leia-el-libro.wav,./stim/wavs/puertorican_match_declarative-narrow-focus_David-leia-el-libro.wav,,,,,,,,,,,,,,,,,,,,,,,,,,,,,,,,,,,,,,,,,,,,,,,,,,,,,,,,
,,,,,,,midd17,midd,ma,Mexico,Southwest,12 or younger,no,2021-03-27_19h16.57.365,empathy_intonation_perc,2020.2.10,Win32,60,IwAR3580Za733zFChdHsYfYZcqF0zhBYb-tsbZSAFWe2xHiPwy4sHcgkPvxB8,,,,,,,,,,1,andalusian,0,0,3.681335,0,16,16,50,1,51,./stim/wavs/andalusian_mismatch_interrogative-partial-wh_Cuando-miraba-la-luna.wav,./stim/wavs/argentine_mismatch_interrogative-partial-wh_Cuando-miraba-la-luna.wav,./stim/wavs/castilian_mismatch_interrogative-partial-wh_Cuando-miraba-la-luna.wav,./stim/wavs/chilean_mismatch_interrogative-partial-wh_Cuando-miraba-la-luna.wav,./stim/wavs/cuban_mismatch_interrogative-partial-wh_Cuando-miraba-la-luna.wav,./stim/wavs/mexican_mismatch_interrogative-partial-wh_Cuando-miraba-la-luna.wav,./stim/wavs/peruvian_mismatch_interrogative-partial-wh_Cuando-miraba-la-luna.wav,./stim/wavs/puertorican_mismatch_interrogative-partial-wh_Cuando-miraba-la-luna.wav,,,,,,,,,,,,,,,,,,,,,,,,,,,,,,,,,,,,,,,,,,,,,,,,,,,,,,,,
,,,,,,,midd17,midd,ma,Mexico,Southwest,12 or younger,no,2021-03-27_19h16.57.365,empathy_intonation_perc,2020.2.10,Win32,60,IwAR3580Za733zFChdHsYfYZcqF0zhBYb-tsbZSAFWe2xHiPwy4sHcgkPvxB8,,,,,,,,,,0,argentine,0,1,1.9545,0,17,17,4,1,5,./stim/wavs/andalusian_match_declarative-broad-focus_Manuela-vende-el-carro.wav,./stim/wavs/argentine_match_declarative-broad-focus_Manuela-vende-el-carro.wav,./stim/wavs/castilian_match_declarative-broad-focus_Manuela-vende-el-carro.wav,./stim/wavs/chilean_match_declarative-broad-focus_Manuela-vende-el-carro.wav,./stim/wavs/cuban_match_declarative-broad-focus_Manuela-vende-el-carro.wav,./stim/wavs/mexican_match_declarative-broad-focus_Manuela-vende-el-carro.wav,./stim/wavs/peruvian_match_declarative-broad-focus_Manuela-vende-el-carro.wav,./stim/wavs/puertorican_match_declarative-broad-focus_Manuela-vende-el-carro.wav,,,,,,,,,,,,,,,,,,,,,,,,,,,,,,,,,,,,,,,,,,,,,,,,,,,,,,,,
,,,,,,,midd17,midd,ma,Mexico,Southwest,12 or younger,no,2021-03-27_19h16.57.365,empathy_intonation_perc,2020.2.10,Win32,60,IwAR3580Za733zFChdHsYfYZcqF0zhBYb-tsbZSAFWe2xHiPwy4sHcgkPvxB8,,,,,,,,,,0,castilian,0,1,2.35757,0,18,18,34,1,35,./stim/wavs/andalusian_mismatch_declarative-broad-focus_El-nino-oye-el-rio.wav,./stim/wavs/argentine_mismatch_declarative-broad-focus_El-nino-oye-el-rio.wav,./stim/wavs/castilian_mismatch_declarative-broad-focus_El-nino-oye-el-rio.wav,./stim/wavs/chilean_mismatch_declarative-broad-focus_El-nino-oye-el-rio.wav,./stim/wavs/cuban_mismatch_declarative-broad-focus_El-nino-oye-el-rio.wav,./stim/wavs/mexican_mismatch_declarative-broad-focus_El-nino-oye-el-rio.wav,./stim/wavs/peruvian_mismatch_declarative-broad-focus_El-nino-oye-el-rio.wav,./stim/wavs/puertorican_mismatch_declarative-broad-focus_El-nino-oye-el-rio.wav,,,,,,,,,,,,,,,,,,,,,,,,,,,,,,,,,,,,,,,,,,,,,,,,,,,,,,,,
,,,,,,,midd17,midd,ma,Mexico,Southwest,12 or younger,no,2021-03-27_19h16.57.365,empathy_intonation_perc,2020.2.10,Win32,60,IwAR3580Za733zFChdHsYfYZcqF0zhBYb-tsbZSAFWe2xHiPwy4sHcgkPvxB8,,,,,,,,,,0,mexican,0,1,1.87869,0,19,19,8,1,9,./stim/wavs/andalusian_match_declarative-narrow-focus_Ana-lleva-el-abrigo.wav,./stim/wavs/argentine_match_declarative-narrow-focus_Ana-lleva-el-abrigo.wav,./stim/wavs/castilian_match_declarative-narrow-focus_Ana-lleva-el-abrigo.wav,./stim/wavs/chilean_match_declarative-narrow-focus_Ana-lleva-el-abrigo.wav,./stim/wavs/cuban_match_declarative-narrow-focus_Ana-lleva-el-abrigo.wav,./stim/wavs/mexican_match_declarative-narrow-focus_Ana-lleva-el-abrigo.wav,./stim/wavs/peruvian_match_declarative-narrow-focus_Ana-lleva-el-abrigo.wav,./stim/wavs/puertorican_match_declarative-narrow-focus_Ana-lleva-el-abrigo.wav,,,,,,,,,,,,,,,,,,,,,,,,,,,,,,,,,,,,,,,,,,,,,,,,,,,,,,,,
,,,,,,,midd17,midd,ma,Mexico,Southwest,12 or younger,no,2021-03-27_19h16.57.365,empathy_intonation_perc,2020.2.10,Win32,60,IwAR3580Za733zFChdHsYfYZcqF0zhBYb-tsbZSAFWe2xHiPwy4sHcgkPvxB8,,,,,,,,,,0,puertorican,0,1,1.754805,0,20,20,11,1,12,./stim/wavs/andalusian_match_declarative-narrow-focus_Emilio-ama-la-marcha.wav,./stim/wavs/argentine_match_declarative-narrow-focus_Emilio-ama-la-marcha.wav,./stim/wavs/castilian_match_declarative-narrow-focus_Emilio-ama-la-marcha.wav,./stim/wavs/chilean_match_declarative-narrow-focus_Emilio-ama-la-marcha.wav,./stim/wavs/cuban_match_declarative-narrow-focus_Emilio-ama-la-marcha.wav,./stim/wavs/mexican_match_declarative-narrow-focus_Emilio-ama-la-marcha.wav,./stim/wavs/peruvian_match_declarative-narrow-focus_Emilio-ama-la-marcha.wav,./stim/wavs/puertorican_match_declarative-narrow-focus_Emilio-ama-la-marcha.wav,,,,,,,,,,,,,,,,,,,,,,,,,,,,,,,,,,,,,,,,,,,,,,,,,,,,,,,,
,,,,,,,midd17,midd,ma,Mexico,Southwest,12 or younger,no,2021-03-27_19h16.57.365,empathy_intonation_perc,2020.2.10,Win32,60,IwAR3580Za733zFChdHsYfYZcqF0zhBYb-tsbZSAFWe2xHiPwy4sHcgkPvxB8,,,,,,,,,,0,argentine,0,1,1.92037,0,21,21,42,1,43,./stim/wavs/andalusian_mismatch_declarative-narrow-focus_El-nino-oye-el-rio.wav,./stim/wavs/argentine_mismatch_declarative-narrow-focus_El-nino-oye-el-rio.wav,./stim/wavs/castilian_mismatch_declarative-narrow-focus_El-nino-oye-el-rio.wav,./stim/wavs/chilean_mismatch_declarative-narrow-focus_El-nino-oye-el-rio.wav,./stim/wavs/cuban_mismatch_declarative-narrow-focus_El-nino-oye-el-rio.wav,./stim/wavs/mexican_mismatch_declarative-narrow-focus_El-nino-oye-el-rio.wav,./stim/wavs/peruvian_mismatch_declarative-narrow-focus_El-nino-oye-el-rio.wav,./stim/wavs/puertorican_mismatch_declarative-narrow-focus_El-nino-oye-el-rio.wav,,,,,,,,,,,,,,,,,,,,,,,,,,,,,,,,,,,,,,,,,,,,,,,,,,,,,,,,
,,,,,,,midd17,midd,ma,Mexico,Southwest,12 or younger,no,2021-03-27_19h16.57.365,empathy_intonation_perc,2020.2.10,Win32,60,IwAR3580Za733zFChdHsYfYZcqF0zhBYb-tsbZSAFWe2xHiPwy4sHcgkPvxB8,,,,,,,,,,0,puertorican,0,1,2.722745,0,22,22,40,1,41,./stim/wavs/andalusian_mismatch_declarative-narrow-focus_El-bebe-comia-muy-bien.wav,./stim/wavs/argentine_mismatch_declarative-narrow-focus_El-bebe-comia-muy-bien.wav,./stim/wavs/castilian_mismatch_declarative-narrow-focus_El-bebe-comia-muy-bien.wav,./stim/wavs/chilean_mismatch_declarative-narrow-focus_El-bebe-comia-muy-bien.wav,./stim/wavs/cuban_mismatch_declarative-narrow-focus_El-bebe-comia-muy-bien.wav,./stim/wavs/mexican_mismatch_declarative-narrow-focus_El-bebe-comia-muy-bien.wav,./stim/wavs/peruvian_mismatch_declarative-narrow-focus_El-bebe-comia-muy-bien.wav,./stim/wavs/puertorican_mismatch_declarative-narrow-focus_El-bebe-comia-muy-bien.wav,,,,,,,,,,,,,,,,,,,,,,,,,,,,,,,,,,,,,,,,,,,,,,,,,,,,,,,,
,,,,,,,midd17,midd,ma,Mexico,Southwest,12 or younger,no,2021-03-27_19h16.57.365,empathy_intonation_perc,2020.2.10,Win32,60,IwAR3580Za733zFChdHsYfYZcqF0zhBYb-tsbZSAFWe2xHiPwy4sHcgkPvxB8,,,,,,,,,,1,cuban,0,0,2.11946,0,23,23,28,1,29,./stim/wavs/andalusian_match_interrogative-total-yn_Manuela-vende-el-carro.wav,./stim/wavs/argentine_match_interrogative-total-yn_Manuela-vende-el-carro.wav,./stim/wavs/castilian_match_interrogative-total-yn_Manuela-vende-el-carro.wav,./stim/wavs/chilean_match_interrogative-total-yn_Manuela-vende-el-carro.wav,./stim/wavs/cuban_match_interrogative-total-yn_Manuela-vende-el-carro.wav,./stim/wavs/mexican_match_interrogative-total-yn_Manuela-vende-el-carro.wav,./stim/wavs/peruvian_match_interrogative-total-yn_Manuela-vende-el-carro.wav,./stim/wavs/puertorican_match_interrogative-total-yn_Manuela-vende-el-carro.wav,,,,,,,,,,,,,,,,,,,,,,,,,,,,,,,,,,,,,,,,,,,,,,,,,,,,,,,,
,,,,,,,midd17,midd,ma,Mexico,Southwest,12 or younger,no,2021-03-27_19h16.57.365,empathy_intonation_perc,2020.2.10,Win32,60,IwAR3580Za733zFChdHsYfYZcqF0zhBYb-tsbZSAFWe2xHiPwy4sHcgkPvxB8,,,,,,,,,,1,peruvian,0,0,7.70069,0,24,24,21,1,22,./stim/wavs/andalusian_match_interrogative-partial-wh_Por-que-ama-la-navidad.wav,./stim/wavs/argentine_match_interrogative-partial-wh_Por-que-ama-la-navidad.wav,./stim/wavs/castilian_match_interrogative-partial-wh_Por-que-ama-la-navidad.wav,./stim/wavs/chilean_match_interrogative-partial-wh_Por-que-ama-la-navidad.wav,./stim/wavs/cuban_match_interrogative-partial-wh_Por-que-ama-la-navidad.wav,./stim/wavs/mexican_match_interrogative-partial-wh_Por-que-ama-la-navidad.wav,./stim/wavs/peruvian_match_interrogative-partial-wh_Por-que-ama-la-navidad.wav,./stim/wavs/puertorican_match_interrogative-partial-wh_Por-que-ama-la-navidad.wav,,,,,,,,,,,,,,,,,,,,,,,,,,,,,,,,,,,,,,,,,,,,,,,,,,,,,,,,
,,,,,,,midd17,midd,ma,Mexico,Southwest,12 or younger,no,2021-03-27_19h16.57.365,empathy_intonation_perc,2020.2.10,Win32,60,IwAR3580Za733zFChdHsYfYZcqF0zhBYb-tsbZSAFWe2xHiPwy4sHcgkPvxB8,,,,,,,,,,1,peruvian,1,1,3.530605,0,25,25,23,1,24,./stim/wavs/andalusian_match_interrogative-partial-wh_Por-que-iba-a-Bolivia.wav,./stim/wavs/argentine_match_interrogative-partial-wh_Por-que-iba-a-Bolivia.wav,./stim/wavs/castilian_match_interrogative-partial-wh_Por-que-iba-a-Bolivia.wav,./stim/wavs/chilean_match_interrogative-partial-wh_Por-que-iba-a-Bolivia.wav,./stim/wavs/cuban_match_interrogative-partial-wh_Por-que-iba-a-Bolivia.wav,./stim/wavs/mexican_match_interrogative-partial-wh_Por-que-iba-a-Bolivia.wav,./stim/wavs/peruvian_match_interrogative-partial-wh_Por-que-iba-a-Bolivia.wav,./stim/wavs/puertorican_match_interrogative-partial-wh_Por-que-iba-a-Bolivia.wav,,,,,,,,,,,,,,,,,,,,,,,,,,,,,,,,,,,,,,,,,,,,,,,,,,,,,,,,
,,,,,,,midd17,midd,ma,Mexico,Southwest,12 or younger,no,2021-03-27_19h16.57.365,empathy_intonation_perc,2020.2.10,Win32,60,IwAR3580Za733zFChdHsYfYZcqF0zhBYb-tsbZSAFWe2xHiPwy4sHcgkPvxB8,,,,,,,,,,1,cuban,0,0,4.42071,0,26,26,27,1,28,./stim/wavs/andalusian_match_interrogative-total-yn_Emilio-ama-la-marcha.wav,./stim/wavs/argentine_match_interrogative-total-yn_Emilio-ama-la-marcha.wav,./stim/wavs/castilian_match_interrogative-total-yn_Emilio-ama-la-marcha.wav,./stim/wavs/chilean_match_interrogative-total-yn_Emilio-ama-la-marcha.wav,./stim/wavs/cuban_match_interrogative-total-yn_Emilio-ama-la-marcha.wav,./stim/wavs/mexican_match_interrogative-total-yn_Emilio-ama-la-marcha.wav,./stim/wavs/peruvian_match_interrogative-total-yn_Emilio-ama-la-marcha.wav,./stim/wavs/puertorican_match_interrogative-total-yn_Emilio-ama-la-marcha.wav,,,,,,,,,,,,,,,,,,,,,,,,,,,,,,,,,,,,,,,,,,,,,,,,,,,,,,,,
,,,,,,,midd17,midd,ma,Mexico,Southwest,12 or younger,no,2021-03-27_19h16.57.365,empathy_intonation_perc,2020.2.10,Win32,60,IwAR3580Za733zFChdHsYfYZcqF0zhBYb-tsbZSAFWe2xHiPwy4sHcgkPvxB8,,,,,,,,,,0,andalusian,0,1,2.04075,0,27,27,46,1,47,./stim/wavs/andalusian_mismatch_declarative-narrow-focus_Mi-novio-viene-del-lago.wav,./stim/wavs/argentine_mismatch_declarative-narrow-focus_Mi-novio-viene-del-lago.wav,./stim/wavs/castilian_mismatch_declarative-narrow-focus_Mi-novio-viene-del-lago.wav,./stim/wavs/chilean_mismatch_declarative-narrow-focus_Mi-novio-viene-del-lago.wav,./stim/wavs/cuban_mismatch_declarative-narrow-focus_Mi-novio-viene-del-lago.wav,./stim/wavs/mexican_mismatch_declarative-narrow-focus_Mi-novio-viene-del-lago.wav,./stim/wavs/peruvian_mismatch_declarative-narrow-focus_Mi-novio-viene-del-lago.wav,./stim/wavs/puertorican_mismatch_declarative-narrow-focus_Mi-novio-viene-del-lago.wav,,,,,,,,,,,,,,,,,,,,,,,,,,,,,,,,,,,,,,,,,,,,,,,,,,,,,,,,
,,,,,,,midd17,midd,ma,Mexico,Southwest,12 or younger,no,2021-03-27_19h16.57.365,empathy_intonation_perc,2020.2.10,Win32,60,IwAR3580Za733zFChdHsYfYZcqF0zhBYb-tsbZSAFWe2xHiPwy4sHcgkPvxB8,,,,,,,,,,0,castilian,0,1,2.99583,0,28,28,3,1,4,./stim/wavs/andalusian_match_declarative-broad-focus_Emilio-ama-la-marcha.wav,./stim/wavs/argentine_match_declarative-broad-focus_Emilio-ama-la-marcha.wav,./stim/wavs/castilian_match_declarative-broad-focus_Emilio-ama-la-marcha.wav,./stim/wavs/chilean_match_declarative-broad-focus_Emilio-ama-la-marcha.wav,./stim/wavs/cuban_match_declarative-broad-focus_Emilio-ama-la-marcha.wav,./stim/wavs/mexican_match_declarative-broad-focus_Emilio-ama-la-marcha.wav,./stim/wavs/peruvian_match_declarative-broad-focus_Emilio-ama-la-marcha.wav,./stim/wavs/puertorican_match_declarative-broad-focus_Emilio-ama-la-marcha.wav,,,,,,,,,,,,,,,,,,,,,,,,,,,,,,,,,,,,,,,,,,,,,,,,,,,,,,,,
,,,,,,,midd17,midd,ma,Mexico,Southwest,12 or younger,no,2021-03-27_19h16.57.365,empathy_intonation_perc,2020.2.10,Win32,60,IwAR3580Za733zFChdHsYfYZcqF0zhBYb-tsbZSAFWe2xHiPwy4sHcgkPvxB8,,,,,,,,,,1,andalusian,1,1,3.145675,0,29,29,53,1,54,./stim/wavs/andalusian_mismatch_interrogative-partial-wh_Por-que-oia-el-rio.wav,./stim/wavs/argentine_mismatch_interrogative-partial-wh_Por-que-oia-el-rio.wav,./stim/wavs/castilian_mismatch_interrogative-partial-wh_Por-que-oia-el-rio.wav,./stim/wavs/chilean_mismatch_interrogative-partial-wh_Por-que-oia-el-rio.wav,./stim/wavs/cuban_mismatch_interrogative-partial-wh_Por-que-oia-el-rio.wav,./stim/wavs/mexican_mismatch_interrogative-partial-wh_Por-que-oia-el-rio.wav,./stim/wavs/peruvian_mismatch_interrogative-partial-wh_Por-que-oia-el-rio.wav,./stim/wavs/puertorican_mismatch_interrogative-partial-wh_Por-que-oia-el-rio.wav,,,,,,,,,,,,,,,,,,,,,,,,,,,,,,,,,,,,,,,,,,,,,,,,,,,,,,,,
,,,,,,,midd17,midd,ma,Mexico,Southwest,12 or younger,no,2021-03-27_19h16.57.365,empathy_intonation_perc,2020.2.10,Win32,60,IwAR3580Za733zFChdHsYfYZcqF0zhBYb-tsbZSAFWe2xHiPwy4sHcgkPvxB8,,,,,,,,,,1,argentine,1,1,2.181475,0,30,30,16,1,17,./stim/wavs/andalusian_match_interrogative-partial-wh_Cuando-bebia-el-vino.wav,./stim/wavs/argentine_match_interrogative-partial-wh_Cuando-bebia-el-vino.wav,./stim/wavs/castilian_match_interrogative-partial-wh_Cuando-bebia-el-vino.wav,./stim/wavs/chilean_match_interrogative-partial-wh_Cuando-bebia-el-vino.wav,./stim/wavs/cuban_match_interrogative-partial-wh_Cuando-bebia-el-vino.wav,./stim/wavs/mexican_match_interrogative-partial-wh_Cuando-bebia-el-vino.wav,./stim/wavs/peruvian_match_interrogative-partial-wh_Cuando-bebia-el-vino.wav,./stim/wavs/puertorican_match_interrogative-partial-wh_Cuando-bebia-el-vino.wav,,,,,,,,,,,,,,,,,,,,,,,,,,,,,,,,,,,,,,,,,,,,,,,,,,,,,,,,
,,,,,,,midd17,midd,ma,Mexico,Southwest,12 or younger,no,2021-03-27_19h16.57.365,empathy_intonation_perc,2020.2.10,Win32,60,IwAR3580Za733zFChdHsYfYZcqF0zhBYb-tsbZSAFWe2xHiPwy4sHcgkPvxB8,,,,,,,,,,1,argentine,1,1,2.044045,0,31,31,29,1,30,./stim/wavs/andalusian_match_interrogative-total-yn_Maria-bebe-el-vino.wav,./stim/wavs/argentine_match_interrogative-total-yn_Maria-bebe-el-vino.wav,./stim/wavs/castilian_match_interrogative-total-yn_Maria-bebe-el-vino.wav,./stim/wavs/chilean_match_interrogative-total-yn_Maria-bebe-el-vino.wav,./stim/wavs/cuban_match_interrogative-total-yn_Maria-bebe-el-vino.wav,./stim/wavs/mexican_match_interrogative-total-yn_Maria-bebe-el-vino.wav,./stim/wavs/peruvian_match_interrogative-total-yn_Maria-bebe-el-vino.wav,./stim/wavs/puertorican_match_interrogative-total-yn_Maria-bebe-el-vino.wav,,,,,,,,,,,,,,,,,,,,,,,,,,,,,,,,,,,,,,,,,,,,,,,,,,,,,,,,
,,,,,,,midd17,midd,ma,Mexico,Southwest,12 or younger,no,2021-03-27_19h16.57.365,empathy_intonation_perc,2020.2.10,Win32,60,IwAR3580Za733zFChdHsYfYZcqF0zhBYb-tsbZSAFWe2xHiPwy4sHcgkPvxB8,,,,,,,,,,1,peruvian,1,1,1.895215,0,32,32,62,1,63,./stim/wavs/andalusian_mismatch_interrogative-total-yn_Mi-novio-viene-del-lago.wav,./stim/wavs/argentine_mismatch_interrogative-total-yn_Mi-novio-viene-del-lago.wav,./stim/wavs/castilian_mismatch_interrogative-total-yn_Mi-novio-viene-del-lago.wav,./stim/wavs/chilean_mismatch_interrogative-total-yn_Mi-novio-viene-del-lago.wav,./stim/wavs/cuban_mismatch_interrogative-total-yn_Mi-novio-viene-del-lago.wav,./stim/wavs/mexican_mismatch_interrogative-total-yn_Mi-novio-viene-del-lago.wav,./stim/wavs/peruvian_mismatch_interrogative-total-yn_Mi-novio-viene-del-lago.wav,./stim/wavs/puertorican_mismatch_interrogative-total-yn_Mi-novio-viene-del-lago.wav,,,,,,,,,,,,,,,,,,,,,,,,,,,,,,,,,,,,,,,,,,,,,,,,,,,,,,,,
,,,,,,,midd17,midd,ma,Mexico,Southwest,12 or younger,no,2021-03-27_19h16.57.365,empathy_intonation_perc,2020.2.10,Win32,60,IwAR3580Za733zFChdHsYfYZcqF0zhBYb-tsbZSAFWe2xHiPwy4sHcgkPvxB8,,,,,,,,,,0,chilean,0,1,2.27063,0,33,33,6,1,7,./stim/wavs/andalusian_match_declarative-broad-focus_Mariano-habla-del-tiempo.wav,./stim/wavs/argentine_match_declarative-broad-focus_Mariano-habla-del-tiempo.wav,./stim/wavs/castilian_match_declarative-broad-focus_Mariano-habla-del-tiempo.wav,./stim/wavs/chilean_match_declarative-broad-focus_Mariano-habla-del-tiempo.wav,./stim/wavs/cuban_match_declarative-broad-focus_Mariano-habla-del-tiempo.wav,./stim/wavs/mexican_match_declarative-broad-focus_Mariano-habla-del-tiempo.wav,./stim/wavs/peruvian_match_declarative-broad-focus_Mariano-habla-del-tiempo.wav,./stim/wavs/puertorican_match_declarative-broad-focus_Mariano-habla-del-tiempo.wav,,,,,,,,,,,,,,,,,,,,,,,,,,,,,,,,,,,,,,,,,,,,,,,,,,,,,,,,
,,,,,,,midd17,midd,ma,Mexico,Southwest,12 or younger,no,2021-03-27_19h16.57.365,empathy_intonation_perc,2020.2.10,Win32,60,IwAR3580Za733zFChdHsYfYZcqF0zhBYb-tsbZSAFWe2xHiPwy4sHcgkPvxB8,,,,,,,,,,0,argentine,0,1,2.195085,0,34,34,47,1,48,./stim/wavs/andalusian_mismatch_declarative-narrow-focus_Mi-tia-odia-la-lluvia.wav,./stim/wavs/argentine_mismatch_declarative-narrow-focus_Mi-tia-odia-la-lluvia.wav,./stim/wavs/castilian_mismatch_declarative-narrow-focus_Mi-tia-odia-la-lluvia.wav,./stim/wavs/chilean_mismatch_declarative-narrow-focus_Mi-tia-odia-la-lluvia.wav,./stim/wavs/cuban_mismatch_declarative-narrow-focus_Mi-tia-odia-la-lluvia.wav,./stim/wavs/mexican_mismatch_declarative-narrow-focus_Mi-tia-odia-la-lluvia.wav,./stim/wavs/peruvian_mismatch_declarative-narrow-focus_Mi-tia-odia-la-lluvia.wav,./stim/wavs/puertorican_mismatch_declarative-narrow-focus_Mi-tia-odia-la-lluvia.wav,,,,,,,,,,,,,,,,,,,,,,,,,,,,,,,,,,,,,,,,,,,,,,,,,,,,,,,,
,,,,,,,midd17,midd,ma,Mexico,Southwest,12 or younger,no,2021-03-27_19h16.57.365,empathy_intonation_perc,2020.2.10,Win32,60,IwAR3580Za733zFChdHsYfYZcqF0zhBYb-tsbZSAFWe2xHiPwy4sHcgkPvxB8,,,,,,,,,,0,mexican,0,1,1.95848,0,35,35,39,1,40,./stim/wavs/andalusian_mismatch_declarative-broad-focus_Mi-tia-odia-la-lluvia.wav,./stim/wavs/argentine_mismatch_declarative-broad-focus_Mi-tia-odia-la-lluvia.wav,./stim/wavs/castilian_mismatch_declarative-broad-focus_Mi-tia-odia-la-lluvia.wav,./stim/wavs/chilean_mismatch_declarative-broad-focus_Mi-tia-odia-la-lluvia.wav,./stim/wavs/cuban_mismatch_declarative-broad-focus_Mi-tia-odia-la-lluvia.wav,./stim/wavs/mexican_mismatch_declarative-broad-focus_Mi-tia-odia-la-lluvia.wav,./stim/wavs/peruvian_mismatch_declarative-broad-focus_Mi-tia-odia-la-lluvia.wav,./stim/wavs/puertorican_mismatch_declarative-broad-focus_Mi-tia-odia-la-lluvia.wav,,,,,,,,,,,,,,,,,,,,,,,,,,,,,,,,,,,,,,,,,,,,,,,,,,,,,,,,
,,,,,,,midd17,midd,ma,Mexico,Southwest,12 or younger,no,2021-03-27_19h16.57.365,empathy_intonation_perc,2020.2.10,Win32,60,IwAR3580Za733zFChdHsYfYZcqF0zhBYb-tsbZSAFWe2xHiPwy4sHcgkPvxB8,,,,,,,,,,1,chilean,1,1,1.550985,0,36,36,31,1,32,./stim/wavs/andalusian_match_interrogative-total-yn_Marta-abre-el-regalo.wav,./stim/wavs/argentine_match_interrogative-total-yn_Marta-abre-el-regalo.wav,./stim/wavs/castilian_match_interrogative-total-yn_Marta-abre-el-regalo.wav,./stim/wavs/chilean_match_interrogative-total-yn_Marta-abre-el-regalo.wav,./stim/wavs/cuban_match_interrogative-total-yn_Marta-abre-el-regalo.wav,./stim/wavs/mexican_match_interrogative-total-yn_Marta-abre-el-regalo.wav,./stim/wavs/peruvian_match_interrogative-total-yn_Marta-abre-el-regalo.wav,./stim/wavs/puertorican_match_interrogative-total-yn_Marta-abre-el-regalo.wav,,,,,,,,,,,,,,,,,,,,,,,,,,,,,,,,,,,,,,,,,,,,,,,,,,,,,,,,
,,,,,,,midd17,midd,ma,Mexico,Southwest,12 or younger,no,2021-03-27_19h16.57.365,empathy_intonation_perc,2020.2.10,Win32,60,IwAR3580Za733zFChdHsYfYZcqF0zhBYb-tsbZSAFWe2xHiPwy4sHcgkPvxB8,,,,,,,,,,0,peruvian,0,1,1.819715,0,37,37,41,1,42,./stim/wavs/andalusian_mismatch_declarative-narrow-focus_El-hombre-mira-la-luna.wav,./stim/wavs/argentine_mismatch_declarative-narrow-focus_El-hombre-mira-la-luna.wav,./stim/wavs/castilian_mismatch_declarative-narrow-focus_El-hombre-mira-la-luna.wav,./stim/wavs/chilean_mismatch_declarative-narrow-focus_El-hombre-mira-la-luna.wav,./stim/wavs/cuban_mismatch_declarative-narrow-focus_El-hombre-mira-la-luna.wav,./stim/wavs/mexican_mismatch_declarative-narrow-focus_El-hombre-mira-la-luna.wav,./stim/wavs/peruvian_mismatch_declarative-narrow-focus_El-hombre-mira-la-luna.wav,./stim/wavs/puertorican_mismatch_declarative-narrow-focus_El-hombre-mira-la-luna.wav,,,,,,,,,,,,,,,,,,,,,,,,,,,,,,,,,,,,,,,,,,,,,,,,,,,,,,,,
,,,,,,,midd17,midd,ma,Mexico,Southwest,12 or younger,no,2021-03-27_19h16.57.365,empathy_intonation_perc,2020.2.10,Win32,60,IwAR3580Za733zFChdHsYfYZcqF0zhBYb-tsbZSAFWe2xHiPwy4sHcgkPvxB8,,,,,,,,,,0,argentine,0,1,1.685305,0,38,38,2,1,3,./stim/wavs/andalusian_match_declarative-broad-focus_David-leia-el-libro.wav,./stim/wavs/argentine_match_declarative-broad-focus_David-leia-el-libro.wav,./stim/wavs/castilian_match_declarative-broad-focus_David-leia-el-libro.wav,./stim/wavs/chilean_match_declarative-broad-focus_David-leia-el-libro.wav,./stim/wavs/cuban_match_declarative-broad-focus_David-leia-el-libro.wav,./stim/wavs/mexican_match_declarative-broad-focus_David-leia-el-libro.wav,./stim/wavs/peruvian_match_declarative-broad-focus_David-leia-el-libro.wav,./stim/wavs/puertorican_match_declarative-broad-focus_David-leia-el-libro.wav,,,,,,,,,,,,,,,,,,,,,,,,,,,,,,,,,,,,,,,,,,,,,,,,,,,,,,,,
,,,,,,,midd17,midd,ma,Mexico,Southwest,12 or younger,no,2021-03-27_19h16.57.365,empathy_intonation_perc,2020.2.10,Win32,60,IwAR3580Za733zFChdHsYfYZcqF0zhBYb-tsbZSAFWe2xHiPwy4sHcgkPvxB8,,,,,,,,,,0,cuban,0,1,2.893855,0,39,39,9,1,10,./stim/wavs/andalusian_match_declarative-narrow-focus_Daniel-iba-a-Bolivia.wav,./stim/wavs/argentine_match_declarative-narrow-focus_Daniel-iba-a-Bolivia.wav,./stim/wavs/castilian_match_declarative-narrow-focus_Daniel-iba-a-Bolivia.wav,./stim/wavs/chilean_match_declarative-narrow-focus_Daniel-iba-a-Bolivia.wav,./stim/wavs/cuban_match_declarative-narrow-focus_Daniel-iba-a-Bolivia.wav,./stim/wavs/mexican_match_declarative-narrow-focus_Daniel-iba-a-Bolivia.wav,./stim/wavs/peruvian_match_declarative-narrow-focus_Daniel-iba-a-Bolivia.wav,./stim/wavs/puertorican_match_declarative-narrow-focus_Daniel-iba-a-Bolivia.wav,,,,,,,,,,,,,,,,,,,,,,,,,,,,,,,,,,,,,,,,,,,,,,,,,,,,,,,,
,,,,,,,midd17,midd,ma,Mexico,Southwest,12 or younger,no,2021-03-27_19h16.57.365,empathy_intonation_perc,2020.2.10,Win32,60,IwAR3580Za733zFChdHsYfYZcqF0zhBYb-tsbZSAFWe2xHiPwy4sHcgkPvxB8,,,,,,,,,,1,castilian,1,1,1.891405,0,40,40,52,1,53,./stim/wavs/andalusian_mismatch_interrogative-partial-wh_Por-que-odiaba-la-lluvia.wav,./stim/wavs/argentine_mismatch_interrogative-partial-wh_Por-que-odiaba-la-lluvia.wav,./stim/wavs/castilian_mismatch_interrogative-partial-wh_Por-que-odiaba-la-lluvia.wav,./stim/wavs/chilean_mismatch_interrogative-partial-wh_Por-que-odiaba-la-lluvia.wav,./stim/wavs/cuban_mismatch_interrogative-partial-wh_Por-que-odiaba-la-lluvia.wav,./stim/wavs/mexican_mismatch_interrogative-partial-wh_Por-que-odiaba-la-lluvia.wav,./stim/wavs/peruvian_mismatch_interrogative-partial-wh_Por-que-odiaba-la-lluvia.wav,./stim/wavs/puertorican_mismatch_interrogative-partial-wh_Por-que-odiaba-la-lluvia.wav,,,,,,,,,,,,,,,,,,,,,,,,,,,,,,,,,,,,,,,,,,,,,,,,,,,,,,,,
,,,,,,,midd17,midd,ma,Mexico,Southwest,12 or younger,no,2021-03-27_19h16.57.365,empathy_intonation_perc,2020.2.10,Win32,60,IwAR3580Za733zFChdHsYfYZcqF0zhBYb-tsbZSAFWe2xHiPwy4sHcgkPvxB8,,,,,,,,,,1,argentine,0,0,7.28279,0,41,41,19,1,20,./stim/wavs/andalusian_match_interrogative-partial-wh_Cuando-vendia-el-carro.wav,./stim/wavs/argentine_match_interrogative-partial-wh_Cuando-vendia-el-carro.wav,./stim/wavs/castilian_match_interrogative-partial-wh_Cuando-vendia-el-carro.wav,./stim/wavs/chilean_match_interrogative-partial-wh_Cuando-vendia-el-carro.wav,./stim/wavs/cuban_match_interrogative-partial-wh_Cuando-vendia-el-carro.wav,./stim/wavs/mexican_match_interrogative-partial-wh_Cuando-vendia-el-carro.wav,./stim/wavs/peruvian_match_interrogative-partial-wh_Cuando-vendia-el-carro.wav,./stim/wavs/puertorican_match_interrogative-partial-wh_Cuando-vendia-el-carro.wav,,,,,,,,,,,,,,,,,,,,,,,,,,,,,,,,,,,,,,,,,,,,,,,,,,,,,,,,
,,,,,,,midd17,midd,ma,Mexico,Southwest,12 or younger,no,2021-03-27_19h16.57.365,empathy_intonation_perc,2020.2.10,Win32,60,IwAR3580Za733zFChdHsYfYZcqF0zhBYb-tsbZSAFWe2xHiPwy4sHcgkPvxB8,,,,,,,,,,0,mexican,0,1,1.756935,0,42,42,45,1,46,./stim/wavs/andalusian_mismatch_declarative-narrow-focus_Mi-madre-come-la-fruta.wav,./stim/wavs/argentine_mismatch_declarative-narrow-focus_Mi-madre-come-la-fruta.wav,./stim/wavs/castilian_mismatch_declarative-narrow-focus_Mi-madre-come-la-fruta.wav,./stim/wavs/chilean_mismatch_declarative-narrow-focus_Mi-madre-come-la-fruta.wav,./stim/wavs/cuban_mismatch_declarative-narrow-focus_Mi-madre-come-la-fruta.wav,./stim/wavs/mexican_mismatch_declarative-narrow-focus_Mi-madre-come-la-fruta.wav,./stim/wavs/peruvian_mismatch_declarative-narrow-focus_Mi-madre-come-la-fruta.wav,./stim/wavs/puertorican_mismatch_declarative-narrow-focus_Mi-madre-come-la-fruta.wav,,,,,,,,,,,,,,,,,,,,,,,,,,,,,,,,,,,,,,,,,,,,,,,,,,,,,,,,
,,,,,,,midd17,midd,ma,Mexico,Southwest,12 or younger,no,2021-03-27_19h16.57.365,empathy_intonation_perc,2020.2.10,Win32,60,IwAR3580Za733zFChdHsYfYZcqF0zhBYb-tsbZSAFWe2xHiPwy4sHcgkPvxB8,,,,,,,,,,1,andalusian,1,1,1.514035,0,43,43,24,1,25,./stim/wavs/andalusian_match_interrogative-total-yn_Ana-lleva-el-abrigo.wav,./stim/wavs/argentine_match_interrogative-total-yn_Ana-lleva-el-abrigo.wav,./stim/wavs/castilian_match_interrogative-total-yn_Ana-lleva-el-abrigo.wav,./stim/wavs/chilean_match_interrogative-total-yn_Ana-lleva-el-abrigo.wav,./stim/wavs/cuban_match_interrogative-total-yn_Ana-lleva-el-abrigo.wav,./stim/wavs/mexican_match_interrogative-total-yn_Ana-lleva-el-abrigo.wav,./stim/wavs/peruvian_match_interrogative-total-yn_Ana-lleva-el-abrigo.wav,./stim/wavs/puertorican_match_interrogative-total-yn_Ana-lleva-el-abrigo.wav,,,,,,,,,,,,,,,,,,,,,,,,,,,,,,,,,,,,,,,,,,,,,,,,,,,,,,,,
,,,,,,,midd17,midd,ma,Mexico,Southwest,12 or younger,no,2021-03-27_19h16.57.365,empathy_intonation_perc,2020.2.10,Win32,60,IwAR3580Za733zFChdHsYfYZcqF0zhBYb-tsbZSAFWe2xHiPwy4sHcgkPvxB8,,,,,,,,,,0,argentine,0,1,1.74172,0,44,44,0,1,1,./stim/wavs/andalusian_match_declarative-broad-focus_Ana-lleva-el-abrigo.wav,./stim/wavs/argentine_match_declarative-broad-focus_Ana-lleva-el-abrigo.wav,./stim/wavs/castilian_match_declarative-broad-focus_Ana-lleva-el-abrigo.wav,./stim/wavs/chilean_match_declarative-broad-focus_Ana-lleva-el-abrigo.wav,./stim/wavs/cuban_match_declarative-broad-focus_Ana-lleva-el-abrigo.wav,./stim/wavs/mexican_match_declarative-broad-focus_Ana-lleva-el-abrigo.wav,./stim/wavs/peruvian_match_declarative-broad-focus_Ana-lleva-el-abrigo.wav,./stim/wavs/puertorican_match_declarative-broad-focus_Ana-lleva-el-abrigo.wav,,,,,,,,,,,,,,,,,,,,,,,,,,,,,,,,,,,,,,,,,,,,,,,,,,,,,,,,
,,,,,,,midd17,midd,ma,Mexico,Southwest,12 or younger,no,2021-03-27_19h16.57.365,empathy_intonation_perc,2020.2.10,Win32,60,IwAR3580Za733zFChdHsYfYZcqF0zhBYb-tsbZSAFWe2xHiPwy4sHcgkPvxB8,,,,,,,,,,0,mexican,0,1,2.165375,0,45,45,36,1,37,./stim/wavs/andalusian_mismatch_declarative-broad-focus_La-nina-lava-el-plato.wav,./stim/wavs/argentine_mismatch_declarative-broad-focus_La-nina-lava-el-plato.wav,./stim/wavs/castilian_mismatch_declarative-broad-focus_La-nina-lava-el-plato.wav,./stim/wavs/chilean_mismatch_declarative-broad-focus_La-nina-lava-el-plato.wav,./stim/wavs/cuban_mismatch_declarative-broad-focus_La-nina-lava-el-plato.wav,./stim/wavs/mexican_mismatch_declarative-broad-focus_La-nina-lava-el-plato.wav,./stim/wavs/peruvian_mismatch_declarative-broad-focus_La-nina-lava-el-plato.wav,./stim/wavs/puertorican_mismatch_declarative-broad-focus_La-nina-lava-el-plato.wav,,,,,,,,,,,,,,,,,,,,,,,,,,,,,,,,,,,,,,,,,,,,,,,,,,,,,,,,
,,,,,,,midd17,midd,ma,Mexico,Southwest,12 or younger,no,2021-03-27_19h16.57.365,empathy_intonation_perc,2020.2.10,Win32,60,IwAR3580Za733zFChdHsYfYZcqF0zhBYb-tsbZSAFWe2xHiPwy4sHcgkPvxB8,,,,,,,,,,0,puertorican,0,1,3.66465,0,46,46,38,1,39,./stim/wavs/andalusian_mismatch_declarative-broad-focus_Mi-novio-viene-del-lago.wav,./stim/wavs/argentine_mismatch_declarative-broad-focus_Mi-novio-viene-del-lago.wav,./stim/wavs/castilian_mismatch_declarative-broad-focus_Mi-novio-viene-del-lago.wav,./stim/wavs/chilean_mismatch_declarative-broad-focus_Mi-novio-viene-del-lago.wav,./stim/wavs/cuban_mismatch_declarative-broad-focus_Mi-novio-viene-del-lago.wav,./stim/wavs/mexican_mismatch_declarative-broad-focus_Mi-novio-viene-del-lago.wav,./stim/wavs/peruvian_mismatch_declarative-broad-focus_Mi-novio-viene-del-lago.wav,./stim/wavs/puertorican_mismatch_declarative-broad-focus_Mi-novio-viene-del-lago.wav,,,,,,,,,,,,,,,,,,,,,,,,,,,,,,,,,,,,,,,,,,,,,,,,,,,,,,,,
,,,,,,,midd17,midd,ma,Mexico,Southwest,12 or younger,no,2021-03-27_19h16.57.365,empathy_intonation_perc,2020.2.10,Win32,60,IwAR3580Za733zFChdHsYfYZcqF0zhBYb-tsbZSAFWe2xHiPwy4sHcgkPvxB8,,,,,,,,,,0,puertorican,0,1,1.85367,0,47,47,13,1,14,./stim/wavs/andalusian_match_declarative-narrow-focus_Maria-bebe-el-vino.wav,./stim/wavs/argentine_match_declarative-narrow-focus_Maria-bebe-el-vino.wav,./stim/wavs/castilian_match_declarative-narrow-focus_Maria-bebe-el-vino.wav,./stim/wavs/chilean_match_declarative-narrow-focus_Maria-bebe-el-vino.wav,./stim/wavs/cuban_match_declarative-narrow-focus_Maria-bebe-el-vino.wav,./stim/wavs/mexican_match_declarative-narrow-focus_Maria-bebe-el-vino.wav,./stim/wavs/peruvian_match_declarative-narrow-focus_Maria-bebe-el-vino.wav,./stim/wavs/puertorican_match_declarative-narrow-focus_Maria-bebe-el-vino.wav,,,,,,,,,,,,,,,,,,,,,,,,,,,,,,,,,,,,,,,,,,,,,,,,,,,,,,,,
,,,,,,,midd17,midd,ma,Mexico,Southwest,12 or younger,no,2021-03-27_19h16.57.365,empathy_intonation_perc,2020.2.10,Win32,60,IwAR3580Za733zFChdHsYfYZcqF0zhBYb-tsbZSAFWe2xHiPwy4sHcgkPvxB8,,,,,,,,,,1,mexican,1,1,1.617545,0,48,48,57,1,58,./stim/wavs/andalusian_mismatch_interrogative-total-yn_El-hombre-mira-la-luna.wav,./stim/wavs/argentine_mismatch_interrogative-total-yn_El-hombre-mira-la-luna.wav,./stim/wavs/castilian_mismatch_interrogative-total-yn_El-hombre-mira-la-luna.wav,./stim/wavs/chilean_mismatch_interrogative-total-yn_El-hombre-mira-la-luna.wav,./stim/wavs/cuban_mismatch_interrogative-total-yn_El-hombre-mira-la-luna.wav,./stim/wavs/mexican_mismatch_interrogative-total-yn_El-hombre-mira-la-luna.wav,./stim/wavs/peruvian_mismatch_interrogative-total-yn_El-hombre-mira-la-luna.wav,./stim/wavs/puertorican_mismatch_interrogative-total-yn_El-hombre-mira-la-luna.wav,,,,,,,,,,,,,,,,,,,,,,,,,,,,,,,,,,,,,,,,,,,,,,,,,,,,,,,,
,,,,,,,midd17,midd,ma,Mexico,Southwest,12 or younger,no,2021-03-27_19h16.57.365,empathy_intonation_perc,2020.2.10,Win32,60,IwAR3580Za733zFChdHsYfYZcqF0zhBYb-tsbZSAFWe2xHiPwy4sHcgkPvxB8,,,,,,,,,,0,peruvian,0,1,1.755275,0,49,49,33,1,34,./stim/wavs/andalusian_mismatch_declarative-broad-focus_El-hombre-mira-la-luna.wav,./stim/wavs/argentine_mismatch_declarative-broad-focus_El-hombre-mira-la-luna.wav,./stim/wavs/castilian_mismatch_declarative-broad-focus_El-hombre-mira-la-luna.wav,./stim/wavs/chilean_mismatch_declarative-broad-focus_El-hombre-mira-la-luna.wav,./stim/wavs/cuban_mismatch_declarative-broad-focus_El-hombre-mira-la-luna.wav,./stim/wavs/mexican_mismatch_declarative-broad-focus_El-hombre-mira-la-luna.wav,./stim/wavs/peruvian_mismatch_declarative-broad-focus_El-hombre-mira-la-luna.wav,./stim/wavs/puertorican_mismatch_declarative-broad-focus_El-hombre-mira-la-luna.wav,,,,,,,,,,,,,,,,,,,,,,,,,,,,,,,,,,,,,,,,,,,,,,,,,,,,,,,,
,,,,,,,midd17,midd,ma,Mexico,Southwest,12 or younger,no,2021-03-27_19h16.57.365,empathy_intonation_perc,2020.2.10,Win32,60,IwAR3580Za733zFChdHsYfYZcqF0zhBYb-tsbZSAFWe2xHiPwy4sHcgkPvxB8,,,,,,,,,,1,castilian,1,1,1.93467,0,50,50,18,1,19,./stim/wavs/andalusian_match_interrogative-partial-wh_Cuando-lleva-el-abrigo.wav,./stim/wavs/argentine_match_interrogative-partial-wh_Cuando-lleva-el-abrigo.wav,./stim/wavs/castilian_match_interrogative-partial-wh_Cuando-lleva-el-abrigo.wav,./stim/wavs/chilean_match_interrogative-partial-wh_Cuando-lleva-el-abrigo.wav,./stim/wavs/cuban_match_interrogative-partial-wh_Cuando-lleva-el-abrigo.wav,./stim/wavs/mexican_match_interrogative-partial-wh_Cuando-lleva-el-abrigo.wav,./stim/wavs/peruvian_match_interrogative-partial-wh_Cuando-lleva-el-abrigo.wav,./stim/wavs/puertorican_match_interrogative-partial-wh_Cuando-lleva-el-abrigo.wav,,,,,,,,,,,,,,,,,,,,,,,,,,,,,,,,,,,,,,,,,,,,,,,,,,,,,,,,
,,,,,,,midd17,midd,ma,Mexico,Southwest,12 or younger,no,2021-03-27_19h16.57.365,empathy_intonation_perc,2020.2.10,Win32,60,IwAR3580Za733zFChdHsYfYZcqF0zhBYb-tsbZSAFWe2xHiPwy4sHcgkPvxB8,,,,,,,,,,0,cuban,0,1,1.716745,0,51,51,35,1,36,./stim/wavs/andalusian_mismatch_declarative-broad-focus_La-maestra-vive-en-Paris.wav,./stim/wavs/argentine_mismatch_declarative-broad-focus_La-maestra-vive-en-Paris.wav,./stim/wavs/castilian_mismatch_declarative-broad-focus_La-maestra-vive-en-Paris.wav,./stim/wavs/chilean_mismatch_declarative-broad-focus_La-maestra-vive-en-Paris.wav,./stim/wavs/cuban_mismatch_declarative-broad-focus_La-maestra-vive-en-Paris.wav,./stim/wavs/mexican_mismatch_declarative-broad-focus_La-maestra-vive-en-Paris.wav,./stim/wavs/peruvian_mismatch_declarative-broad-focus_La-maestra-vive-en-Paris.wav,./stim/wavs/puertorican_mismatch_declarative-broad-focus_La-maestra-vive-en-Paris.wav,,,,,,,,,,,,,,,,,,,,,,,,,,,,,,,,,,,,,,,,,,,,,,,,,,,,,,,,
,,,,,,,midd17,midd,ma,Mexico,Southwest,12 or younger,no,2021-03-27_19h16.57.365,empathy_intonation_perc,2020.2.10,Win32,60,IwAR3580Za733zFChdHsYfYZcqF0zhBYb-tsbZSAFWe2xHiPwy4sHcgkPvxB8,,,,,,,,,,0,castilian,0,1,1.837855,0,52,52,5,1,6,./stim/wavs/andalusian_match_declarative-broad-focus_Maria-bebe-el-vino.wav,./stim/wavs/argentine_match_declarative-broad-focus_Maria-bebe-el-vino.wav,./stim/wavs/castilian_match_declarative-broad-focus_Maria-bebe-el-vino.wav,./stim/wavs/chilean_match_declarative-broad-focus_Maria-bebe-el-vino.wav,./stim/wavs/cuban_match_declarative-broad-focus_Maria-bebe-el-vino.wav,./stim/wavs/mexican_match_declarative-broad-focus_Maria-bebe-el-vino.wav,./stim/wavs/peruvian_match_declarative-broad-focus_Maria-bebe-el-vino.wav,./stim/wavs/puertorican_match_declarative-broad-focus_Maria-bebe-el-vino.wav,,,,,,,,,,,,,,,,,,,,,,,,,,,,,,,,,,,,,,,,,,,,,,,,,,,,,,,,
,,,,,,,midd17,midd,ma,Mexico,Southwest,12 or younger,no,2021-03-27_19h16.57.365,empathy_intonation_perc,2020.2.10,Win32,60,IwAR3580Za733zFChdHsYfYZcqF0zhBYb-tsbZSAFWe2xHiPwy4sHcgkPvxB8,,,,,,,,,,1,mexican,1,1,1.863545,0,53,53,22,1,23,./stim/wavs/andalusian_match_interrogative-partial-wh_Por-que-hablaba-del-agua.wav,./stim/wavs/argentine_match_interrogative-partial-wh_Por-que-hablaba-del-agua.wav,./stim/wavs/castilian_match_interrogative-partial-wh_Por-que-hablaba-del-agua.wav,./stim/wavs/chilean_match_interrogative-partial-wh_Por-que-hablaba-del-agua.wav,./stim/wavs/cuban_match_interrogative-partial-wh_Por-que-hablaba-del-agua.wav,./stim/wavs/mexican_match_interrogative-partial-wh_Por-que-hablaba-del-agua.wav,./stim/wavs/peruvian_match_interrogative-partial-wh_Por-que-hablaba-del-agua.wav,./stim/wavs/puertorican_match_interrogative-partial-wh_Por-que-hablaba-del-agua.wav,,,,,,,,,,,,,,,,,,,,,,,,,,,,,,,,,,,,,,,,,,,,,,,,,,,,,,,,
,,,,,,,midd17,midd,ma,Mexico,Southwest,12 or younger,no,2021-03-27_19h16.57.365,empathy_intonation_perc,2020.2.10,Win32,60,IwAR3580Za733zFChdHsYfYZcqF0zhBYb-tsbZSAFWe2xHiPwy4sHcgkPvxB8,,,,,,,,,,1,chilean,1,1,1.78963,0,54,54,51,1,52,./stim/wavs/andalusian_mismatch_interrogative-partial-wh_Por-que-desayuna-muy-bien.wav,./stim/wavs/argentine_mismatch_interrogative-partial-wh_Por-que-desayuna-muy-bien.wav,./stim/wavs/castilian_mismatch_interrogative-partial-wh_Por-que-desayuna-muy-bien.wav,./stim/wavs/chilean_mismatch_interrogative-partial-wh_Por-que-desayuna-muy-bien.wav,./stim/wavs/cuban_mismatch_interrogative-partial-wh_Por-que-desayuna-muy-bien.wav,./stim/wavs/mexican_mismatch_interrogative-partial-wh_Por-que-desayuna-muy-bien.wav,./stim/wavs/peruvian_mismatch_interrogative-partial-wh_Por-que-desayuna-muy-bien.wav,./stim/wavs/puertorican_mismatch_interrogative-partial-wh_Por-que-desayuna-muy-bien.wav,,,,,,,,,,,,,,,,,,,,,,,,,,,,,,,,,,,,,,,,,,,,,,,,,,,,,,,,
,,,,,,,midd17,midd,ma,Mexico,Southwest,12 or younger,no,2021-03-27_19h16.57.365,empathy_intonation_perc,2020.2.10,Win32,60,IwAR3580Za733zFChdHsYfYZcqF0zhBYb-tsbZSAFWe2xHiPwy4sHcgkPvxB8,,,,,,,,,,1,chilean,1,1,1.686625,0,55,55,55,1,56,./stim/wavs/andalusian_mismatch_interrogative-partial-wh_Por-que-vivia-en-Paris.wav,./stim/wavs/argentine_mismatch_interrogative-partial-wh_Por-que-vivia-en-Paris.wav,./stim/wavs/castilian_mismatch_interrogative-partial-wh_Por-que-vivia-en-Paris.wav,./stim/wavs/chilean_mismatch_interrogative-partial-wh_Por-que-vivia-en-Paris.wav,./stim/wavs/cuban_mismatch_interrogative-partial-wh_Por-que-vivia-en-Paris.wav,./stim/wavs/mexican_mismatch_interrogative-partial-wh_Por-que-vivia-en-Paris.wav,./stim/wavs/peruvian_mismatch_interrogative-partial-wh_Por-que-vivia-en-Paris.wav,./stim/wavs/puertorican_mismatch_interrogative-partial-wh_Por-que-vivia-en-Paris.wav,,,,,,,,,,,,,,,,,,,,,,,,,,,,,,,,,,,,,,,,,,,,,,,,,,,,,,,,
,,,,,,,midd17,midd,ma,Mexico,Southwest,12 or younger,no,2021-03-27_19h16.57.365,empathy_intonation_perc,2020.2.10,Win32,60,IwAR3580Za733zFChdHsYfYZcqF0zhBYb-tsbZSAFWe2xHiPwy4sHcgkPvxB8,,,,,,,,,,1,argentine,1,1,5.32612,0,56,56,48,1,49,./stim/wavs/andalusian_mismatch_interrogative-partial-wh_Cuando-comia-la-fruta.wav,./stim/wavs/argentine_mismatch_interrogative-partial-wh_Cuando-comia-la-fruta.wav,./stim/wavs/castilian_mismatch_interrogative-partial-wh_Cuando-comia-la-fruta.wav,./stim/wavs/chilean_mismatch_interrogative-partial-wh_Cuando-comia-la-fruta.wav,./stim/wavs/cuban_mismatch_interrogative-partial-wh_Cuando-comia-la-fruta.wav,./stim/wavs/mexican_mismatch_interrogative-partial-wh_Cuando-comia-la-fruta.wav,./stim/wavs/peruvian_mismatch_interrogative-partial-wh_Cuando-comia-la-fruta.wav,./stim/wavs/puertorican_mismatch_interrogative-partial-wh_Cuando-comia-la-fruta.wav,,,,,,,,,,,,,,,,,,,,,,,,,,,,,,,,,,,,,,,,,,,,,,,,,,,,,,,,
,,,,,,,midd17,midd,ma,Mexico,Southwest,12 or younger,no,2021-03-27_19h16.57.365,empathy_intonation_perc,2020.2.10,Win32,60,IwAR3580Za733zFChdHsYfYZcqF0zhBYb-tsbZSAFWe2xHiPwy4sHcgkPvxB8,,,,,,,,,,1,mexican,1,1,2.0797,0,57,57,25,1,26,./stim/wavs/andalusian_match_interrogative-total-yn_Daniel-iba-a-Bolivia.wav,./stim/wavs/argentine_match_interrogative-total-yn_Daniel-iba-a-Bolivia.wav,./stim/wavs/castilian_match_interrogative-total-yn_Daniel-iba-a-Bolivia.wav,./stim/wavs/chilean_match_interrogative-total-yn_Daniel-iba-a-Bolivia.wav,./stim/wavs/cuban_match_interrogative-total-yn_Daniel-iba-a-Bolivia.wav,./stim/wavs/mexican_match_interrogative-total-yn_Daniel-iba-a-Bolivia.wav,./stim/wavs/peruvian_match_interrogative-total-yn_Daniel-iba-a-Bolivia.wav,./stim/wavs/puertorican_match_interrogative-total-yn_Daniel-iba-a-Bolivia.wav,,,,,,,,,,,,,,,,,,,,,,,,,,,,,,,,,,,,,,,,,,,,,,,,,,,,,,,,
,,,,,,,midd17,midd,ma,Mexico,Southwest,12 or younger,no,2021-03-27_19h16.57.365,empathy_intonation_perc,2020.2.10,Win32,60,IwAR3580Za733zFChdHsYfYZcqF0zhBYb-tsbZSAFWe2xHiPwy4sHcgkPvxB8,,,,,,,,,,1,cuban,1,1,3.534995,0,58,58,63,1,64,./stim/wavs/andalusian_mismatch_interrogative-total-yn_Mi-tia-odia-la-lluvia.wav,./stim/wavs/argentine_mismatch_interrogative-total-yn_Mi-tia-odia-la-lluvia.wav,./stim/wavs/castilian_mismatch_interrogative-total-yn_Mi-tia-odia-la-lluvia.wav,./stim/wavs/chilean_mismatch_interrogative-total-yn_Mi-tia-odia-la-lluvia.wav,./stim/wavs/cuban_mismatch_interrogative-total-yn_Mi-tia-odia-la-lluvia.wav,./stim/wavs/mexican_mismatch_interrogative-total-yn_Mi-tia-odia-la-lluvia.wav,./stim/wavs/peruvian_mismatch_interrogative-total-yn_Mi-tia-odia-la-lluvia.wav,./stim/wavs/puertorican_mismatch_interrogative-total-yn_Mi-tia-odia-la-lluvia.wav,,,,,,,,,,,,,,,,,,,,,,,,,,,,,,,,,,,,,,,,,,,,,,,,,,,,,,,,
,,,,,,,midd17,midd,ma,Mexico,Southwest,12 or younger,no,2021-03-27_19h16.57.365,empathy_intonation_perc,2020.2.10,Win32,60,IwAR3580Za733zFChdHsYfYZcqF0zhBYb-tsbZSAFWe2xHiPwy4sHcgkPvxB8,,,,,,,,,,0,cuban,0,1,2.108085,0,59,59,1,1,2,./stim/wavs/andalusian_match_declarative-broad-focus_Daniel-iba-a-Bolivia.wav,./stim/wavs/argentine_match_declarative-broad-focus_Daniel-iba-a-Bolivia.wav,./stim/wavs/castilian_match_declarative-broad-focus_Daniel-iba-a-Bolivia.wav,./stim/wavs/chilean_match_declarative-broad-focus_Daniel-iba-a-Bolivia.wav,./stim/wavs/cuban_match_declarative-broad-focus_Daniel-iba-a-Bolivia.wav,./stim/wavs/mexican_match_declarative-broad-focus_Daniel-iba-a-Bolivia.wav,./stim/wavs/peruvian_match_declarative-broad-focus_Daniel-iba-a-Bolivia.wav,./stim/wavs/puertorican_match_declarative-broad-focus_Daniel-iba-a-Bolivia.wav,,,,,,,,,,,,,,,,,,,,,,,,,,,,,,,,,,,,,,,,,,,,,,,,,,,,,,,,
,,,,,,,midd17,midd,ma,Mexico,Southwest,12 or younger,no,2021-03-27_19h16.57.365,empathy_intonation_perc,2020.2.10,Win32,60,IwAR3580Za733zFChdHsYfYZcqF0zhBYb-tsbZSAFWe2xHiPwy4sHcgkPvxB8,,,,,,,,,,1,cuban,1,1,4.13351,0,60,60,49,1,50,./stim/wavs/andalusian_mismatch_interrogative-partial-wh_Cuando-lavaba-el-plato.wav,./stim/wavs/argentine_mismatch_interrogative-partial-wh_Cuando-lavaba-el-plato.wav,./stim/wavs/castilian_mismatch_interrogative-partial-wh_Cuando-lavaba-el-plato.wav,./stim/wavs/chilean_mismatch_interrogative-partial-wh_Cuando-lavaba-el-plato.wav,./stim/wavs/cuban_mismatch_interrogative-partial-wh_Cuando-lavaba-el-plato.wav,./stim/wavs/mexican_mismatch_interrogative-partial-wh_Cuando-lavaba-el-plato.wav,./stim/wavs/peruvian_mismatch_interrogative-partial-wh_Cuando-lavaba-el-plato.wav,./stim/wavs/puertorican_mismatch_interrogative-partial-wh_Cuando-lavaba-el-plato.wav,,,,,,,,,,,,,,,,,,,,,,,,,,,,,,,,,,,,,,,,,,,,,,,,,,,,,,,,
,,,,,,,midd17,midd,ma,Mexico,Southwest,12 or younger,no,2021-03-27_19h16.57.365,empathy_intonation_perc,2020.2.10,Win32,60,IwAR3580Za733zFChdHsYfYZcqF0zhBYb-tsbZSAFWe2xHiPwy4sHcgkPvxB8,,,,,,,,,,1,castilian,1,1,2.94595,0,61,61,26,1,27,./stim/wavs/andalusian_match_interrogative-total-yn_David-leia-el-libro.wav,./stim/wavs/argentine_match_interrogative-total-yn_David-leia-el-libro.wav,./stim/wavs/castilian_match_interrogative-total-yn_David-leia-el-libro.wav,./stim/wavs/chilean_match_interrogative-total-yn_David-leia-el-libro.wav,./stim/wavs/cuban_match_interrogative-total-yn_David-leia-el-libro.wav,./stim/wavs/mexican_match_interrogative-total-yn_David-leia-el-libro.wav,./stim/wavs/peruvian_match_interrogative-total-yn_David-leia-el-libro.wav,./stim/wavs/puertorican_match_interrogative-total-yn_David-leia-el-libro.wav,,,,,,,,,,,,,,,,,,,,,,,,,,,,,,,,,,,,,,,,,,,,,,,,,,,,,,,,
,,,,,,,midd17,midd,ma,Mexico,Southwest,12 or younger,no,2021-03-27_19h16.57.365,empathy_intonation_perc,2020.2.10,Win32,60,IwAR3580Za733zFChdHsYfYZcqF0zhBYb-tsbZSAFWe2xHiPwy4sHcgkPvxB8,,,,,,,,,,1,andalusian,1,1,1.966935,0,62,62,60,1,61,./stim/wavs/andalusian_mismatch_interrogative-total-yn_La-nina-lava-el-plato.wav,./stim/wavs/argentine_mismatch_interrogative-total-yn_La-nina-lava-el-plato.wav,./stim/wavs/castilian_mismatch_interrogative-total-yn_La-nina-lava-el-plato.wav,./stim/wavs/chilean_mismatch_interrogative-total-yn_La-nina-lava-el-plato.wav,./stim/wavs/cuban_mismatch_interrogative-total-yn_La-nina-lava-el-plato.wav,./stim/wavs/mexican_mismatch_interrogative-total-yn_La-nina-lava-el-plato.wav,./stim/wavs/peruvian_mismatch_interrogative-total-yn_La-nina-lava-el-plato.wav,./stim/wavs/puertorican_mismatch_interrogative-total-yn_La-nina-lava-el-plato.wav,,,,,,,,,,,,,,,,,,,,,,,,,,,,,,,,,,,,,,,,,,,,,,,,,,,,,,,,
,,,,,,,midd17,midd,ma,Mexico,Southwest,12 or younger,no,2021-03-27_19h16.57.365,empathy_intonation_perc,2020.2.10,Win32,60,IwAR3580Za733zFChdHsYfYZcqF0zhBYb-tsbZSAFWe2xHiPwy4sHcgkPvxB8,,,,,,,,,,0,peruvian,0,1,1.80744,0,63,63,44,1,45,./stim/wavs/andalusian_mismatch_declarative-narrow-focus_La-nina-lava-el-plato.wav,./stim/wavs/argentine_mismatch_declarative-narrow-focus_La-nina-lava-el-plato.wav,./stim/wavs/castilian_mismatch_declarative-narrow-focus_La-nina-lava-el-plato.wav,./stim/wavs/chilean_mismatch_declarative-narrow-focus_La-nina-lava-el-plato.wav,./stim/wavs/cuban_mismatch_declarative-narrow-focus_La-nina-lava-el-plato.wav,./stim/wavs/mexican_mismatch_declarative-narrow-focus_La-nina-lava-el-plato.wav,./stim/wavs/peruvian_mismatch_declarative-narrow-focus_La-nina-lava-el-plato.wav,./stim/wavs/puertorican_mismatch_declarative-narrow-focus_La-nina-lava-el-plato.wav,,,,,,,,,,,,,,,,,,,,,,,,,,,,,,,,,,,,,,,,,,,,,,,,,,,,,,,,
,,,,,,,midd17,midd,ma,Mexico,Southwest,12 or younger,no,2021-03-27_19h16.57.365,empathy_intonation_perc,2020.2.10,Win32,60,IwAR3580Za733zFChdHsYfYZcqF0zhBYb-tsbZSAFWe2xHiPwy4sHcgkPvxB8,,,,,,,,,,,,,,,,,,,,,,,,,,,,,h,1,3.054615,0,0,0,0,1,,,,,,,,,,,,,,,,,,,,,,,,,,,,,,,,,,,,,,,,,,,,,,,,
,,,,,"Great! Now we will move on. The next task consists of about 60 trials, in each of which you will see a string of letters. 
  
  Your task is to decide whether this is a real Spanish word or not.",(press the spacebar to continue),midd17,midd,ma,Mexico,Southwest,12 or younger,no,2021-03-27_19h16.57.365,empathy_intonation_perc,2020.2.10,Win32,60,IwAR3580Za733zFChdHsYfYZcqF0zhBYb-tsbZSAFWe2xHiPwy4sHcgkPvxB8,,,,,,,,,,,,,,,,,,,,,,,,,,,,,,,,,,,,,0,0,0,0,1,,,,,,,,,,,,,,,,,,,,,,,,,,,,,,,,,,,,,,,,,,,
,,,,,"If you think it is an existing Spanish word, you type '1' (for 'REAL'), and if you think it is not an existing Spanish word, you type '0' (for 'FAKE').",(press the spacebar to continue),midd17,midd,ma,Mexico,Southwest,12 or younger,no,2021-03-27_19h16.57.365,empathy_intonation_perc,2020.2.10,Win32,60,IwAR3580Za733zFChdHsYfYZcqF0zhBYb-tsbZSAFWe2xHiPwy4sHcgkPvxB8,,,,,,,,,,,,,,,,,,,,,,,,,,,,,,,,,,,,,0,1,1,1,1,,,,,,,,,,,,,,,,,,,,,,,,,,,,,,,,,,,,,,,,,,,
,,,,,"If you are sure that the word exists, even though you dont know its exact meaning, you may still respond '1' (REAL). 
  
  But if you are not sure if it is an existing word, you should respond '0' (FAKE).
  
  Let's do a practice round...",(press the spacebar to continue),midd17,midd,ma,Mexico,Southwest,12 or younger,no,2021-03-27_19h16.57.365,empathy_intonation_perc,2020.2.10,Win32,60,IwAR3580Za733zFChdHsYfYZcqF0zhBYb-tsbZSAFWe2xHiPwy4sHcgkPvxB8,,,,,,,,,,,,,,,,,,,,,,,,,,,,,,,,,,,,,0,2,2,2,1,,,,,,,,,,,,,,,,,,,,,,,,,,,,,,,,,,,,,,,,,,,
,,,,,,,midd17,midd,ma,Mexico,Southwest,12 or younger,no,2021-03-27_19h16.57.365,empathy_intonation_perc,2020.2.10,Win32,60,IwAR3580Za733zFChdHsYfYZcqF0zhBYb-tsbZSAFWe2xHiPwy4sHcgkPvxB8,,,,,,,,,,0,,,,,,,,,,,,,,,,,,,,,,,,,,,,,,,,0,1,7.0374,0,0,0,0,1,0,depiste,REAL,FAKE,,,,,,,,,,,,,,,,,,,,,,,,,,,,,,,
,,,,,,,midd17,midd,ma,Mexico,Southwest,12 or younger,no,2021-03-27_19h16.57.365,empathy_intonation_perc,2020.2.10,Win32,60,IwAR3580Za733zFChdHsYfYZcqF0zhBYb-tsbZSAFWe2xHiPwy4sHcgkPvxB8,,,,,,,,,,1,,,,,,,,,,,,,,,,,,,,,,,,,,,,,,,,1,1,1.124045,0,1,1,1,1,0,s,REAL,FAKE,,,,,,,,,,,,,,,,,,,,,,,,,,,,,,,
,,,,,,,midd17,midd,ma,Mexico,Southwest,12 or younger,no,2021-03-27_19h16.57.365,empathy_intonation_perc,2020.2.10,Win32,60,IwAR3580Za733zFChdHsYfYZcqF0zhBYb-tsbZSAFWe2xHiPwy4sHcgkPvxB8,,,,,,,,,,0,,,,,,,,,,,,,,,,,,,,,,,,,,,,,,,,0,1,2.14522,0,2,2,2,1,0,con,REAL,FAKE,,,,,,,,,,,,,,,,,,,,,,,,,,,,,,,
,,,,,,,midd17,midd,ma,Mexico,Southwest,12 or younger,no,2021-03-27_19h16.57.365,empathy_intonation_perc,2020.2.10,Win32,60,IwAR3580Za733zFChdHsYfYZcqF0zhBYb-tsbZSAFWe2xHiPwy4sHcgkPvxB8,,,,,,,,,,0,,,,,,,,,,,,,,,,,,,,,,,,,,,,,,,,0,1,2.85601,0,3,3,3,1,0,calpar,REAL,FAKE,,,,,,,,,,,,,,,,,,,,,,,,,,,,,,,
,,,,,,,midd17,midd,ma,Mexico,Southwest,12 or younger,no,2021-03-27_19h16.57.365,empathy_intonation_perc,2020.2.10,Win32,60,IwAR3580Za733zFChdHsYfYZcqF0zhBYb-tsbZSAFWe2xHiPwy4sHcgkPvxB8,,,,,,,,,,0,,,,,,,,,,,,,,,,,,,,,,,,,,,,,,,,0,1,1.75868,0,4,4,4,1,0,joten,REAL,FAKE,,,,,,,,,,,,,,,,,,,,,,,,,,,,,,,
,,,,,,,midd17,midd,ma,Mexico,Southwest,12 or younger,no,2021-03-27_19h16.57.365,empathy_intonation_perc,2020.2.10,Win32,60,IwAR3580Za733zFChdHsYfYZcqF0zhBYb-tsbZSAFWe2xHiPwy4sHcgkPvxB8,,,,,,,,,,1,,,,,,,,,,,,,,,,,,,,,,,,,,,,,,,,1,1,1.113635,0,5,5,5,1,0,sacapuntas,REAL,FAKE,,,,,,,,,,,,,,,,,,,,,,,,,,,,,,,
,,,,,,,midd17,midd,ma,Mexico,Southwest,12 or younger,no,2021-03-27_19h16.57.365,empathy_intonation_perc,2020.2.10,Win32,60,IwAR3580Za733zFChdHsYfYZcqF0zhBYb-tsbZSAFWe2xHiPwy4sHcgkPvxB8,,,,,,,,,,0,,,,,,,,,,,,,,,,,,,,,,,,,,,,,,,,0,1,2.03164,0,6,6,6,1,0,priba,REAL,FAKE,,,,,,,,,,,,,,,,,,,,,,,,,,,,,,,
,,,,,,,midd17,midd,ma,Mexico,Southwest,12 or younger,no,2021-03-27_19h16.57.365,empathy_intonation_perc,2020.2.10,Win32,60,IwAR3580Za733zFChdHsYfYZcqF0zhBYb-tsbZSAFWe2xHiPwy4sHcgkPvxB8,,,,,,,,,,0,,,,,,,,,,,,,,,,,,,,,,,,,,,,,,,,0,1,3.47933,0,7,7,7,1,0,pelasula,REAL,FAKE,,,,,,,,,,,,,,,,,,,,,,,,,,,,,,,
,,,,,,,midd17,midd,ma,Mexico,Southwest,12 or younger,no,2021-03-27_19h16.57.365,empathy_intonation_perc,2020.2.10,Win32,60,IwAR3580Za733zFChdHsYfYZcqF0zhBYb-tsbZSAFWe2xHiPwy4sHcgkPvxB8,,,,,,,,,,1,,,,,,,,,,,,,,,,,,,,,,,,,,,,,,,,1,1,0.93464,0,8,8,8,1,0,bien,REAL,FAKE,,,,,,,,,,,,,,,,,,,,,,,,,,,,,,,
,,,,,,,midd17,midd,ma,Mexico,Southwest,12 or younger,no,2021-03-27_19h16.57.365,empathy_intonation_perc,2020.2.10,Win32,60,IwAR3580Za733zFChdHsYfYZcqF0zhBYb-tsbZSAFWe2xHiPwy4sHcgkPvxB8,,,,,,,,,,1,,,,,,,,,,,,,,,,,,,,,,,,,,,,,,,,1,1,0.65556,0,9,9,9,1,0,casa,REAL,FAKE,,,,,,,,,,,,,,,,,,,,,,,,,,,,,,,
,,,,,,,midd17,midd,ma,Mexico,Southwest,12 or younger,no,2021-03-27_19h16.57.365,empathy_intonation_perc,2020.2.10,Win32,60,IwAR3580Za733zFChdHsYfYZcqF0zhBYb-tsbZSAFWe2xHiPwy4sHcgkPvxB8,,,,,,,,,,0,,,,,,,,,,,,,,,,,,,,,,,,,,,,,,,,0,1,1.36082,0,10,10,10,1,0,lejo,REAL,FAKE,,,,,,,,,,,,,,,,,,,,,,,,,,,,,,,
,,,,,,,midd17,midd,ma,Mexico,Southwest,12 or younger,no,2021-03-27_19h16.57.365,empathy_intonation_perc,2020.2.10,Win32,60,IwAR3580Za733zFChdHsYfYZcqF0zhBYb-tsbZSAFWe2xHiPwy4sHcgkPvxB8,,,,,,,,,,0,,,,,,,,,,,,,,,,,,,,,,,,,,,,,,,,0,1,1.929185,0,11,11,11,1,0,pretantas,REAL,FAKE,,,,,,,,,,,,,,,,,,,,,,,,,,,,,,,
,,,,,,,midd17,midd,ma,Mexico,Southwest,12 or younger,no,2021-03-27_19h16.57.365,empathy_intonation_perc,2020.2.10,Win32,60,IwAR3580Za733zFChdHsYfYZcqF0zhBYb-tsbZSAFWe2xHiPwy4sHcgkPvxB8,,,,,,,,,,1,,,,,,,,,,,,,,,,,,,,,,,,,,,,,,,,,,,,,,,,73,hervidor,,,0,0,4.345495,0,0,0,72,1,REAL,FAKE,,,,,,,,,,,,,,,,,,,,,
,,,,,,,midd17,midd,ma,Mexico,Southwest,12 or younger,no,2021-03-27_19h16.57.365,empathy_intonation_perc,2020.2.10,Win32,60,IwAR3580Za733zFChdHsYfYZcqF0zhBYb-tsbZSAFWe2xHiPwy4sHcgkPvxB8,,,,,,,,,,1,,,,,,,,,,,,,,,,,,,,,,,,,,,,,,,,,,,,,,,,59,besar,,,1,1,1.05223,0,1,1,58,1,REAL,FAKE,,,,,,,,,,,,,,,,,,,,,
,,,,,,,midd17,midd,ma,Mexico,Southwest,12 or younger,no,2021-03-27_19h16.57.365,empathy_intonation_perc,2020.2.10,Win32,60,IwAR3580Za733zFChdHsYfYZcqF0zhBYb-tsbZSAFWe2xHiPwy4sHcgkPvxB8,,,,,,,,,,1,,,,,,,,,,,,,,,,,,,,,,,,,,,,,,,,,,,,,,,,80,hormiga,,,1,1,0.876455,0,2,2,79,1,REAL,FAKE,,,,,,,,,,,,,,,,,,,,,
,,,,,,,midd17,midd,ma,Mexico,Southwest,12 or younger,no,2021-03-27_19h16.57.365,empathy_intonation_perc,2020.2.10,Win32,60,IwAR3580Za733zFChdHsYfYZcqF0zhBYb-tsbZSAFWe2xHiPwy4sHcgkPvxB8,,,,,,,,,,1,,,,,,,,,,,,,,,,,,,,,,,,,,,,,,,,,,,,,,,,38,estornudar,,,1,1,1.01108,0,3,3,37,1,REAL,FAKE,,,,,,,,,,,,,,,,,,,,,
,,,,,,,midd17,midd,ma,Mexico,Southwest,12 or younger,no,2021-03-27_19h16.57.365,empathy_intonation_perc,2020.2.10,Win32,60,IwAR3580Za733zFChdHsYfYZcqF0zhBYb-tsbZSAFWe2xHiPwy4sHcgkPvxB8,,,,,,,,,,0,,,,,,,,,,,,,,,,,,,,,,,,,,,,,,,,,,,,,,,,82,empirador,,,1,0,2.930365,0,4,4,81,1,REAL,FAKE,,,,,,,,,,,,,,,,,,,,,
,,,,,,,midd17,midd,ma,Mexico,Southwest,12 or younger,no,2021-03-27_19h16.57.365,empathy_intonation_perc,2020.2.10,Win32,60,IwAR3580Za733zFChdHsYfYZcqF0zhBYb-tsbZSAFWe2xHiPwy4sHcgkPvxB8,,,,,,,,,,1,,,,,,,,,,,,,,,,,,,,,,,,,,,,,,,,,,,,,,,,5,zapato,,,1,1,1.227055,0,5,5,4,1,REAL,FAKE,,,,,,,,,,,,,,,,,,,,,
,,,,,,,midd17,midd,ma,Mexico,Southwest,12 or younger,no,2021-03-27_19h16.57.365,empathy_intonation_perc,2020.2.10,Win32,60,IwAR3580Za733zFChdHsYfYZcqF0zhBYb-tsbZSAFWe2xHiPwy4sHcgkPvxB8,,,,,,,,,,1,,,,,,,,,,,,,,,,,,,,,,,,,,,,,,,,,,,,,,,,24,ltigo,,,0,0,3.614625,0,6,6,23,1,REAL,FAKE,,,,,,,,,,,,,,,,,,,,,
,,,,,,,midd17,midd,ma,Mexico,Southwest,12 or younger,no,2021-03-27_19h16.57.365,empathy_intonation_perc,2020.2.10,Win32,60,IwAR3580Za733zFChdHsYfYZcqF0zhBYb-tsbZSAFWe2xHiPwy4sHcgkPvxB8,,,,,,,,,,1,,,,,,,,,,,,,,,,,,,,,,,,,,,,,,,,,,,,,,,,12,asesinato,,,0,0,3.00453,0,7,7,11,1,REAL,FAKE,,,,,,,,,,,,,,,,,,,,,
,,,,,,,midd17,midd,ma,Mexico,Southwest,12 or younger,no,2021-03-27_19h16.57.365,empathy_intonation_perc,2020.2.10,Win32,60,IwAR3580Za733zFChdHsYfYZcqF0zhBYb-tsbZSAFWe2xHiPwy4sHcgkPvxB8,,,,,,,,,,0,,,,,,,,,,,,,,,,,,,,,,,,,,,,,,,,,,,,,,,,47,cartinar,,,0,1,2.767745,0,8,8,46,1,REAL,FAKE,,,,,,,,,,,,,,,,,,,,,
,,,,,,,midd17,midd,ma,Mexico,Southwest,12 or younger,no,2021-03-27_19h16.57.365,empathy_intonation_perc,2020.2.10,Win32,60,IwAR3580Za733zFChdHsYfYZcqF0zhBYb-tsbZSAFWe2xHiPwy4sHcgkPvxB8,,,,,,,,,,1,,,,,,,,,,,,,,,,,,,,,,,,,,,,,,,,,,,,,,,,88,acantilado,,,1,1,4.098165,0,9,9,87,1,REAL,FAKE,,,,,,,,,,,,,,,,,,,,,
,,,,,,,midd17,midd,ma,Mexico,Southwest,12 or younger,no,2021-03-27_19h16.57.365,empathy_intonation_perc,2020.2.10,Win32,60,IwAR3580Za733zFChdHsYfYZcqF0zhBYb-tsbZSAFWe2xHiPwy4sHcgkPvxB8,,,,,,,,,,1,,,,,,,,,,,,,,,,,,,,,,,,,,,,,,,,,,,,,,,,45,jilguero,,,0,0,2.25622,0,10,10,44,1,REAL,FAKE,,,,,,,,,,,,,,,,,,,,,
,,,,,,,midd17,midd,ma,Mexico,Southwest,12 or younger,no,2021-03-27_19h16.57.365,empathy_intonation_perc,2020.2.10,Win32,60,IwAR3580Za733zFChdHsYfYZcqF0zhBYb-tsbZSAFWe2xHiPwy4sHcgkPvxB8,,,,,,,,,,1,,,,,,,,,,,,,,,,,,,,,,,,,,,,,,,,,,,,,,,,89,prisa,,,1,1,1.277135,0,11,11,88,1,REAL,FAKE,,,,,,,,,,,,,,,,,,,,,
,,,,,,,midd17,midd,ma,Mexico,Southwest,12 or younger,no,2021-03-27_19h16.57.365,empathy_intonation_perc,2020.2.10,Win32,60,IwAR3580Za733zFChdHsYfYZcqF0zhBYb-tsbZSAFWe2xHiPwy4sHcgkPvxB8,,,,,,,,,,0,,,,,,,,,,,,,,,,,,,,,,,,,,,,,,,,,,,,,,,,87,grodo,,,0,1,1.73513,0,12,12,86,1,REAL,FAKE,,,,,,,,,,,,,,,,,,,,,
,,,,,,,midd17,midd,ma,Mexico,Southwest,12 or younger,no,2021-03-27_19h16.57.365,empathy_intonation_perc,2020.2.10,Win32,60,IwAR3580Za733zFChdHsYfYZcqF0zhBYb-tsbZSAFWe2xHiPwy4sHcgkPvxB8,,,,,,,,,,0,,,,,,,,,,,,,,,,,,,,,,,,,,,,,,,,,,,,,,,,79,tropaje,,,1,0,3.16225,0,13,13,78,1,REAL,FAKE,,,,,,,,,,,,,,,,,,,,,
,,,,,,,midd17,midd,ma,Mexico,Southwest,12 or younger,no,2021-03-27_19h16.57.365,empathy_intonation_perc,2020.2.10,Win32,60,IwAR3580Za733zFChdHsYfYZcqF0zhBYb-tsbZSAFWe2xHiPwy4sHcgkPvxB8,,,,,,,,,,1,,,,,,,,,,,,,,,,,,,,,,,,,,,,,,,,,,,,,,,,81,pozo,,,1,1,2.879035,0,14,14,80,1,REAL,FAKE,,,,,,,,,,,,,,,,,,,,,
,,,,,,,midd17,midd,ma,Mexico,Southwest,12 or younger,no,2021-03-27_19h16.57.365,empathy_intonation_perc,2020.2.10,Win32,60,IwAR3580Za733zFChdHsYfYZcqF0zhBYb-tsbZSAFWe2xHiPwy4sHcgkPvxB8,,,,,,,,,,0,,,,,,,,,,,,,,,,,,,,,,,,,,,,,,,,,,,,,,,,23,lampera,,,0,1,8.508545,0,15,15,22,1,REAL,FAKE,,,,,,,,,,,,,,,,,,,,,
,,,,,,,midd17,midd,ma,Mexico,Southwest,12 or younger,no,2021-03-27_19h16.57.365,empathy_intonation_perc,2020.2.10,Win32,60,IwAR3580Za733zFChdHsYfYZcqF0zhBYb-tsbZSAFWe2xHiPwy4sHcgkPvxB8,,,,,,,,,,0,,,,,,,,,,,,,,,,,,,,,,,,,,,,,,,,,,,,,,,,27,acutacin,,,1,0,3.855725,0,16,16,26,1,REAL,FAKE,,,,,,,,,,,,,,,,,,,,,
,,,,,,,midd17,midd,ma,Mexico,Southwest,12 or younger,no,2021-03-27_19h16.57.365,empathy_intonation_perc,2020.2.10,Win32,60,IwAR3580Za733zFChdHsYfYZcqF0zhBYb-tsbZSAFWe2xHiPwy4sHcgkPvxB8,,,,,,,,,,0,,,,,,,,,,,,,,,,,,,,,,,,,,,,,,,,,,,,,,,,35,rompido,,,1,0,1.31397,0,17,17,34,1,REAL,FAKE,,,,,,,,,,,,,,,,,,,,,
,,,,,,,midd17,midd,ma,Mexico,Southwest,12 or younger,no,2021-03-27_19h16.57.365,empathy_intonation_perc,2020.2.10,Win32,60,IwAR3580Za733zFChdHsYfYZcqF0zhBYb-tsbZSAFWe2xHiPwy4sHcgkPvxB8,,,,,,,,,,0,,,,,,,,,,,,,,,,,,,,,,,,,,,,,,,,,,,,,,,,84,escuto,,,0,1,1.957985,0,18,18,83,1,REAL,FAKE,,,,,,,,,,,,,,,,,,,,,
,,,,,,,midd17,midd,ma,Mexico,Southwest,12 or younger,no,2021-03-27_19h16.57.365,empathy_intonation_perc,2020.2.10,Win32,60,IwAR3580Za733zFChdHsYfYZcqF0zhBYb-tsbZSAFWe2xHiPwy4sHcgkPvxB8,,,,,,,,,,1,,,,,,,,,,,,,,,,,,,,,,,,,,,,,,,,,,,,,,,,15,regar,,,1,1,1.88527,0,19,19,14,1,REAL,FAKE,,,,,,,,,,,,,,,,,,,,,
,,,,,,,midd17,midd,ma,Mexico,Southwest,12 or younger,no,2021-03-27_19h16.57.365,empathy_intonation_perc,2020.2.10,Win32,60,IwAR3580Za733zFChdHsYfYZcqF0zhBYb-tsbZSAFWe2xHiPwy4sHcgkPvxB8,,,,,,,,,,0,,,,,,,,,,,,,,,,,,,,,,,,,,,,,,,,,,,,,,,,10,antar,,,0,1,1.978535,0,20,20,9,1,REAL,FAKE,,,,,,,,,,,,,,,,,,,,,
,,,,,,,midd17,midd,ma,Mexico,Southwest,12 or younger,no,2021-03-27_19h16.57.365,empathy_intonation_perc,2020.2.10,Win32,60,IwAR3580Za733zFChdHsYfYZcqF0zhBYb-tsbZSAFWe2xHiPwy4sHcgkPvxB8,,,,,,,,,,0,,,,,,,,,,,,,,,,,,,,,,,,,,,,,,,,,,,,,,,,63,esposante,,,0,1,6.91419,0,21,21,62,1,REAL,FAKE,,,,,,,,,,,,,,,,,,,,,
,,,,,,,midd17,midd,ma,Mexico,Southwest,12 or younger,no,2021-03-27_19h16.57.365,empathy_intonation_perc,2020.2.10,Win32,60,IwAR3580Za733zFChdHsYfYZcqF0zhBYb-tsbZSAFWe2xHiPwy4sHcgkPvxB8,,,,,,,,,,1,,,,,,,,,,,,,,,,,,,,,,,,,,,,,,,,,,,,,,,,90,clavel,,,1,1,1.287665,0,22,22,89,1,REAL,FAKE,,,,,,,,,,,,,,,,,,,,,
,,,,,,,midd17,midd,ma,Mexico,Southwest,12 or younger,no,2021-03-27_19h16.57.365,empathy_intonation_perc,2020.2.10,Win32,60,IwAR3580Za733zFChdHsYfYZcqF0zhBYb-tsbZSAFWe2xHiPwy4sHcgkPvxB8,,,,,,,,,,1,,,,,,,,,,,,,,,,,,,,,,,,,,,,,,,,,,,,,,,,60,matar,,,1,1,0.74251,0,23,23,59,1,REAL,FAKE,,,,,,,,,,,,,,,,,,,,,
,,,,,,,midd17,midd,ma,Mexico,Southwest,12 or younger,no,2021-03-27_19h16.57.365,empathy_intonation_perc,2020.2.10,Win32,60,IwAR3580Za733zFChdHsYfYZcqF0zhBYb-tsbZSAFWe2xHiPwy4sHcgkPvxB8,,,,,,,,,,1,,,,,,,,,,,,,,,,,,,,,,,,,,,,,,,,,,,,,,,,46,martillo,,,1,1,1.12817,0,24,24,45,1,REAL,FAKE,,,,,,,,,,,,,,,,,,,,,
,,,,,,,midd17,midd,ma,Mexico,Southwest,12 or younger,no,2021-03-27_19h16.57.365,empathy_intonation_perc,2020.2.10,Win32,60,IwAR3580Za733zFChdHsYfYZcqF0zhBYb-tsbZSAFWe2xHiPwy4sHcgkPvxB8,,,,,,,,,,1,,,,,,,,,,,,,,,,,,,,,,,,,,,,,,,,,,,,,,,,26,secuestro,,,1,1,1.10361,0,25,25,25,1,REAL,FAKE,,,,,,,,,,,,,,,,,,,,,
,,,,,,,midd17,midd,ma,Mexico,Southwest,12 or younger,no,2021-03-27_19h16.57.365,empathy_intonation_perc,2020.2.10,Win32,60,IwAR3580Za733zFChdHsYfYZcqF0zhBYb-tsbZSAFWe2xHiPwy4sHcgkPvxB8,,,,,,,,,,1,,,,,,,,,,,,,,,,,,,,,,,,,,,,,,,,,,,,,,,,55,nevar,,,1,1,0.92701,0,26,26,54,1,REAL,FAKE,,,,,,,,,,,,,,,,,,,,,
,,,,,,,midd17,midd,ma,Mexico,Southwest,12 or younger,no,2021-03-27_19h16.57.365,empathy_intonation_perc,2020.2.10,Win32,60,IwAR3580Za733zFChdHsYfYZcqF0zhBYb-tsbZSAFWe2xHiPwy4sHcgkPvxB8,,,,,,,,,,1,,,,,,,,,,,,,,,,,,,,,,,,,,,,,,,,,,,,,,,,83,guante,,,1,1,0.89018,0,27,27,82,1,REAL,FAKE,,,,,,,,,,,,,,,,,,,,,
,,,,,,,midd17,midd,ma,Mexico,Southwest,12 or younger,no,2021-03-27_19h16.57.365,empathy_intonation_perc,2020.2.10,Win32,60,IwAR3580Za733zFChdHsYfYZcqF0zhBYb-tsbZSAFWe2xHiPwy4sHcgkPvxB8,,,,,,,,,,1,,,,,,,,,,,,,,,,,,,,,,,,,,,,,,,,,,,,,,,,34,aviso,,,1,1,0.670925,0,28,28,33,1,REAL,FAKE,,,,,,,,,,,,,,,,,,,,,
,,,,,,,midd17,midd,ma,Mexico,Southwest,12 or younger,no,2021-03-27_19h16.57.365,empathy_intonation_perc,2020.2.10,Win32,60,IwAR3580Za733zFChdHsYfYZcqF0zhBYb-tsbZSAFWe2xHiPwy4sHcgkPvxB8,,,,,,,,,,0,,,,,,,,,,,,,,,,,,,,,,,,,,,,,,,,,,,,,,,,4,batilln,,,0,1,8.13825,0,29,29,3,1,REAL,FAKE,,,,,,,,,,,,,,,,,,,,,
,,,,,,,midd17,midd,ma,Mexico,Southwest,12 or younger,no,2021-03-27_19h16.57.365,empathy_intonation_perc,2020.2.10,Win32,60,IwAR3580Za733zFChdHsYfYZcqF0zhBYb-tsbZSAFWe2xHiPwy4sHcgkPvxB8,,,,,,,,,,1,,,,,,,,,,,,,,,,,,,,,,,,,,,,,,,,,,,,,,,,39,torpe,,,1,1,1.95369,0,30,30,38,1,REAL,FAKE,,,,,,,,,,,,,,,,,,,,,
,,,,,,,midd17,midd,ma,Mexico,Southwest,12 or younger,no,2021-03-27_19h16.57.365,empathy_intonation_perc,2020.2.10,Win32,60,IwAR3580Za733zFChdHsYfYZcqF0zhBYb-tsbZSAFWe2xHiPwy4sHcgkPvxB8,,,,,,,,,,1,,,,,,,,,,,,,,,,,,,,,,,,,,,,,,,,,,,,,,,,48,ladrn,,,1,1,3.026495,0,31,31,47,1,REAL,FAKE,,,,,,,,,,,,,,,,,,,,,
,,,,,,,midd17,midd,ma,Mexico,Southwest,12 or younger,no,2021-03-27_19h16.57.365,empathy_intonation_perc,2020.2.10,Win32,60,IwAR3580Za733zFChdHsYfYZcqF0zhBYb-tsbZSAFWe2xHiPwy4sHcgkPvxB8,,,,,,,,,,1,,,,,,,,,,,,,,,,,,,,,,,,,,,,,,,,,,,,,,,,3,pulmones,,,1,1,1.479175,0,32,32,2,1,REAL,FAKE,,,,,,,,,,,,,,,,,,,,,
,,,,,,,midd17,midd,ma,Mexico,Southwest,12 or younger,no,2021-03-27_19h16.57.365,empathy_intonation_perc,2020.2.10,Win32,60,IwAR3580Za733zFChdHsYfYZcqF0zhBYb-tsbZSAFWe2xHiPwy4sHcgkPvxB8,,,,,,,,,,1,,,,,,,,,,,,,,,,,,,,,,,,,,,,,,,,,,,,,,,,6,tergiversar,,,0,0,2.63939,0,33,33,5,1,REAL,FAKE,,,,,,,,,,,,,,,,,,,,,
,,,,,,,midd17,midd,ma,Mexico,Southwest,12 or younger,no,2021-03-27_19h16.57.365,empathy_intonation_perc,2020.2.10,Win32,60,IwAR3580Za733zFChdHsYfYZcqF0zhBYb-tsbZSAFWe2xHiPwy4sHcgkPvxB8,,,,,,,,,,1,,,,,,,,,,,,,,,,,,,,,,,,,,,,,,,,,,,,,,,,77,tiburn,,,1,1,0.95396,0,34,34,76,1,REAL,FAKE,,,,,,,,,,,,,,,,,,,,,
,,,,,,,midd17,midd,ma,Mexico,Southwest,12 or younger,no,2021-03-27_19h16.57.365,empathy_intonation_perc,2020.2.10,Win32,60,IwAR3580Za733zFChdHsYfYZcqF0zhBYb-tsbZSAFWe2xHiPwy4sHcgkPvxB8,,,,,,,,,,1,,,,,,,,,,,,,,,,,,,,,,,,,,,,,,,,,,,,,,,,64,orgulloso,,,1,1,1.23558,0,35,35,63,1,REAL,FAKE,,,,,,,,,,,,,,,,,,,,,
,,,,,,,midd17,midd,ma,Mexico,Southwest,12 or younger,no,2021-03-27_19h16.57.365,empathy_intonation_perc,2020.2.10,Win32,60,IwAR3580Za733zFChdHsYfYZcqF0zhBYb-tsbZSAFWe2xHiPwy4sHcgkPvxB8,,,,,,,,,,0,,,,,,,,,,,,,,,,,,,,,,,,,,,,,,,,,,,,,,,,30,alardio,,,0,1,1.64525,0,36,36,29,1,REAL,FAKE,,,,,,,,,,,,,,,,,,,,,
,,,,,,,midd17,midd,ma,Mexico,Southwest,12 or younger,no,2021-03-27_19h16.57.365,empathy_intonation_perc,2020.2.10,Win32,60,IwAR3580Za733zFChdHsYfYZcqF0zhBYb-tsbZSAFWe2xHiPwy4sHcgkPvxB8,,,,,,,,,,0,,,,,,,,,,,,,,,,,,,,,,,,,,,,,,,,,,,,,,,,17,floroso,,,0,1,10.864895,0,37,37,16,1,REAL,FAKE,,,,,,,,,,,,,,,,,,,,,
,,,,,,,midd17,midd,ma,Mexico,Southwest,12 or younger,no,2021-03-27_19h16.57.365,empathy_intonation_perc,2020.2.10,Win32,60,IwAR3580Za733zFChdHsYfYZcqF0zhBYb-tsbZSAFWe2xHiPwy4sHcgkPvxB8,,,,,,,,,,0,,,,,,,,,,,,,,,,,,,,,,,,,,,,,,,,,,,,,,,,29,decar,,,0,1,2.0612,0,38,38,28,1,REAL,FAKE,,,,,,,,,,,,,,,,,,,,,
,,,,,,,midd17,midd,ma,Mexico,Southwest,12 or younger,no,2021-03-27_19h16.57.365,empathy_intonation_perc,2020.2.10,Win32,60,IwAR3580Za733zFChdHsYfYZcqF0zhBYb-tsbZSAFWe2xHiPwy4sHcgkPvxB8,,,,,,,,,,1,,,,,,,,,,,,,,,,,,,,,,,,,,,,,,,,,,,,,,,,7,psimo,,,1,1,1.344095,0,39,39,6,1,REAL,FAKE,,,,,,,,,,,,,,,,,,,,,
,,,,,,,midd17,midd,ma,Mexico,Southwest,12 or younger,no,2021-03-27_19h16.57.365,empathy_intonation_perc,2020.2.10,Win32,60,IwAR3580Za733zFChdHsYfYZcqF0zhBYb-tsbZSAFWe2xHiPwy4sHcgkPvxB8,,,,,,,,,,1,,,,,,,,,,,,,,,,,,,,,,,,,,,,,,,,,,,,,,,,49,ganar,,,1,1,0.72402,0,40,40,48,1,REAL,FAKE,,,,,,,,,,,,,,,,,,,,,
,,,,,,,midd17,midd,ma,Mexico,Southwest,12 or younger,no,2021-03-27_19h16.57.365,empathy_intonation_perc,2020.2.10,Win32,60,IwAR3580Za733zFChdHsYfYZcqF0zhBYb-tsbZSAFWe2xHiPwy4sHcgkPvxB8,,,,,,,,,,0,,,,,,,,,,,,,,,,,,,,,,,,,,,,,,,,,,,,,,,,19,brecedad,,,0,1,1.65195,0,41,41,18,1,REAL,FAKE,,,,,,,,,,,,,,,,,,,,,
,,,,,,,midd17,midd,ma,Mexico,Southwest,12 or younger,no,2021-03-27_19h16.57.365,empathy_intonation_perc,2020.2.10,Win32,60,IwAR3580Za733zFChdHsYfYZcqF0zhBYb-tsbZSAFWe2xHiPwy4sHcgkPvxB8,,,,,,,,,,1,,,,,,,,,,,,,,,,,,,,,,,,,,,,,,,,,,,,,,,,31,pandilla,,,0,0,6.40963,0,42,42,30,1,REAL,FAKE,,,,,,,,,,,,,,,,,,,,,
,,,,,,,midd17,midd,ma,Mexico,Southwest,12 or younger,no,2021-03-27_19h16.57.365,empathy_intonation_perc,2020.2.10,Win32,60,IwAR3580Za733zFChdHsYfYZcqF0zhBYb-tsbZSAFWe2xHiPwy4sHcgkPvxB8,,,,,,,,,,1,,,,,,,,,,,,,,,,,,,,,,,,,,,,,,,,,,,,,,,,86,barato,,,1,1,1.516195,0,43,43,85,1,REAL,FAKE,,,,,,,,,,,,,,,,,,,,,
,,,,,,,midd17,midd,ma,Mexico,Southwest,12 or younger,no,2021-03-27_19h16.57.365,empathy_intonation_perc,2020.2.10,Win32,60,IwAR3580Za733zFChdHsYfYZcqF0zhBYb-tsbZSAFWe2xHiPwy4sHcgkPvxB8,,,,,,,,,,1,,,,,,,,,,,,,,,,,,,,,,,,,,,,,,,,,,,,,,,,9,hacha,,,0,0,1.12816,0,44,44,8,1,REAL,FAKE,,,,,,,,,,,,,,,,,,,,,
,,,,,,,midd17,midd,ma,Mexico,Southwest,12 or younger,no,2021-03-27_19h16.57.365,empathy_intonation_perc,2020.2.10,Win32,60,IwAR3580Za733zFChdHsYfYZcqF0zhBYb-tsbZSAFWe2xHiPwy4sHcgkPvxB8,,,,,,,,,,1,,,,,,,,,,,,,,,,,,,,,,,,,,,,,,,,,,,,,,,,71,polvoriento,,,0,0,2.30487,0,45,45,70,1,REAL,FAKE,,,,,,,,,,,,,,,,,,,,,
,,,,,,,midd17,midd,ma,Mexico,Southwest,12 or younger,no,2021-03-27_19h16.57.365,empathy_intonation_perc,2020.2.10,Win32,60,IwAR3580Za733zFChdHsYfYZcqF0zhBYb-tsbZSAFWe2xHiPwy4sHcgkPvxB8,,,,,,,,,,1,,,,,,,,,,,,,,,,,,,,,,,,,,,,,,,,,,,,,,,,68,alegre,,,1,1,0.807205,0,46,46,67,1,REAL,FAKE,,,,,,,,,,,,,,,,,,,,,
,,,,,,,midd17,midd,ma,Mexico,Southwest,12 or younger,no,2021-03-27_19h16.57.365,empathy_intonation_perc,2020.2.10,Win32,60,IwAR3580Za733zFChdHsYfYZcqF0zhBYb-tsbZSAFWe2xHiPwy4sHcgkPvxB8,,,,,,,,,,1,,,,,,,,,,,,,,,,,,,,,,,,,,,,,,,,,,,,,,,,25,bisagra,,,0,0,1.98289,0,47,47,24,1,REAL,FAKE,,,,,,,,,,,,,,,,,,,,,
,,,,,,,midd17,midd,ma,Mexico,Southwest,12 or younger,no,2021-03-27_19h16.57.365,empathy_intonation_perc,2020.2.10,Win32,60,IwAR3580Za733zFChdHsYfYZcqF0zhBYb-tsbZSAFWe2xHiPwy4sHcgkPvxB8,,,,,,,,,,1,,,,,,,,,,,,,,,,,,,,,,,,,,,,,,,,,,,,,,,,41,rebuscar,,,0,0,5.030525,0,48,48,40,1,REAL,FAKE,,,,,,,,,,,,,,,,,,,,,
,,,,,,,midd17,midd,ma,Mexico,Southwest,12 or younger,no,2021-03-27_19h16.57.365,empathy_intonation_perc,2020.2.10,Win32,60,IwAR3580Za733zFChdHsYfYZcqF0zhBYb-tsbZSAFWe2xHiPwy4sHcgkPvxB8,,,,,,,,,,1,,,,,,,,,,,,,,,,,,,,,,,,,,,,,,,,,,,,,,,,62,flaco,,,1,1,0.80157,0,49,49,61,1,REAL,FAKE,,,,,,,,,,,,,,,,,,,,,
,,,,,,,midd17,midd,ma,Mexico,Southwest,12 or younger,no,2021-03-27_19h16.57.365,empathy_intonation_perc,2020.2.10,Win32,60,IwAR3580Za733zFChdHsYfYZcqF0zhBYb-tsbZSAFWe2xHiPwy4sHcgkPvxB8,,,,,,,,,,1,,,,,,,,,,,,,,,,,,,,,,,,,,,,,,,,,,,,,,,,20,vido,,,0,0,1.57809,0,50,50,19,1,REAL,FAKE,,,,,,,,,,,,,,,,,,,,,
,,,,,,,midd17,midd,ma,Mexico,Southwest,12 or younger,no,2021-03-27_19h16.57.365,empathy_intonation_perc,2020.2.10,Win32,60,IwAR3580Za733zFChdHsYfYZcqF0zhBYb-tsbZSAFWe2xHiPwy4sHcgkPvxB8,,,,,,,,,,1,,,,,,,,,,,,,,,,,,,,,,,,,,,,,,,,,,,,,,,,44,cuchara,,,1,1,0.858975,0,51,51,43,1,REAL,FAKE,,,,,,,,,,,,,,,,,,,,,
,,,,,,,midd17,midd,ma,Mexico,Southwest,12 or younger,no,2021-03-27_19h16.57.365,empathy_intonation_perc,2020.2.10,Win32,60,IwAR3580Za733zFChdHsYfYZcqF0zhBYb-tsbZSAFWe2xHiPwy4sHcgkPvxB8,,,,,,,,,,0,,,,,,,,,,,,,,,,,,,,,,,,,,,,,,,,,,,,,,,,58,plaudir,,,0,1,1.990755,0,52,52,57,1,REAL,FAKE,,,,,,,,,,,,,,,,,,,,,
,,,,,,,midd17,midd,ma,Mexico,Southwest,12 or younger,no,2021-03-27_19h16.57.365,empathy_intonation_perc,2020.2.10,Win32,60,IwAR3580Za733zFChdHsYfYZcqF0zhBYb-tsbZSAFWe2xHiPwy4sHcgkPvxB8,,,,,,,,,,1,,,,,,,,,,,,,,,,,,,,,,,,,,,,,,,,,,,,,,,,78,frondoso,,,0,0,1.754345,0,53,53,77,1,REAL,FAKE,,,,,,,,,,,,,,,,,,,,,
,,,,,,,midd17,midd,ma,Mexico,Southwest,12 or younger,no,2021-03-27_19h16.57.365,empathy_intonation_perc,2020.2.10,Win32,60,IwAR3580Za733zFChdHsYfYZcqF0zhBYb-tsbZSAFWe2xHiPwy4sHcgkPvxB8,,,,,,,,,,1,,,,,,,,,,,,,,,,,,,,,,,,,,,,,,,,,,,,,,,,67,cabello,,,1,1,0.84787,0,54,54,66,1,REAL,FAKE,,,,,,,,,,,,,,,,,,,,,
,,,,,,,midd17,midd,ma,Mexico,Southwest,12 or younger,no,2021-03-27_19h16.57.365,empathy_intonation_perc,2020.2.10,Win32,60,IwAR3580Za733zFChdHsYfYZcqF0zhBYb-tsbZSAFWe2xHiPwy4sHcgkPvxB8,,,,,,,,,,1,,,,,,,,,,,,,,,,,,,,,,,,,,,,,,,,,,,,,,,,56,musgo,,,0,0,4.213755,0,55,55,55,1,REAL,FAKE,,,,,,,,,,,,,,,,,,,,,
,,,,,,,midd17,midd,ma,Mexico,Southwest,12 or younger,no,2021-03-27_19h16.57.365,empathy_intonation_perc,2020.2.10,Win32,60,IwAR3580Za733zFChdHsYfYZcqF0zhBYb-tsbZSAFWe2xHiPwy4sHcgkPvxB8,,,,,,,,,,1,,,,,,,,,,,,,,,,,,,,,,,,,,,,,,,,,,,,,,,,11,cenefa,,,0,0,1.90174,0,56,56,10,1,REAL,FAKE,,,,,,,,,,,,,,,,,,,,,
,,,,,,,midd17,midd,ma,Mexico,Southwest,12 or younger,no,2021-03-27_19h16.57.365,empathy_intonation_perc,2020.2.10,Win32,60,IwAR3580Za733zFChdHsYfYZcqF0zhBYb-tsbZSAFWe2xHiPwy4sHcgkPvxB8,,,,,,,,,,0,,,,,,,,,,,,,,,,,,,,,,,,,,,,,,,,,,,,,,,,21,capillo,,,0,1,3.90647,0,57,57,20,1,REAL,FAKE,,,,,,,,,,,,,,,,,,,,,
,,,,,,,midd17,midd,ma,Mexico,Southwest,12 or younger,no,2021-03-27_19h16.57.365,empathy_intonation_perc,2020.2.10,Win32,60,IwAR3580Za733zFChdHsYfYZcqF0zhBYb-tsbZSAFWe2xHiPwy4sHcgkPvxB8,,,,,,,,,,1,,,,,,,,,,,,,,,,,,,,,,,,,,,,,,,,,,,,,,,,40,alfombra,,,1,1,0.890605,0,58,58,39,1,REAL,FAKE,,,,,,,,,,,,,,,,,,,,,
,,,,,,,midd17,midd,ma,Mexico,Southwest,12 or younger,no,2021-03-27_19h16.57.365,empathy_intonation_perc,2020.2.10,Win32,60,IwAR3580Za733zFChdHsYfYZcqF0zhBYb-tsbZSAFWe2xHiPwy4sHcgkPvxB8,,,,,,,,,,1,,,,,,,,,,,,,,,,,,,,,,,,,,,,,,,,,,,,,,,,76,atar,,,1,1,1.48779,0,59,59,75,1,REAL,FAKE,,,,,,,,,,,,,,,,,,,,,
,,,,,,,midd17,midd,ma,Mexico,Southwest,12 or younger,no,2021-03-27_19h16.57.365,empathy_intonation_perc,2020.2.10,Win32,60,IwAR3580Za733zFChdHsYfYZcqF0zhBYb-tsbZSAFWe2xHiPwy4sHcgkPvxB8,,,,,,,,,,1,,,,,,,,,,,,,,,,,,,,,,,,,,,,,,,,,,,,,,,,28,merodear,,,0,0,2.46036,0,60,60,27,1,REAL,FAKE,,,,,,,,,,,,,,,,,,,,,
,,,,,,,midd17,midd,ma,Mexico,Southwest,12 or younger,no,2021-03-27_19h16.57.365,empathy_intonation_perc,2020.2.10,Win32,60,IwAR3580Za733zFChdHsYfYZcqF0zhBYb-tsbZSAFWe2xHiPwy4sHcgkPvxB8,,,,,,,,,,0,,,,,,,,,,,,,,,,,,,,,,,,,,,,,,,,,,,,,,,,53,vegada,,,0,1,2.05557,0,61,61,52,1,REAL,FAKE,,,,,,,,,,,,,,,,,,,,,
,,,,,,,midd17,midd,ma,Mexico,Southwest,12 or younger,no,2021-03-27_19h16.57.365,empathy_intonation_perc,2020.2.10,Win32,60,IwAR3580Za733zFChdHsYfYZcqF0zhBYb-tsbZSAFWe2xHiPwy4sHcgkPvxB8,,,,,,,,,,1,,,,,,,,,,,,,,,,,,,,,,,,,,,,,,,,,,,,,,,,2,pellizcar,,,0,0,2.160325,0,62,62,1,1,REAL,FAKE,,,,,,,,,,,,,,,,,,,,,
,,,,,,,midd17,midd,ma,Mexico,Southwest,12 or younger,no,2021-03-27_19h16.57.365,empathy_intonation_perc,2020.2.10,Win32,60,IwAR3580Za733zFChdHsYfYZcqF0zhBYb-tsbZSAFWe2xHiPwy4sHcgkPvxB8,,,,,,,,,,1,,,,,,,,,,,,,,,,,,,,,,,,,,,,,,,,,,,,,,,,13,helar,,,0,0,1.669435,0,63,63,12,1,REAL,FAKE,,,,,,,,,,,,,,,,,,,,,
,,,,,,,midd17,midd,ma,Mexico,Southwest,12 or younger,no,2021-03-27_19h16.57.365,empathy_intonation_perc,2020.2.10,Win32,60,IwAR3580Za733zFChdHsYfYZcqF0zhBYb-tsbZSAFWe2xHiPwy4sHcgkPvxB8,,,,,,,,,,0,,,,,,,,,,,,,,,,,,,,,,,,,,,,,,,,,,,,,,,,70,temblo,,,1,0,0.960745,0,64,64,69,1,REAL,FAKE,,,,,,,,,,,,,,,,,,,,,
,,,,,,,midd17,midd,ma,Mexico,Southwest,12 or younger,no,2021-03-27_19h16.57.365,empathy_intonation_perc,2020.2.10,Win32,60,IwAR3580Za733zFChdHsYfYZcqF0zhBYb-tsbZSAFWe2xHiPwy4sHcgkPvxB8,,,,,,,,,,1,,,,,,,,,,,,,,,,,,,,,,,,,,,,,,,,,,,,,,,,52,camisa,,,1,1,1.9772,0,65,65,51,1,REAL,FAKE,,,,,,,,,,,,,,,,,,,,,
,,,,,,,midd17,midd,ma,Mexico,Southwest,12 or younger,no,2021-03-27_19h16.57.365,empathy_intonation_perc,2020.2.10,Win32,60,IwAR3580Za733zFChdHsYfYZcqF0zhBYb-tsbZSAFWe2xHiPwy4sHcgkPvxB8,,,,,,,,,,1,,,,,,,,,,,,,,,,,,,,,,,,,,,,,,,,,,,,,,,,36,loro,,,0,0,1.27996,0,66,66,35,1,REAL,FAKE,,,,,,,,,,,,,,,,,,,,,
,,,,,,,midd17,midd,ma,Mexico,Southwest,12 or younger,no,2021-03-27_19h16.57.365,empathy_intonation_perc,2020.2.10,Win32,60,IwAR3580Za733zFChdHsYfYZcqF0zhBYb-tsbZSAFWe2xHiPwy4sHcgkPvxB8,,,,,,,,,,1,,,,,,,,,,,,,,,,,,,,,,,,,,,,,,,,,,,,,,,,75,yacer,,,0,0,1.545635,0,67,67,74,1,REAL,FAKE,,,,,,,,,,,,,,,,,,,,,
,,,,,,,midd17,midd,ma,Mexico,Southwest,12 or younger,no,2021-03-27_19h16.57.365,empathy_intonation_perc,2020.2.10,Win32,60,IwAR3580Za733zFChdHsYfYZcqF0zhBYb-tsbZSAFWe2xHiPwy4sHcgkPvxB8,,,,,,,,,,1,,,,,,,,,,,,,,,,,,,,,,,,,,,,,,,,,,,,,,,,22,lacayo,,,0,0,1.10384,0,68,68,21,1,REAL,FAKE,,,,,,,,,,,,,,,,,,,,,
,,,,,,,midd17,midd,ma,Mexico,Southwest,12 or younger,no,2021-03-27_19h16.57.365,empathy_intonation_perc,2020.2.10,Win32,60,IwAR3580Za733zFChdHsYfYZcqF0zhBYb-tsbZSAFWe2xHiPwy4sHcgkPvxB8,,,,,,,,,,0,,,,,,,,,,,,,,,,,,,,,,,,,,,,,,,,,,,,,,,,42,cadallo,,,0,1,1.52783,0,69,69,41,1,REAL,FAKE,,,,,,,,,,,,,,,,,,,,,
,,,,,,,midd17,midd,ma,Mexico,Southwest,12 or younger,no,2021-03-27_19h16.57.365,empathy_intonation_perc,2020.2.10,Win32,60,IwAR3580Za733zFChdHsYfYZcqF0zhBYb-tsbZSAFWe2xHiPwy4sHcgkPvxB8,,,,,,,,,,0,,,,,,,,,,,,,,,,,,,,,,,,,,,,,,,,,,,,,,,,66,hacido,,,0,1,2.528135,0,70,70,65,1,REAL,FAKE,,,,,,,,,,,,,,,,,,,,,
,,,,,,,midd17,midd,ma,Mexico,Southwest,12 or younger,no,2021-03-27_19h16.57.365,empathy_intonation_perc,2020.2.10,Win32,60,IwAR3580Za733zFChdHsYfYZcqF0zhBYb-tsbZSAFWe2xHiPwy4sHcgkPvxB8,,,,,,,,,,0,,,,,,,,,,,,,,,,,,,,,,,,,,,,,,,,,,,,,,,,8,cadea,,,0,1,5.809245,0,71,71,7,1,REAL,FAKE,,,,,,,,,,,,,,,,,,,,,
,,,,,,,midd17,midd,ma,Mexico,Southwest,12 or younger,no,2021-03-27_19h16.57.365,empathy_intonation_perc,2020.2.10,Win32,60,IwAR3580Za733zFChdHsYfYZcqF0zhBYb-tsbZSAFWe2xHiPwy4sHcgkPvxB8,,,,,,,,,,1,,,,,,,,,,,,,,,,,,,,,,,,,,,,,,,,,,,,,,,,61,seda,,,1,1,4.633985,0,72,72,60,1,REAL,FAKE,,,,,,,,,,,,,,,,,,,,,
,,,,,,,midd17,midd,ma,Mexico,Southwest,12 or younger,no,2021-03-27_19h16.57.365,empathy_intonation_perc,2020.2.10,Win32,60,IwAR3580Za733zFChdHsYfYZcqF0zhBYb-tsbZSAFWe2xHiPwy4sHcgkPvxB8,,,,,,,,,,0,,,,,,,,,,,,,,,,,,,,,,,,,,,,,,,,,,,,,,,,50,flamida,,,0,1,1.733555,0,73,73,49,1,REAL,FAKE,,,,,,,,,,,,,,,,,,,,,
,,,,,,,midd17,midd,ma,Mexico,Southwest,12 or younger,no,2021-03-27_19h16.57.365,empathy_intonation_perc,2020.2.10,Win32,60,IwAR3580Za733zFChdHsYfYZcqF0zhBYb-tsbZSAFWe2xHiPwy4sHcgkPvxB8,,,,,,,,,,1,,,,,,,,,,,,,,,,,,,,,,,,,,,,,,,,,,,,,,,,54,fomentar,,,0,0,6.56593,0,74,74,53,1,REAL,FAKE,,,,,,,,,,,,,,,,,,,,,
,,,,,,,midd17,midd,ma,Mexico,Southwest,12 or younger,no,2021-03-27_19h16.57.365,empathy_intonation_perc,2020.2.10,Win32,60,IwAR3580Za733zFChdHsYfYZcqF0zhBYb-tsbZSAFWe2xHiPwy4sHcgkPvxB8,,,,,,,,,,0,,,,,,,,,,,,,,,,,,,,,,,,,,,,,,,,,,,,,,,,18,arsa,,,0,1,1.679715,0,75,75,17,1,REAL,FAKE,,,,,,,,,,,,,,,,,,,,,
,,,,,,,midd17,midd,ma,Mexico,Southwest,12 or younger,no,2021-03-27_19h16.57.365,empathy_intonation_perc,2020.2.10,Win32,60,IwAR3580Za733zFChdHsYfYZcqF0zhBYb-tsbZSAFWe2xHiPwy4sHcgkPvxB8,,,,,,,,,,0,,,,,,,,,,,,,,,,,,,,,,,,,,,,,,,,,,,,,,,,32,fatacidad,,,0,1,2.410685,0,76,76,31,1,REAL,FAKE,,,,,,,,,,,,,,,,,,,,,
,,,,,,,midd17,midd,ma,Mexico,Southwest,12 or younger,no,2021-03-27_19h16.57.365,empathy_intonation_perc,2020.2.10,Win32,60,IwAR3580Za733zFChdHsYfYZcqF0zhBYb-tsbZSAFWe2xHiPwy4sHcgkPvxB8,,,,,,,,,,1,,,,,,,,,,,,,,,,,,,,,,,,,,,,,,,,,,,,,,,,57,tacao,,,0,0,2.015945,0,77,77,56,1,REAL,FAKE,,,,,,,,,,,,,,,,,,,,,
,,,,,,,midd17,midd,ma,Mexico,Southwest,12 or younger,no,2021-03-27_19h16.57.365,empathy_intonation_perc,2020.2.10,Win32,60,IwAR3580Za733zFChdHsYfYZcqF0zhBYb-tsbZSAFWe2xHiPwy4sHcgkPvxB8,,,,,,,,,,0,,,,,,,,,,,,,,,,,,,,,,,,,,,,,,,,,,,,,,,,72,pemicin,,,0,1,1.45573,0,78,78,71,1,REAL,FAKE,,,,,,,,,,,,,,,,,,,,,
,,,,,,,midd17,midd,ma,Mexico,Southwest,12 or younger,no,2021-03-27_19h16.57.365,empathy_intonation_perc,2020.2.10,Win32,60,IwAR3580Za733zFChdHsYfYZcqF0zhBYb-tsbZSAFWe2xHiPwy4sHcgkPvxB8,,,,,,,,,,1,,,,,,,,,,,,,,,,,,,,,,,,,,,,,,,,,,,,,,,,85,lad,,,0,0,2.205195,0,79,79,84,1,REAL,FAKE,,,,,,,,,,,,,,,,,,,,,
,,,,,,,midd17,midd,ma,Mexico,Southwest,12 or younger,no,2021-03-27_19h16.57.365,empathy_intonation_perc,2020.2.10,Win32,60,IwAR3580Za733zFChdHsYfYZcqF0zhBYb-tsbZSAFWe2xHiPwy4sHcgkPvxB8,,,,,,,,,,1,,,,,,,,,,,,,,,,,,,,,,,,,,,,,,,,,,,,,,,,69,engatusar,,,0,0,2.24519,0,80,80,68,1,REAL,FAKE,,,,,,,,,,,,,,,,,,,,,
,,,,,,,midd17,midd,ma,Mexico,Southwest,12 or younger,no,2021-03-27_19h16.57.365,empathy_intonation_perc,2020.2.10,Win32,60,IwAR3580Za733zFChdHsYfYZcqF0zhBYb-tsbZSAFWe2xHiPwy4sHcgkPvxB8,,,,,,,,,,1,,,,,,,,,,,,,,,,,,,,,,,,,,,,,,,,,,,,,,,,37,granuja,,,0,0,1.916555,0,81,81,36,1,REAL,FAKE,,,,,,,,,,,,,,,,,,,,,
,,,,,,,midd17,midd,ma,Mexico,Southwest,12 or younger,no,2021-03-27_19h16.57.365,empathy_intonation_perc,2020.2.10,Win32,60,IwAR3580Za733zFChdHsYfYZcqF0zhBYb-tsbZSAFWe2xHiPwy4sHcgkPvxB8,,,,,,,,,,0,,,,,,,,,,,,,,,,,,,,,,,,,,,,,,,,,,,,,,,,16,abracer,,,0,1,2.58166,0,82,82,15,1,REAL,FAKE,,,,,,,,,,,,,,,,,,,,,
,,,,,,,midd17,midd,ma,Mexico,Southwest,12 or younger,no,2021-03-27_19h16.57.365,empathy_intonation_perc,2020.2.10,Win32,60,IwAR3580Za733zFChdHsYfYZcqF0zhBYb-tsbZSAFWe2xHiPwy4sHcgkPvxB8,,,,,,,,,,0,,,,,,,,,,,,,,,,,,,,,,,,,,,,,,,,,,,,,,,,33,pauca,,,0,1,1.17154,0,83,83,32,1,REAL,FAKE,,,,,,,,,,,,,,,,,,,,,
,,,,,,,midd17,midd,ma,Mexico,Southwest,12 or younger,no,2021-03-27_19h16.57.365,empathy_intonation_perc,2020.2.10,Win32,60,IwAR3580Za733zFChdHsYfYZcqF0zhBYb-tsbZSAFWe2xHiPwy4sHcgkPvxB8,,,,,,,,,,1,,,,,,,,,,,,,,,,,,,,,,,,,,,,,,,,,,,,,,,,65,bizcocho,,,1,1,0.97594,0,84,84,64,1,REAL,FAKE,,,,,,,,,,,,,,,,,,,,,
,,,,,,,midd17,midd,ma,Mexico,Southwest,12 or younger,no,2021-03-27_19h16.57.365,empathy_intonation_perc,2020.2.10,Win32,60,IwAR3580Za733zFChdHsYfYZcqF0zhBYb-tsbZSAFWe2xHiPwy4sHcgkPvxB8,,,,,,,,,,0,,,,,,,,,,,,,,,,,,,,,,,,,,,,,,,,,,,,,,,,74,cintro,,,0,1,2.44082,0,85,85,73,1,REAL,FAKE,,,,,,,,,,,,,,,,,,,,,
,,,,,,,midd17,midd,ma,Mexico,Southwest,12 or younger,no,2021-03-27_19h16.57.365,empathy_intonation_perc,2020.2.10,Win32,60,IwAR3580Za733zFChdHsYfYZcqF0zhBYb-tsbZSAFWe2xHiPwy4sHcgkPvxB8,,,,,,,,,,1,,,,,,,,,,,,,,,,,,,,,,,,,,,,,,,,,,,,,,,,14,yunque,,,0,0,3.513335,0,86,86,13,1,REAL,FAKE,,,,,,,,,,,,,,,,,,,,,
,,,,,,,midd17,midd,ma,Mexico,Southwest,12 or younger,no,2021-03-27_19h16.57.365,empathy_intonation_perc,2020.2.10,Win32,60,IwAR3580Za733zFChdHsYfYZcqF0zhBYb-tsbZSAFWe2xHiPwy4sHcgkPvxB8,,,,,,,,,,1,,,,,,,,,,,,,,,,,,,,,,,,,,,,,,,,,,,,,,,,51,candado,,,0,0,5.7241,0,87,87,50,1,REAL,FAKE,,,,,,,,,,,,,,,,,,,,,
,,,,,,,midd17,midd,ma,Mexico,Southwest,12 or younger,no,2021-03-27_19h16.57.365,empathy_intonation_perc,2020.2.10,Win32,60,IwAR3580Za733zFChdHsYfYZcqF0zhBYb-tsbZSAFWe2xHiPwy4sHcgkPvxB8,,,,,,,,,,0,,,,,,,,,,,,,,,,,,,,,,,,,,,,,,,,,,,,,,,,1,terzo,,,0,1,1.29979,0,88,88,0,1,REAL,FAKE,,,,,,,,,,,,,,,,,,,,,
,,,,,,,midd17,midd,ma,Mexico,Southwest,12 or younger,no,2021-03-27_19h16.57.365,empathy_intonation_perc,2020.2.10,Win32,60,IwAR3580Za733zFChdHsYfYZcqF0zhBYb-tsbZSAFWe2xHiPwy4sHcgkPvxB8,,,,,,,,,,1,,,,,,,,,,,,,,,,,,,,,,,,,,,,,,,,,,,,,,,,43,canela,,,1,1,1.13671,0,89,89,42,1,REAL,FAKE,,,,,,,,,,,,,,,,,,,,,
,,,,,,,midd17,midd,ma,Mexico,Southwest,12 or younger,no,2021-03-27_19h16.57.365,empathy_intonation_perc,2020.2.10,Win32,60,IwAR3580Za733zFChdHsYfYZcqF0zhBYb-tsbZSAFWe2xHiPwy4sHcgkPvxB8,,,,,,,,,,,,,,,,,,,,,,,,,,,,,,,,,,,,,,,,,,,,,,,,,,,,,,,,,,,,,,,,4,1,3.731385,1,0,0,0,0,0,1,,,,,,,,,,,
,,,,,,,midd17,midd,ma,Mexico,Southwest,12 or younger,no,2021-03-27_19h16.57.365,empathy_intonation_perc,2020.2.10,Win32,60,IwAR3580Za733zFChdHsYfYZcqF0zhBYb-tsbZSAFWe2xHiPwy4sHcgkPvxB8,,,,,,,,,,,,,,,,,,,,1,,,,,,,,,,,,,,,,,,,,,,,,,,,,,,,,,,,,,,,,,,,,,,,,,,,,,,1,0,0,0,0,1,I can easily tell if someone else wants to enter a conversation.,1,0,1,0
,,,,,,,midd17,midd,ma,Mexico,Southwest,12 or younger,no,2021-03-27_19h16.57.365,empathy_intonation_perc,2020.2.10,Win32,60,IwAR3580Za733zFChdHsYfYZcqF0zhBYb-tsbZSAFWe2xHiPwy4sHcgkPvxB8,,,,,,,,,,,,,,,,,,,,2,,,,,,,,,,,,,,,,,,,,,,,,,,,,,,,,,,,,,,,,,,,,,,,,,,,,,,4,0,1,1,1,1,I prefer animals to humans.,0,1,0,0
,,,,,,,midd17,midd,ma,Mexico,Southwest,12 or younger,no,2021-03-27_19h16.57.365,empathy_intonation_perc,2020.2.10,Win32,60,IwAR3580Za733zFChdHsYfYZcqF0zhBYb-tsbZSAFWe2xHiPwy4sHcgkPvxB8,,,,,,,,,,,,,,,,,,,,3,,,,,,,,,,,,,,,,,,,,,,,,,,,,,,,,,,,,,,,,,,,,,,,,,,,,,,3,0,2,2,2,1,I try to keep up with the current trends and fashions.,0,1,0,0
,,,,,,,midd17,midd,ma,Mexico,Southwest,12 or younger,no,2021-03-27_19h16.57.365,empathy_intonation_perc,2020.2.10,Win32,60,IwAR3580Za733zFChdHsYfYZcqF0zhBYb-tsbZSAFWe2xHiPwy4sHcgkPvxB8,,,,,,,,,,,,,,,,,,,,4,,,,,,,,,,,,,,,,,,,,,,,,,,,,,,,,,,,,,,,,,,,,,,,,,,,,,,5,0,3,3,3,1,"I find it difficult to explain to others things that I understand easily, 
  when they dont understand it first time.",1,0,0,1
,,,,,,,midd17,midd,ma,Mexico,Southwest,12 or younger,no,2021-03-27_19h16.57.365,empathy_intonation_perc,2020.2.10,Win32,60,IwAR3580Za733zFChdHsYfYZcqF0zhBYb-tsbZSAFWe2xHiPwy4sHcgkPvxB8,,,,,,,,,,,,,,,,,,,,5,,,,,,,,,,,,,,,,,,,,,,,,,,,,,,,,,,,,,,,,,,,,,,,,,,,,,,2,0,4,4,4,1,I dream most nights.,0,1,0,0
,,,,,,,midd17,midd,ma,Mexico,Southwest,12 or younger,no,2021-03-27_19h16.57.365,empathy_intonation_perc,2020.2.10,Win32,60,IwAR3580Za733zFChdHsYfYZcqF0zhBYb-tsbZSAFWe2xHiPwy4sHcgkPvxB8,,,,,,,,,,,,,,,,,,,,6,,,,,,,,,,,,,,,,,,,,,,,,,,,,,,,,,,,,,,,,,,,,,,,,,,,,,,1,0,5,5,5,1,I really enjoy caring for other people.,1,0,1,0
