instructions_2afc_loop.thisRepN,instructions_2afc_loop.thisTrialN,instructions_2afc_loop.thisN,instructions_2afc_loop.thisIndex,instructions_2afc_loop.ran,instructions_text,continue_text,participant,study_id,session,I am most familiar with Spanish from...*,What part of the US are you from?*,At what age did you begin learning Spanish?*,Are you proficient in any languages other than English/Spanish?*,date,expName,psychopyVersion,OS,frameRate,fbclid,key_resp_2afc_practice.keys,key_resp_2afc_practice.corr,key_resp_2afc_practice.rt,trials_2afc_practice_loop.thisRepN,trials_2afc_practice_loop.thisTrialN,trials_2afc_practice_loop.thisN,trials_2afc_practice_loop.thisIndex,trials_2afc_practice_loop.ran,path,correct_response,the_col,key_resp_2afc_trial.keys,key_resp_2afc_trial.corr,key_resp_2afc_trial.rt,trials_2afc_loop.thisRepN,trials_2afc_loop.thisTrialN,trials_2afc_loop.thisN,trials_2afc_loop.thisIndex,trials_2afc_loop.ran,item_num,andalusian,argentine,castilian,chilean,cuban,mexican,peruvian,puertorican,key_resp_ac1.keys,key_resp_ac1.corr,key_resp_ac1.rt,ac1_loop.thisRepN,ac1_loop.thisTrialN,ac1_loop.thisN,ac1_loop.thisIndex,ac1_loop.ran,instructions_lextale_loop.thisRepN,instructions_lextale_loop.thisTrialN,instructions_lextale_loop.thisN,instructions_lextale_loop.thisIndex,instructions_lextale_loop.ran,key_resp_lextale_practice.keys,key_resp_lextale_practice.corr,key_resp_lextale_practice.rt,trials_lextale_practice_loop.thisRepN,trials_lextale_practice_loop.thisTrialN,trials_lextale_practice_loop.thisN,trials_lextale_practice_loop.thisIndex,trials_lextale_practice_loop.ran,stim,word,prac_button_real,prac_button_false,key_resp_lextale_trial.keys,key_resp_lextale_trial.corr,key_resp_lextale_trial.rt,trials_lextale_loop.thisRepN,trials_lextale_loop.thisTrialN,trials_lextale_loop.thisN,trials_lextale_loop.thisIndex,trials_lextale_loop.ran,button_real,button_false,key_resp_ac2.keys,key_resp_ac2.corr,key_resp_ac2.rt,check_pass,check_fails,ac2_loop.thisRepN,ac2_loop.thisTrialN,ac2_loop.thisN,ac2_loop.thisIndex,ac2_loop.ran,slider_eq_trial.response,trials_eq_loop.thisRepN,trials_eq_loop.thisTrialN,trials_eq_loop.thisN,trials_eq_loop.thisIndex,trials_eq_loop.ran,item,is_test_item,is_distractor,is_agree_score,is_disagree_score
0,0,0,0,1,"In the following task you are going to hear a series of utterances. 

  You will decide if the utterances sound like questions or not using your keyboard.",(press the spacebar to continue),midd12,midd,ma,United States,South,13 or older,yes,2021-03-27_07h06.26.604,empathy_intonation_perc,2020.2.10,MacIntel,60,IwAR3CGx1W9H_3AAxQj16RKLYi-8T5usP3Ur1fqgFzekLUwI3TM-YyK6F8Lxs,,,,,,,,,,,,,,,,,,,,,,,,,,,,,,,,,,,,,,,,,,,,,,,,,,,,,,,,,,,,,,,,,,,,,,,,,,,,,,,,,,,,
0,1,1,1,1,"If you believe the utterance is a question, type '1' (for 'yes') and if you do not 
  believe it is a question type '0' (for 'no').

  Let's practice a bit...",(press the spacebar to continue),midd12,midd,ma,United States,South,13 or older,yes,2021-03-27_07h06.26.604,empathy_intonation_perc,2020.2.10,MacIntel,60,IwAR3CGx1W9H_3AAxQj16RKLYi-8T5usP3Ur1fqgFzekLUwI3TM-YyK6F8Lxs,,,,,,,,,,,,,,,,,,,,,,,,,,,,,,,,,,,,,,,,,,,,,,,,,,,,,,,,,,,,,,,,,,,,,,,,,,,,,,,,,,,,
,,,,,,,midd12,midd,ma,United States,South,13 or older,yes,2021-03-27_07h06.26.604,empathy_intonation_perc,2020.2.10,MacIntel,60,IwAR3CGx1W9H_3AAxQj16RKLYi-8T5usP3Ur1fqgFzekLUwI3TM-YyK6F8Lxs,0,1,2.873,0,0,0,6,1,./stim/wavs/peruvian_statement_filler_El-nino-habla-con-su-madre.wav,0,,,,,,,,,,,,,,,,,,,,,,,,,,,,,,,,,,,,,,,,,,,,,,,,,,,,,,,,,,,,,,,,,,,,,,,,,,
,,,,,,,midd12,midd,ma,United States,South,13 or older,yes,2021-03-27_07h06.26.604,empathy_intonation_perc,2020.2.10,MacIntel,60,IwAR3CGx1W9H_3AAxQj16RKLYi-8T5usP3Ur1fqgFzekLUwI3TM-YyK6F8Lxs,1,1,6.585,0,1,1,2,1,./stim/wavs/chilean_question_filler_Mi-padre-cantaba-bien.wav,1,,,,,,,,,,,,,,,,,,,,,,,,,,,,,,,,,,,,,,,,,,,,,,,,,,,,,,,,,,,,,,,,,,,,,,,,,,
,,,,,,,midd12,midd,ma,United States,South,13 or older,yes,2021-03-27_07h06.26.604,empathy_intonation_perc,2020.2.10,MacIntel,60,IwAR3CGx1W9H_3AAxQj16RKLYi-8T5usP3Ur1fqgFzekLUwI3TM-YyK6F8Lxs,1,1,2.304,0,2,2,0,1,./stim/wavs/castilian_question_filler_Mi-esposo-conoce-al-chico.wav,1,,,,,,,,,,,,,,,,,,,,,,,,,,,,,,,,,,,,,,,,,,,,,,,,,,,,,,,,,,,,,,,,,,,,,,,,,,
,,,,,,,midd12,midd,ma,United States,South,13 or older,yes,2021-03-27_07h06.26.604,empathy_intonation_perc,2020.2.10,MacIntel,60,IwAR3CGx1W9H_3AAxQj16RKLYi-8T5usP3Ur1fqgFzekLUwI3TM-YyK6F8Lxs,1,1,2.505,0,3,3,3,1,./stim/wavs/mexican_question_filler_Felipe-no-tiene-contrasena.wav,1,,,,,,,,,,,,,,,,,,,,,,,,,,,,,,,,,,,,,,,,,,,,,,,,,,,,,,,,,,,,,,,,,,,,,,,,,,
,,,,,,,midd12,midd,ma,United States,South,13 or older,yes,2021-03-27_07h06.26.604,empathy_intonation_perc,2020.2.10,MacIntel,60,IwAR3CGx1W9H_3AAxQj16RKLYi-8T5usP3Ur1fqgFzekLUwI3TM-YyK6F8Lxs,0,1,2.222,0,4,4,4,1,./stim/wavs/cuban_statement_filler_Cocinabas-por-la-noche.wav,0,,,,,,,,,,,,,,,,,,,,,,,,,,,,,,,,,,,,,,,,,,,,,,,,,,,,,,,,,,,,,,,,,,,,,,,,,,
,,,,,,,midd12,midd,ma,United States,South,13 or older,yes,2021-03-27_07h06.26.604,empathy_intonation_perc,2020.2.10,MacIntel,60,IwAR3CGx1W9H_3AAxQj16RKLYi-8T5usP3Ur1fqgFzekLUwI3TM-YyK6F8Lxs,1,1,1.689,0,5,5,1,1,./stim/wavs/argentine_question_filler_Mi-vecino-habla-mucho.wav,1,,,,,,,,,,,,,,,,,,,,,,,,,,,,,,,,,,,,,,,,,,,,,,,,,,,,,,,,,,,,,,,,,,,,,,,,,,
,,,,,,,midd12,midd,ma,United States,South,13 or older,yes,2021-03-27_07h06.26.604,empathy_intonation_perc,2020.2.10,MacIntel,60,IwAR3CGx1W9H_3AAxQj16RKLYi-8T5usP3Ur1fqgFzekLUwI3TM-YyK6F8Lxs,0,1,2.339,0,6,6,7,1,./stim/wavs/puertorican_statement_filler_La-nina-pinta-con-su-amiga.wav,0,,,,,,,,,,,,,,,,,,,,,,,,,,,,,,,,,,,,,,,,,,,,,,,,,,,,,,,,,,,,,,,,,,,,,,,,,,
,,,,,,,midd12,midd,ma,United States,South,13 or older,yes,2021-03-27_07h06.26.604,empathy_intonation_perc,2020.2.10,MacIntel,60,IwAR3CGx1W9H_3AAxQj16RKLYi-8T5usP3Ur1fqgFzekLUwI3TM-YyK6F8Lxs,0,1,2.8,0,7,7,5,1,./stim/wavs/andalusian_statement_filler_Alberto-nunca-se-afeita.wav,0,,,,,,,,,,,,,,,,,,,,,,,,,,,,,,,,,,,,,,,,,,,,,,,,,,,,,,,,,,,,,,,,,,,,,,,,,,
,,,,,,,midd12,midd,ma,United States,South,13 or older,yes,2021-03-27_07h06.26.604,empathy_intonation_perc,2020.2.10,MacIntel,60,IwAR3CGx1W9H_3AAxQj16RKLYi-8T5usP3Ur1fqgFzekLUwI3TM-YyK6F8Lxs,,,,,,,,,,0,andalusian,1,0,1.927,0,0,0,13,1,14,./stim/wavs/andalusian_match_declarative-narrow-focus_Maria-bebe-el-vino.wav,./stim/wavs/argentine_match_declarative-narrow-focus_Maria-bebe-el-vino.wav,./stim/wavs/castilian_match_declarative-narrow-focus_Maria-bebe-el-vino.wav,./stim/wavs/chilean_match_declarative-narrow-focus_Maria-bebe-el-vino.wav,./stim/wavs/cuban_match_declarative-narrow-focus_Maria-bebe-el-vino.wav,./stim/wavs/mexican_match_declarative-narrow-focus_Maria-bebe-el-vino.wav,./stim/wavs/peruvian_match_declarative-narrow-focus_Maria-bebe-el-vino.wav,./stim/wavs/puertorican_match_declarative-narrow-focus_Maria-bebe-el-vino.wav,,,,,,,,,,,,,,,,,,,,,,,,,,,,,,,,,,,,,,,,,,,,,,,,,,,,,,,,
,,,,,,,midd12,midd,ma,United States,South,13 or older,yes,2021-03-27_07h06.26.604,empathy_intonation_perc,2020.2.10,MacIntel,60,IwAR3CGx1W9H_3AAxQj16RKLYi-8T5usP3Ur1fqgFzekLUwI3TM-YyK6F8Lxs,,,,,,,,,,1,chilean,1,1,2.146,0,1,1,27,1,28,./stim/wavs/andalusian_match_interrogative-total-yn_Emilio-ama-la-marcha.wav,./stim/wavs/argentine_match_interrogative-total-yn_Emilio-ama-la-marcha.wav,./stim/wavs/castilian_match_interrogative-total-yn_Emilio-ama-la-marcha.wav,./stim/wavs/chilean_match_interrogative-total-yn_Emilio-ama-la-marcha.wav,./stim/wavs/cuban_match_interrogative-total-yn_Emilio-ama-la-marcha.wav,./stim/wavs/mexican_match_interrogative-total-yn_Emilio-ama-la-marcha.wav,./stim/wavs/peruvian_match_interrogative-total-yn_Emilio-ama-la-marcha.wav,./stim/wavs/puertorican_match_interrogative-total-yn_Emilio-ama-la-marcha.wav,,,,,,,,,,,,,,,,,,,,,,,,,,,,,,,,,,,,,,,,,,,,,,,,,,,,,,,,
,,,,,,,midd12,midd,ma,United States,South,13 or older,yes,2021-03-27_07h06.26.604,empathy_intonation_perc,2020.2.10,MacIntel,60,IwAR3CGx1W9H_3AAxQj16RKLYi-8T5usP3Ur1fqgFzekLUwI3TM-YyK6F8Lxs,,,,,,,,,,1,cuban,0,0,2.639,0,2,2,24,1,25,./stim/wavs/andalusian_match_interrogative-total-yn_Ana-lleva-el-abrigo.wav,./stim/wavs/argentine_match_interrogative-total-yn_Ana-lleva-el-abrigo.wav,./stim/wavs/castilian_match_interrogative-total-yn_Ana-lleva-el-abrigo.wav,./stim/wavs/chilean_match_interrogative-total-yn_Ana-lleva-el-abrigo.wav,./stim/wavs/cuban_match_interrogative-total-yn_Ana-lleva-el-abrigo.wav,./stim/wavs/mexican_match_interrogative-total-yn_Ana-lleva-el-abrigo.wav,./stim/wavs/peruvian_match_interrogative-total-yn_Ana-lleva-el-abrigo.wav,./stim/wavs/puertorican_match_interrogative-total-yn_Ana-lleva-el-abrigo.wav,,,,,,,,,,,,,,,,,,,,,,,,,,,,,,,,,,,,,,,,,,,,,,,,,,,,,,,,
,,,,,,,midd12,midd,ma,United States,South,13 or older,yes,2021-03-27_07h06.26.604,empathy_intonation_perc,2020.2.10,MacIntel,60,IwAR3CGx1W9H_3AAxQj16RKLYi-8T5usP3Ur1fqgFzekLUwI3TM-YyK6F8Lxs,,,,,,,,,,0,argentine,0,1,4.024,0,3,3,47,1,48,./stim/wavs/andalusian_mismatch_declarative-narrow-focus_Mi-tia-odia-la-lluvia.wav,./stim/wavs/argentine_mismatch_declarative-narrow-focus_Mi-tia-odia-la-lluvia.wav,./stim/wavs/castilian_mismatch_declarative-narrow-focus_Mi-tia-odia-la-lluvia.wav,./stim/wavs/chilean_mismatch_declarative-narrow-focus_Mi-tia-odia-la-lluvia.wav,./stim/wavs/cuban_mismatch_declarative-narrow-focus_Mi-tia-odia-la-lluvia.wav,./stim/wavs/mexican_mismatch_declarative-narrow-focus_Mi-tia-odia-la-lluvia.wav,./stim/wavs/peruvian_mismatch_declarative-narrow-focus_Mi-tia-odia-la-lluvia.wav,./stim/wavs/puertorican_mismatch_declarative-narrow-focus_Mi-tia-odia-la-lluvia.wav,,,,,,,,,,,,,,,,,,,,,,,,,,,,,,,,,,,,,,,,,,,,,,,,,,,,,,,,
,,,,,,,midd12,midd,ma,United States,South,13 or older,yes,2021-03-27_07h06.26.604,empathy_intonation_perc,2020.2.10,MacIntel,60,IwAR3CGx1W9H_3AAxQj16RKLYi-8T5usP3Ur1fqgFzekLUwI3TM-YyK6F8Lxs,,,,,,,,,,1,argentine,1,1,1.865,0,4,4,52,1,53,./stim/wavs/andalusian_mismatch_interrogative-partial-wh_Por-que-odiaba-la-lluvia.wav,./stim/wavs/argentine_mismatch_interrogative-partial-wh_Por-que-odiaba-la-lluvia.wav,./stim/wavs/castilian_mismatch_interrogative-partial-wh_Por-que-odiaba-la-lluvia.wav,./stim/wavs/chilean_mismatch_interrogative-partial-wh_Por-que-odiaba-la-lluvia.wav,./stim/wavs/cuban_mismatch_interrogative-partial-wh_Por-que-odiaba-la-lluvia.wav,./stim/wavs/mexican_mismatch_interrogative-partial-wh_Por-que-odiaba-la-lluvia.wav,./stim/wavs/peruvian_mismatch_interrogative-partial-wh_Por-que-odiaba-la-lluvia.wav,./stim/wavs/puertorican_mismatch_interrogative-partial-wh_Por-que-odiaba-la-lluvia.wav,,,,,,,,,,,,,,,,,,,,,,,,,,,,,,,,,,,,,,,,,,,,,,,,,,,,,,,,
,,,,,,,midd12,midd,ma,United States,South,13 or older,yes,2021-03-27_07h06.26.604,empathy_intonation_perc,2020.2.10,MacIntel,60,IwAR3CGx1W9H_3AAxQj16RKLYi-8T5usP3Ur1fqgFzekLUwI3TM-YyK6F8Lxs,,,,,,,,,,0,argentine,0,1,3.161,0,5,5,44,1,45,./stim/wavs/andalusian_mismatch_declarative-narrow-focus_La-nina-lava-el-plato.wav,./stim/wavs/argentine_mismatch_declarative-narrow-focus_La-nina-lava-el-plato.wav,./stim/wavs/castilian_mismatch_declarative-narrow-focus_La-nina-lava-el-plato.wav,./stim/wavs/chilean_mismatch_declarative-narrow-focus_La-nina-lava-el-plato.wav,./stim/wavs/cuban_mismatch_declarative-narrow-focus_La-nina-lava-el-plato.wav,./stim/wavs/mexican_mismatch_declarative-narrow-focus_La-nina-lava-el-plato.wav,./stim/wavs/peruvian_mismatch_declarative-narrow-focus_La-nina-lava-el-plato.wav,./stim/wavs/puertorican_mismatch_declarative-narrow-focus_La-nina-lava-el-plato.wav,,,,,,,,,,,,,,,,,,,,,,,,,,,,,,,,,,,,,,,,,,,,,,,,,,,,,,,,
,,,,,,,midd12,midd,ma,United States,South,13 or older,yes,2021-03-27_07h06.26.604,empathy_intonation_perc,2020.2.10,MacIntel,60,IwAR3CGx1W9H_3AAxQj16RKLYi-8T5usP3Ur1fqgFzekLUwI3TM-YyK6F8Lxs,,,,,,,,,,0,andalusian,0,1,2.592,0,6,6,14,1,15,./stim/wavs/andalusian_match_declarative-narrow-focus_Mariano-habla-del-tiempo.wav,./stim/wavs/argentine_match_declarative-narrow-focus_Mariano-habla-del-tiempo.wav,./stim/wavs/castilian_match_declarative-narrow-focus_Mariano-habla-del-tiempo.wav,./stim/wavs/chilean_match_declarative-narrow-focus_Mariano-habla-del-tiempo.wav,./stim/wavs/cuban_match_declarative-narrow-focus_Mariano-habla-del-tiempo.wav,./stim/wavs/mexican_match_declarative-narrow-focus_Mariano-habla-del-tiempo.wav,./stim/wavs/peruvian_match_declarative-narrow-focus_Mariano-habla-del-tiempo.wav,./stim/wavs/puertorican_match_declarative-narrow-focus_Mariano-habla-del-tiempo.wav,,,,,,,,,,,,,,,,,,,,,,,,,,,,,,,,,,,,,,,,,,,,,,,,,,,,,,,,
,,,,,,,midd12,midd,ma,United States,South,13 or older,yes,2021-03-27_07h06.26.604,empathy_intonation_perc,2020.2.10,MacIntel,60,IwAR3CGx1W9H_3AAxQj16RKLYi-8T5usP3Ur1fqgFzekLUwI3TM-YyK6F8Lxs,,,,,,,,,,0,andalusian,0,1,2.61,0,7,7,32,1,33,./stim/wavs/andalusian_mismatch_declarative-broad-focus_El-bebe-comia-muy-bien.wav,./stim/wavs/argentine_mismatch_declarative-broad-focus_El-bebe-comia-muy-bien.wav,./stim/wavs/castilian_mismatch_declarative-broad-focus_El-bebe-comia-muy-bien.wav,./stim/wavs/chilean_mismatch_declarative-broad-focus_El-bebe-comia-muy-bien.wav,./stim/wavs/cuban_mismatch_declarative-broad-focus_El-bebe-comia-muy-bien.wav,./stim/wavs/mexican_mismatch_declarative-broad-focus_El-bebe-comia-muy-bien.wav,./stim/wavs/peruvian_mismatch_declarative-broad-focus_El-bebe-comia-muy-bien.wav,./stim/wavs/puertorican_mismatch_declarative-broad-focus_El-bebe-comia-muy-bien.wav,,,,,,,,,,,,,,,,,,,,,,,,,,,,,,,,,,,,,,,,,,,,,,,,,,,,,,,,
,,,,,,,midd12,midd,ma,United States,South,13 or older,yes,2021-03-27_07h06.26.604,empathy_intonation_perc,2020.2.10,MacIntel,60,IwAR3CGx1W9H_3AAxQj16RKLYi-8T5usP3Ur1fqgFzekLUwI3TM-YyK6F8Lxs,,,,,,,,,,0,puertorican,0,1,2.592,0,8,8,38,1,39,./stim/wavs/andalusian_mismatch_declarative-broad-focus_Mi-novio-viene-del-lago.wav,./stim/wavs/argentine_mismatch_declarative-broad-focus_Mi-novio-viene-del-lago.wav,./stim/wavs/castilian_mismatch_declarative-broad-focus_Mi-novio-viene-del-lago.wav,./stim/wavs/chilean_mismatch_declarative-broad-focus_Mi-novio-viene-del-lago.wav,./stim/wavs/cuban_mismatch_declarative-broad-focus_Mi-novio-viene-del-lago.wav,./stim/wavs/mexican_mismatch_declarative-broad-focus_Mi-novio-viene-del-lago.wav,./stim/wavs/peruvian_mismatch_declarative-broad-focus_Mi-novio-viene-del-lago.wav,./stim/wavs/puertorican_mismatch_declarative-broad-focus_Mi-novio-viene-del-lago.wav,,,,,,,,,,,,,,,,,,,,,,,,,,,,,,,,,,,,,,,,,,,,,,,,,,,,,,,,
,,,,,,,midd12,midd,ma,United States,South,13 or older,yes,2021-03-27_07h06.26.604,empathy_intonation_perc,2020.2.10,MacIntel,60,IwAR3CGx1W9H_3AAxQj16RKLYi-8T5usP3Ur1fqgFzekLUwI3TM-YyK6F8Lxs,,,,,,,,,,0,peruvian,0,1,2.4,0,9,9,12,1,13,./stim/wavs/andalusian_match_declarative-narrow-focus_Manuela-vende-el-carro.wav,./stim/wavs/argentine_match_declarative-narrow-focus_Manuela-vende-el-carro.wav,./stim/wavs/castilian_match_declarative-narrow-focus_Manuela-vende-el-carro.wav,./stim/wavs/chilean_match_declarative-narrow-focus_Manuela-vende-el-carro.wav,./stim/wavs/cuban_match_declarative-narrow-focus_Manuela-vende-el-carro.wav,./stim/wavs/mexican_match_declarative-narrow-focus_Manuela-vende-el-carro.wav,./stim/wavs/peruvian_match_declarative-narrow-focus_Manuela-vende-el-carro.wav,./stim/wavs/puertorican_match_declarative-narrow-focus_Manuela-vende-el-carro.wav,,,,,,,,,,,,,,,,,,,,,,,,,,,,,,,,,,,,,,,,,,,,,,,,,,,,,,,,
,,,,,,,midd12,midd,ma,United States,South,13 or older,yes,2021-03-27_07h06.26.604,empathy_intonation_perc,2020.2.10,MacIntel,60,IwAR3CGx1W9H_3AAxQj16RKLYi-8T5usP3Ur1fqgFzekLUwI3TM-YyK6F8Lxs,,,,,,,,,,1,cuban,1,1,2.078,0,10,10,20,1,21,./stim/wavs/andalusian_match_interrogative-partial-wh_Por-que-abre-el-regalo.wav,./stim/wavs/argentine_match_interrogative-partial-wh_Por-que-abre-el-regalo.wav,./stim/wavs/castilian_match_interrogative-partial-wh_Por-que-abre-el-regalo.wav,./stim/wavs/chilean_match_interrogative-partial-wh_Por-que-abre-el-regalo.wav,./stim/wavs/cuban_match_interrogative-partial-wh_Por-que-abre-el-regalo.wav,./stim/wavs/mexican_match_interrogative-partial-wh_Por-que-abre-el-regalo.wav,./stim/wavs/peruvian_match_interrogative-partial-wh_Por-que-abre-el-regalo.wav,./stim/wavs/puertorican_match_interrogative-partial-wh_Por-que-abre-el-regalo.wav,,,,,,,,,,,,,,,,,,,,,,,,,,,,,,,,,,,,,,,,,,,,,,,,,,,,,,,,
,,,,,,,midd12,midd,ma,United States,South,13 or older,yes,2021-03-27_07h06.26.604,empathy_intonation_perc,2020.2.10,MacIntel,60,IwAR3CGx1W9H_3AAxQj16RKLYi-8T5usP3Ur1fqgFzekLUwI3TM-YyK6F8Lxs,,,,,,,,,,1,peruvian,1,1,2.813,0,11,11,60,1,61,./stim/wavs/andalusian_mismatch_interrogative-total-yn_La-nina-lava-el-plato.wav,./stim/wavs/argentine_mismatch_interrogative-total-yn_La-nina-lava-el-plato.wav,./stim/wavs/castilian_mismatch_interrogative-total-yn_La-nina-lava-el-plato.wav,./stim/wavs/chilean_mismatch_interrogative-total-yn_La-nina-lava-el-plato.wav,./stim/wavs/cuban_mismatch_interrogative-total-yn_La-nina-lava-el-plato.wav,./stim/wavs/mexican_mismatch_interrogative-total-yn_La-nina-lava-el-plato.wav,./stim/wavs/peruvian_mismatch_interrogative-total-yn_La-nina-lava-el-plato.wav,./stim/wavs/puertorican_mismatch_interrogative-total-yn_La-nina-lava-el-plato.wav,,,,,,,,,,,,,,,,,,,,,,,,,,,,,,,,,,,,,,,,,,,,,,,,,,,,,,,,
,,,,,,,midd12,midd,ma,United States,South,13 or older,yes,2021-03-27_07h06.26.604,empathy_intonation_perc,2020.2.10,MacIntel,60,IwAR3CGx1W9H_3AAxQj16RKLYi-8T5usP3Ur1fqgFzekLUwI3TM-YyK6F8Lxs,,,,,,,,,,1,peruvian,1,1,2.186,0,12,12,30,1,31,./stim/wavs/andalusian_match_interrogative-total-yn_Mariano-habla-del-tiempo.wav,./stim/wavs/argentine_match_interrogative-total-yn_Mariano-habla-del-tiempo.wav,./stim/wavs/castilian_match_interrogative-total-yn_Mariano-habla-del-tiempo.wav,./stim/wavs/chilean_match_interrogative-total-yn_Mariano-habla-del-tiempo.wav,./stim/wavs/cuban_match_interrogative-total-yn_Mariano-habla-del-tiempo.wav,./stim/wavs/mexican_match_interrogative-total-yn_Mariano-habla-del-tiempo.wav,./stim/wavs/peruvian_match_interrogative-total-yn_Mariano-habla-del-tiempo.wav,./stim/wavs/puertorican_match_interrogative-total-yn_Mariano-habla-del-tiempo.wav,,,,,,,,,,,,,,,,,,,,,,,,,,,,,,,,,,,,,,,,,,,,,,,,,,,,,,,,
,,,,,,,midd12,midd,ma,United States,South,13 or older,yes,2021-03-27_07h06.26.604,empathy_intonation_perc,2020.2.10,MacIntel,60,IwAR3CGx1W9H_3AAxQj16RKLYi-8T5usP3Ur1fqgFzekLUwI3TM-YyK6F8Lxs,,,,,,,,,,1,puertorican,1,1,3.199,0,13,13,23,1,24,./stim/wavs/andalusian_match_interrogative-partial-wh_Por-que-iba-a-Bolivia.wav,./stim/wavs/argentine_match_interrogative-partial-wh_Por-que-iba-a-Bolivia.wav,./stim/wavs/castilian_match_interrogative-partial-wh_Por-que-iba-a-Bolivia.wav,./stim/wavs/chilean_match_interrogative-partial-wh_Por-que-iba-a-Bolivia.wav,./stim/wavs/cuban_match_interrogative-partial-wh_Por-que-iba-a-Bolivia.wav,./stim/wavs/mexican_match_interrogative-partial-wh_Por-que-iba-a-Bolivia.wav,./stim/wavs/peruvian_match_interrogative-partial-wh_Por-que-iba-a-Bolivia.wav,./stim/wavs/puertorican_match_interrogative-partial-wh_Por-que-iba-a-Bolivia.wav,,,,,,,,,,,,,,,,,,,,,,,,,,,,,,,,,,,,,,,,,,,,,,,,,,,,,,,,
,,,,,,,midd12,midd,ma,United States,South,13 or older,yes,2021-03-27_07h06.26.604,empathy_intonation_perc,2020.2.10,MacIntel,60,IwAR3CGx1W9H_3AAxQj16RKLYi-8T5usP3Ur1fqgFzekLUwI3TM-YyK6F8Lxs,,,,,,,,,,0,cuban,0,1,3.458,0,14,14,41,1,42,./stim/wavs/andalusian_mismatch_declarative-narrow-focus_El-hombre-mira-la-luna.wav,./stim/wavs/argentine_mismatch_declarative-narrow-focus_El-hombre-mira-la-luna.wav,./stim/wavs/castilian_mismatch_declarative-narrow-focus_El-hombre-mira-la-luna.wav,./stim/wavs/chilean_mismatch_declarative-narrow-focus_El-hombre-mira-la-luna.wav,./stim/wavs/cuban_mismatch_declarative-narrow-focus_El-hombre-mira-la-luna.wav,./stim/wavs/mexican_mismatch_declarative-narrow-focus_El-hombre-mira-la-luna.wav,./stim/wavs/peruvian_mismatch_declarative-narrow-focus_El-hombre-mira-la-luna.wav,./stim/wavs/puertorican_mismatch_declarative-narrow-focus_El-hombre-mira-la-luna.wav,,,,,,,,,,,,,,,,,,,,,,,,,,,,,,,,,,,,,,,,,,,,,,,,,,,,,,,,
,,,,,,,midd12,midd,ma,United States,South,13 or older,yes,2021-03-27_07h06.26.604,empathy_intonation_perc,2020.2.10,MacIntel,60,IwAR3CGx1W9H_3AAxQj16RKLYi-8T5usP3Ur1fqgFzekLUwI3TM-YyK6F8Lxs,,,,,,,,,,1,peruvian,1,1,4.431,0,15,15,22,1,23,./stim/wavs/andalusian_match_interrogative-partial-wh_Por-que-hablaba-del-agua.wav,./stim/wavs/argentine_match_interrogative-partial-wh_Por-que-hablaba-del-agua.wav,./stim/wavs/castilian_match_interrogative-partial-wh_Por-que-hablaba-del-agua.wav,./stim/wavs/chilean_match_interrogative-partial-wh_Por-que-hablaba-del-agua.wav,./stim/wavs/cuban_match_interrogative-partial-wh_Por-que-hablaba-del-agua.wav,./stim/wavs/mexican_match_interrogative-partial-wh_Por-que-hablaba-del-agua.wav,./stim/wavs/peruvian_match_interrogative-partial-wh_Por-que-hablaba-del-agua.wav,./stim/wavs/puertorican_match_interrogative-partial-wh_Por-que-hablaba-del-agua.wav,,,,,,,,,,,,,,,,,,,,,,,,,,,,,,,,,,,,,,,,,,,,,,,,,,,,,,,,
,,,,,,,midd12,midd,ma,United States,South,13 or older,yes,2021-03-27_07h06.26.604,empathy_intonation_perc,2020.2.10,MacIntel,60,IwAR3CGx1W9H_3AAxQj16RKLYi-8T5usP3Ur1fqgFzekLUwI3TM-YyK6F8Lxs,,,,,,,,,,1,mexican,1,1,1.636,0,16,16,19,1,20,./stim/wavs/andalusian_match_interrogative-partial-wh_Cuando-vendia-el-carro.wav,./stim/wavs/argentine_match_interrogative-partial-wh_Cuando-vendia-el-carro.wav,./stim/wavs/castilian_match_interrogative-partial-wh_Cuando-vendia-el-carro.wav,./stim/wavs/chilean_match_interrogative-partial-wh_Cuando-vendia-el-carro.wav,./stim/wavs/cuban_match_interrogative-partial-wh_Cuando-vendia-el-carro.wav,./stim/wavs/mexican_match_interrogative-partial-wh_Cuando-vendia-el-carro.wav,./stim/wavs/peruvian_match_interrogative-partial-wh_Cuando-vendia-el-carro.wav,./stim/wavs/puertorican_match_interrogative-partial-wh_Cuando-vendia-el-carro.wav,,,,,,,,,,,,,,,,,,,,,,,,,,,,,,,,,,,,,,,,,,,,,,,,,,,,,,,,
,,,,,,,midd12,midd,ma,United States,South,13 or older,yes,2021-03-27_07h06.26.604,empathy_intonation_perc,2020.2.10,MacIntel,60,IwAR3CGx1W9H_3AAxQj16RKLYi-8T5usP3Ur1fqgFzekLUwI3TM-YyK6F8Lxs,,,,,,,,,,0,chilean,0,1,2.938,0,17,17,9,1,10,./stim/wavs/andalusian_match_declarative-narrow-focus_Daniel-iba-a-Bolivia.wav,./stim/wavs/argentine_match_declarative-narrow-focus_Daniel-iba-a-Bolivia.wav,./stim/wavs/castilian_match_declarative-narrow-focus_Daniel-iba-a-Bolivia.wav,./stim/wavs/chilean_match_declarative-narrow-focus_Daniel-iba-a-Bolivia.wav,./stim/wavs/cuban_match_declarative-narrow-focus_Daniel-iba-a-Bolivia.wav,./stim/wavs/mexican_match_declarative-narrow-focus_Daniel-iba-a-Bolivia.wav,./stim/wavs/peruvian_match_declarative-narrow-focus_Daniel-iba-a-Bolivia.wav,./stim/wavs/puertorican_match_declarative-narrow-focus_Daniel-iba-a-Bolivia.wav,,,,,,,,,,,,,,,,,,,,,,,,,,,,,,,,,,,,,,,,,,,,,,,,,,,,,,,,
,,,,,,,midd12,midd,ma,United States,South,13 or older,yes,2021-03-27_07h06.26.604,empathy_intonation_perc,2020.2.10,MacIntel,60,IwAR3CGx1W9H_3AAxQj16RKLYi-8T5usP3Ur1fqgFzekLUwI3TM-YyK6F8Lxs,,,,,,,,,,0,peruvian,0,1,4.268,0,18,18,0,1,1,./stim/wavs/andalusian_match_declarative-broad-focus_Ana-lleva-el-abrigo.wav,./stim/wavs/argentine_match_declarative-broad-focus_Ana-lleva-el-abrigo.wav,./stim/wavs/castilian_match_declarative-broad-focus_Ana-lleva-el-abrigo.wav,./stim/wavs/chilean_match_declarative-broad-focus_Ana-lleva-el-abrigo.wav,./stim/wavs/cuban_match_declarative-broad-focus_Ana-lleva-el-abrigo.wav,./stim/wavs/mexican_match_declarative-broad-focus_Ana-lleva-el-abrigo.wav,./stim/wavs/peruvian_match_declarative-broad-focus_Ana-lleva-el-abrigo.wav,./stim/wavs/puertorican_match_declarative-broad-focus_Ana-lleva-el-abrigo.wav,,,,,,,,,,,,,,,,,,,,,,,,,,,,,,,,,,,,,,,,,,,,,,,,,,,,,,,,
,,,,,,,midd12,midd,ma,United States,South,13 or older,yes,2021-03-27_07h06.26.604,empathy_intonation_perc,2020.2.10,MacIntel,60,IwAR3CGx1W9H_3AAxQj16RKLYi-8T5usP3Ur1fqgFzekLUwI3TM-YyK6F8Lxs,,,,,,,,,,0,puertorican,0,1,1.908,0,19,19,33,1,34,./stim/wavs/andalusian_mismatch_declarative-broad-focus_El-hombre-mira-la-luna.wav,./stim/wavs/argentine_mismatch_declarative-broad-focus_El-hombre-mira-la-luna.wav,./stim/wavs/castilian_mismatch_declarative-broad-focus_El-hombre-mira-la-luna.wav,./stim/wavs/chilean_mismatch_declarative-broad-focus_El-hombre-mira-la-luna.wav,./stim/wavs/cuban_mismatch_declarative-broad-focus_El-hombre-mira-la-luna.wav,./stim/wavs/mexican_mismatch_declarative-broad-focus_El-hombre-mira-la-luna.wav,./stim/wavs/peruvian_mismatch_declarative-broad-focus_El-hombre-mira-la-luna.wav,./stim/wavs/puertorican_mismatch_declarative-broad-focus_El-hombre-mira-la-luna.wav,,,,,,,,,,,,,,,,,,,,,,,,,,,,,,,,,,,,,,,,,,,,,,,,,,,,,,,,
,,,,,,,midd12,midd,ma,United States,South,13 or older,yes,2021-03-27_07h06.26.604,empathy_intonation_perc,2020.2.10,MacIntel,60,IwAR3CGx1W9H_3AAxQj16RKLYi-8T5usP3Ur1fqgFzekLUwI3TM-YyK6F8Lxs,,,,,,,,,,1,chilean,1,1,2.919,0,20,20,62,1,63,./stim/wavs/andalusian_mismatch_interrogative-total-yn_Mi-novio-viene-del-lago.wav,./stim/wavs/argentine_mismatch_interrogative-total-yn_Mi-novio-viene-del-lago.wav,./stim/wavs/castilian_mismatch_interrogative-total-yn_Mi-novio-viene-del-lago.wav,./stim/wavs/chilean_mismatch_interrogative-total-yn_Mi-novio-viene-del-lago.wav,./stim/wavs/cuban_mismatch_interrogative-total-yn_Mi-novio-viene-del-lago.wav,./stim/wavs/mexican_mismatch_interrogative-total-yn_Mi-novio-viene-del-lago.wav,./stim/wavs/peruvian_mismatch_interrogative-total-yn_Mi-novio-viene-del-lago.wav,./stim/wavs/puertorican_mismatch_interrogative-total-yn_Mi-novio-viene-del-lago.wav,,,,,,,,,,,,,,,,,,,,,,,,,,,,,,,,,,,,,,,,,,,,,,,,,,,,,,,,
,,,,,,,midd12,midd,ma,United States,South,13 or older,yes,2021-03-27_07h06.26.604,empathy_intonation_perc,2020.2.10,MacIntel,60,IwAR3CGx1W9H_3AAxQj16RKLYi-8T5usP3Ur1fqgFzekLUwI3TM-YyK6F8Lxs,,,,,,,,,,1,cuban,0,0,2.783,0,21,21,58,1,59,./stim/wavs/andalusian_mismatch_interrogative-total-yn_El-nino-oye-el-rio.wav,./stim/wavs/argentine_mismatch_interrogative-total-yn_El-nino-oye-el-rio.wav,./stim/wavs/castilian_mismatch_interrogative-total-yn_El-nino-oye-el-rio.wav,./stim/wavs/chilean_mismatch_interrogative-total-yn_El-nino-oye-el-rio.wav,./stim/wavs/cuban_mismatch_interrogative-total-yn_El-nino-oye-el-rio.wav,./stim/wavs/mexican_mismatch_interrogative-total-yn_El-nino-oye-el-rio.wav,./stim/wavs/peruvian_mismatch_interrogative-total-yn_El-nino-oye-el-rio.wav,./stim/wavs/puertorican_mismatch_interrogative-total-yn_El-nino-oye-el-rio.wav,,,,,,,,,,,,,,,,,,,,,,,,,,,,,,,,,,,,,,,,,,,,,,,,,,,,,,,,
,,,,,,,midd12,midd,ma,United States,South,13 or older,yes,2021-03-27_07h06.26.604,empathy_intonation_perc,2020.2.10,MacIntel,60,IwAR3CGx1W9H_3AAxQj16RKLYi-8T5usP3Ur1fqgFzekLUwI3TM-YyK6F8Lxs,,,,,,,,,,1,puertorican,0,0,2.072,0,22,22,56,1,57,./stim/wavs/andalusian_mismatch_interrogative-total-yn_El-bebe-comia-muy-bien.wav,./stim/wavs/argentine_mismatch_interrogative-total-yn_El-bebe-comia-muy-bien.wav,./stim/wavs/castilian_mismatch_interrogative-total-yn_El-bebe-comia-muy-bien.wav,./stim/wavs/chilean_mismatch_interrogative-total-yn_El-bebe-comia-muy-bien.wav,./stim/wavs/cuban_mismatch_interrogative-total-yn_El-bebe-comia-muy-bien.wav,./stim/wavs/mexican_mismatch_interrogative-total-yn_El-bebe-comia-muy-bien.wav,./stim/wavs/peruvian_mismatch_interrogative-total-yn_El-bebe-comia-muy-bien.wav,./stim/wavs/puertorican_mismatch_interrogative-total-yn_El-bebe-comia-muy-bien.wav,,,,,,,,,,,,,,,,,,,,,,,,,,,,,,,,,,,,,,,,,,,,,,,,,,,,,,,,
,,,,,,,midd12,midd,ma,United States,South,13 or older,yes,2021-03-27_07h06.26.604,empathy_intonation_perc,2020.2.10,MacIntel,60,IwAR3CGx1W9H_3AAxQj16RKLYi-8T5usP3Ur1fqgFzekLUwI3TM-YyK6F8Lxs,,,,,,,,,,0,cuban,0,1,3.374,0,23,23,46,1,47,./stim/wavs/andalusian_mismatch_declarative-narrow-focus_Mi-novio-viene-del-lago.wav,./stim/wavs/argentine_mismatch_declarative-narrow-focus_Mi-novio-viene-del-lago.wav,./stim/wavs/castilian_mismatch_declarative-narrow-focus_Mi-novio-viene-del-lago.wav,./stim/wavs/chilean_mismatch_declarative-narrow-focus_Mi-novio-viene-del-lago.wav,./stim/wavs/cuban_mismatch_declarative-narrow-focus_Mi-novio-viene-del-lago.wav,./stim/wavs/mexican_mismatch_declarative-narrow-focus_Mi-novio-viene-del-lago.wav,./stim/wavs/peruvian_mismatch_declarative-narrow-focus_Mi-novio-viene-del-lago.wav,./stim/wavs/puertorican_mismatch_declarative-narrow-focus_Mi-novio-viene-del-lago.wav,,,,,,,,,,,,,,,,,,,,,,,,,,,,,,,,,,,,,,,,,,,,,,,,,,,,,,,,
,,,,,,,midd12,midd,ma,United States,South,13 or older,yes,2021-03-27_07h06.26.604,empathy_intonation_perc,2020.2.10,MacIntel,60,IwAR3CGx1W9H_3AAxQj16RKLYi-8T5usP3Ur1fqgFzekLUwI3TM-YyK6F8Lxs,,,,,,,,,,0,chilean,0,1,1.73,0,24,24,36,1,37,./stim/wavs/andalusian_mismatch_declarative-broad-focus_La-nina-lava-el-plato.wav,./stim/wavs/argentine_mismatch_declarative-broad-focus_La-nina-lava-el-plato.wav,./stim/wavs/castilian_mismatch_declarative-broad-focus_La-nina-lava-el-plato.wav,./stim/wavs/chilean_mismatch_declarative-broad-focus_La-nina-lava-el-plato.wav,./stim/wavs/cuban_mismatch_declarative-broad-focus_La-nina-lava-el-plato.wav,./stim/wavs/mexican_mismatch_declarative-broad-focus_La-nina-lava-el-plato.wav,./stim/wavs/peruvian_mismatch_declarative-broad-focus_La-nina-lava-el-plato.wav,./stim/wavs/puertorican_mismatch_declarative-broad-focus_La-nina-lava-el-plato.wav,,,,,,,,,,,,,,,,,,,,,,,,,,,,,,,,,,,,,,,,,,,,,,,,,,,,,,,,
,,,,,,,midd12,midd,ma,United States,South,13 or older,yes,2021-03-27_07h06.26.604,empathy_intonation_perc,2020.2.10,MacIntel,60,IwAR3CGx1W9H_3AAxQj16RKLYi-8T5usP3Ur1fqgFzekLUwI3TM-YyK6F8Lxs,,,,,,,,,,1,peruvian,1,1,3.274,0,25,25,29,1,30,./stim/wavs/andalusian_match_interrogative-total-yn_Maria-bebe-el-vino.wav,./stim/wavs/argentine_match_interrogative-total-yn_Maria-bebe-el-vino.wav,./stim/wavs/castilian_match_interrogative-total-yn_Maria-bebe-el-vino.wav,./stim/wavs/chilean_match_interrogative-total-yn_Maria-bebe-el-vino.wav,./stim/wavs/cuban_match_interrogative-total-yn_Maria-bebe-el-vino.wav,./stim/wavs/mexican_match_interrogative-total-yn_Maria-bebe-el-vino.wav,./stim/wavs/peruvian_match_interrogative-total-yn_Maria-bebe-el-vino.wav,./stim/wavs/puertorican_match_interrogative-total-yn_Maria-bebe-el-vino.wav,,,,,,,,,,,,,,,,,,,,,,,,,,,,,,,,,,,,,,,,,,,,,,,,,,,,,,,,
,,,,,,,midd12,midd,ma,United States,South,13 or older,yes,2021-03-27_07h06.26.604,empathy_intonation_perc,2020.2.10,MacIntel,60,IwAR3CGx1W9H_3AAxQj16RKLYi-8T5usP3Ur1fqgFzekLUwI3TM-YyK6F8Lxs,,,,,,,,,,1,chilean,1,1,2.18,0,26,26,61,1,62,./stim/wavs/andalusian_mismatch_interrogative-total-yn_Mi-madre-come-la-fruta.wav,./stim/wavs/argentine_mismatch_interrogative-total-yn_Mi-madre-come-la-fruta.wav,./stim/wavs/castilian_mismatch_interrogative-total-yn_Mi-madre-come-la-fruta.wav,./stim/wavs/chilean_mismatch_interrogative-total-yn_Mi-madre-come-la-fruta.wav,./stim/wavs/cuban_mismatch_interrogative-total-yn_Mi-madre-come-la-fruta.wav,./stim/wavs/mexican_mismatch_interrogative-total-yn_Mi-madre-come-la-fruta.wav,./stim/wavs/peruvian_mismatch_interrogative-total-yn_Mi-madre-come-la-fruta.wav,./stim/wavs/puertorican_mismatch_interrogative-total-yn_Mi-madre-come-la-fruta.wav,,,,,,,,,,,,,,,,,,,,,,,,,,,,,,,,,,,,,,,,,,,,,,,,,,,,,,,,
,,,,,,,midd12,midd,ma,United States,South,13 or older,yes,2021-03-27_07h06.26.604,empathy_intonation_perc,2020.2.10,MacIntel,60,IwAR3CGx1W9H_3AAxQj16RKLYi-8T5usP3Ur1fqgFzekLUwI3TM-YyK6F8Lxs,,,,,,,,,,1,chilean,1,1,1.746,0,27,27,49,1,50,./stim/wavs/andalusian_mismatch_interrogative-partial-wh_Cuando-lavaba-el-plato.wav,./stim/wavs/argentine_mismatch_interrogative-partial-wh_Cuando-lavaba-el-plato.wav,./stim/wavs/castilian_mismatch_interrogative-partial-wh_Cuando-lavaba-el-plato.wav,./stim/wavs/chilean_mismatch_interrogative-partial-wh_Cuando-lavaba-el-plato.wav,./stim/wavs/cuban_mismatch_interrogative-partial-wh_Cuando-lavaba-el-plato.wav,./stim/wavs/mexican_mismatch_interrogative-partial-wh_Cuando-lavaba-el-plato.wav,./stim/wavs/peruvian_mismatch_interrogative-partial-wh_Cuando-lavaba-el-plato.wav,./stim/wavs/puertorican_mismatch_interrogative-partial-wh_Cuando-lavaba-el-plato.wav,,,,,,,,,,,,,,,,,,,,,,,,,,,,,,,,,,,,,,,,,,,,,,,,,,,,,,,,
,,,,,,,midd12,midd,ma,United States,South,13 or older,yes,2021-03-27_07h06.26.604,empathy_intonation_perc,2020.2.10,MacIntel,60,IwAR3CGx1W9H_3AAxQj16RKLYi-8T5usP3Ur1fqgFzekLUwI3TM-YyK6F8Lxs,,,,,,,,,,0,cuban,0,1,4.537,0,28,28,6,1,7,./stim/wavs/andalusian_match_declarative-broad-focus_Mariano-habla-del-tiempo.wav,./stim/wavs/argentine_match_declarative-broad-focus_Mariano-habla-del-tiempo.wav,./stim/wavs/castilian_match_declarative-broad-focus_Mariano-habla-del-tiempo.wav,./stim/wavs/chilean_match_declarative-broad-focus_Mariano-habla-del-tiempo.wav,./stim/wavs/cuban_match_declarative-broad-focus_Mariano-habla-del-tiempo.wav,./stim/wavs/mexican_match_declarative-broad-focus_Mariano-habla-del-tiempo.wav,./stim/wavs/peruvian_match_declarative-broad-focus_Mariano-habla-del-tiempo.wav,./stim/wavs/puertorican_match_declarative-broad-focus_Mariano-habla-del-tiempo.wav,,,,,,,,,,,,,,,,,,,,,,,,,,,,,,,,,,,,,,,,,,,,,,,,,,,,,,,,
,,,,,,,midd12,midd,ma,United States,South,13 or older,yes,2021-03-27_07h06.26.604,empathy_intonation_perc,2020.2.10,MacIntel,60,IwAR3CGx1W9H_3AAxQj16RKLYi-8T5usP3Ur1fqgFzekLUwI3TM-YyK6F8Lxs,,,,,,,,,,0,puertorican,0,1,2.316,0,29,29,7,1,8,./stim/wavs/andalusian_match_declarative-broad-focus_Marta-abre-el-regalo.wav,./stim/wavs/argentine_match_declarative-broad-focus_Marta-abre-el-regalo.wav,./stim/wavs/castilian_match_declarative-broad-focus_Marta-abre-el-regalo.wav,./stim/wavs/chilean_match_declarative-broad-focus_Marta-abre-el-regalo.wav,./stim/wavs/cuban_match_declarative-broad-focus_Marta-abre-el-regalo.wav,./stim/wavs/mexican_match_declarative-broad-focus_Marta-abre-el-regalo.wav,./stim/wavs/peruvian_match_declarative-broad-focus_Marta-abre-el-regalo.wav,./stim/wavs/puertorican_match_declarative-broad-focus_Marta-abre-el-regalo.wav,,,,,,,,,,,,,,,,,,,,,,,,,,,,,,,,,,,,,,,,,,,,,,,,,,,,,,,,
,,,,,,,midd12,midd,ma,United States,South,13 or older,yes,2021-03-27_07h06.26.604,empathy_intonation_perc,2020.2.10,MacIntel,60,IwAR3CGx1W9H_3AAxQj16RKLYi-8T5usP3Ur1fqgFzekLUwI3TM-YyK6F8Lxs,,,,,,,,,,0,puertorican,0,1,5.741,0,30,30,8,1,9,./stim/wavs/andalusian_match_declarative-narrow-focus_Ana-lleva-el-abrigo.wav,./stim/wavs/argentine_match_declarative-narrow-focus_Ana-lleva-el-abrigo.wav,./stim/wavs/castilian_match_declarative-narrow-focus_Ana-lleva-el-abrigo.wav,./stim/wavs/chilean_match_declarative-narrow-focus_Ana-lleva-el-abrigo.wav,./stim/wavs/cuban_match_declarative-narrow-focus_Ana-lleva-el-abrigo.wav,./stim/wavs/mexican_match_declarative-narrow-focus_Ana-lleva-el-abrigo.wav,./stim/wavs/peruvian_match_declarative-narrow-focus_Ana-lleva-el-abrigo.wav,./stim/wavs/puertorican_match_declarative-narrow-focus_Ana-lleva-el-abrigo.wav,,,,,,,,,,,,,,,,,,,,,,,,,,,,,,,,,,,,,,,,,,,,,,,,,,,,,,,,
,,,,,,,midd12,midd,ma,United States,South,13 or older,yes,2021-03-27_07h06.26.604,empathy_intonation_perc,2020.2.10,MacIntel,60,IwAR3CGx1W9H_3AAxQj16RKLYi-8T5usP3Ur1fqgFzekLUwI3TM-YyK6F8Lxs,,,,,,,,,,1,mexican,1,1,2.007,0,31,31,53,1,54,./stim/wavs/andalusian_mismatch_interrogative-partial-wh_Por-que-oia-el-rio.wav,./stim/wavs/argentine_mismatch_interrogative-partial-wh_Por-que-oia-el-rio.wav,./stim/wavs/castilian_mismatch_interrogative-partial-wh_Por-que-oia-el-rio.wav,./stim/wavs/chilean_mismatch_interrogative-partial-wh_Por-que-oia-el-rio.wav,./stim/wavs/cuban_mismatch_interrogative-partial-wh_Por-que-oia-el-rio.wav,./stim/wavs/mexican_mismatch_interrogative-partial-wh_Por-que-oia-el-rio.wav,./stim/wavs/peruvian_mismatch_interrogative-partial-wh_Por-que-oia-el-rio.wav,./stim/wavs/puertorican_mismatch_interrogative-partial-wh_Por-que-oia-el-rio.wav,,,,,,,,,,,,,,,,,,,,,,,,,,,,,,,,,,,,,,,,,,,,,,,,,,,,,,,,
,,,,,,,midd12,midd,ma,United States,South,13 or older,yes,2021-03-27_07h06.26.604,empathy_intonation_perc,2020.2.10,MacIntel,60,IwAR3CGx1W9H_3AAxQj16RKLYi-8T5usP3Ur1fqgFzekLUwI3TM-YyK6F8Lxs,,,,,,,,,,0,peruvian,0,1,3.146,0,32,32,35,1,36,./stim/wavs/andalusian_mismatch_declarative-broad-focus_La-maestra-vive-en-Paris.wav,./stim/wavs/argentine_mismatch_declarative-broad-focus_La-maestra-vive-en-Paris.wav,./stim/wavs/castilian_mismatch_declarative-broad-focus_La-maestra-vive-en-Paris.wav,./stim/wavs/chilean_mismatch_declarative-broad-focus_La-maestra-vive-en-Paris.wav,./stim/wavs/cuban_mismatch_declarative-broad-focus_La-maestra-vive-en-Paris.wav,./stim/wavs/mexican_mismatch_declarative-broad-focus_La-maestra-vive-en-Paris.wav,./stim/wavs/peruvian_mismatch_declarative-broad-focus_La-maestra-vive-en-Paris.wav,./stim/wavs/puertorican_mismatch_declarative-broad-focus_La-maestra-vive-en-Paris.wav,,,,,,,,,,,,,,,,,,,,,,,,,,,,,,,,,,,,,,,,,,,,,,,,,,,,,,,,
,,,,,,,midd12,midd,ma,United States,South,13 or older,yes,2021-03-27_07h06.26.604,empathy_intonation_perc,2020.2.10,MacIntel,60,IwAR3CGx1W9H_3AAxQj16RKLYi-8T5usP3Ur1fqgFzekLUwI3TM-YyK6F8Lxs,,,,,,,,,,0,puertorican,0,1,3.957,0,33,33,37,1,38,./stim/wavs/andalusian_mismatch_declarative-broad-focus_Mi-madre-come-la-fruta.wav,./stim/wavs/argentine_mismatch_declarative-broad-focus_Mi-madre-come-la-fruta.wav,./stim/wavs/castilian_mismatch_declarative-broad-focus_Mi-madre-come-la-fruta.wav,./stim/wavs/chilean_mismatch_declarative-broad-focus_Mi-madre-come-la-fruta.wav,./stim/wavs/cuban_mismatch_declarative-broad-focus_Mi-madre-come-la-fruta.wav,./stim/wavs/mexican_mismatch_declarative-broad-focus_Mi-madre-come-la-fruta.wav,./stim/wavs/peruvian_mismatch_declarative-broad-focus_Mi-madre-come-la-fruta.wav,./stim/wavs/puertorican_mismatch_declarative-broad-focus_Mi-madre-come-la-fruta.wav,,,,,,,,,,,,,,,,,,,,,,,,,,,,,,,,,,,,,,,,,,,,,,,,,,,,,,,,
,,,,,,,midd12,midd,ma,United States,South,13 or older,yes,2021-03-27_07h06.26.604,empathy_intonation_perc,2020.2.10,MacIntel,60,IwAR3CGx1W9H_3AAxQj16RKLYi-8T5usP3Ur1fqgFzekLUwI3TM-YyK6F8Lxs,,,,,,,,,,0,peruvian,0,1,2.68,0,34,34,43,1,44,./stim/wavs/andalusian_mismatch_declarative-narrow-focus_La-maestra-vive-en-Paris.wav,./stim/wavs/argentine_mismatch_declarative-narrow-focus_La-maestra-vive-en-Paris.wav,./stim/wavs/castilian_mismatch_declarative-narrow-focus_La-maestra-vive-en-Paris.wav,./stim/wavs/chilean_mismatch_declarative-narrow-focus_La-maestra-vive-en-Paris.wav,./stim/wavs/cuban_mismatch_declarative-narrow-focus_La-maestra-vive-en-Paris.wav,./stim/wavs/mexican_mismatch_declarative-narrow-focus_La-maestra-vive-en-Paris.wav,./stim/wavs/peruvian_mismatch_declarative-narrow-focus_La-maestra-vive-en-Paris.wav,./stim/wavs/puertorican_mismatch_declarative-narrow-focus_La-maestra-vive-en-Paris.wav,,,,,,,,,,,,,,,,,,,,,,,,,,,,,,,,,,,,,,,,,,,,,,,,,,,,,,,,
,,,,,,,midd12,midd,ma,United States,South,13 or older,yes,2021-03-27_07h06.26.604,empathy_intonation_perc,2020.2.10,MacIntel,60,IwAR3CGx1W9H_3AAxQj16RKLYi-8T5usP3Ur1fqgFzekLUwI3TM-YyK6F8Lxs,,,,,,,,,,0,cuban,0,1,2.065,0,35,35,11,1,12,./stim/wavs/andalusian_match_declarative-narrow-focus_Emilio-ama-la-marcha.wav,./stim/wavs/argentine_match_declarative-narrow-focus_Emilio-ama-la-marcha.wav,./stim/wavs/castilian_match_declarative-narrow-focus_Emilio-ama-la-marcha.wav,./stim/wavs/chilean_match_declarative-narrow-focus_Emilio-ama-la-marcha.wav,./stim/wavs/cuban_match_declarative-narrow-focus_Emilio-ama-la-marcha.wav,./stim/wavs/mexican_match_declarative-narrow-focus_Emilio-ama-la-marcha.wav,./stim/wavs/peruvian_match_declarative-narrow-focus_Emilio-ama-la-marcha.wav,./stim/wavs/puertorican_match_declarative-narrow-focus_Emilio-ama-la-marcha.wav,,,,,,,,,,,,,,,,,,,,,,,,,,,,,,,,,,,,,,,,,,,,,,,,,,,,,,,,
,,,,,,,midd12,midd,ma,United States,South,13 or older,yes,2021-03-27_07h06.26.604,empathy_intonation_perc,2020.2.10,MacIntel,60,IwAR3CGx1W9H_3AAxQj16RKLYi-8T5usP3Ur1fqgFzekLUwI3TM-YyK6F8Lxs,,,,,,,,,,0,cuban,0,1,1.65,0,36,36,42,1,43,./stim/wavs/andalusian_mismatch_declarative-narrow-focus_El-nino-oye-el-rio.wav,./stim/wavs/argentine_mismatch_declarative-narrow-focus_El-nino-oye-el-rio.wav,./stim/wavs/castilian_mismatch_declarative-narrow-focus_El-nino-oye-el-rio.wav,./stim/wavs/chilean_mismatch_declarative-narrow-focus_El-nino-oye-el-rio.wav,./stim/wavs/cuban_mismatch_declarative-narrow-focus_El-nino-oye-el-rio.wav,./stim/wavs/mexican_mismatch_declarative-narrow-focus_El-nino-oye-el-rio.wav,./stim/wavs/peruvian_mismatch_declarative-narrow-focus_El-nino-oye-el-rio.wav,./stim/wavs/puertorican_mismatch_declarative-narrow-focus_El-nino-oye-el-rio.wav,,,,,,,,,,,,,,,,,,,,,,,,,,,,,,,,,,,,,,,,,,,,,,,,,,,,,,,,
,,,,,,,midd12,midd,ma,United States,South,13 or older,yes,2021-03-27_07h06.26.604,empathy_intonation_perc,2020.2.10,MacIntel,60,IwAR3CGx1W9H_3AAxQj16RKLYi-8T5usP3Ur1fqgFzekLUwI3TM-YyK6F8Lxs,,,,,,,,,,0,peruvian,0,1,1.934,0,37,37,1,1,2,./stim/wavs/andalusian_match_declarative-broad-focus_Daniel-iba-a-Bolivia.wav,./stim/wavs/argentine_match_declarative-broad-focus_Daniel-iba-a-Bolivia.wav,./stim/wavs/castilian_match_declarative-broad-focus_Daniel-iba-a-Bolivia.wav,./stim/wavs/chilean_match_declarative-broad-focus_Daniel-iba-a-Bolivia.wav,./stim/wavs/cuban_match_declarative-broad-focus_Daniel-iba-a-Bolivia.wav,./stim/wavs/mexican_match_declarative-broad-focus_Daniel-iba-a-Bolivia.wav,./stim/wavs/peruvian_match_declarative-broad-focus_Daniel-iba-a-Bolivia.wav,./stim/wavs/puertorican_match_declarative-broad-focus_Daniel-iba-a-Bolivia.wav,,,,,,,,,,,,,,,,,,,,,,,,,,,,,,,,,,,,,,,,,,,,,,,,,,,,,,,,
,,,,,,,midd12,midd,ma,United States,South,13 or older,yes,2021-03-27_07h06.26.604,empathy_intonation_perc,2020.2.10,MacIntel,60,IwAR3CGx1W9H_3AAxQj16RKLYi-8T5usP3Ur1fqgFzekLUwI3TM-YyK6F8Lxs,,,,,,,,,,0,cuban,0,1,2.197,0,38,38,45,1,46,./stim/wavs/andalusian_mismatch_declarative-narrow-focus_Mi-madre-come-la-fruta.wav,./stim/wavs/argentine_mismatch_declarative-narrow-focus_Mi-madre-come-la-fruta.wav,./stim/wavs/castilian_mismatch_declarative-narrow-focus_Mi-madre-come-la-fruta.wav,./stim/wavs/chilean_mismatch_declarative-narrow-focus_Mi-madre-come-la-fruta.wav,./stim/wavs/cuban_mismatch_declarative-narrow-focus_Mi-madre-come-la-fruta.wav,./stim/wavs/mexican_mismatch_declarative-narrow-focus_Mi-madre-come-la-fruta.wav,./stim/wavs/peruvian_mismatch_declarative-narrow-focus_Mi-madre-come-la-fruta.wav,./stim/wavs/puertorican_mismatch_declarative-narrow-focus_Mi-madre-come-la-fruta.wav,,,,,,,,,,,,,,,,,,,,,,,,,,,,,,,,,,,,,,,,,,,,,,,,,,,,,,,,
,,,,,,,midd12,midd,ma,United States,South,13 or older,yes,2021-03-27_07h06.26.604,empathy_intonation_perc,2020.2.10,MacIntel,60,IwAR3CGx1W9H_3AAxQj16RKLYi-8T5usP3Ur1fqgFzekLUwI3TM-YyK6F8Lxs,,,,,,,,,,1,argentine,1,1,2.278,0,39,39,59,1,60,./stim/wavs/andalusian_mismatch_interrogative-total-yn_La-maestra-vive-en-Paris.wav,./stim/wavs/argentine_mismatch_interrogative-total-yn_La-maestra-vive-en-Paris.wav,./stim/wavs/castilian_mismatch_interrogative-total-yn_La-maestra-vive-en-Paris.wav,./stim/wavs/chilean_mismatch_interrogative-total-yn_La-maestra-vive-en-Paris.wav,./stim/wavs/cuban_mismatch_interrogative-total-yn_La-maestra-vive-en-Paris.wav,./stim/wavs/mexican_mismatch_interrogative-total-yn_La-maestra-vive-en-Paris.wav,./stim/wavs/peruvian_mismatch_interrogative-total-yn_La-maestra-vive-en-Paris.wav,./stim/wavs/puertorican_mismatch_interrogative-total-yn_La-maestra-vive-en-Paris.wav,,,,,,,,,,,,,,,,,,,,,,,,,,,,,,,,,,,,,,,,,,,,,,,,,,,,,,,,
,,,,,,,midd12,midd,ma,United States,South,13 or older,yes,2021-03-27_07h06.26.604,empathy_intonation_perc,2020.2.10,MacIntel,60,IwAR3CGx1W9H_3AAxQj16RKLYi-8T5usP3Ur1fqgFzekLUwI3TM-YyK6F8Lxs,,,,,,,,,,1,andalusian,1,1,2.388,0,40,40,48,1,49,./stim/wavs/andalusian_mismatch_interrogative-partial-wh_Cuando-comia-la-fruta.wav,./stim/wavs/argentine_mismatch_interrogative-partial-wh_Cuando-comia-la-fruta.wav,./stim/wavs/castilian_mismatch_interrogative-partial-wh_Cuando-comia-la-fruta.wav,./stim/wavs/chilean_mismatch_interrogative-partial-wh_Cuando-comia-la-fruta.wav,./stim/wavs/cuban_mismatch_interrogative-partial-wh_Cuando-comia-la-fruta.wav,./stim/wavs/mexican_mismatch_interrogative-partial-wh_Cuando-comia-la-fruta.wav,./stim/wavs/peruvian_mismatch_interrogative-partial-wh_Cuando-comia-la-fruta.wav,./stim/wavs/puertorican_mismatch_interrogative-partial-wh_Cuando-comia-la-fruta.wav,,,,,,,,,,,,,,,,,,,,,,,,,,,,,,,,,,,,,,,,,,,,,,,,,,,,,,,,
,,,,,,,midd12,midd,ma,United States,South,13 or older,yes,2021-03-27_07h06.26.604,empathy_intonation_perc,2020.2.10,MacIntel,60,IwAR3CGx1W9H_3AAxQj16RKLYi-8T5usP3Ur1fqgFzekLUwI3TM-YyK6F8Lxs,,,,,,,,,,1,argentine,0,0,3.209,0,41,41,26,1,27,./stim/wavs/andalusian_match_interrogative-total-yn_David-leia-el-libro.wav,./stim/wavs/argentine_match_interrogative-total-yn_David-leia-el-libro.wav,./stim/wavs/castilian_match_interrogative-total-yn_David-leia-el-libro.wav,./stim/wavs/chilean_match_interrogative-total-yn_David-leia-el-libro.wav,./stim/wavs/cuban_match_interrogative-total-yn_David-leia-el-libro.wav,./stim/wavs/mexican_match_interrogative-total-yn_David-leia-el-libro.wav,./stim/wavs/peruvian_match_interrogative-total-yn_David-leia-el-libro.wav,./stim/wavs/puertorican_match_interrogative-total-yn_David-leia-el-libro.wav,,,,,,,,,,,,,,,,,,,,,,,,,,,,,,,,,,,,,,,,,,,,,,,,,,,,,,,,
,,,,,,,midd12,midd,ma,United States,South,13 or older,yes,2021-03-27_07h06.26.604,empathy_intonation_perc,2020.2.10,MacIntel,60,IwAR3CGx1W9H_3AAxQj16RKLYi-8T5usP3Ur1fqgFzekLUwI3TM-YyK6F8Lxs,,,,,,,,,,1,cuban,0,0,1.693,0,42,42,57,1,58,./stim/wavs/andalusian_mismatch_interrogative-total-yn_El-hombre-mira-la-luna.wav,./stim/wavs/argentine_mismatch_interrogative-total-yn_El-hombre-mira-la-luna.wav,./stim/wavs/castilian_mismatch_interrogative-total-yn_El-hombre-mira-la-luna.wav,./stim/wavs/chilean_mismatch_interrogative-total-yn_El-hombre-mira-la-luna.wav,./stim/wavs/cuban_mismatch_interrogative-total-yn_El-hombre-mira-la-luna.wav,./stim/wavs/mexican_mismatch_interrogative-total-yn_El-hombre-mira-la-luna.wav,./stim/wavs/peruvian_mismatch_interrogative-total-yn_El-hombre-mira-la-luna.wav,./stim/wavs/puertorican_mismatch_interrogative-total-yn_El-hombre-mira-la-luna.wav,,,,,,,,,,,,,,,,,,,,,,,,,,,,,,,,,,,,,,,,,,,,,,,,,,,,,,,,
,,,,,,,midd12,midd,ma,United States,South,13 or older,yes,2021-03-27_07h06.26.604,empathy_intonation_perc,2020.2.10,MacIntel,60,IwAR3CGx1W9H_3AAxQj16RKLYi-8T5usP3Ur1fqgFzekLUwI3TM-YyK6F8Lxs,,,,,,,,,,0,andalusian,0,1,5.902,0,43,43,39,1,40,./stim/wavs/andalusian_mismatch_declarative-broad-focus_Mi-tia-odia-la-lluvia.wav,./stim/wavs/argentine_mismatch_declarative-broad-focus_Mi-tia-odia-la-lluvia.wav,./stim/wavs/castilian_mismatch_declarative-broad-focus_Mi-tia-odia-la-lluvia.wav,./stim/wavs/chilean_mismatch_declarative-broad-focus_Mi-tia-odia-la-lluvia.wav,./stim/wavs/cuban_mismatch_declarative-broad-focus_Mi-tia-odia-la-lluvia.wav,./stim/wavs/mexican_mismatch_declarative-broad-focus_Mi-tia-odia-la-lluvia.wav,./stim/wavs/peruvian_mismatch_declarative-broad-focus_Mi-tia-odia-la-lluvia.wav,./stim/wavs/puertorican_mismatch_declarative-broad-focus_Mi-tia-odia-la-lluvia.wav,,,,,,,,,,,,,,,,,,,,,,,,,,,,,,,,,,,,,,,,,,,,,,,,,,,,,,,,
,,,,,,,midd12,midd,ma,United States,South,13 or older,yes,2021-03-27_07h06.26.604,empathy_intonation_perc,2020.2.10,MacIntel,60,IwAR3CGx1W9H_3AAxQj16RKLYi-8T5usP3Ur1fqgFzekLUwI3TM-YyK6F8Lxs,,,,,,,,,,1,cuban,1,1,3.27,0,44,44,18,1,19,./stim/wavs/andalusian_match_interrogative-partial-wh_Cuando-lleva-el-abrigo.wav,./stim/wavs/argentine_match_interrogative-partial-wh_Cuando-lleva-el-abrigo.wav,./stim/wavs/castilian_match_interrogative-partial-wh_Cuando-lleva-el-abrigo.wav,./stim/wavs/chilean_match_interrogative-partial-wh_Cuando-lleva-el-abrigo.wav,./stim/wavs/cuban_match_interrogative-partial-wh_Cuando-lleva-el-abrigo.wav,./stim/wavs/mexican_match_interrogative-partial-wh_Cuando-lleva-el-abrigo.wav,./stim/wavs/peruvian_match_interrogative-partial-wh_Cuando-lleva-el-abrigo.wav,./stim/wavs/puertorican_match_interrogative-partial-wh_Cuando-lleva-el-abrigo.wav,,,,,,,,,,,,,,,,,,,,,,,,,,,,,,,,,,,,,,,,,,,,,,,,,,,,,,,,
,,,,,,,midd12,midd,ma,United States,South,13 or older,yes,2021-03-27_07h06.26.604,empathy_intonation_perc,2020.2.10,MacIntel,60,IwAR3CGx1W9H_3AAxQj16RKLYi-8T5usP3Ur1fqgFzekLUwI3TM-YyK6F8Lxs,,,,,,,,,,0,andalusian,0,1,2.077,0,45,45,3,1,4,./stim/wavs/andalusian_match_declarative-broad-focus_Emilio-ama-la-marcha.wav,./stim/wavs/argentine_match_declarative-broad-focus_Emilio-ama-la-marcha.wav,./stim/wavs/castilian_match_declarative-broad-focus_Emilio-ama-la-marcha.wav,./stim/wavs/chilean_match_declarative-broad-focus_Emilio-ama-la-marcha.wav,./stim/wavs/cuban_match_declarative-broad-focus_Emilio-ama-la-marcha.wav,./stim/wavs/mexican_match_declarative-broad-focus_Emilio-ama-la-marcha.wav,./stim/wavs/peruvian_match_declarative-broad-focus_Emilio-ama-la-marcha.wav,./stim/wavs/puertorican_match_declarative-broad-focus_Emilio-ama-la-marcha.wav,,,,,,,,,,,,,,,,,,,,,,,,,,,,,,,,,,,,,,,,,,,,,,,,,,,,,,,,
,,,,,,,midd12,midd,ma,United States,South,13 or older,yes,2021-03-27_07h06.26.604,empathy_intonation_perc,2020.2.10,MacIntel,60,IwAR3CGx1W9H_3AAxQj16RKLYi-8T5usP3Ur1fqgFzekLUwI3TM-YyK6F8Lxs,,,,,,,,,,0,chilean,0,1,3.879,0,46,46,15,1,16,./stim/wavs/andalusian_match_declarative-narrow-focus_Marta-abre-el-regalo.wav,./stim/wavs/argentine_match_declarative-narrow-focus_Marta-abre-el-regalo.wav,./stim/wavs/castilian_match_declarative-narrow-focus_Marta-abre-el-regalo.wav,./stim/wavs/chilean_match_declarative-narrow-focus_Marta-abre-el-regalo.wav,./stim/wavs/cuban_match_declarative-narrow-focus_Marta-abre-el-regalo.wav,./stim/wavs/mexican_match_declarative-narrow-focus_Marta-abre-el-regalo.wav,./stim/wavs/peruvian_match_declarative-narrow-focus_Marta-abre-el-regalo.wav,./stim/wavs/puertorican_match_declarative-narrow-focus_Marta-abre-el-regalo.wav,,,,,,,,,,,,,,,,,,,,,,,,,,,,,,,,,,,,,,,,,,,,,,,,,,,,,,,,
,,,,,,,midd12,midd,ma,United States,South,13 or older,yes,2021-03-27_07h06.26.604,empathy_intonation_perc,2020.2.10,MacIntel,60,IwAR3CGx1W9H_3AAxQj16RKLYi-8T5usP3Ur1fqgFzekLUwI3TM-YyK6F8Lxs,,,,,,,,,,1,cuban,1,1,1.818,0,47,47,21,1,22,./stim/wavs/andalusian_match_interrogative-partial-wh_Por-que-ama-la-navidad.wav,./stim/wavs/argentine_match_interrogative-partial-wh_Por-que-ama-la-navidad.wav,./stim/wavs/castilian_match_interrogative-partial-wh_Por-que-ama-la-navidad.wav,./stim/wavs/chilean_match_interrogative-partial-wh_Por-que-ama-la-navidad.wav,./stim/wavs/cuban_match_interrogative-partial-wh_Por-que-ama-la-navidad.wav,./stim/wavs/mexican_match_interrogative-partial-wh_Por-que-ama-la-navidad.wav,./stim/wavs/peruvian_match_interrogative-partial-wh_Por-que-ama-la-navidad.wav,./stim/wavs/puertorican_match_interrogative-partial-wh_Por-que-ama-la-navidad.wav,,,,,,,,,,,,,,,,,,,,,,,,,,,,,,,,,,,,,,,,,,,,,,,,,,,,,,,,
,,,,,,,midd12,midd,ma,United States,South,13 or older,yes,2021-03-27_07h06.26.604,empathy_intonation_perc,2020.2.10,MacIntel,60,IwAR3CGx1W9H_3AAxQj16RKLYi-8T5usP3Ur1fqgFzekLUwI3TM-YyK6F8Lxs,,,,,,,,,,1,andalusian,1,1,2.187,0,48,48,31,1,32,./stim/wavs/andalusian_match_interrogative-total-yn_Marta-abre-el-regalo.wav,./stim/wavs/argentine_match_interrogative-total-yn_Marta-abre-el-regalo.wav,./stim/wavs/castilian_match_interrogative-total-yn_Marta-abre-el-regalo.wav,./stim/wavs/chilean_match_interrogative-total-yn_Marta-abre-el-regalo.wav,./stim/wavs/cuban_match_interrogative-total-yn_Marta-abre-el-regalo.wav,./stim/wavs/mexican_match_interrogative-total-yn_Marta-abre-el-regalo.wav,./stim/wavs/peruvian_match_interrogative-total-yn_Marta-abre-el-regalo.wav,./stim/wavs/puertorican_match_interrogative-total-yn_Marta-abre-el-regalo.wav,,,,,,,,,,,,,,,,,,,,,,,,,,,,,,,,,,,,,,,,,,,,,,,,,,,,,,,,
,,,,,,,midd12,midd,ma,United States,South,13 or older,yes,2021-03-27_07h06.26.604,empathy_intonation_perc,2020.2.10,MacIntel,60,IwAR3CGx1W9H_3AAxQj16RKLYi-8T5usP3Ur1fqgFzekLUwI3TM-YyK6F8Lxs,,,,,,,,,,0,chilean,0,1,1.947,0,49,49,5,1,6,./stim/wavs/andalusian_match_declarative-broad-focus_Maria-bebe-el-vino.wav,./stim/wavs/argentine_match_declarative-broad-focus_Maria-bebe-el-vino.wav,./stim/wavs/castilian_match_declarative-broad-focus_Maria-bebe-el-vino.wav,./stim/wavs/chilean_match_declarative-broad-focus_Maria-bebe-el-vino.wav,./stim/wavs/cuban_match_declarative-broad-focus_Maria-bebe-el-vino.wav,./stim/wavs/mexican_match_declarative-broad-focus_Maria-bebe-el-vino.wav,./stim/wavs/peruvian_match_declarative-broad-focus_Maria-bebe-el-vino.wav,./stim/wavs/puertorican_match_declarative-broad-focus_Maria-bebe-el-vino.wav,,,,,,,,,,,,,,,,,,,,,,,,,,,,,,,,,,,,,,,,,,,,,,,,,,,,,,,,
,,,,,,,midd12,midd,ma,United States,South,13 or older,yes,2021-03-27_07h06.26.604,empathy_intonation_perc,2020.2.10,MacIntel,60,IwAR3CGx1W9H_3AAxQj16RKLYi-8T5usP3Ur1fqgFzekLUwI3TM-YyK6F8Lxs,,,,,,,,,,1,andalusian,1,1,2.119,0,50,50,63,1,64,./stim/wavs/andalusian_mismatch_interrogative-total-yn_Mi-tia-odia-la-lluvia.wav,./stim/wavs/argentine_mismatch_interrogative-total-yn_Mi-tia-odia-la-lluvia.wav,./stim/wavs/castilian_mismatch_interrogative-total-yn_Mi-tia-odia-la-lluvia.wav,./stim/wavs/chilean_mismatch_interrogative-total-yn_Mi-tia-odia-la-lluvia.wav,./stim/wavs/cuban_mismatch_interrogative-total-yn_Mi-tia-odia-la-lluvia.wav,./stim/wavs/mexican_mismatch_interrogative-total-yn_Mi-tia-odia-la-lluvia.wav,./stim/wavs/peruvian_mismatch_interrogative-total-yn_Mi-tia-odia-la-lluvia.wav,./stim/wavs/puertorican_mismatch_interrogative-total-yn_Mi-tia-odia-la-lluvia.wav,,,,,,,,,,,,,,,,,,,,,,,,,,,,,,,,,,,,,,,,,,,,,,,,,,,,,,,,
,,,,,,,midd12,midd,ma,United States,South,13 or older,yes,2021-03-27_07h06.26.604,empathy_intonation_perc,2020.2.10,MacIntel,60,IwAR3CGx1W9H_3AAxQj16RKLYi-8T5usP3Ur1fqgFzekLUwI3TM-YyK6F8Lxs,,,,,,,,,,1,andalusian,1,1,2.414,0,51,51,50,1,51,./stim/wavs/andalusian_mismatch_interrogative-partial-wh_Cuando-miraba-la-luna.wav,./stim/wavs/argentine_mismatch_interrogative-partial-wh_Cuando-miraba-la-luna.wav,./stim/wavs/castilian_mismatch_interrogative-partial-wh_Cuando-miraba-la-luna.wav,./stim/wavs/chilean_mismatch_interrogative-partial-wh_Cuando-miraba-la-luna.wav,./stim/wavs/cuban_mismatch_interrogative-partial-wh_Cuando-miraba-la-luna.wav,./stim/wavs/mexican_mismatch_interrogative-partial-wh_Cuando-miraba-la-luna.wav,./stim/wavs/peruvian_mismatch_interrogative-partial-wh_Cuando-miraba-la-luna.wav,./stim/wavs/puertorican_mismatch_interrogative-partial-wh_Cuando-miraba-la-luna.wav,,,,,,,,,,,,,,,,,,,,,,,,,,,,,,,,,,,,,,,,,,,,,,,,,,,,,,,,
,,,,,,,midd12,midd,ma,United States,South,13 or older,yes,2021-03-27_07h06.26.604,empathy_intonation_perc,2020.2.10,MacIntel,60,IwAR3CGx1W9H_3AAxQj16RKLYi-8T5usP3Ur1fqgFzekLUwI3TM-YyK6F8Lxs,,,,,,,,,,0,peruvian,0,1,2.024,0,52,52,34,1,35,./stim/wavs/andalusian_mismatch_declarative-broad-focus_El-nino-oye-el-rio.wav,./stim/wavs/argentine_mismatch_declarative-broad-focus_El-nino-oye-el-rio.wav,./stim/wavs/castilian_mismatch_declarative-broad-focus_El-nino-oye-el-rio.wav,./stim/wavs/chilean_mismatch_declarative-broad-focus_El-nino-oye-el-rio.wav,./stim/wavs/cuban_mismatch_declarative-broad-focus_El-nino-oye-el-rio.wav,./stim/wavs/mexican_mismatch_declarative-broad-focus_El-nino-oye-el-rio.wav,./stim/wavs/peruvian_mismatch_declarative-broad-focus_El-nino-oye-el-rio.wav,./stim/wavs/puertorican_mismatch_declarative-broad-focus_El-nino-oye-el-rio.wav,,,,,,,,,,,,,,,,,,,,,,,,,,,,,,,,,,,,,,,,,,,,,,,,,,,,,,,,
,,,,,,,midd12,midd,ma,United States,South,13 or older,yes,2021-03-27_07h06.26.604,empathy_intonation_perc,2020.2.10,MacIntel,60,IwAR3CGx1W9H_3AAxQj16RKLYi-8T5usP3Ur1fqgFzekLUwI3TM-YyK6F8Lxs,,,,,,,,,,0,castilian,0,1,3.231,0,53,53,40,1,41,./stim/wavs/andalusian_mismatch_declarative-narrow-focus_El-bebe-comia-muy-bien.wav,./stim/wavs/argentine_mismatch_declarative-narrow-focus_El-bebe-comia-muy-bien.wav,./stim/wavs/castilian_mismatch_declarative-narrow-focus_El-bebe-comia-muy-bien.wav,./stim/wavs/chilean_mismatch_declarative-narrow-focus_El-bebe-comia-muy-bien.wav,./stim/wavs/cuban_mismatch_declarative-narrow-focus_El-bebe-comia-muy-bien.wav,./stim/wavs/mexican_mismatch_declarative-narrow-focus_El-bebe-comia-muy-bien.wav,./stim/wavs/peruvian_mismatch_declarative-narrow-focus_El-bebe-comia-muy-bien.wav,./stim/wavs/puertorican_mismatch_declarative-narrow-focus_El-bebe-comia-muy-bien.wav,,,,,,,,,,,,,,,,,,,,,,,,,,,,,,,,,,,,,,,,,,,,,,,,,,,,,,,,
,,,,,,,midd12,midd,ma,United States,South,13 or older,yes,2021-03-27_07h06.26.604,empathy_intonation_perc,2020.2.10,MacIntel,60,IwAR3CGx1W9H_3AAxQj16RKLYi-8T5usP3Ur1fqgFzekLUwI3TM-YyK6F8Lxs,,,,,,,,,,1,mexican,1,1,1.439,0,54,54,17,1,18,./stim/wavs/andalusian_match_interrogative-partial-wh_Cuando-leia-el-libro.wav,./stim/wavs/argentine_match_interrogative-partial-wh_Cuando-leia-el-libro.wav,./stim/wavs/castilian_match_interrogative-partial-wh_Cuando-leia-el-libro.wav,./stim/wavs/chilean_match_interrogative-partial-wh_Cuando-leia-el-libro.wav,./stim/wavs/cuban_match_interrogative-partial-wh_Cuando-leia-el-libro.wav,./stim/wavs/mexican_match_interrogative-partial-wh_Cuando-leia-el-libro.wav,./stim/wavs/peruvian_match_interrogative-partial-wh_Cuando-leia-el-libro.wav,./stim/wavs/puertorican_match_interrogative-partial-wh_Cuando-leia-el-libro.wav,,,,,,,,,,,,,,,,,,,,,,,,,,,,,,,,,,,,,,,,,,,,,,,,,,,,,,,,
,,,,,,,midd12,midd,ma,United States,South,13 or older,yes,2021-03-27_07h06.26.604,empathy_intonation_perc,2020.2.10,MacIntel,60,IwAR3CGx1W9H_3AAxQj16RKLYi-8T5usP3Ur1fqgFzekLUwI3TM-YyK6F8Lxs,,,,,,,,,,1,peruvian,1,1,2.308,0,55,55,54,1,55,./stim/wavs/andalusian_mismatch_interrogative-partial-wh_Por-que-venia-del-lago.wav,./stim/wavs/argentine_mismatch_interrogative-partial-wh_Por-que-venia-del-lago.wav,./stim/wavs/castilian_mismatch_interrogative-partial-wh_Por-que-venia-del-lago.wav,./stim/wavs/chilean_mismatch_interrogative-partial-wh_Por-que-venia-del-lago.wav,./stim/wavs/cuban_mismatch_interrogative-partial-wh_Por-que-venia-del-lago.wav,./stim/wavs/mexican_mismatch_interrogative-partial-wh_Por-que-venia-del-lago.wav,./stim/wavs/peruvian_mismatch_interrogative-partial-wh_Por-que-venia-del-lago.wav,./stim/wavs/puertorican_mismatch_interrogative-partial-wh_Por-que-venia-del-lago.wav,,,,,,,,,,,,,,,,,,,,,,,,,,,,,,,,,,,,,,,,,,,,,,,,,,,,,,,,
,,,,,,,midd12,midd,ma,United States,South,13 or older,yes,2021-03-27_07h06.26.604,empathy_intonation_perc,2020.2.10,MacIntel,60,IwAR3CGx1W9H_3AAxQj16RKLYi-8T5usP3Ur1fqgFzekLUwI3TM-YyK6F8Lxs,,,,,,,,,,1,argentine,1,1,1.357,0,56,56,55,1,56,./stim/wavs/andalusian_mismatch_interrogative-partial-wh_Por-que-vivia-en-Paris.wav,./stim/wavs/argentine_mismatch_interrogative-partial-wh_Por-que-vivia-en-Paris.wav,./stim/wavs/castilian_mismatch_interrogative-partial-wh_Por-que-vivia-en-Paris.wav,./stim/wavs/chilean_mismatch_interrogative-partial-wh_Por-que-vivia-en-Paris.wav,./stim/wavs/cuban_mismatch_interrogative-partial-wh_Por-que-vivia-en-Paris.wav,./stim/wavs/mexican_mismatch_interrogative-partial-wh_Por-que-vivia-en-Paris.wav,./stim/wavs/peruvian_mismatch_interrogative-partial-wh_Por-que-vivia-en-Paris.wav,./stim/wavs/puertorican_mismatch_interrogative-partial-wh_Por-que-vivia-en-Paris.wav,,,,,,,,,,,,,,,,,,,,,,,,,,,,,,,,,,,,,,,,,,,,,,,,,,,,,,,,
,,,,,,,midd12,midd,ma,United States,South,13 or older,yes,2021-03-27_07h06.26.604,empathy_intonation_perc,2020.2.10,MacIntel,60,IwAR3CGx1W9H_3AAxQj16RKLYi-8T5usP3Ur1fqgFzekLUwI3TM-YyK6F8Lxs,,,,,,,,,,1,mexican,1,1,2.11,0,57,57,28,1,29,./stim/wavs/andalusian_match_interrogative-total-yn_Manuela-vende-el-carro.wav,./stim/wavs/argentine_match_interrogative-total-yn_Manuela-vende-el-carro.wav,./stim/wavs/castilian_match_interrogative-total-yn_Manuela-vende-el-carro.wav,./stim/wavs/chilean_match_interrogative-total-yn_Manuela-vende-el-carro.wav,./stim/wavs/cuban_match_interrogative-total-yn_Manuela-vende-el-carro.wav,./stim/wavs/mexican_match_interrogative-total-yn_Manuela-vende-el-carro.wav,./stim/wavs/peruvian_match_interrogative-total-yn_Manuela-vende-el-carro.wav,./stim/wavs/puertorican_match_interrogative-total-yn_Manuela-vende-el-carro.wav,,,,,,,,,,,,,,,,,,,,,,,,,,,,,,,,,,,,,,,,,,,,,,,,,,,,,,,,
,,,,,,,midd12,midd,ma,United States,South,13 or older,yes,2021-03-27_07h06.26.604,empathy_intonation_perc,2020.2.10,MacIntel,60,IwAR3CGx1W9H_3AAxQj16RKLYi-8T5usP3Ur1fqgFzekLUwI3TM-YyK6F8Lxs,,,,,,,,,,0,castilian,0,1,2.55,0,58,58,10,1,11,./stim/wavs/andalusian_match_declarative-narrow-focus_David-leia-el-libro.wav,./stim/wavs/argentine_match_declarative-narrow-focus_David-leia-el-libro.wav,./stim/wavs/castilian_match_declarative-narrow-focus_David-leia-el-libro.wav,./stim/wavs/chilean_match_declarative-narrow-focus_David-leia-el-libro.wav,./stim/wavs/cuban_match_declarative-narrow-focus_David-leia-el-libro.wav,./stim/wavs/mexican_match_declarative-narrow-focus_David-leia-el-libro.wav,./stim/wavs/peruvian_match_declarative-narrow-focus_David-leia-el-libro.wav,./stim/wavs/puertorican_match_declarative-narrow-focus_David-leia-el-libro.wav,,,,,,,,,,,,,,,,,,,,,,,,,,,,,,,,,,,,,,,,,,,,,,,,,,,,,,,,
,,,,,,,midd12,midd,ma,United States,South,13 or older,yes,2021-03-27_07h06.26.604,empathy_intonation_perc,2020.2.10,MacIntel,60,IwAR3CGx1W9H_3AAxQj16RKLYi-8T5usP3Ur1fqgFzekLUwI3TM-YyK6F8Lxs,,,,,,,,,,1,chilean,1,1,1.481,0,59,59,16,1,17,./stim/wavs/andalusian_match_interrogative-partial-wh_Cuando-bebia-el-vino.wav,./stim/wavs/argentine_match_interrogative-partial-wh_Cuando-bebia-el-vino.wav,./stim/wavs/castilian_match_interrogative-partial-wh_Cuando-bebia-el-vino.wav,./stim/wavs/chilean_match_interrogative-partial-wh_Cuando-bebia-el-vino.wav,./stim/wavs/cuban_match_interrogative-partial-wh_Cuando-bebia-el-vino.wav,./stim/wavs/mexican_match_interrogative-partial-wh_Cuando-bebia-el-vino.wav,./stim/wavs/peruvian_match_interrogative-partial-wh_Cuando-bebia-el-vino.wav,./stim/wavs/puertorican_match_interrogative-partial-wh_Cuando-bebia-el-vino.wav,,,,,,,,,,,,,,,,,,,,,,,,,,,,,,,,,,,,,,,,,,,,,,,,,,,,,,,,
,,,,,,,midd12,midd,ma,United States,South,13 or older,yes,2021-03-27_07h06.26.604,empathy_intonation_perc,2020.2.10,MacIntel,60,IwAR3CGx1W9H_3AAxQj16RKLYi-8T5usP3Ur1fqgFzekLUwI3TM-YyK6F8Lxs,,,,,,,,,,1,mexican,1,1,1.932,0,60,60,51,1,52,./stim/wavs/andalusian_mismatch_interrogative-partial-wh_Por-que-desayuna-muy-bien.wav,./stim/wavs/argentine_mismatch_interrogative-partial-wh_Por-que-desayuna-muy-bien.wav,./stim/wavs/castilian_mismatch_interrogative-partial-wh_Por-que-desayuna-muy-bien.wav,./stim/wavs/chilean_mismatch_interrogative-partial-wh_Por-que-desayuna-muy-bien.wav,./stim/wavs/cuban_mismatch_interrogative-partial-wh_Por-que-desayuna-muy-bien.wav,./stim/wavs/mexican_mismatch_interrogative-partial-wh_Por-que-desayuna-muy-bien.wav,./stim/wavs/peruvian_mismatch_interrogative-partial-wh_Por-que-desayuna-muy-bien.wav,./stim/wavs/puertorican_mismatch_interrogative-partial-wh_Por-que-desayuna-muy-bien.wav,,,,,,,,,,,,,,,,,,,,,,,,,,,,,,,,,,,,,,,,,,,,,,,,,,,,,,,,
,,,,,,,midd12,midd,ma,United States,South,13 or older,yes,2021-03-27_07h06.26.604,empathy_intonation_perc,2020.2.10,MacIntel,60,IwAR3CGx1W9H_3AAxQj16RKLYi-8T5usP3Ur1fqgFzekLUwI3TM-YyK6F8Lxs,,,,,,,,,,0,cuban,0,1,3.416,0,61,61,2,1,3,./stim/wavs/andalusian_match_declarative-broad-focus_David-leia-el-libro.wav,./stim/wavs/argentine_match_declarative-broad-focus_David-leia-el-libro.wav,./stim/wavs/castilian_match_declarative-broad-focus_David-leia-el-libro.wav,./stim/wavs/chilean_match_declarative-broad-focus_David-leia-el-libro.wav,./stim/wavs/cuban_match_declarative-broad-focus_David-leia-el-libro.wav,./stim/wavs/mexican_match_declarative-broad-focus_David-leia-el-libro.wav,./stim/wavs/peruvian_match_declarative-broad-focus_David-leia-el-libro.wav,./stim/wavs/puertorican_match_declarative-broad-focus_David-leia-el-libro.wav,,,,,,,,,,,,,,,,,,,,,,,,,,,,,,,,,,,,,,,,,,,,,,,,,,,,,,,,
,,,,,,,midd12,midd,ma,United States,South,13 or older,yes,2021-03-27_07h06.26.604,empathy_intonation_perc,2020.2.10,MacIntel,60,IwAR3CGx1W9H_3AAxQj16RKLYi-8T5usP3Ur1fqgFzekLUwI3TM-YyK6F8Lxs,,,,,,,,,,0,chilean,0,1,2.905,0,62,62,4,1,5,./stim/wavs/andalusian_match_declarative-broad-focus_Manuela-vende-el-carro.wav,./stim/wavs/argentine_match_declarative-broad-focus_Manuela-vende-el-carro.wav,./stim/wavs/castilian_match_declarative-broad-focus_Manuela-vende-el-carro.wav,./stim/wavs/chilean_match_declarative-broad-focus_Manuela-vende-el-carro.wav,./stim/wavs/cuban_match_declarative-broad-focus_Manuela-vende-el-carro.wav,./stim/wavs/mexican_match_declarative-broad-focus_Manuela-vende-el-carro.wav,./stim/wavs/peruvian_match_declarative-broad-focus_Manuela-vende-el-carro.wav,./stim/wavs/puertorican_match_declarative-broad-focus_Manuela-vende-el-carro.wav,,,,,,,,,,,,,,,,,,,,,,,,,,,,,,,,,,,,,,,,,,,,,,,,,,,,,,,,
,,,,,,,midd12,midd,ma,United States,South,13 or older,yes,2021-03-27_07h06.26.604,empathy_intonation_perc,2020.2.10,MacIntel,60,IwAR3CGx1W9H_3AAxQj16RKLYi-8T5usP3Ur1fqgFzekLUwI3TM-YyK6F8Lxs,,,,,,,,,,1,puertorican,0,0,3.244,0,63,63,25,1,26,./stim/wavs/andalusian_match_interrogative-total-yn_Daniel-iba-a-Bolivia.wav,./stim/wavs/argentine_match_interrogative-total-yn_Daniel-iba-a-Bolivia.wav,./stim/wavs/castilian_match_interrogative-total-yn_Daniel-iba-a-Bolivia.wav,./stim/wavs/chilean_match_interrogative-total-yn_Daniel-iba-a-Bolivia.wav,./stim/wavs/cuban_match_interrogative-total-yn_Daniel-iba-a-Bolivia.wav,./stim/wavs/mexican_match_interrogative-total-yn_Daniel-iba-a-Bolivia.wav,./stim/wavs/peruvian_match_interrogative-total-yn_Daniel-iba-a-Bolivia.wav,./stim/wavs/puertorican_match_interrogative-total-yn_Daniel-iba-a-Bolivia.wav,,,,,,,,,,,,,,,,,,,,,,,,,,,,,,,,,,,,,,,,,,,,,,,,,,,,,,,,
,,,,,,,midd12,midd,ma,United States,South,13 or older,yes,2021-03-27_07h06.26.604,empathy_intonation_perc,2020.2.10,MacIntel,60,IwAR3CGx1W9H_3AAxQj16RKLYi-8T5usP3Ur1fqgFzekLUwI3TM-YyK6F8Lxs,,,,,,,,,,,,,,,,,,,,,,,,,,,,,h,1,6.333,0,0,0,0,1,,,,,,,,,,,,,,,,,,,,,,,,,,,,,,,,,,,,,,,,,,,,,,,,
,,,,,"Great! Now we will move on. The next task consists of about 60 trials, in each of which you will see a string of letters. 
  
  Your task is to decide whether this is a real Spanish word or not.",(press the spacebar to continue),midd12,midd,ma,United States,South,13 or older,yes,2021-03-27_07h06.26.604,empathy_intonation_perc,2020.2.10,MacIntel,60,IwAR3CGx1W9H_3AAxQj16RKLYi-8T5usP3Ur1fqgFzekLUwI3TM-YyK6F8Lxs,,,,,,,,,,,,,,,,,,,,,,,,,,,,,,,,,,,,,0,0,0,0,1,,,,,,,,,,,,,,,,,,,,,,,,,,,,,,,,,,,,,,,,,,,
,,,,,"If you think it is an existing Spanish word, you type '1' (for 'REAL'), and if you think it is not an existing Spanish word, you type '0' (for 'FAKE').",(press the spacebar to continue),midd12,midd,ma,United States,South,13 or older,yes,2021-03-27_07h06.26.604,empathy_intonation_perc,2020.2.10,MacIntel,60,IwAR3CGx1W9H_3AAxQj16RKLYi-8T5usP3Ur1fqgFzekLUwI3TM-YyK6F8Lxs,,,,,,,,,,,,,,,,,,,,,,,,,,,,,,,,,,,,,0,1,1,1,1,,,,,,,,,,,,,,,,,,,,,,,,,,,,,,,,,,,,,,,,,,,
,,,,,"If you are sure that the word exists, even though you dont know its exact meaning, you may still respond '1' (REAL). 
  
  But if you are not sure if it is an existing word, you should respond '0' (FAKE).
  
  Let's do a practice round...",(press the spacebar to continue),midd12,midd,ma,United States,South,13 or older,yes,2021-03-27_07h06.26.604,empathy_intonation_perc,2020.2.10,MacIntel,60,IwAR3CGx1W9H_3AAxQj16RKLYi-8T5usP3Ur1fqgFzekLUwI3TM-YyK6F8Lxs,,,,,,,,,,,,,,,,,,,,,,,,,,,,,,,,,,,,,0,2,2,2,1,,,,,,,,,,,,,,,,,,,,,,,,,,,,,,,,,,,,,,,,,,,
,,,,,,,midd12,midd,ma,United States,South,13 or older,yes,2021-03-27_07h06.26.604,empathy_intonation_perc,2020.2.10,MacIntel,60,IwAR3CGx1W9H_3AAxQj16RKLYi-8T5usP3Ur1fqgFzekLUwI3TM-YyK6F8Lxs,,,,,,,,,,0,,,,,,,,,,,,,,,,,,,,,,,,,,,,,,,,0,1,2.455,0,0,0,0,1,0,depiste,REAL,FAKE,,,,,,,,,,,,,,,,,,,,,,,,,,,,,,,
,,,,,,,midd12,midd,ma,United States,South,13 or older,yes,2021-03-27_07h06.26.604,empathy_intonation_perc,2020.2.10,MacIntel,60,IwAR3CGx1W9H_3AAxQj16RKLYi-8T5usP3Ur1fqgFzekLUwI3TM-YyK6F8Lxs,,,,,,,,,,1,,,,,,,,,,,,,,,,,,,,,,,,,,,,,,,,1,1,1.381,0,1,1,1,1,0,s,REAL,FAKE,,,,,,,,,,,,,,,,,,,,,,,,,,,,,,,
,,,,,,,midd12,midd,ma,United States,South,13 or older,yes,2021-03-27_07h06.26.604,empathy_intonation_perc,2020.2.10,MacIntel,60,IwAR3CGx1W9H_3AAxQj16RKLYi-8T5usP3Ur1fqgFzekLUwI3TM-YyK6F8Lxs,,,,,,,,,,0,,,,,,,,,,,,,,,,,,,,,,,,,,,,,,,,0,1,2.219,0,2,2,2,1,0,con,REAL,FAKE,,,,,,,,,,,,,,,,,,,,,,,,,,,,,,,
,,,,,,,midd12,midd,ma,United States,South,13 or older,yes,2021-03-27_07h06.26.604,empathy_intonation_perc,2020.2.10,MacIntel,60,IwAR3CGx1W9H_3AAxQj16RKLYi-8T5usP3Ur1fqgFzekLUwI3TM-YyK6F8Lxs,,,,,,,,,,0,,,,,,,,,,,,,,,,,,,,,,,,,,,,,,,,0,1,1.112,0,3,3,3,1,0,calpar,REAL,FAKE,,,,,,,,,,,,,,,,,,,,,,,,,,,,,,,
,,,,,,,midd12,midd,ma,United States,South,13 or older,yes,2021-03-27_07h06.26.604,empathy_intonation_perc,2020.2.10,MacIntel,60,IwAR3CGx1W9H_3AAxQj16RKLYi-8T5usP3Ur1fqgFzekLUwI3TM-YyK6F8Lxs,,,,,,,,,,0,,,,,,,,,,,,,,,,,,,,,,,,,,,,,,,,0,1,0.944,0,4,4,4,1,0,joten,REAL,FAKE,,,,,,,,,,,,,,,,,,,,,,,,,,,,,,,
,,,,,,,midd12,midd,ma,United States,South,13 or older,yes,2021-03-27_07h06.26.604,empathy_intonation_perc,2020.2.10,MacIntel,60,IwAR3CGx1W9H_3AAxQj16RKLYi-8T5usP3Ur1fqgFzekLUwI3TM-YyK6F8Lxs,,,,,,,,,,1,,,,,,,,,,,,,,,,,,,,,,,,,,,,,,,,1,1,1.072,0,5,5,5,1,0,sacapuntas,REAL,FAKE,,,,,,,,,,,,,,,,,,,,,,,,,,,,,,,
,,,,,,,midd12,midd,ma,United States,South,13 or older,yes,2021-03-27_07h06.26.604,empathy_intonation_perc,2020.2.10,MacIntel,60,IwAR3CGx1W9H_3AAxQj16RKLYi-8T5usP3Ur1fqgFzekLUwI3TM-YyK6F8Lxs,,,,,,,,,,0,,,,,,,,,,,,,,,,,,,,,,,,,,,,,,,,0,1,1.263,0,6,6,6,1,0,priba,REAL,FAKE,,,,,,,,,,,,,,,,,,,,,,,,,,,,,,,
,,,,,,,midd12,midd,ma,United States,South,13 or older,yes,2021-03-27_07h06.26.604,empathy_intonation_perc,2020.2.10,MacIntel,60,IwAR3CGx1W9H_3AAxQj16RKLYi-8T5usP3Ur1fqgFzekLUwI3TM-YyK6F8Lxs,,,,,,,,,,0,,,,,,,,,,,,,,,,,,,,,,,,,,,,,,,,0,1,1.755,0,7,7,7,1,0,pelasula,REAL,FAKE,,,,,,,,,,,,,,,,,,,,,,,,,,,,,,,
,,,,,,,midd12,midd,ma,United States,South,13 or older,yes,2021-03-27_07h06.26.604,empathy_intonation_perc,2020.2.10,MacIntel,60,IwAR3CGx1W9H_3AAxQj16RKLYi-8T5usP3Ur1fqgFzekLUwI3TM-YyK6F8Lxs,,,,,,,,,,1,,,,,,,,,,,,,,,,,,,,,,,,,,,,,,,,1,1,0.819,0,8,8,8,1,0,bien,REAL,FAKE,,,,,,,,,,,,,,,,,,,,,,,,,,,,,,,
,,,,,,,midd12,midd,ma,United States,South,13 or older,yes,2021-03-27_07h06.26.604,empathy_intonation_perc,2020.2.10,MacIntel,60,IwAR3CGx1W9H_3AAxQj16RKLYi-8T5usP3Ur1fqgFzekLUwI3TM-YyK6F8Lxs,,,,,,,,,,1,,,,,,,,,,,,,,,,,,,,,,,,,,,,,,,,1,1,1.041,0,9,9,9,1,0,casa,REAL,FAKE,,,,,,,,,,,,,,,,,,,,,,,,,,,,,,,
,,,,,,,midd12,midd,ma,United States,South,13 or older,yes,2021-03-27_07h06.26.604,empathy_intonation_perc,2020.2.10,MacIntel,60,IwAR3CGx1W9H_3AAxQj16RKLYi-8T5usP3Ur1fqgFzekLUwI3TM-YyK6F8Lxs,,,,,,,,,,0,,,,,,,,,,,,,,,,,,,,,,,,,,,,,,,,0,1,1.478,0,10,10,10,1,0,lejo,REAL,FAKE,,,,,,,,,,,,,,,,,,,,,,,,,,,,,,,
,,,,,,,midd12,midd,ma,United States,South,13 or older,yes,2021-03-27_07h06.26.604,empathy_intonation_perc,2020.2.10,MacIntel,60,IwAR3CGx1W9H_3AAxQj16RKLYi-8T5usP3Ur1fqgFzekLUwI3TM-YyK6F8Lxs,,,,,,,,,,0,,,,,,,,,,,,,,,,,,,,,,,,,,,,,,,,0,1,1.858,0,11,11,11,1,0,pretantas,REAL,FAKE,,,,,,,,,,,,,,,,,,,,,,,,,,,,,,,
,,,,,,,midd12,midd,ma,United States,South,13 or older,yes,2021-03-27_07h06.26.604,empathy_intonation_perc,2020.2.10,MacIntel,60,IwAR3CGx1W9H_3AAxQj16RKLYi-8T5usP3Ur1fqgFzekLUwI3TM-YyK6F8Lxs,,,,,,,,,,1,,,,,,,,,,,,,,,,,,,,,,,,,,,,,,,,,,,,,,,,31,pandilla,,,1,1,1.476,0,0,0,30,1,REAL,FAKE,,,,,,,,,,,,,,,,,,,,,
,,,,,,,midd12,midd,ma,United States,South,13 or older,yes,2021-03-27_07h06.26.604,empathy_intonation_perc,2020.2.10,MacIntel,60,IwAR3CGx1W9H_3AAxQj16RKLYi-8T5usP3Ur1fqgFzekLUwI3TM-YyK6F8Lxs,,,,,,,,,,1,,,,,,,,,,,,,,,,,,,,,,,,,,,,,,,,,,,,,,,,44,cuchara,,,1,1,2.296,0,1,1,43,1,REAL,FAKE,,,,,,,,,,,,,,,,,,,,,
,,,,,,,midd12,midd,ma,United States,South,13 or older,yes,2021-03-27_07h06.26.604,empathy_intonation_perc,2020.2.10,MacIntel,60,IwAR3CGx1W9H_3AAxQj16RKLYi-8T5usP3Ur1fqgFzekLUwI3TM-YyK6F8Lxs,,,,,,,,,,1,,,,,,,,,,,,,,,,,,,,,,,,,,,,,,,,,,,,,,,,52,camisa,,,1,1,0.973,0,2,2,51,1,REAL,FAKE,,,,,,,,,,,,,,,,,,,,,
,,,,,,,midd12,midd,ma,United States,South,13 or older,yes,2021-03-27_07h06.26.604,empathy_intonation_perc,2020.2.10,MacIntel,60,IwAR3CGx1W9H_3AAxQj16RKLYi-8T5usP3Ur1fqgFzekLUwI3TM-YyK6F8Lxs,,,,,,,,,,0,,,,,,,,,,,,,,,,,,,,,,,,,,,,,,,,,,,,,,,,84,escuto,,,0,1,2.408,0,3,3,83,1,REAL,FAKE,,,,,,,,,,,,,,,,,,,,,
,,,,,,,midd12,midd,ma,United States,South,13 or older,yes,2021-03-27_07h06.26.604,empathy_intonation_perc,2020.2.10,MacIntel,60,IwAR3CGx1W9H_3AAxQj16RKLYi-8T5usP3Ur1fqgFzekLUwI3TM-YyK6F8Lxs,,,,,,,,,,1,,,,,,,,,,,,,,,,,,,,,,,,,,,,,,,,,,,,,,,,43,canela,,,1,1,1.096,0,4,4,42,1,REAL,FAKE,,,,,,,,,,,,,,,,,,,,,
,,,,,,,midd12,midd,ma,United States,South,13 or older,yes,2021-03-27_07h06.26.604,empathy_intonation_perc,2020.2.10,MacIntel,60,IwAR3CGx1W9H_3AAxQj16RKLYi-8T5usP3Ur1fqgFzekLUwI3TM-YyK6F8Lxs,,,,,,,,,,1,,,,,,,,,,,,,,,,,,,,,,,,,,,,,,,,,,,,,,,,6,tergiversar,,,1,1,2.992,0,5,5,5,1,REAL,FAKE,,,,,,,,,,,,,,,,,,,,,
,,,,,,,midd12,midd,ma,United States,South,13 or older,yes,2021-03-27_07h06.26.604,empathy_intonation_perc,2020.2.10,MacIntel,60,IwAR3CGx1W9H_3AAxQj16RKLYi-8T5usP3Ur1fqgFzekLUwI3TM-YyK6F8Lxs,,,,,,,,,,1,,,,,,,,,,,,,,,,,,,,,,,,,,,,,,,,,,,,,,,,26,secuestro,,,1,1,0.946,0,6,6,25,1,REAL,FAKE,,,,,,,,,,,,,,,,,,,,,
,,,,,,,midd12,midd,ma,United States,South,13 or older,yes,2021-03-27_07h06.26.604,empathy_intonation_perc,2020.2.10,MacIntel,60,IwAR3CGx1W9H_3AAxQj16RKLYi-8T5usP3Ur1fqgFzekLUwI3TM-YyK6F8Lxs,,,,,,,,,,0,,,,,,,,,,,,,,,,,,,,,,,,,,,,,,,,,,,,,,,,30,alardio,,,0,1,1.178,0,7,7,29,1,REAL,FAKE,,,,,,,,,,,,,,,,,,,,,
,,,,,,,midd12,midd,ma,United States,South,13 or older,yes,2021-03-27_07h06.26.604,empathy_intonation_perc,2020.2.10,MacIntel,60,IwAR3CGx1W9H_3AAxQj16RKLYi-8T5usP3Ur1fqgFzekLUwI3TM-YyK6F8Lxs,,,,,,,,,,1,,,,,,,,,,,,,,,,,,,,,,,,,,,,,,,,,,,,,,,,22,lacayo,,,0,0,0.814,0,8,8,21,1,REAL,FAKE,,,,,,,,,,,,,,,,,,,,,
,,,,,,,midd12,midd,ma,United States,South,13 or older,yes,2021-03-27_07h06.26.604,empathy_intonation_perc,2020.2.10,MacIntel,60,IwAR3CGx1W9H_3AAxQj16RKLYi-8T5usP3Ur1fqgFzekLUwI3TM-YyK6F8Lxs,,,,,,,,,,1,,,,,,,,,,,,,,,,,,,,,,,,,,,,,,,,,,,,,,,,41,rebuscar,,,0,0,2.17,0,9,9,40,1,REAL,FAKE,,,,,,,,,,,,,,,,,,,,,
,,,,,,,midd12,midd,ma,United States,South,13 or older,yes,2021-03-27_07h06.26.604,empathy_intonation_perc,2020.2.10,MacIntel,60,IwAR3CGx1W9H_3AAxQj16RKLYi-8T5usP3Ur1fqgFzekLUwI3TM-YyK6F8Lxs,,,,,,,,,,0,,,,,,,,,,,,,,,,,,,,,,,,,,,,,,,,,,,,,,,,58,plaudir,,,0,1,1.722,0,10,10,57,1,REAL,FAKE,,,,,,,,,,,,,,,,,,,,,
,,,,,,,midd12,midd,ma,United States,South,13 or older,yes,2021-03-27_07h06.26.604,empathy_intonation_perc,2020.2.10,MacIntel,60,IwAR3CGx1W9H_3AAxQj16RKLYi-8T5usP3Ur1fqgFzekLUwI3TM-YyK6F8Lxs,,,,,,,,,,0,,,,,,,,,,,,,,,,,,,,,,,,,,,,,,,,,,,,,,,,17,floroso,,,1,0,3.283,0,11,11,16,1,REAL,FAKE,,,,,,,,,,,,,,,,,,,,,
,,,,,,,midd12,midd,ma,United States,South,13 or older,yes,2021-03-27_07h06.26.604,empathy_intonation_perc,2020.2.10,MacIntel,60,IwAR3CGx1W9H_3AAxQj16RKLYi-8T5usP3Ur1fqgFzekLUwI3TM-YyK6F8Lxs,,,,,,,,,,0,,,,,,,,,,,,,,,,,,,,,,,,,,,,,,,,,,,,,,,,70,temblo,,,1,0,1.9,0,12,12,69,1,REAL,FAKE,,,,,,,,,,,,,,,,,,,,,
,,,,,,,midd12,midd,ma,United States,South,13 or older,yes,2021-03-27_07h06.26.604,empathy_intonation_perc,2020.2.10,MacIntel,60,IwAR3CGx1W9H_3AAxQj16RKLYi-8T5usP3Ur1fqgFzekLUwI3TM-YyK6F8Lxs,,,,,,,,,,1,,,,,,,,,,,,,,,,,,,,,,,,,,,,,,,,,,,,,,,,28,merodear,,,0,0,1.597,0,13,13,27,1,REAL,FAKE,,,,,,,,,,,,,,,,,,,,,
,,,,,,,midd12,midd,ma,United States,South,13 or older,yes,2021-03-27_07h06.26.604,empathy_intonation_perc,2020.2.10,MacIntel,60,IwAR3CGx1W9H_3AAxQj16RKLYi-8T5usP3Ur1fqgFzekLUwI3TM-YyK6F8Lxs,,,,,,,,,,1,,,,,,,,,,,,,,,,,,,,,,,,,,,,,,,,,,,,,,,,86,barato,,,1,1,0.887,0,14,14,85,1,REAL,FAKE,,,,,,,,,,,,,,,,,,,,,
,,,,,,,midd12,midd,ma,United States,South,13 or older,yes,2021-03-27_07h06.26.604,empathy_intonation_perc,2020.2.10,MacIntel,60,IwAR3CGx1W9H_3AAxQj16RKLYi-8T5usP3Ur1fqgFzekLUwI3TM-YyK6F8Lxs,,,,,,,,,,1,,,,,,,,,,,,,,,,,,,,,,,,,,,,,,,,,,,,,,,,69,engatusar,,,0,0,1.935,0,15,15,68,1,REAL,FAKE,,,,,,,,,,,,,,,,,,,,,
,,,,,,,midd12,midd,ma,United States,South,13 or older,yes,2021-03-27_07h06.26.604,empathy_intonation_perc,2020.2.10,MacIntel,60,IwAR3CGx1W9H_3AAxQj16RKLYi-8T5usP3Ur1fqgFzekLUwI3TM-YyK6F8Lxs,,,,,,,,,,1,,,,,,,,,,,,,,,,,,,,,,,,,,,,,,,,,,,,,,,,48,ladrn,,,1,1,0.973,0,16,16,47,1,REAL,FAKE,,,,,,,,,,,,,,,,,,,,,
,,,,,,,midd12,midd,ma,United States,South,13 or older,yes,2021-03-27_07h06.26.604,empathy_intonation_perc,2020.2.10,MacIntel,60,IwAR3CGx1W9H_3AAxQj16RKLYi-8T5usP3Ur1fqgFzekLUwI3TM-YyK6F8Lxs,,,,,,,,,,1,,,,,,,,,,,,,,,,,,,,,,,,,,,,,,,,,,,,,,,,83,guante,,,1,1,3.948,0,17,17,82,1,REAL,FAKE,,,,,,,,,,,,,,,,,,,,,
,,,,,,,midd12,midd,ma,United States,South,13 or older,yes,2021-03-27_07h06.26.604,empathy_intonation_perc,2020.2.10,MacIntel,60,IwAR3CGx1W9H_3AAxQj16RKLYi-8T5usP3Ur1fqgFzekLUwI3TM-YyK6F8Lxs,,,,,,,,,,0,,,,,,,,,,,,,,,,,,,,,,,,,,,,,,,,,,,,,,,,82,empirador,,,0,1,1.074,0,18,18,81,1,REAL,FAKE,,,,,,,,,,,,,,,,,,,,,
,,,,,,,midd12,midd,ma,United States,South,13 or older,yes,2021-03-27_07h06.26.604,empathy_intonation_perc,2020.2.10,MacIntel,60,IwAR3CGx1W9H_3AAxQj16RKLYi-8T5usP3Ur1fqgFzekLUwI3TM-YyK6F8Lxs,,,,,,,,,,1,,,,,,,,,,,,,,,,,,,,,,,,,,,,,,,,,,,,,,,,11,cenefa,,,0,0,1.009,0,19,19,10,1,REAL,FAKE,,,,,,,,,,,,,,,,,,,,,
,,,,,,,midd12,midd,ma,United States,South,13 or older,yes,2021-03-27_07h06.26.604,empathy_intonation_perc,2020.2.10,MacIntel,60,IwAR3CGx1W9H_3AAxQj16RKLYi-8T5usP3Ur1fqgFzekLUwI3TM-YyK6F8Lxs,,,,,,,,,,1,,,,,,,,,,,,,,,,,,,,,,,,,,,,,,,,,,,,,,,,37,granuja,,,0,0,1.766,0,20,20,36,1,REAL,FAKE,,,,,,,,,,,,,,,,,,,,,
,,,,,,,midd12,midd,ma,United States,South,13 or older,yes,2021-03-27_07h06.26.604,empathy_intonation_perc,2020.2.10,MacIntel,60,IwAR3CGx1W9H_3AAxQj16RKLYi-8T5usP3Ur1fqgFzekLUwI3TM-YyK6F8Lxs,,,,,,,,,,1,,,,,,,,,,,,,,,,,,,,,,,,,,,,,,,,,,,,,,,,7,psimo,,,1,1,0.87,0,21,21,6,1,REAL,FAKE,,,,,,,,,,,,,,,,,,,,,
,,,,,,,midd12,midd,ma,United States,South,13 or older,yes,2021-03-27_07h06.26.604,empathy_intonation_perc,2020.2.10,MacIntel,60,IwAR3CGx1W9H_3AAxQj16RKLYi-8T5usP3Ur1fqgFzekLUwI3TM-YyK6F8Lxs,,,,,,,,,,1,,,,,,,,,,,,,,,,,,,,,,,,,,,,,,,,,,,,,,,,68,alegre,,,1,1,0.742,0,22,22,67,1,REAL,FAKE,,,,,,,,,,,,,,,,,,,,,
,,,,,,,midd12,midd,ma,United States,South,13 or older,yes,2021-03-27_07h06.26.604,empathy_intonation_perc,2020.2.10,MacIntel,60,IwAR3CGx1W9H_3AAxQj16RKLYi-8T5usP3Ur1fqgFzekLUwI3TM-YyK6F8Lxs,,,,,,,,,,1,,,,,,,,,,,,,,,,,,,,,,,,,,,,,,,,,,,,,,,,62,flaco,,,1,1,0.779,0,23,23,61,1,REAL,FAKE,,,,,,,,,,,,,,,,,,,,,
,,,,,,,midd12,midd,ma,United States,South,13 or older,yes,2021-03-27_07h06.26.604,empathy_intonation_perc,2020.2.10,MacIntel,60,IwAR3CGx1W9H_3AAxQj16RKLYi-8T5usP3Ur1fqgFzekLUwI3TM-YyK6F8Lxs,,,,,,,,,,1,,,,,,,,,,,,,,,,,,,,,,,,,,,,,,,,,,,,,,,,24,ltigo,,,1,1,3.589,0,24,24,23,1,REAL,FAKE,,,,,,,,,,,,,,,,,,,,,
,,,,,,,midd12,midd,ma,United States,South,13 or older,yes,2021-03-27_07h06.26.604,empathy_intonation_perc,2020.2.10,MacIntel,60,IwAR3CGx1W9H_3AAxQj16RKLYi-8T5usP3Ur1fqgFzekLUwI3TM-YyK6F8Lxs,,,,,,,,,,1,,,,,,,,,,,,,,,,,,,,,,,,,,,,,,,,,,,,,,,,39,torpe,,,1,1,0.92,0,25,25,38,1,REAL,FAKE,,,,,,,,,,,,,,,,,,,,,
,,,,,,,midd12,midd,ma,United States,South,13 or older,yes,2021-03-27_07h06.26.604,empathy_intonation_perc,2020.2.10,MacIntel,60,IwAR3CGx1W9H_3AAxQj16RKLYi-8T5usP3Ur1fqgFzekLUwI3TM-YyK6F8Lxs,,,,,,,,,,0,,,,,,,,,,,,,,,,,,,,,,,,,,,,,,,,,,,,,,,,79,tropaje,,,0,1,1.001,0,26,26,78,1,REAL,FAKE,,,,,,,,,,,,,,,,,,,,,
,,,,,,,midd12,midd,ma,United States,South,13 or older,yes,2021-03-27_07h06.26.604,empathy_intonation_perc,2020.2.10,MacIntel,60,IwAR3CGx1W9H_3AAxQj16RKLYi-8T5usP3Ur1fqgFzekLUwI3TM-YyK6F8Lxs,,,,,,,,,,0,,,,,,,,,,,,,,,,,,,,,,,,,,,,,,,,,,,,,,,,10,antar,,,0,1,0.92,0,27,27,9,1,REAL,FAKE,,,,,,,,,,,,,,,,,,,,,
,,,,,,,midd12,midd,ma,United States,South,13 or older,yes,2021-03-27_07h06.26.604,empathy_intonation_perc,2020.2.10,MacIntel,60,IwAR3CGx1W9H_3AAxQj16RKLYi-8T5usP3Ur1fqgFzekLUwI3TM-YyK6F8Lxs,,,,,,,,,,1,,,,,,,,,,,,,,,,,,,,,,,,,,,,,,,,,,,,,,,,80,hormiga,,,1,1,0.882,0,28,28,79,1,REAL,FAKE,,,,,,,,,,,,,,,,,,,,,
,,,,,,,midd12,midd,ma,United States,South,13 or older,yes,2021-03-27_07h06.26.604,empathy_intonation_perc,2020.2.10,MacIntel,60,IwAR3CGx1W9H_3AAxQj16RKLYi-8T5usP3Ur1fqgFzekLUwI3TM-YyK6F8Lxs,,,,,,,,,,0,,,,,,,,,,,,,,,,,,,,,,,,,,,,,,,,,,,,,,,,29,decar,,,0,1,1.224,0,29,29,28,1,REAL,FAKE,,,,,,,,,,,,,,,,,,,,,
,,,,,,,midd12,midd,ma,United States,South,13 or older,yes,2021-03-27_07h06.26.604,empathy_intonation_perc,2020.2.10,MacIntel,60,IwAR3CGx1W9H_3AAxQj16RKLYi-8T5usP3Ur1fqgFzekLUwI3TM-YyK6F8Lxs,,,,,,,,,,1,,,,,,,,,,,,,,,,,,,,,,,,,,,,,,,,,,,,,,,,2,pellizcar,,,0,0,1.379,0,30,30,1,1,REAL,FAKE,,,,,,,,,,,,,,,,,,,,,
,,,,,,,midd12,midd,ma,United States,South,13 or older,yes,2021-03-27_07h06.26.604,empathy_intonation_perc,2020.2.10,MacIntel,60,IwAR3CGx1W9H_3AAxQj16RKLYi-8T5usP3Ur1fqgFzekLUwI3TM-YyK6F8Lxs,,,,,,,,,,0,,,,,,,,,,,,,,,,,,,,,,,,,,,,,,,,,,,,,,,,47,cartinar,,,0,1,0.858,0,31,31,46,1,REAL,FAKE,,,,,,,,,,,,,,,,,,,,,
,,,,,,,midd12,midd,ma,United States,South,13 or older,yes,2021-03-27_07h06.26.604,empathy_intonation_perc,2020.2.10,MacIntel,60,IwAR3CGx1W9H_3AAxQj16RKLYi-8T5usP3Ur1fqgFzekLUwI3TM-YyK6F8Lxs,,,,,,,,,,1,,,,,,,,,,,,,,,,,,,,,,,,,,,,,,,,,,,,,,,,75,yacer,,,0,0,0.776,0,32,32,74,1,REAL,FAKE,,,,,,,,,,,,,,,,,,,,,
,,,,,,,midd12,midd,ma,United States,South,13 or older,yes,2021-03-27_07h06.26.604,empathy_intonation_perc,2020.2.10,MacIntel,60,IwAR3CGx1W9H_3AAxQj16RKLYi-8T5usP3Ur1fqgFzekLUwI3TM-YyK6F8Lxs,,,,,,,,,,1,,,,,,,,,,,,,,,,,,,,,,,,,,,,,,,,,,,,,,,,36,loro,,,1,1,0.948,0,33,33,35,1,REAL,FAKE,,,,,,,,,,,,,,,,,,,,,
,,,,,,,midd12,midd,ma,United States,South,13 or older,yes,2021-03-27_07h06.26.604,empathy_intonation_perc,2020.2.10,MacIntel,60,IwAR3CGx1W9H_3AAxQj16RKLYi-8T5usP3Ur1fqgFzekLUwI3TM-YyK6F8Lxs,,,,,,,,,,0,,,,,,,,,,,,,,,,,,,,,,,,,,,,,,,,,,,,,,,,53,vegada,,,0,1,0.927,0,34,34,52,1,REAL,FAKE,,,,,,,,,,,,,,,,,,,,,
,,,,,,,midd12,midd,ma,United States,South,13 or older,yes,2021-03-27_07h06.26.604,empathy_intonation_perc,2020.2.10,MacIntel,60,IwAR3CGx1W9H_3AAxQj16RKLYi-8T5usP3Ur1fqgFzekLUwI3TM-YyK6F8Lxs,,,,,,,,,,0,,,,,,,,,,,,,,,,,,,,,,,,,,,,,,,,,,,,,,,,35,rompido,,,0,1,1.56,0,35,35,34,1,REAL,FAKE,,,,,,,,,,,,,,,,,,,,,
,,,,,,,midd12,midd,ma,United States,South,13 or older,yes,2021-03-27_07h06.26.604,empathy_intonation_perc,2020.2.10,MacIntel,60,IwAR3CGx1W9H_3AAxQj16RKLYi-8T5usP3Ur1fqgFzekLUwI3TM-YyK6F8Lxs,,,,,,,,,,0,,,,,,,,,,,,,,,,,,,,,,,,,,,,,,,,,,,,,,,,16,abracer,,,0,1,1.3,0,36,36,15,1,REAL,FAKE,,,,,,,,,,,,,,,,,,,,,
,,,,,,,midd12,midd,ma,United States,South,13 or older,yes,2021-03-27_07h06.26.604,empathy_intonation_perc,2020.2.10,MacIntel,60,IwAR3CGx1W9H_3AAxQj16RKLYi-8T5usP3Ur1fqgFzekLUwI3TM-YyK6F8Lxs,,,,,,,,,,1,,,,,,,,,,,,,,,,,,,,,,,,,,,,,,,,,,,,,,,,56,musgo,,,0,0,1.398,0,37,37,55,1,REAL,FAKE,,,,,,,,,,,,,,,,,,,,,
,,,,,,,midd12,midd,ma,United States,South,13 or older,yes,2021-03-27_07h06.26.604,empathy_intonation_perc,2020.2.10,MacIntel,60,IwAR3CGx1W9H_3AAxQj16RKLYi-8T5usP3Ur1fqgFzekLUwI3TM-YyK6F8Lxs,,,,,,,,,,0,,,,,,,,,,,,,,,,,,,,,,,,,,,,,,,,,,,,,,,,19,brecedad,,,0,1,1.177,0,38,38,18,1,REAL,FAKE,,,,,,,,,,,,,,,,,,,,,
,,,,,,,midd12,midd,ma,United States,South,13 or older,yes,2021-03-27_07h06.26.604,empathy_intonation_perc,2020.2.10,MacIntel,60,IwAR3CGx1W9H_3AAxQj16RKLYi-8T5usP3Ur1fqgFzekLUwI3TM-YyK6F8Lxs,,,,,,,,,,0,,,,,,,,,,,,,,,,,,,,,,,,,,,,,,,,,,,,,,,,87,grodo,,,0,1,0.971,0,39,39,86,1,REAL,FAKE,,,,,,,,,,,,,,,,,,,,,
,,,,,,,midd12,midd,ma,United States,South,13 or older,yes,2021-03-27_07h06.26.604,empathy_intonation_perc,2020.2.10,MacIntel,60,IwAR3CGx1W9H_3AAxQj16RKLYi-8T5usP3Ur1fqgFzekLUwI3TM-YyK6F8Lxs,,,,,,,,,,1,,,,,,,,,,,,,,,,,,,,,,,,,,,,,,,,,,,,,,,,40,alfombra,,,1,1,1.037,0,40,40,39,1,REAL,FAKE,,,,,,,,,,,,,,,,,,,,,
,,,,,,,midd12,midd,ma,United States,South,13 or older,yes,2021-03-27_07h06.26.604,empathy_intonation_perc,2020.2.10,MacIntel,60,IwAR3CGx1W9H_3AAxQj16RKLYi-8T5usP3Ur1fqgFzekLUwI3TM-YyK6F8Lxs,,,,,,,,,,1,,,,,,,,,,,,,,,,,,,,,,,,,,,,,,,,,,,,,,,,76,atar,,,1,1,1.052,0,41,41,75,1,REAL,FAKE,,,,,,,,,,,,,,,,,,,,,
,,,,,,,midd12,midd,ma,United States,South,13 or older,yes,2021-03-27_07h06.26.604,empathy_intonation_perc,2020.2.10,MacIntel,60,IwAR3CGx1W9H_3AAxQj16RKLYi-8T5usP3Ur1fqgFzekLUwI3TM-YyK6F8Lxs,,,,,,,,,,0,,,,,,,,,,,,,,,,,,,,,,,,,,,,,,,,,,,,,,,,18,arsa,,,0,1,0.865,0,42,42,17,1,REAL,FAKE,,,,,,,,,,,,,,,,,,,,,
,,,,,,,midd12,midd,ma,United States,South,13 or older,yes,2021-03-27_07h06.26.604,empathy_intonation_perc,2020.2.10,MacIntel,60,IwAR3CGx1W9H_3AAxQj16RKLYi-8T5usP3Ur1fqgFzekLUwI3TM-YyK6F8Lxs,,,,,,,,,,0,,,,,,,,,,,,,,,,,,,,,,,,,,,,,,,,,,,,,,,,27,acutacin,,,0,1,1.394,0,43,43,26,1,REAL,FAKE,,,,,,,,,,,,,,,,,,,,,
,,,,,,,midd12,midd,ma,United States,South,13 or older,yes,2021-03-27_07h06.26.604,empathy_intonation_perc,2020.2.10,MacIntel,60,IwAR3CGx1W9H_3AAxQj16RKLYi-8T5usP3Ur1fqgFzekLUwI3TM-YyK6F8Lxs,,,,,,,,,,1,,,,,,,,,,,,,,,,,,,,,,,,,,,,,,,,,,,,,,,,59,besar,,,1,1,0.852,0,44,44,58,1,REAL,FAKE,,,,,,,,,,,,,,,,,,,,,
,,,,,,,midd12,midd,ma,United States,South,13 or older,yes,2021-03-27_07h06.26.604,empathy_intonation_perc,2020.2.10,MacIntel,60,IwAR3CGx1W9H_3AAxQj16RKLYi-8T5usP3Ur1fqgFzekLUwI3TM-YyK6F8Lxs,,,,,,,,,,1,,,,,,,,,,,,,,,,,,,,,,,,,,,,,,,,,,,,,,,,38,estornudar,,,1,1,1.197,0,45,45,37,1,REAL,FAKE,,,,,,,,,,,,,,,,,,,,,
,,,,,,,midd12,midd,ma,United States,South,13 or older,yes,2021-03-27_07h06.26.604,empathy_intonation_perc,2020.2.10,MacIntel,60,IwAR3CGx1W9H_3AAxQj16RKLYi-8T5usP3Ur1fqgFzekLUwI3TM-YyK6F8Lxs,,,,,,,,,,0,,,,,,,,,,,,,,,,,,,,,,,,,,,,,,,,,,,,,,,,63,esposante,,,0,1,0.884,0,46,46,62,1,REAL,FAKE,,,,,,,,,,,,,,,,,,,,,
,,,,,,,midd12,midd,ma,United States,South,13 or older,yes,2021-03-27_07h06.26.604,empathy_intonation_perc,2020.2.10,MacIntel,60,IwAR3CGx1W9H_3AAxQj16RKLYi-8T5usP3Ur1fqgFzekLUwI3TM-YyK6F8Lxs,,,,,,,,,,1,,,,,,,,,,,,,,,,,,,,,,,,,,,,,,,,,,,,,,,,88,acantilado,,,0,0,4.086,0,47,47,87,1,REAL,FAKE,,,,,,,,,,,,,,,,,,,,,
,,,,,,,midd12,midd,ma,United States,South,13 or older,yes,2021-03-27_07h06.26.604,empathy_intonation_perc,2020.2.10,MacIntel,60,IwAR3CGx1W9H_3AAxQj16RKLYi-8T5usP3Ur1fqgFzekLUwI3TM-YyK6F8Lxs,,,,,,,,,,1,,,,,,,,,,,,,,,,,,,,,,,,,,,,,,,,,,,,,,,,12,asesinato,,,1,1,2.014,0,48,48,11,1,REAL,FAKE,,,,,,,,,,,,,,,,,,,,,
,,,,,,,midd12,midd,ma,United States,South,13 or older,yes,2021-03-27_07h06.26.604,empathy_intonation_perc,2020.2.10,MacIntel,60,IwAR3CGx1W9H_3AAxQj16RKLYi-8T5usP3Ur1fqgFzekLUwI3TM-YyK6F8Lxs,,,,,,,,,,1,,,,,,,,,,,,,,,,,,,,,,,,,,,,,,,,,,,,,,,,81,pozo,,,0,0,4.127,0,49,49,80,1,REAL,FAKE,,,,,,,,,,,,,,,,,,,,,
,,,,,,,midd12,midd,ma,United States,South,13 or older,yes,2021-03-27_07h06.26.604,empathy_intonation_perc,2020.2.10,MacIntel,60,IwAR3CGx1W9H_3AAxQj16RKLYi-8T5usP3Ur1fqgFzekLUwI3TM-YyK6F8Lxs,,,,,,,,,,1,,,,,,,,,,,,,,,,,,,,,,,,,,,,,,,,,,,,,,,,57,tacao,,,1,1,3.3,0,50,50,56,1,REAL,FAKE,,,,,,,,,,,,,,,,,,,,,
,,,,,,,midd12,midd,ma,United States,South,13 or older,yes,2021-03-27_07h06.26.604,empathy_intonation_perc,2020.2.10,MacIntel,60,IwAR3CGx1W9H_3AAxQj16RKLYi-8T5usP3Ur1fqgFzekLUwI3TM-YyK6F8Lxs,,,,,,,,,,0,,,,,,,,,,,,,,,,,,,,,,,,,,,,,,,,,,,,,,,,23,lampera,,,0,1,1.029,0,51,51,22,1,REAL,FAKE,,,,,,,,,,,,,,,,,,,,,
,,,,,,,midd12,midd,ma,United States,South,13 or older,yes,2021-03-27_07h06.26.604,empathy_intonation_perc,2020.2.10,MacIntel,60,IwAR3CGx1W9H_3AAxQj16RKLYi-8T5usP3Ur1fqgFzekLUwI3TM-YyK6F8Lxs,,,,,,,,,,1,,,,,,,,,,,,,,,,,,,,,,,,,,,,,,,,,,,,,,,,55,nevar,,,1,1,0.956,0,52,52,54,1,REAL,FAKE,,,,,,,,,,,,,,,,,,,,,
,,,,,,,midd12,midd,ma,United States,South,13 or older,yes,2021-03-27_07h06.26.604,empathy_intonation_perc,2020.2.10,MacIntel,60,IwAR3CGx1W9H_3AAxQj16RKLYi-8T5usP3Ur1fqgFzekLUwI3TM-YyK6F8Lxs,,,,,,,,,,1,,,,,,,,,,,,,,,,,,,,,,,,,,,,,,,,,,,,,,,,49,ganar,,,1,1,0.897,0,53,53,48,1,REAL,FAKE,,,,,,,,,,,,,,,,,,,,,
,,,,,,,midd12,midd,ma,United States,South,13 or older,yes,2021-03-27_07h06.26.604,empathy_intonation_perc,2020.2.10,MacIntel,60,IwAR3CGx1W9H_3AAxQj16RKLYi-8T5usP3Ur1fqgFzekLUwI3TM-YyK6F8Lxs,,,,,,,,,,0,,,,,,,,,,,,,,,,,,,,,,,,,,,,,,,,,,,,,,,,1,terzo,,,0,1,2.115,0,54,54,0,1,REAL,FAKE,,,,,,,,,,,,,,,,,,,,,
,,,,,,,midd12,midd,ma,United States,South,13 or older,yes,2021-03-27_07h06.26.604,empathy_intonation_perc,2020.2.10,MacIntel,60,IwAR3CGx1W9H_3AAxQj16RKLYi-8T5usP3Ur1fqgFzekLUwI3TM-YyK6F8Lxs,,,,,,,,,,1,,,,,,,,,,,,,,,,,,,,,,,,,,,,,,,,,,,,,,,,67,cabello,,,1,1,1.398,0,55,55,66,1,REAL,FAKE,,,,,,,,,,,,,,,,,,,,,
,,,,,,,midd12,midd,ma,United States,South,13 or older,yes,2021-03-27_07h06.26.604,empathy_intonation_perc,2020.2.10,MacIntel,60,IwAR3CGx1W9H_3AAxQj16RKLYi-8T5usP3Ur1fqgFzekLUwI3TM-YyK6F8Lxs,,,,,,,,,,1,,,,,,,,,,,,,,,,,,,,,,,,,,,,,,,,,,,,,,,,9,hacha,,,1,1,5.302,0,56,56,8,1,REAL,FAKE,,,,,,,,,,,,,,,,,,,,,
,,,,,,,midd12,midd,ma,United States,South,13 or older,yes,2021-03-27_07h06.26.604,empathy_intonation_perc,2020.2.10,MacIntel,60,IwAR3CGx1W9H_3AAxQj16RKLYi-8T5usP3Ur1fqgFzekLUwI3TM-YyK6F8Lxs,,,,,,,,,,1,,,,,,,,,,,,,,,,,,,,,,,,,,,,,,,,,,,,,,,,45,jilguero,,,0,0,0.96,0,57,57,44,1,REAL,FAKE,,,,,,,,,,,,,,,,,,,,,
,,,,,,,midd12,midd,ma,United States,South,13 or older,yes,2021-03-27_07h06.26.604,empathy_intonation_perc,2020.2.10,MacIntel,60,IwAR3CGx1W9H_3AAxQj16RKLYi-8T5usP3Ur1fqgFzekLUwI3TM-YyK6F8Lxs,,,,,,,,,,1,,,,,,,,,,,,,,,,,,,,,,,,,,,,,,,,,,,,,,,,5,zapato,,,1,1,0.812,0,58,58,4,1,REAL,FAKE,,,,,,,,,,,,,,,,,,,,,
,,,,,,,midd12,midd,ma,United States,South,13 or older,yes,2021-03-27_07h06.26.604,empathy_intonation_perc,2020.2.10,MacIntel,60,IwAR3CGx1W9H_3AAxQj16RKLYi-8T5usP3Ur1fqgFzekLUwI3TM-YyK6F8Lxs,,,,,,,,,,1,,,,,,,,,,,,,,,,,,,,,,,,,,,,,,,,,,,,,,,,46,martillo,,,1,1,1.078,0,59,59,45,1,REAL,FAKE,,,,,,,,,,,,,,,,,,,,,
,,,,,,,midd12,midd,ma,United States,South,13 or older,yes,2021-03-27_07h06.26.604,empathy_intonation_perc,2020.2.10,MacIntel,60,IwAR3CGx1W9H_3AAxQj16RKLYi-8T5usP3Ur1fqgFzekLUwI3TM-YyK6F8Lxs,,,,,,,,,,1,,,,,,,,,,,,,,,,,,,,,,,,,,,,,,,,,,,,,,,,64,orgulloso,,,1,1,0.78,0,60,60,63,1,REAL,FAKE,,,,,,,,,,,,,,,,,,,,,
,,,,,,,midd12,midd,ma,United States,South,13 or older,yes,2021-03-27_07h06.26.604,empathy_intonation_perc,2020.2.10,MacIntel,60,IwAR3CGx1W9H_3AAxQj16RKLYi-8T5usP3Ur1fqgFzekLUwI3TM-YyK6F8Lxs,,,,,,,,,,1,,,,,,,,,,,,,,,,,,,,,,,,,,,,,,,,,,,,,,,,54,fomentar,,,1,1,0.942,0,61,61,53,1,REAL,FAKE,,,,,,,,,,,,,,,,,,,,,
,,,,,,,midd12,midd,ma,United States,South,13 or older,yes,2021-03-27_07h06.26.604,empathy_intonation_perc,2020.2.10,MacIntel,60,IwAR3CGx1W9H_3AAxQj16RKLYi-8T5usP3Ur1fqgFzekLUwI3TM-YyK6F8Lxs,,,,,,,,,,0,,,,,,,,,,,,,,,,,,,,,,,,,,,,,,,,,,,,,,,,4,batilln,,,0,1,1.9,0,62,62,3,1,REAL,FAKE,,,,,,,,,,,,,,,,,,,,,
,,,,,,,midd12,midd,ma,United States,South,13 or older,yes,2021-03-27_07h06.26.604,empathy_intonation_perc,2020.2.10,MacIntel,60,IwAR3CGx1W9H_3AAxQj16RKLYi-8T5usP3Ur1fqgFzekLUwI3TM-YyK6F8Lxs,,,,,,,,,,1,,,,,,,,,,,,,,,,,,,,,,,,,,,,,,,,,,,,,,,,61,seda,,,1,1,1.074,0,63,63,60,1,REAL,FAKE,,,,,,,,,,,,,,,,,,,,,
,,,,,,,midd12,midd,ma,United States,South,13 or older,yes,2021-03-27_07h06.26.604,empathy_intonation_perc,2020.2.10,MacIntel,60,IwAR3CGx1W9H_3AAxQj16RKLYi-8T5usP3Ur1fqgFzekLUwI3TM-YyK6F8Lxs,,,,,,,,,,1,,,,,,,,,,,,,,,,,,,,,,,,,,,,,,,,,,,,,,,,25,bisagra,,,0,0,1.092,0,64,64,24,1,REAL,FAKE,,,,,,,,,,,,,,,,,,,,,
,,,,,,,midd12,midd,ma,United States,South,13 or older,yes,2021-03-27_07h06.26.604,empathy_intonation_perc,2020.2.10,MacIntel,60,IwAR3CGx1W9H_3AAxQj16RKLYi-8T5usP3Ur1fqgFzekLUwI3TM-YyK6F8Lxs,,,,,,,,,,1,,,,,,,,,,,,,,,,,,,,,,,,,,,,,,,,,,,,,,,,65,bizcocho,,,1,1,1.041,0,65,65,64,1,REAL,FAKE,,,,,,,,,,,,,,,,,,,,,
,,,,,,,midd12,midd,ma,United States,South,13 or older,yes,2021-03-27_07h06.26.604,empathy_intonation_perc,2020.2.10,MacIntel,60,IwAR3CGx1W9H_3AAxQj16RKLYi-8T5usP3Ur1fqgFzekLUwI3TM-YyK6F8Lxs,,,,,,,,,,0,,,,,,,,,,,,,,,,,,,,,,,,,,,,,,,,,,,,,,,,50,flamida,,,0,1,1.129,0,66,66,49,1,REAL,FAKE,,,,,,,,,,,,,,,,,,,,,
,,,,,,,midd12,midd,ma,United States,South,13 or older,yes,2021-03-27_07h06.26.604,empathy_intonation_perc,2020.2.10,MacIntel,60,IwAR3CGx1W9H_3AAxQj16RKLYi-8T5usP3Ur1fqgFzekLUwI3TM-YyK6F8Lxs,,,,,,,,,,1,,,,,,,,,,,,,,,,,,,,,,,,,,,,,,,,,,,,,,,,71,polvoriento,,,0,0,3.374,0,67,67,70,1,REAL,FAKE,,,,,,,,,,,,,,,,,,,,,
,,,,,,,midd12,midd,ma,United States,South,13 or older,yes,2021-03-27_07h06.26.604,empathy_intonation_perc,2020.2.10,MacIntel,60,IwAR3CGx1W9H_3AAxQj16RKLYi-8T5usP3Ur1fqgFzekLUwI3TM-YyK6F8Lxs,,,,,,,,,,1,,,,,,,,,,,,,,,,,,,,,,,,,,,,,,,,,,,,,,,,14,yunque,,,0,0,2.586,0,68,68,13,1,REAL,FAKE,,,,,,,,,,,,,,,,,,,,,
,,,,,,,midd12,midd,ma,United States,South,13 or older,yes,2021-03-27_07h06.26.604,empathy_intonation_perc,2020.2.10,MacIntel,60,IwAR3CGx1W9H_3AAxQj16RKLYi-8T5usP3Ur1fqgFzekLUwI3TM-YyK6F8Lxs,,,,,,,,,,1,,,,,,,,,,,,,,,,,,,,,,,,,,,,,,,,,,,,,,,,73,hervidor,,,0,0,0.816,0,69,69,72,1,REAL,FAKE,,,,,,,,,,,,,,,,,,,,,
,,,,,,,midd12,midd,ma,United States,South,13 or older,yes,2021-03-27_07h06.26.604,empathy_intonation_perc,2020.2.10,MacIntel,60,IwAR3CGx1W9H_3AAxQj16RKLYi-8T5usP3Ur1fqgFzekLUwI3TM-YyK6F8Lxs,,,,,,,,,,1,,,,,,,,,,,,,,,,,,,,,,,,,,,,,,,,,,,,,,,,15,regar,,,1,1,0.894,0,70,70,14,1,REAL,FAKE,,,,,,,,,,,,,,,,,,,,,
,,,,,,,midd12,midd,ma,United States,South,13 or older,yes,2021-03-27_07h06.26.604,empathy_intonation_perc,2020.2.10,MacIntel,60,IwAR3CGx1W9H_3AAxQj16RKLYi-8T5usP3Ur1fqgFzekLUwI3TM-YyK6F8Lxs,,,,,,,,,,1,,,,,,,,,,,,,,,,,,,,,,,,,,,,,,,,,,,,,,,,3,pulmones,,,1,1,0.802,0,71,71,2,1,REAL,FAKE,,,,,,,,,,,,,,,,,,,,,
,,,,,,,midd12,midd,ma,United States,South,13 or older,yes,2021-03-27_07h06.26.604,empathy_intonation_perc,2020.2.10,MacIntel,60,IwAR3CGx1W9H_3AAxQj16RKLYi-8T5usP3Ur1fqgFzekLUwI3TM-YyK6F8Lxs,,,,,,,,,,0,,,,,,,,,,,,,,,,,,,,,,,,,,,,,,,,,,,,,,,,21,capillo,,,0,1,0.984,0,72,72,20,1,REAL,FAKE,,,,,,,,,,,,,,,,,,,,,
,,,,,,,midd12,midd,ma,United States,South,13 or older,yes,2021-03-27_07h06.26.604,empathy_intonation_perc,2020.2.10,MacIntel,60,IwAR3CGx1W9H_3AAxQj16RKLYi-8T5usP3Ur1fqgFzekLUwI3TM-YyK6F8Lxs,,,,,,,,,,0,,,,,,,,,,,,,,,,,,,,,,,,,,,,,,,,,,,,,,,,33,pauca,,,0,1,0.976,0,73,73,32,1,REAL,FAKE,,,,,,,,,,,,,,,,,,,,,
,,,,,,,midd12,midd,ma,United States,South,13 or older,yes,2021-03-27_07h06.26.604,empathy_intonation_perc,2020.2.10,MacIntel,60,IwAR3CGx1W9H_3AAxQj16RKLYi-8T5usP3Ur1fqgFzekLUwI3TM-YyK6F8Lxs,,,,,,,,,,1,,,,,,,,,,,,,,,,,,,,,,,,,,,,,,,,,,,,,,,,51,candado,,,0,0,1.6,0,74,74,50,1,REAL,FAKE,,,,,,,,,,,,,,,,,,,,,
,,,,,,,midd12,midd,ma,United States,South,13 or older,yes,2021-03-27_07h06.26.604,empathy_intonation_perc,2020.2.10,MacIntel,60,IwAR3CGx1W9H_3AAxQj16RKLYi-8T5usP3Ur1fqgFzekLUwI3TM-YyK6F8Lxs,,,,,,,,,,1,,,,,,,,,,,,,,,,,,,,,,,,,,,,,,,,,,,,,,,,90,clavel,,,1,1,0.88,0,75,75,89,1,REAL,FAKE,,,,,,,,,,,,,,,,,,,,,
,,,,,,,midd12,midd,ma,United States,South,13 or older,yes,2021-03-27_07h06.26.604,empathy_intonation_perc,2020.2.10,MacIntel,60,IwAR3CGx1W9H_3AAxQj16RKLYi-8T5usP3Ur1fqgFzekLUwI3TM-YyK6F8Lxs,,,,,,,,,,0,,,,,,,,,,,,,,,,,,,,,,,,,,,,,,,,,,,,,,,,72,pemicin,,,0,1,1.028,0,76,76,71,1,REAL,FAKE,,,,,,,,,,,,,,,,,,,,,
,,,,,,,midd12,midd,ma,United States,South,13 or older,yes,2021-03-27_07h06.26.604,empathy_intonation_perc,2020.2.10,MacIntel,60,IwAR3CGx1W9H_3AAxQj16RKLYi-8T5usP3Ur1fqgFzekLUwI3TM-YyK6F8Lxs,,,,,,,,,,0,,,,,,,,,,,,,,,,,,,,,,,,,,,,,,,,,,,,,,,,74,cintro,,,0,1,1.015,0,77,77,73,1,REAL,FAKE,,,,,,,,,,,,,,,,,,,,,
,,,,,,,midd12,midd,ma,United States,South,13 or older,yes,2021-03-27_07h06.26.604,empathy_intonation_perc,2020.2.10,MacIntel,60,IwAR3CGx1W9H_3AAxQj16RKLYi-8T5usP3Ur1fqgFzekLUwI3TM-YyK6F8Lxs,,,,,,,,,,1,,,,,,,,,,,,,,,,,,,,,,,,,,,,,,,,,,,,,,,,77,tiburn,,,1,1,0.917,0,78,78,76,1,REAL,FAKE,,,,,,,,,,,,,,,,,,,,,
,,,,,,,midd12,midd,ma,United States,South,13 or older,yes,2021-03-27_07h06.26.604,empathy_intonation_perc,2020.2.10,MacIntel,60,IwAR3CGx1W9H_3AAxQj16RKLYi-8T5usP3Ur1fqgFzekLUwI3TM-YyK6F8Lxs,,,,,,,,,,1,,,,,,,,,,,,,,,,,,,,,,,,,,,,,,,,,,,,,,,,13,helar,,,0,0,1.223,0,79,79,12,1,REAL,FAKE,,,,,,,,,,,,,,,,,,,,,
,,,,,,,midd12,midd,ma,United States,South,13 or older,yes,2021-03-27_07h06.26.604,empathy_intonation_perc,2020.2.10,MacIntel,60,IwAR3CGx1W9H_3AAxQj16RKLYi-8T5usP3Ur1fqgFzekLUwI3TM-YyK6F8Lxs,,,,,,,,,,1,,,,,,,,,,,,,,,,,,,,,,,,,,,,,,,,,,,,,,,,60,matar,,,1,1,0.821,0,80,80,59,1,REAL,FAKE,,,,,,,,,,,,,,,,,,,,,
,,,,,,,midd12,midd,ma,United States,South,13 or older,yes,2021-03-27_07h06.26.604,empathy_intonation_perc,2020.2.10,MacIntel,60,IwAR3CGx1W9H_3AAxQj16RKLYi-8T5usP3Ur1fqgFzekLUwI3TM-YyK6F8Lxs,,,,,,,,,,1,,,,,,,,,,,,,,,,,,,,,,,,,,,,,,,,,,,,,,,,89,prisa,,,1,1,0.868,0,81,81,88,1,REAL,FAKE,,,,,,,,,,,,,,,,,,,,,
,,,,,,,midd12,midd,ma,United States,South,13 or older,yes,2021-03-27_07h06.26.604,empathy_intonation_perc,2020.2.10,MacIntel,60,IwAR3CGx1W9H_3AAxQj16RKLYi-8T5usP3Ur1fqgFzekLUwI3TM-YyK6F8Lxs,,,,,,,,,,0,,,,,,,,,,,,,,,,,,,,,,,,,,,,,,,,,,,,,,,,66,hacido,,,0,1,0.808,0,82,82,65,1,REAL,FAKE,,,,,,,,,,,,,,,,,,,,,
,,,,,,,midd12,midd,ma,United States,South,13 or older,yes,2021-03-27_07h06.26.604,empathy_intonation_perc,2020.2.10,MacIntel,60,IwAR3CGx1W9H_3AAxQj16RKLYi-8T5usP3Ur1fqgFzekLUwI3TM-YyK6F8Lxs,,,,,,,,,,0,,,,,,,,,,,,,,,,,,,,,,,,,,,,,,,,,,,,,,,,8,cadea,,,0,1,1.455,0,83,83,7,1,REAL,FAKE,,,,,,,,,,,,,,,,,,,,,
,,,,,,,midd12,midd,ma,United States,South,13 or older,yes,2021-03-27_07h06.26.604,empathy_intonation_perc,2020.2.10,MacIntel,60,IwAR3CGx1W9H_3AAxQj16RKLYi-8T5usP3Ur1fqgFzekLUwI3TM-YyK6F8Lxs,,,,,,,,,,1,,,,,,,,,,,,,,,,,,,,,,,,,,,,,,,,,,,,,,,,78,frondoso,,,0,0,2.836,0,84,84,77,1,REAL,FAKE,,,,,,,,,,,,,,,,,,,,,
,,,,,,,midd12,midd,ma,United States,South,13 or older,yes,2021-03-27_07h06.26.604,empathy_intonation_perc,2020.2.10,MacIntel,60,IwAR3CGx1W9H_3AAxQj16RKLYi-8T5usP3Ur1fqgFzekLUwI3TM-YyK6F8Lxs,,,,,,,,,,0,,,,,,,,,,,,,,,,,,,,,,,,,,,,,,,,,,,,,,,,32,fatacidad,,,0,1,1.12,0,85,85,31,1,REAL,FAKE,,,,,,,,,,,,,,,,,,,,,
,,,,,,,midd12,midd,ma,United States,South,13 or older,yes,2021-03-27_07h06.26.604,empathy_intonation_perc,2020.2.10,MacIntel,60,IwAR3CGx1W9H_3AAxQj16RKLYi-8T5usP3Ur1fqgFzekLUwI3TM-YyK6F8Lxs,,,,,,,,,,0,,,,,,,,,,,,,,,,,,,,,,,,,,,,,,,,,,,,,,,,42,cadallo,,,0,1,0.775,0,86,86,41,1,REAL,FAKE,,,,,,,,,,,,,,,,,,,,,
,,,,,,,midd12,midd,ma,United States,South,13 or older,yes,2021-03-27_07h06.26.604,empathy_intonation_perc,2020.2.10,MacIntel,60,IwAR3CGx1W9H_3AAxQj16RKLYi-8T5usP3Ur1fqgFzekLUwI3TM-YyK6F8Lxs,,,,,,,,,,1,,,,,,,,,,,,,,,,,,,,,,,,,,,,,,,,,,,,,,,,20,vido,,,0,0,3.177,0,87,87,19,1,REAL,FAKE,,,,,,,,,,,,,,,,,,,,,
,,,,,,,midd12,midd,ma,United States,South,13 or older,yes,2021-03-27_07h06.26.604,empathy_intonation_perc,2020.2.10,MacIntel,60,IwAR3CGx1W9H_3AAxQj16RKLYi-8T5usP3Ur1fqgFzekLUwI3TM-YyK6F8Lxs,,,,,,,,,,1,,,,,,,,,,,,,,,,,,,,,,,,,,,,,,,,,,,,,,,,34,aviso,,,1,1,1.039,0,88,88,33,1,REAL,FAKE,,,,,,,,,,,,,,,,,,,,,
,,,,,,,midd12,midd,ma,United States,South,13 or older,yes,2021-03-27_07h06.26.604,empathy_intonation_perc,2020.2.10,MacIntel,60,IwAR3CGx1W9H_3AAxQj16RKLYi-8T5usP3Ur1fqgFzekLUwI3TM-YyK6F8Lxs,,,,,,,,,,1,,,,,,,,,,,,,,,,,,,,,,,,,,,,,,,,,,,,,,,,85,lad,,,0,0,0.901,0,89,89,84,1,REAL,FAKE,,,,,,,,,,,,,,,,,,,,,
,,,,,,,midd12,midd,ma,United States,South,13 or older,yes,2021-03-27_07h06.26.604,empathy_intonation_perc,2020.2.10,MacIntel,60,IwAR3CGx1W9H_3AAxQj16RKLYi-8T5usP3Ur1fqgFzekLUwI3TM-YyK6F8Lxs,,,,,,,,,,,,,,,,,,,,,,,,,,,,,,,,,,,,,,,,,,,,,,,,,,,,,,,,,,,,,,,,4,1,3.829,1,0,0,0,0,0,1,,,,,,,,,,,
,,,,,,,midd12,midd,ma,United States,South,13 or older,yes,2021-03-27_07h06.26.604,empathy_intonation_perc,2020.2.10,MacIntel,60,IwAR3CGx1W9H_3AAxQj16RKLYi-8T5usP3Ur1fqgFzekLUwI3TM-YyK6F8Lxs,,,,,,,,,,,,,,,,,,,,1,,,,,,,,,,,,,,,,,,,,,,,,,,,,,,,,,,,,,,,,,,,,,,,,,,,,,,2,0,0,0,0,1,I can easily tell if someone else wants to enter a conversation.,1,0,1,0
,,,,,,,midd12,midd,ma,United States,South,13 or older,yes,2021-03-27_07h06.26.604,empathy_intonation_perc,2020.2.10,MacIntel,60,IwAR3CGx1W9H_3AAxQj16RKLYi-8T5usP3Ur1fqgFzekLUwI3TM-YyK6F8Lxs,,,,,,,,,,,,,,,,,,,,2,,,,,,,,,,,,,,,,,,,,,,,,,,,,,,,,,,,,,,,,,,,,,,,,,,,,,,4,0,1,1,1,1,I prefer animals to humans.,0,1,0,0
,,,,,,,midd12,midd,ma,United States,South,13 or older,yes,2021-03-27_07h06.26.604,empathy_intonation_perc,2020.2.10,MacIntel,60,IwAR3CGx1W9H_3AAxQj16RKLYi-8T5usP3Ur1fqgFzekLUwI3TM-YyK6F8Lxs,,,,,,,,,,,,,,,,,,,,3,,,,,,,,,,,,,,,,,,,,,,,,,,,,,,,,,,,,,,,,,,,,,,,,,,,,,,5,0,2,2,2,1,I try to keep up with the current trends and fashions.,0,1,0,0
,,,,,,,midd12,midd,ma,United States,South,13 or older,yes,2021-03-27_07h06.26.604,empathy_intonation_perc,2020.2.10,MacIntel,60,IwAR3CGx1W9H_3AAxQj16RKLYi-8T5usP3Ur1fqgFzekLUwI3TM-YyK6F8Lxs,,,,,,,,,,,,,,,,,,,,4,,,,,,,,,,,,,,,,,,,,,,,,,,,,,,,,,,,,,,,,,,,,,,,,,,,,,,4,0,3,3,3,1,"I find it difficult to explain to others things that I understand easily, 
  when they dont understand it first time.",1,0,0,1
