instructions_2afc_loop.thisRepN,instructions_2afc_loop.thisTrialN,instructions_2afc_loop.thisN,instructions_2afc_loop.thisIndex,instructions_2afc_loop.ran,instructions_text,continue_text,participant,study_id,session,I am most familiar with Spanish from...*,What part of the US are you from?*,At what age did you begin learning Spanish?*,Are you proficient in any languages other than English/Spanish?*,date,expName,psychopyVersion,OS,frameRate,fbclid,key_resp_2afc_practice.keys,key_resp_2afc_practice.corr,key_resp_2afc_practice.rt,trials_2afc_practice_loop.thisRepN,trials_2afc_practice_loop.thisTrialN,trials_2afc_practice_loop.thisN,trials_2afc_practice_loop.thisIndex,trials_2afc_practice_loop.ran,path,correct_response,the_col,key_resp_2afc_trial.keys,key_resp_2afc_trial.corr,key_resp_2afc_trial.rt,trials_2afc_loop.thisRepN,trials_2afc_loop.thisTrialN,trials_2afc_loop.thisN,trials_2afc_loop.thisIndex,trials_2afc_loop.ran,item_num,andalusian,argentine,castilian,chilean,cuban,mexican,peruvian,puertorican,key_resp_ac1.keys,key_resp_ac1.corr,key_resp_ac1.rt,ac1_loop.thisRepN,ac1_loop.thisTrialN,ac1_loop.thisN,ac1_loop.thisIndex,ac1_loop.ran,instructions_lextale_loop.thisRepN,instructions_lextale_loop.thisTrialN,instructions_lextale_loop.thisN,instructions_lextale_loop.thisIndex,instructions_lextale_loop.ran,key_resp_lextale_practice.keys,key_resp_lextale_practice.corr,key_resp_lextale_practice.rt,trials_lextale_practice_loop.thisRepN,trials_lextale_practice_loop.thisTrialN,trials_lextale_practice_loop.thisN,trials_lextale_practice_loop.thisIndex,trials_lextale_practice_loop.ran,stim,word,prac_button_real,prac_button_false,key_resp_lextale_trial.keys,key_resp_lextale_trial.corr,key_resp_lextale_trial.rt,trials_lextale_loop.thisRepN,trials_lextale_loop.thisTrialN,trials_lextale_loop.thisN,trials_lextale_loop.thisIndex,trials_lextale_loop.ran,button_real,button_false,key_resp_ac2.keys,key_resp_ac2.corr,key_resp_ac2.rt,check_pass,check_fails,ac2_loop.thisRepN,ac2_loop.thisTrialN,ac2_loop.thisN,ac2_loop.thisIndex,ac2_loop.ran,slider_eq_trial.response,trials_eq_loop.thisRepN,trials_eq_loop.thisTrialN,trials_eq_loop.thisN,trials_eq_loop.thisIndex,trials_eq_loop.ran,item,is_test_item,is_distractor,is_agree_score,is_disagree_score
0,0,0,0,1,"In the following task you are going to hear a series of utterances. 

  You will decide if the utterances sound like questions or not using your keyboard.",(press the spacebar to continue),midd04,midd,ma,Colombia,Northeast,13 or older,yes,2021-03-28_09h56.31.643,empathy_intonation_perc,2020.2.10,MacIntel,60,IwAR26xrIzc05Uny94xxvLKclhr0HUXNQar10Tgs6lhCPAafGTxvP0_mO39BM,,,,,,,,,,,,,,,,,,,,,,,,,,,,,,,,,,,,,,,,,,,,,,,,,,,,,,,,,,,,,,,,,,,,,,,,,,,,,,,,,,,,
0,1,1,1,1,"If you believe the utterance is a question, type '1' (for 'yes') and if you do not 
  believe it is a question type '0' (for 'no').

  Let's practice a bit...",(press the spacebar to continue),midd04,midd,ma,Colombia,Northeast,13 or older,yes,2021-03-28_09h56.31.643,empathy_intonation_perc,2020.2.10,MacIntel,60,IwAR26xrIzc05Uny94xxvLKclhr0HUXNQar10Tgs6lhCPAafGTxvP0_mO39BM,,,,,,,,,,,,,,,,,,,,,,,,,,,,,,,,,,,,,,,,,,,,,,,,,,,,,,,,,,,,,,,,,,,,,,,,,,,,,,,,,,,,
,,,,,,,midd04,midd,ma,Colombia,Northeast,13 or older,yes,2021-03-28_09h56.31.643,empathy_intonation_perc,2020.2.10,MacIntel,60,IwAR26xrIzc05Uny94xxvLKclhr0HUXNQar10Tgs6lhCPAafGTxvP0_mO39BM,0,1,16.423,0,0,0,6,1,./stim/wavs/peruvian_statement_filler_El-nino-habla-con-su-madre.wav,0,,,,,,,,,,,,,,,,,,,,,,,,,,,,,,,,,,,,,,,,,,,,,,,,,,,,,,,,,,,,,,,,,,,,,,,,,,
,,,,,,,midd04,midd,ma,Colombia,Northeast,13 or older,yes,2021-03-28_09h56.31.643,empathy_intonation_perc,2020.2.10,MacIntel,60,IwAR26xrIzc05Uny94xxvLKclhr0HUXNQar10Tgs6lhCPAafGTxvP0_mO39BM,1,1,3.374,0,1,1,3,1,./stim/wavs/mexican_question_filler_Felipe-no-tiene-contrasena.wav,1,,,,,,,,,,,,,,,,,,,,,,,,,,,,,,,,,,,,,,,,,,,,,,,,,,,,,,,,,,,,,,,,,,,,,,,,,,
,,,,,,,midd04,midd,ma,Colombia,Northeast,13 or older,yes,2021-03-28_09h56.31.643,empathy_intonation_perc,2020.2.10,MacIntel,60,IwAR26xrIzc05Uny94xxvLKclhr0HUXNQar10Tgs6lhCPAafGTxvP0_mO39BM,0,1,8.196,0,2,2,5,1,./stim/wavs/andalusian_statement_filler_Alberto-nunca-se-afeita.wav,0,,,,,,,,,,,,,,,,,,,,,,,,,,,,,,,,,,,,,,,,,,,,,,,,,,,,,,,,,,,,,,,,,,,,,,,,,,
,,,,,,,midd04,midd,ma,Colombia,Northeast,13 or older,yes,2021-03-28_09h56.31.643,empathy_intonation_perc,2020.2.10,MacIntel,60,IwAR26xrIzc05Uny94xxvLKclhr0HUXNQar10Tgs6lhCPAafGTxvP0_mO39BM,0,0,2.511,0,3,3,2,1,./stim/wavs/chilean_question_filler_Mi-padre-cantaba-bien.wav,1,,,,,,,,,,,,,,,,,,,,,,,,,,,,,,,,,,,,,,,,,,,,,,,,,,,,,,,,,,,,,,,,,,,,,,,,,,
,,,,,,,midd04,midd,ma,Colombia,Northeast,13 or older,yes,2021-03-28_09h56.31.643,empathy_intonation_perc,2020.2.10,MacIntel,60,IwAR26xrIzc05Uny94xxvLKclhr0HUXNQar10Tgs6lhCPAafGTxvP0_mO39BM,0,1,2.793,0,4,4,7,1,./stim/wavs/puertorican_statement_filler_La-nina-pinta-con-su-amiga.wav,0,,,,,,,,,,,,,,,,,,,,,,,,,,,,,,,,,,,,,,,,,,,,,,,,,,,,,,,,,,,,,,,,,,,,,,,,,,
,,,,,,,midd04,midd,ma,Colombia,Northeast,13 or older,yes,2021-03-28_09h56.31.643,empathy_intonation_perc,2020.2.10,MacIntel,60,IwAR26xrIzc05Uny94xxvLKclhr0HUXNQar10Tgs6lhCPAafGTxvP0_mO39BM,1,1,5.852,0,5,5,0,1,./stim/wavs/castilian_question_filler_Mi-esposo-conoce-al-chico.wav,1,,,,,,,,,,,,,,,,,,,,,,,,,,,,,,,,,,,,,,,,,,,,,,,,,,,,,,,,,,,,,,,,,,,,,,,,,,
,,,,,,,midd04,midd,ma,Colombia,Northeast,13 or older,yes,2021-03-28_09h56.31.643,empathy_intonation_perc,2020.2.10,MacIntel,60,IwAR26xrIzc05Uny94xxvLKclhr0HUXNQar10Tgs6lhCPAafGTxvP0_mO39BM,1,1,2.994,0,6,6,1,1,./stim/wavs/argentine_question_filler_Mi-vecino-habla-mucho.wav,1,,,,,,,,,,,,,,,,,,,,,,,,,,,,,,,,,,,,,,,,,,,,,,,,,,,,,,,,,,,,,,,,,,,,,,,,,,
,,,,,,,midd04,midd,ma,Colombia,Northeast,13 or older,yes,2021-03-28_09h56.31.643,empathy_intonation_perc,2020.2.10,MacIntel,60,IwAR26xrIzc05Uny94xxvLKclhr0HUXNQar10Tgs6lhCPAafGTxvP0_mO39BM,0,1,3.665,0,7,7,4,1,./stim/wavs/cuban_statement_filler_Cocinabas-por-la-noche.wav,0,,,,,,,,,,,,,,,,,,,,,,,,,,,,,,,,,,,,,,,,,,,,,,,,,,,,,,,,,,,,,,,,,,,,,,,,,,
,,,,,,,midd04,midd,ma,Colombia,Northeast,13 or older,yes,2021-03-28_09h56.31.643,empathy_intonation_perc,2020.2.10,MacIntel,60,IwAR26xrIzc05Uny94xxvLKclhr0HUXNQar10Tgs6lhCPAafGTxvP0_mO39BM,,,,,,,,,,1,puertorican,1,1,4.031,0,0,0,59,1,60,./stim/wavs/andalusian_mismatch_interrogative-total-yn_La-maestra-vive-en-Paris.wav,./stim/wavs/argentine_mismatch_interrogative-total-yn_La-maestra-vive-en-Paris.wav,./stim/wavs/castilian_mismatch_interrogative-total-yn_La-maestra-vive-en-Paris.wav,./stim/wavs/chilean_mismatch_interrogative-total-yn_La-maestra-vive-en-Paris.wav,./stim/wavs/cuban_mismatch_interrogative-total-yn_La-maestra-vive-en-Paris.wav,./stim/wavs/mexican_mismatch_interrogative-total-yn_La-maestra-vive-en-Paris.wav,./stim/wavs/peruvian_mismatch_interrogative-total-yn_La-maestra-vive-en-Paris.wav,./stim/wavs/puertorican_mismatch_interrogative-total-yn_La-maestra-vive-en-Paris.wav,,,,,,,,,,,,,,,,,,,,,,,,,,,,,,,,,,,,,,,,,,,,,,,,,,,,,,,,
,,,,,,,midd04,midd,ma,Colombia,Northeast,13 or older,yes,2021-03-28_09h56.31.643,empathy_intonation_perc,2020.2.10,MacIntel,60,IwAR26xrIzc05Uny94xxvLKclhr0HUXNQar10Tgs6lhCPAafGTxvP0_mO39BM,,,,,,,,,,1,mexican,1,1,3.596,0,1,1,60,1,61,./stim/wavs/andalusian_mismatch_interrogative-total-yn_La-nina-lava-el-plato.wav,./stim/wavs/argentine_mismatch_interrogative-total-yn_La-nina-lava-el-plato.wav,./stim/wavs/castilian_mismatch_interrogative-total-yn_La-nina-lava-el-plato.wav,./stim/wavs/chilean_mismatch_interrogative-total-yn_La-nina-lava-el-plato.wav,./stim/wavs/cuban_mismatch_interrogative-total-yn_La-nina-lava-el-plato.wav,./stim/wavs/mexican_mismatch_interrogative-total-yn_La-nina-lava-el-plato.wav,./stim/wavs/peruvian_mismatch_interrogative-total-yn_La-nina-lava-el-plato.wav,./stim/wavs/puertorican_mismatch_interrogative-total-yn_La-nina-lava-el-plato.wav,,,,,,,,,,,,,,,,,,,,,,,,,,,,,,,,,,,,,,,,,,,,,,,,,,,,,,,,
,,,,,,,midd04,midd,ma,Colombia,Northeast,13 or older,yes,2021-03-28_09h56.31.643,empathy_intonation_perc,2020.2.10,MacIntel,60,IwAR26xrIzc05Uny94xxvLKclhr0HUXNQar10Tgs6lhCPAafGTxvP0_mO39BM,,,,,,,,,,0,cuban,0,1,2.783,0,2,2,39,1,40,./stim/wavs/andalusian_mismatch_declarative-broad-focus_Mi-tia-odia-la-lluvia.wav,./stim/wavs/argentine_mismatch_declarative-broad-focus_Mi-tia-odia-la-lluvia.wav,./stim/wavs/castilian_mismatch_declarative-broad-focus_Mi-tia-odia-la-lluvia.wav,./stim/wavs/chilean_mismatch_declarative-broad-focus_Mi-tia-odia-la-lluvia.wav,./stim/wavs/cuban_mismatch_declarative-broad-focus_Mi-tia-odia-la-lluvia.wav,./stim/wavs/mexican_mismatch_declarative-broad-focus_Mi-tia-odia-la-lluvia.wav,./stim/wavs/peruvian_mismatch_declarative-broad-focus_Mi-tia-odia-la-lluvia.wav,./stim/wavs/puertorican_mismatch_declarative-broad-focus_Mi-tia-odia-la-lluvia.wav,,,,,,,,,,,,,,,,,,,,,,,,,,,,,,,,,,,,,,,,,,,,,,,,,,,,,,,,
,,,,,,,midd04,midd,ma,Colombia,Northeast,13 or older,yes,2021-03-28_09h56.31.643,empathy_intonation_perc,2020.2.10,MacIntel,60,IwAR26xrIzc05Uny94xxvLKclhr0HUXNQar10Tgs6lhCPAafGTxvP0_mO39BM,,,,,,,,,,1,puertorican,1,1,3.834,0,3,3,26,1,27,./stim/wavs/andalusian_match_interrogative-total-yn_David-leia-el-libro.wav,./stim/wavs/argentine_match_interrogative-total-yn_David-leia-el-libro.wav,./stim/wavs/castilian_match_interrogative-total-yn_David-leia-el-libro.wav,./stim/wavs/chilean_match_interrogative-total-yn_David-leia-el-libro.wav,./stim/wavs/cuban_match_interrogative-total-yn_David-leia-el-libro.wav,./stim/wavs/mexican_match_interrogative-total-yn_David-leia-el-libro.wav,./stim/wavs/peruvian_match_interrogative-total-yn_David-leia-el-libro.wav,./stim/wavs/puertorican_match_interrogative-total-yn_David-leia-el-libro.wav,,,,,,,,,,,,,,,,,,,,,,,,,,,,,,,,,,,,,,,,,,,,,,,,,,,,,,,,
,,,,,,,midd04,midd,ma,Colombia,Northeast,13 or older,yes,2021-03-28_09h56.31.643,empathy_intonation_perc,2020.2.10,MacIntel,60,IwAR26xrIzc05Uny94xxvLKclhr0HUXNQar10Tgs6lhCPAafGTxvP0_mO39BM,,,,,,,,,,1,chilean,1,1,3.696,0,4,4,62,1,63,./stim/wavs/andalusian_mismatch_interrogative-total-yn_Mi-novio-viene-del-lago.wav,./stim/wavs/argentine_mismatch_interrogative-total-yn_Mi-novio-viene-del-lago.wav,./stim/wavs/castilian_mismatch_interrogative-total-yn_Mi-novio-viene-del-lago.wav,./stim/wavs/chilean_mismatch_interrogative-total-yn_Mi-novio-viene-del-lago.wav,./stim/wavs/cuban_mismatch_interrogative-total-yn_Mi-novio-viene-del-lago.wav,./stim/wavs/mexican_mismatch_interrogative-total-yn_Mi-novio-viene-del-lago.wav,./stim/wavs/peruvian_mismatch_interrogative-total-yn_Mi-novio-viene-del-lago.wav,./stim/wavs/puertorican_mismatch_interrogative-total-yn_Mi-novio-viene-del-lago.wav,,,,,,,,,,,,,,,,,,,,,,,,,,,,,,,,,,,,,,,,,,,,,,,,,,,,,,,,
,,,,,,,midd04,midd,ma,Colombia,Northeast,13 or older,yes,2021-03-28_09h56.31.643,empathy_intonation_perc,2020.2.10,MacIntel,60,IwAR26xrIzc05Uny94xxvLKclhr0HUXNQar10Tgs6lhCPAafGTxvP0_mO39BM,,,,,,,,,,1,argentine,0,0,3.022,0,5,5,29,1,30,./stim/wavs/andalusian_match_interrogative-total-yn_Maria-bebe-el-vino.wav,./stim/wavs/argentine_match_interrogative-total-yn_Maria-bebe-el-vino.wav,./stim/wavs/castilian_match_interrogative-total-yn_Maria-bebe-el-vino.wav,./stim/wavs/chilean_match_interrogative-total-yn_Maria-bebe-el-vino.wav,./stim/wavs/cuban_match_interrogative-total-yn_Maria-bebe-el-vino.wav,./stim/wavs/mexican_match_interrogative-total-yn_Maria-bebe-el-vino.wav,./stim/wavs/peruvian_match_interrogative-total-yn_Maria-bebe-el-vino.wav,./stim/wavs/puertorican_match_interrogative-total-yn_Maria-bebe-el-vino.wav,,,,,,,,,,,,,,,,,,,,,,,,,,,,,,,,,,,,,,,,,,,,,,,,,,,,,,,,
,,,,,,,midd04,midd,ma,Colombia,Northeast,13 or older,yes,2021-03-28_09h56.31.643,empathy_intonation_perc,2020.2.10,MacIntel,60,IwAR26xrIzc05Uny94xxvLKclhr0HUXNQar10Tgs6lhCPAafGTxvP0_mO39BM,,,,,,,,,,0,cuban,0,1,2.507,0,6,6,41,1,42,./stim/wavs/andalusian_mismatch_declarative-narrow-focus_El-hombre-mira-la-luna.wav,./stim/wavs/argentine_mismatch_declarative-narrow-focus_El-hombre-mira-la-luna.wav,./stim/wavs/castilian_mismatch_declarative-narrow-focus_El-hombre-mira-la-luna.wav,./stim/wavs/chilean_mismatch_declarative-narrow-focus_El-hombre-mira-la-luna.wav,./stim/wavs/cuban_mismatch_declarative-narrow-focus_El-hombre-mira-la-luna.wav,./stim/wavs/mexican_mismatch_declarative-narrow-focus_El-hombre-mira-la-luna.wav,./stim/wavs/peruvian_mismatch_declarative-narrow-focus_El-hombre-mira-la-luna.wav,./stim/wavs/puertorican_mismatch_declarative-narrow-focus_El-hombre-mira-la-luna.wav,,,,,,,,,,,,,,,,,,,,,,,,,,,,,,,,,,,,,,,,,,,,,,,,,,,,,,,,
,,,,,,,midd04,midd,ma,Colombia,Northeast,13 or older,yes,2021-03-28_09h56.31.643,empathy_intonation_perc,2020.2.10,MacIntel,60,IwAR26xrIzc05Uny94xxvLKclhr0HUXNQar10Tgs6lhCPAafGTxvP0_mO39BM,,,,,,,,,,1,peruvian,1,1,4.133,0,7,7,52,1,53,./stim/wavs/andalusian_mismatch_interrogative-partial-wh_Por-que-odiaba-la-lluvia.wav,./stim/wavs/argentine_mismatch_interrogative-partial-wh_Por-que-odiaba-la-lluvia.wav,./stim/wavs/castilian_mismatch_interrogative-partial-wh_Por-que-odiaba-la-lluvia.wav,./stim/wavs/chilean_mismatch_interrogative-partial-wh_Por-que-odiaba-la-lluvia.wav,./stim/wavs/cuban_mismatch_interrogative-partial-wh_Por-que-odiaba-la-lluvia.wav,./stim/wavs/mexican_mismatch_interrogative-partial-wh_Por-que-odiaba-la-lluvia.wav,./stim/wavs/peruvian_mismatch_interrogative-partial-wh_Por-que-odiaba-la-lluvia.wav,./stim/wavs/puertorican_mismatch_interrogative-partial-wh_Por-que-odiaba-la-lluvia.wav,,,,,,,,,,,,,,,,,,,,,,,,,,,,,,,,,,,,,,,,,,,,,,,,,,,,,,,,
,,,,,,,midd04,midd,ma,Colombia,Northeast,13 or older,yes,2021-03-28_09h56.31.643,empathy_intonation_perc,2020.2.10,MacIntel,60,IwAR26xrIzc05Uny94xxvLKclhr0HUXNQar10Tgs6lhCPAafGTxvP0_mO39BM,,,,,,,,,,1,andalusian,1,1,3.331,0,8,8,20,1,21,./stim/wavs/andalusian_match_interrogative-partial-wh_Por-que-abre-el-regalo.wav,./stim/wavs/argentine_match_interrogative-partial-wh_Por-que-abre-el-regalo.wav,./stim/wavs/castilian_match_interrogative-partial-wh_Por-que-abre-el-regalo.wav,./stim/wavs/chilean_match_interrogative-partial-wh_Por-que-abre-el-regalo.wav,./stim/wavs/cuban_match_interrogative-partial-wh_Por-que-abre-el-regalo.wav,./stim/wavs/mexican_match_interrogative-partial-wh_Por-que-abre-el-regalo.wav,./stim/wavs/peruvian_match_interrogative-partial-wh_Por-que-abre-el-regalo.wav,./stim/wavs/puertorican_match_interrogative-partial-wh_Por-que-abre-el-regalo.wav,,,,,,,,,,,,,,,,,,,,,,,,,,,,,,,,,,,,,,,,,,,,,,,,,,,,,,,,
,,,,,,,midd04,midd,ma,Colombia,Northeast,13 or older,yes,2021-03-28_09h56.31.643,empathy_intonation_perc,2020.2.10,MacIntel,60,IwAR26xrIzc05Uny94xxvLKclhr0HUXNQar10Tgs6lhCPAafGTxvP0_mO39BM,,,,,,,,,,0,argentine,0,1,3.717,0,9,9,11,1,12,./stim/wavs/andalusian_match_declarative-narrow-focus_Emilio-ama-la-marcha.wav,./stim/wavs/argentine_match_declarative-narrow-focus_Emilio-ama-la-marcha.wav,./stim/wavs/castilian_match_declarative-narrow-focus_Emilio-ama-la-marcha.wav,./stim/wavs/chilean_match_declarative-narrow-focus_Emilio-ama-la-marcha.wav,./stim/wavs/cuban_match_declarative-narrow-focus_Emilio-ama-la-marcha.wav,./stim/wavs/mexican_match_declarative-narrow-focus_Emilio-ama-la-marcha.wav,./stim/wavs/peruvian_match_declarative-narrow-focus_Emilio-ama-la-marcha.wav,./stim/wavs/puertorican_match_declarative-narrow-focus_Emilio-ama-la-marcha.wav,,,,,,,,,,,,,,,,,,,,,,,,,,,,,,,,,,,,,,,,,,,,,,,,,,,,,,,,
,,,,,,,midd04,midd,ma,Colombia,Northeast,13 or older,yes,2021-03-28_09h56.31.643,empathy_intonation_perc,2020.2.10,MacIntel,60,IwAR26xrIzc05Uny94xxvLKclhr0HUXNQar10Tgs6lhCPAafGTxvP0_mO39BM,,,,,,,,,,1,chilean,1,1,2.241,0,10,10,55,1,56,./stim/wavs/andalusian_mismatch_interrogative-partial-wh_Por-que-vivia-en-Paris.wav,./stim/wavs/argentine_mismatch_interrogative-partial-wh_Por-que-vivia-en-Paris.wav,./stim/wavs/castilian_mismatch_interrogative-partial-wh_Por-que-vivia-en-Paris.wav,./stim/wavs/chilean_mismatch_interrogative-partial-wh_Por-que-vivia-en-Paris.wav,./stim/wavs/cuban_mismatch_interrogative-partial-wh_Por-que-vivia-en-Paris.wav,./stim/wavs/mexican_mismatch_interrogative-partial-wh_Por-que-vivia-en-Paris.wav,./stim/wavs/peruvian_mismatch_interrogative-partial-wh_Por-que-vivia-en-Paris.wav,./stim/wavs/puertorican_mismatch_interrogative-partial-wh_Por-que-vivia-en-Paris.wav,,,,,,,,,,,,,,,,,,,,,,,,,,,,,,,,,,,,,,,,,,,,,,,,,,,,,,,,
,,,,,,,midd04,midd,ma,Colombia,Northeast,13 or older,yes,2021-03-28_09h56.31.643,empathy_intonation_perc,2020.2.10,MacIntel,60,IwAR26xrIzc05Uny94xxvLKclhr0HUXNQar10Tgs6lhCPAafGTxvP0_mO39BM,,,,,,,,,,1,peruvian,1,1,2.176,0,11,11,49,1,50,./stim/wavs/andalusian_mismatch_interrogative-partial-wh_Cuando-lavaba-el-plato.wav,./stim/wavs/argentine_mismatch_interrogative-partial-wh_Cuando-lavaba-el-plato.wav,./stim/wavs/castilian_mismatch_interrogative-partial-wh_Cuando-lavaba-el-plato.wav,./stim/wavs/chilean_mismatch_interrogative-partial-wh_Cuando-lavaba-el-plato.wav,./stim/wavs/cuban_mismatch_interrogative-partial-wh_Cuando-lavaba-el-plato.wav,./stim/wavs/mexican_mismatch_interrogative-partial-wh_Cuando-lavaba-el-plato.wav,./stim/wavs/peruvian_mismatch_interrogative-partial-wh_Cuando-lavaba-el-plato.wav,./stim/wavs/puertorican_mismatch_interrogative-partial-wh_Cuando-lavaba-el-plato.wav,,,,,,,,,,,,,,,,,,,,,,,,,,,,,,,,,,,,,,,,,,,,,,,,,,,,,,,,
,,,,,,,midd04,midd,ma,Colombia,Northeast,13 or older,yes,2021-03-28_09h56.31.643,empathy_intonation_perc,2020.2.10,MacIntel,60,IwAR26xrIzc05Uny94xxvLKclhr0HUXNQar10Tgs6lhCPAafGTxvP0_mO39BM,,,,,,,,,,0,andalusian,0,1,3.176,0,12,12,12,1,13,./stim/wavs/andalusian_match_declarative-narrow-focus_Manuela-vende-el-carro.wav,./stim/wavs/argentine_match_declarative-narrow-focus_Manuela-vende-el-carro.wav,./stim/wavs/castilian_match_declarative-narrow-focus_Manuela-vende-el-carro.wav,./stim/wavs/chilean_match_declarative-narrow-focus_Manuela-vende-el-carro.wav,./stim/wavs/cuban_match_declarative-narrow-focus_Manuela-vende-el-carro.wav,./stim/wavs/mexican_match_declarative-narrow-focus_Manuela-vende-el-carro.wav,./stim/wavs/peruvian_match_declarative-narrow-focus_Manuela-vende-el-carro.wav,./stim/wavs/puertorican_match_declarative-narrow-focus_Manuela-vende-el-carro.wav,,,,,,,,,,,,,,,,,,,,,,,,,,,,,,,,,,,,,,,,,,,,,,,,,,,,,,,,
,,,,,,,midd04,midd,ma,Colombia,Northeast,13 or older,yes,2021-03-28_09h56.31.643,empathy_intonation_perc,2020.2.10,MacIntel,60,IwAR26xrIzc05Uny94xxvLKclhr0HUXNQar10Tgs6lhCPAafGTxvP0_mO39BM,,,,,,,,,,0,andalusian,0,1,2.394,0,13,13,32,1,33,./stim/wavs/andalusian_mismatch_declarative-broad-focus_El-bebe-comia-muy-bien.wav,./stim/wavs/argentine_mismatch_declarative-broad-focus_El-bebe-comia-muy-bien.wav,./stim/wavs/castilian_mismatch_declarative-broad-focus_El-bebe-comia-muy-bien.wav,./stim/wavs/chilean_mismatch_declarative-broad-focus_El-bebe-comia-muy-bien.wav,./stim/wavs/cuban_mismatch_declarative-broad-focus_El-bebe-comia-muy-bien.wav,./stim/wavs/mexican_mismatch_declarative-broad-focus_El-bebe-comia-muy-bien.wav,./stim/wavs/peruvian_mismatch_declarative-broad-focus_El-bebe-comia-muy-bien.wav,./stim/wavs/puertorican_mismatch_declarative-broad-focus_El-bebe-comia-muy-bien.wav,,,,,,,,,,,,,,,,,,,,,,,,,,,,,,,,,,,,,,,,,,,,,,,,,,,,,,,,
,,,,,,,midd04,midd,ma,Colombia,Northeast,13 or older,yes,2021-03-28_09h56.31.643,empathy_intonation_perc,2020.2.10,MacIntel,60,IwAR26xrIzc05Uny94xxvLKclhr0HUXNQar10Tgs6lhCPAafGTxvP0_mO39BM,,,,,,,,,,0,andalusian,0,1,4.114,0,14,14,36,1,37,./stim/wavs/andalusian_mismatch_declarative-broad-focus_La-nina-lava-el-plato.wav,./stim/wavs/argentine_mismatch_declarative-broad-focus_La-nina-lava-el-plato.wav,./stim/wavs/castilian_mismatch_declarative-broad-focus_La-nina-lava-el-plato.wav,./stim/wavs/chilean_mismatch_declarative-broad-focus_La-nina-lava-el-plato.wav,./stim/wavs/cuban_mismatch_declarative-broad-focus_La-nina-lava-el-plato.wav,./stim/wavs/mexican_mismatch_declarative-broad-focus_La-nina-lava-el-plato.wav,./stim/wavs/peruvian_mismatch_declarative-broad-focus_La-nina-lava-el-plato.wav,./stim/wavs/puertorican_mismatch_declarative-broad-focus_La-nina-lava-el-plato.wav,,,,,,,,,,,,,,,,,,,,,,,,,,,,,,,,,,,,,,,,,,,,,,,,,,,,,,,,
,,,,,,,midd04,midd,ma,Colombia,Northeast,13 or older,yes,2021-03-28_09h56.31.643,empathy_intonation_perc,2020.2.10,MacIntel,60,IwAR26xrIzc05Uny94xxvLKclhr0HUXNQar10Tgs6lhCPAafGTxvP0_mO39BM,,,,,,,,,,1,peruvian,1,1,2.613,0,15,15,25,1,26,./stim/wavs/andalusian_match_interrogative-total-yn_Daniel-iba-a-Bolivia.wav,./stim/wavs/argentine_match_interrogative-total-yn_Daniel-iba-a-Bolivia.wav,./stim/wavs/castilian_match_interrogative-total-yn_Daniel-iba-a-Bolivia.wav,./stim/wavs/chilean_match_interrogative-total-yn_Daniel-iba-a-Bolivia.wav,./stim/wavs/cuban_match_interrogative-total-yn_Daniel-iba-a-Bolivia.wav,./stim/wavs/mexican_match_interrogative-total-yn_Daniel-iba-a-Bolivia.wav,./stim/wavs/peruvian_match_interrogative-total-yn_Daniel-iba-a-Bolivia.wav,./stim/wavs/puertorican_match_interrogative-total-yn_Daniel-iba-a-Bolivia.wav,,,,,,,,,,,,,,,,,,,,,,,,,,,,,,,,,,,,,,,,,,,,,,,,,,,,,,,,
,,,,,,,midd04,midd,ma,Colombia,Northeast,13 or older,yes,2021-03-28_09h56.31.643,empathy_intonation_perc,2020.2.10,MacIntel,60,IwAR26xrIzc05Uny94xxvLKclhr0HUXNQar10Tgs6lhCPAafGTxvP0_mO39BM,,,,,,,,,,0,puertorican,0,1,3.149,0,16,16,45,1,46,./stim/wavs/andalusian_mismatch_declarative-narrow-focus_Mi-madre-come-la-fruta.wav,./stim/wavs/argentine_mismatch_declarative-narrow-focus_Mi-madre-come-la-fruta.wav,./stim/wavs/castilian_mismatch_declarative-narrow-focus_Mi-madre-come-la-fruta.wav,./stim/wavs/chilean_mismatch_declarative-narrow-focus_Mi-madre-come-la-fruta.wav,./stim/wavs/cuban_mismatch_declarative-narrow-focus_Mi-madre-come-la-fruta.wav,./stim/wavs/mexican_mismatch_declarative-narrow-focus_Mi-madre-come-la-fruta.wav,./stim/wavs/peruvian_mismatch_declarative-narrow-focus_Mi-madre-come-la-fruta.wav,./stim/wavs/puertorican_mismatch_declarative-narrow-focus_Mi-madre-come-la-fruta.wav,,,,,,,,,,,,,,,,,,,,,,,,,,,,,,,,,,,,,,,,,,,,,,,,,,,,,,,,
,,,,,,,midd04,midd,ma,Colombia,Northeast,13 or older,yes,2021-03-28_09h56.31.643,empathy_intonation_perc,2020.2.10,MacIntel,60,IwAR26xrIzc05Uny94xxvLKclhr0HUXNQar10Tgs6lhCPAafGTxvP0_mO39BM,,,,,,,,,,0,argentine,0,1,3.176,0,17,17,13,1,14,./stim/wavs/andalusian_match_declarative-narrow-focus_Maria-bebe-el-vino.wav,./stim/wavs/argentine_match_declarative-narrow-focus_Maria-bebe-el-vino.wav,./stim/wavs/castilian_match_declarative-narrow-focus_Maria-bebe-el-vino.wav,./stim/wavs/chilean_match_declarative-narrow-focus_Maria-bebe-el-vino.wav,./stim/wavs/cuban_match_declarative-narrow-focus_Maria-bebe-el-vino.wav,./stim/wavs/mexican_match_declarative-narrow-focus_Maria-bebe-el-vino.wav,./stim/wavs/peruvian_match_declarative-narrow-focus_Maria-bebe-el-vino.wav,./stim/wavs/puertorican_match_declarative-narrow-focus_Maria-bebe-el-vino.wav,,,,,,,,,,,,,,,,,,,,,,,,,,,,,,,,,,,,,,,,,,,,,,,,,,,,,,,,
,,,,,,,midd04,midd,ma,Colombia,Northeast,13 or older,yes,2021-03-28_09h56.31.643,empathy_intonation_perc,2020.2.10,MacIntel,60,IwAR26xrIzc05Uny94xxvLKclhr0HUXNQar10Tgs6lhCPAafGTxvP0_mO39BM,,,,,,,,,,0,argentine,0,1,4.888,0,18,18,3,1,4,./stim/wavs/andalusian_match_declarative-broad-focus_Emilio-ama-la-marcha.wav,./stim/wavs/argentine_match_declarative-broad-focus_Emilio-ama-la-marcha.wav,./stim/wavs/castilian_match_declarative-broad-focus_Emilio-ama-la-marcha.wav,./stim/wavs/chilean_match_declarative-broad-focus_Emilio-ama-la-marcha.wav,./stim/wavs/cuban_match_declarative-broad-focus_Emilio-ama-la-marcha.wav,./stim/wavs/mexican_match_declarative-broad-focus_Emilio-ama-la-marcha.wav,./stim/wavs/peruvian_match_declarative-broad-focus_Emilio-ama-la-marcha.wav,./stim/wavs/puertorican_match_declarative-broad-focus_Emilio-ama-la-marcha.wav,,,,,,,,,,,,,,,,,,,,,,,,,,,,,,,,,,,,,,,,,,,,,,,,,,,,,,,,
,,,,,,,midd04,midd,ma,Colombia,Northeast,13 or older,yes,2021-03-28_09h56.31.643,empathy_intonation_perc,2020.2.10,MacIntel,60,IwAR26xrIzc05Uny94xxvLKclhr0HUXNQar10Tgs6lhCPAafGTxvP0_mO39BM,,,,,,,,,,1,cuban,1,1,3.101,0,19,19,24,1,25,./stim/wavs/andalusian_match_interrogative-total-yn_Ana-lleva-el-abrigo.wav,./stim/wavs/argentine_match_interrogative-total-yn_Ana-lleva-el-abrigo.wav,./stim/wavs/castilian_match_interrogative-total-yn_Ana-lleva-el-abrigo.wav,./stim/wavs/chilean_match_interrogative-total-yn_Ana-lleva-el-abrigo.wav,./stim/wavs/cuban_match_interrogative-total-yn_Ana-lleva-el-abrigo.wav,./stim/wavs/mexican_match_interrogative-total-yn_Ana-lleva-el-abrigo.wav,./stim/wavs/peruvian_match_interrogative-total-yn_Ana-lleva-el-abrigo.wav,./stim/wavs/puertorican_match_interrogative-total-yn_Ana-lleva-el-abrigo.wav,,,,,,,,,,,,,,,,,,,,,,,,,,,,,,,,,,,,,,,,,,,,,,,,,,,,,,,,
,,,,,,,midd04,midd,ma,Colombia,Northeast,13 or older,yes,2021-03-28_09h56.31.643,empathy_intonation_perc,2020.2.10,MacIntel,60,IwAR26xrIzc05Uny94xxvLKclhr0HUXNQar10Tgs6lhCPAafGTxvP0_mO39BM,,,,,,,,,,0,andalusian,0,1,3.581,0,20,20,46,1,47,./stim/wavs/andalusian_mismatch_declarative-narrow-focus_Mi-novio-viene-del-lago.wav,./stim/wavs/argentine_mismatch_declarative-narrow-focus_Mi-novio-viene-del-lago.wav,./stim/wavs/castilian_mismatch_declarative-narrow-focus_Mi-novio-viene-del-lago.wav,./stim/wavs/chilean_mismatch_declarative-narrow-focus_Mi-novio-viene-del-lago.wav,./stim/wavs/cuban_mismatch_declarative-narrow-focus_Mi-novio-viene-del-lago.wav,./stim/wavs/mexican_mismatch_declarative-narrow-focus_Mi-novio-viene-del-lago.wav,./stim/wavs/peruvian_mismatch_declarative-narrow-focus_Mi-novio-viene-del-lago.wav,./stim/wavs/puertorican_mismatch_declarative-narrow-focus_Mi-novio-viene-del-lago.wav,,,,,,,,,,,,,,,,,,,,,,,,,,,,,,,,,,,,,,,,,,,,,,,,,,,,,,,,
,,,,,,,midd04,midd,ma,Colombia,Northeast,13 or older,yes,2021-03-28_09h56.31.643,empathy_intonation_perc,2020.2.10,MacIntel,60,IwAR26xrIzc05Uny94xxvLKclhr0HUXNQar10Tgs6lhCPAafGTxvP0_mO39BM,,,,,,,,,,0,chilean,0,1,3.377,0,21,21,44,1,45,./stim/wavs/andalusian_mismatch_declarative-narrow-focus_La-nina-lava-el-plato.wav,./stim/wavs/argentine_mismatch_declarative-narrow-focus_La-nina-lava-el-plato.wav,./stim/wavs/castilian_mismatch_declarative-narrow-focus_La-nina-lava-el-plato.wav,./stim/wavs/chilean_mismatch_declarative-narrow-focus_La-nina-lava-el-plato.wav,./stim/wavs/cuban_mismatch_declarative-narrow-focus_La-nina-lava-el-plato.wav,./stim/wavs/mexican_mismatch_declarative-narrow-focus_La-nina-lava-el-plato.wav,./stim/wavs/peruvian_mismatch_declarative-narrow-focus_La-nina-lava-el-plato.wav,./stim/wavs/puertorican_mismatch_declarative-narrow-focus_La-nina-lava-el-plato.wav,,,,,,,,,,,,,,,,,,,,,,,,,,,,,,,,,,,,,,,,,,,,,,,,,,,,,,,,
,,,,,,,midd04,midd,ma,Colombia,Northeast,13 or older,yes,2021-03-28_09h56.31.643,empathy_intonation_perc,2020.2.10,MacIntel,60,IwAR26xrIzc05Uny94xxvLKclhr0HUXNQar10Tgs6lhCPAafGTxvP0_mO39BM,,,,,,,,,,1,peruvian,1,1,2.612,0,22,22,58,1,59,./stim/wavs/andalusian_mismatch_interrogative-total-yn_El-nino-oye-el-rio.wav,./stim/wavs/argentine_mismatch_interrogative-total-yn_El-nino-oye-el-rio.wav,./stim/wavs/castilian_mismatch_interrogative-total-yn_El-nino-oye-el-rio.wav,./stim/wavs/chilean_mismatch_interrogative-total-yn_El-nino-oye-el-rio.wav,./stim/wavs/cuban_mismatch_interrogative-total-yn_El-nino-oye-el-rio.wav,./stim/wavs/mexican_mismatch_interrogative-total-yn_El-nino-oye-el-rio.wav,./stim/wavs/peruvian_mismatch_interrogative-total-yn_El-nino-oye-el-rio.wav,./stim/wavs/puertorican_mismatch_interrogative-total-yn_El-nino-oye-el-rio.wav,,,,,,,,,,,,,,,,,,,,,,,,,,,,,,,,,,,,,,,,,,,,,,,,,,,,,,,,
,,,,,,,midd04,midd,ma,Colombia,Northeast,13 or older,yes,2021-03-28_09h56.31.643,empathy_intonation_perc,2020.2.10,MacIntel,60,IwAR26xrIzc05Uny94xxvLKclhr0HUXNQar10Tgs6lhCPAafGTxvP0_mO39BM,,,,,,,,,,0,castilian,0,1,3.13,0,23,23,7,1,8,./stim/wavs/andalusian_match_declarative-broad-focus_Marta-abre-el-regalo.wav,./stim/wavs/argentine_match_declarative-broad-focus_Marta-abre-el-regalo.wav,./stim/wavs/castilian_match_declarative-broad-focus_Marta-abre-el-regalo.wav,./stim/wavs/chilean_match_declarative-broad-focus_Marta-abre-el-regalo.wav,./stim/wavs/cuban_match_declarative-broad-focus_Marta-abre-el-regalo.wav,./stim/wavs/mexican_match_declarative-broad-focus_Marta-abre-el-regalo.wav,./stim/wavs/peruvian_match_declarative-broad-focus_Marta-abre-el-regalo.wav,./stim/wavs/puertorican_match_declarative-broad-focus_Marta-abre-el-regalo.wav,,,,,,,,,,,,,,,,,,,,,,,,,,,,,,,,,,,,,,,,,,,,,,,,,,,,,,,,
,,,,,,,midd04,midd,ma,Colombia,Northeast,13 or older,yes,2021-03-28_09h56.31.643,empathy_intonation_perc,2020.2.10,MacIntel,60,IwAR26xrIzc05Uny94xxvLKclhr0HUXNQar10Tgs6lhCPAafGTxvP0_mO39BM,,,,,,,,,,0,castilian,0,1,2.89,0,24,24,1,1,2,./stim/wavs/andalusian_match_declarative-broad-focus_Daniel-iba-a-Bolivia.wav,./stim/wavs/argentine_match_declarative-broad-focus_Daniel-iba-a-Bolivia.wav,./stim/wavs/castilian_match_declarative-broad-focus_Daniel-iba-a-Bolivia.wav,./stim/wavs/chilean_match_declarative-broad-focus_Daniel-iba-a-Bolivia.wav,./stim/wavs/cuban_match_declarative-broad-focus_Daniel-iba-a-Bolivia.wav,./stim/wavs/mexican_match_declarative-broad-focus_Daniel-iba-a-Bolivia.wav,./stim/wavs/peruvian_match_declarative-broad-focus_Daniel-iba-a-Bolivia.wav,./stim/wavs/puertorican_match_declarative-broad-focus_Daniel-iba-a-Bolivia.wav,,,,,,,,,,,,,,,,,,,,,,,,,,,,,,,,,,,,,,,,,,,,,,,,,,,,,,,,
,,,,,,,midd04,midd,ma,Colombia,Northeast,13 or older,yes,2021-03-28_09h56.31.643,empathy_intonation_perc,2020.2.10,MacIntel,60,IwAR26xrIzc05Uny94xxvLKclhr0HUXNQar10Tgs6lhCPAafGTxvP0_mO39BM,,,,,,,,,,1,argentine,1,1,3.158,0,25,25,31,1,32,./stim/wavs/andalusian_match_interrogative-total-yn_Marta-abre-el-regalo.wav,./stim/wavs/argentine_match_interrogative-total-yn_Marta-abre-el-regalo.wav,./stim/wavs/castilian_match_interrogative-total-yn_Marta-abre-el-regalo.wav,./stim/wavs/chilean_match_interrogative-total-yn_Marta-abre-el-regalo.wav,./stim/wavs/cuban_match_interrogative-total-yn_Marta-abre-el-regalo.wav,./stim/wavs/mexican_match_interrogative-total-yn_Marta-abre-el-regalo.wav,./stim/wavs/peruvian_match_interrogative-total-yn_Marta-abre-el-regalo.wav,./stim/wavs/puertorican_match_interrogative-total-yn_Marta-abre-el-regalo.wav,,,,,,,,,,,,,,,,,,,,,,,,,,,,,,,,,,,,,,,,,,,,,,,,,,,,,,,,
,,,,,,,midd04,midd,ma,Colombia,Northeast,13 or older,yes,2021-03-28_09h56.31.643,empathy_intonation_perc,2020.2.10,MacIntel,60,IwAR26xrIzc05Uny94xxvLKclhr0HUXNQar10Tgs6lhCPAafGTxvP0_mO39BM,,,,,,,,,,0,puertorican,0,1,2.022,0,26,26,9,1,10,./stim/wavs/andalusian_match_declarative-narrow-focus_Daniel-iba-a-Bolivia.wav,./stim/wavs/argentine_match_declarative-narrow-focus_Daniel-iba-a-Bolivia.wav,./stim/wavs/castilian_match_declarative-narrow-focus_Daniel-iba-a-Bolivia.wav,./stim/wavs/chilean_match_declarative-narrow-focus_Daniel-iba-a-Bolivia.wav,./stim/wavs/cuban_match_declarative-narrow-focus_Daniel-iba-a-Bolivia.wav,./stim/wavs/mexican_match_declarative-narrow-focus_Daniel-iba-a-Bolivia.wav,./stim/wavs/peruvian_match_declarative-narrow-focus_Daniel-iba-a-Bolivia.wav,./stim/wavs/puertorican_match_declarative-narrow-focus_Daniel-iba-a-Bolivia.wav,,,,,,,,,,,,,,,,,,,,,,,,,,,,,,,,,,,,,,,,,,,,,,,,,,,,,,,,
,,,,,,,midd04,midd,ma,Colombia,Northeast,13 or older,yes,2021-03-28_09h56.31.643,empathy_intonation_perc,2020.2.10,MacIntel,60,IwAR26xrIzc05Uny94xxvLKclhr0HUXNQar10Tgs6lhCPAafGTxvP0_mO39BM,,,,,,,,,,0,argentine,0,1,2.627,0,27,27,2,1,3,./stim/wavs/andalusian_match_declarative-broad-focus_David-leia-el-libro.wav,./stim/wavs/argentine_match_declarative-broad-focus_David-leia-el-libro.wav,./stim/wavs/castilian_match_declarative-broad-focus_David-leia-el-libro.wav,./stim/wavs/chilean_match_declarative-broad-focus_David-leia-el-libro.wav,./stim/wavs/cuban_match_declarative-broad-focus_David-leia-el-libro.wav,./stim/wavs/mexican_match_declarative-broad-focus_David-leia-el-libro.wav,./stim/wavs/peruvian_match_declarative-broad-focus_David-leia-el-libro.wav,./stim/wavs/puertorican_match_declarative-broad-focus_David-leia-el-libro.wav,,,,,,,,,,,,,,,,,,,,,,,,,,,,,,,,,,,,,,,,,,,,,,,,,,,,,,,,
,,,,,,,midd04,midd,ma,Colombia,Northeast,13 or older,yes,2021-03-28_09h56.31.643,empathy_intonation_perc,2020.2.10,MacIntel,60,IwAR26xrIzc05Uny94xxvLKclhr0HUXNQar10Tgs6lhCPAafGTxvP0_mO39BM,,,,,,,,,,0,peruvian,0,1,2.258,0,28,28,15,1,16,./stim/wavs/andalusian_match_declarative-narrow-focus_Marta-abre-el-regalo.wav,./stim/wavs/argentine_match_declarative-narrow-focus_Marta-abre-el-regalo.wav,./stim/wavs/castilian_match_declarative-narrow-focus_Marta-abre-el-regalo.wav,./stim/wavs/chilean_match_declarative-narrow-focus_Marta-abre-el-regalo.wav,./stim/wavs/cuban_match_declarative-narrow-focus_Marta-abre-el-regalo.wav,./stim/wavs/mexican_match_declarative-narrow-focus_Marta-abre-el-regalo.wav,./stim/wavs/peruvian_match_declarative-narrow-focus_Marta-abre-el-regalo.wav,./stim/wavs/puertorican_match_declarative-narrow-focus_Marta-abre-el-regalo.wav,,,,,,,,,,,,,,,,,,,,,,,,,,,,,,,,,,,,,,,,,,,,,,,,,,,,,,,,
,,,,,,,midd04,midd,ma,Colombia,Northeast,13 or older,yes,2021-03-28_09h56.31.643,empathy_intonation_perc,2020.2.10,MacIntel,60,IwAR26xrIzc05Uny94xxvLKclhr0HUXNQar10Tgs6lhCPAafGTxvP0_mO39BM,,,,,,,,,,0,cuban,0,1,4.612,0,29,29,14,1,15,./stim/wavs/andalusian_match_declarative-narrow-focus_Mariano-habla-del-tiempo.wav,./stim/wavs/argentine_match_declarative-narrow-focus_Mariano-habla-del-tiempo.wav,./stim/wavs/castilian_match_declarative-narrow-focus_Mariano-habla-del-tiempo.wav,./stim/wavs/chilean_match_declarative-narrow-focus_Mariano-habla-del-tiempo.wav,./stim/wavs/cuban_match_declarative-narrow-focus_Mariano-habla-del-tiempo.wav,./stim/wavs/mexican_match_declarative-narrow-focus_Mariano-habla-del-tiempo.wav,./stim/wavs/peruvian_match_declarative-narrow-focus_Mariano-habla-del-tiempo.wav,./stim/wavs/puertorican_match_declarative-narrow-focus_Mariano-habla-del-tiempo.wav,,,,,,,,,,,,,,,,,,,,,,,,,,,,,,,,,,,,,,,,,,,,,,,,,,,,,,,,
,,,,,,,midd04,midd,ma,Colombia,Northeast,13 or older,yes,2021-03-28_09h56.31.643,empathy_intonation_perc,2020.2.10,MacIntel,60,IwAR26xrIzc05Uny94xxvLKclhr0HUXNQar10Tgs6lhCPAafGTxvP0_mO39BM,,,,,,,,,,0,argentine,0,1,2.393,0,30,30,10,1,11,./stim/wavs/andalusian_match_declarative-narrow-focus_David-leia-el-libro.wav,./stim/wavs/argentine_match_declarative-narrow-focus_David-leia-el-libro.wav,./stim/wavs/castilian_match_declarative-narrow-focus_David-leia-el-libro.wav,./stim/wavs/chilean_match_declarative-narrow-focus_David-leia-el-libro.wav,./stim/wavs/cuban_match_declarative-narrow-focus_David-leia-el-libro.wav,./stim/wavs/mexican_match_declarative-narrow-focus_David-leia-el-libro.wav,./stim/wavs/peruvian_match_declarative-narrow-focus_David-leia-el-libro.wav,./stim/wavs/puertorican_match_declarative-narrow-focus_David-leia-el-libro.wav,,,,,,,,,,,,,,,,,,,,,,,,,,,,,,,,,,,,,,,,,,,,,,,,,,,,,,,,
,,,,,,,midd04,midd,ma,Colombia,Northeast,13 or older,yes,2021-03-28_09h56.31.643,empathy_intonation_perc,2020.2.10,MacIntel,60,IwAR26xrIzc05Uny94xxvLKclhr0HUXNQar10Tgs6lhCPAafGTxvP0_mO39BM,,,,,,,,,,0,argentine,0,1,5.851,0,31,31,35,1,36,./stim/wavs/andalusian_mismatch_declarative-broad-focus_La-maestra-vive-en-Paris.wav,./stim/wavs/argentine_mismatch_declarative-broad-focus_La-maestra-vive-en-Paris.wav,./stim/wavs/castilian_mismatch_declarative-broad-focus_La-maestra-vive-en-Paris.wav,./stim/wavs/chilean_mismatch_declarative-broad-focus_La-maestra-vive-en-Paris.wav,./stim/wavs/cuban_mismatch_declarative-broad-focus_La-maestra-vive-en-Paris.wav,./stim/wavs/mexican_mismatch_declarative-broad-focus_La-maestra-vive-en-Paris.wav,./stim/wavs/peruvian_mismatch_declarative-broad-focus_La-maestra-vive-en-Paris.wav,./stim/wavs/puertorican_mismatch_declarative-broad-focus_La-maestra-vive-en-Paris.wav,,,,,,,,,,,,,,,,,,,,,,,,,,,,,,,,,,,,,,,,,,,,,,,,,,,,,,,,
,,,,,,,midd04,midd,ma,Colombia,Northeast,13 or older,yes,2021-03-28_09h56.31.643,empathy_intonation_perc,2020.2.10,MacIntel,60,IwAR26xrIzc05Uny94xxvLKclhr0HUXNQar10Tgs6lhCPAafGTxvP0_mO39BM,,,,,,,,,,1,andalusian,1,1,2.478,0,32,32,54,1,55,./stim/wavs/andalusian_mismatch_interrogative-partial-wh_Por-que-venia-del-lago.wav,./stim/wavs/argentine_mismatch_interrogative-partial-wh_Por-que-venia-del-lago.wav,./stim/wavs/castilian_mismatch_interrogative-partial-wh_Por-que-venia-del-lago.wav,./stim/wavs/chilean_mismatch_interrogative-partial-wh_Por-que-venia-del-lago.wav,./stim/wavs/cuban_mismatch_interrogative-partial-wh_Por-que-venia-del-lago.wav,./stim/wavs/mexican_mismatch_interrogative-partial-wh_Por-que-venia-del-lago.wav,./stim/wavs/peruvian_mismatch_interrogative-partial-wh_Por-que-venia-del-lago.wav,./stim/wavs/puertorican_mismatch_interrogative-partial-wh_Por-que-venia-del-lago.wav,,,,,,,,,,,,,,,,,,,,,,,,,,,,,,,,,,,,,,,,,,,,,,,,,,,,,,,,
,,,,,,,midd04,midd,ma,Colombia,Northeast,13 or older,yes,2021-03-28_09h56.31.643,empathy_intonation_perc,2020.2.10,MacIntel,60,IwAR26xrIzc05Uny94xxvLKclhr0HUXNQar10Tgs6lhCPAafGTxvP0_mO39BM,,,,,,,,,,1,argentine,1,1,1.74,0,33,33,53,1,54,./stim/wavs/andalusian_mismatch_interrogative-partial-wh_Por-que-oia-el-rio.wav,./stim/wavs/argentine_mismatch_interrogative-partial-wh_Por-que-oia-el-rio.wav,./stim/wavs/castilian_mismatch_interrogative-partial-wh_Por-que-oia-el-rio.wav,./stim/wavs/chilean_mismatch_interrogative-partial-wh_Por-que-oia-el-rio.wav,./stim/wavs/cuban_mismatch_interrogative-partial-wh_Por-que-oia-el-rio.wav,./stim/wavs/mexican_mismatch_interrogative-partial-wh_Por-que-oia-el-rio.wav,./stim/wavs/peruvian_mismatch_interrogative-partial-wh_Por-que-oia-el-rio.wav,./stim/wavs/puertorican_mismatch_interrogative-partial-wh_Por-que-oia-el-rio.wav,,,,,,,,,,,,,,,,,,,,,,,,,,,,,,,,,,,,,,,,,,,,,,,,,,,,,,,,
,,,,,,,midd04,midd,ma,Colombia,Northeast,13 or older,yes,2021-03-28_09h56.31.643,empathy_intonation_perc,2020.2.10,MacIntel,60,IwAR26xrIzc05Uny94xxvLKclhr0HUXNQar10Tgs6lhCPAafGTxvP0_mO39BM,,,,,,,,,,0,castilian,0,1,3.995,0,34,34,8,1,9,./stim/wavs/andalusian_match_declarative-narrow-focus_Ana-lleva-el-abrigo.wav,./stim/wavs/argentine_match_declarative-narrow-focus_Ana-lleva-el-abrigo.wav,./stim/wavs/castilian_match_declarative-narrow-focus_Ana-lleva-el-abrigo.wav,./stim/wavs/chilean_match_declarative-narrow-focus_Ana-lleva-el-abrigo.wav,./stim/wavs/cuban_match_declarative-narrow-focus_Ana-lleva-el-abrigo.wav,./stim/wavs/mexican_match_declarative-narrow-focus_Ana-lleva-el-abrigo.wav,./stim/wavs/peruvian_match_declarative-narrow-focus_Ana-lleva-el-abrigo.wav,./stim/wavs/puertorican_match_declarative-narrow-focus_Ana-lleva-el-abrigo.wav,,,,,,,,,,,,,,,,,,,,,,,,,,,,,,,,,,,,,,,,,,,,,,,,,,,,,,,,
,,,,,,,midd04,midd,ma,Colombia,Northeast,13 or older,yes,2021-03-28_09h56.31.643,empathy_intonation_perc,2020.2.10,MacIntel,60,IwAR26xrIzc05Uny94xxvLKclhr0HUXNQar10Tgs6lhCPAafGTxvP0_mO39BM,,,,,,,,,,1,argentine,0,0,2.907,0,35,35,63,1,64,./stim/wavs/andalusian_mismatch_interrogative-total-yn_Mi-tia-odia-la-lluvia.wav,./stim/wavs/argentine_mismatch_interrogative-total-yn_Mi-tia-odia-la-lluvia.wav,./stim/wavs/castilian_mismatch_interrogative-total-yn_Mi-tia-odia-la-lluvia.wav,./stim/wavs/chilean_mismatch_interrogative-total-yn_Mi-tia-odia-la-lluvia.wav,./stim/wavs/cuban_mismatch_interrogative-total-yn_Mi-tia-odia-la-lluvia.wav,./stim/wavs/mexican_mismatch_interrogative-total-yn_Mi-tia-odia-la-lluvia.wav,./stim/wavs/peruvian_mismatch_interrogative-total-yn_Mi-tia-odia-la-lluvia.wav,./stim/wavs/puertorican_mismatch_interrogative-total-yn_Mi-tia-odia-la-lluvia.wav,,,,,,,,,,,,,,,,,,,,,,,,,,,,,,,,,,,,,,,,,,,,,,,,,,,,,,,,
,,,,,,,midd04,midd,ma,Colombia,Northeast,13 or older,yes,2021-03-28_09h56.31.643,empathy_intonation_perc,2020.2.10,MacIntel,60,IwAR26xrIzc05Uny94xxvLKclhr0HUXNQar10Tgs6lhCPAafGTxvP0_mO39BM,,,,,,,,,,0,castilian,0,1,2.816,0,36,36,37,1,38,./stim/wavs/andalusian_mismatch_declarative-broad-focus_Mi-madre-come-la-fruta.wav,./stim/wavs/argentine_mismatch_declarative-broad-focus_Mi-madre-come-la-fruta.wav,./stim/wavs/castilian_mismatch_declarative-broad-focus_Mi-madre-come-la-fruta.wav,./stim/wavs/chilean_mismatch_declarative-broad-focus_Mi-madre-come-la-fruta.wav,./stim/wavs/cuban_mismatch_declarative-broad-focus_Mi-madre-come-la-fruta.wav,./stim/wavs/mexican_mismatch_declarative-broad-focus_Mi-madre-come-la-fruta.wav,./stim/wavs/peruvian_mismatch_declarative-broad-focus_Mi-madre-come-la-fruta.wav,./stim/wavs/puertorican_mismatch_declarative-broad-focus_Mi-madre-come-la-fruta.wav,,,,,,,,,,,,,,,,,,,,,,,,,,,,,,,,,,,,,,,,,,,,,,,,,,,,,,,,
,,,,,,,midd04,midd,ma,Colombia,Northeast,13 or older,yes,2021-03-28_09h56.31.643,empathy_intonation_perc,2020.2.10,MacIntel,60,IwAR26xrIzc05Uny94xxvLKclhr0HUXNQar10Tgs6lhCPAafGTxvP0_mO39BM,,,,,,,,,,1,castilian,1,1,2.222,0,37,37,61,1,62,./stim/wavs/andalusian_mismatch_interrogative-total-yn_Mi-madre-come-la-fruta.wav,./stim/wavs/argentine_mismatch_interrogative-total-yn_Mi-madre-come-la-fruta.wav,./stim/wavs/castilian_mismatch_interrogative-total-yn_Mi-madre-come-la-fruta.wav,./stim/wavs/chilean_mismatch_interrogative-total-yn_Mi-madre-come-la-fruta.wav,./stim/wavs/cuban_mismatch_interrogative-total-yn_Mi-madre-come-la-fruta.wav,./stim/wavs/mexican_mismatch_interrogative-total-yn_Mi-madre-come-la-fruta.wav,./stim/wavs/peruvian_mismatch_interrogative-total-yn_Mi-madre-come-la-fruta.wav,./stim/wavs/puertorican_mismatch_interrogative-total-yn_Mi-madre-come-la-fruta.wav,,,,,,,,,,,,,,,,,,,,,,,,,,,,,,,,,,,,,,,,,,,,,,,,,,,,,,,,
,,,,,,,midd04,midd,ma,Colombia,Northeast,13 or older,yes,2021-03-28_09h56.31.643,empathy_intonation_perc,2020.2.10,MacIntel,60,IwAR26xrIzc05Uny94xxvLKclhr0HUXNQar10Tgs6lhCPAafGTxvP0_mO39BM,,,,,,,,,,1,mexican,1,1,2.109,0,38,38,27,1,28,./stim/wavs/andalusian_match_interrogative-total-yn_Emilio-ama-la-marcha.wav,./stim/wavs/argentine_match_interrogative-total-yn_Emilio-ama-la-marcha.wav,./stim/wavs/castilian_match_interrogative-total-yn_Emilio-ama-la-marcha.wav,./stim/wavs/chilean_match_interrogative-total-yn_Emilio-ama-la-marcha.wav,./stim/wavs/cuban_match_interrogative-total-yn_Emilio-ama-la-marcha.wav,./stim/wavs/mexican_match_interrogative-total-yn_Emilio-ama-la-marcha.wav,./stim/wavs/peruvian_match_interrogative-total-yn_Emilio-ama-la-marcha.wav,./stim/wavs/puertorican_match_interrogative-total-yn_Emilio-ama-la-marcha.wav,,,,,,,,,,,,,,,,,,,,,,,,,,,,,,,,,,,,,,,,,,,,,,,,,,,,,,,,
,,,,,,,midd04,midd,ma,Colombia,Northeast,13 or older,yes,2021-03-28_09h56.31.643,empathy_intonation_perc,2020.2.10,MacIntel,60,IwAR26xrIzc05Uny94xxvLKclhr0HUXNQar10Tgs6lhCPAafGTxvP0_mO39BM,,,,,,,,,,1,castilian,1,1,2.226,0,39,39,50,1,51,./stim/wavs/andalusian_mismatch_interrogative-partial-wh_Cuando-miraba-la-luna.wav,./stim/wavs/argentine_mismatch_interrogative-partial-wh_Cuando-miraba-la-luna.wav,./stim/wavs/castilian_mismatch_interrogative-partial-wh_Cuando-miraba-la-luna.wav,./stim/wavs/chilean_mismatch_interrogative-partial-wh_Cuando-miraba-la-luna.wav,./stim/wavs/cuban_mismatch_interrogative-partial-wh_Cuando-miraba-la-luna.wav,./stim/wavs/mexican_mismatch_interrogative-partial-wh_Cuando-miraba-la-luna.wav,./stim/wavs/peruvian_mismatch_interrogative-partial-wh_Cuando-miraba-la-luna.wav,./stim/wavs/puertorican_mismatch_interrogative-partial-wh_Cuando-miraba-la-luna.wav,,,,,,,,,,,,,,,,,,,,,,,,,,,,,,,,,,,,,,,,,,,,,,,,,,,,,,,,
,,,,,,,midd04,midd,ma,Colombia,Northeast,13 or older,yes,2021-03-28_09h56.31.643,empathy_intonation_perc,2020.2.10,MacIntel,60,IwAR26xrIzc05Uny94xxvLKclhr0HUXNQar10Tgs6lhCPAafGTxvP0_mO39BM,,,,,,,,,,1,castilian,1,1,2.413,0,40,40,30,1,31,./stim/wavs/andalusian_match_interrogative-total-yn_Mariano-habla-del-tiempo.wav,./stim/wavs/argentine_match_interrogative-total-yn_Mariano-habla-del-tiempo.wav,./stim/wavs/castilian_match_interrogative-total-yn_Mariano-habla-del-tiempo.wav,./stim/wavs/chilean_match_interrogative-total-yn_Mariano-habla-del-tiempo.wav,./stim/wavs/cuban_match_interrogative-total-yn_Mariano-habla-del-tiempo.wav,./stim/wavs/mexican_match_interrogative-total-yn_Mariano-habla-del-tiempo.wav,./stim/wavs/peruvian_match_interrogative-total-yn_Mariano-habla-del-tiempo.wav,./stim/wavs/puertorican_match_interrogative-total-yn_Mariano-habla-del-tiempo.wav,,,,,,,,,,,,,,,,,,,,,,,,,,,,,,,,,,,,,,,,,,,,,,,,,,,,,,,,
,,,,,,,midd04,midd,ma,Colombia,Northeast,13 or older,yes,2021-03-28_09h56.31.643,empathy_intonation_perc,2020.2.10,MacIntel,60,IwAR26xrIzc05Uny94xxvLKclhr0HUXNQar10Tgs6lhCPAafGTxvP0_mO39BM,,,,,,,,,,0,argentine,0,1,2.244,0,41,41,40,1,41,./stim/wavs/andalusian_mismatch_declarative-narrow-focus_El-bebe-comia-muy-bien.wav,./stim/wavs/argentine_mismatch_declarative-narrow-focus_El-bebe-comia-muy-bien.wav,./stim/wavs/castilian_mismatch_declarative-narrow-focus_El-bebe-comia-muy-bien.wav,./stim/wavs/chilean_mismatch_declarative-narrow-focus_El-bebe-comia-muy-bien.wav,./stim/wavs/cuban_mismatch_declarative-narrow-focus_El-bebe-comia-muy-bien.wav,./stim/wavs/mexican_mismatch_declarative-narrow-focus_El-bebe-comia-muy-bien.wav,./stim/wavs/peruvian_mismatch_declarative-narrow-focus_El-bebe-comia-muy-bien.wav,./stim/wavs/puertorican_mismatch_declarative-narrow-focus_El-bebe-comia-muy-bien.wav,,,,,,,,,,,,,,,,,,,,,,,,,,,,,,,,,,,,,,,,,,,,,,,,,,,,,,,,
,,,,,,,midd04,midd,ma,Colombia,Northeast,13 or older,yes,2021-03-28_09h56.31.643,empathy_intonation_perc,2020.2.10,MacIntel,60,IwAR26xrIzc05Uny94xxvLKclhr0HUXNQar10Tgs6lhCPAafGTxvP0_mO39BM,,,,,,,,,,1,cuban,0,0,2.241,0,42,42,48,1,49,./stim/wavs/andalusian_mismatch_interrogative-partial-wh_Cuando-comia-la-fruta.wav,./stim/wavs/argentine_mismatch_interrogative-partial-wh_Cuando-comia-la-fruta.wav,./stim/wavs/castilian_mismatch_interrogative-partial-wh_Cuando-comia-la-fruta.wav,./stim/wavs/chilean_mismatch_interrogative-partial-wh_Cuando-comia-la-fruta.wav,./stim/wavs/cuban_mismatch_interrogative-partial-wh_Cuando-comia-la-fruta.wav,./stim/wavs/mexican_mismatch_interrogative-partial-wh_Cuando-comia-la-fruta.wav,./stim/wavs/peruvian_mismatch_interrogative-partial-wh_Cuando-comia-la-fruta.wav,./stim/wavs/puertorican_mismatch_interrogative-partial-wh_Cuando-comia-la-fruta.wav,,,,,,,,,,,,,,,,,,,,,,,,,,,,,,,,,,,,,,,,,,,,,,,,,,,,,,,,
,,,,,,,midd04,midd,ma,Colombia,Northeast,13 or older,yes,2021-03-28_09h56.31.643,empathy_intonation_perc,2020.2.10,MacIntel,60,IwAR26xrIzc05Uny94xxvLKclhr0HUXNQar10Tgs6lhCPAafGTxvP0_mO39BM,,,,,,,,,,0,cuban,0,1,2.295,0,43,43,42,1,43,./stim/wavs/andalusian_mismatch_declarative-narrow-focus_El-nino-oye-el-rio.wav,./stim/wavs/argentine_mismatch_declarative-narrow-focus_El-nino-oye-el-rio.wav,./stim/wavs/castilian_mismatch_declarative-narrow-focus_El-nino-oye-el-rio.wav,./stim/wavs/chilean_mismatch_declarative-narrow-focus_El-nino-oye-el-rio.wav,./stim/wavs/cuban_mismatch_declarative-narrow-focus_El-nino-oye-el-rio.wav,./stim/wavs/mexican_mismatch_declarative-narrow-focus_El-nino-oye-el-rio.wav,./stim/wavs/peruvian_mismatch_declarative-narrow-focus_El-nino-oye-el-rio.wav,./stim/wavs/puertorican_mismatch_declarative-narrow-focus_El-nino-oye-el-rio.wav,,,,,,,,,,,,,,,,,,,,,,,,,,,,,,,,,,,,,,,,,,,,,,,,,,,,,,,,
,,,,,,,midd04,midd,ma,Colombia,Northeast,13 or older,yes,2021-03-28_09h56.31.643,empathy_intonation_perc,2020.2.10,MacIntel,60,IwAR26xrIzc05Uny94xxvLKclhr0HUXNQar10Tgs6lhCPAafGTxvP0_mO39BM,,,,,,,,,,1,castilian,1,1,2.174,0,44,44,17,1,18,./stim/wavs/andalusian_match_interrogative-partial-wh_Cuando-leia-el-libro.wav,./stim/wavs/argentine_match_interrogative-partial-wh_Cuando-leia-el-libro.wav,./stim/wavs/castilian_match_interrogative-partial-wh_Cuando-leia-el-libro.wav,./stim/wavs/chilean_match_interrogative-partial-wh_Cuando-leia-el-libro.wav,./stim/wavs/cuban_match_interrogative-partial-wh_Cuando-leia-el-libro.wav,./stim/wavs/mexican_match_interrogative-partial-wh_Cuando-leia-el-libro.wav,./stim/wavs/peruvian_match_interrogative-partial-wh_Cuando-leia-el-libro.wav,./stim/wavs/puertorican_match_interrogative-partial-wh_Cuando-leia-el-libro.wav,,,,,,,,,,,,,,,,,,,,,,,,,,,,,,,,,,,,,,,,,,,,,,,,,,,,,,,,
,,,,,,,midd04,midd,ma,Colombia,Northeast,13 or older,yes,2021-03-28_09h56.31.643,empathy_intonation_perc,2020.2.10,MacIntel,60,IwAR26xrIzc05Uny94xxvLKclhr0HUXNQar10Tgs6lhCPAafGTxvP0_mO39BM,,,,,,,,,,0,mexican,0,1,2.528,0,45,45,6,1,7,./stim/wavs/andalusian_match_declarative-broad-focus_Mariano-habla-del-tiempo.wav,./stim/wavs/argentine_match_declarative-broad-focus_Mariano-habla-del-tiempo.wav,./stim/wavs/castilian_match_declarative-broad-focus_Mariano-habla-del-tiempo.wav,./stim/wavs/chilean_match_declarative-broad-focus_Mariano-habla-del-tiempo.wav,./stim/wavs/cuban_match_declarative-broad-focus_Mariano-habla-del-tiempo.wav,./stim/wavs/mexican_match_declarative-broad-focus_Mariano-habla-del-tiempo.wav,./stim/wavs/peruvian_match_declarative-broad-focus_Mariano-habla-del-tiempo.wav,./stim/wavs/puertorican_match_declarative-broad-focus_Mariano-habla-del-tiempo.wav,,,,,,,,,,,,,,,,,,,,,,,,,,,,,,,,,,,,,,,,,,,,,,,,,,,,,,,,
,,,,,,,midd04,midd,ma,Colombia,Northeast,13 or older,yes,2021-03-28_09h56.31.643,empathy_intonation_perc,2020.2.10,MacIntel,60,IwAR26xrIzc05Uny94xxvLKclhr0HUXNQar10Tgs6lhCPAafGTxvP0_mO39BM,,,,,,,,,,0,peruvian,0,1,2.331,0,46,46,34,1,35,./stim/wavs/andalusian_mismatch_declarative-broad-focus_El-nino-oye-el-rio.wav,./stim/wavs/argentine_mismatch_declarative-broad-focus_El-nino-oye-el-rio.wav,./stim/wavs/castilian_mismatch_declarative-broad-focus_El-nino-oye-el-rio.wav,./stim/wavs/chilean_mismatch_declarative-broad-focus_El-nino-oye-el-rio.wav,./stim/wavs/cuban_mismatch_declarative-broad-focus_El-nino-oye-el-rio.wav,./stim/wavs/mexican_mismatch_declarative-broad-focus_El-nino-oye-el-rio.wav,./stim/wavs/peruvian_mismatch_declarative-broad-focus_El-nino-oye-el-rio.wav,./stim/wavs/puertorican_mismatch_declarative-broad-focus_El-nino-oye-el-rio.wav,,,,,,,,,,,,,,,,,,,,,,,,,,,,,,,,,,,,,,,,,,,,,,,,,,,,,,,,
,,,,,,,midd04,midd,ma,Colombia,Northeast,13 or older,yes,2021-03-28_09h56.31.643,empathy_intonation_perc,2020.2.10,MacIntel,60,IwAR26xrIzc05Uny94xxvLKclhr0HUXNQar10Tgs6lhCPAafGTxvP0_mO39BM,,,,,,,,,,1,andalusian,1,1,2.361,0,47,47,28,1,29,./stim/wavs/andalusian_match_interrogative-total-yn_Manuela-vende-el-carro.wav,./stim/wavs/argentine_match_interrogative-total-yn_Manuela-vende-el-carro.wav,./stim/wavs/castilian_match_interrogative-total-yn_Manuela-vende-el-carro.wav,./stim/wavs/chilean_match_interrogative-total-yn_Manuela-vende-el-carro.wav,./stim/wavs/cuban_match_interrogative-total-yn_Manuela-vende-el-carro.wav,./stim/wavs/mexican_match_interrogative-total-yn_Manuela-vende-el-carro.wav,./stim/wavs/peruvian_match_interrogative-total-yn_Manuela-vende-el-carro.wav,./stim/wavs/puertorican_match_interrogative-total-yn_Manuela-vende-el-carro.wav,,,,,,,,,,,,,,,,,,,,,,,,,,,,,,,,,,,,,,,,,,,,,,,,,,,,,,,,
,,,,,,,midd04,midd,ma,Colombia,Northeast,13 or older,yes,2021-03-28_09h56.31.643,empathy_intonation_perc,2020.2.10,MacIntel,60,IwAR26xrIzc05Uny94xxvLKclhr0HUXNQar10Tgs6lhCPAafGTxvP0_mO39BM,,,,,,,,,,1,castilian,1,1,2.497,0,48,48,18,1,19,./stim/wavs/andalusian_match_interrogative-partial-wh_Cuando-lleva-el-abrigo.wav,./stim/wavs/argentine_match_interrogative-partial-wh_Cuando-lleva-el-abrigo.wav,./stim/wavs/castilian_match_interrogative-partial-wh_Cuando-lleva-el-abrigo.wav,./stim/wavs/chilean_match_interrogative-partial-wh_Cuando-lleva-el-abrigo.wav,./stim/wavs/cuban_match_interrogative-partial-wh_Cuando-lleva-el-abrigo.wav,./stim/wavs/mexican_match_interrogative-partial-wh_Cuando-lleva-el-abrigo.wav,./stim/wavs/peruvian_match_interrogative-partial-wh_Cuando-lleva-el-abrigo.wav,./stim/wavs/puertorican_match_interrogative-partial-wh_Cuando-lleva-el-abrigo.wav,,,,,,,,,,,,,,,,,,,,,,,,,,,,,,,,,,,,,,,,,,,,,,,,,,,,,,,,
,,,,,,,midd04,midd,ma,Colombia,Northeast,13 or older,yes,2021-03-28_09h56.31.643,empathy_intonation_perc,2020.2.10,MacIntel,60,IwAR26xrIzc05Uny94xxvLKclhr0HUXNQar10Tgs6lhCPAafGTxvP0_mO39BM,,,,,,,,,,1,puertorican,1,1,2.611,0,49,49,22,1,23,./stim/wavs/andalusian_match_interrogative-partial-wh_Por-que-hablaba-del-agua.wav,./stim/wavs/argentine_match_interrogative-partial-wh_Por-que-hablaba-del-agua.wav,./stim/wavs/castilian_match_interrogative-partial-wh_Por-que-hablaba-del-agua.wav,./stim/wavs/chilean_match_interrogative-partial-wh_Por-que-hablaba-del-agua.wav,./stim/wavs/cuban_match_interrogative-partial-wh_Por-que-hablaba-del-agua.wav,./stim/wavs/mexican_match_interrogative-partial-wh_Por-que-hablaba-del-agua.wav,./stim/wavs/peruvian_match_interrogative-partial-wh_Por-que-hablaba-del-agua.wav,./stim/wavs/puertorican_match_interrogative-partial-wh_Por-que-hablaba-del-agua.wav,,,,,,,,,,,,,,,,,,,,,,,,,,,,,,,,,,,,,,,,,,,,,,,,,,,,,,,,
,,,,,,,midd04,midd,ma,Colombia,Northeast,13 or older,yes,2021-03-28_09h56.31.643,empathy_intonation_perc,2020.2.10,MacIntel,60,IwAR26xrIzc05Uny94xxvLKclhr0HUXNQar10Tgs6lhCPAafGTxvP0_mO39BM,,,,,,,,,,1,peruvian,1,1,2.726,0,50,50,56,1,57,./stim/wavs/andalusian_mismatch_interrogative-total-yn_El-bebe-comia-muy-bien.wav,./stim/wavs/argentine_mismatch_interrogative-total-yn_El-bebe-comia-muy-bien.wav,./stim/wavs/castilian_mismatch_interrogative-total-yn_El-bebe-comia-muy-bien.wav,./stim/wavs/chilean_mismatch_interrogative-total-yn_El-bebe-comia-muy-bien.wav,./stim/wavs/cuban_mismatch_interrogative-total-yn_El-bebe-comia-muy-bien.wav,./stim/wavs/mexican_mismatch_interrogative-total-yn_El-bebe-comia-muy-bien.wav,./stim/wavs/peruvian_mismatch_interrogative-total-yn_El-bebe-comia-muy-bien.wav,./stim/wavs/puertorican_mismatch_interrogative-total-yn_El-bebe-comia-muy-bien.wav,,,,,,,,,,,,,,,,,,,,,,,,,,,,,,,,,,,,,,,,,,,,,,,,,,,,,,,,
,,,,,,,midd04,midd,ma,Colombia,Northeast,13 or older,yes,2021-03-28_09h56.31.643,empathy_intonation_perc,2020.2.10,MacIntel,60,IwAR26xrIzc05Uny94xxvLKclhr0HUXNQar10Tgs6lhCPAafGTxvP0_mO39BM,,,,,,,,,,0,chilean,0,1,3.699,0,51,51,47,1,48,./stim/wavs/andalusian_mismatch_declarative-narrow-focus_Mi-tia-odia-la-lluvia.wav,./stim/wavs/argentine_mismatch_declarative-narrow-focus_Mi-tia-odia-la-lluvia.wav,./stim/wavs/castilian_mismatch_declarative-narrow-focus_Mi-tia-odia-la-lluvia.wav,./stim/wavs/chilean_mismatch_declarative-narrow-focus_Mi-tia-odia-la-lluvia.wav,./stim/wavs/cuban_mismatch_declarative-narrow-focus_Mi-tia-odia-la-lluvia.wav,./stim/wavs/mexican_mismatch_declarative-narrow-focus_Mi-tia-odia-la-lluvia.wav,./stim/wavs/peruvian_mismatch_declarative-narrow-focus_Mi-tia-odia-la-lluvia.wav,./stim/wavs/puertorican_mismatch_declarative-narrow-focus_Mi-tia-odia-la-lluvia.wav,,,,,,,,,,,,,,,,,,,,,,,,,,,,,,,,,,,,,,,,,,,,,,,,,,,,,,,,
,,,,,,,midd04,midd,ma,Colombia,Northeast,13 or older,yes,2021-03-28_09h56.31.643,empathy_intonation_perc,2020.2.10,MacIntel,60,IwAR26xrIzc05Uny94xxvLKclhr0HUXNQar10Tgs6lhCPAafGTxvP0_mO39BM,,,,,,,,,,0,mexican,0,1,2.583,0,52,52,33,1,34,./stim/wavs/andalusian_mismatch_declarative-broad-focus_El-hombre-mira-la-luna.wav,./stim/wavs/argentine_mismatch_declarative-broad-focus_El-hombre-mira-la-luna.wav,./stim/wavs/castilian_mismatch_declarative-broad-focus_El-hombre-mira-la-luna.wav,./stim/wavs/chilean_mismatch_declarative-broad-focus_El-hombre-mira-la-luna.wav,./stim/wavs/cuban_mismatch_declarative-broad-focus_El-hombre-mira-la-luna.wav,./stim/wavs/mexican_mismatch_declarative-broad-focus_El-hombre-mira-la-luna.wav,./stim/wavs/peruvian_mismatch_declarative-broad-focus_El-hombre-mira-la-luna.wav,./stim/wavs/puertorican_mismatch_declarative-broad-focus_El-hombre-mira-la-luna.wav,,,,,,,,,,,,,,,,,,,,,,,,,,,,,,,,,,,,,,,,,,,,,,,,,,,,,,,,
,,,,,,,midd04,midd,ma,Colombia,Northeast,13 or older,yes,2021-03-28_09h56.31.643,empathy_intonation_perc,2020.2.10,MacIntel,60,IwAR26xrIzc05Uny94xxvLKclhr0HUXNQar10Tgs6lhCPAafGTxvP0_mO39BM,,,,,,,,,,0,cuban,0,1,2.042,0,53,53,43,1,44,./stim/wavs/andalusian_mismatch_declarative-narrow-focus_La-maestra-vive-en-Paris.wav,./stim/wavs/argentine_mismatch_declarative-narrow-focus_La-maestra-vive-en-Paris.wav,./stim/wavs/castilian_mismatch_declarative-narrow-focus_La-maestra-vive-en-Paris.wav,./stim/wavs/chilean_mismatch_declarative-narrow-focus_La-maestra-vive-en-Paris.wav,./stim/wavs/cuban_mismatch_declarative-narrow-focus_La-maestra-vive-en-Paris.wav,./stim/wavs/mexican_mismatch_declarative-narrow-focus_La-maestra-vive-en-Paris.wav,./stim/wavs/peruvian_mismatch_declarative-narrow-focus_La-maestra-vive-en-Paris.wav,./stim/wavs/puertorican_mismatch_declarative-narrow-focus_La-maestra-vive-en-Paris.wav,,,,,,,,,,,,,,,,,,,,,,,,,,,,,,,,,,,,,,,,,,,,,,,,,,,,,,,,
,,,,,,,midd04,midd,ma,Colombia,Northeast,13 or older,yes,2021-03-28_09h56.31.643,empathy_intonation_perc,2020.2.10,MacIntel,60,IwAR26xrIzc05Uny94xxvLKclhr0HUXNQar10Tgs6lhCPAafGTxvP0_mO39BM,,,,,,,,,,0,peruvian,0,1,2.189,0,54,54,5,1,6,./stim/wavs/andalusian_match_declarative-broad-focus_Maria-bebe-el-vino.wav,./stim/wavs/argentine_match_declarative-broad-focus_Maria-bebe-el-vino.wav,./stim/wavs/castilian_match_declarative-broad-focus_Maria-bebe-el-vino.wav,./stim/wavs/chilean_match_declarative-broad-focus_Maria-bebe-el-vino.wav,./stim/wavs/cuban_match_declarative-broad-focus_Maria-bebe-el-vino.wav,./stim/wavs/mexican_match_declarative-broad-focus_Maria-bebe-el-vino.wav,./stim/wavs/peruvian_match_declarative-broad-focus_Maria-bebe-el-vino.wav,./stim/wavs/puertorican_match_declarative-broad-focus_Maria-bebe-el-vino.wav,,,,,,,,,,,,,,,,,,,,,,,,,,,,,,,,,,,,,,,,,,,,,,,,,,,,,,,,
,,,,,,,midd04,midd,ma,Colombia,Northeast,13 or older,yes,2021-03-28_09h56.31.643,empathy_intonation_perc,2020.2.10,MacIntel,60,IwAR26xrIzc05Uny94xxvLKclhr0HUXNQar10Tgs6lhCPAafGTxvP0_mO39BM,,,,,,,,,,1,cuban,1,1,2.192,0,55,55,16,1,17,./stim/wavs/andalusian_match_interrogative-partial-wh_Cuando-bebia-el-vino.wav,./stim/wavs/argentine_match_interrogative-partial-wh_Cuando-bebia-el-vino.wav,./stim/wavs/castilian_match_interrogative-partial-wh_Cuando-bebia-el-vino.wav,./stim/wavs/chilean_match_interrogative-partial-wh_Cuando-bebia-el-vino.wav,./stim/wavs/cuban_match_interrogative-partial-wh_Cuando-bebia-el-vino.wav,./stim/wavs/mexican_match_interrogative-partial-wh_Cuando-bebia-el-vino.wav,./stim/wavs/peruvian_match_interrogative-partial-wh_Cuando-bebia-el-vino.wav,./stim/wavs/puertorican_match_interrogative-partial-wh_Cuando-bebia-el-vino.wav,,,,,,,,,,,,,,,,,,,,,,,,,,,,,,,,,,,,,,,,,,,,,,,,,,,,,,,,
,,,,,,,midd04,midd,ma,Colombia,Northeast,13 or older,yes,2021-03-28_09h56.31.643,empathy_intonation_perc,2020.2.10,MacIntel,60,IwAR26xrIzc05Uny94xxvLKclhr0HUXNQar10Tgs6lhCPAafGTxvP0_mO39BM,,,,,,,,,,1,cuban,1,1,2.196,0,56,56,21,1,22,./stim/wavs/andalusian_match_interrogative-partial-wh_Por-que-ama-la-navidad.wav,./stim/wavs/argentine_match_interrogative-partial-wh_Por-que-ama-la-navidad.wav,./stim/wavs/castilian_match_interrogative-partial-wh_Por-que-ama-la-navidad.wav,./stim/wavs/chilean_match_interrogative-partial-wh_Por-que-ama-la-navidad.wav,./stim/wavs/cuban_match_interrogative-partial-wh_Por-que-ama-la-navidad.wav,./stim/wavs/mexican_match_interrogative-partial-wh_Por-que-ama-la-navidad.wav,./stim/wavs/peruvian_match_interrogative-partial-wh_Por-que-ama-la-navidad.wav,./stim/wavs/puertorican_match_interrogative-partial-wh_Por-que-ama-la-navidad.wav,,,,,,,,,,,,,,,,,,,,,,,,,,,,,,,,,,,,,,,,,,,,,,,,,,,,,,,,
,,,,,,,midd04,midd,ma,Colombia,Northeast,13 or older,yes,2021-03-28_09h56.31.643,empathy_intonation_perc,2020.2.10,MacIntel,60,IwAR26xrIzc05Uny94xxvLKclhr0HUXNQar10Tgs6lhCPAafGTxvP0_mO39BM,,,,,,,,,,0,andalusian,0,1,2.642,0,57,57,4,1,5,./stim/wavs/andalusian_match_declarative-broad-focus_Manuela-vende-el-carro.wav,./stim/wavs/argentine_match_declarative-broad-focus_Manuela-vende-el-carro.wav,./stim/wavs/castilian_match_declarative-broad-focus_Manuela-vende-el-carro.wav,./stim/wavs/chilean_match_declarative-broad-focus_Manuela-vende-el-carro.wav,./stim/wavs/cuban_match_declarative-broad-focus_Manuela-vende-el-carro.wav,./stim/wavs/mexican_match_declarative-broad-focus_Manuela-vende-el-carro.wav,./stim/wavs/peruvian_match_declarative-broad-focus_Manuela-vende-el-carro.wav,./stim/wavs/puertorican_match_declarative-broad-focus_Manuela-vende-el-carro.wav,,,,,,,,,,,,,,,,,,,,,,,,,,,,,,,,,,,,,,,,,,,,,,,,,,,,,,,,
,,,,,,,midd04,midd,ma,Colombia,Northeast,13 or older,yes,2021-03-28_09h56.31.643,empathy_intonation_perc,2020.2.10,MacIntel,60,IwAR26xrIzc05Uny94xxvLKclhr0HUXNQar10Tgs6lhCPAafGTxvP0_mO39BM,,,,,,,,,,1,puertorican,0,0,2.91,0,58,58,51,1,52,./stim/wavs/andalusian_mismatch_interrogative-partial-wh_Por-que-desayuna-muy-bien.wav,./stim/wavs/argentine_mismatch_interrogative-partial-wh_Por-que-desayuna-muy-bien.wav,./stim/wavs/castilian_mismatch_interrogative-partial-wh_Por-que-desayuna-muy-bien.wav,./stim/wavs/chilean_mismatch_interrogative-partial-wh_Por-que-desayuna-muy-bien.wav,./stim/wavs/cuban_mismatch_interrogative-partial-wh_Por-que-desayuna-muy-bien.wav,./stim/wavs/mexican_mismatch_interrogative-partial-wh_Por-que-desayuna-muy-bien.wav,./stim/wavs/peruvian_mismatch_interrogative-partial-wh_Por-que-desayuna-muy-bien.wav,./stim/wavs/puertorican_mismatch_interrogative-partial-wh_Por-que-desayuna-muy-bien.wav,,,,,,,,,,,,,,,,,,,,,,,,,,,,,,,,,,,,,,,,,,,,,,,,,,,,,,,,
,,,,,,,midd04,midd,ma,Colombia,Northeast,13 or older,yes,2021-03-28_09h56.31.643,empathy_intonation_perc,2020.2.10,MacIntel,60,IwAR26xrIzc05Uny94xxvLKclhr0HUXNQar10Tgs6lhCPAafGTxvP0_mO39BM,,,,,,,,,,1,mexican,1,1,1.727,0,59,59,19,1,20,./stim/wavs/andalusian_match_interrogative-partial-wh_Cuando-vendia-el-carro.wav,./stim/wavs/argentine_match_interrogative-partial-wh_Cuando-vendia-el-carro.wav,./stim/wavs/castilian_match_interrogative-partial-wh_Cuando-vendia-el-carro.wav,./stim/wavs/chilean_match_interrogative-partial-wh_Cuando-vendia-el-carro.wav,./stim/wavs/cuban_match_interrogative-partial-wh_Cuando-vendia-el-carro.wav,./stim/wavs/mexican_match_interrogative-partial-wh_Cuando-vendia-el-carro.wav,./stim/wavs/peruvian_match_interrogative-partial-wh_Cuando-vendia-el-carro.wav,./stim/wavs/puertorican_match_interrogative-partial-wh_Cuando-vendia-el-carro.wav,,,,,,,,,,,,,,,,,,,,,,,,,,,,,,,,,,,,,,,,,,,,,,,,,,,,,,,,
,,,,,,,midd04,midd,ma,Colombia,Northeast,13 or older,yes,2021-03-28_09h56.31.643,empathy_intonation_perc,2020.2.10,MacIntel,60,IwAR26xrIzc05Uny94xxvLKclhr0HUXNQar10Tgs6lhCPAafGTxvP0_mO39BM,,,,,,,,,,0,cuban,0,1,3.127,0,60,60,0,1,1,./stim/wavs/andalusian_match_declarative-broad-focus_Ana-lleva-el-abrigo.wav,./stim/wavs/argentine_match_declarative-broad-focus_Ana-lleva-el-abrigo.wav,./stim/wavs/castilian_match_declarative-broad-focus_Ana-lleva-el-abrigo.wav,./stim/wavs/chilean_match_declarative-broad-focus_Ana-lleva-el-abrigo.wav,./stim/wavs/cuban_match_declarative-broad-focus_Ana-lleva-el-abrigo.wav,./stim/wavs/mexican_match_declarative-broad-focus_Ana-lleva-el-abrigo.wav,./stim/wavs/peruvian_match_declarative-broad-focus_Ana-lleva-el-abrigo.wav,./stim/wavs/puertorican_match_declarative-broad-focus_Ana-lleva-el-abrigo.wav,,,,,,,,,,,,,,,,,,,,,,,,,,,,,,,,,,,,,,,,,,,,,,,,,,,,,,,,
,,,,,,,midd04,midd,ma,Colombia,Northeast,13 or older,yes,2021-03-28_09h56.31.643,empathy_intonation_perc,2020.2.10,MacIntel,60,IwAR26xrIzc05Uny94xxvLKclhr0HUXNQar10Tgs6lhCPAafGTxvP0_mO39BM,,,,,,,,,,1,argentine,1,1,3.135,0,61,61,23,1,24,./stim/wavs/andalusian_match_interrogative-partial-wh_Por-que-iba-a-Bolivia.wav,./stim/wavs/argentine_match_interrogative-partial-wh_Por-que-iba-a-Bolivia.wav,./stim/wavs/castilian_match_interrogative-partial-wh_Por-que-iba-a-Bolivia.wav,./stim/wavs/chilean_match_interrogative-partial-wh_Por-que-iba-a-Bolivia.wav,./stim/wavs/cuban_match_interrogative-partial-wh_Por-que-iba-a-Bolivia.wav,./stim/wavs/mexican_match_interrogative-partial-wh_Por-que-iba-a-Bolivia.wav,./stim/wavs/peruvian_match_interrogative-partial-wh_Por-que-iba-a-Bolivia.wav,./stim/wavs/puertorican_match_interrogative-partial-wh_Por-que-iba-a-Bolivia.wav,,,,,,,,,,,,,,,,,,,,,,,,,,,,,,,,,,,,,,,,,,,,,,,,,,,,,,,,
,,,,,,,midd04,midd,ma,Colombia,Northeast,13 or older,yes,2021-03-28_09h56.31.643,empathy_intonation_perc,2020.2.10,MacIntel,60,IwAR26xrIzc05Uny94xxvLKclhr0HUXNQar10Tgs6lhCPAafGTxvP0_mO39BM,,,,,,,,,,0,castilian,0,1,3.433,0,62,62,38,1,39,./stim/wavs/andalusian_mismatch_declarative-broad-focus_Mi-novio-viene-del-lago.wav,./stim/wavs/argentine_mismatch_declarative-broad-focus_Mi-novio-viene-del-lago.wav,./stim/wavs/castilian_mismatch_declarative-broad-focus_Mi-novio-viene-del-lago.wav,./stim/wavs/chilean_mismatch_declarative-broad-focus_Mi-novio-viene-del-lago.wav,./stim/wavs/cuban_mismatch_declarative-broad-focus_Mi-novio-viene-del-lago.wav,./stim/wavs/mexican_mismatch_declarative-broad-focus_Mi-novio-viene-del-lago.wav,./stim/wavs/peruvian_mismatch_declarative-broad-focus_Mi-novio-viene-del-lago.wav,./stim/wavs/puertorican_mismatch_declarative-broad-focus_Mi-novio-viene-del-lago.wav,,,,,,,,,,,,,,,,,,,,,,,,,,,,,,,,,,,,,,,,,,,,,,,,,,,,,,,,
,,,,,,,midd04,midd,ma,Colombia,Northeast,13 or older,yes,2021-03-28_09h56.31.643,empathy_intonation_perc,2020.2.10,MacIntel,60,IwAR26xrIzc05Uny94xxvLKclhr0HUXNQar10Tgs6lhCPAafGTxvP0_mO39BM,,,,,,,,,,1,chilean,0,0,1.78,0,63,63,57,1,58,./stim/wavs/andalusian_mismatch_interrogative-total-yn_El-hombre-mira-la-luna.wav,./stim/wavs/argentine_mismatch_interrogative-total-yn_El-hombre-mira-la-luna.wav,./stim/wavs/castilian_mismatch_interrogative-total-yn_El-hombre-mira-la-luna.wav,./stim/wavs/chilean_mismatch_interrogative-total-yn_El-hombre-mira-la-luna.wav,./stim/wavs/cuban_mismatch_interrogative-total-yn_El-hombre-mira-la-luna.wav,./stim/wavs/mexican_mismatch_interrogative-total-yn_El-hombre-mira-la-luna.wav,./stim/wavs/peruvian_mismatch_interrogative-total-yn_El-hombre-mira-la-luna.wav,./stim/wavs/puertorican_mismatch_interrogative-total-yn_El-hombre-mira-la-luna.wav,,,,,,,,,,,,,,,,,,,,,,,,,,,,,,,,,,,,,,,,,,,,,,,,,,,,,,,,
,,,,,,,midd04,midd,ma,Colombia,Northeast,13 or older,yes,2021-03-28_09h56.31.643,empathy_intonation_perc,2020.2.10,MacIntel,60,IwAR26xrIzc05Uny94xxvLKclhr0HUXNQar10Tgs6lhCPAafGTxvP0_mO39BM,,,,,,,,,,,,,,,,,,,,,,,,,,,,,h,1,12.9,0,0,0,0,1,,,,,,,,,,,,,,,,,,,,,,,,,,,,,,,,,,,,,,,,,,,,,,,,
,,,,,"Great! Now we will move on. The next task consists of about 60 trials, in each of which you will see a string of letters. 
  
  Your task is to decide whether this is a real Spanish word or not.",(press the spacebar to continue),midd04,midd,ma,Colombia,Northeast,13 or older,yes,2021-03-28_09h56.31.643,empathy_intonation_perc,2020.2.10,MacIntel,60,IwAR26xrIzc05Uny94xxvLKclhr0HUXNQar10Tgs6lhCPAafGTxvP0_mO39BM,,,,,,,,,,,,,,,,,,,,,,,,,,,,,,,,,,,,,0,0,0,0,1,,,,,,,,,,,,,,,,,,,,,,,,,,,,,,,,,,,,,,,,,,,
,,,,,"If you think it is an existing Spanish word, you type '1' (for 'REAL'), and if you think it is not an existing Spanish word, you type '0' (for 'FAKE').",(press the spacebar to continue),midd04,midd,ma,Colombia,Northeast,13 or older,yes,2021-03-28_09h56.31.643,empathy_intonation_perc,2020.2.10,MacIntel,60,IwAR26xrIzc05Uny94xxvLKclhr0HUXNQar10Tgs6lhCPAafGTxvP0_mO39BM,,,,,,,,,,,,,,,,,,,,,,,,,,,,,,,,,,,,,0,1,1,1,1,,,,,,,,,,,,,,,,,,,,,,,,,,,,,,,,,,,,,,,,,,,
,,,,,"If you are sure that the word exists, even though you dont know its exact meaning, you may still respond '1' (REAL). 
  
  But if you are not sure if it is an existing word, you should respond '0' (FAKE).
  
  Let's do a practice round...",(press the spacebar to continue),midd04,midd,ma,Colombia,Northeast,13 or older,yes,2021-03-28_09h56.31.643,empathy_intonation_perc,2020.2.10,MacIntel,60,IwAR26xrIzc05Uny94xxvLKclhr0HUXNQar10Tgs6lhCPAafGTxvP0_mO39BM,,,,,,,,,,,,,,,,,,,,,,,,,,,,,,,,,,,,,0,2,2,2,1,,,,,,,,,,,,,,,,,,,,,,,,,,,,,,,,,,,,,,,,,,,
,,,,,,,midd04,midd,ma,Colombia,Northeast,13 or older,yes,2021-03-28_09h56.31.643,empathy_intonation_perc,2020.2.10,MacIntel,60,IwAR26xrIzc05Uny94xxvLKclhr0HUXNQar10Tgs6lhCPAafGTxvP0_mO39BM,,,,,,,,,,0,,,,,,,,,,,,,,,,,,,,,,,,,,,,,,,,0,1,10.137,0,0,0,0,1,0,depiste,REAL,FAKE,,,,,,,,,,,,,,,,,,,,,,,,,,,,,,,
,,,,,,,midd04,midd,ma,Colombia,Northeast,13 or older,yes,2021-03-28_09h56.31.643,empathy_intonation_perc,2020.2.10,MacIntel,60,IwAR26xrIzc05Uny94xxvLKclhr0HUXNQar10Tgs6lhCPAafGTxvP0_mO39BM,,,,,,,,,,1,,,,,,,,,,,,,,,,,,,,,,,,,,,,,,,,1,1,2.443,0,1,1,1,1,0,s,REAL,FAKE,,,,,,,,,,,,,,,,,,,,,,,,,,,,,,,
,,,,,,,midd04,midd,ma,Colombia,Northeast,13 or older,yes,2021-03-28_09h56.31.643,empathy_intonation_perc,2020.2.10,MacIntel,60,IwAR26xrIzc05Uny94xxvLKclhr0HUXNQar10Tgs6lhCPAafGTxvP0_mO39BM,,,,,,,,,,0,,,,,,,,,,,,,,,,,,,,,,,,,,,,,,,,0,1,2.657,0,2,2,2,1,0,con,REAL,FAKE,,,,,,,,,,,,,,,,,,,,,,,,,,,,,,,
,,,,,,,midd04,midd,ma,Colombia,Northeast,13 or older,yes,2021-03-28_09h56.31.643,empathy_intonation_perc,2020.2.10,MacIntel,60,IwAR26xrIzc05Uny94xxvLKclhr0HUXNQar10Tgs6lhCPAafGTxvP0_mO39BM,,,,,,,,,,0,,,,,,,,,,,,,,,,,,,,,,,,,,,,,,,,1,0,3.559,0,3,3,3,1,0,calpar,REAL,FAKE,,,,,,,,,,,,,,,,,,,,,,,,,,,,,,,
,,,,,,,midd04,midd,ma,Colombia,Northeast,13 or older,yes,2021-03-28_09h56.31.643,empathy_intonation_perc,2020.2.10,MacIntel,60,IwAR26xrIzc05Uny94xxvLKclhr0HUXNQar10Tgs6lhCPAafGTxvP0_mO39BM,,,,,,,,,,0,,,,,,,,,,,,,,,,,,,,,,,,,,,,,,,,0,1,4.666,0,4,4,4,1,0,joten,REAL,FAKE,,,,,,,,,,,,,,,,,,,,,,,,,,,,,,,
,,,,,,,midd04,midd,ma,Colombia,Northeast,13 or older,yes,2021-03-28_09h56.31.643,empathy_intonation_perc,2020.2.10,MacIntel,60,IwAR26xrIzc05Uny94xxvLKclhr0HUXNQar10Tgs6lhCPAafGTxvP0_mO39BM,,,,,,,,,,1,,,,,,,,,,,,,,,,,,,,,,,,,,,,,,,,1,1,3.547,0,5,5,5,1,0,sacapuntas,REAL,FAKE,,,,,,,,,,,,,,,,,,,,,,,,,,,,,,,
,,,,,,,midd04,midd,ma,Colombia,Northeast,13 or older,yes,2021-03-28_09h56.31.643,empathy_intonation_perc,2020.2.10,MacIntel,60,IwAR26xrIzc05Uny94xxvLKclhr0HUXNQar10Tgs6lhCPAafGTxvP0_mO39BM,,,,,,,,,,0,,,,,,,,,,,,,,,,,,,,,,,,,,,,,,,,0,1,2.629,0,6,6,6,1,0,priba,REAL,FAKE,,,,,,,,,,,,,,,,,,,,,,,,,,,,,,,
,,,,,,,midd04,midd,ma,Colombia,Northeast,13 or older,yes,2021-03-28_09h56.31.643,empathy_intonation_perc,2020.2.10,MacIntel,60,IwAR26xrIzc05Uny94xxvLKclhr0HUXNQar10Tgs6lhCPAafGTxvP0_mO39BM,,,,,,,,,,0,,,,,,,,,,,,,,,,,,,,,,,,,,,,,,,,1,0,4.066,0,7,7,7,1,0,pelasula,REAL,FAKE,,,,,,,,,,,,,,,,,,,,,,,,,,,,,,,
,,,,,,,midd04,midd,ma,Colombia,Northeast,13 or older,yes,2021-03-28_09h56.31.643,empathy_intonation_perc,2020.2.10,MacIntel,60,IwAR26xrIzc05Uny94xxvLKclhr0HUXNQar10Tgs6lhCPAafGTxvP0_mO39BM,,,,,,,,,,1,,,,,,,,,,,,,,,,,,,,,,,,,,,,,,,,1,1,2.108,0,8,8,8,1,0,bien,REAL,FAKE,,,,,,,,,,,,,,,,,,,,,,,,,,,,,,,
,,,,,,,midd04,midd,ma,Colombia,Northeast,13 or older,yes,2021-03-28_09h56.31.643,empathy_intonation_perc,2020.2.10,MacIntel,60,IwAR26xrIzc05Uny94xxvLKclhr0HUXNQar10Tgs6lhCPAafGTxvP0_mO39BM,,,,,,,,,,1,,,,,,,,,,,,,,,,,,,,,,,,,,,,,,,,1,1,1.621,0,9,9,9,1,0,casa,REAL,FAKE,,,,,,,,,,,,,,,,,,,,,,,,,,,,,,,
,,,,,,,midd04,midd,ma,Colombia,Northeast,13 or older,yes,2021-03-28_09h56.31.643,empathy_intonation_perc,2020.2.10,MacIntel,60,IwAR26xrIzc05Uny94xxvLKclhr0HUXNQar10Tgs6lhCPAafGTxvP0_mO39BM,,,,,,,,,,0,,,,,,,,,,,,,,,,,,,,,,,,,,,,,,,,0,1,2.488,0,10,10,10,1,0,lejo,REAL,FAKE,,,,,,,,,,,,,,,,,,,,,,,,,,,,,,,
,,,,,,,midd04,midd,ma,Colombia,Northeast,13 or older,yes,2021-03-28_09h56.31.643,empathy_intonation_perc,2020.2.10,MacIntel,60,IwAR26xrIzc05Uny94xxvLKclhr0HUXNQar10Tgs6lhCPAafGTxvP0_mO39BM,,,,,,,,,,0,,,,,,,,,,,,,,,,,,,,,,,,,,,,,,,,0,1,3.144,0,11,11,11,1,0,pretantas,REAL,FAKE,,,,,,,,,,,,,,,,,,,,,,,,,,,,,,,
,,,,,,,midd04,midd,ma,Colombia,Northeast,13 or older,yes,2021-03-28_09h56.31.643,empathy_intonation_perc,2020.2.10,MacIntel,60,IwAR26xrIzc05Uny94xxvLKclhr0HUXNQar10Tgs6lhCPAafGTxvP0_mO39BM,,,,,,,,,,1,,,,,,,,,,,,,,,,,,,,,,,,,,,,,,,,,,,,,,,,12,asesinato,,,1,1,2.945,0,0,0,11,1,REAL,FAKE,,,,,,,,,,,,,,,,,,,,,
,,,,,,,midd04,midd,ma,Colombia,Northeast,13 or older,yes,2021-03-28_09h56.31.643,empathy_intonation_perc,2020.2.10,MacIntel,60,IwAR26xrIzc05Uny94xxvLKclhr0HUXNQar10Tgs6lhCPAafGTxvP0_mO39BM,,,,,,,,,,1,,,,,,,,,,,,,,,,,,,,,,,,,,,,,,,,,,,,,,,,14,yunque,,,1,1,1.945,0,1,1,13,1,REAL,FAKE,,,,,,,,,,,,,,,,,,,,,
,,,,,,,midd04,midd,ma,Colombia,Northeast,13 or older,yes,2021-03-28_09h56.31.643,empathy_intonation_perc,2020.2.10,MacIntel,60,IwAR26xrIzc05Uny94xxvLKclhr0HUXNQar10Tgs6lhCPAafGTxvP0_mO39BM,,,,,,,,,,0,,,,,,,,,,,,,,,,,,,,,,,,,,,,,,,,,,,,,,,,84,escuto,,,1,0,5.984,0,2,2,83,1,REAL,FAKE,,,,,,,,,,,,,,,,,,,,,
,,,,,,,midd04,midd,ma,Colombia,Northeast,13 or older,yes,2021-03-28_09h56.31.643,empathy_intonation_perc,2020.2.10,MacIntel,60,IwAR26xrIzc05Uny94xxvLKclhr0HUXNQar10Tgs6lhCPAafGTxvP0_mO39BM,,,,,,,,,,1,,,,,,,,,,,,,,,,,,,,,,,,,,,,,,,,,,,,,,,,36,loro,,,1,1,2.178,0,3,3,35,1,REAL,FAKE,,,,,,,,,,,,,,,,,,,,,
,,,,,,,midd04,midd,ma,Colombia,Northeast,13 or older,yes,2021-03-28_09h56.31.643,empathy_intonation_perc,2020.2.10,MacIntel,60,IwAR26xrIzc05Uny94xxvLKclhr0HUXNQar10Tgs6lhCPAafGTxvP0_mO39BM,,,,,,,,,,0,,,,,,,,,,,,,,,,,,,,,,,,,,,,,,,,,,,,,,,,74,cintro,,,0,1,10.032,0,4,4,73,1,REAL,FAKE,,,,,,,,,,,,,,,,,,,,,
,,,,,,,midd04,midd,ma,Colombia,Northeast,13 or older,yes,2021-03-28_09h56.31.643,empathy_intonation_perc,2020.2.10,MacIntel,60,IwAR26xrIzc05Uny94xxvLKclhr0HUXNQar10Tgs6lhCPAafGTxvP0_mO39BM,,,,,,,,,,1,,,,,,,,,,,,,,,,,,,,,,,,,,,,,,,,,,,,,,,,80,hormiga,,,1,1,1.741,0,5,5,79,1,REAL,FAKE,,,,,,,,,,,,,,,,,,,,,
,,,,,,,midd04,midd,ma,Colombia,Northeast,13 or older,yes,2021-03-28_09h56.31.643,empathy_intonation_perc,2020.2.10,MacIntel,60,IwAR26xrIzc05Uny94xxvLKclhr0HUXNQar10Tgs6lhCPAafGTxvP0_mO39BM,,,,,,,,,,1,,,,,,,,,,,,,,,,,,,,,,,,,,,,,,,,,,,,,,,,59,besar,,,1,1,1.343,0,6,6,58,1,REAL,FAKE,,,,,,,,,,,,,,,,,,,,,
,,,,,,,midd04,midd,ma,Colombia,Northeast,13 or older,yes,2021-03-28_09h56.31.643,empathy_intonation_perc,2020.2.10,MacIntel,60,IwAR26xrIzc05Uny94xxvLKclhr0HUXNQar10Tgs6lhCPAafGTxvP0_mO39BM,,,,,,,,,,0,,,,,,,,,,,,,,,,,,,,,,,,,,,,,,,,,,,,,,,,63,esposante,,,0,1,3.546,0,7,7,62,1,REAL,FAKE,,,,,,,,,,,,,,,,,,,,,
,,,,,,,midd04,midd,ma,Colombia,Northeast,13 or older,yes,2021-03-28_09h56.31.643,empathy_intonation_perc,2020.2.10,MacIntel,60,IwAR26xrIzc05Uny94xxvLKclhr0HUXNQar10Tgs6lhCPAafGTxvP0_mO39BM,,,,,,,,,,1,,,,,,,,,,,,,,,,,,,,,,,,,,,,,,,,,,,,,,,,64,orgulloso,,,1,1,1.64,0,8,8,63,1,REAL,FAKE,,,,,,,,,,,,,,,,,,,,,
,,,,,,,midd04,midd,ma,Colombia,Northeast,13 or older,yes,2021-03-28_09h56.31.643,empathy_intonation_perc,2020.2.10,MacIntel,60,IwAR26xrIzc05Uny94xxvLKclhr0HUXNQar10Tgs6lhCPAafGTxvP0_mO39BM,,,,,,,,,,1,,,,,,,,,,,,,,,,,,,,,,,,,,,,,,,,,,,,,,,,46,martillo,,,1,1,1.505,0,9,9,45,1,REAL,FAKE,,,,,,,,,,,,,,,,,,,,,
,,,,,,,midd04,midd,ma,Colombia,Northeast,13 or older,yes,2021-03-28_09h56.31.643,empathy_intonation_perc,2020.2.10,MacIntel,60,IwAR26xrIzc05Uny94xxvLKclhr0HUXNQar10Tgs6lhCPAafGTxvP0_mO39BM,,,,,,,,,,1,,,,,,,,,,,,,,,,,,,,,,,,,,,,,,,,,,,,,,,,88,acantilado,,,1,1,2.562,0,10,10,87,1,REAL,FAKE,,,,,,,,,,,,,,,,,,,,,
,,,,,,,midd04,midd,ma,Colombia,Northeast,13 or older,yes,2021-03-28_09h56.31.643,empathy_intonation_perc,2020.2.10,MacIntel,60,IwAR26xrIzc05Uny94xxvLKclhr0HUXNQar10Tgs6lhCPAafGTxvP0_mO39BM,,,,,,,,,,0,,,,,,,,,,,,,,,,,,,,,,,,,,,,,,,,,,,,,,,,30,alardio,,,1,0,3.241,0,11,11,29,1,REAL,FAKE,,,,,,,,,,,,,,,,,,,,,
,,,,,,,midd04,midd,ma,Colombia,Northeast,13 or older,yes,2021-03-28_09h56.31.643,empathy_intonation_perc,2020.2.10,MacIntel,60,IwAR26xrIzc05Uny94xxvLKclhr0HUXNQar10Tgs6lhCPAafGTxvP0_mO39BM,,,,,,,,,,1,,,,,,,,,,,,,,,,,,,,,,,,,,,,,,,,,,,,,,,,13,helar,,,1,1,1.919,0,12,12,12,1,REAL,FAKE,,,,,,,,,,,,,,,,,,,,,
,,,,,,,midd04,midd,ma,Colombia,Northeast,13 or older,yes,2021-03-28_09h56.31.643,empathy_intonation_perc,2020.2.10,MacIntel,60,IwAR26xrIzc05Uny94xxvLKclhr0HUXNQar10Tgs6lhCPAafGTxvP0_mO39BM,,,,,,,,,,0,,,,,,,,,,,,,,,,,,,,,,,,,,,,,,,,,,,,,,,,82,empirador,,,0,1,3.013,0,13,13,81,1,REAL,FAKE,,,,,,,,,,,,,,,,,,,,,
,,,,,,,midd04,midd,ma,Colombia,Northeast,13 or older,yes,2021-03-28_09h56.31.643,empathy_intonation_perc,2020.2.10,MacIntel,60,IwAR26xrIzc05Uny94xxvLKclhr0HUXNQar10Tgs6lhCPAafGTxvP0_mO39BM,,,,,,,,,,1,,,,,,,,,,,,,,,,,,,,,,,,,,,,,,,,,,,,,,,,60,matar,,,1,1,1.429,0,14,14,59,1,REAL,FAKE,,,,,,,,,,,,,,,,,,,,,
,,,,,,,midd04,midd,ma,Colombia,Northeast,13 or older,yes,2021-03-28_09h56.31.643,empathy_intonation_perc,2020.2.10,MacIntel,60,IwAR26xrIzc05Uny94xxvLKclhr0HUXNQar10Tgs6lhCPAafGTxvP0_mO39BM,,,,,,,,,,1,,,,,,,,,,,,,,,,,,,,,,,,,,,,,,,,,,,,,,,,55,nevar,,,1,1,1.444,0,15,15,54,1,REAL,FAKE,,,,,,,,,,,,,,,,,,,,,
,,,,,,,midd04,midd,ma,Colombia,Northeast,13 or older,yes,2021-03-28_09h56.31.643,empathy_intonation_perc,2020.2.10,MacIntel,60,IwAR26xrIzc05Uny94xxvLKclhr0HUXNQar10Tgs6lhCPAafGTxvP0_mO39BM,,,,,,,,,,1,,,,,,,,,,,,,,,,,,,,,,,,,,,,,,,,,,,,,,,,5,zapato,,,1,1,1.191,0,16,16,4,1,REAL,FAKE,,,,,,,,,,,,,,,,,,,,,
,,,,,,,midd04,midd,ma,Colombia,Northeast,13 or older,yes,2021-03-28_09h56.31.643,empathy_intonation_perc,2020.2.10,MacIntel,60,IwAR26xrIzc05Uny94xxvLKclhr0HUXNQar10Tgs6lhCPAafGTxvP0_mO39BM,,,,,,,,,,1,,,,,,,,,,,,,,,,,,,,,,,,,,,,,,,,,,,,,,,,2,pellizcar,,,0,0,3.833,0,17,17,1,1,REAL,FAKE,,,,,,,,,,,,,,,,,,,,,
,,,,,,,midd04,midd,ma,Colombia,Northeast,13 or older,yes,2021-03-28_09h56.31.643,empathy_intonation_perc,2020.2.10,MacIntel,60,IwAR26xrIzc05Uny94xxvLKclhr0HUXNQar10Tgs6lhCPAafGTxvP0_mO39BM,,,,,,,,,,1,,,,,,,,,,,,,,,,,,,,,,,,,,,,,,,,,,,,,,,,22,lacayo,,,1,1,3.377,0,18,18,21,1,REAL,FAKE,,,,,,,,,,,,,,,,,,,,,
,,,,,,,midd04,midd,ma,Colombia,Northeast,13 or older,yes,2021-03-28_09h56.31.643,empathy_intonation_perc,2020.2.10,MacIntel,60,IwAR26xrIzc05Uny94xxvLKclhr0HUXNQar10Tgs6lhCPAafGTxvP0_mO39BM,,,,,,,,,,1,,,,,,,,,,,,,,,,,,,,,,,,,,,,,,,,,,,,,,,,31,pandilla,,,1,1,1.686,0,19,19,30,1,REAL,FAKE,,,,,,,,,,,,,,,,,,,,,
,,,,,,,midd04,midd,ma,Colombia,Northeast,13 or older,yes,2021-03-28_09h56.31.643,empathy_intonation_perc,2020.2.10,MacIntel,60,IwAR26xrIzc05Uny94xxvLKclhr0HUXNQar10Tgs6lhCPAafGTxvP0_mO39BM,,,,,,,,,,1,,,,,,,,,,,,,,,,,,,,,,,,,,,,,,,,,,,,,,,,78,frondoso,,,0,0,2.541,0,20,20,77,1,REAL,FAKE,,,,,,,,,,,,,,,,,,,,,
,,,,,,,midd04,midd,ma,Colombia,Northeast,13 or older,yes,2021-03-28_09h56.31.643,empathy_intonation_perc,2020.2.10,MacIntel,60,IwAR26xrIzc05Uny94xxvLKclhr0HUXNQar10Tgs6lhCPAafGTxvP0_mO39BM,,,,,,,,,,1,,,,,,,,,,,,,,,,,,,,,,,,,,,,,,,,,,,,,,,,68,alegre,,,1,1,1.809,0,21,21,67,1,REAL,FAKE,,,,,,,,,,,,,,,,,,,,,
,,,,,,,midd04,midd,ma,Colombia,Northeast,13 or older,yes,2021-03-28_09h56.31.643,empathy_intonation_perc,2020.2.10,MacIntel,60,IwAR26xrIzc05Uny94xxvLKclhr0HUXNQar10Tgs6lhCPAafGTxvP0_mO39BM,,,,,,,,,,1,,,,,,,,,,,,,,,,,,,,,,,,,,,,,,,,,,,,,,,,90,clavel,,,1,1,1.572,0,22,22,89,1,REAL,FAKE,,,,,,,,,,,,,,,,,,,,,
,,,,,,,midd04,midd,ma,Colombia,Northeast,13 or older,yes,2021-03-28_09h56.31.643,empathy_intonation_perc,2020.2.10,MacIntel,60,IwAR26xrIzc05Uny94xxvLKclhr0HUXNQar10Tgs6lhCPAafGTxvP0_mO39BM,,,,,,,,,,1,,,,,,,,,,,,,,,,,,,,,,,,,,,,,,,,,,,,,,,,48,ladrn,,,1,1,1.225,0,23,23,47,1,REAL,FAKE,,,,,,,,,,,,,,,,,,,,,
,,,,,,,midd04,midd,ma,Colombia,Northeast,13 or older,yes,2021-03-28_09h56.31.643,empathy_intonation_perc,2020.2.10,MacIntel,60,IwAR26xrIzc05Uny94xxvLKclhr0HUXNQar10Tgs6lhCPAafGTxvP0_mO39BM,,,,,,,,,,0,,,,,,,,,,,,,,,,,,,,,,,,,,,,,,,,,,,,,,,,66,hacido,,,0,1,2.244,0,24,24,65,1,REAL,FAKE,,,,,,,,,,,,,,,,,,,,,
,,,,,,,midd04,midd,ma,Colombia,Northeast,13 or older,yes,2021-03-28_09h56.31.643,empathy_intonation_perc,2020.2.10,MacIntel,60,IwAR26xrIzc05Uny94xxvLKclhr0HUXNQar10Tgs6lhCPAafGTxvP0_mO39BM,,,,,,,,,,0,,,,,,,,,,,,,,,,,,,,,,,,,,,,,,,,,,,,,,,,87,grodo,,,0,1,8.061,0,25,25,86,1,REAL,FAKE,,,,,,,,,,,,,,,,,,,,,
,,,,,,,midd04,midd,ma,Colombia,Northeast,13 or older,yes,2021-03-28_09h56.31.643,empathy_intonation_perc,2020.2.10,MacIntel,60,IwAR26xrIzc05Uny94xxvLKclhr0HUXNQar10Tgs6lhCPAafGTxvP0_mO39BM,,,,,,,,,,1,,,,,,,,,,,,,,,,,,,,,,,,,,,,,,,,,,,,,,,,3,pulmones,,,1,1,1.595,0,26,26,2,1,REAL,FAKE,,,,,,,,,,,,,,,,,,,,,
,,,,,,,midd04,midd,ma,Colombia,Northeast,13 or older,yes,2021-03-28_09h56.31.643,empathy_intonation_perc,2020.2.10,MacIntel,60,IwAR26xrIzc05Uny94xxvLKclhr0HUXNQar10Tgs6lhCPAafGTxvP0_mO39BM,,,,,,,,,,1,,,,,,,,,,,,,,,,,,,,,,,,,,,,,,,,,,,,,,,,51,candado,,,1,1,3.746,0,27,27,50,1,REAL,FAKE,,,,,,,,,,,,,,,,,,,,,
,,,,,,,midd04,midd,ma,Colombia,Northeast,13 or older,yes,2021-03-28_09h56.31.643,empathy_intonation_perc,2020.2.10,MacIntel,60,IwAR26xrIzc05Uny94xxvLKclhr0HUXNQar10Tgs6lhCPAafGTxvP0_mO39BM,,,,,,,,,,0,,,,,,,,,,,,,,,,,,,,,,,,,,,,,,,,,,,,,,,,8,cadea,,,0,1,5.17,0,28,28,7,1,REAL,FAKE,,,,,,,,,,,,,,,,,,,,,
,,,,,,,midd04,midd,ma,Colombia,Northeast,13 or older,yes,2021-03-28_09h56.31.643,empathy_intonation_perc,2020.2.10,MacIntel,60,IwAR26xrIzc05Uny94xxvLKclhr0HUXNQar10Tgs6lhCPAafGTxvP0_mO39BM,,,,,,,,,,1,,,,,,,,,,,,,,,,,,,,,,,,,,,,,,,,,,,,,,,,40,alfombra,,,1,1,1.461,0,29,29,39,1,REAL,FAKE,,,,,,,,,,,,,,,,,,,,,
,,,,,,,midd04,midd,ma,Colombia,Northeast,13 or older,yes,2021-03-28_09h56.31.643,empathy_intonation_perc,2020.2.10,MacIntel,60,IwAR26xrIzc05Uny94xxvLKclhr0HUXNQar10Tgs6lhCPAafGTxvP0_mO39BM,,,,,,,,,,0,,,,,,,,,,,,,,,,,,,,,,,,,,,,,,,,,,,,,,,,32,fatacidad,,,0,1,3.193,0,30,30,31,1,REAL,FAKE,,,,,,,,,,,,,,,,,,,,,
,,,,,,,midd04,midd,ma,Colombia,Northeast,13 or older,yes,2021-03-28_09h56.31.643,empathy_intonation_perc,2020.2.10,MacIntel,60,IwAR26xrIzc05Uny94xxvLKclhr0HUXNQar10Tgs6lhCPAafGTxvP0_mO39BM,,,,,,,,,,1,,,,,,,,,,,,,,,,,,,,,,,,,,,,,,,,,,,,,,,,86,barato,,,1,1,1.445,0,31,31,85,1,REAL,FAKE,,,,,,,,,,,,,,,,,,,,,
,,,,,,,midd04,midd,ma,Colombia,Northeast,13 or older,yes,2021-03-28_09h56.31.643,empathy_intonation_perc,2020.2.10,MacIntel,60,IwAR26xrIzc05Uny94xxvLKclhr0HUXNQar10Tgs6lhCPAafGTxvP0_mO39BM,,,,,,,,,,1,,,,,,,,,,,,,,,,,,,,,,,,,,,,,,,,,,,,,,,,89,prisa,,,1,1,1.277,0,32,32,88,1,REAL,FAKE,,,,,,,,,,,,,,,,,,,,,
,,,,,,,midd04,midd,ma,Colombia,Northeast,13 or older,yes,2021-03-28_09h56.31.643,empathy_intonation_perc,2020.2.10,MacIntel,60,IwAR26xrIzc05Uny94xxvLKclhr0HUXNQar10Tgs6lhCPAafGTxvP0_mO39BM,,,,,,,,,,1,,,,,,,,,,,,,,,,,,,,,,,,,,,,,,,,,,,,,,,,76,atar,,,1,1,1.291,0,33,33,75,1,REAL,FAKE,,,,,,,,,,,,,,,,,,,,,
,,,,,,,midd04,midd,ma,Colombia,Northeast,13 or older,yes,2021-03-28_09h56.31.643,empathy_intonation_perc,2020.2.10,MacIntel,60,IwAR26xrIzc05Uny94xxvLKclhr0HUXNQar10Tgs6lhCPAafGTxvP0_mO39BM,,,,,,,,,,0,,,,,,,,,,,,,,,,,,,,,,,,,,,,,,,,,,,,,,,,10,antar,,,0,1,1.892,0,34,34,9,1,REAL,FAKE,,,,,,,,,,,,,,,,,,,,,
,,,,,,,midd04,midd,ma,Colombia,Northeast,13 or older,yes,2021-03-28_09h56.31.643,empathy_intonation_perc,2020.2.10,MacIntel,60,IwAR26xrIzc05Uny94xxvLKclhr0HUXNQar10Tgs6lhCPAafGTxvP0_mO39BM,,,,,,,,,,0,,,,,,,,,,,,,,,,,,,,,,,,,,,,,,,,,,,,,,,,19,brecedad,,,0,1,2.074,0,35,35,18,1,REAL,FAKE,,,,,,,,,,,,,,,,,,,,,
,,,,,,,midd04,midd,ma,Colombia,Northeast,13 or older,yes,2021-03-28_09h56.31.643,empathy_intonation_perc,2020.2.10,MacIntel,60,IwAR26xrIzc05Uny94xxvLKclhr0HUXNQar10Tgs6lhCPAafGTxvP0_mO39BM,,,,,,,,,,1,,,,,,,,,,,,,,,,,,,,,,,,,,,,,,,,,,,,,,,,77,tiburn,,,1,1,1.475,0,36,36,76,1,REAL,FAKE,,,,,,,,,,,,,,,,,,,,,
,,,,,,,midd04,midd,ma,Colombia,Northeast,13 or older,yes,2021-03-28_09h56.31.643,empathy_intonation_perc,2020.2.10,MacIntel,60,IwAR26xrIzc05Uny94xxvLKclhr0HUXNQar10Tgs6lhCPAafGTxvP0_mO39BM,,,,,,,,,,0,,,,,,,,,,,,,,,,,,,,,,,,,,,,,,,,,,,,,,,,42,cadallo,,,0,1,2.326,0,37,37,41,1,REAL,FAKE,,,,,,,,,,,,,,,,,,,,,
,,,,,,,midd04,midd,ma,Colombia,Northeast,13 or older,yes,2021-03-28_09h56.31.643,empathy_intonation_perc,2020.2.10,MacIntel,60,IwAR26xrIzc05Uny94xxvLKclhr0HUXNQar10Tgs6lhCPAafGTxvP0_mO39BM,,,,,,,,,,1,,,,,,,,,,,,,,,,,,,,,,,,,,,,,,,,,,,,,,,,75,yacer,,,1,1,1.393,0,38,38,74,1,REAL,FAKE,,,,,,,,,,,,,,,,,,,,,
,,,,,,,midd04,midd,ma,Colombia,Northeast,13 or older,yes,2021-03-28_09h56.31.643,empathy_intonation_perc,2020.2.10,MacIntel,60,IwAR26xrIzc05Uny94xxvLKclhr0HUXNQar10Tgs6lhCPAafGTxvP0_mO39BM,,,,,,,,,,1,,,,,,,,,,,,,,,,,,,,,,,,,,,,,,,,,,,,,,,,83,guante,,,1,1,1.309,0,39,39,82,1,REAL,FAKE,,,,,,,,,,,,,,,,,,,,,
,,,,,,,midd04,midd,ma,Colombia,Northeast,13 or older,yes,2021-03-28_09h56.31.643,empathy_intonation_perc,2020.2.10,MacIntel,60,IwAR26xrIzc05Uny94xxvLKclhr0HUXNQar10Tgs6lhCPAafGTxvP0_mO39BM,,,,,,,,,,1,,,,,,,,,,,,,,,,,,,,,,,,,,,,,,,,,,,,,,,,28,merodear,,,0,0,2.71,0,40,40,27,1,REAL,FAKE,,,,,,,,,,,,,,,,,,,,,
,,,,,,,midd04,midd,ma,Colombia,Northeast,13 or older,yes,2021-03-28_09h56.31.643,empathy_intonation_perc,2020.2.10,MacIntel,60,IwAR26xrIzc05Uny94xxvLKclhr0HUXNQar10Tgs6lhCPAafGTxvP0_mO39BM,,,,,,,,,,0,,,,,,,,,,,,,,,,,,,,,,,,,,,,,,,,,,,,,,,,35,rompido,,,0,1,1.96,0,41,41,34,1,REAL,FAKE,,,,,,,,,,,,,,,,,,,,,
,,,,,,,midd04,midd,ma,Colombia,Northeast,13 or older,yes,2021-03-28_09h56.31.643,empathy_intonation_perc,2020.2.10,MacIntel,60,IwAR26xrIzc05Uny94xxvLKclhr0HUXNQar10Tgs6lhCPAafGTxvP0_mO39BM,,,,,,,,,,0,,,,,,,,,,,,,,,,,,,,,,,,,,,,,,,,,,,,,,,,16,abracer,,,1,0,1.894,0,42,42,15,1,REAL,FAKE,,,,,,,,,,,,,,,,,,,,,
,,,,,,,midd04,midd,ma,Colombia,Northeast,13 or older,yes,2021-03-28_09h56.31.643,empathy_intonation_perc,2020.2.10,MacIntel,60,IwAR26xrIzc05Uny94xxvLKclhr0HUXNQar10Tgs6lhCPAafGTxvP0_mO39BM,,,,,,,,,,1,,,,,,,,,,,,,,,,,,,,,,,,,,,,,,,,,,,,,,,,25,bisagra,,,1,1,2.428,0,43,43,24,1,REAL,FAKE,,,,,,,,,,,,,,,,,,,,,
,,,,,,,midd04,midd,ma,Colombia,Northeast,13 or older,yes,2021-03-28_09h56.31.643,empathy_intonation_perc,2020.2.10,MacIntel,60,IwAR26xrIzc05Uny94xxvLKclhr0HUXNQar10Tgs6lhCPAafGTxvP0_mO39BM,,,,,,,,,,1,,,,,,,,,,,,,,,,,,,,,,,,,,,,,,,,,,,,,,,,9,hacha,,,0,0,4.899,0,44,44,8,1,REAL,FAKE,,,,,,,,,,,,,,,,,,,,,
,,,,,,,midd04,midd,ma,Colombia,Northeast,13 or older,yes,2021-03-28_09h56.31.643,empathy_intonation_perc,2020.2.10,MacIntel,60,IwAR26xrIzc05Uny94xxvLKclhr0HUXNQar10Tgs6lhCPAafGTxvP0_mO39BM,,,,,,,,,,1,,,,,,,,,,,,,,,,,,,,,,,,,,,,,,,,,,,,,,,,61,seda,,,1,1,1.275,0,45,45,60,1,REAL,FAKE,,,,,,,,,,,,,,,,,,,,,
,,,,,,,midd04,midd,ma,Colombia,Northeast,13 or older,yes,2021-03-28_09h56.31.643,empathy_intonation_perc,2020.2.10,MacIntel,60,IwAR26xrIzc05Uny94xxvLKclhr0HUXNQar10Tgs6lhCPAafGTxvP0_mO39BM,,,,,,,,,,1,,,,,,,,,,,,,,,,,,,,,,,,,,,,,,,,,,,,,,,,39,torpe,,,1,1,1.252,0,46,46,38,1,REAL,FAKE,,,,,,,,,,,,,,,,,,,,,
,,,,,,,midd04,midd,ma,Colombia,Northeast,13 or older,yes,2021-03-28_09h56.31.643,empathy_intonation_perc,2020.2.10,MacIntel,60,IwAR26xrIzc05Uny94xxvLKclhr0HUXNQar10Tgs6lhCPAafGTxvP0_mO39BM,,,,,,,,,,0,,,,,,,,,,,,,,,,,,,,,,,,,,,,,,,,,,,,,,,,17,floroso,,,0,1,1.626,0,47,47,16,1,REAL,FAKE,,,,,,,,,,,,,,,,,,,,,
,,,,,,,midd04,midd,ma,Colombia,Northeast,13 or older,yes,2021-03-28_09h56.31.643,empathy_intonation_perc,2020.2.10,MacIntel,60,IwAR26xrIzc05Uny94xxvLKclhr0HUXNQar10Tgs6lhCPAafGTxvP0_mO39BM,,,,,,,,,,0,,,,,,,,,,,,,,,,,,,,,,,,,,,,,,,,,,,,,,,,18,arsa,,,0,1,1.625,0,48,48,17,1,REAL,FAKE,,,,,,,,,,,,,,,,,,,,,
,,,,,,,midd04,midd,ma,Colombia,Northeast,13 or older,yes,2021-03-28_09h56.31.643,empathy_intonation_perc,2020.2.10,MacIntel,60,IwAR26xrIzc05Uny94xxvLKclhr0HUXNQar10Tgs6lhCPAafGTxvP0_mO39BM,,,,,,,,,,1,,,,,,,,,,,,,,,,,,,,,,,,,,,,,,,,,,,,,,,,6,tergiversar,,,0,0,3.029,0,49,49,5,1,REAL,FAKE,,,,,,,,,,,,,,,,,,,,,
,,,,,,,midd04,midd,ma,Colombia,Northeast,13 or older,yes,2021-03-28_09h56.31.643,empathy_intonation_perc,2020.2.10,MacIntel,60,IwAR26xrIzc05Uny94xxvLKclhr0HUXNQar10Tgs6lhCPAafGTxvP0_mO39BM,,,,,,,,,,0,,,,,,,,,,,,,,,,,,,,,,,,,,,,,,,,,,,,,,,,1,terzo,,,1,0,1.374,0,50,50,0,1,REAL,FAKE,,,,,,,,,,,,,,,,,,,,,
,,,,,,,midd04,midd,ma,Colombia,Northeast,13 or older,yes,2021-03-28_09h56.31.643,empathy_intonation_perc,2020.2.10,MacIntel,60,IwAR26xrIzc05Uny94xxvLKclhr0HUXNQar10Tgs6lhCPAafGTxvP0_mO39BM,,,,,,,,,,0,,,,,,,,,,,,,,,,,,,,,,,,,,,,,,,,,,,,,,,,58,plaudir,,,1,0,4.598,0,51,51,57,1,REAL,FAKE,,,,,,,,,,,,,,,,,,,,,
,,,,,,,midd04,midd,ma,Colombia,Northeast,13 or older,yes,2021-03-28_09h56.31.643,empathy_intonation_perc,2020.2.10,MacIntel,60,IwAR26xrIzc05Uny94xxvLKclhr0HUXNQar10Tgs6lhCPAafGTxvP0_mO39BM,,,,,,,,,,1,,,,,,,,,,,,,,,,,,,,,,,,,,,,,,,,,,,,,,,,52,camisa,,,1,1,0.921,0,52,52,51,1,REAL,FAKE,,,,,,,,,,,,,,,,,,,,,
,,,,,,,midd04,midd,ma,Colombia,Northeast,13 or older,yes,2021-03-28_09h56.31.643,empathy_intonation_perc,2020.2.10,MacIntel,60,IwAR26xrIzc05Uny94xxvLKclhr0HUXNQar10Tgs6lhCPAafGTxvP0_mO39BM,,,,,,,,,,0,,,,,,,,,,,,,,,,,,,,,,,,,,,,,,,,,,,,,,,,53,vegada,,,0,1,1.786,0,53,53,52,1,REAL,FAKE,,,,,,,,,,,,,,,,,,,,,
,,,,,,,midd04,midd,ma,Colombia,Northeast,13 or older,yes,2021-03-28_09h56.31.643,empathy_intonation_perc,2020.2.10,MacIntel,60,IwAR26xrIzc05Uny94xxvLKclhr0HUXNQar10Tgs6lhCPAafGTxvP0_mO39BM,,,,,,,,,,1,,,,,,,,,,,,,,,,,,,,,,,,,,,,,,,,,,,,,,,,24,ltigo,,,1,1,1.656,0,54,54,23,1,REAL,FAKE,,,,,,,,,,,,,,,,,,,,,
,,,,,,,midd04,midd,ma,Colombia,Northeast,13 or older,yes,2021-03-28_09h56.31.643,empathy_intonation_perc,2020.2.10,MacIntel,60,IwAR26xrIzc05Uny94xxvLKclhr0HUXNQar10Tgs6lhCPAafGTxvP0_mO39BM,,,,,,,,,,1,,,,,,,,,,,,,,,,,,,,,,,,,,,,,,,,,,,,,,,,43,canela,,,1,1,1.175,0,55,55,42,1,REAL,FAKE,,,,,,,,,,,,,,,,,,,,,
,,,,,,,midd04,midd,ma,Colombia,Northeast,13 or older,yes,2021-03-28_09h56.31.643,empathy_intonation_perc,2020.2.10,MacIntel,60,IwAR26xrIzc05Uny94xxvLKclhr0HUXNQar10Tgs6lhCPAafGTxvP0_mO39BM,,,,,,,,,,0,,,,,,,,,,,,,,,,,,,,,,,,,,,,,,,,,,,,,,,,4,batilln,,,0,1,9.696,0,56,56,3,1,REAL,FAKE,,,,,,,,,,,,,,,,,,,,,
,,,,,,,midd04,midd,ma,Colombia,Northeast,13 or older,yes,2021-03-28_09h56.31.643,empathy_intonation_perc,2020.2.10,MacIntel,60,IwAR26xrIzc05Uny94xxvLKclhr0HUXNQar10Tgs6lhCPAafGTxvP0_mO39BM,,,,,,,,,,1,,,,,,,,,,,,,,,,,,,,,,,,,,,,,,,,,,,,,,,,44,cuchara,,,1,1,1.36,0,57,57,43,1,REAL,FAKE,,,,,,,,,,,,,,,,,,,,,
,,,,,,,midd04,midd,ma,Colombia,Northeast,13 or older,yes,2021-03-28_09h56.31.643,empathy_intonation_perc,2020.2.10,MacIntel,60,IwAR26xrIzc05Uny94xxvLKclhr0HUXNQar10Tgs6lhCPAafGTxvP0_mO39BM,,,,,,,,,,0,,,,,,,,,,,,,,,,,,,,,,,,,,,,,,,,,,,,,,,,79,tropaje,,,0,1,3.112,0,58,58,78,1,REAL,FAKE,,,,,,,,,,,,,,,,,,,,,
,,,,,,,midd04,midd,ma,Colombia,Northeast,13 or older,yes,2021-03-28_09h56.31.643,empathy_intonation_perc,2020.2.10,MacIntel,60,IwAR26xrIzc05Uny94xxvLKclhr0HUXNQar10Tgs6lhCPAafGTxvP0_mO39BM,,,,,,,,,,0,,,,,,,,,,,,,,,,,,,,,,,,,,,,,,,,,,,,,,,,50,flamida,,,0,1,2.242,0,59,59,49,1,REAL,FAKE,,,,,,,,,,,,,,,,,,,,,
,,,,,,,midd04,midd,ma,Colombia,Northeast,13 or older,yes,2021-03-28_09h56.31.643,empathy_intonation_perc,2020.2.10,MacIntel,60,IwAR26xrIzc05Uny94xxvLKclhr0HUXNQar10Tgs6lhCPAafGTxvP0_mO39BM,,,,,,,,,,0,,,,,,,,,,,,,,,,,,,,,,,,,,,,,,,,,,,,,,,,21,capillo,,,1,0,1.343,0,60,60,20,1,REAL,FAKE,,,,,,,,,,,,,,,,,,,,,
,,,,,,,midd04,midd,ma,Colombia,Northeast,13 or older,yes,2021-03-28_09h56.31.643,empathy_intonation_perc,2020.2.10,MacIntel,60,IwAR26xrIzc05Uny94xxvLKclhr0HUXNQar10Tgs6lhCPAafGTxvP0_mO39BM,,,,,,,,,,0,,,,,,,,,,,,,,,,,,,,,,,,,,,,,,,,,,,,,,,,27,acutacin,,,0,1,5.3,0,61,61,26,1,REAL,FAKE,,,,,,,,,,,,,,,,,,,,,
,,,,,,,midd04,midd,ma,Colombia,Northeast,13 or older,yes,2021-03-28_09h56.31.643,empathy_intonation_perc,2020.2.10,MacIntel,60,IwAR26xrIzc05Uny94xxvLKclhr0HUXNQar10Tgs6lhCPAafGTxvP0_mO39BM,,,,,,,,,,1,,,,,,,,,,,,,,,,,,,,,,,,,,,,,,,,,,,,,,,,34,aviso,,,1,1,1.243,0,62,62,33,1,REAL,FAKE,,,,,,,,,,,,,,,,,,,,,
,,,,,,,midd04,midd,ma,Colombia,Northeast,13 or older,yes,2021-03-28_09h56.31.643,empathy_intonation_perc,2020.2.10,MacIntel,60,IwAR26xrIzc05Uny94xxvLKclhr0HUXNQar10Tgs6lhCPAafGTxvP0_mO39BM,,,,,,,,,,0,,,,,,,,,,,,,,,,,,,,,,,,,,,,,,,,,,,,,,,,47,cartinar,,,0,1,2.427,0,63,63,46,1,REAL,FAKE,,,,,,,,,,,,,,,,,,,,,
,,,,,,,midd04,midd,ma,Colombia,Northeast,13 or older,yes,2021-03-28_09h56.31.643,empathy_intonation_perc,2020.2.10,MacIntel,60,IwAR26xrIzc05Uny94xxvLKclhr0HUXNQar10Tgs6lhCPAafGTxvP0_mO39BM,,,,,,,,,,1,,,,,,,,,,,,,,,,,,,,,,,,,,,,,,,,,,,,,,,,37,granuja,,,0,0,2.023,0,64,64,36,1,REAL,FAKE,,,,,,,,,,,,,,,,,,,,,
,,,,,,,midd04,midd,ma,Colombia,Northeast,13 or older,yes,2021-03-28_09h56.31.643,empathy_intonation_perc,2020.2.10,MacIntel,60,IwAR26xrIzc05Uny94xxvLKclhr0HUXNQar10Tgs6lhCPAafGTxvP0_mO39BM,,,,,,,,,,1,,,,,,,,,,,,,,,,,,,,,,,,,,,,,,,,,,,,,,,,65,bizcocho,,,1,1,1.298,0,65,65,64,1,REAL,FAKE,,,,,,,,,,,,,,,,,,,,,
,,,,,,,midd04,midd,ma,Colombia,Northeast,13 or older,yes,2021-03-28_09h56.31.643,empathy_intonation_perc,2020.2.10,MacIntel,60,IwAR26xrIzc05Uny94xxvLKclhr0HUXNQar10Tgs6lhCPAafGTxvP0_mO39BM,,,,,,,,,,0,,,,,,,,,,,,,,,,,,,,,,,,,,,,,,,,,,,,,,,,72,pemicin,,,0,1,1.864,0,66,66,71,1,REAL,FAKE,,,,,,,,,,,,,,,,,,,,,
,,,,,,,midd04,midd,ma,Colombia,Northeast,13 or older,yes,2021-03-28_09h56.31.643,empathy_intonation_perc,2020.2.10,MacIntel,60,IwAR26xrIzc05Uny94xxvLKclhr0HUXNQar10Tgs6lhCPAafGTxvP0_mO39BM,,,,,,,,,,1,,,,,,,,,,,,,,,,,,,,,,,,,,,,,,,,,,,,,,,,11,cenefa,,,0,0,1.609,0,67,67,10,1,REAL,FAKE,,,,,,,,,,,,,,,,,,,,,
,,,,,,,midd04,midd,ma,Colombia,Northeast,13 or older,yes,2021-03-28_09h56.31.643,empathy_intonation_perc,2020.2.10,MacIntel,60,IwAR26xrIzc05Uny94xxvLKclhr0HUXNQar10Tgs6lhCPAafGTxvP0_mO39BM,,,,,,,,,,1,,,,,,,,,,,,,,,,,,,,,,,,,,,,,,,,,,,,,,,,15,regar,,,1,1,1.461,0,68,68,14,1,REAL,FAKE,,,,,,,,,,,,,,,,,,,,,
,,,,,,,midd04,midd,ma,Colombia,Northeast,13 or older,yes,2021-03-28_09h56.31.643,empathy_intonation_perc,2020.2.10,MacIntel,60,IwAR26xrIzc05Uny94xxvLKclhr0HUXNQar10Tgs6lhCPAafGTxvP0_mO39BM,,,,,,,,,,1,,,,,,,,,,,,,,,,,,,,,,,,,,,,,,,,,,,,,,,,45,jilguero,,,0,0,5.788,0,69,69,44,1,REAL,FAKE,,,,,,,,,,,,,,,,,,,,,
,,,,,,,midd04,midd,ma,Colombia,Northeast,13 or older,yes,2021-03-28_09h56.31.643,empathy_intonation_perc,2020.2.10,MacIntel,60,IwAR26xrIzc05Uny94xxvLKclhr0HUXNQar10Tgs6lhCPAafGTxvP0_mO39BM,,,,,,,,,,1,,,,,,,,,,,,,,,,,,,,,,,,,,,,,,,,,,,,,,,,85,lad,,,0,0,3.715,0,70,70,84,1,REAL,FAKE,,,,,,,,,,,,,,,,,,,,,
,,,,,,,midd04,midd,ma,Colombia,Northeast,13 or older,yes,2021-03-28_09h56.31.643,empathy_intonation_perc,2020.2.10,MacIntel,60,IwAR26xrIzc05Uny94xxvLKclhr0HUXNQar10Tgs6lhCPAafGTxvP0_mO39BM,,,,,,,,,,0,,,,,,,,,,,,,,,,,,,,,,,,,,,,,,,,,,,,,,,,70,temblo,,,1,0,2.663,0,71,71,69,1,REAL,FAKE,,,,,,,,,,,,,,,,,,,,,
,,,,,,,midd04,midd,ma,Colombia,Northeast,13 or older,yes,2021-03-28_09h56.31.643,empathy_intonation_perc,2020.2.10,MacIntel,60,IwAR26xrIzc05Uny94xxvLKclhr0HUXNQar10Tgs6lhCPAafGTxvP0_mO39BM,,,,,,,,,,0,,,,,,,,,,,,,,,,,,,,,,,,,,,,,,,,,,,,,,,,33,pauca,,,0,1,3.058,0,72,72,32,1,REAL,FAKE,,,,,,,,,,,,,,,,,,,,,
,,,,,,,midd04,midd,ma,Colombia,Northeast,13 or older,yes,2021-03-28_09h56.31.643,empathy_intonation_perc,2020.2.10,MacIntel,60,IwAR26xrIzc05Uny94xxvLKclhr0HUXNQar10Tgs6lhCPAafGTxvP0_mO39BM,,,,,,,,,,1,,,,,,,,,,,,,,,,,,,,,,,,,,,,,,,,,,,,,,,,41,rebuscar,,,0,0,4.986,0,73,73,40,1,REAL,FAKE,,,,,,,,,,,,,,,,,,,,,
,,,,,,,midd04,midd,ma,Colombia,Northeast,13 or older,yes,2021-03-28_09h56.31.643,empathy_intonation_perc,2020.2.10,MacIntel,60,IwAR26xrIzc05Uny94xxvLKclhr0HUXNQar10Tgs6lhCPAafGTxvP0_mO39BM,,,,,,,,,,1,,,,,,,,,,,,,,,,,,,,,,,,,,,,,,,,,,,,,,,,73,hervidor,,,1,1,3.783,0,74,74,72,1,REAL,FAKE,,,,,,,,,,,,,,,,,,,,,
,,,,,,,midd04,midd,ma,Colombia,Northeast,13 or older,yes,2021-03-28_09h56.31.643,empathy_intonation_perc,2020.2.10,MacIntel,60,IwAR26xrIzc05Uny94xxvLKclhr0HUXNQar10Tgs6lhCPAafGTxvP0_mO39BM,,,,,,,,,,1,,,,,,,,,,,,,,,,,,,,,,,,,,,,,,,,,,,,,,,,62,flaco,,,1,1,1.308,0,75,75,61,1,REAL,FAKE,,,,,,,,,,,,,,,,,,,,,
,,,,,,,midd04,midd,ma,Colombia,Northeast,13 or older,yes,2021-03-28_09h56.31.643,empathy_intonation_perc,2020.2.10,MacIntel,60,IwAR26xrIzc05Uny94xxvLKclhr0HUXNQar10Tgs6lhCPAafGTxvP0_mO39BM,,,,,,,,,,1,,,,,,,,,,,,,,,,,,,,,,,,,,,,,,,,,,,,,,,,7,psimo,,,1,1,2.544,0,76,76,6,1,REAL,FAKE,,,,,,,,,,,,,,,,,,,,,
,,,,,,,midd04,midd,ma,Colombia,Northeast,13 or older,yes,2021-03-28_09h56.31.643,empathy_intonation_perc,2020.2.10,MacIntel,60,IwAR26xrIzc05Uny94xxvLKclhr0HUXNQar10Tgs6lhCPAafGTxvP0_mO39BM,,,,,,,,,,0,,,,,,,,,,,,,,,,,,,,,,,,,,,,,,,,,,,,,,,,29,decar,,,0,1,2.413,0,77,77,28,1,REAL,FAKE,,,,,,,,,,,,,,,,,,,,,
,,,,,,,midd04,midd,ma,Colombia,Northeast,13 or older,yes,2021-03-28_09h56.31.643,empathy_intonation_perc,2020.2.10,MacIntel,60,IwAR26xrIzc05Uny94xxvLKclhr0HUXNQar10Tgs6lhCPAafGTxvP0_mO39BM,,,,,,,,,,0,,,,,,,,,,,,,,,,,,,,,,,,,,,,,,,,,,,,,,,,23,lampera,,,0,1,2.228,0,78,78,22,1,REAL,FAKE,,,,,,,,,,,,,,,,,,,,,
,,,,,,,midd04,midd,ma,Colombia,Northeast,13 or older,yes,2021-03-28_09h56.31.643,empathy_intonation_perc,2020.2.10,MacIntel,60,IwAR26xrIzc05Uny94xxvLKclhr0HUXNQar10Tgs6lhCPAafGTxvP0_mO39BM,,,,,,,,,,1,,,,,,,,,,,,,,,,,,,,,,,,,,,,,,,,,,,,,,,,57,tacao,,,1,1,1.929,0,79,79,56,1,REAL,FAKE,,,,,,,,,,,,,,,,,,,,,
,,,,,,,midd04,midd,ma,Colombia,Northeast,13 or older,yes,2021-03-28_09h56.31.643,empathy_intonation_perc,2020.2.10,MacIntel,60,IwAR26xrIzc05Uny94xxvLKclhr0HUXNQar10Tgs6lhCPAafGTxvP0_mO39BM,,,,,,,,,,1,,,,,,,,,,,,,,,,,,,,,,,,,,,,,,,,,,,,,,,,26,secuestro,,,1,1,1.378,0,80,80,25,1,REAL,FAKE,,,,,,,,,,,,,,,,,,,,,
,,,,,,,midd04,midd,ma,Colombia,Northeast,13 or older,yes,2021-03-28_09h56.31.643,empathy_intonation_perc,2020.2.10,MacIntel,60,IwAR26xrIzc05Uny94xxvLKclhr0HUXNQar10Tgs6lhCPAafGTxvP0_mO39BM,,,,,,,,,,1,,,,,,,,,,,,,,,,,,,,,,,,,,,,,,,,,,,,,,,,38,estornudar,,,1,1,1.683,0,81,81,37,1,REAL,FAKE,,,,,,,,,,,,,,,,,,,,,
,,,,,,,midd04,midd,ma,Colombia,Northeast,13 or older,yes,2021-03-28_09h56.31.643,empathy_intonation_perc,2020.2.10,MacIntel,60,IwAR26xrIzc05Uny94xxvLKclhr0HUXNQar10Tgs6lhCPAafGTxvP0_mO39BM,,,,,,,,,,1,,,,,,,,,,,,,,,,,,,,,,,,,,,,,,,,,,,,,,,,49,ganar,,,1,1,1.142,0,82,82,48,1,REAL,FAKE,,,,,,,,,,,,,,,,,,,,,
,,,,,,,midd04,midd,ma,Colombia,Northeast,13 or older,yes,2021-03-28_09h56.31.643,empathy_intonation_perc,2020.2.10,MacIntel,60,IwAR26xrIzc05Uny94xxvLKclhr0HUXNQar10Tgs6lhCPAafGTxvP0_mO39BM,,,,,,,,,,1,,,,,,,,,,,,,,,,,,,,,,,,,,,,,,,,,,,,,,,,81,pozo,,,1,1,1.011,0,83,83,80,1,REAL,FAKE,,,,,,,,,,,,,,,,,,,,,
,,,,,,,midd04,midd,ma,Colombia,Northeast,13 or older,yes,2021-03-28_09h56.31.643,empathy_intonation_perc,2020.2.10,MacIntel,60,IwAR26xrIzc05Uny94xxvLKclhr0HUXNQar10Tgs6lhCPAafGTxvP0_mO39BM,,,,,,,,,,1,,,,,,,,,,,,,,,,,,,,,,,,,,,,,,,,,,,,,,,,69,engatusar,,,0,0,4.585,0,84,84,68,1,REAL,FAKE,,,,,,,,,,,,,,,,,,,,,
,,,,,,,midd04,midd,ma,Colombia,Northeast,13 or older,yes,2021-03-28_09h56.31.643,empathy_intonation_perc,2020.2.10,MacIntel,60,IwAR26xrIzc05Uny94xxvLKclhr0HUXNQar10Tgs6lhCPAafGTxvP0_mO39BM,,,,,,,,,,1,,,,,,,,,,,,,,,,,,,,,,,,,,,,,,,,,,,,,,,,67,cabello,,,1,1,1.255,0,85,85,66,1,REAL,FAKE,,,,,,,,,,,,,,,,,,,,,
,,,,,,,midd04,midd,ma,Colombia,Northeast,13 or older,yes,2021-03-28_09h56.31.643,empathy_intonation_perc,2020.2.10,MacIntel,60,IwAR26xrIzc05Uny94xxvLKclhr0HUXNQar10Tgs6lhCPAafGTxvP0_mO39BM,,,,,,,,,,1,,,,,,,,,,,,,,,,,,,,,,,,,,,,,,,,,,,,,,,,54,fomentar,,,1,1,1.273,0,86,86,53,1,REAL,FAKE,,,,,,,,,,,,,,,,,,,,,
,,,,,,,midd04,midd,ma,Colombia,Northeast,13 or older,yes,2021-03-28_09h56.31.643,empathy_intonation_perc,2020.2.10,MacIntel,60,IwAR26xrIzc05Uny94xxvLKclhr0HUXNQar10Tgs6lhCPAafGTxvP0_mO39BM,,,,,,,,,,1,,,,,,,,,,,,,,,,,,,,,,,,,,,,,,,,,,,,,,,,56,musgo,,,1,1,3.116,0,87,87,55,1,REAL,FAKE,,,,,,,,,,,,,,,,,,,,,
,,,,,,,midd04,midd,ma,Colombia,Northeast,13 or older,yes,2021-03-28_09h56.31.643,empathy_intonation_perc,2020.2.10,MacIntel,60,IwAR26xrIzc05Uny94xxvLKclhr0HUXNQar10Tgs6lhCPAafGTxvP0_mO39BM,,,,,,,,,,1,,,,,,,,,,,,,,,,,,,,,,,,,,,,,,,,,,,,,,,,71,polvoriento,,,1,1,4.797,0,88,88,70,1,REAL,FAKE,,,,,,,,,,,,,,,,,,,,,
,,,,,,,midd04,midd,ma,Colombia,Northeast,13 or older,yes,2021-03-28_09h56.31.643,empathy_intonation_perc,2020.2.10,MacIntel,60,IwAR26xrIzc05Uny94xxvLKclhr0HUXNQar10Tgs6lhCPAafGTxvP0_mO39BM,,,,,,,,,,1,,,,,,,,,,,,,,,,,,,,,,,,,,,,,,,,,,,,,,,,20,vido,,,1,1,7.788,0,89,89,19,1,REAL,FAKE,,,,,,,,,,,,,,,,,,,,,
,,,,,,,midd04,midd,ma,Colombia,Northeast,13 or older,yes,2021-03-28_09h56.31.643,empathy_intonation_perc,2020.2.10,MacIntel,60,IwAR26xrIzc05Uny94xxvLKclhr0HUXNQar10Tgs6lhCPAafGTxvP0_mO39BM,,,,,,,,,,,,,,,,,,,,,,,,,,,,,,,,,,,,,,,,,,,,,,,,,,,,,,,,,,,,,,,,4,1,4.105,1,0,0,0,0,0,1,,,,,,,,,,,
,,,,,,,midd04,midd,ma,Colombia,Northeast,13 or older,yes,2021-03-28_09h56.31.643,empathy_intonation_perc,2020.2.10,MacIntel,60,IwAR26xrIzc05Uny94xxvLKclhr0HUXNQar10Tgs6lhCPAafGTxvP0_mO39BM,,,,,,,,,,,,,,,,,,,,1,,,,,,,,,,,,,,,,,,,,,,,,,,,,,,,,,,,,,,,,,,,,,,,,,,,,,,2,0,0,0,0,1,I can easily tell if someone else wants to enter a conversation.,1,0,1,0
,,,,,,,midd04,midd,ma,Colombia,Northeast,13 or older,yes,2021-03-28_09h56.31.643,empathy_intonation_perc,2020.2.10,MacIntel,60,IwAR26xrIzc05Uny94xxvLKclhr0HUXNQar10Tgs6lhCPAafGTxvP0_mO39BM,,,,,,,,,,,,,,,,,,,,2,,,,,,,,,,,,,,,,,,,,,,,,,,,,,,,,,,,,,,,,,,,,,,,,,,,,,,4,0,1,1,1,1,I prefer animals to humans.,0,1,0,0
,,,,,,,midd04,midd,ma,Colombia,Northeast,13 or older,yes,2021-03-28_09h56.31.643,empathy_intonation_perc,2020.2.10,MacIntel,60,IwAR26xrIzc05Uny94xxvLKclhr0HUXNQar10Tgs6lhCPAafGTxvP0_mO39BM,,,,,,,,,,,,,,,,,,,,3,,,,,,,,,,,,,,,,,,,,,,,,,,,,,,,,,,,,,,,,,,,,,,,,,,,,,,3,0,2,2,2,1,I try to keep up with the current trends and fashions.,0,1,0,0
,,,,,,,midd04,midd,ma,Colombia,Northeast,13 or older,yes,2021-03-28_09h56.31.643,empathy_intonation_perc,2020.2.10,MacIntel,60,IwAR26xrIzc05Uny94xxvLKclhr0HUXNQar10Tgs6lhCPAafGTxvP0_mO39BM,,,,,,,,,,,,,,,,,,,,4,,,,,,,,,,,,,,,,,,,,,,,,,,,,,,,,,,,,,,,,,,,,,,,,,,,,,,3,0,3,3,3,1,"I find it difficult to explain to others things that I understand easily, 
  when they dont understand it first time.",1,0,0,1
,,,,,,,midd04,midd,ma,Colombia,Northeast,13 or older,yes,2021-03-28_09h56.31.643,empathy_intonation_perc,2020.2.10,MacIntel,60,IwAR26xrIzc05Uny94xxvLKclhr0HUXNQar10Tgs6lhCPAafGTxvP0_mO39BM,,,,,,,,,,,,,,,,,,,,5,,,,,,,,,,,,,,,,,,,,,,,,,,,,,,,,,,,,,,,,,,,,,,,,,,,,,,2,0,4,4,4,1,I dream most nights.,0,1,0,0
