instructions_2afc_loop.thisRepN,instructions_2afc_loop.thisTrialN,instructions_2afc_loop.thisN,instructions_2afc_loop.thisIndex,instructions_2afc_loop.ran,instructions_text,continue_text,participant,study_id,session,I am most familiar with Spanish from...*,What part of the US are you from?*,At what age did you begin learning Spanish?*,Are you proficient in any languages other than English/Spanish?*,date,expName,psychopyVersion,OS,frameRate,fbclid,key_resp_2afc_practice.keys,key_resp_2afc_practice.corr,key_resp_2afc_practice.rt,trials_2afc_practice_loop.thisRepN,trials_2afc_practice_loop.thisTrialN,trials_2afc_practice_loop.thisN,trials_2afc_practice_loop.thisIndex,trials_2afc_practice_loop.ran,path,correct_response,the_col,key_resp_2afc_trial.keys,key_resp_2afc_trial.corr,key_resp_2afc_trial.rt,trials_2afc_loop.thisRepN,trials_2afc_loop.thisTrialN,trials_2afc_loop.thisN,trials_2afc_loop.thisIndex,trials_2afc_loop.ran,item_num,andalusian,argentine,castilian,chilean,cuban,mexican,peruvian,puertorican,key_resp_ac1.keys,key_resp_ac1.corr,key_resp_ac1.rt,ac1_loop.thisRepN,ac1_loop.thisTrialN,ac1_loop.thisN,ac1_loop.thisIndex,ac1_loop.ran,instructions_lextale_loop.thisRepN,instructions_lextale_loop.thisTrialN,instructions_lextale_loop.thisN,instructions_lextale_loop.thisIndex,instructions_lextale_loop.ran,key_resp_lextale_practice.keys,key_resp_lextale_practice.corr,key_resp_lextale_practice.rt,trials_lextale_practice_loop.thisRepN,trials_lextale_practice_loop.thisTrialN,trials_lextale_practice_loop.thisN,trials_lextale_practice_loop.thisIndex,trials_lextale_practice_loop.ran,stim,word,prac_button_real,prac_button_false,key_resp_lextale_trial.keys,key_resp_lextale_trial.corr,key_resp_lextale_trial.rt,trials_lextale_loop.thisRepN,trials_lextale_loop.thisTrialN,trials_lextale_loop.thisN,trials_lextale_loop.thisIndex,trials_lextale_loop.ran,button_real,button_false,key_resp_ac2.keys,key_resp_ac2.corr,key_resp_ac2.rt,check_pass,check_fails,ac2_loop.thisRepN,ac2_loop.thisTrialN,ac2_loop.thisN,ac2_loop.thisIndex,ac2_loop.ran,slider_eq_trial.response,trials_eq_loop.thisRepN,trials_eq_loop.thisTrialN,trials_eq_loop.thisN,trials_eq_loop.thisIndex,trials_eq_loop.ran,item,is_test_item,is_distractor,is_agree_score,is_disagree_score
0,0,0,0,1,"In the following task you are going to hear a series of utterances. 

  You will decide if the utterances sound like questions or not using your keyboard.",(press the spacebar to continue),midd03,midd,ma,Spain,Midwest,12 or younger,no,2021-03-26_19h34.53.645,empathy_intonation_perc,2020.2.10,MacIntel,60,IwAR0-AsAwfDDs5_4Cof_9_IL2Zkxt31E6uBj-8XZuPc9JM9RVnX2V_yVzSt4,,,,,,,,,,,,,,,,,,,,,,,,,,,,,,,,,,,,,,,,,,,,,,,,,,,,,,,,,,,,,,,,,,,,,,,,,,,,,,,,,,,,
0,1,1,1,1,"If you believe the utterance is a question, type '1' (for 'yes') and if you do not 
  believe it is a question type '0' (for 'no').

  Let's practice a bit...",(press the spacebar to continue),midd03,midd,ma,Spain,Midwest,12 or younger,no,2021-03-26_19h34.53.645,empathy_intonation_perc,2020.2.10,MacIntel,60,IwAR0-AsAwfDDs5_4Cof_9_IL2Zkxt31E6uBj-8XZuPc9JM9RVnX2V_yVzSt4,,,,,,,,,,,,,,,,,,,,,,,,,,,,,,,,,,,,,,,,,,,,,,,,,,,,,,,,,,,,,,,,,,,,,,,,,,,,,,,,,,,,
,,,,,,,midd03,midd,ma,Spain,Midwest,12 or younger,no,2021-03-26_19h34.53.645,empathy_intonation_perc,2020.2.10,MacIntel,60,IwAR0-AsAwfDDs5_4Cof_9_IL2Zkxt31E6uBj-8XZuPc9JM9RVnX2V_yVzSt4,0,0,4.069,0,0,0,2,1,./stim/wavs/chilean_question_filler_Mi-padre-cantaba-bien.wav,1,,,,,,,,,,,,,,,,,,,,,,,,,,,,,,,,,,,,,,,,,,,,,,,,,,,,,,,,,,,,,,,,,,,,,,,,,,
,,,,,,,midd03,midd,ma,Spain,Midwest,12 or younger,no,2021-03-26_19h34.53.645,empathy_intonation_perc,2020.2.10,MacIntel,60,IwAR0-AsAwfDDs5_4Cof_9_IL2Zkxt31E6uBj-8XZuPc9JM9RVnX2V_yVzSt4,0,1,2.102,0,1,1,4,1,./stim/wavs/cuban_statement_filler_Cocinabas-por-la-noche.wav,0,,,,,,,,,,,,,,,,,,,,,,,,,,,,,,,,,,,,,,,,,,,,,,,,,,,,,,,,,,,,,,,,,,,,,,,,,,
,,,,,,,midd03,midd,ma,Spain,Midwest,12 or younger,no,2021-03-26_19h34.53.645,empathy_intonation_perc,2020.2.10,MacIntel,60,IwAR0-AsAwfDDs5_4Cof_9_IL2Zkxt31E6uBj-8XZuPc9JM9RVnX2V_yVzSt4,0,1,2.157,0,2,2,7,1,./stim/wavs/puertorican_statement_filler_La-nina-pinta-con-su-amiga.wav,0,,,,,,,,,,,,,,,,,,,,,,,,,,,,,,,,,,,,,,,,,,,,,,,,,,,,,,,,,,,,,,,,,,,,,,,,,,
,,,,,,,midd03,midd,ma,Spain,Midwest,12 or younger,no,2021-03-26_19h34.53.645,empathy_intonation_perc,2020.2.10,MacIntel,60,IwAR0-AsAwfDDs5_4Cof_9_IL2Zkxt31E6uBj-8XZuPc9JM9RVnX2V_yVzSt4,1,1,1.626,0,3,3,1,1,./stim/wavs/argentine_question_filler_Mi-vecino-habla-mucho.wav,1,,,,,,,,,,,,,,,,,,,,,,,,,,,,,,,,,,,,,,,,,,,,,,,,,,,,,,,,,,,,,,,,,,,,,,,,,,
,,,,,,,midd03,midd,ma,Spain,Midwest,12 or younger,no,2021-03-26_19h34.53.645,empathy_intonation_perc,2020.2.10,MacIntel,60,IwAR0-AsAwfDDs5_4Cof_9_IL2Zkxt31E6uBj-8XZuPc9JM9RVnX2V_yVzSt4,0,1,2.293,0,4,4,6,1,./stim/wavs/peruvian_statement_filler_El-nino-habla-con-su-madre.wav,0,,,,,,,,,,,,,,,,,,,,,,,,,,,,,,,,,,,,,,,,,,,,,,,,,,,,,,,,,,,,,,,,,,,,,,,,,,
,,,,,,,midd03,midd,ma,Spain,Midwest,12 or younger,no,2021-03-26_19h34.53.645,empathy_intonation_perc,2020.2.10,MacIntel,60,IwAR0-AsAwfDDs5_4Cof_9_IL2Zkxt31E6uBj-8XZuPc9JM9RVnX2V_yVzSt4,1,1,2.622,0,5,5,3,1,./stim/wavs/mexican_question_filler_Felipe-no-tiene-contrasena.wav,1,,,,,,,,,,,,,,,,,,,,,,,,,,,,,,,,,,,,,,,,,,,,,,,,,,,,,,,,,,,,,,,,,,,,,,,,,,
,,,,,,,midd03,midd,ma,Spain,Midwest,12 or younger,no,2021-03-26_19h34.53.645,empathy_intonation_perc,2020.2.10,MacIntel,60,IwAR0-AsAwfDDs5_4Cof_9_IL2Zkxt31E6uBj-8XZuPc9JM9RVnX2V_yVzSt4,0,1,1.938,0,6,6,5,1,./stim/wavs/andalusian_statement_filler_Alberto-nunca-se-afeita.wav,0,,,,,,,,,,,,,,,,,,,,,,,,,,,,,,,,,,,,,,,,,,,,,,,,,,,,,,,,,,,,,,,,,,,,,,,,,,
,,,,,,,midd03,midd,ma,Spain,Midwest,12 or younger,no,2021-03-26_19h34.53.645,empathy_intonation_perc,2020.2.10,MacIntel,60,IwAR0-AsAwfDDs5_4Cof_9_IL2Zkxt31E6uBj-8XZuPc9JM9RVnX2V_yVzSt4,1,1,2.204,0,7,7,0,1,./stim/wavs/castilian_question_filler_Mi-esposo-conoce-al-chico.wav,1,,,,,,,,,,,,,,,,,,,,,,,,,,,,,,,,,,,,,,,,,,,,,,,,,,,,,,,,,,,,,,,,,,,,,,,,,,
,,,,,,,midd03,midd,ma,Spain,Midwest,12 or younger,no,2021-03-26_19h34.53.645,empathy_intonation_perc,2020.2.10,MacIntel,60,IwAR0-AsAwfDDs5_4Cof_9_IL2Zkxt31E6uBj-8XZuPc9JM9RVnX2V_yVzSt4,,,,,,,,,,0,mexican,0,1,1.836,0,0,0,14,1,15,./stim/wavs/andalusian_match_declarative-narrow-focus_Mariano-habla-del-tiempo.wav,./stim/wavs/argentine_match_declarative-narrow-focus_Mariano-habla-del-tiempo.wav,./stim/wavs/castilian_match_declarative-narrow-focus_Mariano-habla-del-tiempo.wav,./stim/wavs/chilean_match_declarative-narrow-focus_Mariano-habla-del-tiempo.wav,./stim/wavs/cuban_match_declarative-narrow-focus_Mariano-habla-del-tiempo.wav,./stim/wavs/mexican_match_declarative-narrow-focus_Mariano-habla-del-tiempo.wav,./stim/wavs/peruvian_match_declarative-narrow-focus_Mariano-habla-del-tiempo.wav,./stim/wavs/puertorican_match_declarative-narrow-focus_Mariano-habla-del-tiempo.wav,,,,,,,,,,,,,,,,,,,,,,,,,,,,,,,,,,,,,,,,,,,,,,,,,,,,,,,,
,,,,,,,midd03,midd,ma,Spain,Midwest,12 or younger,no,2021-03-26_19h34.53.645,empathy_intonation_perc,2020.2.10,MacIntel,60,IwAR0-AsAwfDDs5_4Cof_9_IL2Zkxt31E6uBj-8XZuPc9JM9RVnX2V_yVzSt4,,,,,,,,,,1,peruvian,1,1,1.99,0,1,1,57,1,58,./stim/wavs/andalusian_mismatch_interrogative-total-yn_El-hombre-mira-la-luna.wav,./stim/wavs/argentine_mismatch_interrogative-total-yn_El-hombre-mira-la-luna.wav,./stim/wavs/castilian_mismatch_interrogative-total-yn_El-hombre-mira-la-luna.wav,./stim/wavs/chilean_mismatch_interrogative-total-yn_El-hombre-mira-la-luna.wav,./stim/wavs/cuban_mismatch_interrogative-total-yn_El-hombre-mira-la-luna.wav,./stim/wavs/mexican_mismatch_interrogative-total-yn_El-hombre-mira-la-luna.wav,./stim/wavs/peruvian_mismatch_interrogative-total-yn_El-hombre-mira-la-luna.wav,./stim/wavs/puertorican_mismatch_interrogative-total-yn_El-hombre-mira-la-luna.wav,,,,,,,,,,,,,,,,,,,,,,,,,,,,,,,,,,,,,,,,,,,,,,,,,,,,,,,,
,,,,,,,midd03,midd,ma,Spain,Midwest,12 or younger,no,2021-03-26_19h34.53.645,empathy_intonation_perc,2020.2.10,MacIntel,60,IwAR0-AsAwfDDs5_4Cof_9_IL2Zkxt31E6uBj-8XZuPc9JM9RVnX2V_yVzSt4,,,,,,,,,,1,argentine,0,0,1.663,0,2,2,19,1,20,./stim/wavs/andalusian_match_interrogative-partial-wh_Cuando-vendia-el-carro.wav,./stim/wavs/argentine_match_interrogative-partial-wh_Cuando-vendia-el-carro.wav,./stim/wavs/castilian_match_interrogative-partial-wh_Cuando-vendia-el-carro.wav,./stim/wavs/chilean_match_interrogative-partial-wh_Cuando-vendia-el-carro.wav,./stim/wavs/cuban_match_interrogative-partial-wh_Cuando-vendia-el-carro.wav,./stim/wavs/mexican_match_interrogative-partial-wh_Cuando-vendia-el-carro.wav,./stim/wavs/peruvian_match_interrogative-partial-wh_Cuando-vendia-el-carro.wav,./stim/wavs/puertorican_match_interrogative-partial-wh_Cuando-vendia-el-carro.wav,,,,,,,,,,,,,,,,,,,,,,,,,,,,,,,,,,,,,,,,,,,,,,,,,,,,,,,,
,,,,,,,midd03,midd,ma,Spain,Midwest,12 or younger,no,2021-03-26_19h34.53.645,empathy_intonation_perc,2020.2.10,MacIntel,60,IwAR0-AsAwfDDs5_4Cof_9_IL2Zkxt31E6uBj-8XZuPc9JM9RVnX2V_yVzSt4,,,,,,,,,,1,argentine,1,1,2.468,0,3,3,23,1,24,./stim/wavs/andalusian_match_interrogative-partial-wh_Por-que-iba-a-Bolivia.wav,./stim/wavs/argentine_match_interrogative-partial-wh_Por-que-iba-a-Bolivia.wav,./stim/wavs/castilian_match_interrogative-partial-wh_Por-que-iba-a-Bolivia.wav,./stim/wavs/chilean_match_interrogative-partial-wh_Por-que-iba-a-Bolivia.wav,./stim/wavs/cuban_match_interrogative-partial-wh_Por-que-iba-a-Bolivia.wav,./stim/wavs/mexican_match_interrogative-partial-wh_Por-que-iba-a-Bolivia.wav,./stim/wavs/peruvian_match_interrogative-partial-wh_Por-que-iba-a-Bolivia.wav,./stim/wavs/puertorican_match_interrogative-partial-wh_Por-que-iba-a-Bolivia.wav,,,,,,,,,,,,,,,,,,,,,,,,,,,,,,,,,,,,,,,,,,,,,,,,,,,,,,,,
,,,,,,,midd03,midd,ma,Spain,Midwest,12 or younger,no,2021-03-26_19h34.53.645,empathy_intonation_perc,2020.2.10,MacIntel,60,IwAR0-AsAwfDDs5_4Cof_9_IL2Zkxt31E6uBj-8XZuPc9JM9RVnX2V_yVzSt4,,,,,,,,,,0,andalusian,0,1,2.168,0,4,4,39,1,40,./stim/wavs/andalusian_mismatch_declarative-broad-focus_Mi-tia-odia-la-lluvia.wav,./stim/wavs/argentine_mismatch_declarative-broad-focus_Mi-tia-odia-la-lluvia.wav,./stim/wavs/castilian_mismatch_declarative-broad-focus_Mi-tia-odia-la-lluvia.wav,./stim/wavs/chilean_mismatch_declarative-broad-focus_Mi-tia-odia-la-lluvia.wav,./stim/wavs/cuban_mismatch_declarative-broad-focus_Mi-tia-odia-la-lluvia.wav,./stim/wavs/mexican_mismatch_declarative-broad-focus_Mi-tia-odia-la-lluvia.wav,./stim/wavs/peruvian_mismatch_declarative-broad-focus_Mi-tia-odia-la-lluvia.wav,./stim/wavs/puertorican_mismatch_declarative-broad-focus_Mi-tia-odia-la-lluvia.wav,,,,,,,,,,,,,,,,,,,,,,,,,,,,,,,,,,,,,,,,,,,,,,,,,,,,,,,,
,,,,,,,midd03,midd,ma,Spain,Midwest,12 or younger,no,2021-03-26_19h34.53.645,empathy_intonation_perc,2020.2.10,MacIntel,60,IwAR0-AsAwfDDs5_4Cof_9_IL2Zkxt31E6uBj-8XZuPc9JM9RVnX2V_yVzSt4,,,,,,,,,,0,cuban,0,1,2.317,0,5,5,9,1,10,./stim/wavs/andalusian_match_declarative-narrow-focus_Daniel-iba-a-Bolivia.wav,./stim/wavs/argentine_match_declarative-narrow-focus_Daniel-iba-a-Bolivia.wav,./stim/wavs/castilian_match_declarative-narrow-focus_Daniel-iba-a-Bolivia.wav,./stim/wavs/chilean_match_declarative-narrow-focus_Daniel-iba-a-Bolivia.wav,./stim/wavs/cuban_match_declarative-narrow-focus_Daniel-iba-a-Bolivia.wav,./stim/wavs/mexican_match_declarative-narrow-focus_Daniel-iba-a-Bolivia.wav,./stim/wavs/peruvian_match_declarative-narrow-focus_Daniel-iba-a-Bolivia.wav,./stim/wavs/puertorican_match_declarative-narrow-focus_Daniel-iba-a-Bolivia.wav,,,,,,,,,,,,,,,,,,,,,,,,,,,,,,,,,,,,,,,,,,,,,,,,,,,,,,,,
,,,,,,,midd03,midd,ma,Spain,Midwest,12 or younger,no,2021-03-26_19h34.53.645,empathy_intonation_perc,2020.2.10,MacIntel,60,IwAR0-AsAwfDDs5_4Cof_9_IL2Zkxt31E6uBj-8XZuPc9JM9RVnX2V_yVzSt4,,,,,,,,,,1,argentine,1,1,1.978,0,6,6,26,1,27,./stim/wavs/andalusian_match_interrogative-total-yn_David-leia-el-libro.wav,./stim/wavs/argentine_match_interrogative-total-yn_David-leia-el-libro.wav,./stim/wavs/castilian_match_interrogative-total-yn_David-leia-el-libro.wav,./stim/wavs/chilean_match_interrogative-total-yn_David-leia-el-libro.wav,./stim/wavs/cuban_match_interrogative-total-yn_David-leia-el-libro.wav,./stim/wavs/mexican_match_interrogative-total-yn_David-leia-el-libro.wav,./stim/wavs/peruvian_match_interrogative-total-yn_David-leia-el-libro.wav,./stim/wavs/puertorican_match_interrogative-total-yn_David-leia-el-libro.wav,,,,,,,,,,,,,,,,,,,,,,,,,,,,,,,,,,,,,,,,,,,,,,,,,,,,,,,,
,,,,,,,midd03,midd,ma,Spain,Midwest,12 or younger,no,2021-03-26_19h34.53.645,empathy_intonation_perc,2020.2.10,MacIntel,60,IwAR0-AsAwfDDs5_4Cof_9_IL2Zkxt31E6uBj-8XZuPc9JM9RVnX2V_yVzSt4,,,,,,,,,,0,andalusian,0,1,1.925,0,7,7,44,1,45,./stim/wavs/andalusian_mismatch_declarative-narrow-focus_La-nina-lava-el-plato.wav,./stim/wavs/argentine_mismatch_declarative-narrow-focus_La-nina-lava-el-plato.wav,./stim/wavs/castilian_mismatch_declarative-narrow-focus_La-nina-lava-el-plato.wav,./stim/wavs/chilean_mismatch_declarative-narrow-focus_La-nina-lava-el-plato.wav,./stim/wavs/cuban_mismatch_declarative-narrow-focus_La-nina-lava-el-plato.wav,./stim/wavs/mexican_mismatch_declarative-narrow-focus_La-nina-lava-el-plato.wav,./stim/wavs/peruvian_mismatch_declarative-narrow-focus_La-nina-lava-el-plato.wav,./stim/wavs/puertorican_mismatch_declarative-narrow-focus_La-nina-lava-el-plato.wav,,,,,,,,,,,,,,,,,,,,,,,,,,,,,,,,,,,,,,,,,,,,,,,,,,,,,,,,
,,,,,,,midd03,midd,ma,Spain,Midwest,12 or younger,no,2021-03-26_19h34.53.645,empathy_intonation_perc,2020.2.10,MacIntel,60,IwAR0-AsAwfDDs5_4Cof_9_IL2Zkxt31E6uBj-8XZuPc9JM9RVnX2V_yVzSt4,,,,,,,,,,0,peruvian,0,1,1.89,0,8,8,46,1,47,./stim/wavs/andalusian_mismatch_declarative-narrow-focus_Mi-novio-viene-del-lago.wav,./stim/wavs/argentine_mismatch_declarative-narrow-focus_Mi-novio-viene-del-lago.wav,./stim/wavs/castilian_mismatch_declarative-narrow-focus_Mi-novio-viene-del-lago.wav,./stim/wavs/chilean_mismatch_declarative-narrow-focus_Mi-novio-viene-del-lago.wav,./stim/wavs/cuban_mismatch_declarative-narrow-focus_Mi-novio-viene-del-lago.wav,./stim/wavs/mexican_mismatch_declarative-narrow-focus_Mi-novio-viene-del-lago.wav,./stim/wavs/peruvian_mismatch_declarative-narrow-focus_Mi-novio-viene-del-lago.wav,./stim/wavs/puertorican_mismatch_declarative-narrow-focus_Mi-novio-viene-del-lago.wav,,,,,,,,,,,,,,,,,,,,,,,,,,,,,,,,,,,,,,,,,,,,,,,,,,,,,,,,
,,,,,,,midd03,midd,ma,Spain,Midwest,12 or younger,no,2021-03-26_19h34.53.645,empathy_intonation_perc,2020.2.10,MacIntel,60,IwAR0-AsAwfDDs5_4Cof_9_IL2Zkxt31E6uBj-8XZuPc9JM9RVnX2V_yVzSt4,,,,,,,,,,1,mexican,1,1,2.004,0,9,9,20,1,21,./stim/wavs/andalusian_match_interrogative-partial-wh_Por-que-abre-el-regalo.wav,./stim/wavs/argentine_match_interrogative-partial-wh_Por-que-abre-el-regalo.wav,./stim/wavs/castilian_match_interrogative-partial-wh_Por-que-abre-el-regalo.wav,./stim/wavs/chilean_match_interrogative-partial-wh_Por-que-abre-el-regalo.wav,./stim/wavs/cuban_match_interrogative-partial-wh_Por-que-abre-el-regalo.wav,./stim/wavs/mexican_match_interrogative-partial-wh_Por-que-abre-el-regalo.wav,./stim/wavs/peruvian_match_interrogative-partial-wh_Por-que-abre-el-regalo.wav,./stim/wavs/puertorican_match_interrogative-partial-wh_Por-que-abre-el-regalo.wav,,,,,,,,,,,,,,,,,,,,,,,,,,,,,,,,,,,,,,,,,,,,,,,,,,,,,,,,
,,,,,,,midd03,midd,ma,Spain,Midwest,12 or younger,no,2021-03-26_19h34.53.645,empathy_intonation_perc,2020.2.10,MacIntel,60,IwAR0-AsAwfDDs5_4Cof_9_IL2Zkxt31E6uBj-8XZuPc9JM9RVnX2V_yVzSt4,,,,,,,,,,0,mexican,0,1,1.841,0,10,10,45,1,46,./stim/wavs/andalusian_mismatch_declarative-narrow-focus_Mi-madre-come-la-fruta.wav,./stim/wavs/argentine_mismatch_declarative-narrow-focus_Mi-madre-come-la-fruta.wav,./stim/wavs/castilian_mismatch_declarative-narrow-focus_Mi-madre-come-la-fruta.wav,./stim/wavs/chilean_mismatch_declarative-narrow-focus_Mi-madre-come-la-fruta.wav,./stim/wavs/cuban_mismatch_declarative-narrow-focus_Mi-madre-come-la-fruta.wav,./stim/wavs/mexican_mismatch_declarative-narrow-focus_Mi-madre-come-la-fruta.wav,./stim/wavs/peruvian_mismatch_declarative-narrow-focus_Mi-madre-come-la-fruta.wav,./stim/wavs/puertorican_mismatch_declarative-narrow-focus_Mi-madre-come-la-fruta.wav,,,,,,,,,,,,,,,,,,,,,,,,,,,,,,,,,,,,,,,,,,,,,,,,,,,,,,,,
,,,,,,,midd03,midd,ma,Spain,Midwest,12 or younger,no,2021-03-26_19h34.53.645,empathy_intonation_perc,2020.2.10,MacIntel,60,IwAR0-AsAwfDDs5_4Cof_9_IL2Zkxt31E6uBj-8XZuPc9JM9RVnX2V_yVzSt4,,,,,,,,,,1,cuban,0,0,3.162,0,11,11,58,1,59,./stim/wavs/andalusian_mismatch_interrogative-total-yn_El-nino-oye-el-rio.wav,./stim/wavs/argentine_mismatch_interrogative-total-yn_El-nino-oye-el-rio.wav,./stim/wavs/castilian_mismatch_interrogative-total-yn_El-nino-oye-el-rio.wav,./stim/wavs/chilean_mismatch_interrogative-total-yn_El-nino-oye-el-rio.wav,./stim/wavs/cuban_mismatch_interrogative-total-yn_El-nino-oye-el-rio.wav,./stim/wavs/mexican_mismatch_interrogative-total-yn_El-nino-oye-el-rio.wav,./stim/wavs/peruvian_mismatch_interrogative-total-yn_El-nino-oye-el-rio.wav,./stim/wavs/puertorican_mismatch_interrogative-total-yn_El-nino-oye-el-rio.wav,,,,,,,,,,,,,,,,,,,,,,,,,,,,,,,,,,,,,,,,,,,,,,,,,,,,,,,,
,,,,,,,midd03,midd,ma,Spain,Midwest,12 or younger,no,2021-03-26_19h34.53.645,empathy_intonation_perc,2020.2.10,MacIntel,60,IwAR0-AsAwfDDs5_4Cof_9_IL2Zkxt31E6uBj-8XZuPc9JM9RVnX2V_yVzSt4,,,,,,,,,,0,cuban,0,1,2.035,0,12,12,2,1,3,./stim/wavs/andalusian_match_declarative-broad-focus_David-leia-el-libro.wav,./stim/wavs/argentine_match_declarative-broad-focus_David-leia-el-libro.wav,./stim/wavs/castilian_match_declarative-broad-focus_David-leia-el-libro.wav,./stim/wavs/chilean_match_declarative-broad-focus_David-leia-el-libro.wav,./stim/wavs/cuban_match_declarative-broad-focus_David-leia-el-libro.wav,./stim/wavs/mexican_match_declarative-broad-focus_David-leia-el-libro.wav,./stim/wavs/peruvian_match_declarative-broad-focus_David-leia-el-libro.wav,./stim/wavs/puertorican_match_declarative-broad-focus_David-leia-el-libro.wav,,,,,,,,,,,,,,,,,,,,,,,,,,,,,,,,,,,,,,,,,,,,,,,,,,,,,,,,
,,,,,,,midd03,midd,ma,Spain,Midwest,12 or younger,no,2021-03-26_19h34.53.645,empathy_intonation_perc,2020.2.10,MacIntel,60,IwAR0-AsAwfDDs5_4Cof_9_IL2Zkxt31E6uBj-8XZuPc9JM9RVnX2V_yVzSt4,,,,,,,,,,0,cuban,0,1,2.126,0,13,13,35,1,36,./stim/wavs/andalusian_mismatch_declarative-broad-focus_La-maestra-vive-en-Paris.wav,./stim/wavs/argentine_mismatch_declarative-broad-focus_La-maestra-vive-en-Paris.wav,./stim/wavs/castilian_mismatch_declarative-broad-focus_La-maestra-vive-en-Paris.wav,./stim/wavs/chilean_mismatch_declarative-broad-focus_La-maestra-vive-en-Paris.wav,./stim/wavs/cuban_mismatch_declarative-broad-focus_La-maestra-vive-en-Paris.wav,./stim/wavs/mexican_mismatch_declarative-broad-focus_La-maestra-vive-en-Paris.wav,./stim/wavs/peruvian_mismatch_declarative-broad-focus_La-maestra-vive-en-Paris.wav,./stim/wavs/puertorican_mismatch_declarative-broad-focus_La-maestra-vive-en-Paris.wav,,,,,,,,,,,,,,,,,,,,,,,,,,,,,,,,,,,,,,,,,,,,,,,,,,,,,,,,
,,,,,,,midd03,midd,ma,Spain,Midwest,12 or younger,no,2021-03-26_19h34.53.645,empathy_intonation_perc,2020.2.10,MacIntel,60,IwAR0-AsAwfDDs5_4Cof_9_IL2Zkxt31E6uBj-8XZuPc9JM9RVnX2V_yVzSt4,,,,,,,,,,1,peruvian,1,1,2.072,0,14,14,54,1,55,./stim/wavs/andalusian_mismatch_interrogative-partial-wh_Por-que-venia-del-lago.wav,./stim/wavs/argentine_mismatch_interrogative-partial-wh_Por-que-venia-del-lago.wav,./stim/wavs/castilian_mismatch_interrogative-partial-wh_Por-que-venia-del-lago.wav,./stim/wavs/chilean_mismatch_interrogative-partial-wh_Por-que-venia-del-lago.wav,./stim/wavs/cuban_mismatch_interrogative-partial-wh_Por-que-venia-del-lago.wav,./stim/wavs/mexican_mismatch_interrogative-partial-wh_Por-que-venia-del-lago.wav,./stim/wavs/peruvian_mismatch_interrogative-partial-wh_Por-que-venia-del-lago.wav,./stim/wavs/puertorican_mismatch_interrogative-partial-wh_Por-que-venia-del-lago.wav,,,,,,,,,,,,,,,,,,,,,,,,,,,,,,,,,,,,,,,,,,,,,,,,,,,,,,,,
,,,,,,,midd03,midd,ma,Spain,Midwest,12 or younger,no,2021-03-26_19h34.53.645,empathy_intonation_perc,2020.2.10,MacIntel,60,IwAR0-AsAwfDDs5_4Cof_9_IL2Zkxt31E6uBj-8XZuPc9JM9RVnX2V_yVzSt4,,,,,,,,,,1,cuban,1,1,1.874,0,15,15,60,1,61,./stim/wavs/andalusian_mismatch_interrogative-total-yn_La-nina-lava-el-plato.wav,./stim/wavs/argentine_mismatch_interrogative-total-yn_La-nina-lava-el-plato.wav,./stim/wavs/castilian_mismatch_interrogative-total-yn_La-nina-lava-el-plato.wav,./stim/wavs/chilean_mismatch_interrogative-total-yn_La-nina-lava-el-plato.wav,./stim/wavs/cuban_mismatch_interrogative-total-yn_La-nina-lava-el-plato.wav,./stim/wavs/mexican_mismatch_interrogative-total-yn_La-nina-lava-el-plato.wav,./stim/wavs/peruvian_mismatch_interrogative-total-yn_La-nina-lava-el-plato.wav,./stim/wavs/puertorican_mismatch_interrogative-total-yn_La-nina-lava-el-plato.wav,,,,,,,,,,,,,,,,,,,,,,,,,,,,,,,,,,,,,,,,,,,,,,,,,,,,,,,,
,,,,,,,midd03,midd,ma,Spain,Midwest,12 or younger,no,2021-03-26_19h34.53.645,empathy_intonation_perc,2020.2.10,MacIntel,60,IwAR0-AsAwfDDs5_4Cof_9_IL2Zkxt31E6uBj-8XZuPc9JM9RVnX2V_yVzSt4,,,,,,,,,,0,andalusian,0,1,1.767,0,16,16,43,1,44,./stim/wavs/andalusian_mismatch_declarative-narrow-focus_La-maestra-vive-en-Paris.wav,./stim/wavs/argentine_mismatch_declarative-narrow-focus_La-maestra-vive-en-Paris.wav,./stim/wavs/castilian_mismatch_declarative-narrow-focus_La-maestra-vive-en-Paris.wav,./stim/wavs/chilean_mismatch_declarative-narrow-focus_La-maestra-vive-en-Paris.wav,./stim/wavs/cuban_mismatch_declarative-narrow-focus_La-maestra-vive-en-Paris.wav,./stim/wavs/mexican_mismatch_declarative-narrow-focus_La-maestra-vive-en-Paris.wav,./stim/wavs/peruvian_mismatch_declarative-narrow-focus_La-maestra-vive-en-Paris.wav,./stim/wavs/puertorican_mismatch_declarative-narrow-focus_La-maestra-vive-en-Paris.wav,,,,,,,,,,,,,,,,,,,,,,,,,,,,,,,,,,,,,,,,,,,,,,,,,,,,,,,,
,,,,,,,midd03,midd,ma,Spain,Midwest,12 or younger,no,2021-03-26_19h34.53.645,empathy_intonation_perc,2020.2.10,MacIntel,60,IwAR0-AsAwfDDs5_4Cof_9_IL2Zkxt31E6uBj-8XZuPc9JM9RVnX2V_yVzSt4,,,,,,,,,,1,castilian,1,1,1.857,0,17,17,18,1,19,./stim/wavs/andalusian_match_interrogative-partial-wh_Cuando-lleva-el-abrigo.wav,./stim/wavs/argentine_match_interrogative-partial-wh_Cuando-lleva-el-abrigo.wav,./stim/wavs/castilian_match_interrogative-partial-wh_Cuando-lleva-el-abrigo.wav,./stim/wavs/chilean_match_interrogative-partial-wh_Cuando-lleva-el-abrigo.wav,./stim/wavs/cuban_match_interrogative-partial-wh_Cuando-lleva-el-abrigo.wav,./stim/wavs/mexican_match_interrogative-partial-wh_Cuando-lleva-el-abrigo.wav,./stim/wavs/peruvian_match_interrogative-partial-wh_Cuando-lleva-el-abrigo.wav,./stim/wavs/puertorican_match_interrogative-partial-wh_Cuando-lleva-el-abrigo.wav,,,,,,,,,,,,,,,,,,,,,,,,,,,,,,,,,,,,,,,,,,,,,,,,,,,,,,,,
,,,,,,,midd03,midd,ma,Spain,Midwest,12 or younger,no,2021-03-26_19h34.53.645,empathy_intonation_perc,2020.2.10,MacIntel,60,IwAR0-AsAwfDDs5_4Cof_9_IL2Zkxt31E6uBj-8XZuPc9JM9RVnX2V_yVzSt4,,,,,,,,,,1,cuban,0,0,2.794,0,18,18,59,1,60,./stim/wavs/andalusian_mismatch_interrogative-total-yn_La-maestra-vive-en-Paris.wav,./stim/wavs/argentine_mismatch_interrogative-total-yn_La-maestra-vive-en-Paris.wav,./stim/wavs/castilian_mismatch_interrogative-total-yn_La-maestra-vive-en-Paris.wav,./stim/wavs/chilean_mismatch_interrogative-total-yn_La-maestra-vive-en-Paris.wav,./stim/wavs/cuban_mismatch_interrogative-total-yn_La-maestra-vive-en-Paris.wav,./stim/wavs/mexican_mismatch_interrogative-total-yn_La-maestra-vive-en-Paris.wav,./stim/wavs/peruvian_mismatch_interrogative-total-yn_La-maestra-vive-en-Paris.wav,./stim/wavs/puertorican_mismatch_interrogative-total-yn_La-maestra-vive-en-Paris.wav,,,,,,,,,,,,,,,,,,,,,,,,,,,,,,,,,,,,,,,,,,,,,,,,,,,,,,,,
,,,,,,,midd03,midd,ma,Spain,Midwest,12 or younger,no,2021-03-26_19h34.53.645,empathy_intonation_perc,2020.2.10,MacIntel,60,IwAR0-AsAwfDDs5_4Cof_9_IL2Zkxt31E6uBj-8XZuPc9JM9RVnX2V_yVzSt4,,,,,,,,,,1,argentine,1,1,2.554,0,19,19,16,1,17,./stim/wavs/andalusian_match_interrogative-partial-wh_Cuando-bebia-el-vino.wav,./stim/wavs/argentine_match_interrogative-partial-wh_Cuando-bebia-el-vino.wav,./stim/wavs/castilian_match_interrogative-partial-wh_Cuando-bebia-el-vino.wav,./stim/wavs/chilean_match_interrogative-partial-wh_Cuando-bebia-el-vino.wav,./stim/wavs/cuban_match_interrogative-partial-wh_Cuando-bebia-el-vino.wav,./stim/wavs/mexican_match_interrogative-partial-wh_Cuando-bebia-el-vino.wav,./stim/wavs/peruvian_match_interrogative-partial-wh_Cuando-bebia-el-vino.wav,./stim/wavs/puertorican_match_interrogative-partial-wh_Cuando-bebia-el-vino.wav,,,,,,,,,,,,,,,,,,,,,,,,,,,,,,,,,,,,,,,,,,,,,,,,,,,,,,,,
,,,,,,,midd03,midd,ma,Spain,Midwest,12 or younger,no,2021-03-26_19h34.53.645,empathy_intonation_perc,2020.2.10,MacIntel,60,IwAR0-AsAwfDDs5_4Cof_9_IL2Zkxt31E6uBj-8XZuPc9JM9RVnX2V_yVzSt4,,,,,,,,,,1,castilian,1,1,1.755,0,20,20,17,1,18,./stim/wavs/andalusian_match_interrogative-partial-wh_Cuando-leia-el-libro.wav,./stim/wavs/argentine_match_interrogative-partial-wh_Cuando-leia-el-libro.wav,./stim/wavs/castilian_match_interrogative-partial-wh_Cuando-leia-el-libro.wav,./stim/wavs/chilean_match_interrogative-partial-wh_Cuando-leia-el-libro.wav,./stim/wavs/cuban_match_interrogative-partial-wh_Cuando-leia-el-libro.wav,./stim/wavs/mexican_match_interrogative-partial-wh_Cuando-leia-el-libro.wav,./stim/wavs/peruvian_match_interrogative-partial-wh_Cuando-leia-el-libro.wav,./stim/wavs/puertorican_match_interrogative-partial-wh_Cuando-leia-el-libro.wav,,,,,,,,,,,,,,,,,,,,,,,,,,,,,,,,,,,,,,,,,,,,,,,,,,,,,,,,
,,,,,,,midd03,midd,ma,Spain,Midwest,12 or younger,no,2021-03-26_19h34.53.645,empathy_intonation_perc,2020.2.10,MacIntel,60,IwAR0-AsAwfDDs5_4Cof_9_IL2Zkxt31E6uBj-8XZuPc9JM9RVnX2V_yVzSt4,,,,,,,,,,1,cuban,0,0,2.708,0,21,21,61,1,62,./stim/wavs/andalusian_mismatch_interrogative-total-yn_Mi-madre-come-la-fruta.wav,./stim/wavs/argentine_mismatch_interrogative-total-yn_Mi-madre-come-la-fruta.wav,./stim/wavs/castilian_mismatch_interrogative-total-yn_Mi-madre-come-la-fruta.wav,./stim/wavs/chilean_mismatch_interrogative-total-yn_Mi-madre-come-la-fruta.wav,./stim/wavs/cuban_mismatch_interrogative-total-yn_Mi-madre-come-la-fruta.wav,./stim/wavs/mexican_mismatch_interrogative-total-yn_Mi-madre-come-la-fruta.wav,./stim/wavs/peruvian_mismatch_interrogative-total-yn_Mi-madre-come-la-fruta.wav,./stim/wavs/puertorican_mismatch_interrogative-total-yn_Mi-madre-come-la-fruta.wav,,,,,,,,,,,,,,,,,,,,,,,,,,,,,,,,,,,,,,,,,,,,,,,,,,,,,,,,
,,,,,,,midd03,midd,ma,Spain,Midwest,12 or younger,no,2021-03-26_19h34.53.645,empathy_intonation_perc,2020.2.10,MacIntel,60,IwAR0-AsAwfDDs5_4Cof_9_IL2Zkxt31E6uBj-8XZuPc9JM9RVnX2V_yVzSt4,,,,,,,,,,1,castilian,1,1,1.721,0,22,22,22,1,23,./stim/wavs/andalusian_match_interrogative-partial-wh_Por-que-hablaba-del-agua.wav,./stim/wavs/argentine_match_interrogative-partial-wh_Por-que-hablaba-del-agua.wav,./stim/wavs/castilian_match_interrogative-partial-wh_Por-que-hablaba-del-agua.wav,./stim/wavs/chilean_match_interrogative-partial-wh_Por-que-hablaba-del-agua.wav,./stim/wavs/cuban_match_interrogative-partial-wh_Por-que-hablaba-del-agua.wav,./stim/wavs/mexican_match_interrogative-partial-wh_Por-que-hablaba-del-agua.wav,./stim/wavs/peruvian_match_interrogative-partial-wh_Por-que-hablaba-del-agua.wav,./stim/wavs/puertorican_match_interrogative-partial-wh_Por-que-hablaba-del-agua.wav,,,,,,,,,,,,,,,,,,,,,,,,,,,,,,,,,,,,,,,,,,,,,,,,,,,,,,,,
,,,,,,,midd03,midd,ma,Spain,Midwest,12 or younger,no,2021-03-26_19h34.53.645,empathy_intonation_perc,2020.2.10,MacIntel,60,IwAR0-AsAwfDDs5_4Cof_9_IL2Zkxt31E6uBj-8XZuPc9JM9RVnX2V_yVzSt4,,,,,,,,,,1,argentine,1,1,1.741,0,23,23,56,1,57,./stim/wavs/andalusian_mismatch_interrogative-total-yn_El-bebe-comia-muy-bien.wav,./stim/wavs/argentine_mismatch_interrogative-total-yn_El-bebe-comia-muy-bien.wav,./stim/wavs/castilian_mismatch_interrogative-total-yn_El-bebe-comia-muy-bien.wav,./stim/wavs/chilean_mismatch_interrogative-total-yn_El-bebe-comia-muy-bien.wav,./stim/wavs/cuban_mismatch_interrogative-total-yn_El-bebe-comia-muy-bien.wav,./stim/wavs/mexican_mismatch_interrogative-total-yn_El-bebe-comia-muy-bien.wav,./stim/wavs/peruvian_mismatch_interrogative-total-yn_El-bebe-comia-muy-bien.wav,./stim/wavs/puertorican_mismatch_interrogative-total-yn_El-bebe-comia-muy-bien.wav,,,,,,,,,,,,,,,,,,,,,,,,,,,,,,,,,,,,,,,,,,,,,,,,,,,,,,,,
,,,,,,,midd03,midd,ma,Spain,Midwest,12 or younger,no,2021-03-26_19h34.53.645,empathy_intonation_perc,2020.2.10,MacIntel,60,IwAR0-AsAwfDDs5_4Cof_9_IL2Zkxt31E6uBj-8XZuPc9JM9RVnX2V_yVzSt4,,,,,,,,,,0,castilian,0,1,2.164,0,24,24,10,1,11,./stim/wavs/andalusian_match_declarative-narrow-focus_David-leia-el-libro.wav,./stim/wavs/argentine_match_declarative-narrow-focus_David-leia-el-libro.wav,./stim/wavs/castilian_match_declarative-narrow-focus_David-leia-el-libro.wav,./stim/wavs/chilean_match_declarative-narrow-focus_David-leia-el-libro.wav,./stim/wavs/cuban_match_declarative-narrow-focus_David-leia-el-libro.wav,./stim/wavs/mexican_match_declarative-narrow-focus_David-leia-el-libro.wav,./stim/wavs/peruvian_match_declarative-narrow-focus_David-leia-el-libro.wav,./stim/wavs/puertorican_match_declarative-narrow-focus_David-leia-el-libro.wav,,,,,,,,,,,,,,,,,,,,,,,,,,,,,,,,,,,,,,,,,,,,,,,,,,,,,,,,
,,,,,,,midd03,midd,ma,Spain,Midwest,12 or younger,no,2021-03-26_19h34.53.645,empathy_intonation_perc,2020.2.10,MacIntel,60,IwAR0-AsAwfDDs5_4Cof_9_IL2Zkxt31E6uBj-8XZuPc9JM9RVnX2V_yVzSt4,,,,,,,,,,1,chilean,1,1,1.791,0,25,25,52,1,53,./stim/wavs/andalusian_mismatch_interrogative-partial-wh_Por-que-odiaba-la-lluvia.wav,./stim/wavs/argentine_mismatch_interrogative-partial-wh_Por-que-odiaba-la-lluvia.wav,./stim/wavs/castilian_mismatch_interrogative-partial-wh_Por-que-odiaba-la-lluvia.wav,./stim/wavs/chilean_mismatch_interrogative-partial-wh_Por-que-odiaba-la-lluvia.wav,./stim/wavs/cuban_mismatch_interrogative-partial-wh_Por-que-odiaba-la-lluvia.wav,./stim/wavs/mexican_mismatch_interrogative-partial-wh_Por-que-odiaba-la-lluvia.wav,./stim/wavs/peruvian_mismatch_interrogative-partial-wh_Por-que-odiaba-la-lluvia.wav,./stim/wavs/puertorican_mismatch_interrogative-partial-wh_Por-que-odiaba-la-lluvia.wav,,,,,,,,,,,,,,,,,,,,,,,,,,,,,,,,,,,,,,,,,,,,,,,,,,,,,,,,
,,,,,,,midd03,midd,ma,Spain,Midwest,12 or younger,no,2021-03-26_19h34.53.645,empathy_intonation_perc,2020.2.10,MacIntel,60,IwAR0-AsAwfDDs5_4Cof_9_IL2Zkxt31E6uBj-8XZuPc9JM9RVnX2V_yVzSt4,,,,,,,,,,1,castilian,1,1,1.901,0,26,26,30,1,31,./stim/wavs/andalusian_match_interrogative-total-yn_Mariano-habla-del-tiempo.wav,./stim/wavs/argentine_match_interrogative-total-yn_Mariano-habla-del-tiempo.wav,./stim/wavs/castilian_match_interrogative-total-yn_Mariano-habla-del-tiempo.wav,./stim/wavs/chilean_match_interrogative-total-yn_Mariano-habla-del-tiempo.wav,./stim/wavs/cuban_match_interrogative-total-yn_Mariano-habla-del-tiempo.wav,./stim/wavs/mexican_match_interrogative-total-yn_Mariano-habla-del-tiempo.wav,./stim/wavs/peruvian_match_interrogative-total-yn_Mariano-habla-del-tiempo.wav,./stim/wavs/puertorican_match_interrogative-total-yn_Mariano-habla-del-tiempo.wav,,,,,,,,,,,,,,,,,,,,,,,,,,,,,,,,,,,,,,,,,,,,,,,,,,,,,,,,
,,,,,,,midd03,midd,ma,Spain,Midwest,12 or younger,no,2021-03-26_19h34.53.645,empathy_intonation_perc,2020.2.10,MacIntel,60,IwAR0-AsAwfDDs5_4Cof_9_IL2Zkxt31E6uBj-8XZuPc9JM9RVnX2V_yVzSt4,,,,,,,,,,0,cuban,0,1,1.892,0,27,27,41,1,42,./stim/wavs/andalusian_mismatch_declarative-narrow-focus_El-hombre-mira-la-luna.wav,./stim/wavs/argentine_mismatch_declarative-narrow-focus_El-hombre-mira-la-luna.wav,./stim/wavs/castilian_mismatch_declarative-narrow-focus_El-hombre-mira-la-luna.wav,./stim/wavs/chilean_mismatch_declarative-narrow-focus_El-hombre-mira-la-luna.wav,./stim/wavs/cuban_mismatch_declarative-narrow-focus_El-hombre-mira-la-luna.wav,./stim/wavs/mexican_mismatch_declarative-narrow-focus_El-hombre-mira-la-luna.wav,./stim/wavs/peruvian_mismatch_declarative-narrow-focus_El-hombre-mira-la-luna.wav,./stim/wavs/puertorican_mismatch_declarative-narrow-focus_El-hombre-mira-la-luna.wav,,,,,,,,,,,,,,,,,,,,,,,,,,,,,,,,,,,,,,,,,,,,,,,,,,,,,,,,
,,,,,,,midd03,midd,ma,Spain,Midwest,12 or younger,no,2021-03-26_19h34.53.645,empathy_intonation_perc,2020.2.10,MacIntel,60,IwAR0-AsAwfDDs5_4Cof_9_IL2Zkxt31E6uBj-8XZuPc9JM9RVnX2V_yVzSt4,,,,,,,,,,0,cuban,0,1,2.017,0,28,28,40,1,41,./stim/wavs/andalusian_mismatch_declarative-narrow-focus_El-bebe-comia-muy-bien.wav,./stim/wavs/argentine_mismatch_declarative-narrow-focus_El-bebe-comia-muy-bien.wav,./stim/wavs/castilian_mismatch_declarative-narrow-focus_El-bebe-comia-muy-bien.wav,./stim/wavs/chilean_mismatch_declarative-narrow-focus_El-bebe-comia-muy-bien.wav,./stim/wavs/cuban_mismatch_declarative-narrow-focus_El-bebe-comia-muy-bien.wav,./stim/wavs/mexican_mismatch_declarative-narrow-focus_El-bebe-comia-muy-bien.wav,./stim/wavs/peruvian_mismatch_declarative-narrow-focus_El-bebe-comia-muy-bien.wav,./stim/wavs/puertorican_mismatch_declarative-narrow-focus_El-bebe-comia-muy-bien.wav,,,,,,,,,,,,,,,,,,,,,,,,,,,,,,,,,,,,,,,,,,,,,,,,,,,,,,,,
,,,,,,,midd03,midd,ma,Spain,Midwest,12 or younger,no,2021-03-26_19h34.53.645,empathy_intonation_perc,2020.2.10,MacIntel,60,IwAR0-AsAwfDDs5_4Cof_9_IL2Zkxt31E6uBj-8XZuPc9JM9RVnX2V_yVzSt4,,,,,,,,,,1,puertorican,1,1,3.69,0,29,29,55,1,56,./stim/wavs/andalusian_mismatch_interrogative-partial-wh_Por-que-vivia-en-Paris.wav,./stim/wavs/argentine_mismatch_interrogative-partial-wh_Por-que-vivia-en-Paris.wav,./stim/wavs/castilian_mismatch_interrogative-partial-wh_Por-que-vivia-en-Paris.wav,./stim/wavs/chilean_mismatch_interrogative-partial-wh_Por-que-vivia-en-Paris.wav,./stim/wavs/cuban_mismatch_interrogative-partial-wh_Por-que-vivia-en-Paris.wav,./stim/wavs/mexican_mismatch_interrogative-partial-wh_Por-que-vivia-en-Paris.wav,./stim/wavs/peruvian_mismatch_interrogative-partial-wh_Por-que-vivia-en-Paris.wav,./stim/wavs/puertorican_mismatch_interrogative-partial-wh_Por-que-vivia-en-Paris.wav,,,,,,,,,,,,,,,,,,,,,,,,,,,,,,,,,,,,,,,,,,,,,,,,,,,,,,,,
,,,,,,,midd03,midd,ma,Spain,Midwest,12 or younger,no,2021-03-26_19h34.53.645,empathy_intonation_perc,2020.2.10,MacIntel,60,IwAR0-AsAwfDDs5_4Cof_9_IL2Zkxt31E6uBj-8XZuPc9JM9RVnX2V_yVzSt4,,,,,,,,,,1,cuban,1,1,2.31,0,30,30,50,1,51,./stim/wavs/andalusian_mismatch_interrogative-partial-wh_Cuando-miraba-la-luna.wav,./stim/wavs/argentine_mismatch_interrogative-partial-wh_Cuando-miraba-la-luna.wav,./stim/wavs/castilian_mismatch_interrogative-partial-wh_Cuando-miraba-la-luna.wav,./stim/wavs/chilean_mismatch_interrogative-partial-wh_Cuando-miraba-la-luna.wav,./stim/wavs/cuban_mismatch_interrogative-partial-wh_Cuando-miraba-la-luna.wav,./stim/wavs/mexican_mismatch_interrogative-partial-wh_Cuando-miraba-la-luna.wav,./stim/wavs/peruvian_mismatch_interrogative-partial-wh_Cuando-miraba-la-luna.wav,./stim/wavs/puertorican_mismatch_interrogative-partial-wh_Cuando-miraba-la-luna.wav,,,,,,,,,,,,,,,,,,,,,,,,,,,,,,,,,,,,,,,,,,,,,,,,,,,,,,,,
,,,,,,,midd03,midd,ma,Spain,Midwest,12 or younger,no,2021-03-26_19h34.53.645,empathy_intonation_perc,2020.2.10,MacIntel,60,IwAR0-AsAwfDDs5_4Cof_9_IL2Zkxt31E6uBj-8XZuPc9JM9RVnX2V_yVzSt4,,,,,,,,,,1,chilean,1,1,1.736,0,31,31,24,1,25,./stim/wavs/andalusian_match_interrogative-total-yn_Ana-lleva-el-abrigo.wav,./stim/wavs/argentine_match_interrogative-total-yn_Ana-lleva-el-abrigo.wav,./stim/wavs/castilian_match_interrogative-total-yn_Ana-lleva-el-abrigo.wav,./stim/wavs/chilean_match_interrogative-total-yn_Ana-lleva-el-abrigo.wav,./stim/wavs/cuban_match_interrogative-total-yn_Ana-lleva-el-abrigo.wav,./stim/wavs/mexican_match_interrogative-total-yn_Ana-lleva-el-abrigo.wav,./stim/wavs/peruvian_match_interrogative-total-yn_Ana-lleva-el-abrigo.wav,./stim/wavs/puertorican_match_interrogative-total-yn_Ana-lleva-el-abrigo.wav,,,,,,,,,,,,,,,,,,,,,,,,,,,,,,,,,,,,,,,,,,,,,,,,,,,,,,,,
,,,,,,,midd03,midd,ma,Spain,Midwest,12 or younger,no,2021-03-26_19h34.53.645,empathy_intonation_perc,2020.2.10,MacIntel,60,IwAR0-AsAwfDDs5_4Cof_9_IL2Zkxt31E6uBj-8XZuPc9JM9RVnX2V_yVzSt4,,,,,,,,,,0,mexican,0,1,1.974,0,32,32,13,1,14,./stim/wavs/andalusian_match_declarative-narrow-focus_Maria-bebe-el-vino.wav,./stim/wavs/argentine_match_declarative-narrow-focus_Maria-bebe-el-vino.wav,./stim/wavs/castilian_match_declarative-narrow-focus_Maria-bebe-el-vino.wav,./stim/wavs/chilean_match_declarative-narrow-focus_Maria-bebe-el-vino.wav,./stim/wavs/cuban_match_declarative-narrow-focus_Maria-bebe-el-vino.wav,./stim/wavs/mexican_match_declarative-narrow-focus_Maria-bebe-el-vino.wav,./stim/wavs/peruvian_match_declarative-narrow-focus_Maria-bebe-el-vino.wav,./stim/wavs/puertorican_match_declarative-narrow-focus_Maria-bebe-el-vino.wav,,,,,,,,,,,,,,,,,,,,,,,,,,,,,,,,,,,,,,,,,,,,,,,,,,,,,,,,
,,,,,,,midd03,midd,ma,Spain,Midwest,12 or younger,no,2021-03-26_19h34.53.645,empathy_intonation_perc,2020.2.10,MacIntel,60,IwAR0-AsAwfDDs5_4Cof_9_IL2Zkxt31E6uBj-8XZuPc9JM9RVnX2V_yVzSt4,,,,,,,,,,0,chilean,0,1,2.936,0,33,33,33,1,34,./stim/wavs/andalusian_mismatch_declarative-broad-focus_El-hombre-mira-la-luna.wav,./stim/wavs/argentine_mismatch_declarative-broad-focus_El-hombre-mira-la-luna.wav,./stim/wavs/castilian_mismatch_declarative-broad-focus_El-hombre-mira-la-luna.wav,./stim/wavs/chilean_mismatch_declarative-broad-focus_El-hombre-mira-la-luna.wav,./stim/wavs/cuban_mismatch_declarative-broad-focus_El-hombre-mira-la-luna.wav,./stim/wavs/mexican_mismatch_declarative-broad-focus_El-hombre-mira-la-luna.wav,./stim/wavs/peruvian_mismatch_declarative-broad-focus_El-hombre-mira-la-luna.wav,./stim/wavs/puertorican_mismatch_declarative-broad-focus_El-hombre-mira-la-luna.wav,,,,,,,,,,,,,,,,,,,,,,,,,,,,,,,,,,,,,,,,,,,,,,,,,,,,,,,,
,,,,,,,midd03,midd,ma,Spain,Midwest,12 or younger,no,2021-03-26_19h34.53.645,empathy_intonation_perc,2020.2.10,MacIntel,60,IwAR0-AsAwfDDs5_4Cof_9_IL2Zkxt31E6uBj-8XZuPc9JM9RVnX2V_yVzSt4,,,,,,,,,,0,puertorican,0,1,2.361,0,34,34,3,1,4,./stim/wavs/andalusian_match_declarative-broad-focus_Emilio-ama-la-marcha.wav,./stim/wavs/argentine_match_declarative-broad-focus_Emilio-ama-la-marcha.wav,./stim/wavs/castilian_match_declarative-broad-focus_Emilio-ama-la-marcha.wav,./stim/wavs/chilean_match_declarative-broad-focus_Emilio-ama-la-marcha.wav,./stim/wavs/cuban_match_declarative-broad-focus_Emilio-ama-la-marcha.wav,./stim/wavs/mexican_match_declarative-broad-focus_Emilio-ama-la-marcha.wav,./stim/wavs/peruvian_match_declarative-broad-focus_Emilio-ama-la-marcha.wav,./stim/wavs/puertorican_match_declarative-broad-focus_Emilio-ama-la-marcha.wav,,,,,,,,,,,,,,,,,,,,,,,,,,,,,,,,,,,,,,,,,,,,,,,,,,,,,,,,
,,,,,,,midd03,midd,ma,Spain,Midwest,12 or younger,no,2021-03-26_19h34.53.645,empathy_intonation_perc,2020.2.10,MacIntel,60,IwAR0-AsAwfDDs5_4Cof_9_IL2Zkxt31E6uBj-8XZuPc9JM9RVnX2V_yVzSt4,,,,,,,,,,0,chilean,0,1,1.73,0,35,35,42,1,43,./stim/wavs/andalusian_mismatch_declarative-narrow-focus_El-nino-oye-el-rio.wav,./stim/wavs/argentine_mismatch_declarative-narrow-focus_El-nino-oye-el-rio.wav,./stim/wavs/castilian_mismatch_declarative-narrow-focus_El-nino-oye-el-rio.wav,./stim/wavs/chilean_mismatch_declarative-narrow-focus_El-nino-oye-el-rio.wav,./stim/wavs/cuban_mismatch_declarative-narrow-focus_El-nino-oye-el-rio.wav,./stim/wavs/mexican_mismatch_declarative-narrow-focus_El-nino-oye-el-rio.wav,./stim/wavs/peruvian_mismatch_declarative-narrow-focus_El-nino-oye-el-rio.wav,./stim/wavs/puertorican_mismatch_declarative-narrow-focus_El-nino-oye-el-rio.wav,,,,,,,,,,,,,,,,,,,,,,,,,,,,,,,,,,,,,,,,,,,,,,,,,,,,,,,,
,,,,,,,midd03,midd,ma,Spain,Midwest,12 or younger,no,2021-03-26_19h34.53.645,empathy_intonation_perc,2020.2.10,MacIntel,60,IwAR0-AsAwfDDs5_4Cof_9_IL2Zkxt31E6uBj-8XZuPc9JM9RVnX2V_yVzSt4,,,,,,,,,,0,peruvian,0,1,1.856,0,36,36,34,1,35,./stim/wavs/andalusian_mismatch_declarative-broad-focus_El-nino-oye-el-rio.wav,./stim/wavs/argentine_mismatch_declarative-broad-focus_El-nino-oye-el-rio.wav,./stim/wavs/castilian_mismatch_declarative-broad-focus_El-nino-oye-el-rio.wav,./stim/wavs/chilean_mismatch_declarative-broad-focus_El-nino-oye-el-rio.wav,./stim/wavs/cuban_mismatch_declarative-broad-focus_El-nino-oye-el-rio.wav,./stim/wavs/mexican_mismatch_declarative-broad-focus_El-nino-oye-el-rio.wav,./stim/wavs/peruvian_mismatch_declarative-broad-focus_El-nino-oye-el-rio.wav,./stim/wavs/puertorican_mismatch_declarative-broad-focus_El-nino-oye-el-rio.wav,,,,,,,,,,,,,,,,,,,,,,,,,,,,,,,,,,,,,,,,,,,,,,,,,,,,,,,,
,,,,,,,midd03,midd,ma,Spain,Midwest,12 or younger,no,2021-03-26_19h34.53.645,empathy_intonation_perc,2020.2.10,MacIntel,60,IwAR0-AsAwfDDs5_4Cof_9_IL2Zkxt31E6uBj-8XZuPc9JM9RVnX2V_yVzSt4,,,,,,,,,,0,chilean,0,1,1.772,0,37,37,32,1,33,./stim/wavs/andalusian_mismatch_declarative-broad-focus_El-bebe-comia-muy-bien.wav,./stim/wavs/argentine_mismatch_declarative-broad-focus_El-bebe-comia-muy-bien.wav,./stim/wavs/castilian_mismatch_declarative-broad-focus_El-bebe-comia-muy-bien.wav,./stim/wavs/chilean_mismatch_declarative-broad-focus_El-bebe-comia-muy-bien.wav,./stim/wavs/cuban_mismatch_declarative-broad-focus_El-bebe-comia-muy-bien.wav,./stim/wavs/mexican_mismatch_declarative-broad-focus_El-bebe-comia-muy-bien.wav,./stim/wavs/peruvian_mismatch_declarative-broad-focus_El-bebe-comia-muy-bien.wav,./stim/wavs/puertorican_mismatch_declarative-broad-focus_El-bebe-comia-muy-bien.wav,,,,,,,,,,,,,,,,,,,,,,,,,,,,,,,,,,,,,,,,,,,,,,,,,,,,,,,,
,,,,,,,midd03,midd,ma,Spain,Midwest,12 or younger,no,2021-03-26_19h34.53.645,empathy_intonation_perc,2020.2.10,MacIntel,60,IwAR0-AsAwfDDs5_4Cof_9_IL2Zkxt31E6uBj-8XZuPc9JM9RVnX2V_yVzSt4,,,,,,,,,,0,andalusian,0,1,1.74,0,38,38,0,1,1,./stim/wavs/andalusian_match_declarative-broad-focus_Ana-lleva-el-abrigo.wav,./stim/wavs/argentine_match_declarative-broad-focus_Ana-lleva-el-abrigo.wav,./stim/wavs/castilian_match_declarative-broad-focus_Ana-lleva-el-abrigo.wav,./stim/wavs/chilean_match_declarative-broad-focus_Ana-lleva-el-abrigo.wav,./stim/wavs/cuban_match_declarative-broad-focus_Ana-lleva-el-abrigo.wav,./stim/wavs/mexican_match_declarative-broad-focus_Ana-lleva-el-abrigo.wav,./stim/wavs/peruvian_match_declarative-broad-focus_Ana-lleva-el-abrigo.wav,./stim/wavs/puertorican_match_declarative-broad-focus_Ana-lleva-el-abrigo.wav,,,,,,,,,,,,,,,,,,,,,,,,,,,,,,,,,,,,,,,,,,,,,,,,,,,,,,,,
,,,,,,,midd03,midd,ma,Spain,Midwest,12 or younger,no,2021-03-26_19h34.53.645,empathy_intonation_perc,2020.2.10,MacIntel,60,IwAR0-AsAwfDDs5_4Cof_9_IL2Zkxt31E6uBj-8XZuPc9JM9RVnX2V_yVzSt4,,,,,,,,,,1,andalusian,1,1,1.657,0,39,39,63,1,64,./stim/wavs/andalusian_mismatch_interrogative-total-yn_Mi-tia-odia-la-lluvia.wav,./stim/wavs/argentine_mismatch_interrogative-total-yn_Mi-tia-odia-la-lluvia.wav,./stim/wavs/castilian_mismatch_interrogative-total-yn_Mi-tia-odia-la-lluvia.wav,./stim/wavs/chilean_mismatch_interrogative-total-yn_Mi-tia-odia-la-lluvia.wav,./stim/wavs/cuban_mismatch_interrogative-total-yn_Mi-tia-odia-la-lluvia.wav,./stim/wavs/mexican_mismatch_interrogative-total-yn_Mi-tia-odia-la-lluvia.wav,./stim/wavs/peruvian_mismatch_interrogative-total-yn_Mi-tia-odia-la-lluvia.wav,./stim/wavs/puertorican_mismatch_interrogative-total-yn_Mi-tia-odia-la-lluvia.wav,,,,,,,,,,,,,,,,,,,,,,,,,,,,,,,,,,,,,,,,,,,,,,,,,,,,,,,,
,,,,,,,midd03,midd,ma,Spain,Midwest,12 or younger,no,2021-03-26_19h34.53.645,empathy_intonation_perc,2020.2.10,MacIntel,60,IwAR0-AsAwfDDs5_4Cof_9_IL2Zkxt31E6uBj-8XZuPc9JM9RVnX2V_yVzSt4,,,,,,,,,,1,puertorican,1,1,1.792,0,40,40,31,1,32,./stim/wavs/andalusian_match_interrogative-total-yn_Marta-abre-el-regalo.wav,./stim/wavs/argentine_match_interrogative-total-yn_Marta-abre-el-regalo.wav,./stim/wavs/castilian_match_interrogative-total-yn_Marta-abre-el-regalo.wav,./stim/wavs/chilean_match_interrogative-total-yn_Marta-abre-el-regalo.wav,./stim/wavs/cuban_match_interrogative-total-yn_Marta-abre-el-regalo.wav,./stim/wavs/mexican_match_interrogative-total-yn_Marta-abre-el-regalo.wav,./stim/wavs/peruvian_match_interrogative-total-yn_Marta-abre-el-regalo.wav,./stim/wavs/puertorican_match_interrogative-total-yn_Marta-abre-el-regalo.wav,,,,,,,,,,,,,,,,,,,,,,,,,,,,,,,,,,,,,,,,,,,,,,,,,,,,,,,,
,,,,,,,midd03,midd,ma,Spain,Midwest,12 or younger,no,2021-03-26_19h34.53.645,empathy_intonation_perc,2020.2.10,MacIntel,60,IwAR0-AsAwfDDs5_4Cof_9_IL2Zkxt31E6uBj-8XZuPc9JM9RVnX2V_yVzSt4,,,,,,,,,,1,mexican,1,1,1.832,0,41,41,51,1,52,./stim/wavs/andalusian_mismatch_interrogative-partial-wh_Por-que-desayuna-muy-bien.wav,./stim/wavs/argentine_mismatch_interrogative-partial-wh_Por-que-desayuna-muy-bien.wav,./stim/wavs/castilian_mismatch_interrogative-partial-wh_Por-que-desayuna-muy-bien.wav,./stim/wavs/chilean_mismatch_interrogative-partial-wh_Por-que-desayuna-muy-bien.wav,./stim/wavs/cuban_mismatch_interrogative-partial-wh_Por-que-desayuna-muy-bien.wav,./stim/wavs/mexican_mismatch_interrogative-partial-wh_Por-que-desayuna-muy-bien.wav,./stim/wavs/peruvian_mismatch_interrogative-partial-wh_Por-que-desayuna-muy-bien.wav,./stim/wavs/puertorican_mismatch_interrogative-partial-wh_Por-que-desayuna-muy-bien.wav,,,,,,,,,,,,,,,,,,,,,,,,,,,,,,,,,,,,,,,,,,,,,,,,,,,,,,,,
,,,,,,,midd03,midd,ma,Spain,Midwest,12 or younger,no,2021-03-26_19h34.53.645,empathy_intonation_perc,2020.2.10,MacIntel,60,IwAR0-AsAwfDDs5_4Cof_9_IL2Zkxt31E6uBj-8XZuPc9JM9RVnX2V_yVzSt4,,,,,,,,,,0,argentine,0,1,1.805,0,42,42,15,1,16,./stim/wavs/andalusian_match_declarative-narrow-focus_Marta-abre-el-regalo.wav,./stim/wavs/argentine_match_declarative-narrow-focus_Marta-abre-el-regalo.wav,./stim/wavs/castilian_match_declarative-narrow-focus_Marta-abre-el-regalo.wav,./stim/wavs/chilean_match_declarative-narrow-focus_Marta-abre-el-regalo.wav,./stim/wavs/cuban_match_declarative-narrow-focus_Marta-abre-el-regalo.wav,./stim/wavs/mexican_match_declarative-narrow-focus_Marta-abre-el-regalo.wav,./stim/wavs/peruvian_match_declarative-narrow-focus_Marta-abre-el-regalo.wav,./stim/wavs/puertorican_match_declarative-narrow-focus_Marta-abre-el-regalo.wav,,,,,,,,,,,,,,,,,,,,,,,,,,,,,,,,,,,,,,,,,,,,,,,,,,,,,,,,
,,,,,,,midd03,midd,ma,Spain,Midwest,12 or younger,no,2021-03-26_19h34.53.645,empathy_intonation_perc,2020.2.10,MacIntel,60,IwAR0-AsAwfDDs5_4Cof_9_IL2Zkxt31E6uBj-8XZuPc9JM9RVnX2V_yVzSt4,,,,,,,,,,1,castilian,1,1,1.856,0,43,43,48,1,49,./stim/wavs/andalusian_mismatch_interrogative-partial-wh_Cuando-comia-la-fruta.wav,./stim/wavs/argentine_mismatch_interrogative-partial-wh_Cuando-comia-la-fruta.wav,./stim/wavs/castilian_mismatch_interrogative-partial-wh_Cuando-comia-la-fruta.wav,./stim/wavs/chilean_mismatch_interrogative-partial-wh_Cuando-comia-la-fruta.wav,./stim/wavs/cuban_mismatch_interrogative-partial-wh_Cuando-comia-la-fruta.wav,./stim/wavs/mexican_mismatch_interrogative-partial-wh_Cuando-comia-la-fruta.wav,./stim/wavs/peruvian_mismatch_interrogative-partial-wh_Cuando-comia-la-fruta.wav,./stim/wavs/puertorican_mismatch_interrogative-partial-wh_Cuando-comia-la-fruta.wav,,,,,,,,,,,,,,,,,,,,,,,,,,,,,,,,,,,,,,,,,,,,,,,,,,,,,,,,
,,,,,,,midd03,midd,ma,Spain,Midwest,12 or younger,no,2021-03-26_19h34.53.645,empathy_intonation_perc,2020.2.10,MacIntel,60,IwAR0-AsAwfDDs5_4Cof_9_IL2Zkxt31E6uBj-8XZuPc9JM9RVnX2V_yVzSt4,,,,,,,,,,1,cuban,1,1,2.789,0,44,44,29,1,30,./stim/wavs/andalusian_match_interrogative-total-yn_Maria-bebe-el-vino.wav,./stim/wavs/argentine_match_interrogative-total-yn_Maria-bebe-el-vino.wav,./stim/wavs/castilian_match_interrogative-total-yn_Maria-bebe-el-vino.wav,./stim/wavs/chilean_match_interrogative-total-yn_Maria-bebe-el-vino.wav,./stim/wavs/cuban_match_interrogative-total-yn_Maria-bebe-el-vino.wav,./stim/wavs/mexican_match_interrogative-total-yn_Maria-bebe-el-vino.wav,./stim/wavs/peruvian_match_interrogative-total-yn_Maria-bebe-el-vino.wav,./stim/wavs/puertorican_match_interrogative-total-yn_Maria-bebe-el-vino.wav,,,,,,,,,,,,,,,,,,,,,,,,,,,,,,,,,,,,,,,,,,,,,,,,,,,,,,,,
,,,,,,,midd03,midd,ma,Spain,Midwest,12 or younger,no,2021-03-26_19h34.53.645,empathy_intonation_perc,2020.2.10,MacIntel,60,IwAR0-AsAwfDDs5_4Cof_9_IL2Zkxt31E6uBj-8XZuPc9JM9RVnX2V_yVzSt4,,,,,,,,,,0,chilean,0,1,2.558,0,45,45,47,1,48,./stim/wavs/andalusian_mismatch_declarative-narrow-focus_Mi-tia-odia-la-lluvia.wav,./stim/wavs/argentine_mismatch_declarative-narrow-focus_Mi-tia-odia-la-lluvia.wav,./stim/wavs/castilian_mismatch_declarative-narrow-focus_Mi-tia-odia-la-lluvia.wav,./stim/wavs/chilean_mismatch_declarative-narrow-focus_Mi-tia-odia-la-lluvia.wav,./stim/wavs/cuban_mismatch_declarative-narrow-focus_Mi-tia-odia-la-lluvia.wav,./stim/wavs/mexican_mismatch_declarative-narrow-focus_Mi-tia-odia-la-lluvia.wav,./stim/wavs/peruvian_mismatch_declarative-narrow-focus_Mi-tia-odia-la-lluvia.wav,./stim/wavs/puertorican_mismatch_declarative-narrow-focus_Mi-tia-odia-la-lluvia.wav,,,,,,,,,,,,,,,,,,,,,,,,,,,,,,,,,,,,,,,,,,,,,,,,,,,,,,,,
,,,,,,,midd03,midd,ma,Spain,Midwest,12 or younger,no,2021-03-26_19h34.53.645,empathy_intonation_perc,2020.2.10,MacIntel,60,IwAR0-AsAwfDDs5_4Cof_9_IL2Zkxt31E6uBj-8XZuPc9JM9RVnX2V_yVzSt4,,,,,,,,,,0,castilian,0,1,2.631,0,46,46,38,1,39,./stim/wavs/andalusian_mismatch_declarative-broad-focus_Mi-novio-viene-del-lago.wav,./stim/wavs/argentine_mismatch_declarative-broad-focus_Mi-novio-viene-del-lago.wav,./stim/wavs/castilian_mismatch_declarative-broad-focus_Mi-novio-viene-del-lago.wav,./stim/wavs/chilean_mismatch_declarative-broad-focus_Mi-novio-viene-del-lago.wav,./stim/wavs/cuban_mismatch_declarative-broad-focus_Mi-novio-viene-del-lago.wav,./stim/wavs/mexican_mismatch_declarative-broad-focus_Mi-novio-viene-del-lago.wav,./stim/wavs/peruvian_mismatch_declarative-broad-focus_Mi-novio-viene-del-lago.wav,./stim/wavs/puertorican_mismatch_declarative-broad-focus_Mi-novio-viene-del-lago.wav,,,,,,,,,,,,,,,,,,,,,,,,,,,,,,,,,,,,,,,,,,,,,,,,,,,,,,,,
,,,,,,,midd03,midd,ma,Spain,Midwest,12 or younger,no,2021-03-26_19h34.53.645,empathy_intonation_perc,2020.2.10,MacIntel,60,IwAR0-AsAwfDDs5_4Cof_9_IL2Zkxt31E6uBj-8XZuPc9JM9RVnX2V_yVzSt4,,,,,,,,,,0,cuban,0,1,2.077,0,47,47,6,1,7,./stim/wavs/andalusian_match_declarative-broad-focus_Mariano-habla-del-tiempo.wav,./stim/wavs/argentine_match_declarative-broad-focus_Mariano-habla-del-tiempo.wav,./stim/wavs/castilian_match_declarative-broad-focus_Mariano-habla-del-tiempo.wav,./stim/wavs/chilean_match_declarative-broad-focus_Mariano-habla-del-tiempo.wav,./stim/wavs/cuban_match_declarative-broad-focus_Mariano-habla-del-tiempo.wav,./stim/wavs/mexican_match_declarative-broad-focus_Mariano-habla-del-tiempo.wav,./stim/wavs/peruvian_match_declarative-broad-focus_Mariano-habla-del-tiempo.wav,./stim/wavs/puertorican_match_declarative-broad-focus_Mariano-habla-del-tiempo.wav,,,,,,,,,,,,,,,,,,,,,,,,,,,,,,,,,,,,,,,,,,,,,,,,,,,,,,,,
,,,,,,,midd03,midd,ma,Spain,Midwest,12 or younger,no,2021-03-26_19h34.53.645,empathy_intonation_perc,2020.2.10,MacIntel,60,IwAR0-AsAwfDDs5_4Cof_9_IL2Zkxt31E6uBj-8XZuPc9JM9RVnX2V_yVzSt4,,,,,,,,,,1,cuban,1,1,2.474,0,48,48,25,1,26,./stim/wavs/andalusian_match_interrogative-total-yn_Daniel-iba-a-Bolivia.wav,./stim/wavs/argentine_match_interrogative-total-yn_Daniel-iba-a-Bolivia.wav,./stim/wavs/castilian_match_interrogative-total-yn_Daniel-iba-a-Bolivia.wav,./stim/wavs/chilean_match_interrogative-total-yn_Daniel-iba-a-Bolivia.wav,./stim/wavs/cuban_match_interrogative-total-yn_Daniel-iba-a-Bolivia.wav,./stim/wavs/mexican_match_interrogative-total-yn_Daniel-iba-a-Bolivia.wav,./stim/wavs/peruvian_match_interrogative-total-yn_Daniel-iba-a-Bolivia.wav,./stim/wavs/puertorican_match_interrogative-total-yn_Daniel-iba-a-Bolivia.wav,,,,,,,,,,,,,,,,,,,,,,,,,,,,,,,,,,,,,,,,,,,,,,,,,,,,,,,,
,,,,,,,midd03,midd,ma,Spain,Midwest,12 or younger,no,2021-03-26_19h34.53.645,empathy_intonation_perc,2020.2.10,MacIntel,60,IwAR0-AsAwfDDs5_4Cof_9_IL2Zkxt31E6uBj-8XZuPc9JM9RVnX2V_yVzSt4,,,,,,,,,,0,argentine,0,1,1.91,0,49,49,36,1,37,./stim/wavs/andalusian_mismatch_declarative-broad-focus_La-nina-lava-el-plato.wav,./stim/wavs/argentine_mismatch_declarative-broad-focus_La-nina-lava-el-plato.wav,./stim/wavs/castilian_mismatch_declarative-broad-focus_La-nina-lava-el-plato.wav,./stim/wavs/chilean_mismatch_declarative-broad-focus_La-nina-lava-el-plato.wav,./stim/wavs/cuban_mismatch_declarative-broad-focus_La-nina-lava-el-plato.wav,./stim/wavs/mexican_mismatch_declarative-broad-focus_La-nina-lava-el-plato.wav,./stim/wavs/peruvian_mismatch_declarative-broad-focus_La-nina-lava-el-plato.wav,./stim/wavs/puertorican_mismatch_declarative-broad-focus_La-nina-lava-el-plato.wav,,,,,,,,,,,,,,,,,,,,,,,,,,,,,,,,,,,,,,,,,,,,,,,,,,,,,,,,
,,,,,,,midd03,midd,ma,Spain,Midwest,12 or younger,no,2021-03-26_19h34.53.645,empathy_intonation_perc,2020.2.10,MacIntel,60,IwAR0-AsAwfDDs5_4Cof_9_IL2Zkxt31E6uBj-8XZuPc9JM9RVnX2V_yVzSt4,,,,,,,,,,0,argentine,0,1,1.951,0,50,50,12,1,13,./stim/wavs/andalusian_match_declarative-narrow-focus_Manuela-vende-el-carro.wav,./stim/wavs/argentine_match_declarative-narrow-focus_Manuela-vende-el-carro.wav,./stim/wavs/castilian_match_declarative-narrow-focus_Manuela-vende-el-carro.wav,./stim/wavs/chilean_match_declarative-narrow-focus_Manuela-vende-el-carro.wav,./stim/wavs/cuban_match_declarative-narrow-focus_Manuela-vende-el-carro.wav,./stim/wavs/mexican_match_declarative-narrow-focus_Manuela-vende-el-carro.wav,./stim/wavs/peruvian_match_declarative-narrow-focus_Manuela-vende-el-carro.wav,./stim/wavs/puertorican_match_declarative-narrow-focus_Manuela-vende-el-carro.wav,,,,,,,,,,,,,,,,,,,,,,,,,,,,,,,,,,,,,,,,,,,,,,,,,,,,,,,,
,,,,,,,midd03,midd,ma,Spain,Midwest,12 or younger,no,2021-03-26_19h34.53.645,empathy_intonation_perc,2020.2.10,MacIntel,60,IwAR0-AsAwfDDs5_4Cof_9_IL2Zkxt31E6uBj-8XZuPc9JM9RVnX2V_yVzSt4,,,,,,,,,,0,peruvian,0,1,1.953,0,51,51,7,1,8,./stim/wavs/andalusian_match_declarative-broad-focus_Marta-abre-el-regalo.wav,./stim/wavs/argentine_match_declarative-broad-focus_Marta-abre-el-regalo.wav,./stim/wavs/castilian_match_declarative-broad-focus_Marta-abre-el-regalo.wav,./stim/wavs/chilean_match_declarative-broad-focus_Marta-abre-el-regalo.wav,./stim/wavs/cuban_match_declarative-broad-focus_Marta-abre-el-regalo.wav,./stim/wavs/mexican_match_declarative-broad-focus_Marta-abre-el-regalo.wav,./stim/wavs/peruvian_match_declarative-broad-focus_Marta-abre-el-regalo.wav,./stim/wavs/puertorican_match_declarative-broad-focus_Marta-abre-el-regalo.wav,,,,,,,,,,,,,,,,,,,,,,,,,,,,,,,,,,,,,,,,,,,,,,,,,,,,,,,,
,,,,,,,midd03,midd,ma,Spain,Midwest,12 or younger,no,2021-03-26_19h34.53.645,empathy_intonation_perc,2020.2.10,MacIntel,60,IwAR0-AsAwfDDs5_4Cof_9_IL2Zkxt31E6uBj-8XZuPc9JM9RVnX2V_yVzSt4,,,,,,,,,,0,castilian,0,1,1.84,0,52,52,4,1,5,./stim/wavs/andalusian_match_declarative-broad-focus_Manuela-vende-el-carro.wav,./stim/wavs/argentine_match_declarative-broad-focus_Manuela-vende-el-carro.wav,./stim/wavs/castilian_match_declarative-broad-focus_Manuela-vende-el-carro.wav,./stim/wavs/chilean_match_declarative-broad-focus_Manuela-vende-el-carro.wav,./stim/wavs/cuban_match_declarative-broad-focus_Manuela-vende-el-carro.wav,./stim/wavs/mexican_match_declarative-broad-focus_Manuela-vende-el-carro.wav,./stim/wavs/peruvian_match_declarative-broad-focus_Manuela-vende-el-carro.wav,./stim/wavs/puertorican_match_declarative-broad-focus_Manuela-vende-el-carro.wav,,,,,,,,,,,,,,,,,,,,,,,,,,,,,,,,,,,,,,,,,,,,,,,,,,,,,,,,
,,,,,,,midd03,midd,ma,Spain,Midwest,12 or younger,no,2021-03-26_19h34.53.645,empathy_intonation_perc,2020.2.10,MacIntel,60,IwAR0-AsAwfDDs5_4Cof_9_IL2Zkxt31E6uBj-8XZuPc9JM9RVnX2V_yVzSt4,,,,,,,,,,0,argentine,0,1,1.605,0,53,53,5,1,6,./stim/wavs/andalusian_match_declarative-broad-focus_Maria-bebe-el-vino.wav,./stim/wavs/argentine_match_declarative-broad-focus_Maria-bebe-el-vino.wav,./stim/wavs/castilian_match_declarative-broad-focus_Maria-bebe-el-vino.wav,./stim/wavs/chilean_match_declarative-broad-focus_Maria-bebe-el-vino.wav,./stim/wavs/cuban_match_declarative-broad-focus_Maria-bebe-el-vino.wav,./stim/wavs/mexican_match_declarative-broad-focus_Maria-bebe-el-vino.wav,./stim/wavs/peruvian_match_declarative-broad-focus_Maria-bebe-el-vino.wav,./stim/wavs/puertorican_match_declarative-broad-focus_Maria-bebe-el-vino.wav,,,,,,,,,,,,,,,,,,,,,,,,,,,,,,,,,,,,,,,,,,,,,,,,,,,,,,,,
,,,,,,,midd03,midd,ma,Spain,Midwest,12 or younger,no,2021-03-26_19h34.53.645,empathy_intonation_perc,2020.2.10,MacIntel,60,IwAR0-AsAwfDDs5_4Cof_9_IL2Zkxt31E6uBj-8XZuPc9JM9RVnX2V_yVzSt4,,,,,,,,,,1,cuban,0,0,4.339,0,54,54,28,1,29,./stim/wavs/andalusian_match_interrogative-total-yn_Manuela-vende-el-carro.wav,./stim/wavs/argentine_match_interrogative-total-yn_Manuela-vende-el-carro.wav,./stim/wavs/castilian_match_interrogative-total-yn_Manuela-vende-el-carro.wav,./stim/wavs/chilean_match_interrogative-total-yn_Manuela-vende-el-carro.wav,./stim/wavs/cuban_match_interrogative-total-yn_Manuela-vende-el-carro.wav,./stim/wavs/mexican_match_interrogative-total-yn_Manuela-vende-el-carro.wav,./stim/wavs/peruvian_match_interrogative-total-yn_Manuela-vende-el-carro.wav,./stim/wavs/puertorican_match_interrogative-total-yn_Manuela-vende-el-carro.wav,,,,,,,,,,,,,,,,,,,,,,,,,,,,,,,,,,,,,,,,,,,,,,,,,,,,,,,,
,,,,,,,midd03,midd,ma,Spain,Midwest,12 or younger,no,2021-03-26_19h34.53.645,empathy_intonation_perc,2020.2.10,MacIntel,60,IwAR0-AsAwfDDs5_4Cof_9_IL2Zkxt31E6uBj-8XZuPc9JM9RVnX2V_yVzSt4,,,,,,,,,,1,argentine,1,1,1.72,0,55,55,53,1,54,./stim/wavs/andalusian_mismatch_interrogative-partial-wh_Por-que-oia-el-rio.wav,./stim/wavs/argentine_mismatch_interrogative-partial-wh_Por-que-oia-el-rio.wav,./stim/wavs/castilian_mismatch_interrogative-partial-wh_Por-que-oia-el-rio.wav,./stim/wavs/chilean_mismatch_interrogative-partial-wh_Por-que-oia-el-rio.wav,./stim/wavs/cuban_mismatch_interrogative-partial-wh_Por-que-oia-el-rio.wav,./stim/wavs/mexican_mismatch_interrogative-partial-wh_Por-que-oia-el-rio.wav,./stim/wavs/peruvian_mismatch_interrogative-partial-wh_Por-que-oia-el-rio.wav,./stim/wavs/puertorican_mismatch_interrogative-partial-wh_Por-que-oia-el-rio.wav,,,,,,,,,,,,,,,,,,,,,,,,,,,,,,,,,,,,,,,,,,,,,,,,,,,,,,,,
,,,,,,,midd03,midd,ma,Spain,Midwest,12 or younger,no,2021-03-26_19h34.53.645,empathy_intonation_perc,2020.2.10,MacIntel,60,IwAR0-AsAwfDDs5_4Cof_9_IL2Zkxt31E6uBj-8XZuPc9JM9RVnX2V_yVzSt4,,,,,,,,,,1,castilian,1,1,1.923,0,56,56,27,1,28,./stim/wavs/andalusian_match_interrogative-total-yn_Emilio-ama-la-marcha.wav,./stim/wavs/argentine_match_interrogative-total-yn_Emilio-ama-la-marcha.wav,./stim/wavs/castilian_match_interrogative-total-yn_Emilio-ama-la-marcha.wav,./stim/wavs/chilean_match_interrogative-total-yn_Emilio-ama-la-marcha.wav,./stim/wavs/cuban_match_interrogative-total-yn_Emilio-ama-la-marcha.wav,./stim/wavs/mexican_match_interrogative-total-yn_Emilio-ama-la-marcha.wav,./stim/wavs/peruvian_match_interrogative-total-yn_Emilio-ama-la-marcha.wav,./stim/wavs/puertorican_match_interrogative-total-yn_Emilio-ama-la-marcha.wav,,,,,,,,,,,,,,,,,,,,,,,,,,,,,,,,,,,,,,,,,,,,,,,,,,,,,,,,
,,,,,,,midd03,midd,ma,Spain,Midwest,12 or younger,no,2021-03-26_19h34.53.645,empathy_intonation_perc,2020.2.10,MacIntel,60,IwAR0-AsAwfDDs5_4Cof_9_IL2Zkxt31E6uBj-8XZuPc9JM9RVnX2V_yVzSt4,,,,,,,,,,1,andalusian,1,1,2.203,0,57,57,21,1,22,./stim/wavs/andalusian_match_interrogative-partial-wh_Por-que-ama-la-navidad.wav,./stim/wavs/argentine_match_interrogative-partial-wh_Por-que-ama-la-navidad.wav,./stim/wavs/castilian_match_interrogative-partial-wh_Por-que-ama-la-navidad.wav,./stim/wavs/chilean_match_interrogative-partial-wh_Por-que-ama-la-navidad.wav,./stim/wavs/cuban_match_interrogative-partial-wh_Por-que-ama-la-navidad.wav,./stim/wavs/mexican_match_interrogative-partial-wh_Por-que-ama-la-navidad.wav,./stim/wavs/peruvian_match_interrogative-partial-wh_Por-que-ama-la-navidad.wav,./stim/wavs/puertorican_match_interrogative-partial-wh_Por-que-ama-la-navidad.wav,,,,,,,,,,,,,,,,,,,,,,,,,,,,,,,,,,,,,,,,,,,,,,,,,,,,,,,,
,,,,,,,midd03,midd,ma,Spain,Midwest,12 or younger,no,2021-03-26_19h34.53.645,empathy_intonation_perc,2020.2.10,MacIntel,60,IwAR0-AsAwfDDs5_4Cof_9_IL2Zkxt31E6uBj-8XZuPc9JM9RVnX2V_yVzSt4,,,,,,,,,,0,argentine,0,1,2.215,0,58,58,11,1,12,./stim/wavs/andalusian_match_declarative-narrow-focus_Emilio-ama-la-marcha.wav,./stim/wavs/argentine_match_declarative-narrow-focus_Emilio-ama-la-marcha.wav,./stim/wavs/castilian_match_declarative-narrow-focus_Emilio-ama-la-marcha.wav,./stim/wavs/chilean_match_declarative-narrow-focus_Emilio-ama-la-marcha.wav,./stim/wavs/cuban_match_declarative-narrow-focus_Emilio-ama-la-marcha.wav,./stim/wavs/mexican_match_declarative-narrow-focus_Emilio-ama-la-marcha.wav,./stim/wavs/peruvian_match_declarative-narrow-focus_Emilio-ama-la-marcha.wav,./stim/wavs/puertorican_match_declarative-narrow-focus_Emilio-ama-la-marcha.wav,,,,,,,,,,,,,,,,,,,,,,,,,,,,,,,,,,,,,,,,,,,,,,,,,,,,,,,,
,,,,,,,midd03,midd,ma,Spain,Midwest,12 or younger,no,2021-03-26_19h34.53.645,empathy_intonation_perc,2020.2.10,MacIntel,60,IwAR0-AsAwfDDs5_4Cof_9_IL2Zkxt31E6uBj-8XZuPc9JM9RVnX2V_yVzSt4,,,,,,,,,,0,chilean,0,1,2.558,0,59,59,8,1,9,./stim/wavs/andalusian_match_declarative-narrow-focus_Ana-lleva-el-abrigo.wav,./stim/wavs/argentine_match_declarative-narrow-focus_Ana-lleva-el-abrigo.wav,./stim/wavs/castilian_match_declarative-narrow-focus_Ana-lleva-el-abrigo.wav,./stim/wavs/chilean_match_declarative-narrow-focus_Ana-lleva-el-abrigo.wav,./stim/wavs/cuban_match_declarative-narrow-focus_Ana-lleva-el-abrigo.wav,./stim/wavs/mexican_match_declarative-narrow-focus_Ana-lleva-el-abrigo.wav,./stim/wavs/peruvian_match_declarative-narrow-focus_Ana-lleva-el-abrigo.wav,./stim/wavs/puertorican_match_declarative-narrow-focus_Ana-lleva-el-abrigo.wav,,,,,,,,,,,,,,,,,,,,,,,,,,,,,,,,,,,,,,,,,,,,,,,,,,,,,,,,
,,,,,,,midd03,midd,ma,Spain,Midwest,12 or younger,no,2021-03-26_19h34.53.645,empathy_intonation_perc,2020.2.10,MacIntel,60,IwAR0-AsAwfDDs5_4Cof_9_IL2Zkxt31E6uBj-8XZuPc9JM9RVnX2V_yVzSt4,,,,,,,,,,1,mexican,1,1,1.691,0,60,60,49,1,50,./stim/wavs/andalusian_mismatch_interrogative-partial-wh_Cuando-lavaba-el-plato.wav,./stim/wavs/argentine_mismatch_interrogative-partial-wh_Cuando-lavaba-el-plato.wav,./stim/wavs/castilian_mismatch_interrogative-partial-wh_Cuando-lavaba-el-plato.wav,./stim/wavs/chilean_mismatch_interrogative-partial-wh_Cuando-lavaba-el-plato.wav,./stim/wavs/cuban_mismatch_interrogative-partial-wh_Cuando-lavaba-el-plato.wav,./stim/wavs/mexican_mismatch_interrogative-partial-wh_Cuando-lavaba-el-plato.wav,./stim/wavs/peruvian_mismatch_interrogative-partial-wh_Cuando-lavaba-el-plato.wav,./stim/wavs/puertorican_mismatch_interrogative-partial-wh_Cuando-lavaba-el-plato.wav,,,,,,,,,,,,,,,,,,,,,,,,,,,,,,,,,,,,,,,,,,,,,,,,,,,,,,,,
,,,,,,,midd03,midd,ma,Spain,Midwest,12 or younger,no,2021-03-26_19h34.53.645,empathy_intonation_perc,2020.2.10,MacIntel,60,IwAR0-AsAwfDDs5_4Cof_9_IL2Zkxt31E6uBj-8XZuPc9JM9RVnX2V_yVzSt4,,,,,,,,,,0,argentine,0,1,2.308,0,61,61,1,1,2,./stim/wavs/andalusian_match_declarative-broad-focus_Daniel-iba-a-Bolivia.wav,./stim/wavs/argentine_match_declarative-broad-focus_Daniel-iba-a-Bolivia.wav,./stim/wavs/castilian_match_declarative-broad-focus_Daniel-iba-a-Bolivia.wav,./stim/wavs/chilean_match_declarative-broad-focus_Daniel-iba-a-Bolivia.wav,./stim/wavs/cuban_match_declarative-broad-focus_Daniel-iba-a-Bolivia.wav,./stim/wavs/mexican_match_declarative-broad-focus_Daniel-iba-a-Bolivia.wav,./stim/wavs/peruvian_match_declarative-broad-focus_Daniel-iba-a-Bolivia.wav,./stim/wavs/puertorican_match_declarative-broad-focus_Daniel-iba-a-Bolivia.wav,,,,,,,,,,,,,,,,,,,,,,,,,,,,,,,,,,,,,,,,,,,,,,,,,,,,,,,,
,,,,,,,midd03,midd,ma,Spain,Midwest,12 or younger,no,2021-03-26_19h34.53.645,empathy_intonation_perc,2020.2.10,MacIntel,60,IwAR0-AsAwfDDs5_4Cof_9_IL2Zkxt31E6uBj-8XZuPc9JM9RVnX2V_yVzSt4,,,,,,,,,,1,castilian,1,1,2.106,0,62,62,62,1,63,./stim/wavs/andalusian_mismatch_interrogative-total-yn_Mi-novio-viene-del-lago.wav,./stim/wavs/argentine_mismatch_interrogative-total-yn_Mi-novio-viene-del-lago.wav,./stim/wavs/castilian_mismatch_interrogative-total-yn_Mi-novio-viene-del-lago.wav,./stim/wavs/chilean_mismatch_interrogative-total-yn_Mi-novio-viene-del-lago.wav,./stim/wavs/cuban_mismatch_interrogative-total-yn_Mi-novio-viene-del-lago.wav,./stim/wavs/mexican_mismatch_interrogative-total-yn_Mi-novio-viene-del-lago.wav,./stim/wavs/peruvian_mismatch_interrogative-total-yn_Mi-novio-viene-del-lago.wav,./stim/wavs/puertorican_mismatch_interrogative-total-yn_Mi-novio-viene-del-lago.wav,,,,,,,,,,,,,,,,,,,,,,,,,,,,,,,,,,,,,,,,,,,,,,,,,,,,,,,,
,,,,,,,midd03,midd,ma,Spain,Midwest,12 or younger,no,2021-03-26_19h34.53.645,empathy_intonation_perc,2020.2.10,MacIntel,60,IwAR0-AsAwfDDs5_4Cof_9_IL2Zkxt31E6uBj-8XZuPc9JM9RVnX2V_yVzSt4,,,,,,,,,,0,andalusian,0,1,1.823,0,63,63,37,1,38,./stim/wavs/andalusian_mismatch_declarative-broad-focus_Mi-madre-come-la-fruta.wav,./stim/wavs/argentine_mismatch_declarative-broad-focus_Mi-madre-come-la-fruta.wav,./stim/wavs/castilian_mismatch_declarative-broad-focus_Mi-madre-come-la-fruta.wav,./stim/wavs/chilean_mismatch_declarative-broad-focus_Mi-madre-come-la-fruta.wav,./stim/wavs/cuban_mismatch_declarative-broad-focus_Mi-madre-come-la-fruta.wav,./stim/wavs/mexican_mismatch_declarative-broad-focus_Mi-madre-come-la-fruta.wav,./stim/wavs/peruvian_mismatch_declarative-broad-focus_Mi-madre-come-la-fruta.wav,./stim/wavs/puertorican_mismatch_declarative-broad-focus_Mi-madre-come-la-fruta.wav,,,,,,,,,,,,,,,,,,,,,,,,,,,,,,,,,,,,,,,,,,,,,,,,,,,,,,,,
,,,,,,,midd03,midd,ma,Spain,Midwest,12 or younger,no,2021-03-26_19h34.53.645,empathy_intonation_perc,2020.2.10,MacIntel,60,IwAR0-AsAwfDDs5_4Cof_9_IL2Zkxt31E6uBj-8XZuPc9JM9RVnX2V_yVzSt4,,,,,,,,,,,,,,,,,,,,,,,,,,,,,h,1,5.167,0,0,0,0,1,,,,,,,,,,,,,,,,,,,,,,,,,,,,,,,,,,,,,,,,,,,,,,,,
,,,,,"Great! Now we will move on. The next task consists of about 60 trials, in each of which you will see a string of letters. 
  
  Your task is to decide whether this is a real Spanish word or not.",(press the spacebar to continue),midd03,midd,ma,Spain,Midwest,12 or younger,no,2021-03-26_19h34.53.645,empathy_intonation_perc,2020.2.10,MacIntel,60,IwAR0-AsAwfDDs5_4Cof_9_IL2Zkxt31E6uBj-8XZuPc9JM9RVnX2V_yVzSt4,,,,,,,,,,,,,,,,,,,,,,,,,,,,,,,,,,,,,0,0,0,0,1,,,,,,,,,,,,,,,,,,,,,,,,,,,,,,,,,,,,,,,,,,,
,,,,,"If you think it is an existing Spanish word, you type '1' (for 'REAL'), and if you think it is not an existing Spanish word, you type '0' (for 'FAKE').",(press the spacebar to continue),midd03,midd,ma,Spain,Midwest,12 or younger,no,2021-03-26_19h34.53.645,empathy_intonation_perc,2020.2.10,MacIntel,60,IwAR0-AsAwfDDs5_4Cof_9_IL2Zkxt31E6uBj-8XZuPc9JM9RVnX2V_yVzSt4,,,,,,,,,,,,,,,,,,,,,,,,,,,,,,,,,,,,,0,1,1,1,1,,,,,,,,,,,,,,,,,,,,,,,,,,,,,,,,,,,,,,,,,,,
,,,,,"If you are sure that the word exists, even though you dont know its exact meaning, you may still respond '1' (REAL). 
  
  But if you are not sure if it is an existing word, you should respond '0' (FAKE).
  
  Let's do a practice round...",(press the spacebar to continue),midd03,midd,ma,Spain,Midwest,12 or younger,no,2021-03-26_19h34.53.645,empathy_intonation_perc,2020.2.10,MacIntel,60,IwAR0-AsAwfDDs5_4Cof_9_IL2Zkxt31E6uBj-8XZuPc9JM9RVnX2V_yVzSt4,,,,,,,,,,,,,,,,,,,,,,,,,,,,,,,,,,,,,0,2,2,2,1,,,,,,,,,,,,,,,,,,,,,,,,,,,,,,,,,,,,,,,,,,,
,,,,,,,midd03,midd,ma,Spain,Midwest,12 or younger,no,2021-03-26_19h34.53.645,empathy_intonation_perc,2020.2.10,MacIntel,60,IwAR0-AsAwfDDs5_4Cof_9_IL2Zkxt31E6uBj-8XZuPc9JM9RVnX2V_yVzSt4,,,,,,,,,,0,,,,,,,,,,,,,,,,,,,,,,,,,,,,,,,,1,0,2.232,0,0,0,0,1,0,depiste,REAL,FAKE,,,,,,,,,,,,,,,,,,,,,,,,,,,,,,,
,,,,,,,midd03,midd,ma,Spain,Midwest,12 or younger,no,2021-03-26_19h34.53.645,empathy_intonation_perc,2020.2.10,MacIntel,60,IwAR0-AsAwfDDs5_4Cof_9_IL2Zkxt31E6uBj-8XZuPc9JM9RVnX2V_yVzSt4,,,,,,,,,,1,,,,,,,,,,,,,,,,,,,,,,,,,,,,,,,,1,1,2.223,0,1,1,1,1,0,s,REAL,FAKE,,,,,,,,,,,,,,,,,,,,,,,,,,,,,,,
,,,,,,,midd03,midd,ma,Spain,Midwest,12 or younger,no,2021-03-26_19h34.53.645,empathy_intonation_perc,2020.2.10,MacIntel,60,IwAR0-AsAwfDDs5_4Cof_9_IL2Zkxt31E6uBj-8XZuPc9JM9RVnX2V_yVzSt4,,,,,,,,,,0,,,,,,,,,,,,,,,,,,,,,,,,,,,,,,,,0,1,1.657,0,2,2,2,1,0,con,REAL,FAKE,,,,,,,,,,,,,,,,,,,,,,,,,,,,,,,
,,,,,,,midd03,midd,ma,Spain,Midwest,12 or younger,no,2021-03-26_19h34.53.645,empathy_intonation_perc,2020.2.10,MacIntel,60,IwAR0-AsAwfDDs5_4Cof_9_IL2Zkxt31E6uBj-8XZuPc9JM9RVnX2V_yVzSt4,,,,,,,,,,0,,,,,,,,,,,,,,,,,,,,,,,,,,,,,,,,0,1,2.38,0,3,3,3,1,0,calpar,REAL,FAKE,,,,,,,,,,,,,,,,,,,,,,,,,,,,,,,
,,,,,,,midd03,midd,ma,Spain,Midwest,12 or younger,no,2021-03-26_19h34.53.645,empathy_intonation_perc,2020.2.10,MacIntel,60,IwAR0-AsAwfDDs5_4Cof_9_IL2Zkxt31E6uBj-8XZuPc9JM9RVnX2V_yVzSt4,,,,,,,,,,0,,,,,,,,,,,,,,,,,,,,,,,,,,,,,,,,0,1,1.15,0,4,4,4,1,0,joten,REAL,FAKE,,,,,,,,,,,,,,,,,,,,,,,,,,,,,,,
,,,,,,,midd03,midd,ma,Spain,Midwest,12 or younger,no,2021-03-26_19h34.53.645,empathy_intonation_perc,2020.2.10,MacIntel,60,IwAR0-AsAwfDDs5_4Cof_9_IL2Zkxt31E6uBj-8XZuPc9JM9RVnX2V_yVzSt4,,,,,,,,,,1,,,,,,,,,,,,,,,,,,,,,,,,,,,,,,,,1,1,1.389,0,5,5,5,1,0,sacapuntas,REAL,FAKE,,,,,,,,,,,,,,,,,,,,,,,,,,,,,,,
,,,,,,,midd03,midd,ma,Spain,Midwest,12 or younger,no,2021-03-26_19h34.53.645,empathy_intonation_perc,2020.2.10,MacIntel,60,IwAR0-AsAwfDDs5_4Cof_9_IL2Zkxt31E6uBj-8XZuPc9JM9RVnX2V_yVzSt4,,,,,,,,,,0,,,,,,,,,,,,,,,,,,,,,,,,,,,,,,,,0,1,1.128,0,6,6,6,1,0,priba,REAL,FAKE,,,,,,,,,,,,,,,,,,,,,,,,,,,,,,,
,,,,,,,midd03,midd,ma,Spain,Midwest,12 or younger,no,2021-03-26_19h34.53.645,empathy_intonation_perc,2020.2.10,MacIntel,60,IwAR0-AsAwfDDs5_4Cof_9_IL2Zkxt31E6uBj-8XZuPc9JM9RVnX2V_yVzSt4,,,,,,,,,,0,,,,,,,,,,,,,,,,,,,,,,,,,,,,,,,,0,1,1.571,0,7,7,7,1,0,pelasula,REAL,FAKE,,,,,,,,,,,,,,,,,,,,,,,,,,,,,,,
,,,,,,,midd03,midd,ma,Spain,Midwest,12 or younger,no,2021-03-26_19h34.53.645,empathy_intonation_perc,2020.2.10,MacIntel,60,IwAR0-AsAwfDDs5_4Cof_9_IL2Zkxt31E6uBj-8XZuPc9JM9RVnX2V_yVzSt4,,,,,,,,,,1,,,,,,,,,,,,,,,,,,,,,,,,,,,,,,,,1,1,1.151,0,8,8,8,1,0,bien,REAL,FAKE,,,,,,,,,,,,,,,,,,,,,,,,,,,,,,,
,,,,,,,midd03,midd,ma,Spain,Midwest,12 or younger,no,2021-03-26_19h34.53.645,empathy_intonation_perc,2020.2.10,MacIntel,60,IwAR0-AsAwfDDs5_4Cof_9_IL2Zkxt31E6uBj-8XZuPc9JM9RVnX2V_yVzSt4,,,,,,,,,,1,,,,,,,,,,,,,,,,,,,,,,,,,,,,,,,,1,1,1.022,0,9,9,9,1,0,casa,REAL,FAKE,,,,,,,,,,,,,,,,,,,,,,,,,,,,,,,
,,,,,,,midd03,midd,ma,Spain,Midwest,12 or younger,no,2021-03-26_19h34.53.645,empathy_intonation_perc,2020.2.10,MacIntel,60,IwAR0-AsAwfDDs5_4Cof_9_IL2Zkxt31E6uBj-8XZuPc9JM9RVnX2V_yVzSt4,,,,,,,,,,0,,,,,,,,,,,,,,,,,,,,,,,,,,,,,,,,0,1,1.157,0,10,10,10,1,0,lejo,REAL,FAKE,,,,,,,,,,,,,,,,,,,,,,,,,,,,,,,
,,,,,,,midd03,midd,ma,Spain,Midwest,12 or younger,no,2021-03-26_19h34.53.645,empathy_intonation_perc,2020.2.10,MacIntel,60,IwAR0-AsAwfDDs5_4Cof_9_IL2Zkxt31E6uBj-8XZuPc9JM9RVnX2V_yVzSt4,,,,,,,,,,0,,,,,,,,,,,,,,,,,,,,,,,,,,,,,,,,0,1,2.75,0,11,11,11,1,0,pretantas,REAL,FAKE,,,,,,,,,,,,,,,,,,,,,,,,,,,,,,,
,,,,,,,midd03,midd,ma,Spain,Midwest,12 or younger,no,2021-03-26_19h34.53.645,empathy_intonation_perc,2020.2.10,MacIntel,60,IwAR0-AsAwfDDs5_4Cof_9_IL2Zkxt31E6uBj-8XZuPc9JM9RVnX2V_yVzSt4,,,,,,,,,,1,,,,,,,,,,,,,,,,,,,,,,,,,,,,,,,,,,,,,,,,46,martillo,,,1,1,1.791,0,0,0,45,1,REAL,FAKE,,,,,,,,,,,,,,,,,,,,,
,,,,,,,midd03,midd,ma,Spain,Midwest,12 or younger,no,2021-03-26_19h34.53.645,empathy_intonation_perc,2020.2.10,MacIntel,60,IwAR0-AsAwfDDs5_4Cof_9_IL2Zkxt31E6uBj-8XZuPc9JM9RVnX2V_yVzSt4,,,,,,,,,,1,,,,,,,,,,,,,,,,,,,,,,,,,,,,,,,,,,,,,,,,41,rebuscar,,,1,1,1.351,0,1,1,40,1,REAL,FAKE,,,,,,,,,,,,,,,,,,,,,
,,,,,,,midd03,midd,ma,Spain,Midwest,12 or younger,no,2021-03-26_19h34.53.645,empathy_intonation_perc,2020.2.10,MacIntel,60,IwAR0-AsAwfDDs5_4Cof_9_IL2Zkxt31E6uBj-8XZuPc9JM9RVnX2V_yVzSt4,,,,,,,,,,1,,,,,,,,,,,,,,,,,,,,,,,,,,,,,,,,,,,,,,,,2,pellizcar,,,1,1,1.269,0,2,2,1,1,REAL,FAKE,,,,,,,,,,,,,,,,,,,,,
,,,,,,,midd03,midd,ma,Spain,Midwest,12 or younger,no,2021-03-26_19h34.53.645,empathy_intonation_perc,2020.2.10,MacIntel,60,IwAR0-AsAwfDDs5_4Cof_9_IL2Zkxt31E6uBj-8XZuPc9JM9RVnX2V_yVzSt4,,,,,,,,,,1,,,,,,,,,,,,,,,,,,,,,,,,,,,,,,,,,,,,,,,,31,pandilla,,,1,1,1.408,0,3,3,30,1,REAL,FAKE,,,,,,,,,,,,,,,,,,,,,
,,,,,,,midd03,midd,ma,Spain,Midwest,12 or younger,no,2021-03-26_19h34.53.645,empathy_intonation_perc,2020.2.10,MacIntel,60,IwAR0-AsAwfDDs5_4Cof_9_IL2Zkxt31E6uBj-8XZuPc9JM9RVnX2V_yVzSt4,,,,,,,,,,1,,,,,,,,,,,,,,,,,,,,,,,,,,,,,,,,,,,,,,,,89,prisa,,,1,1,0.987,0,4,4,88,1,REAL,FAKE,,,,,,,,,,,,,,,,,,,,,
,,,,,,,midd03,midd,ma,Spain,Midwest,12 or younger,no,2021-03-26_19h34.53.645,empathy_intonation_perc,2020.2.10,MacIntel,60,IwAR0-AsAwfDDs5_4Cof_9_IL2Zkxt31E6uBj-8XZuPc9JM9RVnX2V_yVzSt4,,,,,,,,,,0,,,,,,,,,,,,,,,,,,,,,,,,,,,,,,,,,,,,,,,,87,grodo,,,0,1,1.005,0,5,5,86,1,REAL,FAKE,,,,,,,,,,,,,,,,,,,,,
,,,,,,,midd03,midd,ma,Spain,Midwest,12 or younger,no,2021-03-26_19h34.53.645,empathy_intonation_perc,2020.2.10,MacIntel,60,IwAR0-AsAwfDDs5_4Cof_9_IL2Zkxt31E6uBj-8XZuPc9JM9RVnX2V_yVzSt4,,,,,,,,,,1,,,,,,,,,,,,,,,,,,,,,,,,,,,,,,,,,,,,,,,,54,fomentar,,,1,1,1.056,0,6,6,53,1,REAL,FAKE,,,,,,,,,,,,,,,,,,,,,
,,,,,,,midd03,midd,ma,Spain,Midwest,12 or younger,no,2021-03-26_19h34.53.645,empathy_intonation_perc,2020.2.10,MacIntel,60,IwAR0-AsAwfDDs5_4Cof_9_IL2Zkxt31E6uBj-8XZuPc9JM9RVnX2V_yVzSt4,,,,,,,,,,1,,,,,,,,,,,,,,,,,,,,,,,,,,,,,,,,,,,,,,,,43,canela,,,1,1,1.104,0,7,7,42,1,REAL,FAKE,,,,,,,,,,,,,,,,,,,,,
,,,,,,,midd03,midd,ma,Spain,Midwest,12 or younger,no,2021-03-26_19h34.53.645,empathy_intonation_perc,2020.2.10,MacIntel,60,IwAR0-AsAwfDDs5_4Cof_9_IL2Zkxt31E6uBj-8XZuPc9JM9RVnX2V_yVzSt4,,,,,,,,,,1,,,,,,,,,,,,,,,,,,,,,,,,,,,,,,,,,,,,,,,,76,atar,,,1,1,1.217,0,8,8,75,1,REAL,FAKE,,,,,,,,,,,,,,,,,,,,,
,,,,,,,midd03,midd,ma,Spain,Midwest,12 or younger,no,2021-03-26_19h34.53.645,empathy_intonation_perc,2020.2.10,MacIntel,60,IwAR0-AsAwfDDs5_4Cof_9_IL2Zkxt31E6uBj-8XZuPc9JM9RVnX2V_yVzSt4,,,,,,,,,,0,,,,,,,,,,,,,,,,,,,,,,,,,,,,,,,,,,,,,,,,74,cintro,,,0,1,1.223,0,9,9,73,1,REAL,FAKE,,,,,,,,,,,,,,,,,,,,,
,,,,,,,midd03,midd,ma,Spain,Midwest,12 or younger,no,2021-03-26_19h34.53.645,empathy_intonation_perc,2020.2.10,MacIntel,60,IwAR0-AsAwfDDs5_4Cof_9_IL2Zkxt31E6uBj-8XZuPc9JM9RVnX2V_yVzSt4,,,,,,,,,,1,,,,,,,,,,,,,,,,,,,,,,,,,,,,,,,,,,,,,,,,34,aviso,,,1,1,1.154,0,10,10,33,1,REAL,FAKE,,,,,,,,,,,,,,,,,,,,,
,,,,,,,midd03,midd,ma,Spain,Midwest,12 or younger,no,2021-03-26_19h34.53.645,empathy_intonation_perc,2020.2.10,MacIntel,60,IwAR0-AsAwfDDs5_4Cof_9_IL2Zkxt31E6uBj-8XZuPc9JM9RVnX2V_yVzSt4,,,,,,,,,,0,,,,,,,,,,,,,,,,,,,,,,,,,,,,,,,,,,,,,,,,82,empirador,,,0,1,1.279,0,11,11,81,1,REAL,FAKE,,,,,,,,,,,,,,,,,,,,,
,,,,,,,midd03,midd,ma,Spain,Midwest,12 or younger,no,2021-03-26_19h34.53.645,empathy_intonation_perc,2020.2.10,MacIntel,60,IwAR0-AsAwfDDs5_4Cof_9_IL2Zkxt31E6uBj-8XZuPc9JM9RVnX2V_yVzSt4,,,,,,,,,,1,,,,,,,,,,,,,,,,,,,,,,,,,,,,,,,,,,,,,,,,83,guante,,,1,1,1.038,0,12,12,82,1,REAL,FAKE,,,,,,,,,,,,,,,,,,,,,
,,,,,,,midd03,midd,ma,Spain,Midwest,12 or younger,no,2021-03-26_19h34.53.645,empathy_intonation_perc,2020.2.10,MacIntel,60,IwAR0-AsAwfDDs5_4Cof_9_IL2Zkxt31E6uBj-8XZuPc9JM9RVnX2V_yVzSt4,,,,,,,,,,1,,,,,,,,,,,,,,,,,,,,,,,,,,,,,,,,,,,,,,,,44,cuchara,,,1,1,1.24,0,13,13,43,1,REAL,FAKE,,,,,,,,,,,,,,,,,,,,,
,,,,,,,midd03,midd,ma,Spain,Midwest,12 or younger,no,2021-03-26_19h34.53.645,empathy_intonation_perc,2020.2.10,MacIntel,60,IwAR0-AsAwfDDs5_4Cof_9_IL2Zkxt31E6uBj-8XZuPc9JM9RVnX2V_yVzSt4,,,,,,,,,,1,,,,,,,,,,,,,,,,,,,,,,,,,,,,,,,,,,,,,,,,55,nevar,,,1,1,0.913,0,14,14,54,1,REAL,FAKE,,,,,,,,,,,,,,,,,,,,,
,,,,,,,midd03,midd,ma,Spain,Midwest,12 or younger,no,2021-03-26_19h34.53.645,empathy_intonation_perc,2020.2.10,MacIntel,60,IwAR0-AsAwfDDs5_4Cof_9_IL2Zkxt31E6uBj-8XZuPc9JM9RVnX2V_yVzSt4,,,,,,,,,,1,,,,,,,,,,,,,,,,,,,,,,,,,,,,,,,,,,,,,,,,73,hervidor,,,1,1,1.315,0,15,15,72,1,REAL,FAKE,,,,,,,,,,,,,,,,,,,,,
,,,,,,,midd03,midd,ma,Spain,Midwest,12 or younger,no,2021-03-26_19h34.53.645,empathy_intonation_perc,2020.2.10,MacIntel,60,IwAR0-AsAwfDDs5_4Cof_9_IL2Zkxt31E6uBj-8XZuPc9JM9RVnX2V_yVzSt4,,,,,,,,,,1,,,,,,,,,,,,,,,,,,,,,,,,,,,,,,,,,,,,,,,,14,yunque,,,0,0,1.241,0,16,16,13,1,REAL,FAKE,,,,,,,,,,,,,,,,,,,,,
,,,,,,,midd03,midd,ma,Spain,Midwest,12 or younger,no,2021-03-26_19h34.53.645,empathy_intonation_perc,2020.2.10,MacIntel,60,IwAR0-AsAwfDDs5_4Cof_9_IL2Zkxt31E6uBj-8XZuPc9JM9RVnX2V_yVzSt4,,,,,,,,,,1,,,,,,,,,,,,,,,,,,,,,,,,,,,,,,,,,,,,,,,,20,vido,,,1,1,1.373,0,17,17,19,1,REAL,FAKE,,,,,,,,,,,,,,,,,,,,,
,,,,,,,midd03,midd,ma,Spain,Midwest,12 or younger,no,2021-03-26_19h34.53.645,empathy_intonation_perc,2020.2.10,MacIntel,60,IwAR0-AsAwfDDs5_4Cof_9_IL2Zkxt31E6uBj-8XZuPc9JM9RVnX2V_yVzSt4,,,,,,,,,,1,,,,,,,,,,,,,,,,,,,,,,,,,,,,,,,,,,,,,,,,28,merodear,,,0,0,1.988,0,18,18,27,1,REAL,FAKE,,,,,,,,,,,,,,,,,,,,,
,,,,,,,midd03,midd,ma,Spain,Midwest,12 or younger,no,2021-03-26_19h34.53.645,empathy_intonation_perc,2020.2.10,MacIntel,60,IwAR0-AsAwfDDs5_4Cof_9_IL2Zkxt31E6uBj-8XZuPc9JM9RVnX2V_yVzSt4,,,,,,,,,,1,,,,,,,,,,,,,,,,,,,,,,,,,,,,,,,,,,,,,,,,26,secuestro,,,1,1,1.395,0,19,19,25,1,REAL,FAKE,,,,,,,,,,,,,,,,,,,,,
,,,,,,,midd03,midd,ma,Spain,Midwest,12 or younger,no,2021-03-26_19h34.53.645,empathy_intonation_perc,2020.2.10,MacIntel,60,IwAR0-AsAwfDDs5_4Cof_9_IL2Zkxt31E6uBj-8XZuPc9JM9RVnX2V_yVzSt4,,,,,,,,,,1,,,,,,,,,,,,,,,,,,,,,,,,,,,,,,,,,,,,,,,,81,pozo,,,1,1,1.107,0,20,20,80,1,REAL,FAKE,,,,,,,,,,,,,,,,,,,,,
,,,,,,,midd03,midd,ma,Spain,Midwest,12 or younger,no,2021-03-26_19h34.53.645,empathy_intonation_perc,2020.2.10,MacIntel,60,IwAR0-AsAwfDDs5_4Cof_9_IL2Zkxt31E6uBj-8XZuPc9JM9RVnX2V_yVzSt4,,,,,,,,,,1,,,,,,,,,,,,,,,,,,,,,,,,,,,,,,,,,,,,,,,,59,besar,,,1,1,0.789,0,21,21,58,1,REAL,FAKE,,,,,,,,,,,,,,,,,,,,,
,,,,,,,midd03,midd,ma,Spain,Midwest,12 or younger,no,2021-03-26_19h34.53.645,empathy_intonation_perc,2020.2.10,MacIntel,60,IwAR0-AsAwfDDs5_4Cof_9_IL2Zkxt31E6uBj-8XZuPc9JM9RVnX2V_yVzSt4,,,,,,,,,,1,,,,,,,,,,,,,,,,,,,,,,,,,,,,,,,,,,,,,,,,60,matar,,,1,1,0.688,0,22,22,59,1,REAL,FAKE,,,,,,,,,,,,,,,,,,,,,
,,,,,,,midd03,midd,ma,Spain,Midwest,12 or younger,no,2021-03-26_19h34.53.645,empathy_intonation_perc,2020.2.10,MacIntel,60,IwAR0-AsAwfDDs5_4Cof_9_IL2Zkxt31E6uBj-8XZuPc9JM9RVnX2V_yVzSt4,,,,,,,,,,1,,,,,,,,,,,,,,,,,,,,,,,,,,,,,,,,,,,,,,,,78,frondoso,,,1,1,1.271,0,23,23,77,1,REAL,FAKE,,,,,,,,,,,,,,,,,,,,,
,,,,,,,midd03,midd,ma,Spain,Midwest,12 or younger,no,2021-03-26_19h34.53.645,empathy_intonation_perc,2020.2.10,MacIntel,60,IwAR0-AsAwfDDs5_4Cof_9_IL2Zkxt31E6uBj-8XZuPc9JM9RVnX2V_yVzSt4,,,,,,,,,,1,,,,,,,,,,,,,,,,,,,,,,,,,,,,,,,,,,,,,,,,38,estornudar,,,1,1,0.995,0,24,24,37,1,REAL,FAKE,,,,,,,,,,,,,,,,,,,,,
,,,,,,,midd03,midd,ma,Spain,Midwest,12 or younger,no,2021-03-26_19h34.53.645,empathy_intonation_perc,2020.2.10,MacIntel,60,IwAR0-AsAwfDDs5_4Cof_9_IL2Zkxt31E6uBj-8XZuPc9JM9RVnX2V_yVzSt4,,,,,,,,,,1,,,,,,,,,,,,,,,,,,,,,,,,,,,,,,,,,,,,,,,,7,psimo,,,1,1,0.92,0,25,25,6,1,REAL,FAKE,,,,,,,,,,,,,,,,,,,,,
,,,,,,,midd03,midd,ma,Spain,Midwest,12 or younger,no,2021-03-26_19h34.53.645,empathy_intonation_perc,2020.2.10,MacIntel,60,IwAR0-AsAwfDDs5_4Cof_9_IL2Zkxt31E6uBj-8XZuPc9JM9RVnX2V_yVzSt4,,,,,,,,,,1,,,,,,,,,,,,,,,,,,,,,,,,,,,,,,,,,,,,,,,,52,camisa,,,1,1,0.952,0,26,26,51,1,REAL,FAKE,,,,,,,,,,,,,,,,,,,,,
,,,,,,,midd03,midd,ma,Spain,Midwest,12 or younger,no,2021-03-26_19h34.53.645,empathy_intonation_perc,2020.2.10,MacIntel,60,IwAR0-AsAwfDDs5_4Cof_9_IL2Zkxt31E6uBj-8XZuPc9JM9RVnX2V_yVzSt4,,,,,,,,,,1,,,,,,,,,,,,,,,,,,,,,,,,,,,,,,,,,,,,,,,,61,seda,,,1,1,0.885,0,27,27,60,1,REAL,FAKE,,,,,,,,,,,,,,,,,,,,,
,,,,,,,midd03,midd,ma,Spain,Midwest,12 or younger,no,2021-03-26_19h34.53.645,empathy_intonation_perc,2020.2.10,MacIntel,60,IwAR0-AsAwfDDs5_4Cof_9_IL2Zkxt31E6uBj-8XZuPc9JM9RVnX2V_yVzSt4,,,,,,,,,,1,,,,,,,,,,,,,,,,,,,,,,,,,,,,,,,,,,,,,,,,77,tiburn,,,1,1,0.783,0,28,28,76,1,REAL,FAKE,,,,,,,,,,,,,,,,,,,,,
,,,,,,,midd03,midd,ma,Spain,Midwest,12 or younger,no,2021-03-26_19h34.53.645,empathy_intonation_perc,2020.2.10,MacIntel,60,IwAR0-AsAwfDDs5_4Cof_9_IL2Zkxt31E6uBj-8XZuPc9JM9RVnX2V_yVzSt4,,,,,,,,,,0,,,,,,,,,,,,,,,,,,,,,,,,,,,,,,,,,,,,,,,,66,hacido,,,0,1,0.956,0,29,29,65,1,REAL,FAKE,,,,,,,,,,,,,,,,,,,,,
,,,,,,,midd03,midd,ma,Spain,Midwest,12 or younger,no,2021-03-26_19h34.53.645,empathy_intonation_perc,2020.2.10,MacIntel,60,IwAR0-AsAwfDDs5_4Cof_9_IL2Zkxt31E6uBj-8XZuPc9JM9RVnX2V_yVzSt4,,,,,,,,,,0,,,,,,,,,,,,,,,,,,,,,,,,,,,,,,,,,,,,,,,,32,fatacidad,,,0,1,1.321,0,30,30,31,1,REAL,FAKE,,,,,,,,,,,,,,,,,,,,,
,,,,,,,midd03,midd,ma,Spain,Midwest,12 or younger,no,2021-03-26_19h34.53.645,empathy_intonation_perc,2020.2.10,MacIntel,60,IwAR0-AsAwfDDs5_4Cof_9_IL2Zkxt31E6uBj-8XZuPc9JM9RVnX2V_yVzSt4,,,,,,,,,,1,,,,,,,,,,,,,,,,,,,,,,,,,,,,,,,,,,,,,,,,45,jilguero,,,1,1,1.112,0,31,31,44,1,REAL,FAKE,,,,,,,,,,,,,,,,,,,,,
,,,,,,,midd03,midd,ma,Spain,Midwest,12 or younger,no,2021-03-26_19h34.53.645,empathy_intonation_perc,2020.2.10,MacIntel,60,IwAR0-AsAwfDDs5_4Cof_9_IL2Zkxt31E6uBj-8XZuPc9JM9RVnX2V_yVzSt4,,,,,,,,,,1,,,,,,,,,,,,,,,,,,,,,,,,,,,,,,,,,,,,,,,,75,yacer,,,1,1,1.222,0,32,32,74,1,REAL,FAKE,,,,,,,,,,,,,,,,,,,,,
,,,,,,,midd03,midd,ma,Spain,Midwest,12 or younger,no,2021-03-26_19h34.53.645,empathy_intonation_perc,2020.2.10,MacIntel,60,IwAR0-AsAwfDDs5_4Cof_9_IL2Zkxt31E6uBj-8XZuPc9JM9RVnX2V_yVzSt4,,,,,,,,,,1,,,,,,,,,,,,,,,,,,,,,,,,,,,,,,,,,,,,,,,,80,hormiga,,,1,1,0.838,0,33,33,79,1,REAL,FAKE,,,,,,,,,,,,,,,,,,,,,
,,,,,,,midd03,midd,ma,Spain,Midwest,12 or younger,no,2021-03-26_19h34.53.645,empathy_intonation_perc,2020.2.10,MacIntel,60,IwAR0-AsAwfDDs5_4Cof_9_IL2Zkxt31E6uBj-8XZuPc9JM9RVnX2V_yVzSt4,,,,,,,,,,0,,,,,,,,,,,,,,,,,,,,,,,,,,,,,,,,,,,,,,,,70,temblo,,,0,1,1.325,0,34,34,69,1,REAL,FAKE,,,,,,,,,,,,,,,,,,,,,
,,,,,,,midd03,midd,ma,Spain,Midwest,12 or younger,no,2021-03-26_19h34.53.645,empathy_intonation_perc,2020.2.10,MacIntel,60,IwAR0-AsAwfDDs5_4Cof_9_IL2Zkxt31E6uBj-8XZuPc9JM9RVnX2V_yVzSt4,,,,,,,,,,0,,,,,,,,,,,,,,,,,,,,,,,,,,,,,,,,,,,,,,,,50,flamida,,,0,1,1.251,0,35,35,49,1,REAL,FAKE,,,,,,,,,,,,,,,,,,,,,
,,,,,,,midd03,midd,ma,Spain,Midwest,12 or younger,no,2021-03-26_19h34.53.645,empathy_intonation_perc,2020.2.10,MacIntel,60,IwAR0-AsAwfDDs5_4Cof_9_IL2Zkxt31E6uBj-8XZuPc9JM9RVnX2V_yVzSt4,,,,,,,,,,0,,,,,,,,,,,,,,,,,,,,,,,,,,,,,,,,,,,,,,,,19,brecedad,,,0,1,1.24,0,36,36,18,1,REAL,FAKE,,,,,,,,,,,,,,,,,,,,,
,,,,,,,midd03,midd,ma,Spain,Midwest,12 or younger,no,2021-03-26_19h34.53.645,empathy_intonation_perc,2020.2.10,MacIntel,60,IwAR0-AsAwfDDs5_4Cof_9_IL2Zkxt31E6uBj-8XZuPc9JM9RVnX2V_yVzSt4,,,,,,,,,,1,,,,,,,,,,,,,,,,,,,,,,,,,,,,,,,,,,,,,,,,49,ganar,,,1,1,1.021,0,37,37,48,1,REAL,FAKE,,,,,,,,,,,,,,,,,,,,,
,,,,,,,midd03,midd,ma,Spain,Midwest,12 or younger,no,2021-03-26_19h34.53.645,empathy_intonation_perc,2020.2.10,MacIntel,60,IwAR0-AsAwfDDs5_4Cof_9_IL2Zkxt31E6uBj-8XZuPc9JM9RVnX2V_yVzSt4,,,,,,,,,,0,,,,,,,,,,,,,,,,,,,,,,,,,,,,,,,,,,,,,,,,53,vegada,,,0,1,1.671,0,38,38,52,1,REAL,FAKE,,,,,,,,,,,,,,,,,,,,,
,,,,,,,midd03,midd,ma,Spain,Midwest,12 or younger,no,2021-03-26_19h34.53.645,empathy_intonation_perc,2020.2.10,MacIntel,60,IwAR0-AsAwfDDs5_4Cof_9_IL2Zkxt31E6uBj-8XZuPc9JM9RVnX2V_yVzSt4,,,,,,,,,,0,,,,,,,,,,,,,,,,,,,,,,,,,,,,,,,,,,,,,,,,21,capillo,,,0,1,2.232,0,39,39,20,1,REAL,FAKE,,,,,,,,,,,,,,,,,,,,,
,,,,,,,midd03,midd,ma,Spain,Midwest,12 or younger,no,2021-03-26_19h34.53.645,empathy_intonation_perc,2020.2.10,MacIntel,60,IwAR0-AsAwfDDs5_4Cof_9_IL2Zkxt31E6uBj-8XZuPc9JM9RVnX2V_yVzSt4,,,,,,,,,,1,,,,,,,,,,,,,,,,,,,,,,,,,,,,,,,,,,,,,,,,90,clavel,,,1,1,0.966,0,40,40,89,1,REAL,FAKE,,,,,,,,,,,,,,,,,,,,,
,,,,,,,midd03,midd,ma,Spain,Midwest,12 or younger,no,2021-03-26_19h34.53.645,empathy_intonation_perc,2020.2.10,MacIntel,60,IwAR0-AsAwfDDs5_4Cof_9_IL2Zkxt31E6uBj-8XZuPc9JM9RVnX2V_yVzSt4,,,,,,,,,,1,,,,,,,,,,,,,,,,,,,,,,,,,,,,,,,,,,,,,,,,68,alegre,,,1,1,0.84,0,41,41,67,1,REAL,FAKE,,,,,,,,,,,,,,,,,,,,,
,,,,,,,midd03,midd,ma,Spain,Midwest,12 or younger,no,2021-03-26_19h34.53.645,empathy_intonation_perc,2020.2.10,MacIntel,60,IwAR0-AsAwfDDs5_4Cof_9_IL2Zkxt31E6uBj-8XZuPc9JM9RVnX2V_yVzSt4,,,,,,,,,,0,,,,,,,,,,,,,,,,,,,,,,,,,,,,,,,,,,,,,,,,58,plaudir,,,0,1,1.12,0,42,42,57,1,REAL,FAKE,,,,,,,,,,,,,,,,,,,,,
,,,,,,,midd03,midd,ma,Spain,Midwest,12 or younger,no,2021-03-26_19h34.53.645,empathy_intonation_perc,2020.2.10,MacIntel,60,IwAR0-AsAwfDDs5_4Cof_9_IL2Zkxt31E6uBj-8XZuPc9JM9RVnX2V_yVzSt4,,,,,,,,,,0,,,,,,,,,,,,,,,,,,,,,,,,,,,,,,,,,,,,,,,,16,abracer,,,0,1,1.732,0,43,43,15,1,REAL,FAKE,,,,,,,,,,,,,,,,,,,,,
,,,,,,,midd03,midd,ma,Spain,Midwest,12 or younger,no,2021-03-26_19h34.53.645,empathy_intonation_perc,2020.2.10,MacIntel,60,IwAR0-AsAwfDDs5_4Cof_9_IL2Zkxt31E6uBj-8XZuPc9JM9RVnX2V_yVzSt4,,,,,,,,,,1,,,,,,,,,,,,,,,,,,,,,,,,,,,,,,,,,,,,,,,,15,regar,,,1,1,0.953,0,44,44,14,1,REAL,FAKE,,,,,,,,,,,,,,,,,,,,,
,,,,,,,midd03,midd,ma,Spain,Midwest,12 or younger,no,2021-03-26_19h34.53.645,empathy_intonation_perc,2020.2.10,MacIntel,60,IwAR0-AsAwfDDs5_4Cof_9_IL2Zkxt31E6uBj-8XZuPc9JM9RVnX2V_yVzSt4,,,,,,,,,,1,,,,,,,,,,,,,,,,,,,,,,,,,,,,,,,,,,,,,,,,85,lad,,,0,0,1.226,0,45,45,84,1,REAL,FAKE,,,,,,,,,,,,,,,,,,,,,
,,,,,,,midd03,midd,ma,Spain,Midwest,12 or younger,no,2021-03-26_19h34.53.645,empathy_intonation_perc,2020.2.10,MacIntel,60,IwAR0-AsAwfDDs5_4Cof_9_IL2Zkxt31E6uBj-8XZuPc9JM9RVnX2V_yVzSt4,,,,,,,,,,1,,,,,,,,,,,,,,,,,,,,,,,,,,,,,,,,,,,,,,,,24,ltigo,,,1,1,1.234,0,46,46,23,1,REAL,FAKE,,,,,,,,,,,,,,,,,,,,,
,,,,,,,midd03,midd,ma,Spain,Midwest,12 or younger,no,2021-03-26_19h34.53.645,empathy_intonation_perc,2020.2.10,MacIntel,60,IwAR0-AsAwfDDs5_4Cof_9_IL2Zkxt31E6uBj-8XZuPc9JM9RVnX2V_yVzSt4,,,,,,,,,,1,,,,,,,,,,,,,,,,,,,,,,,,,,,,,,,,,,,,,,,,71,polvoriento,,,1,1,1.742,0,47,47,70,1,REAL,FAKE,,,,,,,,,,,,,,,,,,,,,
,,,,,,,midd03,midd,ma,Spain,Midwest,12 or younger,no,2021-03-26_19h34.53.645,empathy_intonation_perc,2020.2.10,MacIntel,60,IwAR0-AsAwfDDs5_4Cof_9_IL2Zkxt31E6uBj-8XZuPc9JM9RVnX2V_yVzSt4,,,,,,,,,,1,,,,,,,,,,,,,,,,,,,,,,,,,,,,,,,,,,,,,,,,48,ladrn,,,1,1,0.702,0,48,48,47,1,REAL,FAKE,,,,,,,,,,,,,,,,,,,,,
,,,,,,,midd03,midd,ma,Spain,Midwest,12 or younger,no,2021-03-26_19h34.53.645,empathy_intonation_perc,2020.2.10,MacIntel,60,IwAR0-AsAwfDDs5_4Cof_9_IL2Zkxt31E6uBj-8XZuPc9JM9RVnX2V_yVzSt4,,,,,,,,,,0,,,,,,,,,,,,,,,,,,,,,,,,,,,,,,,,,,,,,,,,79,tropaje,,,0,1,1.002,0,49,49,78,1,REAL,FAKE,,,,,,,,,,,,,,,,,,,,,
,,,,,,,midd03,midd,ma,Spain,Midwest,12 or younger,no,2021-03-26_19h34.53.645,empathy_intonation_perc,2020.2.10,MacIntel,60,IwAR0-AsAwfDDs5_4Cof_9_IL2Zkxt31E6uBj-8XZuPc9JM9RVnX2V_yVzSt4,,,,,,,,,,1,,,,,,,,,,,,,,,,,,,,,,,,,,,,,,,,,,,,,,,,88,acantilado,,,0,0,2.28,0,50,50,87,1,REAL,FAKE,,,,,,,,,,,,,,,,,,,,,
,,,,,,,midd03,midd,ma,Spain,Midwest,12 or younger,no,2021-03-26_19h34.53.645,empathy_intonation_perc,2020.2.10,MacIntel,60,IwAR0-AsAwfDDs5_4Cof_9_IL2Zkxt31E6uBj-8XZuPc9JM9RVnX2V_yVzSt4,,,,,,,,,,0,,,,,,,,,,,,,,,,,,,,,,,,,,,,,,,,,,,,,,,,4,batilln,,,0,1,1.722,0,51,51,3,1,REAL,FAKE,,,,,,,,,,,,,,,,,,,,,
,,,,,,,midd03,midd,ma,Spain,Midwest,12 or younger,no,2021-03-26_19h34.53.645,empathy_intonation_perc,2020.2.10,MacIntel,60,IwAR0-AsAwfDDs5_4Cof_9_IL2Zkxt31E6uBj-8XZuPc9JM9RVnX2V_yVzSt4,,,,,,,,,,1,,,,,,,,,,,,,,,,,,,,,,,,,,,,,,,,,,,,,,,,86,barato,,,1,1,1.138,0,52,52,85,1,REAL,FAKE,,,,,,,,,,,,,,,,,,,,,
,,,,,,,midd03,midd,ma,Spain,Midwest,12 or younger,no,2021-03-26_19h34.53.645,empathy_intonation_perc,2020.2.10,MacIntel,60,IwAR0-AsAwfDDs5_4Cof_9_IL2Zkxt31E6uBj-8XZuPc9JM9RVnX2V_yVzSt4,,,,,,,,,,1,,,,,,,,,,,,,,,,,,,,,,,,,,,,,,,,,,,,,,,,64,orgulloso,,,1,1,0.993,0,53,53,63,1,REAL,FAKE,,,,,,,,,,,,,,,,,,,,,
,,,,,,,midd03,midd,ma,Spain,Midwest,12 or younger,no,2021-03-26_19h34.53.645,empathy_intonation_perc,2020.2.10,MacIntel,60,IwAR0-AsAwfDDs5_4Cof_9_IL2Zkxt31E6uBj-8XZuPc9JM9RVnX2V_yVzSt4,,,,,,,,,,1,,,,,,,,,,,,,,,,,,,,,,,,,,,,,,,,,,,,,,,,13,helar,,,1,1,0.928,0,54,54,12,1,REAL,FAKE,,,,,,,,,,,,,,,,,,,,,
,,,,,,,midd03,midd,ma,Spain,Midwest,12 or younger,no,2021-03-26_19h34.53.645,empathy_intonation_perc,2020.2.10,MacIntel,60,IwAR0-AsAwfDDs5_4Cof_9_IL2Zkxt31E6uBj-8XZuPc9JM9RVnX2V_yVzSt4,,,,,,,,,,1,,,,,,,,,,,,,,,,,,,,,,,,,,,,,,,,,,,,,,,,5,zapato,,,1,1,0.738,0,55,55,4,1,REAL,FAKE,,,,,,,,,,,,,,,,,,,,,
,,,,,,,midd03,midd,ma,Spain,Midwest,12 or younger,no,2021-03-26_19h34.53.645,empathy_intonation_perc,2020.2.10,MacIntel,60,IwAR0-AsAwfDDs5_4Cof_9_IL2Zkxt31E6uBj-8XZuPc9JM9RVnX2V_yVzSt4,,,,,,,,,,1,,,,,,,,,,,,,,,,,,,,,,,,,,,,,,,,,,,,,,,,62,flaco,,,1,1,0.788,0,56,56,61,1,REAL,FAKE,,,,,,,,,,,,,,,,,,,,,
,,,,,,,midd03,midd,ma,Spain,Midwest,12 or younger,no,2021-03-26_19h34.53.645,empathy_intonation_perc,2020.2.10,MacIntel,60,IwAR0-AsAwfDDs5_4Cof_9_IL2Zkxt31E6uBj-8XZuPc9JM9RVnX2V_yVzSt4,,,,,,,,,,1,,,,,,,,,,,,,,,,,,,,,,,,,,,,,,,,,,,,,,,,9,hacha,,,1,1,2.588,0,57,57,8,1,REAL,FAKE,,,,,,,,,,,,,,,,,,,,,
,,,,,,,midd03,midd,ma,Spain,Midwest,12 or younger,no,2021-03-26_19h34.53.645,empathy_intonation_perc,2020.2.10,MacIntel,60,IwAR0-AsAwfDDs5_4Cof_9_IL2Zkxt31E6uBj-8XZuPc9JM9RVnX2V_yVzSt4,,,,,,,,,,1,,,,,,,,,,,,,,,,,,,,,,,,,,,,,,,,,,,,,,,,11,cenefa,,,0,0,1.622,0,58,58,10,1,REAL,FAKE,,,,,,,,,,,,,,,,,,,,,
,,,,,,,midd03,midd,ma,Spain,Midwest,12 or younger,no,2021-03-26_19h34.53.645,empathy_intonation_perc,2020.2.10,MacIntel,60,IwAR0-AsAwfDDs5_4Cof_9_IL2Zkxt31E6uBj-8XZuPc9JM9RVnX2V_yVzSt4,,,,,,,,,,0,,,,,,,,,,,,,,,,,,,,,,,,,,,,,,,,,,,,,,,,47,cartinar,,,0,1,1,0,59,59,46,1,REAL,FAKE,,,,,,,,,,,,,,,,,,,,,
,,,,,,,midd03,midd,ma,Spain,Midwest,12 or younger,no,2021-03-26_19h34.53.645,empathy_intonation_perc,2020.2.10,MacIntel,60,IwAR0-AsAwfDDs5_4Cof_9_IL2Zkxt31E6uBj-8XZuPc9JM9RVnX2V_yVzSt4,,,,,,,,,,0,,,,,,,,,,,,,,,,,,,,,,,,,,,,,,,,,,,,,,,,8,cadea,,,0,1,1.72,0,60,60,7,1,REAL,FAKE,,,,,,,,,,,,,,,,,,,,,
,,,,,,,midd03,midd,ma,Spain,Midwest,12 or younger,no,2021-03-26_19h34.53.645,empathy_intonation_perc,2020.2.10,MacIntel,60,IwAR0-AsAwfDDs5_4Cof_9_IL2Zkxt31E6uBj-8XZuPc9JM9RVnX2V_yVzSt4,,,,,,,,,,1,,,,,,,,,,,,,,,,,,,,,,,,,,,,,,,,,,,,,,,,22,lacayo,,,0,0,3.752,0,61,61,21,1,REAL,FAKE,,,,,,,,,,,,,,,,,,,,,
,,,,,,,midd03,midd,ma,Spain,Midwest,12 or younger,no,2021-03-26_19h34.53.645,empathy_intonation_perc,2020.2.10,MacIntel,60,IwAR0-AsAwfDDs5_4Cof_9_IL2Zkxt31E6uBj-8XZuPc9JM9RVnX2V_yVzSt4,,,,,,,,,,0,,,,,,,,,,,,,,,,,,,,,,,,,,,,,,,,,,,,,,,,42,cadallo,,,0,1,1.318,0,62,62,41,1,REAL,FAKE,,,,,,,,,,,,,,,,,,,,,
,,,,,,,midd03,midd,ma,Spain,Midwest,12 or younger,no,2021-03-26_19h34.53.645,empathy_intonation_perc,2020.2.10,MacIntel,60,IwAR0-AsAwfDDs5_4Cof_9_IL2Zkxt31E6uBj-8XZuPc9JM9RVnX2V_yVzSt4,,,,,,,,,,1,,,,,,,,,,,,,,,,,,,,,,,,,,,,,,,,,,,,,,,,36,loro,,,1,1,0.872,0,63,63,35,1,REAL,FAKE,,,,,,,,,,,,,,,,,,,,,
,,,,,,,midd03,midd,ma,Spain,Midwest,12 or younger,no,2021-03-26_19h34.53.645,empathy_intonation_perc,2020.2.10,MacIntel,60,IwAR0-AsAwfDDs5_4Cof_9_IL2Zkxt31E6uBj-8XZuPc9JM9RVnX2V_yVzSt4,,,,,,,,,,1,,,,,,,,,,,,,,,,,,,,,,,,,,,,,,,,,,,,,,,,25,bisagra,,,0,0,1.728,0,64,64,24,1,REAL,FAKE,,,,,,,,,,,,,,,,,,,,,
,,,,,,,midd03,midd,ma,Spain,Midwest,12 or younger,no,2021-03-26_19h34.53.645,empathy_intonation_perc,2020.2.10,MacIntel,60,IwAR0-AsAwfDDs5_4Cof_9_IL2Zkxt31E6uBj-8XZuPc9JM9RVnX2V_yVzSt4,,,,,,,,,,1,,,,,,,,,,,,,,,,,,,,,,,,,,,,,,,,,,,,,,,,67,cabello,,,1,1,1.198,0,65,65,66,1,REAL,FAKE,,,,,,,,,,,,,,,,,,,,,
,,,,,,,midd03,midd,ma,Spain,Midwest,12 or younger,no,2021-03-26_19h34.53.645,empathy_intonation_perc,2020.2.10,MacIntel,60,IwAR0-AsAwfDDs5_4Cof_9_IL2Zkxt31E6uBj-8XZuPc9JM9RVnX2V_yVzSt4,,,,,,,,,,0,,,,,,,,,,,,,,,,,,,,,,,,,,,,,,,,,,,,,,,,84,escuto,,,0,1,1.441,0,66,66,83,1,REAL,FAKE,,,,,,,,,,,,,,,,,,,,,
,,,,,,,midd03,midd,ma,Spain,Midwest,12 or younger,no,2021-03-26_19h34.53.645,empathy_intonation_perc,2020.2.10,MacIntel,60,IwAR0-AsAwfDDs5_4Cof_9_IL2Zkxt31E6uBj-8XZuPc9JM9RVnX2V_yVzSt4,,,,,,,,,,1,,,,,,,,,,,,,,,,,,,,,,,,,,,,,,,,,,,,,,,,57,tacao,,,1,1,0.888,0,67,67,56,1,REAL,FAKE,,,,,,,,,,,,,,,,,,,,,
,,,,,,,midd03,midd,ma,Spain,Midwest,12 or younger,no,2021-03-26_19h34.53.645,empathy_intonation_perc,2020.2.10,MacIntel,60,IwAR0-AsAwfDDs5_4Cof_9_IL2Zkxt31E6uBj-8XZuPc9JM9RVnX2V_yVzSt4,,,,,,,,,,0,,,,,,,,,,,,,,,,,,,,,,,,,,,,,,,,,,,,,,,,18,arsa,,,0,1,1.635,0,68,68,17,1,REAL,FAKE,,,,,,,,,,,,,,,,,,,,,
,,,,,,,midd03,midd,ma,Spain,Midwest,12 or younger,no,2021-03-26_19h34.53.645,empathy_intonation_perc,2020.2.10,MacIntel,60,IwAR0-AsAwfDDs5_4Cof_9_IL2Zkxt31E6uBj-8XZuPc9JM9RVnX2V_yVzSt4,,,,,,,,,,1,,,,,,,,,,,,,,,,,,,,,,,,,,,,,,,,,,,,,,,,51,candado,,,1,1,1.176,0,69,69,50,1,REAL,FAKE,,,,,,,,,,,,,,,,,,,,,
,,,,,,,midd03,midd,ma,Spain,Midwest,12 or younger,no,2021-03-26_19h34.53.645,empathy_intonation_perc,2020.2.10,MacIntel,60,IwAR0-AsAwfDDs5_4Cof_9_IL2Zkxt31E6uBj-8XZuPc9JM9RVnX2V_yVzSt4,,,,,,,,,,1,,,,,,,,,,,,,,,,,,,,,,,,,,,,,,,,,,,,,,,,12,asesinato,,,1,1,1.33,0,70,70,11,1,REAL,FAKE,,,,,,,,,,,,,,,,,,,,,
,,,,,,,midd03,midd,ma,Spain,Midwest,12 or younger,no,2021-03-26_19h34.53.645,empathy_intonation_perc,2020.2.10,MacIntel,60,IwAR0-AsAwfDDs5_4Cof_9_IL2Zkxt31E6uBj-8XZuPc9JM9RVnX2V_yVzSt4,,,,,,,,,,0,,,,,,,,,,,,,,,,,,,,,,,,,,,,,,,,,,,,,,,,63,esposante,,,1,0,2.188,0,71,71,62,1,REAL,FAKE,,,,,,,,,,,,,,,,,,,,,
,,,,,,,midd03,midd,ma,Spain,Midwest,12 or younger,no,2021-03-26_19h34.53.645,empathy_intonation_perc,2020.2.10,MacIntel,60,IwAR0-AsAwfDDs5_4Cof_9_IL2Zkxt31E6uBj-8XZuPc9JM9RVnX2V_yVzSt4,,,,,,,,,,0,,,,,,,,,,,,,,,,,,,,,,,,,,,,,,,,,,,,,,,,72,pemicin,,,0,1,1.604,0,72,72,71,1,REAL,FAKE,,,,,,,,,,,,,,,,,,,,,
,,,,,,,midd03,midd,ma,Spain,Midwest,12 or younger,no,2021-03-26_19h34.53.645,empathy_intonation_perc,2020.2.10,MacIntel,60,IwAR0-AsAwfDDs5_4Cof_9_IL2Zkxt31E6uBj-8XZuPc9JM9RVnX2V_yVzSt4,,,,,,,,,,1,,,,,,,,,,,,,,,,,,,,,,,,,,,,,,,,,,,,,,,,40,alfombra,,,1,1,0.821,0,73,73,39,1,REAL,FAKE,,,,,,,,,,,,,,,,,,,,,
,,,,,,,midd03,midd,ma,Spain,Midwest,12 or younger,no,2021-03-26_19h34.53.645,empathy_intonation_perc,2020.2.10,MacIntel,60,IwAR0-AsAwfDDs5_4Cof_9_IL2Zkxt31E6uBj-8XZuPc9JM9RVnX2V_yVzSt4,,,,,,,,,,0,,,,,,,,,,,,,,,,,,,,,,,,,,,,,,,,,,,,,,,,29,decar,,,0,1,1.022,0,74,74,28,1,REAL,FAKE,,,,,,,,,,,,,,,,,,,,,
,,,,,,,midd03,midd,ma,Spain,Midwest,12 or younger,no,2021-03-26_19h34.53.645,empathy_intonation_perc,2020.2.10,MacIntel,60,IwAR0-AsAwfDDs5_4Cof_9_IL2Zkxt31E6uBj-8XZuPc9JM9RVnX2V_yVzSt4,,,,,,,,,,0,,,,,,,,,,,,,,,,,,,,,,,,,,,,,,,,,,,,,,,,23,lampera,,,0,1,1.222,0,75,75,22,1,REAL,FAKE,,,,,,,,,,,,,,,,,,,,,
,,,,,,,midd03,midd,ma,Spain,Midwest,12 or younger,no,2021-03-26_19h34.53.645,empathy_intonation_perc,2020.2.10,MacIntel,60,IwAR0-AsAwfDDs5_4Cof_9_IL2Zkxt31E6uBj-8XZuPc9JM9RVnX2V_yVzSt4,,,,,,,,,,0,,,,,,,,,,,,,,,,,,,,,,,,,,,,,,,,,,,,,,,,27,acutacin,,,0,1,2.145,0,76,76,26,1,REAL,FAKE,,,,,,,,,,,,,,,,,,,,,
,,,,,,,midd03,midd,ma,Spain,Midwest,12 or younger,no,2021-03-26_19h34.53.645,empathy_intonation_perc,2020.2.10,MacIntel,60,IwAR0-AsAwfDDs5_4Cof_9_IL2Zkxt31E6uBj-8XZuPc9JM9RVnX2V_yVzSt4,,,,,,,,,,1,,,,,,,,,,,,,,,,,,,,,,,,,,,,,,,,,,,,,,,,65,bizcocho,,,1,1,1.501,0,77,77,64,1,REAL,FAKE,,,,,,,,,,,,,,,,,,,,,
,,,,,,,midd03,midd,ma,Spain,Midwest,12 or younger,no,2021-03-26_19h34.53.645,empathy_intonation_perc,2020.2.10,MacIntel,60,IwAR0-AsAwfDDs5_4Cof_9_IL2Zkxt31E6uBj-8XZuPc9JM9RVnX2V_yVzSt4,,,,,,,,,,0,,,,,,,,,,,,,,,,,,,,,,,,,,,,,,,,,,,,,,,,35,rompido,,,0,1,1.101,0,78,78,34,1,REAL,FAKE,,,,,,,,,,,,,,,,,,,,,
,,,,,,,midd03,midd,ma,Spain,Midwest,12 or younger,no,2021-03-26_19h34.53.645,empathy_intonation_perc,2020.2.10,MacIntel,60,IwAR0-AsAwfDDs5_4Cof_9_IL2Zkxt31E6uBj-8XZuPc9JM9RVnX2V_yVzSt4,,,,,,,,,,0,,,,,,,,,,,,,,,,,,,,,,,,,,,,,,,,,,,,,,,,17,floroso,,,1,0,2.088,0,79,79,16,1,REAL,FAKE,,,,,,,,,,,,,,,,,,,,,
,,,,,,,midd03,midd,ma,Spain,Midwest,12 or younger,no,2021-03-26_19h34.53.645,empathy_intonation_perc,2020.2.10,MacIntel,60,IwAR0-AsAwfDDs5_4Cof_9_IL2Zkxt31E6uBj-8XZuPc9JM9RVnX2V_yVzSt4,,,,,,,,,,0,,,,,,,,,,,,,,,,,,,,,,,,,,,,,,,,,,,,,,,,1,terzo,,,0,1,1.857,0,80,80,0,1,REAL,FAKE,,,,,,,,,,,,,,,,,,,,,
,,,,,,,midd03,midd,ma,Spain,Midwest,12 or younger,no,2021-03-26_19h34.53.645,empathy_intonation_perc,2020.2.10,MacIntel,60,IwAR0-AsAwfDDs5_4Cof_9_IL2Zkxt31E6uBj-8XZuPc9JM9RVnX2V_yVzSt4,,,,,,,,,,1,,,,,,,,,,,,,,,,,,,,,,,,,,,,,,,,,,,,,,,,6,tergiversar,,,1,1,1.639,0,81,81,5,1,REAL,FAKE,,,,,,,,,,,,,,,,,,,,,
,,,,,,,midd03,midd,ma,Spain,Midwest,12 or younger,no,2021-03-26_19h34.53.645,empathy_intonation_perc,2020.2.10,MacIntel,60,IwAR0-AsAwfDDs5_4Cof_9_IL2Zkxt31E6uBj-8XZuPc9JM9RVnX2V_yVzSt4,,,,,,,,,,0,,,,,,,,,,,,,,,,,,,,,,,,,,,,,,,,,,,,,,,,10,antar,,,0,1,1.341,0,82,82,9,1,REAL,FAKE,,,,,,,,,,,,,,,,,,,,,
,,,,,,,midd03,midd,ma,Spain,Midwest,12 or younger,no,2021-03-26_19h34.53.645,empathy_intonation_perc,2020.2.10,MacIntel,60,IwAR0-AsAwfDDs5_4Cof_9_IL2Zkxt31E6uBj-8XZuPc9JM9RVnX2V_yVzSt4,,,,,,,,,,1,,,,,,,,,,,,,,,,,,,,,,,,,,,,,,,,,,,,,,,,56,musgo,,,1,1,0.929,0,83,83,55,1,REAL,FAKE,,,,,,,,,,,,,,,,,,,,,
,,,,,,,midd03,midd,ma,Spain,Midwest,12 or younger,no,2021-03-26_19h34.53.645,empathy_intonation_perc,2020.2.10,MacIntel,60,IwAR0-AsAwfDDs5_4Cof_9_IL2Zkxt31E6uBj-8XZuPc9JM9RVnX2V_yVzSt4,,,,,,,,,,1,,,,,,,,,,,,,,,,,,,,,,,,,,,,,,,,,,,,,,,,69,engatusar,,,0,0,2.09,0,84,84,68,1,REAL,FAKE,,,,,,,,,,,,,,,,,,,,,
,,,,,,,midd03,midd,ma,Spain,Midwest,12 or younger,no,2021-03-26_19h34.53.645,empathy_intonation_perc,2020.2.10,MacIntel,60,IwAR0-AsAwfDDs5_4Cof_9_IL2Zkxt31E6uBj-8XZuPc9JM9RVnX2V_yVzSt4,,,,,,,,,,0,,,,,,,,,,,,,,,,,,,,,,,,,,,,,,,,,,,,,,,,30,alardio,,,1,0,1.974,0,85,85,29,1,REAL,FAKE,,,,,,,,,,,,,,,,,,,,,
,,,,,,,midd03,midd,ma,Spain,Midwest,12 or younger,no,2021-03-26_19h34.53.645,empathy_intonation_perc,2020.2.10,MacIntel,60,IwAR0-AsAwfDDs5_4Cof_9_IL2Zkxt31E6uBj-8XZuPc9JM9RVnX2V_yVzSt4,,,,,,,,,,1,,,,,,,,,,,,,,,,,,,,,,,,,,,,,,,,,,,,,,,,3,pulmones,,,1,1,1.201,0,86,86,2,1,REAL,FAKE,,,,,,,,,,,,,,,,,,,,,
,,,,,,,midd03,midd,ma,Spain,Midwest,12 or younger,no,2021-03-26_19h34.53.645,empathy_intonation_perc,2020.2.10,MacIntel,60,IwAR0-AsAwfDDs5_4Cof_9_IL2Zkxt31E6uBj-8XZuPc9JM9RVnX2V_yVzSt4,,,,,,,,,,1,,,,,,,,,,,,,,,,,,,,,,,,,,,,,,,,,,,,,,,,39,torpe,,,1,1,0.821,0,87,87,38,1,REAL,FAKE,,,,,,,,,,,,,,,,,,,,,
,,,,,,,midd03,midd,ma,Spain,Midwest,12 or younger,no,2021-03-26_19h34.53.645,empathy_intonation_perc,2020.2.10,MacIntel,60,IwAR0-AsAwfDDs5_4Cof_9_IL2Zkxt31E6uBj-8XZuPc9JM9RVnX2V_yVzSt4,,,,,,,,,,1,,,,,,,,,,,,,,,,,,,,,,,,,,,,,,,,,,,,,,,,37,granuja,,,1,1,1.005,0,88,88,36,1,REAL,FAKE,,,,,,,,,,,,,,,,,,,,,
,,,,,,,midd03,midd,ma,Spain,Midwest,12 or younger,no,2021-03-26_19h34.53.645,empathy_intonation_perc,2020.2.10,MacIntel,60,IwAR0-AsAwfDDs5_4Cof_9_IL2Zkxt31E6uBj-8XZuPc9JM9RVnX2V_yVzSt4,,,,,,,,,,0,,,,,,,,,,,,,,,,,,,,,,,,,,,,,,,,,,,,,,,,33,pauca,,,0,1,0.922,0,89,89,32,1,REAL,FAKE,,,,,,,,,,,,,,,,,,,,,
,,,,,,,midd03,midd,ma,Spain,Midwest,12 or younger,no,2021-03-26_19h34.53.645,empathy_intonation_perc,2020.2.10,MacIntel,60,IwAR0-AsAwfDDs5_4Cof_9_IL2Zkxt31E6uBj-8XZuPc9JM9RVnX2V_yVzSt4,,,,,,,,,,,,,,,,,,,,,,,,,,,,,,,,,,,,,,,,,,,,,,,,,,,,,,,,,,,,,,,,4,1,3.114,1,0,0,0,0,0,1,,,,,,,,,,,
,,,,,,,midd03,midd,ma,Spain,Midwest,12 or younger,no,2021-03-26_19h34.53.645,empathy_intonation_perc,2020.2.10,MacIntel,60,IwAR0-AsAwfDDs5_4Cof_9_IL2Zkxt31E6uBj-8XZuPc9JM9RVnX2V_yVzSt4,,,,,,,,,,,,,,,,,,,,1,,,,,,,,,,,,,,,,,,,,,,,,,,,,,,,,,,,,,,,,,,,,,,,,,,,,,,2,0,0,0,0,1,I can easily tell if someone else wants to enter a conversation.,1,0,1,0
,,,,,,,midd03,midd,ma,Spain,Midwest,12 or younger,no,2021-03-26_19h34.53.645,empathy_intonation_perc,2020.2.10,MacIntel,60,IwAR0-AsAwfDDs5_4Cof_9_IL2Zkxt31E6uBj-8XZuPc9JM9RVnX2V_yVzSt4,,,,,,,,,,,,,,,,,,,,2,,,,,,,,,,,,,,,,,,,,,,,,,,,,,,,,,,,,,,,,,,,,,,,,,,,,,,3,0,1,1,1,1,I prefer animals to humans.,0,1,0,0
,,,,,,,midd03,midd,ma,Spain,Midwest,12 or younger,no,2021-03-26_19h34.53.645,empathy_intonation_perc,2020.2.10,MacIntel,60,IwAR0-AsAwfDDs5_4Cof_9_IL2Zkxt31E6uBj-8XZuPc9JM9RVnX2V_yVzSt4,,,,,,,,,,,,,,,,,,,,3,,,,,,,,,,,,,,,,,,,,,,,,,,,,,,,,,,,,,,,,,,,,,,,,,,,,,,5,0,2,2,2,1,I try to keep up with the current trends and fashions.,0,1,0,0
,,,,,,,midd03,midd,ma,Spain,Midwest,12 or younger,no,2021-03-26_19h34.53.645,empathy_intonation_perc,2020.2.10,MacIntel,60,IwAR0-AsAwfDDs5_4Cof_9_IL2Zkxt31E6uBj-8XZuPc9JM9RVnX2V_yVzSt4,,,,,,,,,,,,,,,,,,,,4,,,,,,,,,,,,,,,,,,,,,,,,,,,,,,,,,,,,,,,,,,,,,,,,,,,,,,2,0,3,3,3,1,"I find it difficult to explain to others things that I understand easily, 
  when they dont understand it first time.",1,0,0,1
,,,,,,,midd03,midd,ma,Spain,Midwest,12 or younger,no,2021-03-26_19h34.53.645,empathy_intonation_perc,2020.2.10,MacIntel,60,IwAR0-AsAwfDDs5_4Cof_9_IL2Zkxt31E6uBj-8XZuPc9JM9RVnX2V_yVzSt4,,,,,,,,,,,,,,,,,,,,5,,,,,,,,,,,,,,,,,,,,,,,,,,,,,,,,,,,,,,,,,,,,,,,,,,,,,,4,0,4,4,4,1,I dream most nights.,0,1,0,0
,,,,,,,midd03,midd,ma,Spain,Midwest,12 or younger,no,2021-03-26_19h34.53.645,empathy_intonation_perc,2020.2.10,MacIntel,60,IwAR0-AsAwfDDs5_4Cof_9_IL2Zkxt31E6uBj-8XZuPc9JM9RVnX2V_yVzSt4,,,,,,,,,,,,,,,,,,,,6,,,,,,,,,,,,,,,,,,,,,,,,,,,,,,,,,,,,,,,,,,,,,,,,,,,,,,1,0,5,5,5,1,I really enjoy caring for other people.,1,0,1,0
,,,,,,,midd03,midd,ma,Spain,Midwest,12 or younger,no,2021-03-26_19h34.53.645,empathy_intonation_perc,2020.2.10,MacIntel,60,IwAR0-AsAwfDDs5_4Cof_9_IL2Zkxt31E6uBj-8XZuPc9JM9RVnX2V_yVzSt4,,,,,,,,,,,,,,,,,,,,7,,,,,,,,,,,,,,,,,,,,,,,,,,,,,,,,,,,,,,,,,,,,,,,,,,,,,,4,0,6,6,6,1,I try to solve my own problems rather than discussing them with others.,0,1,0,0
