instructions_2afc_loop.thisRepN,instructions_2afc_loop.thisTrialN,instructions_2afc_loop.thisN,instructions_2afc_loop.thisIndex,instructions_2afc_loop.ran,instructions_text,continue_text,participant,study_id,session,I am most familiar with Spanish from...*,What part of the US are you from?*,At what age did you begin learning Spanish?*,Are you proficient in any languages other than English/Spanish?*,date,expName,psychopyVersion,OS,frameRate,key_resp_2afc_practice.keys,key_resp_2afc_practice.corr,key_resp_2afc_practice.rt,trials_2afc_practice_loop.thisRepN,trials_2afc_practice_loop.thisTrialN,trials_2afc_practice_loop.thisN,trials_2afc_practice_loop.thisIndex,trials_2afc_practice_loop.ran,path,correct_response,the_col,key_resp_2afc_trial.keys,key_resp_2afc_trial.corr,key_resp_2afc_trial.rt,trials_2afc_loop.thisRepN,trials_2afc_loop.thisTrialN,trials_2afc_loop.thisN,trials_2afc_loop.thisIndex,trials_2afc_loop.ran,item_num,andalusian,argentine,castilian,chilean,cuban,mexican,peruvian,puertorican,key_resp_ac1.keys,key_resp_ac1.corr,key_resp_ac1.rt,ac1_loop.thisRepN,ac1_loop.thisTrialN,ac1_loop.thisN,ac1_loop.thisIndex,ac1_loop.ran,instructions_lextale_loop.thisRepN,instructions_lextale_loop.thisTrialN,instructions_lextale_loop.thisN,instructions_lextale_loop.thisIndex,instructions_lextale_loop.ran,key_resp_lextale_practice.keys,key_resp_lextale_practice.corr,key_resp_lextale_practice.rt,trials_lextale_practice_loop.thisRepN,trials_lextale_practice_loop.thisTrialN,trials_lextale_practice_loop.thisN,trials_lextale_practice_loop.thisIndex,trials_lextale_practice_loop.ran,stim,word,prac_button_real,prac_button_false,key_resp_lextale_trial.keys,key_resp_lextale_trial.corr,key_resp_lextale_trial.rt,trials_lextale_loop.thisRepN,trials_lextale_loop.thisTrialN,trials_lextale_loop.thisN,trials_lextale_loop.thisIndex,trials_lextale_loop.ran,button_real,button_false,key_resp_ac2.keys,key_resp_ac2.corr,key_resp_ac2.rt,check_pass,check_fails,ac2_loop.thisRepN,ac2_loop.thisTrialN,ac2_loop.thisN,ac2_loop.thisIndex,ac2_loop.ran,slider_eq_trial.response,trials_eq_loop.thisRepN,trials_eq_loop.thisTrialN,trials_eq_loop.thisN,trials_eq_loop.thisIndex,trials_eq_loop.ran,item,is_test_item,is_distractor,is_agree_score,is_disagree_score
0,0,0,0,1,"In the following task you are going to hear a series of utterances. 

  You will decide if the utterances sound like questions or not using your keyboard.",(press the spacebar to continue),midd25,midd,ma,Spain,Northeast,13 or older,yes,2021-03-28_19h53.02.530,empathy_intonation_perc,2020.2.10,MacIntel,60,,,,,,,,,,,,,,,,,,,,,,,,,,,,,,,,,,,,,,,,,,,,,,,,,,,,,,,,,,,,,,,,,,,,,,,,,,,,,,,,,,,,
0,1,1,1,1,"If you believe the utterance is a question, type '1' (for 'yes') and if you do not 
  believe it is a question type '0' (for 'no').

  Let's practice a bit...",(press the spacebar to continue),midd25,midd,ma,Spain,Northeast,13 or older,yes,2021-03-28_19h53.02.530,empathy_intonation_perc,2020.2.10,MacIntel,60,,,,,,,,,,,,,,,,,,,,,,,,,,,,,,,,,,,,,,,,,,,,,,,,,,,,,,,,,,,,,,,,,,,,,,,,,,,,,,,,,,,,
,,,,,,,midd25,midd,ma,Spain,Northeast,13 or older,yes,2021-03-28_19h53.02.530,empathy_intonation_perc,2020.2.10,MacIntel,60,1,1,4.04447,0,0,0,2,1,./stim/wavs/chilean_question_filler_Mi-padre-cantaba-bien.wav,1,,,,,,,,,,,,,,,,,,,,,,,,,,,,,,,,,,,,,,,,,,,,,,,,,,,,,,,,,,,,,,,,,,,,,,,,,,
,,,,,,,midd25,midd,ma,Spain,Northeast,13 or older,yes,2021-03-28_19h53.02.530,empathy_intonation_perc,2020.2.10,MacIntel,60,0,1,4.418295,0,1,1,5,1,./stim/wavs/andalusian_statement_filler_Alberto-nunca-se-afeita.wav,0,,,,,,,,,,,,,,,,,,,,,,,,,,,,,,,,,,,,,,,,,,,,,,,,,,,,,,,,,,,,,,,,,,,,,,,,,,
,,,,,,,midd25,midd,ma,Spain,Northeast,13 or older,yes,2021-03-28_19h53.02.530,empathy_intonation_perc,2020.2.10,MacIntel,60,0,1,3.750275,0,2,2,6,1,./stim/wavs/peruvian_statement_filler_El-nino-habla-con-su-madre.wav,0,,,,,,,,,,,,,,,,,,,,,,,,,,,,,,,,,,,,,,,,,,,,,,,,,,,,,,,,,,,,,,,,,,,,,,,,,,
,,,,,,,midd25,midd,ma,Spain,Northeast,13 or older,yes,2021-03-28_19h53.02.530,empathy_intonation_perc,2020.2.10,MacIntel,60,0,1,2.537325,0,3,3,7,1,./stim/wavs/puertorican_statement_filler_La-nina-pinta-con-su-amiga.wav,0,,,,,,,,,,,,,,,,,,,,,,,,,,,,,,,,,,,,,,,,,,,,,,,,,,,,,,,,,,,,,,,,,,,,,,,,,,
,,,,,,,midd25,midd,ma,Spain,Northeast,13 or older,yes,2021-03-28_19h53.02.530,empathy_intonation_perc,2020.2.10,MacIntel,60,1,1,2.351595,0,4,4,1,1,./stim/wavs/argentine_question_filler_Mi-vecino-habla-mucho.wav,1,,,,,,,,,,,,,,,,,,,,,,,,,,,,,,,,,,,,,,,,,,,,,,,,,,,,,,,,,,,,,,,,,,,,,,,,,,
,,,,,,,midd25,midd,ma,Spain,Northeast,13 or older,yes,2021-03-28_19h53.02.530,empathy_intonation_perc,2020.2.10,MacIntel,60,1,1,3.062445,0,5,5,0,1,./stim/wavs/castilian_question_filler_Mi-esposo-conoce-al-chico.wav,1,,,,,,,,,,,,,,,,,,,,,,,,,,,,,,,,,,,,,,,,,,,,,,,,,,,,,,,,,,,,,,,,,,,,,,,,,,
,,,,,,,midd25,midd,ma,Spain,Northeast,13 or older,yes,2021-03-28_19h53.02.530,empathy_intonation_perc,2020.2.10,MacIntel,60,0,1,2.056675,0,6,6,4,1,./stim/wavs/cuban_statement_filler_Cocinabas-por-la-noche.wav,0,,,,,,,,,,,,,,,,,,,,,,,,,,,,,,,,,,,,,,,,,,,,,,,,,,,,,,,,,,,,,,,,,,,,,,,,,,
,,,,,,,midd25,midd,ma,Spain,Northeast,13 or older,yes,2021-03-28_19h53.02.530,empathy_intonation_perc,2020.2.10,MacIntel,60,1,1,3.003965,0,7,7,3,1,./stim/wavs/mexican_question_filler_Felipe-no-tiene-contrasena.wav,1,,,,,,,,,,,,,,,,,,,,,,,,,,,,,,,,,,,,,,,,,,,,,,,,,,,,,,,,,,,,,,,,,,,,,,,,,,
,,,,,,,midd25,midd,ma,Spain,Northeast,13 or older,yes,2021-03-28_19h53.02.530,empathy_intonation_perc,2020.2.10,MacIntel,60,,,,,,,,,,1,cuban,1,1,2.24063,0,0,0,20,1,21,./stim/wavs/andalusian_match_interrogative-partial-wh_Por-que-abre-el-regalo.wav,./stim/wavs/argentine_match_interrogative-partial-wh_Por-que-abre-el-regalo.wav,./stim/wavs/castilian_match_interrogative-partial-wh_Por-que-abre-el-regalo.wav,./stim/wavs/chilean_match_interrogative-partial-wh_Por-que-abre-el-regalo.wav,./stim/wavs/cuban_match_interrogative-partial-wh_Por-que-abre-el-regalo.wav,./stim/wavs/mexican_match_interrogative-partial-wh_Por-que-abre-el-regalo.wav,./stim/wavs/peruvian_match_interrogative-partial-wh_Por-que-abre-el-regalo.wav,./stim/wavs/puertorican_match_interrogative-partial-wh_Por-que-abre-el-regalo.wav,,,,,,,,,,,,,,,,,,,,,,,,,,,,,,,,,,,,,,,,,,,,,,,,,,,,,,,,
,,,,,,,midd25,midd,ma,Spain,Northeast,13 or older,yes,2021-03-28_19h53.02.530,empathy_intonation_perc,2020.2.10,MacIntel,60,,,,,,,,,,0,castilian,0,1,2.49298,0,1,1,43,1,44,./stim/wavs/andalusian_mismatch_declarative-narrow-focus_La-maestra-vive-en-Paris.wav,./stim/wavs/argentine_mismatch_declarative-narrow-focus_La-maestra-vive-en-Paris.wav,./stim/wavs/castilian_mismatch_declarative-narrow-focus_La-maestra-vive-en-Paris.wav,./stim/wavs/chilean_mismatch_declarative-narrow-focus_La-maestra-vive-en-Paris.wav,./stim/wavs/cuban_mismatch_declarative-narrow-focus_La-maestra-vive-en-Paris.wav,./stim/wavs/mexican_mismatch_declarative-narrow-focus_La-maestra-vive-en-Paris.wav,./stim/wavs/peruvian_mismatch_declarative-narrow-focus_La-maestra-vive-en-Paris.wav,./stim/wavs/puertorican_mismatch_declarative-narrow-focus_La-maestra-vive-en-Paris.wav,,,,,,,,,,,,,,,,,,,,,,,,,,,,,,,,,,,,,,,,,,,,,,,,,,,,,,,,
,,,,,,,midd25,midd,ma,Spain,Northeast,13 or older,yes,2021-03-28_19h53.02.530,empathy_intonation_perc,2020.2.10,MacIntel,60,,,,,,,,,,0,mexican,0,1,2.218825,0,2,2,46,1,47,./stim/wavs/andalusian_mismatch_declarative-narrow-focus_Mi-novio-viene-del-lago.wav,./stim/wavs/argentine_mismatch_declarative-narrow-focus_Mi-novio-viene-del-lago.wav,./stim/wavs/castilian_mismatch_declarative-narrow-focus_Mi-novio-viene-del-lago.wav,./stim/wavs/chilean_mismatch_declarative-narrow-focus_Mi-novio-viene-del-lago.wav,./stim/wavs/cuban_mismatch_declarative-narrow-focus_Mi-novio-viene-del-lago.wav,./stim/wavs/mexican_mismatch_declarative-narrow-focus_Mi-novio-viene-del-lago.wav,./stim/wavs/peruvian_mismatch_declarative-narrow-focus_Mi-novio-viene-del-lago.wav,./stim/wavs/puertorican_mismatch_declarative-narrow-focus_Mi-novio-viene-del-lago.wav,,,,,,,,,,,,,,,,,,,,,,,,,,,,,,,,,,,,,,,,,,,,,,,,,,,,,,,,
,,,,,,,midd25,midd,ma,Spain,Northeast,13 or older,yes,2021-03-28_19h53.02.530,empathy_intonation_perc,2020.2.10,MacIntel,60,,,,,,,,,,1,mexican,1,1,1.60222,0,3,3,19,1,20,./stim/wavs/andalusian_match_interrogative-partial-wh_Cuando-vendia-el-carro.wav,./stim/wavs/argentine_match_interrogative-partial-wh_Cuando-vendia-el-carro.wav,./stim/wavs/castilian_match_interrogative-partial-wh_Cuando-vendia-el-carro.wav,./stim/wavs/chilean_match_interrogative-partial-wh_Cuando-vendia-el-carro.wav,./stim/wavs/cuban_match_interrogative-partial-wh_Cuando-vendia-el-carro.wav,./stim/wavs/mexican_match_interrogative-partial-wh_Cuando-vendia-el-carro.wav,./stim/wavs/peruvian_match_interrogative-partial-wh_Cuando-vendia-el-carro.wav,./stim/wavs/puertorican_match_interrogative-partial-wh_Cuando-vendia-el-carro.wav,,,,,,,,,,,,,,,,,,,,,,,,,,,,,,,,,,,,,,,,,,,,,,,,,,,,,,,,
,,,,,,,midd25,midd,ma,Spain,Northeast,13 or older,yes,2021-03-28_19h53.02.530,empathy_intonation_perc,2020.2.10,MacIntel,60,,,,,,,,,,0,castilian,0,1,1.94321,0,4,4,13,1,14,./stim/wavs/andalusian_match_declarative-narrow-focus_Maria-bebe-el-vino.wav,./stim/wavs/argentine_match_declarative-narrow-focus_Maria-bebe-el-vino.wav,./stim/wavs/castilian_match_declarative-narrow-focus_Maria-bebe-el-vino.wav,./stim/wavs/chilean_match_declarative-narrow-focus_Maria-bebe-el-vino.wav,./stim/wavs/cuban_match_declarative-narrow-focus_Maria-bebe-el-vino.wav,./stim/wavs/mexican_match_declarative-narrow-focus_Maria-bebe-el-vino.wav,./stim/wavs/peruvian_match_declarative-narrow-focus_Maria-bebe-el-vino.wav,./stim/wavs/puertorican_match_declarative-narrow-focus_Maria-bebe-el-vino.wav,,,,,,,,,,,,,,,,,,,,,,,,,,,,,,,,,,,,,,,,,,,,,,,,,,,,,,,,
,,,,,,,midd25,midd,ma,Spain,Northeast,13 or older,yes,2021-03-28_19h53.02.530,empathy_intonation_perc,2020.2.10,MacIntel,60,,,,,,,,,,0,puertorican,0,1,2.376065,0,5,5,3,1,4,./stim/wavs/andalusian_match_declarative-broad-focus_Emilio-ama-la-marcha.wav,./stim/wavs/argentine_match_declarative-broad-focus_Emilio-ama-la-marcha.wav,./stim/wavs/castilian_match_declarative-broad-focus_Emilio-ama-la-marcha.wav,./stim/wavs/chilean_match_declarative-broad-focus_Emilio-ama-la-marcha.wav,./stim/wavs/cuban_match_declarative-broad-focus_Emilio-ama-la-marcha.wav,./stim/wavs/mexican_match_declarative-broad-focus_Emilio-ama-la-marcha.wav,./stim/wavs/peruvian_match_declarative-broad-focus_Emilio-ama-la-marcha.wav,./stim/wavs/puertorican_match_declarative-broad-focus_Emilio-ama-la-marcha.wav,,,,,,,,,,,,,,,,,,,,,,,,,,,,,,,,,,,,,,,,,,,,,,,,,,,,,,,,
,,,,,,,midd25,midd,ma,Spain,Northeast,13 or older,yes,2021-03-28_19h53.02.530,empathy_intonation_perc,2020.2.10,MacIntel,60,,,,,,,,,,0,andalusian,0,1,2.419905,0,6,6,7,1,8,./stim/wavs/andalusian_match_declarative-broad-focus_Marta-abre-el-regalo.wav,./stim/wavs/argentine_match_declarative-broad-focus_Marta-abre-el-regalo.wav,./stim/wavs/castilian_match_declarative-broad-focus_Marta-abre-el-regalo.wav,./stim/wavs/chilean_match_declarative-broad-focus_Marta-abre-el-regalo.wav,./stim/wavs/cuban_match_declarative-broad-focus_Marta-abre-el-regalo.wav,./stim/wavs/mexican_match_declarative-broad-focus_Marta-abre-el-regalo.wav,./stim/wavs/peruvian_match_declarative-broad-focus_Marta-abre-el-regalo.wav,./stim/wavs/puertorican_match_declarative-broad-focus_Marta-abre-el-regalo.wav,,,,,,,,,,,,,,,,,,,,,,,,,,,,,,,,,,,,,,,,,,,,,,,,,,,,,,,,
,,,,,,,midd25,midd,ma,Spain,Northeast,13 or older,yes,2021-03-28_19h53.02.530,empathy_intonation_perc,2020.2.10,MacIntel,60,,,,,,,,,,0,mexican,0,1,2.159195,0,7,7,44,1,45,./stim/wavs/andalusian_mismatch_declarative-narrow-focus_La-nina-lava-el-plato.wav,./stim/wavs/argentine_mismatch_declarative-narrow-focus_La-nina-lava-el-plato.wav,./stim/wavs/castilian_mismatch_declarative-narrow-focus_La-nina-lava-el-plato.wav,./stim/wavs/chilean_mismatch_declarative-narrow-focus_La-nina-lava-el-plato.wav,./stim/wavs/cuban_mismatch_declarative-narrow-focus_La-nina-lava-el-plato.wav,./stim/wavs/mexican_mismatch_declarative-narrow-focus_La-nina-lava-el-plato.wav,./stim/wavs/peruvian_mismatch_declarative-narrow-focus_La-nina-lava-el-plato.wav,./stim/wavs/puertorican_mismatch_declarative-narrow-focus_La-nina-lava-el-plato.wav,,,,,,,,,,,,,,,,,,,,,,,,,,,,,,,,,,,,,,,,,,,,,,,,,,,,,,,,
,,,,,,,midd25,midd,ma,Spain,Northeast,13 or older,yes,2021-03-28_19h53.02.530,empathy_intonation_perc,2020.2.10,MacIntel,60,,,,,,,,,,1,chilean,1,1,1.792885,0,8,8,57,1,58,./stim/wavs/andalusian_mismatch_interrogative-total-yn_El-hombre-mira-la-luna.wav,./stim/wavs/argentine_mismatch_interrogative-total-yn_El-hombre-mira-la-luna.wav,./stim/wavs/castilian_mismatch_interrogative-total-yn_El-hombre-mira-la-luna.wav,./stim/wavs/chilean_mismatch_interrogative-total-yn_El-hombre-mira-la-luna.wav,./stim/wavs/cuban_mismatch_interrogative-total-yn_El-hombre-mira-la-luna.wav,./stim/wavs/mexican_mismatch_interrogative-total-yn_El-hombre-mira-la-luna.wav,./stim/wavs/peruvian_mismatch_interrogative-total-yn_El-hombre-mira-la-luna.wav,./stim/wavs/puertorican_mismatch_interrogative-total-yn_El-hombre-mira-la-luna.wav,,,,,,,,,,,,,,,,,,,,,,,,,,,,,,,,,,,,,,,,,,,,,,,,,,,,,,,,
,,,,,,,midd25,midd,ma,Spain,Northeast,13 or older,yes,2021-03-28_19h53.02.530,empathy_intonation_perc,2020.2.10,MacIntel,60,,,,,,,,,,1,cuban,0,0,4.87414,0,9,9,27,1,28,./stim/wavs/andalusian_match_interrogative-total-yn_Emilio-ama-la-marcha.wav,./stim/wavs/argentine_match_interrogative-total-yn_Emilio-ama-la-marcha.wav,./stim/wavs/castilian_match_interrogative-total-yn_Emilio-ama-la-marcha.wav,./stim/wavs/chilean_match_interrogative-total-yn_Emilio-ama-la-marcha.wav,./stim/wavs/cuban_match_interrogative-total-yn_Emilio-ama-la-marcha.wav,./stim/wavs/mexican_match_interrogative-total-yn_Emilio-ama-la-marcha.wav,./stim/wavs/peruvian_match_interrogative-total-yn_Emilio-ama-la-marcha.wav,./stim/wavs/puertorican_match_interrogative-total-yn_Emilio-ama-la-marcha.wav,,,,,,,,,,,,,,,,,,,,,,,,,,,,,,,,,,,,,,,,,,,,,,,,,,,,,,,,
,,,,,,,midd25,midd,ma,Spain,Northeast,13 or older,yes,2021-03-28_19h53.02.530,empathy_intonation_perc,2020.2.10,MacIntel,60,,,,,,,,,,1,castilian,1,1,1.975965,0,10,10,28,1,29,./stim/wavs/andalusian_match_interrogative-total-yn_Manuela-vende-el-carro.wav,./stim/wavs/argentine_match_interrogative-total-yn_Manuela-vende-el-carro.wav,./stim/wavs/castilian_match_interrogative-total-yn_Manuela-vende-el-carro.wav,./stim/wavs/chilean_match_interrogative-total-yn_Manuela-vende-el-carro.wav,./stim/wavs/cuban_match_interrogative-total-yn_Manuela-vende-el-carro.wav,./stim/wavs/mexican_match_interrogative-total-yn_Manuela-vende-el-carro.wav,./stim/wavs/peruvian_match_interrogative-total-yn_Manuela-vende-el-carro.wav,./stim/wavs/puertorican_match_interrogative-total-yn_Manuela-vende-el-carro.wav,,,,,,,,,,,,,,,,,,,,,,,,,,,,,,,,,,,,,,,,,,,,,,,,,,,,,,,,
,,,,,,,midd25,midd,ma,Spain,Northeast,13 or older,yes,2021-03-28_19h53.02.530,empathy_intonation_perc,2020.2.10,MacIntel,60,,,,,,,,,,1,cuban,0,0,2.998585,0,11,11,30,1,31,./stim/wavs/andalusian_match_interrogative-total-yn_Mariano-habla-del-tiempo.wav,./stim/wavs/argentine_match_interrogative-total-yn_Mariano-habla-del-tiempo.wav,./stim/wavs/castilian_match_interrogative-total-yn_Mariano-habla-del-tiempo.wav,./stim/wavs/chilean_match_interrogative-total-yn_Mariano-habla-del-tiempo.wav,./stim/wavs/cuban_match_interrogative-total-yn_Mariano-habla-del-tiempo.wav,./stim/wavs/mexican_match_interrogative-total-yn_Mariano-habla-del-tiempo.wav,./stim/wavs/peruvian_match_interrogative-total-yn_Mariano-habla-del-tiempo.wav,./stim/wavs/puertorican_match_interrogative-total-yn_Mariano-habla-del-tiempo.wav,,,,,,,,,,,,,,,,,,,,,,,,,,,,,,,,,,,,,,,,,,,,,,,,,,,,,,,,
,,,,,,,midd25,midd,ma,Spain,Northeast,13 or older,yes,2021-03-28_19h53.02.530,empathy_intonation_perc,2020.2.10,MacIntel,60,,,,,,,,,,1,peruvian,1,1,2.35462,0,12,12,23,1,24,./stim/wavs/andalusian_match_interrogative-partial-wh_Por-que-iba-a-Bolivia.wav,./stim/wavs/argentine_match_interrogative-partial-wh_Por-que-iba-a-Bolivia.wav,./stim/wavs/castilian_match_interrogative-partial-wh_Por-que-iba-a-Bolivia.wav,./stim/wavs/chilean_match_interrogative-partial-wh_Por-que-iba-a-Bolivia.wav,./stim/wavs/cuban_match_interrogative-partial-wh_Por-que-iba-a-Bolivia.wav,./stim/wavs/mexican_match_interrogative-partial-wh_Por-que-iba-a-Bolivia.wav,./stim/wavs/peruvian_match_interrogative-partial-wh_Por-que-iba-a-Bolivia.wav,./stim/wavs/puertorican_match_interrogative-partial-wh_Por-que-iba-a-Bolivia.wav,,,,,,,,,,,,,,,,,,,,,,,,,,,,,,,,,,,,,,,,,,,,,,,,,,,,,,,,
,,,,,,,midd25,midd,ma,Spain,Northeast,13 or older,yes,2021-03-28_19h53.02.530,empathy_intonation_perc,2020.2.10,MacIntel,60,,,,,,,,,,1,mexican,1,1,1.82419,0,13,13,48,1,49,./stim/wavs/andalusian_mismatch_interrogative-partial-wh_Cuando-comia-la-fruta.wav,./stim/wavs/argentine_mismatch_interrogative-partial-wh_Cuando-comia-la-fruta.wav,./stim/wavs/castilian_mismatch_interrogative-partial-wh_Cuando-comia-la-fruta.wav,./stim/wavs/chilean_mismatch_interrogative-partial-wh_Cuando-comia-la-fruta.wav,./stim/wavs/cuban_mismatch_interrogative-partial-wh_Cuando-comia-la-fruta.wav,./stim/wavs/mexican_mismatch_interrogative-partial-wh_Cuando-comia-la-fruta.wav,./stim/wavs/peruvian_mismatch_interrogative-partial-wh_Cuando-comia-la-fruta.wav,./stim/wavs/puertorican_mismatch_interrogative-partial-wh_Cuando-comia-la-fruta.wav,,,,,,,,,,,,,,,,,,,,,,,,,,,,,,,,,,,,,,,,,,,,,,,,,,,,,,,,
,,,,,,,midd25,midd,ma,Spain,Northeast,13 or older,yes,2021-03-28_19h53.02.530,empathy_intonation_perc,2020.2.10,MacIntel,60,,,,,,,,,,0,argentine,0,1,2.052135,0,14,14,11,1,12,./stim/wavs/andalusian_match_declarative-narrow-focus_Emilio-ama-la-marcha.wav,./stim/wavs/argentine_match_declarative-narrow-focus_Emilio-ama-la-marcha.wav,./stim/wavs/castilian_match_declarative-narrow-focus_Emilio-ama-la-marcha.wav,./stim/wavs/chilean_match_declarative-narrow-focus_Emilio-ama-la-marcha.wav,./stim/wavs/cuban_match_declarative-narrow-focus_Emilio-ama-la-marcha.wav,./stim/wavs/mexican_match_declarative-narrow-focus_Emilio-ama-la-marcha.wav,./stim/wavs/peruvian_match_declarative-narrow-focus_Emilio-ama-la-marcha.wav,./stim/wavs/puertorican_match_declarative-narrow-focus_Emilio-ama-la-marcha.wav,,,,,,,,,,,,,,,,,,,,,,,,,,,,,,,,,,,,,,,,,,,,,,,,,,,,,,,,
,,,,,,,midd25,midd,ma,Spain,Northeast,13 or older,yes,2021-03-28_19h53.02.530,empathy_intonation_perc,2020.2.10,MacIntel,60,,,,,,,,,,0,andalusian,1,0,3.95049,0,15,15,10,1,11,./stim/wavs/andalusian_match_declarative-narrow-focus_David-leia-el-libro.wav,./stim/wavs/argentine_match_declarative-narrow-focus_David-leia-el-libro.wav,./stim/wavs/castilian_match_declarative-narrow-focus_David-leia-el-libro.wav,./stim/wavs/chilean_match_declarative-narrow-focus_David-leia-el-libro.wav,./stim/wavs/cuban_match_declarative-narrow-focus_David-leia-el-libro.wav,./stim/wavs/mexican_match_declarative-narrow-focus_David-leia-el-libro.wav,./stim/wavs/peruvian_match_declarative-narrow-focus_David-leia-el-libro.wav,./stim/wavs/puertorican_match_declarative-narrow-focus_David-leia-el-libro.wav,,,,,,,,,,,,,,,,,,,,,,,,,,,,,,,,,,,,,,,,,,,,,,,,,,,,,,,,
,,,,,,,midd25,midd,ma,Spain,Northeast,13 or older,yes,2021-03-28_19h53.02.530,empathy_intonation_perc,2020.2.10,MacIntel,60,,,,,,,,,,1,andalusian,1,1,1.568365,0,16,16,17,1,18,./stim/wavs/andalusian_match_interrogative-partial-wh_Cuando-leia-el-libro.wav,./stim/wavs/argentine_match_interrogative-partial-wh_Cuando-leia-el-libro.wav,./stim/wavs/castilian_match_interrogative-partial-wh_Cuando-leia-el-libro.wav,./stim/wavs/chilean_match_interrogative-partial-wh_Cuando-leia-el-libro.wav,./stim/wavs/cuban_match_interrogative-partial-wh_Cuando-leia-el-libro.wav,./stim/wavs/mexican_match_interrogative-partial-wh_Cuando-leia-el-libro.wav,./stim/wavs/peruvian_match_interrogative-partial-wh_Cuando-leia-el-libro.wav,./stim/wavs/puertorican_match_interrogative-partial-wh_Cuando-leia-el-libro.wav,,,,,,,,,,,,,,,,,,,,,,,,,,,,,,,,,,,,,,,,,,,,,,,,,,,,,,,,
,,,,,,,midd25,midd,ma,Spain,Northeast,13 or older,yes,2021-03-28_19h53.02.530,empathy_intonation_perc,2020.2.10,MacIntel,60,,,,,,,,,,1,chilean,1,1,1.84084,0,17,17,26,1,27,./stim/wavs/andalusian_match_interrogative-total-yn_David-leia-el-libro.wav,./stim/wavs/argentine_match_interrogative-total-yn_David-leia-el-libro.wav,./stim/wavs/castilian_match_interrogative-total-yn_David-leia-el-libro.wav,./stim/wavs/chilean_match_interrogative-total-yn_David-leia-el-libro.wav,./stim/wavs/cuban_match_interrogative-total-yn_David-leia-el-libro.wav,./stim/wavs/mexican_match_interrogative-total-yn_David-leia-el-libro.wav,./stim/wavs/peruvian_match_interrogative-total-yn_David-leia-el-libro.wav,./stim/wavs/puertorican_match_interrogative-total-yn_David-leia-el-libro.wav,,,,,,,,,,,,,,,,,,,,,,,,,,,,,,,,,,,,,,,,,,,,,,,,,,,,,,,,
,,,,,,,midd25,midd,ma,Spain,Northeast,13 or older,yes,2021-03-28_19h53.02.530,empathy_intonation_perc,2020.2.10,MacIntel,60,,,,,,,,,,1,castilian,1,1,1.574535,0,18,18,22,1,23,./stim/wavs/andalusian_match_interrogative-partial-wh_Por-que-hablaba-del-agua.wav,./stim/wavs/argentine_match_interrogative-partial-wh_Por-que-hablaba-del-agua.wav,./stim/wavs/castilian_match_interrogative-partial-wh_Por-que-hablaba-del-agua.wav,./stim/wavs/chilean_match_interrogative-partial-wh_Por-que-hablaba-del-agua.wav,./stim/wavs/cuban_match_interrogative-partial-wh_Por-que-hablaba-del-agua.wav,./stim/wavs/mexican_match_interrogative-partial-wh_Por-que-hablaba-del-agua.wav,./stim/wavs/peruvian_match_interrogative-partial-wh_Por-que-hablaba-del-agua.wav,./stim/wavs/puertorican_match_interrogative-partial-wh_Por-que-hablaba-del-agua.wav,,,,,,,,,,,,,,,,,,,,,,,,,,,,,,,,,,,,,,,,,,,,,,,,,,,,,,,,
,,,,,,,midd25,midd,ma,Spain,Northeast,13 or older,yes,2021-03-28_19h53.02.530,empathy_intonation_perc,2020.2.10,MacIntel,60,,,,,,,,,,0,puertorican,0,1,1.73314,0,19,19,12,1,13,./stim/wavs/andalusian_match_declarative-narrow-focus_Manuela-vende-el-carro.wav,./stim/wavs/argentine_match_declarative-narrow-focus_Manuela-vende-el-carro.wav,./stim/wavs/castilian_match_declarative-narrow-focus_Manuela-vende-el-carro.wav,./stim/wavs/chilean_match_declarative-narrow-focus_Manuela-vende-el-carro.wav,./stim/wavs/cuban_match_declarative-narrow-focus_Manuela-vende-el-carro.wav,./stim/wavs/mexican_match_declarative-narrow-focus_Manuela-vende-el-carro.wav,./stim/wavs/peruvian_match_declarative-narrow-focus_Manuela-vende-el-carro.wav,./stim/wavs/puertorican_match_declarative-narrow-focus_Manuela-vende-el-carro.wav,,,,,,,,,,,,,,,,,,,,,,,,,,,,,,,,,,,,,,,,,,,,,,,,,,,,,,,,
,,,,,,,midd25,midd,ma,Spain,Northeast,13 or older,yes,2021-03-28_19h53.02.530,empathy_intonation_perc,2020.2.10,MacIntel,60,,,,,,,,,,1,castilian,1,1,1.43394,0,20,20,49,1,50,./stim/wavs/andalusian_mismatch_interrogative-partial-wh_Cuando-lavaba-el-plato.wav,./stim/wavs/argentine_mismatch_interrogative-partial-wh_Cuando-lavaba-el-plato.wav,./stim/wavs/castilian_mismatch_interrogative-partial-wh_Cuando-lavaba-el-plato.wav,./stim/wavs/chilean_mismatch_interrogative-partial-wh_Cuando-lavaba-el-plato.wav,./stim/wavs/cuban_mismatch_interrogative-partial-wh_Cuando-lavaba-el-plato.wav,./stim/wavs/mexican_mismatch_interrogative-partial-wh_Cuando-lavaba-el-plato.wav,./stim/wavs/peruvian_mismatch_interrogative-partial-wh_Cuando-lavaba-el-plato.wav,./stim/wavs/puertorican_mismatch_interrogative-partial-wh_Cuando-lavaba-el-plato.wav,,,,,,,,,,,,,,,,,,,,,,,,,,,,,,,,,,,,,,,,,,,,,,,,,,,,,,,,
,,,,,,,midd25,midd,ma,Spain,Northeast,13 or older,yes,2021-03-28_19h53.02.530,empathy_intonation_perc,2020.2.10,MacIntel,60,,,,,,,,,,0,cuban,0,1,1.778365,0,21,21,34,1,35,./stim/wavs/andalusian_mismatch_declarative-broad-focus_El-nino-oye-el-rio.wav,./stim/wavs/argentine_mismatch_declarative-broad-focus_El-nino-oye-el-rio.wav,./stim/wavs/castilian_mismatch_declarative-broad-focus_El-nino-oye-el-rio.wav,./stim/wavs/chilean_mismatch_declarative-broad-focus_El-nino-oye-el-rio.wav,./stim/wavs/cuban_mismatch_declarative-broad-focus_El-nino-oye-el-rio.wav,./stim/wavs/mexican_mismatch_declarative-broad-focus_El-nino-oye-el-rio.wav,./stim/wavs/peruvian_mismatch_declarative-broad-focus_El-nino-oye-el-rio.wav,./stim/wavs/puertorican_mismatch_declarative-broad-focus_El-nino-oye-el-rio.wav,,,,,,,,,,,,,,,,,,,,,,,,,,,,,,,,,,,,,,,,,,,,,,,,,,,,,,,,
,,,,,,,midd25,midd,ma,Spain,Northeast,13 or older,yes,2021-03-28_19h53.02.530,empathy_intonation_perc,2020.2.10,MacIntel,60,,,,,,,,,,1,mexican,1,1,1.36176,0,22,22,18,1,19,./stim/wavs/andalusian_match_interrogative-partial-wh_Cuando-lleva-el-abrigo.wav,./stim/wavs/argentine_match_interrogative-partial-wh_Cuando-lleva-el-abrigo.wav,./stim/wavs/castilian_match_interrogative-partial-wh_Cuando-lleva-el-abrigo.wav,./stim/wavs/chilean_match_interrogative-partial-wh_Cuando-lleva-el-abrigo.wav,./stim/wavs/cuban_match_interrogative-partial-wh_Cuando-lleva-el-abrigo.wav,./stim/wavs/mexican_match_interrogative-partial-wh_Cuando-lleva-el-abrigo.wav,./stim/wavs/peruvian_match_interrogative-partial-wh_Cuando-lleva-el-abrigo.wav,./stim/wavs/puertorican_match_interrogative-partial-wh_Cuando-lleva-el-abrigo.wav,,,,,,,,,,,,,,,,,,,,,,,,,,,,,,,,,,,,,,,,,,,,,,,,,,,,,,,,
,,,,,,,midd25,midd,ma,Spain,Northeast,13 or older,yes,2021-03-28_19h53.02.530,empathy_intonation_perc,2020.2.10,MacIntel,60,,,,,,,,,,0,castilian,0,1,2.070275,0,23,23,41,1,42,./stim/wavs/andalusian_mismatch_declarative-narrow-focus_El-hombre-mira-la-luna.wav,./stim/wavs/argentine_mismatch_declarative-narrow-focus_El-hombre-mira-la-luna.wav,./stim/wavs/castilian_mismatch_declarative-narrow-focus_El-hombre-mira-la-luna.wav,./stim/wavs/chilean_mismatch_declarative-narrow-focus_El-hombre-mira-la-luna.wav,./stim/wavs/cuban_mismatch_declarative-narrow-focus_El-hombre-mira-la-luna.wav,./stim/wavs/mexican_mismatch_declarative-narrow-focus_El-hombre-mira-la-luna.wav,./stim/wavs/peruvian_mismatch_declarative-narrow-focus_El-hombre-mira-la-luna.wav,./stim/wavs/puertorican_mismatch_declarative-narrow-focus_El-hombre-mira-la-luna.wav,,,,,,,,,,,,,,,,,,,,,,,,,,,,,,,,,,,,,,,,,,,,,,,,,,,,,,,,
,,,,,,,midd25,midd,ma,Spain,Northeast,13 or older,yes,2021-03-28_19h53.02.530,empathy_intonation_perc,2020.2.10,MacIntel,60,,,,,,,,,,0,andalusian,0,1,3.023175,0,24,24,32,1,33,./stim/wavs/andalusian_mismatch_declarative-broad-focus_El-bebe-comia-muy-bien.wav,./stim/wavs/argentine_mismatch_declarative-broad-focus_El-bebe-comia-muy-bien.wav,./stim/wavs/castilian_mismatch_declarative-broad-focus_El-bebe-comia-muy-bien.wav,./stim/wavs/chilean_mismatch_declarative-broad-focus_El-bebe-comia-muy-bien.wav,./stim/wavs/cuban_mismatch_declarative-broad-focus_El-bebe-comia-muy-bien.wav,./stim/wavs/mexican_mismatch_declarative-broad-focus_El-bebe-comia-muy-bien.wav,./stim/wavs/peruvian_mismatch_declarative-broad-focus_El-bebe-comia-muy-bien.wav,./stim/wavs/puertorican_mismatch_declarative-broad-focus_El-bebe-comia-muy-bien.wav,,,,,,,,,,,,,,,,,,,,,,,,,,,,,,,,,,,,,,,,,,,,,,,,,,,,,,,,
,,,,,,,midd25,midd,ma,Spain,Northeast,13 or older,yes,2021-03-28_19h53.02.530,empathy_intonation_perc,2020.2.10,MacIntel,60,,,,,,,,,,1,puertorican,1,1,1.467695,0,25,25,52,1,53,./stim/wavs/andalusian_mismatch_interrogative-partial-wh_Por-que-odiaba-la-lluvia.wav,./stim/wavs/argentine_mismatch_interrogative-partial-wh_Por-que-odiaba-la-lluvia.wav,./stim/wavs/castilian_mismatch_interrogative-partial-wh_Por-que-odiaba-la-lluvia.wav,./stim/wavs/chilean_mismatch_interrogative-partial-wh_Por-que-odiaba-la-lluvia.wav,./stim/wavs/cuban_mismatch_interrogative-partial-wh_Por-que-odiaba-la-lluvia.wav,./stim/wavs/mexican_mismatch_interrogative-partial-wh_Por-que-odiaba-la-lluvia.wav,./stim/wavs/peruvian_mismatch_interrogative-partial-wh_Por-que-odiaba-la-lluvia.wav,./stim/wavs/puertorican_mismatch_interrogative-partial-wh_Por-que-odiaba-la-lluvia.wav,,,,,,,,,,,,,,,,,,,,,,,,,,,,,,,,,,,,,,,,,,,,,,,,,,,,,,,,
,,,,,,,midd25,midd,ma,Spain,Northeast,13 or older,yes,2021-03-28_19h53.02.530,empathy_intonation_perc,2020.2.10,MacIntel,60,,,,,,,,,,0,peruvian,0,1,1.601845,0,26,26,33,1,34,./stim/wavs/andalusian_mismatch_declarative-broad-focus_El-hombre-mira-la-luna.wav,./stim/wavs/argentine_mismatch_declarative-broad-focus_El-hombre-mira-la-luna.wav,./stim/wavs/castilian_mismatch_declarative-broad-focus_El-hombre-mira-la-luna.wav,./stim/wavs/chilean_mismatch_declarative-broad-focus_El-hombre-mira-la-luna.wav,./stim/wavs/cuban_mismatch_declarative-broad-focus_El-hombre-mira-la-luna.wav,./stim/wavs/mexican_mismatch_declarative-broad-focus_El-hombre-mira-la-luna.wav,./stim/wavs/peruvian_mismatch_declarative-broad-focus_El-hombre-mira-la-luna.wav,./stim/wavs/puertorican_mismatch_declarative-broad-focus_El-hombre-mira-la-luna.wav,,,,,,,,,,,,,,,,,,,,,,,,,,,,,,,,,,,,,,,,,,,,,,,,,,,,,,,,
,,,,,,,midd25,midd,ma,Spain,Northeast,13 or older,yes,2021-03-28_19h53.02.530,empathy_intonation_perc,2020.2.10,MacIntel,60,,,,,,,,,,1,mexican,1,1,1.862455,0,27,27,59,1,60,./stim/wavs/andalusian_mismatch_interrogative-total-yn_La-maestra-vive-en-Paris.wav,./stim/wavs/argentine_mismatch_interrogative-total-yn_La-maestra-vive-en-Paris.wav,./stim/wavs/castilian_mismatch_interrogative-total-yn_La-maestra-vive-en-Paris.wav,./stim/wavs/chilean_mismatch_interrogative-total-yn_La-maestra-vive-en-Paris.wav,./stim/wavs/cuban_mismatch_interrogative-total-yn_La-maestra-vive-en-Paris.wav,./stim/wavs/mexican_mismatch_interrogative-total-yn_La-maestra-vive-en-Paris.wav,./stim/wavs/peruvian_mismatch_interrogative-total-yn_La-maestra-vive-en-Paris.wav,./stim/wavs/puertorican_mismatch_interrogative-total-yn_La-maestra-vive-en-Paris.wav,,,,,,,,,,,,,,,,,,,,,,,,,,,,,,,,,,,,,,,,,,,,,,,,,,,,,,,,
,,,,,,,midd25,midd,ma,Spain,Northeast,13 or older,yes,2021-03-28_19h53.02.530,empathy_intonation_perc,2020.2.10,MacIntel,60,,,,,,,,,,0,puertorican,0,1,1.766885,0,28,28,45,1,46,./stim/wavs/andalusian_mismatch_declarative-narrow-focus_Mi-madre-come-la-fruta.wav,./stim/wavs/argentine_mismatch_declarative-narrow-focus_Mi-madre-come-la-fruta.wav,./stim/wavs/castilian_mismatch_declarative-narrow-focus_Mi-madre-come-la-fruta.wav,./stim/wavs/chilean_mismatch_declarative-narrow-focus_Mi-madre-come-la-fruta.wav,./stim/wavs/cuban_mismatch_declarative-narrow-focus_Mi-madre-come-la-fruta.wav,./stim/wavs/mexican_mismatch_declarative-narrow-focus_Mi-madre-come-la-fruta.wav,./stim/wavs/peruvian_mismatch_declarative-narrow-focus_Mi-madre-come-la-fruta.wav,./stim/wavs/puertorican_mismatch_declarative-narrow-focus_Mi-madre-come-la-fruta.wav,,,,,,,,,,,,,,,,,,,,,,,,,,,,,,,,,,,,,,,,,,,,,,,,,,,,,,,,
,,,,,,,midd25,midd,ma,Spain,Northeast,13 or older,yes,2021-03-28_19h53.02.530,empathy_intonation_perc,2020.2.10,MacIntel,60,,,,,,,,,,1,andalusian,1,1,1.52631,0,29,29,21,1,22,./stim/wavs/andalusian_match_interrogative-partial-wh_Por-que-ama-la-navidad.wav,./stim/wavs/argentine_match_interrogative-partial-wh_Por-que-ama-la-navidad.wav,./stim/wavs/castilian_match_interrogative-partial-wh_Por-que-ama-la-navidad.wav,./stim/wavs/chilean_match_interrogative-partial-wh_Por-que-ama-la-navidad.wav,./stim/wavs/cuban_match_interrogative-partial-wh_Por-que-ama-la-navidad.wav,./stim/wavs/mexican_match_interrogative-partial-wh_Por-que-ama-la-navidad.wav,./stim/wavs/peruvian_match_interrogative-partial-wh_Por-que-ama-la-navidad.wav,./stim/wavs/puertorican_match_interrogative-partial-wh_Por-que-ama-la-navidad.wav,,,,,,,,,,,,,,,,,,,,,,,,,,,,,,,,,,,,,,,,,,,,,,,,,,,,,,,,
,,,,,,,midd25,midd,ma,Spain,Northeast,13 or older,yes,2021-03-28_19h53.02.530,empathy_intonation_perc,2020.2.10,MacIntel,60,,,,,,,,,,0,argentine,0,1,1.98399,0,30,30,42,1,43,./stim/wavs/andalusian_mismatch_declarative-narrow-focus_El-nino-oye-el-rio.wav,./stim/wavs/argentine_mismatch_declarative-narrow-focus_El-nino-oye-el-rio.wav,./stim/wavs/castilian_mismatch_declarative-narrow-focus_El-nino-oye-el-rio.wav,./stim/wavs/chilean_mismatch_declarative-narrow-focus_El-nino-oye-el-rio.wav,./stim/wavs/cuban_mismatch_declarative-narrow-focus_El-nino-oye-el-rio.wav,./stim/wavs/mexican_mismatch_declarative-narrow-focus_El-nino-oye-el-rio.wav,./stim/wavs/peruvian_mismatch_declarative-narrow-focus_El-nino-oye-el-rio.wav,./stim/wavs/puertorican_mismatch_declarative-narrow-focus_El-nino-oye-el-rio.wav,,,,,,,,,,,,,,,,,,,,,,,,,,,,,,,,,,,,,,,,,,,,,,,,,,,,,,,,
,,,,,,,midd25,midd,ma,Spain,Northeast,13 or older,yes,2021-03-28_19h53.02.530,empathy_intonation_perc,2020.2.10,MacIntel,60,,,,,,,,,,1,cuban,1,1,2.088605,0,31,31,50,1,51,./stim/wavs/andalusian_mismatch_interrogative-partial-wh_Cuando-miraba-la-luna.wav,./stim/wavs/argentine_mismatch_interrogative-partial-wh_Cuando-miraba-la-luna.wav,./stim/wavs/castilian_mismatch_interrogative-partial-wh_Cuando-miraba-la-luna.wav,./stim/wavs/chilean_mismatch_interrogative-partial-wh_Cuando-miraba-la-luna.wav,./stim/wavs/cuban_mismatch_interrogative-partial-wh_Cuando-miraba-la-luna.wav,./stim/wavs/mexican_mismatch_interrogative-partial-wh_Cuando-miraba-la-luna.wav,./stim/wavs/peruvian_mismatch_interrogative-partial-wh_Cuando-miraba-la-luna.wav,./stim/wavs/puertorican_mismatch_interrogative-partial-wh_Cuando-miraba-la-luna.wav,,,,,,,,,,,,,,,,,,,,,,,,,,,,,,,,,,,,,,,,,,,,,,,,,,,,,,,,
,,,,,,,midd25,midd,ma,Spain,Northeast,13 or older,yes,2021-03-28_19h53.02.530,empathy_intonation_perc,2020.2.10,MacIntel,60,,,,,,,,,,1,mexican,1,1,2.05421,0,32,32,63,1,64,./stim/wavs/andalusian_mismatch_interrogative-total-yn_Mi-tia-odia-la-lluvia.wav,./stim/wavs/argentine_mismatch_interrogative-total-yn_Mi-tia-odia-la-lluvia.wav,./stim/wavs/castilian_mismatch_interrogative-total-yn_Mi-tia-odia-la-lluvia.wav,./stim/wavs/chilean_mismatch_interrogative-total-yn_Mi-tia-odia-la-lluvia.wav,./stim/wavs/cuban_mismatch_interrogative-total-yn_Mi-tia-odia-la-lluvia.wav,./stim/wavs/mexican_mismatch_interrogative-total-yn_Mi-tia-odia-la-lluvia.wav,./stim/wavs/peruvian_mismatch_interrogative-total-yn_Mi-tia-odia-la-lluvia.wav,./stim/wavs/puertorican_mismatch_interrogative-total-yn_Mi-tia-odia-la-lluvia.wav,,,,,,,,,,,,,,,,,,,,,,,,,,,,,,,,,,,,,,,,,,,,,,,,,,,,,,,,
,,,,,,,midd25,midd,ma,Spain,Northeast,13 or older,yes,2021-03-28_19h53.02.530,empathy_intonation_perc,2020.2.10,MacIntel,60,,,,,,,,,,1,mexican,1,1,1.673575,0,33,33,54,1,55,./stim/wavs/andalusian_mismatch_interrogative-partial-wh_Por-que-venia-del-lago.wav,./stim/wavs/argentine_mismatch_interrogative-partial-wh_Por-que-venia-del-lago.wav,./stim/wavs/castilian_mismatch_interrogative-partial-wh_Por-que-venia-del-lago.wav,./stim/wavs/chilean_mismatch_interrogative-partial-wh_Por-que-venia-del-lago.wav,./stim/wavs/cuban_mismatch_interrogative-partial-wh_Por-que-venia-del-lago.wav,./stim/wavs/mexican_mismatch_interrogative-partial-wh_Por-que-venia-del-lago.wav,./stim/wavs/peruvian_mismatch_interrogative-partial-wh_Por-que-venia-del-lago.wav,./stim/wavs/puertorican_mismatch_interrogative-partial-wh_Por-que-venia-del-lago.wav,,,,,,,,,,,,,,,,,,,,,,,,,,,,,,,,,,,,,,,,,,,,,,,,,,,,,,,,
,,,,,,,midd25,midd,ma,Spain,Northeast,13 or older,yes,2021-03-28_19h53.02.530,empathy_intonation_perc,2020.2.10,MacIntel,60,,,,,,,,,,1,castilian,1,1,2.252385,0,34,34,58,1,59,./stim/wavs/andalusian_mismatch_interrogative-total-yn_El-nino-oye-el-rio.wav,./stim/wavs/argentine_mismatch_interrogative-total-yn_El-nino-oye-el-rio.wav,./stim/wavs/castilian_mismatch_interrogative-total-yn_El-nino-oye-el-rio.wav,./stim/wavs/chilean_mismatch_interrogative-total-yn_El-nino-oye-el-rio.wav,./stim/wavs/cuban_mismatch_interrogative-total-yn_El-nino-oye-el-rio.wav,./stim/wavs/mexican_mismatch_interrogative-total-yn_El-nino-oye-el-rio.wav,./stim/wavs/peruvian_mismatch_interrogative-total-yn_El-nino-oye-el-rio.wav,./stim/wavs/puertorican_mismatch_interrogative-total-yn_El-nino-oye-el-rio.wav,,,,,,,,,,,,,,,,,,,,,,,,,,,,,,,,,,,,,,,,,,,,,,,,,,,,,,,,
,,,,,,,midd25,midd,ma,Spain,Northeast,13 or older,yes,2021-03-28_19h53.02.530,empathy_intonation_perc,2020.2.10,MacIntel,60,,,,,,,,,,1,andalusian,1,1,1.835515,0,35,35,24,1,25,./stim/wavs/andalusian_match_interrogative-total-yn_Ana-lleva-el-abrigo.wav,./stim/wavs/argentine_match_interrogative-total-yn_Ana-lleva-el-abrigo.wav,./stim/wavs/castilian_match_interrogative-total-yn_Ana-lleva-el-abrigo.wav,./stim/wavs/chilean_match_interrogative-total-yn_Ana-lleva-el-abrigo.wav,./stim/wavs/cuban_match_interrogative-total-yn_Ana-lleva-el-abrigo.wav,./stim/wavs/mexican_match_interrogative-total-yn_Ana-lleva-el-abrigo.wav,./stim/wavs/peruvian_match_interrogative-total-yn_Ana-lleva-el-abrigo.wav,./stim/wavs/puertorican_match_interrogative-total-yn_Ana-lleva-el-abrigo.wav,,,,,,,,,,,,,,,,,,,,,,,,,,,,,,,,,,,,,,,,,,,,,,,,,,,,,,,,
,,,,,,,midd25,midd,ma,Spain,Northeast,13 or older,yes,2021-03-28_19h53.02.530,empathy_intonation_perc,2020.2.10,MacIntel,60,,,,,,,,,,0,argentine,0,1,1.417575,0,36,36,0,1,1,./stim/wavs/andalusian_match_declarative-broad-focus_Ana-lleva-el-abrigo.wav,./stim/wavs/argentine_match_declarative-broad-focus_Ana-lleva-el-abrigo.wav,./stim/wavs/castilian_match_declarative-broad-focus_Ana-lleva-el-abrigo.wav,./stim/wavs/chilean_match_declarative-broad-focus_Ana-lleva-el-abrigo.wav,./stim/wavs/cuban_match_declarative-broad-focus_Ana-lleva-el-abrigo.wav,./stim/wavs/mexican_match_declarative-broad-focus_Ana-lleva-el-abrigo.wav,./stim/wavs/peruvian_match_declarative-broad-focus_Ana-lleva-el-abrigo.wav,./stim/wavs/puertorican_match_declarative-broad-focus_Ana-lleva-el-abrigo.wav,,,,,,,,,,,,,,,,,,,,,,,,,,,,,,,,,,,,,,,,,,,,,,,,,,,,,,,,
,,,,,,,midd25,midd,ma,Spain,Northeast,13 or older,yes,2021-03-28_19h53.02.530,empathy_intonation_perc,2020.2.10,MacIntel,60,,,,,,,,,,1,mexican,1,1,1.555205,0,37,37,60,1,61,./stim/wavs/andalusian_mismatch_interrogative-total-yn_La-nina-lava-el-plato.wav,./stim/wavs/argentine_mismatch_interrogative-total-yn_La-nina-lava-el-plato.wav,./stim/wavs/castilian_mismatch_interrogative-total-yn_La-nina-lava-el-plato.wav,./stim/wavs/chilean_mismatch_interrogative-total-yn_La-nina-lava-el-plato.wav,./stim/wavs/cuban_mismatch_interrogative-total-yn_La-nina-lava-el-plato.wav,./stim/wavs/mexican_mismatch_interrogative-total-yn_La-nina-lava-el-plato.wav,./stim/wavs/peruvian_mismatch_interrogative-total-yn_La-nina-lava-el-plato.wav,./stim/wavs/puertorican_mismatch_interrogative-total-yn_La-nina-lava-el-plato.wav,,,,,,,,,,,,,,,,,,,,,,,,,,,,,,,,,,,,,,,,,,,,,,,,,,,,,,,,
,,,,,,,midd25,midd,ma,Spain,Northeast,13 or older,yes,2021-03-28_19h53.02.530,empathy_intonation_perc,2020.2.10,MacIntel,60,,,,,,,,,,0,argentine,0,1,2.00497,0,38,38,35,1,36,./stim/wavs/andalusian_mismatch_declarative-broad-focus_La-maestra-vive-en-Paris.wav,./stim/wavs/argentine_mismatch_declarative-broad-focus_La-maestra-vive-en-Paris.wav,./stim/wavs/castilian_mismatch_declarative-broad-focus_La-maestra-vive-en-Paris.wav,./stim/wavs/chilean_mismatch_declarative-broad-focus_La-maestra-vive-en-Paris.wav,./stim/wavs/cuban_mismatch_declarative-broad-focus_La-maestra-vive-en-Paris.wav,./stim/wavs/mexican_mismatch_declarative-broad-focus_La-maestra-vive-en-Paris.wav,./stim/wavs/peruvian_mismatch_declarative-broad-focus_La-maestra-vive-en-Paris.wav,./stim/wavs/puertorican_mismatch_declarative-broad-focus_La-maestra-vive-en-Paris.wav,,,,,,,,,,,,,,,,,,,,,,,,,,,,,,,,,,,,,,,,,,,,,,,,,,,,,,,,
,,,,,,,midd25,midd,ma,Spain,Northeast,13 or older,yes,2021-03-28_19h53.02.530,empathy_intonation_perc,2020.2.10,MacIntel,60,,,,,,,,,,0,chilean,0,1,1.62049,0,39,39,9,1,10,./stim/wavs/andalusian_match_declarative-narrow-focus_Daniel-iba-a-Bolivia.wav,./stim/wavs/argentine_match_declarative-narrow-focus_Daniel-iba-a-Bolivia.wav,./stim/wavs/castilian_match_declarative-narrow-focus_Daniel-iba-a-Bolivia.wav,./stim/wavs/chilean_match_declarative-narrow-focus_Daniel-iba-a-Bolivia.wav,./stim/wavs/cuban_match_declarative-narrow-focus_Daniel-iba-a-Bolivia.wav,./stim/wavs/mexican_match_declarative-narrow-focus_Daniel-iba-a-Bolivia.wav,./stim/wavs/peruvian_match_declarative-narrow-focus_Daniel-iba-a-Bolivia.wav,./stim/wavs/puertorican_match_declarative-narrow-focus_Daniel-iba-a-Bolivia.wav,,,,,,,,,,,,,,,,,,,,,,,,,,,,,,,,,,,,,,,,,,,,,,,,,,,,,,,,
,,,,,,,midd25,midd,ma,Spain,Northeast,13 or older,yes,2021-03-28_19h53.02.530,empathy_intonation_perc,2020.2.10,MacIntel,60,,,,,,,,,,1,cuban,0,0,2.75064,0,40,40,31,1,32,./stim/wavs/andalusian_match_interrogative-total-yn_Marta-abre-el-regalo.wav,./stim/wavs/argentine_match_interrogative-total-yn_Marta-abre-el-regalo.wav,./stim/wavs/castilian_match_interrogative-total-yn_Marta-abre-el-regalo.wav,./stim/wavs/chilean_match_interrogative-total-yn_Marta-abre-el-regalo.wav,./stim/wavs/cuban_match_interrogative-total-yn_Marta-abre-el-regalo.wav,./stim/wavs/mexican_match_interrogative-total-yn_Marta-abre-el-regalo.wav,./stim/wavs/peruvian_match_interrogative-total-yn_Marta-abre-el-regalo.wav,./stim/wavs/puertorican_match_interrogative-total-yn_Marta-abre-el-regalo.wav,,,,,,,,,,,,,,,,,,,,,,,,,,,,,,,,,,,,,,,,,,,,,,,,,,,,,,,,
,,,,,,,midd25,midd,ma,Spain,Northeast,13 or older,yes,2021-03-28_19h53.02.530,empathy_intonation_perc,2020.2.10,MacIntel,60,,,,,,,,,,0,cuban,0,1,1.800795,0,41,41,4,1,5,./stim/wavs/andalusian_match_declarative-broad-focus_Manuela-vende-el-carro.wav,./stim/wavs/argentine_match_declarative-broad-focus_Manuela-vende-el-carro.wav,./stim/wavs/castilian_match_declarative-broad-focus_Manuela-vende-el-carro.wav,./stim/wavs/chilean_match_declarative-broad-focus_Manuela-vende-el-carro.wav,./stim/wavs/cuban_match_declarative-broad-focus_Manuela-vende-el-carro.wav,./stim/wavs/mexican_match_declarative-broad-focus_Manuela-vende-el-carro.wav,./stim/wavs/peruvian_match_declarative-broad-focus_Manuela-vende-el-carro.wav,./stim/wavs/puertorican_match_declarative-broad-focus_Manuela-vende-el-carro.wav,,,,,,,,,,,,,,,,,,,,,,,,,,,,,,,,,,,,,,,,,,,,,,,,,,,,,,,,
,,,,,,,midd25,midd,ma,Spain,Northeast,13 or older,yes,2021-03-28_19h53.02.530,empathy_intonation_perc,2020.2.10,MacIntel,60,,,,,,,,,,1,castilian,1,1,1.592605,0,42,42,25,1,26,./stim/wavs/andalusian_match_interrogative-total-yn_Daniel-iba-a-Bolivia.wav,./stim/wavs/argentine_match_interrogative-total-yn_Daniel-iba-a-Bolivia.wav,./stim/wavs/castilian_match_interrogative-total-yn_Daniel-iba-a-Bolivia.wav,./stim/wavs/chilean_match_interrogative-total-yn_Daniel-iba-a-Bolivia.wav,./stim/wavs/cuban_match_interrogative-total-yn_Daniel-iba-a-Bolivia.wav,./stim/wavs/mexican_match_interrogative-total-yn_Daniel-iba-a-Bolivia.wav,./stim/wavs/peruvian_match_interrogative-total-yn_Daniel-iba-a-Bolivia.wav,./stim/wavs/puertorican_match_interrogative-total-yn_Daniel-iba-a-Bolivia.wav,,,,,,,,,,,,,,,,,,,,,,,,,,,,,,,,,,,,,,,,,,,,,,,,,,,,,,,,
,,,,,,,midd25,midd,ma,Spain,Northeast,13 or older,yes,2021-03-28_19h53.02.530,empathy_intonation_perc,2020.2.10,MacIntel,60,,,,,,,,,,0,argentine,0,1,1.848625,0,43,43,39,1,40,./stim/wavs/andalusian_mismatch_declarative-broad-focus_Mi-tia-odia-la-lluvia.wav,./stim/wavs/argentine_mismatch_declarative-broad-focus_Mi-tia-odia-la-lluvia.wav,./stim/wavs/castilian_mismatch_declarative-broad-focus_Mi-tia-odia-la-lluvia.wav,./stim/wavs/chilean_mismatch_declarative-broad-focus_Mi-tia-odia-la-lluvia.wav,./stim/wavs/cuban_mismatch_declarative-broad-focus_Mi-tia-odia-la-lluvia.wav,./stim/wavs/mexican_mismatch_declarative-broad-focus_Mi-tia-odia-la-lluvia.wav,./stim/wavs/peruvian_mismatch_declarative-broad-focus_Mi-tia-odia-la-lluvia.wav,./stim/wavs/puertorican_mismatch_declarative-broad-focus_Mi-tia-odia-la-lluvia.wav,,,,,,,,,,,,,,,,,,,,,,,,,,,,,,,,,,,,,,,,,,,,,,,,,,,,,,,,
,,,,,,,midd25,midd,ma,Spain,Northeast,13 or older,yes,2021-03-28_19h53.02.530,empathy_intonation_perc,2020.2.10,MacIntel,60,,,,,,,,,,1,mexican,1,1,1.469345,0,44,44,55,1,56,./stim/wavs/andalusian_mismatch_interrogative-partial-wh_Por-que-vivia-en-Paris.wav,./stim/wavs/argentine_mismatch_interrogative-partial-wh_Por-que-vivia-en-Paris.wav,./stim/wavs/castilian_mismatch_interrogative-partial-wh_Por-que-vivia-en-Paris.wav,./stim/wavs/chilean_mismatch_interrogative-partial-wh_Por-que-vivia-en-Paris.wav,./stim/wavs/cuban_mismatch_interrogative-partial-wh_Por-que-vivia-en-Paris.wav,./stim/wavs/mexican_mismatch_interrogative-partial-wh_Por-que-vivia-en-Paris.wav,./stim/wavs/peruvian_mismatch_interrogative-partial-wh_Por-que-vivia-en-Paris.wav,./stim/wavs/puertorican_mismatch_interrogative-partial-wh_Por-que-vivia-en-Paris.wav,,,,,,,,,,,,,,,,,,,,,,,,,,,,,,,,,,,,,,,,,,,,,,,,,,,,,,,,
,,,,,,,midd25,midd,ma,Spain,Northeast,13 or older,yes,2021-03-28_19h53.02.530,empathy_intonation_perc,2020.2.10,MacIntel,60,,,,,,,,,,0,puertorican,0,1,1.952805,0,45,45,6,1,7,./stim/wavs/andalusian_match_declarative-broad-focus_Mariano-habla-del-tiempo.wav,./stim/wavs/argentine_match_declarative-broad-focus_Mariano-habla-del-tiempo.wav,./stim/wavs/castilian_match_declarative-broad-focus_Mariano-habla-del-tiempo.wav,./stim/wavs/chilean_match_declarative-broad-focus_Mariano-habla-del-tiempo.wav,./stim/wavs/cuban_match_declarative-broad-focus_Mariano-habla-del-tiempo.wav,./stim/wavs/mexican_match_declarative-broad-focus_Mariano-habla-del-tiempo.wav,./stim/wavs/peruvian_match_declarative-broad-focus_Mariano-habla-del-tiempo.wav,./stim/wavs/puertorican_match_declarative-broad-focus_Mariano-habla-del-tiempo.wav,,,,,,,,,,,,,,,,,,,,,,,,,,,,,,,,,,,,,,,,,,,,,,,,,,,,,,,,
,,,,,,,midd25,midd,ma,Spain,Northeast,13 or older,yes,2021-03-28_19h53.02.530,empathy_intonation_perc,2020.2.10,MacIntel,60,,,,,,,,,,1,andalusian,1,1,1.66712,0,46,46,62,1,63,./stim/wavs/andalusian_mismatch_interrogative-total-yn_Mi-novio-viene-del-lago.wav,./stim/wavs/argentine_mismatch_interrogative-total-yn_Mi-novio-viene-del-lago.wav,./stim/wavs/castilian_mismatch_interrogative-total-yn_Mi-novio-viene-del-lago.wav,./stim/wavs/chilean_mismatch_interrogative-total-yn_Mi-novio-viene-del-lago.wav,./stim/wavs/cuban_mismatch_interrogative-total-yn_Mi-novio-viene-del-lago.wav,./stim/wavs/mexican_mismatch_interrogative-total-yn_Mi-novio-viene-del-lago.wav,./stim/wavs/peruvian_mismatch_interrogative-total-yn_Mi-novio-viene-del-lago.wav,./stim/wavs/puertorican_mismatch_interrogative-total-yn_Mi-novio-viene-del-lago.wav,,,,,,,,,,,,,,,,,,,,,,,,,,,,,,,,,,,,,,,,,,,,,,,,,,,,,,,,
,,,,,,,midd25,midd,ma,Spain,Northeast,13 or older,yes,2021-03-28_19h53.02.530,empathy_intonation_perc,2020.2.10,MacIntel,60,,,,,,,,,,0,peruvian,0,1,1.748475,0,47,47,37,1,38,./stim/wavs/andalusian_mismatch_declarative-broad-focus_Mi-madre-come-la-fruta.wav,./stim/wavs/argentine_mismatch_declarative-broad-focus_Mi-madre-come-la-fruta.wav,./stim/wavs/castilian_mismatch_declarative-broad-focus_Mi-madre-come-la-fruta.wav,./stim/wavs/chilean_mismatch_declarative-broad-focus_Mi-madre-come-la-fruta.wav,./stim/wavs/cuban_mismatch_declarative-broad-focus_Mi-madre-come-la-fruta.wav,./stim/wavs/mexican_mismatch_declarative-broad-focus_Mi-madre-come-la-fruta.wav,./stim/wavs/peruvian_mismatch_declarative-broad-focus_Mi-madre-come-la-fruta.wav,./stim/wavs/puertorican_mismatch_declarative-broad-focus_Mi-madre-come-la-fruta.wav,,,,,,,,,,,,,,,,,,,,,,,,,,,,,,,,,,,,,,,,,,,,,,,,,,,,,,,,
,,,,,,,midd25,midd,ma,Spain,Northeast,13 or older,yes,2021-03-28_19h53.02.530,empathy_intonation_perc,2020.2.10,MacIntel,60,,,,,,,,,,0,mexican,0,1,1.58898,0,48,48,5,1,6,./stim/wavs/andalusian_match_declarative-broad-focus_Maria-bebe-el-vino.wav,./stim/wavs/argentine_match_declarative-broad-focus_Maria-bebe-el-vino.wav,./stim/wavs/castilian_match_declarative-broad-focus_Maria-bebe-el-vino.wav,./stim/wavs/chilean_match_declarative-broad-focus_Maria-bebe-el-vino.wav,./stim/wavs/cuban_match_declarative-broad-focus_Maria-bebe-el-vino.wav,./stim/wavs/mexican_match_declarative-broad-focus_Maria-bebe-el-vino.wav,./stim/wavs/peruvian_match_declarative-broad-focus_Maria-bebe-el-vino.wav,./stim/wavs/puertorican_match_declarative-broad-focus_Maria-bebe-el-vino.wav,,,,,,,,,,,,,,,,,,,,,,,,,,,,,,,,,,,,,,,,,,,,,,,,,,,,,,,,
,,,,,,,midd25,midd,ma,Spain,Northeast,13 or older,yes,2021-03-28_19h53.02.530,empathy_intonation_perc,2020.2.10,MacIntel,60,,,,,,,,,,1,andalusian,1,1,1.75515,0,49,49,61,1,62,./stim/wavs/andalusian_mismatch_interrogative-total-yn_Mi-madre-come-la-fruta.wav,./stim/wavs/argentine_mismatch_interrogative-total-yn_Mi-madre-come-la-fruta.wav,./stim/wavs/castilian_mismatch_interrogative-total-yn_Mi-madre-come-la-fruta.wav,./stim/wavs/chilean_mismatch_interrogative-total-yn_Mi-madre-come-la-fruta.wav,./stim/wavs/cuban_mismatch_interrogative-total-yn_Mi-madre-come-la-fruta.wav,./stim/wavs/mexican_mismatch_interrogative-total-yn_Mi-madre-come-la-fruta.wav,./stim/wavs/peruvian_mismatch_interrogative-total-yn_Mi-madre-come-la-fruta.wav,./stim/wavs/puertorican_mismatch_interrogative-total-yn_Mi-madre-come-la-fruta.wav,,,,,,,,,,,,,,,,,,,,,,,,,,,,,,,,,,,,,,,,,,,,,,,,,,,,,,,,
,,,,,,,midd25,midd,ma,Spain,Northeast,13 or older,yes,2021-03-28_19h53.02.530,empathy_intonation_perc,2020.2.10,MacIntel,60,,,,,,,,,,0,peruvian,0,1,1.85198,0,50,50,1,1,2,./stim/wavs/andalusian_match_declarative-broad-focus_Daniel-iba-a-Bolivia.wav,./stim/wavs/argentine_match_declarative-broad-focus_Daniel-iba-a-Bolivia.wav,./stim/wavs/castilian_match_declarative-broad-focus_Daniel-iba-a-Bolivia.wav,./stim/wavs/chilean_match_declarative-broad-focus_Daniel-iba-a-Bolivia.wav,./stim/wavs/cuban_match_declarative-broad-focus_Daniel-iba-a-Bolivia.wav,./stim/wavs/mexican_match_declarative-broad-focus_Daniel-iba-a-Bolivia.wav,./stim/wavs/peruvian_match_declarative-broad-focus_Daniel-iba-a-Bolivia.wav,./stim/wavs/puertorican_match_declarative-broad-focus_Daniel-iba-a-Bolivia.wav,,,,,,,,,,,,,,,,,,,,,,,,,,,,,,,,,,,,,,,,,,,,,,,,,,,,,,,,
,,,,,,,midd25,midd,ma,Spain,Northeast,13 or older,yes,2021-03-28_19h53.02.530,empathy_intonation_perc,2020.2.10,MacIntel,60,,,,,,,,,,0,peruvian,0,1,1.777255,0,51,51,14,1,15,./stim/wavs/andalusian_match_declarative-narrow-focus_Mariano-habla-del-tiempo.wav,./stim/wavs/argentine_match_declarative-narrow-focus_Mariano-habla-del-tiempo.wav,./stim/wavs/castilian_match_declarative-narrow-focus_Mariano-habla-del-tiempo.wav,./stim/wavs/chilean_match_declarative-narrow-focus_Mariano-habla-del-tiempo.wav,./stim/wavs/cuban_match_declarative-narrow-focus_Mariano-habla-del-tiempo.wav,./stim/wavs/mexican_match_declarative-narrow-focus_Mariano-habla-del-tiempo.wav,./stim/wavs/peruvian_match_declarative-narrow-focus_Mariano-habla-del-tiempo.wav,./stim/wavs/puertorican_match_declarative-narrow-focus_Mariano-habla-del-tiempo.wav,,,,,,,,,,,,,,,,,,,,,,,,,,,,,,,,,,,,,,,,,,,,,,,,,,,,,,,,
,,,,,,,midd25,midd,ma,Spain,Northeast,13 or older,yes,2021-03-28_19h53.02.530,empathy_intonation_perc,2020.2.10,MacIntel,60,,,,,,,,,,0,argentine,0,1,1.510325,0,52,52,8,1,9,./stim/wavs/andalusian_match_declarative-narrow-focus_Ana-lleva-el-abrigo.wav,./stim/wavs/argentine_match_declarative-narrow-focus_Ana-lleva-el-abrigo.wav,./stim/wavs/castilian_match_declarative-narrow-focus_Ana-lleva-el-abrigo.wav,./stim/wavs/chilean_match_declarative-narrow-focus_Ana-lleva-el-abrigo.wav,./stim/wavs/cuban_match_declarative-narrow-focus_Ana-lleva-el-abrigo.wav,./stim/wavs/mexican_match_declarative-narrow-focus_Ana-lleva-el-abrigo.wav,./stim/wavs/peruvian_match_declarative-narrow-focus_Ana-lleva-el-abrigo.wav,./stim/wavs/puertorican_match_declarative-narrow-focus_Ana-lleva-el-abrigo.wav,,,,,,,,,,,,,,,,,,,,,,,,,,,,,,,,,,,,,,,,,,,,,,,,,,,,,,,,
,,,,,,,midd25,midd,ma,Spain,Northeast,13 or older,yes,2021-03-28_19h53.02.530,empathy_intonation_perc,2020.2.10,MacIntel,60,,,,,,,,,,1,argentine,1,1,1.786875,0,53,53,29,1,30,./stim/wavs/andalusian_match_interrogative-total-yn_Maria-bebe-el-vino.wav,./stim/wavs/argentine_match_interrogative-total-yn_Maria-bebe-el-vino.wav,./stim/wavs/castilian_match_interrogative-total-yn_Maria-bebe-el-vino.wav,./stim/wavs/chilean_match_interrogative-total-yn_Maria-bebe-el-vino.wav,./stim/wavs/cuban_match_interrogative-total-yn_Maria-bebe-el-vino.wav,./stim/wavs/mexican_match_interrogative-total-yn_Maria-bebe-el-vino.wav,./stim/wavs/peruvian_match_interrogative-total-yn_Maria-bebe-el-vino.wav,./stim/wavs/puertorican_match_interrogative-total-yn_Maria-bebe-el-vino.wav,,,,,,,,,,,,,,,,,,,,,,,,,,,,,,,,,,,,,,,,,,,,,,,,,,,,,,,,
,,,,,,,midd25,midd,ma,Spain,Northeast,13 or older,yes,2021-03-28_19h53.02.530,empathy_intonation_perc,2020.2.10,MacIntel,60,,,,,,,,,,0,andalusian,0,1,1.577955,0,54,54,40,1,41,./stim/wavs/andalusian_mismatch_declarative-narrow-focus_El-bebe-comia-muy-bien.wav,./stim/wavs/argentine_mismatch_declarative-narrow-focus_El-bebe-comia-muy-bien.wav,./stim/wavs/castilian_mismatch_declarative-narrow-focus_El-bebe-comia-muy-bien.wav,./stim/wavs/chilean_mismatch_declarative-narrow-focus_El-bebe-comia-muy-bien.wav,./stim/wavs/cuban_mismatch_declarative-narrow-focus_El-bebe-comia-muy-bien.wav,./stim/wavs/mexican_mismatch_declarative-narrow-focus_El-bebe-comia-muy-bien.wav,./stim/wavs/peruvian_mismatch_declarative-narrow-focus_El-bebe-comia-muy-bien.wav,./stim/wavs/puertorican_mismatch_declarative-narrow-focus_El-bebe-comia-muy-bien.wav,,,,,,,,,,,,,,,,,,,,,,,,,,,,,,,,,,,,,,,,,,,,,,,,,,,,,,,,
,,,,,,,midd25,midd,ma,Spain,Northeast,13 or older,yes,2021-03-28_19h53.02.530,empathy_intonation_perc,2020.2.10,MacIntel,60,,,,,,,,,,1,cuban,1,1,1.511205,0,55,55,16,1,17,./stim/wavs/andalusian_match_interrogative-partial-wh_Cuando-bebia-el-vino.wav,./stim/wavs/argentine_match_interrogative-partial-wh_Cuando-bebia-el-vino.wav,./stim/wavs/castilian_match_interrogative-partial-wh_Cuando-bebia-el-vino.wav,./stim/wavs/chilean_match_interrogative-partial-wh_Cuando-bebia-el-vino.wav,./stim/wavs/cuban_match_interrogative-partial-wh_Cuando-bebia-el-vino.wav,./stim/wavs/mexican_match_interrogative-partial-wh_Cuando-bebia-el-vino.wav,./stim/wavs/peruvian_match_interrogative-partial-wh_Cuando-bebia-el-vino.wav,./stim/wavs/puertorican_match_interrogative-partial-wh_Cuando-bebia-el-vino.wav,,,,,,,,,,,,,,,,,,,,,,,,,,,,,,,,,,,,,,,,,,,,,,,,,,,,,,,,
,,,,,,,midd25,midd,ma,Spain,Northeast,13 or older,yes,2021-03-28_19h53.02.530,empathy_intonation_perc,2020.2.10,MacIntel,60,,,,,,,,,,1,chilean,1,1,1.700055,0,56,56,53,1,54,./stim/wavs/andalusian_mismatch_interrogative-partial-wh_Por-que-oia-el-rio.wav,./stim/wavs/argentine_mismatch_interrogative-partial-wh_Por-que-oia-el-rio.wav,./stim/wavs/castilian_mismatch_interrogative-partial-wh_Por-que-oia-el-rio.wav,./stim/wavs/chilean_mismatch_interrogative-partial-wh_Por-que-oia-el-rio.wav,./stim/wavs/cuban_mismatch_interrogative-partial-wh_Por-que-oia-el-rio.wav,./stim/wavs/mexican_mismatch_interrogative-partial-wh_Por-que-oia-el-rio.wav,./stim/wavs/peruvian_mismatch_interrogative-partial-wh_Por-que-oia-el-rio.wav,./stim/wavs/puertorican_mismatch_interrogative-partial-wh_Por-que-oia-el-rio.wav,,,,,,,,,,,,,,,,,,,,,,,,,,,,,,,,,,,,,,,,,,,,,,,,,,,,,,,,
,,,,,,,midd25,midd,ma,Spain,Northeast,13 or older,yes,2021-03-28_19h53.02.530,empathy_intonation_perc,2020.2.10,MacIntel,60,,,,,,,,,,0,argentine,0,1,1.72186,0,57,57,15,1,16,./stim/wavs/andalusian_match_declarative-narrow-focus_Marta-abre-el-regalo.wav,./stim/wavs/argentine_match_declarative-narrow-focus_Marta-abre-el-regalo.wav,./stim/wavs/castilian_match_declarative-narrow-focus_Marta-abre-el-regalo.wav,./stim/wavs/chilean_match_declarative-narrow-focus_Marta-abre-el-regalo.wav,./stim/wavs/cuban_match_declarative-narrow-focus_Marta-abre-el-regalo.wav,./stim/wavs/mexican_match_declarative-narrow-focus_Marta-abre-el-regalo.wav,./stim/wavs/peruvian_match_declarative-narrow-focus_Marta-abre-el-regalo.wav,./stim/wavs/puertorican_match_declarative-narrow-focus_Marta-abre-el-regalo.wav,,,,,,,,,,,,,,,,,,,,,,,,,,,,,,,,,,,,,,,,,,,,,,,,,,,,,,,,
,,,,,,,midd25,midd,ma,Spain,Northeast,13 or older,yes,2021-03-28_19h53.02.530,empathy_intonation_perc,2020.2.10,MacIntel,60,,,,,,,,,,0,castilian,0,1,1.91942,0,58,58,2,1,3,./stim/wavs/andalusian_match_declarative-broad-focus_David-leia-el-libro.wav,./stim/wavs/argentine_match_declarative-broad-focus_David-leia-el-libro.wav,./stim/wavs/castilian_match_declarative-broad-focus_David-leia-el-libro.wav,./stim/wavs/chilean_match_declarative-broad-focus_David-leia-el-libro.wav,./stim/wavs/cuban_match_declarative-broad-focus_David-leia-el-libro.wav,./stim/wavs/mexican_match_declarative-broad-focus_David-leia-el-libro.wav,./stim/wavs/peruvian_match_declarative-broad-focus_David-leia-el-libro.wav,./stim/wavs/puertorican_match_declarative-broad-focus_David-leia-el-libro.wav,,,,,,,,,,,,,,,,,,,,,,,,,,,,,,,,,,,,,,,,,,,,,,,,,,,,,,,,
,,,,,,,midd25,midd,ma,Spain,Northeast,13 or older,yes,2021-03-28_19h53.02.530,empathy_intonation_perc,2020.2.10,MacIntel,60,,,,,,,,,,1,mexican,1,1,1.70227,0,59,59,51,1,52,./stim/wavs/andalusian_mismatch_interrogative-partial-wh_Por-que-desayuna-muy-bien.wav,./stim/wavs/argentine_mismatch_interrogative-partial-wh_Por-que-desayuna-muy-bien.wav,./stim/wavs/castilian_mismatch_interrogative-partial-wh_Por-que-desayuna-muy-bien.wav,./stim/wavs/chilean_mismatch_interrogative-partial-wh_Por-que-desayuna-muy-bien.wav,./stim/wavs/cuban_mismatch_interrogative-partial-wh_Por-que-desayuna-muy-bien.wav,./stim/wavs/mexican_mismatch_interrogative-partial-wh_Por-que-desayuna-muy-bien.wav,./stim/wavs/peruvian_mismatch_interrogative-partial-wh_Por-que-desayuna-muy-bien.wav,./stim/wavs/puertorican_mismatch_interrogative-partial-wh_Por-que-desayuna-muy-bien.wav,,,,,,,,,,,,,,,,,,,,,,,,,,,,,,,,,,,,,,,,,,,,,,,,,,,,,,,,
,,,,,,,midd25,midd,ma,Spain,Northeast,13 or older,yes,2021-03-28_19h53.02.530,empathy_intonation_perc,2020.2.10,MacIntel,60,,,,,,,,,,1,cuban,1,1,3.087985,0,60,60,56,1,57,./stim/wavs/andalusian_mismatch_interrogative-total-yn_El-bebe-comia-muy-bien.wav,./stim/wavs/argentine_mismatch_interrogative-total-yn_El-bebe-comia-muy-bien.wav,./stim/wavs/castilian_mismatch_interrogative-total-yn_El-bebe-comia-muy-bien.wav,./stim/wavs/chilean_mismatch_interrogative-total-yn_El-bebe-comia-muy-bien.wav,./stim/wavs/cuban_mismatch_interrogative-total-yn_El-bebe-comia-muy-bien.wav,./stim/wavs/mexican_mismatch_interrogative-total-yn_El-bebe-comia-muy-bien.wav,./stim/wavs/peruvian_mismatch_interrogative-total-yn_El-bebe-comia-muy-bien.wav,./stim/wavs/puertorican_mismatch_interrogative-total-yn_El-bebe-comia-muy-bien.wav,,,,,,,,,,,,,,,,,,,,,,,,,,,,,,,,,,,,,,,,,,,,,,,,,,,,,,,,
,,,,,,,midd25,midd,ma,Spain,Northeast,13 or older,yes,2021-03-28_19h53.02.530,empathy_intonation_perc,2020.2.10,MacIntel,60,,,,,,,,,,0,mexican,0,1,1.600795,0,61,61,36,1,37,./stim/wavs/andalusian_mismatch_declarative-broad-focus_La-nina-lava-el-plato.wav,./stim/wavs/argentine_mismatch_declarative-broad-focus_La-nina-lava-el-plato.wav,./stim/wavs/castilian_mismatch_declarative-broad-focus_La-nina-lava-el-plato.wav,./stim/wavs/chilean_mismatch_declarative-broad-focus_La-nina-lava-el-plato.wav,./stim/wavs/cuban_mismatch_declarative-broad-focus_La-nina-lava-el-plato.wav,./stim/wavs/mexican_mismatch_declarative-broad-focus_La-nina-lava-el-plato.wav,./stim/wavs/peruvian_mismatch_declarative-broad-focus_La-nina-lava-el-plato.wav,./stim/wavs/puertorican_mismatch_declarative-broad-focus_La-nina-lava-el-plato.wav,,,,,,,,,,,,,,,,,,,,,,,,,,,,,,,,,,,,,,,,,,,,,,,,,,,,,,,,
,,,,,,,midd25,midd,ma,Spain,Northeast,13 or older,yes,2021-03-28_19h53.02.530,empathy_intonation_perc,2020.2.10,MacIntel,60,,,,,,,,,,0,puertorican,0,1,1.600045,0,62,62,38,1,39,./stim/wavs/andalusian_mismatch_declarative-broad-focus_Mi-novio-viene-del-lago.wav,./stim/wavs/argentine_mismatch_declarative-broad-focus_Mi-novio-viene-del-lago.wav,./stim/wavs/castilian_mismatch_declarative-broad-focus_Mi-novio-viene-del-lago.wav,./stim/wavs/chilean_mismatch_declarative-broad-focus_Mi-novio-viene-del-lago.wav,./stim/wavs/cuban_mismatch_declarative-broad-focus_Mi-novio-viene-del-lago.wav,./stim/wavs/mexican_mismatch_declarative-broad-focus_Mi-novio-viene-del-lago.wav,./stim/wavs/peruvian_mismatch_declarative-broad-focus_Mi-novio-viene-del-lago.wav,./stim/wavs/puertorican_mismatch_declarative-broad-focus_Mi-novio-viene-del-lago.wav,,,,,,,,,,,,,,,,,,,,,,,,,,,,,,,,,,,,,,,,,,,,,,,,,,,,,,,,
,,,,,,,midd25,midd,ma,Spain,Northeast,13 or older,yes,2021-03-28_19h53.02.530,empathy_intonation_perc,2020.2.10,MacIntel,60,,,,,,,,,,0,chilean,0,1,2.233305,0,63,63,47,1,48,./stim/wavs/andalusian_mismatch_declarative-narrow-focus_Mi-tia-odia-la-lluvia.wav,./stim/wavs/argentine_mismatch_declarative-narrow-focus_Mi-tia-odia-la-lluvia.wav,./stim/wavs/castilian_mismatch_declarative-narrow-focus_Mi-tia-odia-la-lluvia.wav,./stim/wavs/chilean_mismatch_declarative-narrow-focus_Mi-tia-odia-la-lluvia.wav,./stim/wavs/cuban_mismatch_declarative-narrow-focus_Mi-tia-odia-la-lluvia.wav,./stim/wavs/mexican_mismatch_declarative-narrow-focus_Mi-tia-odia-la-lluvia.wav,./stim/wavs/peruvian_mismatch_declarative-narrow-focus_Mi-tia-odia-la-lluvia.wav,./stim/wavs/puertorican_mismatch_declarative-narrow-focus_Mi-tia-odia-la-lluvia.wav,,,,,,,,,,,,,,,,,,,,,,,,,,,,,,,,,,,,,,,,,,,,,,,,,,,,,,,,
,,,,,,,midd25,midd,ma,Spain,Northeast,13 or older,yes,2021-03-28_19h53.02.530,empathy_intonation_perc,2020.2.10,MacIntel,60,,,,,,,,,,,,,,,,,,,,,,,,,,,,,h,1,5.261695,0,0,0,0,1,,,,,,,,,,,,,,,,,,,,,,,,,,,,,,,,,,,,,,,,,,,,,,,,
,,,,,"Great! Now we will move on. The next task consists of about 60 trials, in each of which you will see a string of letters. 
  
  Your task is to decide whether this is a real Spanish word or not.",(press the spacebar to continue),midd25,midd,ma,Spain,Northeast,13 or older,yes,2021-03-28_19h53.02.530,empathy_intonation_perc,2020.2.10,MacIntel,60,,,,,,,,,,,,,,,,,,,,,,,,,,,,,,,,,,,,,0,0,0,0,1,,,,,,,,,,,,,,,,,,,,,,,,,,,,,,,,,,,,,,,,,,,
,,,,,"If you think it is an existing Spanish word, you type '1' (for 'REAL'), and if you think it is not an existing Spanish word, you type '0' (for 'FAKE').",(press the spacebar to continue),midd25,midd,ma,Spain,Northeast,13 or older,yes,2021-03-28_19h53.02.530,empathy_intonation_perc,2020.2.10,MacIntel,60,,,,,,,,,,,,,,,,,,,,,,,,,,,,,,,,,,,,,0,1,1,1,1,,,,,,,,,,,,,,,,,,,,,,,,,,,,,,,,,,,,,,,,,,,
,,,,,"If you are sure that the word exists, even though you dont know its exact meaning, you may still respond '1' (REAL). 
  
  But if you are not sure if it is an existing word, you should respond '0' (FAKE).
  
  Let's do a practice round...",(press the spacebar to continue),midd25,midd,ma,Spain,Northeast,13 or older,yes,2021-03-28_19h53.02.530,empathy_intonation_perc,2020.2.10,MacIntel,60,,,,,,,,,,,,,,,,,,,,,,,,,,,,,,,,,,,,,0,2,2,2,1,,,,,,,,,,,,,,,,,,,,,,,,,,,,,,,,,,,,,,,,,,,
,,,,,,,midd25,midd,ma,Spain,Northeast,13 or older,yes,2021-03-28_19h53.02.530,empathy_intonation_perc,2020.2.10,MacIntel,60,,,,,,,,,,0,,,,,,,,,,,,,,,,,,,,,,,,,,,,,,,,0,1,11.01525,0,0,0,0,1,0,depiste,REAL,FAKE,,,,,,,,,,,,,,,,,,,,,,,,,,,,,,,
,,,,,,,midd25,midd,ma,Spain,Northeast,13 or older,yes,2021-03-28_19h53.02.530,empathy_intonation_perc,2020.2.10,MacIntel,60,,,,,,,,,,1,,,,,,,,,,,,,,,,,,,,,,,,,,,,,,,,1,1,1.363015,0,1,1,1,1,0,s,REAL,FAKE,,,,,,,,,,,,,,,,,,,,,,,,,,,,,,,
,,,,,,,midd25,midd,ma,Spain,Northeast,13 or older,yes,2021-03-28_19h53.02.530,empathy_intonation_perc,2020.2.10,MacIntel,60,,,,,,,,,,0,,,,,,,,,,,,,,,,,,,,,,,,,,,,,,,,0,1,1.559915,0,2,2,2,1,0,con,REAL,FAKE,,,,,,,,,,,,,,,,,,,,,,,,,,,,,,,
,,,,,,,midd25,midd,ma,Spain,Northeast,13 or older,yes,2021-03-28_19h53.02.530,empathy_intonation_perc,2020.2.10,MacIntel,60,,,,,,,,,,0,,,,,,,,,,,,,,,,,,,,,,,,,,,,,,,,1,0,3.202215,0,3,3,3,1,0,calpar,REAL,FAKE,,,,,,,,,,,,,,,,,,,,,,,,,,,,,,,
,,,,,,,midd25,midd,ma,Spain,Northeast,13 or older,yes,2021-03-28_19h53.02.530,empathy_intonation_perc,2020.2.10,MacIntel,60,,,,,,,,,,0,,,,,,,,,,,,,,,,,,,,,,,,,,,,,,,,0,1,1.081825,0,4,4,4,1,0,joten,REAL,FAKE,,,,,,,,,,,,,,,,,,,,,,,,,,,,,,,
,,,,,,,midd25,midd,ma,Spain,Northeast,13 or older,yes,2021-03-28_19h53.02.530,empathy_intonation_perc,2020.2.10,MacIntel,60,,,,,,,,,,1,,,,,,,,,,,,,,,,,,,,,,,,,,,,,,,,1,1,1.366865,0,5,5,5,1,0,sacapuntas,REAL,FAKE,,,,,,,,,,,,,,,,,,,,,,,,,,,,,,,
,,,,,,,midd25,midd,ma,Spain,Northeast,13 or older,yes,2021-03-28_19h53.02.530,empathy_intonation_perc,2020.2.10,MacIntel,60,,,,,,,,,,0,,,,,,,,,,,,,,,,,,,,,,,,,,,,,,,,0,1,1.597715,0,6,6,6,1,0,priba,REAL,FAKE,,,,,,,,,,,,,,,,,,,,,,,,,,,,,,,
,,,,,,,midd25,midd,ma,Spain,Northeast,13 or older,yes,2021-03-28_19h53.02.530,empathy_intonation_perc,2020.2.10,MacIntel,60,,,,,,,,,,0,,,,,,,,,,,,,,,,,,,,,,,,,,,,,,,,0,1,1.499845,0,7,7,7,1,0,pelasula,REAL,FAKE,,,,,,,,,,,,,,,,,,,,,,,,,,,,,,,
,,,,,,,midd25,midd,ma,Spain,Northeast,13 or older,yes,2021-03-28_19h53.02.530,empathy_intonation_perc,2020.2.10,MacIntel,60,,,,,,,,,,1,,,,,,,,,,,,,,,,,,,,,,,,,,,,,,,,1,1,0.759165,0,8,8,8,1,0,bien,REAL,FAKE,,,,,,,,,,,,,,,,,,,,,,,,,,,,,,,
,,,,,,,midd25,midd,ma,Spain,Northeast,13 or older,yes,2021-03-28_19h53.02.530,empathy_intonation_perc,2020.2.10,MacIntel,60,,,,,,,,,,1,,,,,,,,,,,,,,,,,,,,,,,,,,,,,,,,1,1,0.82474,0,9,9,9,1,0,casa,REAL,FAKE,,,,,,,,,,,,,,,,,,,,,,,,,,,,,,,
,,,,,,,midd25,midd,ma,Spain,Northeast,13 or older,yes,2021-03-28_19h53.02.530,empathy_intonation_perc,2020.2.10,MacIntel,60,,,,,,,,,,0,,,,,,,,,,,,,,,,,,,,,,,,,,,,,,,,0,1,1.57339,0,10,10,10,1,0,lejo,REAL,FAKE,,,,,,,,,,,,,,,,,,,,,,,,,,,,,,,
,,,,,,,midd25,midd,ma,Spain,Northeast,13 or older,yes,2021-03-28_19h53.02.530,empathy_intonation_perc,2020.2.10,MacIntel,60,,,,,,,,,,0,,,,,,,,,,,,,,,,,,,,,,,,,,,,,,,,0,1,0.97468,0,11,11,11,1,0,pretantas,REAL,FAKE,,,,,,,,,,,,,,,,,,,,,,,,,,,,,,,
,,,,,,,midd25,midd,ma,Spain,Northeast,13 or older,yes,2021-03-28_19h53.02.530,empathy_intonation_perc,2020.2.10,MacIntel,60,,,,,,,,,,0,,,,,,,,,,,,,,,,,,,,,,,,,,,,,,,,,,,,,,,,21,capillo,,,0,1,2.98361,0,0,0,20,1,REAL,FAKE,,,,,,,,,,,,,,,,,,,,,
,,,,,,,midd25,midd,ma,Spain,Northeast,13 or older,yes,2021-03-28_19h53.02.530,empathy_intonation_perc,2020.2.10,MacIntel,60,,,,,,,,,,0,,,,,,,,,,,,,,,,,,,,,,,,,,,,,,,,,,,,,,,,66,hacido,,,0,1,1.44916,0,1,1,65,1,REAL,FAKE,,,,,,,,,,,,,,,,,,,,,
,,,,,,,midd25,midd,ma,Spain,Northeast,13 or older,yes,2021-03-28_19h53.02.530,empathy_intonation_perc,2020.2.10,MacIntel,60,,,,,,,,,,1,,,,,,,,,,,,,,,,,,,,,,,,,,,,,,,,,,,,,,,,51,candado,,,1,1,2.141815,0,2,2,50,1,REAL,FAKE,,,,,,,,,,,,,,,,,,,,,
,,,,,,,midd25,midd,ma,Spain,Northeast,13 or older,yes,2021-03-28_19h53.02.530,empathy_intonation_perc,2020.2.10,MacIntel,60,,,,,,,,,,1,,,,,,,,,,,,,,,,,,,,,,,,,,,,,,,,,,,,,,,,60,matar,,,1,1,1.30784,0,3,3,59,1,REAL,FAKE,,,,,,,,,,,,,,,,,,,,,
,,,,,,,midd25,midd,ma,Spain,Northeast,13 or older,yes,2021-03-28_19h53.02.530,empathy_intonation_perc,2020.2.10,MacIntel,60,,,,,,,,,,0,,,,,,,,,,,,,,,,,,,,,,,,,,,,,,,,,,,,,,,,50,flamida,,,0,1,1.082665,0,4,4,49,1,REAL,FAKE,,,,,,,,,,,,,,,,,,,,,
,,,,,,,midd25,midd,ma,Spain,Northeast,13 or older,yes,2021-03-28_19h53.02.530,empathy_intonation_perc,2020.2.10,MacIntel,60,,,,,,,,,,0,,,,,,,,,,,,,,,,,,,,,,,,,,,,,,,,,,,,,,,,79,tropaje,,,0,1,1.140185,0,5,5,78,1,REAL,FAKE,,,,,,,,,,,,,,,,,,,,,
,,,,,,,midd25,midd,ma,Spain,Northeast,13 or older,yes,2021-03-28_19h53.02.530,empathy_intonation_perc,2020.2.10,MacIntel,60,,,,,,,,,,0,,,,,,,,,,,,,,,,,,,,,,,,,,,,,,,,,,,,,,,,70,temblo,,,1,0,3.45276,0,6,6,69,1,REAL,FAKE,,,,,,,,,,,,,,,,,,,,,
,,,,,,,midd25,midd,ma,Spain,Northeast,13 or older,yes,2021-03-28_19h53.02.530,empathy_intonation_perc,2020.2.10,MacIntel,60,,,,,,,,,,1,,,,,,,,,,,,,,,,,,,,,,,,,,,,,,,,,,,,,,,,73,hervidor,,,1,1,2.87185,0,7,7,72,1,REAL,FAKE,,,,,,,,,,,,,,,,,,,,,
,,,,,,,midd25,midd,ma,Spain,Northeast,13 or older,yes,2021-03-28_19h53.02.530,empathy_intonation_perc,2020.2.10,MacIntel,60,,,,,,,,,,0,,,,,,,,,,,,,,,,,,,,,,,,,,,,,,,,,,,,,,,,4,batilln,,,0,1,3.116085,0,8,8,3,1,REAL,FAKE,,,,,,,,,,,,,,,,,,,,,
,,,,,,,midd25,midd,ma,Spain,Northeast,13 or older,yes,2021-03-28_19h53.02.530,empathy_intonation_perc,2020.2.10,MacIntel,60,,,,,,,,,,1,,,,,,,,,,,,,,,,,,,,,,,,,,,,,,,,,,,,,,,,67,cabello,,,1,1,0.933805,0,9,9,66,1,REAL,FAKE,,,,,,,,,,,,,,,,,,,,,
,,,,,,,midd25,midd,ma,Spain,Northeast,13 or older,yes,2021-03-28_19h53.02.530,empathy_intonation_perc,2020.2.10,MacIntel,60,,,,,,,,,,1,,,,,,,,,,,,,,,,,,,,,,,,,,,,,,,,,,,,,,,,15,regar,,,1,1,0.847235,0,10,10,14,1,REAL,FAKE,,,,,,,,,,,,,,,,,,,,,
,,,,,,,midd25,midd,ma,Spain,Northeast,13 or older,yes,2021-03-28_19h53.02.530,empathy_intonation_perc,2020.2.10,MacIntel,60,,,,,,,,,,0,,,,,,,,,,,,,,,,,,,,,,,,,,,,,,,,,,,,,,,,10,antar,,,0,1,1.104245,0,11,11,9,1,REAL,FAKE,,,,,,,,,,,,,,,,,,,,,
,,,,,,,midd25,midd,ma,Spain,Northeast,13 or older,yes,2021-03-28_19h53.02.530,empathy_intonation_perc,2020.2.10,MacIntel,60,,,,,,,,,,1,,,,,,,,,,,,,,,,,,,,,,,,,,,,,,,,,,,,,,,,49,ganar,,,1,1,0.78217,0,12,12,48,1,REAL,FAKE,,,,,,,,,,,,,,,,,,,,,
,,,,,,,midd25,midd,ma,Spain,Northeast,13 or older,yes,2021-03-28_19h53.02.530,empathy_intonation_perc,2020.2.10,MacIntel,60,,,,,,,,,,1,,,,,,,,,,,,,,,,,,,,,,,,,,,,,,,,,,,,,,,,46,martillo,,,1,1,1.337135,0,13,13,45,1,REAL,FAKE,,,,,,,,,,,,,,,,,,,,,
,,,,,,,midd25,midd,ma,Spain,Northeast,13 or older,yes,2021-03-28_19h53.02.530,empathy_intonation_perc,2020.2.10,MacIntel,60,,,,,,,,,,1,,,,,,,,,,,,,,,,,,,,,,,,,,,,,,,,,,,,,,,,11,cenefa,,,0,0,0.91548,0,14,14,10,1,REAL,FAKE,,,,,,,,,,,,,,,,,,,,,
,,,,,,,midd25,midd,ma,Spain,Northeast,13 or older,yes,2021-03-28_19h53.02.530,empathy_intonation_perc,2020.2.10,MacIntel,60,,,,,,,,,,1,,,,,,,,,,,,,,,,,,,,,,,,,,,,,,,,,,,,,,,,68,alegre,,,1,1,0.70993,0,15,15,67,1,REAL,FAKE,,,,,,,,,,,,,,,,,,,,,
,,,,,,,midd25,midd,ma,Spain,Northeast,13 or older,yes,2021-03-28_19h53.02.530,empathy_intonation_perc,2020.2.10,MacIntel,60,,,,,,,,,,1,,,,,,,,,,,,,,,,,,,,,,,,,,,,,,,,,,,,,,,,43,canela,,,1,1,1.032425,0,16,16,42,1,REAL,FAKE,,,,,,,,,,,,,,,,,,,,,
,,,,,,,midd25,midd,ma,Spain,Northeast,13 or older,yes,2021-03-28_19h53.02.530,empathy_intonation_perc,2020.2.10,MacIntel,60,,,,,,,,,,1,,,,,,,,,,,,,,,,,,,,,,,,,,,,,,,,,,,,,,,,2,pellizcar,,,1,1,1.34892,0,17,17,1,1,REAL,FAKE,,,,,,,,,,,,,,,,,,,,,
,,,,,,,midd25,midd,ma,Spain,Northeast,13 or older,yes,2021-03-28_19h53.02.530,empathy_intonation_perc,2020.2.10,MacIntel,60,,,,,,,,,,1,,,,,,,,,,,,,,,,,,,,,,,,,,,,,,,,,,,,,,,,61,seda,,,1,1,0.969155,0,18,18,60,1,REAL,FAKE,,,,,,,,,,,,,,,,,,,,,
,,,,,,,midd25,midd,ma,Spain,Northeast,13 or older,yes,2021-03-28_19h53.02.530,empathy_intonation_perc,2020.2.10,MacIntel,60,,,,,,,,,,0,,,,,,,,,,,,,,,,,,,,,,,,,,,,,,,,,,,,,,,,23,lampera,,,0,1,0.93263,0,19,19,22,1,REAL,FAKE,,,,,,,,,,,,,,,,,,,,,
,,,,,,,midd25,midd,ma,Spain,Northeast,13 or older,yes,2021-03-28_19h53.02.530,empathy_intonation_perc,2020.2.10,MacIntel,60,,,,,,,,,,1,,,,,,,,,,,,,,,,,,,,,,,,,,,,,,,,,,,,,,,,69,engatusar,,,0,0,0.8989,0,20,20,68,1,REAL,FAKE,,,,,,,,,,,,,,,,,,,,,
,,,,,,,midd25,midd,ma,Spain,Northeast,13 or older,yes,2021-03-28_19h53.02.530,empathy_intonation_perc,2020.2.10,MacIntel,60,,,,,,,,,,0,,,,,,,,,,,,,,,,,,,,,,,,,,,,,,,,,,,,,,,,42,cadallo,,,0,1,1.06472,0,21,21,41,1,REAL,FAKE,,,,,,,,,,,,,,,,,,,,,
,,,,,,,midd25,midd,ma,Spain,Northeast,13 or older,yes,2021-03-28_19h53.02.530,empathy_intonation_perc,2020.2.10,MacIntel,60,,,,,,,,,,1,,,,,,,,,,,,,,,,,,,,,,,,,,,,,,,,,,,,,,,,24,ltigo,,,1,1,3.48014,0,22,22,23,1,REAL,FAKE,,,,,,,,,,,,,,,,,,,,,
,,,,,,,midd25,midd,ma,Spain,Northeast,13 or older,yes,2021-03-28_19h53.02.530,empathy_intonation_perc,2020.2.10,MacIntel,60,,,,,,,,,,1,,,,,,,,,,,,,,,,,,,,,,,,,,,,,,,,,,,,,,,,22,lacayo,,,0,0,0.93226,0,23,23,21,1,REAL,FAKE,,,,,,,,,,,,,,,,,,,,,
,,,,,,,midd25,midd,ma,Spain,Northeast,13 or older,yes,2021-03-28_19h53.02.530,empathy_intonation_perc,2020.2.10,MacIntel,60,,,,,,,,,,1,,,,,,,,,,,,,,,,,,,,,,,,,,,,,,,,,,,,,,,,59,besar,,,1,1,0.73182,0,24,24,58,1,REAL,FAKE,,,,,,,,,,,,,,,,,,,,,
,,,,,,,midd25,midd,ma,Spain,Northeast,13 or older,yes,2021-03-28_19h53.02.530,empathy_intonation_perc,2020.2.10,MacIntel,60,,,,,,,,,,1,,,,,,,,,,,,,,,,,,,,,,,,,,,,,,,,,,,,,,,,45,jilguero,,,0,0,0.80658,0,25,25,44,1,REAL,FAKE,,,,,,,,,,,,,,,,,,,,,
,,,,,,,midd25,midd,ma,Spain,Northeast,13 or older,yes,2021-03-28_19h53.02.530,empathy_intonation_perc,2020.2.10,MacIntel,60,,,,,,,,,,1,,,,,,,,,,,,,,,,,,,,,,,,,,,,,,,,,,,,,,,,86,barato,,,1,1,0.76402,0,26,26,85,1,REAL,FAKE,,,,,,,,,,,,,,,,,,,,,
,,,,,,,midd25,midd,ma,Spain,Northeast,13 or older,yes,2021-03-28_19h53.02.530,empathy_intonation_perc,2020.2.10,MacIntel,60,,,,,,,,,,0,,,,,,,,,,,,,,,,,,,,,,,,,,,,,,,,,,,,,,,,19,brecedad,,,0,1,1.684555,0,27,27,18,1,REAL,FAKE,,,,,,,,,,,,,,,,,,,,,
,,,,,,,midd25,midd,ma,Spain,Northeast,13 or older,yes,2021-03-28_19h53.02.530,empathy_intonation_perc,2020.2.10,MacIntel,60,,,,,,,,,,1,,,,,,,,,,,,,,,,,,,,,,,,,,,,,,,,,,,,,,,,89,prisa,,,1,1,0.945625,0,28,28,88,1,REAL,FAKE,,,,,,,,,,,,,,,,,,,,,
,,,,,,,midd25,midd,ma,Spain,Northeast,13 or older,yes,2021-03-28_19h53.02.530,empathy_intonation_perc,2020.2.10,MacIntel,60,,,,,,,,,,0,,,,,,,,,,,,,,,,,,,,,,,,,,,,,,,,,,,,,,,,33,pauca,,,0,1,0.754515,0,29,29,32,1,REAL,FAKE,,,,,,,,,,,,,,,,,,,,,
,,,,,,,midd25,midd,ma,Spain,Northeast,13 or older,yes,2021-03-28_19h53.02.530,empathy_intonation_perc,2020.2.10,MacIntel,60,,,,,,,,,,1,,,,,,,,,,,,,,,,,,,,,,,,,,,,,,,,,,,,,,,,54,fomentar,,,0,0,0.84912,0,30,30,53,1,REAL,FAKE,,,,,,,,,,,,,,,,,,,,,
,,,,,,,midd25,midd,ma,Spain,Northeast,13 or older,yes,2021-03-28_19h53.02.530,empathy_intonation_perc,2020.2.10,MacIntel,60,,,,,,,,,,1,,,,,,,,,,,,,,,,,,,,,,,,,,,,,,,,,,,,,,,,3,pulmones,,,1,1,0.834555,0,31,31,2,1,REAL,FAKE,,,,,,,,,,,,,,,,,,,,,
,,,,,,,midd25,midd,ma,Spain,Northeast,13 or older,yes,2021-03-28_19h53.02.530,empathy_intonation_perc,2020.2.10,MacIntel,60,,,,,,,,,,1,,,,,,,,,,,,,,,,,,,,,,,,,,,,,,,,,,,,,,,,71,polvoriento,,,0,0,2.05902,0,32,32,70,1,REAL,FAKE,,,,,,,,,,,,,,,,,,,,,
,,,,,,,midd25,midd,ma,Spain,Northeast,13 or older,yes,2021-03-28_19h53.02.530,empathy_intonation_perc,2020.2.10,MacIntel,60,,,,,,,,,,1,,,,,,,,,,,,,,,,,,,,,,,,,,,,,,,,,,,,,,,,62,flaco,,,1,1,0.74882,0,33,33,61,1,REAL,FAKE,,,,,,,,,,,,,,,,,,,,,
,,,,,,,midd25,midd,ma,Spain,Northeast,13 or older,yes,2021-03-28_19h53.02.530,empathy_intonation_perc,2020.2.10,MacIntel,60,,,,,,,,,,1,,,,,,,,,,,,,,,,,,,,,,,,,,,,,,,,,,,,,,,,44,cuchara,,,1,1,0.6976,0,34,34,43,1,REAL,FAKE,,,,,,,,,,,,,,,,,,,,,
,,,,,,,midd25,midd,ma,Spain,Northeast,13 or older,yes,2021-03-28_19h53.02.530,empathy_intonation_perc,2020.2.10,MacIntel,60,,,,,,,,,,1,,,,,,,,,,,,,,,,,,,,,,,,,,,,,,,,,,,,,,,,52,camisa,,,1,1,0.62368,0,35,35,51,1,REAL,FAKE,,,,,,,,,,,,,,,,,,,,,
,,,,,,,midd25,midd,ma,Spain,Northeast,13 or older,yes,2021-03-28_19h53.02.530,empathy_intonation_perc,2020.2.10,MacIntel,60,,,,,,,,,,0,,,,,,,,,,,,,,,,,,,,,,,,,,,,,,,,,,,,,,,,18,arsa,,,0,1,4.749625,0,36,36,17,1,REAL,FAKE,,,,,,,,,,,,,,,,,,,,,
,,,,,,,midd25,midd,ma,Spain,Northeast,13 or older,yes,2021-03-28_19h53.02.530,empathy_intonation_perc,2020.2.10,MacIntel,60,,,,,,,,,,0,,,,,,,,,,,,,,,,,,,,,,,,,,,,,,,,,,,,,,,,8,cadea,,,0,1,4.3986,0,37,37,7,1,REAL,FAKE,,,,,,,,,,,,,,,,,,,,,
,,,,,,,midd25,midd,ma,Spain,Northeast,13 or older,yes,2021-03-28_19h53.02.530,empathy_intonation_perc,2020.2.10,MacIntel,60,,,,,,,,,,0,,,,,,,,,,,,,,,,,,,,,,,,,,,,,,,,,,,,,,,,29,decar,,,0,1,0.81737,0,38,38,28,1,REAL,FAKE,,,,,,,,,,,,,,,,,,,,,
,,,,,,,midd25,midd,ma,Spain,Northeast,13 or older,yes,2021-03-28_19h53.02.530,empathy_intonation_perc,2020.2.10,MacIntel,60,,,,,,,,,,1,,,,,,,,,,,,,,,,,,,,,,,,,,,,,,,,,,,,,,,,56,musgo,,,1,1,1.864865,0,39,39,55,1,REAL,FAKE,,,,,,,,,,,,,,,,,,,,,
,,,,,,,midd25,midd,ma,Spain,Northeast,13 or older,yes,2021-03-28_19h53.02.530,empathy_intonation_perc,2020.2.10,MacIntel,60,,,,,,,,,,1,,,,,,,,,,,,,,,,,,,,,,,,,,,,,,,,,,,,,,,,85,lad,,,0,0,1.664425,0,40,40,84,1,REAL,FAKE,,,,,,,,,,,,,,,,,,,,,
,,,,,,,midd25,midd,ma,Spain,Northeast,13 or older,yes,2021-03-28_19h53.02.530,empathy_intonation_perc,2020.2.10,MacIntel,60,,,,,,,,,,1,,,,,,,,,,,,,,,,,,,,,,,,,,,,,,,,,,,,,,,,75,yacer,,,1,1,3.41654,0,41,41,74,1,REAL,FAKE,,,,,,,,,,,,,,,,,,,,,
,,,,,,,midd25,midd,ma,Spain,Northeast,13 or older,yes,2021-03-28_19h53.02.530,empathy_intonation_perc,2020.2.10,MacIntel,60,,,,,,,,,,1,,,,,,,,,,,,,,,,,,,,,,,,,,,,,,,,,,,,,,,,12,asesinato,,,1,1,0.75367,0,42,42,11,1,REAL,FAKE,,,,,,,,,,,,,,,,,,,,,
,,,,,,,midd25,midd,ma,Spain,Northeast,13 or older,yes,2021-03-28_19h53.02.530,empathy_intonation_perc,2020.2.10,MacIntel,60,,,,,,,,,,0,,,,,,,,,,,,,,,,,,,,,,,,,,,,,,,,,,,,,,,,63,esposante,,,0,1,0.902775,0,43,43,62,1,REAL,FAKE,,,,,,,,,,,,,,,,,,,,,
,,,,,,,midd25,midd,ma,Spain,Northeast,13 or older,yes,2021-03-28_19h53.02.530,empathy_intonation_perc,2020.2.10,MacIntel,60,,,,,,,,,,1,,,,,,,,,,,,,,,,,,,,,,,,,,,,,,,,,,,,,,,,64,orgulloso,,,1,1,0.74839,0,44,44,63,1,REAL,FAKE,,,,,,,,,,,,,,,,,,,,,
,,,,,,,midd25,midd,ma,Spain,Northeast,13 or older,yes,2021-03-28_19h53.02.530,empathy_intonation_perc,2020.2.10,MacIntel,60,,,,,,,,,,1,,,,,,,,,,,,,,,,,,,,,,,,,,,,,,,,,,,,,,,,25,bisagra,,,0,0,1.09838,0,45,45,24,1,REAL,FAKE,,,,,,,,,,,,,,,,,,,,,
,,,,,,,midd25,midd,ma,Spain,Northeast,13 or older,yes,2021-03-28_19h53.02.530,empathy_intonation_perc,2020.2.10,MacIntel,60,,,,,,,,,,0,,,,,,,,,,,,,,,,,,,,,,,,,,,,,,,,,,,,,,,,32,fatacidad,,,0,1,1.1143,0,46,46,31,1,REAL,FAKE,,,,,,,,,,,,,,,,,,,,,
,,,,,,,midd25,midd,ma,Spain,Northeast,13 or older,yes,2021-03-28_19h53.02.530,empathy_intonation_perc,2020.2.10,MacIntel,60,,,,,,,,,,1,,,,,,,,,,,,,,,,,,,,,,,,,,,,,,,,,,,,,,,,37,granuja,,,0,0,1.331195,0,47,47,36,1,REAL,FAKE,,,,,,,,,,,,,,,,,,,,,
,,,,,,,midd25,midd,ma,Spain,Northeast,13 or older,yes,2021-03-28_19h53.02.530,empathy_intonation_perc,2020.2.10,MacIntel,60,,,,,,,,,,1,,,,,,,,,,,,,,,,,,,,,,,,,,,,,,,,,,,,,,,,81,pozo,,,1,1,0.74795,0,48,48,80,1,REAL,FAKE,,,,,,,,,,,,,,,,,,,,,
,,,,,,,midd25,midd,ma,Spain,Northeast,13 or older,yes,2021-03-28_19h53.02.530,empathy_intonation_perc,2020.2.10,MacIntel,60,,,,,,,,,,1,,,,,,,,,,,,,,,,,,,,,,,,,,,,,,,,,,,,,,,,5,zapato,,,1,1,0.7209,0,49,49,4,1,REAL,FAKE,,,,,,,,,,,,,,,,,,,,,
,,,,,,,midd25,midd,ma,Spain,Northeast,13 or older,yes,2021-03-28_19h53.02.530,empathy_intonation_perc,2020.2.10,MacIntel,60,,,,,,,,,,1,,,,,,,,,,,,,,,,,,,,,,,,,,,,,,,,,,,,,,,,9,hacha,,,1,1,2.074515,0,50,50,8,1,REAL,FAKE,,,,,,,,,,,,,,,,,,,,,
,,,,,,,midd25,midd,ma,Spain,Northeast,13 or older,yes,2021-03-28_19h53.02.530,empathy_intonation_perc,2020.2.10,MacIntel,60,,,,,,,,,,1,,,,,,,,,,,,,,,,,,,,,,,,,,,,,,,,,,,,,,,,7,psimo,,,1,1,0.88609,0,51,51,6,1,REAL,FAKE,,,,,,,,,,,,,,,,,,,,,
,,,,,,,midd25,midd,ma,Spain,Northeast,13 or older,yes,2021-03-28_19h53.02.530,empathy_intonation_perc,2020.2.10,MacIntel,60,,,,,,,,,,1,,,,,,,,,,,,,,,,,,,,,,,,,,,,,,,,,,,,,,,,88,acantilado,,,1,1,2.709015,0,52,52,87,1,REAL,FAKE,,,,,,,,,,,,,,,,,,,,,
,,,,,,,midd25,midd,ma,Spain,Northeast,13 or older,yes,2021-03-28_19h53.02.530,empathy_intonation_perc,2020.2.10,MacIntel,60,,,,,,,,,,0,,,,,,,,,,,,,,,,,,,,,,,,,,,,,,,,,,,,,,,,35,rompido,,,0,1,0.88095,0,53,53,34,1,REAL,FAKE,,,,,,,,,,,,,,,,,,,,,
,,,,,,,midd25,midd,ma,Spain,Northeast,13 or older,yes,2021-03-28_19h53.02.530,empathy_intonation_perc,2020.2.10,MacIntel,60,,,,,,,,,,1,,,,,,,,,,,,,,,,,,,,,,,,,,,,,,,,,,,,,,,,76,atar,,,1,1,1.001965,0,54,54,75,1,REAL,FAKE,,,,,,,,,,,,,,,,,,,,,
,,,,,,,midd25,midd,ma,Spain,Northeast,13 or older,yes,2021-03-28_19h53.02.530,empathy_intonation_perc,2020.2.10,MacIntel,60,,,,,,,,,,0,,,,,,,,,,,,,,,,,,,,,,,,,,,,,,,,,,,,,,,,17,floroso,,,0,1,1.07274,0,55,55,16,1,REAL,FAKE,,,,,,,,,,,,,,,,,,,,,
,,,,,,,midd25,midd,ma,Spain,Northeast,13 or older,yes,2021-03-28_19h53.02.530,empathy_intonation_perc,2020.2.10,MacIntel,60,,,,,,,,,,1,,,,,,,,,,,,,,,,,,,,,,,,,,,,,,,,,,,,,,,,80,hormiga,,,1,1,0.731355,0,56,56,79,1,REAL,FAKE,,,,,,,,,,,,,,,,,,,,,
,,,,,,,midd25,midd,ma,Spain,Northeast,13 or older,yes,2021-03-28_19h53.02.530,empathy_intonation_perc,2020.2.10,MacIntel,60,,,,,,,,,,1,,,,,,,,,,,,,,,,,,,,,,,,,,,,,,,,,,,,,,,,38,estornudar,,,1,1,1.049355,0,57,57,37,1,REAL,FAKE,,,,,,,,,,,,,,,,,,,,,
,,,,,,,midd25,midd,ma,Spain,Northeast,13 or older,yes,2021-03-28_19h53.02.530,empathy_intonation_perc,2020.2.10,MacIntel,60,,,,,,,,,,1,,,,,,,,,,,,,,,,,,,,,,,,,,,,,,,,,,,,,,,,83,guante,,,1,1,1.71484,0,58,58,82,1,REAL,FAKE,,,,,,,,,,,,,,,,,,,,,
,,,,,,,midd25,midd,ma,Spain,Northeast,13 or older,yes,2021-03-28_19h53.02.530,empathy_intonation_perc,2020.2.10,MacIntel,60,,,,,,,,,,0,,,,,,,,,,,,,,,,,,,,,,,,,,,,,,,,,,,,,,,,53,vegada,,,0,1,1.268595,0,59,59,52,1,REAL,FAKE,,,,,,,,,,,,,,,,,,,,,
,,,,,,,midd25,midd,ma,Spain,Northeast,13 or older,yes,2021-03-28_19h53.02.530,empathy_intonation_perc,2020.2.10,MacIntel,60,,,,,,,,,,0,,,,,,,,,,,,,,,,,,,,,,,,,,,,,,,,,,,,,,,,87,grodo,,,0,1,1.06784,0,60,60,86,1,REAL,FAKE,,,,,,,,,,,,,,,,,,,,,
,,,,,,,midd25,midd,ma,Spain,Northeast,13 or older,yes,2021-03-28_19h53.02.530,empathy_intonation_perc,2020.2.10,MacIntel,60,,,,,,,,,,1,,,,,,,,,,,,,,,,,,,,,,,,,,,,,,,,,,,,,,,,26,secuestro,,,1,1,1.586565,0,61,61,25,1,REAL,FAKE,,,,,,,,,,,,,,,,,,,,,
,,,,,,,midd25,midd,ma,Spain,Northeast,13 or older,yes,2021-03-28_19h53.02.530,empathy_intonation_perc,2020.2.10,MacIntel,60,,,,,,,,,,1,,,,,,,,,,,,,,,,,,,,,,,,,,,,,,,,,,,,,,,,41,rebuscar,,,0,0,2.472385,0,62,62,40,1,REAL,FAKE,,,,,,,,,,,,,,,,,,,,,
,,,,,,,midd25,midd,ma,Spain,Northeast,13 or older,yes,2021-03-28_19h53.02.530,empathy_intonation_perc,2020.2.10,MacIntel,60,,,,,,,,,,0,,,,,,,,,,,,,,,,,,,,,,,,,,,,,,,,,,,,,,,,84,escuto,,,0,1,0.755565,0,63,63,83,1,REAL,FAKE,,,,,,,,,,,,,,,,,,,,,
,,,,,,,midd25,midd,ma,Spain,Northeast,13 or older,yes,2021-03-28_19h53.02.530,empathy_intonation_perc,2020.2.10,MacIntel,60,,,,,,,,,,0,,,,,,,,,,,,,,,,,,,,,,,,,,,,,,,,,,,,,,,,27,acutacin,,,0,1,0.84615,0,64,64,26,1,REAL,FAKE,,,,,,,,,,,,,,,,,,,,,
,,,,,,,midd25,midd,ma,Spain,Northeast,13 or older,yes,2021-03-28_19h53.02.530,empathy_intonation_perc,2020.2.10,MacIntel,60,,,,,,,,,,1,,,,,,,,,,,,,,,,,,,,,,,,,,,,,,,,,,,,,,,,34,aviso,,,1,1,0.70411,0,65,65,33,1,REAL,FAKE,,,,,,,,,,,,,,,,,,,,,
,,,,,,,midd25,midd,ma,Spain,Northeast,13 or older,yes,2021-03-28_19h53.02.530,empathy_intonation_perc,2020.2.10,MacIntel,60,,,,,,,,,,0,,,,,,,,,,,,,,,,,,,,,,,,,,,,,,,,,,,,,,,,82,empirador,,,0,1,1.284665,0,66,66,81,1,REAL,FAKE,,,,,,,,,,,,,,,,,,,,,
,,,,,,,midd25,midd,ma,Spain,Northeast,13 or older,yes,2021-03-28_19h53.02.530,empathy_intonation_perc,2020.2.10,MacIntel,60,,,,,,,,,,1,,,,,,,,,,,,,,,,,,,,,,,,,,,,,,,,,,,,,,,,20,vido,,,0,0,0.71935,0,67,67,19,1,REAL,FAKE,,,,,,,,,,,,,,,,,,,,,
,,,,,,,midd25,midd,ma,Spain,Northeast,13 or older,yes,2021-03-28_19h53.02.530,empathy_intonation_perc,2020.2.10,MacIntel,60,,,,,,,,,,1,,,,,,,,,,,,,,,,,,,,,,,,,,,,,,,,,,,,,,,,14,yunque,,,1,1,1.449565,0,68,68,13,1,REAL,FAKE,,,,,,,,,,,,,,,,,,,,,
,,,,,,,midd25,midd,ma,Spain,Northeast,13 or older,yes,2021-03-28_19h53.02.530,empathy_intonation_perc,2020.2.10,MacIntel,60,,,,,,,,,,0,,,,,,,,,,,,,,,,,,,,,,,,,,,,,,,,,,,,,,,,30,alardio,,,0,1,0.774715,0,69,69,29,1,REAL,FAKE,,,,,,,,,,,,,,,,,,,,,
,,,,,,,midd25,midd,ma,Spain,Northeast,13 or older,yes,2021-03-28_19h53.02.530,empathy_intonation_perc,2020.2.10,MacIntel,60,,,,,,,,,,1,,,,,,,,,,,,,,,,,,,,,,,,,,,,,,,,,,,,,,,,48,ladrn,,,1,1,0.764735,0,70,70,47,1,REAL,FAKE,,,,,,,,,,,,,,,,,,,,,
,,,,,,,midd25,midd,ma,Spain,Northeast,13 or older,yes,2021-03-28_19h53.02.530,empathy_intonation_perc,2020.2.10,MacIntel,60,,,,,,,,,,1,,,,,,,,,,,,,,,,,,,,,,,,,,,,,,,,,,,,,,,,78,frondoso,,,1,1,2.154335,0,71,71,77,1,REAL,FAKE,,,,,,,,,,,,,,,,,,,,,
,,,,,,,midd25,midd,ma,Spain,Northeast,13 or older,yes,2021-03-28_19h53.02.530,empathy_intonation_perc,2020.2.10,MacIntel,60,,,,,,,,,,1,,,,,,,,,,,,,,,,,,,,,,,,,,,,,,,,,,,,,,,,40,alfombra,,,1,1,0.665445,0,72,72,39,1,REAL,FAKE,,,,,,,,,,,,,,,,,,,,,
,,,,,,,midd25,midd,ma,Spain,Northeast,13 or older,yes,2021-03-28_19h53.02.530,empathy_intonation_perc,2020.2.10,MacIntel,60,,,,,,,,,,0,,,,,,,,,,,,,,,,,,,,,,,,,,,,,,,,,,,,,,,,74,cintro,,,0,1,1.20831,0,73,73,73,1,REAL,FAKE,,,,,,,,,,,,,,,,,,,,,
,,,,,,,midd25,midd,ma,Spain,Northeast,13 or older,yes,2021-03-28_19h53.02.530,empathy_intonation_perc,2020.2.10,MacIntel,60,,,,,,,,,,1,,,,,,,,,,,,,,,,,,,,,,,,,,,,,,,,,,,,,,,,55,nevar,,,1,1,0.74884,0,74,74,54,1,REAL,FAKE,,,,,,,,,,,,,,,,,,,,,
,,,,,,,midd25,midd,ma,Spain,Northeast,13 or older,yes,2021-03-28_19h53.02.530,empathy_intonation_perc,2020.2.10,MacIntel,60,,,,,,,,,,0,,,,,,,,,,,,,,,,,,,,,,,,,,,,,,,,,,,,,,,,72,pemicin,,,0,1,0.753965,0,75,75,71,1,REAL,FAKE,,,,,,,,,,,,,,,,,,,,,
,,,,,,,midd25,midd,ma,Spain,Northeast,13 or older,yes,2021-03-28_19h53.02.530,empathy_intonation_perc,2020.2.10,MacIntel,60,,,,,,,,,,0,,,,,,,,,,,,,,,,,,,,,,,,,,,,,,,,,,,,,,,,16,abracer,,,0,1,1.604885,0,76,76,15,1,REAL,FAKE,,,,,,,,,,,,,,,,,,,,,
,,,,,,,midd25,midd,ma,Spain,Northeast,13 or older,yes,2021-03-28_19h53.02.530,empathy_intonation_perc,2020.2.10,MacIntel,60,,,,,,,,,,1,,,,,,,,,,,,,,,,,,,,,,,,,,,,,,,,,,,,,,,,6,tergiversar,,,0,0,0.732785,0,77,77,5,1,REAL,FAKE,,,,,,,,,,,,,,,,,,,,,
,,,,,,,midd25,midd,ma,Spain,Northeast,13 or older,yes,2021-03-28_19h53.02.530,empathy_intonation_perc,2020.2.10,MacIntel,60,,,,,,,,,,1,,,,,,,,,,,,,,,,,,,,,,,,,,,,,,,,,,,,,,,,28,merodear,,,0,0,1.137125,0,78,78,27,1,REAL,FAKE,,,,,,,,,,,,,,,,,,,,,
,,,,,,,midd25,midd,ma,Spain,Northeast,13 or older,yes,2021-03-28_19h53.02.530,empathy_intonation_perc,2020.2.10,MacIntel,60,,,,,,,,,,1,,,,,,,,,,,,,,,,,,,,,,,,,,,,,,,,,,,,,,,,36,loro,,,1,1,1.050275,0,79,79,35,1,REAL,FAKE,,,,,,,,,,,,,,,,,,,,,
,,,,,,,midd25,midd,ma,Spain,Northeast,13 or older,yes,2021-03-28_19h53.02.530,empathy_intonation_perc,2020.2.10,MacIntel,60,,,,,,,,,,1,,,,,,,,,,,,,,,,,,,,,,,,,,,,,,,,,,,,,,,,90,clavel,,,1,1,1.71589,0,80,80,89,1,REAL,FAKE,,,,,,,,,,,,,,,,,,,,,
,,,,,,,midd25,midd,ma,Spain,Northeast,13 or older,yes,2021-03-28_19h53.02.530,empathy_intonation_perc,2020.2.10,MacIntel,60,,,,,,,,,,1,,,,,,,,,,,,,,,,,,,,,,,,,,,,,,,,,,,,,,,,57,tacao,,,1,1,1.5213,0,81,81,56,1,REAL,FAKE,,,,,,,,,,,,,,,,,,,,,
,,,,,,,midd25,midd,ma,Spain,Northeast,13 or older,yes,2021-03-28_19h53.02.530,empathy_intonation_perc,2020.2.10,MacIntel,60,,,,,,,,,,1,,,,,,,,,,,,,,,,,,,,,,,,,,,,,,,,,,,,,,,,13,helar,,,1,1,2.116885,0,82,82,12,1,REAL,FAKE,,,,,,,,,,,,,,,,,,,,,
,,,,,,,midd25,midd,ma,Spain,Northeast,13 or older,yes,2021-03-28_19h53.02.530,empathy_intonation_perc,2020.2.10,MacIntel,60,,,,,,,,,,1,,,,,,,,,,,,,,,,,,,,,,,,,,,,,,,,,,,,,,,,39,torpe,,,1,1,0.70019,0,83,83,38,1,REAL,FAKE,,,,,,,,,,,,,,,,,,,,,
,,,,,,,midd25,midd,ma,Spain,Northeast,13 or older,yes,2021-03-28_19h53.02.530,empathy_intonation_perc,2020.2.10,MacIntel,60,,,,,,,,,,1,,,,,,,,,,,,,,,,,,,,,,,,,,,,,,,,,,,,,,,,65,bizcocho,,,1,1,0.864255,0,84,84,64,1,REAL,FAKE,,,,,,,,,,,,,,,,,,,,,
,,,,,,,midd25,midd,ma,Spain,Northeast,13 or older,yes,2021-03-28_19h53.02.530,empathy_intonation_perc,2020.2.10,MacIntel,60,,,,,,,,,,1,,,,,,,,,,,,,,,,,,,,,,,,,,,,,,,,,,,,,,,,77,tiburn,,,1,1,0.7542,0,85,85,76,1,REAL,FAKE,,,,,,,,,,,,,,,,,,,,,
,,,,,,,midd25,midd,ma,Spain,Northeast,13 or older,yes,2021-03-28_19h53.02.530,empathy_intonation_perc,2020.2.10,MacIntel,60,,,,,,,,,,0,,,,,,,,,,,,,,,,,,,,,,,,,,,,,,,,,,,,,,,,58,plaudir,,,0,1,1.05199,0,86,86,57,1,REAL,FAKE,,,,,,,,,,,,,,,,,,,,,
,,,,,,,midd25,midd,ma,Spain,Northeast,13 or older,yes,2021-03-28_19h53.02.530,empathy_intonation_perc,2020.2.10,MacIntel,60,,,,,,,,,,0,,,,,,,,,,,,,,,,,,,,,,,,,,,,,,,,,,,,,,,,47,cartinar,,,0,1,0.76419,0,87,87,46,1,REAL,FAKE,,,,,,,,,,,,,,,,,,,,,
,,,,,,,midd25,midd,ma,Spain,Northeast,13 or older,yes,2021-03-28_19h53.02.530,empathy_intonation_perc,2020.2.10,MacIntel,60,,,,,,,,,,1,,,,,,,,,,,,,,,,,,,,,,,,,,,,,,,,,,,,,,,,31,pandilla,,,1,1,3.86905,0,88,88,30,1,REAL,FAKE,,,,,,,,,,,,,,,,,,,,,
,,,,,,,midd25,midd,ma,Spain,Northeast,13 or older,yes,2021-03-28_19h53.02.530,empathy_intonation_perc,2020.2.10,MacIntel,60,,,,,,,,,,0,,,,,,,,,,,,,,,,,,,,,,,,,,,,,,,,,,,,,,,,1,terzo,,,0,1,0.87102,0,89,89,0,1,REAL,FAKE,,,,,,,,,,,,,,,,,,,,,
,,,,,,,midd25,midd,ma,Spain,Northeast,13 or older,yes,2021-03-28_19h53.02.530,empathy_intonation_perc,2020.2.10,MacIntel,60,,,,,,,,,,,,,,,,,,,,,,,,,,,,,,,,,,,,,,,,,,,,,,,,,,,,,,,,,,,,,,,,4,1,4.12739,1,0,0,0,0,0,1,,,,,,,,,,,
,,,,,,,midd25,midd,ma,Spain,Northeast,13 or older,yes,2021-03-28_19h53.02.530,empathy_intonation_perc,2020.2.10,MacIntel,60,,,,,,,,,,,,,,,,,,,,1,,,,,,,,,,,,,,,,,,,,,,,,,,,,,,,,,,,,,,,,,,,,,,,,,,,,,,2,0,0,0,0,1,I can easily tell if someone else wants to enter a conversation.,1,0,1,0
,,,,,,,midd25,midd,ma,Spain,Northeast,13 or older,yes,2021-03-28_19h53.02.530,empathy_intonation_perc,2020.2.10,MacIntel,60,,,,,,,,,,,,,,,,,,,,2,,,,,,,,,,,,,,,,,,,,,,,,,,,,,,,,,,,,,,,,,,,,,,,,,,,,,,5,0,1,1,1,1,I prefer animals to humans.,0,1,0,0
,,,,,,,midd25,midd,ma,Spain,Northeast,13 or older,yes,2021-03-28_19h53.02.530,empathy_intonation_perc,2020.2.10,MacIntel,60,,,,,,,,,,,,,,,,,,,,3,,,,,,,,,,,,,,,,,,,,,,,,,,,,,,,,,,,,,,,,,,,,,,,,,,,,,,5,0,2,2,2,1,I try to keep up with the current trends and fashions.,0,1,0,0
,,,,,,,midd25,midd,ma,Spain,Northeast,13 or older,yes,2021-03-28_19h53.02.530,empathy_intonation_perc,2020.2.10,MacIntel,60,,,,,,,,,,,,,,,,,,,,4,,,,,,,,,,,,,,,,,,,,,,,,,,,,,,,,,,,,,,,,,,,,,,,,,,,,,,4,0,3,3,3,1,"I find it difficult to explain to others things that I understand easily, 
  when they dont understand it first time.",1,0,0,1
,,,,,,,midd25,midd,ma,Spain,Northeast,13 or older,yes,2021-03-28_19h53.02.530,empathy_intonation_perc,2020.2.10,MacIntel,60,,,,,,,,,,,,,,,,,,,,5,,,,,,,,,,,,,,,,,,,,,,,,,,,,,,,,,,,,,,,,,,,,,,,,,,,,,,4,0,4,4,4,1,I dream most nights.,0,1,0,0
,,,,,,,midd25,midd,ma,Spain,Northeast,13 or older,yes,2021-03-28_19h53.02.530,empathy_intonation_perc,2020.2.10,MacIntel,60,,,,,,,,,,,,,,,,,,,,6,,,,,,,,,,,,,,,,,,,,,,,,,,,,,,,,,,,,,,,,,,,,,,,,,,,,,,3,0,5,5,5,1,I really enjoy caring for other people.,1,0,1,0
,,,,,,,midd25,midd,ma,Spain,Northeast,13 or older,yes,2021-03-28_19h53.02.530,empathy_intonation_perc,2020.2.10,MacIntel,60,,,,,,,,,,,,,,,,,,,,7,,,,,,,,,,,,,,,,,,,,,,,,,,,,,,,,,,,,,,,,,,,,,,,,,,,,,,2,0,6,6,6,1,I try to solve my own problems rather than discussing them with others.,0,1,0,0
,,,,,,,midd25,midd,ma,Spain,Northeast,13 or older,yes,2021-03-28_19h53.02.530,empathy_intonation_perc,2020.2.10,MacIntel,60,,,,,,,,,,,,,,,,,,,,8,,,,,,,,,,,,,,,,,,,,,,,,,,,,,,,,,,,,,,,,,,,,,,,,,,,,,,4,0,7,7,7,1,I find it hard to know what to do in a social situation.,1,0,0,1
,,,,,,,midd25,midd,ma,Spain,Northeast,13 or older,yes,2021-03-28_19h53.02.530,empathy_intonation_perc,2020.2.10,MacIntel,60,,,,,,,,,,,,,,,,,,,,9,,,,,,,,,,,,,,,,,,,,,,,,,,,,,,,,,,,,,,,,,,,,,,,,,,,,,,1,0,8,8,8,1,I am at my best first thing in the morning.,0,1,0,0
,,,,,,,midd25,midd,ma,Spain,Northeast,13 or older,yes,2021-03-28_19h53.02.530,empathy_intonation_perc,2020.2.10,MacIntel,60,,,,,,,,,,,,,,,,,,,,10,,,,,,,,,,,,,,,,,,,,,,,,,,,,,,,,,,,,,,,,,,,,,,,,,,,,,,2,0,9,9,9,1,"People often tell me that I went too far in driving my point home in a 
  discussion.",1,0,0,1
,,,,,,,midd25,midd,ma,Spain,Northeast,13 or older,yes,2021-03-28_19h53.02.530,empathy_intonation_perc,2020.2.10,MacIntel,60,,,,,,,,,,,,,,,,,,,,11,,,,,,,,,,,,,,,,,,,,,,,,,,,,,,,,,,,,,,,,,,,,,,,,,,,,,,4,0,10,10,10,1,It doesnt bother me too much if I am late meeting a friend.,1,0,0,1
,,,,,,,midd25,midd,ma,Spain,Northeast,13 or older,yes,2021-03-28_19h53.02.530,empathy_intonation_perc,2020.2.10,MacIntel,60,,,,,,,,,,,,,,,,,,,,12,,,,,,,,,,,,,,,,,,,,,,,,,,,,,,,,,,,,,,,,,,,,,,,,,,,,,,5,0,11,11,11,1,"Friendships and relationships are just too difficult, so I tend not to 
  bother with them.",1,0,0,1
,,,,,,,midd25,midd,ma,Spain,Northeast,13 or older,yes,2021-03-28_19h53.02.530,empathy_intonation_perc,2020.2.10,MacIntel,60,,,,,,,,,,,,,,,,,,,,13,,,,,,,,,,,,,,,,,,,,,,,,,,,,,,,,,,,,,,,,,,,,,,,,,,,,,,4,0,12,12,12,1,"I would never break a law, no matter how minor.",0,1,0,0
,,,,,,,midd25,midd,ma,Spain,Northeast,13 or older,yes,2021-03-28_19h53.02.530,empathy_intonation_perc,2020.2.10,MacIntel,60,,,,,,,,,,,,,,,,,,,,14,,,,,,,,,,,,,,,,,,,,,,,,,,,,,,,,,,,,,,,,,,,,,,,,,,,,,,4,0,13,13,13,1,I often find it difficult to judge if something is rude or polite.,1,0,0,1
,,,,,,,midd25,midd,ma,Spain,Northeast,13 or older,yes,2021-03-28_19h53.02.530,empathy_intonation_perc,2020.2.10,MacIntel,60,,,,,,,,,,,,,,,,,,,,15,,,,,,,,,,,,,,,,,,,,,,,,,,,,,,,,,,,,,,,,,,,,,,,,,,,,,,4,0,14,14,14,1,"In a conversation, I tend to focus on my own thoughts rather than on what 
  my listener might be thinking.",1,0,0,1
,,,,,,,midd25,midd,ma,Spain,Northeast,13 or older,yes,2021-03-28_19h53.02.530,empathy_intonation_perc,2020.2.10,MacIntel,60,,,,,,,,,,,,,,,,,,,,16,,,,,,,,,,,,,,,,,,,,,,,,,,,,,,,,,,,,,,,,,,,,,,,,,,,,,,5,0,15,15,15,1,I prefer practical jokes to verbal humor.,0,1,0,0
,,,,,,,midd25,midd,ma,Spain,Northeast,13 or older,yes,2021-03-28_19h53.02.530,empathy_intonation_perc,2020.2.10,MacIntel,60,,,,,,,,,,,,,,,,,,,,17,,,,,,,,,,,,,,,,,,,,,,,,,,,,,,,,,,,,,,,,,,,,,,,,,,,,,,2,0,16,16,16,1,I live life for today rather than the future.,0,1,0,0
,,,,,,,midd25,midd,ma,Spain,Northeast,13 or older,yes,2021-03-28_19h53.02.530,empathy_intonation_perc,2020.2.10,MacIntel,60,,,,,,,,,,,,,,,,,,,,18,,,,,,,,,,,,,,,,,,,,,,,,,,,,,,,,,,,,,,,,,,,,,,,,,,,,,,5,0,17,17,17,1,"When I was a child, I enjoyed cutting up worms to see what would happen.",1,0,0,1
,,,,,,,midd25,midd,ma,Spain,Northeast,13 or older,yes,2021-03-28_19h53.02.530,empathy_intonation_perc,2020.2.10,MacIntel,60,,,,,,,,,,,,,,,,,,,,19,,,,,,,,,,,,,,,,,,,,,,,,,,,,,,,,,,,,,,,,,,,,,,,,,,,,,,2,0,18,18,18,1,I can pick up quickly if someone says one thing but means another.,1,0,1,0
,,,,,,,midd25,midd,ma,Spain,Northeast,13 or older,yes,2021-03-28_19h53.02.530,empathy_intonation_perc,2020.2.10,MacIntel,60,,,,,,,,,,,,,,,,,,,,20,,,,,,,,,,,,,,,,,,,,,,,,,,,,,,,,,,,,,,,,,,,,,,,,,,,,,,4,0,19,19,19,1,I tend to have very strong opinions about morality.,0,1,0,0
,,,,,,,midd25,midd,ma,Spain,Northeast,13 or older,yes,2021-03-28_19h53.02.530,empathy_intonation_perc,2020.2.10,MacIntel,60,,,,,,,,,,,,,,,,,,,,21,,,,,,,,,,,,,,,,,,,,,,,,,,,,,,,,,,,,,,,,,,,,,,,,,,,,,,4,0,20,20,20,1,It is hard for me to see why some things upset people so much.,1,0,0,1
,,,,,,,midd25,midd,ma,Spain,Northeast,13 or older,yes,2021-03-28_19h53.02.530,empathy_intonation_perc,2020.2.10,MacIntel,60,,,,,,,,,,,,,,,,,,,,22,,,,,,,,,,,,,,,,,,,,,,,,,,,,,,,,,,,,,,,,,,,,,,,,,,,,,,2,0,21,21,21,1,I find it easy to put myself in somebody elses shoes.,1,0,1,0
,,,,,,,midd25,midd,ma,Spain,Northeast,13 or older,yes,2021-03-28_19h53.02.530,empathy_intonation_perc,2020.2.10,MacIntel,60,,,,,,,,,,,,,,,,,,,,23,,,,,,,,,,,,,,,,,,,,,,,,,,,,,,,,,,,,,,,,,,,,,,,,,,,,,,4,0,22,22,22,1,"I think that good manners are the most important thing a parent can teach 
  their child.",0,1,0,0
,,,,,,,midd25,midd,ma,Spain,Northeast,13 or older,yes,2021-03-28_19h53.02.530,empathy_intonation_perc,2020.2.10,MacIntel,60,,,,,,,,,,,,,,,,,,,,24,,,,,,,,,,,,,,,,,,,,,,,,,,,,,,,,,,,,,,,,,,,,,,,,,,,,,,4,0,23,23,23,1,I like to do things on the spur of the moment.,0,1,0,0
,,,,,,,midd25,midd,ma,Spain,Northeast,13 or older,yes,2021-03-28_19h53.02.530,empathy_intonation_perc,2020.2.10,MacIntel,60,,,,,,,,,,,,,,,,,,,,25,,,,,,,,,,,,,,,,,,,,,,,,,,,,,,,,,,,,,,,,,,,,,,,,,,,,,,2,0,24,24,24,1,I am good at predicting how someone will feel.,1,0,1,0
,,,,,,,midd25,midd,ma,Spain,Northeast,13 or older,yes,2021-03-28_19h53.02.530,empathy_intonation_perc,2020.2.10,MacIntel,60,,,,,,,,,,,,,,,,,,,,26,,,,,,,,,,,,,,,,,,,,,,,,,,,,,,,,,,,,,,,,,,,,,,,,,,,,,,2,0,25,25,25,1,"I am quick to spot when someone in a group is feeling awkward or 
  uncomfortable.",1,0,1,0
,,,,,,,midd25,midd,ma,Spain,Northeast,13 or older,yes,2021-03-28_19h53.02.530,empathy_intonation_perc,2020.2.10,MacIntel,60,,,,,,,,,,,,,,,,,,,,27,,,,,,,,,,,,,,,,,,,,,,,,,,,,,,,,,,,,,,,,,,,,,,,,,,,,,,4,0,26,26,26,1,"If I say something that someone else is offended by, I think that thats 
  their problem, not mine.",1,0,0,1
,,,,,,,midd25,midd,ma,Spain,Northeast,13 or older,yes,2021-03-28_19h53.02.530,empathy_intonation_perc,2020.2.10,MacIntel,60,,,,,,,,,,,,,,,,,,,,28,,,,,,,,,,,,,,,,,,,,,,,,,,,,,,,,,,,,,,,,,,,,,,,,,,,,,,4,0,27,27,27,1,"If anyone asked me if I liked their haircut, I would reply truthfully, even 
  if I didnt like it.",1,0,0,1
,,,,,,,midd25,midd,ma,Spain,Northeast,13 or older,yes,2021-03-28_19h53.02.530,empathy_intonation_perc,2020.2.10,MacIntel,60,,,,,,,,,,,,,,,,,,,,29,,,,,,,,,,,,,,,,,,,,,,,,,,,,,,,,,,,,,,,,,,,,,,,,,,,,,,4,0,28,28,28,1,I cant always see why someone should have felt offended by a remark.,1,0,0,1
,,,,,,,midd25,midd,ma,Spain,Northeast,13 or older,yes,2021-03-28_19h53.02.530,empathy_intonation_perc,2020.2.10,MacIntel,60,,,,,,,,,,,,,,,,,,,,30,,,,,,,,,,,,,,,,,,,,,,,,,,,,,,,,,,,,,,,,,,,,,,,,,,,,,,4,0,29,29,29,1,People often tell me that I am very unpredictable.,0,1,0,0
,,,,,,,midd25,midd,ma,Spain,Northeast,13 or older,yes,2021-03-28_19h53.02.530,empathy_intonation_perc,2020.2.10,MacIntel,60,,,,,,,,,,,,,,,,,,,,31,,,,,,,,,,,,,,,,,,,,,,,,,,,,,,,,,,,,,,,,,,,,,,,,,,,,,,4,0,30,30,30,1,I enjoy being the center of attention at any social gathering.,0,1,0,0
,,,,,,,midd25,midd,ma,Spain,Northeast,13 or older,yes,2021-03-28_19h53.02.530,empathy_intonation_perc,2020.2.10,MacIntel,60,,,,,,,,,,,,,,,,,,,,32,,,,,,,,,,,,,,,,,,,,,,,,,,,,,,,,,,,,,,,,,,,,,,,,,,,,,,5,0,31,31,31,1,Seeing people cry doesnt really upset me.,1,0,0,1
,,,,,,,midd25,midd,ma,Spain,Northeast,13 or older,yes,2021-03-28_19h53.02.530,empathy_intonation_perc,2020.2.10,MacIntel,60,,,,,,,,,,,,,,,,,,,,33,,,,,,,,,,,,,,,,,,,,,,,,,,,,,,,,,,,,,,,,,,,,,,,,,,,,,,4,0,32,32,32,1,I enjoy having discussions about politics.,0,1,0,0
,,,,,,,midd25,midd,ma,Spain,Northeast,13 or older,yes,2021-03-28_19h53.02.530,empathy_intonation_perc,2020.2.10,MacIntel,60,,,,,,,,,,,,,,,,,,,,34,,,,,,,,,,,,,,,,,,,,,,,,,,,,,,,,,,,,,,,,,,,,,,,,,,,,,,4,0,33,33,33,1,"I am very blunt, which some people take to be rudeness, even though this is 
  unintentional.",1,0,0,1
,,,,,,,midd25,midd,ma,Spain,Northeast,13 or older,yes,2021-03-28_19h53.02.530,empathy_intonation_perc,2020.2.10,MacIntel,60,,,,,,,,,,,,,,,,,,,,35,,,,,,,,,,,,,,,,,,,,,,,,,,,,,,,,,,,,,,,,,,,,,,,,,,,,,,2,0,34,34,34,1,I dont tend to find social situations confusing.,1,0,1,0
,,,,,,,midd25,midd,ma,Spain,Northeast,13 or older,yes,2021-03-28_19h53.02.530,empathy_intonation_perc,2020.2.10,MacIntel,60,,,,,,,,,,,,,,,,,,,,36,,,,,,,,,,,,,,,,,,,,,,,,,,,,,,,,,,,,,,,,,,,,,,,,,,,,,,3,0,35,35,35,1,"Other people tell me I am good at understanding how they are feeling and 
  what they are thinking.",1,0,1,0
,,,,,,,midd25,midd,ma,Spain,Northeast,13 or older,yes,2021-03-28_19h53.02.530,empathy_intonation_perc,2020.2.10,MacIntel,60,,,,,,,,,,,,,,,,,,,,37,,,,,,,,,,,,,,,,,,,,,,,,,,,,,,,,,,,,,,,,,,,,,,,,,,,,,,3,0,36,36,36,1,"When I talk to people, I tend to talk about their experiences rather than 
  my own.",1,0,1,0
,,,,,,,midd25,midd,ma,Spain,Northeast,13 or older,yes,2021-03-28_19h53.02.530,empathy_intonation_perc,2020.2.10,MacIntel,60,,,,,,,,,,,,,,,,,,,,38,,,,,,,,,,,,,,,,,,,,,,,,,,,,,,,,,,,,,,,,,,,,,,,,,,,,,,1,0,37,37,37,1,It upsets me to see an animal in pain.,1,0,1,0
,,,,,,,midd25,midd,ma,Spain,Northeast,13 or older,yes,2021-03-28_19h53.02.530,empathy_intonation_perc,2020.2.10,MacIntel,60,,,,,,,,,,,,,,,,,,,,39,,,,,,,,,,,,,,,,,,,,,,,,,,,,,,,,,,,,,,,,,,,,,,,,,,,,,,4,0,38,38,38,1,I am able to make decisions without being influenced by peoples feelings.,1,0,0,1
,,,,,,,midd25,midd,ma,Spain,Northeast,13 or older,yes,2021-03-28_19h53.02.530,empathy_intonation_perc,2020.2.10,MacIntel,60,,,,,,,,,,,,,,,,,,,,40,,,,,,,,,,,,,,,,,,,,,,,,,,,,,,,,,,,,,,,,,,,,,,,,,,,,,,2,0,39,39,39,1,I cant relax until I have done everything I had planned to do that day.,0,1,0,0
,,,,,,,midd25,midd,ma,Spain,Northeast,13 or older,yes,2021-03-28_19h53.02.530,empathy_intonation_perc,2020.2.10,MacIntel,60,,,,,,,,,,,,,,,,,,,,41,,,,,,,,,,,,,,,,,,,,,,,,,,,,,,,,,,,,,,,,,,,,,,,,,,,,,,2,0,40,40,40,1,"I can easily tell if someone else is interested or bored with what I am 
  saying.",1,0,1,0
,,,,,,,midd25,midd,ma,Spain,Northeast,13 or older,yes,2021-03-28_19h53.02.530,empathy_intonation_perc,2020.2.10,MacIntel,60,,,,,,,,,,,,,,,,,,,,42,,,,,,,,,,,,,,,,,,,,,,,,,,,,,,,,,,,,,,,,,,,,,,,,,,,,,,2,0,41,41,41,1,I get upset if I see people suffering on news programmes.,1,0,1,0
,,,,,,,midd25,midd,ma,Spain,Northeast,13 or older,yes,2021-03-28_19h53.02.530,empathy_intonation_perc,2020.2.10,MacIntel,60,,,,,,,,,,,,,,,,,,,,43,,,,,,,,,,,,,,,,,,,,,,,,,,,,,,,,,,,,,,,,,,,,,,,,,,,,,,2,0,42,42,42,1,"Friends usually talk to me about their problems as they say that I am very 
  understanding.",1,0,1,0
,,,,,,,midd25,midd,ma,Spain,Northeast,13 or older,yes,2021-03-28_19h53.02.530,empathy_intonation_perc,2020.2.10,MacIntel,60,,,,,,,,,,,,,,,,,,,,44,,,,,,,,,,,,,,,,,,,,,,,,,,,,,,,,,,,,,,,,,,,,,,,,,,,,,,2,0,43,43,43,1,"I can sense if I am intruding, even if the other person doesnt tell me.",1,0,1,0
,,,,,,,midd25,midd,ma,Spain,Northeast,13 or older,yes,2021-03-28_19h53.02.530,empathy_intonation_perc,2020.2.10,MacIntel,60,,,,,,,,,,,,,,,,,,,,45,,,,,,,,,,,,,,,,,,,,,,,,,,,,,,,,,,,,,,,,,,,,,,,,,,,,,,4,0,44,44,44,1,"I often start new hobbies but quickly become bored with them and move on to 
  something else.",0,1,0,0
