instructions_2afc_loop.thisRepN,instructions_2afc_loop.thisTrialN,instructions_2afc_loop.thisN,instructions_2afc_loop.thisIndex,instructions_2afc_loop.ran,instructions_text,continue_text,participant,study_id,session,I am most familiar with Spanish from...*,What part of the US are you from?*,At what age did you begin learning Spanish?*,Are you proficient in any languages other than English/Spanish?*,date,expName,psychopyVersion,OS,frameRate,fbclid,key_resp_2afc_practice.keys,key_resp_2afc_practice.corr,key_resp_2afc_practice.rt,trials_2afc_practice_loop.thisRepN,trials_2afc_practice_loop.thisTrialN,trials_2afc_practice_loop.thisN,trials_2afc_practice_loop.thisIndex,trials_2afc_practice_loop.ran,path,correct_response,the_col,key_resp_2afc_trial.keys,key_resp_2afc_trial.corr,key_resp_2afc_trial.rt,trials_2afc_loop.thisRepN,trials_2afc_loop.thisTrialN,trials_2afc_loop.thisN,trials_2afc_loop.thisIndex,trials_2afc_loop.ran,item_num,andalusian,argentine,castilian,chilean,cuban,mexican,peruvian,puertorican,key_resp_ac1.keys,key_resp_ac1.corr,key_resp_ac1.rt,ac1_loop.thisRepN,ac1_loop.thisTrialN,ac1_loop.thisN,ac1_loop.thisIndex,ac1_loop.ran,instructions_lextale_loop.thisRepN,instructions_lextale_loop.thisTrialN,instructions_lextale_loop.thisN,instructions_lextale_loop.thisIndex,instructions_lextale_loop.ran,key_resp_lextale_practice.keys,key_resp_lextale_practice.corr,key_resp_lextale_practice.rt,trials_lextale_practice_loop.thisRepN,trials_lextale_practice_loop.thisTrialN,trials_lextale_practice_loop.thisN,trials_lextale_practice_loop.thisIndex,trials_lextale_practice_loop.ran,stim,word,prac_button_real,prac_button_false,key_resp_lextale_trial.keys,key_resp_lextale_trial.corr,key_resp_lextale_trial.rt,trials_lextale_loop.thisRepN,trials_lextale_loop.thisTrialN,trials_lextale_loop.thisN,trials_lextale_loop.thisIndex,trials_lextale_loop.ran,button_real,button_false,key_resp_ac2.keys,key_resp_ac2.corr,key_resp_ac2.rt,check_pass,check_fails,ac2_loop.thisRepN,ac2_loop.thisTrialN,ac2_loop.thisN,ac2_loop.thisIndex,ac2_loop.ran,slider_eq_trial.response,trials_eq_loop.thisRepN,trials_eq_loop.thisTrialN,trials_eq_loop.thisN,trials_eq_loop.thisIndex,trials_eq_loop.ran,item,is_test_item,is_distractor,is_agree_score,is_disagree_score
0,0,0,0,1,"In the following task you are going to hear a series of utterances. 

  You will decide if the utterances sound like questions or not using your keyboard.",(press the spacebar to continue),midd07,midd,ma,Spain,West coast,13 or older,no,2021-03-30_10h12.55.905,empathy_intonation_perc,2020.2.10,MacIntel,60,IwAR0gT2z5jgxHzR0GPQkPYNpROplPwVFoqLMWguVy4zf-nKO2Ot8jkdQ8DK0,,,,,,,,,,,,,,,,,,,,,,,,,,,,,,,,,,,,,,,,,,,,,,,,,,,,,,,,,,,,,,,,,,,,,,,,,,,,,,,,,,,,
0,1,1,1,1,"If you believe the utterance is a question, type '1' (for 'yes') and if you do not 
  believe it is a question type '0' (for 'no').

  Let's practice a bit...",(press the spacebar to continue),midd07,midd,ma,Spain,West coast,13 or older,no,2021-03-30_10h12.55.905,empathy_intonation_perc,2020.2.10,MacIntel,60,IwAR0gT2z5jgxHzR0GPQkPYNpROplPwVFoqLMWguVy4zf-nKO2Ot8jkdQ8DK0,,,,,,,,,,,,,,,,,,,,,,,,,,,,,,,,,,,,,,,,,,,,,,,,,,,,,,,,,,,,,,,,,,,,,,,,,,,,,,,,,,,,
,,,,,,,midd07,midd,ma,Spain,West coast,13 or older,no,2021-03-30_10h12.55.905,empathy_intonation_perc,2020.2.10,MacIntel,60,IwAR0gT2z5jgxHzR0GPQkPYNpROplPwVFoqLMWguVy4zf-nKO2Ot8jkdQ8DK0,1,1,3.415775,0,0,0,3,1,./stim/wavs/mexican_question_filler_Felipe-no-tiene-contrasena.wav,1,,,,,,,,,,,,,,,,,,,,,,,,,,,,,,,,,,,,,,,,,,,,,,,,,,,,,,,,,,,,,,,,,,,,,,,,,,
,,,,,,,midd07,midd,ma,Spain,West coast,13 or older,no,2021-03-30_10h12.55.905,empathy_intonation_perc,2020.2.10,MacIntel,60,IwAR0gT2z5jgxHzR0GPQkPYNpROplPwVFoqLMWguVy4zf-nKO2Ot8jkdQ8DK0,0,1,2.18488,0,1,1,7,1,./stim/wavs/puertorican_statement_filler_La-nina-pinta-con-su-amiga.wav,0,,,,,,,,,,,,,,,,,,,,,,,,,,,,,,,,,,,,,,,,,,,,,,,,,,,,,,,,,,,,,,,,,,,,,,,,,,
,,,,,,,midd07,midd,ma,Spain,West coast,13 or older,no,2021-03-30_10h12.55.905,empathy_intonation_perc,2020.2.10,MacIntel,60,IwAR0gT2z5jgxHzR0GPQkPYNpROplPwVFoqLMWguVy4zf-nKO2Ot8jkdQ8DK0,0,0,2.637055,0,2,2,2,1,./stim/wavs/chilean_question_filler_Mi-padre-cantaba-bien.wav,1,,,,,,,,,,,,,,,,,,,,,,,,,,,,,,,,,,,,,,,,,,,,,,,,,,,,,,,,,,,,,,,,,,,,,,,,,,
,,,,,,,midd07,midd,ma,Spain,West coast,13 or older,no,2021-03-30_10h12.55.905,empathy_intonation_perc,2020.2.10,MacIntel,60,IwAR0gT2z5jgxHzR0GPQkPYNpROplPwVFoqLMWguVy4zf-nKO2Ot8jkdQ8DK0,1,1,1.950325,0,3,3,1,1,./stim/wavs/argentine_question_filler_Mi-vecino-habla-mucho.wav,1,,,,,,,,,,,,,,,,,,,,,,,,,,,,,,,,,,,,,,,,,,,,,,,,,,,,,,,,,,,,,,,,,,,,,,,,,,
,,,,,,,midd07,midd,ma,Spain,West coast,13 or older,no,2021-03-30_10h12.55.905,empathy_intonation_perc,2020.2.10,MacIntel,60,IwAR0gT2z5jgxHzR0GPQkPYNpROplPwVFoqLMWguVy4zf-nKO2Ot8jkdQ8DK0,0,1,2.451165,0,4,4,5,1,./stim/wavs/andalusian_statement_filler_Alberto-nunca-se-afeita.wav,0,,,,,,,,,,,,,,,,,,,,,,,,,,,,,,,,,,,,,,,,,,,,,,,,,,,,,,,,,,,,,,,,,,,,,,,,,,
,,,,,,,midd07,midd,ma,Spain,West coast,13 or older,no,2021-03-30_10h12.55.905,empathy_intonation_perc,2020.2.10,MacIntel,60,IwAR0gT2z5jgxHzR0GPQkPYNpROplPwVFoqLMWguVy4zf-nKO2Ot8jkdQ8DK0,0,1,3.09984,0,5,5,6,1,./stim/wavs/peruvian_statement_filler_El-nino-habla-con-su-madre.wav,0,,,,,,,,,,,,,,,,,,,,,,,,,,,,,,,,,,,,,,,,,,,,,,,,,,,,,,,,,,,,,,,,,,,,,,,,,,
,,,,,,,midd07,midd,ma,Spain,West coast,13 or older,no,2021-03-30_10h12.55.905,empathy_intonation_perc,2020.2.10,MacIntel,60,IwAR0gT2z5jgxHzR0GPQkPYNpROplPwVFoqLMWguVy4zf-nKO2Ot8jkdQ8DK0,0,1,2.08372,0,6,6,4,1,./stim/wavs/cuban_statement_filler_Cocinabas-por-la-noche.wav,0,,,,,,,,,,,,,,,,,,,,,,,,,,,,,,,,,,,,,,,,,,,,,,,,,,,,,,,,,,,,,,,,,,,,,,,,,,
,,,,,,,midd07,midd,ma,Spain,West coast,13 or older,no,2021-03-30_10h12.55.905,empathy_intonation_perc,2020.2.10,MacIntel,60,IwAR0gT2z5jgxHzR0GPQkPYNpROplPwVFoqLMWguVy4zf-nKO2Ot8jkdQ8DK0,1,1,2.45025,0,7,7,0,1,./stim/wavs/castilian_question_filler_Mi-esposo-conoce-al-chico.wav,1,,,,,,,,,,,,,,,,,,,,,,,,,,,,,,,,,,,,,,,,,,,,,,,,,,,,,,,,,,,,,,,,,,,,,,,,,,
,,,,,,,midd07,midd,ma,Spain,West coast,13 or older,no,2021-03-30_10h12.55.905,empathy_intonation_perc,2020.2.10,MacIntel,60,IwAR0gT2z5jgxHzR0GPQkPYNpROplPwVFoqLMWguVy4zf-nKO2Ot8jkdQ8DK0,,,,,,,,,,1,cuban,0,0,2.48361,0,0,0,51,1,52,./stim/wavs/andalusian_mismatch_interrogative-partial-wh_Por-que-desayuna-muy-bien.wav,./stim/wavs/argentine_mismatch_interrogative-partial-wh_Por-que-desayuna-muy-bien.wav,./stim/wavs/castilian_mismatch_interrogative-partial-wh_Por-que-desayuna-muy-bien.wav,./stim/wavs/chilean_mismatch_interrogative-partial-wh_Por-que-desayuna-muy-bien.wav,./stim/wavs/cuban_mismatch_interrogative-partial-wh_Por-que-desayuna-muy-bien.wav,./stim/wavs/mexican_mismatch_interrogative-partial-wh_Por-que-desayuna-muy-bien.wav,./stim/wavs/peruvian_mismatch_interrogative-partial-wh_Por-que-desayuna-muy-bien.wav,./stim/wavs/puertorican_mismatch_interrogative-partial-wh_Por-que-desayuna-muy-bien.wav,,,,,,,,,,,,,,,,,,,,,,,,,,,,,,,,,,,,,,,,,,,,,,,,,,,,,,,,
,,,,,,,midd07,midd,ma,Spain,West coast,13 or older,no,2021-03-30_10h12.55.905,empathy_intonation_perc,2020.2.10,MacIntel,60,IwAR0gT2z5jgxHzR0GPQkPYNpROplPwVFoqLMWguVy4zf-nKO2Ot8jkdQ8DK0,,,,,,,,,,0,castilian,0,1,2.26832,0,1,1,6,1,7,./stim/wavs/andalusian_match_declarative-broad-focus_Mariano-habla-del-tiempo.wav,./stim/wavs/argentine_match_declarative-broad-focus_Mariano-habla-del-tiempo.wav,./stim/wavs/castilian_match_declarative-broad-focus_Mariano-habla-del-tiempo.wav,./stim/wavs/chilean_match_declarative-broad-focus_Mariano-habla-del-tiempo.wav,./stim/wavs/cuban_match_declarative-broad-focus_Mariano-habla-del-tiempo.wav,./stim/wavs/mexican_match_declarative-broad-focus_Mariano-habla-del-tiempo.wav,./stim/wavs/peruvian_match_declarative-broad-focus_Mariano-habla-del-tiempo.wav,./stim/wavs/puertorican_match_declarative-broad-focus_Mariano-habla-del-tiempo.wav,,,,,,,,,,,,,,,,,,,,,,,,,,,,,,,,,,,,,,,,,,,,,,,,,,,,,,,,
,,,,,,,midd07,midd,ma,Spain,West coast,13 or older,no,2021-03-30_10h12.55.905,empathy_intonation_perc,2020.2.10,MacIntel,60,IwAR0gT2z5jgxHzR0GPQkPYNpROplPwVFoqLMWguVy4zf-nKO2Ot8jkdQ8DK0,,,,,,,,,,1,mexican,1,1,2.08842,0,2,2,23,1,24,./stim/wavs/andalusian_match_interrogative-partial-wh_Por-que-iba-a-Bolivia.wav,./stim/wavs/argentine_match_interrogative-partial-wh_Por-que-iba-a-Bolivia.wav,./stim/wavs/castilian_match_interrogative-partial-wh_Por-que-iba-a-Bolivia.wav,./stim/wavs/chilean_match_interrogative-partial-wh_Por-que-iba-a-Bolivia.wav,./stim/wavs/cuban_match_interrogative-partial-wh_Por-que-iba-a-Bolivia.wav,./stim/wavs/mexican_match_interrogative-partial-wh_Por-que-iba-a-Bolivia.wav,./stim/wavs/peruvian_match_interrogative-partial-wh_Por-que-iba-a-Bolivia.wav,./stim/wavs/puertorican_match_interrogative-partial-wh_Por-que-iba-a-Bolivia.wav,,,,,,,,,,,,,,,,,,,,,,,,,,,,,,,,,,,,,,,,,,,,,,,,,,,,,,,,
,,,,,,,midd07,midd,ma,Spain,West coast,13 or older,no,2021-03-30_10h12.55.905,empathy_intonation_perc,2020.2.10,MacIntel,60,IwAR0gT2z5jgxHzR0GPQkPYNpROplPwVFoqLMWguVy4zf-nKO2Ot8jkdQ8DK0,,,,,,,,,,0,puertorican,0,1,3.684085,0,3,3,42,1,43,./stim/wavs/andalusian_mismatch_declarative-narrow-focus_El-nino-oye-el-rio.wav,./stim/wavs/argentine_mismatch_declarative-narrow-focus_El-nino-oye-el-rio.wav,./stim/wavs/castilian_mismatch_declarative-narrow-focus_El-nino-oye-el-rio.wav,./stim/wavs/chilean_mismatch_declarative-narrow-focus_El-nino-oye-el-rio.wav,./stim/wavs/cuban_mismatch_declarative-narrow-focus_El-nino-oye-el-rio.wav,./stim/wavs/mexican_mismatch_declarative-narrow-focus_El-nino-oye-el-rio.wav,./stim/wavs/peruvian_mismatch_declarative-narrow-focus_El-nino-oye-el-rio.wav,./stim/wavs/puertorican_mismatch_declarative-narrow-focus_El-nino-oye-el-rio.wav,,,,,,,,,,,,,,,,,,,,,,,,,,,,,,,,,,,,,,,,,,,,,,,,,,,,,,,,
,,,,,,,midd07,midd,ma,Spain,West coast,13 or older,no,2021-03-30_10h12.55.905,empathy_intonation_perc,2020.2.10,MacIntel,60,IwAR0gT2z5jgxHzR0GPQkPYNpROplPwVFoqLMWguVy4zf-nKO2Ot8jkdQ8DK0,,,,,,,,,,0,chilean,0,1,4.116765,0,4,4,0,1,1,./stim/wavs/andalusian_match_declarative-broad-focus_Ana-lleva-el-abrigo.wav,./stim/wavs/argentine_match_declarative-broad-focus_Ana-lleva-el-abrigo.wav,./stim/wavs/castilian_match_declarative-broad-focus_Ana-lleva-el-abrigo.wav,./stim/wavs/chilean_match_declarative-broad-focus_Ana-lleva-el-abrigo.wav,./stim/wavs/cuban_match_declarative-broad-focus_Ana-lleva-el-abrigo.wav,./stim/wavs/mexican_match_declarative-broad-focus_Ana-lleva-el-abrigo.wav,./stim/wavs/peruvian_match_declarative-broad-focus_Ana-lleva-el-abrigo.wav,./stim/wavs/puertorican_match_declarative-broad-focus_Ana-lleva-el-abrigo.wav,,,,,,,,,,,,,,,,,,,,,,,,,,,,,,,,,,,,,,,,,,,,,,,,,,,,,,,,
,,,,,,,midd07,midd,ma,Spain,West coast,13 or older,no,2021-03-30_10h12.55.905,empathy_intonation_perc,2020.2.10,MacIntel,60,IwAR0gT2z5jgxHzR0GPQkPYNpROplPwVFoqLMWguVy4zf-nKO2Ot8jkdQ8DK0,,,,,,,,,,0,mexican,0,1,2.314005,0,5,5,5,1,6,./stim/wavs/andalusian_match_declarative-broad-focus_Maria-bebe-el-vino.wav,./stim/wavs/argentine_match_declarative-broad-focus_Maria-bebe-el-vino.wav,./stim/wavs/castilian_match_declarative-broad-focus_Maria-bebe-el-vino.wav,./stim/wavs/chilean_match_declarative-broad-focus_Maria-bebe-el-vino.wav,./stim/wavs/cuban_match_declarative-broad-focus_Maria-bebe-el-vino.wav,./stim/wavs/mexican_match_declarative-broad-focus_Maria-bebe-el-vino.wav,./stim/wavs/peruvian_match_declarative-broad-focus_Maria-bebe-el-vino.wav,./stim/wavs/puertorican_match_declarative-broad-focus_Maria-bebe-el-vino.wav,,,,,,,,,,,,,,,,,,,,,,,,,,,,,,,,,,,,,,,,,,,,,,,,,,,,,,,,
,,,,,,,midd07,midd,ma,Spain,West coast,13 or older,no,2021-03-30_10h12.55.905,empathy_intonation_perc,2020.2.10,MacIntel,60,IwAR0gT2z5jgxHzR0GPQkPYNpROplPwVFoqLMWguVy4zf-nKO2Ot8jkdQ8DK0,,,,,,,,,,0,castilian,0,1,3.61698,0,6,6,3,1,4,./stim/wavs/andalusian_match_declarative-broad-focus_Emilio-ama-la-marcha.wav,./stim/wavs/argentine_match_declarative-broad-focus_Emilio-ama-la-marcha.wav,./stim/wavs/castilian_match_declarative-broad-focus_Emilio-ama-la-marcha.wav,./stim/wavs/chilean_match_declarative-broad-focus_Emilio-ama-la-marcha.wav,./stim/wavs/cuban_match_declarative-broad-focus_Emilio-ama-la-marcha.wav,./stim/wavs/mexican_match_declarative-broad-focus_Emilio-ama-la-marcha.wav,./stim/wavs/peruvian_match_declarative-broad-focus_Emilio-ama-la-marcha.wav,./stim/wavs/puertorican_match_declarative-broad-focus_Emilio-ama-la-marcha.wav,,,,,,,,,,,,,,,,,,,,,,,,,,,,,,,,,,,,,,,,,,,,,,,,,,,,,,,,
,,,,,,,midd07,midd,ma,Spain,West coast,13 or older,no,2021-03-30_10h12.55.905,empathy_intonation_perc,2020.2.10,MacIntel,60,IwAR0gT2z5jgxHzR0GPQkPYNpROplPwVFoqLMWguVy4zf-nKO2Ot8jkdQ8DK0,,,,,,,,,,0,puertorican,0,1,3.356615,0,7,7,45,1,46,./stim/wavs/andalusian_mismatch_declarative-narrow-focus_Mi-madre-come-la-fruta.wav,./stim/wavs/argentine_mismatch_declarative-narrow-focus_Mi-madre-come-la-fruta.wav,./stim/wavs/castilian_mismatch_declarative-narrow-focus_Mi-madre-come-la-fruta.wav,./stim/wavs/chilean_mismatch_declarative-narrow-focus_Mi-madre-come-la-fruta.wav,./stim/wavs/cuban_mismatch_declarative-narrow-focus_Mi-madre-come-la-fruta.wav,./stim/wavs/mexican_mismatch_declarative-narrow-focus_Mi-madre-come-la-fruta.wav,./stim/wavs/peruvian_mismatch_declarative-narrow-focus_Mi-madre-come-la-fruta.wav,./stim/wavs/puertorican_mismatch_declarative-narrow-focus_Mi-madre-come-la-fruta.wav,,,,,,,,,,,,,,,,,,,,,,,,,,,,,,,,,,,,,,,,,,,,,,,,,,,,,,,,
,,,,,,,midd07,midd,ma,Spain,West coast,13 or older,no,2021-03-30_10h12.55.905,empathy_intonation_perc,2020.2.10,MacIntel,60,IwAR0gT2z5jgxHzR0GPQkPYNpROplPwVFoqLMWguVy4zf-nKO2Ot8jkdQ8DK0,,,,,,,,,,1,andalusian,1,1,1.983375,0,8,8,26,1,27,./stim/wavs/andalusian_match_interrogative-total-yn_David-leia-el-libro.wav,./stim/wavs/argentine_match_interrogative-total-yn_David-leia-el-libro.wav,./stim/wavs/castilian_match_interrogative-total-yn_David-leia-el-libro.wav,./stim/wavs/chilean_match_interrogative-total-yn_David-leia-el-libro.wav,./stim/wavs/cuban_match_interrogative-total-yn_David-leia-el-libro.wav,./stim/wavs/mexican_match_interrogative-total-yn_David-leia-el-libro.wav,./stim/wavs/peruvian_match_interrogative-total-yn_David-leia-el-libro.wav,./stim/wavs/puertorican_match_interrogative-total-yn_David-leia-el-libro.wav,,,,,,,,,,,,,,,,,,,,,,,,,,,,,,,,,,,,,,,,,,,,,,,,,,,,,,,,
,,,,,,,midd07,midd,ma,Spain,West coast,13 or older,no,2021-03-30_10h12.55.905,empathy_intonation_perc,2020.2.10,MacIntel,60,IwAR0gT2z5jgxHzR0GPQkPYNpROplPwVFoqLMWguVy4zf-nKO2Ot8jkdQ8DK0,,,,,,,,,,0,castilian,0,1,4.47214,0,9,9,35,1,36,./stim/wavs/andalusian_mismatch_declarative-broad-focus_La-maestra-vive-en-Paris.wav,./stim/wavs/argentine_mismatch_declarative-broad-focus_La-maestra-vive-en-Paris.wav,./stim/wavs/castilian_mismatch_declarative-broad-focus_La-maestra-vive-en-Paris.wav,./stim/wavs/chilean_mismatch_declarative-broad-focus_La-maestra-vive-en-Paris.wav,./stim/wavs/cuban_mismatch_declarative-broad-focus_La-maestra-vive-en-Paris.wav,./stim/wavs/mexican_mismatch_declarative-broad-focus_La-maestra-vive-en-Paris.wav,./stim/wavs/peruvian_mismatch_declarative-broad-focus_La-maestra-vive-en-Paris.wav,./stim/wavs/puertorican_mismatch_declarative-broad-focus_La-maestra-vive-en-Paris.wav,,,,,,,,,,,,,,,,,,,,,,,,,,,,,,,,,,,,,,,,,,,,,,,,,,,,,,,,
,,,,,,,midd07,midd,ma,Spain,West coast,13 or older,no,2021-03-30_10h12.55.905,empathy_intonation_perc,2020.2.10,MacIntel,60,IwAR0gT2z5jgxHzR0GPQkPYNpROplPwVFoqLMWguVy4zf-nKO2Ot8jkdQ8DK0,,,,,,,,,,1,chilean,1,1,2.08371,0,10,10,55,1,56,./stim/wavs/andalusian_mismatch_interrogative-partial-wh_Por-que-vivia-en-Paris.wav,./stim/wavs/argentine_mismatch_interrogative-partial-wh_Por-que-vivia-en-Paris.wav,./stim/wavs/castilian_mismatch_interrogative-partial-wh_Por-que-vivia-en-Paris.wav,./stim/wavs/chilean_mismatch_interrogative-partial-wh_Por-que-vivia-en-Paris.wav,./stim/wavs/cuban_mismatch_interrogative-partial-wh_Por-que-vivia-en-Paris.wav,./stim/wavs/mexican_mismatch_interrogative-partial-wh_Por-que-vivia-en-Paris.wav,./stim/wavs/peruvian_mismatch_interrogative-partial-wh_Por-que-vivia-en-Paris.wav,./stim/wavs/puertorican_mismatch_interrogative-partial-wh_Por-que-vivia-en-Paris.wav,,,,,,,,,,,,,,,,,,,,,,,,,,,,,,,,,,,,,,,,,,,,,,,,,,,,,,,,
,,,,,,,midd07,midd,ma,Spain,West coast,13 or older,no,2021-03-30_10h12.55.905,empathy_intonation_perc,2020.2.10,MacIntel,60,IwAR0gT2z5jgxHzR0GPQkPYNpROplPwVFoqLMWguVy4zf-nKO2Ot8jkdQ8DK0,,,,,,,,,,0,chilean,0,1,2.048895,0,11,11,41,1,42,./stim/wavs/andalusian_mismatch_declarative-narrow-focus_El-hombre-mira-la-luna.wav,./stim/wavs/argentine_mismatch_declarative-narrow-focus_El-hombre-mira-la-luna.wav,./stim/wavs/castilian_mismatch_declarative-narrow-focus_El-hombre-mira-la-luna.wav,./stim/wavs/chilean_mismatch_declarative-narrow-focus_El-hombre-mira-la-luna.wav,./stim/wavs/cuban_mismatch_declarative-narrow-focus_El-hombre-mira-la-luna.wav,./stim/wavs/mexican_mismatch_declarative-narrow-focus_El-hombre-mira-la-luna.wav,./stim/wavs/peruvian_mismatch_declarative-narrow-focus_El-hombre-mira-la-luna.wav,./stim/wavs/puertorican_mismatch_declarative-narrow-focus_El-hombre-mira-la-luna.wav,,,,,,,,,,,,,,,,,,,,,,,,,,,,,,,,,,,,,,,,,,,,,,,,,,,,,,,,
,,,,,,,midd07,midd,ma,Spain,West coast,13 or older,no,2021-03-30_10h12.55.905,empathy_intonation_perc,2020.2.10,MacIntel,60,IwAR0gT2z5jgxHzR0GPQkPYNpROplPwVFoqLMWguVy4zf-nKO2Ot8jkdQ8DK0,,,,,,,,,,1,cuban,1,1,1.968655,0,12,12,20,1,21,./stim/wavs/andalusian_match_interrogative-partial-wh_Por-que-abre-el-regalo.wav,./stim/wavs/argentine_match_interrogative-partial-wh_Por-que-abre-el-regalo.wav,./stim/wavs/castilian_match_interrogative-partial-wh_Por-que-abre-el-regalo.wav,./stim/wavs/chilean_match_interrogative-partial-wh_Por-que-abre-el-regalo.wav,./stim/wavs/cuban_match_interrogative-partial-wh_Por-que-abre-el-regalo.wav,./stim/wavs/mexican_match_interrogative-partial-wh_Por-que-abre-el-regalo.wav,./stim/wavs/peruvian_match_interrogative-partial-wh_Por-que-abre-el-regalo.wav,./stim/wavs/puertorican_match_interrogative-partial-wh_Por-que-abre-el-regalo.wav,,,,,,,,,,,,,,,,,,,,,,,,,,,,,,,,,,,,,,,,,,,,,,,,,,,,,,,,
,,,,,,,midd07,midd,ma,Spain,West coast,13 or older,no,2021-03-30_10h12.55.905,empathy_intonation_perc,2020.2.10,MacIntel,60,IwAR0gT2z5jgxHzR0GPQkPYNpROplPwVFoqLMWguVy4zf-nKO2Ot8jkdQ8DK0,,,,,,,,,,0,chilean,0,1,1.81788,0,13,13,33,1,34,./stim/wavs/andalusian_mismatch_declarative-broad-focus_El-hombre-mira-la-luna.wav,./stim/wavs/argentine_mismatch_declarative-broad-focus_El-hombre-mira-la-luna.wav,./stim/wavs/castilian_mismatch_declarative-broad-focus_El-hombre-mira-la-luna.wav,./stim/wavs/chilean_mismatch_declarative-broad-focus_El-hombre-mira-la-luna.wav,./stim/wavs/cuban_mismatch_declarative-broad-focus_El-hombre-mira-la-luna.wav,./stim/wavs/mexican_mismatch_declarative-broad-focus_El-hombre-mira-la-luna.wav,./stim/wavs/peruvian_mismatch_declarative-broad-focus_El-hombre-mira-la-luna.wav,./stim/wavs/puertorican_mismatch_declarative-broad-focus_El-hombre-mira-la-luna.wav,,,,,,,,,,,,,,,,,,,,,,,,,,,,,,,,,,,,,,,,,,,,,,,,,,,,,,,,
,,,,,,,midd07,midd,ma,Spain,West coast,13 or older,no,2021-03-30_10h12.55.905,empathy_intonation_perc,2020.2.10,MacIntel,60,IwAR0gT2z5jgxHzR0GPQkPYNpROplPwVFoqLMWguVy4zf-nKO2Ot8jkdQ8DK0,,,,,,,,,,1,peruvian,1,1,2.184215,0,14,14,19,1,20,./stim/wavs/andalusian_match_interrogative-partial-wh_Cuando-vendia-el-carro.wav,./stim/wavs/argentine_match_interrogative-partial-wh_Cuando-vendia-el-carro.wav,./stim/wavs/castilian_match_interrogative-partial-wh_Cuando-vendia-el-carro.wav,./stim/wavs/chilean_match_interrogative-partial-wh_Cuando-vendia-el-carro.wav,./stim/wavs/cuban_match_interrogative-partial-wh_Cuando-vendia-el-carro.wav,./stim/wavs/mexican_match_interrogative-partial-wh_Cuando-vendia-el-carro.wav,./stim/wavs/peruvian_match_interrogative-partial-wh_Cuando-vendia-el-carro.wav,./stim/wavs/puertorican_match_interrogative-partial-wh_Cuando-vendia-el-carro.wav,,,,,,,,,,,,,,,,,,,,,,,,,,,,,,,,,,,,,,,,,,,,,,,,,,,,,,,,
,,,,,,,midd07,midd,ma,Spain,West coast,13 or older,no,2021-03-30_10h12.55.905,empathy_intonation_perc,2020.2.10,MacIntel,60,IwAR0gT2z5jgxHzR0GPQkPYNpROplPwVFoqLMWguVy4zf-nKO2Ot8jkdQ8DK0,,,,,,,,,,1,chilean,1,1,2.56747,0,15,15,57,1,58,./stim/wavs/andalusian_mismatch_interrogative-total-yn_El-hombre-mira-la-luna.wav,./stim/wavs/argentine_mismatch_interrogative-total-yn_El-hombre-mira-la-luna.wav,./stim/wavs/castilian_mismatch_interrogative-total-yn_El-hombre-mira-la-luna.wav,./stim/wavs/chilean_mismatch_interrogative-total-yn_El-hombre-mira-la-luna.wav,./stim/wavs/cuban_mismatch_interrogative-total-yn_El-hombre-mira-la-luna.wav,./stim/wavs/mexican_mismatch_interrogative-total-yn_El-hombre-mira-la-luna.wav,./stim/wavs/peruvian_mismatch_interrogative-total-yn_El-hombre-mira-la-luna.wav,./stim/wavs/puertorican_mismatch_interrogative-total-yn_El-hombre-mira-la-luna.wav,,,,,,,,,,,,,,,,,,,,,,,,,,,,,,,,,,,,,,,,,,,,,,,,,,,,,,,,
,,,,,,,midd07,midd,ma,Spain,West coast,13 or older,no,2021-03-30_10h12.55.905,empathy_intonation_perc,2020.2.10,MacIntel,60,IwAR0gT2z5jgxHzR0GPQkPYNpROplPwVFoqLMWguVy4zf-nKO2Ot8jkdQ8DK0,,,,,,,,,,0,argentine,0,1,2.15351,0,16,16,11,1,12,./stim/wavs/andalusian_match_declarative-narrow-focus_Emilio-ama-la-marcha.wav,./stim/wavs/argentine_match_declarative-narrow-focus_Emilio-ama-la-marcha.wav,./stim/wavs/castilian_match_declarative-narrow-focus_Emilio-ama-la-marcha.wav,./stim/wavs/chilean_match_declarative-narrow-focus_Emilio-ama-la-marcha.wav,./stim/wavs/cuban_match_declarative-narrow-focus_Emilio-ama-la-marcha.wav,./stim/wavs/mexican_match_declarative-narrow-focus_Emilio-ama-la-marcha.wav,./stim/wavs/peruvian_match_declarative-narrow-focus_Emilio-ama-la-marcha.wav,./stim/wavs/puertorican_match_declarative-narrow-focus_Emilio-ama-la-marcha.wav,,,,,,,,,,,,,,,,,,,,,,,,,,,,,,,,,,,,,,,,,,,,,,,,,,,,,,,,
,,,,,,,midd07,midd,ma,Spain,West coast,13 or older,no,2021-03-30_10h12.55.905,empathy_intonation_perc,2020.2.10,MacIntel,60,IwAR0gT2z5jgxHzR0GPQkPYNpROplPwVFoqLMWguVy4zf-nKO2Ot8jkdQ8DK0,,,,,,,,,,0,mexican,0,1,2.0502,0,17,17,44,1,45,./stim/wavs/andalusian_mismatch_declarative-narrow-focus_La-nina-lava-el-plato.wav,./stim/wavs/argentine_mismatch_declarative-narrow-focus_La-nina-lava-el-plato.wav,./stim/wavs/castilian_mismatch_declarative-narrow-focus_La-nina-lava-el-plato.wav,./stim/wavs/chilean_mismatch_declarative-narrow-focus_La-nina-lava-el-plato.wav,./stim/wavs/cuban_mismatch_declarative-narrow-focus_La-nina-lava-el-plato.wav,./stim/wavs/mexican_mismatch_declarative-narrow-focus_La-nina-lava-el-plato.wav,./stim/wavs/peruvian_mismatch_declarative-narrow-focus_La-nina-lava-el-plato.wav,./stim/wavs/puertorican_mismatch_declarative-narrow-focus_La-nina-lava-el-plato.wav,,,,,,,,,,,,,,,,,,,,,,,,,,,,,,,,,,,,,,,,,,,,,,,,,,,,,,,,
,,,,,,,midd07,midd,ma,Spain,West coast,13 or older,no,2021-03-30_10h12.55.905,empathy_intonation_perc,2020.2.10,MacIntel,60,IwAR0gT2z5jgxHzR0GPQkPYNpROplPwVFoqLMWguVy4zf-nKO2Ot8jkdQ8DK0,,,,,,,,,,1,peruvian,1,1,2.45019,0,18,18,17,1,18,./stim/wavs/andalusian_match_interrogative-partial-wh_Cuando-leia-el-libro.wav,./stim/wavs/argentine_match_interrogative-partial-wh_Cuando-leia-el-libro.wav,./stim/wavs/castilian_match_interrogative-partial-wh_Cuando-leia-el-libro.wav,./stim/wavs/chilean_match_interrogative-partial-wh_Cuando-leia-el-libro.wav,./stim/wavs/cuban_match_interrogative-partial-wh_Cuando-leia-el-libro.wav,./stim/wavs/mexican_match_interrogative-partial-wh_Cuando-leia-el-libro.wav,./stim/wavs/peruvian_match_interrogative-partial-wh_Cuando-leia-el-libro.wav,./stim/wavs/puertorican_match_interrogative-partial-wh_Cuando-leia-el-libro.wav,,,,,,,,,,,,,,,,,,,,,,,,,,,,,,,,,,,,,,,,,,,,,,,,,,,,,,,,
,,,,,,,midd07,midd,ma,Spain,West coast,13 or older,no,2021-03-30_10h12.55.905,empathy_intonation_perc,2020.2.10,MacIntel,60,IwAR0gT2z5jgxHzR0GPQkPYNpROplPwVFoqLMWguVy4zf-nKO2Ot8jkdQ8DK0,,,,,,,,,,1,argentine,1,1,2.18432,0,19,19,52,1,53,./stim/wavs/andalusian_mismatch_interrogative-partial-wh_Por-que-odiaba-la-lluvia.wav,./stim/wavs/argentine_mismatch_interrogative-partial-wh_Por-que-odiaba-la-lluvia.wav,./stim/wavs/castilian_mismatch_interrogative-partial-wh_Por-que-odiaba-la-lluvia.wav,./stim/wavs/chilean_mismatch_interrogative-partial-wh_Por-que-odiaba-la-lluvia.wav,./stim/wavs/cuban_mismatch_interrogative-partial-wh_Por-que-odiaba-la-lluvia.wav,./stim/wavs/mexican_mismatch_interrogative-partial-wh_Por-que-odiaba-la-lluvia.wav,./stim/wavs/peruvian_mismatch_interrogative-partial-wh_Por-que-odiaba-la-lluvia.wav,./stim/wavs/puertorican_mismatch_interrogative-partial-wh_Por-que-odiaba-la-lluvia.wav,,,,,,,,,,,,,,,,,,,,,,,,,,,,,,,,,,,,,,,,,,,,,,,,,,,,,,,,
,,,,,,,midd07,midd,ma,Spain,West coast,13 or older,no,2021-03-30_10h12.55.905,empathy_intonation_perc,2020.2.10,MacIntel,60,IwAR0gT2z5jgxHzR0GPQkPYNpROplPwVFoqLMWguVy4zf-nKO2Ot8jkdQ8DK0,,,,,,,,,,1,cuban,1,1,1.5672,0,20,20,50,1,51,./stim/wavs/andalusian_mismatch_interrogative-partial-wh_Cuando-miraba-la-luna.wav,./stim/wavs/argentine_mismatch_interrogative-partial-wh_Cuando-miraba-la-luna.wav,./stim/wavs/castilian_mismatch_interrogative-partial-wh_Cuando-miraba-la-luna.wav,./stim/wavs/chilean_mismatch_interrogative-partial-wh_Cuando-miraba-la-luna.wav,./stim/wavs/cuban_mismatch_interrogative-partial-wh_Cuando-miraba-la-luna.wav,./stim/wavs/mexican_mismatch_interrogative-partial-wh_Cuando-miraba-la-luna.wav,./stim/wavs/peruvian_mismatch_interrogative-partial-wh_Cuando-miraba-la-luna.wav,./stim/wavs/puertorican_mismatch_interrogative-partial-wh_Cuando-miraba-la-luna.wav,,,,,,,,,,,,,,,,,,,,,,,,,,,,,,,,,,,,,,,,,,,,,,,,,,,,,,,,
,,,,,,,midd07,midd,ma,Spain,West coast,13 or older,no,2021-03-30_10h12.55.905,empathy_intonation_perc,2020.2.10,MacIntel,60,IwAR0gT2z5jgxHzR0GPQkPYNpROplPwVFoqLMWguVy4zf-nKO2Ot8jkdQ8DK0,,,,,,,,,,0,mexican,0,1,2.116625,0,21,21,1,1,2,./stim/wavs/andalusian_match_declarative-broad-focus_Daniel-iba-a-Bolivia.wav,./stim/wavs/argentine_match_declarative-broad-focus_Daniel-iba-a-Bolivia.wav,./stim/wavs/castilian_match_declarative-broad-focus_Daniel-iba-a-Bolivia.wav,./stim/wavs/chilean_match_declarative-broad-focus_Daniel-iba-a-Bolivia.wav,./stim/wavs/cuban_match_declarative-broad-focus_Daniel-iba-a-Bolivia.wav,./stim/wavs/mexican_match_declarative-broad-focus_Daniel-iba-a-Bolivia.wav,./stim/wavs/peruvian_match_declarative-broad-focus_Daniel-iba-a-Bolivia.wav,./stim/wavs/puertorican_match_declarative-broad-focus_Daniel-iba-a-Bolivia.wav,,,,,,,,,,,,,,,,,,,,,,,,,,,,,,,,,,,,,,,,,,,,,,,,,,,,,,,,
,,,,,,,midd07,midd,ma,Spain,West coast,13 or older,no,2021-03-30_10h12.55.905,empathy_intonation_perc,2020.2.10,MacIntel,60,IwAR0gT2z5jgxHzR0GPQkPYNpROplPwVFoqLMWguVy4zf-nKO2Ot8jkdQ8DK0,,,,,,,,,,1,cuban,0,0,2.500525,0,22,22,27,1,28,./stim/wavs/andalusian_match_interrogative-total-yn_Emilio-ama-la-marcha.wav,./stim/wavs/argentine_match_interrogative-total-yn_Emilio-ama-la-marcha.wav,./stim/wavs/castilian_match_interrogative-total-yn_Emilio-ama-la-marcha.wav,./stim/wavs/chilean_match_interrogative-total-yn_Emilio-ama-la-marcha.wav,./stim/wavs/cuban_match_interrogative-total-yn_Emilio-ama-la-marcha.wav,./stim/wavs/mexican_match_interrogative-total-yn_Emilio-ama-la-marcha.wav,./stim/wavs/peruvian_match_interrogative-total-yn_Emilio-ama-la-marcha.wav,./stim/wavs/puertorican_match_interrogative-total-yn_Emilio-ama-la-marcha.wav,,,,,,,,,,,,,,,,,,,,,,,,,,,,,,,,,,,,,,,,,,,,,,,,,,,,,,,,
,,,,,,,midd07,midd,ma,Spain,West coast,13 or older,no,2021-03-30_10h12.55.905,empathy_intonation_perc,2020.2.10,MacIntel,60,IwAR0gT2z5jgxHzR0GPQkPYNpROplPwVFoqLMWguVy4zf-nKO2Ot8jkdQ8DK0,,,,,,,,,,1,chilean,1,1,2.33654,0,23,23,22,1,23,./stim/wavs/andalusian_match_interrogative-partial-wh_Por-que-hablaba-del-agua.wav,./stim/wavs/argentine_match_interrogative-partial-wh_Por-que-hablaba-del-agua.wav,./stim/wavs/castilian_match_interrogative-partial-wh_Por-que-hablaba-del-agua.wav,./stim/wavs/chilean_match_interrogative-partial-wh_Por-que-hablaba-del-agua.wav,./stim/wavs/cuban_match_interrogative-partial-wh_Por-que-hablaba-del-agua.wav,./stim/wavs/mexican_match_interrogative-partial-wh_Por-que-hablaba-del-agua.wav,./stim/wavs/peruvian_match_interrogative-partial-wh_Por-que-hablaba-del-agua.wav,./stim/wavs/puertorican_match_interrogative-partial-wh_Por-que-hablaba-del-agua.wav,,,,,,,,,,,,,,,,,,,,,,,,,,,,,,,,,,,,,,,,,,,,,,,,,,,,,,,,
,,,,,,,midd07,midd,ma,Spain,West coast,13 or older,no,2021-03-30_10h12.55.905,empathy_intonation_perc,2020.2.10,MacIntel,60,IwAR0gT2z5jgxHzR0GPQkPYNpROplPwVFoqLMWguVy4zf-nKO2Ot8jkdQ8DK0,,,,,,,,,,0,puertorican,0,1,1.78657,0,24,24,38,1,39,./stim/wavs/andalusian_mismatch_declarative-broad-focus_Mi-novio-viene-del-lago.wav,./stim/wavs/argentine_mismatch_declarative-broad-focus_Mi-novio-viene-del-lago.wav,./stim/wavs/castilian_mismatch_declarative-broad-focus_Mi-novio-viene-del-lago.wav,./stim/wavs/chilean_mismatch_declarative-broad-focus_Mi-novio-viene-del-lago.wav,./stim/wavs/cuban_mismatch_declarative-broad-focus_Mi-novio-viene-del-lago.wav,./stim/wavs/mexican_mismatch_declarative-broad-focus_Mi-novio-viene-del-lago.wav,./stim/wavs/peruvian_mismatch_declarative-broad-focus_Mi-novio-viene-del-lago.wav,./stim/wavs/puertorican_mismatch_declarative-broad-focus_Mi-novio-viene-del-lago.wav,,,,,,,,,,,,,,,,,,,,,,,,,,,,,,,,,,,,,,,,,,,,,,,,,,,,,,,,
,,,,,,,midd07,midd,ma,Spain,West coast,13 or older,no,2021-03-30_10h12.55.905,empathy_intonation_perc,2020.2.10,MacIntel,60,IwAR0gT2z5jgxHzR0GPQkPYNpROplPwVFoqLMWguVy4zf-nKO2Ot8jkdQ8DK0,,,,,,,,,,0,andalusian,0,1,3.23348,0,25,25,12,1,13,./stim/wavs/andalusian_match_declarative-narrow-focus_Manuela-vende-el-carro.wav,./stim/wavs/argentine_match_declarative-narrow-focus_Manuela-vende-el-carro.wav,./stim/wavs/castilian_match_declarative-narrow-focus_Manuela-vende-el-carro.wav,./stim/wavs/chilean_match_declarative-narrow-focus_Manuela-vende-el-carro.wav,./stim/wavs/cuban_match_declarative-narrow-focus_Manuela-vende-el-carro.wav,./stim/wavs/mexican_match_declarative-narrow-focus_Manuela-vende-el-carro.wav,./stim/wavs/peruvian_match_declarative-narrow-focus_Manuela-vende-el-carro.wav,./stim/wavs/puertorican_match_declarative-narrow-focus_Manuela-vende-el-carro.wav,,,,,,,,,,,,,,,,,,,,,,,,,,,,,,,,,,,,,,,,,,,,,,,,,,,,,,,,
,,,,,,,midd07,midd,ma,Spain,West coast,13 or older,no,2021-03-30_10h12.55.905,empathy_intonation_perc,2020.2.10,MacIntel,60,IwAR0gT2z5jgxHzR0GPQkPYNpROplPwVFoqLMWguVy4zf-nKO2Ot8jkdQ8DK0,,,,,,,,,,1,peruvian,1,1,2.23389,0,26,26,54,1,55,./stim/wavs/andalusian_mismatch_interrogative-partial-wh_Por-que-venia-del-lago.wav,./stim/wavs/argentine_mismatch_interrogative-partial-wh_Por-que-venia-del-lago.wav,./stim/wavs/castilian_mismatch_interrogative-partial-wh_Por-que-venia-del-lago.wav,./stim/wavs/chilean_mismatch_interrogative-partial-wh_Por-que-venia-del-lago.wav,./stim/wavs/cuban_mismatch_interrogative-partial-wh_Por-que-venia-del-lago.wav,./stim/wavs/mexican_mismatch_interrogative-partial-wh_Por-que-venia-del-lago.wav,./stim/wavs/peruvian_mismatch_interrogative-partial-wh_Por-que-venia-del-lago.wav,./stim/wavs/puertorican_mismatch_interrogative-partial-wh_Por-que-venia-del-lago.wav,,,,,,,,,,,,,,,,,,,,,,,,,,,,,,,,,,,,,,,,,,,,,,,,,,,,,,,,
,,,,,,,midd07,midd,ma,Spain,West coast,13 or older,no,2021-03-30_10h12.55.905,empathy_intonation_perc,2020.2.10,MacIntel,60,IwAR0gT2z5jgxHzR0GPQkPYNpROplPwVFoqLMWguVy4zf-nKO2Ot8jkdQ8DK0,,,,,,,,,,0,mexican,0,1,2.569455,0,27,27,13,1,14,./stim/wavs/andalusian_match_declarative-narrow-focus_Maria-bebe-el-vino.wav,./stim/wavs/argentine_match_declarative-narrow-focus_Maria-bebe-el-vino.wav,./stim/wavs/castilian_match_declarative-narrow-focus_Maria-bebe-el-vino.wav,./stim/wavs/chilean_match_declarative-narrow-focus_Maria-bebe-el-vino.wav,./stim/wavs/cuban_match_declarative-narrow-focus_Maria-bebe-el-vino.wav,./stim/wavs/mexican_match_declarative-narrow-focus_Maria-bebe-el-vino.wav,./stim/wavs/peruvian_match_declarative-narrow-focus_Maria-bebe-el-vino.wav,./stim/wavs/puertorican_match_declarative-narrow-focus_Maria-bebe-el-vino.wav,,,,,,,,,,,,,,,,,,,,,,,,,,,,,,,,,,,,,,,,,,,,,,,,,,,,,,,,
,,,,,,,midd07,midd,ma,Spain,West coast,13 or older,no,2021-03-30_10h12.55.905,empathy_intonation_perc,2020.2.10,MacIntel,60,IwAR0gT2z5jgxHzR0GPQkPYNpROplPwVFoqLMWguVy4zf-nKO2Ot8jkdQ8DK0,,,,,,,,,,0,argentine,0,1,2.081335,0,28,28,7,1,8,./stim/wavs/andalusian_match_declarative-broad-focus_Marta-abre-el-regalo.wav,./stim/wavs/argentine_match_declarative-broad-focus_Marta-abre-el-regalo.wav,./stim/wavs/castilian_match_declarative-broad-focus_Marta-abre-el-regalo.wav,./stim/wavs/chilean_match_declarative-broad-focus_Marta-abre-el-regalo.wav,./stim/wavs/cuban_match_declarative-broad-focus_Marta-abre-el-regalo.wav,./stim/wavs/mexican_match_declarative-broad-focus_Marta-abre-el-regalo.wav,./stim/wavs/peruvian_match_declarative-broad-focus_Marta-abre-el-regalo.wav,./stim/wavs/puertorican_match_declarative-broad-focus_Marta-abre-el-regalo.wav,,,,,,,,,,,,,,,,,,,,,,,,,,,,,,,,,,,,,,,,,,,,,,,,,,,,,,,,
,,,,,,,midd07,midd,ma,Spain,West coast,13 or older,no,2021-03-30_10h12.55.905,empathy_intonation_perc,2020.2.10,MacIntel,60,IwAR0gT2z5jgxHzR0GPQkPYNpROplPwVFoqLMWguVy4zf-nKO2Ot8jkdQ8DK0,,,,,,,,,,0,castilian,0,1,2.5176,0,29,29,43,1,44,./stim/wavs/andalusian_mismatch_declarative-narrow-focus_La-maestra-vive-en-Paris.wav,./stim/wavs/argentine_mismatch_declarative-narrow-focus_La-maestra-vive-en-Paris.wav,./stim/wavs/castilian_mismatch_declarative-narrow-focus_La-maestra-vive-en-Paris.wav,./stim/wavs/chilean_mismatch_declarative-narrow-focus_La-maestra-vive-en-Paris.wav,./stim/wavs/cuban_mismatch_declarative-narrow-focus_La-maestra-vive-en-Paris.wav,./stim/wavs/mexican_mismatch_declarative-narrow-focus_La-maestra-vive-en-Paris.wav,./stim/wavs/peruvian_mismatch_declarative-narrow-focus_La-maestra-vive-en-Paris.wav,./stim/wavs/puertorican_mismatch_declarative-narrow-focus_La-maestra-vive-en-Paris.wav,,,,,,,,,,,,,,,,,,,,,,,,,,,,,,,,,,,,,,,,,,,,,,,,,,,,,,,,
,,,,,,,midd07,midd,ma,Spain,West coast,13 or older,no,2021-03-30_10h12.55.905,empathy_intonation_perc,2020.2.10,MacIntel,60,IwAR0gT2z5jgxHzR0GPQkPYNpROplPwVFoqLMWguVy4zf-nKO2Ot8jkdQ8DK0,,,,,,,,,,0,mexican,0,1,1.90031,0,30,30,37,1,38,./stim/wavs/andalusian_mismatch_declarative-broad-focus_Mi-madre-come-la-fruta.wav,./stim/wavs/argentine_mismatch_declarative-broad-focus_Mi-madre-come-la-fruta.wav,./stim/wavs/castilian_mismatch_declarative-broad-focus_Mi-madre-come-la-fruta.wav,./stim/wavs/chilean_mismatch_declarative-broad-focus_Mi-madre-come-la-fruta.wav,./stim/wavs/cuban_mismatch_declarative-broad-focus_Mi-madre-come-la-fruta.wav,./stim/wavs/mexican_mismatch_declarative-broad-focus_Mi-madre-come-la-fruta.wav,./stim/wavs/peruvian_mismatch_declarative-broad-focus_Mi-madre-come-la-fruta.wav,./stim/wavs/puertorican_mismatch_declarative-broad-focus_Mi-madre-come-la-fruta.wav,,,,,,,,,,,,,,,,,,,,,,,,,,,,,,,,,,,,,,,,,,,,,,,,,,,,,,,,
,,,,,,,midd07,midd,ma,Spain,West coast,13 or older,no,2021-03-30_10h12.55.905,empathy_intonation_perc,2020.2.10,MacIntel,60,IwAR0gT2z5jgxHzR0GPQkPYNpROplPwVFoqLMWguVy4zf-nKO2Ot8jkdQ8DK0,,,,,,,,,,1,castilian,1,1,1.96748,0,31,31,53,1,54,./stim/wavs/andalusian_mismatch_interrogative-partial-wh_Por-que-oia-el-rio.wav,./stim/wavs/argentine_mismatch_interrogative-partial-wh_Por-que-oia-el-rio.wav,./stim/wavs/castilian_mismatch_interrogative-partial-wh_Por-que-oia-el-rio.wav,./stim/wavs/chilean_mismatch_interrogative-partial-wh_Por-que-oia-el-rio.wav,./stim/wavs/cuban_mismatch_interrogative-partial-wh_Por-que-oia-el-rio.wav,./stim/wavs/mexican_mismatch_interrogative-partial-wh_Por-que-oia-el-rio.wav,./stim/wavs/peruvian_mismatch_interrogative-partial-wh_Por-que-oia-el-rio.wav,./stim/wavs/puertorican_mismatch_interrogative-partial-wh_Por-que-oia-el-rio.wav,,,,,,,,,,,,,,,,,,,,,,,,,,,,,,,,,,,,,,,,,,,,,,,,,,,,,,,,
,,,,,,,midd07,midd,ma,Spain,West coast,13 or older,no,2021-03-30_10h12.55.905,empathy_intonation_perc,2020.2.10,MacIntel,60,IwAR0gT2z5jgxHzR0GPQkPYNpROplPwVFoqLMWguVy4zf-nKO2Ot8jkdQ8DK0,,,,,,,,,,0,chilean,0,1,1.983225,0,32,32,39,1,40,./stim/wavs/andalusian_mismatch_declarative-broad-focus_Mi-tia-odia-la-lluvia.wav,./stim/wavs/argentine_mismatch_declarative-broad-focus_Mi-tia-odia-la-lluvia.wav,./stim/wavs/castilian_mismatch_declarative-broad-focus_Mi-tia-odia-la-lluvia.wav,./stim/wavs/chilean_mismatch_declarative-broad-focus_Mi-tia-odia-la-lluvia.wav,./stim/wavs/cuban_mismatch_declarative-broad-focus_Mi-tia-odia-la-lluvia.wav,./stim/wavs/mexican_mismatch_declarative-broad-focus_Mi-tia-odia-la-lluvia.wav,./stim/wavs/peruvian_mismatch_declarative-broad-focus_Mi-tia-odia-la-lluvia.wav,./stim/wavs/puertorican_mismatch_declarative-broad-focus_Mi-tia-odia-la-lluvia.wav,,,,,,,,,,,,,,,,,,,,,,,,,,,,,,,,,,,,,,,,,,,,,,,,,,,,,,,,
,,,,,,,midd07,midd,ma,Spain,West coast,13 or older,no,2021-03-30_10h12.55.905,empathy_intonation_perc,2020.2.10,MacIntel,60,IwAR0gT2z5jgxHzR0GPQkPYNpROplPwVFoqLMWguVy4zf-nKO2Ot8jkdQ8DK0,,,,,,,,,,1,cuban,1,1,3.48395,0,33,33,60,1,61,./stim/wavs/andalusian_mismatch_interrogative-total-yn_La-nina-lava-el-plato.wav,./stim/wavs/argentine_mismatch_interrogative-total-yn_La-nina-lava-el-plato.wav,./stim/wavs/castilian_mismatch_interrogative-total-yn_La-nina-lava-el-plato.wav,./stim/wavs/chilean_mismatch_interrogative-total-yn_La-nina-lava-el-plato.wav,./stim/wavs/cuban_mismatch_interrogative-total-yn_La-nina-lava-el-plato.wav,./stim/wavs/mexican_mismatch_interrogative-total-yn_La-nina-lava-el-plato.wav,./stim/wavs/peruvian_mismatch_interrogative-total-yn_La-nina-lava-el-plato.wav,./stim/wavs/puertorican_mismatch_interrogative-total-yn_La-nina-lava-el-plato.wav,,,,,,,,,,,,,,,,,,,,,,,,,,,,,,,,,,,,,,,,,,,,,,,,,,,,,,,,
,,,,,,,midd07,midd,ma,Spain,West coast,13 or older,no,2021-03-30_10h12.55.905,empathy_intonation_perc,2020.2.10,MacIntel,60,IwAR0gT2z5jgxHzR0GPQkPYNpROplPwVFoqLMWguVy4zf-nKO2Ot8jkdQ8DK0,,,,,,,,,,1,chilean,1,1,2.50623,0,34,34,56,1,57,./stim/wavs/andalusian_mismatch_interrogative-total-yn_El-bebe-comia-muy-bien.wav,./stim/wavs/argentine_mismatch_interrogative-total-yn_El-bebe-comia-muy-bien.wav,./stim/wavs/castilian_mismatch_interrogative-total-yn_El-bebe-comia-muy-bien.wav,./stim/wavs/chilean_mismatch_interrogative-total-yn_El-bebe-comia-muy-bien.wav,./stim/wavs/cuban_mismatch_interrogative-total-yn_El-bebe-comia-muy-bien.wav,./stim/wavs/mexican_mismatch_interrogative-total-yn_El-bebe-comia-muy-bien.wav,./stim/wavs/peruvian_mismatch_interrogative-total-yn_El-bebe-comia-muy-bien.wav,./stim/wavs/puertorican_mismatch_interrogative-total-yn_El-bebe-comia-muy-bien.wav,,,,,,,,,,,,,,,,,,,,,,,,,,,,,,,,,,,,,,,,,,,,,,,,,,,,,,,,
,,,,,,,midd07,midd,ma,Spain,West coast,13 or older,no,2021-03-30_10h12.55.905,empathy_intonation_perc,2020.2.10,MacIntel,60,IwAR0gT2z5jgxHzR0GPQkPYNpROplPwVFoqLMWguVy4zf-nKO2Ot8jkdQ8DK0,,,,,,,,,,1,peruvian,1,1,7.701985,0,35,35,21,1,22,./stim/wavs/andalusian_match_interrogative-partial-wh_Por-que-ama-la-navidad.wav,./stim/wavs/argentine_match_interrogative-partial-wh_Por-que-ama-la-navidad.wav,./stim/wavs/castilian_match_interrogative-partial-wh_Por-que-ama-la-navidad.wav,./stim/wavs/chilean_match_interrogative-partial-wh_Por-que-ama-la-navidad.wav,./stim/wavs/cuban_match_interrogative-partial-wh_Por-que-ama-la-navidad.wav,./stim/wavs/mexican_match_interrogative-partial-wh_Por-que-ama-la-navidad.wav,./stim/wavs/peruvian_match_interrogative-partial-wh_Por-que-ama-la-navidad.wav,./stim/wavs/puertorican_match_interrogative-partial-wh_Por-que-ama-la-navidad.wav,,,,,,,,,,,,,,,,,,,,,,,,,,,,,,,,,,,,,,,,,,,,,,,,,,,,,,,,
,,,,,,,midd07,midd,ma,Spain,West coast,13 or older,no,2021-03-30_10h12.55.905,empathy_intonation_perc,2020.2.10,MacIntel,60,IwAR0gT2z5jgxHzR0GPQkPYNpROplPwVFoqLMWguVy4zf-nKO2Ot8jkdQ8DK0,,,,,,,,,,0,peruvian,0,1,2.604855,0,36,36,4,1,5,./stim/wavs/andalusian_match_declarative-broad-focus_Manuela-vende-el-carro.wav,./stim/wavs/argentine_match_declarative-broad-focus_Manuela-vende-el-carro.wav,./stim/wavs/castilian_match_declarative-broad-focus_Manuela-vende-el-carro.wav,./stim/wavs/chilean_match_declarative-broad-focus_Manuela-vende-el-carro.wav,./stim/wavs/cuban_match_declarative-broad-focus_Manuela-vende-el-carro.wav,./stim/wavs/mexican_match_declarative-broad-focus_Manuela-vende-el-carro.wav,./stim/wavs/peruvian_match_declarative-broad-focus_Manuela-vende-el-carro.wav,./stim/wavs/puertorican_match_declarative-broad-focus_Manuela-vende-el-carro.wav,,,,,,,,,,,,,,,,,,,,,,,,,,,,,,,,,,,,,,,,,,,,,,,,,,,,,,,,
,,,,,,,midd07,midd,ma,Spain,West coast,13 or older,no,2021-03-30_10h12.55.905,empathy_intonation_perc,2020.2.10,MacIntel,60,IwAR0gT2z5jgxHzR0GPQkPYNpROplPwVFoqLMWguVy4zf-nKO2Ot8jkdQ8DK0,,,,,,,,,,1,peruvian,1,1,2.388265,0,37,37,25,1,26,./stim/wavs/andalusian_match_interrogative-total-yn_Daniel-iba-a-Bolivia.wav,./stim/wavs/argentine_match_interrogative-total-yn_Daniel-iba-a-Bolivia.wav,./stim/wavs/castilian_match_interrogative-total-yn_Daniel-iba-a-Bolivia.wav,./stim/wavs/chilean_match_interrogative-total-yn_Daniel-iba-a-Bolivia.wav,./stim/wavs/cuban_match_interrogative-total-yn_Daniel-iba-a-Bolivia.wav,./stim/wavs/mexican_match_interrogative-total-yn_Daniel-iba-a-Bolivia.wav,./stim/wavs/peruvian_match_interrogative-total-yn_Daniel-iba-a-Bolivia.wav,./stim/wavs/puertorican_match_interrogative-total-yn_Daniel-iba-a-Bolivia.wav,,,,,,,,,,,,,,,,,,,,,,,,,,,,,,,,,,,,,,,,,,,,,,,,,,,,,,,,
,,,,,,,midd07,midd,ma,Spain,West coast,13 or older,no,2021-03-30_10h12.55.905,empathy_intonation_perc,2020.2.10,MacIntel,60,IwAR0gT2z5jgxHzR0GPQkPYNpROplPwVFoqLMWguVy4zf-nKO2Ot8jkdQ8DK0,,,,,,,,,,1,mexican,1,1,2.15137,0,38,38,62,1,63,./stim/wavs/andalusian_mismatch_interrogative-total-yn_Mi-novio-viene-del-lago.wav,./stim/wavs/argentine_mismatch_interrogative-total-yn_Mi-novio-viene-del-lago.wav,./stim/wavs/castilian_mismatch_interrogative-total-yn_Mi-novio-viene-del-lago.wav,./stim/wavs/chilean_mismatch_interrogative-total-yn_Mi-novio-viene-del-lago.wav,./stim/wavs/cuban_mismatch_interrogative-total-yn_Mi-novio-viene-del-lago.wav,./stim/wavs/mexican_mismatch_interrogative-total-yn_Mi-novio-viene-del-lago.wav,./stim/wavs/peruvian_mismatch_interrogative-total-yn_Mi-novio-viene-del-lago.wav,./stim/wavs/puertorican_mismatch_interrogative-total-yn_Mi-novio-viene-del-lago.wav,,,,,,,,,,,,,,,,,,,,,,,,,,,,,,,,,,,,,,,,,,,,,,,,,,,,,,,,
,,,,,,,midd07,midd,ma,Spain,West coast,13 or older,no,2021-03-30_10h12.55.905,empathy_intonation_perc,2020.2.10,MacIntel,60,IwAR0gT2z5jgxHzR0GPQkPYNpROplPwVFoqLMWguVy4zf-nKO2Ot8jkdQ8DK0,,,,,,,,,,0,chilean,0,1,2.20039,0,39,39,36,1,37,./stim/wavs/andalusian_mismatch_declarative-broad-focus_La-nina-lava-el-plato.wav,./stim/wavs/argentine_mismatch_declarative-broad-focus_La-nina-lava-el-plato.wav,./stim/wavs/castilian_mismatch_declarative-broad-focus_La-nina-lava-el-plato.wav,./stim/wavs/chilean_mismatch_declarative-broad-focus_La-nina-lava-el-plato.wav,./stim/wavs/cuban_mismatch_declarative-broad-focus_La-nina-lava-el-plato.wav,./stim/wavs/mexican_mismatch_declarative-broad-focus_La-nina-lava-el-plato.wav,./stim/wavs/peruvian_mismatch_declarative-broad-focus_La-nina-lava-el-plato.wav,./stim/wavs/puertorican_mismatch_declarative-broad-focus_La-nina-lava-el-plato.wav,,,,,,,,,,,,,,,,,,,,,,,,,,,,,,,,,,,,,,,,,,,,,,,,,,,,,,,,
,,,,,,,midd07,midd,ma,Spain,West coast,13 or older,no,2021-03-30_10h12.55.905,empathy_intonation_perc,2020.2.10,MacIntel,60,IwAR0gT2z5jgxHzR0GPQkPYNpROplPwVFoqLMWguVy4zf-nKO2Ot8jkdQ8DK0,,,,,,,,,,1,cuban,0,0,4.586625,0,40,40,24,1,25,./stim/wavs/andalusian_match_interrogative-total-yn_Ana-lleva-el-abrigo.wav,./stim/wavs/argentine_match_interrogative-total-yn_Ana-lleva-el-abrigo.wav,./stim/wavs/castilian_match_interrogative-total-yn_Ana-lleva-el-abrigo.wav,./stim/wavs/chilean_match_interrogative-total-yn_Ana-lleva-el-abrigo.wav,./stim/wavs/cuban_match_interrogative-total-yn_Ana-lleva-el-abrigo.wav,./stim/wavs/mexican_match_interrogative-total-yn_Ana-lleva-el-abrigo.wav,./stim/wavs/peruvian_match_interrogative-total-yn_Ana-lleva-el-abrigo.wav,./stim/wavs/puertorican_match_interrogative-total-yn_Ana-lleva-el-abrigo.wav,,,,,,,,,,,,,,,,,,,,,,,,,,,,,,,,,,,,,,,,,,,,,,,,,,,,,,,,
,,,,,,,midd07,midd,ma,Spain,West coast,13 or older,no,2021-03-30_10h12.55.905,empathy_intonation_perc,2020.2.10,MacIntel,60,IwAR0gT2z5jgxHzR0GPQkPYNpROplPwVFoqLMWguVy4zf-nKO2Ot8jkdQ8DK0,,,,,,,,,,1,cuban,1,1,4.400255,0,41,41,49,1,50,./stim/wavs/andalusian_mismatch_interrogative-partial-wh_Cuando-lavaba-el-plato.wav,./stim/wavs/argentine_mismatch_interrogative-partial-wh_Cuando-lavaba-el-plato.wav,./stim/wavs/castilian_mismatch_interrogative-partial-wh_Cuando-lavaba-el-plato.wav,./stim/wavs/chilean_mismatch_interrogative-partial-wh_Cuando-lavaba-el-plato.wav,./stim/wavs/cuban_mismatch_interrogative-partial-wh_Cuando-lavaba-el-plato.wav,./stim/wavs/mexican_mismatch_interrogative-partial-wh_Cuando-lavaba-el-plato.wav,./stim/wavs/peruvian_mismatch_interrogative-partial-wh_Cuando-lavaba-el-plato.wav,./stim/wavs/puertorican_mismatch_interrogative-partial-wh_Cuando-lavaba-el-plato.wav,,,,,,,,,,,,,,,,,,,,,,,,,,,,,,,,,,,,,,,,,,,,,,,,,,,,,,,,
,,,,,,,midd07,midd,ma,Spain,West coast,13 or older,no,2021-03-30_10h12.55.905,empathy_intonation_perc,2020.2.10,MacIntel,60,IwAR0gT2z5jgxHzR0GPQkPYNpROplPwVFoqLMWguVy4zf-nKO2Ot8jkdQ8DK0,,,,,,,,,,1,argentine,1,1,2.76615,0,42,42,31,1,32,./stim/wavs/andalusian_match_interrogative-total-yn_Marta-abre-el-regalo.wav,./stim/wavs/argentine_match_interrogative-total-yn_Marta-abre-el-regalo.wav,./stim/wavs/castilian_match_interrogative-total-yn_Marta-abre-el-regalo.wav,./stim/wavs/chilean_match_interrogative-total-yn_Marta-abre-el-regalo.wav,./stim/wavs/cuban_match_interrogative-total-yn_Marta-abre-el-regalo.wav,./stim/wavs/mexican_match_interrogative-total-yn_Marta-abre-el-regalo.wav,./stim/wavs/peruvian_match_interrogative-total-yn_Marta-abre-el-regalo.wav,./stim/wavs/puertorican_match_interrogative-total-yn_Marta-abre-el-regalo.wav,,,,,,,,,,,,,,,,,,,,,,,,,,,,,,,,,,,,,,,,,,,,,,,,,,,,,,,,
,,,,,,,midd07,midd,ma,Spain,West coast,13 or older,no,2021-03-30_10h12.55.905,empathy_intonation_perc,2020.2.10,MacIntel,60,IwAR0gT2z5jgxHzR0GPQkPYNpROplPwVFoqLMWguVy4zf-nKO2Ot8jkdQ8DK0,,,,,,,,,,1,puertorican,1,1,2.467585,0,43,43,28,1,29,./stim/wavs/andalusian_match_interrogative-total-yn_Manuela-vende-el-carro.wav,./stim/wavs/argentine_match_interrogative-total-yn_Manuela-vende-el-carro.wav,./stim/wavs/castilian_match_interrogative-total-yn_Manuela-vende-el-carro.wav,./stim/wavs/chilean_match_interrogative-total-yn_Manuela-vende-el-carro.wav,./stim/wavs/cuban_match_interrogative-total-yn_Manuela-vende-el-carro.wav,./stim/wavs/mexican_match_interrogative-total-yn_Manuela-vende-el-carro.wav,./stim/wavs/peruvian_match_interrogative-total-yn_Manuela-vende-el-carro.wav,./stim/wavs/puertorican_match_interrogative-total-yn_Manuela-vende-el-carro.wav,,,,,,,,,,,,,,,,,,,,,,,,,,,,,,,,,,,,,,,,,,,,,,,,,,,,,,,,
,,,,,,,midd07,midd,ma,Spain,West coast,13 or older,no,2021-03-30_10h12.55.905,empathy_intonation_perc,2020.2.10,MacIntel,60,IwAR0gT2z5jgxHzR0GPQkPYNpROplPwVFoqLMWguVy4zf-nKO2Ot8jkdQ8DK0,,,,,,,,,,0,mexican,0,1,1.66637,0,44,44,8,1,9,./stim/wavs/andalusian_match_declarative-narrow-focus_Ana-lleva-el-abrigo.wav,./stim/wavs/argentine_match_declarative-narrow-focus_Ana-lleva-el-abrigo.wav,./stim/wavs/castilian_match_declarative-narrow-focus_Ana-lleva-el-abrigo.wav,./stim/wavs/chilean_match_declarative-narrow-focus_Ana-lleva-el-abrigo.wav,./stim/wavs/cuban_match_declarative-narrow-focus_Ana-lleva-el-abrigo.wav,./stim/wavs/mexican_match_declarative-narrow-focus_Ana-lleva-el-abrigo.wav,./stim/wavs/peruvian_match_declarative-narrow-focus_Ana-lleva-el-abrigo.wav,./stim/wavs/puertorican_match_declarative-narrow-focus_Ana-lleva-el-abrigo.wav,,,,,,,,,,,,,,,,,,,,,,,,,,,,,,,,,,,,,,,,,,,,,,,,,,,,,,,,
,,,,,,,midd07,midd,ma,Spain,West coast,13 or older,no,2021-03-30_10h12.55.905,empathy_intonation_perc,2020.2.10,MacIntel,60,IwAR0gT2z5jgxHzR0GPQkPYNpROplPwVFoqLMWguVy4zf-nKO2Ot8jkdQ8DK0,,,,,,,,,,1,peruvian,1,1,5.06676,0,45,45,16,1,17,./stim/wavs/andalusian_match_interrogative-partial-wh_Cuando-bebia-el-vino.wav,./stim/wavs/argentine_match_interrogative-partial-wh_Cuando-bebia-el-vino.wav,./stim/wavs/castilian_match_interrogative-partial-wh_Cuando-bebia-el-vino.wav,./stim/wavs/chilean_match_interrogative-partial-wh_Cuando-bebia-el-vino.wav,./stim/wavs/cuban_match_interrogative-partial-wh_Cuando-bebia-el-vino.wav,./stim/wavs/mexican_match_interrogative-partial-wh_Cuando-bebia-el-vino.wav,./stim/wavs/peruvian_match_interrogative-partial-wh_Cuando-bebia-el-vino.wav,./stim/wavs/puertorican_match_interrogative-partial-wh_Cuando-bebia-el-vino.wav,,,,,,,,,,,,,,,,,,,,,,,,,,,,,,,,,,,,,,,,,,,,,,,,,,,,,,,,
,,,,,,,midd07,midd,ma,Spain,West coast,13 or older,no,2021-03-30_10h12.55.905,empathy_intonation_perc,2020.2.10,MacIntel,60,IwAR0gT2z5jgxHzR0GPQkPYNpROplPwVFoqLMWguVy4zf-nKO2Ot8jkdQ8DK0,,,,,,,,,,0,andalusian,0,1,2.01876,0,46,46,47,1,48,./stim/wavs/andalusian_mismatch_declarative-narrow-focus_Mi-tia-odia-la-lluvia.wav,./stim/wavs/argentine_mismatch_declarative-narrow-focus_Mi-tia-odia-la-lluvia.wav,./stim/wavs/castilian_mismatch_declarative-narrow-focus_Mi-tia-odia-la-lluvia.wav,./stim/wavs/chilean_mismatch_declarative-narrow-focus_Mi-tia-odia-la-lluvia.wav,./stim/wavs/cuban_mismatch_declarative-narrow-focus_Mi-tia-odia-la-lluvia.wav,./stim/wavs/mexican_mismatch_declarative-narrow-focus_Mi-tia-odia-la-lluvia.wav,./stim/wavs/peruvian_mismatch_declarative-narrow-focus_Mi-tia-odia-la-lluvia.wav,./stim/wavs/puertorican_mismatch_declarative-narrow-focus_Mi-tia-odia-la-lluvia.wav,,,,,,,,,,,,,,,,,,,,,,,,,,,,,,,,,,,,,,,,,,,,,,,,,,,,,,,,
,,,,,,,midd07,midd,ma,Spain,West coast,13 or older,no,2021-03-30_10h12.55.905,empathy_intonation_perc,2020.2.10,MacIntel,60,IwAR0gT2z5jgxHzR0GPQkPYNpROplPwVFoqLMWguVy4zf-nKO2Ot8jkdQ8DK0,,,,,,,,,,1,mexican,1,1,2.14827,0,47,47,29,1,30,./stim/wavs/andalusian_match_interrogative-total-yn_Maria-bebe-el-vino.wav,./stim/wavs/argentine_match_interrogative-total-yn_Maria-bebe-el-vino.wav,./stim/wavs/castilian_match_interrogative-total-yn_Maria-bebe-el-vino.wav,./stim/wavs/chilean_match_interrogative-total-yn_Maria-bebe-el-vino.wav,./stim/wavs/cuban_match_interrogative-total-yn_Maria-bebe-el-vino.wav,./stim/wavs/mexican_match_interrogative-total-yn_Maria-bebe-el-vino.wav,./stim/wavs/peruvian_match_interrogative-total-yn_Maria-bebe-el-vino.wav,./stim/wavs/puertorican_match_interrogative-total-yn_Maria-bebe-el-vino.wav,,,,,,,,,,,,,,,,,,,,,,,,,,,,,,,,,,,,,,,,,,,,,,,,,,,,,,,,
,,,,,,,midd07,midd,ma,Spain,West coast,13 or older,no,2021-03-30_10h12.55.905,empathy_intonation_perc,2020.2.10,MacIntel,60,IwAR0gT2z5jgxHzR0GPQkPYNpROplPwVFoqLMWguVy4zf-nKO2Ot8jkdQ8DK0,,,,,,,,,,0,puertorican,0,1,3.68393,0,48,48,34,1,35,./stim/wavs/andalusian_mismatch_declarative-broad-focus_El-nino-oye-el-rio.wav,./stim/wavs/argentine_mismatch_declarative-broad-focus_El-nino-oye-el-rio.wav,./stim/wavs/castilian_mismatch_declarative-broad-focus_El-nino-oye-el-rio.wav,./stim/wavs/chilean_mismatch_declarative-broad-focus_El-nino-oye-el-rio.wav,./stim/wavs/cuban_mismatch_declarative-broad-focus_El-nino-oye-el-rio.wav,./stim/wavs/mexican_mismatch_declarative-broad-focus_El-nino-oye-el-rio.wav,./stim/wavs/peruvian_mismatch_declarative-broad-focus_El-nino-oye-el-rio.wav,./stim/wavs/puertorican_mismatch_declarative-broad-focus_El-nino-oye-el-rio.wav,,,,,,,,,,,,,,,,,,,,,,,,,,,,,,,,,,,,,,,,,,,,,,,,,,,,,,,,
,,,,,,,midd07,midd,ma,Spain,West coast,13 or older,no,2021-03-30_10h12.55.905,empathy_intonation_perc,2020.2.10,MacIntel,60,IwAR0gT2z5jgxHzR0GPQkPYNpROplPwVFoqLMWguVy4zf-nKO2Ot8jkdQ8DK0,,,,,,,,,,1,castilian,1,1,2.15049,0,49,49,59,1,60,./stim/wavs/andalusian_mismatch_interrogative-total-yn_La-maestra-vive-en-Paris.wav,./stim/wavs/argentine_mismatch_interrogative-total-yn_La-maestra-vive-en-Paris.wav,./stim/wavs/castilian_mismatch_interrogative-total-yn_La-maestra-vive-en-Paris.wav,./stim/wavs/chilean_mismatch_interrogative-total-yn_La-maestra-vive-en-Paris.wav,./stim/wavs/cuban_mismatch_interrogative-total-yn_La-maestra-vive-en-Paris.wav,./stim/wavs/mexican_mismatch_interrogative-total-yn_La-maestra-vive-en-Paris.wav,./stim/wavs/peruvian_mismatch_interrogative-total-yn_La-maestra-vive-en-Paris.wav,./stim/wavs/puertorican_mismatch_interrogative-total-yn_La-maestra-vive-en-Paris.wav,,,,,,,,,,,,,,,,,,,,,,,,,,,,,,,,,,,,,,,,,,,,,,,,,,,,,,,,
,,,,,,,midd07,midd,ma,Spain,West coast,13 or older,no,2021-03-30_10h12.55.905,empathy_intonation_perc,2020.2.10,MacIntel,60,IwAR0gT2z5jgxHzR0GPQkPYNpROplPwVFoqLMWguVy4zf-nKO2Ot8jkdQ8DK0,,,,,,,,,,1,cuban,0,0,3.41562,0,50,50,63,1,64,./stim/wavs/andalusian_mismatch_interrogative-total-yn_Mi-tia-odia-la-lluvia.wav,./stim/wavs/argentine_mismatch_interrogative-total-yn_Mi-tia-odia-la-lluvia.wav,./stim/wavs/castilian_mismatch_interrogative-total-yn_Mi-tia-odia-la-lluvia.wav,./stim/wavs/chilean_mismatch_interrogative-total-yn_Mi-tia-odia-la-lluvia.wav,./stim/wavs/cuban_mismatch_interrogative-total-yn_Mi-tia-odia-la-lluvia.wav,./stim/wavs/mexican_mismatch_interrogative-total-yn_Mi-tia-odia-la-lluvia.wav,./stim/wavs/peruvian_mismatch_interrogative-total-yn_Mi-tia-odia-la-lluvia.wav,./stim/wavs/puertorican_mismatch_interrogative-total-yn_Mi-tia-odia-la-lluvia.wav,,,,,,,,,,,,,,,,,,,,,,,,,,,,,,,,,,,,,,,,,,,,,,,,,,,,,,,,
,,,,,,,midd07,midd,ma,Spain,West coast,13 or older,no,2021-03-30_10h12.55.905,empathy_intonation_perc,2020.2.10,MacIntel,60,IwAR0gT2z5jgxHzR0GPQkPYNpROplPwVFoqLMWguVy4zf-nKO2Ot8jkdQ8DK0,,,,,,,,,,0,puertorican,0,1,1.884045,0,51,51,46,1,47,./stim/wavs/andalusian_mismatch_declarative-narrow-focus_Mi-novio-viene-del-lago.wav,./stim/wavs/argentine_mismatch_declarative-narrow-focus_Mi-novio-viene-del-lago.wav,./stim/wavs/castilian_mismatch_declarative-narrow-focus_Mi-novio-viene-del-lago.wav,./stim/wavs/chilean_mismatch_declarative-narrow-focus_Mi-novio-viene-del-lago.wav,./stim/wavs/cuban_mismatch_declarative-narrow-focus_Mi-novio-viene-del-lago.wav,./stim/wavs/mexican_mismatch_declarative-narrow-focus_Mi-novio-viene-del-lago.wav,./stim/wavs/peruvian_mismatch_declarative-narrow-focus_Mi-novio-viene-del-lago.wav,./stim/wavs/puertorican_mismatch_declarative-narrow-focus_Mi-novio-viene-del-lago.wav,,,,,,,,,,,,,,,,,,,,,,,,,,,,,,,,,,,,,,,,,,,,,,,,,,,,,,,,
,,,,,,,midd07,midd,ma,Spain,West coast,13 or older,no,2021-03-30_10h12.55.905,empathy_intonation_perc,2020.2.10,MacIntel,60,IwAR0gT2z5jgxHzR0GPQkPYNpROplPwVFoqLMWguVy4zf-nKO2Ot8jkdQ8DK0,,,,,,,,,,1,peruvian,1,1,2.716075,0,52,52,48,1,49,./stim/wavs/andalusian_mismatch_interrogative-partial-wh_Cuando-comia-la-fruta.wav,./stim/wavs/argentine_mismatch_interrogative-partial-wh_Cuando-comia-la-fruta.wav,./stim/wavs/castilian_mismatch_interrogative-partial-wh_Cuando-comia-la-fruta.wav,./stim/wavs/chilean_mismatch_interrogative-partial-wh_Cuando-comia-la-fruta.wav,./stim/wavs/cuban_mismatch_interrogative-partial-wh_Cuando-comia-la-fruta.wav,./stim/wavs/mexican_mismatch_interrogative-partial-wh_Cuando-comia-la-fruta.wav,./stim/wavs/peruvian_mismatch_interrogative-partial-wh_Cuando-comia-la-fruta.wav,./stim/wavs/puertorican_mismatch_interrogative-partial-wh_Cuando-comia-la-fruta.wav,,,,,,,,,,,,,,,,,,,,,,,,,,,,,,,,,,,,,,,,,,,,,,,,,,,,,,,,
,,,,,,,midd07,midd,ma,Spain,West coast,13 or older,no,2021-03-30_10h12.55.905,empathy_intonation_perc,2020.2.10,MacIntel,60,IwAR0gT2z5jgxHzR0GPQkPYNpROplPwVFoqLMWguVy4zf-nKO2Ot8jkdQ8DK0,,,,,,,,,,0,castilian,0,1,2.1723,0,53,53,9,1,10,./stim/wavs/andalusian_match_declarative-narrow-focus_Daniel-iba-a-Bolivia.wav,./stim/wavs/argentine_match_declarative-narrow-focus_Daniel-iba-a-Bolivia.wav,./stim/wavs/castilian_match_declarative-narrow-focus_Daniel-iba-a-Bolivia.wav,./stim/wavs/chilean_match_declarative-narrow-focus_Daniel-iba-a-Bolivia.wav,./stim/wavs/cuban_match_declarative-narrow-focus_Daniel-iba-a-Bolivia.wav,./stim/wavs/mexican_match_declarative-narrow-focus_Daniel-iba-a-Bolivia.wav,./stim/wavs/peruvian_match_declarative-narrow-focus_Daniel-iba-a-Bolivia.wav,./stim/wavs/puertorican_match_declarative-narrow-focus_Daniel-iba-a-Bolivia.wav,,,,,,,,,,,,,,,,,,,,,,,,,,,,,,,,,,,,,,,,,,,,,,,,,,,,,,,,
,,,,,,,midd07,midd,ma,Spain,West coast,13 or older,no,2021-03-30_10h12.55.905,empathy_intonation_perc,2020.2.10,MacIntel,60,IwAR0gT2z5jgxHzR0GPQkPYNpROplPwVFoqLMWguVy4zf-nKO2Ot8jkdQ8DK0,,,,,,,,,,0,cuban,0,1,2.56878,0,54,54,10,1,11,./stim/wavs/andalusian_match_declarative-narrow-focus_David-leia-el-libro.wav,./stim/wavs/argentine_match_declarative-narrow-focus_David-leia-el-libro.wav,./stim/wavs/castilian_match_declarative-narrow-focus_David-leia-el-libro.wav,./stim/wavs/chilean_match_declarative-narrow-focus_David-leia-el-libro.wav,./stim/wavs/cuban_match_declarative-narrow-focus_David-leia-el-libro.wav,./stim/wavs/mexican_match_declarative-narrow-focus_David-leia-el-libro.wav,./stim/wavs/peruvian_match_declarative-narrow-focus_David-leia-el-libro.wav,./stim/wavs/puertorican_match_declarative-narrow-focus_David-leia-el-libro.wav,,,,,,,,,,,,,,,,,,,,,,,,,,,,,,,,,,,,,,,,,,,,,,,,,,,,,,,,
,,,,,,,midd07,midd,ma,Spain,West coast,13 or older,no,2021-03-30_10h12.55.905,empathy_intonation_perc,2020.2.10,MacIntel,60,IwAR0gT2z5jgxHzR0GPQkPYNpROplPwVFoqLMWguVy4zf-nKO2Ot8jkdQ8DK0,,,,,,,,,,0,peruvian,0,1,2.302,0,55,55,32,1,33,./stim/wavs/andalusian_mismatch_declarative-broad-focus_El-bebe-comia-muy-bien.wav,./stim/wavs/argentine_mismatch_declarative-broad-focus_El-bebe-comia-muy-bien.wav,./stim/wavs/castilian_mismatch_declarative-broad-focus_El-bebe-comia-muy-bien.wav,./stim/wavs/chilean_mismatch_declarative-broad-focus_El-bebe-comia-muy-bien.wav,./stim/wavs/cuban_mismatch_declarative-broad-focus_El-bebe-comia-muy-bien.wav,./stim/wavs/mexican_mismatch_declarative-broad-focus_El-bebe-comia-muy-bien.wav,./stim/wavs/peruvian_mismatch_declarative-broad-focus_El-bebe-comia-muy-bien.wav,./stim/wavs/puertorican_mismatch_declarative-broad-focus_El-bebe-comia-muy-bien.wav,,,,,,,,,,,,,,,,,,,,,,,,,,,,,,,,,,,,,,,,,,,,,,,,,,,,,,,,
,,,,,,,midd07,midd,ma,Spain,West coast,13 or older,no,2021-03-30_10h12.55.905,empathy_intonation_perc,2020.2.10,MacIntel,60,IwAR0gT2z5jgxHzR0GPQkPYNpROplPwVFoqLMWguVy4zf-nKO2Ot8jkdQ8DK0,,,,,,,,,,1,argentine,1,1,2.21646,0,56,56,30,1,31,./stim/wavs/andalusian_match_interrogative-total-yn_Mariano-habla-del-tiempo.wav,./stim/wavs/argentine_match_interrogative-total-yn_Mariano-habla-del-tiempo.wav,./stim/wavs/castilian_match_interrogative-total-yn_Mariano-habla-del-tiempo.wav,./stim/wavs/chilean_match_interrogative-total-yn_Mariano-habla-del-tiempo.wav,./stim/wavs/cuban_match_interrogative-total-yn_Mariano-habla-del-tiempo.wav,./stim/wavs/mexican_match_interrogative-total-yn_Mariano-habla-del-tiempo.wav,./stim/wavs/peruvian_match_interrogative-total-yn_Mariano-habla-del-tiempo.wav,./stim/wavs/puertorican_match_interrogative-total-yn_Mariano-habla-del-tiempo.wav,,,,,,,,,,,,,,,,,,,,,,,,,,,,,,,,,,,,,,,,,,,,,,,,,,,,,,,,
,,,,,,,midd07,midd,ma,Spain,West coast,13 or older,no,2021-03-30_10h12.55.905,empathy_intonation_perc,2020.2.10,MacIntel,60,IwAR0gT2z5jgxHzR0GPQkPYNpROplPwVFoqLMWguVy4zf-nKO2Ot8jkdQ8DK0,,,,,,,,,,1,argentine,1,1,7.136245,0,57,57,18,1,19,./stim/wavs/andalusian_match_interrogative-partial-wh_Cuando-lleva-el-abrigo.wav,./stim/wavs/argentine_match_interrogative-partial-wh_Cuando-lleva-el-abrigo.wav,./stim/wavs/castilian_match_interrogative-partial-wh_Cuando-lleva-el-abrigo.wav,./stim/wavs/chilean_match_interrogative-partial-wh_Cuando-lleva-el-abrigo.wav,./stim/wavs/cuban_match_interrogative-partial-wh_Cuando-lleva-el-abrigo.wav,./stim/wavs/mexican_match_interrogative-partial-wh_Cuando-lleva-el-abrigo.wav,./stim/wavs/peruvian_match_interrogative-partial-wh_Cuando-lleva-el-abrigo.wav,./stim/wavs/puertorican_match_interrogative-partial-wh_Cuando-lleva-el-abrigo.wav,,,,,,,,,,,,,,,,,,,,,,,,,,,,,,,,,,,,,,,,,,,,,,,,,,,,,,,,
,,,,,,,midd07,midd,ma,Spain,West coast,13 or older,no,2021-03-30_10h12.55.905,empathy_intonation_perc,2020.2.10,MacIntel,60,IwAR0gT2z5jgxHzR0GPQkPYNpROplPwVFoqLMWguVy4zf-nKO2Ot8jkdQ8DK0,,,,,,,,,,0,mexican,0,1,3.687485,0,58,58,15,1,16,./stim/wavs/andalusian_match_declarative-narrow-focus_Marta-abre-el-regalo.wav,./stim/wavs/argentine_match_declarative-narrow-focus_Marta-abre-el-regalo.wav,./stim/wavs/castilian_match_declarative-narrow-focus_Marta-abre-el-regalo.wav,./stim/wavs/chilean_match_declarative-narrow-focus_Marta-abre-el-regalo.wav,./stim/wavs/cuban_match_declarative-narrow-focus_Marta-abre-el-regalo.wav,./stim/wavs/mexican_match_declarative-narrow-focus_Marta-abre-el-regalo.wav,./stim/wavs/peruvian_match_declarative-narrow-focus_Marta-abre-el-regalo.wav,./stim/wavs/puertorican_match_declarative-narrow-focus_Marta-abre-el-regalo.wav,,,,,,,,,,,,,,,,,,,,,,,,,,,,,,,,,,,,,,,,,,,,,,,,,,,,,,,,
,,,,,,,midd07,midd,ma,Spain,West coast,13 or older,no,2021-03-30_10h12.55.905,empathy_intonation_perc,2020.2.10,MacIntel,60,IwAR0gT2z5jgxHzR0GPQkPYNpROplPwVFoqLMWguVy4zf-nKO2Ot8jkdQ8DK0,,,,,,,,,,0,andalusian,0,1,2.350795,0,59,59,14,1,15,./stim/wavs/andalusian_match_declarative-narrow-focus_Mariano-habla-del-tiempo.wav,./stim/wavs/argentine_match_declarative-narrow-focus_Mariano-habla-del-tiempo.wav,./stim/wavs/castilian_match_declarative-narrow-focus_Mariano-habla-del-tiempo.wav,./stim/wavs/chilean_match_declarative-narrow-focus_Mariano-habla-del-tiempo.wav,./stim/wavs/cuban_match_declarative-narrow-focus_Mariano-habla-del-tiempo.wav,./stim/wavs/mexican_match_declarative-narrow-focus_Mariano-habla-del-tiempo.wav,./stim/wavs/peruvian_match_declarative-narrow-focus_Mariano-habla-del-tiempo.wav,./stim/wavs/puertorican_match_declarative-narrow-focus_Mariano-habla-del-tiempo.wav,,,,,,,,,,,,,,,,,,,,,,,,,,,,,,,,,,,,,,,,,,,,,,,,,,,,,,,,
,,,,,,,midd07,midd,ma,Spain,West coast,13 or older,no,2021-03-30_10h12.55.905,empathy_intonation_perc,2020.2.10,MacIntel,60,IwAR0gT2z5jgxHzR0GPQkPYNpROplPwVFoqLMWguVy4zf-nKO2Ot8jkdQ8DK0,,,,,,,,,,0,andalusian,0,1,2.033295,0,60,60,2,1,3,./stim/wavs/andalusian_match_declarative-broad-focus_David-leia-el-libro.wav,./stim/wavs/argentine_match_declarative-broad-focus_David-leia-el-libro.wav,./stim/wavs/castilian_match_declarative-broad-focus_David-leia-el-libro.wav,./stim/wavs/chilean_match_declarative-broad-focus_David-leia-el-libro.wav,./stim/wavs/cuban_match_declarative-broad-focus_David-leia-el-libro.wav,./stim/wavs/mexican_match_declarative-broad-focus_David-leia-el-libro.wav,./stim/wavs/peruvian_match_declarative-broad-focus_David-leia-el-libro.wav,./stim/wavs/puertorican_match_declarative-broad-focus_David-leia-el-libro.wav,,,,,,,,,,,,,,,,,,,,,,,,,,,,,,,,,,,,,,,,,,,,,,,,,,,,,,,,
,,,,,,,midd07,midd,ma,Spain,West coast,13 or older,no,2021-03-30_10h12.55.905,empathy_intonation_perc,2020.2.10,MacIntel,60,IwAR0gT2z5jgxHzR0GPQkPYNpROplPwVFoqLMWguVy4zf-nKO2Ot8jkdQ8DK0,,,,,,,,,,1,argentine,1,1,1.73313,0,61,61,61,1,62,./stim/wavs/andalusian_mismatch_interrogative-total-yn_Mi-madre-come-la-fruta.wav,./stim/wavs/argentine_mismatch_interrogative-total-yn_Mi-madre-come-la-fruta.wav,./stim/wavs/castilian_mismatch_interrogative-total-yn_Mi-madre-come-la-fruta.wav,./stim/wavs/chilean_mismatch_interrogative-total-yn_Mi-madre-come-la-fruta.wav,./stim/wavs/cuban_mismatch_interrogative-total-yn_Mi-madre-come-la-fruta.wav,./stim/wavs/mexican_mismatch_interrogative-total-yn_Mi-madre-come-la-fruta.wav,./stim/wavs/peruvian_mismatch_interrogative-total-yn_Mi-madre-come-la-fruta.wav,./stim/wavs/puertorican_mismatch_interrogative-total-yn_Mi-madre-come-la-fruta.wav,,,,,,,,,,,,,,,,,,,,,,,,,,,,,,,,,,,,,,,,,,,,,,,,,,,,,,,,
,,,,,,,midd07,midd,ma,Spain,West coast,13 or older,no,2021-03-30_10h12.55.905,empathy_intonation_perc,2020.2.10,MacIntel,60,IwAR0gT2z5jgxHzR0GPQkPYNpROplPwVFoqLMWguVy4zf-nKO2Ot8jkdQ8DK0,,,,,,,,,,0,andalusian,0,1,3.85059,0,62,62,40,1,41,./stim/wavs/andalusian_mismatch_declarative-narrow-focus_El-bebe-comia-muy-bien.wav,./stim/wavs/argentine_mismatch_declarative-narrow-focus_El-bebe-comia-muy-bien.wav,./stim/wavs/castilian_mismatch_declarative-narrow-focus_El-bebe-comia-muy-bien.wav,./stim/wavs/chilean_mismatch_declarative-narrow-focus_El-bebe-comia-muy-bien.wav,./stim/wavs/cuban_mismatch_declarative-narrow-focus_El-bebe-comia-muy-bien.wav,./stim/wavs/mexican_mismatch_declarative-narrow-focus_El-bebe-comia-muy-bien.wav,./stim/wavs/peruvian_mismatch_declarative-narrow-focus_El-bebe-comia-muy-bien.wav,./stim/wavs/puertorican_mismatch_declarative-narrow-focus_El-bebe-comia-muy-bien.wav,,,,,,,,,,,,,,,,,,,,,,,,,,,,,,,,,,,,,,,,,,,,,,,,,,,,,,,,
,,,,,,,midd07,midd,ma,Spain,West coast,13 or older,no,2021-03-30_10h12.55.905,empathy_intonation_perc,2020.2.10,MacIntel,60,IwAR0gT2z5jgxHzR0GPQkPYNpROplPwVFoqLMWguVy4zf-nKO2Ot8jkdQ8DK0,,,,,,,,,,1,puertorican,1,1,1.950405,0,63,63,58,1,59,./stim/wavs/andalusian_mismatch_interrogative-total-yn_El-nino-oye-el-rio.wav,./stim/wavs/argentine_mismatch_interrogative-total-yn_El-nino-oye-el-rio.wav,./stim/wavs/castilian_mismatch_interrogative-total-yn_El-nino-oye-el-rio.wav,./stim/wavs/chilean_mismatch_interrogative-total-yn_El-nino-oye-el-rio.wav,./stim/wavs/cuban_mismatch_interrogative-total-yn_El-nino-oye-el-rio.wav,./stim/wavs/mexican_mismatch_interrogative-total-yn_El-nino-oye-el-rio.wav,./stim/wavs/peruvian_mismatch_interrogative-total-yn_El-nino-oye-el-rio.wav,./stim/wavs/puertorican_mismatch_interrogative-total-yn_El-nino-oye-el-rio.wav,,,,,,,,,,,,,,,,,,,,,,,,,,,,,,,,,,,,,,,,,,,,,,,,,,,,,,,,
,,,,,,,midd07,midd,ma,Spain,West coast,13 or older,no,2021-03-30_10h12.55.905,empathy_intonation_perc,2020.2.10,MacIntel,60,IwAR0gT2z5jgxHzR0GPQkPYNpROplPwVFoqLMWguVy4zf-nKO2Ot8jkdQ8DK0,,,,,,,,,,,,,,,,,,,,,,,,,,,,,h,1,6.847315,0,0,0,0,1,,,,,,,,,,,,,,,,,,,,,,,,,,,,,,,,,,,,,,,,,,,,,,,,
,,,,,"Great! Now we will move on. The next task consists of about 60 trials, in each of which you will see a string of letters. 
  
  Your task is to decide whether this is a real Spanish word or not.",(press the spacebar to continue),midd07,midd,ma,Spain,West coast,13 or older,no,2021-03-30_10h12.55.905,empathy_intonation_perc,2020.2.10,MacIntel,60,IwAR0gT2z5jgxHzR0GPQkPYNpROplPwVFoqLMWguVy4zf-nKO2Ot8jkdQ8DK0,,,,,,,,,,,,,,,,,,,,,,,,,,,,,,,,,,,,,0,0,0,0,1,,,,,,,,,,,,,,,,,,,,,,,,,,,,,,,,,,,,,,,,,,,
,,,,,"If you think it is an existing Spanish word, you type '1' (for 'REAL'), and if you think it is not an existing Spanish word, you type '0' (for 'FAKE').",(press the spacebar to continue),midd07,midd,ma,Spain,West coast,13 or older,no,2021-03-30_10h12.55.905,empathy_intonation_perc,2020.2.10,MacIntel,60,IwAR0gT2z5jgxHzR0GPQkPYNpROplPwVFoqLMWguVy4zf-nKO2Ot8jkdQ8DK0,,,,,,,,,,,,,,,,,,,,,,,,,,,,,,,,,,,,,0,1,1,1,1,,,,,,,,,,,,,,,,,,,,,,,,,,,,,,,,,,,,,,,,,,,
,,,,,"If you are sure that the word exists, even though you dont know its exact meaning, you may still respond '1' (REAL). 
  
  But if you are not sure if it is an existing word, you should respond '0' (FAKE).
  
  Let's do a practice round...",(press the spacebar to continue),midd07,midd,ma,Spain,West coast,13 or older,no,2021-03-30_10h12.55.905,empathy_intonation_perc,2020.2.10,MacIntel,60,IwAR0gT2z5jgxHzR0GPQkPYNpROplPwVFoqLMWguVy4zf-nKO2Ot8jkdQ8DK0,,,,,,,,,,,,,,,,,,,,,,,,,,,,,,,,,,,,,0,2,2,2,1,,,,,,,,,,,,,,,,,,,,,,,,,,,,,,,,,,,,,,,,,,,
,,,,,,,midd07,midd,ma,Spain,West coast,13 or older,no,2021-03-30_10h12.55.905,empathy_intonation_perc,2020.2.10,MacIntel,60,IwAR0gT2z5jgxHzR0GPQkPYNpROplPwVFoqLMWguVy4zf-nKO2Ot8jkdQ8DK0,,,,,,,,,,0,,,,,,,,,,,,,,,,,,,,,,,,,,,,,,,,0,1,11.048515,0,0,0,0,1,0,depiste,REAL,FAKE,,,,,,,,,,,,,,,,,,,,,,,,,,,,,,,
,,,,,,,midd07,midd,ma,Spain,West coast,13 or older,no,2021-03-30_10h12.55.905,empathy_intonation_perc,2020.2.10,MacIntel,60,IwAR0gT2z5jgxHzR0GPQkPYNpROplPwVFoqLMWguVy4zf-nKO2Ot8jkdQ8DK0,,,,,,,,,,1,,,,,,,,,,,,,,,,,,,,,,,,,,,,,,,,1,1,1.48284,0,1,1,1,1,0,s,REAL,FAKE,,,,,,,,,,,,,,,,,,,,,,,,,,,,,,,
,,,,,,,midd07,midd,ma,Spain,West coast,13 or older,no,2021-03-30_10h12.55.905,empathy_intonation_perc,2020.2.10,MacIntel,60,IwAR0gT2z5jgxHzR0GPQkPYNpROplPwVFoqLMWguVy4zf-nKO2Ot8jkdQ8DK0,,,,,,,,,,0,,,,,,,,,,,,,,,,,,,,,,,,,,,,,,,,0,1,2.03327,0,2,2,2,1,0,con,REAL,FAKE,,,,,,,,,,,,,,,,,,,,,,,,,,,,,,,
,,,,,,,midd07,midd,ma,Spain,West coast,13 or older,no,2021-03-30_10h12.55.905,empathy_intonation_perc,2020.2.10,MacIntel,60,IwAR0gT2z5jgxHzR0GPQkPYNpROplPwVFoqLMWguVy4zf-nKO2Ot8jkdQ8DK0,,,,,,,,,,0,,,,,,,,,,,,,,,,,,,,,,,,,,,,,,,,1,0,1.600065,0,3,3,3,1,0,calpar,REAL,FAKE,,,,,,,,,,,,,,,,,,,,,,,,,,,,,,,
,,,,,,,midd07,midd,ma,Spain,West coast,13 or older,no,2021-03-30_10h12.55.905,empathy_intonation_perc,2020.2.10,MacIntel,60,IwAR0gT2z5jgxHzR0GPQkPYNpROplPwVFoqLMWguVy4zf-nKO2Ot8jkdQ8DK0,,,,,,,,,,0,,,,,,,,,,,,,,,,,,,,,,,,,,,,,,,,0,1,1.783815,0,4,4,4,1,0,joten,REAL,FAKE,,,,,,,,,,,,,,,,,,,,,,,,,,,,,,,
,,,,,,,midd07,midd,ma,Spain,West coast,13 or older,no,2021-03-30_10h12.55.905,empathy_intonation_perc,2020.2.10,MacIntel,60,IwAR0gT2z5jgxHzR0GPQkPYNpROplPwVFoqLMWguVy4zf-nKO2Ot8jkdQ8DK0,,,,,,,,,,1,,,,,,,,,,,,,,,,,,,,,,,,,,,,,,,,1,1,1.26751,0,5,5,5,1,0,sacapuntas,REAL,FAKE,,,,,,,,,,,,,,,,,,,,,,,,,,,,,,,
,,,,,,,midd07,midd,ma,Spain,West coast,13 or older,no,2021-03-30_10h12.55.905,empathy_intonation_perc,2020.2.10,MacIntel,60,IwAR0gT2z5jgxHzR0GPQkPYNpROplPwVFoqLMWguVy4zf-nKO2Ot8jkdQ8DK0,,,,,,,,,,0,,,,,,,,,,,,,,,,,,,,,,,,,,,,,,,,0,1,1.34753,0,6,6,6,1,0,priba,REAL,FAKE,,,,,,,,,,,,,,,,,,,,,,,,,,,,,,,
,,,,,,,midd07,midd,ma,Spain,West coast,13 or older,no,2021-03-30_10h12.55.905,empathy_intonation_perc,2020.2.10,MacIntel,60,IwAR0gT2z5jgxHzR0GPQkPYNpROplPwVFoqLMWguVy4zf-nKO2Ot8jkdQ8DK0,,,,,,,,,,0,,,,,,,,,,,,,,,,,,,,,,,,,,,,,,,,1,0,1.96728,0,7,7,7,1,0,pelasula,REAL,FAKE,,,,,,,,,,,,,,,,,,,,,,,,,,,,,,,
,,,,,,,midd07,midd,ma,Spain,West coast,13 or older,no,2021-03-30_10h12.55.905,empathy_intonation_perc,2020.2.10,MacIntel,60,IwAR0gT2z5jgxHzR0GPQkPYNpROplPwVFoqLMWguVy4zf-nKO2Ot8jkdQ8DK0,,,,,,,,,,1,,,,,,,,,,,,,,,,,,,,,,,,,,,,,,,,1,1,0.966575,0,8,8,8,1,0,bien,REAL,FAKE,,,,,,,,,,,,,,,,,,,,,,,,,,,,,,,
,,,,,,,midd07,midd,ma,Spain,West coast,13 or older,no,2021-03-30_10h12.55.905,empathy_intonation_perc,2020.2.10,MacIntel,60,IwAR0gT2z5jgxHzR0GPQkPYNpROplPwVFoqLMWguVy4zf-nKO2Ot8jkdQ8DK0,,,,,,,,,,1,,,,,,,,,,,,,,,,,,,,,,,,,,,,,,,,1,1,1.01575,0,9,9,9,1,0,casa,REAL,FAKE,,,,,,,,,,,,,,,,,,,,,,,,,,,,,,,
,,,,,,,midd07,midd,ma,Spain,West coast,13 or older,no,2021-03-30_10h12.55.905,empathy_intonation_perc,2020.2.10,MacIntel,60,IwAR0gT2z5jgxHzR0GPQkPYNpROplPwVFoqLMWguVy4zf-nKO2Ot8jkdQ8DK0,,,,,,,,,,0,,,,,,,,,,,,,,,,,,,,,,,,,,,,,,,,0,1,2.265885,0,10,10,10,1,0,lejo,REAL,FAKE,,,,,,,,,,,,,,,,,,,,,,,,,,,,,,,
,,,,,,,midd07,midd,ma,Spain,West coast,13 or older,no,2021-03-30_10h12.55.905,empathy_intonation_perc,2020.2.10,MacIntel,60,IwAR0gT2z5jgxHzR0GPQkPYNpROplPwVFoqLMWguVy4zf-nKO2Ot8jkdQ8DK0,,,,,,,,,,0,,,,,,,,,,,,,,,,,,,,,,,,,,,,,,,,0,1,2.16646,0,11,11,11,1,0,pretantas,REAL,FAKE,,,,,,,,,,,,,,,,,,,,,,,,,,,,,,,
,,,,,,,midd07,midd,ma,Spain,West coast,13 or older,no,2021-03-30_10h12.55.905,empathy_intonation_perc,2020.2.10,MacIntel,60,IwAR0gT2z5jgxHzR0GPQkPYNpROplPwVFoqLMWguVy4zf-nKO2Ot8jkdQ8DK0,,,,,,,,,,1,,,,,,,,,,,,,,,,,,,,,,,,,,,,,,,,,,,,,,,,85,lad,,,1,1,3.166435,0,0,0,84,1,REAL,FAKE,,,,,,,,,,,,,,,,,,,,,
,,,,,,,midd07,midd,ma,Spain,West coast,13 or older,no,2021-03-30_10h12.55.905,empathy_intonation_perc,2020.2.10,MacIntel,60,IwAR0gT2z5jgxHzR0GPQkPYNpROplPwVFoqLMWguVy4zf-nKO2Ot8jkdQ8DK0,,,,,,,,,,1,,,,,,,,,,,,,,,,,,,,,,,,,,,,,,,,,,,,,,,,80,hormiga,,,1,1,1.31585,0,1,1,79,1,REAL,FAKE,,,,,,,,,,,,,,,,,,,,,
,,,,,,,midd07,midd,ma,Spain,West coast,13 or older,no,2021-03-30_10h12.55.905,empathy_intonation_perc,2020.2.10,MacIntel,60,IwAR0gT2z5jgxHzR0GPQkPYNpROplPwVFoqLMWguVy4zf-nKO2Ot8jkdQ8DK0,,,,,,,,,,1,,,,,,,,,,,,,,,,,,,,,,,,,,,,,,,,,,,,,,,,81,pozo,,,1,1,2.39931,0,2,2,80,1,REAL,FAKE,,,,,,,,,,,,,,,,,,,,,
,,,,,,,midd07,midd,ma,Spain,West coast,13 or older,no,2021-03-30_10h12.55.905,empathy_intonation_perc,2020.2.10,MacIntel,60,IwAR0gT2z5jgxHzR0GPQkPYNpROplPwVFoqLMWguVy4zf-nKO2Ot8jkdQ8DK0,,,,,,,,,,0,,,,,,,,,,,,,,,,,,,,,,,,,,,,,,,,,,,,,,,,10,antar,,,0,1,1.41653,0,3,3,9,1,REAL,FAKE,,,,,,,,,,,,,,,,,,,,,
,,,,,,,midd07,midd,ma,Spain,West coast,13 or older,no,2021-03-30_10h12.55.905,empathy_intonation_perc,2020.2.10,MacIntel,60,IwAR0gT2z5jgxHzR0GPQkPYNpROplPwVFoqLMWguVy4zf-nKO2Ot8jkdQ8DK0,,,,,,,,,,1,,,,,,,,,,,,,,,,,,,,,,,,,,,,,,,,,,,,,,,,39,torpe,,,1,1,1.367795,0,4,4,38,1,REAL,FAKE,,,,,,,,,,,,,,,,,,,,,
,,,,,,,midd07,midd,ma,Spain,West coast,13 or older,no,2021-03-30_10h12.55.905,empathy_intonation_perc,2020.2.10,MacIntel,60,IwAR0gT2z5jgxHzR0GPQkPYNpROplPwVFoqLMWguVy4zf-nKO2Ot8jkdQ8DK0,,,,,,,,,,1,,,,,,,,,,,,,,,,,,,,,,,,,,,,,,,,,,,,,,,,49,ganar,,,1,1,0.8493,0,5,5,48,1,REAL,FAKE,,,,,,,,,,,,,,,,,,,,,
,,,,,,,midd07,midd,ma,Spain,West coast,13 or older,no,2021-03-30_10h12.55.905,empathy_intonation_perc,2020.2.10,MacIntel,60,IwAR0gT2z5jgxHzR0GPQkPYNpROplPwVFoqLMWguVy4zf-nKO2Ot8jkdQ8DK0,,,,,,,,,,0,,,,,,,,,,,,,,,,,,,,,,,,,,,,,,,,,,,,,,,,42,cadallo,,,0,1,1.333405,0,6,6,41,1,REAL,FAKE,,,,,,,,,,,,,,,,,,,,,
,,,,,,,midd07,midd,ma,Spain,West coast,13 or older,no,2021-03-30_10h12.55.905,empathy_intonation_perc,2020.2.10,MacIntel,60,IwAR0gT2z5jgxHzR0GPQkPYNpROplPwVFoqLMWguVy4zf-nKO2Ot8jkdQ8DK0,,,,,,,,,,0,,,,,,,,,,,,,,,,,,,,,,,,,,,,,,,,,,,,,,,,84,escuto,,,1,0,1.548815,0,7,7,83,1,REAL,FAKE,,,,,,,,,,,,,,,,,,,,,
,,,,,,,midd07,midd,ma,Spain,West coast,13 or older,no,2021-03-30_10h12.55.905,empathy_intonation_perc,2020.2.10,MacIntel,60,IwAR0gT2z5jgxHzR0GPQkPYNpROplPwVFoqLMWguVy4zf-nKO2Ot8jkdQ8DK0,,,,,,,,,,1,,,,,,,,,,,,,,,,,,,,,,,,,,,,,,,,,,,,,,,,73,hervidor,,,0,0,1.61729,0,8,8,72,1,REAL,FAKE,,,,,,,,,,,,,,,,,,,,,
,,,,,,,midd07,midd,ma,Spain,West coast,13 or older,no,2021-03-30_10h12.55.905,empathy_intonation_perc,2020.2.10,MacIntel,60,IwAR0gT2z5jgxHzR0GPQkPYNpROplPwVFoqLMWguVy4zf-nKO2Ot8jkdQ8DK0,,,,,,,,,,1,,,,,,,,,,,,,,,,,,,,,,,,,,,,,,,,,,,,,,,,28,merodear,,,0,0,1.44961,0,9,9,27,1,REAL,FAKE,,,,,,,,,,,,,,,,,,,,,
,,,,,,,midd07,midd,ma,Spain,West coast,13 or older,no,2021-03-30_10h12.55.905,empathy_intonation_perc,2020.2.10,MacIntel,60,IwAR0gT2z5jgxHzR0GPQkPYNpROplPwVFoqLMWguVy4zf-nKO2Ot8jkdQ8DK0,,,,,,,,,,0,,,,,,,,,,,,,,,,,,,,,,,,,,,,,,,,,,,,,,,,27,acutacin,,,1,0,2.934355,0,10,10,26,1,REAL,FAKE,,,,,,,,,,,,,,,,,,,,,
,,,,,,,midd07,midd,ma,Spain,West coast,13 or older,no,2021-03-30_10h12.55.905,empathy_intonation_perc,2020.2.10,MacIntel,60,IwAR0gT2z5jgxHzR0GPQkPYNpROplPwVFoqLMWguVy4zf-nKO2Ot8jkdQ8DK0,,,,,,,,,,0,,,,,,,,,,,,,,,,,,,,,,,,,,,,,,,,,,,,,,,,70,temblo,,,0,1,4.86906,0,11,11,69,1,REAL,FAKE,,,,,,,,,,,,,,,,,,,,,
,,,,,,,midd07,midd,ma,Spain,West coast,13 or older,no,2021-03-30_10h12.55.905,empathy_intonation_perc,2020.2.10,MacIntel,60,IwAR0gT2z5jgxHzR0GPQkPYNpROplPwVFoqLMWguVy4zf-nKO2Ot8jkdQ8DK0,,,,,,,,,,1,,,,,,,,,,,,,,,,,,,,,,,,,,,,,,,,,,,,,,,,52,camisa,,,1,1,1.06653,0,12,12,51,1,REAL,FAKE,,,,,,,,,,,,,,,,,,,,,
,,,,,,,midd07,midd,ma,Spain,West coast,13 or older,no,2021-03-30_10h12.55.905,empathy_intonation_perc,2020.2.10,MacIntel,60,IwAR0gT2z5jgxHzR0GPQkPYNpROplPwVFoqLMWguVy4zf-nKO2Ot8jkdQ8DK0,,,,,,,,,,1,,,,,,,,,,,,,,,,,,,,,,,,,,,,,,,,,,,,,,,,62,flaco,,,1,1,1.35169,0,13,13,61,1,REAL,FAKE,,,,,,,,,,,,,,,,,,,,,
,,,,,,,midd07,midd,ma,Spain,West coast,13 or older,no,2021-03-30_10h12.55.905,empathy_intonation_perc,2020.2.10,MacIntel,60,IwAR0gT2z5jgxHzR0GPQkPYNpROplPwVFoqLMWguVy4zf-nKO2Ot8jkdQ8DK0,,,,,,,,,,1,,,,,,,,,,,,,,,,,,,,,,,,,,,,,,,,,,,,,,,,26,secuestro,,,1,1,1.266425,0,14,14,25,1,REAL,FAKE,,,,,,,,,,,,,,,,,,,,,
,,,,,,,midd07,midd,ma,Spain,West coast,13 or older,no,2021-03-30_10h12.55.905,empathy_intonation_perc,2020.2.10,MacIntel,60,IwAR0gT2z5jgxHzR0GPQkPYNpROplPwVFoqLMWguVy4zf-nKO2Ot8jkdQ8DK0,,,,,,,,,,1,,,,,,,,,,,,,,,,,,,,,,,,,,,,,,,,,,,,,,,,88,acantilado,,,1,1,2.15313,0,15,15,87,1,REAL,FAKE,,,,,,,,,,,,,,,,,,,,,
,,,,,,,midd07,midd,ma,Spain,West coast,13 or older,no,2021-03-30_10h12.55.905,empathy_intonation_perc,2020.2.10,MacIntel,60,IwAR0gT2z5jgxHzR0GPQkPYNpROplPwVFoqLMWguVy4zf-nKO2Ot8jkdQ8DK0,,,,,,,,,,1,,,,,,,,,,,,,,,,,,,,,,,,,,,,,,,,,,,,,,,,68,alegre,,,1,1,0.900315,0,16,16,67,1,REAL,FAKE,,,,,,,,,,,,,,,,,,,,,
,,,,,,,midd07,midd,ma,Spain,West coast,13 or older,no,2021-03-30_10h12.55.905,empathy_intonation_perc,2020.2.10,MacIntel,60,IwAR0gT2z5jgxHzR0GPQkPYNpROplPwVFoqLMWguVy4zf-nKO2Ot8jkdQ8DK0,,,,,,,,,,0,,,,,,,,,,,,,,,,,,,,,,,,,,,,,,,,,,,,,,,,18,arsa,,,0,1,3.918975,0,17,17,17,1,REAL,FAKE,,,,,,,,,,,,,,,,,,,,,
,,,,,,,midd07,midd,ma,Spain,West coast,13 or older,no,2021-03-30_10h12.55.905,empathy_intonation_perc,2020.2.10,MacIntel,60,IwAR0gT2z5jgxHzR0GPQkPYNpROplPwVFoqLMWguVy4zf-nKO2Ot8jkdQ8DK0,,,,,,,,,,0,,,,,,,,,,,,,,,,,,,,,,,,,,,,,,,,,,,,,,,,72,pemicin,,,0,1,1.66735,0,18,18,71,1,REAL,FAKE,,,,,,,,,,,,,,,,,,,,,
,,,,,,,midd07,midd,ma,Spain,West coast,13 or older,no,2021-03-30_10h12.55.905,empathy_intonation_perc,2020.2.10,MacIntel,60,IwAR0gT2z5jgxHzR0GPQkPYNpROplPwVFoqLMWguVy4zf-nKO2Ot8jkdQ8DK0,,,,,,,,,,0,,,,,,,,,,,,,,,,,,,,,,,,,,,,,,,,,,,,,,,,33,pauca,,,0,1,2.31733,0,19,19,32,1,REAL,FAKE,,,,,,,,,,,,,,,,,,,,,
,,,,,,,midd07,midd,ma,Spain,West coast,13 or older,no,2021-03-30_10h12.55.905,empathy_intonation_perc,2020.2.10,MacIntel,60,IwAR0gT2z5jgxHzR0GPQkPYNpROplPwVFoqLMWguVy4zf-nKO2Ot8jkdQ8DK0,,,,,,,,,,1,,,,,,,,,,,,,,,,,,,,,,,,,,,,,,,,,,,,,,,,71,polvoriento,,,0,0,1.73315,0,20,20,70,1,REAL,FAKE,,,,,,,,,,,,,,,,,,,,,
,,,,,,,midd07,midd,ma,Spain,West coast,13 or older,no,2021-03-30_10h12.55.905,empathy_intonation_perc,2020.2.10,MacIntel,60,IwAR0gT2z5jgxHzR0GPQkPYNpROplPwVFoqLMWguVy4zf-nKO2Ot8jkdQ8DK0,,,,,,,,,,0,,,,,,,,,,,,,,,,,,,,,,,,,,,,,,,,,,,,,,,,82,empirador,,,1,0,1.39919,0,21,21,81,1,REAL,FAKE,,,,,,,,,,,,,,,,,,,,,
,,,,,,,midd07,midd,ma,Spain,West coast,13 or older,no,2021-03-30_10h12.55.905,empathy_intonation_perc,2020.2.10,MacIntel,60,IwAR0gT2z5jgxHzR0GPQkPYNpROplPwVFoqLMWguVy4zf-nKO2Ot8jkdQ8DK0,,,,,,,,,,1,,,,,,,,,,,,,,,,,,,,,,,,,,,,,,,,,,,,,,,,76,atar,,,1,1,1.034205,0,22,22,75,1,REAL,FAKE,,,,,,,,,,,,,,,,,,,,,
,,,,,,,midd07,midd,ma,Spain,West coast,13 or older,no,2021-03-30_10h12.55.905,empathy_intonation_perc,2020.2.10,MacIntel,60,IwAR0gT2z5jgxHzR0GPQkPYNpROplPwVFoqLMWguVy4zf-nKO2Ot8jkdQ8DK0,,,,,,,,,,1,,,,,,,,,,,,,,,,,,,,,,,,,,,,,,,,,,,,,,,,51,candado,,,0,0,3.88346,0,23,23,50,1,REAL,FAKE,,,,,,,,,,,,,,,,,,,,,
,,,,,,,midd07,midd,ma,Spain,West coast,13 or older,no,2021-03-30_10h12.55.905,empathy_intonation_perc,2020.2.10,MacIntel,60,IwAR0gT2z5jgxHzR0GPQkPYNpROplPwVFoqLMWguVy4zf-nKO2Ot8jkdQ8DK0,,,,,,,,,,0,,,,,,,,,,,,,,,,,,,,,,,,,,,,,,,,,,,,,,,,1,terzo,,,0,1,7.06699,0,24,24,0,1,REAL,FAKE,,,,,,,,,,,,,,,,,,,,,
,,,,,,,midd07,midd,ma,Spain,West coast,13 or older,no,2021-03-30_10h12.55.905,empathy_intonation_perc,2020.2.10,MacIntel,60,IwAR0gT2z5jgxHzR0GPQkPYNpROplPwVFoqLMWguVy4zf-nKO2Ot8jkdQ8DK0,,,,,,,,,,1,,,,,,,,,,,,,,,,,,,,,,,,,,,,,,,,,,,,,,,,36,loro,,,1,1,1.13425,0,25,25,35,1,REAL,FAKE,,,,,,,,,,,,,,,,,,,,,
,,,,,,,midd07,midd,ma,Spain,West coast,13 or older,no,2021-03-30_10h12.55.905,empathy_intonation_perc,2020.2.10,MacIntel,60,IwAR0gT2z5jgxHzR0GPQkPYNpROplPwVFoqLMWguVy4zf-nKO2Ot8jkdQ8DK0,,,,,,,,,,1,,,,,,,,,,,,,,,,,,,,,,,,,,,,,,,,,,,,,,,,31,pandilla,,,1,1,1.65004,0,26,26,30,1,REAL,FAKE,,,,,,,,,,,,,,,,,,,,,
,,,,,,,midd07,midd,ma,Spain,West coast,13 or older,no,2021-03-30_10h12.55.905,empathy_intonation_perc,2020.2.10,MacIntel,60,IwAR0gT2z5jgxHzR0GPQkPYNpROplPwVFoqLMWguVy4zf-nKO2Ot8jkdQ8DK0,,,,,,,,,,1,,,,,,,,,,,,,,,,,,,,,,,,,,,,,,,,,,,,,,,,14,yunque,,,1,1,1.282405,0,27,27,13,1,REAL,FAKE,,,,,,,,,,,,,,,,,,,,,
,,,,,,,midd07,midd,ma,Spain,West coast,13 or older,no,2021-03-30_10h12.55.905,empathy_intonation_perc,2020.2.10,MacIntel,60,IwAR0gT2z5jgxHzR0GPQkPYNpROplPwVFoqLMWguVy4zf-nKO2Ot8jkdQ8DK0,,,,,,,,,,0,,,,,,,,,,,,,,,,,,,,,,,,,,,,,,,,,,,,,,,,32,fatacidad,,,0,1,1.70019,0,28,28,31,1,REAL,FAKE,,,,,,,,,,,,,,,,,,,,,
,,,,,,,midd07,midd,ma,Spain,West coast,13 or older,no,2021-03-30_10h12.55.905,empathy_intonation_perc,2020.2.10,MacIntel,60,IwAR0gT2z5jgxHzR0GPQkPYNpROplPwVFoqLMWguVy4zf-nKO2Ot8jkdQ8DK0,,,,,,,,,,1,,,,,,,,,,,,,,,,,,,,,,,,,,,,,,,,,,,,,,,,83,guante,,,1,1,1.149315,0,29,29,82,1,REAL,FAKE,,,,,,,,,,,,,,,,,,,,,
,,,,,,,midd07,midd,ma,Spain,West coast,13 or older,no,2021-03-30_10h12.55.905,empathy_intonation_perc,2020.2.10,MacIntel,60,IwAR0gT2z5jgxHzR0GPQkPYNpROplPwVFoqLMWguVy4zf-nKO2Ot8jkdQ8DK0,,,,,,,,,,0,,,,,,,,,,,,,,,,,,,,,,,,,,,,,,,,,,,,,,,,58,plaudir,,,0,1,1.35028,0,30,30,57,1,REAL,FAKE,,,,,,,,,,,,,,,,,,,,,
,,,,,,,midd07,midd,ma,Spain,West coast,13 or older,no,2021-03-30_10h12.55.905,empathy_intonation_perc,2020.2.10,MacIntel,60,IwAR0gT2z5jgxHzR0GPQkPYNpROplPwVFoqLMWguVy4zf-nKO2Ot8jkdQ8DK0,,,,,,,,,,1,,,,,,,,,,,,,,,,,,,,,,,,,,,,,,,,,,,,,,,,64,orgulloso,,,1,1,0.983085,0,31,31,63,1,REAL,FAKE,,,,,,,,,,,,,,,,,,,,,
,,,,,,,midd07,midd,ma,Spain,West coast,13 or older,no,2021-03-30_10h12.55.905,empathy_intonation_perc,2020.2.10,MacIntel,60,IwAR0gT2z5jgxHzR0GPQkPYNpROplPwVFoqLMWguVy4zf-nKO2Ot8jkdQ8DK0,,,,,,,,,,1,,,,,,,,,,,,,,,,,,,,,,,,,,,,,,,,,,,,,,,,5,zapato,,,1,1,2.349695,0,32,32,4,1,REAL,FAKE,,,,,,,,,,,,,,,,,,,,,
,,,,,,,midd07,midd,ma,Spain,West coast,13 or older,no,2021-03-30_10h12.55.905,empathy_intonation_perc,2020.2.10,MacIntel,60,IwAR0gT2z5jgxHzR0GPQkPYNpROplPwVFoqLMWguVy4zf-nKO2Ot8jkdQ8DK0,,,,,,,,,,1,,,,,,,,,,,,,,,,,,,,,,,,,,,,,,,,,,,,,,,,56,musgo,,,0,0,1.083275,0,33,33,55,1,REAL,FAKE,,,,,,,,,,,,,,,,,,,,,
,,,,,,,midd07,midd,ma,Spain,West coast,13 or older,no,2021-03-30_10h12.55.905,empathy_intonation_perc,2020.2.10,MacIntel,60,IwAR0gT2z5jgxHzR0GPQkPYNpROplPwVFoqLMWguVy4zf-nKO2Ot8jkdQ8DK0,,,,,,,,,,1,,,,,,,,,,,,,,,,,,,,,,,,,,,,,,,,,,,,,,,,11,cenefa,,,0,0,1.31574,0,34,34,10,1,REAL,FAKE,,,,,,,,,,,,,,,,,,,,,
,,,,,,,midd07,midd,ma,Spain,West coast,13 or older,no,2021-03-30_10h12.55.905,empathy_intonation_perc,2020.2.10,MacIntel,60,IwAR0gT2z5jgxHzR0GPQkPYNpROplPwVFoqLMWguVy4zf-nKO2Ot8jkdQ8DK0,,,,,,,,,,0,,,,,,,,,,,,,,,,,,,,,,,,,,,,,,,,,,,,,,,,30,alardio,,,0,1,1.28417,0,35,35,29,1,REAL,FAKE,,,,,,,,,,,,,,,,,,,,,
,,,,,,,midd07,midd,ma,Spain,West coast,13 or older,no,2021-03-30_10h12.55.905,empathy_intonation_perc,2020.2.10,MacIntel,60,IwAR0gT2z5jgxHzR0GPQkPYNpROplPwVFoqLMWguVy4zf-nKO2Ot8jkdQ8DK0,,,,,,,,,,1,,,,,,,,,,,,,,,,,,,,,,,,,,,,,,,,,,,,,,,,40,alfombra,,,1,1,1.14894,0,36,36,39,1,REAL,FAKE,,,,,,,,,,,,,,,,,,,,,
,,,,,,,midd07,midd,ma,Spain,West coast,13 or older,no,2021-03-30_10h12.55.905,empathy_intonation_perc,2020.2.10,MacIntel,60,IwAR0gT2z5jgxHzR0GPQkPYNpROplPwVFoqLMWguVy4zf-nKO2Ot8jkdQ8DK0,,,,,,,,,,1,,,,,,,,,,,,,,,,,,,,,,,,,,,,,,,,,,,,,,,,38,estornudar,,,1,1,1.79909,0,37,37,37,1,REAL,FAKE,,,,,,,,,,,,,,,,,,,,,
,,,,,,,midd07,midd,ma,Spain,West coast,13 or older,no,2021-03-30_10h12.55.905,empathy_intonation_perc,2020.2.10,MacIntel,60,IwAR0gT2z5jgxHzR0GPQkPYNpROplPwVFoqLMWguVy4zf-nKO2Ot8jkdQ8DK0,,,,,,,,,,0,,,,,,,,,,,,,,,,,,,,,,,,,,,,,,,,,,,,,,,,74,cintro,,,0,1,1.36819,0,38,38,73,1,REAL,FAKE,,,,,,,,,,,,,,,,,,,,,
,,,,,,,midd07,midd,ma,Spain,West coast,13 or older,no,2021-03-30_10h12.55.905,empathy_intonation_perc,2020.2.10,MacIntel,60,IwAR0gT2z5jgxHzR0GPQkPYNpROplPwVFoqLMWguVy4zf-nKO2Ot8jkdQ8DK0,,,,,,,,,,1,,,,,,,,,,,,,,,,,,,,,,,,,,,,,,,,,,,,,,,,37,granuja,,,0,0,2.70199,0,39,39,36,1,REAL,FAKE,,,,,,,,,,,,,,,,,,,,,
,,,,,,,midd07,midd,ma,Spain,West coast,13 or older,no,2021-03-30_10h12.55.905,empathy_intonation_perc,2020.2.10,MacIntel,60,IwAR0gT2z5jgxHzR0GPQkPYNpROplPwVFoqLMWguVy4zf-nKO2Ot8jkdQ8DK0,,,,,,,,,,1,,,,,,,,,,,,,,,,,,,,,,,,,,,,,,,,,,,,,,,,59,besar,,,1,1,0.91774,0,40,40,58,1,REAL,FAKE,,,,,,,,,,,,,,,,,,,,,
,,,,,,,midd07,midd,ma,Spain,West coast,13 or older,no,2021-03-30_10h12.55.905,empathy_intonation_perc,2020.2.10,MacIntel,60,IwAR0gT2z5jgxHzR0GPQkPYNpROplPwVFoqLMWguVy4zf-nKO2Ot8jkdQ8DK0,,,,,,,,,,1,,,,,,,,,,,,,,,,,,,,,,,,,,,,,,,,,,,,,,,,61,seda,,,1,1,1.15373,0,41,41,60,1,REAL,FAKE,,,,,,,,,,,,,,,,,,,,,
,,,,,,,midd07,midd,ma,Spain,West coast,13 or older,no,2021-03-30_10h12.55.905,empathy_intonation_perc,2020.2.10,MacIntel,60,IwAR0gT2z5jgxHzR0GPQkPYNpROplPwVFoqLMWguVy4zf-nKO2Ot8jkdQ8DK0,,,,,,,,,,1,,,,,,,,,,,,,,,,,,,,,,,,,,,,,,,,,,,,,,,,65,bizcocho,,,1,1,1.03261,0,42,42,64,1,REAL,FAKE,,,,,,,,,,,,,,,,,,,,,
,,,,,,,midd07,midd,ma,Spain,West coast,13 or older,no,2021-03-30_10h12.55.905,empathy_intonation_perc,2020.2.10,MacIntel,60,IwAR0gT2z5jgxHzR0GPQkPYNpROplPwVFoqLMWguVy4zf-nKO2Ot8jkdQ8DK0,,,,,,,,,,1,,,,,,,,,,,,,,,,,,,,,,,,,,,,,,,,,,,,,,,,43,canela,,,1,1,0.8332,0,43,43,42,1,REAL,FAKE,,,,,,,,,,,,,,,,,,,,,
,,,,,,,midd07,midd,ma,Spain,West coast,13 or older,no,2021-03-30_10h12.55.905,empathy_intonation_perc,2020.2.10,MacIntel,60,IwAR0gT2z5jgxHzR0GPQkPYNpROplPwVFoqLMWguVy4zf-nKO2Ot8jkdQ8DK0,,,,,,,,,,0,,,,,,,,,,,,,,,,,,,,,,,,,,,,,,,,,,,,,,,,63,esposante,,,0,1,1.22957,0,44,44,62,1,REAL,FAKE,,,,,,,,,,,,,,,,,,,,,
,,,,,,,midd07,midd,ma,Spain,West coast,13 or older,no,2021-03-30_10h12.55.905,empathy_intonation_perc,2020.2.10,MacIntel,60,IwAR0gT2z5jgxHzR0GPQkPYNpROplPwVFoqLMWguVy4zf-nKO2Ot8jkdQ8DK0,,,,,,,,,,1,,,,,,,,,,,,,,,,,,,,,,,,,,,,,,,,,,,,,,,,41,rebuscar,,,0,0,2.55144,0,45,45,40,1,REAL,FAKE,,,,,,,,,,,,,,,,,,,,,
,,,,,,,midd07,midd,ma,Spain,West coast,13 or older,no,2021-03-30_10h12.55.905,empathy_intonation_perc,2020.2.10,MacIntel,60,IwAR0gT2z5jgxHzR0GPQkPYNpROplPwVFoqLMWguVy4zf-nKO2Ot8jkdQ8DK0,,,,,,,,,,1,,,,,,,,,,,,,,,,,,,,,,,,,,,,,,,,,,,,,,,,12,asesinato,,,1,1,6.01685,0,46,46,11,1,REAL,FAKE,,,,,,,,,,,,,,,,,,,,,
,,,,,,,midd07,midd,ma,Spain,West coast,13 or older,no,2021-03-30_10h12.55.905,empathy_intonation_perc,2020.2.10,MacIntel,60,IwAR0gT2z5jgxHzR0GPQkPYNpROplPwVFoqLMWguVy4zf-nKO2Ot8jkdQ8DK0,,,,,,,,,,1,,,,,,,,,,,,,,,,,,,,,,,,,,,,,,,,,,,,,,,,48,ladrn,,,1,1,0.904135,0,47,47,47,1,REAL,FAKE,,,,,,,,,,,,,,,,,,,,,
,,,,,,,midd07,midd,ma,Spain,West coast,13 or older,no,2021-03-30_10h12.55.905,empathy_intonation_perc,2020.2.10,MacIntel,60,IwAR0gT2z5jgxHzR0GPQkPYNpROplPwVFoqLMWguVy4zf-nKO2Ot8jkdQ8DK0,,,,,,,,,,1,,,,,,,,,,,,,,,,,,,,,,,,,,,,,,,,,,,,,,,,57,tacao,,,1,1,1.101465,0,48,48,56,1,REAL,FAKE,,,,,,,,,,,,,,,,,,,,,
,,,,,,,midd07,midd,ma,Spain,West coast,13 or older,no,2021-03-30_10h12.55.905,empathy_intonation_perc,2020.2.10,MacIntel,60,IwAR0gT2z5jgxHzR0GPQkPYNpROplPwVFoqLMWguVy4zf-nKO2Ot8jkdQ8DK0,,,,,,,,,,0,,,,,,,,,,,,,,,,,,,,,,,,,,,,,,,,,,,,,,,,19,brecedad,,,0,1,1.03627,0,49,49,18,1,REAL,FAKE,,,,,,,,,,,,,,,,,,,,,
,,,,,,,midd07,midd,ma,Spain,West coast,13 or older,no,2021-03-30_10h12.55.905,empathy_intonation_perc,2020.2.10,MacIntel,60,IwAR0gT2z5jgxHzR0GPQkPYNpROplPwVFoqLMWguVy4zf-nKO2Ot8jkdQ8DK0,,,,,,,,,,1,,,,,,,,,,,,,,,,,,,,,,,,,,,,,,,,,,,,,,,,67,cabello,,,1,1,2.13406,0,50,50,66,1,REAL,FAKE,,,,,,,,,,,,,,,,,,,,,
,,,,,,,midd07,midd,ma,Spain,West coast,13 or older,no,2021-03-30_10h12.55.905,empathy_intonation_perc,2020.2.10,MacIntel,60,IwAR0gT2z5jgxHzR0GPQkPYNpROplPwVFoqLMWguVy4zf-nKO2Ot8jkdQ8DK0,,,,,,,,,,1,,,,,,,,,,,,,,,,,,,,,,,,,,,,,,,,,,,,,,,,24,ltigo,,,1,1,5.08267,0,51,51,23,1,REAL,FAKE,,,,,,,,,,,,,,,,,,,,,
,,,,,,,midd07,midd,ma,Spain,West coast,13 or older,no,2021-03-30_10h12.55.905,empathy_intonation_perc,2020.2.10,MacIntel,60,IwAR0gT2z5jgxHzR0GPQkPYNpROplPwVFoqLMWguVy4zf-nKO2Ot8jkdQ8DK0,,,,,,,,,,1,,,,,,,,,,,,,,,,,,,,,,,,,,,,,,,,,,,,,,,,25,bisagra,,,0,0,1.05002,0,52,52,24,1,REAL,FAKE,,,,,,,,,,,,,,,,,,,,,
,,,,,,,midd07,midd,ma,Spain,West coast,13 or older,no,2021-03-30_10h12.55.905,empathy_intonation_perc,2020.2.10,MacIntel,60,IwAR0gT2z5jgxHzR0GPQkPYNpROplPwVFoqLMWguVy4zf-nKO2Ot8jkdQ8DK0,,,,,,,,,,1,,,,,,,,,,,,,,,,,,,,,,,,,,,,,,,,,,,,,,,,34,aviso,,,1,1,0.869435,0,53,53,33,1,REAL,FAKE,,,,,,,,,,,,,,,,,,,,,
,,,,,,,midd07,midd,ma,Spain,West coast,13 or older,no,2021-03-30_10h12.55.905,empathy_intonation_perc,2020.2.10,MacIntel,60,IwAR0gT2z5jgxHzR0GPQkPYNpROplPwVFoqLMWguVy4zf-nKO2Ot8jkdQ8DK0,,,,,,,,,,1,,,,,,,,,,,,,,,,,,,,,,,,,,,,,,,,,,,,,,,,75,yacer,,,1,1,1.833125,0,54,54,74,1,REAL,FAKE,,,,,,,,,,,,,,,,,,,,,
,,,,,,,midd07,midd,ma,Spain,West coast,13 or older,no,2021-03-30_10h12.55.905,empathy_intonation_perc,2020.2.10,MacIntel,60,IwAR0gT2z5jgxHzR0GPQkPYNpROplPwVFoqLMWguVy4zf-nKO2Ot8jkdQ8DK0,,,,,,,,,,0,,,,,,,,,,,,,,,,,,,,,,,,,,,,,,,,,,,,,,,,47,cartinar,,,0,1,2.16653,0,55,55,46,1,REAL,FAKE,,,,,,,,,,,,,,,,,,,,,
,,,,,,,midd07,midd,ma,Spain,West coast,13 or older,no,2021-03-30_10h12.55.905,empathy_intonation_perc,2020.2.10,MacIntel,60,IwAR0gT2z5jgxHzR0GPQkPYNpROplPwVFoqLMWguVy4zf-nKO2Ot8jkdQ8DK0,,,,,,,,,,1,,,,,,,,,,,,,,,,,,,,,,,,,,,,,,,,,,,,,,,,60,matar,,,1,1,0.783205,0,56,56,59,1,REAL,FAKE,,,,,,,,,,,,,,,,,,,,,
,,,,,,,midd07,midd,ma,Spain,West coast,13 or older,no,2021-03-30_10h12.55.905,empathy_intonation_perc,2020.2.10,MacIntel,60,IwAR0gT2z5jgxHzR0GPQkPYNpROplPwVFoqLMWguVy4zf-nKO2Ot8jkdQ8DK0,,,,,,,,,,1,,,,,,,,,,,,,,,,,,,,,,,,,,,,,,,,,,,,,,,,13,helar,,,0,0,1.18374,0,57,57,12,1,REAL,FAKE,,,,,,,,,,,,,,,,,,,,,
,,,,,,,midd07,midd,ma,Spain,West coast,13 or older,no,2021-03-30_10h12.55.905,empathy_intonation_perc,2020.2.10,MacIntel,60,IwAR0gT2z5jgxHzR0GPQkPYNpROplPwVFoqLMWguVy4zf-nKO2Ot8jkdQ8DK0,,,,,,,,,,1,,,,,,,,,,,,,,,,,,,,,,,,,,,,,,,,,,,,,,,,77,tiburn,,,1,1,0.832925,0,58,58,76,1,REAL,FAKE,,,,,,,,,,,,,,,,,,,,,
,,,,,,,midd07,midd,ma,Spain,West coast,13 or older,no,2021-03-30_10h12.55.905,empathy_intonation_perc,2020.2.10,MacIntel,60,IwAR0gT2z5jgxHzR0GPQkPYNpROplPwVFoqLMWguVy4zf-nKO2Ot8jkdQ8DK0,,,,,,,,,,1,,,,,,,,,,,,,,,,,,,,,,,,,,,,,,,,,,,,,,,,15,regar,,,1,1,0.83356,0,59,59,14,1,REAL,FAKE,,,,,,,,,,,,,,,,,,,,,
,,,,,,,midd07,midd,ma,Spain,West coast,13 or older,no,2021-03-30_10h12.55.905,empathy_intonation_perc,2020.2.10,MacIntel,60,IwAR0gT2z5jgxHzR0GPQkPYNpROplPwVFoqLMWguVy4zf-nKO2Ot8jkdQ8DK0,,,,,,,,,,0,,,,,,,,,,,,,,,,,,,,,,,,,,,,,,,,,,,,,,,,17,floroso,,,0,1,1.518145,0,60,60,16,1,REAL,FAKE,,,,,,,,,,,,,,,,,,,,,
,,,,,,,midd07,midd,ma,Spain,West coast,13 or older,no,2021-03-30_10h12.55.905,empathy_intonation_perc,2020.2.10,MacIntel,60,IwAR0gT2z5jgxHzR0GPQkPYNpROplPwVFoqLMWguVy4zf-nKO2Ot8jkdQ8DK0,,,,,,,,,,0,,,,,,,,,,,,,,,,,,,,,,,,,,,,,,,,,,,,,,,,66,hacido,,,0,1,1.21669,0,61,61,65,1,REAL,FAKE,,,,,,,,,,,,,,,,,,,,,
,,,,,,,midd07,midd,ma,Spain,West coast,13 or older,no,2021-03-30_10h12.55.905,empathy_intonation_perc,2020.2.10,MacIntel,60,IwAR0gT2z5jgxHzR0GPQkPYNpROplPwVFoqLMWguVy4zf-nKO2Ot8jkdQ8DK0,,,,,,,,,,0,,,,,,,,,,,,,,,,,,,,,,,,,,,,,,,,,,,,,,,,35,rompido,,,0,1,1.099365,0,62,62,34,1,REAL,FAKE,,,,,,,,,,,,,,,,,,,,,
,,,,,,,midd07,midd,ma,Spain,West coast,13 or older,no,2021-03-30_10h12.55.905,empathy_intonation_perc,2020.2.10,MacIntel,60,IwAR0gT2z5jgxHzR0GPQkPYNpROplPwVFoqLMWguVy4zf-nKO2Ot8jkdQ8DK0,,,,,,,,,,0,,,,,,,,,,,,,,,,,,,,,,,,,,,,,,,,,,,,,,,,21,capillo,,,0,1,4.7478,0,63,63,20,1,REAL,FAKE,,,,,,,,,,,,,,,,,,,,,
,,,,,,,midd07,midd,ma,Spain,West coast,13 or older,no,2021-03-30_10h12.55.905,empathy_intonation_perc,2020.2.10,MacIntel,60,IwAR0gT2z5jgxHzR0GPQkPYNpROplPwVFoqLMWguVy4zf-nKO2Ot8jkdQ8DK0,,,,,,,,,,1,,,,,,,,,,,,,,,,,,,,,,,,,,,,,,,,,,,,,,,,55,nevar,,,1,1,0.716495,0,64,64,54,1,REAL,FAKE,,,,,,,,,,,,,,,,,,,,,
,,,,,,,midd07,midd,ma,Spain,West coast,13 or older,no,2021-03-30_10h12.55.905,empathy_intonation_perc,2020.2.10,MacIntel,60,IwAR0gT2z5jgxHzR0GPQkPYNpROplPwVFoqLMWguVy4zf-nKO2Ot8jkdQ8DK0,,,,,,,,,,1,,,,,,,,,,,,,,,,,,,,,,,,,,,,,,,,,,,,,,,,69,engatusar,,,1,1,1.6001,0,65,65,68,1,REAL,FAKE,,,,,,,,,,,,,,,,,,,,,
,,,,,,,midd07,midd,ma,Spain,West coast,13 or older,no,2021-03-30_10h12.55.905,empathy_intonation_perc,2020.2.10,MacIntel,60,IwAR0gT2z5jgxHzR0GPQkPYNpROplPwVFoqLMWguVy4zf-nKO2Ot8jkdQ8DK0,,,,,,,,,,0,,,,,,,,,,,,,,,,,,,,,,,,,,,,,,,,,,,,,,,,8,cadea,,,1,0,1.199705,0,66,66,7,1,REAL,FAKE,,,,,,,,,,,,,,,,,,,,,
,,,,,,,midd07,midd,ma,Spain,West coast,13 or older,no,2021-03-30_10h12.55.905,empathy_intonation_perc,2020.2.10,MacIntel,60,IwAR0gT2z5jgxHzR0GPQkPYNpROplPwVFoqLMWguVy4zf-nKO2Ot8jkdQ8DK0,,,,,,,,,,0,,,,,,,,,,,,,,,,,,,,,,,,,,,,,,,,,,,,,,,,29,decar,,,0,1,1.86862,0,67,67,28,1,REAL,FAKE,,,,,,,,,,,,,,,,,,,,,
,,,,,,,midd07,midd,ma,Spain,West coast,13 or older,no,2021-03-30_10h12.55.905,empathy_intonation_perc,2020.2.10,MacIntel,60,IwAR0gT2z5jgxHzR0GPQkPYNpROplPwVFoqLMWguVy4zf-nKO2Ot8jkdQ8DK0,,,,,,,,,,1,,,,,,,,,,,,,,,,,,,,,,,,,,,,,,,,,,,,,,,,3,pulmones,,,1,1,2.18324,0,68,68,2,1,REAL,FAKE,,,,,,,,,,,,,,,,,,,,,
,,,,,,,midd07,midd,ma,Spain,West coast,13 or older,no,2021-03-30_10h12.55.905,empathy_intonation_perc,2020.2.10,MacIntel,60,IwAR0gT2z5jgxHzR0GPQkPYNpROplPwVFoqLMWguVy4zf-nKO2Ot8jkdQ8DK0,,,,,,,,,,0,,,,,,,,,,,,,,,,,,,,,,,,,,,,,,,,,,,,,,,,4,batilln,,,1,0,4.0682,0,69,69,3,1,REAL,FAKE,,,,,,,,,,,,,,,,,,,,,
,,,,,,,midd07,midd,ma,Spain,West coast,13 or older,no,2021-03-30_10h12.55.905,empathy_intonation_perc,2020.2.10,MacIntel,60,IwAR0gT2z5jgxHzR0GPQkPYNpROplPwVFoqLMWguVy4zf-nKO2Ot8jkdQ8DK0,,,,,,,,,,1,,,,,,,,,,,,,,,,,,,,,,,,,,,,,,,,,,,,,,,,89,prisa,,,1,1,0.834555,0,70,70,88,1,REAL,FAKE,,,,,,,,,,,,,,,,,,,,,
,,,,,,,midd07,midd,ma,Spain,West coast,13 or older,no,2021-03-30_10h12.55.905,empathy_intonation_perc,2020.2.10,MacIntel,60,IwAR0gT2z5jgxHzR0GPQkPYNpROplPwVFoqLMWguVy4zf-nKO2Ot8jkdQ8DK0,,,,,,,,,,1,,,,,,,,,,,,,,,,,,,,,,,,,,,,,,,,,,,,,,,,46,martillo,,,1,1,0.932665,0,71,71,45,1,REAL,FAKE,,,,,,,,,,,,,,,,,,,,,
,,,,,,,midd07,midd,ma,Spain,West coast,13 or older,no,2021-03-30_10h12.55.905,empathy_intonation_perc,2020.2.10,MacIntel,60,IwAR0gT2z5jgxHzR0GPQkPYNpROplPwVFoqLMWguVy4zf-nKO2Ot8jkdQ8DK0,,,,,,,,,,1,,,,,,,,,,,,,,,,,,,,,,,,,,,,,,,,,,,,,,,,44,cuchara,,,1,1,1.048375,0,72,72,43,1,REAL,FAKE,,,,,,,,,,,,,,,,,,,,,
,,,,,,,midd07,midd,ma,Spain,West coast,13 or older,no,2021-03-30_10h12.55.905,empathy_intonation_perc,2020.2.10,MacIntel,60,IwAR0gT2z5jgxHzR0GPQkPYNpROplPwVFoqLMWguVy4zf-nKO2Ot8jkdQ8DK0,,,,,,,,,,1,,,,,,,,,,,,,,,,,,,,,,,,,,,,,,,,,,,,,,,,78,frondoso,,,0,0,1.099855,0,73,73,77,1,REAL,FAKE,,,,,,,,,,,,,,,,,,,,,
,,,,,,,midd07,midd,ma,Spain,West coast,13 or older,no,2021-03-30_10h12.55.905,empathy_intonation_perc,2020.2.10,MacIntel,60,IwAR0gT2z5jgxHzR0GPQkPYNpROplPwVFoqLMWguVy4zf-nKO2Ot8jkdQ8DK0,,,,,,,,,,0,,,,,,,,,,,,,,,,,,,,,,,,,,,,,,,,,,,,,,,,23,lampera,,,0,1,2.535355,0,74,74,22,1,REAL,FAKE,,,,,,,,,,,,,,,,,,,,,
,,,,,,,midd07,midd,ma,Spain,West coast,13 or older,no,2021-03-30_10h12.55.905,empathy_intonation_perc,2020.2.10,MacIntel,60,IwAR0gT2z5jgxHzR0GPQkPYNpROplPwVFoqLMWguVy4zf-nKO2Ot8jkdQ8DK0,,,,,,,,,,1,,,,,,,,,,,,,,,,,,,,,,,,,,,,,,,,,,,,,,,,90,clavel,,,1,1,2.800715,0,75,75,89,1,REAL,FAKE,,,,,,,,,,,,,,,,,,,,,
,,,,,,,midd07,midd,ma,Spain,West coast,13 or older,no,2021-03-30_10h12.55.905,empathy_intonation_perc,2020.2.10,MacIntel,60,IwAR0gT2z5jgxHzR0GPQkPYNpROplPwVFoqLMWguVy4zf-nKO2Ot8jkdQ8DK0,,,,,,,,,,0,,,,,,,,,,,,,,,,,,,,,,,,,,,,,,,,,,,,,,,,79,tropaje,,,0,1,1.33396,0,76,76,78,1,REAL,FAKE,,,,,,,,,,,,,,,,,,,,,
,,,,,,,midd07,midd,ma,Spain,West coast,13 or older,no,2021-03-30_10h12.55.905,empathy_intonation_perc,2020.2.10,MacIntel,60,IwAR0gT2z5jgxHzR0GPQkPYNpROplPwVFoqLMWguVy4zf-nKO2Ot8jkdQ8DK0,,,,,,,,,,0,,,,,,,,,,,,,,,,,,,,,,,,,,,,,,,,,,,,,,,,16,abracer,,,0,1,4.666415,0,77,77,15,1,REAL,FAKE,,,,,,,,,,,,,,,,,,,,,
,,,,,,,midd07,midd,ma,Spain,West coast,13 or older,no,2021-03-30_10h12.55.905,empathy_intonation_perc,2020.2.10,MacIntel,60,IwAR0gT2z5jgxHzR0GPQkPYNpROplPwVFoqLMWguVy4zf-nKO2Ot8jkdQ8DK0,,,,,,,,,,1,,,,,,,,,,,,,,,,,,,,,,,,,,,,,,,,,,,,,,,,6,tergiversar,,,0,0,3.250145,0,78,78,5,1,REAL,FAKE,,,,,,,,,,,,,,,,,,,,,
,,,,,,,midd07,midd,ma,Spain,West coast,13 or older,no,2021-03-30_10h12.55.905,empathy_intonation_perc,2020.2.10,MacIntel,60,IwAR0gT2z5jgxHzR0GPQkPYNpROplPwVFoqLMWguVy4zf-nKO2Ot8jkdQ8DK0,,,,,,,,,,1,,,,,,,,,,,,,,,,,,,,,,,,,,,,,,,,,,,,,,,,22,lacayo,,,0,0,1.100265,0,79,79,21,1,REAL,FAKE,,,,,,,,,,,,,,,,,,,,,
,,,,,,,midd07,midd,ma,Spain,West coast,13 or older,no,2021-03-30_10h12.55.905,empathy_intonation_perc,2020.2.10,MacIntel,60,IwAR0gT2z5jgxHzR0GPQkPYNpROplPwVFoqLMWguVy4zf-nKO2Ot8jkdQ8DK0,,,,,,,,,,1,,,,,,,,,,,,,,,,,,,,,,,,,,,,,,,,,,,,,,,,45,jilguero,,,0,0,1.60018,0,80,80,44,1,REAL,FAKE,,,,,,,,,,,,,,,,,,,,,
,,,,,,,midd07,midd,ma,Spain,West coast,13 or older,no,2021-03-30_10h12.55.905,empathy_intonation_perc,2020.2.10,MacIntel,60,IwAR0gT2z5jgxHzR0GPQkPYNpROplPwVFoqLMWguVy4zf-nKO2Ot8jkdQ8DK0,,,,,,,,,,0,,,,,,,,,,,,,,,,,,,,,,,,,,,,,,,,,,,,,,,,87,grodo,,,0,1,1.75024,0,81,81,86,1,REAL,FAKE,,,,,,,,,,,,,,,,,,,,,
,,,,,,,midd07,midd,ma,Spain,West coast,13 or older,no,2021-03-30_10h12.55.905,empathy_intonation_perc,2020.2.10,MacIntel,60,IwAR0gT2z5jgxHzR0GPQkPYNpROplPwVFoqLMWguVy4zf-nKO2Ot8jkdQ8DK0,,,,,,,,,,1,,,,,,,,,,,,,,,,,,,,,,,,,,,,,,,,,,,,,,,,54,fomentar,,,1,1,0.900635,0,82,82,53,1,REAL,FAKE,,,,,,,,,,,,,,,,,,,,,
,,,,,,,midd07,midd,ma,Spain,West coast,13 or older,no,2021-03-30_10h12.55.905,empathy_intonation_perc,2020.2.10,MacIntel,60,IwAR0gT2z5jgxHzR0GPQkPYNpROplPwVFoqLMWguVy4zf-nKO2Ot8jkdQ8DK0,,,,,,,,,,1,,,,,,,,,,,,,,,,,,,,,,,,,,,,,,,,,,,,,,,,2,pellizcar,,,1,1,1.554495,0,83,83,1,1,REAL,FAKE,,,,,,,,,,,,,,,,,,,,,
,,,,,,,midd07,midd,ma,Spain,West coast,13 or older,no,2021-03-30_10h12.55.905,empathy_intonation_perc,2020.2.10,MacIntel,60,IwAR0gT2z5jgxHzR0GPQkPYNpROplPwVFoqLMWguVy4zf-nKO2Ot8jkdQ8DK0,,,,,,,,,,0,,,,,,,,,,,,,,,,,,,,,,,,,,,,,,,,,,,,,,,,50,flamida,,,0,1,1.1678,0,84,84,49,1,REAL,FAKE,,,,,,,,,,,,,,,,,,,,,
,,,,,,,midd07,midd,ma,Spain,West coast,13 or older,no,2021-03-30_10h12.55.905,empathy_intonation_perc,2020.2.10,MacIntel,60,IwAR0gT2z5jgxHzR0GPQkPYNpROplPwVFoqLMWguVy4zf-nKO2Ot8jkdQ8DK0,,,,,,,,,,1,,,,,,,,,,,,,,,,,,,,,,,,,,,,,,,,,,,,,,,,20,vido,,,1,1,2.01746,0,85,85,19,1,REAL,FAKE,,,,,,,,,,,,,,,,,,,,,
,,,,,,,midd07,midd,ma,Spain,West coast,13 or older,no,2021-03-30_10h12.55.905,empathy_intonation_perc,2020.2.10,MacIntel,60,IwAR0gT2z5jgxHzR0GPQkPYNpROplPwVFoqLMWguVy4zf-nKO2Ot8jkdQ8DK0,,,,,,,,,,1,,,,,,,,,,,,,,,,,,,,,,,,,,,,,,,,,,,,,,,,9,hacha,,,1,1,1.84839,0,86,86,8,1,REAL,FAKE,,,,,,,,,,,,,,,,,,,,,
,,,,,,,midd07,midd,ma,Spain,West coast,13 or older,no,2021-03-30_10h12.55.905,empathy_intonation_perc,2020.2.10,MacIntel,60,IwAR0gT2z5jgxHzR0GPQkPYNpROplPwVFoqLMWguVy4zf-nKO2Ot8jkdQ8DK0,,,,,,,,,,0,,,,,,,,,,,,,,,,,,,,,,,,,,,,,,,,,,,,,,,,53,vegada,,,0,1,2.016515,0,87,87,52,1,REAL,FAKE,,,,,,,,,,,,,,,,,,,,,
,,,,,,,midd07,midd,ma,Spain,West coast,13 or older,no,2021-03-30_10h12.55.905,empathy_intonation_perc,2020.2.10,MacIntel,60,IwAR0gT2z5jgxHzR0GPQkPYNpROplPwVFoqLMWguVy4zf-nKO2Ot8jkdQ8DK0,,,,,,,,,,1,,,,,,,,,,,,,,,,,,,,,,,,,,,,,,,,,,,,,,,,7,psimo,,,1,1,0.86923,0,88,88,6,1,REAL,FAKE,,,,,,,,,,,,,,,,,,,,,
,,,,,,,midd07,midd,ma,Spain,West coast,13 or older,no,2021-03-30_10h12.55.905,empathy_intonation_perc,2020.2.10,MacIntel,60,IwAR0gT2z5jgxHzR0GPQkPYNpROplPwVFoqLMWguVy4zf-nKO2Ot8jkdQ8DK0,,,,,,,,,,1,,,,,,,,,,,,,,,,,,,,,,,,,,,,,,,,,,,,,,,,86,barato,,,1,1,0.800385,0,89,89,85,1,REAL,FAKE,,,,,,,,,,,,,,,,,,,,,
,,,,,,,midd07,midd,ma,Spain,West coast,13 or older,no,2021-03-30_10h12.55.905,empathy_intonation_perc,2020.2.10,MacIntel,60,IwAR0gT2z5jgxHzR0GPQkPYNpROplPwVFoqLMWguVy4zf-nKO2Ot8jkdQ8DK0,,,,,,,,,,,,,,,,,,,,,,,,,,,,,,,,,,,,,,,,,,,,,,,,,,,,,,,,,,,,,,,,4,1,3.68299,1,0,0,0,0,0,1,,,,,,,,,,,
,,,,,,,midd07,midd,ma,Spain,West coast,13 or older,no,2021-03-30_10h12.55.905,empathy_intonation_perc,2020.2.10,MacIntel,60,IwAR0gT2z5jgxHzR0GPQkPYNpROplPwVFoqLMWguVy4zf-nKO2Ot8jkdQ8DK0,,,,,,,,,,,,,,,,,,,,1,,,,,,,,,,,,,,,,,,,,,,,,,,,,,,,,,,,,,,,,,,,,,,,,,,,,,,1,0,0,0,0,1,I can easily tell if someone else wants to enter a conversation.,1,0,1,0
,,,,,,,midd07,midd,ma,Spain,West coast,13 or older,no,2021-03-30_10h12.55.905,empathy_intonation_perc,2020.2.10,MacIntel,60,IwAR0gT2z5jgxHzR0GPQkPYNpROplPwVFoqLMWguVy4zf-nKO2Ot8jkdQ8DK0,,,,,,,,,,,,,,,,,,,,2,,,,,,,,,,,,,,,,,,,,,,,,,,,,,,,,,,,,,,,,,,,,,,,,,,,,,,3,0,1,1,1,1,I prefer animals to humans.,0,1,0,0
,,,,,,,midd07,midd,ma,Spain,West coast,13 or older,no,2021-03-30_10h12.55.905,empathy_intonation_perc,2020.2.10,MacIntel,60,IwAR0gT2z5jgxHzR0GPQkPYNpROplPwVFoqLMWguVy4zf-nKO2Ot8jkdQ8DK0,,,,,,,,,,,,,,,,,,,,3,,,,,,,,,,,,,,,,,,,,,,,,,,,,,,,,,,,,,,,,,,,,,,,,,,,,,,2,0,2,2,2,1,I try to keep up with the current trends and fashions.,0,1,0,0
,,,,,,,midd07,midd,ma,Spain,West coast,13 or older,no,2021-03-30_10h12.55.905,empathy_intonation_perc,2020.2.10,MacIntel,60,IwAR0gT2z5jgxHzR0GPQkPYNpROplPwVFoqLMWguVy4zf-nKO2Ot8jkdQ8DK0,,,,,,,,,,,,,,,,,,,,4,,,,,,,,,,,,,,,,,,,,,,,,,,,,,,,,,,,,,,,,,,,,,,,,,,,,,,4,0,3,3,3,1,"I find it difficult to explain to others things that I understand easily, 
  when they dont understand it first time.",1,0,0,1
,,,,,,,midd07,midd,ma,Spain,West coast,13 or older,no,2021-03-30_10h12.55.905,empathy_intonation_perc,2020.2.10,MacIntel,60,IwAR0gT2z5jgxHzR0GPQkPYNpROplPwVFoqLMWguVy4zf-nKO2Ot8jkdQ8DK0,,,,,,,,,,,,,,,,,,,,5,,,,,,,,,,,,,,,,,,,,,,,,,,,,,,,,,,,,,,,,,,,,,,,,,,,,,,2,0,4,4,4,1,I dream most nights.,0,1,0,0
