instructions_2afc_loop.thisRepN,instructions_2afc_loop.thisTrialN,instructions_2afc_loop.thisN,instructions_2afc_loop.thisIndex,instructions_2afc_loop.ran,instructions_text,continue_text,participant,study_id,session,I am most familiar with Spanish from...*,What part of the US are you from?*,At what age did you begin learning Spanish?*,Are you proficient in any languages other than English/Spanish?*,date,expName,psychopyVersion,OS,frameRate,fbclid,key_resp_2afc_practice.keys,key_resp_2afc_practice.corr,key_resp_2afc_practice.rt,trials_2afc_practice_loop.thisRepN,trials_2afc_practice_loop.thisTrialN,trials_2afc_practice_loop.thisN,trials_2afc_practice_loop.thisIndex,trials_2afc_practice_loop.ran,path,correct_response,the_col,key_resp_2afc_trial.keys,key_resp_2afc_trial.corr,key_resp_2afc_trial.rt,trials_2afc_loop.thisRepN,trials_2afc_loop.thisTrialN,trials_2afc_loop.thisN,trials_2afc_loop.thisIndex,trials_2afc_loop.ran,item_num,andalusian,argentine,castilian,chilean,cuban,mexican,peruvian,puertorican,key_resp_ac1.keys,key_resp_ac1.corr,key_resp_ac1.rt,ac1_loop.thisRepN,ac1_loop.thisTrialN,ac1_loop.thisN,ac1_loop.thisIndex,ac1_loop.ran,instructions_lextale_loop.thisRepN,instructions_lextale_loop.thisTrialN,instructions_lextale_loop.thisN,instructions_lextale_loop.thisIndex,instructions_lextale_loop.ran,key_resp_lextale_practice.keys,key_resp_lextale_practice.corr,key_resp_lextale_practice.rt,trials_lextale_practice_loop.thisRepN,trials_lextale_practice_loop.thisTrialN,trials_lextale_practice_loop.thisN,trials_lextale_practice_loop.thisIndex,trials_lextale_practice_loop.ran,stim,word,prac_button_real,prac_button_false,key_resp_lextale_trial.keys,key_resp_lextale_trial.corr,key_resp_lextale_trial.rt,trials_lextale_loop.thisRepN,trials_lextale_loop.thisTrialN,trials_lextale_loop.thisN,trials_lextale_loop.thisIndex,trials_lextale_loop.ran,button_real,button_false,key_resp_ac2.keys,key_resp_ac2.corr,key_resp_ac2.rt,check_pass,check_fails,ac2_loop.thisRepN,ac2_loop.thisTrialN,ac2_loop.thisN,ac2_loop.thisIndex,ac2_loop.ran,slider_eq_trial.response,trials_eq_loop.thisRepN,trials_eq_loop.thisTrialN,trials_eq_loop.thisN,trials_eq_loop.thisIndex,trials_eq_loop.ran,item,is_test_item,is_distractor,is_agree_score,is_disagree_score
0,0,0,0,1,"In the following task you are going to hear a series of utterances. 

  You will decide if the utterances sound like questions or not using your keyboard.",(press the spacebar to continue),midd27,midd,ma,Spain,Northeast,12 or younger,yes,2021-03-30_20h36.26.077,empathy_intonation_perc,2020.2.10,MacIntel,60,IwAR2meXeu2-O5-2TyiEsD3M2VduglKrX9Rb2UmezINmRgUUlWZ1Fcvk-G0yc,,,,,,,,,,,,,,,,,,,,,,,,,,,,,,,,,,,,,,,,,,,,,,,,,,,,,,,,,,,,,,,,,,,,,,,,,,,,,,,,,,,,
0,1,1,1,1,"If you believe the utterance is a question, type '1' (for 'yes') and if you do not 
  believe it is a question type '0' (for 'no').

  Let's practice a bit...",(press the spacebar to continue),midd27,midd,ma,Spain,Northeast,12 or younger,yes,2021-03-30_20h36.26.077,empathy_intonation_perc,2020.2.10,MacIntel,60,IwAR2meXeu2-O5-2TyiEsD3M2VduglKrX9Rb2UmezINmRgUUlWZ1Fcvk-G0yc,,,,,,,,,,,,,,,,,,,,,,,,,,,,,,,,,,,,,,,,,,,,,,,,,,,,,,,,,,,,,,,,,,,,,,,,,,,,,,,,,,,,
,,,,,,,midd27,midd,ma,Spain,Northeast,12 or younger,yes,2021-03-30_20h36.26.077,empathy_intonation_perc,2020.2.10,MacIntel,60,IwAR2meXeu2-O5-2TyiEsD3M2VduglKrX9Rb2UmezINmRgUUlWZ1Fcvk-G0yc,0,1,6.75558,0,0,0,5,1,./stim/wavs/andalusian_statement_filler_Alberto-nunca-se-afeita.wav,0,,,,,,,,,,,,,,,,,,,,,,,,,,,,,,,,,,,,,,,,,,,,,,,,,,,,,,,,,,,,,,,,,,,,,,,,,,
,,,,,,,midd27,midd,ma,Spain,Northeast,12 or younger,yes,2021-03-30_20h36.26.077,empathy_intonation_perc,2020.2.10,MacIntel,60,IwAR2meXeu2-O5-2TyiEsD3M2VduglKrX9Rb2UmezINmRgUUlWZ1Fcvk-G0yc,1,1,2.20026,0,1,1,3,1,./stim/wavs/mexican_question_filler_Felipe-no-tiene-contrasena.wav,1,,,,,,,,,,,,,,,,,,,,,,,,,,,,,,,,,,,,,,,,,,,,,,,,,,,,,,,,,,,,,,,,,,,,,,,,,,
,,,,,,,midd27,midd,ma,Spain,Northeast,12 or younger,yes,2021-03-30_20h36.26.077,empathy_intonation_perc,2020.2.10,MacIntel,60,IwAR2meXeu2-O5-2TyiEsD3M2VduglKrX9Rb2UmezINmRgUUlWZ1Fcvk-G0yc,1,1,1.553405,0,2,2,1,1,./stim/wavs/argentine_question_filler_Mi-vecino-habla-mucho.wav,1,,,,,,,,,,,,,,,,,,,,,,,,,,,,,,,,,,,,,,,,,,,,,,,,,,,,,,,,,,,,,,,,,,,,,,,,,,
,,,,,,,midd27,midd,ma,Spain,Northeast,12 or younger,yes,2021-03-30_20h36.26.077,empathy_intonation_perc,2020.2.10,MacIntel,60,IwAR2meXeu2-O5-2TyiEsD3M2VduglKrX9Rb2UmezINmRgUUlWZ1Fcvk-G0yc,0,1,2.135755,0,3,3,6,1,./stim/wavs/peruvian_statement_filler_El-nino-habla-con-su-madre.wav,0,,,,,,,,,,,,,,,,,,,,,,,,,,,,,,,,,,,,,,,,,,,,,,,,,,,,,,,,,,,,,,,,,,,,,,,,,,
,,,,,,,midd27,midd,ma,Spain,Northeast,12 or younger,yes,2021-03-30_20h36.26.077,empathy_intonation_perc,2020.2.10,MacIntel,60,IwAR2meXeu2-O5-2TyiEsD3M2VduglKrX9Rb2UmezINmRgUUlWZ1Fcvk-G0yc,0,1,1.76175,0,4,4,4,1,./stim/wavs/cuban_statement_filler_Cocinabas-por-la-noche.wav,0,,,,,,,,,,,,,,,,,,,,,,,,,,,,,,,,,,,,,,,,,,,,,,,,,,,,,,,,,,,,,,,,,,,,,,,,,,
,,,,,,,midd27,midd,ma,Spain,Northeast,12 or younger,yes,2021-03-30_20h36.26.077,empathy_intonation_perc,2020.2.10,MacIntel,60,IwAR2meXeu2-O5-2TyiEsD3M2VduglKrX9Rb2UmezINmRgUUlWZ1Fcvk-G0yc,0,0,3.72086,0,5,5,2,1,./stim/wavs/chilean_question_filler_Mi-padre-cantaba-bien.wav,1,,,,,,,,,,,,,,,,,,,,,,,,,,,,,,,,,,,,,,,,,,,,,,,,,,,,,,,,,,,,,,,,,,,,,,,,,,
,,,,,,,midd27,midd,ma,Spain,Northeast,12 or younger,yes,2021-03-30_20h36.26.077,empathy_intonation_perc,2020.2.10,MacIntel,60,IwAR2meXeu2-O5-2TyiEsD3M2VduglKrX9Rb2UmezINmRgUUlWZ1Fcvk-G0yc,0,1,2.000335,0,6,6,7,1,./stim/wavs/puertorican_statement_filler_La-nina-pinta-con-su-amiga.wav,0,,,,,,,,,,,,,,,,,,,,,,,,,,,,,,,,,,,,,,,,,,,,,,,,,,,,,,,,,,,,,,,,,,,,,,,,,,
,,,,,,,midd27,midd,ma,Spain,Northeast,12 or younger,yes,2021-03-30_20h36.26.077,empathy_intonation_perc,2020.2.10,MacIntel,60,IwAR2meXeu2-O5-2TyiEsD3M2VduglKrX9Rb2UmezINmRgUUlWZ1Fcvk-G0yc,1,1,2.763785,0,7,7,0,1,./stim/wavs/castilian_question_filler_Mi-esposo-conoce-al-chico.wav,1,,,,,,,,,,,,,,,,,,,,,,,,,,,,,,,,,,,,,,,,,,,,,,,,,,,,,,,,,,,,,,,,,,,,,,,,,,
,,,,,,,midd27,midd,ma,Spain,Northeast,12 or younger,yes,2021-03-30_20h36.26.077,empathy_intonation_perc,2020.2.10,MacIntel,60,IwAR2meXeu2-O5-2TyiEsD3M2VduglKrX9Rb2UmezINmRgUUlWZ1Fcvk-G0yc,,,,,,,,,,0,castilian,0,1,1.66753,0,0,0,41,1,42,./stim/wavs/andalusian_mismatch_declarative-narrow-focus_El-hombre-mira-la-luna.wav,./stim/wavs/argentine_mismatch_declarative-narrow-focus_El-hombre-mira-la-luna.wav,./stim/wavs/castilian_mismatch_declarative-narrow-focus_El-hombre-mira-la-luna.wav,./stim/wavs/chilean_mismatch_declarative-narrow-focus_El-hombre-mira-la-luna.wav,./stim/wavs/cuban_mismatch_declarative-narrow-focus_El-hombre-mira-la-luna.wav,./stim/wavs/mexican_mismatch_declarative-narrow-focus_El-hombre-mira-la-luna.wav,./stim/wavs/peruvian_mismatch_declarative-narrow-focus_El-hombre-mira-la-luna.wav,./stim/wavs/puertorican_mismatch_declarative-narrow-focus_El-hombre-mira-la-luna.wav,,,,,,,,,,,,,,,,,,,,,,,,,,,,,,,,,,,,,,,,,,,,,,,,,,,,,,,,
,,,,,,,midd27,midd,ma,Spain,Northeast,12 or younger,yes,2021-03-30_20h36.26.077,empathy_intonation_perc,2020.2.10,MacIntel,60,IwAR2meXeu2-O5-2TyiEsD3M2VduglKrX9Rb2UmezINmRgUUlWZ1Fcvk-G0yc,,,,,,,,,,1,castilian,1,1,2.034105,0,1,1,59,1,60,./stim/wavs/andalusian_mismatch_interrogative-total-yn_La-maestra-vive-en-Paris.wav,./stim/wavs/argentine_mismatch_interrogative-total-yn_La-maestra-vive-en-Paris.wav,./stim/wavs/castilian_mismatch_interrogative-total-yn_La-maestra-vive-en-Paris.wav,./stim/wavs/chilean_mismatch_interrogative-total-yn_La-maestra-vive-en-Paris.wav,./stim/wavs/cuban_mismatch_interrogative-total-yn_La-maestra-vive-en-Paris.wav,./stim/wavs/mexican_mismatch_interrogative-total-yn_La-maestra-vive-en-Paris.wav,./stim/wavs/peruvian_mismatch_interrogative-total-yn_La-maestra-vive-en-Paris.wav,./stim/wavs/puertorican_mismatch_interrogative-total-yn_La-maestra-vive-en-Paris.wav,,,,,,,,,,,,,,,,,,,,,,,,,,,,,,,,,,,,,,,,,,,,,,,,,,,,,,,,
,,,,,,,midd27,midd,ma,Spain,Northeast,12 or younger,yes,2021-03-30_20h36.26.077,empathy_intonation_perc,2020.2.10,MacIntel,60,IwAR2meXeu2-O5-2TyiEsD3M2VduglKrX9Rb2UmezINmRgUUlWZ1Fcvk-G0yc,,,,,,,,,,1,mexican,1,1,2.08393,0,2,2,17,1,18,./stim/wavs/andalusian_match_interrogative-partial-wh_Cuando-leia-el-libro.wav,./stim/wavs/argentine_match_interrogative-partial-wh_Cuando-leia-el-libro.wav,./stim/wavs/castilian_match_interrogative-partial-wh_Cuando-leia-el-libro.wav,./stim/wavs/chilean_match_interrogative-partial-wh_Cuando-leia-el-libro.wav,./stim/wavs/cuban_match_interrogative-partial-wh_Cuando-leia-el-libro.wav,./stim/wavs/mexican_match_interrogative-partial-wh_Cuando-leia-el-libro.wav,./stim/wavs/peruvian_match_interrogative-partial-wh_Cuando-leia-el-libro.wav,./stim/wavs/puertorican_match_interrogative-partial-wh_Cuando-leia-el-libro.wav,,,,,,,,,,,,,,,,,,,,,,,,,,,,,,,,,,,,,,,,,,,,,,,,,,,,,,,,
,,,,,,,midd27,midd,ma,Spain,Northeast,12 or younger,yes,2021-03-30_20h36.26.077,empathy_intonation_perc,2020.2.10,MacIntel,60,IwAR2meXeu2-O5-2TyiEsD3M2VduglKrX9Rb2UmezINmRgUUlWZ1Fcvk-G0yc,,,,,,,,,,1,cuban,0,0,1.55251,0,3,3,62,1,63,./stim/wavs/andalusian_mismatch_interrogative-total-yn_Mi-novio-viene-del-lago.wav,./stim/wavs/argentine_mismatch_interrogative-total-yn_Mi-novio-viene-del-lago.wav,./stim/wavs/castilian_mismatch_interrogative-total-yn_Mi-novio-viene-del-lago.wav,./stim/wavs/chilean_mismatch_interrogative-total-yn_Mi-novio-viene-del-lago.wav,./stim/wavs/cuban_mismatch_interrogative-total-yn_Mi-novio-viene-del-lago.wav,./stim/wavs/mexican_mismatch_interrogative-total-yn_Mi-novio-viene-del-lago.wav,./stim/wavs/peruvian_mismatch_interrogative-total-yn_Mi-novio-viene-del-lago.wav,./stim/wavs/puertorican_mismatch_interrogative-total-yn_Mi-novio-viene-del-lago.wav,,,,,,,,,,,,,,,,,,,,,,,,,,,,,,,,,,,,,,,,,,,,,,,,,,,,,,,,
,,,,,,,midd27,midd,ma,Spain,Northeast,12 or younger,yes,2021-03-30_20h36.26.077,empathy_intonation_perc,2020.2.10,MacIntel,60,IwAR2meXeu2-O5-2TyiEsD3M2VduglKrX9Rb2UmezINmRgUUlWZ1Fcvk-G0yc,,,,,,,,,,0,argentine,0,1,1.518605,0,4,4,13,1,14,./stim/wavs/andalusian_match_declarative-narrow-focus_Maria-bebe-el-vino.wav,./stim/wavs/argentine_match_declarative-narrow-focus_Maria-bebe-el-vino.wav,./stim/wavs/castilian_match_declarative-narrow-focus_Maria-bebe-el-vino.wav,./stim/wavs/chilean_match_declarative-narrow-focus_Maria-bebe-el-vino.wav,./stim/wavs/cuban_match_declarative-narrow-focus_Maria-bebe-el-vino.wav,./stim/wavs/mexican_match_declarative-narrow-focus_Maria-bebe-el-vino.wav,./stim/wavs/peruvian_match_declarative-narrow-focus_Maria-bebe-el-vino.wav,./stim/wavs/puertorican_match_declarative-narrow-focus_Maria-bebe-el-vino.wav,,,,,,,,,,,,,,,,,,,,,,,,,,,,,,,,,,,,,,,,,,,,,,,,,,,,,,,,
,,,,,,,midd27,midd,ma,Spain,Northeast,12 or younger,yes,2021-03-30_20h36.26.077,empathy_intonation_perc,2020.2.10,MacIntel,60,IwAR2meXeu2-O5-2TyiEsD3M2VduglKrX9Rb2UmezINmRgUUlWZ1Fcvk-G0yc,,,,,,,,,,1,andalusian,1,1,1.376485,0,5,5,25,1,26,./stim/wavs/andalusian_match_interrogative-total-yn_Daniel-iba-a-Bolivia.wav,./stim/wavs/argentine_match_interrogative-total-yn_Daniel-iba-a-Bolivia.wav,./stim/wavs/castilian_match_interrogative-total-yn_Daniel-iba-a-Bolivia.wav,./stim/wavs/chilean_match_interrogative-total-yn_Daniel-iba-a-Bolivia.wav,./stim/wavs/cuban_match_interrogative-total-yn_Daniel-iba-a-Bolivia.wav,./stim/wavs/mexican_match_interrogative-total-yn_Daniel-iba-a-Bolivia.wav,./stim/wavs/peruvian_match_interrogative-total-yn_Daniel-iba-a-Bolivia.wav,./stim/wavs/puertorican_match_interrogative-total-yn_Daniel-iba-a-Bolivia.wav,,,,,,,,,,,,,,,,,,,,,,,,,,,,,,,,,,,,,,,,,,,,,,,,,,,,,,,,
,,,,,,,midd27,midd,ma,Spain,Northeast,12 or younger,yes,2021-03-30_20h36.26.077,empathy_intonation_perc,2020.2.10,MacIntel,60,IwAR2meXeu2-O5-2TyiEsD3M2VduglKrX9Rb2UmezINmRgUUlWZ1Fcvk-G0yc,,,,,,,,,,0,argentine,0,1,1.800885,0,6,6,6,1,7,./stim/wavs/andalusian_match_declarative-broad-focus_Mariano-habla-del-tiempo.wav,./stim/wavs/argentine_match_declarative-broad-focus_Mariano-habla-del-tiempo.wav,./stim/wavs/castilian_match_declarative-broad-focus_Mariano-habla-del-tiempo.wav,./stim/wavs/chilean_match_declarative-broad-focus_Mariano-habla-del-tiempo.wav,./stim/wavs/cuban_match_declarative-broad-focus_Mariano-habla-del-tiempo.wav,./stim/wavs/mexican_match_declarative-broad-focus_Mariano-habla-del-tiempo.wav,./stim/wavs/peruvian_match_declarative-broad-focus_Mariano-habla-del-tiempo.wav,./stim/wavs/puertorican_match_declarative-broad-focus_Mariano-habla-del-tiempo.wav,,,,,,,,,,,,,,,,,,,,,,,,,,,,,,,,,,,,,,,,,,,,,,,,,,,,,,,,
,,,,,,,midd27,midd,ma,Spain,Northeast,12 or younger,yes,2021-03-30_20h36.26.077,empathy_intonation_perc,2020.2.10,MacIntel,60,IwAR2meXeu2-O5-2TyiEsD3M2VduglKrX9Rb2UmezINmRgUUlWZ1Fcvk-G0yc,,,,,,,,,,1,peruvian,1,1,1.38241,0,7,7,20,1,21,./stim/wavs/andalusian_match_interrogative-partial-wh_Por-que-abre-el-regalo.wav,./stim/wavs/argentine_match_interrogative-partial-wh_Por-que-abre-el-regalo.wav,./stim/wavs/castilian_match_interrogative-partial-wh_Por-que-abre-el-regalo.wav,./stim/wavs/chilean_match_interrogative-partial-wh_Por-que-abre-el-regalo.wav,./stim/wavs/cuban_match_interrogative-partial-wh_Por-que-abre-el-regalo.wav,./stim/wavs/mexican_match_interrogative-partial-wh_Por-que-abre-el-regalo.wav,./stim/wavs/peruvian_match_interrogative-partial-wh_Por-que-abre-el-regalo.wav,./stim/wavs/puertorican_match_interrogative-partial-wh_Por-que-abre-el-regalo.wav,,,,,,,,,,,,,,,,,,,,,,,,,,,,,,,,,,,,,,,,,,,,,,,,,,,,,,,,
,,,,,,,midd27,midd,ma,Spain,Northeast,12 or younger,yes,2021-03-30_20h36.26.077,empathy_intonation_perc,2020.2.10,MacIntel,60,IwAR2meXeu2-O5-2TyiEsD3M2VduglKrX9Rb2UmezINmRgUUlWZ1Fcvk-G0yc,,,,,,,,,,0,castilian,0,1,1.66643,0,8,8,36,1,37,./stim/wavs/andalusian_mismatch_declarative-broad-focus_La-nina-lava-el-plato.wav,./stim/wavs/argentine_mismatch_declarative-broad-focus_La-nina-lava-el-plato.wav,./stim/wavs/castilian_mismatch_declarative-broad-focus_La-nina-lava-el-plato.wav,./stim/wavs/chilean_mismatch_declarative-broad-focus_La-nina-lava-el-plato.wav,./stim/wavs/cuban_mismatch_declarative-broad-focus_La-nina-lava-el-plato.wav,./stim/wavs/mexican_mismatch_declarative-broad-focus_La-nina-lava-el-plato.wav,./stim/wavs/peruvian_mismatch_declarative-broad-focus_La-nina-lava-el-plato.wav,./stim/wavs/puertorican_mismatch_declarative-broad-focus_La-nina-lava-el-plato.wav,,,,,,,,,,,,,,,,,,,,,,,,,,,,,,,,,,,,,,,,,,,,,,,,,,,,,,,,
,,,,,,,midd27,midd,ma,Spain,Northeast,12 or younger,yes,2021-03-30_20h36.26.077,empathy_intonation_perc,2020.2.10,MacIntel,60,IwAR2meXeu2-O5-2TyiEsD3M2VduglKrX9Rb2UmezINmRgUUlWZ1Fcvk-G0yc,,,,,,,,,,0,castilian,0,1,1.585015,0,9,9,46,1,47,./stim/wavs/andalusian_mismatch_declarative-narrow-focus_Mi-novio-viene-del-lago.wav,./stim/wavs/argentine_mismatch_declarative-narrow-focus_Mi-novio-viene-del-lago.wav,./stim/wavs/castilian_mismatch_declarative-narrow-focus_Mi-novio-viene-del-lago.wav,./stim/wavs/chilean_mismatch_declarative-narrow-focus_Mi-novio-viene-del-lago.wav,./stim/wavs/cuban_mismatch_declarative-narrow-focus_Mi-novio-viene-del-lago.wav,./stim/wavs/mexican_mismatch_declarative-narrow-focus_Mi-novio-viene-del-lago.wav,./stim/wavs/peruvian_mismatch_declarative-narrow-focus_Mi-novio-viene-del-lago.wav,./stim/wavs/puertorican_mismatch_declarative-narrow-focus_Mi-novio-viene-del-lago.wav,,,,,,,,,,,,,,,,,,,,,,,,,,,,,,,,,,,,,,,,,,,,,,,,,,,,,,,,
,,,,,,,midd27,midd,ma,Spain,Northeast,12 or younger,yes,2021-03-30_20h36.26.077,empathy_intonation_perc,2020.2.10,MacIntel,60,IwAR2meXeu2-O5-2TyiEsD3M2VduglKrX9Rb2UmezINmRgUUlWZ1Fcvk-G0yc,,,,,,,,,,1,puertorican,1,1,1.435035,0,10,10,49,1,50,./stim/wavs/andalusian_mismatch_interrogative-partial-wh_Cuando-lavaba-el-plato.wav,./stim/wavs/argentine_mismatch_interrogative-partial-wh_Cuando-lavaba-el-plato.wav,./stim/wavs/castilian_mismatch_interrogative-partial-wh_Cuando-lavaba-el-plato.wav,./stim/wavs/chilean_mismatch_interrogative-partial-wh_Cuando-lavaba-el-plato.wav,./stim/wavs/cuban_mismatch_interrogative-partial-wh_Cuando-lavaba-el-plato.wav,./stim/wavs/mexican_mismatch_interrogative-partial-wh_Cuando-lavaba-el-plato.wav,./stim/wavs/peruvian_mismatch_interrogative-partial-wh_Cuando-lavaba-el-plato.wav,./stim/wavs/puertorican_mismatch_interrogative-partial-wh_Cuando-lavaba-el-plato.wav,,,,,,,,,,,,,,,,,,,,,,,,,,,,,,,,,,,,,,,,,,,,,,,,,,,,,,,,
,,,,,,,midd27,midd,ma,Spain,Northeast,12 or younger,yes,2021-03-30_20h36.26.077,empathy_intonation_perc,2020.2.10,MacIntel,60,IwAR2meXeu2-O5-2TyiEsD3M2VduglKrX9Rb2UmezINmRgUUlWZ1Fcvk-G0yc,,,,,,,,,,1,chilean,1,1,1.80448,0,11,11,31,1,32,./stim/wavs/andalusian_match_interrogative-total-yn_Marta-abre-el-regalo.wav,./stim/wavs/argentine_match_interrogative-total-yn_Marta-abre-el-regalo.wav,./stim/wavs/castilian_match_interrogative-total-yn_Marta-abre-el-regalo.wav,./stim/wavs/chilean_match_interrogative-total-yn_Marta-abre-el-regalo.wav,./stim/wavs/cuban_match_interrogative-total-yn_Marta-abre-el-regalo.wav,./stim/wavs/mexican_match_interrogative-total-yn_Marta-abre-el-regalo.wav,./stim/wavs/peruvian_match_interrogative-total-yn_Marta-abre-el-regalo.wav,./stim/wavs/puertorican_match_interrogative-total-yn_Marta-abre-el-regalo.wav,,,,,,,,,,,,,,,,,,,,,,,,,,,,,,,,,,,,,,,,,,,,,,,,,,,,,,,,
,,,,,,,midd27,midd,ma,Spain,Northeast,12 or younger,yes,2021-03-30_20h36.26.077,empathy_intonation_perc,2020.2.10,MacIntel,60,IwAR2meXeu2-O5-2TyiEsD3M2VduglKrX9Rb2UmezINmRgUUlWZ1Fcvk-G0yc,,,,,,,,,,0,castilian,0,1,1.623925,0,12,12,12,1,13,./stim/wavs/andalusian_match_declarative-narrow-focus_Manuela-vende-el-carro.wav,./stim/wavs/argentine_match_declarative-narrow-focus_Manuela-vende-el-carro.wav,./stim/wavs/castilian_match_declarative-narrow-focus_Manuela-vende-el-carro.wav,./stim/wavs/chilean_match_declarative-narrow-focus_Manuela-vende-el-carro.wav,./stim/wavs/cuban_match_declarative-narrow-focus_Manuela-vende-el-carro.wav,./stim/wavs/mexican_match_declarative-narrow-focus_Manuela-vende-el-carro.wav,./stim/wavs/peruvian_match_declarative-narrow-focus_Manuela-vende-el-carro.wav,./stim/wavs/puertorican_match_declarative-narrow-focus_Manuela-vende-el-carro.wav,,,,,,,,,,,,,,,,,,,,,,,,,,,,,,,,,,,,,,,,,,,,,,,,,,,,,,,,
,,,,,,,midd27,midd,ma,Spain,Northeast,12 or younger,yes,2021-03-30_20h36.26.077,empathy_intonation_perc,2020.2.10,MacIntel,60,IwAR2meXeu2-O5-2TyiEsD3M2VduglKrX9Rb2UmezINmRgUUlWZ1Fcvk-G0yc,,,,,,,,,,0,mexican,0,1,1.65827,0,13,13,42,1,43,./stim/wavs/andalusian_mismatch_declarative-narrow-focus_El-nino-oye-el-rio.wav,./stim/wavs/argentine_mismatch_declarative-narrow-focus_El-nino-oye-el-rio.wav,./stim/wavs/castilian_mismatch_declarative-narrow-focus_El-nino-oye-el-rio.wav,./stim/wavs/chilean_mismatch_declarative-narrow-focus_El-nino-oye-el-rio.wav,./stim/wavs/cuban_mismatch_declarative-narrow-focus_El-nino-oye-el-rio.wav,./stim/wavs/mexican_mismatch_declarative-narrow-focus_El-nino-oye-el-rio.wav,./stim/wavs/peruvian_mismatch_declarative-narrow-focus_El-nino-oye-el-rio.wav,./stim/wavs/puertorican_mismatch_declarative-narrow-focus_El-nino-oye-el-rio.wav,,,,,,,,,,,,,,,,,,,,,,,,,,,,,,,,,,,,,,,,,,,,,,,,,,,,,,,,
,,,,,,,midd27,midd,ma,Spain,Northeast,12 or younger,yes,2021-03-30_20h36.26.077,empathy_intonation_perc,2020.2.10,MacIntel,60,IwAR2meXeu2-O5-2TyiEsD3M2VduglKrX9Rb2UmezINmRgUUlWZ1Fcvk-G0yc,,,,,,,,,,0,argentine,0,1,1.93822,0,14,14,34,1,35,./stim/wavs/andalusian_mismatch_declarative-broad-focus_El-nino-oye-el-rio.wav,./stim/wavs/argentine_mismatch_declarative-broad-focus_El-nino-oye-el-rio.wav,./stim/wavs/castilian_mismatch_declarative-broad-focus_El-nino-oye-el-rio.wav,./stim/wavs/chilean_mismatch_declarative-broad-focus_El-nino-oye-el-rio.wav,./stim/wavs/cuban_mismatch_declarative-broad-focus_El-nino-oye-el-rio.wav,./stim/wavs/mexican_mismatch_declarative-broad-focus_El-nino-oye-el-rio.wav,./stim/wavs/peruvian_mismatch_declarative-broad-focus_El-nino-oye-el-rio.wav,./stim/wavs/puertorican_mismatch_declarative-broad-focus_El-nino-oye-el-rio.wav,,,,,,,,,,,,,,,,,,,,,,,,,,,,,,,,,,,,,,,,,,,,,,,,,,,,,,,,
,,,,,,,midd27,midd,ma,Spain,Northeast,12 or younger,yes,2021-03-30_20h36.26.077,empathy_intonation_perc,2020.2.10,MacIntel,60,IwAR2meXeu2-O5-2TyiEsD3M2VduglKrX9Rb2UmezINmRgUUlWZ1Fcvk-G0yc,,,,,,,,,,0,cuban,0,1,1.821215,0,15,15,47,1,48,./stim/wavs/andalusian_mismatch_declarative-narrow-focus_Mi-tia-odia-la-lluvia.wav,./stim/wavs/argentine_mismatch_declarative-narrow-focus_Mi-tia-odia-la-lluvia.wav,./stim/wavs/castilian_mismatch_declarative-narrow-focus_Mi-tia-odia-la-lluvia.wav,./stim/wavs/chilean_mismatch_declarative-narrow-focus_Mi-tia-odia-la-lluvia.wav,./stim/wavs/cuban_mismatch_declarative-narrow-focus_Mi-tia-odia-la-lluvia.wav,./stim/wavs/mexican_mismatch_declarative-narrow-focus_Mi-tia-odia-la-lluvia.wav,./stim/wavs/peruvian_mismatch_declarative-narrow-focus_Mi-tia-odia-la-lluvia.wav,./stim/wavs/puertorican_mismatch_declarative-narrow-focus_Mi-tia-odia-la-lluvia.wav,,,,,,,,,,,,,,,,,,,,,,,,,,,,,,,,,,,,,,,,,,,,,,,,,,,,,,,,
,,,,,,,midd27,midd,ma,Spain,Northeast,12 or younger,yes,2021-03-30_20h36.26.077,empathy_intonation_perc,2020.2.10,MacIntel,60,IwAR2meXeu2-O5-2TyiEsD3M2VduglKrX9Rb2UmezINmRgUUlWZ1Fcvk-G0yc,,,,,,,,,,0,chilean,0,1,1.607125,0,16,16,39,1,40,./stim/wavs/andalusian_mismatch_declarative-broad-focus_Mi-tia-odia-la-lluvia.wav,./stim/wavs/argentine_mismatch_declarative-broad-focus_Mi-tia-odia-la-lluvia.wav,./stim/wavs/castilian_mismatch_declarative-broad-focus_Mi-tia-odia-la-lluvia.wav,./stim/wavs/chilean_mismatch_declarative-broad-focus_Mi-tia-odia-la-lluvia.wav,./stim/wavs/cuban_mismatch_declarative-broad-focus_Mi-tia-odia-la-lluvia.wav,./stim/wavs/mexican_mismatch_declarative-broad-focus_Mi-tia-odia-la-lluvia.wav,./stim/wavs/peruvian_mismatch_declarative-broad-focus_Mi-tia-odia-la-lluvia.wav,./stim/wavs/puertorican_mismatch_declarative-broad-focus_Mi-tia-odia-la-lluvia.wav,,,,,,,,,,,,,,,,,,,,,,,,,,,,,,,,,,,,,,,,,,,,,,,,,,,,,,,,
,,,,,,,midd27,midd,ma,Spain,Northeast,12 or younger,yes,2021-03-30_20h36.26.077,empathy_intonation_perc,2020.2.10,MacIntel,60,IwAR2meXeu2-O5-2TyiEsD3M2VduglKrX9Rb2UmezINmRgUUlWZ1Fcvk-G0yc,,,,,,,,,,1,andalusian,1,1,1.51841,0,17,17,21,1,22,./stim/wavs/andalusian_match_interrogative-partial-wh_Por-que-ama-la-navidad.wav,./stim/wavs/argentine_match_interrogative-partial-wh_Por-que-ama-la-navidad.wav,./stim/wavs/castilian_match_interrogative-partial-wh_Por-que-ama-la-navidad.wav,./stim/wavs/chilean_match_interrogative-partial-wh_Por-que-ama-la-navidad.wav,./stim/wavs/cuban_match_interrogative-partial-wh_Por-que-ama-la-navidad.wav,./stim/wavs/mexican_match_interrogative-partial-wh_Por-que-ama-la-navidad.wav,./stim/wavs/peruvian_match_interrogative-partial-wh_Por-que-ama-la-navidad.wav,./stim/wavs/puertorican_match_interrogative-partial-wh_Por-que-ama-la-navidad.wav,,,,,,,,,,,,,,,,,,,,,,,,,,,,,,,,,,,,,,,,,,,,,,,,,,,,,,,,
,,,,,,,midd27,midd,ma,Spain,Northeast,12 or younger,yes,2021-03-30_20h36.26.077,empathy_intonation_perc,2020.2.10,MacIntel,60,IwAR2meXeu2-O5-2TyiEsD3M2VduglKrX9Rb2UmezINmRgUUlWZ1Fcvk-G0yc,,,,,,,,,,0,argentine,0,1,1.41944,0,18,18,5,1,6,./stim/wavs/andalusian_match_declarative-broad-focus_Maria-bebe-el-vino.wav,./stim/wavs/argentine_match_declarative-broad-focus_Maria-bebe-el-vino.wav,./stim/wavs/castilian_match_declarative-broad-focus_Maria-bebe-el-vino.wav,./stim/wavs/chilean_match_declarative-broad-focus_Maria-bebe-el-vino.wav,./stim/wavs/cuban_match_declarative-broad-focus_Maria-bebe-el-vino.wav,./stim/wavs/mexican_match_declarative-broad-focus_Maria-bebe-el-vino.wav,./stim/wavs/peruvian_match_declarative-broad-focus_Maria-bebe-el-vino.wav,./stim/wavs/puertorican_match_declarative-broad-focus_Maria-bebe-el-vino.wav,,,,,,,,,,,,,,,,,,,,,,,,,,,,,,,,,,,,,,,,,,,,,,,,,,,,,,,,
,,,,,,,midd27,midd,ma,Spain,Northeast,12 or younger,yes,2021-03-30_20h36.26.077,empathy_intonation_perc,2020.2.10,MacIntel,60,IwAR2meXeu2-O5-2TyiEsD3M2VduglKrX9Rb2UmezINmRgUUlWZ1Fcvk-G0yc,,,,,,,,,,0,chilean,0,1,1.652255,0,19,19,11,1,12,./stim/wavs/andalusian_match_declarative-narrow-focus_Emilio-ama-la-marcha.wav,./stim/wavs/argentine_match_declarative-narrow-focus_Emilio-ama-la-marcha.wav,./stim/wavs/castilian_match_declarative-narrow-focus_Emilio-ama-la-marcha.wav,./stim/wavs/chilean_match_declarative-narrow-focus_Emilio-ama-la-marcha.wav,./stim/wavs/cuban_match_declarative-narrow-focus_Emilio-ama-la-marcha.wav,./stim/wavs/mexican_match_declarative-narrow-focus_Emilio-ama-la-marcha.wav,./stim/wavs/peruvian_match_declarative-narrow-focus_Emilio-ama-la-marcha.wav,./stim/wavs/puertorican_match_declarative-narrow-focus_Emilio-ama-la-marcha.wav,,,,,,,,,,,,,,,,,,,,,,,,,,,,,,,,,,,,,,,,,,,,,,,,,,,,,,,,
,,,,,,,midd27,midd,ma,Spain,Northeast,12 or younger,yes,2021-03-30_20h36.26.077,empathy_intonation_perc,2020.2.10,MacIntel,60,IwAR2meXeu2-O5-2TyiEsD3M2VduglKrX9Rb2UmezINmRgUUlWZ1Fcvk-G0yc,,,,,,,,,,1,argentine,1,1,1.28661,0,20,20,19,1,20,./stim/wavs/andalusian_match_interrogative-partial-wh_Cuando-vendia-el-carro.wav,./stim/wavs/argentine_match_interrogative-partial-wh_Cuando-vendia-el-carro.wav,./stim/wavs/castilian_match_interrogative-partial-wh_Cuando-vendia-el-carro.wav,./stim/wavs/chilean_match_interrogative-partial-wh_Cuando-vendia-el-carro.wav,./stim/wavs/cuban_match_interrogative-partial-wh_Cuando-vendia-el-carro.wav,./stim/wavs/mexican_match_interrogative-partial-wh_Cuando-vendia-el-carro.wav,./stim/wavs/peruvian_match_interrogative-partial-wh_Cuando-vendia-el-carro.wav,./stim/wavs/puertorican_match_interrogative-partial-wh_Cuando-vendia-el-carro.wav,,,,,,,,,,,,,,,,,,,,,,,,,,,,,,,,,,,,,,,,,,,,,,,,,,,,,,,,
,,,,,,,midd27,midd,ma,Spain,Northeast,12 or younger,yes,2021-03-30_20h36.26.077,empathy_intonation_perc,2020.2.10,MacIntel,60,IwAR2meXeu2-O5-2TyiEsD3M2VduglKrX9Rb2UmezINmRgUUlWZ1Fcvk-G0yc,,,,,,,,,,1,cuban,0,0,4.65217,0,21,21,51,1,52,./stim/wavs/andalusian_mismatch_interrogative-partial-wh_Por-que-desayuna-muy-bien.wav,./stim/wavs/argentine_mismatch_interrogative-partial-wh_Por-que-desayuna-muy-bien.wav,./stim/wavs/castilian_mismatch_interrogative-partial-wh_Por-que-desayuna-muy-bien.wav,./stim/wavs/chilean_mismatch_interrogative-partial-wh_Por-que-desayuna-muy-bien.wav,./stim/wavs/cuban_mismatch_interrogative-partial-wh_Por-que-desayuna-muy-bien.wav,./stim/wavs/mexican_mismatch_interrogative-partial-wh_Por-que-desayuna-muy-bien.wav,./stim/wavs/peruvian_mismatch_interrogative-partial-wh_Por-que-desayuna-muy-bien.wav,./stim/wavs/puertorican_mismatch_interrogative-partial-wh_Por-que-desayuna-muy-bien.wav,,,,,,,,,,,,,,,,,,,,,,,,,,,,,,,,,,,,,,,,,,,,,,,,,,,,,,,,
,,,,,,,midd27,midd,ma,Spain,Northeast,12 or younger,yes,2021-03-30_20h36.26.077,empathy_intonation_perc,2020.2.10,MacIntel,60,IwAR2meXeu2-O5-2TyiEsD3M2VduglKrX9Rb2UmezINmRgUUlWZ1Fcvk-G0yc,,,,,,,,,,1,puertorican,1,1,1.27657,0,22,22,16,1,17,./stim/wavs/andalusian_match_interrogative-partial-wh_Cuando-bebia-el-vino.wav,./stim/wavs/argentine_match_interrogative-partial-wh_Cuando-bebia-el-vino.wav,./stim/wavs/castilian_match_interrogative-partial-wh_Cuando-bebia-el-vino.wav,./stim/wavs/chilean_match_interrogative-partial-wh_Cuando-bebia-el-vino.wav,./stim/wavs/cuban_match_interrogative-partial-wh_Cuando-bebia-el-vino.wav,./stim/wavs/mexican_match_interrogative-partial-wh_Cuando-bebia-el-vino.wav,./stim/wavs/peruvian_match_interrogative-partial-wh_Cuando-bebia-el-vino.wav,./stim/wavs/puertorican_match_interrogative-partial-wh_Cuando-bebia-el-vino.wav,,,,,,,,,,,,,,,,,,,,,,,,,,,,,,,,,,,,,,,,,,,,,,,,,,,,,,,,
,,,,,,,midd27,midd,ma,Spain,Northeast,12 or younger,yes,2021-03-30_20h36.26.077,empathy_intonation_perc,2020.2.10,MacIntel,60,IwAR2meXeu2-O5-2TyiEsD3M2VduglKrX9Rb2UmezINmRgUUlWZ1Fcvk-G0yc,,,,,,,,,,1,andalusian,0,0,3.91858,0,23,23,54,1,55,./stim/wavs/andalusian_mismatch_interrogative-partial-wh_Por-que-venia-del-lago.wav,./stim/wavs/argentine_mismatch_interrogative-partial-wh_Por-que-venia-del-lago.wav,./stim/wavs/castilian_mismatch_interrogative-partial-wh_Por-que-venia-del-lago.wav,./stim/wavs/chilean_mismatch_interrogative-partial-wh_Por-que-venia-del-lago.wav,./stim/wavs/cuban_mismatch_interrogative-partial-wh_Por-que-venia-del-lago.wav,./stim/wavs/mexican_mismatch_interrogative-partial-wh_Por-que-venia-del-lago.wav,./stim/wavs/peruvian_mismatch_interrogative-partial-wh_Por-que-venia-del-lago.wav,./stim/wavs/puertorican_mismatch_interrogative-partial-wh_Por-que-venia-del-lago.wav,,,,,,,,,,,,,,,,,,,,,,,,,,,,,,,,,,,,,,,,,,,,,,,,,,,,,,,,
,,,,,,,midd27,midd,ma,Spain,Northeast,12 or younger,yes,2021-03-30_20h36.26.077,empathy_intonation_perc,2020.2.10,MacIntel,60,IwAR2meXeu2-O5-2TyiEsD3M2VduglKrX9Rb2UmezINmRgUUlWZ1Fcvk-G0yc,,,,,,,,,,1,argentine,1,1,1.525395,0,24,24,22,1,23,./stim/wavs/andalusian_match_interrogative-partial-wh_Por-que-hablaba-del-agua.wav,./stim/wavs/argentine_match_interrogative-partial-wh_Por-que-hablaba-del-agua.wav,./stim/wavs/castilian_match_interrogative-partial-wh_Por-que-hablaba-del-agua.wav,./stim/wavs/chilean_match_interrogative-partial-wh_Por-que-hablaba-del-agua.wav,./stim/wavs/cuban_match_interrogative-partial-wh_Por-que-hablaba-del-agua.wav,./stim/wavs/mexican_match_interrogative-partial-wh_Por-que-hablaba-del-agua.wav,./stim/wavs/peruvian_match_interrogative-partial-wh_Por-que-hablaba-del-agua.wav,./stim/wavs/puertorican_match_interrogative-partial-wh_Por-que-hablaba-del-agua.wav,,,,,,,,,,,,,,,,,,,,,,,,,,,,,,,,,,,,,,,,,,,,,,,,,,,,,,,,
,,,,,,,midd27,midd,ma,Spain,Northeast,12 or younger,yes,2021-03-30_20h36.26.077,empathy_intonation_perc,2020.2.10,MacIntel,60,IwAR2meXeu2-O5-2TyiEsD3M2VduglKrX9Rb2UmezINmRgUUlWZ1Fcvk-G0yc,,,,,,,,,,0,andalusian,0,1,1.919645,0,25,25,8,1,9,./stim/wavs/andalusian_match_declarative-narrow-focus_Ana-lleva-el-abrigo.wav,./stim/wavs/argentine_match_declarative-narrow-focus_Ana-lleva-el-abrigo.wav,./stim/wavs/castilian_match_declarative-narrow-focus_Ana-lleva-el-abrigo.wav,./stim/wavs/chilean_match_declarative-narrow-focus_Ana-lleva-el-abrigo.wav,./stim/wavs/cuban_match_declarative-narrow-focus_Ana-lleva-el-abrigo.wav,./stim/wavs/mexican_match_declarative-narrow-focus_Ana-lleva-el-abrigo.wav,./stim/wavs/peruvian_match_declarative-narrow-focus_Ana-lleva-el-abrigo.wav,./stim/wavs/puertorican_match_declarative-narrow-focus_Ana-lleva-el-abrigo.wav,,,,,,,,,,,,,,,,,,,,,,,,,,,,,,,,,,,,,,,,,,,,,,,,,,,,,,,,
,,,,,,,midd27,midd,ma,Spain,Northeast,12 or younger,yes,2021-03-30_20h36.26.077,empathy_intonation_perc,2020.2.10,MacIntel,60,IwAR2meXeu2-O5-2TyiEsD3M2VduglKrX9Rb2UmezINmRgUUlWZ1Fcvk-G0yc,,,,,,,,,,1,argentine,1,1,1.74052,0,26,26,24,1,25,./stim/wavs/andalusian_match_interrogative-total-yn_Ana-lleva-el-abrigo.wav,./stim/wavs/argentine_match_interrogative-total-yn_Ana-lleva-el-abrigo.wav,./stim/wavs/castilian_match_interrogative-total-yn_Ana-lleva-el-abrigo.wav,./stim/wavs/chilean_match_interrogative-total-yn_Ana-lleva-el-abrigo.wav,./stim/wavs/cuban_match_interrogative-total-yn_Ana-lleva-el-abrigo.wav,./stim/wavs/mexican_match_interrogative-total-yn_Ana-lleva-el-abrigo.wav,./stim/wavs/peruvian_match_interrogative-total-yn_Ana-lleva-el-abrigo.wav,./stim/wavs/puertorican_match_interrogative-total-yn_Ana-lleva-el-abrigo.wav,,,,,,,,,,,,,,,,,,,,,,,,,,,,,,,,,,,,,,,,,,,,,,,,,,,,,,,,
,,,,,,,midd27,midd,ma,Spain,Northeast,12 or younger,yes,2021-03-30_20h36.26.077,empathy_intonation_perc,2020.2.10,MacIntel,60,IwAR2meXeu2-O5-2TyiEsD3M2VduglKrX9Rb2UmezINmRgUUlWZ1Fcvk-G0yc,,,,,,,,,,1,argentine,1,1,1.55098,0,27,27,30,1,31,./stim/wavs/andalusian_match_interrogative-total-yn_Mariano-habla-del-tiempo.wav,./stim/wavs/argentine_match_interrogative-total-yn_Mariano-habla-del-tiempo.wav,./stim/wavs/castilian_match_interrogative-total-yn_Mariano-habla-del-tiempo.wav,./stim/wavs/chilean_match_interrogative-total-yn_Mariano-habla-del-tiempo.wav,./stim/wavs/cuban_match_interrogative-total-yn_Mariano-habla-del-tiempo.wav,./stim/wavs/mexican_match_interrogative-total-yn_Mariano-habla-del-tiempo.wav,./stim/wavs/peruvian_match_interrogative-total-yn_Mariano-habla-del-tiempo.wav,./stim/wavs/puertorican_match_interrogative-total-yn_Mariano-habla-del-tiempo.wav,,,,,,,,,,,,,,,,,,,,,,,,,,,,,,,,,,,,,,,,,,,,,,,,,,,,,,,,
,,,,,,,midd27,midd,ma,Spain,Northeast,12 or younger,yes,2021-03-30_20h36.26.077,empathy_intonation_perc,2020.2.10,MacIntel,60,IwAR2meXeu2-O5-2TyiEsD3M2VduglKrX9Rb2UmezINmRgUUlWZ1Fcvk-G0yc,,,,,,,,,,1,peruvian,1,1,1.50177,0,28,28,18,1,19,./stim/wavs/andalusian_match_interrogative-partial-wh_Cuando-lleva-el-abrigo.wav,./stim/wavs/argentine_match_interrogative-partial-wh_Cuando-lleva-el-abrigo.wav,./stim/wavs/castilian_match_interrogative-partial-wh_Cuando-lleva-el-abrigo.wav,./stim/wavs/chilean_match_interrogative-partial-wh_Cuando-lleva-el-abrigo.wav,./stim/wavs/cuban_match_interrogative-partial-wh_Cuando-lleva-el-abrigo.wav,./stim/wavs/mexican_match_interrogative-partial-wh_Cuando-lleva-el-abrigo.wav,./stim/wavs/peruvian_match_interrogative-partial-wh_Cuando-lleva-el-abrigo.wav,./stim/wavs/puertorican_match_interrogative-partial-wh_Cuando-lleva-el-abrigo.wav,,,,,,,,,,,,,,,,,,,,,,,,,,,,,,,,,,,,,,,,,,,,,,,,,,,,,,,,
,,,,,,,midd27,midd,ma,Spain,Northeast,12 or younger,yes,2021-03-30_20h36.26.077,empathy_intonation_perc,2020.2.10,MacIntel,60,IwAR2meXeu2-O5-2TyiEsD3M2VduglKrX9Rb2UmezINmRgUUlWZ1Fcvk-G0yc,,,,,,,,,,1,argentine,1,1,1.406595,0,29,29,29,1,30,./stim/wavs/andalusian_match_interrogative-total-yn_Maria-bebe-el-vino.wav,./stim/wavs/argentine_match_interrogative-total-yn_Maria-bebe-el-vino.wav,./stim/wavs/castilian_match_interrogative-total-yn_Maria-bebe-el-vino.wav,./stim/wavs/chilean_match_interrogative-total-yn_Maria-bebe-el-vino.wav,./stim/wavs/cuban_match_interrogative-total-yn_Maria-bebe-el-vino.wav,./stim/wavs/mexican_match_interrogative-total-yn_Maria-bebe-el-vino.wav,./stim/wavs/peruvian_match_interrogative-total-yn_Maria-bebe-el-vino.wav,./stim/wavs/puertorican_match_interrogative-total-yn_Maria-bebe-el-vino.wav,,,,,,,,,,,,,,,,,,,,,,,,,,,,,,,,,,,,,,,,,,,,,,,,,,,,,,,,
,,,,,,,midd27,midd,ma,Spain,Northeast,12 or younger,yes,2021-03-30_20h36.26.077,empathy_intonation_perc,2020.2.10,MacIntel,60,IwAR2meXeu2-O5-2TyiEsD3M2VduglKrX9Rb2UmezINmRgUUlWZ1Fcvk-G0yc,,,,,,,,,,1,mexican,1,1,1.840515,0,30,30,60,1,61,./stim/wavs/andalusian_mismatch_interrogative-total-yn_La-nina-lava-el-plato.wav,./stim/wavs/argentine_mismatch_interrogative-total-yn_La-nina-lava-el-plato.wav,./stim/wavs/castilian_mismatch_interrogative-total-yn_La-nina-lava-el-plato.wav,./stim/wavs/chilean_mismatch_interrogative-total-yn_La-nina-lava-el-plato.wav,./stim/wavs/cuban_mismatch_interrogative-total-yn_La-nina-lava-el-plato.wav,./stim/wavs/mexican_mismatch_interrogative-total-yn_La-nina-lava-el-plato.wav,./stim/wavs/peruvian_mismatch_interrogative-total-yn_La-nina-lava-el-plato.wav,./stim/wavs/puertorican_mismatch_interrogative-total-yn_La-nina-lava-el-plato.wav,,,,,,,,,,,,,,,,,,,,,,,,,,,,,,,,,,,,,,,,,,,,,,,,,,,,,,,,
,,,,,,,midd27,midd,ma,Spain,Northeast,12 or younger,yes,2021-03-30_20h36.26.077,empathy_intonation_perc,2020.2.10,MacIntel,60,IwAR2meXeu2-O5-2TyiEsD3M2VduglKrX9Rb2UmezINmRgUUlWZ1Fcvk-G0yc,,,,,,,,,,1,cuban,1,1,1.67485,0,31,31,56,1,57,./stim/wavs/andalusian_mismatch_interrogative-total-yn_El-bebe-comia-muy-bien.wav,./stim/wavs/argentine_mismatch_interrogative-total-yn_El-bebe-comia-muy-bien.wav,./stim/wavs/castilian_mismatch_interrogative-total-yn_El-bebe-comia-muy-bien.wav,./stim/wavs/chilean_mismatch_interrogative-total-yn_El-bebe-comia-muy-bien.wav,./stim/wavs/cuban_mismatch_interrogative-total-yn_El-bebe-comia-muy-bien.wav,./stim/wavs/mexican_mismatch_interrogative-total-yn_El-bebe-comia-muy-bien.wav,./stim/wavs/peruvian_mismatch_interrogative-total-yn_El-bebe-comia-muy-bien.wav,./stim/wavs/puertorican_mismatch_interrogative-total-yn_El-bebe-comia-muy-bien.wav,,,,,,,,,,,,,,,,,,,,,,,,,,,,,,,,,,,,,,,,,,,,,,,,,,,,,,,,
,,,,,,,midd27,midd,ma,Spain,Northeast,12 or younger,yes,2021-03-30_20h36.26.077,empathy_intonation_perc,2020.2.10,MacIntel,60,IwAR2meXeu2-O5-2TyiEsD3M2VduglKrX9Rb2UmezINmRgUUlWZ1Fcvk-G0yc,,,,,,,,,,0,cuban,0,1,1.63702,0,32,32,38,1,39,./stim/wavs/andalusian_mismatch_declarative-broad-focus_Mi-novio-viene-del-lago.wav,./stim/wavs/argentine_mismatch_declarative-broad-focus_Mi-novio-viene-del-lago.wav,./stim/wavs/castilian_mismatch_declarative-broad-focus_Mi-novio-viene-del-lago.wav,./stim/wavs/chilean_mismatch_declarative-broad-focus_Mi-novio-viene-del-lago.wav,./stim/wavs/cuban_mismatch_declarative-broad-focus_Mi-novio-viene-del-lago.wav,./stim/wavs/mexican_mismatch_declarative-broad-focus_Mi-novio-viene-del-lago.wav,./stim/wavs/peruvian_mismatch_declarative-broad-focus_Mi-novio-viene-del-lago.wav,./stim/wavs/puertorican_mismatch_declarative-broad-focus_Mi-novio-viene-del-lago.wav,,,,,,,,,,,,,,,,,,,,,,,,,,,,,,,,,,,,,,,,,,,,,,,,,,,,,,,,
,,,,,,,midd27,midd,ma,Spain,Northeast,12 or younger,yes,2021-03-30_20h36.26.077,empathy_intonation_perc,2020.2.10,MacIntel,60,IwAR2meXeu2-O5-2TyiEsD3M2VduglKrX9Rb2UmezINmRgUUlWZ1Fcvk-G0yc,,,,,,,,,,1,argentine,1,1,1.58515,0,33,33,48,1,49,./stim/wavs/andalusian_mismatch_interrogative-partial-wh_Cuando-comia-la-fruta.wav,./stim/wavs/argentine_mismatch_interrogative-partial-wh_Cuando-comia-la-fruta.wav,./stim/wavs/castilian_mismatch_interrogative-partial-wh_Cuando-comia-la-fruta.wav,./stim/wavs/chilean_mismatch_interrogative-partial-wh_Cuando-comia-la-fruta.wav,./stim/wavs/cuban_mismatch_interrogative-partial-wh_Cuando-comia-la-fruta.wav,./stim/wavs/mexican_mismatch_interrogative-partial-wh_Cuando-comia-la-fruta.wav,./stim/wavs/peruvian_mismatch_interrogative-partial-wh_Cuando-comia-la-fruta.wav,./stim/wavs/puertorican_mismatch_interrogative-partial-wh_Cuando-comia-la-fruta.wav,,,,,,,,,,,,,,,,,,,,,,,,,,,,,,,,,,,,,,,,,,,,,,,,,,,,,,,,
,,,,,,,midd27,midd,ma,Spain,Northeast,12 or younger,yes,2021-03-30_20h36.26.077,empathy_intonation_perc,2020.2.10,MacIntel,60,IwAR2meXeu2-O5-2TyiEsD3M2VduglKrX9Rb2UmezINmRgUUlWZ1Fcvk-G0yc,,,,,,,,,,1,cuban,1,1,2.5156,0,34,34,57,1,58,./stim/wavs/andalusian_mismatch_interrogative-total-yn_El-hombre-mira-la-luna.wav,./stim/wavs/argentine_mismatch_interrogative-total-yn_El-hombre-mira-la-luna.wav,./stim/wavs/castilian_mismatch_interrogative-total-yn_El-hombre-mira-la-luna.wav,./stim/wavs/chilean_mismatch_interrogative-total-yn_El-hombre-mira-la-luna.wav,./stim/wavs/cuban_mismatch_interrogative-total-yn_El-hombre-mira-la-luna.wav,./stim/wavs/mexican_mismatch_interrogative-total-yn_El-hombre-mira-la-luna.wav,./stim/wavs/peruvian_mismatch_interrogative-total-yn_El-hombre-mira-la-luna.wav,./stim/wavs/puertorican_mismatch_interrogative-total-yn_El-hombre-mira-la-luna.wav,,,,,,,,,,,,,,,,,,,,,,,,,,,,,,,,,,,,,,,,,,,,,,,,,,,,,,,,
,,,,,,,midd27,midd,ma,Spain,Northeast,12 or younger,yes,2021-03-30_20h36.26.077,empathy_intonation_perc,2020.2.10,MacIntel,60,IwAR2meXeu2-O5-2TyiEsD3M2VduglKrX9Rb2UmezINmRgUUlWZ1Fcvk-G0yc,,,,,,,,,,1,chilean,1,1,1.90457,0,35,35,53,1,54,./stim/wavs/andalusian_mismatch_interrogative-partial-wh_Por-que-oia-el-rio.wav,./stim/wavs/argentine_mismatch_interrogative-partial-wh_Por-que-oia-el-rio.wav,./stim/wavs/castilian_mismatch_interrogative-partial-wh_Por-que-oia-el-rio.wav,./stim/wavs/chilean_mismatch_interrogative-partial-wh_Por-que-oia-el-rio.wav,./stim/wavs/cuban_mismatch_interrogative-partial-wh_Por-que-oia-el-rio.wav,./stim/wavs/mexican_mismatch_interrogative-partial-wh_Por-que-oia-el-rio.wav,./stim/wavs/peruvian_mismatch_interrogative-partial-wh_Por-que-oia-el-rio.wav,./stim/wavs/puertorican_mismatch_interrogative-partial-wh_Por-que-oia-el-rio.wav,,,,,,,,,,,,,,,,,,,,,,,,,,,,,,,,,,,,,,,,,,,,,,,,,,,,,,,,
,,,,,,,midd27,midd,ma,Spain,Northeast,12 or younger,yes,2021-03-30_20h36.26.077,empathy_intonation_perc,2020.2.10,MacIntel,60,IwAR2meXeu2-O5-2TyiEsD3M2VduglKrX9Rb2UmezINmRgUUlWZ1Fcvk-G0yc,,,,,,,,,,0,mexican,0,1,1.800545,0,36,36,7,1,8,./stim/wavs/andalusian_match_declarative-broad-focus_Marta-abre-el-regalo.wav,./stim/wavs/argentine_match_declarative-broad-focus_Marta-abre-el-regalo.wav,./stim/wavs/castilian_match_declarative-broad-focus_Marta-abre-el-regalo.wav,./stim/wavs/chilean_match_declarative-broad-focus_Marta-abre-el-regalo.wav,./stim/wavs/cuban_match_declarative-broad-focus_Marta-abre-el-regalo.wav,./stim/wavs/mexican_match_declarative-broad-focus_Marta-abre-el-regalo.wav,./stim/wavs/peruvian_match_declarative-broad-focus_Marta-abre-el-regalo.wav,./stim/wavs/puertorican_match_declarative-broad-focus_Marta-abre-el-regalo.wav,,,,,,,,,,,,,,,,,,,,,,,,,,,,,,,,,,,,,,,,,,,,,,,,,,,,,,,,
,,,,,,,midd27,midd,ma,Spain,Northeast,12 or younger,yes,2021-03-30_20h36.26.077,empathy_intonation_perc,2020.2.10,MacIntel,60,IwAR2meXeu2-O5-2TyiEsD3M2VduglKrX9Rb2UmezINmRgUUlWZ1Fcvk-G0yc,,,,,,,,,,0,andalusian,0,1,1.50484,0,37,37,37,1,38,./stim/wavs/andalusian_mismatch_declarative-broad-focus_Mi-madre-come-la-fruta.wav,./stim/wavs/argentine_mismatch_declarative-broad-focus_Mi-madre-come-la-fruta.wav,./stim/wavs/castilian_mismatch_declarative-broad-focus_Mi-madre-come-la-fruta.wav,./stim/wavs/chilean_mismatch_declarative-broad-focus_Mi-madre-come-la-fruta.wav,./stim/wavs/cuban_mismatch_declarative-broad-focus_Mi-madre-come-la-fruta.wav,./stim/wavs/mexican_mismatch_declarative-broad-focus_Mi-madre-come-la-fruta.wav,./stim/wavs/peruvian_mismatch_declarative-broad-focus_Mi-madre-come-la-fruta.wav,./stim/wavs/puertorican_mismatch_declarative-broad-focus_Mi-madre-come-la-fruta.wav,,,,,,,,,,,,,,,,,,,,,,,,,,,,,,,,,,,,,,,,,,,,,,,,,,,,,,,,
,,,,,,,midd27,midd,ma,Spain,Northeast,12 or younger,yes,2021-03-30_20h36.26.077,empathy_intonation_perc,2020.2.10,MacIntel,60,IwAR2meXeu2-O5-2TyiEsD3M2VduglKrX9Rb2UmezINmRgUUlWZ1Fcvk-G0yc,,,,,,,,,,1,peruvian,1,1,1.817915,0,38,38,58,1,59,./stim/wavs/andalusian_mismatch_interrogative-total-yn_El-nino-oye-el-rio.wav,./stim/wavs/argentine_mismatch_interrogative-total-yn_El-nino-oye-el-rio.wav,./stim/wavs/castilian_mismatch_interrogative-total-yn_El-nino-oye-el-rio.wav,./stim/wavs/chilean_mismatch_interrogative-total-yn_El-nino-oye-el-rio.wav,./stim/wavs/cuban_mismatch_interrogative-total-yn_El-nino-oye-el-rio.wav,./stim/wavs/mexican_mismatch_interrogative-total-yn_El-nino-oye-el-rio.wav,./stim/wavs/peruvian_mismatch_interrogative-total-yn_El-nino-oye-el-rio.wav,./stim/wavs/puertorican_mismatch_interrogative-total-yn_El-nino-oye-el-rio.wav,,,,,,,,,,,,,,,,,,,,,,,,,,,,,,,,,,,,,,,,,,,,,,,,,,,,,,,,
,,,,,,,midd27,midd,ma,Spain,Northeast,12 or younger,yes,2021-03-30_20h36.26.077,empathy_intonation_perc,2020.2.10,MacIntel,60,IwAR2meXeu2-O5-2TyiEsD3M2VduglKrX9Rb2UmezINmRgUUlWZ1Fcvk-G0yc,,,,,,,,,,0,mexican,0,1,1.456785,0,39,39,2,1,3,./stim/wavs/andalusian_match_declarative-broad-focus_David-leia-el-libro.wav,./stim/wavs/argentine_match_declarative-broad-focus_David-leia-el-libro.wav,./stim/wavs/castilian_match_declarative-broad-focus_David-leia-el-libro.wav,./stim/wavs/chilean_match_declarative-broad-focus_David-leia-el-libro.wav,./stim/wavs/cuban_match_declarative-broad-focus_David-leia-el-libro.wav,./stim/wavs/mexican_match_declarative-broad-focus_David-leia-el-libro.wav,./stim/wavs/peruvian_match_declarative-broad-focus_David-leia-el-libro.wav,./stim/wavs/puertorican_match_declarative-broad-focus_David-leia-el-libro.wav,,,,,,,,,,,,,,,,,,,,,,,,,,,,,,,,,,,,,,,,,,,,,,,,,,,,,,,,
,,,,,,,midd27,midd,ma,Spain,Northeast,12 or younger,yes,2021-03-30_20h36.26.077,empathy_intonation_perc,2020.2.10,MacIntel,60,IwAR2meXeu2-O5-2TyiEsD3M2VduglKrX9Rb2UmezINmRgUUlWZ1Fcvk-G0yc,,,,,,,,,,0,castilian,0,1,2.79104,0,40,40,15,1,16,./stim/wavs/andalusian_match_declarative-narrow-focus_Marta-abre-el-regalo.wav,./stim/wavs/argentine_match_declarative-narrow-focus_Marta-abre-el-regalo.wav,./stim/wavs/castilian_match_declarative-narrow-focus_Marta-abre-el-regalo.wav,./stim/wavs/chilean_match_declarative-narrow-focus_Marta-abre-el-regalo.wav,./stim/wavs/cuban_match_declarative-narrow-focus_Marta-abre-el-regalo.wav,./stim/wavs/mexican_match_declarative-narrow-focus_Marta-abre-el-regalo.wav,./stim/wavs/peruvian_match_declarative-narrow-focus_Marta-abre-el-regalo.wav,./stim/wavs/puertorican_match_declarative-narrow-focus_Marta-abre-el-regalo.wav,,,,,,,,,,,,,,,,,,,,,,,,,,,,,,,,,,,,,,,,,,,,,,,,,,,,,,,,
,,,,,,,midd27,midd,ma,Spain,Northeast,12 or younger,yes,2021-03-30_20h36.26.077,empathy_intonation_perc,2020.2.10,MacIntel,60,IwAR2meXeu2-O5-2TyiEsD3M2VduglKrX9Rb2UmezINmRgUUlWZ1Fcvk-G0yc,,,,,,,,,,1,castilian,1,1,1.52261,0,41,41,50,1,51,./stim/wavs/andalusian_mismatch_interrogative-partial-wh_Cuando-miraba-la-luna.wav,./stim/wavs/argentine_mismatch_interrogative-partial-wh_Cuando-miraba-la-luna.wav,./stim/wavs/castilian_mismatch_interrogative-partial-wh_Cuando-miraba-la-luna.wav,./stim/wavs/chilean_mismatch_interrogative-partial-wh_Cuando-miraba-la-luna.wav,./stim/wavs/cuban_mismatch_interrogative-partial-wh_Cuando-miraba-la-luna.wav,./stim/wavs/mexican_mismatch_interrogative-partial-wh_Cuando-miraba-la-luna.wav,./stim/wavs/peruvian_mismatch_interrogative-partial-wh_Cuando-miraba-la-luna.wav,./stim/wavs/puertorican_mismatch_interrogative-partial-wh_Cuando-miraba-la-luna.wav,,,,,,,,,,,,,,,,,,,,,,,,,,,,,,,,,,,,,,,,,,,,,,,,,,,,,,,,
,,,,,,,midd27,midd,ma,Spain,Northeast,12 or younger,yes,2021-03-30_20h36.26.077,empathy_intonation_perc,2020.2.10,MacIntel,60,IwAR2meXeu2-O5-2TyiEsD3M2VduglKrX9Rb2UmezINmRgUUlWZ1Fcvk-G0yc,,,,,,,,,,0,mexican,0,1,1.822425,0,42,42,10,1,11,./stim/wavs/andalusian_match_declarative-narrow-focus_David-leia-el-libro.wav,./stim/wavs/argentine_match_declarative-narrow-focus_David-leia-el-libro.wav,./stim/wavs/castilian_match_declarative-narrow-focus_David-leia-el-libro.wav,./stim/wavs/chilean_match_declarative-narrow-focus_David-leia-el-libro.wav,./stim/wavs/cuban_match_declarative-narrow-focus_David-leia-el-libro.wav,./stim/wavs/mexican_match_declarative-narrow-focus_David-leia-el-libro.wav,./stim/wavs/peruvian_match_declarative-narrow-focus_David-leia-el-libro.wav,./stim/wavs/puertorican_match_declarative-narrow-focus_David-leia-el-libro.wav,,,,,,,,,,,,,,,,,,,,,,,,,,,,,,,,,,,,,,,,,,,,,,,,,,,,,,,,
,,,,,,,midd27,midd,ma,Spain,Northeast,12 or younger,yes,2021-03-30_20h36.26.077,empathy_intonation_perc,2020.2.10,MacIntel,60,IwAR2meXeu2-O5-2TyiEsD3M2VduglKrX9Rb2UmezINmRgUUlWZ1Fcvk-G0yc,,,,,,,,,,0,mexican,0,1,1.66901,0,43,43,33,1,34,./stim/wavs/andalusian_mismatch_declarative-broad-focus_El-hombre-mira-la-luna.wav,./stim/wavs/argentine_mismatch_declarative-broad-focus_El-hombre-mira-la-luna.wav,./stim/wavs/castilian_mismatch_declarative-broad-focus_El-hombre-mira-la-luna.wav,./stim/wavs/chilean_mismatch_declarative-broad-focus_El-hombre-mira-la-luna.wav,./stim/wavs/cuban_mismatch_declarative-broad-focus_El-hombre-mira-la-luna.wav,./stim/wavs/mexican_mismatch_declarative-broad-focus_El-hombre-mira-la-luna.wav,./stim/wavs/peruvian_mismatch_declarative-broad-focus_El-hombre-mira-la-luna.wav,./stim/wavs/puertorican_mismatch_declarative-broad-focus_El-hombre-mira-la-luna.wav,,,,,,,,,,,,,,,,,,,,,,,,,,,,,,,,,,,,,,,,,,,,,,,,,,,,,,,,
,,,,,,,midd27,midd,ma,Spain,Northeast,12 or younger,yes,2021-03-30_20h36.26.077,empathy_intonation_perc,2020.2.10,MacIntel,60,IwAR2meXeu2-O5-2TyiEsD3M2VduglKrX9Rb2UmezINmRgUUlWZ1Fcvk-G0yc,,,,,,,,,,1,chilean,1,1,1.341745,0,44,44,23,1,24,./stim/wavs/andalusian_match_interrogative-partial-wh_Por-que-iba-a-Bolivia.wav,./stim/wavs/argentine_match_interrogative-partial-wh_Por-que-iba-a-Bolivia.wav,./stim/wavs/castilian_match_interrogative-partial-wh_Por-que-iba-a-Bolivia.wav,./stim/wavs/chilean_match_interrogative-partial-wh_Por-que-iba-a-Bolivia.wav,./stim/wavs/cuban_match_interrogative-partial-wh_Por-que-iba-a-Bolivia.wav,./stim/wavs/mexican_match_interrogative-partial-wh_Por-que-iba-a-Bolivia.wav,./stim/wavs/peruvian_match_interrogative-partial-wh_Por-que-iba-a-Bolivia.wav,./stim/wavs/puertorican_match_interrogative-partial-wh_Por-que-iba-a-Bolivia.wav,,,,,,,,,,,,,,,,,,,,,,,,,,,,,,,,,,,,,,,,,,,,,,,,,,,,,,,,
,,,,,,,midd27,midd,ma,Spain,Northeast,12 or younger,yes,2021-03-30_20h36.26.077,empathy_intonation_perc,2020.2.10,MacIntel,60,IwAR2meXeu2-O5-2TyiEsD3M2VduglKrX9Rb2UmezINmRgUUlWZ1Fcvk-G0yc,,,,,,,,,,0,chilean,1,0,3.537015,0,45,45,43,1,44,./stim/wavs/andalusian_mismatch_declarative-narrow-focus_La-maestra-vive-en-Paris.wav,./stim/wavs/argentine_mismatch_declarative-narrow-focus_La-maestra-vive-en-Paris.wav,./stim/wavs/castilian_mismatch_declarative-narrow-focus_La-maestra-vive-en-Paris.wav,./stim/wavs/chilean_mismatch_declarative-narrow-focus_La-maestra-vive-en-Paris.wav,./stim/wavs/cuban_mismatch_declarative-narrow-focus_La-maestra-vive-en-Paris.wav,./stim/wavs/mexican_mismatch_declarative-narrow-focus_La-maestra-vive-en-Paris.wav,./stim/wavs/peruvian_mismatch_declarative-narrow-focus_La-maestra-vive-en-Paris.wav,./stim/wavs/puertorican_mismatch_declarative-narrow-focus_La-maestra-vive-en-Paris.wav,,,,,,,,,,,,,,,,,,,,,,,,,,,,,,,,,,,,,,,,,,,,,,,,,,,,,,,,
,,,,,,,midd27,midd,ma,Spain,Northeast,12 or younger,yes,2021-03-30_20h36.26.077,empathy_intonation_perc,2020.2.10,MacIntel,60,IwAR2meXeu2-O5-2TyiEsD3M2VduglKrX9Rb2UmezINmRgUUlWZ1Fcvk-G0yc,,,,,,,,,,1,mexican,1,1,3.436885,0,46,46,28,1,29,./stim/wavs/andalusian_match_interrogative-total-yn_Manuela-vende-el-carro.wav,./stim/wavs/argentine_match_interrogative-total-yn_Manuela-vende-el-carro.wav,./stim/wavs/castilian_match_interrogative-total-yn_Manuela-vende-el-carro.wav,./stim/wavs/chilean_match_interrogative-total-yn_Manuela-vende-el-carro.wav,./stim/wavs/cuban_match_interrogative-total-yn_Manuela-vende-el-carro.wav,./stim/wavs/mexican_match_interrogative-total-yn_Manuela-vende-el-carro.wav,./stim/wavs/peruvian_match_interrogative-total-yn_Manuela-vende-el-carro.wav,./stim/wavs/puertorican_match_interrogative-total-yn_Manuela-vende-el-carro.wav,,,,,,,,,,,,,,,,,,,,,,,,,,,,,,,,,,,,,,,,,,,,,,,,,,,,,,,,
,,,,,,,midd27,midd,ma,Spain,Northeast,12 or younger,yes,2021-03-30_20h36.26.077,empathy_intonation_perc,2020.2.10,MacIntel,60,IwAR2meXeu2-O5-2TyiEsD3M2VduglKrX9Rb2UmezINmRgUUlWZ1Fcvk-G0yc,,,,,,,,,,0,chilean,0,1,1.648495,0,47,47,45,1,46,./stim/wavs/andalusian_mismatch_declarative-narrow-focus_Mi-madre-come-la-fruta.wav,./stim/wavs/argentine_mismatch_declarative-narrow-focus_Mi-madre-come-la-fruta.wav,./stim/wavs/castilian_mismatch_declarative-narrow-focus_Mi-madre-come-la-fruta.wav,./stim/wavs/chilean_mismatch_declarative-narrow-focus_Mi-madre-come-la-fruta.wav,./stim/wavs/cuban_mismatch_declarative-narrow-focus_Mi-madre-come-la-fruta.wav,./stim/wavs/mexican_mismatch_declarative-narrow-focus_Mi-madre-come-la-fruta.wav,./stim/wavs/peruvian_mismatch_declarative-narrow-focus_Mi-madre-come-la-fruta.wav,./stim/wavs/puertorican_mismatch_declarative-narrow-focus_Mi-madre-come-la-fruta.wav,,,,,,,,,,,,,,,,,,,,,,,,,,,,,,,,,,,,,,,,,,,,,,,,,,,,,,,,
,,,,,,,midd27,midd,ma,Spain,Northeast,12 or younger,yes,2021-03-30_20h36.26.077,empathy_intonation_perc,2020.2.10,MacIntel,60,IwAR2meXeu2-O5-2TyiEsD3M2VduglKrX9Rb2UmezINmRgUUlWZ1Fcvk-G0yc,,,,,,,,,,0,puertorican,0,1,1.922395,0,48,48,9,1,10,./stim/wavs/andalusian_match_declarative-narrow-focus_Daniel-iba-a-Bolivia.wav,./stim/wavs/argentine_match_declarative-narrow-focus_Daniel-iba-a-Bolivia.wav,./stim/wavs/castilian_match_declarative-narrow-focus_Daniel-iba-a-Bolivia.wav,./stim/wavs/chilean_match_declarative-narrow-focus_Daniel-iba-a-Bolivia.wav,./stim/wavs/cuban_match_declarative-narrow-focus_Daniel-iba-a-Bolivia.wav,./stim/wavs/mexican_match_declarative-narrow-focus_Daniel-iba-a-Bolivia.wav,./stim/wavs/peruvian_match_declarative-narrow-focus_Daniel-iba-a-Bolivia.wav,./stim/wavs/puertorican_match_declarative-narrow-focus_Daniel-iba-a-Bolivia.wav,,,,,,,,,,,,,,,,,,,,,,,,,,,,,,,,,,,,,,,,,,,,,,,,,,,,,,,,
,,,,,,,midd27,midd,ma,Spain,Northeast,12 or younger,yes,2021-03-30_20h36.26.077,empathy_intonation_perc,2020.2.10,MacIntel,60,IwAR2meXeu2-O5-2TyiEsD3M2VduglKrX9Rb2UmezINmRgUUlWZ1Fcvk-G0yc,,,,,,,,,,0,mexican,0,1,1.83818,0,49,49,40,1,41,./stim/wavs/andalusian_mismatch_declarative-narrow-focus_El-bebe-comia-muy-bien.wav,./stim/wavs/argentine_mismatch_declarative-narrow-focus_El-bebe-comia-muy-bien.wav,./stim/wavs/castilian_mismatch_declarative-narrow-focus_El-bebe-comia-muy-bien.wav,./stim/wavs/chilean_mismatch_declarative-narrow-focus_El-bebe-comia-muy-bien.wav,./stim/wavs/cuban_mismatch_declarative-narrow-focus_El-bebe-comia-muy-bien.wav,./stim/wavs/mexican_mismatch_declarative-narrow-focus_El-bebe-comia-muy-bien.wav,./stim/wavs/peruvian_mismatch_declarative-narrow-focus_El-bebe-comia-muy-bien.wav,./stim/wavs/puertorican_mismatch_declarative-narrow-focus_El-bebe-comia-muy-bien.wav,,,,,,,,,,,,,,,,,,,,,,,,,,,,,,,,,,,,,,,,,,,,,,,,,,,,,,,,
,,,,,,,midd27,midd,ma,Spain,Northeast,12 or younger,yes,2021-03-30_20h36.26.077,empathy_intonation_perc,2020.2.10,MacIntel,60,IwAR2meXeu2-O5-2TyiEsD3M2VduglKrX9Rb2UmezINmRgUUlWZ1Fcvk-G0yc,,,,,,,,,,0,castilian,0,1,1.87417,0,50,50,32,1,33,./stim/wavs/andalusian_mismatch_declarative-broad-focus_El-bebe-comia-muy-bien.wav,./stim/wavs/argentine_mismatch_declarative-broad-focus_El-bebe-comia-muy-bien.wav,./stim/wavs/castilian_mismatch_declarative-broad-focus_El-bebe-comia-muy-bien.wav,./stim/wavs/chilean_mismatch_declarative-broad-focus_El-bebe-comia-muy-bien.wav,./stim/wavs/cuban_mismatch_declarative-broad-focus_El-bebe-comia-muy-bien.wav,./stim/wavs/mexican_mismatch_declarative-broad-focus_El-bebe-comia-muy-bien.wav,./stim/wavs/peruvian_mismatch_declarative-broad-focus_El-bebe-comia-muy-bien.wav,./stim/wavs/puertorican_mismatch_declarative-broad-focus_El-bebe-comia-muy-bien.wav,,,,,,,,,,,,,,,,,,,,,,,,,,,,,,,,,,,,,,,,,,,,,,,,,,,,,,,,
,,,,,,,midd27,midd,ma,Spain,Northeast,12 or younger,yes,2021-03-30_20h36.26.077,empathy_intonation_perc,2020.2.10,MacIntel,60,IwAR2meXeu2-O5-2TyiEsD3M2VduglKrX9Rb2UmezINmRgUUlWZ1Fcvk-G0yc,,,,,,,,,,0,cuban,0,1,1.55453,0,51,51,0,1,1,./stim/wavs/andalusian_match_declarative-broad-focus_Ana-lleva-el-abrigo.wav,./stim/wavs/argentine_match_declarative-broad-focus_Ana-lleva-el-abrigo.wav,./stim/wavs/castilian_match_declarative-broad-focus_Ana-lleva-el-abrigo.wav,./stim/wavs/chilean_match_declarative-broad-focus_Ana-lleva-el-abrigo.wav,./stim/wavs/cuban_match_declarative-broad-focus_Ana-lleva-el-abrigo.wav,./stim/wavs/mexican_match_declarative-broad-focus_Ana-lleva-el-abrigo.wav,./stim/wavs/peruvian_match_declarative-broad-focus_Ana-lleva-el-abrigo.wav,./stim/wavs/puertorican_match_declarative-broad-focus_Ana-lleva-el-abrigo.wav,,,,,,,,,,,,,,,,,,,,,,,,,,,,,,,,,,,,,,,,,,,,,,,,,,,,,,,,
,,,,,,,midd27,midd,ma,Spain,Northeast,12 or younger,yes,2021-03-30_20h36.26.077,empathy_intonation_perc,2020.2.10,MacIntel,60,IwAR2meXeu2-O5-2TyiEsD3M2VduglKrX9Rb2UmezINmRgUUlWZ1Fcvk-G0yc,,,,,,,,,,1,chilean,1,1,4.521625,0,52,52,26,1,27,./stim/wavs/andalusian_match_interrogative-total-yn_David-leia-el-libro.wav,./stim/wavs/argentine_match_interrogative-total-yn_David-leia-el-libro.wav,./stim/wavs/castilian_match_interrogative-total-yn_David-leia-el-libro.wav,./stim/wavs/chilean_match_interrogative-total-yn_David-leia-el-libro.wav,./stim/wavs/cuban_match_interrogative-total-yn_David-leia-el-libro.wav,./stim/wavs/mexican_match_interrogative-total-yn_David-leia-el-libro.wav,./stim/wavs/peruvian_match_interrogative-total-yn_David-leia-el-libro.wav,./stim/wavs/puertorican_match_interrogative-total-yn_David-leia-el-libro.wav,,,,,,,,,,,,,,,,,,,,,,,,,,,,,,,,,,,,,,,,,,,,,,,,,,,,,,,,
,,,,,,,midd27,midd,ma,Spain,Northeast,12 or younger,yes,2021-03-30_20h36.26.077,empathy_intonation_perc,2020.2.10,MacIntel,60,IwAR2meXeu2-O5-2TyiEsD3M2VduglKrX9Rb2UmezINmRgUUlWZ1Fcvk-G0yc,,,,,,,,,,0,chilean,0,1,1.407595,0,53,53,1,1,2,./stim/wavs/andalusian_match_declarative-broad-focus_Daniel-iba-a-Bolivia.wav,./stim/wavs/argentine_match_declarative-broad-focus_Daniel-iba-a-Bolivia.wav,./stim/wavs/castilian_match_declarative-broad-focus_Daniel-iba-a-Bolivia.wav,./stim/wavs/chilean_match_declarative-broad-focus_Daniel-iba-a-Bolivia.wav,./stim/wavs/cuban_match_declarative-broad-focus_Daniel-iba-a-Bolivia.wav,./stim/wavs/mexican_match_declarative-broad-focus_Daniel-iba-a-Bolivia.wav,./stim/wavs/peruvian_match_declarative-broad-focus_Daniel-iba-a-Bolivia.wav,./stim/wavs/puertorican_match_declarative-broad-focus_Daniel-iba-a-Bolivia.wav,,,,,,,,,,,,,,,,,,,,,,,,,,,,,,,,,,,,,,,,,,,,,,,,,,,,,,,,
,,,,,,,midd27,midd,ma,Spain,Northeast,12 or younger,yes,2021-03-30_20h36.26.077,empathy_intonation_perc,2020.2.10,MacIntel,60,IwAR2meXeu2-O5-2TyiEsD3M2VduglKrX9Rb2UmezINmRgUUlWZ1Fcvk-G0yc,,,,,,,,,,1,cuban,1,1,2.48218,0,54,54,52,1,53,./stim/wavs/andalusian_mismatch_interrogative-partial-wh_Por-que-odiaba-la-lluvia.wav,./stim/wavs/argentine_mismatch_interrogative-partial-wh_Por-que-odiaba-la-lluvia.wav,./stim/wavs/castilian_mismatch_interrogative-partial-wh_Por-que-odiaba-la-lluvia.wav,./stim/wavs/chilean_mismatch_interrogative-partial-wh_Por-que-odiaba-la-lluvia.wav,./stim/wavs/cuban_mismatch_interrogative-partial-wh_Por-que-odiaba-la-lluvia.wav,./stim/wavs/mexican_mismatch_interrogative-partial-wh_Por-que-odiaba-la-lluvia.wav,./stim/wavs/peruvian_mismatch_interrogative-partial-wh_Por-que-odiaba-la-lluvia.wav,./stim/wavs/puertorican_mismatch_interrogative-partial-wh_Por-que-odiaba-la-lluvia.wav,,,,,,,,,,,,,,,,,,,,,,,,,,,,,,,,,,,,,,,,,,,,,,,,,,,,,,,,
,,,,,,,midd27,midd,ma,Spain,Northeast,12 or younger,yes,2021-03-30_20h36.26.077,empathy_intonation_perc,2020.2.10,MacIntel,60,IwAR2meXeu2-O5-2TyiEsD3M2VduglKrX9Rb2UmezINmRgUUlWZ1Fcvk-G0yc,,,,,,,,,,0,cuban,0,1,2.136175,0,55,55,14,1,15,./stim/wavs/andalusian_match_declarative-narrow-focus_Mariano-habla-del-tiempo.wav,./stim/wavs/argentine_match_declarative-narrow-focus_Mariano-habla-del-tiempo.wav,./stim/wavs/castilian_match_declarative-narrow-focus_Mariano-habla-del-tiempo.wav,./stim/wavs/chilean_match_declarative-narrow-focus_Mariano-habla-del-tiempo.wav,./stim/wavs/cuban_match_declarative-narrow-focus_Mariano-habla-del-tiempo.wav,./stim/wavs/mexican_match_declarative-narrow-focus_Mariano-habla-del-tiempo.wav,./stim/wavs/peruvian_match_declarative-narrow-focus_Mariano-habla-del-tiempo.wav,./stim/wavs/puertorican_match_declarative-narrow-focus_Mariano-habla-del-tiempo.wav,,,,,,,,,,,,,,,,,,,,,,,,,,,,,,,,,,,,,,,,,,,,,,,,,,,,,,,,
,,,,,,,midd27,midd,ma,Spain,Northeast,12 or younger,yes,2021-03-30_20h36.26.077,empathy_intonation_perc,2020.2.10,MacIntel,60,IwAR2meXeu2-O5-2TyiEsD3M2VduglKrX9Rb2UmezINmRgUUlWZ1Fcvk-G0yc,,,,,,,,,,1,castilian,1,1,2.451455,0,56,56,27,1,28,./stim/wavs/andalusian_match_interrogative-total-yn_Emilio-ama-la-marcha.wav,./stim/wavs/argentine_match_interrogative-total-yn_Emilio-ama-la-marcha.wav,./stim/wavs/castilian_match_interrogative-total-yn_Emilio-ama-la-marcha.wav,./stim/wavs/chilean_match_interrogative-total-yn_Emilio-ama-la-marcha.wav,./stim/wavs/cuban_match_interrogative-total-yn_Emilio-ama-la-marcha.wav,./stim/wavs/mexican_match_interrogative-total-yn_Emilio-ama-la-marcha.wav,./stim/wavs/peruvian_match_interrogative-total-yn_Emilio-ama-la-marcha.wav,./stim/wavs/puertorican_match_interrogative-total-yn_Emilio-ama-la-marcha.wav,,,,,,,,,,,,,,,,,,,,,,,,,,,,,,,,,,,,,,,,,,,,,,,,,,,,,,,,
,,,,,,,midd27,midd,ma,Spain,Northeast,12 or younger,yes,2021-03-30_20h36.26.077,empathy_intonation_perc,2020.2.10,MacIntel,60,IwAR2meXeu2-O5-2TyiEsD3M2VduglKrX9Rb2UmezINmRgUUlWZ1Fcvk-G0yc,,,,,,,,,,1,andalusian,1,1,1.487255,0,57,57,61,1,62,./stim/wavs/andalusian_mismatch_interrogative-total-yn_Mi-madre-come-la-fruta.wav,./stim/wavs/argentine_mismatch_interrogative-total-yn_Mi-madre-come-la-fruta.wav,./stim/wavs/castilian_mismatch_interrogative-total-yn_Mi-madre-come-la-fruta.wav,./stim/wavs/chilean_mismatch_interrogative-total-yn_Mi-madre-come-la-fruta.wav,./stim/wavs/cuban_mismatch_interrogative-total-yn_Mi-madre-come-la-fruta.wav,./stim/wavs/mexican_mismatch_interrogative-total-yn_Mi-madre-come-la-fruta.wav,./stim/wavs/peruvian_mismatch_interrogative-total-yn_Mi-madre-come-la-fruta.wav,./stim/wavs/puertorican_mismatch_interrogative-total-yn_Mi-madre-come-la-fruta.wav,,,,,,,,,,,,,,,,,,,,,,,,,,,,,,,,,,,,,,,,,,,,,,,,,,,,,,,,
,,,,,,,midd27,midd,ma,Spain,Northeast,12 or younger,yes,2021-03-30_20h36.26.077,empathy_intonation_perc,2020.2.10,MacIntel,60,IwAR2meXeu2-O5-2TyiEsD3M2VduglKrX9Rb2UmezINmRgUUlWZ1Fcvk-G0yc,,,,,,,,,,0,peruvian,0,1,1.93317,0,58,58,44,1,45,./stim/wavs/andalusian_mismatch_declarative-narrow-focus_La-nina-lava-el-plato.wav,./stim/wavs/argentine_mismatch_declarative-narrow-focus_La-nina-lava-el-plato.wav,./stim/wavs/castilian_mismatch_declarative-narrow-focus_La-nina-lava-el-plato.wav,./stim/wavs/chilean_mismatch_declarative-narrow-focus_La-nina-lava-el-plato.wav,./stim/wavs/cuban_mismatch_declarative-narrow-focus_La-nina-lava-el-plato.wav,./stim/wavs/mexican_mismatch_declarative-narrow-focus_La-nina-lava-el-plato.wav,./stim/wavs/peruvian_mismatch_declarative-narrow-focus_La-nina-lava-el-plato.wav,./stim/wavs/puertorican_mismatch_declarative-narrow-focus_La-nina-lava-el-plato.wav,,,,,,,,,,,,,,,,,,,,,,,,,,,,,,,,,,,,,,,,,,,,,,,,,,,,,,,,
,,,,,,,midd27,midd,ma,Spain,Northeast,12 or younger,yes,2021-03-30_20h36.26.077,empathy_intonation_perc,2020.2.10,MacIntel,60,IwAR2meXeu2-O5-2TyiEsD3M2VduglKrX9Rb2UmezINmRgUUlWZ1Fcvk-G0yc,,,,,,,,,,1,mexican,1,1,2.76944,0,59,59,55,1,56,./stim/wavs/andalusian_mismatch_interrogative-partial-wh_Por-que-vivia-en-Paris.wav,./stim/wavs/argentine_mismatch_interrogative-partial-wh_Por-que-vivia-en-Paris.wav,./stim/wavs/castilian_mismatch_interrogative-partial-wh_Por-que-vivia-en-Paris.wav,./stim/wavs/chilean_mismatch_interrogative-partial-wh_Por-que-vivia-en-Paris.wav,./stim/wavs/cuban_mismatch_interrogative-partial-wh_Por-que-vivia-en-Paris.wav,./stim/wavs/mexican_mismatch_interrogative-partial-wh_Por-que-vivia-en-Paris.wav,./stim/wavs/peruvian_mismatch_interrogative-partial-wh_Por-que-vivia-en-Paris.wav,./stim/wavs/puertorican_mismatch_interrogative-partial-wh_Por-que-vivia-en-Paris.wav,,,,,,,,,,,,,,,,,,,,,,,,,,,,,,,,,,,,,,,,,,,,,,,,,,,,,,,,
,,,,,,,midd27,midd,ma,Spain,Northeast,12 or younger,yes,2021-03-30_20h36.26.077,empathy_intonation_perc,2020.2.10,MacIntel,60,IwAR2meXeu2-O5-2TyiEsD3M2VduglKrX9Rb2UmezINmRgUUlWZ1Fcvk-G0yc,,,,,,,,,,0,puertorican,0,1,1.571545,0,60,60,4,1,5,./stim/wavs/andalusian_match_declarative-broad-focus_Manuela-vende-el-carro.wav,./stim/wavs/argentine_match_declarative-broad-focus_Manuela-vende-el-carro.wav,./stim/wavs/castilian_match_declarative-broad-focus_Manuela-vende-el-carro.wav,./stim/wavs/chilean_match_declarative-broad-focus_Manuela-vende-el-carro.wav,./stim/wavs/cuban_match_declarative-broad-focus_Manuela-vende-el-carro.wav,./stim/wavs/mexican_match_declarative-broad-focus_Manuela-vende-el-carro.wav,./stim/wavs/peruvian_match_declarative-broad-focus_Manuela-vende-el-carro.wav,./stim/wavs/puertorican_match_declarative-broad-focus_Manuela-vende-el-carro.wav,,,,,,,,,,,,,,,,,,,,,,,,,,,,,,,,,,,,,,,,,,,,,,,,,,,,,,,,
,,,,,,,midd27,midd,ma,Spain,Northeast,12 or younger,yes,2021-03-30_20h36.26.077,empathy_intonation_perc,2020.2.10,MacIntel,60,IwAR2meXeu2-O5-2TyiEsD3M2VduglKrX9Rb2UmezINmRgUUlWZ1Fcvk-G0yc,,,,,,,,,,0,puertorican,0,1,1.584895,0,61,61,35,1,36,./stim/wavs/andalusian_mismatch_declarative-broad-focus_La-maestra-vive-en-Paris.wav,./stim/wavs/argentine_mismatch_declarative-broad-focus_La-maestra-vive-en-Paris.wav,./stim/wavs/castilian_mismatch_declarative-broad-focus_La-maestra-vive-en-Paris.wav,./stim/wavs/chilean_mismatch_declarative-broad-focus_La-maestra-vive-en-Paris.wav,./stim/wavs/cuban_mismatch_declarative-broad-focus_La-maestra-vive-en-Paris.wav,./stim/wavs/mexican_mismatch_declarative-broad-focus_La-maestra-vive-en-Paris.wav,./stim/wavs/peruvian_mismatch_declarative-broad-focus_La-maestra-vive-en-Paris.wav,./stim/wavs/puertorican_mismatch_declarative-broad-focus_La-maestra-vive-en-Paris.wav,,,,,,,,,,,,,,,,,,,,,,,,,,,,,,,,,,,,,,,,,,,,,,,,,,,,,,,,
,,,,,,,midd27,midd,ma,Spain,Northeast,12 or younger,yes,2021-03-30_20h36.26.077,empathy_intonation_perc,2020.2.10,MacIntel,60,IwAR2meXeu2-O5-2TyiEsD3M2VduglKrX9Rb2UmezINmRgUUlWZ1Fcvk-G0yc,,,,,,,,,,1,puertorican,1,1,1.83387,0,62,62,63,1,64,./stim/wavs/andalusian_mismatch_interrogative-total-yn_Mi-tia-odia-la-lluvia.wav,./stim/wavs/argentine_mismatch_interrogative-total-yn_Mi-tia-odia-la-lluvia.wav,./stim/wavs/castilian_mismatch_interrogative-total-yn_Mi-tia-odia-la-lluvia.wav,./stim/wavs/chilean_mismatch_interrogative-total-yn_Mi-tia-odia-la-lluvia.wav,./stim/wavs/cuban_mismatch_interrogative-total-yn_Mi-tia-odia-la-lluvia.wav,./stim/wavs/mexican_mismatch_interrogative-total-yn_Mi-tia-odia-la-lluvia.wav,./stim/wavs/peruvian_mismatch_interrogative-total-yn_Mi-tia-odia-la-lluvia.wav,./stim/wavs/puertorican_mismatch_interrogative-total-yn_Mi-tia-odia-la-lluvia.wav,,,,,,,,,,,,,,,,,,,,,,,,,,,,,,,,,,,,,,,,,,,,,,,,,,,,,,,,
,,,,,,,midd27,midd,ma,Spain,Northeast,12 or younger,yes,2021-03-30_20h36.26.077,empathy_intonation_perc,2020.2.10,MacIntel,60,IwAR2meXeu2-O5-2TyiEsD3M2VduglKrX9Rb2UmezINmRgUUlWZ1Fcvk-G0yc,,,,,,,,,,0,castilian,0,1,1.65257,0,63,63,3,1,4,./stim/wavs/andalusian_match_declarative-broad-focus_Emilio-ama-la-marcha.wav,./stim/wavs/argentine_match_declarative-broad-focus_Emilio-ama-la-marcha.wav,./stim/wavs/castilian_match_declarative-broad-focus_Emilio-ama-la-marcha.wav,./stim/wavs/chilean_match_declarative-broad-focus_Emilio-ama-la-marcha.wav,./stim/wavs/cuban_match_declarative-broad-focus_Emilio-ama-la-marcha.wav,./stim/wavs/mexican_match_declarative-broad-focus_Emilio-ama-la-marcha.wav,./stim/wavs/peruvian_match_declarative-broad-focus_Emilio-ama-la-marcha.wav,./stim/wavs/puertorican_match_declarative-broad-focus_Emilio-ama-la-marcha.wav,,,,,,,,,,,,,,,,,,,,,,,,,,,,,,,,,,,,,,,,,,,,,,,,,,,,,,,,
,,,,,,,midd27,midd,ma,Spain,Northeast,12 or younger,yes,2021-03-30_20h36.26.077,empathy_intonation_perc,2020.2.10,MacIntel,60,IwAR2meXeu2-O5-2TyiEsD3M2VduglKrX9Rb2UmezINmRgUUlWZ1Fcvk-G0yc,,,,,,,,,,,,,,,,,,,,,,,,,,,,,h,1,16.53782,0,0,0,0,1,,,,,,,,,,,,,,,,,,,,,,,,,,,,,,,,,,,,,,,,,,,,,,,,
,,,,,"Great! Now we will move on. The next task consists of about 60 trials, in each of which you will see a string of letters. 
  
  Your task is to decide whether this is a real Spanish word or not.",(press the spacebar to continue),midd27,midd,ma,Spain,Northeast,12 or younger,yes,2021-03-30_20h36.26.077,empathy_intonation_perc,2020.2.10,MacIntel,60,IwAR2meXeu2-O5-2TyiEsD3M2VduglKrX9Rb2UmezINmRgUUlWZ1Fcvk-G0yc,,,,,,,,,,,,,,,,,,,,,,,,,,,,,,,,,,,,,0,0,0,0,1,,,,,,,,,,,,,,,,,,,,,,,,,,,,,,,,,,,,,,,,,,,
,,,,,"If you think it is an existing Spanish word, you type '1' (for 'REAL'), and if you think it is not an existing Spanish word, you type '0' (for 'FAKE').",(press the spacebar to continue),midd27,midd,ma,Spain,Northeast,12 or younger,yes,2021-03-30_20h36.26.077,empathy_intonation_perc,2020.2.10,MacIntel,60,IwAR2meXeu2-O5-2TyiEsD3M2VduglKrX9Rb2UmezINmRgUUlWZ1Fcvk-G0yc,,,,,,,,,,,,,,,,,,,,,,,,,,,,,,,,,,,,,0,1,1,1,1,,,,,,,,,,,,,,,,,,,,,,,,,,,,,,,,,,,,,,,,,,,
,,,,,"If you are sure that the word exists, even though you dont know its exact meaning, you may still respond '1' (REAL). 
  
  But if you are not sure if it is an existing word, you should respond '0' (FAKE).
  
  Let's do a practice round...",(press the spacebar to continue),midd27,midd,ma,Spain,Northeast,12 or younger,yes,2021-03-30_20h36.26.077,empathy_intonation_perc,2020.2.10,MacIntel,60,IwAR2meXeu2-O5-2TyiEsD3M2VduglKrX9Rb2UmezINmRgUUlWZ1Fcvk-G0yc,,,,,,,,,,,,,,,,,,,,,,,,,,,,,,,,,,,,,0,2,2,2,1,,,,,,,,,,,,,,,,,,,,,,,,,,,,,,,,,,,,,,,,,,,
,,,,,,,midd27,midd,ma,Spain,Northeast,12 or younger,yes,2021-03-30_20h36.26.077,empathy_intonation_perc,2020.2.10,MacIntel,60,IwAR2meXeu2-O5-2TyiEsD3M2VduglKrX9Rb2UmezINmRgUUlWZ1Fcvk-G0yc,,,,,,,,,,0,,,,,,,,,,,,,,,,,,,,,,,,,,,,,,,,1,0,3.66786,0,0,0,0,1,0,depiste,REAL,FAKE,,,,,,,,,,,,,,,,,,,,,,,,,,,,,,,
,,,,,,,midd27,midd,ma,Spain,Northeast,12 or younger,yes,2021-03-30_20h36.26.077,empathy_intonation_perc,2020.2.10,MacIntel,60,IwAR2meXeu2-O5-2TyiEsD3M2VduglKrX9Rb2UmezINmRgUUlWZ1Fcvk-G0yc,,,,,,,,,,1,,,,,,,,,,,,,,,,,,,,,,,,,,,,,,,,1,1,2.484905,0,1,1,1,1,0,s,REAL,FAKE,,,,,,,,,,,,,,,,,,,,,,,,,,,,,,,
,,,,,,,midd27,midd,ma,Spain,Northeast,12 or younger,yes,2021-03-30_20h36.26.077,empathy_intonation_perc,2020.2.10,MacIntel,60,IwAR2meXeu2-O5-2TyiEsD3M2VduglKrX9Rb2UmezINmRgUUlWZ1Fcvk-G0yc,,,,,,,,,,0,,,,,,,,,,,,,,,,,,,,,,,,,,,,,,,,0,1,2.61846,0,2,2,2,1,0,con,REAL,FAKE,,,,,,,,,,,,,,,,,,,,,,,,,,,,,,,
,,,,,,,midd27,midd,ma,Spain,Northeast,12 or younger,yes,2021-03-30_20h36.26.077,empathy_intonation_perc,2020.2.10,MacIntel,60,IwAR2meXeu2-O5-2TyiEsD3M2VduglKrX9Rb2UmezINmRgUUlWZ1Fcvk-G0yc,,,,,,,,,,0,,,,,,,,,,,,,,,,,,,,,,,,,,,,,,,,0,1,2.10561,0,3,3,3,1,0,calpar,REAL,FAKE,,,,,,,,,,,,,,,,,,,,,,,,,,,,,,,
,,,,,,,midd27,midd,ma,Spain,Northeast,12 or younger,yes,2021-03-30_20h36.26.077,empathy_intonation_perc,2020.2.10,MacIntel,60,IwAR2meXeu2-O5-2TyiEsD3M2VduglKrX9Rb2UmezINmRgUUlWZ1Fcvk-G0yc,,,,,,,,,,0,,,,,,,,,,,,,,,,,,,,,,,,,,,,,,,,0,1,3.10249,0,4,4,4,1,0,joten,REAL,FAKE,,,,,,,,,,,,,,,,,,,,,,,,,,,,,,,
,,,,,,,midd27,midd,ma,Spain,Northeast,12 or younger,yes,2021-03-30_20h36.26.077,empathy_intonation_perc,2020.2.10,MacIntel,60,IwAR2meXeu2-O5-2TyiEsD3M2VduglKrX9Rb2UmezINmRgUUlWZ1Fcvk-G0yc,,,,,,,,,,1,,,,,,,,,,,,,,,,,,,,,,,,,,,,,,,,1,1,1.32133,0,5,5,5,1,0,sacapuntas,REAL,FAKE,,,,,,,,,,,,,,,,,,,,,,,,,,,,,,,
,,,,,,,midd27,midd,ma,Spain,Northeast,12 or younger,yes,2021-03-30_20h36.26.077,empathy_intonation_perc,2020.2.10,MacIntel,60,IwAR2meXeu2-O5-2TyiEsD3M2VduglKrX9Rb2UmezINmRgUUlWZ1Fcvk-G0yc,,,,,,,,,,0,,,,,,,,,,,,,,,,,,,,,,,,,,,,,,,,0,1,1.461285,0,6,6,6,1,0,priba,REAL,FAKE,,,,,,,,,,,,,,,,,,,,,,,,,,,,,,,
,,,,,,,midd27,midd,ma,Spain,Northeast,12 or younger,yes,2021-03-30_20h36.26.077,empathy_intonation_perc,2020.2.10,MacIntel,60,IwAR2meXeu2-O5-2TyiEsD3M2VduglKrX9Rb2UmezINmRgUUlWZ1Fcvk-G0yc,,,,,,,,,,0,,,,,,,,,,,,,,,,,,,,,,,,,,,,,,,,0,1,4.63298,0,7,7,7,1,0,pelasula,REAL,FAKE,,,,,,,,,,,,,,,,,,,,,,,,,,,,,,,
,,,,,,,midd27,midd,ma,Spain,Northeast,12 or younger,yes,2021-03-30_20h36.26.077,empathy_intonation_perc,2020.2.10,MacIntel,60,IwAR2meXeu2-O5-2TyiEsD3M2VduglKrX9Rb2UmezINmRgUUlWZ1Fcvk-G0yc,,,,,,,,,,1,,,,,,,,,,,,,,,,,,,,,,,,,,,,,,,,1,1,1.016615,0,8,8,8,1,0,bien,REAL,FAKE,,,,,,,,,,,,,,,,,,,,,,,,,,,,,,,
,,,,,,,midd27,midd,ma,Spain,Northeast,12 or younger,yes,2021-03-30_20h36.26.077,empathy_intonation_perc,2020.2.10,MacIntel,60,IwAR2meXeu2-O5-2TyiEsD3M2VduglKrX9Rb2UmezINmRgUUlWZ1Fcvk-G0yc,,,,,,,,,,1,,,,,,,,,,,,,,,,,,,,,,,,,,,,,,,,1,1,0.80413,0,9,9,9,1,0,casa,REAL,FAKE,,,,,,,,,,,,,,,,,,,,,,,,,,,,,,,
,,,,,,,midd27,midd,ma,Spain,Northeast,12 or younger,yes,2021-03-30_20h36.26.077,empathy_intonation_perc,2020.2.10,MacIntel,60,IwAR2meXeu2-O5-2TyiEsD3M2VduglKrX9Rb2UmezINmRgUUlWZ1Fcvk-G0yc,,,,,,,,,,0,,,,,,,,,,,,,,,,,,,,,,,,,,,,,,,,0,1,1.885265,0,10,10,10,1,0,lejo,REAL,FAKE,,,,,,,,,,,,,,,,,,,,,,,,,,,,,,,
,,,,,,,midd27,midd,ma,Spain,Northeast,12 or younger,yes,2021-03-30_20h36.26.077,empathy_intonation_perc,2020.2.10,MacIntel,60,IwAR2meXeu2-O5-2TyiEsD3M2VduglKrX9Rb2UmezINmRgUUlWZ1Fcvk-G0yc,,,,,,,,,,0,,,,,,,,,,,,,,,,,,,,,,,,,,,,,,,,0,1,1.881235,0,11,11,11,1,0,pretantas,REAL,FAKE,,,,,,,,,,,,,,,,,,,,,,,,,,,,,,,
,,,,,,,midd27,midd,ma,Spain,Northeast,12 or younger,yes,2021-03-30_20h36.26.077,empathy_intonation_perc,2020.2.10,MacIntel,60,IwAR2meXeu2-O5-2TyiEsD3M2VduglKrX9Rb2UmezINmRgUUlWZ1Fcvk-G0yc,,,,,,,,,,1,,,,,,,,,,,,,,,,,,,,,,,,,,,,,,,,,,,,,,,,14,yunque,,,1,1,1.697625,0,0,0,13,1,REAL,FAKE,,,,,,,,,,,,,,,,,,,,,
,,,,,,,midd27,midd,ma,Spain,Northeast,12 or younger,yes,2021-03-30_20h36.26.077,empathy_intonation_perc,2020.2.10,MacIntel,60,IwAR2meXeu2-O5-2TyiEsD3M2VduglKrX9Rb2UmezINmRgUUlWZ1Fcvk-G0yc,,,,,,,,,,1,,,,,,,,,,,,,,,,,,,,,,,,,,,,,,,,,,,,,,,,55,nevar,,,1,1,1.05075,0,1,1,54,1,REAL,FAKE,,,,,,,,,,,,,,,,,,,,,
,,,,,,,midd27,midd,ma,Spain,Northeast,12 or younger,yes,2021-03-30_20h36.26.077,empathy_intonation_perc,2020.2.10,MacIntel,60,IwAR2meXeu2-O5-2TyiEsD3M2VduglKrX9Rb2UmezINmRgUUlWZ1Fcvk-G0yc,,,,,,,,,,0,,,,,,,,,,,,,,,,,,,,,,,,,,,,,,,,,,,,,,,,1,terzo,,,1,0,1.1822,0,2,2,0,1,REAL,FAKE,,,,,,,,,,,,,,,,,,,,,
,,,,,,,midd27,midd,ma,Spain,Northeast,12 or younger,yes,2021-03-30_20h36.26.077,empathy_intonation_perc,2020.2.10,MacIntel,60,IwAR2meXeu2-O5-2TyiEsD3M2VduglKrX9Rb2UmezINmRgUUlWZ1Fcvk-G0yc,,,,,,,,,,0,,,,,,,,,,,,,,,,,,,,,,,,,,,,,,,,,,,,,,,,53,vegada,,,0,1,2.5827,0,3,3,52,1,REAL,FAKE,,,,,,,,,,,,,,,,,,,,,
,,,,,,,midd27,midd,ma,Spain,Northeast,12 or younger,yes,2021-03-30_20h36.26.077,empathy_intonation_perc,2020.2.10,MacIntel,60,IwAR2meXeu2-O5-2TyiEsD3M2VduglKrX9Rb2UmezINmRgUUlWZ1Fcvk-G0yc,,,,,,,,,,1,,,,,,,,,,,,,,,,,,,,,,,,,,,,,,,,,,,,,,,,76,atar,,,1,1,0.85578,0,4,4,75,1,REAL,FAKE,,,,,,,,,,,,,,,,,,,,,
,,,,,,,midd27,midd,ma,Spain,Northeast,12 or younger,yes,2021-03-30_20h36.26.077,empathy_intonation_perc,2020.2.10,MacIntel,60,IwAR2meXeu2-O5-2TyiEsD3M2VduglKrX9Rb2UmezINmRgUUlWZ1Fcvk-G0yc,,,,,,,,,,0,,,,,,,,,,,,,,,,,,,,,,,,,,,,,,,,,,,,,,,,33,pauca,,,0,1,4.89576,0,5,5,32,1,REAL,FAKE,,,,,,,,,,,,,,,,,,,,,
,,,,,,,midd27,midd,ma,Spain,Northeast,12 or younger,yes,2021-03-30_20h36.26.077,empathy_intonation_perc,2020.2.10,MacIntel,60,IwAR2meXeu2-O5-2TyiEsD3M2VduglKrX9Rb2UmezINmRgUUlWZ1Fcvk-G0yc,,,,,,,,,,1,,,,,,,,,,,,,,,,,,,,,,,,,,,,,,,,,,,,,,,,60,matar,,,1,1,0.768775,0,6,6,59,1,REAL,FAKE,,,,,,,,,,,,,,,,,,,,,
,,,,,,,midd27,midd,ma,Spain,Northeast,12 or younger,yes,2021-03-30_20h36.26.077,empathy_intonation_perc,2020.2.10,MacIntel,60,IwAR2meXeu2-O5-2TyiEsD3M2VduglKrX9Rb2UmezINmRgUUlWZ1Fcvk-G0yc,,,,,,,,,,1,,,,,,,,,,,,,,,,,,,,,,,,,,,,,,,,,,,,,,,,45,jilguero,,,0,0,2.457815,0,7,7,44,1,REAL,FAKE,,,,,,,,,,,,,,,,,,,,,
,,,,,,,midd27,midd,ma,Spain,Northeast,12 or younger,yes,2021-03-30_20h36.26.077,empathy_intonation_perc,2020.2.10,MacIntel,60,IwAR2meXeu2-O5-2TyiEsD3M2VduglKrX9Rb2UmezINmRgUUlWZ1Fcvk-G0yc,,,,,,,,,,0,,,,,,,,,,,,,,,,,,,,,,,,,,,,,,,,,,,,,,,,70,temblo,,,1,0,0.821025,0,8,8,69,1,REAL,FAKE,,,,,,,,,,,,,,,,,,,,,
,,,,,,,midd27,midd,ma,Spain,Northeast,12 or younger,yes,2021-03-30_20h36.26.077,empathy_intonation_perc,2020.2.10,MacIntel,60,IwAR2meXeu2-O5-2TyiEsD3M2VduglKrX9Rb2UmezINmRgUUlWZ1Fcvk-G0yc,,,,,,,,,,1,,,,,,,,,,,,,,,,,,,,,,,,,,,,,,,,,,,,,,,,89,prisa,,,1,1,1.54175,0,9,9,88,1,REAL,FAKE,,,,,,,,,,,,,,,,,,,,,
,,,,,,,midd27,midd,ma,Spain,Northeast,12 or younger,yes,2021-03-30_20h36.26.077,empathy_intonation_perc,2020.2.10,MacIntel,60,IwAR2meXeu2-O5-2TyiEsD3M2VduglKrX9Rb2UmezINmRgUUlWZ1Fcvk-G0yc,,,,,,,,,,1,,,,,,,,,,,,,,,,,,,,,,,,,,,,,,,,,,,,,,,,44,cuchara,,,1,1,0.93515,0,10,10,43,1,REAL,FAKE,,,,,,,,,,,,,,,,,,,,,
,,,,,,,midd27,midd,ma,Spain,Northeast,12 or younger,yes,2021-03-30_20h36.26.077,empathy_intonation_perc,2020.2.10,MacIntel,60,IwAR2meXeu2-O5-2TyiEsD3M2VduglKrX9Rb2UmezINmRgUUlWZ1Fcvk-G0yc,,,,,,,,,,0,,,,,,,,,,,,,,,,,,,,,,,,,,,,,,,,,,,,,,,,21,capillo,,,1,0,11.827145,0,11,11,20,1,REAL,FAKE,,,,,,,,,,,,,,,,,,,,,
,,,,,,,midd27,midd,ma,Spain,Northeast,12 or younger,yes,2021-03-30_20h36.26.077,empathy_intonation_perc,2020.2.10,MacIntel,60,IwAR2meXeu2-O5-2TyiEsD3M2VduglKrX9Rb2UmezINmRgUUlWZ1Fcvk-G0yc,,,,,,,,,,0,,,,,,,,,,,,,,,,,,,,,,,,,,,,,,,,,,,,,,,,58,plaudir,,,1,0,1.08815,0,12,12,57,1,REAL,FAKE,,,,,,,,,,,,,,,,,,,,,
,,,,,,,midd27,midd,ma,Spain,Northeast,12 or younger,yes,2021-03-30_20h36.26.077,empathy_intonation_perc,2020.2.10,MacIntel,60,IwAR2meXeu2-O5-2TyiEsD3M2VduglKrX9Rb2UmezINmRgUUlWZ1Fcvk-G0yc,,,,,,,,,,0,,,,,,,,,,,,,,,,,,,,,,,,,,,,,,,,,,,,,,,,74,cintro,,,1,0,4.59008,0,13,13,73,1,REAL,FAKE,,,,,,,,,,,,,,,,,,,,,
,,,,,,,midd27,midd,ma,Spain,Northeast,12 or younger,yes,2021-03-30_20h36.26.077,empathy_intonation_perc,2020.2.10,MacIntel,60,IwAR2meXeu2-O5-2TyiEsD3M2VduglKrX9Rb2UmezINmRgUUlWZ1Fcvk-G0yc,,,,,,,,,,0,,,,,,,,,,,,,,,,,,,,,,,,,,,,,,,,,,,,,,,,87,grodo,,,0,1,1.334155,0,14,14,86,1,REAL,FAKE,,,,,,,,,,,,,,,,,,,,,
,,,,,,,midd27,midd,ma,Spain,Northeast,12 or younger,yes,2021-03-30_20h36.26.077,empathy_intonation_perc,2020.2.10,MacIntel,60,IwAR2meXeu2-O5-2TyiEsD3M2VduglKrX9Rb2UmezINmRgUUlWZ1Fcvk-G0yc,,,,,,,,,,1,,,,,,,,,,,,,,,,,,,,,,,,,,,,,,,,,,,,,,,,52,camisa,,,1,1,0.783935,0,15,15,51,1,REAL,FAKE,,,,,,,,,,,,,,,,,,,,,
,,,,,,,midd27,midd,ma,Spain,Northeast,12 or younger,yes,2021-03-30_20h36.26.077,empathy_intonation_perc,2020.2.10,MacIntel,60,IwAR2meXeu2-O5-2TyiEsD3M2VduglKrX9Rb2UmezINmRgUUlWZ1Fcvk-G0yc,,,,,,,,,,1,,,,,,,,,,,,,,,,,,,,,,,,,,,,,,,,,,,,,,,,71,polvoriento,,,1,1,2.22049,0,16,16,70,1,REAL,FAKE,,,,,,,,,,,,,,,,,,,,,
,,,,,,,midd27,midd,ma,Spain,Northeast,12 or younger,yes,2021-03-30_20h36.26.077,empathy_intonation_perc,2020.2.10,MacIntel,60,IwAR2meXeu2-O5-2TyiEsD3M2VduglKrX9Rb2UmezINmRgUUlWZ1Fcvk-G0yc,,,,,,,,,,1,,,,,,,,,,,,,,,,,,,,,,,,,,,,,,,,,,,,,,,,28,merodear,,,0,0,5.673025,0,17,17,27,1,REAL,FAKE,,,,,,,,,,,,,,,,,,,,,
,,,,,,,midd27,midd,ma,Spain,Northeast,12 or younger,yes,2021-03-30_20h36.26.077,empathy_intonation_perc,2020.2.10,MacIntel,60,IwAR2meXeu2-O5-2TyiEsD3M2VduglKrX9Rb2UmezINmRgUUlWZ1Fcvk-G0yc,,,,,,,,,,0,,,,,,,,,,,,,,,,,,,,,,,,,,,,,,,,,,,,,,,,8,cadea,,,0,1,5.953475,0,18,18,7,1,REAL,FAKE,,,,,,,,,,,,,,,,,,,,,
,,,,,,,midd27,midd,ma,Spain,Northeast,12 or younger,yes,2021-03-30_20h36.26.077,empathy_intonation_perc,2020.2.10,MacIntel,60,IwAR2meXeu2-O5-2TyiEsD3M2VduglKrX9Rb2UmezINmRgUUlWZ1Fcvk-G0yc,,,,,,,,,,1,,,,,,,,,,,,,,,,,,,,,,,,,,,,,,,,,,,,,,,,2,pellizcar,,,0,0,8.31271,0,19,19,1,1,REAL,FAKE,,,,,,,,,,,,,,,,,,,,,
,,,,,,,midd27,midd,ma,Spain,Northeast,12 or younger,yes,2021-03-30_20h36.26.077,empathy_intonation_perc,2020.2.10,MacIntel,60,IwAR2meXeu2-O5-2TyiEsD3M2VduglKrX9Rb2UmezINmRgUUlWZ1Fcvk-G0yc,,,,,,,,,,1,,,,,,,,,,,,,,,,,,,,,,,,,,,,,,,,,,,,,,,,73,hervidor,,,1,1,2.556765,0,20,20,72,1,REAL,FAKE,,,,,,,,,,,,,,,,,,,,,
,,,,,,,midd27,midd,ma,Spain,Northeast,12 or younger,yes,2021-03-30_20h36.26.077,empathy_intonation_perc,2020.2.10,MacIntel,60,IwAR2meXeu2-O5-2TyiEsD3M2VduglKrX9Rb2UmezINmRgUUlWZ1Fcvk-G0yc,,,,,,,,,,1,,,,,,,,,,,,,,,,,,,,,,,,,,,,,,,,,,,,,,,,85,lad,,,0,0,2.927955,0,21,21,84,1,REAL,FAKE,,,,,,,,,,,,,,,,,,,,,
,,,,,,,midd27,midd,ma,Spain,Northeast,12 or younger,yes,2021-03-30_20h36.26.077,empathy_intonation_perc,2020.2.10,MacIntel,60,IwAR2meXeu2-O5-2TyiEsD3M2VduglKrX9Rb2UmezINmRgUUlWZ1Fcvk-G0yc,,,,,,,,,,1,,,,,,,,,,,,,,,,,,,,,,,,,,,,,,,,,,,,,,,,46,martillo,,,1,1,1.2322,0,22,22,45,1,REAL,FAKE,,,,,,,,,,,,,,,,,,,,,
,,,,,,,midd27,midd,ma,Spain,Northeast,12 or younger,yes,2021-03-30_20h36.26.077,empathy_intonation_perc,2020.2.10,MacIntel,60,IwAR2meXeu2-O5-2TyiEsD3M2VduglKrX9Rb2UmezINmRgUUlWZ1Fcvk-G0yc,,,,,,,,,,1,,,,,,,,,,,,,,,,,,,,,,,,,,,,,,,,,,,,,,,,12,asesinato,,,1,1,1.51537,0,23,23,11,1,REAL,FAKE,,,,,,,,,,,,,,,,,,,,,
,,,,,,,midd27,midd,ma,Spain,Northeast,12 or younger,yes,2021-03-30_20h36.26.077,empathy_intonation_perc,2020.2.10,MacIntel,60,IwAR2meXeu2-O5-2TyiEsD3M2VduglKrX9Rb2UmezINmRgUUlWZ1Fcvk-G0yc,,,,,,,,,,1,,,,,,,,,,,,,,,,,,,,,,,,,,,,,,,,,,,,,,,,61,seda,,,1,1,0.80727,0,24,24,60,1,REAL,FAKE,,,,,,,,,,,,,,,,,,,,,
,,,,,,,midd27,midd,ma,Spain,Northeast,12 or younger,yes,2021-03-30_20h36.26.077,empathy_intonation_perc,2020.2.10,MacIntel,60,IwAR2meXeu2-O5-2TyiEsD3M2VduglKrX9Rb2UmezINmRgUUlWZ1Fcvk-G0yc,,,,,,,,,,0,,,,,,,,,,,,,,,,,,,,,,,,,,,,,,,,,,,,,,,,27,acutacin,,,1,0,1.56593,0,25,25,26,1,REAL,FAKE,,,,,,,,,,,,,,,,,,,,,
,,,,,,,midd27,midd,ma,Spain,Northeast,12 or younger,yes,2021-03-30_20h36.26.077,empathy_intonation_perc,2020.2.10,MacIntel,60,IwAR2meXeu2-O5-2TyiEsD3M2VduglKrX9Rb2UmezINmRgUUlWZ1Fcvk-G0yc,,,,,,,,,,1,,,,,,,,,,,,,,,,,,,,,,,,,,,,,,,,,,,,,,,,13,helar,,,1,1,4.66773,0,26,26,12,1,REAL,FAKE,,,,,,,,,,,,,,,,,,,,,
,,,,,,,midd27,midd,ma,Spain,Northeast,12 or younger,yes,2021-03-30_20h36.26.077,empathy_intonation_perc,2020.2.10,MacIntel,60,IwAR2meXeu2-O5-2TyiEsD3M2VduglKrX9Rb2UmezINmRgUUlWZ1Fcvk-G0yc,,,,,,,,,,1,,,,,,,,,,,,,,,,,,,,,,,,,,,,,,,,,,,,,,,,69,engatusar,,,0,0,3.80131,0,27,27,68,1,REAL,FAKE,,,,,,,,,,,,,,,,,,,,,
,,,,,,,midd27,midd,ma,Spain,Northeast,12 or younger,yes,2021-03-30_20h36.26.077,empathy_intonation_perc,2020.2.10,MacIntel,60,IwAR2meXeu2-O5-2TyiEsD3M2VduglKrX9Rb2UmezINmRgUUlWZ1Fcvk-G0yc,,,,,,,,,,1,,,,,,,,,,,,,,,,,,,,,,,,,,,,,,,,,,,,,,,,80,hormiga,,,1,1,0.91805,0,28,28,79,1,REAL,FAKE,,,,,,,,,,,,,,,,,,,,,
,,,,,,,midd27,midd,ma,Spain,Northeast,12 or younger,yes,2021-03-30_20h36.26.077,empathy_intonation_perc,2020.2.10,MacIntel,60,IwAR2meXeu2-O5-2TyiEsD3M2VduglKrX9Rb2UmezINmRgUUlWZ1Fcvk-G0yc,,,,,,,,,,0,,,,,,,,,,,,,,,,,,,,,,,,,,,,,,,,,,,,,,,,63,esposante,,,0,1,10.304405,0,29,29,62,1,REAL,FAKE,,,,,,,,,,,,,,,,,,,,,
,,,,,,,midd27,midd,ma,Spain,Northeast,12 or younger,yes,2021-03-30_20h36.26.077,empathy_intonation_perc,2020.2.10,MacIntel,60,IwAR2meXeu2-O5-2TyiEsD3M2VduglKrX9Rb2UmezINmRgUUlWZ1Fcvk-G0yc,,,,,,,,,,0,,,,,,,,,,,,,,,,,,,,,,,,,,,,,,,,,,,,,,,,23,lampera,,,0,1,1.469425,0,30,30,22,1,REAL,FAKE,,,,,,,,,,,,,,,,,,,,,
,,,,,,,midd27,midd,ma,Spain,Northeast,12 or younger,yes,2021-03-30_20h36.26.077,empathy_intonation_perc,2020.2.10,MacIntel,60,IwAR2meXeu2-O5-2TyiEsD3M2VduglKrX9Rb2UmezINmRgUUlWZ1Fcvk-G0yc,,,,,,,,,,1,,,,,,,,,,,,,,,,,,,,,,,,,,,,,,,,,,,,,,,,7,psimo,,,1,1,2.66899,0,31,31,6,1,REAL,FAKE,,,,,,,,,,,,,,,,,,,,,
,,,,,,,midd27,midd,ma,Spain,Northeast,12 or younger,yes,2021-03-30_20h36.26.077,empathy_intonation_perc,2020.2.10,MacIntel,60,IwAR2meXeu2-O5-2TyiEsD3M2VduglKrX9Rb2UmezINmRgUUlWZ1Fcvk-G0yc,,,,,,,,,,0,,,,,,,,,,,,,,,,,,,,,,,,,,,,,,,,,,,,,,,,84,escuto,,,0,1,5.75335,0,32,32,83,1,REAL,FAKE,,,,,,,,,,,,,,,,,,,,,
,,,,,,,midd27,midd,ma,Spain,Northeast,12 or younger,yes,2021-03-30_20h36.26.077,empathy_intonation_perc,2020.2.10,MacIntel,60,IwAR2meXeu2-O5-2TyiEsD3M2VduglKrX9Rb2UmezINmRgUUlWZ1Fcvk-G0yc,,,,,,,,,,0,,,,,,,,,,,,,,,,,,,,,,,,,,,,,,,,,,,,,,,,82,empirador,,,0,1,3.72387,0,33,33,81,1,REAL,FAKE,,,,,,,,,,,,,,,,,,,,,
,,,,,,,midd27,midd,ma,Spain,Northeast,12 or younger,yes,2021-03-30_20h36.26.077,empathy_intonation_perc,2020.2.10,MacIntel,60,IwAR2meXeu2-O5-2TyiEsD3M2VduglKrX9Rb2UmezINmRgUUlWZ1Fcvk-G0yc,,,,,,,,,,0,,,,,,,,,,,,,,,,,,,,,,,,,,,,,,,,,,,,,,,,29,decar,,,1,0,2.03595,0,34,34,28,1,REAL,FAKE,,,,,,,,,,,,,,,,,,,,,
,,,,,,,midd27,midd,ma,Spain,Northeast,12 or younger,yes,2021-03-30_20h36.26.077,empathy_intonation_perc,2020.2.10,MacIntel,60,IwAR2meXeu2-O5-2TyiEsD3M2VduglKrX9Rb2UmezINmRgUUlWZ1Fcvk-G0yc,,,,,,,,,,0,,,,,,,,,,,,,,,,,,,,,,,,,,,,,,,,,,,,,,,,32,fatacidad,,,0,1,2.17581,0,35,35,31,1,REAL,FAKE,,,,,,,,,,,,,,,,,,,,,
,,,,,,,midd27,midd,ma,Spain,Northeast,12 or younger,yes,2021-03-30_20h36.26.077,empathy_intonation_perc,2020.2.10,MacIntel,60,IwAR2meXeu2-O5-2TyiEsD3M2VduglKrX9Rb2UmezINmRgUUlWZ1Fcvk-G0yc,,,,,,,,,,1,,,,,,,,,,,,,,,,,,,,,,,,,,,,,,,,,,,,,,,,77,tiburn,,,1,1,0.977065,0,36,36,76,1,REAL,FAKE,,,,,,,,,,,,,,,,,,,,,
,,,,,,,midd27,midd,ma,Spain,Northeast,12 or younger,yes,2021-03-30_20h36.26.077,empathy_intonation_perc,2020.2.10,MacIntel,60,IwAR2meXeu2-O5-2TyiEsD3M2VduglKrX9Rb2UmezINmRgUUlWZ1Fcvk-G0yc,,,,,,,,,,1,,,,,,,,,,,,,,,,,,,,,,,,,,,,,,,,,,,,,,,,37,granuja,,,0,0,11.021565,0,37,37,36,1,REAL,FAKE,,,,,,,,,,,,,,,,,,,,,
,,,,,,,midd27,midd,ma,Spain,Northeast,12 or younger,yes,2021-03-30_20h36.26.077,empathy_intonation_perc,2020.2.10,MacIntel,60,IwAR2meXeu2-O5-2TyiEsD3M2VduglKrX9Rb2UmezINmRgUUlWZ1Fcvk-G0yc,,,,,,,,,,1,,,,,,,,,,,,,,,,,,,,,,,,,,,,,,,,,,,,,,,,39,torpe,,,1,1,1.122595,0,38,38,38,1,REAL,FAKE,,,,,,,,,,,,,,,,,,,,,
,,,,,,,midd27,midd,ma,Spain,Northeast,12 or younger,yes,2021-03-30_20h36.26.077,empathy_intonation_perc,2020.2.10,MacIntel,60,IwAR2meXeu2-O5-2TyiEsD3M2VduglKrX9Rb2UmezINmRgUUlWZ1Fcvk-G0yc,,,,,,,,,,1,,,,,,,,,,,,,,,,,,,,,,,,,,,,,,,,,,,,,,,,6,tergiversar,,,0,0,4.867655,0,39,39,5,1,REAL,FAKE,,,,,,,,,,,,,,,,,,,,,
,,,,,,,midd27,midd,ma,Spain,Northeast,12 or younger,yes,2021-03-30_20h36.26.077,empathy_intonation_perc,2020.2.10,MacIntel,60,IwAR2meXeu2-O5-2TyiEsD3M2VduglKrX9Rb2UmezINmRgUUlWZ1Fcvk-G0yc,,,,,,,,,,1,,,,,,,,,,,,,,,,,,,,,,,,,,,,,,,,,,,,,,,,57,tacao,,,1,1,1.251325,0,40,40,56,1,REAL,FAKE,,,,,,,,,,,,,,,,,,,,,
,,,,,,,midd27,midd,ma,Spain,Northeast,12 or younger,yes,2021-03-30_20h36.26.077,empathy_intonation_perc,2020.2.10,MacIntel,60,IwAR2meXeu2-O5-2TyiEsD3M2VduglKrX9Rb2UmezINmRgUUlWZ1Fcvk-G0yc,,,,,,,,,,1,,,,,,,,,,,,,,,,,,,,,,,,,,,,,,,,,,,,,,,,36,loro,,,1,1,0.79786,0,41,41,35,1,REAL,FAKE,,,,,,,,,,,,,,,,,,,,,
,,,,,,,midd27,midd,ma,Spain,Northeast,12 or younger,yes,2021-03-30_20h36.26.077,empathy_intonation_perc,2020.2.10,MacIntel,60,IwAR2meXeu2-O5-2TyiEsD3M2VduglKrX9Rb2UmezINmRgUUlWZ1Fcvk-G0yc,,,,,,,,,,1,,,,,,,,,,,,,,,,,,,,,,,,,,,,,,,,,,,,,,,,34,aviso,,,1,1,0.715915,0,42,42,33,1,REAL,FAKE,,,,,,,,,,,,,,,,,,,,,
,,,,,,,midd27,midd,ma,Spain,Northeast,12 or younger,yes,2021-03-30_20h36.26.077,empathy_intonation_perc,2020.2.10,MacIntel,60,IwAR2meXeu2-O5-2TyiEsD3M2VduglKrX9Rb2UmezINmRgUUlWZ1Fcvk-G0yc,,,,,,,,,,1,,,,,,,,,,,,,,,,,,,,,,,,,,,,,,,,,,,,,,,,5,zapato,,,1,1,0.632365,0,43,43,4,1,REAL,FAKE,,,,,,,,,,,,,,,,,,,,,
,,,,,,,midd27,midd,ma,Spain,Northeast,12 or younger,yes,2021-03-30_20h36.26.077,empathy_intonation_perc,2020.2.10,MacIntel,60,IwAR2meXeu2-O5-2TyiEsD3M2VduglKrX9Rb2UmezINmRgUUlWZ1Fcvk-G0yc,,,,,,,,,,1,,,,,,,,,,,,,,,,,,,,,,,,,,,,,,,,,,,,,,,,38,estornudar,,,1,1,1.31451,0,44,44,37,1,REAL,FAKE,,,,,,,,,,,,,,,,,,,,,
,,,,,,,midd27,midd,ma,Spain,Northeast,12 or younger,yes,2021-03-30_20h36.26.077,empathy_intonation_perc,2020.2.10,MacIntel,60,IwAR2meXeu2-O5-2TyiEsD3M2VduglKrX9Rb2UmezINmRgUUlWZ1Fcvk-G0yc,,,,,,,,,,0,,,,,,,,,,,,,,,,,,,,,,,,,,,,,,,,,,,,,,,,30,alardio,,,0,1,2.385975,0,45,45,29,1,REAL,FAKE,,,,,,,,,,,,,,,,,,,,,
,,,,,,,midd27,midd,ma,Spain,Northeast,12 or younger,yes,2021-03-30_20h36.26.077,empathy_intonation_perc,2020.2.10,MacIntel,60,IwAR2meXeu2-O5-2TyiEsD3M2VduglKrX9Rb2UmezINmRgUUlWZ1Fcvk-G0yc,,,,,,,,,,1,,,,,,,,,,,,,,,,,,,,,,,,,,,,,,,,,,,,,,,,26,secuestro,,,1,1,0.898855,0,46,46,25,1,REAL,FAKE,,,,,,,,,,,,,,,,,,,,,
,,,,,,,midd27,midd,ma,Spain,Northeast,12 or younger,yes,2021-03-30_20h36.26.077,empathy_intonation_perc,2020.2.10,MacIntel,60,IwAR2meXeu2-O5-2TyiEsD3M2VduglKrX9Rb2UmezINmRgUUlWZ1Fcvk-G0yc,,,,,,,,,,1,,,,,,,,,,,,,,,,,,,,,,,,,,,,,,,,,,,,,,,,31,pandilla,,,1,1,1.216785,0,47,47,30,1,REAL,FAKE,,,,,,,,,,,,,,,,,,,,,
,,,,,,,midd27,midd,ma,Spain,Northeast,12 or younger,yes,2021-03-30_20h36.26.077,empathy_intonation_perc,2020.2.10,MacIntel,60,IwAR2meXeu2-O5-2TyiEsD3M2VduglKrX9Rb2UmezINmRgUUlWZ1Fcvk-G0yc,,,,,,,,,,0,,,,,,,,,,,,,,,,,,,,,,,,,,,,,,,,,,,,,,,,16,abracer,,,0,1,1.86268,0,48,48,15,1,REAL,FAKE,,,,,,,,,,,,,,,,,,,,,
,,,,,,,midd27,midd,ma,Spain,Northeast,12 or younger,yes,2021-03-30_20h36.26.077,empathy_intonation_perc,2020.2.10,MacIntel,60,IwAR2meXeu2-O5-2TyiEsD3M2VduglKrX9Rb2UmezINmRgUUlWZ1Fcvk-G0yc,,,,,,,,,,1,,,,,,,,,,,,,,,,,,,,,,,,,,,,,,,,,,,,,,,,51,candado,,,1,1,3.10439,0,49,49,50,1,REAL,FAKE,,,,,,,,,,,,,,,,,,,,,
,,,,,,,midd27,midd,ma,Spain,Northeast,12 or younger,yes,2021-03-30_20h36.26.077,empathy_intonation_perc,2020.2.10,MacIntel,60,IwAR2meXeu2-O5-2TyiEsD3M2VduglKrX9Rb2UmezINmRgUUlWZ1Fcvk-G0yc,,,,,,,,,,1,,,,,,,,,,,,,,,,,,,,,,,,,,,,,,,,,,,,,,,,20,vido,,,1,1,2.62193,0,50,50,19,1,REAL,FAKE,,,,,,,,,,,,,,,,,,,,,
,,,,,,,midd27,midd,ma,Spain,Northeast,12 or younger,yes,2021-03-30_20h36.26.077,empathy_intonation_perc,2020.2.10,MacIntel,60,IwAR2meXeu2-O5-2TyiEsD3M2VduglKrX9Rb2UmezINmRgUUlWZ1Fcvk-G0yc,,,,,,,,,,1,,,,,,,,,,,,,,,,,,,,,,,,,,,,,,,,,,,,,,,,24,ltigo,,,1,1,0.827955,0,51,51,23,1,REAL,FAKE,,,,,,,,,,,,,,,,,,,,,
,,,,,,,midd27,midd,ma,Spain,Northeast,12 or younger,yes,2021-03-30_20h36.26.077,empathy_intonation_perc,2020.2.10,MacIntel,60,IwAR2meXeu2-O5-2TyiEsD3M2VduglKrX9Rb2UmezINmRgUUlWZ1Fcvk-G0yc,,,,,,,,,,1,,,,,,,,,,,,,,,,,,,,,,,,,,,,,,,,,,,,,,,,40,alfombra,,,1,1,0.86716,0,52,52,39,1,REAL,FAKE,,,,,,,,,,,,,,,,,,,,,
,,,,,,,midd27,midd,ma,Spain,Northeast,12 or younger,yes,2021-03-30_20h36.26.077,empathy_intonation_perc,2020.2.10,MacIntel,60,IwAR2meXeu2-O5-2TyiEsD3M2VduglKrX9Rb2UmezINmRgUUlWZ1Fcvk-G0yc,,,,,,,,,,1,,,,,,,,,,,,,,,,,,,,,,,,,,,,,,,,,,,,,,,,22,lacayo,,,0,0,0.95323,0,53,53,21,1,REAL,FAKE,,,,,,,,,,,,,,,,,,,,,
,,,,,,,midd27,midd,ma,Spain,Northeast,12 or younger,yes,2021-03-30_20h36.26.077,empathy_intonation_perc,2020.2.10,MacIntel,60,IwAR2meXeu2-O5-2TyiEsD3M2VduglKrX9Rb2UmezINmRgUUlWZ1Fcvk-G0yc,,,,,,,,,,1,,,,,,,,,,,,,,,,,,,,,,,,,,,,,,,,,,,,,,,,9,hacha,,,1,1,0.969205,0,54,54,8,1,REAL,FAKE,,,,,,,,,,,,,,,,,,,,,
,,,,,,,midd27,midd,ma,Spain,Northeast,12 or younger,yes,2021-03-30_20h36.26.077,empathy_intonation_perc,2020.2.10,MacIntel,60,IwAR2meXeu2-O5-2TyiEsD3M2VduglKrX9Rb2UmezINmRgUUlWZ1Fcvk-G0yc,,,,,,,,,,0,,,,,,,,,,,,,,,,,,,,,,,,,,,,,,,,,,,,,,,,66,hacido,,,0,1,1.681735,0,55,55,65,1,REAL,FAKE,,,,,,,,,,,,,,,,,,,,,
,,,,,,,midd27,midd,ma,Spain,Northeast,12 or younger,yes,2021-03-30_20h36.26.077,empathy_intonation_perc,2020.2.10,MacIntel,60,IwAR2meXeu2-O5-2TyiEsD3M2VduglKrX9Rb2UmezINmRgUUlWZ1Fcvk-G0yc,,,,,,,,,,1,,,,,,,,,,,,,,,,,,,,,,,,,,,,,,,,,,,,,,,,78,frondoso,,,1,1,3.53146,0,56,56,77,1,REAL,FAKE,,,,,,,,,,,,,,,,,,,,,
,,,,,,,midd27,midd,ma,Spain,Northeast,12 or younger,yes,2021-03-30_20h36.26.077,empathy_intonation_perc,2020.2.10,MacIntel,60,IwAR2meXeu2-O5-2TyiEsD3M2VduglKrX9Rb2UmezINmRgUUlWZ1Fcvk-G0yc,,,,,,,,,,1,,,,,,,,,,,,,,,,,,,,,,,,,,,,,,,,,,,,,,,,48,ladrn,,,1,1,0.78255,0,57,57,47,1,REAL,FAKE,,,,,,,,,,,,,,,,,,,,,
,,,,,,,midd27,midd,ma,Spain,Northeast,12 or younger,yes,2021-03-30_20h36.26.077,empathy_intonation_perc,2020.2.10,MacIntel,60,IwAR2meXeu2-O5-2TyiEsD3M2VduglKrX9Rb2UmezINmRgUUlWZ1Fcvk-G0yc,,,,,,,,,,1,,,,,,,,,,,,,,,,,,,,,,,,,,,,,,,,,,,,,,,,62,flaco,,,1,1,0.698985,0,58,58,61,1,REAL,FAKE,,,,,,,,,,,,,,,,,,,,,
,,,,,,,midd27,midd,ma,Spain,Northeast,12 or younger,yes,2021-03-30_20h36.26.077,empathy_intonation_perc,2020.2.10,MacIntel,60,IwAR2meXeu2-O5-2TyiEsD3M2VduglKrX9Rb2UmezINmRgUUlWZ1Fcvk-G0yc,,,,,,,,,,0,,,,,,,,,,,,,,,,,,,,,,,,,,,,,,,,,,,,,,,,17,floroso,,,0,1,2.12062,0,59,59,16,1,REAL,FAKE,,,,,,,,,,,,,,,,,,,,,
,,,,,,,midd27,midd,ma,Spain,Northeast,12 or younger,yes,2021-03-30_20h36.26.077,empathy_intonation_perc,2020.2.10,MacIntel,60,IwAR2meXeu2-O5-2TyiEsD3M2VduglKrX9Rb2UmezINmRgUUlWZ1Fcvk-G0yc,,,,,,,,,,1,,,,,,,,,,,,,,,,,,,,,,,,,,,,,,,,,,,,,,,,90,clavel,,,1,1,1.132665,0,60,60,89,1,REAL,FAKE,,,,,,,,,,,,,,,,,,,,,
,,,,,,,midd27,midd,ma,Spain,Northeast,12 or younger,yes,2021-03-30_20h36.26.077,empathy_intonation_perc,2020.2.10,MacIntel,60,IwAR2meXeu2-O5-2TyiEsD3M2VduglKrX9Rb2UmezINmRgUUlWZ1Fcvk-G0yc,,,,,,,,,,0,,,,,,,,,,,,,,,,,,,,,,,,,,,,,,,,,,,,,,,,19,brecedad,,,0,1,4.618565,0,61,61,18,1,REAL,FAKE,,,,,,,,,,,,,,,,,,,,,
,,,,,,,midd27,midd,ma,Spain,Northeast,12 or younger,yes,2021-03-30_20h36.26.077,empathy_intonation_perc,2020.2.10,MacIntel,60,IwAR2meXeu2-O5-2TyiEsD3M2VduglKrX9Rb2UmezINmRgUUlWZ1Fcvk-G0yc,,,,,,,,,,0,,,,,,,,,,,,,,,,,,,,,,,,,,,,,,,,,,,,,,,,50,flamida,,,0,1,3.102385,0,62,62,49,1,REAL,FAKE,,,,,,,,,,,,,,,,,,,,,
,,,,,,,midd27,midd,ma,Spain,Northeast,12 or younger,yes,2021-03-30_20h36.26.077,empathy_intonation_perc,2020.2.10,MacIntel,60,IwAR2meXeu2-O5-2TyiEsD3M2VduglKrX9Rb2UmezINmRgUUlWZ1Fcvk-G0yc,,,,,,,,,,0,,,,,,,,,,,,,,,,,,,,,,,,,,,,,,,,,,,,,,,,72,pemicin,,,1,0,3.00088,0,63,63,71,1,REAL,FAKE,,,,,,,,,,,,,,,,,,,,,
,,,,,,,midd27,midd,ma,Spain,Northeast,12 or younger,yes,2021-03-30_20h36.26.077,empathy_intonation_perc,2020.2.10,MacIntel,60,IwAR2meXeu2-O5-2TyiEsD3M2VduglKrX9Rb2UmezINmRgUUlWZ1Fcvk-G0yc,,,,,,,,,,0,,,,,,,,,,,,,,,,,,,,,,,,,,,,,,,,,,,,,,,,4,batilln,,,1,0,2.090565,0,64,64,3,1,REAL,FAKE,,,,,,,,,,,,,,,,,,,,,
,,,,,,,midd27,midd,ma,Spain,Northeast,12 or younger,yes,2021-03-30_20h36.26.077,empathy_intonation_perc,2020.2.10,MacIntel,60,IwAR2meXeu2-O5-2TyiEsD3M2VduglKrX9Rb2UmezINmRgUUlWZ1Fcvk-G0yc,,,,,,,,,,0,,,,,,,,,,,,,,,,,,,,,,,,,,,,,,,,,,,,,,,,10,antar,,,0,1,3.929325,0,65,65,9,1,REAL,FAKE,,,,,,,,,,,,,,,,,,,,,
,,,,,,,midd27,midd,ma,Spain,Northeast,12 or younger,yes,2021-03-30_20h36.26.077,empathy_intonation_perc,2020.2.10,MacIntel,60,IwAR2meXeu2-O5-2TyiEsD3M2VduglKrX9Rb2UmezINmRgUUlWZ1Fcvk-G0yc,,,,,,,,,,1,,,,,,,,,,,,,,,,,,,,,,,,,,,,,,,,,,,,,,,,83,guante,,,1,1,0.72306,0,66,66,82,1,REAL,FAKE,,,,,,,,,,,,,,,,,,,,,
,,,,,,,midd27,midd,ma,Spain,Northeast,12 or younger,yes,2021-03-30_20h36.26.077,empathy_intonation_perc,2020.2.10,MacIntel,60,IwAR2meXeu2-O5-2TyiEsD3M2VduglKrX9Rb2UmezINmRgUUlWZ1Fcvk-G0yc,,,,,,,,,,1,,,,,,,,,,,,,,,,,,,,,,,,,,,,,,,,,,,,,,,,11,cenefa,,,0,0,1.347695,0,67,67,10,1,REAL,FAKE,,,,,,,,,,,,,,,,,,,,,
,,,,,,,midd27,midd,ma,Spain,Northeast,12 or younger,yes,2021-03-30_20h36.26.077,empathy_intonation_perc,2020.2.10,MacIntel,60,IwAR2meXeu2-O5-2TyiEsD3M2VduglKrX9Rb2UmezINmRgUUlWZ1Fcvk-G0yc,,,,,,,,,,1,,,,,,,,,,,,,,,,,,,,,,,,,,,,,,,,,,,,,,,,81,pozo,,,1,1,0.61342,0,68,68,80,1,REAL,FAKE,,,,,,,,,,,,,,,,,,,,,
,,,,,,,midd27,midd,ma,Spain,Northeast,12 or younger,yes,2021-03-30_20h36.26.077,empathy_intonation_perc,2020.2.10,MacIntel,60,IwAR2meXeu2-O5-2TyiEsD3M2VduglKrX9Rb2UmezINmRgUUlWZ1Fcvk-G0yc,,,,,,,,,,0,,,,,,,,,,,,,,,,,,,,,,,,,,,,,,,,,,,,,,,,79,tropaje,,,1,0,1.702315,0,69,69,78,1,REAL,FAKE,,,,,,,,,,,,,,,,,,,,,
,,,,,,,midd27,midd,ma,Spain,Northeast,12 or younger,yes,2021-03-30_20h36.26.077,empathy_intonation_perc,2020.2.10,MacIntel,60,IwAR2meXeu2-O5-2TyiEsD3M2VduglKrX9Rb2UmezINmRgUUlWZ1Fcvk-G0yc,,,,,,,,,,1,,,,,,,,,,,,,,,,,,,,,,,,,,,,,,,,,,,,,,,,25,bisagra,,,1,1,4.373625,0,70,70,24,1,REAL,FAKE,,,,,,,,,,,,,,,,,,,,,
,,,,,,,midd27,midd,ma,Spain,Northeast,12 or younger,yes,2021-03-30_20h36.26.077,empathy_intonation_perc,2020.2.10,MacIntel,60,IwAR2meXeu2-O5-2TyiEsD3M2VduglKrX9Rb2UmezINmRgUUlWZ1Fcvk-G0yc,,,,,,,,,,0,,,,,,,,,,,,,,,,,,,,,,,,,,,,,,,,,,,,,,,,35,rompido,,,0,1,1.069785,0,71,71,34,1,REAL,FAKE,,,,,,,,,,,,,,,,,,,,,
,,,,,,,midd27,midd,ma,Spain,Northeast,12 or younger,yes,2021-03-30_20h36.26.077,empathy_intonation_perc,2020.2.10,MacIntel,60,IwAR2meXeu2-O5-2TyiEsD3M2VduglKrX9Rb2UmezINmRgUUlWZ1Fcvk-G0yc,,,,,,,,,,1,,,,,,,,,,,,,,,,,,,,,,,,,,,,,,,,,,,,,,,,67,cabello,,,1,1,0.932165,0,72,72,66,1,REAL,FAKE,,,,,,,,,,,,,,,,,,,,,
,,,,,,,midd27,midd,ma,Spain,Northeast,12 or younger,yes,2021-03-30_20h36.26.077,empathy_intonation_perc,2020.2.10,MacIntel,60,IwAR2meXeu2-O5-2TyiEsD3M2VduglKrX9Rb2UmezINmRgUUlWZ1Fcvk-G0yc,,,,,,,,,,0,,,,,,,,,,,,,,,,,,,,,,,,,,,,,,,,,,,,,,,,42,cadallo,,,1,0,1.667405,0,73,73,41,1,REAL,FAKE,,,,,,,,,,,,,,,,,,,,,
,,,,,,,midd27,midd,ma,Spain,Northeast,12 or younger,yes,2021-03-30_20h36.26.077,empathy_intonation_perc,2020.2.10,MacIntel,60,IwAR2meXeu2-O5-2TyiEsD3M2VduglKrX9Rb2UmezINmRgUUlWZ1Fcvk-G0yc,,,,,,,,,,1,,,,,,,,,,,,,,,,,,,,,,,,,,,,,,,,,,,,,,,,68,alegre,,,1,1,0.783015,0,74,74,67,1,REAL,FAKE,,,,,,,,,,,,,,,,,,,,,
,,,,,,,midd27,midd,ma,Spain,Northeast,12 or younger,yes,2021-03-30_20h36.26.077,empathy_intonation_perc,2020.2.10,MacIntel,60,IwAR2meXeu2-O5-2TyiEsD3M2VduglKrX9Rb2UmezINmRgUUlWZ1Fcvk-G0yc,,,,,,,,,,1,,,,,,,,,,,,,,,,,,,,,,,,,,,,,,,,,,,,,,,,41,rebuscar,,,1,1,1.63323,0,75,75,40,1,REAL,FAKE,,,,,,,,,,,,,,,,,,,,,
,,,,,,,midd27,midd,ma,Spain,Northeast,12 or younger,yes,2021-03-30_20h36.26.077,empathy_intonation_perc,2020.2.10,MacIntel,60,IwAR2meXeu2-O5-2TyiEsD3M2VduglKrX9Rb2UmezINmRgUUlWZ1Fcvk-G0yc,,,,,,,,,,1,,,,,,,,,,,,,,,,,,,,,,,,,,,,,,,,,,,,,,,,65,bizcocho,,,1,1,0.851725,0,76,76,64,1,REAL,FAKE,,,,,,,,,,,,,,,,,,,,,
,,,,,,,midd27,midd,ma,Spain,Northeast,12 or younger,yes,2021-03-30_20h36.26.077,empathy_intonation_perc,2020.2.10,MacIntel,60,IwAR2meXeu2-O5-2TyiEsD3M2VduglKrX9Rb2UmezINmRgUUlWZ1Fcvk-G0yc,,,,,,,,,,1,,,,,,,,,,,,,,,,,,,,,,,,,,,,,,,,,,,,,,,,43,canela,,,1,1,1.04157,0,77,77,42,1,REAL,FAKE,,,,,,,,,,,,,,,,,,,,,
,,,,,,,midd27,midd,ma,Spain,Northeast,12 or younger,yes,2021-03-30_20h36.26.077,empathy_intonation_perc,2020.2.10,MacIntel,60,IwAR2meXeu2-O5-2TyiEsD3M2VduglKrX9Rb2UmezINmRgUUlWZ1Fcvk-G0yc,,,,,,,,,,1,,,,,,,,,,,,,,,,,,,,,,,,,,,,,,,,,,,,,,,,56,musgo,,,0,0,3.626565,0,78,78,55,1,REAL,FAKE,,,,,,,,,,,,,,,,,,,,,
,,,,,,,midd27,midd,ma,Spain,Northeast,12 or younger,yes,2021-03-30_20h36.26.077,empathy_intonation_perc,2020.2.10,MacIntel,60,IwAR2meXeu2-O5-2TyiEsD3M2VduglKrX9Rb2UmezINmRgUUlWZ1Fcvk-G0yc,,,,,,,,,,1,,,,,,,,,,,,,,,,,,,,,,,,,,,,,,,,,,,,,,,,3,pulmones,,,1,1,0.89495,0,79,79,2,1,REAL,FAKE,,,,,,,,,,,,,,,,,,,,,
,,,,,,,midd27,midd,ma,Spain,Northeast,12 or younger,yes,2021-03-30_20h36.26.077,empathy_intonation_perc,2020.2.10,MacIntel,60,IwAR2meXeu2-O5-2TyiEsD3M2VduglKrX9Rb2UmezINmRgUUlWZ1Fcvk-G0yc,,,,,,,,,,1,,,,,,,,,,,,,,,,,,,,,,,,,,,,,,,,,,,,,,,,54,fomentar,,,0,0,10.900475,0,80,80,53,1,REAL,FAKE,,,,,,,,,,,,,,,,,,,,,
,,,,,,,midd27,midd,ma,Spain,Northeast,12 or younger,yes,2021-03-30_20h36.26.077,empathy_intonation_perc,2020.2.10,MacIntel,60,IwAR2meXeu2-O5-2TyiEsD3M2VduglKrX9Rb2UmezINmRgUUlWZ1Fcvk-G0yc,,,,,,,,,,1,,,,,,,,,,,,,,,,,,,,,,,,,,,,,,,,,,,,,,,,15,regar,,,1,1,0.798735,0,81,81,14,1,REAL,FAKE,,,,,,,,,,,,,,,,,,,,,
,,,,,,,midd27,midd,ma,Spain,Northeast,12 or younger,yes,2021-03-30_20h36.26.077,empathy_intonation_perc,2020.2.10,MacIntel,60,IwAR2meXeu2-O5-2TyiEsD3M2VduglKrX9Rb2UmezINmRgUUlWZ1Fcvk-G0yc,,,,,,,,,,0,,,,,,,,,,,,,,,,,,,,,,,,,,,,,,,,,,,,,,,,47,cartinar,,,1,0,1.739385,0,82,82,46,1,REAL,FAKE,,,,,,,,,,,,,,,,,,,,,
,,,,,,,midd27,midd,ma,Spain,Northeast,12 or younger,yes,2021-03-30_20h36.26.077,empathy_intonation_perc,2020.2.10,MacIntel,60,IwAR2meXeu2-O5-2TyiEsD3M2VduglKrX9Rb2UmezINmRgUUlWZ1Fcvk-G0yc,,,,,,,,,,1,,,,,,,,,,,,,,,,,,,,,,,,,,,,,,,,,,,,,,,,64,orgulloso,,,1,1,0.897475,0,83,83,63,1,REAL,FAKE,,,,,,,,,,,,,,,,,,,,,
,,,,,,,midd27,midd,ma,Spain,Northeast,12 or younger,yes,2021-03-30_20h36.26.077,empathy_intonation_perc,2020.2.10,MacIntel,60,IwAR2meXeu2-O5-2TyiEsD3M2VduglKrX9Rb2UmezINmRgUUlWZ1Fcvk-G0yc,,,,,,,,,,1,,,,,,,,,,,,,,,,,,,,,,,,,,,,,,,,,,,,,,,,88,acantilado,,,0,0,5.75639,0,84,84,87,1,REAL,FAKE,,,,,,,,,,,,,,,,,,,,,
,,,,,,,midd27,midd,ma,Spain,Northeast,12 or younger,yes,2021-03-30_20h36.26.077,empathy_intonation_perc,2020.2.10,MacIntel,60,IwAR2meXeu2-O5-2TyiEsD3M2VduglKrX9Rb2UmezINmRgUUlWZ1Fcvk-G0yc,,,,,,,,,,1,,,,,,,,,,,,,,,,,,,,,,,,,,,,,,,,,,,,,,,,75,yacer,,,1,1,1.74602,0,85,85,74,1,REAL,FAKE,,,,,,,,,,,,,,,,,,,,,
,,,,,,,midd27,midd,ma,Spain,Northeast,12 or younger,yes,2021-03-30_20h36.26.077,empathy_intonation_perc,2020.2.10,MacIntel,60,IwAR2meXeu2-O5-2TyiEsD3M2VduglKrX9Rb2UmezINmRgUUlWZ1Fcvk-G0yc,,,,,,,,,,0,,,,,,,,,,,,,,,,,,,,,,,,,,,,,,,,,,,,,,,,18,arsa,,,0,1,1.955925,0,86,86,17,1,REAL,FAKE,,,,,,,,,,,,,,,,,,,,,
,,,,,,,midd27,midd,ma,Spain,Northeast,12 or younger,yes,2021-03-30_20h36.26.077,empathy_intonation_perc,2020.2.10,MacIntel,60,IwAR2meXeu2-O5-2TyiEsD3M2VduglKrX9Rb2UmezINmRgUUlWZ1Fcvk-G0yc,,,,,,,,,,1,,,,,,,,,,,,,,,,,,,,,,,,,,,,,,,,,,,,,,,,49,ganar,,,1,1,0.678855,0,87,87,48,1,REAL,FAKE,,,,,,,,,,,,,,,,,,,,,
,,,,,,,midd27,midd,ma,Spain,Northeast,12 or younger,yes,2021-03-30_20h36.26.077,empathy_intonation_perc,2020.2.10,MacIntel,60,IwAR2meXeu2-O5-2TyiEsD3M2VduglKrX9Rb2UmezINmRgUUlWZ1Fcvk-G0yc,,,,,,,,,,1,,,,,,,,,,,,,,,,,,,,,,,,,,,,,,,,,,,,,,,,59,besar,,,1,1,0.68199,0,88,88,58,1,REAL,FAKE,,,,,,,,,,,,,,,,,,,,,
,,,,,,,midd27,midd,ma,Spain,Northeast,12 or younger,yes,2021-03-30_20h36.26.077,empathy_intonation_perc,2020.2.10,MacIntel,60,IwAR2meXeu2-O5-2TyiEsD3M2VduglKrX9Rb2UmezINmRgUUlWZ1Fcvk-G0yc,,,,,,,,,,1,,,,,,,,,,,,,,,,,,,,,,,,,,,,,,,,,,,,,,,,86,barato,,,1,1,0.74799,0,89,89,85,1,REAL,FAKE,,,,,,,,,,,,,,,,,,,,,
,,,,,,,midd27,midd,ma,Spain,Northeast,12 or younger,yes,2021-03-30_20h36.26.077,empathy_intonation_perc,2020.2.10,MacIntel,60,IwAR2meXeu2-O5-2TyiEsD3M2VduglKrX9Rb2UmezINmRgUUlWZ1Fcvk-G0yc,,,,,,,,,,,,,,,,,,,,,,,,,,,,,,,,,,,,,,,,,,,,,,,,,,,,,,,,,,,,,,,,4,1,3.477825,1,0,0,0,0,0,1,,,,,,,,,,,
,,,,,,,midd27,midd,ma,Spain,Northeast,12 or younger,yes,2021-03-30_20h36.26.077,empathy_intonation_perc,2020.2.10,MacIntel,60,IwAR2meXeu2-O5-2TyiEsD3M2VduglKrX9Rb2UmezINmRgUUlWZ1Fcvk-G0yc,,,,,,,,,,,,,,,,,,,,1,,,,,,,,,,,,,,,,,,,,,,,,,,,,,,,,,,,,,,,,,,,,,,,,,,,,,,2,0,0,0,0,1,I can easily tell if someone else wants to enter a conversation.,1,0,1,0
,,,,,,,midd27,midd,ma,Spain,Northeast,12 or younger,yes,2021-03-30_20h36.26.077,empathy_intonation_perc,2020.2.10,MacIntel,60,IwAR2meXeu2-O5-2TyiEsD3M2VduglKrX9Rb2UmezINmRgUUlWZ1Fcvk-G0yc,,,,,,,,,,,,,,,,,,,,2,,,,,,,,,,,,,,,,,,,,,,,,,,,,,,,,,,,,,,,,,,,,,,,,,,,,,,4,0,1,1,1,1,I prefer animals to humans.,0,1,0,0
,,,,,,,midd27,midd,ma,Spain,Northeast,12 or younger,yes,2021-03-30_20h36.26.077,empathy_intonation_perc,2020.2.10,MacIntel,60,IwAR2meXeu2-O5-2TyiEsD3M2VduglKrX9Rb2UmezINmRgUUlWZ1Fcvk-G0yc,,,,,,,,,,,,,,,,,,,,3,,,,,,,,,,,,,,,,,,,,,,,,,,,,,,,,,,,,,,,,,,,,,,,,,,,,,,5,0,2,2,2,1,I try to keep up with the current trends and fashions.,0,1,0,0
,,,,,,,midd27,midd,ma,Spain,Northeast,12 or younger,yes,2021-03-30_20h36.26.077,empathy_intonation_perc,2020.2.10,MacIntel,60,IwAR2meXeu2-O5-2TyiEsD3M2VduglKrX9Rb2UmezINmRgUUlWZ1Fcvk-G0yc,,,,,,,,,,,,,,,,,,,,4,,,,,,,,,,,,,,,,,,,,,,,,,,,,,,,,,,,,,,,,,,,,,,,,,,,,,,1,0,3,3,3,1,"I find it difficult to explain to others things that I understand easily, 
  when they dont understand it first time.",1,0,0,1
