instructions_2afc_loop.thisRepN,instructions_2afc_loop.thisTrialN,instructions_2afc_loop.thisN,instructions_2afc_loop.thisIndex,instructions_2afc_loop.ran,instructions_text,continue_text,participant,study_id,session,I am most familiar with Spanish from...*,What part of the US are you from?*,At what age did you begin learning Spanish?*,Are you proficient in any languages other than English/Spanish?*,date,expName,psychopyVersion,OS,frameRate,fbclid,key_resp_2afc_practice.keys,key_resp_2afc_practice.corr,key_resp_2afc_practice.rt,trials_2afc_practice_loop.thisRepN,trials_2afc_practice_loop.thisTrialN,trials_2afc_practice_loop.thisN,trials_2afc_practice_loop.thisIndex,trials_2afc_practice_loop.ran,path,correct_response,the_col,key_resp_2afc_trial.keys,key_resp_2afc_trial.corr,key_resp_2afc_trial.rt,trials_2afc_loop.thisRepN,trials_2afc_loop.thisTrialN,trials_2afc_loop.thisN,trials_2afc_loop.thisIndex,trials_2afc_loop.ran,item_num,andalusian,argentine,castilian,chilean,cuban,mexican,peruvian,puertorican,key_resp_ac1.keys,key_resp_ac1.corr,key_resp_ac1.rt,ac1_loop.thisRepN,ac1_loop.thisTrialN,ac1_loop.thisN,ac1_loop.thisIndex,ac1_loop.ran,instructions_lextale_loop.thisRepN,instructions_lextale_loop.thisTrialN,instructions_lextale_loop.thisN,instructions_lextale_loop.thisIndex,instructions_lextale_loop.ran,key_resp_lextale_practice.keys,key_resp_lextale_practice.corr,key_resp_lextale_practice.rt,trials_lextale_practice_loop.thisRepN,trials_lextale_practice_loop.thisTrialN,trials_lextale_practice_loop.thisN,trials_lextale_practice_loop.thisIndex,trials_lextale_practice_loop.ran,stim,word,prac_button_real,prac_button_false,key_resp_lextale_trial.keys,key_resp_lextale_trial.corr,key_resp_lextale_trial.rt,trials_lextale_loop.thisRepN,trials_lextale_loop.thisTrialN,trials_lextale_loop.thisN,trials_lextale_loop.thisIndex,trials_lextale_loop.ran,button_real,button_false,key_resp_ac2.keys,key_resp_ac2.corr,key_resp_ac2.rt,check_pass,check_fails,ac2_loop.thisRepN,ac2_loop.thisTrialN,ac2_loop.thisN,ac2_loop.thisIndex,ac2_loop.ran,slider_eq_trial.response,trials_eq_loop.thisRepN,trials_eq_loop.thisTrialN,trials_eq_loop.thisN,trials_eq_loop.thisIndex,trials_eq_loop.ran,item,is_test_item,is_distractor,is_agree_score,is_disagree_score
0,0,0,0,1,"In the following task you are going to hear a series of utterances. 

  You will decide if the utterances sound like questions or not using your keyboard.",(press the spacebar to continue),midd24,midd,ma,United States,South,13 or older,no,2021-04-02_15h26.11.616,empathy_intonation_perc,2020.2.10,Win32,60,IwAR2BWFmHh49KtaQoCqABniVdCo--boZz-8FSiLmMc1VQvexTV6IuR9Zr7no,,,,,,,,,,,,,,,,,,,,,,,,,,,,,,,,,,,,,,,,,,,,,,,,,,,,,,,,,,,,,,,,,,,,,,,,,,,,,,,,,,,,
0,1,1,1,1,"If you believe the utterance is a question, type '1' (for 'yes') and if you do not 
  believe it is a question type '0' (for 'no').

  Let's practice a bit...",(press the spacebar to continue),midd24,midd,ma,United States,South,13 or older,no,2021-04-02_15h26.11.616,empathy_intonation_perc,2020.2.10,Win32,60,IwAR2BWFmHh49KtaQoCqABniVdCo--boZz-8FSiLmMc1VQvexTV6IuR9Zr7no,,,,,,,,,,,,,,,,,,,,,,,,,,,,,,,,,,,,,,,,,,,,,,,,,,,,,,,,,,,,,,,,,,,,,,,,,,,,,,,,,,,,
,,,,,,,midd24,midd,ma,United States,South,13 or older,no,2021-04-02_15h26.11.616,empathy_intonation_perc,2020.2.10,Win32,60,IwAR2BWFmHh49KtaQoCqABniVdCo--boZz-8FSiLmMc1VQvexTV6IuR9Zr7no,1,1,12.54193,0,0,0,1,1,./stim/wavs/argentine_question_filler_Mi-vecino-habla-mucho.wav,1,,,,,,,,,,,,,,,,,,,,,,,,,,,,,,,,,,,,,,,,,,,,,,,,,,,,,,,,,,,,,,,,,,,,,,,,,,
,,,,,,,midd24,midd,ma,United States,South,13 or older,no,2021-04-02_15h26.11.616,empathy_intonation_perc,2020.2.10,Win32,60,IwAR2BWFmHh49KtaQoCqABniVdCo--boZz-8FSiLmMc1VQvexTV6IuR9Zr7no,0,0,23.0414,0,1,1,2,1,./stim/wavs/chilean_question_filler_Mi-padre-cantaba-bien.wav,1,,,,,,,,,,,,,,,,,,,,,,,,,,,,,,,,,,,,,,,,,,,,,,,,,,,,,,,,,,,,,,,,,,,,,,,,,,
,,,,,,,midd24,midd,ma,United States,South,13 or older,no,2021-04-02_15h26.11.616,empathy_intonation_perc,2020.2.10,Win32,60,IwAR2BWFmHh49KtaQoCqABniVdCo--boZz-8FSiLmMc1VQvexTV6IuR9Zr7no,1,1,4.55486,0,2,2,3,1,./stim/wavs/mexican_question_filler_Felipe-no-tiene-contrasena.wav,1,,,,,,,,,,,,,,,,,,,,,,,,,,,,,,,,,,,,,,,,,,,,,,,,,,,,,,,,,,,,,,,,,,,,,,,,,,
,,,,,,,midd24,midd,ma,United States,South,13 or older,no,2021-04-02_15h26.11.616,empathy_intonation_perc,2020.2.10,Win32,60,IwAR2BWFmHh49KtaQoCqABniVdCo--boZz-8FSiLmMc1VQvexTV6IuR9Zr7no,0,1,6.8947,0,3,3,4,1,./stim/wavs/cuban_statement_filler_Cocinabas-por-la-noche.wav,0,,,,,,,,,,,,,,,,,,,,,,,,,,,,,,,,,,,,,,,,,,,,,,,,,,,,,,,,,,,,,,,,,,,,,,,,,,
,,,,,,,midd24,midd,ma,United States,South,13 or older,no,2021-04-02_15h26.11.616,empathy_intonation_perc,2020.2.10,Win32,60,IwAR2BWFmHh49KtaQoCqABniVdCo--boZz-8FSiLmMc1VQvexTV6IuR9Zr7no,0,1,4.823165,0,4,4,6,1,./stim/wavs/peruvian_statement_filler_El-nino-habla-con-su-madre.wav,0,,,,,,,,,,,,,,,,,,,,,,,,,,,,,,,,,,,,,,,,,,,,,,,,,,,,,,,,,,,,,,,,,,,,,,,,,,
,,,,,,,midd24,midd,ma,United States,South,13 or older,no,2021-04-02_15h26.11.616,empathy_intonation_perc,2020.2.10,Win32,60,IwAR2BWFmHh49KtaQoCqABniVdCo--boZz-8FSiLmMc1VQvexTV6IuR9Zr7no,0,1,7.386875,0,5,5,5,1,./stim/wavs/andalusian_statement_filler_Alberto-nunca-se-afeita.wav,0,,,,,,,,,,,,,,,,,,,,,,,,,,,,,,,,,,,,,,,,,,,,,,,,,,,,,,,,,,,,,,,,,,,,,,,,,,
,,,,,,,midd24,midd,ma,United States,South,13 or older,no,2021-04-02_15h26.11.616,empathy_intonation_perc,2020.2.10,Win32,60,IwAR2BWFmHh49KtaQoCqABniVdCo--boZz-8FSiLmMc1VQvexTV6IuR9Zr7no,1,1,4.746835,0,6,6,0,1,./stim/wavs/castilian_question_filler_Mi-esposo-conoce-al-chico.wav,1,,,,,,,,,,,,,,,,,,,,,,,,,,,,,,,,,,,,,,,,,,,,,,,,,,,,,,,,,,,,,,,,,,,,,,,,,,
,,,,,,,midd24,midd,ma,United States,South,13 or older,no,2021-04-02_15h26.11.616,empathy_intonation_perc,2020.2.10,Win32,60,IwAR2BWFmHh49KtaQoCqABniVdCo--boZz-8FSiLmMc1VQvexTV6IuR9Zr7no,0,1,55.833275,0,7,7,7,1,./stim/wavs/puertorican_statement_filler_La-nina-pinta-con-su-amiga.wav,0,,,,,,,,,,,,,,,,,,,,,,,,,,,,,,,,,,,,,,,,,,,,,,,,,,,,,,,,,,,,,,,,,,,,,,,,,,
,,,,,,,midd24,midd,ma,United States,South,13 or older,no,2021-04-02_15h26.11.616,empathy_intonation_perc,2020.2.10,Win32,60,IwAR2BWFmHh49KtaQoCqABniVdCo--boZz-8FSiLmMc1VQvexTV6IuR9Zr7no,,,,,,,,,,1,chilean,1,1,6.37772,0,0,0,52,1,53,./stim/wavs/andalusian_mismatch_interrogative-partial-wh_Por-que-odiaba-la-lluvia.wav,./stim/wavs/argentine_mismatch_interrogative-partial-wh_Por-que-odiaba-la-lluvia.wav,./stim/wavs/castilian_mismatch_interrogative-partial-wh_Por-que-odiaba-la-lluvia.wav,./stim/wavs/chilean_mismatch_interrogative-partial-wh_Por-que-odiaba-la-lluvia.wav,./stim/wavs/cuban_mismatch_interrogative-partial-wh_Por-que-odiaba-la-lluvia.wav,./stim/wavs/mexican_mismatch_interrogative-partial-wh_Por-que-odiaba-la-lluvia.wav,./stim/wavs/peruvian_mismatch_interrogative-partial-wh_Por-que-odiaba-la-lluvia.wav,./stim/wavs/puertorican_mismatch_interrogative-partial-wh_Por-que-odiaba-la-lluvia.wav,,,,,,,,,,,,,,,,,,,,,,,,,,,,,,,,,,,,,,,,,,,,,,,,,,,,,,,,
,,,,,,,midd24,midd,ma,United States,South,13 or older,no,2021-04-02_15h26.11.616,empathy_intonation_perc,2020.2.10,Win32,60,IwAR2BWFmHh49KtaQoCqABniVdCo--boZz-8FSiLmMc1VQvexTV6IuR9Zr7no,,,,,,,,,,0,chilean,0,1,3.945515,0,1,1,46,1,47,./stim/wavs/andalusian_mismatch_declarative-narrow-focus_Mi-novio-viene-del-lago.wav,./stim/wavs/argentine_mismatch_declarative-narrow-focus_Mi-novio-viene-del-lago.wav,./stim/wavs/castilian_mismatch_declarative-narrow-focus_Mi-novio-viene-del-lago.wav,./stim/wavs/chilean_mismatch_declarative-narrow-focus_Mi-novio-viene-del-lago.wav,./stim/wavs/cuban_mismatch_declarative-narrow-focus_Mi-novio-viene-del-lago.wav,./stim/wavs/mexican_mismatch_declarative-narrow-focus_Mi-novio-viene-del-lago.wav,./stim/wavs/peruvian_mismatch_declarative-narrow-focus_Mi-novio-viene-del-lago.wav,./stim/wavs/puertorican_mismatch_declarative-narrow-focus_Mi-novio-viene-del-lago.wav,,,,,,,,,,,,,,,,,,,,,,,,,,,,,,,,,,,,,,,,,,,,,,,,,,,,,,,,
,,,,,,,midd24,midd,ma,United States,South,13 or older,no,2021-04-02_15h26.11.616,empathy_intonation_perc,2020.2.10,Win32,60,IwAR2BWFmHh49KtaQoCqABniVdCo--boZz-8FSiLmMc1VQvexTV6IuR9Zr7no,,,,,,,,,,0,puertorican,0,1,3.623215,0,2,2,34,1,35,./stim/wavs/andalusian_mismatch_declarative-broad-focus_El-nino-oye-el-rio.wav,./stim/wavs/argentine_mismatch_declarative-broad-focus_El-nino-oye-el-rio.wav,./stim/wavs/castilian_mismatch_declarative-broad-focus_El-nino-oye-el-rio.wav,./stim/wavs/chilean_mismatch_declarative-broad-focus_El-nino-oye-el-rio.wav,./stim/wavs/cuban_mismatch_declarative-broad-focus_El-nino-oye-el-rio.wav,./stim/wavs/mexican_mismatch_declarative-broad-focus_El-nino-oye-el-rio.wav,./stim/wavs/peruvian_mismatch_declarative-broad-focus_El-nino-oye-el-rio.wav,./stim/wavs/puertorican_mismatch_declarative-broad-focus_El-nino-oye-el-rio.wav,,,,,,,,,,,,,,,,,,,,,,,,,,,,,,,,,,,,,,,,,,,,,,,,,,,,,,,,
,,,,,,,midd24,midd,ma,United States,South,13 or older,no,2021-04-02_15h26.11.616,empathy_intonation_perc,2020.2.10,Win32,60,IwAR2BWFmHh49KtaQoCqABniVdCo--boZz-8FSiLmMc1VQvexTV6IuR9Zr7no,,,,,,,,,,1,mexican,1,1,2.961435,0,3,3,54,1,55,./stim/wavs/andalusian_mismatch_interrogative-partial-wh_Por-que-venia-del-lago.wav,./stim/wavs/argentine_mismatch_interrogative-partial-wh_Por-que-venia-del-lago.wav,./stim/wavs/castilian_mismatch_interrogative-partial-wh_Por-que-venia-del-lago.wav,./stim/wavs/chilean_mismatch_interrogative-partial-wh_Por-que-venia-del-lago.wav,./stim/wavs/cuban_mismatch_interrogative-partial-wh_Por-que-venia-del-lago.wav,./stim/wavs/mexican_mismatch_interrogative-partial-wh_Por-que-venia-del-lago.wav,./stim/wavs/peruvian_mismatch_interrogative-partial-wh_Por-que-venia-del-lago.wav,./stim/wavs/puertorican_mismatch_interrogative-partial-wh_Por-que-venia-del-lago.wav,,,,,,,,,,,,,,,,,,,,,,,,,,,,,,,,,,,,,,,,,,,,,,,,,,,,,,,,
,,,,,,,midd24,midd,ma,United States,South,13 or older,no,2021-04-02_15h26.11.616,empathy_intonation_perc,2020.2.10,Win32,60,IwAR2BWFmHh49KtaQoCqABniVdCo--boZz-8FSiLmMc1VQvexTV6IuR9Zr7no,,,,,,,,,,0,chilean,0,1,10.72723,0,4,4,47,1,48,./stim/wavs/andalusian_mismatch_declarative-narrow-focus_Mi-tia-odia-la-lluvia.wav,./stim/wavs/argentine_mismatch_declarative-narrow-focus_Mi-tia-odia-la-lluvia.wav,./stim/wavs/castilian_mismatch_declarative-narrow-focus_Mi-tia-odia-la-lluvia.wav,./stim/wavs/chilean_mismatch_declarative-narrow-focus_Mi-tia-odia-la-lluvia.wav,./stim/wavs/cuban_mismatch_declarative-narrow-focus_Mi-tia-odia-la-lluvia.wav,./stim/wavs/mexican_mismatch_declarative-narrow-focus_Mi-tia-odia-la-lluvia.wav,./stim/wavs/peruvian_mismatch_declarative-narrow-focus_Mi-tia-odia-la-lluvia.wav,./stim/wavs/puertorican_mismatch_declarative-narrow-focus_Mi-tia-odia-la-lluvia.wav,,,,,,,,,,,,,,,,,,,,,,,,,,,,,,,,,,,,,,,,,,,,,,,,,,,,,,,,
,,,,,,,midd24,midd,ma,United States,South,13 or older,no,2021-04-02_15h26.11.616,empathy_intonation_perc,2020.2.10,Win32,60,IwAR2BWFmHh49KtaQoCqABniVdCo--boZz-8FSiLmMc1VQvexTV6IuR9Zr7no,,,,,,,,,,0,chilean,0,1,4.17104,0,5,5,32,1,33,./stim/wavs/andalusian_mismatch_declarative-broad-focus_El-bebe-comia-muy-bien.wav,./stim/wavs/argentine_mismatch_declarative-broad-focus_El-bebe-comia-muy-bien.wav,./stim/wavs/castilian_mismatch_declarative-broad-focus_El-bebe-comia-muy-bien.wav,./stim/wavs/chilean_mismatch_declarative-broad-focus_El-bebe-comia-muy-bien.wav,./stim/wavs/cuban_mismatch_declarative-broad-focus_El-bebe-comia-muy-bien.wav,./stim/wavs/mexican_mismatch_declarative-broad-focus_El-bebe-comia-muy-bien.wav,./stim/wavs/peruvian_mismatch_declarative-broad-focus_El-bebe-comia-muy-bien.wav,./stim/wavs/puertorican_mismatch_declarative-broad-focus_El-bebe-comia-muy-bien.wav,,,,,,,,,,,,,,,,,,,,,,,,,,,,,,,,,,,,,,,,,,,,,,,,,,,,,,,,
,,,,,,,midd24,midd,ma,United States,South,13 or older,no,2021-04-02_15h26.11.616,empathy_intonation_perc,2020.2.10,Win32,60,IwAR2BWFmHh49KtaQoCqABniVdCo--boZz-8FSiLmMc1VQvexTV6IuR9Zr7no,,,,,,,,,,1,cuban,1,1,6.05691,0,6,6,63,1,64,./stim/wavs/andalusian_mismatch_interrogative-total-yn_Mi-tia-odia-la-lluvia.wav,./stim/wavs/argentine_mismatch_interrogative-total-yn_Mi-tia-odia-la-lluvia.wav,./stim/wavs/castilian_mismatch_interrogative-total-yn_Mi-tia-odia-la-lluvia.wav,./stim/wavs/chilean_mismatch_interrogative-total-yn_Mi-tia-odia-la-lluvia.wav,./stim/wavs/cuban_mismatch_interrogative-total-yn_Mi-tia-odia-la-lluvia.wav,./stim/wavs/mexican_mismatch_interrogative-total-yn_Mi-tia-odia-la-lluvia.wav,./stim/wavs/peruvian_mismatch_interrogative-total-yn_Mi-tia-odia-la-lluvia.wav,./stim/wavs/puertorican_mismatch_interrogative-total-yn_Mi-tia-odia-la-lluvia.wav,,,,,,,,,,,,,,,,,,,,,,,,,,,,,,,,,,,,,,,,,,,,,,,,,,,,,,,,
,,,,,,,midd24,midd,ma,United States,South,13 or older,no,2021-04-02_15h26.11.616,empathy_intonation_perc,2020.2.10,Win32,60,IwAR2BWFmHh49KtaQoCqABniVdCo--boZz-8FSiLmMc1VQvexTV6IuR9Zr7no,,,,,,,,,,0,castilian,0,1,10.49799,0,7,7,40,1,41,./stim/wavs/andalusian_mismatch_declarative-narrow-focus_El-bebe-comia-muy-bien.wav,./stim/wavs/argentine_mismatch_declarative-narrow-focus_El-bebe-comia-muy-bien.wav,./stim/wavs/castilian_mismatch_declarative-narrow-focus_El-bebe-comia-muy-bien.wav,./stim/wavs/chilean_mismatch_declarative-narrow-focus_El-bebe-comia-muy-bien.wav,./stim/wavs/cuban_mismatch_declarative-narrow-focus_El-bebe-comia-muy-bien.wav,./stim/wavs/mexican_mismatch_declarative-narrow-focus_El-bebe-comia-muy-bien.wav,./stim/wavs/peruvian_mismatch_declarative-narrow-focus_El-bebe-comia-muy-bien.wav,./stim/wavs/puertorican_mismatch_declarative-narrow-focus_El-bebe-comia-muy-bien.wav,,,,,,,,,,,,,,,,,,,,,,,,,,,,,,,,,,,,,,,,,,,,,,,,,,,,,,,,
,,,,,,,midd24,midd,ma,United States,South,13 or older,no,2021-04-02_15h26.11.616,empathy_intonation_perc,2020.2.10,Win32,60,IwAR2BWFmHh49KtaQoCqABniVdCo--boZz-8FSiLmMc1VQvexTV6IuR9Zr7no,,,,,,,,,,0,cuban,0,1,6.2311,0,8,8,6,1,7,./stim/wavs/andalusian_match_declarative-broad-focus_Mariano-habla-del-tiempo.wav,./stim/wavs/argentine_match_declarative-broad-focus_Mariano-habla-del-tiempo.wav,./stim/wavs/castilian_match_declarative-broad-focus_Mariano-habla-del-tiempo.wav,./stim/wavs/chilean_match_declarative-broad-focus_Mariano-habla-del-tiempo.wav,./stim/wavs/cuban_match_declarative-broad-focus_Mariano-habla-del-tiempo.wav,./stim/wavs/mexican_match_declarative-broad-focus_Mariano-habla-del-tiempo.wav,./stim/wavs/peruvian_match_declarative-broad-focus_Mariano-habla-del-tiempo.wav,./stim/wavs/puertorican_match_declarative-broad-focus_Mariano-habla-del-tiempo.wav,,,,,,,,,,,,,,,,,,,,,,,,,,,,,,,,,,,,,,,,,,,,,,,,,,,,,,,,
,,,,,,,midd24,midd,ma,United States,South,13 or older,no,2021-04-02_15h26.11.616,empathy_intonation_perc,2020.2.10,Win32,60,IwAR2BWFmHh49KtaQoCqABniVdCo--boZz-8FSiLmMc1VQvexTV6IuR9Zr7no,,,,,,,,,,0,peruvian,0,1,8.81155,0,9,9,36,1,37,./stim/wavs/andalusian_mismatch_declarative-broad-focus_La-nina-lava-el-plato.wav,./stim/wavs/argentine_mismatch_declarative-broad-focus_La-nina-lava-el-plato.wav,./stim/wavs/castilian_mismatch_declarative-broad-focus_La-nina-lava-el-plato.wav,./stim/wavs/chilean_mismatch_declarative-broad-focus_La-nina-lava-el-plato.wav,./stim/wavs/cuban_mismatch_declarative-broad-focus_La-nina-lava-el-plato.wav,./stim/wavs/mexican_mismatch_declarative-broad-focus_La-nina-lava-el-plato.wav,./stim/wavs/peruvian_mismatch_declarative-broad-focus_La-nina-lava-el-plato.wav,./stim/wavs/puertorican_mismatch_declarative-broad-focus_La-nina-lava-el-plato.wav,,,,,,,,,,,,,,,,,,,,,,,,,,,,,,,,,,,,,,,,,,,,,,,,,,,,,,,,
,,,,,,,midd24,midd,ma,United States,South,13 or older,no,2021-04-02_15h26.11.616,empathy_intonation_perc,2020.2.10,Win32,60,IwAR2BWFmHh49KtaQoCqABniVdCo--boZz-8FSiLmMc1VQvexTV6IuR9Zr7no,,,,,,,,,,0,puertorican,0,1,3.727535,0,10,10,35,1,36,./stim/wavs/andalusian_mismatch_declarative-broad-focus_La-maestra-vive-en-Paris.wav,./stim/wavs/argentine_mismatch_declarative-broad-focus_La-maestra-vive-en-Paris.wav,./stim/wavs/castilian_mismatch_declarative-broad-focus_La-maestra-vive-en-Paris.wav,./stim/wavs/chilean_mismatch_declarative-broad-focus_La-maestra-vive-en-Paris.wav,./stim/wavs/cuban_mismatch_declarative-broad-focus_La-maestra-vive-en-Paris.wav,./stim/wavs/mexican_mismatch_declarative-broad-focus_La-maestra-vive-en-Paris.wav,./stim/wavs/peruvian_mismatch_declarative-broad-focus_La-maestra-vive-en-Paris.wav,./stim/wavs/puertorican_mismatch_declarative-broad-focus_La-maestra-vive-en-Paris.wav,,,,,,,,,,,,,,,,,,,,,,,,,,,,,,,,,,,,,,,,,,,,,,,,,,,,,,,,
,,,,,,,midd24,midd,ma,United States,South,13 or older,no,2021-04-02_15h26.11.616,empathy_intonation_perc,2020.2.10,Win32,60,IwAR2BWFmHh49KtaQoCqABniVdCo--boZz-8FSiLmMc1VQvexTV6IuR9Zr7no,,,,,,,,,,1,mexican,1,1,2.647985,0,11,11,50,1,51,./stim/wavs/andalusian_mismatch_interrogative-partial-wh_Cuando-miraba-la-luna.wav,./stim/wavs/argentine_mismatch_interrogative-partial-wh_Cuando-miraba-la-luna.wav,./stim/wavs/castilian_mismatch_interrogative-partial-wh_Cuando-miraba-la-luna.wav,./stim/wavs/chilean_mismatch_interrogative-partial-wh_Cuando-miraba-la-luna.wav,./stim/wavs/cuban_mismatch_interrogative-partial-wh_Cuando-miraba-la-luna.wav,./stim/wavs/mexican_mismatch_interrogative-partial-wh_Cuando-miraba-la-luna.wav,./stim/wavs/peruvian_mismatch_interrogative-partial-wh_Cuando-miraba-la-luna.wav,./stim/wavs/puertorican_mismatch_interrogative-partial-wh_Cuando-miraba-la-luna.wav,,,,,,,,,,,,,,,,,,,,,,,,,,,,,,,,,,,,,,,,,,,,,,,,,,,,,,,,
,,,,,,,midd24,midd,ma,United States,South,13 or older,no,2021-04-02_15h26.11.616,empathy_intonation_perc,2020.2.10,Win32,60,IwAR2BWFmHh49KtaQoCqABniVdCo--boZz-8FSiLmMc1VQvexTV6IuR9Zr7no,,,,,,,,,,0,andalusian,1,0,5.923385,0,12,12,10,1,11,./stim/wavs/andalusian_match_declarative-narrow-focus_David-leia-el-libro.wav,./stim/wavs/argentine_match_declarative-narrow-focus_David-leia-el-libro.wav,./stim/wavs/castilian_match_declarative-narrow-focus_David-leia-el-libro.wav,./stim/wavs/chilean_match_declarative-narrow-focus_David-leia-el-libro.wav,./stim/wavs/cuban_match_declarative-narrow-focus_David-leia-el-libro.wav,./stim/wavs/mexican_match_declarative-narrow-focus_David-leia-el-libro.wav,./stim/wavs/peruvian_match_declarative-narrow-focus_David-leia-el-libro.wav,./stim/wavs/puertorican_match_declarative-narrow-focus_David-leia-el-libro.wav,,,,,,,,,,,,,,,,,,,,,,,,,,,,,,,,,,,,,,,,,,,,,,,,,,,,,,,,
,,,,,,,midd24,midd,ma,United States,South,13 or older,no,2021-04-02_15h26.11.616,empathy_intonation_perc,2020.2.10,Win32,60,IwAR2BWFmHh49KtaQoCqABniVdCo--boZz-8FSiLmMc1VQvexTV6IuR9Zr7no,,,,,,,,,,0,andalusian,1,0,3.60555,0,13,13,13,1,14,./stim/wavs/andalusian_match_declarative-narrow-focus_Maria-bebe-el-vino.wav,./stim/wavs/argentine_match_declarative-narrow-focus_Maria-bebe-el-vino.wav,./stim/wavs/castilian_match_declarative-narrow-focus_Maria-bebe-el-vino.wav,./stim/wavs/chilean_match_declarative-narrow-focus_Maria-bebe-el-vino.wav,./stim/wavs/cuban_match_declarative-narrow-focus_Maria-bebe-el-vino.wav,./stim/wavs/mexican_match_declarative-narrow-focus_Maria-bebe-el-vino.wav,./stim/wavs/peruvian_match_declarative-narrow-focus_Maria-bebe-el-vino.wav,./stim/wavs/puertorican_match_declarative-narrow-focus_Maria-bebe-el-vino.wav,,,,,,,,,,,,,,,,,,,,,,,,,,,,,,,,,,,,,,,,,,,,,,,,,,,,,,,,
,,,,,,,midd24,midd,ma,United States,South,13 or older,no,2021-04-02_15h26.11.616,empathy_intonation_perc,2020.2.10,Win32,60,IwAR2BWFmHh49KtaQoCqABniVdCo--boZz-8FSiLmMc1VQvexTV6IuR9Zr7no,,,,,,,,,,0,andalusian,0,1,5.06405,0,14,14,33,1,34,./stim/wavs/andalusian_mismatch_declarative-broad-focus_El-hombre-mira-la-luna.wav,./stim/wavs/argentine_mismatch_declarative-broad-focus_El-hombre-mira-la-luna.wav,./stim/wavs/castilian_mismatch_declarative-broad-focus_El-hombre-mira-la-luna.wav,./stim/wavs/chilean_mismatch_declarative-broad-focus_El-hombre-mira-la-luna.wav,./stim/wavs/cuban_mismatch_declarative-broad-focus_El-hombre-mira-la-luna.wav,./stim/wavs/mexican_mismatch_declarative-broad-focus_El-hombre-mira-la-luna.wav,./stim/wavs/peruvian_mismatch_declarative-broad-focus_El-hombre-mira-la-luna.wav,./stim/wavs/puertorican_mismatch_declarative-broad-focus_El-hombre-mira-la-luna.wav,,,,,,,,,,,,,,,,,,,,,,,,,,,,,,,,,,,,,,,,,,,,,,,,,,,,,,,,
,,,,,,,midd24,midd,ma,United States,South,13 or older,no,2021-04-02_15h26.11.616,empathy_intonation_perc,2020.2.10,Win32,60,IwAR2BWFmHh49KtaQoCqABniVdCo--boZz-8FSiLmMc1VQvexTV6IuR9Zr7no,,,,,,,,,,0,puertorican,0,1,3.403085,0,15,15,37,1,38,./stim/wavs/andalusian_mismatch_declarative-broad-focus_Mi-madre-come-la-fruta.wav,./stim/wavs/argentine_mismatch_declarative-broad-focus_Mi-madre-come-la-fruta.wav,./stim/wavs/castilian_mismatch_declarative-broad-focus_Mi-madre-come-la-fruta.wav,./stim/wavs/chilean_mismatch_declarative-broad-focus_Mi-madre-come-la-fruta.wav,./stim/wavs/cuban_mismatch_declarative-broad-focus_Mi-madre-come-la-fruta.wav,./stim/wavs/mexican_mismatch_declarative-broad-focus_Mi-madre-come-la-fruta.wav,./stim/wavs/peruvian_mismatch_declarative-broad-focus_Mi-madre-come-la-fruta.wav,./stim/wavs/puertorican_mismatch_declarative-broad-focus_Mi-madre-come-la-fruta.wav,,,,,,,,,,,,,,,,,,,,,,,,,,,,,,,,,,,,,,,,,,,,,,,,,,,,,,,,
,,,,,,,midd24,midd,ma,United States,South,13 or older,no,2021-04-02_15h26.11.616,empathy_intonation_perc,2020.2.10,Win32,60,IwAR2BWFmHh49KtaQoCqABniVdCo--boZz-8FSiLmMc1VQvexTV6IuR9Zr7no,,,,,,,,,,1,castilian,1,1,6.845015,0,16,16,48,1,49,./stim/wavs/andalusian_mismatch_interrogative-partial-wh_Cuando-comia-la-fruta.wav,./stim/wavs/argentine_mismatch_interrogative-partial-wh_Cuando-comia-la-fruta.wav,./stim/wavs/castilian_mismatch_interrogative-partial-wh_Cuando-comia-la-fruta.wav,./stim/wavs/chilean_mismatch_interrogative-partial-wh_Cuando-comia-la-fruta.wav,./stim/wavs/cuban_mismatch_interrogative-partial-wh_Cuando-comia-la-fruta.wav,./stim/wavs/mexican_mismatch_interrogative-partial-wh_Cuando-comia-la-fruta.wav,./stim/wavs/peruvian_mismatch_interrogative-partial-wh_Cuando-comia-la-fruta.wav,./stim/wavs/puertorican_mismatch_interrogative-partial-wh_Cuando-comia-la-fruta.wav,,,,,,,,,,,,,,,,,,,,,,,,,,,,,,,,,,,,,,,,,,,,,,,,,,,,,,,,
,,,,,,,midd24,midd,ma,United States,South,13 or older,no,2021-04-02_15h26.11.616,empathy_intonation_perc,2020.2.10,Win32,60,IwAR2BWFmHh49KtaQoCqABniVdCo--boZz-8FSiLmMc1VQvexTV6IuR9Zr7no,,,,,,,,,,0,mexican,0,1,2.142615,0,17,17,42,1,43,./stim/wavs/andalusian_mismatch_declarative-narrow-focus_El-nino-oye-el-rio.wav,./stim/wavs/argentine_mismatch_declarative-narrow-focus_El-nino-oye-el-rio.wav,./stim/wavs/castilian_mismatch_declarative-narrow-focus_El-nino-oye-el-rio.wav,./stim/wavs/chilean_mismatch_declarative-narrow-focus_El-nino-oye-el-rio.wav,./stim/wavs/cuban_mismatch_declarative-narrow-focus_El-nino-oye-el-rio.wav,./stim/wavs/mexican_mismatch_declarative-narrow-focus_El-nino-oye-el-rio.wav,./stim/wavs/peruvian_mismatch_declarative-narrow-focus_El-nino-oye-el-rio.wav,./stim/wavs/puertorican_mismatch_declarative-narrow-focus_El-nino-oye-el-rio.wav,,,,,,,,,,,,,,,,,,,,,,,,,,,,,,,,,,,,,,,,,,,,,,,,,,,,,,,,
,,,,,,,midd24,midd,ma,United States,South,13 or older,no,2021-04-02_15h26.11.616,empathy_intonation_perc,2020.2.10,Win32,60,IwAR2BWFmHh49KtaQoCqABniVdCo--boZz-8FSiLmMc1VQvexTV6IuR9Zr7no,,,,,,,,,,1,castilian,1,1,2.27781,0,18,18,26,1,27,./stim/wavs/andalusian_match_interrogative-total-yn_David-leia-el-libro.wav,./stim/wavs/argentine_match_interrogative-total-yn_David-leia-el-libro.wav,./stim/wavs/castilian_match_interrogative-total-yn_David-leia-el-libro.wav,./stim/wavs/chilean_match_interrogative-total-yn_David-leia-el-libro.wav,./stim/wavs/cuban_match_interrogative-total-yn_David-leia-el-libro.wav,./stim/wavs/mexican_match_interrogative-total-yn_David-leia-el-libro.wav,./stim/wavs/peruvian_match_interrogative-total-yn_David-leia-el-libro.wav,./stim/wavs/puertorican_match_interrogative-total-yn_David-leia-el-libro.wav,,,,,,,,,,,,,,,,,,,,,,,,,,,,,,,,,,,,,,,,,,,,,,,,,,,,,,,,
,,,,,,,midd24,midd,ma,United States,South,13 or older,no,2021-04-02_15h26.11.616,empathy_intonation_perc,2020.2.10,Win32,60,IwAR2BWFmHh49KtaQoCqABniVdCo--boZz-8FSiLmMc1VQvexTV6IuR9Zr7no,,,,,,,,,,1,chilean,1,1,4.021585,0,19,19,58,1,59,./stim/wavs/andalusian_mismatch_interrogative-total-yn_El-nino-oye-el-rio.wav,./stim/wavs/argentine_mismatch_interrogative-total-yn_El-nino-oye-el-rio.wav,./stim/wavs/castilian_mismatch_interrogative-total-yn_El-nino-oye-el-rio.wav,./stim/wavs/chilean_mismatch_interrogative-total-yn_El-nino-oye-el-rio.wav,./stim/wavs/cuban_mismatch_interrogative-total-yn_El-nino-oye-el-rio.wav,./stim/wavs/mexican_mismatch_interrogative-total-yn_El-nino-oye-el-rio.wav,./stim/wavs/peruvian_mismatch_interrogative-total-yn_El-nino-oye-el-rio.wav,./stim/wavs/puertorican_mismatch_interrogative-total-yn_El-nino-oye-el-rio.wav,,,,,,,,,,,,,,,,,,,,,,,,,,,,,,,,,,,,,,,,,,,,,,,,,,,,,,,,
,,,,,,,midd24,midd,ma,United States,South,13 or older,no,2021-04-02_15h26.11.616,empathy_intonation_perc,2020.2.10,Win32,60,IwAR2BWFmHh49KtaQoCqABniVdCo--boZz-8FSiLmMc1VQvexTV6IuR9Zr7no,,,,,,,,,,1,mexican,1,1,7.50002,0,20,20,20,1,21,./stim/wavs/andalusian_match_interrogative-partial-wh_Por-que-abre-el-regalo.wav,./stim/wavs/argentine_match_interrogative-partial-wh_Por-que-abre-el-regalo.wav,./stim/wavs/castilian_match_interrogative-partial-wh_Por-que-abre-el-regalo.wav,./stim/wavs/chilean_match_interrogative-partial-wh_Por-que-abre-el-regalo.wav,./stim/wavs/cuban_match_interrogative-partial-wh_Por-que-abre-el-regalo.wav,./stim/wavs/mexican_match_interrogative-partial-wh_Por-que-abre-el-regalo.wav,./stim/wavs/peruvian_match_interrogative-partial-wh_Por-que-abre-el-regalo.wav,./stim/wavs/puertorican_match_interrogative-partial-wh_Por-que-abre-el-regalo.wav,,,,,,,,,,,,,,,,,,,,,,,,,,,,,,,,,,,,,,,,,,,,,,,,,,,,,,,,
,,,,,,,midd24,midd,ma,United States,South,13 or older,no,2021-04-02_15h26.11.616,empathy_intonation_perc,2020.2.10,Win32,60,IwAR2BWFmHh49KtaQoCqABniVdCo--boZz-8FSiLmMc1VQvexTV6IuR9Zr7no,,,,,,,,,,1,cuban,1,1,17.942075,0,21,21,19,1,20,./stim/wavs/andalusian_match_interrogative-partial-wh_Cuando-vendia-el-carro.wav,./stim/wavs/argentine_match_interrogative-partial-wh_Cuando-vendia-el-carro.wav,./stim/wavs/castilian_match_interrogative-partial-wh_Cuando-vendia-el-carro.wav,./stim/wavs/chilean_match_interrogative-partial-wh_Cuando-vendia-el-carro.wav,./stim/wavs/cuban_match_interrogative-partial-wh_Cuando-vendia-el-carro.wav,./stim/wavs/mexican_match_interrogative-partial-wh_Cuando-vendia-el-carro.wav,./stim/wavs/peruvian_match_interrogative-partial-wh_Cuando-vendia-el-carro.wav,./stim/wavs/puertorican_match_interrogative-partial-wh_Cuando-vendia-el-carro.wav,,,,,,,,,,,,,,,,,,,,,,,,,,,,,,,,,,,,,,,,,,,,,,,,,,,,,,,,
,,,,,,,midd24,midd,ma,United States,South,13 or older,no,2021-04-02_15h26.11.616,empathy_intonation_perc,2020.2.10,Win32,60,IwAR2BWFmHh49KtaQoCqABniVdCo--boZz-8FSiLmMc1VQvexTV6IuR9Zr7no,,,,,,,,,,0,chilean,0,1,7.96234,0,22,22,4,1,5,./stim/wavs/andalusian_match_declarative-broad-focus_Manuela-vende-el-carro.wav,./stim/wavs/argentine_match_declarative-broad-focus_Manuela-vende-el-carro.wav,./stim/wavs/castilian_match_declarative-broad-focus_Manuela-vende-el-carro.wav,./stim/wavs/chilean_match_declarative-broad-focus_Manuela-vende-el-carro.wav,./stim/wavs/cuban_match_declarative-broad-focus_Manuela-vende-el-carro.wav,./stim/wavs/mexican_match_declarative-broad-focus_Manuela-vende-el-carro.wav,./stim/wavs/peruvian_match_declarative-broad-focus_Manuela-vende-el-carro.wav,./stim/wavs/puertorican_match_declarative-broad-focus_Manuela-vende-el-carro.wav,,,,,,,,,,,,,,,,,,,,,,,,,,,,,,,,,,,,,,,,,,,,,,,,,,,,,,,,
,,,,,,,midd24,midd,ma,United States,South,13 or older,no,2021-04-02_15h26.11.616,empathy_intonation_perc,2020.2.10,Win32,60,IwAR2BWFmHh49KtaQoCqABniVdCo--boZz-8FSiLmMc1VQvexTV6IuR9Zr7no,,,,,,,,,,0,mexican,0,1,2.99848,0,23,23,1,1,2,./stim/wavs/andalusian_match_declarative-broad-focus_Daniel-iba-a-Bolivia.wav,./stim/wavs/argentine_match_declarative-broad-focus_Daniel-iba-a-Bolivia.wav,./stim/wavs/castilian_match_declarative-broad-focus_Daniel-iba-a-Bolivia.wav,./stim/wavs/chilean_match_declarative-broad-focus_Daniel-iba-a-Bolivia.wav,./stim/wavs/cuban_match_declarative-broad-focus_Daniel-iba-a-Bolivia.wav,./stim/wavs/mexican_match_declarative-broad-focus_Daniel-iba-a-Bolivia.wav,./stim/wavs/peruvian_match_declarative-broad-focus_Daniel-iba-a-Bolivia.wav,./stim/wavs/puertorican_match_declarative-broad-focus_Daniel-iba-a-Bolivia.wav,,,,,,,,,,,,,,,,,,,,,,,,,,,,,,,,,,,,,,,,,,,,,,,,,,,,,,,,
,,,,,,,midd24,midd,ma,United States,South,13 or older,no,2021-04-02_15h26.11.616,empathy_intonation_perc,2020.2.10,Win32,60,IwAR2BWFmHh49KtaQoCqABniVdCo--boZz-8FSiLmMc1VQvexTV6IuR9Zr7no,,,,,,,,,,1,puertorican,0,0,15.220735,0,24,24,51,1,52,./stim/wavs/andalusian_mismatch_interrogative-partial-wh_Por-que-desayuna-muy-bien.wav,./stim/wavs/argentine_mismatch_interrogative-partial-wh_Por-que-desayuna-muy-bien.wav,./stim/wavs/castilian_mismatch_interrogative-partial-wh_Por-que-desayuna-muy-bien.wav,./stim/wavs/chilean_mismatch_interrogative-partial-wh_Por-que-desayuna-muy-bien.wav,./stim/wavs/cuban_mismatch_interrogative-partial-wh_Por-que-desayuna-muy-bien.wav,./stim/wavs/mexican_mismatch_interrogative-partial-wh_Por-que-desayuna-muy-bien.wav,./stim/wavs/peruvian_mismatch_interrogative-partial-wh_Por-que-desayuna-muy-bien.wav,./stim/wavs/puertorican_mismatch_interrogative-partial-wh_Por-que-desayuna-muy-bien.wav,,,,,,,,,,,,,,,,,,,,,,,,,,,,,,,,,,,,,,,,,,,,,,,,,,,,,,,,
,,,,,,,midd24,midd,ma,United States,South,13 or older,no,2021-04-02_15h26.11.616,empathy_intonation_perc,2020.2.10,Win32,60,IwAR2BWFmHh49KtaQoCqABniVdCo--boZz-8FSiLmMc1VQvexTV6IuR9Zr7no,,,,,,,,,,1,argentine,1,1,4.28628,0,25,25,23,1,24,./stim/wavs/andalusian_match_interrogative-partial-wh_Por-que-iba-a-Bolivia.wav,./stim/wavs/argentine_match_interrogative-partial-wh_Por-que-iba-a-Bolivia.wav,./stim/wavs/castilian_match_interrogative-partial-wh_Por-que-iba-a-Bolivia.wav,./stim/wavs/chilean_match_interrogative-partial-wh_Por-que-iba-a-Bolivia.wav,./stim/wavs/cuban_match_interrogative-partial-wh_Por-que-iba-a-Bolivia.wav,./stim/wavs/mexican_match_interrogative-partial-wh_Por-que-iba-a-Bolivia.wav,./stim/wavs/peruvian_match_interrogative-partial-wh_Por-que-iba-a-Bolivia.wav,./stim/wavs/puertorican_match_interrogative-partial-wh_Por-que-iba-a-Bolivia.wav,,,,,,,,,,,,,,,,,,,,,,,,,,,,,,,,,,,,,,,,,,,,,,,,,,,,,,,,
,,,,,,,midd24,midd,ma,United States,South,13 or older,no,2021-04-02_15h26.11.616,empathy_intonation_perc,2020.2.10,Win32,60,IwAR2BWFmHh49KtaQoCqABniVdCo--boZz-8FSiLmMc1VQvexTV6IuR9Zr7no,,,,,,,,,,0,chilean,0,1,11.045295,0,26,26,7,1,8,./stim/wavs/andalusian_match_declarative-broad-focus_Marta-abre-el-regalo.wav,./stim/wavs/argentine_match_declarative-broad-focus_Marta-abre-el-regalo.wav,./stim/wavs/castilian_match_declarative-broad-focus_Marta-abre-el-regalo.wav,./stim/wavs/chilean_match_declarative-broad-focus_Marta-abre-el-regalo.wav,./stim/wavs/cuban_match_declarative-broad-focus_Marta-abre-el-regalo.wav,./stim/wavs/mexican_match_declarative-broad-focus_Marta-abre-el-regalo.wav,./stim/wavs/peruvian_match_declarative-broad-focus_Marta-abre-el-regalo.wav,./stim/wavs/puertorican_match_declarative-broad-focus_Marta-abre-el-regalo.wav,,,,,,,,,,,,,,,,,,,,,,,,,,,,,,,,,,,,,,,,,,,,,,,,,,,,,,,,
,,,,,,,midd24,midd,ma,United States,South,13 or older,no,2021-04-02_15h26.11.616,empathy_intonation_perc,2020.2.10,Win32,60,IwAR2BWFmHh49KtaQoCqABniVdCo--boZz-8FSiLmMc1VQvexTV6IuR9Zr7no,,,,,,,,,,1,andalusian,1,1,2.37137,0,27,27,24,1,25,./stim/wavs/andalusian_match_interrogative-total-yn_Ana-lleva-el-abrigo.wav,./stim/wavs/argentine_match_interrogative-total-yn_Ana-lleva-el-abrigo.wav,./stim/wavs/castilian_match_interrogative-total-yn_Ana-lleva-el-abrigo.wav,./stim/wavs/chilean_match_interrogative-total-yn_Ana-lleva-el-abrigo.wav,./stim/wavs/cuban_match_interrogative-total-yn_Ana-lleva-el-abrigo.wav,./stim/wavs/mexican_match_interrogative-total-yn_Ana-lleva-el-abrigo.wav,./stim/wavs/peruvian_match_interrogative-total-yn_Ana-lleva-el-abrigo.wav,./stim/wavs/puertorican_match_interrogative-total-yn_Ana-lleva-el-abrigo.wav,,,,,,,,,,,,,,,,,,,,,,,,,,,,,,,,,,,,,,,,,,,,,,,,,,,,,,,,
,,,,,,,midd24,midd,ma,United States,South,13 or older,no,2021-04-02_15h26.11.616,empathy_intonation_perc,2020.2.10,Win32,60,IwAR2BWFmHh49KtaQoCqABniVdCo--boZz-8FSiLmMc1VQvexTV6IuR9Zr7no,,,,,,,,,,1,argentine,0,0,16.62147,0,28,28,30,1,31,./stim/wavs/andalusian_match_interrogative-total-yn_Mariano-habla-del-tiempo.wav,./stim/wavs/argentine_match_interrogative-total-yn_Mariano-habla-del-tiempo.wav,./stim/wavs/castilian_match_interrogative-total-yn_Mariano-habla-del-tiempo.wav,./stim/wavs/chilean_match_interrogative-total-yn_Mariano-habla-del-tiempo.wav,./stim/wavs/cuban_match_interrogative-total-yn_Mariano-habla-del-tiempo.wav,./stim/wavs/mexican_match_interrogative-total-yn_Mariano-habla-del-tiempo.wav,./stim/wavs/peruvian_match_interrogative-total-yn_Mariano-habla-del-tiempo.wav,./stim/wavs/puertorican_match_interrogative-total-yn_Mariano-habla-del-tiempo.wav,,,,,,,,,,,,,,,,,,,,,,,,,,,,,,,,,,,,,,,,,,,,,,,,,,,,,,,,
,,,,,,,midd24,midd,ma,United States,South,13 or older,no,2021-04-02_15h26.11.616,empathy_intonation_perc,2020.2.10,Win32,60,IwAR2BWFmHh49KtaQoCqABniVdCo--boZz-8FSiLmMc1VQvexTV6IuR9Zr7no,,,,,,,,,,1,puertorican,1,1,4.37313,0,29,29,28,1,29,./stim/wavs/andalusian_match_interrogative-total-yn_Manuela-vende-el-carro.wav,./stim/wavs/argentine_match_interrogative-total-yn_Manuela-vende-el-carro.wav,./stim/wavs/castilian_match_interrogative-total-yn_Manuela-vende-el-carro.wav,./stim/wavs/chilean_match_interrogative-total-yn_Manuela-vende-el-carro.wav,./stim/wavs/cuban_match_interrogative-total-yn_Manuela-vende-el-carro.wav,./stim/wavs/mexican_match_interrogative-total-yn_Manuela-vende-el-carro.wav,./stim/wavs/peruvian_match_interrogative-total-yn_Manuela-vende-el-carro.wav,./stim/wavs/puertorican_match_interrogative-total-yn_Manuela-vende-el-carro.wav,,,,,,,,,,,,,,,,,,,,,,,,,,,,,,,,,,,,,,,,,,,,,,,,,,,,,,,,
,,,,,,,midd24,midd,ma,United States,South,13 or older,no,2021-04-02_15h26.11.616,empathy_intonation_perc,2020.2.10,Win32,60,IwAR2BWFmHh49KtaQoCqABniVdCo--boZz-8FSiLmMc1VQvexTV6IuR9Zr7no,,,,,,,,,,0,puertorican,0,1,5.283175,0,30,30,44,1,45,./stim/wavs/andalusian_mismatch_declarative-narrow-focus_La-nina-lava-el-plato.wav,./stim/wavs/argentine_mismatch_declarative-narrow-focus_La-nina-lava-el-plato.wav,./stim/wavs/castilian_mismatch_declarative-narrow-focus_La-nina-lava-el-plato.wav,./stim/wavs/chilean_mismatch_declarative-narrow-focus_La-nina-lava-el-plato.wav,./stim/wavs/cuban_mismatch_declarative-narrow-focus_La-nina-lava-el-plato.wav,./stim/wavs/mexican_mismatch_declarative-narrow-focus_La-nina-lava-el-plato.wav,./stim/wavs/peruvian_mismatch_declarative-narrow-focus_La-nina-lava-el-plato.wav,./stim/wavs/puertorican_mismatch_declarative-narrow-focus_La-nina-lava-el-plato.wav,,,,,,,,,,,,,,,,,,,,,,,,,,,,,,,,,,,,,,,,,,,,,,,,,,,,,,,,
,,,,,,,midd24,midd,ma,United States,South,13 or older,no,2021-04-02_15h26.11.616,empathy_intonation_perc,2020.2.10,Win32,60,IwAR2BWFmHh49KtaQoCqABniVdCo--boZz-8FSiLmMc1VQvexTV6IuR9Zr7no,,,,,,,,,,1,peruvian,1,1,5.222445,0,31,31,55,1,56,./stim/wavs/andalusian_mismatch_interrogative-partial-wh_Por-que-vivia-en-Paris.wav,./stim/wavs/argentine_mismatch_interrogative-partial-wh_Por-que-vivia-en-Paris.wav,./stim/wavs/castilian_mismatch_interrogative-partial-wh_Por-que-vivia-en-Paris.wav,./stim/wavs/chilean_mismatch_interrogative-partial-wh_Por-que-vivia-en-Paris.wav,./stim/wavs/cuban_mismatch_interrogative-partial-wh_Por-que-vivia-en-Paris.wav,./stim/wavs/mexican_mismatch_interrogative-partial-wh_Por-que-vivia-en-Paris.wav,./stim/wavs/peruvian_mismatch_interrogative-partial-wh_Por-que-vivia-en-Paris.wav,./stim/wavs/puertorican_mismatch_interrogative-partial-wh_Por-que-vivia-en-Paris.wav,,,,,,,,,,,,,,,,,,,,,,,,,,,,,,,,,,,,,,,,,,,,,,,,,,,,,,,,
,,,,,,,midd24,midd,ma,United States,South,13 or older,no,2021-04-02_15h26.11.616,empathy_intonation_perc,2020.2.10,Win32,60,IwAR2BWFmHh49KtaQoCqABniVdCo--boZz-8FSiLmMc1VQvexTV6IuR9Zr7no,,,,,,,,,,1,castilian,1,1,2.523885,0,32,32,29,1,30,./stim/wavs/andalusian_match_interrogative-total-yn_Maria-bebe-el-vino.wav,./stim/wavs/argentine_match_interrogative-total-yn_Maria-bebe-el-vino.wav,./stim/wavs/castilian_match_interrogative-total-yn_Maria-bebe-el-vino.wav,./stim/wavs/chilean_match_interrogative-total-yn_Maria-bebe-el-vino.wav,./stim/wavs/cuban_match_interrogative-total-yn_Maria-bebe-el-vino.wav,./stim/wavs/mexican_match_interrogative-total-yn_Maria-bebe-el-vino.wav,./stim/wavs/peruvian_match_interrogative-total-yn_Maria-bebe-el-vino.wav,./stim/wavs/puertorican_match_interrogative-total-yn_Maria-bebe-el-vino.wav,,,,,,,,,,,,,,,,,,,,,,,,,,,,,,,,,,,,,,,,,,,,,,,,,,,,,,,,
,,,,,,,midd24,midd,ma,United States,South,13 or older,no,2021-04-02_15h26.11.616,empathy_intonation_perc,2020.2.10,Win32,60,IwAR2BWFmHh49KtaQoCqABniVdCo--boZz-8FSiLmMc1VQvexTV6IuR9Zr7no,,,,,,,,,,0,cuban,0,1,2.76044,0,33,33,43,1,44,./stim/wavs/andalusian_mismatch_declarative-narrow-focus_La-maestra-vive-en-Paris.wav,./stim/wavs/argentine_mismatch_declarative-narrow-focus_La-maestra-vive-en-Paris.wav,./stim/wavs/castilian_mismatch_declarative-narrow-focus_La-maestra-vive-en-Paris.wav,./stim/wavs/chilean_mismatch_declarative-narrow-focus_La-maestra-vive-en-Paris.wav,./stim/wavs/cuban_mismatch_declarative-narrow-focus_La-maestra-vive-en-Paris.wav,./stim/wavs/mexican_mismatch_declarative-narrow-focus_La-maestra-vive-en-Paris.wav,./stim/wavs/peruvian_mismatch_declarative-narrow-focus_La-maestra-vive-en-Paris.wav,./stim/wavs/puertorican_mismatch_declarative-narrow-focus_La-maestra-vive-en-Paris.wav,,,,,,,,,,,,,,,,,,,,,,,,,,,,,,,,,,,,,,,,,,,,,,,,,,,,,,,,
,,,,,,,midd24,midd,ma,United States,South,13 or older,no,2021-04-02_15h26.11.616,empathy_intonation_perc,2020.2.10,Win32,60,IwAR2BWFmHh49KtaQoCqABniVdCo--boZz-8FSiLmMc1VQvexTV6IuR9Zr7no,,,,,,,,,,0,cuban,0,1,3.33935,0,34,34,0,1,1,./stim/wavs/andalusian_match_declarative-broad-focus_Ana-lleva-el-abrigo.wav,./stim/wavs/argentine_match_declarative-broad-focus_Ana-lleva-el-abrigo.wav,./stim/wavs/castilian_match_declarative-broad-focus_Ana-lleva-el-abrigo.wav,./stim/wavs/chilean_match_declarative-broad-focus_Ana-lleva-el-abrigo.wav,./stim/wavs/cuban_match_declarative-broad-focus_Ana-lleva-el-abrigo.wav,./stim/wavs/mexican_match_declarative-broad-focus_Ana-lleva-el-abrigo.wav,./stim/wavs/peruvian_match_declarative-broad-focus_Ana-lleva-el-abrigo.wav,./stim/wavs/puertorican_match_declarative-broad-focus_Ana-lleva-el-abrigo.wav,,,,,,,,,,,,,,,,,,,,,,,,,,,,,,,,,,,,,,,,,,,,,,,,,,,,,,,,
,,,,,,,midd24,midd,ma,United States,South,13 or older,no,2021-04-02_15h26.11.616,empathy_intonation_perc,2020.2.10,Win32,60,IwAR2BWFmHh49KtaQoCqABniVdCo--boZz-8FSiLmMc1VQvexTV6IuR9Zr7no,,,,,,,,,,0,argentine,0,1,6.98533,0,35,35,14,1,15,./stim/wavs/andalusian_match_declarative-narrow-focus_Mariano-habla-del-tiempo.wav,./stim/wavs/argentine_match_declarative-narrow-focus_Mariano-habla-del-tiempo.wav,./stim/wavs/castilian_match_declarative-narrow-focus_Mariano-habla-del-tiempo.wav,./stim/wavs/chilean_match_declarative-narrow-focus_Mariano-habla-del-tiempo.wav,./stim/wavs/cuban_match_declarative-narrow-focus_Mariano-habla-del-tiempo.wav,./stim/wavs/mexican_match_declarative-narrow-focus_Mariano-habla-del-tiempo.wav,./stim/wavs/peruvian_match_declarative-narrow-focus_Mariano-habla-del-tiempo.wav,./stim/wavs/puertorican_match_declarative-narrow-focus_Mariano-habla-del-tiempo.wav,,,,,,,,,,,,,,,,,,,,,,,,,,,,,,,,,,,,,,,,,,,,,,,,,,,,,,,,
,,,,,,,midd24,midd,ma,United States,South,13 or older,no,2021-04-02_15h26.11.616,empathy_intonation_perc,2020.2.10,Win32,60,IwAR2BWFmHh49KtaQoCqABniVdCo--boZz-8FSiLmMc1VQvexTV6IuR9Zr7no,,,,,,,,,,1,castilian,1,1,2.911055,0,36,36,31,1,32,./stim/wavs/andalusian_match_interrogative-total-yn_Marta-abre-el-regalo.wav,./stim/wavs/argentine_match_interrogative-total-yn_Marta-abre-el-regalo.wav,./stim/wavs/castilian_match_interrogative-total-yn_Marta-abre-el-regalo.wav,./stim/wavs/chilean_match_interrogative-total-yn_Marta-abre-el-regalo.wav,./stim/wavs/cuban_match_interrogative-total-yn_Marta-abre-el-regalo.wav,./stim/wavs/mexican_match_interrogative-total-yn_Marta-abre-el-regalo.wav,./stim/wavs/peruvian_match_interrogative-total-yn_Marta-abre-el-regalo.wav,./stim/wavs/puertorican_match_interrogative-total-yn_Marta-abre-el-regalo.wav,,,,,,,,,,,,,,,,,,,,,,,,,,,,,,,,,,,,,,,,,,,,,,,,,,,,,,,,
,,,,,,,midd24,midd,ma,United States,South,13 or older,no,2021-04-02_15h26.11.616,empathy_intonation_perc,2020.2.10,Win32,60,IwAR2BWFmHh49KtaQoCqABniVdCo--boZz-8FSiLmMc1VQvexTV6IuR9Zr7no,,,,,,,,,,1,chilean,1,1,2.97509,0,37,37,18,1,19,./stim/wavs/andalusian_match_interrogative-partial-wh_Cuando-lleva-el-abrigo.wav,./stim/wavs/argentine_match_interrogative-partial-wh_Cuando-lleva-el-abrigo.wav,./stim/wavs/castilian_match_interrogative-partial-wh_Cuando-lleva-el-abrigo.wav,./stim/wavs/chilean_match_interrogative-partial-wh_Cuando-lleva-el-abrigo.wav,./stim/wavs/cuban_match_interrogative-partial-wh_Cuando-lleva-el-abrigo.wav,./stim/wavs/mexican_match_interrogative-partial-wh_Cuando-lleva-el-abrigo.wav,./stim/wavs/peruvian_match_interrogative-partial-wh_Cuando-lleva-el-abrigo.wav,./stim/wavs/puertorican_match_interrogative-partial-wh_Cuando-lleva-el-abrigo.wav,,,,,,,,,,,,,,,,,,,,,,,,,,,,,,,,,,,,,,,,,,,,,,,,,,,,,,,,
,,,,,,,midd24,midd,ma,United States,South,13 or older,no,2021-04-02_15h26.11.616,empathy_intonation_perc,2020.2.10,Win32,60,IwAR2BWFmHh49KtaQoCqABniVdCo--boZz-8FSiLmMc1VQvexTV6IuR9Zr7no,,,,,,,,,,1,andalusian,1,1,2.460065,0,38,38,62,1,63,./stim/wavs/andalusian_mismatch_interrogative-total-yn_Mi-novio-viene-del-lago.wav,./stim/wavs/argentine_mismatch_interrogative-total-yn_Mi-novio-viene-del-lago.wav,./stim/wavs/castilian_mismatch_interrogative-total-yn_Mi-novio-viene-del-lago.wav,./stim/wavs/chilean_mismatch_interrogative-total-yn_Mi-novio-viene-del-lago.wav,./stim/wavs/cuban_mismatch_interrogative-total-yn_Mi-novio-viene-del-lago.wav,./stim/wavs/mexican_mismatch_interrogative-total-yn_Mi-novio-viene-del-lago.wav,./stim/wavs/peruvian_mismatch_interrogative-total-yn_Mi-novio-viene-del-lago.wav,./stim/wavs/puertorican_mismatch_interrogative-total-yn_Mi-novio-viene-del-lago.wav,,,,,,,,,,,,,,,,,,,,,,,,,,,,,,,,,,,,,,,,,,,,,,,,,,,,,,,,
,,,,,,,midd24,midd,ma,United States,South,13 or older,no,2021-04-02_15h26.11.616,empathy_intonation_perc,2020.2.10,Win32,60,IwAR2BWFmHh49KtaQoCqABniVdCo--boZz-8FSiLmMc1VQvexTV6IuR9Zr7no,,,,,,,,,,1,chilean,1,1,3.658455,0,39,39,21,1,22,./stim/wavs/andalusian_match_interrogative-partial-wh_Por-que-ama-la-navidad.wav,./stim/wavs/argentine_match_interrogative-partial-wh_Por-que-ama-la-navidad.wav,./stim/wavs/castilian_match_interrogative-partial-wh_Por-que-ama-la-navidad.wav,./stim/wavs/chilean_match_interrogative-partial-wh_Por-que-ama-la-navidad.wav,./stim/wavs/cuban_match_interrogative-partial-wh_Por-que-ama-la-navidad.wav,./stim/wavs/mexican_match_interrogative-partial-wh_Por-que-ama-la-navidad.wav,./stim/wavs/peruvian_match_interrogative-partial-wh_Por-que-ama-la-navidad.wav,./stim/wavs/puertorican_match_interrogative-partial-wh_Por-que-ama-la-navidad.wav,,,,,,,,,,,,,,,,,,,,,,,,,,,,,,,,,,,,,,,,,,,,,,,,,,,,,,,,
,,,,,,,midd24,midd,ma,United States,South,13 or older,no,2021-04-02_15h26.11.616,empathy_intonation_perc,2020.2.10,Win32,60,IwAR2BWFmHh49KtaQoCqABniVdCo--boZz-8FSiLmMc1VQvexTV6IuR9Zr7no,,,,,,,,,,1,puertorican,0,0,2.98793,0,40,40,61,1,62,./stim/wavs/andalusian_mismatch_interrogative-total-yn_Mi-madre-come-la-fruta.wav,./stim/wavs/argentine_mismatch_interrogative-total-yn_Mi-madre-come-la-fruta.wav,./stim/wavs/castilian_mismatch_interrogative-total-yn_Mi-madre-come-la-fruta.wav,./stim/wavs/chilean_mismatch_interrogative-total-yn_Mi-madre-come-la-fruta.wav,./stim/wavs/cuban_mismatch_interrogative-total-yn_Mi-madre-come-la-fruta.wav,./stim/wavs/mexican_mismatch_interrogative-total-yn_Mi-madre-come-la-fruta.wav,./stim/wavs/peruvian_mismatch_interrogative-total-yn_Mi-madre-come-la-fruta.wav,./stim/wavs/puertorican_mismatch_interrogative-total-yn_Mi-madre-come-la-fruta.wav,,,,,,,,,,,,,,,,,,,,,,,,,,,,,,,,,,,,,,,,,,,,,,,,,,,,,,,,
,,,,,,,midd24,midd,ma,United States,South,13 or older,no,2021-04-02_15h26.11.616,empathy_intonation_perc,2020.2.10,Win32,60,IwAR2BWFmHh49KtaQoCqABniVdCo--boZz-8FSiLmMc1VQvexTV6IuR9Zr7no,,,,,,,,,,1,chilean,1,1,1.486915,0,41,41,17,1,18,./stim/wavs/andalusian_match_interrogative-partial-wh_Cuando-leia-el-libro.wav,./stim/wavs/argentine_match_interrogative-partial-wh_Cuando-leia-el-libro.wav,./stim/wavs/castilian_match_interrogative-partial-wh_Cuando-leia-el-libro.wav,./stim/wavs/chilean_match_interrogative-partial-wh_Cuando-leia-el-libro.wav,./stim/wavs/cuban_match_interrogative-partial-wh_Cuando-leia-el-libro.wav,./stim/wavs/mexican_match_interrogative-partial-wh_Cuando-leia-el-libro.wav,./stim/wavs/peruvian_match_interrogative-partial-wh_Cuando-leia-el-libro.wav,./stim/wavs/puertorican_match_interrogative-partial-wh_Cuando-leia-el-libro.wav,,,,,,,,,,,,,,,,,,,,,,,,,,,,,,,,,,,,,,,,,,,,,,,,,,,,,,,,
,,,,,,,midd24,midd,ma,United States,South,13 or older,no,2021-04-02_15h26.11.616,empathy_intonation_perc,2020.2.10,Win32,60,IwAR2BWFmHh49KtaQoCqABniVdCo--boZz-8FSiLmMc1VQvexTV6IuR9Zr7no,,,,,,,,,,1,cuban,1,1,10.651205,0,42,42,60,1,61,./stim/wavs/andalusian_mismatch_interrogative-total-yn_La-nina-lava-el-plato.wav,./stim/wavs/argentine_mismatch_interrogative-total-yn_La-nina-lava-el-plato.wav,./stim/wavs/castilian_mismatch_interrogative-total-yn_La-nina-lava-el-plato.wav,./stim/wavs/chilean_mismatch_interrogative-total-yn_La-nina-lava-el-plato.wav,./stim/wavs/cuban_mismatch_interrogative-total-yn_La-nina-lava-el-plato.wav,./stim/wavs/mexican_mismatch_interrogative-total-yn_La-nina-lava-el-plato.wav,./stim/wavs/peruvian_mismatch_interrogative-total-yn_La-nina-lava-el-plato.wav,./stim/wavs/puertorican_mismatch_interrogative-total-yn_La-nina-lava-el-plato.wav,,,,,,,,,,,,,,,,,,,,,,,,,,,,,,,,,,,,,,,,,,,,,,,,,,,,,,,,
,,,,,,,midd24,midd,ma,United States,South,13 or older,no,2021-04-02_15h26.11.616,empathy_intonation_perc,2020.2.10,Win32,60,IwAR2BWFmHh49KtaQoCqABniVdCo--boZz-8FSiLmMc1VQvexTV6IuR9Zr7no,,,,,,,,,,0,andalusian,0,1,4.789705,0,43,43,12,1,13,./stim/wavs/andalusian_match_declarative-narrow-focus_Manuela-vende-el-carro.wav,./stim/wavs/argentine_match_declarative-narrow-focus_Manuela-vende-el-carro.wav,./stim/wavs/castilian_match_declarative-narrow-focus_Manuela-vende-el-carro.wav,./stim/wavs/chilean_match_declarative-narrow-focus_Manuela-vende-el-carro.wav,./stim/wavs/cuban_match_declarative-narrow-focus_Manuela-vende-el-carro.wav,./stim/wavs/mexican_match_declarative-narrow-focus_Manuela-vende-el-carro.wav,./stim/wavs/peruvian_match_declarative-narrow-focus_Manuela-vende-el-carro.wav,./stim/wavs/puertorican_match_declarative-narrow-focus_Manuela-vende-el-carro.wav,,,,,,,,,,,,,,,,,,,,,,,,,,,,,,,,,,,,,,,,,,,,,,,,,,,,,,,,
,,,,,,,midd24,midd,ma,United States,South,13 or older,no,2021-04-02_15h26.11.616,empathy_intonation_perc,2020.2.10,Win32,60,IwAR2BWFmHh49KtaQoCqABniVdCo--boZz-8FSiLmMc1VQvexTV6IuR9Zr7no,,,,,,,,,,1,peruvian,1,1,2.91621,0,44,44,27,1,28,./stim/wavs/andalusian_match_interrogative-total-yn_Emilio-ama-la-marcha.wav,./stim/wavs/argentine_match_interrogative-total-yn_Emilio-ama-la-marcha.wav,./stim/wavs/castilian_match_interrogative-total-yn_Emilio-ama-la-marcha.wav,./stim/wavs/chilean_match_interrogative-total-yn_Emilio-ama-la-marcha.wav,./stim/wavs/cuban_match_interrogative-total-yn_Emilio-ama-la-marcha.wav,./stim/wavs/mexican_match_interrogative-total-yn_Emilio-ama-la-marcha.wav,./stim/wavs/peruvian_match_interrogative-total-yn_Emilio-ama-la-marcha.wav,./stim/wavs/puertorican_match_interrogative-total-yn_Emilio-ama-la-marcha.wav,,,,,,,,,,,,,,,,,,,,,,,,,,,,,,,,,,,,,,,,,,,,,,,,,,,,,,,,
,,,,,,,midd24,midd,ma,United States,South,13 or older,no,2021-04-02_15h26.11.616,empathy_intonation_perc,2020.2.10,Win32,60,IwAR2BWFmHh49KtaQoCqABniVdCo--boZz-8FSiLmMc1VQvexTV6IuR9Zr7no,,,,,,,,,,0,mexican,0,1,2.07028,0,45,45,8,1,9,./stim/wavs/andalusian_match_declarative-narrow-focus_Ana-lleva-el-abrigo.wav,./stim/wavs/argentine_match_declarative-narrow-focus_Ana-lleva-el-abrigo.wav,./stim/wavs/castilian_match_declarative-narrow-focus_Ana-lleva-el-abrigo.wav,./stim/wavs/chilean_match_declarative-narrow-focus_Ana-lleva-el-abrigo.wav,./stim/wavs/cuban_match_declarative-narrow-focus_Ana-lleva-el-abrigo.wav,./stim/wavs/mexican_match_declarative-narrow-focus_Ana-lleva-el-abrigo.wav,./stim/wavs/peruvian_match_declarative-narrow-focus_Ana-lleva-el-abrigo.wav,./stim/wavs/puertorican_match_declarative-narrow-focus_Ana-lleva-el-abrigo.wav,,,,,,,,,,,,,,,,,,,,,,,,,,,,,,,,,,,,,,,,,,,,,,,,,,,,,,,,
,,,,,,,midd24,midd,ma,United States,South,13 or older,no,2021-04-02_15h26.11.616,empathy_intonation_perc,2020.2.10,Win32,60,IwAR2BWFmHh49KtaQoCqABniVdCo--boZz-8FSiLmMc1VQvexTV6IuR9Zr7no,,,,,,,,,,1,mexican,1,1,2.78458,0,46,46,53,1,54,./stim/wavs/andalusian_mismatch_interrogative-partial-wh_Por-que-oia-el-rio.wav,./stim/wavs/argentine_mismatch_interrogative-partial-wh_Por-que-oia-el-rio.wav,./stim/wavs/castilian_mismatch_interrogative-partial-wh_Por-que-oia-el-rio.wav,./stim/wavs/chilean_mismatch_interrogative-partial-wh_Por-que-oia-el-rio.wav,./stim/wavs/cuban_mismatch_interrogative-partial-wh_Por-que-oia-el-rio.wav,./stim/wavs/mexican_mismatch_interrogative-partial-wh_Por-que-oia-el-rio.wav,./stim/wavs/peruvian_mismatch_interrogative-partial-wh_Por-que-oia-el-rio.wav,./stim/wavs/puertorican_mismatch_interrogative-partial-wh_Por-que-oia-el-rio.wav,,,,,,,,,,,,,,,,,,,,,,,,,,,,,,,,,,,,,,,,,,,,,,,,,,,,,,,,
,,,,,,,midd24,midd,ma,United States,South,13 or older,no,2021-04-02_15h26.11.616,empathy_intonation_perc,2020.2.10,Win32,60,IwAR2BWFmHh49KtaQoCqABniVdCo--boZz-8FSiLmMc1VQvexTV6IuR9Zr7no,,,,,,,,,,1,andalusian,1,1,5.107545,0,47,47,16,1,17,./stim/wavs/andalusian_match_interrogative-partial-wh_Cuando-bebia-el-vino.wav,./stim/wavs/argentine_match_interrogative-partial-wh_Cuando-bebia-el-vino.wav,./stim/wavs/castilian_match_interrogative-partial-wh_Cuando-bebia-el-vino.wav,./stim/wavs/chilean_match_interrogative-partial-wh_Cuando-bebia-el-vino.wav,./stim/wavs/cuban_match_interrogative-partial-wh_Cuando-bebia-el-vino.wav,./stim/wavs/mexican_match_interrogative-partial-wh_Cuando-bebia-el-vino.wav,./stim/wavs/peruvian_match_interrogative-partial-wh_Cuando-bebia-el-vino.wav,./stim/wavs/puertorican_match_interrogative-partial-wh_Cuando-bebia-el-vino.wav,,,,,,,,,,,,,,,,,,,,,,,,,,,,,,,,,,,,,,,,,,,,,,,,,,,,,,,,
,,,,,,,midd24,midd,ma,United States,South,13 or older,no,2021-04-02_15h26.11.616,empathy_intonation_perc,2020.2.10,Win32,60,IwAR2BWFmHh49KtaQoCqABniVdCo--boZz-8FSiLmMc1VQvexTV6IuR9Zr7no,,,,,,,,,,0,cuban,0,1,6.045945,0,48,48,2,1,3,./stim/wavs/andalusian_match_declarative-broad-focus_David-leia-el-libro.wav,./stim/wavs/argentine_match_declarative-broad-focus_David-leia-el-libro.wav,./stim/wavs/castilian_match_declarative-broad-focus_David-leia-el-libro.wav,./stim/wavs/chilean_match_declarative-broad-focus_David-leia-el-libro.wav,./stim/wavs/cuban_match_declarative-broad-focus_David-leia-el-libro.wav,./stim/wavs/mexican_match_declarative-broad-focus_David-leia-el-libro.wav,./stim/wavs/peruvian_match_declarative-broad-focus_David-leia-el-libro.wav,./stim/wavs/puertorican_match_declarative-broad-focus_David-leia-el-libro.wav,,,,,,,,,,,,,,,,,,,,,,,,,,,,,,,,,,,,,,,,,,,,,,,,,,,,,,,,
,,,,,,,midd24,midd,ma,United States,South,13 or older,no,2021-04-02_15h26.11.616,empathy_intonation_perc,2020.2.10,Win32,60,IwAR2BWFmHh49KtaQoCqABniVdCo--boZz-8FSiLmMc1VQvexTV6IuR9Zr7no,,,,,,,,,,1,castilian,1,1,3.787945,0,49,49,25,1,26,./stim/wavs/andalusian_match_interrogative-total-yn_Daniel-iba-a-Bolivia.wav,./stim/wavs/argentine_match_interrogative-total-yn_Daniel-iba-a-Bolivia.wav,./stim/wavs/castilian_match_interrogative-total-yn_Daniel-iba-a-Bolivia.wav,./stim/wavs/chilean_match_interrogative-total-yn_Daniel-iba-a-Bolivia.wav,./stim/wavs/cuban_match_interrogative-total-yn_Daniel-iba-a-Bolivia.wav,./stim/wavs/mexican_match_interrogative-total-yn_Daniel-iba-a-Bolivia.wav,./stim/wavs/peruvian_match_interrogative-total-yn_Daniel-iba-a-Bolivia.wav,./stim/wavs/puertorican_match_interrogative-total-yn_Daniel-iba-a-Bolivia.wav,,,,,,,,,,,,,,,,,,,,,,,,,,,,,,,,,,,,,,,,,,,,,,,,,,,,,,,,
,,,,,,,midd24,midd,ma,United States,South,13 or older,no,2021-04-02_15h26.11.616,empathy_intonation_perc,2020.2.10,Win32,60,IwAR2BWFmHh49KtaQoCqABniVdCo--boZz-8FSiLmMc1VQvexTV6IuR9Zr7no,,,,,,,,,,1,argentine,1,1,2.371365,0,50,50,59,1,60,./stim/wavs/andalusian_mismatch_interrogative-total-yn_La-maestra-vive-en-Paris.wav,./stim/wavs/argentine_mismatch_interrogative-total-yn_La-maestra-vive-en-Paris.wav,./stim/wavs/castilian_mismatch_interrogative-total-yn_La-maestra-vive-en-Paris.wav,./stim/wavs/chilean_mismatch_interrogative-total-yn_La-maestra-vive-en-Paris.wav,./stim/wavs/cuban_mismatch_interrogative-total-yn_La-maestra-vive-en-Paris.wav,./stim/wavs/mexican_mismatch_interrogative-total-yn_La-maestra-vive-en-Paris.wav,./stim/wavs/peruvian_mismatch_interrogative-total-yn_La-maestra-vive-en-Paris.wav,./stim/wavs/puertorican_mismatch_interrogative-total-yn_La-maestra-vive-en-Paris.wav,,,,,,,,,,,,,,,,,,,,,,,,,,,,,,,,,,,,,,,,,,,,,,,,,,,,,,,,
,,,,,,,midd24,midd,ma,United States,South,13 or older,no,2021-04-02_15h26.11.616,empathy_intonation_perc,2020.2.10,Win32,60,IwAR2BWFmHh49KtaQoCqABniVdCo--boZz-8FSiLmMc1VQvexTV6IuR9Zr7no,,,,,,,,,,1,argentine,1,1,9.78654,0,51,51,49,1,50,./stim/wavs/andalusian_mismatch_interrogative-partial-wh_Cuando-lavaba-el-plato.wav,./stim/wavs/argentine_mismatch_interrogative-partial-wh_Cuando-lavaba-el-plato.wav,./stim/wavs/castilian_mismatch_interrogative-partial-wh_Cuando-lavaba-el-plato.wav,./stim/wavs/chilean_mismatch_interrogative-partial-wh_Cuando-lavaba-el-plato.wav,./stim/wavs/cuban_mismatch_interrogative-partial-wh_Cuando-lavaba-el-plato.wav,./stim/wavs/mexican_mismatch_interrogative-partial-wh_Cuando-lavaba-el-plato.wav,./stim/wavs/peruvian_mismatch_interrogative-partial-wh_Cuando-lavaba-el-plato.wav,./stim/wavs/puertorican_mismatch_interrogative-partial-wh_Cuando-lavaba-el-plato.wav,,,,,,,,,,,,,,,,,,,,,,,,,,,,,,,,,,,,,,,,,,,,,,,,,,,,,,,,
,,,,,,,midd24,midd,ma,United States,South,13 or older,no,2021-04-02_15h26.11.616,empathy_intonation_perc,2020.2.10,Win32,60,IwAR2BWFmHh49KtaQoCqABniVdCo--boZz-8FSiLmMc1VQvexTV6IuR9Zr7no,,,,,,,,,,1,puertorican,1,1,7.993925,0,52,52,22,1,23,./stim/wavs/andalusian_match_interrogative-partial-wh_Por-que-hablaba-del-agua.wav,./stim/wavs/argentine_match_interrogative-partial-wh_Por-que-hablaba-del-agua.wav,./stim/wavs/castilian_match_interrogative-partial-wh_Por-que-hablaba-del-agua.wav,./stim/wavs/chilean_match_interrogative-partial-wh_Por-que-hablaba-del-agua.wav,./stim/wavs/cuban_match_interrogative-partial-wh_Por-que-hablaba-del-agua.wav,./stim/wavs/mexican_match_interrogative-partial-wh_Por-que-hablaba-del-agua.wav,./stim/wavs/peruvian_match_interrogative-partial-wh_Por-que-hablaba-del-agua.wav,./stim/wavs/puertorican_match_interrogative-partial-wh_Por-que-hablaba-del-agua.wav,,,,,,,,,,,,,,,,,,,,,,,,,,,,,,,,,,,,,,,,,,,,,,,,,,,,,,,,
,,,,,,,midd24,midd,ma,United States,South,13 or older,no,2021-04-02_15h26.11.616,empathy_intonation_perc,2020.2.10,Win32,60,IwAR2BWFmHh49KtaQoCqABniVdCo--boZz-8FSiLmMc1VQvexTV6IuR9Zr7no,,,,,,,,,,0,puertorican,0,1,25.488425,0,53,53,5,1,6,./stim/wavs/andalusian_match_declarative-broad-focus_Maria-bebe-el-vino.wav,./stim/wavs/argentine_match_declarative-broad-focus_Maria-bebe-el-vino.wav,./stim/wavs/castilian_match_declarative-broad-focus_Maria-bebe-el-vino.wav,./stim/wavs/chilean_match_declarative-broad-focus_Maria-bebe-el-vino.wav,./stim/wavs/cuban_match_declarative-broad-focus_Maria-bebe-el-vino.wav,./stim/wavs/mexican_match_declarative-broad-focus_Maria-bebe-el-vino.wav,./stim/wavs/peruvian_match_declarative-broad-focus_Maria-bebe-el-vino.wav,./stim/wavs/puertorican_match_declarative-broad-focus_Maria-bebe-el-vino.wav,,,,,,,,,,,,,,,,,,,,,,,,,,,,,,,,,,,,,,,,,,,,,,,,,,,,,,,,
,,,,,,,midd24,midd,ma,United States,South,13 or older,no,2021-04-02_15h26.11.616,empathy_intonation_perc,2020.2.10,Win32,60,IwAR2BWFmHh49KtaQoCqABniVdCo--boZz-8FSiLmMc1VQvexTV6IuR9Zr7no,,,,,,,,,,0,mexican,0,1,1.862565,0,54,54,15,1,16,./stim/wavs/andalusian_match_declarative-narrow-focus_Marta-abre-el-regalo.wav,./stim/wavs/argentine_match_declarative-narrow-focus_Marta-abre-el-regalo.wav,./stim/wavs/castilian_match_declarative-narrow-focus_Marta-abre-el-regalo.wav,./stim/wavs/chilean_match_declarative-narrow-focus_Marta-abre-el-regalo.wav,./stim/wavs/cuban_match_declarative-narrow-focus_Marta-abre-el-regalo.wav,./stim/wavs/mexican_match_declarative-narrow-focus_Marta-abre-el-regalo.wav,./stim/wavs/peruvian_match_declarative-narrow-focus_Marta-abre-el-regalo.wav,./stim/wavs/puertorican_match_declarative-narrow-focus_Marta-abre-el-regalo.wav,,,,,,,,,,,,,,,,,,,,,,,,,,,,,,,,,,,,,,,,,,,,,,,,,,,,,,,,
,,,,,,,midd24,midd,ma,United States,South,13 or older,no,2021-04-02_15h26.11.616,empathy_intonation_perc,2020.2.10,Win32,60,IwAR2BWFmHh49KtaQoCqABniVdCo--boZz-8FSiLmMc1VQvexTV6IuR9Zr7no,,,,,,,,,,0,andalusian,0,1,2.09164,0,55,55,38,1,39,./stim/wavs/andalusian_mismatch_declarative-broad-focus_Mi-novio-viene-del-lago.wav,./stim/wavs/argentine_mismatch_declarative-broad-focus_Mi-novio-viene-del-lago.wav,./stim/wavs/castilian_mismatch_declarative-broad-focus_Mi-novio-viene-del-lago.wav,./stim/wavs/chilean_mismatch_declarative-broad-focus_Mi-novio-viene-del-lago.wav,./stim/wavs/cuban_mismatch_declarative-broad-focus_Mi-novio-viene-del-lago.wav,./stim/wavs/mexican_mismatch_declarative-broad-focus_Mi-novio-viene-del-lago.wav,./stim/wavs/peruvian_mismatch_declarative-broad-focus_Mi-novio-viene-del-lago.wav,./stim/wavs/puertorican_mismatch_declarative-broad-focus_Mi-novio-viene-del-lago.wav,,,,,,,,,,,,,,,,,,,,,,,,,,,,,,,,,,,,,,,,,,,,,,,,,,,,,,,,
,,,,,,,midd24,midd,ma,United States,South,13 or older,no,2021-04-02_15h26.11.616,empathy_intonation_perc,2020.2.10,Win32,60,IwAR2BWFmHh49KtaQoCqABniVdCo--boZz-8FSiLmMc1VQvexTV6IuR9Zr7no,,,,,,,,,,0,castilian,0,1,2.764575,0,56,56,45,1,46,./stim/wavs/andalusian_mismatch_declarative-narrow-focus_Mi-madre-come-la-fruta.wav,./stim/wavs/argentine_mismatch_declarative-narrow-focus_Mi-madre-come-la-fruta.wav,./stim/wavs/castilian_mismatch_declarative-narrow-focus_Mi-madre-come-la-fruta.wav,./stim/wavs/chilean_mismatch_declarative-narrow-focus_Mi-madre-come-la-fruta.wav,./stim/wavs/cuban_mismatch_declarative-narrow-focus_Mi-madre-come-la-fruta.wav,./stim/wavs/mexican_mismatch_declarative-narrow-focus_Mi-madre-come-la-fruta.wav,./stim/wavs/peruvian_mismatch_declarative-narrow-focus_Mi-madre-come-la-fruta.wav,./stim/wavs/puertorican_mismatch_declarative-narrow-focus_Mi-madre-come-la-fruta.wav,,,,,,,,,,,,,,,,,,,,,,,,,,,,,,,,,,,,,,,,,,,,,,,,,,,,,,,,
,,,,,,,midd24,midd,ma,United States,South,13 or older,no,2021-04-02_15h26.11.616,empathy_intonation_perc,2020.2.10,Win32,60,IwAR2BWFmHh49KtaQoCqABniVdCo--boZz-8FSiLmMc1VQvexTV6IuR9Zr7no,,,,,,,,,,0,cuban,0,1,3.30713,0,57,57,41,1,42,./stim/wavs/andalusian_mismatch_declarative-narrow-focus_El-hombre-mira-la-luna.wav,./stim/wavs/argentine_mismatch_declarative-narrow-focus_El-hombre-mira-la-luna.wav,./stim/wavs/castilian_mismatch_declarative-narrow-focus_El-hombre-mira-la-luna.wav,./stim/wavs/chilean_mismatch_declarative-narrow-focus_El-hombre-mira-la-luna.wav,./stim/wavs/cuban_mismatch_declarative-narrow-focus_El-hombre-mira-la-luna.wav,./stim/wavs/mexican_mismatch_declarative-narrow-focus_El-hombre-mira-la-luna.wav,./stim/wavs/peruvian_mismatch_declarative-narrow-focus_El-hombre-mira-la-luna.wav,./stim/wavs/puertorican_mismatch_declarative-narrow-focus_El-hombre-mira-la-luna.wav,,,,,,,,,,,,,,,,,,,,,,,,,,,,,,,,,,,,,,,,,,,,,,,,,,,,,,,,
,,,,,,,midd24,midd,ma,United States,South,13 or older,no,2021-04-02_15h26.11.616,empathy_intonation_perc,2020.2.10,Win32,60,IwAR2BWFmHh49KtaQoCqABniVdCo--boZz-8FSiLmMc1VQvexTV6IuR9Zr7no,,,,,,,,,,1,castilian,1,1,8.55975,0,58,58,57,1,58,./stim/wavs/andalusian_mismatch_interrogative-total-yn_El-hombre-mira-la-luna.wav,./stim/wavs/argentine_mismatch_interrogative-total-yn_El-hombre-mira-la-luna.wav,./stim/wavs/castilian_mismatch_interrogative-total-yn_El-hombre-mira-la-luna.wav,./stim/wavs/chilean_mismatch_interrogative-total-yn_El-hombre-mira-la-luna.wav,./stim/wavs/cuban_mismatch_interrogative-total-yn_El-hombre-mira-la-luna.wav,./stim/wavs/mexican_mismatch_interrogative-total-yn_El-hombre-mira-la-luna.wav,./stim/wavs/peruvian_mismatch_interrogative-total-yn_El-hombre-mira-la-luna.wav,./stim/wavs/puertorican_mismatch_interrogative-total-yn_El-hombre-mira-la-luna.wav,,,,,,,,,,,,,,,,,,,,,,,,,,,,,,,,,,,,,,,,,,,,,,,,,,,,,,,,
,,,,,,,midd24,midd,ma,United States,South,13 or older,no,2021-04-02_15h26.11.616,empathy_intonation_perc,2020.2.10,Win32,60,IwAR2BWFmHh49KtaQoCqABniVdCo--boZz-8FSiLmMc1VQvexTV6IuR9Zr7no,,,,,,,,,,0,castilian,0,1,2.78697,0,59,59,3,1,4,./stim/wavs/andalusian_match_declarative-broad-focus_Emilio-ama-la-marcha.wav,./stim/wavs/argentine_match_declarative-broad-focus_Emilio-ama-la-marcha.wav,./stim/wavs/castilian_match_declarative-broad-focus_Emilio-ama-la-marcha.wav,./stim/wavs/chilean_match_declarative-broad-focus_Emilio-ama-la-marcha.wav,./stim/wavs/cuban_match_declarative-broad-focus_Emilio-ama-la-marcha.wav,./stim/wavs/mexican_match_declarative-broad-focus_Emilio-ama-la-marcha.wav,./stim/wavs/peruvian_match_declarative-broad-focus_Emilio-ama-la-marcha.wav,./stim/wavs/puertorican_match_declarative-broad-focus_Emilio-ama-la-marcha.wav,,,,,,,,,,,,,,,,,,,,,,,,,,,,,,,,,,,,,,,,,,,,,,,,,,,,,,,,
,,,,,,,midd24,midd,ma,United States,South,13 or older,no,2021-04-02_15h26.11.616,empathy_intonation_perc,2020.2.10,Win32,60,IwAR2BWFmHh49KtaQoCqABniVdCo--boZz-8FSiLmMc1VQvexTV6IuR9Zr7no,,,,,,,,,,1,castilian,0,0,22.08839,0,60,60,56,1,57,./stim/wavs/andalusian_mismatch_interrogative-total-yn_El-bebe-comia-muy-bien.wav,./stim/wavs/argentine_mismatch_interrogative-total-yn_El-bebe-comia-muy-bien.wav,./stim/wavs/castilian_mismatch_interrogative-total-yn_El-bebe-comia-muy-bien.wav,./stim/wavs/chilean_mismatch_interrogative-total-yn_El-bebe-comia-muy-bien.wav,./stim/wavs/cuban_mismatch_interrogative-total-yn_El-bebe-comia-muy-bien.wav,./stim/wavs/mexican_mismatch_interrogative-total-yn_El-bebe-comia-muy-bien.wav,./stim/wavs/peruvian_mismatch_interrogative-total-yn_El-bebe-comia-muy-bien.wav,./stim/wavs/puertorican_mismatch_interrogative-total-yn_El-bebe-comia-muy-bien.wav,,,,,,,,,,,,,,,,,,,,,,,,,,,,,,,,,,,,,,,,,,,,,,,,,,,,,,,,
,,,,,,,midd24,midd,ma,United States,South,13 or older,no,2021-04-02_15h26.11.616,empathy_intonation_perc,2020.2.10,Win32,60,IwAR2BWFmHh49KtaQoCqABniVdCo--boZz-8FSiLmMc1VQvexTV6IuR9Zr7no,,,,,,,,,,0,cuban,0,1,2.752785,0,61,61,11,1,12,./stim/wavs/andalusian_match_declarative-narrow-focus_Emilio-ama-la-marcha.wav,./stim/wavs/argentine_match_declarative-narrow-focus_Emilio-ama-la-marcha.wav,./stim/wavs/castilian_match_declarative-narrow-focus_Emilio-ama-la-marcha.wav,./stim/wavs/chilean_match_declarative-narrow-focus_Emilio-ama-la-marcha.wav,./stim/wavs/cuban_match_declarative-narrow-focus_Emilio-ama-la-marcha.wav,./stim/wavs/mexican_match_declarative-narrow-focus_Emilio-ama-la-marcha.wav,./stim/wavs/peruvian_match_declarative-narrow-focus_Emilio-ama-la-marcha.wav,./stim/wavs/puertorican_match_declarative-narrow-focus_Emilio-ama-la-marcha.wav,,,,,,,,,,,,,,,,,,,,,,,,,,,,,,,,,,,,,,,,,,,,,,,,,,,,,,,,
,,,,,,,midd24,midd,ma,United States,South,13 or older,no,2021-04-02_15h26.11.616,empathy_intonation_perc,2020.2.10,Win32,60,IwAR2BWFmHh49KtaQoCqABniVdCo--boZz-8FSiLmMc1VQvexTV6IuR9Zr7no,,,,,,,,,,0,cuban,0,1,2.12385,0,62,62,39,1,40,./stim/wavs/andalusian_mismatch_declarative-broad-focus_Mi-tia-odia-la-lluvia.wav,./stim/wavs/argentine_mismatch_declarative-broad-focus_Mi-tia-odia-la-lluvia.wav,./stim/wavs/castilian_mismatch_declarative-broad-focus_Mi-tia-odia-la-lluvia.wav,./stim/wavs/chilean_mismatch_declarative-broad-focus_Mi-tia-odia-la-lluvia.wav,./stim/wavs/cuban_mismatch_declarative-broad-focus_Mi-tia-odia-la-lluvia.wav,./stim/wavs/mexican_mismatch_declarative-broad-focus_Mi-tia-odia-la-lluvia.wav,./stim/wavs/peruvian_mismatch_declarative-broad-focus_Mi-tia-odia-la-lluvia.wav,./stim/wavs/puertorican_mismatch_declarative-broad-focus_Mi-tia-odia-la-lluvia.wav,,,,,,,,,,,,,,,,,,,,,,,,,,,,,,,,,,,,,,,,,,,,,,,,,,,,,,,,
,,,,,,,midd24,midd,ma,United States,South,13 or older,no,2021-04-02_15h26.11.616,empathy_intonation_perc,2020.2.10,Win32,60,IwAR2BWFmHh49KtaQoCqABniVdCo--boZz-8FSiLmMc1VQvexTV6IuR9Zr7no,,,,,,,,,,0,chilean,0,1,3.782565,0,63,63,9,1,10,./stim/wavs/andalusian_match_declarative-narrow-focus_Daniel-iba-a-Bolivia.wav,./stim/wavs/argentine_match_declarative-narrow-focus_Daniel-iba-a-Bolivia.wav,./stim/wavs/castilian_match_declarative-narrow-focus_Daniel-iba-a-Bolivia.wav,./stim/wavs/chilean_match_declarative-narrow-focus_Daniel-iba-a-Bolivia.wav,./stim/wavs/cuban_match_declarative-narrow-focus_Daniel-iba-a-Bolivia.wav,./stim/wavs/mexican_match_declarative-narrow-focus_Daniel-iba-a-Bolivia.wav,./stim/wavs/peruvian_match_declarative-narrow-focus_Daniel-iba-a-Bolivia.wav,./stim/wavs/puertorican_match_declarative-narrow-focus_Daniel-iba-a-Bolivia.wav,,,,,,,,,,,,,,,,,,,,,,,,,,,,,,,,,,,,,,,,,,,,,,,,,,,,,,,,
,,,,,,,midd24,midd,ma,United States,South,13 or older,no,2021-04-02_15h26.11.616,empathy_intonation_perc,2020.2.10,Win32,60,IwAR2BWFmHh49KtaQoCqABniVdCo--boZz-8FSiLmMc1VQvexTV6IuR9Zr7no,,,,,,,,,,,,,,,,,,,,,,,,,,,,,h,1,41.51542,0,0,0,0,1,,,,,,,,,,,,,,,,,,,,,,,,,,,,,,,,,,,,,,,,,,,,,,,,
,,,,,"Great! Now we will move on. The next task consists of about 60 trials, in each of which you will see a string of letters. 
  
  Your task is to decide whether this is a real Spanish word or not.",(press the spacebar to continue),midd24,midd,ma,United States,South,13 or older,no,2021-04-02_15h26.11.616,empathy_intonation_perc,2020.2.10,Win32,60,IwAR2BWFmHh49KtaQoCqABniVdCo--boZz-8FSiLmMc1VQvexTV6IuR9Zr7no,,,,,,,,,,,,,,,,,,,,,,,,,,,,,,,,,,,,,0,0,0,0,1,,,,,,,,,,,,,,,,,,,,,,,,,,,,,,,,,,,,,,,,,,,
,,,,,"If you think it is an existing Spanish word, you type '1' (for 'REAL'), and if you think it is not an existing Spanish word, you type '0' (for 'FAKE').",(press the spacebar to continue),midd24,midd,ma,United States,South,13 or older,no,2021-04-02_15h26.11.616,empathy_intonation_perc,2020.2.10,Win32,60,IwAR2BWFmHh49KtaQoCqABniVdCo--boZz-8FSiLmMc1VQvexTV6IuR9Zr7no,,,,,,,,,,,,,,,,,,,,,,,,,,,,,,,,,,,,,0,1,1,1,1,,,,,,,,,,,,,,,,,,,,,,,,,,,,,,,,,,,,,,,,,,,
,,,,,"If you are sure that the word exists, even though you dont know its exact meaning, you may still respond '1' (REAL). 
  
  But if you are not sure if it is an existing word, you should respond '0' (FAKE).
  
  Let's do a practice round...",(press the spacebar to continue),midd24,midd,ma,United States,South,13 or older,no,2021-04-02_15h26.11.616,empathy_intonation_perc,2020.2.10,Win32,60,IwAR2BWFmHh49KtaQoCqABniVdCo--boZz-8FSiLmMc1VQvexTV6IuR9Zr7no,,,,,,,,,,,,,,,,,,,,,,,,,,,,,,,,,,,,,0,2,2,2,1,,,,,,,,,,,,,,,,,,,,,,,,,,,,,,,,,,,,,,,,,,,
,,,,,,,midd24,midd,ma,United States,South,13 or older,no,2021-04-02_15h26.11.616,empathy_intonation_perc,2020.2.10,Win32,60,IwAR2BWFmHh49KtaQoCqABniVdCo--boZz-8FSiLmMc1VQvexTV6IuR9Zr7no,,,,,,,,,,0,,,,,,,,,,,,,,,,,,,,,,,,,,,,,,,,1,0,12.354175,0,0,0,0,1,0,depiste,REAL,FAKE,,,,,,,,,,,,,,,,,,,,,,,,,,,,,,,
,,,,,,,midd24,midd,ma,United States,South,13 or older,no,2021-04-02_15h26.11.616,empathy_intonation_perc,2020.2.10,Win32,60,IwAR2BWFmHh49KtaQoCqABniVdCo--boZz-8FSiLmMc1VQvexTV6IuR9Zr7no,,,,,,,,,,1,,,,,,,,,,,,,,,,,,,,,,,,,,,,,,,,1,1,4.39794,0,1,1,1,1,0,s,REAL,FAKE,,,,,,,,,,,,,,,,,,,,,,,,,,,,,,,
,,,,,,,midd24,midd,ma,United States,South,13 or older,no,2021-04-02_15h26.11.616,empathy_intonation_perc,2020.2.10,Win32,60,IwAR2BWFmHh49KtaQoCqABniVdCo--boZz-8FSiLmMc1VQvexTV6IuR9Zr7no,,,,,,,,,,0,,,,,,,,,,,,,,,,,,,,,,,,,,,,,,,,0,1,6.91797,0,2,2,2,1,0,con,REAL,FAKE,,,,,,,,,,,,,,,,,,,,,,,,,,,,,,,
,,,,,,,midd24,midd,ma,United States,South,13 or older,no,2021-04-02_15h26.11.616,empathy_intonation_perc,2020.2.10,Win32,60,IwAR2BWFmHh49KtaQoCqABniVdCo--boZz-8FSiLmMc1VQvexTV6IuR9Zr7no,,,,,,,,,,0,,,,,,,,,,,,,,,,,,,,,,,,,,,,,,,,1,0,1.826675,0,3,3,3,1,0,calpar,REAL,FAKE,,,,,,,,,,,,,,,,,,,,,,,,,,,,,,,
,,,,,,,midd24,midd,ma,United States,South,13 or older,no,2021-04-02_15h26.11.616,empathy_intonation_perc,2020.2.10,Win32,60,IwAR2BWFmHh49KtaQoCqABniVdCo--boZz-8FSiLmMc1VQvexTV6IuR9Zr7no,,,,,,,,,,0,,,,,,,,,,,,,,,,,,,,,,,,,,,,,,,,1,0,2.33877,0,4,4,4,1,0,joten,REAL,FAKE,,,,,,,,,,,,,,,,,,,,,,,,,,,,,,,
,,,,,,,midd24,midd,ma,United States,South,13 or older,no,2021-04-02_15h26.11.616,empathy_intonation_perc,2020.2.10,Win32,60,IwAR2BWFmHh49KtaQoCqABniVdCo--boZz-8FSiLmMc1VQvexTV6IuR9Zr7no,,,,,,,,,,1,,,,,,,,,,,,,,,,,,,,,,,,,,,,,,,,1,1,2.415525,0,5,5,5,1,0,sacapuntas,REAL,FAKE,,,,,,,,,,,,,,,,,,,,,,,,,,,,,,,
,,,,,,,midd24,midd,ma,United States,South,13 or older,no,2021-04-02_15h26.11.616,empathy_intonation_perc,2020.2.10,Win32,60,IwAR2BWFmHh49KtaQoCqABniVdCo--boZz-8FSiLmMc1VQvexTV6IuR9Zr7no,,,,,,,,,,0,,,,,,,,,,,,,,,,,,,,,,,,,,,,,,,,0,1,1.36296,0,6,6,6,1,0,priba,REAL,FAKE,,,,,,,,,,,,,,,,,,,,,,,,,,,,,,,
,,,,,,,midd24,midd,ma,United States,South,13 or older,no,2021-04-02_15h26.11.616,empathy_intonation_perc,2020.2.10,Win32,60,IwAR2BWFmHh49KtaQoCqABniVdCo--boZz-8FSiLmMc1VQvexTV6IuR9Zr7no,,,,,,,,,,0,,,,,,,,,,,,,,,,,,,,,,,,,,,,,,,,1,0,1.9314,0,7,7,7,1,0,pelasula,REAL,FAKE,,,,,,,,,,,,,,,,,,,,,,,,,,,,,,,
,,,,,,,midd24,midd,ma,United States,South,13 or older,no,2021-04-02_15h26.11.616,empathy_intonation_perc,2020.2.10,Win32,60,IwAR2BWFmHh49KtaQoCqABniVdCo--boZz-8FSiLmMc1VQvexTV6IuR9Zr7no,,,,,,,,,,1,,,,,,,,,,,,,,,,,,,,,,,,,,,,,,,,1,1,0.890005,0,8,8,8,1,0,bien,REAL,FAKE,,,,,,,,,,,,,,,,,,,,,,,,,,,,,,,
,,,,,,,midd24,midd,ma,United States,South,13 or older,no,2021-04-02_15h26.11.616,empathy_intonation_perc,2020.2.10,Win32,60,IwAR2BWFmHh49KtaQoCqABniVdCo--boZz-8FSiLmMc1VQvexTV6IuR9Zr7no,,,,,,,,,,1,,,,,,,,,,,,,,,,,,,,,,,,,,,,,,,,1,1,2.33167,0,9,9,9,1,0,casa,REAL,FAKE,,,,,,,,,,,,,,,,,,,,,,,,,,,,,,,
,,,,,,,midd24,midd,ma,United States,South,13 or older,no,2021-04-02_15h26.11.616,empathy_intonation_perc,2020.2.10,Win32,60,IwAR2BWFmHh49KtaQoCqABniVdCo--boZz-8FSiLmMc1VQvexTV6IuR9Zr7no,,,,,,,,,,0,,,,,,,,,,,,,,,,,,,,,,,,,,,,,,,,1,0,2.98152,0,10,10,10,1,0,lejo,REAL,FAKE,,,,,,,,,,,,,,,,,,,,,,,,,,,,,,,
,,,,,,,midd24,midd,ma,United States,South,13 or older,no,2021-04-02_15h26.11.616,empathy_intonation_perc,2020.2.10,Win32,60,IwAR2BWFmHh49KtaQoCqABniVdCo--boZz-8FSiLmMc1VQvexTV6IuR9Zr7no,,,,,,,,,,0,,,,,,,,,,,,,,,,,,,,,,,,,,,,,,,,0,1,2.496325,0,11,11,11,1,0,pretantas,REAL,FAKE,,,,,,,,,,,,,,,,,,,,,,,,,,,,,,,
,,,,,,,midd24,midd,ma,United States,South,13 or older,no,2021-04-02_15h26.11.616,empathy_intonation_perc,2020.2.10,Win32,60,IwAR2BWFmHh49KtaQoCqABniVdCo--boZz-8FSiLmMc1VQvexTV6IuR9Zr7no,,,,,,,,,,1,,,,,,,,,,,,,,,,,,,,,,,,,,,,,,,,,,,,,,,,89,prisa,,,1,1,1.702945,0,0,0,88,1,REAL,FAKE,,,,,,,,,,,,,,,,,,,,,
,,,,,,,midd24,midd,ma,United States,South,13 or older,no,2021-04-02_15h26.11.616,empathy_intonation_perc,2020.2.10,Win32,60,IwAR2BWFmHh49KtaQoCqABniVdCo--boZz-8FSiLmMc1VQvexTV6IuR9Zr7no,,,,,,,,,,1,,,,,,,,,,,,,,,,,,,,,,,,,,,,,,,,,,,,,,,,37,granuja,,,0,0,3.575245,0,1,1,36,1,REAL,FAKE,,,,,,,,,,,,,,,,,,,,,
,,,,,,,midd24,midd,ma,United States,South,13 or older,no,2021-04-02_15h26.11.616,empathy_intonation_perc,2020.2.10,Win32,60,IwAR2BWFmHh49KtaQoCqABniVdCo--boZz-8FSiLmMc1VQvexTV6IuR9Zr7no,,,,,,,,,,1,,,,,,,,,,,,,,,,,,,,,,,,,,,,,,,,,,,,,,,,54,fomentar,,,1,1,1.6425,0,2,2,53,1,REAL,FAKE,,,,,,,,,,,,,,,,,,,,,
,,,,,,,midd24,midd,ma,United States,South,13 or older,no,2021-04-02_15h26.11.616,empathy_intonation_perc,2020.2.10,Win32,60,IwAR2BWFmHh49KtaQoCqABniVdCo--boZz-8FSiLmMc1VQvexTV6IuR9Zr7no,,,,,,,,,,0,,,,,,,,,,,,,,,,,,,,,,,,,,,,,,,,,,,,,,,,82,empirador,,,0,1,1.747005,0,3,3,81,1,REAL,FAKE,,,,,,,,,,,,,,,,,,,,,
,,,,,,,midd24,midd,ma,United States,South,13 or older,no,2021-04-02_15h26.11.616,empathy_intonation_perc,2020.2.10,Win32,60,IwAR2BWFmHh49KtaQoCqABniVdCo--boZz-8FSiLmMc1VQvexTV6IuR9Zr7no,,,,,,,,,,0,,,,,,,,,,,,,,,,,,,,,,,,,,,,,,,,,,,,,,,,32,fatacidad,,,0,1,1.444645,0,4,4,31,1,REAL,FAKE,,,,,,,,,,,,,,,,,,,,,
,,,,,,,midd24,midd,ma,United States,South,13 or older,no,2021-04-02_15h26.11.616,empathy_intonation_perc,2020.2.10,Win32,60,IwAR2BWFmHh49KtaQoCqABniVdCo--boZz-8FSiLmMc1VQvexTV6IuR9Zr7no,,,,,,,,,,1,,,,,,,,,,,,,,,,,,,,,,,,,,,,,,,,,,,,,,,,65,bizcocho,,,1,1,2.062295,0,5,5,64,1,REAL,FAKE,,,,,,,,,,,,,,,,,,,,,
,,,,,,,midd24,midd,ma,United States,South,13 or older,no,2021-04-02_15h26.11.616,empathy_intonation_perc,2020.2.10,Win32,60,IwAR2BWFmHh49KtaQoCqABniVdCo--boZz-8FSiLmMc1VQvexTV6IuR9Zr7no,,,,,,,,,,1,,,,,,,,,,,,,,,,,,,,,,,,,,,,,,,,,,,,,,,,56,musgo,,,0,0,1.293485,0,6,6,55,1,REAL,FAKE,,,,,,,,,,,,,,,,,,,,,
,,,,,,,midd24,midd,ma,United States,South,13 or older,no,2021-04-02_15h26.11.616,empathy_intonation_perc,2020.2.10,Win32,60,IwAR2BWFmHh49KtaQoCqABniVdCo--boZz-8FSiLmMc1VQvexTV6IuR9Zr7no,,,,,,,,,,1,,,,,,,,,,,,,,,,,,,,,,,,,,,,,,,,,,,,,,,,86,barato,,,1,1,0.93646,0,7,7,85,1,REAL,FAKE,,,,,,,,,,,,,,,,,,,,,
,,,,,,,midd24,midd,ma,United States,South,13 or older,no,2021-04-02_15h26.11.616,empathy_intonation_perc,2020.2.10,Win32,60,IwAR2BWFmHh49KtaQoCqABniVdCo--boZz-8FSiLmMc1VQvexTV6IuR9Zr7no,,,,,,,,,,0,,,,,,,,,,,,,,,,,,,,,,,,,,,,,,,,,,,,,,,,50,flamida,,,0,1,1.281455,0,8,8,49,1,REAL,FAKE,,,,,,,,,,,,,,,,,,,,,
,,,,,,,midd24,midd,ma,United States,South,13 or older,no,2021-04-02_15h26.11.616,empathy_intonation_perc,2020.2.10,Win32,60,IwAR2BWFmHh49KtaQoCqABniVdCo--boZz-8FSiLmMc1VQvexTV6IuR9Zr7no,,,,,,,,,,1,,,,,,,,,,,,,,,,,,,,,,,,,,,,,,,,,,,,,,,,22,lacayo,,,0,0,1.3601,0,9,9,21,1,REAL,FAKE,,,,,,,,,,,,,,,,,,,,,
,,,,,,,midd24,midd,ma,United States,South,13 or older,no,2021-04-02_15h26.11.616,empathy_intonation_perc,2020.2.10,Win32,60,IwAR2BWFmHh49KtaQoCqABniVdCo--boZz-8FSiLmMc1VQvexTV6IuR9Zr7no,,,,,,,,,,1,,,,,,,,,,,,,,,,,,,,,,,,,,,,,,,,,,,,,,,,14,yunque,,,1,1,2.459975,0,10,10,13,1,REAL,FAKE,,,,,,,,,,,,,,,,,,,,,
,,,,,,,midd24,midd,ma,United States,South,13 or older,no,2021-04-02_15h26.11.616,empathy_intonation_perc,2020.2.10,Win32,60,IwAR2BWFmHh49KtaQoCqABniVdCo--boZz-8FSiLmMc1VQvexTV6IuR9Zr7no,,,,,,,,,,1,,,,,,,,,,,,,,,,,,,,,,,,,,,,,,,,,,,,,,,,90,clavel,,,0,0,1.440795,0,11,11,89,1,REAL,FAKE,,,,,,,,,,,,,,,,,,,,,
,,,,,,,midd24,midd,ma,United States,South,13 or older,no,2021-04-02_15h26.11.616,empathy_intonation_perc,2020.2.10,Win32,60,IwAR2BWFmHh49KtaQoCqABniVdCo--boZz-8FSiLmMc1VQvexTV6IuR9Zr7no,,,,,,,,,,0,,,,,,,,,,,,,,,,,,,,,,,,,,,,,,,,,,,,,,,,10,antar,,,0,1,1.74007,0,12,12,9,1,REAL,FAKE,,,,,,,,,,,,,,,,,,,,,
,,,,,,,midd24,midd,ma,United States,South,13 or older,no,2021-04-02_15h26.11.616,empathy_intonation_perc,2020.2.10,Win32,60,IwAR2BWFmHh49KtaQoCqABniVdCo--boZz-8FSiLmMc1VQvexTV6IuR9Zr7no,,,,,,,,,,0,,,,,,,,,,,,,,,,,,,,,,,,,,,,,,,,,,,,,,,,42,cadallo,,,0,1,0.926115,0,13,13,41,1,REAL,FAKE,,,,,,,,,,,,,,,,,,,,,
,,,,,,,midd24,midd,ma,United States,South,13 or older,no,2021-04-02_15h26.11.616,empathy_intonation_perc,2020.2.10,Win32,60,IwAR2BWFmHh49KtaQoCqABniVdCo--boZz-8FSiLmMc1VQvexTV6IuR9Zr7no,,,,,,,,,,1,,,,,,,,,,,,,,,,,,,,,,,,,,,,,,,,,,,,,,,,51,candado,,,0,0,1.30391,0,14,14,50,1,REAL,FAKE,,,,,,,,,,,,,,,,,,,,,
,,,,,,,midd24,midd,ma,United States,South,13 or older,no,2021-04-02_15h26.11.616,empathy_intonation_perc,2020.2.10,Win32,60,IwAR2BWFmHh49KtaQoCqABniVdCo--boZz-8FSiLmMc1VQvexTV6IuR9Zr7no,,,,,,,,,,1,,,,,,,,,,,,,,,,,,,,,,,,,,,,,,,,,,,,,,,,62,flaco,,,1,1,1.97646,0,15,15,61,1,REAL,FAKE,,,,,,,,,,,,,,,,,,,,,
,,,,,,,midd24,midd,ma,United States,South,13 or older,no,2021-04-02_15h26.11.616,empathy_intonation_perc,2020.2.10,Win32,60,IwAR2BWFmHh49KtaQoCqABniVdCo--boZz-8FSiLmMc1VQvexTV6IuR9Zr7no,,,,,,,,,,1,,,,,,,,,,,,,,,,,,,,,,,,,,,,,,,,,,,,,,,,31,pandilla,,,0,0,2.456855,0,16,16,30,1,REAL,FAKE,,,,,,,,,,,,,,,,,,,,,
,,,,,,,midd24,midd,ma,United States,South,13 or older,no,2021-04-02_15h26.11.616,empathy_intonation_perc,2020.2.10,Win32,60,IwAR2BWFmHh49KtaQoCqABniVdCo--boZz-8FSiLmMc1VQvexTV6IuR9Zr7no,,,,,,,,,,1,,,,,,,,,,,,,,,,,,,,,,,,,,,,,,,,,,,,,,,,43,canela,,,1,1,1.189245,0,17,17,42,1,REAL,FAKE,,,,,,,,,,,,,,,,,,,,,
,,,,,,,midd24,midd,ma,United States,South,13 or older,no,2021-04-02_15h26.11.616,empathy_intonation_perc,2020.2.10,Win32,60,IwAR2BWFmHh49KtaQoCqABniVdCo--boZz-8FSiLmMc1VQvexTV6IuR9Zr7no,,,,,,,,,,1,,,,,,,,,,,,,,,,,,,,,,,,,,,,,,,,,,,,,,,,6,tergiversar,,,0,0,1.64629,0,18,18,5,1,REAL,FAKE,,,,,,,,,,,,,,,,,,,,,
,,,,,,,midd24,midd,ma,United States,South,13 or older,no,2021-04-02_15h26.11.616,empathy_intonation_perc,2020.2.10,Win32,60,IwAR2BWFmHh49KtaQoCqABniVdCo--boZz-8FSiLmMc1VQvexTV6IuR9Zr7no,,,,,,,,,,1,,,,,,,,,,,,,,,,,,,,,,,,,,,,,,,,,,,,,,,,83,guante,,,0,0,2.675605,0,19,19,82,1,REAL,FAKE,,,,,,,,,,,,,,,,,,,,,
,,,,,,,midd24,midd,ma,United States,South,13 or older,no,2021-04-02_15h26.11.616,empathy_intonation_perc,2020.2.10,Win32,60,IwAR2BWFmHh49KtaQoCqABniVdCo--boZz-8FSiLmMc1VQvexTV6IuR9Zr7no,,,,,,,,,,0,,,,,,,,,,,,,,,,,,,,,,,,,,,,,,,,,,,,,,,,66,hacido,,,0,1,0.94057,0,20,20,65,1,REAL,FAKE,,,,,,,,,,,,,,,,,,,,,
,,,,,,,midd24,midd,ma,United States,South,13 or older,no,2021-04-02_15h26.11.616,empathy_intonation_perc,2020.2.10,Win32,60,IwAR2BWFmHh49KtaQoCqABniVdCo--boZz-8FSiLmMc1VQvexTV6IuR9Zr7no,,,,,,,,,,1,,,,,,,,,,,,,,,,,,,,,,,,,,,,,,,,,,,,,,,,46,martillo,,,0,0,3.368245,0,21,21,45,1,REAL,FAKE,,,,,,,,,,,,,,,,,,,,,
,,,,,,,midd24,midd,ma,United States,South,13 or older,no,2021-04-02_15h26.11.616,empathy_intonation_perc,2020.2.10,Win32,60,IwAR2BWFmHh49KtaQoCqABniVdCo--boZz-8FSiLmMc1VQvexTV6IuR9Zr7no,,,,,,,,,,1,,,,,,,,,,,,,,,,,,,,,,,,,,,,,,,,,,,,,,,,9,hacha,,,0,0,5.36078,0,22,22,8,1,REAL,FAKE,,,,,,,,,,,,,,,,,,,,,
,,,,,,,midd24,midd,ma,United States,South,13 or older,no,2021-04-02_15h26.11.616,empathy_intonation_perc,2020.2.10,Win32,60,IwAR2BWFmHh49KtaQoCqABniVdCo--boZz-8FSiLmMc1VQvexTV6IuR9Zr7no,,,,,,,,,,1,,,,,,,,,,,,,,,,,,,,,,,,,,,,,,,,,,,,,,,,81,pozo,,,1,1,1.62316,0,23,23,80,1,REAL,FAKE,,,,,,,,,,,,,,,,,,,,,
,,,,,,,midd24,midd,ma,United States,South,13 or older,no,2021-04-02_15h26.11.616,empathy_intonation_perc,2020.2.10,Win32,60,IwAR2BWFmHh49KtaQoCqABniVdCo--boZz-8FSiLmMc1VQvexTV6IuR9Zr7no,,,,,,,,,,1,,,,,,,,,,,,,,,,,,,,,,,,,,,,,,,,,,,,,,,,12,asesinato,,,1,1,1.9916,0,24,24,11,1,REAL,FAKE,,,,,,,,,,,,,,,,,,,,,
,,,,,,,midd24,midd,ma,United States,South,13 or older,no,2021-04-02_15h26.11.616,empathy_intonation_perc,2020.2.10,Win32,60,IwAR2BWFmHh49KtaQoCqABniVdCo--boZz-8FSiLmMc1VQvexTV6IuR9Zr7no,,,,,,,,,,0,,,,,,,,,,,,,,,,,,,,,,,,,,,,,,,,,,,,,,,,35,rompido,,,1,0,1.138385,0,25,25,34,1,REAL,FAKE,,,,,,,,,,,,,,,,,,,,,
,,,,,,,midd24,midd,ma,United States,South,13 or older,no,2021-04-02_15h26.11.616,empathy_intonation_perc,2020.2.10,Win32,60,IwAR2BWFmHh49KtaQoCqABniVdCo--boZz-8FSiLmMc1VQvexTV6IuR9Zr7no,,,,,,,,,,0,,,,,,,,,,,,,,,,,,,,,,,,,,,,,,,,,,,,,,,,27,acutacin,,,0,1,4.66788,0,26,26,26,1,REAL,FAKE,,,,,,,,,,,,,,,,,,,,,
,,,,,,,midd24,midd,ma,United States,South,13 or older,no,2021-04-02_15h26.11.616,empathy_intonation_perc,2020.2.10,Win32,60,IwAR2BWFmHh49KtaQoCqABniVdCo--boZz-8FSiLmMc1VQvexTV6IuR9Zr7no,,,,,,,,,,1,,,,,,,,,,,,,,,,,,,,,,,,,,,,,,,,,,,,,,,,85,lad,,,0,0,1.38952,0,27,27,84,1,REAL,FAKE,,,,,,,,,,,,,,,,,,,,,
,,,,,,,midd24,midd,ma,United States,South,13 or older,no,2021-04-02_15h26.11.616,empathy_intonation_perc,2020.2.10,Win32,60,IwAR2BWFmHh49KtaQoCqABniVdCo--boZz-8FSiLmMc1VQvexTV6IuR9Zr7no,,,,,,,,,,1,,,,,,,,,,,,,,,,,,,,,,,,,,,,,,,,,,,,,,,,52,camisa,,,1,1,1.17338,0,28,28,51,1,REAL,FAKE,,,,,,,,,,,,,,,,,,,,,
,,,,,,,midd24,midd,ma,United States,South,13 or older,no,2021-04-02_15h26.11.616,empathy_intonation_perc,2020.2.10,Win32,60,IwAR2BWFmHh49KtaQoCqABniVdCo--boZz-8FSiLmMc1VQvexTV6IuR9Zr7no,,,,,,,,,,1,,,,,,,,,,,,,,,,,,,,,,,,,,,,,,,,,,,,,,,,88,acantilado,,,0,0,10.420355,0,29,29,87,1,REAL,FAKE,,,,,,,,,,,,,,,,,,,,,
,,,,,,,midd24,midd,ma,United States,South,13 or older,no,2021-04-02_15h26.11.616,empathy_intonation_perc,2020.2.10,Win32,60,IwAR2BWFmHh49KtaQoCqABniVdCo--boZz-8FSiLmMc1VQvexTV6IuR9Zr7no,,,,,,,,,,1,,,,,,,,,,,,,,,,,,,,,,,,,,,,,,,,,,,,,,,,55,nevar,,,1,1,1.036555,0,30,30,54,1,REAL,FAKE,,,,,,,,,,,,,,,,,,,,,
,,,,,,,midd24,midd,ma,United States,South,13 or older,no,2021-04-02_15h26.11.616,empathy_intonation_perc,2020.2.10,Win32,60,IwAR2BWFmHh49KtaQoCqABniVdCo--boZz-8FSiLmMc1VQvexTV6IuR9Zr7no,,,,,,,,,,1,,,,,,,,,,,,,,,,,,,,,,,,,,,,,,,,,,,,,,,,77,tiburn,,,1,1,0.95581,0,31,31,76,1,REAL,FAKE,,,,,,,,,,,,,,,,,,,,,
,,,,,,,midd24,midd,ma,United States,South,13 or older,no,2021-04-02_15h26.11.616,empathy_intonation_perc,2020.2.10,Win32,60,IwAR2BWFmHh49KtaQoCqABniVdCo--boZz-8FSiLmMc1VQvexTV6IuR9Zr7no,,,,,,,,,,1,,,,,,,,,,,,,,,,,,,,,,,,,,,,,,,,,,,,,,,,40,alfombra,,,1,1,0.990795,0,32,32,39,1,REAL,FAKE,,,,,,,,,,,,,,,,,,,,,
,,,,,,,midd24,midd,ma,United States,South,13 or older,no,2021-04-02_15h26.11.616,empathy_intonation_perc,2020.2.10,Win32,60,IwAR2BWFmHh49KtaQoCqABniVdCo--boZz-8FSiLmMc1VQvexTV6IuR9Zr7no,,,,,,,,,,0,,,,,,,,,,,,,,,,,,,,,,,,,,,,,,,,,,,,,,,,33,pauca,,,0,1,1.47582,0,33,33,32,1,REAL,FAKE,,,,,,,,,,,,,,,,,,,,,
,,,,,,,midd24,midd,ma,United States,South,13 or older,no,2021-04-02_15h26.11.616,empathy_intonation_perc,2020.2.10,Win32,60,IwAR2BWFmHh49KtaQoCqABniVdCo--boZz-8FSiLmMc1VQvexTV6IuR9Zr7no,,,,,,,,,,1,,,,,,,,,,,,,,,,,,,,,,,,,,,,,,,,,,,,,,,,71,polvoriento,,,0,0,2.022685,0,34,34,70,1,REAL,FAKE,,,,,,,,,,,,,,,,,,,,,
,,,,,,,midd24,midd,ma,United States,South,13 or older,no,2021-04-02_15h26.11.616,empathy_intonation_perc,2020.2.10,Win32,60,IwAR2BWFmHh49KtaQoCqABniVdCo--boZz-8FSiLmMc1VQvexTV6IuR9Zr7no,,,,,,,,,,1,,,,,,,,,,,,,,,,,,,,,,,,,,,,,,,,,,,,,,,,73,hervidor,,,0,0,2.314345,0,35,35,72,1,REAL,FAKE,,,,,,,,,,,,,,,,,,,,,
,,,,,,,midd24,midd,ma,United States,South,13 or older,no,2021-04-02_15h26.11.616,empathy_intonation_perc,2020.2.10,Win32,60,IwAR2BWFmHh49KtaQoCqABniVdCo--boZz-8FSiLmMc1VQvexTV6IuR9Zr7no,,,,,,,,,,0,,,,,,,,,,,,,,,,,,,,,,,,,,,,,,,,,,,,,,,,84,escuto,,,0,1,0.97115,0,36,36,83,1,REAL,FAKE,,,,,,,,,,,,,,,,,,,,,
,,,,,,,midd24,midd,ma,United States,South,13 or older,no,2021-04-02_15h26.11.616,empathy_intonation_perc,2020.2.10,Win32,60,IwAR2BWFmHh49KtaQoCqABniVdCo--boZz-8FSiLmMc1VQvexTV6IuR9Zr7no,,,,,,,,,,1,,,,,,,,,,,,,,,,,,,,,,,,,,,,,,,,,,,,,,,,68,alegre,,,1,1,0.846855,0,37,37,67,1,REAL,FAKE,,,,,,,,,,,,,,,,,,,,,
,,,,,,,midd24,midd,ma,United States,South,13 or older,no,2021-04-02_15h26.11.616,empathy_intonation_perc,2020.2.10,Win32,60,IwAR2BWFmHh49KtaQoCqABniVdCo--boZz-8FSiLmMc1VQvexTV6IuR9Zr7no,,,,,,,,,,0,,,,,,,,,,,,,,,,,,,,,,,,,,,,,,,,,,,,,,,,17,floroso,,,0,1,1.891785,0,38,38,16,1,REAL,FAKE,,,,,,,,,,,,,,,,,,,,,
,,,,,,,midd24,midd,ma,United States,South,13 or older,no,2021-04-02_15h26.11.616,empathy_intonation_perc,2020.2.10,Win32,60,IwAR2BWFmHh49KtaQoCqABniVdCo--boZz-8FSiLmMc1VQvexTV6IuR9Zr7no,,,,,,,,,,1,,,,,,,,,,,,,,,,,,,,,,,,,,,,,,,,,,,,,,,,61,seda,,,1,1,1.464665,0,39,39,60,1,REAL,FAKE,,,,,,,,,,,,,,,,,,,,,
,,,,,,,midd24,midd,ma,United States,South,13 or older,no,2021-04-02_15h26.11.616,empathy_intonation_perc,2020.2.10,Win32,60,IwAR2BWFmHh49KtaQoCqABniVdCo--boZz-8FSiLmMc1VQvexTV6IuR9Zr7no,,,,,,,,,,1,,,,,,,,,,,,,,,,,,,,,,,,,,,,,,,,,,,,,,,,60,matar,,,1,1,1.00161,0,40,40,59,1,REAL,FAKE,,,,,,,,,,,,,,,,,,,,,
,,,,,,,midd24,midd,ma,United States,South,13 or older,no,2021-04-02_15h26.11.616,empathy_intonation_perc,2020.2.10,Win32,60,IwAR2BWFmHh49KtaQoCqABniVdCo--boZz-8FSiLmMc1VQvexTV6IuR9Zr7no,,,,,,,,,,0,,,,,,,,,,,,,,,,,,,,,,,,,,,,,,,,,,,,,,,,74,cintro,,,0,1,2.506795,0,41,41,73,1,REAL,FAKE,,,,,,,,,,,,,,,,,,,,,
,,,,,,,midd24,midd,ma,United States,South,13 or older,no,2021-04-02_15h26.11.616,empathy_intonation_perc,2020.2.10,Win32,60,IwAR2BWFmHh49KtaQoCqABniVdCo--boZz-8FSiLmMc1VQvexTV6IuR9Zr7no,,,,,,,,,,1,,,,,,,,,,,,,,,,,,,,,,,,,,,,,,,,,,,,,,,,78,frondoso,,,0,0,1.20131,0,42,42,77,1,REAL,FAKE,,,,,,,,,,,,,,,,,,,,,
,,,,,,,midd24,midd,ma,United States,South,13 or older,no,2021-04-02_15h26.11.616,empathy_intonation_perc,2020.2.10,Win32,60,IwAR2BWFmHh49KtaQoCqABniVdCo--boZz-8FSiLmMc1VQvexTV6IuR9Zr7no,,,,,,,,,,0,,,,,,,,,,,,,,,,,,,,,,,,,,,,,,,,,,,,,,,,63,esposante,,,1,0,2.63104,0,43,43,62,1,REAL,FAKE,,,,,,,,,,,,,,,,,,,,,
,,,,,,,midd24,midd,ma,United States,South,13 or older,no,2021-04-02_15h26.11.616,empathy_intonation_perc,2020.2.10,Win32,60,IwAR2BWFmHh49KtaQoCqABniVdCo--boZz-8FSiLmMc1VQvexTV6IuR9Zr7no,,,,,,,,,,1,,,,,,,,,,,,,,,,,,,,,,,,,,,,,,,,,,,,,,,,3,pulmones,,,1,1,1.54739,0,44,44,2,1,REAL,FAKE,,,,,,,,,,,,,,,,,,,,,
,,,,,,,midd24,midd,ma,United States,South,13 or older,no,2021-04-02_15h26.11.616,empathy_intonation_perc,2020.2.10,Win32,60,IwAR2BWFmHh49KtaQoCqABniVdCo--boZz-8FSiLmMc1VQvexTV6IuR9Zr7no,,,,,,,,,,0,,,,,,,,,,,,,,,,,,,,,,,,,,,,,,,,,,,,,,,,1,terzo,,,0,1,0.77237,0,45,45,0,1,REAL,FAKE,,,,,,,,,,,,,,,,,,,,,
,,,,,,,midd24,midd,ma,United States,South,13 or older,no,2021-04-02_15h26.11.616,empathy_intonation_perc,2020.2.10,Win32,60,IwAR2BWFmHh49KtaQoCqABniVdCo--boZz-8FSiLmMc1VQvexTV6IuR9Zr7no,,,,,,,,,,1,,,,,,,,,,,,,,,,,,,,,,,,,,,,,,,,,,,,,,,,64,orgulloso,,,1,1,0.84696,0,46,46,63,1,REAL,FAKE,,,,,,,,,,,,,,,,,,,,,
,,,,,,,midd24,midd,ma,United States,South,13 or older,no,2021-04-02_15h26.11.616,empathy_intonation_perc,2020.2.10,Win32,60,IwAR2BWFmHh49KtaQoCqABniVdCo--boZz-8FSiLmMc1VQvexTV6IuR9Zr7no,,,,,,,,,,1,,,,,,,,,,,,,,,,,,,,,,,,,,,,,,,,,,,,,,,,20,vido,,,0,0,4.019115,0,47,47,19,1,REAL,FAKE,,,,,,,,,,,,,,,,,,,,,
,,,,,,,midd24,midd,ma,United States,South,13 or older,no,2021-04-02_15h26.11.616,empathy_intonation_perc,2020.2.10,Win32,60,IwAR2BWFmHh49KtaQoCqABniVdCo--boZz-8FSiLmMc1VQvexTV6IuR9Zr7no,,,,,,,,,,1,,,,,,,,,,,,,,,,,,,,,,,,,,,,,,,,,,,,,,,,24,ltigo,,,1,1,1.604785,0,48,48,23,1,REAL,FAKE,,,,,,,,,,,,,,,,,,,,,
,,,,,,,midd24,midd,ma,United States,South,13 or older,no,2021-04-02_15h26.11.616,empathy_intonation_perc,2020.2.10,Win32,60,IwAR2BWFmHh49KtaQoCqABniVdCo--boZz-8FSiLmMc1VQvexTV6IuR9Zr7no,,,,,,,,,,0,,,,,,,,,,,,,,,,,,,,,,,,,,,,,,,,,,,,,,,,58,plaudir,,,0,1,1.96705,0,49,49,57,1,REAL,FAKE,,,,,,,,,,,,,,,,,,,,,
,,,,,,,midd24,midd,ma,United States,South,13 or older,no,2021-04-02_15h26.11.616,empathy_intonation_perc,2020.2.10,Win32,60,IwAR2BWFmHh49KtaQoCqABniVdCo--boZz-8FSiLmMc1VQvexTV6IuR9Zr7no,,,,,,,,,,1,,,,,,,,,,,,,,,,,,,,,,,,,,,,,,,,,,,,,,,,59,besar,,,1,1,1.105035,0,50,50,58,1,REAL,FAKE,,,,,,,,,,,,,,,,,,,,,
,,,,,,,midd24,midd,ma,United States,South,13 or older,no,2021-04-02_15h26.11.616,empathy_intonation_perc,2020.2.10,Win32,60,IwAR2BWFmHh49KtaQoCqABniVdCo--boZz-8FSiLmMc1VQvexTV6IuR9Zr7no,,,,,,,,,,1,,,,,,,,,,,,,,,,,,,,,,,,,,,,,,,,,,,,,,,,75,yacer,,,1,1,4.95594,0,51,51,74,1,REAL,FAKE,,,,,,,,,,,,,,,,,,,,,
,,,,,,,midd24,midd,ma,United States,South,13 or older,no,2021-04-02_15h26.11.616,empathy_intonation_perc,2020.2.10,Win32,60,IwAR2BWFmHh49KtaQoCqABniVdCo--boZz-8FSiLmMc1VQvexTV6IuR9Zr7no,,,,,,,,,,1,,,,,,,,,,,,,,,,,,,,,,,,,,,,,,,,,,,,,,,,49,ganar,,,1,1,0.897495,0,52,52,48,1,REAL,FAKE,,,,,,,,,,,,,,,,,,,,,
,,,,,,,midd24,midd,ma,United States,South,13 or older,no,2021-04-02_15h26.11.616,empathy_intonation_perc,2020.2.10,Win32,60,IwAR2BWFmHh49KtaQoCqABniVdCo--boZz-8FSiLmMc1VQvexTV6IuR9Zr7no,,,,,,,,,,0,,,,,,,,,,,,,,,,,,,,,,,,,,,,,,,,,,,,,,,,29,decar,,,0,1,1.661265,0,53,53,28,1,REAL,FAKE,,,,,,,,,,,,,,,,,,,,,
,,,,,,,midd24,midd,ma,United States,South,13 or older,no,2021-04-02_15h26.11.616,empathy_intonation_perc,2020.2.10,Win32,60,IwAR2BWFmHh49KtaQoCqABniVdCo--boZz-8FSiLmMc1VQvexTV6IuR9Zr7no,,,,,,,,,,1,,,,,,,,,,,,,,,,,,,,,,,,,,,,,,,,,,,,,,,,25,bisagra,,,0,0,1.500015,0,54,54,24,1,REAL,FAKE,,,,,,,,,,,,,,,,,,,,,
,,,,,,,midd24,midd,ma,United States,South,13 or older,no,2021-04-02_15h26.11.616,empathy_intonation_perc,2020.2.10,Win32,60,IwAR2BWFmHh49KtaQoCqABniVdCo--boZz-8FSiLmMc1VQvexTV6IuR9Zr7no,,,,,,,,,,0,,,,,,,,,,,,,,,,,,,,,,,,,,,,,,,,,,,,,,,,70,temblo,,,0,1,2.09664,0,55,55,69,1,REAL,FAKE,,,,,,,,,,,,,,,,,,,,,
,,,,,,,midd24,midd,ma,United States,South,13 or older,no,2021-04-02_15h26.11.616,empathy_intonation_perc,2020.2.10,Win32,60,IwAR2BWFmHh49KtaQoCqABniVdCo--boZz-8FSiLmMc1VQvexTV6IuR9Zr7no,,,,,,,,,,0,,,,,,,,,,,,,,,,,,,,,,,,,,,,,,,,,,,,,,,,19,brecedad,,,0,1,1.984785,0,56,56,18,1,REAL,FAKE,,,,,,,,,,,,,,,,,,,,,
,,,,,,,midd24,midd,ma,United States,South,13 or older,no,2021-04-02_15h26.11.616,empathy_intonation_perc,2020.2.10,Win32,60,IwAR2BWFmHh49KtaQoCqABniVdCo--boZz-8FSiLmMc1VQvexTV6IuR9Zr7no,,,,,,,,,,1,,,,,,,,,,,,,,,,,,,,,,,,,,,,,,,,,,,,,,,,11,cenefa,,,0,0,2.8188,0,57,57,10,1,REAL,FAKE,,,,,,,,,,,,,,,,,,,,,
,,,,,,,midd24,midd,ma,United States,South,13 or older,no,2021-04-02_15h26.11.616,empathy_intonation_perc,2020.2.10,Win32,60,IwAR2BWFmHh49KtaQoCqABniVdCo--boZz-8FSiLmMc1VQvexTV6IuR9Zr7no,,,,,,,,,,0,,,,,,,,,,,,,,,,,,,,,,,,,,,,,,,,,,,,,,,,72,pemicin,,,0,1,1.280615,0,58,58,71,1,REAL,FAKE,,,,,,,,,,,,,,,,,,,,,
,,,,,,,midd24,midd,ma,United States,South,13 or older,no,2021-04-02_15h26.11.616,empathy_intonation_perc,2020.2.10,Win32,60,IwAR2BWFmHh49KtaQoCqABniVdCo--boZz-8FSiLmMc1VQvexTV6IuR9Zr7no,,,,,,,,,,0,,,,,,,,,,,,,,,,,,,,,,,,,,,,,,,,,,,,,,,,8,cadea,,,0,1,3.03464,0,59,59,7,1,REAL,FAKE,,,,,,,,,,,,,,,,,,,,,
,,,,,,,midd24,midd,ma,United States,South,13 or older,no,2021-04-02_15h26.11.616,empathy_intonation_perc,2020.2.10,Win32,60,IwAR2BWFmHh49KtaQoCqABniVdCo--boZz-8FSiLmMc1VQvexTV6IuR9Zr7no,,,,,,,,,,0,,,,,,,,,,,,,,,,,,,,,,,,,,,,,,,,,,,,,,,,4,batilln,,,0,1,1.101695,0,60,60,3,1,REAL,FAKE,,,,,,,,,,,,,,,,,,,,,
,,,,,,,midd24,midd,ma,United States,South,13 or older,no,2021-04-02_15h26.11.616,empathy_intonation_perc,2020.2.10,Win32,60,IwAR2BWFmHh49KtaQoCqABniVdCo--boZz-8FSiLmMc1VQvexTV6IuR9Zr7no,,,,,,,,,,1,,,,,,,,,,,,,,,,,,,,,,,,,,,,,,,,,,,,,,,,80,hormiga,,,1,1,2.201875,0,61,61,79,1,REAL,FAKE,,,,,,,,,,,,,,,,,,,,,
,,,,,,,midd24,midd,ma,United States,South,13 or older,no,2021-04-02_15h26.11.616,empathy_intonation_perc,2020.2.10,Win32,60,IwAR2BWFmHh49KtaQoCqABniVdCo--boZz-8FSiLmMc1VQvexTV6IuR9Zr7no,,,,,,,,,,1,,,,,,,,,,,,,,,,,,,,,,,,,,,,,,,,,,,,,,,,76,atar,,,1,1,1.85639,0,62,62,75,1,REAL,FAKE,,,,,,,,,,,,,,,,,,,,,
,,,,,,,midd24,midd,ma,United States,South,13 or older,no,2021-04-02_15h26.11.616,empathy_intonation_perc,2020.2.10,Win32,60,IwAR2BWFmHh49KtaQoCqABniVdCo--boZz-8FSiLmMc1VQvexTV6IuR9Zr7no,,,,,,,,,,1,,,,,,,,,,,,,,,,,,,,,,,,,,,,,,,,,,,,,,,,39,torpe,,,1,1,2.4183,0,63,63,38,1,REAL,FAKE,,,,,,,,,,,,,,,,,,,,,
,,,,,,,midd24,midd,ma,United States,South,13 or older,no,2021-04-02_15h26.11.616,empathy_intonation_perc,2020.2.10,Win32,60,IwAR2BWFmHh49KtaQoCqABniVdCo--boZz-8FSiLmMc1VQvexTV6IuR9Zr7no,,,,,,,,,,1,,,,,,,,,,,,,,,,,,,,,,,,,,,,,,,,,,,,,,,,57,tacao,,,1,1,1.015245,0,64,64,56,1,REAL,FAKE,,,,,,,,,,,,,,,,,,,,,
,,,,,,,midd24,midd,ma,United States,South,13 or older,no,2021-04-02_15h26.11.616,empathy_intonation_perc,2020.2.10,Win32,60,IwAR2BWFmHh49KtaQoCqABniVdCo--boZz-8FSiLmMc1VQvexTV6IuR9Zr7no,,,,,,,,,,1,,,,,,,,,,,,,,,,,,,,,,,,,,,,,,,,,,,,,,,,2,pellizcar,,,0,0,3.15532,0,65,65,1,1,REAL,FAKE,,,,,,,,,,,,,,,,,,,,,
,,,,,,,midd24,midd,ma,United States,South,13 or older,no,2021-04-02_15h26.11.616,empathy_intonation_perc,2020.2.10,Win32,60,IwAR2BWFmHh49KtaQoCqABniVdCo--boZz-8FSiLmMc1VQvexTV6IuR9Zr7no,,,,,,,,,,1,,,,,,,,,,,,,,,,,,,,,,,,,,,,,,,,,,,,,,,,7,psimo,,,1,1,4.215285,0,66,66,6,1,REAL,FAKE,,,,,,,,,,,,,,,,,,,,,
,,,,,,,midd24,midd,ma,United States,South,13 or older,no,2021-04-02_15h26.11.616,empathy_intonation_perc,2020.2.10,Win32,60,IwAR2BWFmHh49KtaQoCqABniVdCo--boZz-8FSiLmMc1VQvexTV6IuR9Zr7no,,,,,,,,,,0,,,,,,,,,,,,,,,,,,,,,,,,,,,,,,,,,,,,,,,,87,grodo,,,0,1,3.30403,0,67,67,86,1,REAL,FAKE,,,,,,,,,,,,,,,,,,,,,
,,,,,,,midd24,midd,ma,United States,South,13 or older,no,2021-04-02_15h26.11.616,empathy_intonation_perc,2020.2.10,Win32,60,IwAR2BWFmHh49KtaQoCqABniVdCo--boZz-8FSiLmMc1VQvexTV6IuR9Zr7no,,,,,,,,,,1,,,,,,,,,,,,,,,,,,,,,,,,,,,,,,,,,,,,,,,,28,merodear,,,0,0,1.772795,0,68,68,27,1,REAL,FAKE,,,,,,,,,,,,,,,,,,,,,
,,,,,,,midd24,midd,ma,United States,South,13 or older,no,2021-04-02_15h26.11.616,empathy_intonation_perc,2020.2.10,Win32,60,IwAR2BWFmHh49KtaQoCqABniVdCo--boZz-8FSiLmMc1VQvexTV6IuR9Zr7no,,,,,,,,,,1,,,,,,,,,,,,,,,,,,,,,,,,,,,,,,,,,,,,,,,,67,cabello,,,1,1,0.85221,0,69,69,66,1,REAL,FAKE,,,,,,,,,,,,,,,,,,,,,
,,,,,,,midd24,midd,ma,United States,South,13 or older,no,2021-04-02_15h26.11.616,empathy_intonation_perc,2020.2.10,Win32,60,IwAR2BWFmHh49KtaQoCqABniVdCo--boZz-8FSiLmMc1VQvexTV6IuR9Zr7no,,,,,,,,,,0,,,,,,,,,,,,,,,,,,,,,,,,,,,,,,,,,,,,,,,,16,abracer,,,1,0,1.116925,0,70,70,15,1,REAL,FAKE,,,,,,,,,,,,,,,,,,,,,
,,,,,,,midd24,midd,ma,United States,South,13 or older,no,2021-04-02_15h26.11.616,empathy_intonation_perc,2020.2.10,Win32,60,IwAR2BWFmHh49KtaQoCqABniVdCo--boZz-8FSiLmMc1VQvexTV6IuR9Zr7no,,,,,,,,,,1,,,,,,,,,,,,,,,,,,,,,,,,,,,,,,,,,,,,,,,,13,helar,,,1,1,2.38538,0,71,71,12,1,REAL,FAKE,,,,,,,,,,,,,,,,,,,,,
,,,,,,,midd24,midd,ma,United States,South,13 or older,no,2021-04-02_15h26.11.616,empathy_intonation_perc,2020.2.10,Win32,60,IwAR2BWFmHh49KtaQoCqABniVdCo--boZz-8FSiLmMc1VQvexTV6IuR9Zr7no,,,,,,,,,,1,,,,,,,,,,,,,,,,,,,,,,,,,,,,,,,,,,,,,,,,45,jilguero,,,0,0,1.538195,0,72,72,44,1,REAL,FAKE,,,,,,,,,,,,,,,,,,,,,
,,,,,,,midd24,midd,ma,United States,South,13 or older,no,2021-04-02_15h26.11.616,empathy_intonation_perc,2020.2.10,Win32,60,IwAR2BWFmHh49KtaQoCqABniVdCo--boZz-8FSiLmMc1VQvexTV6IuR9Zr7no,,,,,,,,,,0,,,,,,,,,,,,,,,,,,,,,,,,,,,,,,,,,,,,,,,,53,vegada,,,0,1,2.46216,0,73,73,52,1,REAL,FAKE,,,,,,,,,,,,,,,,,,,,,
,,,,,,,midd24,midd,ma,United States,South,13 or older,no,2021-04-02_15h26.11.616,empathy_intonation_perc,2020.2.10,Win32,60,IwAR2BWFmHh49KtaQoCqABniVdCo--boZz-8FSiLmMc1VQvexTV6IuR9Zr7no,,,,,,,,,,1,,,,,,,,,,,,,,,,,,,,,,,,,,,,,,,,,,,,,,,,41,rebuscar,,,0,0,5.953135,0,74,74,40,1,REAL,FAKE,,,,,,,,,,,,,,,,,,,,,
,,,,,,,midd24,midd,ma,United States,South,13 or older,no,2021-04-02_15h26.11.616,empathy_intonation_perc,2020.2.10,Win32,60,IwAR2BWFmHh49KtaQoCqABniVdCo--boZz-8FSiLmMc1VQvexTV6IuR9Zr7no,,,,,,,,,,1,,,,,,,,,,,,,,,,,,,,,,,,,,,,,,,,,,,,,,,,34,aviso,,,1,1,0.927595,0,75,75,33,1,REAL,FAKE,,,,,,,,,,,,,,,,,,,,,
,,,,,,,midd24,midd,ma,United States,South,13 or older,no,2021-04-02_15h26.11.616,empathy_intonation_perc,2020.2.10,Win32,60,IwAR2BWFmHh49KtaQoCqABniVdCo--boZz-8FSiLmMc1VQvexTV6IuR9Zr7no,,,,,,,,,,0,,,,,,,,,,,,,,,,,,,,,,,,,,,,,,,,,,,,,,,,47,cartinar,,,0,1,1.328685,0,76,76,46,1,REAL,FAKE,,,,,,,,,,,,,,,,,,,,,
,,,,,,,midd24,midd,ma,United States,South,13 or older,no,2021-04-02_15h26.11.616,empathy_intonation_perc,2020.2.10,Win32,60,IwAR2BWFmHh49KtaQoCqABniVdCo--boZz-8FSiLmMc1VQvexTV6IuR9Zr7no,,,,,,,,,,1,,,,,,,,,,,,,,,,,,,,,,,,,,,,,,,,,,,,,,,,26,secuestro,,,1,1,4.487805,0,77,77,25,1,REAL,FAKE,,,,,,,,,,,,,,,,,,,,,
,,,,,,,midd24,midd,ma,United States,South,13 or older,no,2021-04-02_15h26.11.616,empathy_intonation_perc,2020.2.10,Win32,60,IwAR2BWFmHh49KtaQoCqABniVdCo--boZz-8FSiLmMc1VQvexTV6IuR9Zr7no,,,,,,,,,,0,,,,,,,,,,,,,,,,,,,,,,,,,,,,,,,,,,,,,,,,79,tropaje,,,1,0,2.288095,0,78,78,78,1,REAL,FAKE,,,,,,,,,,,,,,,,,,,,,
,,,,,,,midd24,midd,ma,United States,South,13 or older,no,2021-04-02_15h26.11.616,empathy_intonation_perc,2020.2.10,Win32,60,IwAR2BWFmHh49KtaQoCqABniVdCo--boZz-8FSiLmMc1VQvexTV6IuR9Zr7no,,,,,,,,,,0,,,,,,,,,,,,,,,,,,,,,,,,,,,,,,,,,,,,,,,,30,alardio,,,0,1,1.01406,0,79,79,29,1,REAL,FAKE,,,,,,,,,,,,,,,,,,,,,
,,,,,,,midd24,midd,ma,United States,South,13 or older,no,2021-04-02_15h26.11.616,empathy_intonation_perc,2020.2.10,Win32,60,IwAR2BWFmHh49KtaQoCqABniVdCo--boZz-8FSiLmMc1VQvexTV6IuR9Zr7no,,,,,,,,,,1,,,,,,,,,,,,,,,,,,,,,,,,,,,,,,,,,,,,,,,,38,estornudar,,,1,1,1.52243,0,80,80,37,1,REAL,FAKE,,,,,,,,,,,,,,,,,,,,,
,,,,,,,midd24,midd,ma,United States,South,13 or older,no,2021-04-02_15h26.11.616,empathy_intonation_perc,2020.2.10,Win32,60,IwAR2BWFmHh49KtaQoCqABniVdCo--boZz-8FSiLmMc1VQvexTV6IuR9Zr7no,,,,,,,,,,1,,,,,,,,,,,,,,,,,,,,,,,,,,,,,,,,,,,,,,,,36,loro,,,0,0,0.97248,0,81,81,35,1,REAL,FAKE,,,,,,,,,,,,,,,,,,,,,
,,,,,,,midd24,midd,ma,United States,South,13 or older,no,2021-04-02_15h26.11.616,empathy_intonation_perc,2020.2.10,Win32,60,IwAR2BWFmHh49KtaQoCqABniVdCo--boZz-8FSiLmMc1VQvexTV6IuR9Zr7no,,,,,,,,,,0,,,,,,,,,,,,,,,,,,,,,,,,,,,,,,,,,,,,,,,,18,arsa,,,0,1,1.231855,0,82,82,17,1,REAL,FAKE,,,,,,,,,,,,,,,,,,,,,
,,,,,,,midd24,midd,ma,United States,South,13 or older,no,2021-04-02_15h26.11.616,empathy_intonation_perc,2020.2.10,Win32,60,IwAR2BWFmHh49KtaQoCqABniVdCo--boZz-8FSiLmMc1VQvexTV6IuR9Zr7no,,,,,,,,,,1,,,,,,,,,,,,,,,,,,,,,,,,,,,,,,,,,,,,,,,,44,cuchara,,,1,1,0.952225,0,83,83,43,1,REAL,FAKE,,,,,,,,,,,,,,,,,,,,,
,,,,,,,midd24,midd,ma,United States,South,13 or older,no,2021-04-02_15h26.11.616,empathy_intonation_perc,2020.2.10,Win32,60,IwAR2BWFmHh49KtaQoCqABniVdCo--boZz-8FSiLmMc1VQvexTV6IuR9Zr7no,,,,,,,,,,0,,,,,,,,,,,,,,,,,,,,,,,,,,,,,,,,,,,,,,,,23,lampera,,,0,1,1.02301,0,84,84,22,1,REAL,FAKE,,,,,,,,,,,,,,,,,,,,,
,,,,,,,midd24,midd,ma,United States,South,13 or older,no,2021-04-02_15h26.11.616,empathy_intonation_perc,2020.2.10,Win32,60,IwAR2BWFmHh49KtaQoCqABniVdCo--boZz-8FSiLmMc1VQvexTV6IuR9Zr7no,,,,,,,,,,1,,,,,,,,,,,,,,,,,,,,,,,,,,,,,,,,,,,,,,,,5,zapato,,,1,1,0.935325,0,85,85,4,1,REAL,FAKE,,,,,,,,,,,,,,,,,,,,,
,,,,,,,midd24,midd,ma,United States,South,13 or older,no,2021-04-02_15h26.11.616,empathy_intonation_perc,2020.2.10,Win32,60,IwAR2BWFmHh49KtaQoCqABniVdCo--boZz-8FSiLmMc1VQvexTV6IuR9Zr7no,,,,,,,,,,0,,,,,,,,,,,,,,,,,,,,,,,,,,,,,,,,,,,,,,,,21,capillo,,,1,0,7.92769,0,86,86,20,1,REAL,FAKE,,,,,,,,,,,,,,,,,,,,,
,,,,,,,midd24,midd,ma,United States,South,13 or older,no,2021-04-02_15h26.11.616,empathy_intonation_perc,2020.2.10,Win32,60,IwAR2BWFmHh49KtaQoCqABniVdCo--boZz-8FSiLmMc1VQvexTV6IuR9Zr7no,,,,,,,,,,1,,,,,,,,,,,,,,,,,,,,,,,,,,,,,,,,,,,,,,,,69,engatusar,,,0,0,5.92713,0,87,87,68,1,REAL,FAKE,,,,,,,,,,,,,,,,,,,,,
,,,,,,,midd24,midd,ma,United States,South,13 or older,no,2021-04-02_15h26.11.616,empathy_intonation_perc,2020.2.10,Win32,60,IwAR2BWFmHh49KtaQoCqABniVdCo--boZz-8FSiLmMc1VQvexTV6IuR9Zr7no,,,,,,,,,,1,,,,,,,,,,,,,,,,,,,,,,,,,,,,,,,,,,,,,,,,48,ladrn,,,1,1,1.16586,0,88,88,47,1,REAL,FAKE,,,,,,,,,,,,,,,,,,,,,
,,,,,,,midd24,midd,ma,United States,South,13 or older,no,2021-04-02_15h26.11.616,empathy_intonation_perc,2020.2.10,Win32,60,IwAR2BWFmHh49KtaQoCqABniVdCo--boZz-8FSiLmMc1VQvexTV6IuR9Zr7no,,,,,,,,,,1,,,,,,,,,,,,,,,,,,,,,,,,,,,,,,,,,,,,,,,,15,regar,,,0,0,1.48179,0,89,89,14,1,REAL,FAKE,,,,,,,,,,,,,,,,,,,,,
,,,,,,,midd24,midd,ma,United States,South,13 or older,no,2021-04-02_15h26.11.616,empathy_intonation_perc,2020.2.10,Win32,60,IwAR2BWFmHh49KtaQoCqABniVdCo--boZz-8FSiLmMc1VQvexTV6IuR9Zr7no,,,,,,,,,,,,,,,,,,,,,,,,,,,,,,,,,,,,,,,,,,,,,,,,,,,,,,,,,,,,,,,,4,1,2.50697,1,0,0,0,0,0,1,,,,,,,,,,,
,,,,,,,midd24,midd,ma,United States,South,13 or older,no,2021-04-02_15h26.11.616,empathy_intonation_perc,2020.2.10,Win32,60,IwAR2BWFmHh49KtaQoCqABniVdCo--boZz-8FSiLmMc1VQvexTV6IuR9Zr7no,,,,,,,,,,,,,,,,,,,,1,,,,,,,,,,,,,,,,,,,,,,,,,,,,,,,,,,,,,,,,,,,,,,,,,,,,,,1,0,0,0,0,1,I can easily tell if someone else wants to enter a conversation.,1,0,1,0
,,,,,,,midd24,midd,ma,United States,South,13 or older,no,2021-04-02_15h26.11.616,empathy_intonation_perc,2020.2.10,Win32,60,IwAR2BWFmHh49KtaQoCqABniVdCo--boZz-8FSiLmMc1VQvexTV6IuR9Zr7no,,,,,,,,,,,,,,,,,,,,2,,,,,,,,,,,,,,,,,,,,,,,,,,,,,,,,,,,,,,,,,,,,,,,,,,,,,,2,0,1,1,1,1,I prefer animals to humans.,0,1,0,0
,,,,,,,midd24,midd,ma,United States,South,13 or older,no,2021-04-02_15h26.11.616,empathy_intonation_perc,2020.2.10,Win32,60,IwAR2BWFmHh49KtaQoCqABniVdCo--boZz-8FSiLmMc1VQvexTV6IuR9Zr7no,,,,,,,,,,,,,,,,,,,,3,,,,,,,,,,,,,,,,,,,,,,,,,,,,,,,,,,,,,,,,,,,,,,,,,,,,,,4,0,2,2,2,1,I try to keep up with the current trends and fashions.,0,1,0,0
,,,,,,,midd24,midd,ma,United States,South,13 or older,no,2021-04-02_15h26.11.616,empathy_intonation_perc,2020.2.10,Win32,60,IwAR2BWFmHh49KtaQoCqABniVdCo--boZz-8FSiLmMc1VQvexTV6IuR9Zr7no,,,,,,,,,,,,,,,,,,,,4,,,,,,,,,,,,,,,,,,,,,,,,,,,,,,,,,,,,,,,,,,,,,,,,,,,,,,4,0,3,3,3,1,"I find it difficult to explain to others things that I understand easily, 
  when they dont understand it first time.",1,0,0,1
,,,,,,,midd24,midd,ma,United States,South,13 or older,no,2021-04-02_15h26.11.616,empathy_intonation_perc,2020.2.10,Win32,60,IwAR2BWFmHh49KtaQoCqABniVdCo--boZz-8FSiLmMc1VQvexTV6IuR9Zr7no,,,,,,,,,,,,,,,,,,,,5,,,,,,,,,,,,,,,,,,,,,,,,,,,,,,,,,,,,,,,,,,,,,,,,,,,,,,1,0,4,4,4,1,I dream most nights.,0,1,0,0
