instructions_2afc_loop.thisRepN,instructions_2afc_loop.thisTrialN,instructions_2afc_loop.thisN,instructions_2afc_loop.thisIndex,instructions_2afc_loop.ran,instructions_text,continue_text,participant,study_id,session,I am most familiar with Spanish from...*,What part of the US are you from?*,At what age did you begin learning Spanish?*,Are you proficient in any languages other than English/Spanish?*,date,expName,psychopyVersion,OS,frameRate,fbclid,key_resp_2afc_practice.keys,key_resp_2afc_practice.corr,key_resp_2afc_practice.rt,trials_2afc_practice_loop.thisRepN,trials_2afc_practice_loop.thisTrialN,trials_2afc_practice_loop.thisN,trials_2afc_practice_loop.thisIndex,trials_2afc_practice_loop.ran,path,correct_response,the_col,key_resp_2afc_trial.keys,key_resp_2afc_trial.corr,key_resp_2afc_trial.rt,trials_2afc_loop.thisRepN,trials_2afc_loop.thisTrialN,trials_2afc_loop.thisN,trials_2afc_loop.thisIndex,trials_2afc_loop.ran,item_num,andalusian,argentine,castilian,chilean,cuban,mexican,peruvian,puertorican,key_resp_ac1.keys,key_resp_ac1.corr,key_resp_ac1.rt,ac1_loop.thisRepN,ac1_loop.thisTrialN,ac1_loop.thisN,ac1_loop.thisIndex,ac1_loop.ran,instructions_lextale_loop.thisRepN,instructions_lextale_loop.thisTrialN,instructions_lextale_loop.thisN,instructions_lextale_loop.thisIndex,instructions_lextale_loop.ran,key_resp_lextale_practice.keys,key_resp_lextale_practice.corr,key_resp_lextale_practice.rt,trials_lextale_practice_loop.thisRepN,trials_lextale_practice_loop.thisTrialN,trials_lextale_practice_loop.thisN,trials_lextale_practice_loop.thisIndex,trials_lextale_practice_loop.ran,stim,word,prac_button_real,prac_button_false,key_resp_lextale_trial.keys,key_resp_lextale_trial.corr,key_resp_lextale_trial.rt,trials_lextale_loop.thisRepN,trials_lextale_loop.thisTrialN,trials_lextale_loop.thisN,trials_lextale_loop.thisIndex,trials_lextale_loop.ran,button_real,button_false,key_resp_ac2.keys,key_resp_ac2.corr,key_resp_ac2.rt,check_pass,check_fails,ac2_loop.thisRepN,ac2_loop.thisTrialN,ac2_loop.thisN,ac2_loop.thisIndex,ac2_loop.ran,slider_eq_trial.response,trials_eq_loop.thisRepN,trials_eq_loop.thisTrialN,trials_eq_loop.thisN,trials_eq_loop.thisIndex,trials_eq_loop.ran,item,is_test_item,is_distractor,is_agree_score,is_disagree_score
0,0,0,0,1,"In the following task you are going to hear a series of utterances. 

  You will decide if the utterances sound like questions or not using your keyboard.",(press the spacebar to continue),midd05,midd,ma,Spain,Northeast,12 or younger,no,2021-03-26_22h10.26.029,empathy_intonation_perc,2020.2.10,MacIntel,60,IwAR1mORmNZqiy0-Xt8Yys2a3JYiuWueq6LQxyghBFtgCmIeVOU1PxV5WjeM0,,,,,,,,,,,,,,,,,,,,,,,,,,,,,,,,,,,,,,,,,,,,,,,,,,,,,,,,,,,,,,,,,,,,,,,,,,,,,,,,,,,,
0,1,1,1,1,"If you believe the utterance is a question, type '1' (for 'yes') and if you do not 
  believe it is a question type '0' (for 'no').

  Let's practice a bit...",(press the spacebar to continue),midd05,midd,ma,Spain,Northeast,12 or younger,no,2021-03-26_22h10.26.029,empathy_intonation_perc,2020.2.10,MacIntel,60,IwAR1mORmNZqiy0-Xt8Yys2a3JYiuWueq6LQxyghBFtgCmIeVOU1PxV5WjeM0,,,,,,,,,,,,,,,,,,,,,,,,,,,,,,,,,,,,,,,,,,,,,,,,,,,,,,,,,,,,,,,,,,,,,,,,,,,,,,,,,,,,
,,,,,,,midd05,midd,ma,Spain,Northeast,12 or younger,no,2021-03-26_22h10.26.029,empathy_intonation_perc,2020.2.10,MacIntel,60,IwAR1mORmNZqiy0-Xt8Yys2a3JYiuWueq6LQxyghBFtgCmIeVOU1PxV5WjeM0,1,1,3.048205,0,0,0,1,1,./stim/wavs/argentine_question_filler_Mi-vecino-habla-mucho.wav,1,,,,,,,,,,,,,,,,,,,,,,,,,,,,,,,,,,,,,,,,,,,,,,,,,,,,,,,,,,,,,,,,,,,,,,,,,,
,,,,,,,midd05,midd,ma,Spain,Northeast,12 or younger,no,2021-03-26_22h10.26.029,empathy_intonation_perc,2020.2.10,MacIntel,60,IwAR1mORmNZqiy0-Xt8Yys2a3JYiuWueq6LQxyghBFtgCmIeVOU1PxV5WjeM0,0,1,3.037665,0,1,1,7,1,./stim/wavs/puertorican_statement_filler_La-nina-pinta-con-su-amiga.wav,0,,,,,,,,,,,,,,,,,,,,,,,,,,,,,,,,,,,,,,,,,,,,,,,,,,,,,,,,,,,,,,,,,,,,,,,,,,
,,,,,,,midd05,midd,ma,Spain,Northeast,12 or younger,no,2021-03-26_22h10.26.029,empathy_intonation_perc,2020.2.10,MacIntel,60,IwAR1mORmNZqiy0-Xt8Yys2a3JYiuWueq6LQxyghBFtgCmIeVOU1PxV5WjeM0,1,1,1.76838,0,2,2,2,1,./stim/wavs/chilean_question_filler_Mi-padre-cantaba-bien.wav,1,,,,,,,,,,,,,,,,,,,,,,,,,,,,,,,,,,,,,,,,,,,,,,,,,,,,,,,,,,,,,,,,,,,,,,,,,,
,,,,,,,midd05,midd,ma,Spain,Northeast,12 or younger,no,2021-03-26_22h10.26.029,empathy_intonation_perc,2020.2.10,MacIntel,60,IwAR1mORmNZqiy0-Xt8Yys2a3JYiuWueq6LQxyghBFtgCmIeVOU1PxV5WjeM0,1,1,2.713345,0,3,3,0,1,./stim/wavs/castilian_question_filler_Mi-esposo-conoce-al-chico.wav,1,,,,,,,,,,,,,,,,,,,,,,,,,,,,,,,,,,,,,,,,,,,,,,,,,,,,,,,,,,,,,,,,,,,,,,,,,,
,,,,,,,midd05,midd,ma,Spain,Northeast,12 or younger,no,2021-03-26_22h10.26.029,empathy_intonation_perc,2020.2.10,MacIntel,60,IwAR1mORmNZqiy0-Xt8Yys2a3JYiuWueq6LQxyghBFtgCmIeVOU1PxV5WjeM0,1,1,1.89094,0,4,4,3,1,./stim/wavs/mexican_question_filler_Felipe-no-tiene-contrasena.wav,1,,,,,,,,,,,,,,,,,,,,,,,,,,,,,,,,,,,,,,,,,,,,,,,,,,,,,,,,,,,,,,,,,,,,,,,,,,
,,,,,,,midd05,midd,ma,Spain,Northeast,12 or younger,no,2021-03-26_22h10.26.029,empathy_intonation_perc,2020.2.10,MacIntel,60,IwAR1mORmNZqiy0-Xt8Yys2a3JYiuWueq6LQxyghBFtgCmIeVOU1PxV5WjeM0,0,1,2.925965,0,5,5,6,1,./stim/wavs/peruvian_statement_filler_El-nino-habla-con-su-madre.wav,0,,,,,,,,,,,,,,,,,,,,,,,,,,,,,,,,,,,,,,,,,,,,,,,,,,,,,,,,,,,,,,,,,,,,,,,,,,
,,,,,,,midd05,midd,ma,Spain,Northeast,12 or younger,no,2021-03-26_22h10.26.029,empathy_intonation_perc,2020.2.10,MacIntel,60,IwAR1mORmNZqiy0-Xt8Yys2a3JYiuWueq6LQxyghBFtgCmIeVOU1PxV5WjeM0,0,1,3.22072,0,6,6,5,1,./stim/wavs/andalusian_statement_filler_Alberto-nunca-se-afeita.wav,0,,,,,,,,,,,,,,,,,,,,,,,,,,,,,,,,,,,,,,,,,,,,,,,,,,,,,,,,,,,,,,,,,,,,,,,,,,
,,,,,,,midd05,midd,ma,Spain,Northeast,12 or younger,no,2021-03-26_22h10.26.029,empathy_intonation_perc,2020.2.10,MacIntel,60,IwAR1mORmNZqiy0-Xt8Yys2a3JYiuWueq6LQxyghBFtgCmIeVOU1PxV5WjeM0,0,1,1.900155,0,7,7,4,1,./stim/wavs/cuban_statement_filler_Cocinabas-por-la-noche.wav,0,,,,,,,,,,,,,,,,,,,,,,,,,,,,,,,,,,,,,,,,,,,,,,,,,,,,,,,,,,,,,,,,,,,,,,,,,,
,,,,,,,midd05,midd,ma,Spain,Northeast,12 or younger,no,2021-03-26_22h10.26.029,empathy_intonation_perc,2020.2.10,MacIntel,60,IwAR1mORmNZqiy0-Xt8Yys2a3JYiuWueq6LQxyghBFtgCmIeVOU1PxV5WjeM0,,,,,,,,,,1,chilean,1,1,2.585705,0,0,0,61,1,62,./stim/wavs/andalusian_mismatch_interrogative-total-yn_Mi-madre-come-la-fruta.wav,./stim/wavs/argentine_mismatch_interrogative-total-yn_Mi-madre-come-la-fruta.wav,./stim/wavs/castilian_mismatch_interrogative-total-yn_Mi-madre-come-la-fruta.wav,./stim/wavs/chilean_mismatch_interrogative-total-yn_Mi-madre-come-la-fruta.wav,./stim/wavs/cuban_mismatch_interrogative-total-yn_Mi-madre-come-la-fruta.wav,./stim/wavs/mexican_mismatch_interrogative-total-yn_Mi-madre-come-la-fruta.wav,./stim/wavs/peruvian_mismatch_interrogative-total-yn_Mi-madre-come-la-fruta.wav,./stim/wavs/puertorican_mismatch_interrogative-total-yn_Mi-madre-come-la-fruta.wav,,,,,,,,,,,,,,,,,,,,,,,,,,,,,,,,,,,,,,,,,,,,,,,,,,,,,,,,
,,,,,,,midd05,midd,ma,Spain,Northeast,12 or younger,no,2021-03-26_22h10.26.029,empathy_intonation_perc,2020.2.10,MacIntel,60,IwAR1mORmNZqiy0-Xt8Yys2a3JYiuWueq6LQxyghBFtgCmIeVOU1PxV5WjeM0,,,,,,,,,,1,peruvian,1,1,1.92728,0,1,1,20,1,21,./stim/wavs/andalusian_match_interrogative-partial-wh_Por-que-abre-el-regalo.wav,./stim/wavs/argentine_match_interrogative-partial-wh_Por-que-abre-el-regalo.wav,./stim/wavs/castilian_match_interrogative-partial-wh_Por-que-abre-el-regalo.wav,./stim/wavs/chilean_match_interrogative-partial-wh_Por-que-abre-el-regalo.wav,./stim/wavs/cuban_match_interrogative-partial-wh_Por-que-abre-el-regalo.wav,./stim/wavs/mexican_match_interrogative-partial-wh_Por-que-abre-el-regalo.wav,./stim/wavs/peruvian_match_interrogative-partial-wh_Por-que-abre-el-regalo.wav,./stim/wavs/puertorican_match_interrogative-partial-wh_Por-que-abre-el-regalo.wav,,,,,,,,,,,,,,,,,,,,,,,,,,,,,,,,,,,,,,,,,,,,,,,,,,,,,,,,
,,,,,,,midd05,midd,ma,Spain,Northeast,12 or younger,no,2021-03-26_22h10.26.029,empathy_intonation_perc,2020.2.10,MacIntel,60,IwAR1mORmNZqiy0-Xt8Yys2a3JYiuWueq6LQxyghBFtgCmIeVOU1PxV5WjeM0,,,,,,,,,,1,argentine,1,1,1.85086,0,2,2,59,1,60,./stim/wavs/andalusian_mismatch_interrogative-total-yn_La-maestra-vive-en-Paris.wav,./stim/wavs/argentine_mismatch_interrogative-total-yn_La-maestra-vive-en-Paris.wav,./stim/wavs/castilian_mismatch_interrogative-total-yn_La-maestra-vive-en-Paris.wav,./stim/wavs/chilean_mismatch_interrogative-total-yn_La-maestra-vive-en-Paris.wav,./stim/wavs/cuban_mismatch_interrogative-total-yn_La-maestra-vive-en-Paris.wav,./stim/wavs/mexican_mismatch_interrogative-total-yn_La-maestra-vive-en-Paris.wav,./stim/wavs/peruvian_mismatch_interrogative-total-yn_La-maestra-vive-en-Paris.wav,./stim/wavs/puertorican_mismatch_interrogative-total-yn_La-maestra-vive-en-Paris.wav,,,,,,,,,,,,,,,,,,,,,,,,,,,,,,,,,,,,,,,,,,,,,,,,,,,,,,,,
,,,,,,,midd05,midd,ma,Spain,Northeast,12 or younger,no,2021-03-26_22h10.26.029,empathy_intonation_perc,2020.2.10,MacIntel,60,IwAR1mORmNZqiy0-Xt8Yys2a3JYiuWueq6LQxyghBFtgCmIeVOU1PxV5WjeM0,,,,,,,,,,0,castilian,0,1,4.535385,0,3,3,46,1,47,./stim/wavs/andalusian_mismatch_declarative-narrow-focus_Mi-novio-viene-del-lago.wav,./stim/wavs/argentine_mismatch_declarative-narrow-focus_Mi-novio-viene-del-lago.wav,./stim/wavs/castilian_mismatch_declarative-narrow-focus_Mi-novio-viene-del-lago.wav,./stim/wavs/chilean_mismatch_declarative-narrow-focus_Mi-novio-viene-del-lago.wav,./stim/wavs/cuban_mismatch_declarative-narrow-focus_Mi-novio-viene-del-lago.wav,./stim/wavs/mexican_mismatch_declarative-narrow-focus_Mi-novio-viene-del-lago.wav,./stim/wavs/peruvian_mismatch_declarative-narrow-focus_Mi-novio-viene-del-lago.wav,./stim/wavs/puertorican_mismatch_declarative-narrow-focus_Mi-novio-viene-del-lago.wav,,,,,,,,,,,,,,,,,,,,,,,,,,,,,,,,,,,,,,,,,,,,,,,,,,,,,,,,
,,,,,,,midd05,midd,ma,Spain,Northeast,12 or younger,no,2021-03-26_22h10.26.029,empathy_intonation_perc,2020.2.10,MacIntel,60,IwAR1mORmNZqiy0-Xt8Yys2a3JYiuWueq6LQxyghBFtgCmIeVOU1PxV5WjeM0,,,,,,,,,,1,puertorican,1,1,2.487855,0,4,4,49,1,50,./stim/wavs/andalusian_mismatch_interrogative-partial-wh_Cuando-lavaba-el-plato.wav,./stim/wavs/argentine_mismatch_interrogative-partial-wh_Cuando-lavaba-el-plato.wav,./stim/wavs/castilian_mismatch_interrogative-partial-wh_Cuando-lavaba-el-plato.wav,./stim/wavs/chilean_mismatch_interrogative-partial-wh_Cuando-lavaba-el-plato.wav,./stim/wavs/cuban_mismatch_interrogative-partial-wh_Cuando-lavaba-el-plato.wav,./stim/wavs/mexican_mismatch_interrogative-partial-wh_Cuando-lavaba-el-plato.wav,./stim/wavs/peruvian_mismatch_interrogative-partial-wh_Cuando-lavaba-el-plato.wav,./stim/wavs/puertorican_mismatch_interrogative-partial-wh_Cuando-lavaba-el-plato.wav,,,,,,,,,,,,,,,,,,,,,,,,,,,,,,,,,,,,,,,,,,,,,,,,,,,,,,,,
,,,,,,,midd05,midd,ma,Spain,Northeast,12 or younger,no,2021-03-26_22h10.26.029,empathy_intonation_perc,2020.2.10,MacIntel,60,IwAR1mORmNZqiy0-Xt8Yys2a3JYiuWueq6LQxyghBFtgCmIeVOU1PxV5WjeM0,,,,,,,,,,1,argentine,0,0,2.55112,0,5,5,63,1,64,./stim/wavs/andalusian_mismatch_interrogative-total-yn_Mi-tia-odia-la-lluvia.wav,./stim/wavs/argentine_mismatch_interrogative-total-yn_Mi-tia-odia-la-lluvia.wav,./stim/wavs/castilian_mismatch_interrogative-total-yn_Mi-tia-odia-la-lluvia.wav,./stim/wavs/chilean_mismatch_interrogative-total-yn_Mi-tia-odia-la-lluvia.wav,./stim/wavs/cuban_mismatch_interrogative-total-yn_Mi-tia-odia-la-lluvia.wav,./stim/wavs/mexican_mismatch_interrogative-total-yn_Mi-tia-odia-la-lluvia.wav,./stim/wavs/peruvian_mismatch_interrogative-total-yn_Mi-tia-odia-la-lluvia.wav,./stim/wavs/puertorican_mismatch_interrogative-total-yn_Mi-tia-odia-la-lluvia.wav,,,,,,,,,,,,,,,,,,,,,,,,,,,,,,,,,,,,,,,,,,,,,,,,,,,,,,,,
,,,,,,,midd05,midd,ma,Spain,Northeast,12 or younger,no,2021-03-26_22h10.26.029,empathy_intonation_perc,2020.2.10,MacIntel,60,IwAR1mORmNZqiy0-Xt8Yys2a3JYiuWueq6LQxyghBFtgCmIeVOU1PxV5WjeM0,,,,,,,,,,1,andalusian,1,1,2.67089,0,6,6,62,1,63,./stim/wavs/andalusian_mismatch_interrogative-total-yn_Mi-novio-viene-del-lago.wav,./stim/wavs/argentine_mismatch_interrogative-total-yn_Mi-novio-viene-del-lago.wav,./stim/wavs/castilian_mismatch_interrogative-total-yn_Mi-novio-viene-del-lago.wav,./stim/wavs/chilean_mismatch_interrogative-total-yn_Mi-novio-viene-del-lago.wav,./stim/wavs/cuban_mismatch_interrogative-total-yn_Mi-novio-viene-del-lago.wav,./stim/wavs/mexican_mismatch_interrogative-total-yn_Mi-novio-viene-del-lago.wav,./stim/wavs/peruvian_mismatch_interrogative-total-yn_Mi-novio-viene-del-lago.wav,./stim/wavs/puertorican_mismatch_interrogative-total-yn_Mi-novio-viene-del-lago.wav,,,,,,,,,,,,,,,,,,,,,,,,,,,,,,,,,,,,,,,,,,,,,,,,,,,,,,,,
,,,,,,,midd05,midd,ma,Spain,Northeast,12 or younger,no,2021-03-26_22h10.26.029,empathy_intonation_perc,2020.2.10,MacIntel,60,IwAR1mORmNZqiy0-Xt8Yys2a3JYiuWueq6LQxyghBFtgCmIeVOU1PxV5WjeM0,,,,,,,,,,1,chilean,1,1,2.86252,0,7,7,27,1,28,./stim/wavs/andalusian_match_interrogative-total-yn_Emilio-ama-la-marcha.wav,./stim/wavs/argentine_match_interrogative-total-yn_Emilio-ama-la-marcha.wav,./stim/wavs/castilian_match_interrogative-total-yn_Emilio-ama-la-marcha.wav,./stim/wavs/chilean_match_interrogative-total-yn_Emilio-ama-la-marcha.wav,./stim/wavs/cuban_match_interrogative-total-yn_Emilio-ama-la-marcha.wav,./stim/wavs/mexican_match_interrogative-total-yn_Emilio-ama-la-marcha.wav,./stim/wavs/peruvian_match_interrogative-total-yn_Emilio-ama-la-marcha.wav,./stim/wavs/puertorican_match_interrogative-total-yn_Emilio-ama-la-marcha.wav,,,,,,,,,,,,,,,,,,,,,,,,,,,,,,,,,,,,,,,,,,,,,,,,,,,,,,,,
,,,,,,,midd05,midd,ma,Spain,Northeast,12 or younger,no,2021-03-26_22h10.26.029,empathy_intonation_perc,2020.2.10,MacIntel,60,IwAR1mORmNZqiy0-Xt8Yys2a3JYiuWueq6LQxyghBFtgCmIeVOU1PxV5WjeM0,,,,,,,,,,0,peruvian,0,1,1.88376,0,8,8,36,1,37,./stim/wavs/andalusian_mismatch_declarative-broad-focus_La-nina-lava-el-plato.wav,./stim/wavs/argentine_mismatch_declarative-broad-focus_La-nina-lava-el-plato.wav,./stim/wavs/castilian_mismatch_declarative-broad-focus_La-nina-lava-el-plato.wav,./stim/wavs/chilean_mismatch_declarative-broad-focus_La-nina-lava-el-plato.wav,./stim/wavs/cuban_mismatch_declarative-broad-focus_La-nina-lava-el-plato.wav,./stim/wavs/mexican_mismatch_declarative-broad-focus_La-nina-lava-el-plato.wav,./stim/wavs/peruvian_mismatch_declarative-broad-focus_La-nina-lava-el-plato.wav,./stim/wavs/puertorican_mismatch_declarative-broad-focus_La-nina-lava-el-plato.wav,,,,,,,,,,,,,,,,,,,,,,,,,,,,,,,,,,,,,,,,,,,,,,,,,,,,,,,,
,,,,,,,midd05,midd,ma,Spain,Northeast,12 or younger,no,2021-03-26_22h10.26.029,empathy_intonation_perc,2020.2.10,MacIntel,60,IwAR1mORmNZqiy0-Xt8Yys2a3JYiuWueq6LQxyghBFtgCmIeVOU1PxV5WjeM0,,,,,,,,,,1,puertorican,1,1,4.40405,0,9,9,50,1,51,./stim/wavs/andalusian_mismatch_interrogative-partial-wh_Cuando-miraba-la-luna.wav,./stim/wavs/argentine_mismatch_interrogative-partial-wh_Cuando-miraba-la-luna.wav,./stim/wavs/castilian_mismatch_interrogative-partial-wh_Cuando-miraba-la-luna.wav,./stim/wavs/chilean_mismatch_interrogative-partial-wh_Cuando-miraba-la-luna.wav,./stim/wavs/cuban_mismatch_interrogative-partial-wh_Cuando-miraba-la-luna.wav,./stim/wavs/mexican_mismatch_interrogative-partial-wh_Cuando-miraba-la-luna.wav,./stim/wavs/peruvian_mismatch_interrogative-partial-wh_Cuando-miraba-la-luna.wav,./stim/wavs/puertorican_mismatch_interrogative-partial-wh_Cuando-miraba-la-luna.wav,,,,,,,,,,,,,,,,,,,,,,,,,,,,,,,,,,,,,,,,,,,,,,,,,,,,,,,,
,,,,,,,midd05,midd,ma,Spain,Northeast,12 or younger,no,2021-03-26_22h10.26.029,empathy_intonation_perc,2020.2.10,MacIntel,60,IwAR1mORmNZqiy0-Xt8Yys2a3JYiuWueq6LQxyghBFtgCmIeVOU1PxV5WjeM0,,,,,,,,,,0,cuban,0,1,2.582575,0,10,10,6,1,7,./stim/wavs/andalusian_match_declarative-broad-focus_Mariano-habla-del-tiempo.wav,./stim/wavs/argentine_match_declarative-broad-focus_Mariano-habla-del-tiempo.wav,./stim/wavs/castilian_match_declarative-broad-focus_Mariano-habla-del-tiempo.wav,./stim/wavs/chilean_match_declarative-broad-focus_Mariano-habla-del-tiempo.wav,./stim/wavs/cuban_match_declarative-broad-focus_Mariano-habla-del-tiempo.wav,./stim/wavs/mexican_match_declarative-broad-focus_Mariano-habla-del-tiempo.wav,./stim/wavs/peruvian_match_declarative-broad-focus_Mariano-habla-del-tiempo.wav,./stim/wavs/puertorican_match_declarative-broad-focus_Mariano-habla-del-tiempo.wav,,,,,,,,,,,,,,,,,,,,,,,,,,,,,,,,,,,,,,,,,,,,,,,,,,,,,,,,
,,,,,,,midd05,midd,ma,Spain,Northeast,12 or younger,no,2021-03-26_22h10.26.029,empathy_intonation_perc,2020.2.10,MacIntel,60,IwAR1mORmNZqiy0-Xt8Yys2a3JYiuWueq6LQxyghBFtgCmIeVOU1PxV5WjeM0,,,,,,,,,,1,chilean,1,1,2.285275,0,11,11,26,1,27,./stim/wavs/andalusian_match_interrogative-total-yn_David-leia-el-libro.wav,./stim/wavs/argentine_match_interrogative-total-yn_David-leia-el-libro.wav,./stim/wavs/castilian_match_interrogative-total-yn_David-leia-el-libro.wav,./stim/wavs/chilean_match_interrogative-total-yn_David-leia-el-libro.wav,./stim/wavs/cuban_match_interrogative-total-yn_David-leia-el-libro.wav,./stim/wavs/mexican_match_interrogative-total-yn_David-leia-el-libro.wav,./stim/wavs/peruvian_match_interrogative-total-yn_David-leia-el-libro.wav,./stim/wavs/puertorican_match_interrogative-total-yn_David-leia-el-libro.wav,,,,,,,,,,,,,,,,,,,,,,,,,,,,,,,,,,,,,,,,,,,,,,,,,,,,,,,,
,,,,,,,midd05,midd,ma,Spain,Northeast,12 or younger,no,2021-03-26_22h10.26.029,empathy_intonation_perc,2020.2.10,MacIntel,60,IwAR1mORmNZqiy0-Xt8Yys2a3JYiuWueq6LQxyghBFtgCmIeVOU1PxV5WjeM0,,,,,,,,,,0,castilian,0,1,2.00512,0,12,12,44,1,45,./stim/wavs/andalusian_mismatch_declarative-narrow-focus_La-nina-lava-el-plato.wav,./stim/wavs/argentine_mismatch_declarative-narrow-focus_La-nina-lava-el-plato.wav,./stim/wavs/castilian_mismatch_declarative-narrow-focus_La-nina-lava-el-plato.wav,./stim/wavs/chilean_mismatch_declarative-narrow-focus_La-nina-lava-el-plato.wav,./stim/wavs/cuban_mismatch_declarative-narrow-focus_La-nina-lava-el-plato.wav,./stim/wavs/mexican_mismatch_declarative-narrow-focus_La-nina-lava-el-plato.wav,./stim/wavs/peruvian_mismatch_declarative-narrow-focus_La-nina-lava-el-plato.wav,./stim/wavs/puertorican_mismatch_declarative-narrow-focus_La-nina-lava-el-plato.wav,,,,,,,,,,,,,,,,,,,,,,,,,,,,,,,,,,,,,,,,,,,,,,,,,,,,,,,,
,,,,,,,midd05,midd,ma,Spain,Northeast,12 or younger,no,2021-03-26_22h10.26.029,empathy_intonation_perc,2020.2.10,MacIntel,60,IwAR1mORmNZqiy0-Xt8Yys2a3JYiuWueq6LQxyghBFtgCmIeVOU1PxV5WjeM0,,,,,,,,,,1,argentine,1,1,2.109,0,13,13,56,1,57,./stim/wavs/andalusian_mismatch_interrogative-total-yn_El-bebe-comia-muy-bien.wav,./stim/wavs/argentine_mismatch_interrogative-total-yn_El-bebe-comia-muy-bien.wav,./stim/wavs/castilian_mismatch_interrogative-total-yn_El-bebe-comia-muy-bien.wav,./stim/wavs/chilean_mismatch_interrogative-total-yn_El-bebe-comia-muy-bien.wav,./stim/wavs/cuban_mismatch_interrogative-total-yn_El-bebe-comia-muy-bien.wav,./stim/wavs/mexican_mismatch_interrogative-total-yn_El-bebe-comia-muy-bien.wav,./stim/wavs/peruvian_mismatch_interrogative-total-yn_El-bebe-comia-muy-bien.wav,./stim/wavs/puertorican_mismatch_interrogative-total-yn_El-bebe-comia-muy-bien.wav,,,,,,,,,,,,,,,,,,,,,,,,,,,,,,,,,,,,,,,,,,,,,,,,,,,,,,,,
,,,,,,,midd05,midd,ma,Spain,Northeast,12 or younger,no,2021-03-26_22h10.26.029,empathy_intonation_perc,2020.2.10,MacIntel,60,IwAR1mORmNZqiy0-Xt8Yys2a3JYiuWueq6LQxyghBFtgCmIeVOU1PxV5WjeM0,,,,,,,,,,0,chilean,0,1,2.918895,0,14,14,0,1,1,./stim/wavs/andalusian_match_declarative-broad-focus_Ana-lleva-el-abrigo.wav,./stim/wavs/argentine_match_declarative-broad-focus_Ana-lleva-el-abrigo.wav,./stim/wavs/castilian_match_declarative-broad-focus_Ana-lleva-el-abrigo.wav,./stim/wavs/chilean_match_declarative-broad-focus_Ana-lleva-el-abrigo.wav,./stim/wavs/cuban_match_declarative-broad-focus_Ana-lleva-el-abrigo.wav,./stim/wavs/mexican_match_declarative-broad-focus_Ana-lleva-el-abrigo.wav,./stim/wavs/peruvian_match_declarative-broad-focus_Ana-lleva-el-abrigo.wav,./stim/wavs/puertorican_match_declarative-broad-focus_Ana-lleva-el-abrigo.wav,,,,,,,,,,,,,,,,,,,,,,,,,,,,,,,,,,,,,,,,,,,,,,,,,,,,,,,,
,,,,,,,midd05,midd,ma,Spain,Northeast,12 or younger,no,2021-03-26_22h10.26.029,empathy_intonation_perc,2020.2.10,MacIntel,60,IwAR1mORmNZqiy0-Xt8Yys2a3JYiuWueq6LQxyghBFtgCmIeVOU1PxV5WjeM0,,,,,,,,,,1,andalusian,1,1,2.248405,0,15,15,19,1,20,./stim/wavs/andalusian_match_interrogative-partial-wh_Cuando-vendia-el-carro.wav,./stim/wavs/argentine_match_interrogative-partial-wh_Cuando-vendia-el-carro.wav,./stim/wavs/castilian_match_interrogative-partial-wh_Cuando-vendia-el-carro.wav,./stim/wavs/chilean_match_interrogative-partial-wh_Cuando-vendia-el-carro.wav,./stim/wavs/cuban_match_interrogative-partial-wh_Cuando-vendia-el-carro.wav,./stim/wavs/mexican_match_interrogative-partial-wh_Cuando-vendia-el-carro.wav,./stim/wavs/peruvian_match_interrogative-partial-wh_Cuando-vendia-el-carro.wav,./stim/wavs/puertorican_match_interrogative-partial-wh_Cuando-vendia-el-carro.wav,,,,,,,,,,,,,,,,,,,,,,,,,,,,,,,,,,,,,,,,,,,,,,,,,,,,,,,,
,,,,,,,midd05,midd,ma,Spain,Northeast,12 or younger,no,2021-03-26_22h10.26.029,empathy_intonation_perc,2020.2.10,MacIntel,60,IwAR1mORmNZqiy0-Xt8Yys2a3JYiuWueq6LQxyghBFtgCmIeVOU1PxV5WjeM0,,,,,,,,,,1,castilian,1,1,3.013095,0,16,16,51,1,52,./stim/wavs/andalusian_mismatch_interrogative-partial-wh_Por-que-desayuna-muy-bien.wav,./stim/wavs/argentine_mismatch_interrogative-partial-wh_Por-que-desayuna-muy-bien.wav,./stim/wavs/castilian_mismatch_interrogative-partial-wh_Por-que-desayuna-muy-bien.wav,./stim/wavs/chilean_mismatch_interrogative-partial-wh_Por-que-desayuna-muy-bien.wav,./stim/wavs/cuban_mismatch_interrogative-partial-wh_Por-que-desayuna-muy-bien.wav,./stim/wavs/mexican_mismatch_interrogative-partial-wh_Por-que-desayuna-muy-bien.wav,./stim/wavs/peruvian_mismatch_interrogative-partial-wh_Por-que-desayuna-muy-bien.wav,./stim/wavs/puertorican_mismatch_interrogative-partial-wh_Por-que-desayuna-muy-bien.wav,,,,,,,,,,,,,,,,,,,,,,,,,,,,,,,,,,,,,,,,,,,,,,,,,,,,,,,,
,,,,,,,midd05,midd,ma,Spain,Northeast,12 or younger,no,2021-03-26_22h10.26.029,empathy_intonation_perc,2020.2.10,MacIntel,60,IwAR1mORmNZqiy0-Xt8Yys2a3JYiuWueq6LQxyghBFtgCmIeVOU1PxV5WjeM0,,,,,,,,,,1,cuban,1,1,4.222285,0,17,17,53,1,54,./stim/wavs/andalusian_mismatch_interrogative-partial-wh_Por-que-oia-el-rio.wav,./stim/wavs/argentine_mismatch_interrogative-partial-wh_Por-que-oia-el-rio.wav,./stim/wavs/castilian_mismatch_interrogative-partial-wh_Por-que-oia-el-rio.wav,./stim/wavs/chilean_mismatch_interrogative-partial-wh_Por-que-oia-el-rio.wav,./stim/wavs/cuban_mismatch_interrogative-partial-wh_Por-que-oia-el-rio.wav,./stim/wavs/mexican_mismatch_interrogative-partial-wh_Por-que-oia-el-rio.wav,./stim/wavs/peruvian_mismatch_interrogative-partial-wh_Por-que-oia-el-rio.wav,./stim/wavs/puertorican_mismatch_interrogative-partial-wh_Por-que-oia-el-rio.wav,,,,,,,,,,,,,,,,,,,,,,,,,,,,,,,,,,,,,,,,,,,,,,,,,,,,,,,,
,,,,,,,midd05,midd,ma,Spain,Northeast,12 or younger,no,2021-03-26_22h10.26.029,empathy_intonation_perc,2020.2.10,MacIntel,60,IwAR1mORmNZqiy0-Xt8Yys2a3JYiuWueq6LQxyghBFtgCmIeVOU1PxV5WjeM0,,,,,,,,,,1,peruvian,1,1,2.658015,0,18,18,23,1,24,./stim/wavs/andalusian_match_interrogative-partial-wh_Por-que-iba-a-Bolivia.wav,./stim/wavs/argentine_match_interrogative-partial-wh_Por-que-iba-a-Bolivia.wav,./stim/wavs/castilian_match_interrogative-partial-wh_Por-que-iba-a-Bolivia.wav,./stim/wavs/chilean_match_interrogative-partial-wh_Por-que-iba-a-Bolivia.wav,./stim/wavs/cuban_match_interrogative-partial-wh_Por-que-iba-a-Bolivia.wav,./stim/wavs/mexican_match_interrogative-partial-wh_Por-que-iba-a-Bolivia.wav,./stim/wavs/peruvian_match_interrogative-partial-wh_Por-que-iba-a-Bolivia.wav,./stim/wavs/puertorican_match_interrogative-partial-wh_Por-que-iba-a-Bolivia.wav,,,,,,,,,,,,,,,,,,,,,,,,,,,,,,,,,,,,,,,,,,,,,,,,,,,,,,,,
,,,,,,,midd05,midd,ma,Spain,Northeast,12 or younger,no,2021-03-26_22h10.26.029,empathy_intonation_perc,2020.2.10,MacIntel,60,IwAR1mORmNZqiy0-Xt8Yys2a3JYiuWueq6LQxyghBFtgCmIeVOU1PxV5WjeM0,,,,,,,,,,0,peruvian,0,1,2.52433,0,19,19,11,1,12,./stim/wavs/andalusian_match_declarative-narrow-focus_Emilio-ama-la-marcha.wav,./stim/wavs/argentine_match_declarative-narrow-focus_Emilio-ama-la-marcha.wav,./stim/wavs/castilian_match_declarative-narrow-focus_Emilio-ama-la-marcha.wav,./stim/wavs/chilean_match_declarative-narrow-focus_Emilio-ama-la-marcha.wav,./stim/wavs/cuban_match_declarative-narrow-focus_Emilio-ama-la-marcha.wav,./stim/wavs/mexican_match_declarative-narrow-focus_Emilio-ama-la-marcha.wav,./stim/wavs/peruvian_match_declarative-narrow-focus_Emilio-ama-la-marcha.wav,./stim/wavs/puertorican_match_declarative-narrow-focus_Emilio-ama-la-marcha.wav,,,,,,,,,,,,,,,,,,,,,,,,,,,,,,,,,,,,,,,,,,,,,,,,,,,,,,,,
,,,,,,,midd05,midd,ma,Spain,Northeast,12 or younger,no,2021-03-26_22h10.26.029,empathy_intonation_perc,2020.2.10,MacIntel,60,IwAR1mORmNZqiy0-Xt8Yys2a3JYiuWueq6LQxyghBFtgCmIeVOU1PxV5WjeM0,,,,,,,,,,0,peruvian,0,1,2.566305,0,20,20,3,1,4,./stim/wavs/andalusian_match_declarative-broad-focus_Emilio-ama-la-marcha.wav,./stim/wavs/argentine_match_declarative-broad-focus_Emilio-ama-la-marcha.wav,./stim/wavs/castilian_match_declarative-broad-focus_Emilio-ama-la-marcha.wav,./stim/wavs/chilean_match_declarative-broad-focus_Emilio-ama-la-marcha.wav,./stim/wavs/cuban_match_declarative-broad-focus_Emilio-ama-la-marcha.wav,./stim/wavs/mexican_match_declarative-broad-focus_Emilio-ama-la-marcha.wav,./stim/wavs/peruvian_match_declarative-broad-focus_Emilio-ama-la-marcha.wav,./stim/wavs/puertorican_match_declarative-broad-focus_Emilio-ama-la-marcha.wav,,,,,,,,,,,,,,,,,,,,,,,,,,,,,,,,,,,,,,,,,,,,,,,,,,,,,,,,
,,,,,,,midd05,midd,ma,Spain,Northeast,12 or younger,no,2021-03-26_22h10.26.029,empathy_intonation_perc,2020.2.10,MacIntel,60,IwAR1mORmNZqiy0-Xt8Yys2a3JYiuWueq6LQxyghBFtgCmIeVOU1PxV5WjeM0,,,,,,,,,,1,castilian,1,1,1.511295,0,21,21,29,1,30,./stim/wavs/andalusian_match_interrogative-total-yn_Maria-bebe-el-vino.wav,./stim/wavs/argentine_match_interrogative-total-yn_Maria-bebe-el-vino.wav,./stim/wavs/castilian_match_interrogative-total-yn_Maria-bebe-el-vino.wav,./stim/wavs/chilean_match_interrogative-total-yn_Maria-bebe-el-vino.wav,./stim/wavs/cuban_match_interrogative-total-yn_Maria-bebe-el-vino.wav,./stim/wavs/mexican_match_interrogative-total-yn_Maria-bebe-el-vino.wav,./stim/wavs/peruvian_match_interrogative-total-yn_Maria-bebe-el-vino.wav,./stim/wavs/puertorican_match_interrogative-total-yn_Maria-bebe-el-vino.wav,,,,,,,,,,,,,,,,,,,,,,,,,,,,,,,,,,,,,,,,,,,,,,,,,,,,,,,,
,,,,,,,midd05,midd,ma,Spain,Northeast,12 or younger,no,2021-03-26_22h10.26.029,empathy_intonation_perc,2020.2.10,MacIntel,60,IwAR1mORmNZqiy0-Xt8Yys2a3JYiuWueq6LQxyghBFtgCmIeVOU1PxV5WjeM0,,,,,,,,,,0,andalusian,1,0,1.913965,0,22,22,13,1,14,./stim/wavs/andalusian_match_declarative-narrow-focus_Maria-bebe-el-vino.wav,./stim/wavs/argentine_match_declarative-narrow-focus_Maria-bebe-el-vino.wav,./stim/wavs/castilian_match_declarative-narrow-focus_Maria-bebe-el-vino.wav,./stim/wavs/chilean_match_declarative-narrow-focus_Maria-bebe-el-vino.wav,./stim/wavs/cuban_match_declarative-narrow-focus_Maria-bebe-el-vino.wav,./stim/wavs/mexican_match_declarative-narrow-focus_Maria-bebe-el-vino.wav,./stim/wavs/peruvian_match_declarative-narrow-focus_Maria-bebe-el-vino.wav,./stim/wavs/puertorican_match_declarative-narrow-focus_Maria-bebe-el-vino.wav,,,,,,,,,,,,,,,,,,,,,,,,,,,,,,,,,,,,,,,,,,,,,,,,,,,,,,,,
,,,,,,,midd05,midd,ma,Spain,Northeast,12 or younger,no,2021-03-26_22h10.26.029,empathy_intonation_perc,2020.2.10,MacIntel,60,IwAR1mORmNZqiy0-Xt8Yys2a3JYiuWueq6LQxyghBFtgCmIeVOU1PxV5WjeM0,,,,,,,,,,0,argentine,0,1,2.03989,0,23,23,37,1,38,./stim/wavs/andalusian_mismatch_declarative-broad-focus_Mi-madre-come-la-fruta.wav,./stim/wavs/argentine_mismatch_declarative-broad-focus_Mi-madre-come-la-fruta.wav,./stim/wavs/castilian_mismatch_declarative-broad-focus_Mi-madre-come-la-fruta.wav,./stim/wavs/chilean_mismatch_declarative-broad-focus_Mi-madre-come-la-fruta.wav,./stim/wavs/cuban_mismatch_declarative-broad-focus_Mi-madre-come-la-fruta.wav,./stim/wavs/mexican_mismatch_declarative-broad-focus_Mi-madre-come-la-fruta.wav,./stim/wavs/peruvian_mismatch_declarative-broad-focus_Mi-madre-come-la-fruta.wav,./stim/wavs/puertorican_mismatch_declarative-broad-focus_Mi-madre-come-la-fruta.wav,,,,,,,,,,,,,,,,,,,,,,,,,,,,,,,,,,,,,,,,,,,,,,,,,,,,,,,,
,,,,,,,midd05,midd,ma,Spain,Northeast,12 or younger,no,2021-03-26_22h10.26.029,empathy_intonation_perc,2020.2.10,MacIntel,60,IwAR1mORmNZqiy0-Xt8Yys2a3JYiuWueq6LQxyghBFtgCmIeVOU1PxV5WjeM0,,,,,,,,,,1,peruvian,1,1,1.961075,0,24,24,58,1,59,./stim/wavs/andalusian_mismatch_interrogative-total-yn_El-nino-oye-el-rio.wav,./stim/wavs/argentine_mismatch_interrogative-total-yn_El-nino-oye-el-rio.wav,./stim/wavs/castilian_mismatch_interrogative-total-yn_El-nino-oye-el-rio.wav,./stim/wavs/chilean_mismatch_interrogative-total-yn_El-nino-oye-el-rio.wav,./stim/wavs/cuban_mismatch_interrogative-total-yn_El-nino-oye-el-rio.wav,./stim/wavs/mexican_mismatch_interrogative-total-yn_El-nino-oye-el-rio.wav,./stim/wavs/peruvian_mismatch_interrogative-total-yn_El-nino-oye-el-rio.wav,./stim/wavs/puertorican_mismatch_interrogative-total-yn_El-nino-oye-el-rio.wav,,,,,,,,,,,,,,,,,,,,,,,,,,,,,,,,,,,,,,,,,,,,,,,,,,,,,,,,
,,,,,,,midd05,midd,ma,Spain,Northeast,12 or younger,no,2021-03-26_22h10.26.029,empathy_intonation_perc,2020.2.10,MacIntel,60,IwAR1mORmNZqiy0-Xt8Yys2a3JYiuWueq6LQxyghBFtgCmIeVOU1PxV5WjeM0,,,,,,,,,,0,chilean,0,1,2.80539,0,25,25,14,1,15,./stim/wavs/andalusian_match_declarative-narrow-focus_Mariano-habla-del-tiempo.wav,./stim/wavs/argentine_match_declarative-narrow-focus_Mariano-habla-del-tiempo.wav,./stim/wavs/castilian_match_declarative-narrow-focus_Mariano-habla-del-tiempo.wav,./stim/wavs/chilean_match_declarative-narrow-focus_Mariano-habla-del-tiempo.wav,./stim/wavs/cuban_match_declarative-narrow-focus_Mariano-habla-del-tiempo.wav,./stim/wavs/mexican_match_declarative-narrow-focus_Mariano-habla-del-tiempo.wav,./stim/wavs/peruvian_match_declarative-narrow-focus_Mariano-habla-del-tiempo.wav,./stim/wavs/puertorican_match_declarative-narrow-focus_Mariano-habla-del-tiempo.wav,,,,,,,,,,,,,,,,,,,,,,,,,,,,,,,,,,,,,,,,,,,,,,,,,,,,,,,,
,,,,,,,midd05,midd,ma,Spain,Northeast,12 or younger,no,2021-03-26_22h10.26.029,empathy_intonation_perc,2020.2.10,MacIntel,60,IwAR1mORmNZqiy0-Xt8Yys2a3JYiuWueq6LQxyghBFtgCmIeVOU1PxV5WjeM0,,,,,,,,,,1,peruvian,1,1,1.67295,0,26,26,60,1,61,./stim/wavs/andalusian_mismatch_interrogative-total-yn_La-nina-lava-el-plato.wav,./stim/wavs/argentine_mismatch_interrogative-total-yn_La-nina-lava-el-plato.wav,./stim/wavs/castilian_mismatch_interrogative-total-yn_La-nina-lava-el-plato.wav,./stim/wavs/chilean_mismatch_interrogative-total-yn_La-nina-lava-el-plato.wav,./stim/wavs/cuban_mismatch_interrogative-total-yn_La-nina-lava-el-plato.wav,./stim/wavs/mexican_mismatch_interrogative-total-yn_La-nina-lava-el-plato.wav,./stim/wavs/peruvian_mismatch_interrogative-total-yn_La-nina-lava-el-plato.wav,./stim/wavs/puertorican_mismatch_interrogative-total-yn_La-nina-lava-el-plato.wav,,,,,,,,,,,,,,,,,,,,,,,,,,,,,,,,,,,,,,,,,,,,,,,,,,,,,,,,
,,,,,,,midd05,midd,ma,Spain,Northeast,12 or younger,no,2021-03-26_22h10.26.029,empathy_intonation_perc,2020.2.10,MacIntel,60,IwAR1mORmNZqiy0-Xt8Yys2a3JYiuWueq6LQxyghBFtgCmIeVOU1PxV5WjeM0,,,,,,,,,,0,mexican,0,1,1.729545,0,27,27,38,1,39,./stim/wavs/andalusian_mismatch_declarative-broad-focus_Mi-novio-viene-del-lago.wav,./stim/wavs/argentine_mismatch_declarative-broad-focus_Mi-novio-viene-del-lago.wav,./stim/wavs/castilian_mismatch_declarative-broad-focus_Mi-novio-viene-del-lago.wav,./stim/wavs/chilean_mismatch_declarative-broad-focus_Mi-novio-viene-del-lago.wav,./stim/wavs/cuban_mismatch_declarative-broad-focus_Mi-novio-viene-del-lago.wav,./stim/wavs/mexican_mismatch_declarative-broad-focus_Mi-novio-viene-del-lago.wav,./stim/wavs/peruvian_mismatch_declarative-broad-focus_Mi-novio-viene-del-lago.wav,./stim/wavs/puertorican_mismatch_declarative-broad-focus_Mi-novio-viene-del-lago.wav,,,,,,,,,,,,,,,,,,,,,,,,,,,,,,,,,,,,,,,,,,,,,,,,,,,,,,,,
,,,,,,,midd05,midd,ma,Spain,Northeast,12 or younger,no,2021-03-26_22h10.26.029,empathy_intonation_perc,2020.2.10,MacIntel,60,IwAR1mORmNZqiy0-Xt8Yys2a3JYiuWueq6LQxyghBFtgCmIeVOU1PxV5WjeM0,,,,,,,,,,0,peruvian,0,1,1.68498,0,28,28,5,1,6,./stim/wavs/andalusian_match_declarative-broad-focus_Maria-bebe-el-vino.wav,./stim/wavs/argentine_match_declarative-broad-focus_Maria-bebe-el-vino.wav,./stim/wavs/castilian_match_declarative-broad-focus_Maria-bebe-el-vino.wav,./stim/wavs/chilean_match_declarative-broad-focus_Maria-bebe-el-vino.wav,./stim/wavs/cuban_match_declarative-broad-focus_Maria-bebe-el-vino.wav,./stim/wavs/mexican_match_declarative-broad-focus_Maria-bebe-el-vino.wav,./stim/wavs/peruvian_match_declarative-broad-focus_Maria-bebe-el-vino.wav,./stim/wavs/puertorican_match_declarative-broad-focus_Maria-bebe-el-vino.wav,,,,,,,,,,,,,,,,,,,,,,,,,,,,,,,,,,,,,,,,,,,,,,,,,,,,,,,,
,,,,,,,midd05,midd,ma,Spain,Northeast,12 or younger,no,2021-03-26_22h10.26.029,empathy_intonation_perc,2020.2.10,MacIntel,60,IwAR1mORmNZqiy0-Xt8Yys2a3JYiuWueq6LQxyghBFtgCmIeVOU1PxV5WjeM0,,,,,,,,,,1,castilian,1,1,3.3531,0,29,29,48,1,49,./stim/wavs/andalusian_mismatch_interrogative-partial-wh_Cuando-comia-la-fruta.wav,./stim/wavs/argentine_mismatch_interrogative-partial-wh_Cuando-comia-la-fruta.wav,./stim/wavs/castilian_mismatch_interrogative-partial-wh_Cuando-comia-la-fruta.wav,./stim/wavs/chilean_mismatch_interrogative-partial-wh_Cuando-comia-la-fruta.wav,./stim/wavs/cuban_mismatch_interrogative-partial-wh_Cuando-comia-la-fruta.wav,./stim/wavs/mexican_mismatch_interrogative-partial-wh_Cuando-comia-la-fruta.wav,./stim/wavs/peruvian_mismatch_interrogative-partial-wh_Cuando-comia-la-fruta.wav,./stim/wavs/puertorican_mismatch_interrogative-partial-wh_Cuando-comia-la-fruta.wav,,,,,,,,,,,,,,,,,,,,,,,,,,,,,,,,,,,,,,,,,,,,,,,,,,,,,,,,
,,,,,,,midd05,midd,ma,Spain,Northeast,12 or younger,no,2021-03-26_22h10.26.029,empathy_intonation_perc,2020.2.10,MacIntel,60,IwAR1mORmNZqiy0-Xt8Yys2a3JYiuWueq6LQxyghBFtgCmIeVOU1PxV5WjeM0,,,,,,,,,,1,peruvian,1,1,2.31772,0,30,30,28,1,29,./stim/wavs/andalusian_match_interrogative-total-yn_Manuela-vende-el-carro.wav,./stim/wavs/argentine_match_interrogative-total-yn_Manuela-vende-el-carro.wav,./stim/wavs/castilian_match_interrogative-total-yn_Manuela-vende-el-carro.wav,./stim/wavs/chilean_match_interrogative-total-yn_Manuela-vende-el-carro.wav,./stim/wavs/cuban_match_interrogative-total-yn_Manuela-vende-el-carro.wav,./stim/wavs/mexican_match_interrogative-total-yn_Manuela-vende-el-carro.wav,./stim/wavs/peruvian_match_interrogative-total-yn_Manuela-vende-el-carro.wav,./stim/wavs/puertorican_match_interrogative-total-yn_Manuela-vende-el-carro.wav,,,,,,,,,,,,,,,,,,,,,,,,,,,,,,,,,,,,,,,,,,,,,,,,,,,,,,,,
,,,,,,,midd05,midd,ma,Spain,Northeast,12 or younger,no,2021-03-26_22h10.26.029,empathy_intonation_perc,2020.2.10,MacIntel,60,IwAR1mORmNZqiy0-Xt8Yys2a3JYiuWueq6LQxyghBFtgCmIeVOU1PxV5WjeM0,,,,,,,,,,0,andalusian,1,0,3.72126,0,31,31,42,1,43,./stim/wavs/andalusian_mismatch_declarative-narrow-focus_El-nino-oye-el-rio.wav,./stim/wavs/argentine_mismatch_declarative-narrow-focus_El-nino-oye-el-rio.wav,./stim/wavs/castilian_mismatch_declarative-narrow-focus_El-nino-oye-el-rio.wav,./stim/wavs/chilean_mismatch_declarative-narrow-focus_El-nino-oye-el-rio.wav,./stim/wavs/cuban_mismatch_declarative-narrow-focus_El-nino-oye-el-rio.wav,./stim/wavs/mexican_mismatch_declarative-narrow-focus_El-nino-oye-el-rio.wav,./stim/wavs/peruvian_mismatch_declarative-narrow-focus_El-nino-oye-el-rio.wav,./stim/wavs/puertorican_mismatch_declarative-narrow-focus_El-nino-oye-el-rio.wav,,,,,,,,,,,,,,,,,,,,,,,,,,,,,,,,,,,,,,,,,,,,,,,,,,,,,,,,
,,,,,,,midd05,midd,ma,Spain,Northeast,12 or younger,no,2021-03-26_22h10.26.029,empathy_intonation_perc,2020.2.10,MacIntel,60,IwAR1mORmNZqiy0-Xt8Yys2a3JYiuWueq6LQxyghBFtgCmIeVOU1PxV5WjeM0,,,,,,,,,,1,andalusian,1,1,7.935385,0,32,32,54,1,55,./stim/wavs/andalusian_mismatch_interrogative-partial-wh_Por-que-venia-del-lago.wav,./stim/wavs/argentine_mismatch_interrogative-partial-wh_Por-que-venia-del-lago.wav,./stim/wavs/castilian_mismatch_interrogative-partial-wh_Por-que-venia-del-lago.wav,./stim/wavs/chilean_mismatch_interrogative-partial-wh_Por-que-venia-del-lago.wav,./stim/wavs/cuban_mismatch_interrogative-partial-wh_Por-que-venia-del-lago.wav,./stim/wavs/mexican_mismatch_interrogative-partial-wh_Por-que-venia-del-lago.wav,./stim/wavs/peruvian_mismatch_interrogative-partial-wh_Por-que-venia-del-lago.wav,./stim/wavs/puertorican_mismatch_interrogative-partial-wh_Por-que-venia-del-lago.wav,,,,,,,,,,,,,,,,,,,,,,,,,,,,,,,,,,,,,,,,,,,,,,,,,,,,,,,,
,,,,,,,midd05,midd,ma,Spain,Northeast,12 or younger,no,2021-03-26_22h10.26.029,empathy_intonation_perc,2020.2.10,MacIntel,60,IwAR1mORmNZqiy0-Xt8Yys2a3JYiuWueq6LQxyghBFtgCmIeVOU1PxV5WjeM0,,,,,,,,,,0,mexican,0,1,1.75471,0,33,33,43,1,44,./stim/wavs/andalusian_mismatch_declarative-narrow-focus_La-maestra-vive-en-Paris.wav,./stim/wavs/argentine_mismatch_declarative-narrow-focus_La-maestra-vive-en-Paris.wav,./stim/wavs/castilian_mismatch_declarative-narrow-focus_La-maestra-vive-en-Paris.wav,./stim/wavs/chilean_mismatch_declarative-narrow-focus_La-maestra-vive-en-Paris.wav,./stim/wavs/cuban_mismatch_declarative-narrow-focus_La-maestra-vive-en-Paris.wav,./stim/wavs/mexican_mismatch_declarative-narrow-focus_La-maestra-vive-en-Paris.wav,./stim/wavs/peruvian_mismatch_declarative-narrow-focus_La-maestra-vive-en-Paris.wav,./stim/wavs/puertorican_mismatch_declarative-narrow-focus_La-maestra-vive-en-Paris.wav,,,,,,,,,,,,,,,,,,,,,,,,,,,,,,,,,,,,,,,,,,,,,,,,,,,,,,,,
,,,,,,,midd05,midd,ma,Spain,Northeast,12 or younger,no,2021-03-26_22h10.26.029,empathy_intonation_perc,2020.2.10,MacIntel,60,IwAR1mORmNZqiy0-Xt8Yys2a3JYiuWueq6LQxyghBFtgCmIeVOU1PxV5WjeM0,,,,,,,,,,0,chilean,0,1,2.02537,0,34,34,33,1,34,./stim/wavs/andalusian_mismatch_declarative-broad-focus_El-hombre-mira-la-luna.wav,./stim/wavs/argentine_mismatch_declarative-broad-focus_El-hombre-mira-la-luna.wav,./stim/wavs/castilian_mismatch_declarative-broad-focus_El-hombre-mira-la-luna.wav,./stim/wavs/chilean_mismatch_declarative-broad-focus_El-hombre-mira-la-luna.wav,./stim/wavs/cuban_mismatch_declarative-broad-focus_El-hombre-mira-la-luna.wav,./stim/wavs/mexican_mismatch_declarative-broad-focus_El-hombre-mira-la-luna.wav,./stim/wavs/peruvian_mismatch_declarative-broad-focus_El-hombre-mira-la-luna.wav,./stim/wavs/puertorican_mismatch_declarative-broad-focus_El-hombre-mira-la-luna.wav,,,,,,,,,,,,,,,,,,,,,,,,,,,,,,,,,,,,,,,,,,,,,,,,,,,,,,,,
,,,,,,,midd05,midd,ma,Spain,Northeast,12 or younger,no,2021-03-26_22h10.26.029,empathy_intonation_perc,2020.2.10,MacIntel,60,IwAR1mORmNZqiy0-Xt8Yys2a3JYiuWueq6LQxyghBFtgCmIeVOU1PxV5WjeM0,,,,,,,,,,0,cuban,0,1,1.774145,0,35,35,35,1,36,./stim/wavs/andalusian_mismatch_declarative-broad-focus_La-maestra-vive-en-Paris.wav,./stim/wavs/argentine_mismatch_declarative-broad-focus_La-maestra-vive-en-Paris.wav,./stim/wavs/castilian_mismatch_declarative-broad-focus_La-maestra-vive-en-Paris.wav,./stim/wavs/chilean_mismatch_declarative-broad-focus_La-maestra-vive-en-Paris.wav,./stim/wavs/cuban_mismatch_declarative-broad-focus_La-maestra-vive-en-Paris.wav,./stim/wavs/mexican_mismatch_declarative-broad-focus_La-maestra-vive-en-Paris.wav,./stim/wavs/peruvian_mismatch_declarative-broad-focus_La-maestra-vive-en-Paris.wav,./stim/wavs/puertorican_mismatch_declarative-broad-focus_La-maestra-vive-en-Paris.wav,,,,,,,,,,,,,,,,,,,,,,,,,,,,,,,,,,,,,,,,,,,,,,,,,,,,,,,,
,,,,,,,midd05,midd,ma,Spain,Northeast,12 or younger,no,2021-03-26_22h10.26.029,empathy_intonation_perc,2020.2.10,MacIntel,60,IwAR1mORmNZqiy0-Xt8Yys2a3JYiuWueq6LQxyghBFtgCmIeVOU1PxV5WjeM0,,,,,,,,,,0,castilian,0,1,2.223185,0,36,36,9,1,10,./stim/wavs/andalusian_match_declarative-narrow-focus_Daniel-iba-a-Bolivia.wav,./stim/wavs/argentine_match_declarative-narrow-focus_Daniel-iba-a-Bolivia.wav,./stim/wavs/castilian_match_declarative-narrow-focus_Daniel-iba-a-Bolivia.wav,./stim/wavs/chilean_match_declarative-narrow-focus_Daniel-iba-a-Bolivia.wav,./stim/wavs/cuban_match_declarative-narrow-focus_Daniel-iba-a-Bolivia.wav,./stim/wavs/mexican_match_declarative-narrow-focus_Daniel-iba-a-Bolivia.wav,./stim/wavs/peruvian_match_declarative-narrow-focus_Daniel-iba-a-Bolivia.wav,./stim/wavs/puertorican_match_declarative-narrow-focus_Daniel-iba-a-Bolivia.wav,,,,,,,,,,,,,,,,,,,,,,,,,,,,,,,,,,,,,,,,,,,,,,,,,,,,,,,,
,,,,,,,midd05,midd,ma,Spain,Northeast,12 or younger,no,2021-03-26_22h10.26.029,empathy_intonation_perc,2020.2.10,MacIntel,60,IwAR1mORmNZqiy0-Xt8Yys2a3JYiuWueq6LQxyghBFtgCmIeVOU1PxV5WjeM0,,,,,,,,,,1,peruvian,1,1,7.726845,0,37,37,18,1,19,./stim/wavs/andalusian_match_interrogative-partial-wh_Cuando-lleva-el-abrigo.wav,./stim/wavs/argentine_match_interrogative-partial-wh_Cuando-lleva-el-abrigo.wav,./stim/wavs/castilian_match_interrogative-partial-wh_Cuando-lleva-el-abrigo.wav,./stim/wavs/chilean_match_interrogative-partial-wh_Cuando-lleva-el-abrigo.wav,./stim/wavs/cuban_match_interrogative-partial-wh_Cuando-lleva-el-abrigo.wav,./stim/wavs/mexican_match_interrogative-partial-wh_Cuando-lleva-el-abrigo.wav,./stim/wavs/peruvian_match_interrogative-partial-wh_Cuando-lleva-el-abrigo.wav,./stim/wavs/puertorican_match_interrogative-partial-wh_Cuando-lleva-el-abrigo.wav,,,,,,,,,,,,,,,,,,,,,,,,,,,,,,,,,,,,,,,,,,,,,,,,,,,,,,,,
,,,,,,,midd05,midd,ma,Spain,Northeast,12 or younger,no,2021-03-26_22h10.26.029,empathy_intonation_perc,2020.2.10,MacIntel,60,IwAR1mORmNZqiy0-Xt8Yys2a3JYiuWueq6LQxyghBFtgCmIeVOU1PxV5WjeM0,,,,,,,,,,0,peruvian,0,1,3.61689,0,38,38,4,1,5,./stim/wavs/andalusian_match_declarative-broad-focus_Manuela-vende-el-carro.wav,./stim/wavs/argentine_match_declarative-broad-focus_Manuela-vende-el-carro.wav,./stim/wavs/castilian_match_declarative-broad-focus_Manuela-vende-el-carro.wav,./stim/wavs/chilean_match_declarative-broad-focus_Manuela-vende-el-carro.wav,./stim/wavs/cuban_match_declarative-broad-focus_Manuela-vende-el-carro.wav,./stim/wavs/mexican_match_declarative-broad-focus_Manuela-vende-el-carro.wav,./stim/wavs/peruvian_match_declarative-broad-focus_Manuela-vende-el-carro.wav,./stim/wavs/puertorican_match_declarative-broad-focus_Manuela-vende-el-carro.wav,,,,,,,,,,,,,,,,,,,,,,,,,,,,,,,,,,,,,,,,,,,,,,,,,,,,,,,,
,,,,,,,midd05,midd,ma,Spain,Northeast,12 or younger,no,2021-03-26_22h10.26.029,empathy_intonation_perc,2020.2.10,MacIntel,60,IwAR1mORmNZqiy0-Xt8Yys2a3JYiuWueq6LQxyghBFtgCmIeVOU1PxV5WjeM0,,,,,,,,,,0,cuban,0,1,1.965125,0,39,39,32,1,33,./stim/wavs/andalusian_mismatch_declarative-broad-focus_El-bebe-comia-muy-bien.wav,./stim/wavs/argentine_mismatch_declarative-broad-focus_El-bebe-comia-muy-bien.wav,./stim/wavs/castilian_mismatch_declarative-broad-focus_El-bebe-comia-muy-bien.wav,./stim/wavs/chilean_mismatch_declarative-broad-focus_El-bebe-comia-muy-bien.wav,./stim/wavs/cuban_mismatch_declarative-broad-focus_El-bebe-comia-muy-bien.wav,./stim/wavs/mexican_mismatch_declarative-broad-focus_El-bebe-comia-muy-bien.wav,./stim/wavs/peruvian_mismatch_declarative-broad-focus_El-bebe-comia-muy-bien.wav,./stim/wavs/puertorican_mismatch_declarative-broad-focus_El-bebe-comia-muy-bien.wav,,,,,,,,,,,,,,,,,,,,,,,,,,,,,,,,,,,,,,,,,,,,,,,,,,,,,,,,
,,,,,,,midd05,midd,ma,Spain,Northeast,12 or younger,no,2021-03-26_22h10.26.029,empathy_intonation_perc,2020.2.10,MacIntel,60,IwAR1mORmNZqiy0-Xt8Yys2a3JYiuWueq6LQxyghBFtgCmIeVOU1PxV5WjeM0,,,,,,,,,,0,peruvian,0,1,1.913685,0,40,40,12,1,13,./stim/wavs/andalusian_match_declarative-narrow-focus_Manuela-vende-el-carro.wav,./stim/wavs/argentine_match_declarative-narrow-focus_Manuela-vende-el-carro.wav,./stim/wavs/castilian_match_declarative-narrow-focus_Manuela-vende-el-carro.wav,./stim/wavs/chilean_match_declarative-narrow-focus_Manuela-vende-el-carro.wav,./stim/wavs/cuban_match_declarative-narrow-focus_Manuela-vende-el-carro.wav,./stim/wavs/mexican_match_declarative-narrow-focus_Manuela-vende-el-carro.wav,./stim/wavs/peruvian_match_declarative-narrow-focus_Manuela-vende-el-carro.wav,./stim/wavs/puertorican_match_declarative-narrow-focus_Manuela-vende-el-carro.wav,,,,,,,,,,,,,,,,,,,,,,,,,,,,,,,,,,,,,,,,,,,,,,,,,,,,,,,,
,,,,,,,midd05,midd,ma,Spain,Northeast,12 or younger,no,2021-03-26_22h10.26.029,empathy_intonation_perc,2020.2.10,MacIntel,60,IwAR1mORmNZqiy0-Xt8Yys2a3JYiuWueq6LQxyghBFtgCmIeVOU1PxV5WjeM0,,,,,,,,,,0,chilean,0,1,2.117945,0,41,41,10,1,11,./stim/wavs/andalusian_match_declarative-narrow-focus_David-leia-el-libro.wav,./stim/wavs/argentine_match_declarative-narrow-focus_David-leia-el-libro.wav,./stim/wavs/castilian_match_declarative-narrow-focus_David-leia-el-libro.wav,./stim/wavs/chilean_match_declarative-narrow-focus_David-leia-el-libro.wav,./stim/wavs/cuban_match_declarative-narrow-focus_David-leia-el-libro.wav,./stim/wavs/mexican_match_declarative-narrow-focus_David-leia-el-libro.wav,./stim/wavs/peruvian_match_declarative-narrow-focus_David-leia-el-libro.wav,./stim/wavs/puertorican_match_declarative-narrow-focus_David-leia-el-libro.wav,,,,,,,,,,,,,,,,,,,,,,,,,,,,,,,,,,,,,,,,,,,,,,,,,,,,,,,,
,,,,,,,midd05,midd,ma,Spain,Northeast,12 or younger,no,2021-03-26_22h10.26.029,empathy_intonation_perc,2020.2.10,MacIntel,60,IwAR1mORmNZqiy0-Xt8Yys2a3JYiuWueq6LQxyghBFtgCmIeVOU1PxV5WjeM0,,,,,,,,,,1,andalusian,1,1,1.55614,0,42,42,55,1,56,./stim/wavs/andalusian_mismatch_interrogative-partial-wh_Por-que-vivia-en-Paris.wav,./stim/wavs/argentine_mismatch_interrogative-partial-wh_Por-que-vivia-en-Paris.wav,./stim/wavs/castilian_mismatch_interrogative-partial-wh_Por-que-vivia-en-Paris.wav,./stim/wavs/chilean_mismatch_interrogative-partial-wh_Por-que-vivia-en-Paris.wav,./stim/wavs/cuban_mismatch_interrogative-partial-wh_Por-que-vivia-en-Paris.wav,./stim/wavs/mexican_mismatch_interrogative-partial-wh_Por-que-vivia-en-Paris.wav,./stim/wavs/peruvian_mismatch_interrogative-partial-wh_Por-que-vivia-en-Paris.wav,./stim/wavs/puertorican_mismatch_interrogative-partial-wh_Por-que-vivia-en-Paris.wav,,,,,,,,,,,,,,,,,,,,,,,,,,,,,,,,,,,,,,,,,,,,,,,,,,,,,,,,
,,,,,,,midd05,midd,ma,Spain,Northeast,12 or younger,no,2021-03-26_22h10.26.029,empathy_intonation_perc,2020.2.10,MacIntel,60,IwAR1mORmNZqiy0-Xt8Yys2a3JYiuWueq6LQxyghBFtgCmIeVOU1PxV5WjeM0,,,,,,,,,,1,mexican,1,1,1.60611,0,43,43,24,1,25,./stim/wavs/andalusian_match_interrogative-total-yn_Ana-lleva-el-abrigo.wav,./stim/wavs/argentine_match_interrogative-total-yn_Ana-lleva-el-abrigo.wav,./stim/wavs/castilian_match_interrogative-total-yn_Ana-lleva-el-abrigo.wav,./stim/wavs/chilean_match_interrogative-total-yn_Ana-lleva-el-abrigo.wav,./stim/wavs/cuban_match_interrogative-total-yn_Ana-lleva-el-abrigo.wav,./stim/wavs/mexican_match_interrogative-total-yn_Ana-lleva-el-abrigo.wav,./stim/wavs/peruvian_match_interrogative-total-yn_Ana-lleva-el-abrigo.wav,./stim/wavs/puertorican_match_interrogative-total-yn_Ana-lleva-el-abrigo.wav,,,,,,,,,,,,,,,,,,,,,,,,,,,,,,,,,,,,,,,,,,,,,,,,,,,,,,,,
,,,,,,,midd05,midd,ma,Spain,Northeast,12 or younger,no,2021-03-26_22h10.26.029,empathy_intonation_perc,2020.2.10,MacIntel,60,IwAR1mORmNZqiy0-Xt8Yys2a3JYiuWueq6LQxyghBFtgCmIeVOU1PxV5WjeM0,,,,,,,,,,1,argentine,1,1,1.66167,0,44,44,57,1,58,./stim/wavs/andalusian_mismatch_interrogative-total-yn_El-hombre-mira-la-luna.wav,./stim/wavs/argentine_mismatch_interrogative-total-yn_El-hombre-mira-la-luna.wav,./stim/wavs/castilian_mismatch_interrogative-total-yn_El-hombre-mira-la-luna.wav,./stim/wavs/chilean_mismatch_interrogative-total-yn_El-hombre-mira-la-luna.wav,./stim/wavs/cuban_mismatch_interrogative-total-yn_El-hombre-mira-la-luna.wav,./stim/wavs/mexican_mismatch_interrogative-total-yn_El-hombre-mira-la-luna.wav,./stim/wavs/peruvian_mismatch_interrogative-total-yn_El-hombre-mira-la-luna.wav,./stim/wavs/puertorican_mismatch_interrogative-total-yn_El-hombre-mira-la-luna.wav,,,,,,,,,,,,,,,,,,,,,,,,,,,,,,,,,,,,,,,,,,,,,,,,,,,,,,,,
,,,,,,,midd05,midd,ma,Spain,Northeast,12 or younger,no,2021-03-26_22h10.26.029,empathy_intonation_perc,2020.2.10,MacIntel,60,IwAR1mORmNZqiy0-Xt8Yys2a3JYiuWueq6LQxyghBFtgCmIeVOU1PxV5WjeM0,,,,,,,,,,1,cuban,1,1,1.91943,0,45,45,17,1,18,./stim/wavs/andalusian_match_interrogative-partial-wh_Cuando-leia-el-libro.wav,./stim/wavs/argentine_match_interrogative-partial-wh_Cuando-leia-el-libro.wav,./stim/wavs/castilian_match_interrogative-partial-wh_Cuando-leia-el-libro.wav,./stim/wavs/chilean_match_interrogative-partial-wh_Cuando-leia-el-libro.wav,./stim/wavs/cuban_match_interrogative-partial-wh_Cuando-leia-el-libro.wav,./stim/wavs/mexican_match_interrogative-partial-wh_Cuando-leia-el-libro.wav,./stim/wavs/peruvian_match_interrogative-partial-wh_Cuando-leia-el-libro.wav,./stim/wavs/puertorican_match_interrogative-partial-wh_Cuando-leia-el-libro.wav,,,,,,,,,,,,,,,,,,,,,,,,,,,,,,,,,,,,,,,,,,,,,,,,,,,,,,,,
,,,,,,,midd05,midd,ma,Spain,Northeast,12 or younger,no,2021-03-26_22h10.26.029,empathy_intonation_perc,2020.2.10,MacIntel,60,IwAR1mORmNZqiy0-Xt8Yys2a3JYiuWueq6LQxyghBFtgCmIeVOU1PxV5WjeM0,,,,,,,,,,0,chilean,0,1,1.647005,0,46,46,41,1,42,./stim/wavs/andalusian_mismatch_declarative-narrow-focus_El-hombre-mira-la-luna.wav,./stim/wavs/argentine_mismatch_declarative-narrow-focus_El-hombre-mira-la-luna.wav,./stim/wavs/castilian_mismatch_declarative-narrow-focus_El-hombre-mira-la-luna.wav,./stim/wavs/chilean_mismatch_declarative-narrow-focus_El-hombre-mira-la-luna.wav,./stim/wavs/cuban_mismatch_declarative-narrow-focus_El-hombre-mira-la-luna.wav,./stim/wavs/mexican_mismatch_declarative-narrow-focus_El-hombre-mira-la-luna.wav,./stim/wavs/peruvian_mismatch_declarative-narrow-focus_El-hombre-mira-la-luna.wav,./stim/wavs/puertorican_mismatch_declarative-narrow-focus_El-hombre-mira-la-luna.wav,,,,,,,,,,,,,,,,,,,,,,,,,,,,,,,,,,,,,,,,,,,,,,,,,,,,,,,,
,,,,,,,midd05,midd,ma,Spain,Northeast,12 or younger,no,2021-03-26_22h10.26.029,empathy_intonation_perc,2020.2.10,MacIntel,60,IwAR1mORmNZqiy0-Xt8Yys2a3JYiuWueq6LQxyghBFtgCmIeVOU1PxV5WjeM0,,,,,,,,,,1,castilian,1,1,1.96391,0,47,47,30,1,31,./stim/wavs/andalusian_match_interrogative-total-yn_Mariano-habla-del-tiempo.wav,./stim/wavs/argentine_match_interrogative-total-yn_Mariano-habla-del-tiempo.wav,./stim/wavs/castilian_match_interrogative-total-yn_Mariano-habla-del-tiempo.wav,./stim/wavs/chilean_match_interrogative-total-yn_Mariano-habla-del-tiempo.wav,./stim/wavs/cuban_match_interrogative-total-yn_Mariano-habla-del-tiempo.wav,./stim/wavs/mexican_match_interrogative-total-yn_Mariano-habla-del-tiempo.wav,./stim/wavs/peruvian_match_interrogative-total-yn_Mariano-habla-del-tiempo.wav,./stim/wavs/puertorican_match_interrogative-total-yn_Mariano-habla-del-tiempo.wav,,,,,,,,,,,,,,,,,,,,,,,,,,,,,,,,,,,,,,,,,,,,,,,,,,,,,,,,
,,,,,,,midd05,midd,ma,Spain,Northeast,12 or younger,no,2021-03-26_22h10.26.029,empathy_intonation_perc,2020.2.10,MacIntel,60,IwAR1mORmNZqiy0-Xt8Yys2a3JYiuWueq6LQxyghBFtgCmIeVOU1PxV5WjeM0,,,,,,,,,,0,peruvian,0,1,1.983275,0,48,48,45,1,46,./stim/wavs/andalusian_mismatch_declarative-narrow-focus_Mi-madre-come-la-fruta.wav,./stim/wavs/argentine_mismatch_declarative-narrow-focus_Mi-madre-come-la-fruta.wav,./stim/wavs/castilian_mismatch_declarative-narrow-focus_Mi-madre-come-la-fruta.wav,./stim/wavs/chilean_mismatch_declarative-narrow-focus_Mi-madre-come-la-fruta.wav,./stim/wavs/cuban_mismatch_declarative-narrow-focus_Mi-madre-come-la-fruta.wav,./stim/wavs/mexican_mismatch_declarative-narrow-focus_Mi-madre-come-la-fruta.wav,./stim/wavs/peruvian_mismatch_declarative-narrow-focus_Mi-madre-come-la-fruta.wav,./stim/wavs/puertorican_mismatch_declarative-narrow-focus_Mi-madre-come-la-fruta.wav,,,,,,,,,,,,,,,,,,,,,,,,,,,,,,,,,,,,,,,,,,,,,,,,,,,,,,,,
,,,,,,,midd05,midd,ma,Spain,Northeast,12 or younger,no,2021-03-26_22h10.26.029,empathy_intonation_perc,2020.2.10,MacIntel,60,IwAR1mORmNZqiy0-Xt8Yys2a3JYiuWueq6LQxyghBFtgCmIeVOU1PxV5WjeM0,,,,,,,,,,0,puertorican,0,1,2.1245,0,49,49,39,1,40,./stim/wavs/andalusian_mismatch_declarative-broad-focus_Mi-tia-odia-la-lluvia.wav,./stim/wavs/argentine_mismatch_declarative-broad-focus_Mi-tia-odia-la-lluvia.wav,./stim/wavs/castilian_mismatch_declarative-broad-focus_Mi-tia-odia-la-lluvia.wav,./stim/wavs/chilean_mismatch_declarative-broad-focus_Mi-tia-odia-la-lluvia.wav,./stim/wavs/cuban_mismatch_declarative-broad-focus_Mi-tia-odia-la-lluvia.wav,./stim/wavs/mexican_mismatch_declarative-broad-focus_Mi-tia-odia-la-lluvia.wav,./stim/wavs/peruvian_mismatch_declarative-broad-focus_Mi-tia-odia-la-lluvia.wav,./stim/wavs/puertorican_mismatch_declarative-broad-focus_Mi-tia-odia-la-lluvia.wav,,,,,,,,,,,,,,,,,,,,,,,,,,,,,,,,,,,,,,,,,,,,,,,,,,,,,,,,
,,,,,,,midd05,midd,ma,Spain,Northeast,12 or younger,no,2021-03-26_22h10.26.029,empathy_intonation_perc,2020.2.10,MacIntel,60,IwAR1mORmNZqiy0-Xt8Yys2a3JYiuWueq6LQxyghBFtgCmIeVOU1PxV5WjeM0,,,,,,,,,,1,chilean,1,1,1.576675,0,50,50,31,1,32,./stim/wavs/andalusian_match_interrogative-total-yn_Marta-abre-el-regalo.wav,./stim/wavs/argentine_match_interrogative-total-yn_Marta-abre-el-regalo.wav,./stim/wavs/castilian_match_interrogative-total-yn_Marta-abre-el-regalo.wav,./stim/wavs/chilean_match_interrogative-total-yn_Marta-abre-el-regalo.wav,./stim/wavs/cuban_match_interrogative-total-yn_Marta-abre-el-regalo.wav,./stim/wavs/mexican_match_interrogative-total-yn_Marta-abre-el-regalo.wav,./stim/wavs/peruvian_match_interrogative-total-yn_Marta-abre-el-regalo.wav,./stim/wavs/puertorican_match_interrogative-total-yn_Marta-abre-el-regalo.wav,,,,,,,,,,,,,,,,,,,,,,,,,,,,,,,,,,,,,,,,,,,,,,,,,,,,,,,,
,,,,,,,midd05,midd,ma,Spain,Northeast,12 or younger,no,2021-03-26_22h10.26.029,empathy_intonation_perc,2020.2.10,MacIntel,60,IwAR1mORmNZqiy0-Xt8Yys2a3JYiuWueq6LQxyghBFtgCmIeVOU1PxV5WjeM0,,,,,,,,,,0,chilean,0,1,1.96744,0,51,51,40,1,41,./stim/wavs/andalusian_mismatch_declarative-narrow-focus_El-bebe-comia-muy-bien.wav,./stim/wavs/argentine_mismatch_declarative-narrow-focus_El-bebe-comia-muy-bien.wav,./stim/wavs/castilian_mismatch_declarative-narrow-focus_El-bebe-comia-muy-bien.wav,./stim/wavs/chilean_mismatch_declarative-narrow-focus_El-bebe-comia-muy-bien.wav,./stim/wavs/cuban_mismatch_declarative-narrow-focus_El-bebe-comia-muy-bien.wav,./stim/wavs/mexican_mismatch_declarative-narrow-focus_El-bebe-comia-muy-bien.wav,./stim/wavs/peruvian_mismatch_declarative-narrow-focus_El-bebe-comia-muy-bien.wav,./stim/wavs/puertorican_mismatch_declarative-narrow-focus_El-bebe-comia-muy-bien.wav,,,,,,,,,,,,,,,,,,,,,,,,,,,,,,,,,,,,,,,,,,,,,,,,,,,,,,,,
,,,,,,,midd05,midd,ma,Spain,Northeast,12 or younger,no,2021-03-26_22h10.26.029,empathy_intonation_perc,2020.2.10,MacIntel,60,IwAR1mORmNZqiy0-Xt8Yys2a3JYiuWueq6LQxyghBFtgCmIeVOU1PxV5WjeM0,,,,,,,,,,0,castilian,0,1,1.644785,0,52,52,47,1,48,./stim/wavs/andalusian_mismatch_declarative-narrow-focus_Mi-tia-odia-la-lluvia.wav,./stim/wavs/argentine_mismatch_declarative-narrow-focus_Mi-tia-odia-la-lluvia.wav,./stim/wavs/castilian_mismatch_declarative-narrow-focus_Mi-tia-odia-la-lluvia.wav,./stim/wavs/chilean_mismatch_declarative-narrow-focus_Mi-tia-odia-la-lluvia.wav,./stim/wavs/cuban_mismatch_declarative-narrow-focus_Mi-tia-odia-la-lluvia.wav,./stim/wavs/mexican_mismatch_declarative-narrow-focus_Mi-tia-odia-la-lluvia.wav,./stim/wavs/peruvian_mismatch_declarative-narrow-focus_Mi-tia-odia-la-lluvia.wav,./stim/wavs/puertorican_mismatch_declarative-narrow-focus_Mi-tia-odia-la-lluvia.wav,,,,,,,,,,,,,,,,,,,,,,,,,,,,,,,,,,,,,,,,,,,,,,,,,,,,,,,,
,,,,,,,midd05,midd,ma,Spain,Northeast,12 or younger,no,2021-03-26_22h10.26.029,empathy_intonation_perc,2020.2.10,MacIntel,60,IwAR1mORmNZqiy0-Xt8Yys2a3JYiuWueq6LQxyghBFtgCmIeVOU1PxV5WjeM0,,,,,,,,,,1,puertorican,1,1,2.88614,0,53,53,25,1,26,./stim/wavs/andalusian_match_interrogative-total-yn_Daniel-iba-a-Bolivia.wav,./stim/wavs/argentine_match_interrogative-total-yn_Daniel-iba-a-Bolivia.wav,./stim/wavs/castilian_match_interrogative-total-yn_Daniel-iba-a-Bolivia.wav,./stim/wavs/chilean_match_interrogative-total-yn_Daniel-iba-a-Bolivia.wav,./stim/wavs/cuban_match_interrogative-total-yn_Daniel-iba-a-Bolivia.wav,./stim/wavs/mexican_match_interrogative-total-yn_Daniel-iba-a-Bolivia.wav,./stim/wavs/peruvian_match_interrogative-total-yn_Daniel-iba-a-Bolivia.wav,./stim/wavs/puertorican_match_interrogative-total-yn_Daniel-iba-a-Bolivia.wav,,,,,,,,,,,,,,,,,,,,,,,,,,,,,,,,,,,,,,,,,,,,,,,,,,,,,,,,
,,,,,,,midd05,midd,ma,Spain,Northeast,12 or younger,no,2021-03-26_22h10.26.029,empathy_intonation_perc,2020.2.10,MacIntel,60,IwAR1mORmNZqiy0-Xt8Yys2a3JYiuWueq6LQxyghBFtgCmIeVOU1PxV5WjeM0,,,,,,,,,,1,castilian,1,1,4.49037,0,54,54,52,1,53,./stim/wavs/andalusian_mismatch_interrogative-partial-wh_Por-que-odiaba-la-lluvia.wav,./stim/wavs/argentine_mismatch_interrogative-partial-wh_Por-que-odiaba-la-lluvia.wav,./stim/wavs/castilian_mismatch_interrogative-partial-wh_Por-que-odiaba-la-lluvia.wav,./stim/wavs/chilean_mismatch_interrogative-partial-wh_Por-que-odiaba-la-lluvia.wav,./stim/wavs/cuban_mismatch_interrogative-partial-wh_Por-que-odiaba-la-lluvia.wav,./stim/wavs/mexican_mismatch_interrogative-partial-wh_Por-que-odiaba-la-lluvia.wav,./stim/wavs/peruvian_mismatch_interrogative-partial-wh_Por-que-odiaba-la-lluvia.wav,./stim/wavs/puertorican_mismatch_interrogative-partial-wh_Por-que-odiaba-la-lluvia.wav,,,,,,,,,,,,,,,,,,,,,,,,,,,,,,,,,,,,,,,,,,,,,,,,,,,,,,,,
,,,,,,,midd05,midd,ma,Spain,Northeast,12 or younger,no,2021-03-26_22h10.26.029,empathy_intonation_perc,2020.2.10,MacIntel,60,IwAR1mORmNZqiy0-Xt8Yys2a3JYiuWueq6LQxyghBFtgCmIeVOU1PxV5WjeM0,,,,,,,,,,0,castilian,0,1,1.882405,0,55,55,7,1,8,./stim/wavs/andalusian_match_declarative-broad-focus_Marta-abre-el-regalo.wav,./stim/wavs/argentine_match_declarative-broad-focus_Marta-abre-el-regalo.wav,./stim/wavs/castilian_match_declarative-broad-focus_Marta-abre-el-regalo.wav,./stim/wavs/chilean_match_declarative-broad-focus_Marta-abre-el-regalo.wav,./stim/wavs/cuban_match_declarative-broad-focus_Marta-abre-el-regalo.wav,./stim/wavs/mexican_match_declarative-broad-focus_Marta-abre-el-regalo.wav,./stim/wavs/peruvian_match_declarative-broad-focus_Marta-abre-el-regalo.wav,./stim/wavs/puertorican_match_declarative-broad-focus_Marta-abre-el-regalo.wav,,,,,,,,,,,,,,,,,,,,,,,,,,,,,,,,,,,,,,,,,,,,,,,,,,,,,,,,
,,,,,,,midd05,midd,ma,Spain,Northeast,12 or younger,no,2021-03-26_22h10.26.029,empathy_intonation_perc,2020.2.10,MacIntel,60,IwAR1mORmNZqiy0-Xt8Yys2a3JYiuWueq6LQxyghBFtgCmIeVOU1PxV5WjeM0,,,,,,,,,,1,mexican,1,1,1.665175,0,56,56,21,1,22,./stim/wavs/andalusian_match_interrogative-partial-wh_Por-que-ama-la-navidad.wav,./stim/wavs/argentine_match_interrogative-partial-wh_Por-que-ama-la-navidad.wav,./stim/wavs/castilian_match_interrogative-partial-wh_Por-que-ama-la-navidad.wav,./stim/wavs/chilean_match_interrogative-partial-wh_Por-que-ama-la-navidad.wav,./stim/wavs/cuban_match_interrogative-partial-wh_Por-que-ama-la-navidad.wav,./stim/wavs/mexican_match_interrogative-partial-wh_Por-que-ama-la-navidad.wav,./stim/wavs/peruvian_match_interrogative-partial-wh_Por-que-ama-la-navidad.wav,./stim/wavs/puertorican_match_interrogative-partial-wh_Por-que-ama-la-navidad.wav,,,,,,,,,,,,,,,,,,,,,,,,,,,,,,,,,,,,,,,,,,,,,,,,,,,,,,,,
,,,,,,,midd05,midd,ma,Spain,Northeast,12 or younger,no,2021-03-26_22h10.26.029,empathy_intonation_perc,2020.2.10,MacIntel,60,IwAR1mORmNZqiy0-Xt8Yys2a3JYiuWueq6LQxyghBFtgCmIeVOU1PxV5WjeM0,,,,,,,,,,0,mexican,0,1,3.247965,0,57,57,8,1,9,./stim/wavs/andalusian_match_declarative-narrow-focus_Ana-lleva-el-abrigo.wav,./stim/wavs/argentine_match_declarative-narrow-focus_Ana-lleva-el-abrigo.wav,./stim/wavs/castilian_match_declarative-narrow-focus_Ana-lleva-el-abrigo.wav,./stim/wavs/chilean_match_declarative-narrow-focus_Ana-lleva-el-abrigo.wav,./stim/wavs/cuban_match_declarative-narrow-focus_Ana-lleva-el-abrigo.wav,./stim/wavs/mexican_match_declarative-narrow-focus_Ana-lleva-el-abrigo.wav,./stim/wavs/peruvian_match_declarative-narrow-focus_Ana-lleva-el-abrigo.wav,./stim/wavs/puertorican_match_declarative-narrow-focus_Ana-lleva-el-abrigo.wav,,,,,,,,,,,,,,,,,,,,,,,,,,,,,,,,,,,,,,,,,,,,,,,,,,,,,,,,
,,,,,,,midd05,midd,ma,Spain,Northeast,12 or younger,no,2021-03-26_22h10.26.029,empathy_intonation_perc,2020.2.10,MacIntel,60,IwAR1mORmNZqiy0-Xt8Yys2a3JYiuWueq6LQxyghBFtgCmIeVOU1PxV5WjeM0,,,,,,,,,,1,cuban,1,1,7.28178,0,58,58,22,1,23,./stim/wavs/andalusian_match_interrogative-partial-wh_Por-que-hablaba-del-agua.wav,./stim/wavs/argentine_match_interrogative-partial-wh_Por-que-hablaba-del-agua.wav,./stim/wavs/castilian_match_interrogative-partial-wh_Por-que-hablaba-del-agua.wav,./stim/wavs/chilean_match_interrogative-partial-wh_Por-que-hablaba-del-agua.wav,./stim/wavs/cuban_match_interrogative-partial-wh_Por-que-hablaba-del-agua.wav,./stim/wavs/mexican_match_interrogative-partial-wh_Por-que-hablaba-del-agua.wav,./stim/wavs/peruvian_match_interrogative-partial-wh_Por-que-hablaba-del-agua.wav,./stim/wavs/puertorican_match_interrogative-partial-wh_Por-que-hablaba-del-agua.wav,,,,,,,,,,,,,,,,,,,,,,,,,,,,,,,,,,,,,,,,,,,,,,,,,,,,,,,,
,,,,,,,midd05,midd,ma,Spain,Northeast,12 or younger,no,2021-03-26_22h10.26.029,empathy_intonation_perc,2020.2.10,MacIntel,60,IwAR1mORmNZqiy0-Xt8Yys2a3JYiuWueq6LQxyghBFtgCmIeVOU1PxV5WjeM0,,,,,,,,,,0,andalusian,0,1,2.293125,0,59,59,1,1,2,./stim/wavs/andalusian_match_declarative-broad-focus_Daniel-iba-a-Bolivia.wav,./stim/wavs/argentine_match_declarative-broad-focus_Daniel-iba-a-Bolivia.wav,./stim/wavs/castilian_match_declarative-broad-focus_Daniel-iba-a-Bolivia.wav,./stim/wavs/chilean_match_declarative-broad-focus_Daniel-iba-a-Bolivia.wav,./stim/wavs/cuban_match_declarative-broad-focus_Daniel-iba-a-Bolivia.wav,./stim/wavs/mexican_match_declarative-broad-focus_Daniel-iba-a-Bolivia.wav,./stim/wavs/peruvian_match_declarative-broad-focus_Daniel-iba-a-Bolivia.wav,./stim/wavs/puertorican_match_declarative-broad-focus_Daniel-iba-a-Bolivia.wav,,,,,,,,,,,,,,,,,,,,,,,,,,,,,,,,,,,,,,,,,,,,,,,,,,,,,,,,
,,,,,,,midd05,midd,ma,Spain,Northeast,12 or younger,no,2021-03-26_22h10.26.029,empathy_intonation_perc,2020.2.10,MacIntel,60,IwAR1mORmNZqiy0-Xt8Yys2a3JYiuWueq6LQxyghBFtgCmIeVOU1PxV5WjeM0,,,,,,,,,,0,puertorican,0,1,2.041645,0,60,60,34,1,35,./stim/wavs/andalusian_mismatch_declarative-broad-focus_El-nino-oye-el-rio.wav,./stim/wavs/argentine_mismatch_declarative-broad-focus_El-nino-oye-el-rio.wav,./stim/wavs/castilian_mismatch_declarative-broad-focus_El-nino-oye-el-rio.wav,./stim/wavs/chilean_mismatch_declarative-broad-focus_El-nino-oye-el-rio.wav,./stim/wavs/cuban_mismatch_declarative-broad-focus_El-nino-oye-el-rio.wav,./stim/wavs/mexican_mismatch_declarative-broad-focus_El-nino-oye-el-rio.wav,./stim/wavs/peruvian_mismatch_declarative-broad-focus_El-nino-oye-el-rio.wav,./stim/wavs/puertorican_mismatch_declarative-broad-focus_El-nino-oye-el-rio.wav,,,,,,,,,,,,,,,,,,,,,,,,,,,,,,,,,,,,,,,,,,,,,,,,,,,,,,,,
,,,,,,,midd05,midd,ma,Spain,Northeast,12 or younger,no,2021-03-26_22h10.26.029,empathy_intonation_perc,2020.2.10,MacIntel,60,IwAR1mORmNZqiy0-Xt8Yys2a3JYiuWueq6LQxyghBFtgCmIeVOU1PxV5WjeM0,,,,,,,,,,1,peruvian,1,1,3.851865,0,61,61,16,1,17,./stim/wavs/andalusian_match_interrogative-partial-wh_Cuando-bebia-el-vino.wav,./stim/wavs/argentine_match_interrogative-partial-wh_Cuando-bebia-el-vino.wav,./stim/wavs/castilian_match_interrogative-partial-wh_Cuando-bebia-el-vino.wav,./stim/wavs/chilean_match_interrogative-partial-wh_Cuando-bebia-el-vino.wav,./stim/wavs/cuban_match_interrogative-partial-wh_Cuando-bebia-el-vino.wav,./stim/wavs/mexican_match_interrogative-partial-wh_Cuando-bebia-el-vino.wav,./stim/wavs/peruvian_match_interrogative-partial-wh_Cuando-bebia-el-vino.wav,./stim/wavs/puertorican_match_interrogative-partial-wh_Cuando-bebia-el-vino.wav,,,,,,,,,,,,,,,,,,,,,,,,,,,,,,,,,,,,,,,,,,,,,,,,,,,,,,,,
,,,,,,,midd05,midd,ma,Spain,Northeast,12 or younger,no,2021-03-26_22h10.26.029,empathy_intonation_perc,2020.2.10,MacIntel,60,IwAR1mORmNZqiy0-Xt8Yys2a3JYiuWueq6LQxyghBFtgCmIeVOU1PxV5WjeM0,,,,,,,,,,0,cuban,0,1,4.552475,0,62,62,2,1,3,./stim/wavs/andalusian_match_declarative-broad-focus_David-leia-el-libro.wav,./stim/wavs/argentine_match_declarative-broad-focus_David-leia-el-libro.wav,./stim/wavs/castilian_match_declarative-broad-focus_David-leia-el-libro.wav,./stim/wavs/chilean_match_declarative-broad-focus_David-leia-el-libro.wav,./stim/wavs/cuban_match_declarative-broad-focus_David-leia-el-libro.wav,./stim/wavs/mexican_match_declarative-broad-focus_David-leia-el-libro.wav,./stim/wavs/peruvian_match_declarative-broad-focus_David-leia-el-libro.wav,./stim/wavs/puertorican_match_declarative-broad-focus_David-leia-el-libro.wav,,,,,,,,,,,,,,,,,,,,,,,,,,,,,,,,,,,,,,,,,,,,,,,,,,,,,,,,
,,,,,,,midd05,midd,ma,Spain,Northeast,12 or younger,no,2021-03-26_22h10.26.029,empathy_intonation_perc,2020.2.10,MacIntel,60,IwAR1mORmNZqiy0-Xt8Yys2a3JYiuWueq6LQxyghBFtgCmIeVOU1PxV5WjeM0,,,,,,,,,,0,andalusian,0,1,2.22626,0,63,63,15,1,16,./stim/wavs/andalusian_match_declarative-narrow-focus_Marta-abre-el-regalo.wav,./stim/wavs/argentine_match_declarative-narrow-focus_Marta-abre-el-regalo.wav,./stim/wavs/castilian_match_declarative-narrow-focus_Marta-abre-el-regalo.wav,./stim/wavs/chilean_match_declarative-narrow-focus_Marta-abre-el-regalo.wav,./stim/wavs/cuban_match_declarative-narrow-focus_Marta-abre-el-regalo.wav,./stim/wavs/mexican_match_declarative-narrow-focus_Marta-abre-el-regalo.wav,./stim/wavs/peruvian_match_declarative-narrow-focus_Marta-abre-el-regalo.wav,./stim/wavs/puertorican_match_declarative-narrow-focus_Marta-abre-el-regalo.wav,,,,,,,,,,,,,,,,,,,,,,,,,,,,,,,,,,,,,,,,,,,,,,,,,,,,,,,,
,,,,,,,midd05,midd,ma,Spain,Northeast,12 or younger,no,2021-03-26_22h10.26.029,empathy_intonation_perc,2020.2.10,MacIntel,60,IwAR1mORmNZqiy0-Xt8Yys2a3JYiuWueq6LQxyghBFtgCmIeVOU1PxV5WjeM0,,,,,,,,,,,,,,,,,,,,,,,,,,,,,h,1,8.188725,0,0,0,0,1,,,,,,,,,,,,,,,,,,,,,,,,,,,,,,,,,,,,,,,,,,,,,,,,
,,,,,"Great! Now we will move on. The next task consists of about 60 trials, in each of which you will see a string of letters. 
  
  Your task is to decide whether this is a real Spanish word or not.",(press the spacebar to continue),midd05,midd,ma,Spain,Northeast,12 or younger,no,2021-03-26_22h10.26.029,empathy_intonation_perc,2020.2.10,MacIntel,60,IwAR1mORmNZqiy0-Xt8Yys2a3JYiuWueq6LQxyghBFtgCmIeVOU1PxV5WjeM0,,,,,,,,,,,,,,,,,,,,,,,,,,,,,,,,,,,,,0,0,0,0,1,,,,,,,,,,,,,,,,,,,,,,,,,,,,,,,,,,,,,,,,,,,
,,,,,"If you think it is an existing Spanish word, you type '1' (for 'REAL'), and if you think it is not an existing Spanish word, you type '0' (for 'FAKE').",(press the spacebar to continue),midd05,midd,ma,Spain,Northeast,12 or younger,no,2021-03-26_22h10.26.029,empathy_intonation_perc,2020.2.10,MacIntel,60,IwAR1mORmNZqiy0-Xt8Yys2a3JYiuWueq6LQxyghBFtgCmIeVOU1PxV5WjeM0,,,,,,,,,,,,,,,,,,,,,,,,,,,,,,,,,,,,,0,1,1,1,1,,,,,,,,,,,,,,,,,,,,,,,,,,,,,,,,,,,,,,,,,,,
,,,,,"If you are sure that the word exists, even though you dont know its exact meaning, you may still respond '1' (REAL). 
  
  But if you are not sure if it is an existing word, you should respond '0' (FAKE).
  
  Let's do a practice round...",(press the spacebar to continue),midd05,midd,ma,Spain,Northeast,12 or younger,no,2021-03-26_22h10.26.029,empathy_intonation_perc,2020.2.10,MacIntel,60,IwAR1mORmNZqiy0-Xt8Yys2a3JYiuWueq6LQxyghBFtgCmIeVOU1PxV5WjeM0,,,,,,,,,,,,,,,,,,,,,,,,,,,,,,,,,,,,,0,2,2,2,1,,,,,,,,,,,,,,,,,,,,,,,,,,,,,,,,,,,,,,,,,,,
,,,,,,,midd05,midd,ma,Spain,Northeast,12 or younger,no,2021-03-26_22h10.26.029,empathy_intonation_perc,2020.2.10,MacIntel,60,IwAR1mORmNZqiy0-Xt8Yys2a3JYiuWueq6LQxyghBFtgCmIeVOU1PxV5WjeM0,,,,,,,,,,0,,,,,,,,,,,,,,,,,,,,,,,,,,,,,,,,0,1,3.183815,0,0,0,0,1,0,depiste,REAL,FAKE,,,,,,,,,,,,,,,,,,,,,,,,,,,,,,,
,,,,,,,midd05,midd,ma,Spain,Northeast,12 or younger,no,2021-03-26_22h10.26.029,empathy_intonation_perc,2020.2.10,MacIntel,60,IwAR1mORmNZqiy0-Xt8Yys2a3JYiuWueq6LQxyghBFtgCmIeVOU1PxV5WjeM0,,,,,,,,,,1,,,,,,,,,,,,,,,,,,,,,,,,,,,,,,,,1,1,1.102005,0,1,1,1,1,0,s,REAL,FAKE,,,,,,,,,,,,,,,,,,,,,,,,,,,,,,,
,,,,,,,midd05,midd,ma,Spain,Northeast,12 or younger,no,2021-03-26_22h10.26.029,empathy_intonation_perc,2020.2.10,MacIntel,60,IwAR1mORmNZqiy0-Xt8Yys2a3JYiuWueq6LQxyghBFtgCmIeVOU1PxV5WjeM0,,,,,,,,,,0,,,,,,,,,,,,,,,,,,,,,,,,,,,,,,,,0,1,1.635595,0,2,2,2,1,0,con,REAL,FAKE,,,,,,,,,,,,,,,,,,,,,,,,,,,,,,,
,,,,,,,midd05,midd,ma,Spain,Northeast,12 or younger,no,2021-03-26_22h10.26.029,empathy_intonation_perc,2020.2.10,MacIntel,60,IwAR1mORmNZqiy0-Xt8Yys2a3JYiuWueq6LQxyghBFtgCmIeVOU1PxV5WjeM0,,,,,,,,,,0,,,,,,,,,,,,,,,,,,,,,,,,,,,,,,,,0,1,3.929485,0,3,3,3,1,0,calpar,REAL,FAKE,,,,,,,,,,,,,,,,,,,,,,,,,,,,,,,
,,,,,,,midd05,midd,ma,Spain,Northeast,12 or younger,no,2021-03-26_22h10.26.029,empathy_intonation_perc,2020.2.10,MacIntel,60,IwAR1mORmNZqiy0-Xt8Yys2a3JYiuWueq6LQxyghBFtgCmIeVOU1PxV5WjeM0,,,,,,,,,,0,,,,,,,,,,,,,,,,,,,,,,,,,,,,,,,,0,1,1.22615,0,4,4,4,1,0,joten,REAL,FAKE,,,,,,,,,,,,,,,,,,,,,,,,,,,,,,,
,,,,,,,midd05,midd,ma,Spain,Northeast,12 or younger,no,2021-03-26_22h10.26.029,empathy_intonation_perc,2020.2.10,MacIntel,60,IwAR1mORmNZqiy0-Xt8Yys2a3JYiuWueq6LQxyghBFtgCmIeVOU1PxV5WjeM0,,,,,,,,,,1,,,,,,,,,,,,,,,,,,,,,,,,,,,,,,,,1,1,1.290605,0,5,5,5,1,0,sacapuntas,REAL,FAKE,,,,,,,,,,,,,,,,,,,,,,,,,,,,,,,
,,,,,,,midd05,midd,ma,Spain,Northeast,12 or younger,no,2021-03-26_22h10.26.029,empathy_intonation_perc,2020.2.10,MacIntel,60,IwAR1mORmNZqiy0-Xt8Yys2a3JYiuWueq6LQxyghBFtgCmIeVOU1PxV5WjeM0,,,,,,,,,,0,,,,,,,,,,,,,,,,,,,,,,,,,,,,,,,,0,1,2.586775,0,6,6,6,1,0,priba,REAL,FAKE,,,,,,,,,,,,,,,,,,,,,,,,,,,,,,,
,,,,,,,midd05,midd,ma,Spain,Northeast,12 or younger,no,2021-03-26_22h10.26.029,empathy_intonation_perc,2020.2.10,MacIntel,60,IwAR1mORmNZqiy0-Xt8Yys2a3JYiuWueq6LQxyghBFtgCmIeVOU1PxV5WjeM0,,,,,,,,,,0,,,,,,,,,,,,,,,,,,,,,,,,,,,,,,,,0,1,1.502095,0,7,7,7,1,0,pelasula,REAL,FAKE,,,,,,,,,,,,,,,,,,,,,,,,,,,,,,,
,,,,,,,midd05,midd,ma,Spain,Northeast,12 or younger,no,2021-03-26_22h10.26.029,empathy_intonation_perc,2020.2.10,MacIntel,60,IwAR1mORmNZqiy0-Xt8Yys2a3JYiuWueq6LQxyghBFtgCmIeVOU1PxV5WjeM0,,,,,,,,,,1,,,,,,,,,,,,,,,,,,,,,,,,,,,,,,,,1,1,0.834755,0,8,8,8,1,0,bien,REAL,FAKE,,,,,,,,,,,,,,,,,,,,,,,,,,,,,,,
,,,,,,,midd05,midd,ma,Spain,Northeast,12 or younger,no,2021-03-26_22h10.26.029,empathy_intonation_perc,2020.2.10,MacIntel,60,IwAR1mORmNZqiy0-Xt8Yys2a3JYiuWueq6LQxyghBFtgCmIeVOU1PxV5WjeM0,,,,,,,,,,1,,,,,,,,,,,,,,,,,,,,,,,,,,,,,,,,1,1,0.73646,0,9,9,9,1,0,casa,REAL,FAKE,,,,,,,,,,,,,,,,,,,,,,,,,,,,,,,
,,,,,,,midd05,midd,ma,Spain,Northeast,12 or younger,no,2021-03-26_22h10.26.029,empathy_intonation_perc,2020.2.10,MacIntel,60,IwAR1mORmNZqiy0-Xt8Yys2a3JYiuWueq6LQxyghBFtgCmIeVOU1PxV5WjeM0,,,,,,,,,,0,,,,,,,,,,,,,,,,,,,,,,,,,,,,,,,,0,1,1.917955,0,10,10,10,1,0,lejo,REAL,FAKE,,,,,,,,,,,,,,,,,,,,,,,,,,,,,,,
,,,,,,,midd05,midd,ma,Spain,Northeast,12 or younger,no,2021-03-26_22h10.26.029,empathy_intonation_perc,2020.2.10,MacIntel,60,IwAR1mORmNZqiy0-Xt8Yys2a3JYiuWueq6LQxyghBFtgCmIeVOU1PxV5WjeM0,,,,,,,,,,0,,,,,,,,,,,,,,,,,,,,,,,,,,,,,,,,0,1,2.375955,0,11,11,11,1,0,pretantas,REAL,FAKE,,,,,,,,,,,,,,,,,,,,,,,,,,,,,,,
,,,,,,,midd05,midd,ma,Spain,Northeast,12 or younger,no,2021-03-26_22h10.26.029,empathy_intonation_perc,2020.2.10,MacIntel,60,IwAR1mORmNZqiy0-Xt8Yys2a3JYiuWueq6LQxyghBFtgCmIeVOU1PxV5WjeM0,,,,,,,,,,1,,,,,,,,,,,,,,,,,,,,,,,,,,,,,,,,,,,,,,,,90,clavel,,,1,1,1.937925,0,0,0,89,1,REAL,FAKE,,,,,,,,,,,,,,,,,,,,,
,,,,,,,midd05,midd,ma,Spain,Northeast,12 or younger,no,2021-03-26_22h10.26.029,empathy_intonation_perc,2020.2.10,MacIntel,60,IwAR1mORmNZqiy0-Xt8Yys2a3JYiuWueq6LQxyghBFtgCmIeVOU1PxV5WjeM0,,,,,,,,,,1,,,,,,,,,,,,,,,,,,,,,,,,,,,,,,,,,,,,,,,,39,torpe,,,1,1,1.33715,0,1,1,38,1,REAL,FAKE,,,,,,,,,,,,,,,,,,,,,
,,,,,,,midd05,midd,ma,Spain,Northeast,12 or younger,no,2021-03-26_22h10.26.029,empathy_intonation_perc,2020.2.10,MacIntel,60,IwAR1mORmNZqiy0-Xt8Yys2a3JYiuWueq6LQxyghBFtgCmIeVOU1PxV5WjeM0,,,,,,,,,,1,,,,,,,,,,,,,,,,,,,,,,,,,,,,,,,,,,,,,,,,2,pellizcar,,,1,1,1.450545,0,2,2,1,1,REAL,FAKE,,,,,,,,,,,,,,,,,,,,,
,,,,,,,midd05,midd,ma,Spain,Northeast,12 or younger,no,2021-03-26_22h10.26.029,empathy_intonation_perc,2020.2.10,MacIntel,60,IwAR1mORmNZqiy0-Xt8Yys2a3JYiuWueq6LQxyghBFtgCmIeVOU1PxV5WjeM0,,,,,,,,,,1,,,,,,,,,,,,,,,,,,,,,,,,,,,,,,,,,,,,,,,,64,orgulloso,,,1,1,1.203045,0,3,3,63,1,REAL,FAKE,,,,,,,,,,,,,,,,,,,,,
,,,,,,,midd05,midd,ma,Spain,Northeast,12 or younger,no,2021-03-26_22h10.26.029,empathy_intonation_perc,2020.2.10,MacIntel,60,IwAR1mORmNZqiy0-Xt8Yys2a3JYiuWueq6LQxyghBFtgCmIeVOU1PxV5WjeM0,,,,,,,,,,1,,,,,,,,,,,,,,,,,,,,,,,,,,,,,,,,,,,,,,,,40,alfombra,,,1,1,1.29049,0,4,4,39,1,REAL,FAKE,,,,,,,,,,,,,,,,,,,,,
,,,,,,,midd05,midd,ma,Spain,Northeast,12 or younger,no,2021-03-26_22h10.26.029,empathy_intonation_perc,2020.2.10,MacIntel,60,IwAR1mORmNZqiy0-Xt8Yys2a3JYiuWueq6LQxyghBFtgCmIeVOU1PxV5WjeM0,,,,,,,,,,1,,,,,,,,,,,,,,,,,,,,,,,,,,,,,,,,,,,,,,,,77,tiburn,,,1,1,0.78566,0,5,5,76,1,REAL,FAKE,,,,,,,,,,,,,,,,,,,,,
,,,,,,,midd05,midd,ma,Spain,Northeast,12 or younger,no,2021-03-26_22h10.26.029,empathy_intonation_perc,2020.2.10,MacIntel,60,IwAR1mORmNZqiy0-Xt8Yys2a3JYiuWueq6LQxyghBFtgCmIeVOU1PxV5WjeM0,,,,,,,,,,1,,,,,,,,,,,,,,,,,,,,,,,,,,,,,,,,,,,,,,,,5,zapato,,,1,1,0.734695,0,6,6,4,1,REAL,FAKE,,,,,,,,,,,,,,,,,,,,,
,,,,,,,midd05,midd,ma,Spain,Northeast,12 or younger,no,2021-03-26_22h10.26.029,empathy_intonation_perc,2020.2.10,MacIntel,60,IwAR1mORmNZqiy0-Xt8Yys2a3JYiuWueq6LQxyghBFtgCmIeVOU1PxV5WjeM0,,,,,,,,,,0,,,,,,,,,,,,,,,,,,,,,,,,,,,,,,,,,,,,,,,,35,rompido,,,0,1,2.358985,0,7,7,34,1,REAL,FAKE,,,,,,,,,,,,,,,,,,,,,
,,,,,,,midd05,midd,ma,Spain,Northeast,12 or younger,no,2021-03-26_22h10.26.029,empathy_intonation_perc,2020.2.10,MacIntel,60,IwAR1mORmNZqiy0-Xt8Yys2a3JYiuWueq6LQxyghBFtgCmIeVOU1PxV5WjeM0,,,,,,,,,,1,,,,,,,,,,,,,,,,,,,,,,,,,,,,,,,,,,,,,,,,55,nevar,,,1,1,1.20509,0,8,8,54,1,REAL,FAKE,,,,,,,,,,,,,,,,,,,,,
,,,,,,,midd05,midd,ma,Spain,Northeast,12 or younger,no,2021-03-26_22h10.26.029,empathy_intonation_perc,2020.2.10,MacIntel,60,IwAR1mORmNZqiy0-Xt8Yys2a3JYiuWueq6LQxyghBFtgCmIeVOU1PxV5WjeM0,,,,,,,,,,1,,,,,,,,,,,,,,,,,,,,,,,,,,,,,,,,,,,,,,,,52,camisa,,,1,1,1.236995,0,9,9,51,1,REAL,FAKE,,,,,,,,,,,,,,,,,,,,,
,,,,,,,midd05,midd,ma,Spain,Northeast,12 or younger,no,2021-03-26_22h10.26.029,empathy_intonation_perc,2020.2.10,MacIntel,60,IwAR1mORmNZqiy0-Xt8Yys2a3JYiuWueq6LQxyghBFtgCmIeVOU1PxV5WjeM0,,,,,,,,,,1,,,,,,,,,,,,,,,,,,,,,,,,,,,,,,,,,,,,,,,,11,cenefa,,,0,0,1.107505,0,10,10,10,1,REAL,FAKE,,,,,,,,,,,,,,,,,,,,,
,,,,,,,midd05,midd,ma,Spain,Northeast,12 or younger,no,2021-03-26_22h10.26.029,empathy_intonation_perc,2020.2.10,MacIntel,60,IwAR1mORmNZqiy0-Xt8Yys2a3JYiuWueq6LQxyghBFtgCmIeVOU1PxV5WjeM0,,,,,,,,,,0,,,,,,,,,,,,,,,,,,,,,,,,,,,,,,,,,,,,,,,,33,pauca,,,0,1,1.36873,0,11,11,32,1,REAL,FAKE,,,,,,,,,,,,,,,,,,,,,
,,,,,,,midd05,midd,ma,Spain,Northeast,12 or younger,no,2021-03-26_22h10.26.029,empathy_intonation_perc,2020.2.10,MacIntel,60,IwAR1mORmNZqiy0-Xt8Yys2a3JYiuWueq6LQxyghBFtgCmIeVOU1PxV5WjeM0,,,,,,,,,,1,,,,,,,,,,,,,,,,,,,,,,,,,,,,,,,,,,,,,,,,76,atar,,,1,1,1.21595,0,12,12,75,1,REAL,FAKE,,,,,,,,,,,,,,,,,,,,,
,,,,,,,midd05,midd,ma,Spain,Northeast,12 or younger,no,2021-03-26_22h10.26.029,empathy_intonation_perc,2020.2.10,MacIntel,60,IwAR1mORmNZqiy0-Xt8Yys2a3JYiuWueq6LQxyghBFtgCmIeVOU1PxV5WjeM0,,,,,,,,,,1,,,,,,,,,,,,,,,,,,,,,,,,,,,,,,,,,,,,,,,,68,alegre,,,1,1,0.994465,0,13,13,67,1,REAL,FAKE,,,,,,,,,,,,,,,,,,,,,
,,,,,,,midd05,midd,ma,Spain,Northeast,12 or younger,no,2021-03-26_22h10.26.029,empathy_intonation_perc,2020.2.10,MacIntel,60,IwAR1mORmNZqiy0-Xt8Yys2a3JYiuWueq6LQxyghBFtgCmIeVOU1PxV5WjeM0,,,,,,,,,,0,,,,,,,,,,,,,,,,,,,,,,,,,,,,,,,,,,,,,,,,16,abracer,,,0,1,2.829445,0,14,14,15,1,REAL,FAKE,,,,,,,,,,,,,,,,,,,,,
,,,,,,,midd05,midd,ma,Spain,Northeast,12 or younger,no,2021-03-26_22h10.26.029,empathy_intonation_perc,2020.2.10,MacIntel,60,IwAR1mORmNZqiy0-Xt8Yys2a3JYiuWueq6LQxyghBFtgCmIeVOU1PxV5WjeM0,,,,,,,,,,1,,,,,,,,,,,,,,,,,,,,,,,,,,,,,,,,,,,,,,,,34,aviso,,,1,1,0.86299,0,15,15,33,1,REAL,FAKE,,,,,,,,,,,,,,,,,,,,,
,,,,,,,midd05,midd,ma,Spain,Northeast,12 or younger,no,2021-03-26_22h10.26.029,empathy_intonation_perc,2020.2.10,MacIntel,60,IwAR1mORmNZqiy0-Xt8Yys2a3JYiuWueq6LQxyghBFtgCmIeVOU1PxV5WjeM0,,,,,,,,,,1,,,,,,,,,,,,,,,,,,,,,,,,,,,,,,,,,,,,,,,,62,flaco,,,1,1,0.68697,0,16,16,61,1,REAL,FAKE,,,,,,,,,,,,,,,,,,,,,
,,,,,,,midd05,midd,ma,Spain,Northeast,12 or younger,no,2021-03-26_22h10.26.029,empathy_intonation_perc,2020.2.10,MacIntel,60,IwAR1mORmNZqiy0-Xt8Yys2a3JYiuWueq6LQxyghBFtgCmIeVOU1PxV5WjeM0,,,,,,,,,,1,,,,,,,,,,,,,,,,,,,,,,,,,,,,,,,,,,,,,,,,67,cabello,,,1,1,1.029665,0,17,17,66,1,REAL,FAKE,,,,,,,,,,,,,,,,,,,,,
,,,,,,,midd05,midd,ma,Spain,Northeast,12 or younger,no,2021-03-26_22h10.26.029,empathy_intonation_perc,2020.2.10,MacIntel,60,IwAR1mORmNZqiy0-Xt8Yys2a3JYiuWueq6LQxyghBFtgCmIeVOU1PxV5WjeM0,,,,,,,,,,0,,,,,,,,,,,,,,,,,,,,,,,,,,,,,,,,,,,,,,,,70,temblo,,,1,0,1.07417,0,18,18,69,1,REAL,FAKE,,,,,,,,,,,,,,,,,,,,,
,,,,,,,midd05,midd,ma,Spain,Northeast,12 or younger,no,2021-03-26_22h10.26.029,empathy_intonation_perc,2020.2.10,MacIntel,60,IwAR1mORmNZqiy0-Xt8Yys2a3JYiuWueq6LQxyghBFtgCmIeVOU1PxV5WjeM0,,,,,,,,,,1,,,,,,,,,,,,,,,,,,,,,,,,,,,,,,,,,,,,,,,,65,bizcocho,,,1,1,0.97277,0,19,19,64,1,REAL,FAKE,,,,,,,,,,,,,,,,,,,,,
,,,,,,,midd05,midd,ma,Spain,Northeast,12 or younger,no,2021-03-26_22h10.26.029,empathy_intonation_perc,2020.2.10,MacIntel,60,IwAR1mORmNZqiy0-Xt8Yys2a3JYiuWueq6LQxyghBFtgCmIeVOU1PxV5WjeM0,,,,,,,,,,1,,,,,,,,,,,,,,,,,,,,,,,,,,,,,,,,,,,,,,,,6,tergiversar,,,0,0,2.043655,0,20,20,5,1,REAL,FAKE,,,,,,,,,,,,,,,,,,,,,
,,,,,,,midd05,midd,ma,Spain,Northeast,12 or younger,no,2021-03-26_22h10.26.029,empathy_intonation_perc,2020.2.10,MacIntel,60,IwAR1mORmNZqiy0-Xt8Yys2a3JYiuWueq6LQxyghBFtgCmIeVOU1PxV5WjeM0,,,,,,,,,,1,,,,,,,,,,,,,,,,,,,,,,,,,,,,,,,,,,,,,,,,36,loro,,,1,1,1.02774,0,21,21,35,1,REAL,FAKE,,,,,,,,,,,,,,,,,,,,,
,,,,,,,midd05,midd,ma,Spain,Northeast,12 or younger,no,2021-03-26_22h10.26.029,empathy_intonation_perc,2020.2.10,MacIntel,60,IwAR1mORmNZqiy0-Xt8Yys2a3JYiuWueq6LQxyghBFtgCmIeVOU1PxV5WjeM0,,,,,,,,,,1,,,,,,,,,,,,,,,,,,,,,,,,,,,,,,,,,,,,,,,,60,matar,,,1,1,0.631745,0,22,22,59,1,REAL,FAKE,,,,,,,,,,,,,,,,,,,,,
,,,,,,,midd05,midd,ma,Spain,Northeast,12 or younger,no,2021-03-26_22h10.26.029,empathy_intonation_perc,2020.2.10,MacIntel,60,IwAR1mORmNZqiy0-Xt8Yys2a3JYiuWueq6LQxyghBFtgCmIeVOU1PxV5WjeM0,,,,,,,,,,1,,,,,,,,,,,,,,,,,,,,,,,,,,,,,,,,,,,,,,,,7,psimo,,,1,1,0.84003,0,23,23,6,1,REAL,FAKE,,,,,,,,,,,,,,,,,,,,,
,,,,,,,midd05,midd,ma,Spain,Northeast,12 or younger,no,2021-03-26_22h10.26.029,empathy_intonation_perc,2020.2.10,MacIntel,60,IwAR1mORmNZqiy0-Xt8Yys2a3JYiuWueq6LQxyghBFtgCmIeVOU1PxV5WjeM0,,,,,,,,,,0,,,,,,,,,,,,,,,,,,,,,,,,,,,,,,,,,,,,,,,,10,antar,,,0,1,2.065205,0,24,24,9,1,REAL,FAKE,,,,,,,,,,,,,,,,,,,,,
,,,,,,,midd05,midd,ma,Spain,Northeast,12 or younger,no,2021-03-26_22h10.26.029,empathy_intonation_perc,2020.2.10,MacIntel,60,IwAR1mORmNZqiy0-Xt8Yys2a3JYiuWueq6LQxyghBFtgCmIeVOU1PxV5WjeM0,,,,,,,,,,1,,,,,,,,,,,,,,,,,,,,,,,,,,,,,,,,,,,,,,,,57,tacao,,,1,1,1.06772,0,25,25,56,1,REAL,FAKE,,,,,,,,,,,,,,,,,,,,,
,,,,,,,midd05,midd,ma,Spain,Northeast,12 or younger,no,2021-03-26_22h10.26.029,empathy_intonation_perc,2020.2.10,MacIntel,60,IwAR1mORmNZqiy0-Xt8Yys2a3JYiuWueq6LQxyghBFtgCmIeVOU1PxV5WjeM0,,,,,,,,,,1,,,,,,,,,,,,,,,,,,,,,,,,,,,,,,,,,,,,,,,,54,fomentar,,,1,1,0.75791,0,26,26,53,1,REAL,FAKE,,,,,,,,,,,,,,,,,,,,,
,,,,,,,midd05,midd,ma,Spain,Northeast,12 or younger,no,2021-03-26_22h10.26.029,empathy_intonation_perc,2020.2.10,MacIntel,60,IwAR1mORmNZqiy0-Xt8Yys2a3JYiuWueq6LQxyghBFtgCmIeVOU1PxV5WjeM0,,,,,,,,,,0,,,,,,,,,,,,,,,,,,,,,,,,,,,,,,,,,,,,,,,,84,escuto,,,0,1,3.92734,0,27,27,83,1,REAL,FAKE,,,,,,,,,,,,,,,,,,,,,
,,,,,,,midd05,midd,ma,Spain,Northeast,12 or younger,no,2021-03-26_22h10.26.029,empathy_intonation_perc,2020.2.10,MacIntel,60,IwAR1mORmNZqiy0-Xt8Yys2a3JYiuWueq6LQxyghBFtgCmIeVOU1PxV5WjeM0,,,,,,,,,,0,,,,,,,,,,,,,,,,,,,,,,,,,,,,,,,,,,,,,,,,23,lampera,,,0,1,1.634535,0,28,28,22,1,REAL,FAKE,,,,,,,,,,,,,,,,,,,,,
,,,,,,,midd05,midd,ma,Spain,Northeast,12 or younger,no,2021-03-26_22h10.26.029,empathy_intonation_perc,2020.2.10,MacIntel,60,IwAR1mORmNZqiy0-Xt8Yys2a3JYiuWueq6LQxyghBFtgCmIeVOU1PxV5WjeM0,,,,,,,,,,1,,,,,,,,,,,,,,,,,,,,,,,,,,,,,,,,,,,,,,,,88,acantilado,,,0,0,2.87015,0,29,29,87,1,REAL,FAKE,,,,,,,,,,,,,,,,,,,,,
,,,,,,,midd05,midd,ma,Spain,Northeast,12 or younger,no,2021-03-26_22h10.26.029,empathy_intonation_perc,2020.2.10,MacIntel,60,IwAR1mORmNZqiy0-Xt8Yys2a3JYiuWueq6LQxyghBFtgCmIeVOU1PxV5WjeM0,,,,,,,,,,1,,,,,,,,,,,,,,,,,,,,,,,,,,,,,,,,,,,,,,,,37,granuja,,,0,0,0.978685,0,30,30,36,1,REAL,FAKE,,,,,,,,,,,,,,,,,,,,,
,,,,,,,midd05,midd,ma,Spain,Northeast,12 or younger,no,2021-03-26_22h10.26.029,empathy_intonation_perc,2020.2.10,MacIntel,60,IwAR1mORmNZqiy0-Xt8Yys2a3JYiuWueq6LQxyghBFtgCmIeVOU1PxV5WjeM0,,,,,,,,,,1,,,,,,,,,,,,,,,,,,,,,,,,,,,,,,,,,,,,,,,,48,ladrn,,,1,1,0.74798,0,31,31,47,1,REAL,FAKE,,,,,,,,,,,,,,,,,,,,,
,,,,,,,midd05,midd,ma,Spain,Northeast,12 or younger,no,2021-03-26_22h10.26.029,empathy_intonation_perc,2020.2.10,MacIntel,60,IwAR1mORmNZqiy0-Xt8Yys2a3JYiuWueq6LQxyghBFtgCmIeVOU1PxV5WjeM0,,,,,,,,,,1,,,,,,,,,,,,,,,,,,,,,,,,,,,,,,,,,,,,,,,,28,merodear,,,0,0,1.62142,0,32,32,27,1,REAL,FAKE,,,,,,,,,,,,,,,,,,,,,
,,,,,,,midd05,midd,ma,Spain,Northeast,12 or younger,no,2021-03-26_22h10.26.029,empathy_intonation_perc,2020.2.10,MacIntel,60,IwAR1mORmNZqiy0-Xt8Yys2a3JYiuWueq6LQxyghBFtgCmIeVOU1PxV5WjeM0,,,,,,,,,,0,,,,,,,,,,,,,,,,,,,,,,,,,,,,,,,,,,,,,,,,27,acutacin,,,0,1,2.18266,0,33,33,26,1,REAL,FAKE,,,,,,,,,,,,,,,,,,,,,
,,,,,,,midd05,midd,ma,Spain,Northeast,12 or younger,no,2021-03-26_22h10.26.029,empathy_intonation_perc,2020.2.10,MacIntel,60,IwAR1mORmNZqiy0-Xt8Yys2a3JYiuWueq6LQxyghBFtgCmIeVOU1PxV5WjeM0,,,,,,,,,,1,,,,,,,,,,,,,,,,,,,,,,,,,,,,,,,,,,,,,,,,15,regar,,,1,1,2.275055,0,34,34,14,1,REAL,FAKE,,,,,,,,,,,,,,,,,,,,,
,,,,,,,midd05,midd,ma,Spain,Northeast,12 or younger,no,2021-03-26_22h10.26.029,empathy_intonation_perc,2020.2.10,MacIntel,60,IwAR1mORmNZqiy0-Xt8Yys2a3JYiuWueq6LQxyghBFtgCmIeVOU1PxV5WjeM0,,,,,,,,,,0,,,,,,,,,,,,,,,,,,,,,,,,,,,,,,,,,,,,,,,,74,cintro,,,0,1,1.0141,0,35,35,73,1,REAL,FAKE,,,,,,,,,,,,,,,,,,,,,
,,,,,,,midd05,midd,ma,Spain,Northeast,12 or younger,no,2021-03-26_22h10.26.029,empathy_intonation_perc,2020.2.10,MacIntel,60,IwAR1mORmNZqiy0-Xt8Yys2a3JYiuWueq6LQxyghBFtgCmIeVOU1PxV5WjeM0,,,,,,,,,,1,,,,,,,,,,,,,,,,,,,,,,,,,,,,,,,,,,,,,,,,45,jilguero,,,0,0,1.738575,0,36,36,44,1,REAL,FAKE,,,,,,,,,,,,,,,,,,,,,
,,,,,,,midd05,midd,ma,Spain,Northeast,12 or younger,no,2021-03-26_22h10.26.029,empathy_intonation_perc,2020.2.10,MacIntel,60,IwAR1mORmNZqiy0-Xt8Yys2a3JYiuWueq6LQxyghBFtgCmIeVOU1PxV5WjeM0,,,,,,,,,,0,,,,,,,,,,,,,,,,,,,,,,,,,,,,,,,,,,,,,,,,50,flamida,,,0,1,1.03505,0,37,37,49,1,REAL,FAKE,,,,,,,,,,,,,,,,,,,,,
,,,,,,,midd05,midd,ma,Spain,Northeast,12 or younger,no,2021-03-26_22h10.26.029,empathy_intonation_perc,2020.2.10,MacIntel,60,IwAR1mORmNZqiy0-Xt8Yys2a3JYiuWueq6LQxyghBFtgCmIeVOU1PxV5WjeM0,,,,,,,,,,0,,,,,,,,,,,,,,,,,,,,,,,,,,,,,,,,,,,,,,,,32,fatacidad,,,0,1,2.3157,0,38,38,31,1,REAL,FAKE,,,,,,,,,,,,,,,,,,,,,
,,,,,,,midd05,midd,ma,Spain,Northeast,12 or younger,no,2021-03-26_22h10.26.029,empathy_intonation_perc,2020.2.10,MacIntel,60,IwAR1mORmNZqiy0-Xt8Yys2a3JYiuWueq6LQxyghBFtgCmIeVOU1PxV5WjeM0,,,,,,,,,,1,,,,,,,,,,,,,,,,,,,,,,,,,,,,,,,,,,,,,,,,71,polvoriento,,,0,0,1.48652,0,39,39,70,1,REAL,FAKE,,,,,,,,,,,,,,,,,,,,,
,,,,,,,midd05,midd,ma,Spain,Northeast,12 or younger,no,2021-03-26_22h10.26.029,empathy_intonation_perc,2020.2.10,MacIntel,60,IwAR1mORmNZqiy0-Xt8Yys2a3JYiuWueq6LQxyghBFtgCmIeVOU1PxV5WjeM0,,,,,,,,,,1,,,,,,,,,,,,,,,,,,,,,,,,,,,,,,,,,,,,,,,,26,secuestro,,,1,1,0.89412,0,40,40,25,1,REAL,FAKE,,,,,,,,,,,,,,,,,,,,,
,,,,,,,midd05,midd,ma,Spain,Northeast,12 or younger,no,2021-03-26_22h10.26.029,empathy_intonation_perc,2020.2.10,MacIntel,60,IwAR1mORmNZqiy0-Xt8Yys2a3JYiuWueq6LQxyghBFtgCmIeVOU1PxV5WjeM0,,,,,,,,,,1,,,,,,,,,,,,,,,,,,,,,,,,,,,,,,,,,,,,,,,,85,lad,,,0,0,1.86277,0,41,41,84,1,REAL,FAKE,,,,,,,,,,,,,,,,,,,,,
,,,,,,,midd05,midd,ma,Spain,Northeast,12 or younger,no,2021-03-26_22h10.26.029,empathy_intonation_perc,2020.2.10,MacIntel,60,IwAR1mORmNZqiy0-Xt8Yys2a3JYiuWueq6LQxyghBFtgCmIeVOU1PxV5WjeM0,,,,,,,,,,1,,,,,,,,,,,,,,,,,,,,,,,,,,,,,,,,,,,,,,,,80,hormiga,,,1,1,0.772225,0,42,42,79,1,REAL,FAKE,,,,,,,,,,,,,,,,,,,,,
,,,,,,,midd05,midd,ma,Spain,Northeast,12 or younger,no,2021-03-26_22h10.26.029,empathy_intonation_perc,2020.2.10,MacIntel,60,IwAR1mORmNZqiy0-Xt8Yys2a3JYiuWueq6LQxyghBFtgCmIeVOU1PxV5WjeM0,,,,,,,,,,1,,,,,,,,,,,,,,,,,,,,,,,,,,,,,,,,,,,,,,,,9,hacha,,,0,0,2.07298,0,43,43,8,1,REAL,FAKE,,,,,,,,,,,,,,,,,,,,,
,,,,,,,midd05,midd,ma,Spain,Northeast,12 or younger,no,2021-03-26_22h10.26.029,empathy_intonation_perc,2020.2.10,MacIntel,60,IwAR1mORmNZqiy0-Xt8Yys2a3JYiuWueq6LQxyghBFtgCmIeVOU1PxV5WjeM0,,,,,,,,,,1,,,,,,,,,,,,,,,,,,,,,,,,,,,,,,,,,,,,,,,,49,ganar,,,1,1,0.78173,0,44,44,48,1,REAL,FAKE,,,,,,,,,,,,,,,,,,,,,
,,,,,,,midd05,midd,ma,Spain,Northeast,12 or younger,no,2021-03-26_22h10.26.029,empathy_intonation_perc,2020.2.10,MacIntel,60,IwAR1mORmNZqiy0-Xt8Yys2a3JYiuWueq6LQxyghBFtgCmIeVOU1PxV5WjeM0,,,,,,,,,,1,,,,,,,,,,,,,,,,,,,,,,,,,,,,,,,,,,,,,,,,86,barato,,,1,1,0.80256,0,45,45,85,1,REAL,FAKE,,,,,,,,,,,,,,,,,,,,,
,,,,,,,midd05,midd,ma,Spain,Northeast,12 or younger,no,2021-03-26_22h10.26.029,empathy_intonation_perc,2020.2.10,MacIntel,60,IwAR1mORmNZqiy0-Xt8Yys2a3JYiuWueq6LQxyghBFtgCmIeVOU1PxV5WjeM0,,,,,,,,,,0,,,,,,,,,,,,,,,,,,,,,,,,,,,,,,,,,,,,,,,,66,hacido,,,0,1,0.89054,0,46,46,65,1,REAL,FAKE,,,,,,,,,,,,,,,,,,,,,
,,,,,,,midd05,midd,ma,Spain,Northeast,12 or younger,no,2021-03-26_22h10.26.029,empathy_intonation_perc,2020.2.10,MacIntel,60,IwAR1mORmNZqiy0-Xt8Yys2a3JYiuWueq6LQxyghBFtgCmIeVOU1PxV5WjeM0,,,,,,,,,,0,,,,,,,,,,,,,,,,,,,,,,,,,,,,,,,,,,,,,,,,53,vegada,,,0,1,2.50092,0,47,47,52,1,REAL,FAKE,,,,,,,,,,,,,,,,,,,,,
,,,,,,,midd05,midd,ma,Spain,Northeast,12 or younger,no,2021-03-26_22h10.26.029,empathy_intonation_perc,2020.2.10,MacIntel,60,IwAR1mORmNZqiy0-Xt8Yys2a3JYiuWueq6LQxyghBFtgCmIeVOU1PxV5WjeM0,,,,,,,,,,1,,,,,,,,,,,,,,,,,,,,,,,,,,,,,,,,,,,,,,,,46,martillo,,,1,1,1.014815,0,48,48,45,1,REAL,FAKE,,,,,,,,,,,,,,,,,,,,,
,,,,,,,midd05,midd,ma,Spain,Northeast,12 or younger,no,2021-03-26_22h10.26.029,empathy_intonation_perc,2020.2.10,MacIntel,60,IwAR1mORmNZqiy0-Xt8Yys2a3JYiuWueq6LQxyghBFtgCmIeVOU1PxV5WjeM0,,,,,,,,,,1,,,,,,,,,,,,,,,,,,,,,,,,,,,,,,,,,,,,,,,,73,hervidor,,,0,0,6.31874,0,49,49,72,1,REAL,FAKE,,,,,,,,,,,,,,,,,,,,,
,,,,,,,midd05,midd,ma,Spain,Northeast,12 or younger,no,2021-03-26_22h10.26.029,empathy_intonation_perc,2020.2.10,MacIntel,60,IwAR1mORmNZqiy0-Xt8Yys2a3JYiuWueq6LQxyghBFtgCmIeVOU1PxV5WjeM0,,,,,,,,,,1,,,,,,,,,,,,,,,,,,,,,,,,,,,,,,,,,,,,,,,,56,musgo,,,1,1,3.619025,0,50,50,55,1,REAL,FAKE,,,,,,,,,,,,,,,,,,,,,
,,,,,,,midd05,midd,ma,Spain,Northeast,12 or younger,no,2021-03-26_22h10.26.029,empathy_intonation_perc,2020.2.10,MacIntel,60,IwAR1mORmNZqiy0-Xt8Yys2a3JYiuWueq6LQxyghBFtgCmIeVOU1PxV5WjeM0,,,,,,,,,,1,,,,,,,,,,,,,,,,,,,,,,,,,,,,,,,,,,,,,,,,69,engatusar,,,0,0,1.51976,0,51,51,68,1,REAL,FAKE,,,,,,,,,,,,,,,,,,,,,
,,,,,,,midd05,midd,ma,Spain,Northeast,12 or younger,no,2021-03-26_22h10.26.029,empathy_intonation_perc,2020.2.10,MacIntel,60,IwAR1mORmNZqiy0-Xt8Yys2a3JYiuWueq6LQxyghBFtgCmIeVOU1PxV5WjeM0,,,,,,,,,,1,,,,,,,,,,,,,,,,,,,,,,,,,,,,,,,,,,,,,,,,81,pozo,,,1,1,1.132035,0,52,52,80,1,REAL,FAKE,,,,,,,,,,,,,,,,,,,,,
,,,,,,,midd05,midd,ma,Spain,Northeast,12 or younger,no,2021-03-26_22h10.26.029,empathy_intonation_perc,2020.2.10,MacIntel,60,IwAR1mORmNZqiy0-Xt8Yys2a3JYiuWueq6LQxyghBFtgCmIeVOU1PxV5WjeM0,,,,,,,,,,1,,,,,,,,,,,,,,,,,,,,,,,,,,,,,,,,,,,,,,,,59,besar,,,1,1,1.626535,0,53,53,58,1,REAL,FAKE,,,,,,,,,,,,,,,,,,,,,
,,,,,,,midd05,midd,ma,Spain,Northeast,12 or younger,no,2021-03-26_22h10.26.029,empathy_intonation_perc,2020.2.10,MacIntel,60,IwAR1mORmNZqiy0-Xt8Yys2a3JYiuWueq6LQxyghBFtgCmIeVOU1PxV5WjeM0,,,,,,,,,,0,,,,,,,,,,,,,,,,,,,,,,,,,,,,,,,,,,,,,,,,8,cadea,,,0,1,1.353515,0,54,54,7,1,REAL,FAKE,,,,,,,,,,,,,,,,,,,,,
,,,,,,,midd05,midd,ma,Spain,Northeast,12 or younger,no,2021-03-26_22h10.26.029,empathy_intonation_perc,2020.2.10,MacIntel,60,IwAR1mORmNZqiy0-Xt8Yys2a3JYiuWueq6LQxyghBFtgCmIeVOU1PxV5WjeM0,,,,,,,,,,0,,,,,,,,,,,,,,,,,,,,,,,,,,,,,,,,,,,,,,,,4,batilln,,,0,1,2.191155,0,55,55,3,1,REAL,FAKE,,,,,,,,,,,,,,,,,,,,,
,,,,,,,midd05,midd,ma,Spain,Northeast,12 or younger,no,2021-03-26_22h10.26.029,empathy_intonation_perc,2020.2.10,MacIntel,60,IwAR1mORmNZqiy0-Xt8Yys2a3JYiuWueq6LQxyghBFtgCmIeVOU1PxV5WjeM0,,,,,,,,,,1,,,,,,,,,,,,,,,,,,,,,,,,,,,,,,,,,,,,,,,,75,yacer,,,1,1,2.550245,0,56,56,74,1,REAL,FAKE,,,,,,,,,,,,,,,,,,,,,
,,,,,,,midd05,midd,ma,Spain,Northeast,12 or younger,no,2021-03-26_22h10.26.029,empathy_intonation_perc,2020.2.10,MacIntel,60,IwAR1mORmNZqiy0-Xt8Yys2a3JYiuWueq6LQxyghBFtgCmIeVOU1PxV5WjeM0,,,,,,,,,,0,,,,,,,,,,,,,,,,,,,,,,,,,,,,,,,,,,,,,,,,21,capillo,,,1,0,0.78902,0,57,57,20,1,REAL,FAKE,,,,,,,,,,,,,,,,,,,,,
,,,,,,,midd05,midd,ma,Spain,Northeast,12 or younger,no,2021-03-26_22h10.26.029,empathy_intonation_perc,2020.2.10,MacIntel,60,IwAR1mORmNZqiy0-Xt8Yys2a3JYiuWueq6LQxyghBFtgCmIeVOU1PxV5WjeM0,,,,,,,,,,0,,,,,,,,,,,,,,,,,,,,,,,,,,,,,,,,,,,,,,,,47,cartinar,,,0,1,1.714325,0,58,58,46,1,REAL,FAKE,,,,,,,,,,,,,,,,,,,,,
,,,,,,,midd05,midd,ma,Spain,Northeast,12 or younger,no,2021-03-26_22h10.26.029,empathy_intonation_perc,2020.2.10,MacIntel,60,IwAR1mORmNZqiy0-Xt8Yys2a3JYiuWueq6LQxyghBFtgCmIeVOU1PxV5WjeM0,,,,,,,,,,1,,,,,,,,,,,,,,,,,,,,,,,,,,,,,,,,,,,,,,,,41,rebuscar,,,1,1,0.98719,0,59,59,40,1,REAL,FAKE,,,,,,,,,,,,,,,,,,,,,
,,,,,,,midd05,midd,ma,Spain,Northeast,12 or younger,no,2021-03-26_22h10.26.029,empathy_intonation_perc,2020.2.10,MacIntel,60,IwAR1mORmNZqiy0-Xt8Yys2a3JYiuWueq6LQxyghBFtgCmIeVOU1PxV5WjeM0,,,,,,,,,,1,,,,,,,,,,,,,,,,,,,,,,,,,,,,,,,,,,,,,,,,83,guante,,,1,1,0.917895,0,60,60,82,1,REAL,FAKE,,,,,,,,,,,,,,,,,,,,,
,,,,,,,midd05,midd,ma,Spain,Northeast,12 or younger,no,2021-03-26_22h10.26.029,empathy_intonation_perc,2020.2.10,MacIntel,60,IwAR1mORmNZqiy0-Xt8Yys2a3JYiuWueq6LQxyghBFtgCmIeVOU1PxV5WjeM0,,,,,,,,,,1,,,,,,,,,,,,,,,,,,,,,,,,,,,,,,,,,,,,,,,,22,lacayo,,,0,0,1.059685,0,61,61,21,1,REAL,FAKE,,,,,,,,,,,,,,,,,,,,,
,,,,,,,midd05,midd,ma,Spain,Northeast,12 or younger,no,2021-03-26_22h10.26.029,empathy_intonation_perc,2020.2.10,MacIntel,60,IwAR1mORmNZqiy0-Xt8Yys2a3JYiuWueq6LQxyghBFtgCmIeVOU1PxV5WjeM0,,,,,,,,,,0,,,,,,,,,,,,,,,,,,,,,,,,,,,,,,,,,,,,,,,,42,cadallo,,,0,1,0.90304,0,62,62,41,1,REAL,FAKE,,,,,,,,,,,,,,,,,,,,,
,,,,,,,midd05,midd,ma,Spain,Northeast,12 or younger,no,2021-03-26_22h10.26.029,empathy_intonation_perc,2020.2.10,MacIntel,60,IwAR1mORmNZqiy0-Xt8Yys2a3JYiuWueq6LQxyghBFtgCmIeVOU1PxV5WjeM0,,,,,,,,,,1,,,,,,,,,,,,,,,,,,,,,,,,,,,,,,,,,,,,,,,,13,helar,,,0,0,4.93827,0,63,63,12,1,REAL,FAKE,,,,,,,,,,,,,,,,,,,,,
,,,,,,,midd05,midd,ma,Spain,Northeast,12 or younger,no,2021-03-26_22h10.26.029,empathy_intonation_perc,2020.2.10,MacIntel,60,IwAR1mORmNZqiy0-Xt8Yys2a3JYiuWueq6LQxyghBFtgCmIeVOU1PxV5WjeM0,,,,,,,,,,1,,,,,,,,,,,,,,,,,,,,,,,,,,,,,,,,,,,,,,,,25,bisagra,,,0,0,1.353175,0,64,64,24,1,REAL,FAKE,,,,,,,,,,,,,,,,,,,,,
,,,,,,,midd05,midd,ma,Spain,Northeast,12 or younger,no,2021-03-26_22h10.26.029,empathy_intonation_perc,2020.2.10,MacIntel,60,IwAR1mORmNZqiy0-Xt8Yys2a3JYiuWueq6LQxyghBFtgCmIeVOU1PxV5WjeM0,,,,,,,,,,0,,,,,,,,,,,,,,,,,,,,,,,,,,,,,,,,,,,,,,,,87,grodo,,,0,1,0.9721,0,65,65,86,1,REAL,FAKE,,,,,,,,,,,,,,,,,,,,,
,,,,,,,midd05,midd,ma,Spain,Northeast,12 or younger,no,2021-03-26_22h10.26.029,empathy_intonation_perc,2020.2.10,MacIntel,60,IwAR1mORmNZqiy0-Xt8Yys2a3JYiuWueq6LQxyghBFtgCmIeVOU1PxV5WjeM0,,,,,,,,,,1,,,,,,,,,,,,,,,,,,,,,,,,,,,,,,,,,,,,,,,,31,pandilla,,,1,1,0.88592,0,66,66,30,1,REAL,FAKE,,,,,,,,,,,,,,,,,,,,,
,,,,,,,midd05,midd,ma,Spain,Northeast,12 or younger,no,2021-03-26_22h10.26.029,empathy_intonation_perc,2020.2.10,MacIntel,60,IwAR1mORmNZqiy0-Xt8Yys2a3JYiuWueq6LQxyghBFtgCmIeVOU1PxV5WjeM0,,,,,,,,,,0,,,,,,,,,,,,,,,,,,,,,,,,,,,,,,,,,,,,,,,,58,plaudir,,,0,1,0.990605,0,67,67,57,1,REAL,FAKE,,,,,,,,,,,,,,,,,,,,,
,,,,,,,midd05,midd,ma,Spain,Northeast,12 or younger,no,2021-03-26_22h10.26.029,empathy_intonation_perc,2020.2.10,MacIntel,60,IwAR1mORmNZqiy0-Xt8Yys2a3JYiuWueq6LQxyghBFtgCmIeVOU1PxV5WjeM0,,,,,,,,,,0,,,,,,,,,,,,,,,,,,,,,,,,,,,,,,,,,,,,,,,,63,esposante,,,0,1,1.433445,0,68,68,62,1,REAL,FAKE,,,,,,,,,,,,,,,,,,,,,
,,,,,,,midd05,midd,ma,Spain,Northeast,12 or younger,no,2021-03-26_22h10.26.029,empathy_intonation_perc,2020.2.10,MacIntel,60,IwAR1mORmNZqiy0-Xt8Yys2a3JYiuWueq6LQxyghBFtgCmIeVOU1PxV5WjeM0,,,,,,,,,,0,,,,,,,,,,,,,,,,,,,,,,,,,,,,,,,,,,,,,,,,19,brecedad,,,0,1,1.615235,0,69,69,18,1,REAL,FAKE,,,,,,,,,,,,,,,,,,,,,
,,,,,,,midd05,midd,ma,Spain,Northeast,12 or younger,no,2021-03-26_22h10.26.029,empathy_intonation_perc,2020.2.10,MacIntel,60,IwAR1mORmNZqiy0-Xt8Yys2a3JYiuWueq6LQxyghBFtgCmIeVOU1PxV5WjeM0,,,,,,,,,,1,,,,,,,,,,,,,,,,,,,,,,,,,,,,,,,,,,,,,,,,89,prisa,,,1,1,1.72573,0,70,70,88,1,REAL,FAKE,,,,,,,,,,,,,,,,,,,,,
,,,,,,,midd05,midd,ma,Spain,Northeast,12 or younger,no,2021-03-26_22h10.26.029,empathy_intonation_perc,2020.2.10,MacIntel,60,IwAR1mORmNZqiy0-Xt8Yys2a3JYiuWueq6LQxyghBFtgCmIeVOU1PxV5WjeM0,,,,,,,,,,0,,,,,,,,,,,,,,,,,,,,,,,,,,,,,,,,,,,,,,,,18,arsa,,,0,1,1.70683,0,71,71,17,1,REAL,FAKE,,,,,,,,,,,,,,,,,,,,,
,,,,,,,midd05,midd,ma,Spain,Northeast,12 or younger,no,2021-03-26_22h10.26.029,empathy_intonation_perc,2020.2.10,MacIntel,60,IwAR1mORmNZqiy0-Xt8Yys2a3JYiuWueq6LQxyghBFtgCmIeVOU1PxV5WjeM0,,,,,,,,,,1,,,,,,,,,,,,,,,,,,,,,,,,,,,,,,,,,,,,,,,,12,asesinato,,,1,1,0.986905,0,72,72,11,1,REAL,FAKE,,,,,,,,,,,,,,,,,,,,,
,,,,,,,midd05,midd,ma,Spain,Northeast,12 or younger,no,2021-03-26_22h10.26.029,empathy_intonation_perc,2020.2.10,MacIntel,60,IwAR1mORmNZqiy0-Xt8Yys2a3JYiuWueq6LQxyghBFtgCmIeVOU1PxV5WjeM0,,,,,,,,,,1,,,,,,,,,,,,,,,,,,,,,,,,,,,,,,,,,,,,,,,,61,seda,,,1,1,1.547335,0,73,73,60,1,REAL,FAKE,,,,,,,,,,,,,,,,,,,,,
,,,,,,,midd05,midd,ma,Spain,Northeast,12 or younger,no,2021-03-26_22h10.26.029,empathy_intonation_perc,2020.2.10,MacIntel,60,IwAR1mORmNZqiy0-Xt8Yys2a3JYiuWueq6LQxyghBFtgCmIeVOU1PxV5WjeM0,,,,,,,,,,0,,,,,,,,,,,,,,,,,,,,,,,,,,,,,,,,,,,,,,,,72,pemicin,,,0,1,50.166545,0,74,74,71,1,REAL,FAKE,,,,,,,,,,,,,,,,,,,,,
,,,,,,,midd05,midd,ma,Spain,Northeast,12 or younger,no,2021-03-26_22h10.26.029,empathy_intonation_perc,2020.2.10,MacIntel,60,IwAR1mORmNZqiy0-Xt8Yys2a3JYiuWueq6LQxyghBFtgCmIeVOU1PxV5WjeM0,,,,,,,,,,1,,,,,,,,,,,,,,,,,,,,,,,,,,,,,,,,,,,,,,,,38,estornudar,,,1,1,1.240345,0,75,75,37,1,REAL,FAKE,,,,,,,,,,,,,,,,,,,,,
,,,,,,,midd05,midd,ma,Spain,Northeast,12 or younger,no,2021-03-26_22h10.26.029,empathy_intonation_perc,2020.2.10,MacIntel,60,IwAR1mORmNZqiy0-Xt8Yys2a3JYiuWueq6LQxyghBFtgCmIeVOU1PxV5WjeM0,,,,,,,,,,0,,,,,,,,,,,,,,,,,,,,,,,,,,,,,,,,,,,,,,,,1,terzo,,,0,1,1.24099,0,76,76,0,1,REAL,FAKE,,,,,,,,,,,,,,,,,,,,,
,,,,,,,midd05,midd,ma,Spain,Northeast,12 or younger,no,2021-03-26_22h10.26.029,empathy_intonation_perc,2020.2.10,MacIntel,60,IwAR1mORmNZqiy0-Xt8Yys2a3JYiuWueq6LQxyghBFtgCmIeVOU1PxV5WjeM0,,,,,,,,,,1,,,,,,,,,,,,,,,,,,,,,,,,,,,,,,,,,,,,,,,,20,vido,,,0,0,0.92226,0,77,77,19,1,REAL,FAKE,,,,,,,,,,,,,,,,,,,,,
,,,,,,,midd05,midd,ma,Spain,Northeast,12 or younger,no,2021-03-26_22h10.26.029,empathy_intonation_perc,2020.2.10,MacIntel,60,IwAR1mORmNZqiy0-Xt8Yys2a3JYiuWueq6LQxyghBFtgCmIeVOU1PxV5WjeM0,,,,,,,,,,1,,,,,,,,,,,,,,,,,,,,,,,,,,,,,,,,,,,,,,,,78,frondoso,,,1,1,1.042345,0,78,78,77,1,REAL,FAKE,,,,,,,,,,,,,,,,,,,,,
,,,,,,,midd05,midd,ma,Spain,Northeast,12 or younger,no,2021-03-26_22h10.26.029,empathy_intonation_perc,2020.2.10,MacIntel,60,IwAR1mORmNZqiy0-Xt8Yys2a3JYiuWueq6LQxyghBFtgCmIeVOU1PxV5WjeM0,,,,,,,,,,1,,,,,,,,,,,,,,,,,,,,,,,,,,,,,,,,,,,,,,,,51,candado,,,0,0,0.78304,0,79,79,50,1,REAL,FAKE,,,,,,,,,,,,,,,,,,,,,
,,,,,,,midd05,midd,ma,Spain,Northeast,12 or younger,no,2021-03-26_22h10.26.029,empathy_intonation_perc,2020.2.10,MacIntel,60,IwAR1mORmNZqiy0-Xt8Yys2a3JYiuWueq6LQxyghBFtgCmIeVOU1PxV5WjeM0,,,,,,,,,,0,,,,,,,,,,,,,,,,,,,,,,,,,,,,,,,,,,,,,,,,79,tropaje,,,0,1,3.097675,0,80,80,78,1,REAL,FAKE,,,,,,,,,,,,,,,,,,,,,
,,,,,,,midd05,midd,ma,Spain,Northeast,12 or younger,no,2021-03-26_22h10.26.029,empathy_intonation_perc,2020.2.10,MacIntel,60,IwAR1mORmNZqiy0-Xt8Yys2a3JYiuWueq6LQxyghBFtgCmIeVOU1PxV5WjeM0,,,,,,,,,,1,,,,,,,,,,,,,,,,,,,,,,,,,,,,,,,,,,,,,,,,14,yunque,,,1,1,3.31207,0,81,81,13,1,REAL,FAKE,,,,,,,,,,,,,,,,,,,,,
,,,,,,,midd05,midd,ma,Spain,Northeast,12 or younger,no,2021-03-26_22h10.26.029,empathy_intonation_perc,2020.2.10,MacIntel,60,IwAR1mORmNZqiy0-Xt8Yys2a3JYiuWueq6LQxyghBFtgCmIeVOU1PxV5WjeM0,,,,,,,,,,0,,,,,,,,,,,,,,,,,,,,,,,,,,,,,,,,,,,,,,,,82,empirador,,,0,1,2.373555,0,82,82,81,1,REAL,FAKE,,,,,,,,,,,,,,,,,,,,,
,,,,,,,midd05,midd,ma,Spain,Northeast,12 or younger,no,2021-03-26_22h10.26.029,empathy_intonation_perc,2020.2.10,MacIntel,60,IwAR1mORmNZqiy0-Xt8Yys2a3JYiuWueq6LQxyghBFtgCmIeVOU1PxV5WjeM0,,,,,,,,,,1,,,,,,,,,,,,,,,,,,,,,,,,,,,,,,,,,,,,,,,,24,ltigo,,,1,1,2.162,0,83,83,23,1,REAL,FAKE,,,,,,,,,,,,,,,,,,,,,
,,,,,,,midd05,midd,ma,Spain,Northeast,12 or younger,no,2021-03-26_22h10.26.029,empathy_intonation_perc,2020.2.10,MacIntel,60,IwAR1mORmNZqiy0-Xt8Yys2a3JYiuWueq6LQxyghBFtgCmIeVOU1PxV5WjeM0,,,,,,,,,,1,,,,,,,,,,,,,,,,,,,,,,,,,,,,,,,,,,,,,,,,44,cuchara,,,1,1,0.99929,0,84,84,43,1,REAL,FAKE,,,,,,,,,,,,,,,,,,,,,
,,,,,,,midd05,midd,ma,Spain,Northeast,12 or younger,no,2021-03-26_22h10.26.029,empathy_intonation_perc,2020.2.10,MacIntel,60,IwAR1mORmNZqiy0-Xt8Yys2a3JYiuWueq6LQxyghBFtgCmIeVOU1PxV5WjeM0,,,,,,,,,,1,,,,,,,,,,,,,,,,,,,,,,,,,,,,,,,,,,,,,,,,43,canela,,,1,1,1.95764,0,85,85,42,1,REAL,FAKE,,,,,,,,,,,,,,,,,,,,,
,,,,,,,midd05,midd,ma,Spain,Northeast,12 or younger,no,2021-03-26_22h10.26.029,empathy_intonation_perc,2020.2.10,MacIntel,60,IwAR1mORmNZqiy0-Xt8Yys2a3JYiuWueq6LQxyghBFtgCmIeVOU1PxV5WjeM0,,,,,,,,,,0,,,,,,,,,,,,,,,,,,,,,,,,,,,,,,,,,,,,,,,,17,floroso,,,0,1,1.26163,0,86,86,16,1,REAL,FAKE,,,,,,,,,,,,,,,,,,,,,
,,,,,,,midd05,midd,ma,Spain,Northeast,12 or younger,no,2021-03-26_22h10.26.029,empathy_intonation_perc,2020.2.10,MacIntel,60,IwAR1mORmNZqiy0-Xt8Yys2a3JYiuWueq6LQxyghBFtgCmIeVOU1PxV5WjeM0,,,,,,,,,,1,,,,,,,,,,,,,,,,,,,,,,,,,,,,,,,,,,,,,,,,3,pulmones,,,1,1,0.711295,0,87,87,2,1,REAL,FAKE,,,,,,,,,,,,,,,,,,,,,
,,,,,,,midd05,midd,ma,Spain,Northeast,12 or younger,no,2021-03-26_22h10.26.029,empathy_intonation_perc,2020.2.10,MacIntel,60,IwAR1mORmNZqiy0-Xt8Yys2a3JYiuWueq6LQxyghBFtgCmIeVOU1PxV5WjeM0,,,,,,,,,,0,,,,,,,,,,,,,,,,,,,,,,,,,,,,,,,,,,,,,,,,30,alardio,,,0,1,0.948445,0,88,88,29,1,REAL,FAKE,,,,,,,,,,,,,,,,,,,,,
,,,,,,,midd05,midd,ma,Spain,Northeast,12 or younger,no,2021-03-26_22h10.26.029,empathy_intonation_perc,2020.2.10,MacIntel,60,IwAR1mORmNZqiy0-Xt8Yys2a3JYiuWueq6LQxyghBFtgCmIeVOU1PxV5WjeM0,,,,,,,,,,0,,,,,,,,,,,,,,,,,,,,,,,,,,,,,,,,,,,,,,,,29,decar,,,0,1,0.869365,0,89,89,28,1,REAL,FAKE,,,,,,,,,,,,,,,,,,,,,
,,,,,,,midd05,midd,ma,Spain,Northeast,12 or younger,no,2021-03-26_22h10.26.029,empathy_intonation_perc,2020.2.10,MacIntel,60,IwAR1mORmNZqiy0-Xt8Yys2a3JYiuWueq6LQxyghBFtgCmIeVOU1PxV5WjeM0,,,,,,,,,,,,,,,,,,,,,,,,,,,,,,,,,,,,,,,,,,,,,,,,,,,,,,,,,,,,,,,,4,1,3.37902,1,0,0,0,0,0,1,,,,,,,,,,,
,,,,,,,midd05,midd,ma,Spain,Northeast,12 or younger,no,2021-03-26_22h10.26.029,empathy_intonation_perc,2020.2.10,MacIntel,60,IwAR1mORmNZqiy0-Xt8Yys2a3JYiuWueq6LQxyghBFtgCmIeVOU1PxV5WjeM0,,,,,,,,,,,,,,,,,,,,1,,,,,,,,,,,,,,,,,,,,,,,,,,,,,,,,,,,,,,,,,,,,,,,,,,,,,,2,0,0,0,0,1,I can easily tell if someone else wants to enter a conversation.,1,0,1,0
,,,,,,,midd05,midd,ma,Spain,Northeast,12 or younger,no,2021-03-26_22h10.26.029,empathy_intonation_perc,2020.2.10,MacIntel,60,IwAR1mORmNZqiy0-Xt8Yys2a3JYiuWueq6LQxyghBFtgCmIeVOU1PxV5WjeM0,,,,,,,,,,,,,,,,,,,,2,,,,,,,,,,,,,,,,,,,,,,,,,,,,,,,,,,,,,,,,,,,,,,,,,,,,,,3,0,1,1,1,1,I prefer animals to humans.,0,1,0,0
,,,,,,,midd05,midd,ma,Spain,Northeast,12 or younger,no,2021-03-26_22h10.26.029,empathy_intonation_perc,2020.2.10,MacIntel,60,IwAR1mORmNZqiy0-Xt8Yys2a3JYiuWueq6LQxyghBFtgCmIeVOU1PxV5WjeM0,,,,,,,,,,,,,,,,,,,,3,,,,,,,,,,,,,,,,,,,,,,,,,,,,,,,,,,,,,,,,,,,,,,,,,,,,,,3,0,2,2,2,1,I try to keep up with the current trends and fashions.,0,1,0,0
,,,,,,,midd05,midd,ma,Spain,Northeast,12 or younger,no,2021-03-26_22h10.26.029,empathy_intonation_perc,2020.2.10,MacIntel,60,IwAR1mORmNZqiy0-Xt8Yys2a3JYiuWueq6LQxyghBFtgCmIeVOU1PxV5WjeM0,,,,,,,,,,,,,,,,,,,,4,,,,,,,,,,,,,,,,,,,,,,,,,,,,,,,,,,,,,,,,,,,,,,,,,,,,,,3,0,3,3,3,1,"I find it difficult to explain to others things that I understand easily, 
  when they dont understand it first time.",1,0,0,1
