instructions_2afc_loop.thisRepN,instructions_2afc_loop.thisTrialN,instructions_2afc_loop.thisN,instructions_2afc_loop.thisIndex,instructions_2afc_loop.ran,instructions_text,continue_text,participant,study_id,session,I am most familiar with Spanish from...*,What part of the US are you from?*,At what age did you begin learning Spanish?*,Are you proficient in any languages other than English/Spanish?*,date,expName,psychopyVersion,OS,frameRate,key_resp_2afc_practice.keys,key_resp_2afc_practice.corr,key_resp_2afc_practice.rt,trials_2afc_practice_loop.thisRepN,trials_2afc_practice_loop.thisTrialN,trials_2afc_practice_loop.thisN,trials_2afc_practice_loop.thisIndex,trials_2afc_practice_loop.ran,path,correct_response,the_col,key_resp_2afc_trial.keys,key_resp_2afc_trial.corr,key_resp_2afc_trial.rt,trials_2afc_loop.thisRepN,trials_2afc_loop.thisTrialN,trials_2afc_loop.thisN,trials_2afc_loop.thisIndex,trials_2afc_loop.ran,item_num,andalusian,argentine,castilian,chilean,cuban,mexican,peruvian,puertorican,key_resp_ac1.keys,key_resp_ac1.corr,key_resp_ac1.rt,ac1_loop.thisRepN,ac1_loop.thisTrialN,ac1_loop.thisN,ac1_loop.thisIndex,ac1_loop.ran,instructions_lextale_loop.thisRepN,instructions_lextale_loop.thisTrialN,instructions_lextale_loop.thisN,instructions_lextale_loop.thisIndex,instructions_lextale_loop.ran,key_resp_lextale_practice.keys,key_resp_lextale_practice.corr,key_resp_lextale_practice.rt,trials_lextale_practice_loop.thisRepN,trials_lextale_practice_loop.thisTrialN,trials_lextale_practice_loop.thisN,trials_lextale_practice_loop.thisIndex,trials_lextale_practice_loop.ran,stim,word,prac_button_real,prac_button_false,key_resp_lextale_trial.keys,key_resp_lextale_trial.corr,key_resp_lextale_trial.rt,trials_lextale_loop.thisRepN,trials_lextale_loop.thisTrialN,trials_lextale_loop.thisN,trials_lextale_loop.thisIndex,trials_lextale_loop.ran,button_real,button_false,key_resp_ac2.keys,key_resp_ac2.corr,key_resp_ac2.rt,check_pass,check_fails,ac2_loop.thisRepN,ac2_loop.thisTrialN,ac2_loop.thisN,ac2_loop.thisIndex,ac2_loop.ran,slider_eq_trial.response,trials_eq_loop.thisRepN,trials_eq_loop.thisTrialN,trials_eq_loop.thisN,trials_eq_loop.thisIndex,trials_eq_loop.ran,item,is_test_item,is_distractor,is_agree_score,is_disagree_score
0,0,0,0,1,"In the following task you are going to hear a series of utterances. 

  You will decide if the utterances sound like questions or not using your keyboard.",(press the spacebar to continue),midd29,midd,ma,Spain,South,13 or older,no,2021-03-31_12h06.25.411,empathy_intonation_perc,2020.2.10,MacIntel,60,,,,,,,,,,,,,,,,,,,,,,,,,,,,,,,,,,,,,,,,,,,,,,,,,,,,,,,,,,,,,,,,,,,,,,,,,,,,,,,,,,,,
0,1,1,1,1,"If you believe the utterance is a question, type '1' (for 'yes') and if you do not 
  believe it is a question type '0' (for 'no').

  Let's practice a bit...",(press the spacebar to continue),midd29,midd,ma,Spain,South,13 or older,no,2021-03-31_12h06.25.411,empathy_intonation_perc,2020.2.10,MacIntel,60,,,,,,,,,,,,,,,,,,,,,,,,,,,,,,,,,,,,,,,,,,,,,,,,,,,,,,,,,,,,,,,,,,,,,,,,,,,,,,,,,,,,
,,,,,,,midd29,midd,ma,Spain,South,13 or older,no,2021-03-31_12h06.25.411,empathy_intonation_perc,2020.2.10,MacIntel,60,1,1,6.217055,0,0,0,1,1,./stim/wavs/argentine_question_filler_Mi-vecino-habla-mucho.wav,1,,,,,,,,,,,,,,,,,,,,,,,,,,,,,,,,,,,,,,,,,,,,,,,,,,,,,,,,,,,,,,,,,,,,,,,,,,
,,,,,,,midd29,midd,ma,Spain,South,13 or older,no,2021-03-31_12h06.25.411,empathy_intonation_perc,2020.2.10,MacIntel,60,0,1,2.15438,0,1,1,5,1,./stim/wavs/andalusian_statement_filler_Alberto-nunca-se-afeita.wav,0,,,,,,,,,,,,,,,,,,,,,,,,,,,,,,,,,,,,,,,,,,,,,,,,,,,,,,,,,,,,,,,,,,,,,,,,,,
,,,,,,,midd29,midd,ma,Spain,South,13 or older,no,2021-03-31_12h06.25.411,empathy_intonation_perc,2020.2.10,MacIntel,60,1,1,4.71943,0,2,2,3,1,./stim/wavs/mexican_question_filler_Felipe-no-tiene-contrasena.wav,1,,,,,,,,,,,,,,,,,,,,,,,,,,,,,,,,,,,,,,,,,,,,,,,,,,,,,,,,,,,,,,,,,,,,,,,,,,
,,,,,,,midd29,midd,ma,Spain,South,13 or older,no,2021-03-31_12h06.25.411,empathy_intonation_perc,2020.2.10,MacIntel,60,0,1,1.650835,0,3,3,7,1,./stim/wavs/puertorican_statement_filler_La-nina-pinta-con-su-amiga.wav,0,,,,,,,,,,,,,,,,,,,,,,,,,,,,,,,,,,,,,,,,,,,,,,,,,,,,,,,,,,,,,,,,,,,,,,,,,,
,,,,,,,midd29,midd,ma,Spain,South,13 or older,no,2021-03-31_12h06.25.411,empathy_intonation_perc,2020.2.10,MacIntel,60,0,1,1.83691,0,4,4,4,1,./stim/wavs/cuban_statement_filler_Cocinabas-por-la-noche.wav,0,,,,,,,,,,,,,,,,,,,,,,,,,,,,,,,,,,,,,,,,,,,,,,,,,,,,,,,,,,,,,,,,,,,,,,,,,,
,,,,,,,midd29,midd,ma,Spain,South,13 or older,no,2021-03-31_12h06.25.411,empathy_intonation_perc,2020.2.10,MacIntel,60,0,0,1.87226,0,5,5,2,1,./stim/wavs/chilean_question_filler_Mi-padre-cantaba-bien.wav,1,,,,,,,,,,,,,,,,,,,,,,,,,,,,,,,,,,,,,,,,,,,,,,,,,,,,,,,,,,,,,,,,,,,,,,,,,,
,,,,,,,midd29,midd,ma,Spain,South,13 or older,no,2021-03-31_12h06.25.411,empathy_intonation_perc,2020.2.10,MacIntel,60,0,1,1.834575,0,6,6,6,1,./stim/wavs/peruvian_statement_filler_El-nino-habla-con-su-madre.wav,0,,,,,,,,,,,,,,,,,,,,,,,,,,,,,,,,,,,,,,,,,,,,,,,,,,,,,,,,,,,,,,,,,,,,,,,,,,
,,,,,,,midd29,midd,ma,Spain,South,13 or older,no,2021-03-31_12h06.25.411,empathy_intonation_perc,2020.2.10,MacIntel,60,1,1,1.917825,0,7,7,0,1,./stim/wavs/castilian_question_filler_Mi-esposo-conoce-al-chico.wav,1,,,,,,,,,,,,,,,,,,,,,,,,,,,,,,,,,,,,,,,,,,,,,,,,,,,,,,,,,,,,,,,,,,,,,,,,,,
,,,,,,,midd29,midd,ma,Spain,South,13 or older,no,2021-03-31_12h06.25.411,empathy_intonation_perc,2020.2.10,MacIntel,60,,,,,,,,,,1,peruvian,1,1,3.689005,0,0,0,26,1,27,./stim/wavs/andalusian_match_interrogative-total-yn_David-leia-el-libro.wav,./stim/wavs/argentine_match_interrogative-total-yn_David-leia-el-libro.wav,./stim/wavs/castilian_match_interrogative-total-yn_David-leia-el-libro.wav,./stim/wavs/chilean_match_interrogative-total-yn_David-leia-el-libro.wav,./stim/wavs/cuban_match_interrogative-total-yn_David-leia-el-libro.wav,./stim/wavs/mexican_match_interrogative-total-yn_David-leia-el-libro.wav,./stim/wavs/peruvian_match_interrogative-total-yn_David-leia-el-libro.wav,./stim/wavs/puertorican_match_interrogative-total-yn_David-leia-el-libro.wav,,,,,,,,,,,,,,,,,,,,,,,,,,,,,,,,,,,,,,,,,,,,,,,,,,,,,,,,
,,,,,,,midd29,midd,ma,Spain,South,13 or older,no,2021-03-31_12h06.25.411,empathy_intonation_perc,2020.2.10,MacIntel,60,,,,,,,,,,1,chilean,1,1,1.92046,0,1,1,28,1,29,./stim/wavs/andalusian_match_interrogative-total-yn_Manuela-vende-el-carro.wav,./stim/wavs/argentine_match_interrogative-total-yn_Manuela-vende-el-carro.wav,./stim/wavs/castilian_match_interrogative-total-yn_Manuela-vende-el-carro.wav,./stim/wavs/chilean_match_interrogative-total-yn_Manuela-vende-el-carro.wav,./stim/wavs/cuban_match_interrogative-total-yn_Manuela-vende-el-carro.wav,./stim/wavs/mexican_match_interrogative-total-yn_Manuela-vende-el-carro.wav,./stim/wavs/peruvian_match_interrogative-total-yn_Manuela-vende-el-carro.wav,./stim/wavs/puertorican_match_interrogative-total-yn_Manuela-vende-el-carro.wav,,,,,,,,,,,,,,,,,,,,,,,,,,,,,,,,,,,,,,,,,,,,,,,,,,,,,,,,
,,,,,,,midd29,midd,ma,Spain,South,13 or older,no,2021-03-31_12h06.25.411,empathy_intonation_perc,2020.2.10,MacIntel,60,,,,,,,,,,0,puertorican,0,1,1.558775,0,2,2,39,1,40,./stim/wavs/andalusian_mismatch_declarative-broad-focus_Mi-tia-odia-la-lluvia.wav,./stim/wavs/argentine_mismatch_declarative-broad-focus_Mi-tia-odia-la-lluvia.wav,./stim/wavs/castilian_mismatch_declarative-broad-focus_Mi-tia-odia-la-lluvia.wav,./stim/wavs/chilean_mismatch_declarative-broad-focus_Mi-tia-odia-la-lluvia.wav,./stim/wavs/cuban_mismatch_declarative-broad-focus_Mi-tia-odia-la-lluvia.wav,./stim/wavs/mexican_mismatch_declarative-broad-focus_Mi-tia-odia-la-lluvia.wav,./stim/wavs/peruvian_mismatch_declarative-broad-focus_Mi-tia-odia-la-lluvia.wav,./stim/wavs/puertorican_mismatch_declarative-broad-focus_Mi-tia-odia-la-lluvia.wav,,,,,,,,,,,,,,,,,,,,,,,,,,,,,,,,,,,,,,,,,,,,,,,,,,,,,,,,
,,,,,,,midd29,midd,ma,Spain,South,13 or older,no,2021-03-31_12h06.25.411,empathy_intonation_perc,2020.2.10,MacIntel,60,,,,,,,,,,0,peruvian,0,1,4.605345,0,3,3,36,1,37,./stim/wavs/andalusian_mismatch_declarative-broad-focus_La-nina-lava-el-plato.wav,./stim/wavs/argentine_mismatch_declarative-broad-focus_La-nina-lava-el-plato.wav,./stim/wavs/castilian_mismatch_declarative-broad-focus_La-nina-lava-el-plato.wav,./stim/wavs/chilean_mismatch_declarative-broad-focus_La-nina-lava-el-plato.wav,./stim/wavs/cuban_mismatch_declarative-broad-focus_La-nina-lava-el-plato.wav,./stim/wavs/mexican_mismatch_declarative-broad-focus_La-nina-lava-el-plato.wav,./stim/wavs/peruvian_mismatch_declarative-broad-focus_La-nina-lava-el-plato.wav,./stim/wavs/puertorican_mismatch_declarative-broad-focus_La-nina-lava-el-plato.wav,,,,,,,,,,,,,,,,,,,,,,,,,,,,,,,,,,,,,,,,,,,,,,,,,,,,,,,,
,,,,,,,midd29,midd,ma,Spain,South,13 or older,no,2021-03-31_12h06.25.411,empathy_intonation_perc,2020.2.10,MacIntel,60,,,,,,,,,,0,puertorican,0,1,1.436315,0,4,4,41,1,42,./stim/wavs/andalusian_mismatch_declarative-narrow-focus_El-hombre-mira-la-luna.wav,./stim/wavs/argentine_mismatch_declarative-narrow-focus_El-hombre-mira-la-luna.wav,./stim/wavs/castilian_mismatch_declarative-narrow-focus_El-hombre-mira-la-luna.wav,./stim/wavs/chilean_mismatch_declarative-narrow-focus_El-hombre-mira-la-luna.wav,./stim/wavs/cuban_mismatch_declarative-narrow-focus_El-hombre-mira-la-luna.wav,./stim/wavs/mexican_mismatch_declarative-narrow-focus_El-hombre-mira-la-luna.wav,./stim/wavs/peruvian_mismatch_declarative-narrow-focus_El-hombre-mira-la-luna.wav,./stim/wavs/puertorican_mismatch_declarative-narrow-focus_El-hombre-mira-la-luna.wav,,,,,,,,,,,,,,,,,,,,,,,,,,,,,,,,,,,,,,,,,,,,,,,,,,,,,,,,
,,,,,,,midd29,midd,ma,Spain,South,13 or older,no,2021-03-31_12h06.25.411,empathy_intonation_perc,2020.2.10,MacIntel,60,,,,,,,,,,1,mexican,1,1,1.82168,0,5,5,59,1,60,./stim/wavs/andalusian_mismatch_interrogative-total-yn_La-maestra-vive-en-Paris.wav,./stim/wavs/argentine_mismatch_interrogative-total-yn_La-maestra-vive-en-Paris.wav,./stim/wavs/castilian_mismatch_interrogative-total-yn_La-maestra-vive-en-Paris.wav,./stim/wavs/chilean_mismatch_interrogative-total-yn_La-maestra-vive-en-Paris.wav,./stim/wavs/cuban_mismatch_interrogative-total-yn_La-maestra-vive-en-Paris.wav,./stim/wavs/mexican_mismatch_interrogative-total-yn_La-maestra-vive-en-Paris.wav,./stim/wavs/peruvian_mismatch_interrogative-total-yn_La-maestra-vive-en-Paris.wav,./stim/wavs/puertorican_mismatch_interrogative-total-yn_La-maestra-vive-en-Paris.wav,,,,,,,,,,,,,,,,,,,,,,,,,,,,,,,,,,,,,,,,,,,,,,,,,,,,,,,,
,,,,,,,midd29,midd,ma,Spain,South,13 or older,no,2021-03-31_12h06.25.411,empathy_intonation_perc,2020.2.10,MacIntel,60,,,,,,,,,,1,argentine,1,1,1.7002,0,6,6,48,1,49,./stim/wavs/andalusian_mismatch_interrogative-partial-wh_Cuando-comia-la-fruta.wav,./stim/wavs/argentine_mismatch_interrogative-partial-wh_Cuando-comia-la-fruta.wav,./stim/wavs/castilian_mismatch_interrogative-partial-wh_Cuando-comia-la-fruta.wav,./stim/wavs/chilean_mismatch_interrogative-partial-wh_Cuando-comia-la-fruta.wav,./stim/wavs/cuban_mismatch_interrogative-partial-wh_Cuando-comia-la-fruta.wav,./stim/wavs/mexican_mismatch_interrogative-partial-wh_Cuando-comia-la-fruta.wav,./stim/wavs/peruvian_mismatch_interrogative-partial-wh_Cuando-comia-la-fruta.wav,./stim/wavs/puertorican_mismatch_interrogative-partial-wh_Cuando-comia-la-fruta.wav,,,,,,,,,,,,,,,,,,,,,,,,,,,,,,,,,,,,,,,,,,,,,,,,,,,,,,,,
,,,,,,,midd29,midd,ma,Spain,South,13 or older,no,2021-03-31_12h06.25.411,empathy_intonation_perc,2020.2.10,MacIntel,60,,,,,,,,,,0,peruvian,0,1,3.586335,0,7,7,8,1,9,./stim/wavs/andalusian_match_declarative-narrow-focus_Ana-lleva-el-abrigo.wav,./stim/wavs/argentine_match_declarative-narrow-focus_Ana-lleva-el-abrigo.wav,./stim/wavs/castilian_match_declarative-narrow-focus_Ana-lleva-el-abrigo.wav,./stim/wavs/chilean_match_declarative-narrow-focus_Ana-lleva-el-abrigo.wav,./stim/wavs/cuban_match_declarative-narrow-focus_Ana-lleva-el-abrigo.wav,./stim/wavs/mexican_match_declarative-narrow-focus_Ana-lleva-el-abrigo.wav,./stim/wavs/peruvian_match_declarative-narrow-focus_Ana-lleva-el-abrigo.wav,./stim/wavs/puertorican_match_declarative-narrow-focus_Ana-lleva-el-abrigo.wav,,,,,,,,,,,,,,,,,,,,,,,,,,,,,,,,,,,,,,,,,,,,,,,,,,,,,,,,
,,,,,,,midd29,midd,ma,Spain,South,13 or older,no,2021-03-31_12h06.25.411,empathy_intonation_perc,2020.2.10,MacIntel,60,,,,,,,,,,0,puertorican,0,1,1.85539,0,8,8,6,1,7,./stim/wavs/andalusian_match_declarative-broad-focus_Mariano-habla-del-tiempo.wav,./stim/wavs/argentine_match_declarative-broad-focus_Mariano-habla-del-tiempo.wav,./stim/wavs/castilian_match_declarative-broad-focus_Mariano-habla-del-tiempo.wav,./stim/wavs/chilean_match_declarative-broad-focus_Mariano-habla-del-tiempo.wav,./stim/wavs/cuban_match_declarative-broad-focus_Mariano-habla-del-tiempo.wav,./stim/wavs/mexican_match_declarative-broad-focus_Mariano-habla-del-tiempo.wav,./stim/wavs/peruvian_match_declarative-broad-focus_Mariano-habla-del-tiempo.wav,./stim/wavs/puertorican_match_declarative-broad-focus_Mariano-habla-del-tiempo.wav,,,,,,,,,,,,,,,,,,,,,,,,,,,,,,,,,,,,,,,,,,,,,,,,,,,,,,,,
,,,,,,,midd29,midd,ma,Spain,South,13 or older,no,2021-03-31_12h06.25.411,empathy_intonation_perc,2020.2.10,MacIntel,60,,,,,,,,,,0,argentine,0,1,1.968455,0,9,9,14,1,15,./stim/wavs/andalusian_match_declarative-narrow-focus_Mariano-habla-del-tiempo.wav,./stim/wavs/argentine_match_declarative-narrow-focus_Mariano-habla-del-tiempo.wav,./stim/wavs/castilian_match_declarative-narrow-focus_Mariano-habla-del-tiempo.wav,./stim/wavs/chilean_match_declarative-narrow-focus_Mariano-habla-del-tiempo.wav,./stim/wavs/cuban_match_declarative-narrow-focus_Mariano-habla-del-tiempo.wav,./stim/wavs/mexican_match_declarative-narrow-focus_Mariano-habla-del-tiempo.wav,./stim/wavs/peruvian_match_declarative-narrow-focus_Mariano-habla-del-tiempo.wav,./stim/wavs/puertorican_match_declarative-narrow-focus_Mariano-habla-del-tiempo.wav,,,,,,,,,,,,,,,,,,,,,,,,,,,,,,,,,,,,,,,,,,,,,,,,,,,,,,,,
,,,,,,,midd29,midd,ma,Spain,South,13 or older,no,2021-03-31_12h06.25.411,empathy_intonation_perc,2020.2.10,MacIntel,60,,,,,,,,,,1,castilian,1,1,1.45468,0,10,10,24,1,25,./stim/wavs/andalusian_match_interrogative-total-yn_Ana-lleva-el-abrigo.wav,./stim/wavs/argentine_match_interrogative-total-yn_Ana-lleva-el-abrigo.wav,./stim/wavs/castilian_match_interrogative-total-yn_Ana-lleva-el-abrigo.wav,./stim/wavs/chilean_match_interrogative-total-yn_Ana-lleva-el-abrigo.wav,./stim/wavs/cuban_match_interrogative-total-yn_Ana-lleva-el-abrigo.wav,./stim/wavs/mexican_match_interrogative-total-yn_Ana-lleva-el-abrigo.wav,./stim/wavs/peruvian_match_interrogative-total-yn_Ana-lleva-el-abrigo.wav,./stim/wavs/puertorican_match_interrogative-total-yn_Ana-lleva-el-abrigo.wav,,,,,,,,,,,,,,,,,,,,,,,,,,,,,,,,,,,,,,,,,,,,,,,,,,,,,,,,
,,,,,,,midd29,midd,ma,Spain,South,13 or older,no,2021-03-31_12h06.25.411,empathy_intonation_perc,2020.2.10,MacIntel,60,,,,,,,,,,0,mexican,0,1,1.983435,0,11,11,4,1,5,./stim/wavs/andalusian_match_declarative-broad-focus_Manuela-vende-el-carro.wav,./stim/wavs/argentine_match_declarative-broad-focus_Manuela-vende-el-carro.wav,./stim/wavs/castilian_match_declarative-broad-focus_Manuela-vende-el-carro.wav,./stim/wavs/chilean_match_declarative-broad-focus_Manuela-vende-el-carro.wav,./stim/wavs/cuban_match_declarative-broad-focus_Manuela-vende-el-carro.wav,./stim/wavs/mexican_match_declarative-broad-focus_Manuela-vende-el-carro.wav,./stim/wavs/peruvian_match_declarative-broad-focus_Manuela-vende-el-carro.wav,./stim/wavs/puertorican_match_declarative-broad-focus_Manuela-vende-el-carro.wav,,,,,,,,,,,,,,,,,,,,,,,,,,,,,,,,,,,,,,,,,,,,,,,,,,,,,,,,
,,,,,,,midd29,midd,ma,Spain,South,13 or older,no,2021-03-31_12h06.25.411,empathy_intonation_perc,2020.2.10,MacIntel,60,,,,,,,,,,0,argentine,0,1,2.62001,0,12,12,10,1,11,./stim/wavs/andalusian_match_declarative-narrow-focus_David-leia-el-libro.wav,./stim/wavs/argentine_match_declarative-narrow-focus_David-leia-el-libro.wav,./stim/wavs/castilian_match_declarative-narrow-focus_David-leia-el-libro.wav,./stim/wavs/chilean_match_declarative-narrow-focus_David-leia-el-libro.wav,./stim/wavs/cuban_match_declarative-narrow-focus_David-leia-el-libro.wav,./stim/wavs/mexican_match_declarative-narrow-focus_David-leia-el-libro.wav,./stim/wavs/peruvian_match_declarative-narrow-focus_David-leia-el-libro.wav,./stim/wavs/puertorican_match_declarative-narrow-focus_David-leia-el-libro.wav,,,,,,,,,,,,,,,,,,,,,,,,,,,,,,,,,,,,,,,,,,,,,,,,,,,,,,,,
,,,,,,,midd29,midd,ma,Spain,South,13 or older,no,2021-03-31_12h06.25.411,empathy_intonation_perc,2020.2.10,MacIntel,60,,,,,,,,,,1,mexican,0,0,1.53884,0,13,13,29,1,30,./stim/wavs/andalusian_match_interrogative-total-yn_Maria-bebe-el-vino.wav,./stim/wavs/argentine_match_interrogative-total-yn_Maria-bebe-el-vino.wav,./stim/wavs/castilian_match_interrogative-total-yn_Maria-bebe-el-vino.wav,./stim/wavs/chilean_match_interrogative-total-yn_Maria-bebe-el-vino.wav,./stim/wavs/cuban_match_interrogative-total-yn_Maria-bebe-el-vino.wav,./stim/wavs/mexican_match_interrogative-total-yn_Maria-bebe-el-vino.wav,./stim/wavs/peruvian_match_interrogative-total-yn_Maria-bebe-el-vino.wav,./stim/wavs/puertorican_match_interrogative-total-yn_Maria-bebe-el-vino.wav,,,,,,,,,,,,,,,,,,,,,,,,,,,,,,,,,,,,,,,,,,,,,,,,,,,,,,,,
,,,,,,,midd29,midd,ma,Spain,South,13 or older,no,2021-03-31_12h06.25.411,empathy_intonation_perc,2020.2.10,MacIntel,60,,,,,,,,,,0,castilian,0,1,4.07359,0,14,14,7,1,8,./stim/wavs/andalusian_match_declarative-broad-focus_Marta-abre-el-regalo.wav,./stim/wavs/argentine_match_declarative-broad-focus_Marta-abre-el-regalo.wav,./stim/wavs/castilian_match_declarative-broad-focus_Marta-abre-el-regalo.wav,./stim/wavs/chilean_match_declarative-broad-focus_Marta-abre-el-regalo.wav,./stim/wavs/cuban_match_declarative-broad-focus_Marta-abre-el-regalo.wav,./stim/wavs/mexican_match_declarative-broad-focus_Marta-abre-el-regalo.wav,./stim/wavs/peruvian_match_declarative-broad-focus_Marta-abre-el-regalo.wav,./stim/wavs/puertorican_match_declarative-broad-focus_Marta-abre-el-regalo.wav,,,,,,,,,,,,,,,,,,,,,,,,,,,,,,,,,,,,,,,,,,,,,,,,,,,,,,,,
,,,,,,,midd29,midd,ma,Spain,South,13 or older,no,2021-03-31_12h06.25.411,empathy_intonation_perc,2020.2.10,MacIntel,60,,,,,,,,,,0,puertorican,0,1,1.484125,0,15,15,42,1,43,./stim/wavs/andalusian_mismatch_declarative-narrow-focus_El-nino-oye-el-rio.wav,./stim/wavs/argentine_mismatch_declarative-narrow-focus_El-nino-oye-el-rio.wav,./stim/wavs/castilian_mismatch_declarative-narrow-focus_El-nino-oye-el-rio.wav,./stim/wavs/chilean_mismatch_declarative-narrow-focus_El-nino-oye-el-rio.wav,./stim/wavs/cuban_mismatch_declarative-narrow-focus_El-nino-oye-el-rio.wav,./stim/wavs/mexican_mismatch_declarative-narrow-focus_El-nino-oye-el-rio.wav,./stim/wavs/peruvian_mismatch_declarative-narrow-focus_El-nino-oye-el-rio.wav,./stim/wavs/puertorican_mismatch_declarative-narrow-focus_El-nino-oye-el-rio.wav,,,,,,,,,,,,,,,,,,,,,,,,,,,,,,,,,,,,,,,,,,,,,,,,,,,,,,,,
,,,,,,,midd29,midd,ma,Spain,South,13 or older,no,2021-03-31_12h06.25.411,empathy_intonation_perc,2020.2.10,MacIntel,60,,,,,,,,,,0,argentine,0,1,1.457935,0,16,16,33,1,34,./stim/wavs/andalusian_mismatch_declarative-broad-focus_El-hombre-mira-la-luna.wav,./stim/wavs/argentine_mismatch_declarative-broad-focus_El-hombre-mira-la-luna.wav,./stim/wavs/castilian_mismatch_declarative-broad-focus_El-hombre-mira-la-luna.wav,./stim/wavs/chilean_mismatch_declarative-broad-focus_El-hombre-mira-la-luna.wav,./stim/wavs/cuban_mismatch_declarative-broad-focus_El-hombre-mira-la-luna.wav,./stim/wavs/mexican_mismatch_declarative-broad-focus_El-hombre-mira-la-luna.wav,./stim/wavs/peruvian_mismatch_declarative-broad-focus_El-hombre-mira-la-luna.wav,./stim/wavs/puertorican_mismatch_declarative-broad-focus_El-hombre-mira-la-luna.wav,,,,,,,,,,,,,,,,,,,,,,,,,,,,,,,,,,,,,,,,,,,,,,,,,,,,,,,,
,,,,,,,midd29,midd,ma,Spain,South,13 or older,no,2021-03-31_12h06.25.411,empathy_intonation_perc,2020.2.10,MacIntel,60,,,,,,,,,,1,puertorican,1,1,2.04294,0,17,17,49,1,50,./stim/wavs/andalusian_mismatch_interrogative-partial-wh_Cuando-lavaba-el-plato.wav,./stim/wavs/argentine_mismatch_interrogative-partial-wh_Cuando-lavaba-el-plato.wav,./stim/wavs/castilian_mismatch_interrogative-partial-wh_Cuando-lavaba-el-plato.wav,./stim/wavs/chilean_mismatch_interrogative-partial-wh_Cuando-lavaba-el-plato.wav,./stim/wavs/cuban_mismatch_interrogative-partial-wh_Cuando-lavaba-el-plato.wav,./stim/wavs/mexican_mismatch_interrogative-partial-wh_Cuando-lavaba-el-plato.wav,./stim/wavs/peruvian_mismatch_interrogative-partial-wh_Cuando-lavaba-el-plato.wav,./stim/wavs/puertorican_mismatch_interrogative-partial-wh_Cuando-lavaba-el-plato.wav,,,,,,,,,,,,,,,,,,,,,,,,,,,,,,,,,,,,,,,,,,,,,,,,,,,,,,,,
,,,,,,,midd29,midd,ma,Spain,South,13 or older,no,2021-03-31_12h06.25.411,empathy_intonation_perc,2020.2.10,MacIntel,60,,,,,,,,,,1,peruvian,1,1,1.834415,0,18,18,55,1,56,./stim/wavs/andalusian_mismatch_interrogative-partial-wh_Por-que-vivia-en-Paris.wav,./stim/wavs/argentine_mismatch_interrogative-partial-wh_Por-que-vivia-en-Paris.wav,./stim/wavs/castilian_mismatch_interrogative-partial-wh_Por-que-vivia-en-Paris.wav,./stim/wavs/chilean_mismatch_interrogative-partial-wh_Por-que-vivia-en-Paris.wav,./stim/wavs/cuban_mismatch_interrogative-partial-wh_Por-que-vivia-en-Paris.wav,./stim/wavs/mexican_mismatch_interrogative-partial-wh_Por-que-vivia-en-Paris.wav,./stim/wavs/peruvian_mismatch_interrogative-partial-wh_Por-que-vivia-en-Paris.wav,./stim/wavs/puertorican_mismatch_interrogative-partial-wh_Por-que-vivia-en-Paris.wav,,,,,,,,,,,,,,,,,,,,,,,,,,,,,,,,,,,,,,,,,,,,,,,,,,,,,,,,
,,,,,,,midd29,midd,ma,Spain,South,13 or older,no,2021-03-31_12h06.25.411,empathy_intonation_perc,2020.2.10,MacIntel,60,,,,,,,,,,1,peruvian,1,1,1.84449,0,19,19,25,1,26,./stim/wavs/andalusian_match_interrogative-total-yn_Daniel-iba-a-Bolivia.wav,./stim/wavs/argentine_match_interrogative-total-yn_Daniel-iba-a-Bolivia.wav,./stim/wavs/castilian_match_interrogative-total-yn_Daniel-iba-a-Bolivia.wav,./stim/wavs/chilean_match_interrogative-total-yn_Daniel-iba-a-Bolivia.wav,./stim/wavs/cuban_match_interrogative-total-yn_Daniel-iba-a-Bolivia.wav,./stim/wavs/mexican_match_interrogative-total-yn_Daniel-iba-a-Bolivia.wav,./stim/wavs/peruvian_match_interrogative-total-yn_Daniel-iba-a-Bolivia.wav,./stim/wavs/puertorican_match_interrogative-total-yn_Daniel-iba-a-Bolivia.wav,,,,,,,,,,,,,,,,,,,,,,,,,,,,,,,,,,,,,,,,,,,,,,,,,,,,,,,,
,,,,,,,midd29,midd,ma,Spain,South,13 or older,no,2021-03-31_12h06.25.411,empathy_intonation_perc,2020.2.10,MacIntel,60,,,,,,,,,,0,peruvian,0,1,1.969265,0,20,20,32,1,33,./stim/wavs/andalusian_mismatch_declarative-broad-focus_El-bebe-comia-muy-bien.wav,./stim/wavs/argentine_mismatch_declarative-broad-focus_El-bebe-comia-muy-bien.wav,./stim/wavs/castilian_mismatch_declarative-broad-focus_El-bebe-comia-muy-bien.wav,./stim/wavs/chilean_mismatch_declarative-broad-focus_El-bebe-comia-muy-bien.wav,./stim/wavs/cuban_mismatch_declarative-broad-focus_El-bebe-comia-muy-bien.wav,./stim/wavs/mexican_mismatch_declarative-broad-focus_El-bebe-comia-muy-bien.wav,./stim/wavs/peruvian_mismatch_declarative-broad-focus_El-bebe-comia-muy-bien.wav,./stim/wavs/puertorican_mismatch_declarative-broad-focus_El-bebe-comia-muy-bien.wav,,,,,,,,,,,,,,,,,,,,,,,,,,,,,,,,,,,,,,,,,,,,,,,,,,,,,,,,
,,,,,,,midd29,midd,ma,Spain,South,13 or older,no,2021-03-31_12h06.25.411,empathy_intonation_perc,2020.2.10,MacIntel,60,,,,,,,,,,0,andalusian,0,1,1.767045,0,21,21,12,1,13,./stim/wavs/andalusian_match_declarative-narrow-focus_Manuela-vende-el-carro.wav,./stim/wavs/argentine_match_declarative-narrow-focus_Manuela-vende-el-carro.wav,./stim/wavs/castilian_match_declarative-narrow-focus_Manuela-vende-el-carro.wav,./stim/wavs/chilean_match_declarative-narrow-focus_Manuela-vende-el-carro.wav,./stim/wavs/cuban_match_declarative-narrow-focus_Manuela-vende-el-carro.wav,./stim/wavs/mexican_match_declarative-narrow-focus_Manuela-vende-el-carro.wav,./stim/wavs/peruvian_match_declarative-narrow-focus_Manuela-vende-el-carro.wav,./stim/wavs/puertorican_match_declarative-narrow-focus_Manuela-vende-el-carro.wav,,,,,,,,,,,,,,,,,,,,,,,,,,,,,,,,,,,,,,,,,,,,,,,,,,,,,,,,
,,,,,,,midd29,midd,ma,Spain,South,13 or older,no,2021-03-31_12h06.25.411,empathy_intonation_perc,2020.2.10,MacIntel,60,,,,,,,,,,1,argentine,1,1,2.843485,0,22,22,52,1,53,./stim/wavs/andalusian_mismatch_interrogative-partial-wh_Por-que-odiaba-la-lluvia.wav,./stim/wavs/argentine_mismatch_interrogative-partial-wh_Por-que-odiaba-la-lluvia.wav,./stim/wavs/castilian_mismatch_interrogative-partial-wh_Por-que-odiaba-la-lluvia.wav,./stim/wavs/chilean_mismatch_interrogative-partial-wh_Por-que-odiaba-la-lluvia.wav,./stim/wavs/cuban_mismatch_interrogative-partial-wh_Por-que-odiaba-la-lluvia.wav,./stim/wavs/mexican_mismatch_interrogative-partial-wh_Por-que-odiaba-la-lluvia.wav,./stim/wavs/peruvian_mismatch_interrogative-partial-wh_Por-que-odiaba-la-lluvia.wav,./stim/wavs/puertorican_mismatch_interrogative-partial-wh_Por-que-odiaba-la-lluvia.wav,,,,,,,,,,,,,,,,,,,,,,,,,,,,,,,,,,,,,,,,,,,,,,,,,,,,,,,,
,,,,,,,midd29,midd,ma,Spain,South,13 or older,no,2021-03-31_12h06.25.411,empathy_intonation_perc,2020.2.10,MacIntel,60,,,,,,,,,,0,castilian,0,1,20.98828,0,23,23,44,1,45,./stim/wavs/andalusian_mismatch_declarative-narrow-focus_La-nina-lava-el-plato.wav,./stim/wavs/argentine_mismatch_declarative-narrow-focus_La-nina-lava-el-plato.wav,./stim/wavs/castilian_mismatch_declarative-narrow-focus_La-nina-lava-el-plato.wav,./stim/wavs/chilean_mismatch_declarative-narrow-focus_La-nina-lava-el-plato.wav,./stim/wavs/cuban_mismatch_declarative-narrow-focus_La-nina-lava-el-plato.wav,./stim/wavs/mexican_mismatch_declarative-narrow-focus_La-nina-lava-el-plato.wav,./stim/wavs/peruvian_mismatch_declarative-narrow-focus_La-nina-lava-el-plato.wav,./stim/wavs/puertorican_mismatch_declarative-narrow-focus_La-nina-lava-el-plato.wav,,,,,,,,,,,,,,,,,,,,,,,,,,,,,,,,,,,,,,,,,,,,,,,,,,,,,,,,
,,,,,,,midd29,midd,ma,Spain,South,13 or older,no,2021-03-31_12h06.25.411,empathy_intonation_perc,2020.2.10,MacIntel,60,,,,,,,,,,0,castilian,0,1,1.702685,0,24,24,0,1,1,./stim/wavs/andalusian_match_declarative-broad-focus_Ana-lleva-el-abrigo.wav,./stim/wavs/argentine_match_declarative-broad-focus_Ana-lleva-el-abrigo.wav,./stim/wavs/castilian_match_declarative-broad-focus_Ana-lleva-el-abrigo.wav,./stim/wavs/chilean_match_declarative-broad-focus_Ana-lleva-el-abrigo.wav,./stim/wavs/cuban_match_declarative-broad-focus_Ana-lleva-el-abrigo.wav,./stim/wavs/mexican_match_declarative-broad-focus_Ana-lleva-el-abrigo.wav,./stim/wavs/peruvian_match_declarative-broad-focus_Ana-lleva-el-abrigo.wav,./stim/wavs/puertorican_match_declarative-broad-focus_Ana-lleva-el-abrigo.wav,,,,,,,,,,,,,,,,,,,,,,,,,,,,,,,,,,,,,,,,,,,,,,,,,,,,,,,,
,,,,,,,midd29,midd,ma,Spain,South,13 or older,no,2021-03-31_12h06.25.411,empathy_intonation_perc,2020.2.10,MacIntel,60,,,,,,,,,,0,puertorican,0,1,4.30093,0,25,25,1,1,2,./stim/wavs/andalusian_match_declarative-broad-focus_Daniel-iba-a-Bolivia.wav,./stim/wavs/argentine_match_declarative-broad-focus_Daniel-iba-a-Bolivia.wav,./stim/wavs/castilian_match_declarative-broad-focus_Daniel-iba-a-Bolivia.wav,./stim/wavs/chilean_match_declarative-broad-focus_Daniel-iba-a-Bolivia.wav,./stim/wavs/cuban_match_declarative-broad-focus_Daniel-iba-a-Bolivia.wav,./stim/wavs/mexican_match_declarative-broad-focus_Daniel-iba-a-Bolivia.wav,./stim/wavs/peruvian_match_declarative-broad-focus_Daniel-iba-a-Bolivia.wav,./stim/wavs/puertorican_match_declarative-broad-focus_Daniel-iba-a-Bolivia.wav,,,,,,,,,,,,,,,,,,,,,,,,,,,,,,,,,,,,,,,,,,,,,,,,,,,,,,,,
,,,,,,,midd29,midd,ma,Spain,South,13 or older,no,2021-03-31_12h06.25.411,empathy_intonation_perc,2020.2.10,MacIntel,60,,,,,,,,,,1,cuban,1,1,1.41561,0,26,26,20,1,21,./stim/wavs/andalusian_match_interrogative-partial-wh_Por-que-abre-el-regalo.wav,./stim/wavs/argentine_match_interrogative-partial-wh_Por-que-abre-el-regalo.wav,./stim/wavs/castilian_match_interrogative-partial-wh_Por-que-abre-el-regalo.wav,./stim/wavs/chilean_match_interrogative-partial-wh_Por-que-abre-el-regalo.wav,./stim/wavs/cuban_match_interrogative-partial-wh_Por-que-abre-el-regalo.wav,./stim/wavs/mexican_match_interrogative-partial-wh_Por-que-abre-el-regalo.wav,./stim/wavs/peruvian_match_interrogative-partial-wh_Por-que-abre-el-regalo.wav,./stim/wavs/puertorican_match_interrogative-partial-wh_Por-que-abre-el-regalo.wav,,,,,,,,,,,,,,,,,,,,,,,,,,,,,,,,,,,,,,,,,,,,,,,,,,,,,,,,
,,,,,,,midd29,midd,ma,Spain,South,13 or older,no,2021-03-31_12h06.25.411,empathy_intonation_perc,2020.2.10,MacIntel,60,,,,,,,,,,1,castilian,1,1,1.906535,0,27,27,60,1,61,./stim/wavs/andalusian_mismatch_interrogative-total-yn_La-nina-lava-el-plato.wav,./stim/wavs/argentine_mismatch_interrogative-total-yn_La-nina-lava-el-plato.wav,./stim/wavs/castilian_mismatch_interrogative-total-yn_La-nina-lava-el-plato.wav,./stim/wavs/chilean_mismatch_interrogative-total-yn_La-nina-lava-el-plato.wav,./stim/wavs/cuban_mismatch_interrogative-total-yn_La-nina-lava-el-plato.wav,./stim/wavs/mexican_mismatch_interrogative-total-yn_La-nina-lava-el-plato.wav,./stim/wavs/peruvian_mismatch_interrogative-total-yn_La-nina-lava-el-plato.wav,./stim/wavs/puertorican_mismatch_interrogative-total-yn_La-nina-lava-el-plato.wav,,,,,,,,,,,,,,,,,,,,,,,,,,,,,,,,,,,,,,,,,,,,,,,,,,,,,,,,
,,,,,,,midd29,midd,ma,Spain,South,13 or older,no,2021-03-31_12h06.25.411,empathy_intonation_perc,2020.2.10,MacIntel,60,,,,,,,,,,1,cuban,1,1,2.76789,0,28,28,30,1,31,./stim/wavs/andalusian_match_interrogative-total-yn_Mariano-habla-del-tiempo.wav,./stim/wavs/argentine_match_interrogative-total-yn_Mariano-habla-del-tiempo.wav,./stim/wavs/castilian_match_interrogative-total-yn_Mariano-habla-del-tiempo.wav,./stim/wavs/chilean_match_interrogative-total-yn_Mariano-habla-del-tiempo.wav,./stim/wavs/cuban_match_interrogative-total-yn_Mariano-habla-del-tiempo.wav,./stim/wavs/mexican_match_interrogative-total-yn_Mariano-habla-del-tiempo.wav,./stim/wavs/peruvian_match_interrogative-total-yn_Mariano-habla-del-tiempo.wav,./stim/wavs/puertorican_match_interrogative-total-yn_Mariano-habla-del-tiempo.wav,,,,,,,,,,,,,,,,,,,,,,,,,,,,,,,,,,,,,,,,,,,,,,,,,,,,,,,,
,,,,,,,midd29,midd,ma,Spain,South,13 or older,no,2021-03-31_12h06.25.411,empathy_intonation_perc,2020.2.10,MacIntel,60,,,,,,,,,,1,puertorican,1,1,1.488765,0,29,29,16,1,17,./stim/wavs/andalusian_match_interrogative-partial-wh_Cuando-bebia-el-vino.wav,./stim/wavs/argentine_match_interrogative-partial-wh_Cuando-bebia-el-vino.wav,./stim/wavs/castilian_match_interrogative-partial-wh_Cuando-bebia-el-vino.wav,./stim/wavs/chilean_match_interrogative-partial-wh_Cuando-bebia-el-vino.wav,./stim/wavs/cuban_match_interrogative-partial-wh_Cuando-bebia-el-vino.wav,./stim/wavs/mexican_match_interrogative-partial-wh_Cuando-bebia-el-vino.wav,./stim/wavs/peruvian_match_interrogative-partial-wh_Cuando-bebia-el-vino.wav,./stim/wavs/puertorican_match_interrogative-partial-wh_Cuando-bebia-el-vino.wav,,,,,,,,,,,,,,,,,,,,,,,,,,,,,,,,,,,,,,,,,,,,,,,,,,,,,,,,
,,,,,,,midd29,midd,ma,Spain,South,13 or older,no,2021-03-31_12h06.25.411,empathy_intonation_perc,2020.2.10,MacIntel,60,,,,,,,,,,1,mexican,1,1,1.48488,0,30,30,57,1,58,./stim/wavs/andalusian_mismatch_interrogative-total-yn_El-hombre-mira-la-luna.wav,./stim/wavs/argentine_mismatch_interrogative-total-yn_El-hombre-mira-la-luna.wav,./stim/wavs/castilian_mismatch_interrogative-total-yn_El-hombre-mira-la-luna.wav,./stim/wavs/chilean_mismatch_interrogative-total-yn_El-hombre-mira-la-luna.wav,./stim/wavs/cuban_mismatch_interrogative-total-yn_El-hombre-mira-la-luna.wav,./stim/wavs/mexican_mismatch_interrogative-total-yn_El-hombre-mira-la-luna.wav,./stim/wavs/peruvian_mismatch_interrogative-total-yn_El-hombre-mira-la-luna.wav,./stim/wavs/puertorican_mismatch_interrogative-total-yn_El-hombre-mira-la-luna.wav,,,,,,,,,,,,,,,,,,,,,,,,,,,,,,,,,,,,,,,,,,,,,,,,,,,,,,,,
,,,,,,,midd29,midd,ma,Spain,South,13 or older,no,2021-03-31_12h06.25.411,empathy_intonation_perc,2020.2.10,MacIntel,60,,,,,,,,,,1,cuban,1,1,2.84338,0,31,31,53,1,54,./stim/wavs/andalusian_mismatch_interrogative-partial-wh_Por-que-oia-el-rio.wav,./stim/wavs/argentine_mismatch_interrogative-partial-wh_Por-que-oia-el-rio.wav,./stim/wavs/castilian_mismatch_interrogative-partial-wh_Por-que-oia-el-rio.wav,./stim/wavs/chilean_mismatch_interrogative-partial-wh_Por-que-oia-el-rio.wav,./stim/wavs/cuban_mismatch_interrogative-partial-wh_Por-que-oia-el-rio.wav,./stim/wavs/mexican_mismatch_interrogative-partial-wh_Por-que-oia-el-rio.wav,./stim/wavs/peruvian_mismatch_interrogative-partial-wh_Por-que-oia-el-rio.wav,./stim/wavs/puertorican_mismatch_interrogative-partial-wh_Por-que-oia-el-rio.wav,,,,,,,,,,,,,,,,,,,,,,,,,,,,,,,,,,,,,,,,,,,,,,,,,,,,,,,,
,,,,,,,midd29,midd,ma,Spain,South,13 or older,no,2021-03-31_12h06.25.411,empathy_intonation_perc,2020.2.10,MacIntel,60,,,,,,,,,,1,castilian,1,1,2.268245,0,32,32,63,1,64,./stim/wavs/andalusian_mismatch_interrogative-total-yn_Mi-tia-odia-la-lluvia.wav,./stim/wavs/argentine_mismatch_interrogative-total-yn_Mi-tia-odia-la-lluvia.wav,./stim/wavs/castilian_mismatch_interrogative-total-yn_Mi-tia-odia-la-lluvia.wav,./stim/wavs/chilean_mismatch_interrogative-total-yn_Mi-tia-odia-la-lluvia.wav,./stim/wavs/cuban_mismatch_interrogative-total-yn_Mi-tia-odia-la-lluvia.wav,./stim/wavs/mexican_mismatch_interrogative-total-yn_Mi-tia-odia-la-lluvia.wav,./stim/wavs/peruvian_mismatch_interrogative-total-yn_Mi-tia-odia-la-lluvia.wav,./stim/wavs/puertorican_mismatch_interrogative-total-yn_Mi-tia-odia-la-lluvia.wav,,,,,,,,,,,,,,,,,,,,,,,,,,,,,,,,,,,,,,,,,,,,,,,,,,,,,,,,
,,,,,,,midd29,midd,ma,Spain,South,13 or older,no,2021-03-31_12h06.25.411,empathy_intonation_perc,2020.2.10,MacIntel,60,,,,,,,,,,0,chilean,0,1,1.54211,0,33,33,45,1,46,./stim/wavs/andalusian_mismatch_declarative-narrow-focus_Mi-madre-come-la-fruta.wav,./stim/wavs/argentine_mismatch_declarative-narrow-focus_Mi-madre-come-la-fruta.wav,./stim/wavs/castilian_mismatch_declarative-narrow-focus_Mi-madre-come-la-fruta.wav,./stim/wavs/chilean_mismatch_declarative-narrow-focus_Mi-madre-come-la-fruta.wav,./stim/wavs/cuban_mismatch_declarative-narrow-focus_Mi-madre-come-la-fruta.wav,./stim/wavs/mexican_mismatch_declarative-narrow-focus_Mi-madre-come-la-fruta.wav,./stim/wavs/peruvian_mismatch_declarative-narrow-focus_Mi-madre-come-la-fruta.wav,./stim/wavs/puertorican_mismatch_declarative-narrow-focus_Mi-madre-come-la-fruta.wav,,,,,,,,,,,,,,,,,,,,,,,,,,,,,,,,,,,,,,,,,,,,,,,,,,,,,,,,
,,,,,,,midd29,midd,ma,Spain,South,13 or older,no,2021-03-31_12h06.25.411,empathy_intonation_perc,2020.2.10,MacIntel,60,,,,,,,,,,1,andalusian,0,0,2.4465,0,34,34,56,1,57,./stim/wavs/andalusian_mismatch_interrogative-total-yn_El-bebe-comia-muy-bien.wav,./stim/wavs/argentine_mismatch_interrogative-total-yn_El-bebe-comia-muy-bien.wav,./stim/wavs/castilian_mismatch_interrogative-total-yn_El-bebe-comia-muy-bien.wav,./stim/wavs/chilean_mismatch_interrogative-total-yn_El-bebe-comia-muy-bien.wav,./stim/wavs/cuban_mismatch_interrogative-total-yn_El-bebe-comia-muy-bien.wav,./stim/wavs/mexican_mismatch_interrogative-total-yn_El-bebe-comia-muy-bien.wav,./stim/wavs/peruvian_mismatch_interrogative-total-yn_El-bebe-comia-muy-bien.wav,./stim/wavs/puertorican_mismatch_interrogative-total-yn_El-bebe-comia-muy-bien.wav,,,,,,,,,,,,,,,,,,,,,,,,,,,,,,,,,,,,,,,,,,,,,,,,,,,,,,,,
,,,,,,,midd29,midd,ma,Spain,South,13 or older,no,2021-03-31_12h06.25.411,empathy_intonation_perc,2020.2.10,MacIntel,60,,,,,,,,,,0,argentine,0,1,1.4799,0,35,35,37,1,38,./stim/wavs/andalusian_mismatch_declarative-broad-focus_Mi-madre-come-la-fruta.wav,./stim/wavs/argentine_mismatch_declarative-broad-focus_Mi-madre-come-la-fruta.wav,./stim/wavs/castilian_mismatch_declarative-broad-focus_Mi-madre-come-la-fruta.wav,./stim/wavs/chilean_mismatch_declarative-broad-focus_Mi-madre-come-la-fruta.wav,./stim/wavs/cuban_mismatch_declarative-broad-focus_Mi-madre-come-la-fruta.wav,./stim/wavs/mexican_mismatch_declarative-broad-focus_Mi-madre-come-la-fruta.wav,./stim/wavs/peruvian_mismatch_declarative-broad-focus_Mi-madre-come-la-fruta.wav,./stim/wavs/puertorican_mismatch_declarative-broad-focus_Mi-madre-come-la-fruta.wav,,,,,,,,,,,,,,,,,,,,,,,,,,,,,,,,,,,,,,,,,,,,,,,,,,,,,,,,
,,,,,,,midd29,midd,ma,Spain,South,13 or older,no,2021-03-31_12h06.25.411,empathy_intonation_perc,2020.2.10,MacIntel,60,,,,,,,,,,1,cuban,1,1,1.952065,0,36,36,27,1,28,./stim/wavs/andalusian_match_interrogative-total-yn_Emilio-ama-la-marcha.wav,./stim/wavs/argentine_match_interrogative-total-yn_Emilio-ama-la-marcha.wav,./stim/wavs/castilian_match_interrogative-total-yn_Emilio-ama-la-marcha.wav,./stim/wavs/chilean_match_interrogative-total-yn_Emilio-ama-la-marcha.wav,./stim/wavs/cuban_match_interrogative-total-yn_Emilio-ama-la-marcha.wav,./stim/wavs/mexican_match_interrogative-total-yn_Emilio-ama-la-marcha.wav,./stim/wavs/peruvian_match_interrogative-total-yn_Emilio-ama-la-marcha.wav,./stim/wavs/puertorican_match_interrogative-total-yn_Emilio-ama-la-marcha.wav,,,,,,,,,,,,,,,,,,,,,,,,,,,,,,,,,,,,,,,,,,,,,,,,,,,,,,,,
,,,,,,,midd29,midd,ma,Spain,South,13 or older,no,2021-03-31_12h06.25.411,empathy_intonation_perc,2020.2.10,MacIntel,60,,,,,,,,,,0,puertorican,0,1,1.78455,0,37,37,13,1,14,./stim/wavs/andalusian_match_declarative-narrow-focus_Maria-bebe-el-vino.wav,./stim/wavs/argentine_match_declarative-narrow-focus_Maria-bebe-el-vino.wav,./stim/wavs/castilian_match_declarative-narrow-focus_Maria-bebe-el-vino.wav,./stim/wavs/chilean_match_declarative-narrow-focus_Maria-bebe-el-vino.wav,./stim/wavs/cuban_match_declarative-narrow-focus_Maria-bebe-el-vino.wav,./stim/wavs/mexican_match_declarative-narrow-focus_Maria-bebe-el-vino.wav,./stim/wavs/peruvian_match_declarative-narrow-focus_Maria-bebe-el-vino.wav,./stim/wavs/puertorican_match_declarative-narrow-focus_Maria-bebe-el-vino.wav,,,,,,,,,,,,,,,,,,,,,,,,,,,,,,,,,,,,,,,,,,,,,,,,,,,,,,,,
,,,,,,,midd29,midd,ma,Spain,South,13 or older,no,2021-03-31_12h06.25.411,empathy_intonation_perc,2020.2.10,MacIntel,60,,,,,,,,,,0,cuban,0,1,1.637925,0,38,38,5,1,6,./stim/wavs/andalusian_match_declarative-broad-focus_Maria-bebe-el-vino.wav,./stim/wavs/argentine_match_declarative-broad-focus_Maria-bebe-el-vino.wav,./stim/wavs/castilian_match_declarative-broad-focus_Maria-bebe-el-vino.wav,./stim/wavs/chilean_match_declarative-broad-focus_Maria-bebe-el-vino.wav,./stim/wavs/cuban_match_declarative-broad-focus_Maria-bebe-el-vino.wav,./stim/wavs/mexican_match_declarative-broad-focus_Maria-bebe-el-vino.wav,./stim/wavs/peruvian_match_declarative-broad-focus_Maria-bebe-el-vino.wav,./stim/wavs/puertorican_match_declarative-broad-focus_Maria-bebe-el-vino.wav,,,,,,,,,,,,,,,,,,,,,,,,,,,,,,,,,,,,,,,,,,,,,,,,,,,,,,,,
,,,,,,,midd29,midd,ma,Spain,South,13 or older,no,2021-03-31_12h06.25.411,empathy_intonation_perc,2020.2.10,MacIntel,60,,,,,,,,,,0,cuban,0,1,2.392805,0,39,39,3,1,4,./stim/wavs/andalusian_match_declarative-broad-focus_Emilio-ama-la-marcha.wav,./stim/wavs/argentine_match_declarative-broad-focus_Emilio-ama-la-marcha.wav,./stim/wavs/castilian_match_declarative-broad-focus_Emilio-ama-la-marcha.wav,./stim/wavs/chilean_match_declarative-broad-focus_Emilio-ama-la-marcha.wav,./stim/wavs/cuban_match_declarative-broad-focus_Emilio-ama-la-marcha.wav,./stim/wavs/mexican_match_declarative-broad-focus_Emilio-ama-la-marcha.wav,./stim/wavs/peruvian_match_declarative-broad-focus_Emilio-ama-la-marcha.wav,./stim/wavs/puertorican_match_declarative-broad-focus_Emilio-ama-la-marcha.wav,,,,,,,,,,,,,,,,,,,,,,,,,,,,,,,,,,,,,,,,,,,,,,,,,,,,,,,,
,,,,,,,midd29,midd,ma,Spain,South,13 or older,no,2021-03-31_12h06.25.411,empathy_intonation_perc,2020.2.10,MacIntel,60,,,,,,,,,,1,cuban,1,1,1.44932,0,40,40,17,1,18,./stim/wavs/andalusian_match_interrogative-partial-wh_Cuando-leia-el-libro.wav,./stim/wavs/argentine_match_interrogative-partial-wh_Cuando-leia-el-libro.wav,./stim/wavs/castilian_match_interrogative-partial-wh_Cuando-leia-el-libro.wav,./stim/wavs/chilean_match_interrogative-partial-wh_Cuando-leia-el-libro.wav,./stim/wavs/cuban_match_interrogative-partial-wh_Cuando-leia-el-libro.wav,./stim/wavs/mexican_match_interrogative-partial-wh_Cuando-leia-el-libro.wav,./stim/wavs/peruvian_match_interrogative-partial-wh_Cuando-leia-el-libro.wav,./stim/wavs/puertorican_match_interrogative-partial-wh_Cuando-leia-el-libro.wav,,,,,,,,,,,,,,,,,,,,,,,,,,,,,,,,,,,,,,,,,,,,,,,,,,,,,,,,
,,,,,,,midd29,midd,ma,Spain,South,13 or older,no,2021-03-31_12h06.25.411,empathy_intonation_perc,2020.2.10,MacIntel,60,,,,,,,,,,1,chilean,1,1,1.669695,0,41,41,54,1,55,./stim/wavs/andalusian_mismatch_interrogative-partial-wh_Por-que-venia-del-lago.wav,./stim/wavs/argentine_mismatch_interrogative-partial-wh_Por-que-venia-del-lago.wav,./stim/wavs/castilian_mismatch_interrogative-partial-wh_Por-que-venia-del-lago.wav,./stim/wavs/chilean_mismatch_interrogative-partial-wh_Por-que-venia-del-lago.wav,./stim/wavs/cuban_mismatch_interrogative-partial-wh_Por-que-venia-del-lago.wav,./stim/wavs/mexican_mismatch_interrogative-partial-wh_Por-que-venia-del-lago.wav,./stim/wavs/peruvian_mismatch_interrogative-partial-wh_Por-que-venia-del-lago.wav,./stim/wavs/puertorican_mismatch_interrogative-partial-wh_Por-que-venia-del-lago.wav,,,,,,,,,,,,,,,,,,,,,,,,,,,,,,,,,,,,,,,,,,,,,,,,,,,,,,,,
,,,,,,,midd29,midd,ma,Spain,South,13 or older,no,2021-03-31_12h06.25.411,empathy_intonation_perc,2020.2.10,MacIntel,60,,,,,,,,,,0,chilean,0,1,2.20671,0,42,42,2,1,3,./stim/wavs/andalusian_match_declarative-broad-focus_David-leia-el-libro.wav,./stim/wavs/argentine_match_declarative-broad-focus_David-leia-el-libro.wav,./stim/wavs/castilian_match_declarative-broad-focus_David-leia-el-libro.wav,./stim/wavs/chilean_match_declarative-broad-focus_David-leia-el-libro.wav,./stim/wavs/cuban_match_declarative-broad-focus_David-leia-el-libro.wav,./stim/wavs/mexican_match_declarative-broad-focus_David-leia-el-libro.wav,./stim/wavs/peruvian_match_declarative-broad-focus_David-leia-el-libro.wav,./stim/wavs/puertorican_match_declarative-broad-focus_David-leia-el-libro.wav,,,,,,,,,,,,,,,,,,,,,,,,,,,,,,,,,,,,,,,,,,,,,,,,,,,,,,,,
,,,,,,,midd29,midd,ma,Spain,South,13 or older,no,2021-03-31_12h06.25.411,empathy_intonation_perc,2020.2.10,MacIntel,60,,,,,,,,,,0,puertorican,0,1,1.618555,0,43,43,9,1,10,./stim/wavs/andalusian_match_declarative-narrow-focus_Daniel-iba-a-Bolivia.wav,./stim/wavs/argentine_match_declarative-narrow-focus_Daniel-iba-a-Bolivia.wav,./stim/wavs/castilian_match_declarative-narrow-focus_Daniel-iba-a-Bolivia.wav,./stim/wavs/chilean_match_declarative-narrow-focus_Daniel-iba-a-Bolivia.wav,./stim/wavs/cuban_match_declarative-narrow-focus_Daniel-iba-a-Bolivia.wav,./stim/wavs/mexican_match_declarative-narrow-focus_Daniel-iba-a-Bolivia.wav,./stim/wavs/peruvian_match_declarative-narrow-focus_Daniel-iba-a-Bolivia.wav,./stim/wavs/puertorican_match_declarative-narrow-focus_Daniel-iba-a-Bolivia.wav,,,,,,,,,,,,,,,,,,,,,,,,,,,,,,,,,,,,,,,,,,,,,,,,,,,,,,,,
,,,,,,,midd29,midd,ma,Spain,South,13 or older,no,2021-03-31_12h06.25.411,empathy_intonation_perc,2020.2.10,MacIntel,60,,,,,,,,,,0,argentine,0,1,16.242795,0,44,44,46,1,47,./stim/wavs/andalusian_mismatch_declarative-narrow-focus_Mi-novio-viene-del-lago.wav,./stim/wavs/argentine_mismatch_declarative-narrow-focus_Mi-novio-viene-del-lago.wav,./stim/wavs/castilian_mismatch_declarative-narrow-focus_Mi-novio-viene-del-lago.wav,./stim/wavs/chilean_mismatch_declarative-narrow-focus_Mi-novio-viene-del-lago.wav,./stim/wavs/cuban_mismatch_declarative-narrow-focus_Mi-novio-viene-del-lago.wav,./stim/wavs/mexican_mismatch_declarative-narrow-focus_Mi-novio-viene-del-lago.wav,./stim/wavs/peruvian_mismatch_declarative-narrow-focus_Mi-novio-viene-del-lago.wav,./stim/wavs/puertorican_mismatch_declarative-narrow-focus_Mi-novio-viene-del-lago.wav,,,,,,,,,,,,,,,,,,,,,,,,,,,,,,,,,,,,,,,,,,,,,,,,,,,,,,,,
,,,,,,,midd29,midd,ma,Spain,South,13 or older,no,2021-03-31_12h06.25.411,empathy_intonation_perc,2020.2.10,MacIntel,60,,,,,,,,,,1,chilean,1,1,3.521805,0,45,45,58,1,59,./stim/wavs/andalusian_mismatch_interrogative-total-yn_El-nino-oye-el-rio.wav,./stim/wavs/argentine_mismatch_interrogative-total-yn_El-nino-oye-el-rio.wav,./stim/wavs/castilian_mismatch_interrogative-total-yn_El-nino-oye-el-rio.wav,./stim/wavs/chilean_mismatch_interrogative-total-yn_El-nino-oye-el-rio.wav,./stim/wavs/cuban_mismatch_interrogative-total-yn_El-nino-oye-el-rio.wav,./stim/wavs/mexican_mismatch_interrogative-total-yn_El-nino-oye-el-rio.wav,./stim/wavs/peruvian_mismatch_interrogative-total-yn_El-nino-oye-el-rio.wav,./stim/wavs/puertorican_mismatch_interrogative-total-yn_El-nino-oye-el-rio.wav,,,,,,,,,,,,,,,,,,,,,,,,,,,,,,,,,,,,,,,,,,,,,,,,,,,,,,,,
,,,,,,,midd29,midd,ma,Spain,South,13 or older,no,2021-03-31_12h06.25.411,empathy_intonation_perc,2020.2.10,MacIntel,60,,,,,,,,,,1,castilian,1,1,3.386665,0,46,46,51,1,52,./stim/wavs/andalusian_mismatch_interrogative-partial-wh_Por-que-desayuna-muy-bien.wav,./stim/wavs/argentine_mismatch_interrogative-partial-wh_Por-que-desayuna-muy-bien.wav,./stim/wavs/castilian_mismatch_interrogative-partial-wh_Por-que-desayuna-muy-bien.wav,./stim/wavs/chilean_mismatch_interrogative-partial-wh_Por-que-desayuna-muy-bien.wav,./stim/wavs/cuban_mismatch_interrogative-partial-wh_Por-que-desayuna-muy-bien.wav,./stim/wavs/mexican_mismatch_interrogative-partial-wh_Por-que-desayuna-muy-bien.wav,./stim/wavs/peruvian_mismatch_interrogative-partial-wh_Por-que-desayuna-muy-bien.wav,./stim/wavs/puertorican_mismatch_interrogative-partial-wh_Por-que-desayuna-muy-bien.wav,,,,,,,,,,,,,,,,,,,,,,,,,,,,,,,,,,,,,,,,,,,,,,,,,,,,,,,,
,,,,,,,midd29,midd,ma,Spain,South,13 or older,no,2021-03-31_12h06.25.411,empathy_intonation_perc,2020.2.10,MacIntel,60,,,,,,,,,,1,cuban,1,1,1.633015,0,47,47,23,1,24,./stim/wavs/andalusian_match_interrogative-partial-wh_Por-que-iba-a-Bolivia.wav,./stim/wavs/argentine_match_interrogative-partial-wh_Por-que-iba-a-Bolivia.wav,./stim/wavs/castilian_match_interrogative-partial-wh_Por-que-iba-a-Bolivia.wav,./stim/wavs/chilean_match_interrogative-partial-wh_Por-que-iba-a-Bolivia.wav,./stim/wavs/cuban_match_interrogative-partial-wh_Por-que-iba-a-Bolivia.wav,./stim/wavs/mexican_match_interrogative-partial-wh_Por-que-iba-a-Bolivia.wav,./stim/wavs/peruvian_match_interrogative-partial-wh_Por-que-iba-a-Bolivia.wav,./stim/wavs/puertorican_match_interrogative-partial-wh_Por-que-iba-a-Bolivia.wav,,,,,,,,,,,,,,,,,,,,,,,,,,,,,,,,,,,,,,,,,,,,,,,,,,,,,,,,
,,,,,,,midd29,midd,ma,Spain,South,13 or older,no,2021-03-31_12h06.25.411,empathy_intonation_perc,2020.2.10,MacIntel,60,,,,,,,,,,0,puertorican,0,1,1.65794,0,48,48,43,1,44,./stim/wavs/andalusian_mismatch_declarative-narrow-focus_La-maestra-vive-en-Paris.wav,./stim/wavs/argentine_mismatch_declarative-narrow-focus_La-maestra-vive-en-Paris.wav,./stim/wavs/castilian_mismatch_declarative-narrow-focus_La-maestra-vive-en-Paris.wav,./stim/wavs/chilean_mismatch_declarative-narrow-focus_La-maestra-vive-en-Paris.wav,./stim/wavs/cuban_mismatch_declarative-narrow-focus_La-maestra-vive-en-Paris.wav,./stim/wavs/mexican_mismatch_declarative-narrow-focus_La-maestra-vive-en-Paris.wav,./stim/wavs/peruvian_mismatch_declarative-narrow-focus_La-maestra-vive-en-Paris.wav,./stim/wavs/puertorican_mismatch_declarative-narrow-focus_La-maestra-vive-en-Paris.wav,,,,,,,,,,,,,,,,,,,,,,,,,,,,,,,,,,,,,,,,,,,,,,,,,,,,,,,,
,,,,,,,midd29,midd,ma,Spain,South,13 or older,no,2021-03-31_12h06.25.411,empathy_intonation_perc,2020.2.10,MacIntel,60,,,,,,,,,,1,andalusian,1,1,1.635955,0,49,49,31,1,32,./stim/wavs/andalusian_match_interrogative-total-yn_Marta-abre-el-regalo.wav,./stim/wavs/argentine_match_interrogative-total-yn_Marta-abre-el-regalo.wav,./stim/wavs/castilian_match_interrogative-total-yn_Marta-abre-el-regalo.wav,./stim/wavs/chilean_match_interrogative-total-yn_Marta-abre-el-regalo.wav,./stim/wavs/cuban_match_interrogative-total-yn_Marta-abre-el-regalo.wav,./stim/wavs/mexican_match_interrogative-total-yn_Marta-abre-el-regalo.wav,./stim/wavs/peruvian_match_interrogative-total-yn_Marta-abre-el-regalo.wav,./stim/wavs/puertorican_match_interrogative-total-yn_Marta-abre-el-regalo.wav,,,,,,,,,,,,,,,,,,,,,,,,,,,,,,,,,,,,,,,,,,,,,,,,,,,,,,,,
,,,,,,,midd29,midd,ma,Spain,South,13 or older,no,2021-03-31_12h06.25.411,empathy_intonation_perc,2020.2.10,MacIntel,60,,,,,,,,,,1,puertorican,1,1,1.56605,0,50,50,19,1,20,./stim/wavs/andalusian_match_interrogative-partial-wh_Cuando-vendia-el-carro.wav,./stim/wavs/argentine_match_interrogative-partial-wh_Cuando-vendia-el-carro.wav,./stim/wavs/castilian_match_interrogative-partial-wh_Cuando-vendia-el-carro.wav,./stim/wavs/chilean_match_interrogative-partial-wh_Cuando-vendia-el-carro.wav,./stim/wavs/cuban_match_interrogative-partial-wh_Cuando-vendia-el-carro.wav,./stim/wavs/mexican_match_interrogative-partial-wh_Cuando-vendia-el-carro.wav,./stim/wavs/peruvian_match_interrogative-partial-wh_Cuando-vendia-el-carro.wav,./stim/wavs/puertorican_match_interrogative-partial-wh_Cuando-vendia-el-carro.wav,,,,,,,,,,,,,,,,,,,,,,,,,,,,,,,,,,,,,,,,,,,,,,,,,,,,,,,,
,,,,,,,midd29,midd,ma,Spain,South,13 or older,no,2021-03-31_12h06.25.411,empathy_intonation_perc,2020.2.10,MacIntel,60,,,,,,,,,,0,cuban,0,1,1.753405,0,51,51,35,1,36,./stim/wavs/andalusian_mismatch_declarative-broad-focus_La-maestra-vive-en-Paris.wav,./stim/wavs/argentine_mismatch_declarative-broad-focus_La-maestra-vive-en-Paris.wav,./stim/wavs/castilian_mismatch_declarative-broad-focus_La-maestra-vive-en-Paris.wav,./stim/wavs/chilean_mismatch_declarative-broad-focus_La-maestra-vive-en-Paris.wav,./stim/wavs/cuban_mismatch_declarative-broad-focus_La-maestra-vive-en-Paris.wav,./stim/wavs/mexican_mismatch_declarative-broad-focus_La-maestra-vive-en-Paris.wav,./stim/wavs/peruvian_mismatch_declarative-broad-focus_La-maestra-vive-en-Paris.wav,./stim/wavs/puertorican_mismatch_declarative-broad-focus_La-maestra-vive-en-Paris.wav,,,,,,,,,,,,,,,,,,,,,,,,,,,,,,,,,,,,,,,,,,,,,,,,,,,,,,,,
,,,,,,,midd29,midd,ma,Spain,South,13 or older,no,2021-03-31_12h06.25.411,empathy_intonation_perc,2020.2.10,MacIntel,60,,,,,,,,,,1,castilian,1,1,4.591415,0,52,52,62,1,63,./stim/wavs/andalusian_mismatch_interrogative-total-yn_Mi-novio-viene-del-lago.wav,./stim/wavs/argentine_mismatch_interrogative-total-yn_Mi-novio-viene-del-lago.wav,./stim/wavs/castilian_mismatch_interrogative-total-yn_Mi-novio-viene-del-lago.wav,./stim/wavs/chilean_mismatch_interrogative-total-yn_Mi-novio-viene-del-lago.wav,./stim/wavs/cuban_mismatch_interrogative-total-yn_Mi-novio-viene-del-lago.wav,./stim/wavs/mexican_mismatch_interrogative-total-yn_Mi-novio-viene-del-lago.wav,./stim/wavs/peruvian_mismatch_interrogative-total-yn_Mi-novio-viene-del-lago.wav,./stim/wavs/puertorican_mismatch_interrogative-total-yn_Mi-novio-viene-del-lago.wav,,,,,,,,,,,,,,,,,,,,,,,,,,,,,,,,,,,,,,,,,,,,,,,,,,,,,,,,
,,,,,,,midd29,midd,ma,Spain,South,13 or older,no,2021-03-31_12h06.25.411,empathy_intonation_perc,2020.2.10,MacIntel,60,,,,,,,,,,1,puertorican,1,1,2.80161,0,53,53,22,1,23,./stim/wavs/andalusian_match_interrogative-partial-wh_Por-que-hablaba-del-agua.wav,./stim/wavs/argentine_match_interrogative-partial-wh_Por-que-hablaba-del-agua.wav,./stim/wavs/castilian_match_interrogative-partial-wh_Por-que-hablaba-del-agua.wav,./stim/wavs/chilean_match_interrogative-partial-wh_Por-que-hablaba-del-agua.wav,./stim/wavs/cuban_match_interrogative-partial-wh_Por-que-hablaba-del-agua.wav,./stim/wavs/mexican_match_interrogative-partial-wh_Por-que-hablaba-del-agua.wav,./stim/wavs/peruvian_match_interrogative-partial-wh_Por-que-hablaba-del-agua.wav,./stim/wavs/puertorican_match_interrogative-partial-wh_Por-que-hablaba-del-agua.wav,,,,,,,,,,,,,,,,,,,,,,,,,,,,,,,,,,,,,,,,,,,,,,,,,,,,,,,,
,,,,,,,midd29,midd,ma,Spain,South,13 or older,no,2021-03-31_12h06.25.411,empathy_intonation_perc,2020.2.10,MacIntel,60,,,,,,,,,,0,andalusian,0,1,1.756545,0,54,54,47,1,48,./stim/wavs/andalusian_mismatch_declarative-narrow-focus_Mi-tia-odia-la-lluvia.wav,./stim/wavs/argentine_mismatch_declarative-narrow-focus_Mi-tia-odia-la-lluvia.wav,./stim/wavs/castilian_mismatch_declarative-narrow-focus_Mi-tia-odia-la-lluvia.wav,./stim/wavs/chilean_mismatch_declarative-narrow-focus_Mi-tia-odia-la-lluvia.wav,./stim/wavs/cuban_mismatch_declarative-narrow-focus_Mi-tia-odia-la-lluvia.wav,./stim/wavs/mexican_mismatch_declarative-narrow-focus_Mi-tia-odia-la-lluvia.wav,./stim/wavs/peruvian_mismatch_declarative-narrow-focus_Mi-tia-odia-la-lluvia.wav,./stim/wavs/puertorican_mismatch_declarative-narrow-focus_Mi-tia-odia-la-lluvia.wav,,,,,,,,,,,,,,,,,,,,,,,,,,,,,,,,,,,,,,,,,,,,,,,,,,,,,,,,
,,,,,,,midd29,midd,ma,Spain,South,13 or older,no,2021-03-31_12h06.25.411,empathy_intonation_perc,2020.2.10,MacIntel,60,,,,,,,,,,0,cuban,0,1,2.80186,0,55,55,34,1,35,./stim/wavs/andalusian_mismatch_declarative-broad-focus_El-nino-oye-el-rio.wav,./stim/wavs/argentine_mismatch_declarative-broad-focus_El-nino-oye-el-rio.wav,./stim/wavs/castilian_mismatch_declarative-broad-focus_El-nino-oye-el-rio.wav,./stim/wavs/chilean_mismatch_declarative-broad-focus_El-nino-oye-el-rio.wav,./stim/wavs/cuban_mismatch_declarative-broad-focus_El-nino-oye-el-rio.wav,./stim/wavs/mexican_mismatch_declarative-broad-focus_El-nino-oye-el-rio.wav,./stim/wavs/peruvian_mismatch_declarative-broad-focus_El-nino-oye-el-rio.wav,./stim/wavs/puertorican_mismatch_declarative-broad-focus_El-nino-oye-el-rio.wav,,,,,,,,,,,,,,,,,,,,,,,,,,,,,,,,,,,,,,,,,,,,,,,,,,,,,,,,
,,,,,,,midd29,midd,ma,Spain,South,13 or older,no,2021-03-31_12h06.25.411,empathy_intonation_perc,2020.2.10,MacIntel,60,,,,,,,,,,0,argentine,0,1,1.87202,0,56,56,38,1,39,./stim/wavs/andalusian_mismatch_declarative-broad-focus_Mi-novio-viene-del-lago.wav,./stim/wavs/argentine_mismatch_declarative-broad-focus_Mi-novio-viene-del-lago.wav,./stim/wavs/castilian_mismatch_declarative-broad-focus_Mi-novio-viene-del-lago.wav,./stim/wavs/chilean_mismatch_declarative-broad-focus_Mi-novio-viene-del-lago.wav,./stim/wavs/cuban_mismatch_declarative-broad-focus_Mi-novio-viene-del-lago.wav,./stim/wavs/mexican_mismatch_declarative-broad-focus_Mi-novio-viene-del-lago.wav,./stim/wavs/peruvian_mismatch_declarative-broad-focus_Mi-novio-viene-del-lago.wav,./stim/wavs/puertorican_mismatch_declarative-broad-focus_Mi-novio-viene-del-lago.wav,,,,,,,,,,,,,,,,,,,,,,,,,,,,,,,,,,,,,,,,,,,,,,,,,,,,,,,,
,,,,,,,midd29,midd,ma,Spain,South,13 or older,no,2021-03-31_12h06.25.411,empathy_intonation_perc,2020.2.10,MacIntel,60,,,,,,,,,,1,castilian,1,1,1.9521,0,57,57,18,1,19,./stim/wavs/andalusian_match_interrogative-partial-wh_Cuando-lleva-el-abrigo.wav,./stim/wavs/argentine_match_interrogative-partial-wh_Cuando-lleva-el-abrigo.wav,./stim/wavs/castilian_match_interrogative-partial-wh_Cuando-lleva-el-abrigo.wav,./stim/wavs/chilean_match_interrogative-partial-wh_Cuando-lleva-el-abrigo.wav,./stim/wavs/cuban_match_interrogative-partial-wh_Cuando-lleva-el-abrigo.wav,./stim/wavs/mexican_match_interrogative-partial-wh_Cuando-lleva-el-abrigo.wav,./stim/wavs/peruvian_match_interrogative-partial-wh_Cuando-lleva-el-abrigo.wav,./stim/wavs/puertorican_match_interrogative-partial-wh_Cuando-lleva-el-abrigo.wav,,,,,,,,,,,,,,,,,,,,,,,,,,,,,,,,,,,,,,,,,,,,,,,,,,,,,,,,
,,,,,,,midd29,midd,ma,Spain,South,13 or older,no,2021-03-31_12h06.25.411,empathy_intonation_perc,2020.2.10,MacIntel,60,,,,,,,,,,1,peruvian,0,0,1.599525,0,58,58,61,1,62,./stim/wavs/andalusian_mismatch_interrogative-total-yn_Mi-madre-come-la-fruta.wav,./stim/wavs/argentine_mismatch_interrogative-total-yn_Mi-madre-come-la-fruta.wav,./stim/wavs/castilian_mismatch_interrogative-total-yn_Mi-madre-come-la-fruta.wav,./stim/wavs/chilean_mismatch_interrogative-total-yn_Mi-madre-come-la-fruta.wav,./stim/wavs/cuban_mismatch_interrogative-total-yn_Mi-madre-come-la-fruta.wav,./stim/wavs/mexican_mismatch_interrogative-total-yn_Mi-madre-come-la-fruta.wav,./stim/wavs/peruvian_mismatch_interrogative-total-yn_Mi-madre-come-la-fruta.wav,./stim/wavs/puertorican_mismatch_interrogative-total-yn_Mi-madre-come-la-fruta.wav,,,,,,,,,,,,,,,,,,,,,,,,,,,,,,,,,,,,,,,,,,,,,,,,,,,,,,,,
,,,,,,,midd29,midd,ma,Spain,South,13 or older,no,2021-03-31_12h06.25.411,empathy_intonation_perc,2020.2.10,MacIntel,60,,,,,,,,,,1,cuban,0,0,2.95296,0,59,59,21,1,22,./stim/wavs/andalusian_match_interrogative-partial-wh_Por-que-ama-la-navidad.wav,./stim/wavs/argentine_match_interrogative-partial-wh_Por-que-ama-la-navidad.wav,./stim/wavs/castilian_match_interrogative-partial-wh_Por-que-ama-la-navidad.wav,./stim/wavs/chilean_match_interrogative-partial-wh_Por-que-ama-la-navidad.wav,./stim/wavs/cuban_match_interrogative-partial-wh_Por-que-ama-la-navidad.wav,./stim/wavs/mexican_match_interrogative-partial-wh_Por-que-ama-la-navidad.wav,./stim/wavs/peruvian_match_interrogative-partial-wh_Por-que-ama-la-navidad.wav,./stim/wavs/puertorican_match_interrogative-partial-wh_Por-que-ama-la-navidad.wav,,,,,,,,,,,,,,,,,,,,,,,,,,,,,,,,,,,,,,,,,,,,,,,,,,,,,,,,
,,,,,,,midd29,midd,ma,Spain,South,13 or older,no,2021-03-31_12h06.25.411,empathy_intonation_perc,2020.2.10,MacIntel,60,,,,,,,,,,0,castilian,0,1,2.219765,0,60,60,15,1,16,./stim/wavs/andalusian_match_declarative-narrow-focus_Marta-abre-el-regalo.wav,./stim/wavs/argentine_match_declarative-narrow-focus_Marta-abre-el-regalo.wav,./stim/wavs/castilian_match_declarative-narrow-focus_Marta-abre-el-regalo.wav,./stim/wavs/chilean_match_declarative-narrow-focus_Marta-abre-el-regalo.wav,./stim/wavs/cuban_match_declarative-narrow-focus_Marta-abre-el-regalo.wav,./stim/wavs/mexican_match_declarative-narrow-focus_Marta-abre-el-regalo.wav,./stim/wavs/peruvian_match_declarative-narrow-focus_Marta-abre-el-regalo.wav,./stim/wavs/puertorican_match_declarative-narrow-focus_Marta-abre-el-regalo.wav,,,,,,,,,,,,,,,,,,,,,,,,,,,,,,,,,,,,,,,,,,,,,,,,,,,,,,,,
,,,,,,,midd29,midd,ma,Spain,South,13 or older,no,2021-03-31_12h06.25.411,empathy_intonation_perc,2020.2.10,MacIntel,60,,,,,,,,,,0,argentine,0,1,1.59446,0,61,61,11,1,12,./stim/wavs/andalusian_match_declarative-narrow-focus_Emilio-ama-la-marcha.wav,./stim/wavs/argentine_match_declarative-narrow-focus_Emilio-ama-la-marcha.wav,./stim/wavs/castilian_match_declarative-narrow-focus_Emilio-ama-la-marcha.wav,./stim/wavs/chilean_match_declarative-narrow-focus_Emilio-ama-la-marcha.wav,./stim/wavs/cuban_match_declarative-narrow-focus_Emilio-ama-la-marcha.wav,./stim/wavs/mexican_match_declarative-narrow-focus_Emilio-ama-la-marcha.wav,./stim/wavs/peruvian_match_declarative-narrow-focus_Emilio-ama-la-marcha.wav,./stim/wavs/puertorican_match_declarative-narrow-focus_Emilio-ama-la-marcha.wav,,,,,,,,,,,,,,,,,,,,,,,,,,,,,,,,,,,,,,,,,,,,,,,,,,,,,,,,
,,,,,,,midd29,midd,ma,Spain,South,13 or older,no,2021-03-31_12h06.25.411,empathy_intonation_perc,2020.2.10,MacIntel,60,,,,,,,,,,1,mexican,1,1,1.310505,0,62,62,50,1,51,./stim/wavs/andalusian_mismatch_interrogative-partial-wh_Cuando-miraba-la-luna.wav,./stim/wavs/argentine_mismatch_interrogative-partial-wh_Cuando-miraba-la-luna.wav,./stim/wavs/castilian_mismatch_interrogative-partial-wh_Cuando-miraba-la-luna.wav,./stim/wavs/chilean_mismatch_interrogative-partial-wh_Cuando-miraba-la-luna.wav,./stim/wavs/cuban_mismatch_interrogative-partial-wh_Cuando-miraba-la-luna.wav,./stim/wavs/mexican_mismatch_interrogative-partial-wh_Cuando-miraba-la-luna.wav,./stim/wavs/peruvian_mismatch_interrogative-partial-wh_Cuando-miraba-la-luna.wav,./stim/wavs/puertorican_mismatch_interrogative-partial-wh_Cuando-miraba-la-luna.wav,,,,,,,,,,,,,,,,,,,,,,,,,,,,,,,,,,,,,,,,,,,,,,,,,,,,,,,,
,,,,,,,midd29,midd,ma,Spain,South,13 or older,no,2021-03-31_12h06.25.411,empathy_intonation_perc,2020.2.10,MacIntel,60,,,,,,,,,,0,argentine,0,1,1.66905,0,63,63,40,1,41,./stim/wavs/andalusian_mismatch_declarative-narrow-focus_El-bebe-comia-muy-bien.wav,./stim/wavs/argentine_mismatch_declarative-narrow-focus_El-bebe-comia-muy-bien.wav,./stim/wavs/castilian_mismatch_declarative-narrow-focus_El-bebe-comia-muy-bien.wav,./stim/wavs/chilean_mismatch_declarative-narrow-focus_El-bebe-comia-muy-bien.wav,./stim/wavs/cuban_mismatch_declarative-narrow-focus_El-bebe-comia-muy-bien.wav,./stim/wavs/mexican_mismatch_declarative-narrow-focus_El-bebe-comia-muy-bien.wav,./stim/wavs/peruvian_mismatch_declarative-narrow-focus_El-bebe-comia-muy-bien.wav,./stim/wavs/puertorican_mismatch_declarative-narrow-focus_El-bebe-comia-muy-bien.wav,,,,,,,,,,,,,,,,,,,,,,,,,,,,,,,,,,,,,,,,,,,,,,,,,,,,,,,,
,,,,,,,midd29,midd,ma,Spain,South,13 or older,no,2021-03-31_12h06.25.411,empathy_intonation_perc,2020.2.10,MacIntel,60,,,,,,,,,,,,,,,,,,,,,,,,,,,,,h,1,5.585645,0,0,0,0,1,,,,,,,,,,,,,,,,,,,,,,,,,,,,,,,,,,,,,,,,,,,,,,,,
,,,,,"Great! Now we will move on. The next task consists of about 60 trials, in each of which you will see a string of letters. 
  
  Your task is to decide whether this is a real Spanish word or not.",(press the spacebar to continue),midd29,midd,ma,Spain,South,13 or older,no,2021-03-31_12h06.25.411,empathy_intonation_perc,2020.2.10,MacIntel,60,,,,,,,,,,,,,,,,,,,,,,,,,,,,,,,,,,,,,0,0,0,0,1,,,,,,,,,,,,,,,,,,,,,,,,,,,,,,,,,,,,,,,,,,,
,,,,,"If you think it is an existing Spanish word, you type '1' (for 'REAL'), and if you think it is not an existing Spanish word, you type '0' (for 'FAKE').",(press the spacebar to continue),midd29,midd,ma,Spain,South,13 or older,no,2021-03-31_12h06.25.411,empathy_intonation_perc,2020.2.10,MacIntel,60,,,,,,,,,,,,,,,,,,,,,,,,,,,,,,,,,,,,,0,1,1,1,1,,,,,,,,,,,,,,,,,,,,,,,,,,,,,,,,,,,,,,,,,,,
,,,,,"If you are sure that the word exists, even though you dont know its exact meaning, you may still respond '1' (REAL). 
  
  But if you are not sure if it is an existing word, you should respond '0' (FAKE).
  
  Let's do a practice round...",(press the spacebar to continue),midd29,midd,ma,Spain,South,13 or older,no,2021-03-31_12h06.25.411,empathy_intonation_perc,2020.2.10,MacIntel,60,,,,,,,,,,,,,,,,,,,,,,,,,,,,,,,,,,,,,0,2,2,2,1,,,,,,,,,,,,,,,,,,,,,,,,,,,,,,,,,,,,,,,,,,,
,,,,,,,midd29,midd,ma,Spain,South,13 or older,no,2021-03-31_12h06.25.411,empathy_intonation_perc,2020.2.10,MacIntel,60,,,,,,,,,,0,,,,,,,,,,,,,,,,,,,,,,,,,,,,,,,,0,1,1.454545,0,0,0,0,1,0,depiste,REAL,FAKE,,,,,,,,,,,,,,,,,,,,,,,,,,,,,,,
,,,,,,,midd29,midd,ma,Spain,South,13 or older,no,2021-03-31_12h06.25.411,empathy_intonation_perc,2020.2.10,MacIntel,60,,,,,,,,,,1,,,,,,,,,,,,,,,,,,,,,,,,,,,,,,,,1,1,1.506265,0,1,1,1,1,0,s,REAL,FAKE,,,,,,,,,,,,,,,,,,,,,,,,,,,,,,,
,,,,,,,midd29,midd,ma,Spain,South,13 or older,no,2021-03-31_12h06.25.411,empathy_intonation_perc,2020.2.10,MacIntel,60,,,,,,,,,,0,,,,,,,,,,,,,,,,,,,,,,,,,,,,,,,,0,1,1.414855,0,2,2,2,1,0,con,REAL,FAKE,,,,,,,,,,,,,,,,,,,,,,,,,,,,,,,
,,,,,,,midd29,midd,ma,Spain,South,13 or older,no,2021-03-31_12h06.25.411,empathy_intonation_perc,2020.2.10,MacIntel,60,,,,,,,,,,0,,,,,,,,,,,,,,,,,,,,,,,,,,,,,,,,0,1,2.61958,0,3,3,3,1,0,calpar,REAL,FAKE,,,,,,,,,,,,,,,,,,,,,,,,,,,,,,,
,,,,,,,midd29,midd,ma,Spain,South,13 or older,no,2021-03-31_12h06.25.411,empathy_intonation_perc,2020.2.10,MacIntel,60,,,,,,,,,,0,,,,,,,,,,,,,,,,,,,,,,,,,,,,,,,,0,1,4.433625,0,4,4,4,1,0,joten,REAL,FAKE,,,,,,,,,,,,,,,,,,,,,,,,,,,,,,,
,,,,,,,midd29,midd,ma,Spain,South,13 or older,no,2021-03-31_12h06.25.411,empathy_intonation_perc,2020.2.10,MacIntel,60,,,,,,,,,,1,,,,,,,,,,,,,,,,,,,,,,,,,,,,,,,,1,1,2.02932,0,5,5,5,1,0,sacapuntas,REAL,FAKE,,,,,,,,,,,,,,,,,,,,,,,,,,,,,,,
,,,,,,,midd29,midd,ma,Spain,South,13 or older,no,2021-03-31_12h06.25.411,empathy_intonation_perc,2020.2.10,MacIntel,60,,,,,,,,,,0,,,,,,,,,,,,,,,,,,,,,,,,,,,,,,,,0,1,1.49891,0,6,6,6,1,0,priba,REAL,FAKE,,,,,,,,,,,,,,,,,,,,,,,,,,,,,,,
,,,,,,,midd29,midd,ma,Spain,South,13 or older,no,2021-03-31_12h06.25.411,empathy_intonation_perc,2020.2.10,MacIntel,60,,,,,,,,,,0,,,,,,,,,,,,,,,,,,,,,,,,,,,,,,,,0,1,1.11654,0,7,7,7,1,0,pelasula,REAL,FAKE,,,,,,,,,,,,,,,,,,,,,,,,,,,,,,,
,,,,,,,midd29,midd,ma,Spain,South,13 or older,no,2021-03-31_12h06.25.411,empathy_intonation_perc,2020.2.10,MacIntel,60,,,,,,,,,,1,,,,,,,,,,,,,,,,,,,,,,,,,,,,,,,,1,1,1.655295,0,8,8,8,1,0,bien,REAL,FAKE,,,,,,,,,,,,,,,,,,,,,,,,,,,,,,,
,,,,,,,midd29,midd,ma,Spain,South,13 or older,no,2021-03-31_12h06.25.411,empathy_intonation_perc,2020.2.10,MacIntel,60,,,,,,,,,,1,,,,,,,,,,,,,,,,,,,,,,,,,,,,,,,,1,1,1.30492,0,9,9,9,1,0,casa,REAL,FAKE,,,,,,,,,,,,,,,,,,,,,,,,,,,,,,,
,,,,,,,midd29,midd,ma,Spain,South,13 or older,no,2021-03-31_12h06.25.411,empathy_intonation_perc,2020.2.10,MacIntel,60,,,,,,,,,,0,,,,,,,,,,,,,,,,,,,,,,,,,,,,,,,,0,1,5.56746,0,10,10,10,1,0,lejo,REAL,FAKE,,,,,,,,,,,,,,,,,,,,,,,,,,,,,,,
,,,,,,,midd29,midd,ma,Spain,South,13 or older,no,2021-03-31_12h06.25.411,empathy_intonation_perc,2020.2.10,MacIntel,60,,,,,,,,,,0,,,,,,,,,,,,,,,,,,,,,,,,,,,,,,,,0,1,1.218505,0,11,11,11,1,0,pretantas,REAL,FAKE,,,,,,,,,,,,,,,,,,,,,,,,,,,,,,,
,,,,,,,midd29,midd,ma,Spain,South,13 or older,no,2021-03-31_12h06.25.411,empathy_intonation_perc,2020.2.10,MacIntel,60,,,,,,,,,,1,,,,,,,,,,,,,,,,,,,,,,,,,,,,,,,,,,,,,,,,49,ganar,,,1,1,1.236285,0,0,0,48,1,REAL,FAKE,,,,,,,,,,,,,,,,,,,,,
,,,,,,,midd29,midd,ma,Spain,South,13 or older,no,2021-03-31_12h06.25.411,empathy_intonation_perc,2020.2.10,MacIntel,60,,,,,,,,,,1,,,,,,,,,,,,,,,,,,,,,,,,,,,,,,,,,,,,,,,,11,cenefa,,,0,0,1.163825,0,1,1,10,1,REAL,FAKE,,,,,,,,,,,,,,,,,,,,,
,,,,,,,midd29,midd,ma,Spain,South,13 or older,no,2021-03-31_12h06.25.411,empathy_intonation_perc,2020.2.10,MacIntel,60,,,,,,,,,,1,,,,,,,,,,,,,,,,,,,,,,,,,,,,,,,,,,,,,,,,61,seda,,,1,1,0.94031,0,2,2,60,1,REAL,FAKE,,,,,,,,,,,,,,,,,,,,,
,,,,,,,midd29,midd,ma,Spain,South,13 or older,no,2021-03-31_12h06.25.411,empathy_intonation_perc,2020.2.10,MacIntel,60,,,,,,,,,,0,,,,,,,,,,,,,,,,,,,,,,,,,,,,,,,,,,,,,,,,10,antar,,,0,1,1.054945,0,3,3,9,1,REAL,FAKE,,,,,,,,,,,,,,,,,,,,,
,,,,,,,midd29,midd,ma,Spain,South,13 or older,no,2021-03-31_12h06.25.411,empathy_intonation_perc,2020.2.10,MacIntel,60,,,,,,,,,,0,,,,,,,,,,,,,,,,,,,,,,,,,,,,,,,,,,,,,,,,72,pemicin,,,0,1,0.83629,0,4,4,71,1,REAL,FAKE,,,,,,,,,,,,,,,,,,,,,
,,,,,,,midd29,midd,ma,Spain,South,13 or older,no,2021-03-31_12h06.25.411,empathy_intonation_perc,2020.2.10,MacIntel,60,,,,,,,,,,1,,,,,,,,,,,,,,,,,,,,,,,,,,,,,,,,,,,,,,,,44,cuchara,,,1,1,0.817625,0,5,5,43,1,REAL,FAKE,,,,,,,,,,,,,,,,,,,,,
,,,,,,,midd29,midd,ma,Spain,South,13 or older,no,2021-03-31_12h06.25.411,empathy_intonation_perc,2020.2.10,MacIntel,60,,,,,,,,,,0,,,,,,,,,,,,,,,,,,,,,,,,,,,,,,,,,,,,,,,,79,tropaje,,,0,1,0.838105,0,6,6,78,1,REAL,FAKE,,,,,,,,,,,,,,,,,,,,,
,,,,,,,midd29,midd,ma,Spain,South,13 or older,no,2021-03-31_12h06.25.411,empathy_intonation_perc,2020.2.10,MacIntel,60,,,,,,,,,,1,,,,,,,,,,,,,,,,,,,,,,,,,,,,,,,,,,,,,,,,67,cabello,,,1,1,0.883255,0,7,7,66,1,REAL,FAKE,,,,,,,,,,,,,,,,,,,,,
,,,,,,,midd29,midd,ma,Spain,South,13 or older,no,2021-03-31_12h06.25.411,empathy_intonation_perc,2020.2.10,MacIntel,60,,,,,,,,,,0,,,,,,,,,,,,,,,,,,,,,,,,,,,,,,,,,,,,,,,,30,alardio,,,0,1,0.78482,0,8,8,29,1,REAL,FAKE,,,,,,,,,,,,,,,,,,,,,
,,,,,,,midd29,midd,ma,Spain,South,13 or older,no,2021-03-31_12h06.25.411,empathy_intonation_perc,2020.2.10,MacIntel,60,,,,,,,,,,1,,,,,,,,,,,,,,,,,,,,,,,,,,,,,,,,,,,,,,,,45,jilguero,,,0,0,1.69859,0,9,9,44,1,REAL,FAKE,,,,,,,,,,,,,,,,,,,,,
,,,,,,,midd29,midd,ma,Spain,South,13 or older,no,2021-03-31_12h06.25.411,empathy_intonation_perc,2020.2.10,MacIntel,60,,,,,,,,,,0,,,,,,,,,,,,,,,,,,,,,,,,,,,,,,,,,,,,,,,,84,escuto,,,0,1,1.168695,0,10,10,83,1,REAL,FAKE,,,,,,,,,,,,,,,,,,,,,
,,,,,,,midd29,midd,ma,Spain,South,13 or older,no,2021-03-31_12h06.25.411,empathy_intonation_perc,2020.2.10,MacIntel,60,,,,,,,,,,1,,,,,,,,,,,,,,,,,,,,,,,,,,,,,,,,,,,,,,,,41,rebuscar,,,0,0,1.105305,0,11,11,40,1,REAL,FAKE,,,,,,,,,,,,,,,,,,,,,
,,,,,,,midd29,midd,ma,Spain,South,13 or older,no,2021-03-31_12h06.25.411,empathy_intonation_perc,2020.2.10,MacIntel,60,,,,,,,,,,1,,,,,,,,,,,,,,,,,,,,,,,,,,,,,,,,,,,,,,,,48,ladrn,,,1,1,0.969665,0,12,12,47,1,REAL,FAKE,,,,,,,,,,,,,,,,,,,,,
,,,,,,,midd29,midd,ma,Spain,South,13 or older,no,2021-03-31_12h06.25.411,empathy_intonation_perc,2020.2.10,MacIntel,60,,,,,,,,,,1,,,,,,,,,,,,,,,,,,,,,,,,,,,,,,,,,,,,,,,,88,acantilado,,,0,0,1.04874,0,13,13,87,1,REAL,FAKE,,,,,,,,,,,,,,,,,,,,,
,,,,,,,midd29,midd,ma,Spain,South,13 or older,no,2021-03-31_12h06.25.411,empathy_intonation_perc,2020.2.10,MacIntel,60,,,,,,,,,,1,,,,,,,,,,,,,,,,,,,,,,,,,,,,,,,,,,,,,,,,78,frondoso,,,0,0,0.930905,0,14,14,77,1,REAL,FAKE,,,,,,,,,,,,,,,,,,,,,
,,,,,,,midd29,midd,ma,Spain,South,13 or older,no,2021-03-31_12h06.25.411,empathy_intonation_perc,2020.2.10,MacIntel,60,,,,,,,,,,1,,,,,,,,,,,,,,,,,,,,,,,,,,,,,,,,,,,,,,,,40,alfombra,,,1,1,1.28299,0,15,15,39,1,REAL,FAKE,,,,,,,,,,,,,,,,,,,,,
,,,,,,,midd29,midd,ma,Spain,South,13 or older,no,2021-03-31_12h06.25.411,empathy_intonation_perc,2020.2.10,MacIntel,60,,,,,,,,,,1,,,,,,,,,,,,,,,,,,,,,,,,,,,,,,,,,,,,,,,,80,hormiga,,,1,1,0.71968,0,16,16,79,1,REAL,FAKE,,,,,,,,,,,,,,,,,,,,,
,,,,,,,midd29,midd,ma,Spain,South,13 or older,no,2021-03-31_12h06.25.411,empathy_intonation_perc,2020.2.10,MacIntel,60,,,,,,,,,,1,,,,,,,,,,,,,,,,,,,,,,,,,,,,,,,,,,,,,,,,89,prisa,,,1,1,1.131745,0,17,17,88,1,REAL,FAKE,,,,,,,,,,,,,,,,,,,,,
,,,,,,,midd29,midd,ma,Spain,South,13 or older,no,2021-03-31_12h06.25.411,empathy_intonation_perc,2020.2.10,MacIntel,60,,,,,,,,,,0,,,,,,,,,,,,,,,,,,,,,,,,,,,,,,,,,,,,,,,,1,terzo,,,0,1,0.781925,0,18,18,0,1,REAL,FAKE,,,,,,,,,,,,,,,,,,,,,
,,,,,,,midd29,midd,ma,Spain,South,13 or older,no,2021-03-31_12h06.25.411,empathy_intonation_perc,2020.2.10,MacIntel,60,,,,,,,,,,0,,,,,,,,,,,,,,,,,,,,,,,,,,,,,,,,,,,,,,,,17,floroso,,,1,0,1.049955,0,19,19,16,1,REAL,FAKE,,,,,,,,,,,,,,,,,,,,,
,,,,,,,midd29,midd,ma,Spain,South,13 or older,no,2021-03-31_12h06.25.411,empathy_intonation_perc,2020.2.10,MacIntel,60,,,,,,,,,,1,,,,,,,,,,,,,,,,,,,,,,,,,,,,,,,,,,,,,,,,38,estornudar,,,1,1,0.865575,0,20,20,37,1,REAL,FAKE,,,,,,,,,,,,,,,,,,,,,
,,,,,,,midd29,midd,ma,Spain,South,13 or older,no,2021-03-31_12h06.25.411,empathy_intonation_perc,2020.2.10,MacIntel,60,,,,,,,,,,1,,,,,,,,,,,,,,,,,,,,,,,,,,,,,,,,,,,,,,,,65,bizcocho,,,1,1,0.766815,0,21,21,64,1,REAL,FAKE,,,,,,,,,,,,,,,,,,,,,
,,,,,,,midd29,midd,ma,Spain,South,13 or older,no,2021-03-31_12h06.25.411,empathy_intonation_perc,2020.2.10,MacIntel,60,,,,,,,,,,1,,,,,,,,,,,,,,,,,,,,,,,,,,,,,,,,,,,,,,,,26,secuestro,,,1,1,0.645185,0,22,22,25,1,REAL,FAKE,,,,,,,,,,,,,,,,,,,,,
,,,,,,,midd29,midd,ma,Spain,South,13 or older,no,2021-03-31_12h06.25.411,empathy_intonation_perc,2020.2.10,MacIntel,60,,,,,,,,,,0,,,,,,,,,,,,,,,,,,,,,,,,,,,,,,,,,,,,,,,,53,vegada,,,0,1,1.296895,0,23,23,52,1,REAL,FAKE,,,,,,,,,,,,,,,,,,,,,
,,,,,,,midd29,midd,ma,Spain,South,13 or older,no,2021-03-31_12h06.25.411,empathy_intonation_perc,2020.2.10,MacIntel,60,,,,,,,,,,0,,,,,,,,,,,,,,,,,,,,,,,,,,,,,,,,,,,,,,,,23,lampera,,,0,1,0.980995,0,24,24,22,1,REAL,FAKE,,,,,,,,,,,,,,,,,,,,,
,,,,,,,midd29,midd,ma,Spain,South,13 or older,no,2021-03-31_12h06.25.411,empathy_intonation_perc,2020.2.10,MacIntel,60,,,,,,,,,,1,,,,,,,,,,,,,,,,,,,,,,,,,,,,,,,,,,,,,,,,75,yacer,,,1,1,0.60833,0,25,25,74,1,REAL,FAKE,,,,,,,,,,,,,,,,,,,,,
,,,,,,,midd29,midd,ma,Spain,South,13 or older,no,2021-03-31_12h06.25.411,empathy_intonation_perc,2020.2.10,MacIntel,60,,,,,,,,,,1,,,,,,,,,,,,,,,,,,,,,,,,,,,,,,,,,,,,,,,,56,musgo,,,0,0,0.781885,0,26,26,55,1,REAL,FAKE,,,,,,,,,,,,,,,,,,,,,
,,,,,,,midd29,midd,ma,Spain,South,13 or older,no,2021-03-31_12h06.25.411,empathy_intonation_perc,2020.2.10,MacIntel,60,,,,,,,,,,1,,,,,,,,,,,,,,,,,,,,,,,,,,,,,,,,,,,,,,,,22,lacayo,,,0,0,2.11451,0,27,27,21,1,REAL,FAKE,,,,,,,,,,,,,,,,,,,,,
,,,,,,,midd29,midd,ma,Spain,South,13 or older,no,2021-03-31_12h06.25.411,empathy_intonation_perc,2020.2.10,MacIntel,60,,,,,,,,,,1,,,,,,,,,,,,,,,,,,,,,,,,,,,,,,,,,,,,,,,,31,pandilla,,,1,1,0.90514,0,28,28,30,1,REAL,FAKE,,,,,,,,,,,,,,,,,,,,,
,,,,,,,midd29,midd,ma,Spain,South,13 or older,no,2021-03-31_12h06.25.411,empathy_intonation_perc,2020.2.10,MacIntel,60,,,,,,,,,,0,,,,,,,,,,,,,,,,,,,,,,,,,,,,,,,,,,,,,,,,74,cintro,,,0,1,2.4813,0,29,29,73,1,REAL,FAKE,,,,,,,,,,,,,,,,,,,,,
,,,,,,,midd29,midd,ma,Spain,South,13 or older,no,2021-03-31_12h06.25.411,empathy_intonation_perc,2020.2.10,MacIntel,60,,,,,,,,,,1,,,,,,,,,,,,,,,,,,,,,,,,,,,,,,,,,,,,,,,,69,engatusar,,,0,0,1.231035,0,30,30,68,1,REAL,FAKE,,,,,,,,,,,,,,,,,,,,,
,,,,,,,midd29,midd,ma,Spain,South,13 or older,no,2021-03-31_12h06.25.411,empathy_intonation_perc,2020.2.10,MacIntel,60,,,,,,,,,,0,,,,,,,,,,,,,,,,,,,,,,,,,,,,,,,,,,,,,,,,16,abracer,,,0,1,1.23606,0,31,31,15,1,REAL,FAKE,,,,,,,,,,,,,,,,,,,,,
,,,,,,,midd29,midd,ma,Spain,South,13 or older,no,2021-03-31_12h06.25.411,empathy_intonation_perc,2020.2.10,MacIntel,60,,,,,,,,,,1,,,,,,,,,,,,,,,,,,,,,,,,,,,,,,,,,,,,,,,,3,pulmones,,,1,1,0.681695,0,32,32,2,1,REAL,FAKE,,,,,,,,,,,,,,,,,,,,,
,,,,,,,midd29,midd,ma,Spain,South,13 or older,no,2021-03-31_12h06.25.411,empathy_intonation_perc,2020.2.10,MacIntel,60,,,,,,,,,,0,,,,,,,,,,,,,,,,,,,,,,,,,,,,,,,,,,,,,,,,27,acutacin,,,0,1,1.197825,0,33,33,26,1,REAL,FAKE,,,,,,,,,,,,,,,,,,,,,
,,,,,,,midd29,midd,ma,Spain,South,13 or older,no,2021-03-31_12h06.25.411,empathy_intonation_perc,2020.2.10,MacIntel,60,,,,,,,,,,0,,,,,,,,,,,,,,,,,,,,,,,,,,,,,,,,,,,,,,,,58,plaudir,,,0,1,1.048045,0,34,34,57,1,REAL,FAKE,,,,,,,,,,,,,,,,,,,,,
,,,,,,,midd29,midd,ma,Spain,South,13 or older,no,2021-03-31_12h06.25.411,empathy_intonation_perc,2020.2.10,MacIntel,60,,,,,,,,,,0,,,,,,,,,,,,,,,,,,,,,,,,,,,,,,,,,,,,,,,,18,arsa,,,0,1,1.266185,0,35,35,17,1,REAL,FAKE,,,,,,,,,,,,,,,,,,,,,
,,,,,,,midd29,midd,ma,Spain,South,13 or older,no,2021-03-31_12h06.25.411,empathy_intonation_perc,2020.2.10,MacIntel,60,,,,,,,,,,1,,,,,,,,,,,,,,,,,,,,,,,,,,,,,,,,,,,,,,,,34,aviso,,,1,1,3.215185,0,36,36,33,1,REAL,FAKE,,,,,,,,,,,,,,,,,,,,,
,,,,,,,midd29,midd,ma,Spain,South,13 or older,no,2021-03-31_12h06.25.411,empathy_intonation_perc,2020.2.10,MacIntel,60,,,,,,,,,,1,,,,,,,,,,,,,,,,,,,,,,,,,,,,,,,,,,,,,,,,81,pozo,,,1,1,0.67279,0,37,37,80,1,REAL,FAKE,,,,,,,,,,,,,,,,,,,,,
,,,,,,,midd29,midd,ma,Spain,South,13 or older,no,2021-03-31_12h06.25.411,empathy_intonation_perc,2020.2.10,MacIntel,60,,,,,,,,,,1,,,,,,,,,,,,,,,,,,,,,,,,,,,,,,,,,,,,,,,,25,bisagra,,,0,0,1.080665,0,38,38,24,1,REAL,FAKE,,,,,,,,,,,,,,,,,,,,,
,,,,,,,midd29,midd,ma,Spain,South,13 or older,no,2021-03-31_12h06.25.411,empathy_intonation_perc,2020.2.10,MacIntel,60,,,,,,,,,,1,,,,,,,,,,,,,,,,,,,,,,,,,,,,,,,,,,,,,,,,71,polvoriento,,,0,0,1.746425,0,39,39,70,1,REAL,FAKE,,,,,,,,,,,,,,,,,,,,,
,,,,,,,midd29,midd,ma,Spain,South,13 or older,no,2021-03-31_12h06.25.411,empathy_intonation_perc,2020.2.10,MacIntel,60,,,,,,,,,,0,,,,,,,,,,,,,,,,,,,,,,,,,,,,,,,,,,,,,,,,21,capillo,,,1,0,0.743125,0,40,40,20,1,REAL,FAKE,,,,,,,,,,,,,,,,,,,,,
,,,,,,,midd29,midd,ma,Spain,South,13 or older,no,2021-03-31_12h06.25.411,empathy_intonation_perc,2020.2.10,MacIntel,60,,,,,,,,,,1,,,,,,,,,,,,,,,,,,,,,,,,,,,,,,,,,,,,,,,,52,camisa,,,1,1,0.59933,0,41,41,51,1,REAL,FAKE,,,,,,,,,,,,,,,,,,,,,
,,,,,,,midd29,midd,ma,Spain,South,13 or older,no,2021-03-31_12h06.25.411,empathy_intonation_perc,2020.2.10,MacIntel,60,,,,,,,,,,0,,,,,,,,,,,,,,,,,,,,,,,,,,,,,,,,,,,,,,,,87,grodo,,,1,0,1.46646,0,42,42,86,1,REAL,FAKE,,,,,,,,,,,,,,,,,,,,,
,,,,,,,midd29,midd,ma,Spain,South,13 or older,no,2021-03-31_12h06.25.411,empathy_intonation_perc,2020.2.10,MacIntel,60,,,,,,,,,,1,,,,,,,,,,,,,,,,,,,,,,,,,,,,,,,,,,,,,,,,28,merodear,,,0,0,1.598775,0,43,43,27,1,REAL,FAKE,,,,,,,,,,,,,,,,,,,,,
,,,,,,,midd29,midd,ma,Spain,South,13 or older,no,2021-03-31_12h06.25.411,empathy_intonation_perc,2020.2.10,MacIntel,60,,,,,,,,,,0,,,,,,,,,,,,,,,,,,,,,,,,,,,,,,,,,,,,,,,,8,cadea,,,0,1,1.00668,0,44,44,7,1,REAL,FAKE,,,,,,,,,,,,,,,,,,,,,
,,,,,,,midd29,midd,ma,Spain,South,13 or older,no,2021-03-31_12h06.25.411,empathy_intonation_perc,2020.2.10,MacIntel,60,,,,,,,,,,1,,,,,,,,,,,,,,,,,,,,,,,,,,,,,,,,,,,,,,,,15,regar,,,1,1,0.63109,0,45,45,14,1,REAL,FAKE,,,,,,,,,,,,,,,,,,,,,
,,,,,,,midd29,midd,ma,Spain,South,13 or older,no,2021-03-31_12h06.25.411,empathy_intonation_perc,2020.2.10,MacIntel,60,,,,,,,,,,0,,,,,,,,,,,,,,,,,,,,,,,,,,,,,,,,,,,,,,,,70,temblo,,,0,1,3.371455,0,46,46,69,1,REAL,FAKE,,,,,,,,,,,,,,,,,,,,,
,,,,,,,midd29,midd,ma,Spain,South,13 or older,no,2021-03-31_12h06.25.411,empathy_intonation_perc,2020.2.10,MacIntel,60,,,,,,,,,,1,,,,,,,,,,,,,,,,,,,,,,,,,,,,,,,,,,,,,,,,62,flaco,,,1,1,2.1389,0,47,47,61,1,REAL,FAKE,,,,,,,,,,,,,,,,,,,,,
,,,,,,,midd29,midd,ma,Spain,South,13 or older,no,2021-03-31_12h06.25.411,empathy_intonation_perc,2020.2.10,MacIntel,60,,,,,,,,,,1,,,,,,,,,,,,,,,,,,,,,,,,,,,,,,,,,,,,,,,,6,tergiversar,,,0,0,0.849,0,48,48,5,1,REAL,FAKE,,,,,,,,,,,,,,,,,,,,,
,,,,,,,midd29,midd,ma,Spain,South,13 or older,no,2021-03-31_12h06.25.411,empathy_intonation_perc,2020.2.10,MacIntel,60,,,,,,,,,,1,,,,,,,,,,,,,,,,,,,,,,,,,,,,,,,,,,,,,,,,76,atar,,,1,1,0.90943,0,49,49,75,1,REAL,FAKE,,,,,,,,,,,,,,,,,,,,,
,,,,,,,midd29,midd,ma,Spain,South,13 or older,no,2021-03-31_12h06.25.411,empathy_intonation_perc,2020.2.10,MacIntel,60,,,,,,,,,,0,,,,,,,,,,,,,,,,,,,,,,,,,,,,,,,,,,,,,,,,47,cartinar,,,0,1,1.13264,0,50,50,46,1,REAL,FAKE,,,,,,,,,,,,,,,,,,,,,
,,,,,,,midd29,midd,ma,Spain,South,13 or older,no,2021-03-31_12h06.25.411,empathy_intonation_perc,2020.2.10,MacIntel,60,,,,,,,,,,1,,,,,,,,,,,,,,,,,,,,,,,,,,,,,,,,,,,,,,,,12,asesinato,,,1,1,0.965315,0,51,51,11,1,REAL,FAKE,,,,,,,,,,,,,,,,,,,,,
,,,,,,,midd29,midd,ma,Spain,South,13 or older,no,2021-03-31_12h06.25.411,empathy_intonation_perc,2020.2.10,MacIntel,60,,,,,,,,,,1,,,,,,,,,,,,,,,,,,,,,,,,,,,,,,,,,,,,,,,,24,ltigo,,,1,1,0.71776,0,52,52,23,1,REAL,FAKE,,,,,,,,,,,,,,,,,,,,,
,,,,,,,midd29,midd,ma,Spain,South,13 or older,no,2021-03-31_12h06.25.411,empathy_intonation_perc,2020.2.10,MacIntel,60,,,,,,,,,,1,,,,,,,,,,,,,,,,,,,,,,,,,,,,,,,,,,,,,,,,37,granuja,,,0,0,0.78231,0,53,53,36,1,REAL,FAKE,,,,,,,,,,,,,,,,,,,,,
,,,,,,,midd29,midd,ma,Spain,South,13 or older,no,2021-03-31_12h06.25.411,empathy_intonation_perc,2020.2.10,MacIntel,60,,,,,,,,,,1,,,,,,,,,,,,,,,,,,,,,,,,,,,,,,,,,,,,,,,,85,lad,,,1,1,0.969055,0,54,54,84,1,REAL,FAKE,,,,,,,,,,,,,,,,,,,,,
,,,,,,,midd29,midd,ma,Spain,South,13 or older,no,2021-03-31_12h06.25.411,empathy_intonation_perc,2020.2.10,MacIntel,60,,,,,,,,,,1,,,,,,,,,,,,,,,,,,,,,,,,,,,,,,,,,,,,,,,,43,canela,,,1,1,0.799655,0,55,55,42,1,REAL,FAKE,,,,,,,,,,,,,,,,,,,,,
,,,,,,,midd29,midd,ma,Spain,South,13 or older,no,2021-03-31_12h06.25.411,empathy_intonation_perc,2020.2.10,MacIntel,60,,,,,,,,,,1,,,,,,,,,,,,,,,,,,,,,,,,,,,,,,,,,,,,,,,,54,fomentar,,,1,1,0.765595,0,56,56,53,1,REAL,FAKE,,,,,,,,,,,,,,,,,,,,,
,,,,,,,midd29,midd,ma,Spain,South,13 or older,no,2021-03-31_12h06.25.411,empathy_intonation_perc,2020.2.10,MacIntel,60,,,,,,,,,,1,,,,,,,,,,,,,,,,,,,,,,,,,,,,,,,,,,,,,,,,39,torpe,,,1,1,0.54758,0,57,57,38,1,REAL,FAKE,,,,,,,,,,,,,,,,,,,,,
,,,,,,,midd29,midd,ma,Spain,South,13 or older,no,2021-03-31_12h06.25.411,empathy_intonation_perc,2020.2.10,MacIntel,60,,,,,,,,,,0,,,,,,,,,,,,,,,,,,,,,,,,,,,,,,,,,,,,,,,,66,hacido,,,0,1,1.856675,0,58,58,65,1,REAL,FAKE,,,,,,,,,,,,,,,,,,,,,
,,,,,,,midd29,midd,ma,Spain,South,13 or older,no,2021-03-31_12h06.25.411,empathy_intonation_perc,2020.2.10,MacIntel,60,,,,,,,,,,0,,,,,,,,,,,,,,,,,,,,,,,,,,,,,,,,,,,,,,,,4,batilln,,,1,0,3.485815,0,59,59,3,1,REAL,FAKE,,,,,,,,,,,,,,,,,,,,,
,,,,,,,midd29,midd,ma,Spain,South,13 or older,no,2021-03-31_12h06.25.411,empathy_intonation_perc,2020.2.10,MacIntel,60,,,,,,,,,,1,,,,,,,,,,,,,,,,,,,,,,,,,,,,,,,,,,,,,,,,20,vido,,,1,1,3.55174,0,60,60,19,1,REAL,FAKE,,,,,,,,,,,,,,,,,,,,,
,,,,,,,midd29,midd,ma,Spain,South,13 or older,no,2021-03-31_12h06.25.411,empathy_intonation_perc,2020.2.10,MacIntel,60,,,,,,,,,,1,,,,,,,,,,,,,,,,,,,,,,,,,,,,,,,,,,,,,,,,60,matar,,,1,1,0.664215,0,61,61,59,1,REAL,FAKE,,,,,,,,,,,,,,,,,,,,,
,,,,,,,midd29,midd,ma,Spain,South,13 or older,no,2021-03-31_12h06.25.411,empathy_intonation_perc,2020.2.10,MacIntel,60,,,,,,,,,,1,,,,,,,,,,,,,,,,,,,,,,,,,,,,,,,,,,,,,,,,46,martillo,,,1,1,2.398765,0,62,62,45,1,REAL,FAKE,,,,,,,,,,,,,,,,,,,,,
,,,,,,,midd29,midd,ma,Spain,South,13 or older,no,2021-03-31_12h06.25.411,empathy_intonation_perc,2020.2.10,MacIntel,60,,,,,,,,,,1,,,,,,,,,,,,,,,,,,,,,,,,,,,,,,,,,,,,,,,,36,loro,,,1,1,0.667555,0,63,63,35,1,REAL,FAKE,,,,,,,,,,,,,,,,,,,,,
,,,,,,,midd29,midd,ma,Spain,South,13 or older,no,2021-03-31_12h06.25.411,empathy_intonation_perc,2020.2.10,MacIntel,60,,,,,,,,,,0,,,,,,,,,,,,,,,,,,,,,,,,,,,,,,,,,,,,,,,,33,pauca,,,0,1,0.7341,0,64,64,32,1,REAL,FAKE,,,,,,,,,,,,,,,,,,,,,
,,,,,,,midd29,midd,ma,Spain,South,13 or older,no,2021-03-31_12h06.25.411,empathy_intonation_perc,2020.2.10,MacIntel,60,,,,,,,,,,1,,,,,,,,,,,,,,,,,,,,,,,,,,,,,,,,,,,,,,,,55,nevar,,,1,1,0.93105,0,65,65,54,1,REAL,FAKE,,,,,,,,,,,,,,,,,,,,,
,,,,,,,midd29,midd,ma,Spain,South,13 or older,no,2021-03-31_12h06.25.411,empathy_intonation_perc,2020.2.10,MacIntel,60,,,,,,,,,,1,,,,,,,,,,,,,,,,,,,,,,,,,,,,,,,,,,,,,,,,57,tacao,,,1,1,0.91591,0,66,66,56,1,REAL,FAKE,,,,,,,,,,,,,,,,,,,,,
,,,,,,,midd29,midd,ma,Spain,South,13 or older,no,2021-03-31_12h06.25.411,empathy_intonation_perc,2020.2.10,MacIntel,60,,,,,,,,,,1,,,,,,,,,,,,,,,,,,,,,,,,,,,,,,,,,,,,,,,,9,hacha,,,1,1,0.895945,0,67,67,8,1,REAL,FAKE,,,,,,,,,,,,,,,,,,,,,
,,,,,,,midd29,midd,ma,Spain,South,13 or older,no,2021-03-31_12h06.25.411,empathy_intonation_perc,2020.2.10,MacIntel,60,,,,,,,,,,1,,,,,,,,,,,,,,,,,,,,,,,,,,,,,,,,,,,,,,,,7,psimo,,,0,0,1.689185,0,68,68,6,1,REAL,FAKE,,,,,,,,,,,,,,,,,,,,,
,,,,,,,midd29,midd,ma,Spain,South,13 or older,no,2021-03-31_12h06.25.411,empathy_intonation_perc,2020.2.10,MacIntel,60,,,,,,,,,,1,,,,,,,,,,,,,,,,,,,,,,,,,,,,,,,,,,,,,,,,2,pellizcar,,,0,0,0.7315,0,69,69,1,1,REAL,FAKE,,,,,,,,,,,,,,,,,,,,,
,,,,,,,midd29,midd,ma,Spain,South,13 or older,no,2021-03-31_12h06.25.411,empathy_intonation_perc,2020.2.10,MacIntel,60,,,,,,,,,,0,,,,,,,,,,,,,,,,,,,,,,,,,,,,,,,,,,,,,,,,82,empirador,,,1,0,0.81815,0,70,70,81,1,REAL,FAKE,,,,,,,,,,,,,,,,,,,,,
,,,,,,,midd29,midd,ma,Spain,South,13 or older,no,2021-03-31_12h06.25.411,empathy_intonation_perc,2020.2.10,MacIntel,60,,,,,,,,,,0,,,,,,,,,,,,,,,,,,,,,,,,,,,,,,,,,,,,,,,,50,flamida,,,0,1,0.807625,0,71,71,49,1,REAL,FAKE,,,,,,,,,,,,,,,,,,,,,
,,,,,,,midd29,midd,ma,Spain,South,13 or older,no,2021-03-31_12h06.25.411,empathy_intonation_perc,2020.2.10,MacIntel,60,,,,,,,,,,1,,,,,,,,,,,,,,,,,,,,,,,,,,,,,,,,,,,,,,,,5,zapato,,,1,1,0.600665,0,72,72,4,1,REAL,FAKE,,,,,,,,,,,,,,,,,,,,,
,,,,,,,midd29,midd,ma,Spain,South,13 or older,no,2021-03-31_12h06.25.411,empathy_intonation_perc,2020.2.10,MacIntel,60,,,,,,,,,,0,,,,,,,,,,,,,,,,,,,,,,,,,,,,,,,,,,,,,,,,35,rompido,,,0,1,0.855115,0,73,73,34,1,REAL,FAKE,,,,,,,,,,,,,,,,,,,,,
,,,,,,,midd29,midd,ma,Spain,South,13 or older,no,2021-03-31_12h06.25.411,empathy_intonation_perc,2020.2.10,MacIntel,60,,,,,,,,,,1,,,,,,,,,,,,,,,,,,,,,,,,,,,,,,,,,,,,,,,,14,yunque,,,1,1,0.975055,0,74,74,13,1,REAL,FAKE,,,,,,,,,,,,,,,,,,,,,
,,,,,,,midd29,midd,ma,Spain,South,13 or older,no,2021-03-31_12h06.25.411,empathy_intonation_perc,2020.2.10,MacIntel,60,,,,,,,,,,1,,,,,,,,,,,,,,,,,,,,,,,,,,,,,,,,,,,,,,,,83,guante,,,1,1,0.485655,0,75,75,82,1,REAL,FAKE,,,,,,,,,,,,,,,,,,,,,
,,,,,,,midd29,midd,ma,Spain,South,13 or older,no,2021-03-31_12h06.25.411,empathy_intonation_perc,2020.2.10,MacIntel,60,,,,,,,,,,1,,,,,,,,,,,,,,,,,,,,,,,,,,,,,,,,,,,,,,,,59,besar,,,1,1,0.654525,0,76,76,58,1,REAL,FAKE,,,,,,,,,,,,,,,,,,,,,
,,,,,,,midd29,midd,ma,Spain,South,13 or older,no,2021-03-31_12h06.25.411,empathy_intonation_perc,2020.2.10,MacIntel,60,,,,,,,,,,0,,,,,,,,,,,,,,,,,,,,,,,,,,,,,,,,,,,,,,,,42,cadallo,,,0,1,1.48471,0,77,77,41,1,REAL,FAKE,,,,,,,,,,,,,,,,,,,,,
,,,,,,,midd29,midd,ma,Spain,South,13 or older,no,2021-03-31_12h06.25.411,empathy_intonation_perc,2020.2.10,MacIntel,60,,,,,,,,,,0,,,,,,,,,,,,,,,,,,,,,,,,,,,,,,,,,,,,,,,,63,esposante,,,0,1,1.138545,0,78,78,62,1,REAL,FAKE,,,,,,,,,,,,,,,,,,,,,
,,,,,,,midd29,midd,ma,Spain,South,13 or older,no,2021-03-31_12h06.25.411,empathy_intonation_perc,2020.2.10,MacIntel,60,,,,,,,,,,0,,,,,,,,,,,,,,,,,,,,,,,,,,,,,,,,,,,,,,,,19,brecedad,,,0,1,1.25042,0,79,79,18,1,REAL,FAKE,,,,,,,,,,,,,,,,,,,,,
,,,,,,,midd29,midd,ma,Spain,South,13 or older,no,2021-03-31_12h06.25.411,empathy_intonation_perc,2020.2.10,MacIntel,60,,,,,,,,,,1,,,,,,,,,,,,,,,,,,,,,,,,,,,,,,,,,,,,,,,,86,barato,,,1,1,1.22034,0,80,80,85,1,REAL,FAKE,,,,,,,,,,,,,,,,,,,,,
,,,,,,,midd29,midd,ma,Spain,South,13 or older,no,2021-03-31_12h06.25.411,empathy_intonation_perc,2020.2.10,MacIntel,60,,,,,,,,,,0,,,,,,,,,,,,,,,,,,,,,,,,,,,,,,,,,,,,,,,,29,decar,,,0,1,0.91886,0,81,81,28,1,REAL,FAKE,,,,,,,,,,,,,,,,,,,,,
,,,,,,,midd29,midd,ma,Spain,South,13 or older,no,2021-03-31_12h06.25.411,empathy_intonation_perc,2020.2.10,MacIntel,60,,,,,,,,,,1,,,,,,,,,,,,,,,,,,,,,,,,,,,,,,,,,,,,,,,,73,hervidor,,,1,1,0.781535,0,82,82,72,1,REAL,FAKE,,,,,,,,,,,,,,,,,,,,,
,,,,,,,midd29,midd,ma,Spain,South,13 or older,no,2021-03-31_12h06.25.411,empathy_intonation_perc,2020.2.10,MacIntel,60,,,,,,,,,,0,,,,,,,,,,,,,,,,,,,,,,,,,,,,,,,,,,,,,,,,32,fatacidad,,,0,1,2.02175,0,83,83,31,1,REAL,FAKE,,,,,,,,,,,,,,,,,,,,,
,,,,,,,midd29,midd,ma,Spain,South,13 or older,no,2021-03-31_12h06.25.411,empathy_intonation_perc,2020.2.10,MacIntel,60,,,,,,,,,,1,,,,,,,,,,,,,,,,,,,,,,,,,,,,,,,,,,,,,,,,90,clavel,,,1,1,0.826295,0,84,84,89,1,REAL,FAKE,,,,,,,,,,,,,,,,,,,,,
,,,,,,,midd29,midd,ma,Spain,South,13 or older,no,2021-03-31_12h06.25.411,empathy_intonation_perc,2020.2.10,MacIntel,60,,,,,,,,,,1,,,,,,,,,,,,,,,,,,,,,,,,,,,,,,,,,,,,,,,,64,orgulloso,,,1,1,0.702475,0,85,85,63,1,REAL,FAKE,,,,,,,,,,,,,,,,,,,,,
,,,,,,,midd29,midd,ma,Spain,South,13 or older,no,2021-03-31_12h06.25.411,empathy_intonation_perc,2020.2.10,MacIntel,60,,,,,,,,,,1,,,,,,,,,,,,,,,,,,,,,,,,,,,,,,,,,,,,,,,,77,tiburn,,,1,1,0.69696,0,86,86,76,1,REAL,FAKE,,,,,,,,,,,,,,,,,,,,,
,,,,,,,midd29,midd,ma,Spain,South,13 or older,no,2021-03-31_12h06.25.411,empathy_intonation_perc,2020.2.10,MacIntel,60,,,,,,,,,,1,,,,,,,,,,,,,,,,,,,,,,,,,,,,,,,,,,,,,,,,51,candado,,,0,0,3.748855,0,87,87,50,1,REAL,FAKE,,,,,,,,,,,,,,,,,,,,,
,,,,,,,midd29,midd,ma,Spain,South,13 or older,no,2021-03-31_12h06.25.411,empathy_intonation_perc,2020.2.10,MacIntel,60,,,,,,,,,,1,,,,,,,,,,,,,,,,,,,,,,,,,,,,,,,,,,,,,,,,13,helar,,,1,1,0.68928,0,88,88,12,1,REAL,FAKE,,,,,,,,,,,,,,,,,,,,,
,,,,,,,midd29,midd,ma,Spain,South,13 or older,no,2021-03-31_12h06.25.411,empathy_intonation_perc,2020.2.10,MacIntel,60,,,,,,,,,,1,,,,,,,,,,,,,,,,,,,,,,,,,,,,,,,,,,,,,,,,68,alegre,,,1,1,0.74307,0,89,89,67,1,REAL,FAKE,,,,,,,,,,,,,,,,,,,,,
,,,,,,,midd29,midd,ma,Spain,South,13 or older,no,2021-03-31_12h06.25.411,empathy_intonation_perc,2020.2.10,MacIntel,60,,,,,,,,,,,,,,,,,,,,,,,,,,,,,,,,,,,,,,,,,,,,,,,,,,,,,,,,,,,,,,,,4,1,2.536815,1,0,0,0,0,0,1,,,,,,,,,,,
,,,,,,,midd29,midd,ma,Spain,South,13 or older,no,2021-03-31_12h06.25.411,empathy_intonation_perc,2020.2.10,MacIntel,60,,,,,,,,,,,,,,,,,,,,1,,,,,,,,,,,,,,,,,,,,,,,,,,,,,,,,,,,,,,,,,,,,,,,,,,,,,,3,0,0,0,0,1,I can easily tell if someone else wants to enter a conversation.,1,0,1,0
,,,,,,,midd29,midd,ma,Spain,South,13 or older,no,2021-03-31_12h06.25.411,empathy_intonation_perc,2020.2.10,MacIntel,60,,,,,,,,,,,,,,,,,,,,2,,,,,,,,,,,,,,,,,,,,,,,,,,,,,,,,,,,,,,,,,,,,,,,,,,,,,,4,0,1,1,1,1,I prefer animals to humans.,0,1,0,0
,,,,,,,midd29,midd,ma,Spain,South,13 or older,no,2021-03-31_12h06.25.411,empathy_intonation_perc,2020.2.10,MacIntel,60,,,,,,,,,,,,,,,,,,,,3,,,,,,,,,,,,,,,,,,,,,,,,,,,,,,,,,,,,,,,,,,,,,,,,,,,,,,2,0,2,2,2,1,I try to keep up with the current trends and fashions.,0,1,0,0
,,,,,,,midd29,midd,ma,Spain,South,13 or older,no,2021-03-31_12h06.25.411,empathy_intonation_perc,2020.2.10,MacIntel,60,,,,,,,,,,,,,,,,,,,,4,,,,,,,,,,,,,,,,,,,,,,,,,,,,,,,,,,,,,,,,,,,,,,,,,,,,,,4,0,3,3,3,1,"I find it difficult to explain to others things that I understand easily, 
  when they dont understand it first time.",1,0,0,1
,,,,,,,midd29,midd,ma,Spain,South,13 or older,no,2021-03-31_12h06.25.411,empathy_intonation_perc,2020.2.10,MacIntel,60,,,,,,,,,,,,,,,,,,,,5,,,,,,,,,,,,,,,,,,,,,,,,,,,,,,,,,,,,,,,,,,,,,,,,,,,,,,1,0,4,4,4,1,I dream most nights.,0,1,0,0
,,,,,,,midd29,midd,ma,Spain,South,13 or older,no,2021-03-31_12h06.25.411,empathy_intonation_perc,2020.2.10,MacIntel,60,,,,,,,,,,,,,,,,,,,,6,,,,,,,,,,,,,,,,,,,,,,,,,,,,,,,,,,,,,,,,,,,,,,,,,,,,,,1,0,5,5,5,1,I really enjoy caring for other people.,1,0,1,0
,,,,,,,midd29,midd,ma,Spain,South,13 or older,no,2021-03-31_12h06.25.411,empathy_intonation_perc,2020.2.10,MacIntel,60,,,,,,,,,,,,,,,,,,,,7,,,,,,,,,,,,,,,,,,,,,,,,,,,,,,,,,,,,,,,,,,,,,,,,,,,,,,2,0,6,6,6,1,I try to solve my own problems rather than discussing them with others.,0,1,0,0
,,,,,,,midd29,midd,ma,Spain,South,13 or older,no,2021-03-31_12h06.25.411,empathy_intonation_perc,2020.2.10,MacIntel,60,,,,,,,,,,,,,,,,,,,,8,,,,,,,,,,,,,,,,,,,,,,,,,,,,,,,,,,,,,,,,,,,,,,,,,,,,,,3,0,7,7,7,1,I find it hard to know what to do in a social situation.,1,0,0,1
,,,,,,,midd29,midd,ma,Spain,South,13 or older,no,2021-03-31_12h06.25.411,empathy_intonation_perc,2020.2.10,MacIntel,60,,,,,,,,,,,,,,,,,,,,9,,,,,,,,,,,,,,,,,,,,,,,,,,,,,,,,,,,,,,,,,,,,,,,,,,,,,,3,0,8,8,8,1,I am at my best first thing in the morning.,0,1,0,0
,,,,,,,midd29,midd,ma,Spain,South,13 or older,no,2021-03-31_12h06.25.411,empathy_intonation_perc,2020.2.10,MacIntel,60,,,,,,,,,,,,,,,,,,,,10,,,,,,,,,,,,,,,,,,,,,,,,,,,,,,,,,,,,,,,,,,,,,,,,,,,,,,5,0,9,9,9,1,"People often tell me that I went too far in driving my point home in a 
  discussion.",1,0,0,1
,,,,,,,midd29,midd,ma,Spain,South,13 or older,no,2021-03-31_12h06.25.411,empathy_intonation_perc,2020.2.10,MacIntel,60,,,,,,,,,,,,,,,,,,,,11,,,,,,,,,,,,,,,,,,,,,,,,,,,,,,,,,,,,,,,,,,,,,,,,,,,,,,4,0,10,10,10,1,It doesnt bother me too much if I am late meeting a friend.,1,0,0,1
,,,,,,,midd29,midd,ma,Spain,South,13 or older,no,2021-03-31_12h06.25.411,empathy_intonation_perc,2020.2.10,MacIntel,60,,,,,,,,,,,,,,,,,,,,12,,,,,,,,,,,,,,,,,,,,,,,,,,,,,,,,,,,,,,,,,,,,,,,,,,,,,,2,0,11,11,11,1,"Friendships and relationships are just too difficult, so I tend not to 
  bother with them.",1,0,0,1
,,,,,,,midd29,midd,ma,Spain,South,13 or older,no,2021-03-31_12h06.25.411,empathy_intonation_perc,2020.2.10,MacIntel,60,,,,,,,,,,,,,,,,,,,,13,,,,,,,,,,,,,,,,,,,,,,,,,,,,,,,,,,,,,,,,,,,,,,,,,,,,,,5,0,12,12,12,1,"I would never break a law, no matter how minor.",0,1,0,0
,,,,,,,midd29,midd,ma,Spain,South,13 or older,no,2021-03-31_12h06.25.411,empathy_intonation_perc,2020.2.10,MacIntel,60,,,,,,,,,,,,,,,,,,,,14,,,,,,,,,,,,,,,,,,,,,,,,,,,,,,,,,,,,,,,,,,,,,,,,,,,,,,4,0,13,13,13,1,I often find it difficult to judge if something is rude or polite.,1,0,0,1
,,,,,,,midd29,midd,ma,Spain,South,13 or older,no,2021-03-31_12h06.25.411,empathy_intonation_perc,2020.2.10,MacIntel,60,,,,,,,,,,,,,,,,,,,,15,,,,,,,,,,,,,,,,,,,,,,,,,,,,,,,,,,,,,,,,,,,,,,,,,,,,,,2,0,14,14,14,1,"In a conversation, I tend to focus on my own thoughts rather than on what 
  my listener might be thinking.",1,0,0,1
,,,,,,,midd29,midd,ma,Spain,South,13 or older,no,2021-03-31_12h06.25.411,empathy_intonation_perc,2020.2.10,MacIntel,60,,,,,,,,,,,,,,,,,,,,16,,,,,,,,,,,,,,,,,,,,,,,,,,,,,,,,,,,,,,,,,,,,,,,,,,,,,,2,0,15,15,15,1,I prefer practical jokes to verbal humor.,0,1,0,0
,,,,,,,midd29,midd,ma,Spain,South,13 or older,no,2021-03-31_12h06.25.411,empathy_intonation_perc,2020.2.10,MacIntel,60,,,,,,,,,,,,,,,,,,,,17,,,,,,,,,,,,,,,,,,,,,,,,,,,,,,,,,,,,,,,,,,,,,,,,,,,,,,1,0,16,16,16,1,I live life for today rather than the future.,0,1,0,0
,,,,,,,midd29,midd,ma,Spain,South,13 or older,no,2021-03-31_12h06.25.411,empathy_intonation_perc,2020.2.10,MacIntel,60,,,,,,,,,,,,,,,,,,,,18,,,,,,,,,,,,,,,,,,,,,,,,,,,,,,,,,,,,,,,,,,,,,,,,,,,,,,5,0,17,17,17,1,"When I was a child, I enjoyed cutting up worms to see what would happen.",1,0,0,1
,,,,,,,midd29,midd,ma,Spain,South,13 or older,no,2021-03-31_12h06.25.411,empathy_intonation_perc,2020.2.10,MacIntel,60,,,,,,,,,,,,,,,,,,,,19,,,,,,,,,,,,,,,,,,,,,,,,,,,,,,,,,,,,,,,,,,,,,,,,,,,,,,1,0,18,18,18,1,I can pick up quickly if someone says one thing but means another.,1,0,1,0
,,,,,,,midd29,midd,ma,Spain,South,13 or older,no,2021-03-31_12h06.25.411,empathy_intonation_perc,2020.2.10,MacIntel,60,,,,,,,,,,,,,,,,,,,,20,,,,,,,,,,,,,,,,,,,,,,,,,,,,,,,,,,,,,,,,,,,,,,,,,,,,,,1,0,19,19,19,1,I tend to have very strong opinions about morality.,0,1,0,0
,,,,,,,midd29,midd,ma,Spain,South,13 or older,no,2021-03-31_12h06.25.411,empathy_intonation_perc,2020.2.10,MacIntel,60,,,,,,,,,,,,,,,,,,,,21,,,,,,,,,,,,,,,,,,,,,,,,,,,,,,,,,,,,,,,,,,,,,,,,,,,,,,3,0,20,20,20,1,It is hard for me to see why some things upset people so much.,1,0,0,1
,,,,,,,midd29,midd,ma,Spain,South,13 or older,no,2021-03-31_12h06.25.411,empathy_intonation_perc,2020.2.10,MacIntel,60,,,,,,,,,,,,,,,,,,,,22,,,,,,,,,,,,,,,,,,,,,,,,,,,,,,,,,,,,,,,,,,,,,,,,,,,,,,1,0,21,21,21,1,I find it easy to put myself in somebody elses shoes.,1,0,1,0
,,,,,,,midd29,midd,ma,Spain,South,13 or older,no,2021-03-31_12h06.25.411,empathy_intonation_perc,2020.2.10,MacIntel,60,,,,,,,,,,,,,,,,,,,,23,,,,,,,,,,,,,,,,,,,,,,,,,,,,,,,,,,,,,,,,,,,,,,,,,,,,,,2,0,22,22,22,1,"I think that good manners are the most important thing a parent can teach 
  their child.",0,1,0,0
,,,,,,,midd29,midd,ma,Spain,South,13 or older,no,2021-03-31_12h06.25.411,empathy_intonation_perc,2020.2.10,MacIntel,60,,,,,,,,,,,,,,,,,,,,24,,,,,,,,,,,,,,,,,,,,,,,,,,,,,,,,,,,,,,,,,,,,,,,,,,,,,,2,0,23,23,23,1,I like to do things on the spur of the moment.,0,1,0,0
,,,,,,,midd29,midd,ma,Spain,South,13 or older,no,2021-03-31_12h06.25.411,empathy_intonation_perc,2020.2.10,MacIntel,60,,,,,,,,,,,,,,,,,,,,25,,,,,,,,,,,,,,,,,,,,,,,,,,,,,,,,,,,,,,,,,,,,,,,,,,,,,,3,0,24,24,24,1,I am good at predicting how someone will feel.,1,0,1,0
,,,,,,,midd29,midd,ma,Spain,South,13 or older,no,2021-03-31_12h06.25.411,empathy_intonation_perc,2020.2.10,MacIntel,60,,,,,,,,,,,,,,,,,,,,26,,,,,,,,,,,,,,,,,,,,,,,,,,,,,,,,,,,,,,,,,,,,,,,,,,,,,,2,0,25,25,25,1,"I am quick to spot when someone in a group is feeling awkward or 
  uncomfortable.",1,0,1,0
,,,,,,,midd29,midd,ma,Spain,South,13 or older,no,2021-03-31_12h06.25.411,empathy_intonation_perc,2020.2.10,MacIntel,60,,,,,,,,,,,,,,,,,,,,27,,,,,,,,,,,,,,,,,,,,,,,,,,,,,,,,,,,,,,,,,,,,,,,,,,,,,,5,0,26,26,26,1,"If I say something that someone else is offended by, I think that thats 
  their problem, not mine.",1,0,0,1
,,,,,,,midd29,midd,ma,Spain,South,13 or older,no,2021-03-31_12h06.25.411,empathy_intonation_perc,2020.2.10,MacIntel,60,,,,,,,,,,,,,,,,,,,,28,,,,,,,,,,,,,,,,,,,,,,,,,,,,,,,,,,,,,,,,,,,,,,,,,,,,,,2,0,27,27,27,1,"If anyone asked me if I liked their haircut, I would reply truthfully, even 
  if I didnt like it.",1,0,0,1
,,,,,,,midd29,midd,ma,Spain,South,13 or older,no,2021-03-31_12h06.25.411,empathy_intonation_perc,2020.2.10,MacIntel,60,,,,,,,,,,,,,,,,,,,,29,,,,,,,,,,,,,,,,,,,,,,,,,,,,,,,,,,,,,,,,,,,,,,,,,,,,,,2,0,28,28,28,1,I cant always see why someone should have felt offended by a remark.,1,0,0,1
,,,,,,,midd29,midd,ma,Spain,South,13 or older,no,2021-03-31_12h06.25.411,empathy_intonation_perc,2020.2.10,MacIntel,60,,,,,,,,,,,,,,,,,,,,30,,,,,,,,,,,,,,,,,,,,,,,,,,,,,,,,,,,,,,,,,,,,,,,,,,,,,,1,0,29,29,29,1,People often tell me that I am very unpredictable.,0,1,0,0
,,,,,,,midd29,midd,ma,Spain,South,13 or older,no,2021-03-31_12h06.25.411,empathy_intonation_perc,2020.2.10,MacIntel,60,,,,,,,,,,,,,,,,,,,,31,,,,,,,,,,,,,,,,,,,,,,,,,,,,,,,,,,,,,,,,,,,,,,,,,,,,,,3,0,30,30,30,1,I enjoy being the center of attention at any social gathering.,0,1,0,0
,,,,,,,midd29,midd,ma,Spain,South,13 or older,no,2021-03-31_12h06.25.411,empathy_intonation_perc,2020.2.10,MacIntel,60,,,,,,,,,,,,,,,,,,,,32,,,,,,,,,,,,,,,,,,,,,,,,,,,,,,,,,,,,,,,,,,,,,,,,,,,,,,4,0,31,31,31,1,Seeing people cry doesnt really upset me.,1,0,0,1
,,,,,,,midd29,midd,ma,Spain,South,13 or older,no,2021-03-31_12h06.25.411,empathy_intonation_perc,2020.2.10,MacIntel,60,,,,,,,,,,,,,,,,,,,,33,,,,,,,,,,,,,,,,,,,,,,,,,,,,,,,,,,,,,,,,,,,,,,,,,,,,,,3,0,32,32,32,1,I enjoy having discussions about politics.,0,1,0,0
,,,,,,,midd29,midd,ma,Spain,South,13 or older,no,2021-03-31_12h06.25.411,empathy_intonation_perc,2020.2.10,MacIntel,60,,,,,,,,,,,,,,,,,,,,34,,,,,,,,,,,,,,,,,,,,,,,,,,,,,,,,,,,,,,,,,,,,,,,,,,,,,,2,0,33,33,33,1,"I am very blunt, which some people take to be rudeness, even though this is 
  unintentional.",1,0,0,1
,,,,,,,midd29,midd,ma,Spain,South,13 or older,no,2021-03-31_12h06.25.411,empathy_intonation_perc,2020.2.10,MacIntel,60,,,,,,,,,,,,,,,,,,,,35,,,,,,,,,,,,,,,,,,,,,,,,,,,,,,,,,,,,,,,,,,,,,,,,,,,,,,1,0,34,34,34,1,I dont tend to find social situations confusing.,1,0,1,0
,,,,,,,midd29,midd,ma,Spain,South,13 or older,no,2021-03-31_12h06.25.411,empathy_intonation_perc,2020.2.10,MacIntel,60,,,,,,,,,,,,,,,,,,,,36,,,,,,,,,,,,,,,,,,,,,,,,,,,,,,,,,,,,,,,,,,,,,,,,,,,,,,1,0,35,35,35,1,"Other people tell me I am good at understanding how they are feeling and 
  what they are thinking.",1,0,1,0
,,,,,,,midd29,midd,ma,Spain,South,13 or older,no,2021-03-31_12h06.25.411,empathy_intonation_perc,2020.2.10,MacIntel,60,,,,,,,,,,,,,,,,,,,,37,,,,,,,,,,,,,,,,,,,,,,,,,,,,,,,,,,,,,,,,,,,,,,,,,,,,,,1,0,36,36,36,1,"When I talk to people, I tend to talk about their experiences rather than 
  my own.",1,0,1,0
,,,,,,,midd29,midd,ma,Spain,South,13 or older,no,2021-03-31_12h06.25.411,empathy_intonation_perc,2020.2.10,MacIntel,60,,,,,,,,,,,,,,,,,,,,38,,,,,,,,,,,,,,,,,,,,,,,,,,,,,,,,,,,,,,,,,,,,,,,,,,,,,,1,0,37,37,37,1,It upsets me to see an animal in pain.,1,0,1,0
,,,,,,,midd29,midd,ma,Spain,South,13 or older,no,2021-03-31_12h06.25.411,empathy_intonation_perc,2020.2.10,MacIntel,60,,,,,,,,,,,,,,,,,,,,39,,,,,,,,,,,,,,,,,,,,,,,,,,,,,,,,,,,,,,,,,,,,,,,,,,,,,,1,0,38,38,38,1,I am able to make decisions without being influenced by peoples feelings.,1,0,0,1
,,,,,,,midd29,midd,ma,Spain,South,13 or older,no,2021-03-31_12h06.25.411,empathy_intonation_perc,2020.2.10,MacIntel,60,,,,,,,,,,,,,,,,,,,,40,,,,,,,,,,,,,,,,,,,,,,,,,,,,,,,,,,,,,,,,,,,,,,,,,,,,,,1,0,39,39,39,1,I cant relax until I have done everything I had planned to do that day.,0,1,0,0
,,,,,,,midd29,midd,ma,Spain,South,13 or older,no,2021-03-31_12h06.25.411,empathy_intonation_perc,2020.2.10,MacIntel,60,,,,,,,,,,,,,,,,,,,,41,,,,,,,,,,,,,,,,,,,,,,,,,,,,,,,,,,,,,,,,,,,,,,,,,,,,,,3,0,40,40,40,1,"I can easily tell if someone else is interested or bored with what I am 
  saying.",1,0,1,0
,,,,,,,midd29,midd,ma,Spain,South,13 or older,no,2021-03-31_12h06.25.411,empathy_intonation_perc,2020.2.10,MacIntel,60,,,,,,,,,,,,,,,,,,,,42,,,,,,,,,,,,,,,,,,,,,,,,,,,,,,,,,,,,,,,,,,,,,,,,,,,,,,1,0,41,41,41,1,I get upset if I see people suffering on news programmes.,1,0,1,0
,,,,,,,midd29,midd,ma,Spain,South,13 or older,no,2021-03-31_12h06.25.411,empathy_intonation_perc,2020.2.10,MacIntel,60,,,,,,,,,,,,,,,,,,,,43,,,,,,,,,,,,,,,,,,,,,,,,,,,,,,,,,,,,,,,,,,,,,,,,,,,,,,2,0,42,42,42,1,"Friends usually talk to me about their problems as they say that I am very 
  understanding.",1,0,1,0
,,,,,,,midd29,midd,ma,Spain,South,13 or older,no,2021-03-31_12h06.25.411,empathy_intonation_perc,2020.2.10,MacIntel,60,,,,,,,,,,,,,,,,,,,,44,,,,,,,,,,,,,,,,,,,,,,,,,,,,,,,,,,,,,,,,,,,,,,,,,,,,,,3,0,43,43,43,1,"I can sense if I am intruding, even if the other person doesnt tell me.",1,0,1,0
,,,,,,,midd29,midd,ma,Spain,South,13 or older,no,2021-03-31_12h06.25.411,empathy_intonation_perc,2020.2.10,MacIntel,60,,,,,,,,,,,,,,,,,,,,45,,,,,,,,,,,,,,,,,,,,,,,,,,,,,,,,,,,,,,,,,,,,,,,,,,,,,,4,0,44,44,44,1,"I often start new hobbies but quickly become bored with them and move on to 
  something else.",0,1,0,0
,,,,,,,midd29,midd,ma,Spain,South,13 or older,no,2021-03-31_12h06.25.411,empathy_intonation_perc,2020.2.10,MacIntel,60,,,,,,,,,,,,,,,,,,,,46,,,,,,,,,,,,,,,,,,,,,,,,,,,,,,,,,,,,,,,,,,,,,,,,,,,,,,5,0,45,45,45,1,People sometimes tell me that I have gone too far with teasing.,1,0,0,1
,,,,,,,midd29,midd,ma,Spain,South,13 or older,no,2021-03-31_12h06.25.411,empathy_intonation_perc,2020.2.10,MacIntel,60,,,,,,,,,,,,,,,,,,,,47,,,,,,,,,,,,,,,,,,,,,,,,,,,,,,,,,,,,,,,,,,,,,,,,,,,,,,1,0,46,46,46,1,I would be too nervous to go on a big rollercoaster.,0,1,0,0
,,,,,,,midd29,midd,ma,Spain,South,13 or older,no,2021-03-31_12h06.25.411,empathy_intonation_perc,2020.2.10,MacIntel,60,,,,,,,,,,,,,,,,,,,,48,,,,,,,,,,,,,,,,,,,,,,,,,,,,,,,,,,,,,,,,,,,,,,,,,,,,,,4,0,47,47,47,1,"Other people, often say that I am insensitive, though I dont always see 
  why.",1,0,0,1
,,,,,,,midd29,midd,ma,Spain,South,13 or older,no,2021-03-31_12h06.25.411,empathy_intonation_perc,2020.2.10,MacIntel,60,,,,,,,,,,,,,,,,,,,,49,,,,,,,,,,,,,,,,,,,,,,,,,,,,,,,,,,,,,,,,,,,,,,,,,,,,,,4,0,48,48,48,1,"If I see a stranger in a group, I think that it is up to them to make an 
  effort to join in.",1,0,0,1
