the_col,key_resp_2afc_trial.keys,key_resp_2afc_trial.corr,key_resp_2afc_trial.rt,trials_2afc_loop.thisRepN,trials_2afc_loop.thisTrialN,trials_2afc_loop.thisN,trials_2afc_loop.thisIndex,trials_2afc_loop.ran,pisch,fisch,pake,pike,item_num,correct_response,id,Variety of Spanish that is most familiar to you?,date,expName,psychopyVersion,OS,frameRate,key_resp.keys,key_resp.rt,the_col_fr,key_resp_2afc_trial_2.keys,key_resp_2afc_trial_2.corr,key_resp_2afc_trial_2.rt,trials.thisRepN,trials.thisTrialN,trials.thisN,trials.thisIndex,trials.ran,fat,fit,pat,pic
pike,1,0,2.4245,0,0,0,23,1,conditions/german/pisch_4_3.wav,conditions/german/fisch_4_3.wav,conditions/german/pake_4_3.wav,conditions/german/pike_4_3.wav,24,0,5a6d5ae19d65ec00017e9bae,Latin American,2022-04-02_11h53.50.400,german,2021.2.3,Linux x86_64,59.95922773,,,,,,,,,,,,,,,
pisch,1,1,2.1117,0,1,1,16,1,conditions/german/pisch_3_3.wav,conditions/german/fisch_3_3.wav,conditions/german/pake_3_3.wav,conditions/german/pike_3_3.wav,17,1,5a6d5ae19d65ec00017e9bae,Latin American,2022-04-02_11h53.50.400,german,2021.2.3,Linux x86_64,59.95922773,,,,,,,,,,,,,,,
pake,1,0,1.9517,0,2,2,1,1,conditions/german/pisch_1_2.wav,conditions/german/fisch_1_2.wav,conditions/german/pake_1_2.wav,conditions/german/pike_1_2.wav,2,0,5a6d5ae19d65ec00017e9bae,Latin American,2022-04-02_11h53.50.400,german,2021.2.3,Linux x86_64,59.95922773,,,,,,,,,,,,,,,
fisch,1,0,1.9932,0,3,3,34,1,conditions/german/pisch_5_7.wav,conditions/german/fisch_5_7.wav,conditions/german/pake_5_7.wav,conditions/german/pike_5_7.wav,35,0,5a6d5ae19d65ec00017e9bae,Latin American,2022-04-02_11h53.50.400,german,2021.2.3,Linux x86_64,59.95922773,,,,,,,,,,,,,,,
pike,0,1,1.994,0,4,4,43,1,conditions/german/pisch_7_2.wav,conditions/german/fisch_7_2.wav,conditions/german/pake_7_2.wav,conditions/german/pike_7_2.wav,44,0,5a6d5ae19d65ec00017e9bae,Latin American,2022-04-02_11h53.50.400,german,2021.2.3,Linux x86_64,59.95922773,,,,,,,,,,,,,,,
pake,1,1,1.9732,0,5,5,48,1,conditions/german/pisch_7_7.wav,conditions/german/fisch_7_7.wav,conditions/german/pake_7_7.wav,conditions/german/pike_7_7.wav,49,1,5a6d5ae19d65ec00017e9bae,Latin American,2022-04-02_11h53.50.400,german,2021.2.3,Linux x86_64,59.95922773,,,,,,,,,,,,,,,
fisch,1,0,3.5372,0,6,6,6,1,conditions/german/pisch_1_7.wav,conditions/german/fisch_1_7.wav,conditions/german/pake_1_7.wav,conditions/german/pike_1_7.wav,7,0,5a6d5ae19d65ec00017e9bae,Latin American,2022-04-02_11h53.50.400,german,2021.2.3,Linux x86_64,59.95922773,,,,,,,,,,,,,,,
pake,1,0,1.9928,0,7,7,41,1,conditions/german/pisch_6_7.wav,conditions/german/fisch_6_7.wav,conditions/german/pake_6_7.wav,conditions/german/pike_6_7.wav,42,0,5a6d5ae19d65ec00017e9bae,Latin American,2022-04-02_11h53.50.400,german,2021.2.3,Linux x86_64,59.95922773,,,,,,,,,,,,,,,
pisch,1,0,1.9563,0,8,8,30,1,conditions/german/pisch_5_3.wav,conditions/german/fisch_5_3.wav,conditions/german/pake_5_3.wav,conditions/german/pike_5_3.wav,31,0,5a6d5ae19d65ec00017e9bae,Latin American,2022-04-02_11h53.50.400,german,2021.2.3,Linux x86_64,59.95922773,,,,,,,,,,,,,,,
fisch,1,0,1.8548,0,9,9,19,1,conditions/german/pisch_3_6.wav,conditions/german/fisch_3_6.wav,conditions/german/pake_3_6.wav,conditions/german/pike_3_6.wav,20,0,5a6d5ae19d65ec00017e9bae,Latin American,2022-04-02_11h53.50.400,german,2021.2.3,Linux x86_64,59.95922773,,,,,,,,,,,,,,,
pake,1,0,2.3256,0,10,10,36,1,conditions/german/pisch_6_2.wav,conditions/german/fisch_6_2.wav,conditions/german/pake_6_2.wav,conditions/german/pike_6_2.wav,37,0,5a6d5ae19d65ec00017e9bae,Latin American,2022-04-02_11h53.50.400,german,2021.2.3,Linux x86_64,59.95922773,,,,,,,,,,,,,,,
pake,0,1,2.2899,0,11,11,5,1,conditions/german/pisch_1_6.wav,conditions/german/fisch_1_6.wav,conditions/german/pake_1_6.wav,conditions/german/pike_1_6.wav,6,0,5a6d5ae19d65ec00017e9bae,Latin American,2022-04-02_11h53.50.400,german,2021.2.3,Linux x86_64,59.95922773,,,,,,,,,,,,,,,
pike,1,0,1.9072,0,12,12,11,1,conditions/german/pisch_2_5.wav,conditions/german/fisch_2_5.wav,conditions/german/pake_2_5.wav,conditions/german/pike_2_5.wav,12,0,5a6d5ae19d65ec00017e9bae,Latin American,2022-04-02_11h53.50.400,german,2021.2.3,Linux x86_64,59.95922773,,,,,,,,,,,,,,,
pake,1,0,2.063,0,13,13,2,1,conditions/german/pisch_1_3.wav,conditions/german/fisch_1_3.wav,conditions/german/pake_1_3.wav,conditions/german/pike_1_3.wav,3,0,5a6d5ae19d65ec00017e9bae,Latin American,2022-04-02_11h53.50.400,german,2021.2.3,Linux x86_64,59.95922773,,,,,,,,,,,,,,,
pake,0,1,2.1503,0,14,14,27,1,conditions/german/pisch_4_7.wav,conditions/german/fisch_4_7.wav,conditions/german/pake_4_7.wav,conditions/german/pike_4_7.wav,28,0,5a6d5ae19d65ec00017e9bae,Latin American,2022-04-02_11h53.50.400,german,2021.2.3,Linux x86_64,59.95922773,,,,,,,,,,,,,,,
pisch,1,1,2.085,0,15,15,32,1,conditions/german/pisch_5_5.wav,conditions/german/fisch_5_5.wav,conditions/german/pake_5_5.wav,conditions/german/pike_5_5.wav,33,1,5a6d5ae19d65ec00017e9bae,Latin American,2022-04-02_11h53.50.400,german,2021.2.3,Linux x86_64,59.95922773,,,,,,,,,,,,,,,
fisch,0,1,2.8413,0,16,16,10,1,conditions/german/pisch_2_4.wav,conditions/german/fisch_2_4.wav,conditions/german/pake_2_4.wav,conditions/german/pike_2_4.wav,11,0,5a6d5ae19d65ec00017e9bae,Latin American,2022-04-02_11h53.50.400,german,2021.2.3,Linux x86_64,59.95922773,,,,,,,,,,,,,,,
pake,1,1,1.8608,0,17,17,24,1,conditions/german/pisch_4_4.wav,conditions/german/fisch_4_4.wav,conditions/german/pake_4_4.wav,conditions/german/pike_4_4.wav,25,1,5a6d5ae19d65ec00017e9bae,Latin American,2022-04-02_11h53.50.400,german,2021.2.3,Linux x86_64,59.95922773,,,,,,,,,,,,,,,
pike,1,0,1.9938,0,18,18,31,1,conditions/german/pisch_5_4.wav,conditions/german/fisch_5_4.wav,conditions/german/pake_5_4.wav,conditions/german/pike_5_4.wav,32,0,5a6d5ae19d65ec00017e9bae,Latin American,2022-04-02_11h53.50.400,german,2021.2.3,Linux x86_64,59.95922773,,,,,,,,,,,,,,,
pisch,1,0,1.8544,0,19,19,9,1,conditions/german/pisch_2_3.wav,conditions/german/fisch_2_3.wav,conditions/german/pake_2_3.wav,conditions/german/pike_2_3.wav,10,0,5a6d5ae19d65ec00017e9bae,Latin American,2022-04-02_11h53.50.400,german,2021.2.3,Linux x86_64,59.95922773,,,,,,,,,,,,,,,
fisch,0,1,2.0414,0,20,20,21,1,conditions/german/pisch_4_1.wav,conditions/german/fisch_4_1.wav,conditions/german/pake_4_1.wav,conditions/german/pike_4_1.wav,22,0,5a6d5ae19d65ec00017e9bae,Latin American,2022-04-02_11h53.50.400,german,2021.2.3,Linux x86_64,59.95922773,,,,,,,,,,,,,,,
pike,0,1,1.9764,0,21,21,42,1,conditions/german/pisch_7_1.wav,conditions/german/fisch_7_1.wav,conditions/german/pake_7_1.wav,conditions/german/pike_7_1.wav,43,0,5a6d5ae19d65ec00017e9bae,Latin American,2022-04-02_11h53.50.400,german,2021.2.3,Linux x86_64,59.95922773,,,,,,,,,,,,,,,
pike,1,0,1.8678,0,22,22,18,1,conditions/german/pisch_3_5.wav,conditions/german/fisch_3_5.wav,conditions/german/pake_3_5.wav,conditions/german/pike_3_5.wav,19,0,5a6d5ae19d65ec00017e9bae,Latin American,2022-04-02_11h53.50.400,german,2021.2.3,Linux x86_64,59.95922773,,,,,,,,,,,,,,,
fisch,0,1,2.1045,0,23,23,4,1,conditions/german/pisch_1_5.wav,conditions/german/fisch_1_5.wav,conditions/german/pake_1_5.wav,conditions/german/pike_1_5.wav,5,0,5a6d5ae19d65ec00017e9bae,Latin American,2022-04-02_11h53.50.400,german,2021.2.3,Linux x86_64,59.95922773,,,,,,,,,,,,,,,
fisch,1,1,1.7755,0,24,24,0,1,conditions/german/pisch_1_1.wav,conditions/german/fisch_1_1.wav,conditions/german/pake_1_1.wav,conditions/german/pike_1_1.wav,1,1,5a6d5ae19d65ec00017e9bae,Latin American,2022-04-02_11h53.50.400,german,2021.2.3,Linux x86_64,59.95922773,,,,,,,,,,,,,,,
pike,0,1,2.102,0,25,25,35,1,conditions/german/pisch_6_1.wav,conditions/german/fisch_6_1.wav,conditions/german/pake_6_1.wav,conditions/german/pike_6_1.wav,36,0,5a6d5ae19d65ec00017e9bae,Latin American,2022-04-02_11h53.50.400,german,2021.2.3,Linux x86_64,59.95922773,,,,,,,,,,,,,,,
pake,1,0,1.8614,0,26,26,25,1,conditions/german/pisch_4_5.wav,conditions/german/fisch_4_5.wav,conditions/german/pake_4_5.wav,conditions/german/pike_4_5.wav,26,0,5a6d5ae19d65ec00017e9bae,Latin American,2022-04-02_11h53.50.400,german,2021.2.3,Linux x86_64,59.95922773,,,,,,,,,,,,,,,
pisch,1,0,2.0508,0,27,27,14,1,conditions/german/pisch_3_1.wav,conditions/german/fisch_3_1.wav,conditions/german/pake_3_1.wav,conditions/german/pike_3_1.wav,15,0,5a6d5ae19d65ec00017e9bae,Latin American,2022-04-02_11h53.50.400,german,2021.2.3,Linux x86_64,59.95922773,,,,,,,,,,,,,,,
pisch,0,1,1.9363,0,28,28,20,1,conditions/german/pisch_3_7.wav,conditions/german/fisch_3_7.wav,conditions/german/pake_3_7.wav,conditions/german/pike_3_7.wav,21,0,5a6d5ae19d65ec00017e9bae,Latin American,2022-04-02_11h53.50.400,german,2021.2.3,Linux x86_64,59.95922773,,,,,,,,,,,,,,,
pake,1,0,1.682,0,29,29,39,1,conditions/german/pisch_6_5.wav,conditions/german/fisch_6_5.wav,conditions/german/pake_6_5.wav,conditions/german/pike_6_5.wav,40,0,5a6d5ae19d65ec00017e9bae,Latin American,2022-04-02_11h53.50.400,german,2021.2.3,Linux x86_64,59.95922773,,,,,,,,,,,,,,,
fisch,1,0,2.1732,0,30,30,7,1,conditions/german/pisch_2_1.wav,conditions/german/fisch_2_1.wav,conditions/german/pake_2_1.wav,conditions/german/pike_2_1.wav,8,0,5a6d5ae19d65ec00017e9bae,Latin American,2022-04-02_11h53.50.400,german,2021.2.3,Linux x86_64,59.95922773,,,,,,,,,,,,,,,
fisch,1,0,1.7405,0,31,31,38,1,conditions/german/pisch_6_4.wav,conditions/german/fisch_6_4.wav,conditions/german/pake_6_4.wav,conditions/german/pike_6_4.wav,39,0,5a6d5ae19d65ec00017e9bae,Latin American,2022-04-02_11h53.50.400,german,2021.2.3,Linux x86_64,59.95922773,,,,,,,,,,,,,,,
fisch,1,0,1.6745,0,32,32,45,1,conditions/german/pisch_7_4.wav,conditions/german/fisch_7_4.wav,conditions/german/pake_7_4.wav,conditions/german/pike_7_4.wav,46,0,5a6d5ae19d65ec00017e9bae,Latin American,2022-04-02_11h53.50.400,german,2021.2.3,Linux x86_64,59.95922773,,,,,,,,,,,,,,,
pisch,1,0,1.896,0,33,33,12,1,conditions/german/pisch_2_6.wav,conditions/german/fisch_2_6.wav,conditions/german/pake_2_6.wav,conditions/german/pike_2_6.wav,13,0,5a6d5ae19d65ec00017e9bae,Latin American,2022-04-02_11h53.50.400,german,2021.2.3,Linux x86_64,59.95922773,,,,,,,,,,,,,,,
pike,1,0,2.1614,0,34,34,22,1,conditions/german/pisch_4_2.wav,conditions/german/fisch_4_2.wav,conditions/german/pake_4_2.wav,conditions/german/pike_4_2.wav,23,0,5a6d5ae19d65ec00017e9bae,Latin American,2022-04-02_11h53.50.400,german,2021.2.3,Linux x86_64,59.95922773,,,,,,,,,,,,,,,
pike,1,0,1.7091,0,35,35,29,1,conditions/german/pisch_5_2.wav,conditions/german/fisch_5_2.wav,conditions/german/pake_5_2.wav,conditions/german/pike_5_2.wav,30,0,5a6d5ae19d65ec00017e9bae,Latin American,2022-04-02_11h53.50.400,german,2021.2.3,Linux x86_64,59.95922773,,,,,,,,,,,,,,,
pake,1,1,1.9079,0,36,36,40,1,conditions/german/pisch_6_6.wav,conditions/german/fisch_6_6.wav,conditions/german/pake_6_6.wav,conditions/german/pike_6_6.wav,41,1,5a6d5ae19d65ec00017e9bae,Latin American,2022-04-02_11h53.50.400,german,2021.2.3,Linux x86_64,59.95922773,,,,,,,,,,,,,,,
pike,1,1,2.0688,0,37,37,8,1,conditions/german/pisch_2_2.wav,conditions/german/fisch_2_2.wav,conditions/german/pake_2_2.wav,conditions/german/pike_2_2.wav,9,1,5a6d5ae19d65ec00017e9bae,Latin American,2022-04-02_11h53.50.400,german,2021.2.3,Linux x86_64,59.95922773,,,,,,,,,,,,,,,
fisch,0,1,1.9399,0,38,38,26,1,conditions/german/pisch_4_6.wav,conditions/german/fisch_4_6.wav,conditions/german/pake_4_6.wav,conditions/german/pike_4_6.wav,27,0,5a6d5ae19d65ec00017e9bae,Latin American,2022-04-02_11h53.50.400,german,2021.2.3,Linux x86_64,59.95922773,,,,,,,,,,,,,,,
pisch,0,1,1.8622,0,39,39,3,1,conditions/german/pisch_1_4.wav,conditions/german/fisch_1_4.wav,conditions/german/pake_1_4.wav,conditions/german/pike_1_4.wav,4,0,5a6d5ae19d65ec00017e9bae,Latin American,2022-04-02_11h53.50.400,german,2021.2.3,Linux x86_64,59.95922773,,,,,,,,,,,,,,,
fisch,0,1,1.801,0,40,40,28,1,conditions/german/pisch_5_1.wav,conditions/german/fisch_5_1.wav,conditions/german/pake_5_1.wav,conditions/german/pike_5_1.wav,29,0,5a6d5ae19d65ec00017e9bae,Latin American,2022-04-02_11h53.50.400,german,2021.2.3,Linux x86_64,59.95922773,,,,,,,,,,,,,,,
pisch,1,0,1.7209,0,41,41,46,1,conditions/german/pisch_7_5.wav,conditions/german/fisch_7_5.wav,conditions/german/pake_7_5.wav,conditions/german/pike_7_5.wav,47,0,5a6d5ae19d65ec00017e9bae,Latin American,2022-04-02_11h53.50.400,german,2021.2.3,Linux x86_64,59.95922773,,,,,,,,,,,,,,,
fisch,1,0,1.6792,0,42,42,17,1,conditions/german/pisch_3_4.wav,conditions/german/fisch_3_4.wav,conditions/german/pake_3_4.wav,conditions/german/pike_3_4.wav,18,0,5a6d5ae19d65ec00017e9bae,Latin American,2022-04-02_11h53.50.400,german,2021.2.3,Linux x86_64,59.95922773,,,,,,,,,,,,,,,
pisch,1,0,2.1075,0,43,43,47,1,conditions/german/pisch_7_6.wav,conditions/german/fisch_7_6.wav,conditions/german/pake_7_6.wav,conditions/german/pike_7_6.wav,48,0,5a6d5ae19d65ec00017e9bae,Latin American,2022-04-02_11h53.50.400,german,2021.2.3,Linux x86_64,59.95922773,,,,,,,,,,,,,,,
pisch,1,0,1.8205,0,44,44,33,1,conditions/german/pisch_5_6.wav,conditions/german/fisch_5_6.wav,conditions/german/pake_5_6.wav,conditions/german/pike_5_6.wav,34,0,5a6d5ae19d65ec00017e9bae,Latin American,2022-04-02_11h53.50.400,german,2021.2.3,Linux x86_64,59.95922773,,,,,,,,,,,,,,,
fisch,0,1,1.9208,0,45,45,37,1,conditions/german/pisch_6_3.wav,conditions/german/fisch_6_3.wav,conditions/german/pake_6_3.wav,conditions/german/pike_6_3.wav,38,0,5a6d5ae19d65ec00017e9bae,Latin American,2022-04-02_11h53.50.400,german,2021.2.3,Linux x86_64,59.95922773,,,,,,,,,,,,,,,
pisch,0,1,1.8344,0,46,46,13,1,conditions/german/pisch_2_7.wav,conditions/german/fisch_2_7.wav,conditions/german/pake_2_7.wav,conditions/german/pike_2_7.wav,14,0,5a6d5ae19d65ec00017e9bae,Latin American,2022-04-02_11h53.50.400,german,2021.2.3,Linux x86_64,59.95922773,,,,,,,,,,,,,,,
pisch,0,1,2.1332,0,47,47,44,1,conditions/german/pisch_7_3.wav,conditions/german/fisch_7_3.wav,conditions/german/pake_7_3.wav,conditions/german/pike_7_3.wav,45,0,5a6d5ae19d65ec00017e9bae,Latin American,2022-04-02_11h53.50.400,german,2021.2.3,Linux x86_64,59.95922773,,,,,,,,,,,,,,,
fisch,1,0,1.9588,0,48,48,15,1,conditions/german/pisch_3_2.wav,conditions/german/fisch_3_2.wav,conditions/german/pake_3_2.wav,conditions/german/pike_3_2.wav,16,0,5a6d5ae19d65ec00017e9bae,Latin American,2022-04-02_11h53.50.400,german,2021.2.3,Linux x86_64,59.95922773,,,,,,,,,,,,,,,
,,,,,,,,,,,,,12,0,5a6d5ae19d65ec00017e9bae,Latin American,2022-04-02_11h53.50.400,german,2021.2.3,Linux x86_64,59.95922773,space,2.3911,fit,1,0,2.0496,0,0,0,11,1,conditions/french/fat_2_5.wav,conditions/french/fit_2_5.wav,conditions/french/pat_2_5.wav,conditions/french/pic_2_5.wav
,,,,,,,,,,,,,48,0,5a6d5ae19d65ec00017e9bae,Latin American,2022-04-02_11h53.50.400,german,2021.2.3,Linux x86_64,59.95922773,,,fat,1,0,1.6246,0,1,1,47,1,conditions/french/fat_7_6.wav,conditions/french/fit_7_6.wav,conditions/french/pat_7_6.wav,conditions/french/pic_7_6.wav
,,,,,,,,,,,,,36,0,5a6d5ae19d65ec00017e9bae,Latin American,2022-04-02_11h53.50.400,german,2021.2.3,Linux x86_64,59.95922773,,,fit,0,1,1.5028,0,2,2,35,1,conditions/french/fat_6_1.wav,conditions/french/fit_6_1.wav,conditions/french/pat_6_1.wav,conditions/french/pic_6_1.wav
,,,,,,,,,,,,,46,0,5a6d5ae19d65ec00017e9bae,Latin American,2022-04-02_11h53.50.400,german,2021.2.3,Linux x86_64,59.95922773,,,fat,1,0,1.4805,0,3,3,45,1,conditions/french/fat_7_4.wav,conditions/french/fit_7_4.wav,conditions/french/pat_7_4.wav,conditions/french/pic_7_4.wav
,,,,,,,,,,,,,11,0,5a6d5ae19d65ec00017e9bae,Latin American,2022-04-02_11h53.50.400,german,2021.2.3,Linux x86_64,59.95922773,,,fat,1,0,1.8108,0,4,4,10,1,conditions/french/fat_2_4.wav,conditions/french/fit_2_4.wav,conditions/french/pat_2_4.wav,conditions/french/pic_2_4.wav
,,,,,,,,,,,,,2,0,5a6d5ae19d65ec00017e9bae,Latin American,2022-04-02_11h53.50.400,german,2021.2.3,Linux x86_64,59.95922773,,,fat,1,0,1.6283,0,5,5,1,1,conditions/french/fat_1_2.wav,conditions/french/fit_1_2.wav,conditions/french/pat_1_2.wav,conditions/french/pic_1_2.wav
,,,,,,,,,,,,,23,0,5a6d5ae19d65ec00017e9bae,Latin American,2022-04-02_11h53.50.400,german,2021.2.3,Linux x86_64,59.95922773,,,fit,1,0,1.5573,0,6,6,22,1,conditions/french/fat_4_2.wav,conditions/french/fit_4_2.wav,conditions/french/pat_4_2.wav,conditions/french/pic_4_2.wav
,,,,,,,,,,,,,10,0,5a6d5ae19d65ec00017e9bae,Latin American,2022-04-02_11h53.50.400,german,2021.2.3,Linux x86_64,59.95922773,,,pic,1,0,1.8378,0,7,7,9,1,conditions/french/fat_2_3.wav,conditions/french/fit_2_3.wav,conditions/french/pat_2_3.wav,conditions/french/pic_2_3.wav
,,,,,,,,,,,,,40,0,5a6d5ae19d65ec00017e9bae,Latin American,2022-04-02_11h53.50.400,german,2021.2.3,Linux x86_64,59.95922773,,,fat,1,0,1.6088,0,8,8,39,1,conditions/french/fat_6_5.wav,conditions/french/fit_6_5.wav,conditions/french/pat_6_5.wav,conditions/french/pic_6_5.wav
,,,,,,,,,,,,,17,1,5a6d5ae19d65ec00017e9bae,Latin American,2022-04-02_11h53.50.400,german,2021.2.3,Linux x86_64,59.95922773,,,pat,1,1,2.131,0,9,9,16,1,conditions/french/fat_3_3.wav,conditions/french/fit_3_3.wav,conditions/french/pat_3_3.wav,conditions/french/pic_3_3.wav
,,,,,,,,,,,,,1,1,5a6d5ae19d65ec00017e9bae,Latin American,2022-04-02_11h53.50.400,german,2021.2.3,Linux x86_64,59.95922773,,,pat,1,1,1.6189,0,10,10,0,1,conditions/french/fat_1_1.wav,conditions/french/fit_1_1.wav,conditions/french/pat_1_1.wav,conditions/french/pic_1_1.wav
,,,,,,,,,,,,,32,0,5a6d5ae19d65ec00017e9bae,Latin American,2022-04-02_11h53.50.400,german,2021.2.3,Linux x86_64,59.95922773,,,pic,1,0,1.7559,0,11,11,31,1,conditions/french/fat_5_4.wav,conditions/french/fit_5_4.wav,conditions/french/pat_5_4.wav,conditions/french/pic_5_4.wav
,,,,,,,,,,,,,13,0,5a6d5ae19d65ec00017e9bae,Latin American,2022-04-02_11h53.50.400,german,2021.2.3,Linux x86_64,59.95922773,,,pic,0,1,1.7761,0,12,12,12,1,conditions/french/fat_2_6.wav,conditions/french/fit_2_6.wav,conditions/french/pat_2_6.wav,conditions/french/pic_2_6.wav
,,,,,,,,,,,,,44,0,5a6d5ae19d65ec00017e9bae,Latin American,2022-04-02_11h53.50.400,german,2021.2.3,Linux x86_64,59.95922773,,,fit,0,1,1.6577,0,13,13,43,1,conditions/french/fat_7_2.wav,conditions/french/fit_7_2.wav,conditions/french/pat_7_2.wav,conditions/french/pic_7_2.wav
,,,,,,,,,,,,,34,0,5a6d5ae19d65ec00017e9bae,Latin American,2022-04-02_11h53.50.400,german,2021.2.3,Linux x86_64,59.95922773,,,pic,1,0,1.8225,0,14,14,33,1,conditions/french/fat_5_6.wav,conditions/french/fit_5_6.wav,conditions/french/pat_5_6.wav,conditions/french/pic_5_6.wav
,,,,,,,,,,,,,8,0,5a6d5ae19d65ec00017e9bae,Latin American,2022-04-02_11h53.50.400,german,2021.2.3,Linux x86_64,59.95922773,,,pic,1,0,2.1622,0,15,15,7,1,conditions/french/fat_2_1.wav,conditions/french/fit_2_1.wav,conditions/french/pat_2_1.wav,conditions/french/pic_2_1.wav
,,,,,,,,,,,,,33,1,5a6d5ae19d65ec00017e9bae,Latin American,2022-04-02_11h53.50.400,german,2021.2.3,Linux x86_64,59.95922773,,,pic,1,1,1.7354,0,16,16,32,1,conditions/french/fat_5_5.wav,conditions/french/fit_5_5.wav,conditions/french/pat_5_5.wav,conditions/french/pic_5_5.wav
,,,,,,,,,,,,,20,0,5a6d5ae19d65ec00017e9bae,Latin American,2022-04-02_11h53.50.400,german,2021.2.3,Linux x86_64,59.95922773,,,pat,1,0,2.0013,0,17,17,19,1,conditions/french/fat_3_6.wav,conditions/french/fit_3_6.wav,conditions/french/pat_3_6.wav,conditions/french/pic_3_6.wav
,,,,,,,,,,,,,45,0,5a6d5ae19d65ec00017e9bae,Latin American,2022-04-02_11h53.50.400,german,2021.2.3,Linux x86_64,59.95922773,,,fit,0,1,1.5989,0,18,18,44,1,conditions/french/fat_7_3.wav,conditions/french/fit_7_3.wav,conditions/french/pat_7_3.wav,conditions/french/pic_7_3.wav
,,,,,,,,,,,,,15,0,5a6d5ae19d65ec00017e9bae,Latin American,2022-04-02_11h53.50.400,german,2021.2.3,Linux x86_64,59.95922773,,,fat,1,0,1.3898,0,19,19,14,1,conditions/french/fat_3_1.wav,conditions/french/fit_3_1.wav,conditions/french/pat_3_1.wav,conditions/french/pic_3_1.wav
,,,,,,,,,,,,,37,0,5a6d5ae19d65ec00017e9bae,Latin American,2022-04-02_11h53.50.400,german,2021.2.3,Linux x86_64,59.95922773,,,pic,0,1,1.7755,0,20,20,36,1,conditions/french/fat_6_2.wav,conditions/french/fit_6_2.wav,conditions/french/pat_6_2.wav,conditions/french/pic_6_2.wav
,,,,,,,,,,,,,14,0,5a6d5ae19d65ec00017e9bae,Latin American,2022-04-02_11h53.50.400,german,2021.2.3,Linux x86_64,59.95922773,,,fit,0,1,1.5874,0,21,21,13,1,conditions/french/fat_2_7.wav,conditions/french/fit_2_7.wav,conditions/french/pat_2_7.wav,conditions/french/pic_2_7.wav
,,,,,,,,,,,,,43,0,5a6d5ae19d65ec00017e9bae,Latin American,2022-04-02_11h53.50.400,german,2021.2.3,Linux x86_64,59.95922773,,,pat,1,0,1.7284,0,22,22,42,1,conditions/french/fat_7_1.wav,conditions/french/fit_7_1.wav,conditions/french/pat_7_1.wav,conditions/french/pic_7_1.wav
,,,,,,,,,,,,,6,0,5a6d5ae19d65ec00017e9bae,Latin American,2022-04-02_11h53.50.400,german,2021.2.3,Linux x86_64,59.95922773,,,pic,0,1,1.9335,0,23,23,5,1,conditions/french/fat_1_6.wav,conditions/french/fit_1_6.wav,conditions/french/pat_1_6.wav,conditions/french/pic_1_6.wav
,,,,,,,,,,,,,16,0,5a6d5ae19d65ec00017e9bae,Latin American,2022-04-02_11h53.50.400,german,2021.2.3,Linux x86_64,59.95922773,,,pic,1,0,1.7711,0,24,24,15,1,conditions/french/fat_3_2.wav,conditions/french/fit_3_2.wav,conditions/french/pat_3_2.wav,conditions/french/pic_3_2.wav
,,,,,,,,,,,,,47,0,5a6d5ae19d65ec00017e9bae,Latin American,2022-04-02_11h53.50.400,german,2021.2.3,Linux x86_64,59.95922773,,,pat,1,0,1.6756,0,25,25,46,1,conditions/french/fat_7_5.wav,conditions/french/fit_7_5.wav,conditions/french/pat_7_5.wav,conditions/french/pic_7_5.wav
,,,,,,,,,,,,,39,0,5a6d5ae19d65ec00017e9bae,Latin American,2022-04-02_11h53.50.400,german,2021.2.3,Linux x86_64,59.95922773,,,fit,0,1,1.5545,0,26,26,38,1,conditions/french/fat_6_4.wav,conditions/french/fit_6_4.wav,conditions/french/pat_6_4.wav,conditions/french/pic_6_4.wav
,,,,,,,,,,,,,25,1,5a6d5ae19d65ec00017e9bae,Latin American,2022-04-02_11h53.50.400,german,2021.2.3,Linux x86_64,59.95922773,,,fat,1,1,1.4658,0,27,27,24,1,conditions/french/fat_4_4.wav,conditions/french/fit_4_4.wav,conditions/french/pat_4_4.wav,conditions/french/pic_4_4.wav
,,,,,,,,,,,,,30,0,5a6d5ae19d65ec00017e9bae,Latin American,2022-04-02_11h53.50.400,german,2021.2.3,Linux x86_64,59.95922773,,,pat,1,0,1.6726,0,28,28,29,1,conditions/french/fat_5_2.wav,conditions/french/fit_5_2.wav,conditions/french/pat_5_2.wav,conditions/french/pic_5_2.wav
,,,,,,,,,,,,,18,0,5a6d5ae19d65ec00017e9bae,Latin American,2022-04-02_11h53.50.400,german,2021.2.3,Linux x86_64,59.95922773,,,fit,1,0,1.695,0,29,29,17,1,conditions/french/fat_3_4.wav,conditions/french/fit_3_4.wav,conditions/french/pat_3_4.wav,conditions/french/pic_3_4.wav
,,,,,,,,,,,,,19,0,5a6d5ae19d65ec00017e9bae,Latin American,2022-04-02_11h53.50.400,german,2021.2.3,Linux x86_64,59.95922773,,,fit,1,0,1.5002,0,30,30,18,1,conditions/french/fat_3_5.wav,conditions/french/fit_3_5.wav,conditions/french/pat_3_5.wav,conditions/french/pic_3_5.wav
,,,,,,,,,,,,,38,0,5a6d5ae19d65ec00017e9bae,Latin American,2022-04-02_11h53.50.400,german,2021.2.3,Linux x86_64,59.95922773,,,fit,0,1,1.465,0,31,31,37,1,conditions/french/fat_6_3.wav,conditions/french/fit_6_3.wav,conditions/french/pat_6_3.wav,conditions/french/pic_6_3.wav
,,,,,,,,,,,,,4,0,5a6d5ae19d65ec00017e9bae,Latin American,2022-04-02_11h53.50.400,german,2021.2.3,Linux x86_64,59.95922773,,,pat,1,0,1.6967,0,32,32,3,1,conditions/french/fat_1_4.wav,conditions/french/fit_1_4.wav,conditions/french/pat_1_4.wav,conditions/french/pic_1_4.wav
,,,,,,,,,,,,,24,0,5a6d5ae19d65ec00017e9bae,Latin American,2022-04-02_11h53.50.400,german,2021.2.3,Linux x86_64,59.95922773,,,pat,1,0,1.551,0,33,33,23,1,conditions/french/fat_4_3.wav,conditions/french/fit_4_3.wav,conditions/french/pat_4_3.wav,conditions/french/pic_4_3.wav
,,,,,,,,,,,,,31,0,5a6d5ae19d65ec00017e9bae,Latin American,2022-04-02_11h53.50.400,german,2021.2.3,Linux x86_64,59.95922773,,,pat,1,0,1.6147,0,34,34,30,1,conditions/french/fat_5_3.wav,conditions/french/fit_5_3.wav,conditions/french/pat_5_3.wav,conditions/french/pic_5_3.wav
,,,,,,,,,,,,,27,0,5a6d5ae19d65ec00017e9bae,Latin American,2022-04-02_11h53.50.400,german,2021.2.3,Linux x86_64,59.95922773,,,fat,0,1,1.6858,0,35,35,26,1,conditions/french/fat_4_6.wav,conditions/french/fit_4_6.wav,conditions/french/pat_4_6.wav,conditions/french/pic_4_6.wav
,,,,,,,,,,,,,22,0,5a6d5ae19d65ec00017e9bae,Latin American,2022-04-02_11h53.50.400,german,2021.2.3,Linux x86_64,59.95922773,,,fit,1,0,1.5941,0,36,36,21,1,conditions/french/fat_4_1.wav,conditions/french/fit_4_1.wav,conditions/french/pat_4_1.wav,conditions/french/pic_4_1.wav
,,,,,,,,,,,,,49,1,5a6d5ae19d65ec00017e9bae,Latin American,2022-04-02_11h53.50.400,german,2021.2.3,Linux x86_64,59.95922773,,,pic,0,0,1.7833,0,37,37,48,1,conditions/french/fat_7_7.wav,conditions/french/fit_7_7.wav,conditions/french/pat_7_7.wav,conditions/french/pic_7_7.wav
,,,,,,,,,,,,,3,0,5a6d5ae19d65ec00017e9bae,Latin American,2022-04-02_11h53.50.400,german,2021.2.3,Linux x86_64,59.95922773,,,fat,1,0,1.6554,0,38,38,2,1,conditions/french/fat_1_3.wav,conditions/french/fit_1_3.wav,conditions/french/pat_1_3.wav,conditions/french/pic_1_3.wav
,,,,,,,,,,,,,29,0,5a6d5ae19d65ec00017e9bae,Latin American,2022-04-02_11h53.50.400,german,2021.2.3,Linux x86_64,59.95922773,,,pat,1,0,1.8624,0,39,39,28,1,conditions/french/fat_5_1.wav,conditions/french/fit_5_1.wav,conditions/french/pat_5_1.wav,conditions/french/pic_5_1.wav
,,,,,,,,,,,,,7,0,5a6d5ae19d65ec00017e9bae,Latin American,2022-04-02_11h53.50.400,german,2021.2.3,Linux x86_64,59.95922773,,,pic,0,1,1.7384,0,40,40,6,1,conditions/french/fat_1_7.wav,conditions/french/fit_1_7.wav,conditions/french/pat_1_7.wav,conditions/french/pic_1_7.wav
,,,,,,,,,,,,,28,0,5a6d5ae19d65ec00017e9bae,Latin American,2022-04-02_11h53.50.400,german,2021.2.3,Linux x86_64,59.95922773,,,fat,0,1,1.7653,0,41,41,27,1,conditions/french/fat_4_7.wav,conditions/french/fit_4_7.wav,conditions/french/pat_4_7.wav,conditions/french/pic_4_7.wav
,,,,,,,,,,,,,5,0,5a6d5ae19d65ec00017e9bae,Latin American,2022-04-02_11h53.50.400,german,2021.2.3,Linux x86_64,59.95922773,,,fat,0,1,3.8776,0,42,42,4,1,conditions/french/fat_1_5.wav,conditions/french/fit_1_5.wav,conditions/french/pat_1_5.wav,conditions/french/pic_1_5.wav
,,,,,,,,,,,,,9,1,5a6d5ae19d65ec00017e9bae,Latin American,2022-04-02_11h53.50.400,german,2021.2.3,Linux x86_64,59.95922773,,,fit,1,1,1.489,0,43,43,8,1,conditions/french/fat_2_2.wav,conditions/french/fit_2_2.wav,conditions/french/pat_2_2.wav,conditions/french/pic_2_2.wav
,,,,,,,,,,,,,26,0,5a6d5ae19d65ec00017e9bae,Latin American,2022-04-02_11h53.50.400,german,2021.2.3,Linux x86_64,59.95922773,,,fit,1,0,1.4559,0,44,44,25,1,conditions/french/fat_4_5.wav,conditions/french/fit_4_5.wav,conditions/french/pat_4_5.wav,conditions/french/pic_4_5.wav
,,,,,,,,,,,,,42,0,5a6d5ae19d65ec00017e9bae,Latin American,2022-04-02_11h53.50.400,german,2021.2.3,Linux x86_64,59.95922773,,,fit,0,1,1.522,0,45,45,41,1,conditions/french/fat_6_7.wav,conditions/french/fit_6_7.wav,conditions/french/pat_6_7.wav,conditions/french/pic_6_7.wav
,,,,,,,,,,,,,21,0,5a6d5ae19d65ec00017e9bae,Latin American,2022-04-02_11h53.50.400,german,2021.2.3,Linux x86_64,59.95922773,,,pic,0,1,1.6537,0,46,46,20,1,conditions/french/fat_3_7.wav,conditions/french/fit_3_7.wav,conditions/french/pat_3_7.wav,conditions/french/pic_3_7.wav
,,,,,,,,,,,,,41,1,5a6d5ae19d65ec00017e9bae,Latin American,2022-04-02_11h53.50.400,german,2021.2.3,Linux x86_64,59.95922773,,,fat,1,1,1.5559,0,47,47,40,1,conditions/french/fat_6_6.wav,conditions/french/fit_6_6.wav,conditions/french/pat_6_6.wav,conditions/french/pic_6_6.wav
,,,,,,,,,,,,,35,0,5a6d5ae19d65ec00017e9bae,Latin American,2022-04-02_11h53.50.400,german,2021.2.3,Linux x86_64,59.95922773,,,pat,1,0,1.5802,0,48,48,34,1,conditions/french/fat_5_7.wav,conditions/french/fit_5_7.wav,conditions/french/pat_5_7.wav,conditions/french/pic_5_7.wav
