the_col,key_resp_2afc_trial.keys,key_resp_2afc_trial.corr,key_resp_2afc_trial.rt,trials_2afc_loop.thisRepN,trials_2afc_loop.thisTrialN,trials_2afc_loop.thisN,trials_2afc_loop.thisIndex,trials_2afc_loop.ran,pisch,fisch,pake,pike,item_num,correct_response,id,Variety of Spanish that is most familiar to you?,date,expName,psychopyVersion,OS,frameRate,key_resp.keys,key_resp.rt,the_col_fr,key_resp_2afc_trial_2.keys,key_resp_2afc_trial_2.corr,key_resp_2afc_trial_2.rt,trials.thisRepN,trials.thisTrialN,trials.thisN,trials.thisIndex,trials.ran,fat,fit,pat,pic
pake,1,0,4.556,0,0,0,28,1,conditions/german/pisch_5_1.wav,conditions/german/fisch_5_1.wav,conditions/german/pake_5_1.wav,conditions/german/pike_5_1.wav,29,0,5bcc60b95c2b810001dc68e2,Mexican Spanish,2022-03-29_06h39.35,german,2021.2.3,MacIntel,58.82352941,,,,,,,,,,,,,,,
pake,1,0,2.276,0,1,1,30,1,conditions/german/pisch_5_3.wav,conditions/german/fisch_5_3.wav,conditions/german/pake_5_3.wav,conditions/german/pike_5_3.wav,31,0,5bcc60b95c2b810001dc68e2,Mexican Spanish,2022-03-29_06h39.35,german,2021.2.3,MacIntel,58.82352941,,,,,,,,,,,,,,,
pisch,1,0,2.105,0,2,2,17,1,conditions/german/pisch_3_4.wav,conditions/german/fisch_3_4.wav,conditions/german/pake_3_4.wav,conditions/german/pike_3_4.wav,18,0,5bcc60b95c2b810001dc68e2,Mexican Spanish,2022-03-29_06h39.35,german,2021.2.3,MacIntel,58.82352941,,,,,,,,,,,,,,,
fisch,1,0,1.853,0,3,3,34,1,conditions/german/pisch_5_7.wav,conditions/german/fisch_5_7.wav,conditions/german/pake_5_7.wav,conditions/german/pike_5_7.wav,35,0,5bcc60b95c2b810001dc68e2,Mexican Spanish,2022-03-29_06h39.35,german,2021.2.3,MacIntel,58.82352941,,,,,,,,,,,,,,,
fisch,1,0,1.551,0,4,4,25,1,conditions/german/pisch_4_5.wav,conditions/german/fisch_4_5.wav,conditions/german/pake_4_5.wav,conditions/german/pike_4_5.wav,26,0,5bcc60b95c2b810001dc68e2,Mexican Spanish,2022-03-29_06h39.35,german,2021.2.3,MacIntel,58.82352941,,,,,,,,,,,,,,,
pake,1,0,1.819,0,5,5,19,1,conditions/german/pisch_3_6.wav,conditions/german/fisch_3_6.wav,conditions/german/pake_3_6.wav,conditions/german/pike_3_6.wav,20,0,5bcc60b95c2b810001dc68e2,Mexican Spanish,2022-03-29_06h39.35,german,2021.2.3,MacIntel,58.82352941,,,,,,,,,,,,,,,
pake,1,0,1.825,0,6,6,35,1,conditions/german/pisch_6_1.wav,conditions/german/fisch_6_1.wav,conditions/german/pake_6_1.wav,conditions/german/pike_6_1.wav,36,0,5bcc60b95c2b810001dc68e2,Mexican Spanish,2022-03-29_06h39.35,german,2021.2.3,MacIntel,58.82352941,,,,,,,,,,,,,,,
pisch,0,1,2.854,0,7,7,3,1,conditions/german/pisch_1_4.wav,conditions/german/fisch_1_4.wav,conditions/german/pake_1_4.wav,conditions/german/pike_1_4.wav,4,0,5bcc60b95c2b810001dc68e2,Mexican Spanish,2022-03-29_06h39.35,german,2021.2.3,MacIntel,58.82352941,,,,,,,,,,,,,,,
pake,1,0,2.188,0,8,8,13,1,conditions/german/pisch_2_7.wav,conditions/german/fisch_2_7.wav,conditions/german/pake_2_7.wav,conditions/german/pike_2_7.wav,14,0,5bcc60b95c2b810001dc68e2,Mexican Spanish,2022-03-29_06h39.35,german,2021.2.3,MacIntel,58.82352941,,,,,,,,,,,,,,,
fisch,1,0,1.475,0,9,9,18,1,conditions/german/pisch_3_5.wav,conditions/german/fisch_3_5.wav,conditions/german/pake_3_5.wav,conditions/german/pike_3_5.wav,19,0,5bcc60b95c2b810001dc68e2,Mexican Spanish,2022-03-29_06h39.35,german,2021.2.3,MacIntel,58.82352941,,,,,,,,,,,,,,,
fisch,0,1,3.075,0,10,10,42,1,conditions/german/pisch_7_1.wav,conditions/german/fisch_7_1.wav,conditions/german/pake_7_1.wav,conditions/german/pike_7_1.wav,43,0,5bcc60b95c2b810001dc68e2,Mexican Spanish,2022-03-29_06h39.35,german,2021.2.3,MacIntel,58.82352941,,,,,,,,,,,,,,,
pake,1,0,1.859,0,11,11,31,1,conditions/german/pisch_5_4.wav,conditions/german/fisch_5_4.wav,conditions/german/pake_5_4.wav,conditions/german/pike_5_4.wav,32,0,5bcc60b95c2b810001dc68e2,Mexican Spanish,2022-03-29_06h39.35,german,2021.2.3,MacIntel,58.82352941,,,,,,,,,,,,,,,
fisch,1,0,1.643,0,12,12,27,1,conditions/german/pisch_4_7.wav,conditions/german/fisch_4_7.wav,conditions/german/pake_4_7.wav,conditions/german/pike_4_7.wav,28,0,5bcc60b95c2b810001dc68e2,Mexican Spanish,2022-03-29_06h39.35,german,2021.2.3,MacIntel,58.82352941,,,,,,,,,,,,,,,
pike,1,0,1.576,0,13,13,26,1,conditions/german/pisch_4_6.wav,conditions/german/fisch_4_6.wav,conditions/german/pake_4_6.wav,conditions/german/pike_4_6.wav,27,0,5bcc60b95c2b810001dc68e2,Mexican Spanish,2022-03-29_06h39.35,german,2021.2.3,MacIntel,58.82352941,,,,,,,,,,,,,,,
fisch,1,0,1.709,0,14,14,39,1,conditions/german/pisch_6_5.wav,conditions/german/fisch_6_5.wav,conditions/german/pake_6_5.wav,conditions/german/pike_6_5.wav,40,0,5bcc60b95c2b810001dc68e2,Mexican Spanish,2022-03-29_06h39.35,german,2021.2.3,MacIntel,58.82352941,,,,,,,,,,,,,,,
fisch,1,1,1.56,0,15,15,8,1,conditions/german/pisch_2_2.wav,conditions/german/fisch_2_2.wav,conditions/german/pake_2_2.wav,conditions/german/pike_2_2.wav,9,1,5bcc60b95c2b810001dc68e2,Mexican Spanish,2022-03-29_06h39.35,german,2021.2.3,MacIntel,58.82352941,,,,,,,,,,,,,,,
pake,1,0,1.825,0,16,16,29,1,conditions/german/pisch_5_2.wav,conditions/german/fisch_5_2.wav,conditions/german/pake_5_2.wav,conditions/german/pike_5_2.wav,30,0,5bcc60b95c2b810001dc68e2,Mexican Spanish,2022-03-29_06h39.35,german,2021.2.3,MacIntel,58.82352941,,,,,,,,,,,,,,,
pisch,1,0,2.793,0,17,17,9,1,conditions/german/pisch_2_3.wav,conditions/german/fisch_2_3.wav,conditions/german/pake_2_3.wav,conditions/german/pike_2_3.wav,10,0,5bcc60b95c2b810001dc68e2,Mexican Spanish,2022-03-29_06h39.35,german,2021.2.3,MacIntel,58.82352941,,,,,,,,,,,,,,,
fisch,0,1,1.993,0,18,18,6,1,conditions/german/pisch_1_7.wav,conditions/german/fisch_1_7.wav,conditions/german/pake_1_7.wav,conditions/german/pike_1_7.wav,7,0,5bcc60b95c2b810001dc68e2,Mexican Spanish,2022-03-29_06h39.35,german,2021.2.3,MacIntel,58.82352941,,,,,,,,,,,,,,,
fisch,1,0,1.926,0,19,19,20,1,conditions/german/pisch_3_7.wav,conditions/german/fisch_3_7.wav,conditions/german/pake_3_7.wav,conditions/german/pike_3_7.wav,21,0,5bcc60b95c2b810001dc68e2,Mexican Spanish,2022-03-29_06h39.35,german,2021.2.3,MacIntel,58.82352941,,,,,,,,,,,,,,,
pake,1,0,1.585,0,20,20,7,1,conditions/german/pisch_2_1.wav,conditions/german/fisch_2_1.wav,conditions/german/pake_2_1.wav,conditions/german/pike_2_1.wav,8,0,5bcc60b95c2b810001dc68e2,Mexican Spanish,2022-03-29_06h39.35,german,2021.2.3,MacIntel,58.82352941,,,,,,,,,,,,,,,
pike,1,0,1.528,0,21,21,38,1,conditions/german/pisch_6_4.wav,conditions/german/fisch_6_4.wav,conditions/german/pake_6_4.wav,conditions/german/pike_6_4.wav,39,0,5bcc60b95c2b810001dc68e2,Mexican Spanish,2022-03-29_06h39.35,german,2021.2.3,MacIntel,58.82352941,,,,,,,,,,,,,,,
pisch,0,1,1.992,0,22,22,21,1,conditions/german/pisch_4_1.wav,conditions/german/fisch_4_1.wav,conditions/german/pake_4_1.wav,conditions/german/pike_4_1.wav,22,0,5bcc60b95c2b810001dc68e2,Mexican Spanish,2022-03-29_06h39.35,german,2021.2.3,MacIntel,58.82352941,,,,,,,,,,,,,,,
fisch,1,0,1.743,0,23,23,23,1,conditions/german/pisch_4_3.wav,conditions/german/fisch_4_3.wav,conditions/german/pake_4_3.wav,conditions/german/pike_4_3.wav,24,0,5bcc60b95c2b810001dc68e2,Mexican Spanish,2022-03-29_06h39.35,german,2021.2.3,MacIntel,58.82352941,,,,,,,,,,,,,,,
pike,1,0,1.928,0,24,24,43,1,conditions/german/pisch_7_2.wav,conditions/german/fisch_7_2.wav,conditions/german/pake_7_2.wav,conditions/german/pike_7_2.wav,44,0,5bcc60b95c2b810001dc68e2,Mexican Spanish,2022-03-29_06h39.35,german,2021.2.3,MacIntel,58.82352941,,,,,,,,,,,,,,,
fisch,1,1,1.779,0,25,25,32,1,conditions/german/pisch_5_5.wav,conditions/german/fisch_5_5.wav,conditions/german/pake_5_5.wav,conditions/german/pike_5_5.wav,33,1,5bcc60b95c2b810001dc68e2,Mexican Spanish,2022-03-29_06h39.35,german,2021.2.3,MacIntel,58.82352941,,,,,,,,,,,,,,,
pike,1,0,1.727,0,26,26,5,1,conditions/german/pisch_1_6.wav,conditions/german/fisch_1_6.wav,conditions/german/pake_1_6.wav,conditions/german/pike_1_6.wav,6,0,5bcc60b95c2b810001dc68e2,Mexican Spanish,2022-03-29_06h39.35,german,2021.2.3,MacIntel,58.82352941,,,,,,,,,,,,,,,
pisch,1,0,1.725,0,27,27,37,1,conditions/german/pisch_6_3.wav,conditions/german/fisch_6_3.wav,conditions/german/pake_6_3.wav,conditions/german/pike_6_3.wav,38,0,5bcc60b95c2b810001dc68e2,Mexican Spanish,2022-03-29_06h39.35,german,2021.2.3,MacIntel,58.82352941,,,,,,,,,,,,,,,
pake,1,0,1.526,0,28,28,2,1,conditions/german/pisch_1_3.wav,conditions/german/fisch_1_3.wav,conditions/german/pake_1_3.wav,conditions/german/pike_1_3.wav,3,0,5bcc60b95c2b810001dc68e2,Mexican Spanish,2022-03-29_06h39.35,german,2021.2.3,MacIntel,58.82352941,,,,,,,,,,,,,,,
pake,0,1,1.677,0,29,29,4,1,conditions/german/pisch_1_5.wav,conditions/german/fisch_1_5.wav,conditions/german/pake_1_5.wav,conditions/german/pike_1_5.wav,5,0,5bcc60b95c2b810001dc68e2,Mexican Spanish,2022-03-29_06h39.35,german,2021.2.3,MacIntel,58.82352941,,,,,,,,,,,,,,,
pisch,1,0,1.545,0,30,30,15,1,conditions/german/pisch_3_2.wav,conditions/german/fisch_3_2.wav,conditions/german/pake_3_2.wav,conditions/german/pike_3_2.wav,16,0,5bcc60b95c2b810001dc68e2,Mexican Spanish,2022-03-29_06h39.35,german,2021.2.3,MacIntel,58.82352941,,,,,,,,,,,,,,,
fisch,1,1,1.659,0,31,31,0,1,conditions/german/pisch_1_1.wav,conditions/german/fisch_1_1.wav,conditions/german/pake_1_1.wav,conditions/german/pike_1_1.wav,1,1,5bcc60b95c2b810001dc68e2,Mexican Spanish,2022-03-29_06h39.35,german,2021.2.3,MacIntel,58.82352941,,,,,,,,,,,,,,,
pike,1,0,1.594,0,32,32,14,1,conditions/german/pisch_3_1.wav,conditions/german/fisch_3_1.wav,conditions/german/pake_3_1.wav,conditions/german/pike_3_1.wav,15,0,5bcc60b95c2b810001dc68e2,Mexican Spanish,2022-03-29_06h39.35,german,2021.2.3,MacIntel,58.82352941,,,,,,,,,,,,,,,
fisch,1,0,1.636,0,33,33,12,1,conditions/german/pisch_2_6.wav,conditions/german/fisch_2_6.wav,conditions/german/pake_2_6.wav,conditions/german/pike_2_6.wav,13,0,5bcc60b95c2b810001dc68e2,Mexican Spanish,2022-03-29_06h39.35,german,2021.2.3,MacIntel,58.82352941,,,,,,,,,,,,,,,
pike,1,0,1.706,0,34,34,33,1,conditions/german/pisch_5_6.wav,conditions/german/fisch_5_6.wav,conditions/german/pake_5_6.wav,conditions/german/pike_5_6.wav,34,0,5bcc60b95c2b810001dc68e2,Mexican Spanish,2022-03-29_06h39.35,german,2021.2.3,MacIntel,58.82352941,,,,,,,,,,,,,,,
pake,1,0,1.959,0,35,35,22,1,conditions/german/pisch_4_2.wav,conditions/german/fisch_4_2.wav,conditions/german/pake_4_2.wav,conditions/german/pike_4_2.wav,23,0,5bcc60b95c2b810001dc68e2,Mexican Spanish,2022-03-29_06h39.35,german,2021.2.3,MacIntel,58.82352941,,,,,,,,,,,,,,,
fisch,1,0,1.82,0,36,36,47,1,conditions/german/pisch_7_6.wav,conditions/german/fisch_7_6.wav,conditions/german/pake_7_6.wav,conditions/german/pike_7_6.wav,48,0,5bcc60b95c2b810001dc68e2,Mexican Spanish,2022-03-29_06h39.35,german,2021.2.3,MacIntel,58.82352941,,,,,,,,,,,,,,,
fisch,1,1,1.611,0,37,37,48,1,conditions/german/pisch_7_7.wav,conditions/german/fisch_7_7.wav,conditions/german/pake_7_7.wav,conditions/german/pike_7_7.wav,49,1,5bcc60b95c2b810001dc68e2,Mexican Spanish,2022-03-29_06h39.35,german,2021.2.3,MacIntel,58.82352941,,,,,,,,,,,,,,,
pike,0,1,1.827,0,38,38,44,1,conditions/german/pisch_7_3.wav,conditions/german/fisch_7_3.wav,conditions/german/pake_7_3.wav,conditions/german/pike_7_3.wav,45,0,5bcc60b95c2b810001dc68e2,Mexican Spanish,2022-03-29_06h39.35,german,2021.2.3,MacIntel,58.82352941,,,,,,,,,,,,,,,
pisch,1,0,2.007,0,39,39,46,1,conditions/german/pisch_7_5.wav,conditions/german/fisch_7_5.wav,conditions/german/pake_7_5.wav,conditions/german/pike_7_5.wav,47,0,5bcc60b95c2b810001dc68e2,Mexican Spanish,2022-03-29_06h39.35,german,2021.2.3,MacIntel,58.82352941,,,,,,,,,,,,,,,
fisch,1,0,1.623,0,40,40,11,1,conditions/german/pisch_2_5.wav,conditions/german/fisch_2_5.wav,conditions/german/pake_2_5.wav,conditions/german/pike_2_5.wav,12,0,5bcc60b95c2b810001dc68e2,Mexican Spanish,2022-03-29_06h39.35,german,2021.2.3,MacIntel,58.82352941,,,,,,,,,,,,,,,
fisch,1,0,1.459,0,41,41,45,1,conditions/german/pisch_7_4.wav,conditions/german/fisch_7_4.wav,conditions/german/pake_7_4.wav,conditions/german/pike_7_4.wav,46,0,5bcc60b95c2b810001dc68e2,Mexican Spanish,2022-03-29_06h39.35,german,2021.2.3,MacIntel,58.82352941,,,,,,,,,,,,,,,
pake,1,1,1.858,0,42,42,24,1,conditions/german/pisch_4_4.wav,conditions/german/fisch_4_4.wav,conditions/german/pake_4_4.wav,conditions/german/pike_4_4.wav,25,1,5bcc60b95c2b810001dc68e2,Mexican Spanish,2022-03-29_06h39.35,german,2021.2.3,MacIntel,58.82352941,,,,,,,,,,,,,,,
pisch,1,0,1.991,0,43,43,1,1,conditions/german/pisch_1_2.wav,conditions/german/fisch_1_2.wav,conditions/german/pake_1_2.wav,conditions/german/pike_1_2.wav,2,0,5bcc60b95c2b810001dc68e2,Mexican Spanish,2022-03-29_06h39.35,german,2021.2.3,MacIntel,58.82352941,,,,,,,,,,,,,,,
fisch,1,1,1.676,0,44,44,16,1,conditions/german/pisch_3_3.wav,conditions/german/fisch_3_3.wav,conditions/german/pake_3_3.wav,conditions/german/pike_3_3.wav,17,1,5bcc60b95c2b810001dc68e2,Mexican Spanish,2022-03-29_06h39.35,german,2021.2.3,MacIntel,58.82352941,,,,,,,,,,,,,,,
fisch,0,1,1.627,0,45,45,36,1,conditions/german/pisch_6_2.wav,conditions/german/fisch_6_2.wav,conditions/german/pake_6_2.wav,conditions/german/pike_6_2.wav,37,0,5bcc60b95c2b810001dc68e2,Mexican Spanish,2022-03-29_06h39.35,german,2021.2.3,MacIntel,58.82352941,,,,,,,,,,,,,,,
fisch,0,1,1.893,0,46,46,10,1,conditions/german/pisch_2_4.wav,conditions/german/fisch_2_4.wav,conditions/german/pake_2_4.wav,conditions/german/pike_2_4.wav,11,0,5bcc60b95c2b810001dc68e2,Mexican Spanish,2022-03-29_06h39.35,german,2021.2.3,MacIntel,58.82352941,,,,,,,,,,,,,,,
pisch,1,1,1.553,0,47,47,40,1,conditions/german/pisch_6_6.wav,conditions/german/fisch_6_6.wav,conditions/german/pake_6_6.wav,conditions/german/pike_6_6.wav,41,1,5bcc60b95c2b810001dc68e2,Mexican Spanish,2022-03-29_06h39.35,german,2021.2.3,MacIntel,58.82352941,,,,,,,,,,,,,,,
pisch,1,0,1.705,0,48,48,41,1,conditions/german/pisch_6_7.wav,conditions/german/fisch_6_7.wav,conditions/german/pake_6_7.wav,conditions/german/pike_6_7.wav,42,0,5bcc60b95c2b810001dc68e2,Mexican Spanish,2022-03-29_06h39.35,german,2021.2.3,MacIntel,58.82352941,,,,,,,,,,,,,,,
,,,,,,,,,,,,,32,0,5bcc60b95c2b810001dc68e2,Mexican Spanish,2022-03-29_06h39.35,german,2021.2.3,MacIntel,58.82352941,space,1.059,pic,1,0,1.969,0,0,0,31,1,conditions/french/fat_5_4.wav,conditions/french/fit_5_4.wav,conditions/french/pat_5_4.wav,conditions/french/pic_5_4.wav
,,,,,,,,,,,,,46,0,5bcc60b95c2b810001dc68e2,Mexican Spanish,2022-03-29_06h39.35,german,2021.2.3,MacIntel,58.82352941,,,fat,1,0,1.643,0,1,1,45,1,conditions/french/fat_7_4.wav,conditions/french/fit_7_4.wav,conditions/french/pat_7_4.wav,conditions/french/pic_7_4.wav
,,,,,,,,,,,,,6,0,5bcc60b95c2b810001dc68e2,Mexican Spanish,2022-03-29_06h39.35,german,2021.2.3,MacIntel,58.82352941,,,fat,1,0,1.699,0,2,2,5,1,conditions/french/fat_1_6.wav,conditions/french/fit_1_6.wav,conditions/french/pat_1_6.wav,conditions/french/pic_1_6.wav
,,,,,,,,,,,,,22,0,5bcc60b95c2b810001dc68e2,Mexican Spanish,2022-03-29_06h39.35,german,2021.2.3,MacIntel,58.82352941,,,fat,1,0,1.392,0,3,3,21,1,conditions/french/fat_4_1.wav,conditions/french/fit_4_1.wav,conditions/french/pat_4_1.wav,conditions/french/pic_4_1.wav
,,,,,,,,,,,,,40,0,5bcc60b95c2b810001dc68e2,Mexican Spanish,2022-03-29_06h39.35,german,2021.2.3,MacIntel,58.82352941,,,pat,1,0,1.459,0,4,4,39,1,conditions/french/fat_6_5.wav,conditions/french/fit_6_5.wav,conditions/french/pat_6_5.wav,conditions/french/pic_6_5.wav
,,,,,,,,,,,,,48,0,5bcc60b95c2b810001dc68e2,Mexican Spanish,2022-03-29_06h39.35,german,2021.2.3,MacIntel,58.82352941,,,fit,1,0,1.354,0,5,5,47,1,conditions/french/fat_7_6.wav,conditions/french/fit_7_6.wav,conditions/french/pat_7_6.wav,conditions/french/pic_7_6.wav
,,,,,,,,,,,,,7,0,5bcc60b95c2b810001dc68e2,Mexican Spanish,2022-03-29_06h39.35,german,2021.2.3,MacIntel,58.82352941,,,fit,1,0,1.239,0,6,6,6,1,conditions/french/fat_1_7.wav,conditions/french/fit_1_7.wav,conditions/french/pat_1_7.wav,conditions/french/pic_1_7.wav
,,,,,,,,,,,,,23,0,5bcc60b95c2b810001dc68e2,Mexican Spanish,2022-03-29_06h39.35,german,2021.2.3,MacIntel,58.82352941,,,pic,1,0,1.64,0,7,7,22,1,conditions/french/fat_4_2.wav,conditions/french/fit_4_2.wav,conditions/french/pat_4_2.wav,conditions/french/pic_4_2.wav
,,,,,,,,,,,,,10,0,5bcc60b95c2b810001dc68e2,Mexican Spanish,2022-03-29_06h39.35,german,2021.2.3,MacIntel,58.82352941,,,pic,1,0,1.594,0,8,8,9,1,conditions/french/fat_2_3.wav,conditions/french/fit_2_3.wav,conditions/french/pat_2_3.wav,conditions/french/pic_2_3.wav
,,,,,,,,,,,,,26,0,5bcc60b95c2b810001dc68e2,Mexican Spanish,2022-03-29_06h39.35,german,2021.2.3,MacIntel,58.82352941,,,pat,1,0,1.52,0,9,9,25,1,conditions/french/fat_4_5.wav,conditions/french/fit_4_5.wav,conditions/french/pat_4_5.wav,conditions/french/pic_4_5.wav
,,,,,,,,,,,,,45,0,5bcc60b95c2b810001dc68e2,Mexican Spanish,2022-03-29_06h39.35,german,2021.2.3,MacIntel,58.82352941,,,fat,1,0,1.618,0,10,10,44,1,conditions/french/fat_7_3.wav,conditions/french/fit_7_3.wav,conditions/french/pat_7_3.wav,conditions/french/pic_7_3.wav
,,,,,,,,,,,,,30,0,5bcc60b95c2b810001dc68e2,Mexican Spanish,2022-03-29_06h39.35,german,2021.2.3,MacIntel,58.82352941,,,fat,1,0,1.556,0,11,11,29,1,conditions/french/fat_5_2.wav,conditions/french/fit_5_2.wav,conditions/french/pat_5_2.wav,conditions/french/pic_5_2.wav
,,,,,,,,,,,,,16,0,5bcc60b95c2b810001dc68e2,Mexican Spanish,2022-03-29_06h39.35,german,2021.2.3,MacIntel,58.82352941,,,fat,1,0,1.46,0,12,12,15,1,conditions/french/fat_3_2.wav,conditions/french/fit_3_2.wav,conditions/french/pat_3_2.wav,conditions/french/pic_3_2.wav
,,,,,,,,,,,,,44,0,5bcc60b95c2b810001dc68e2,Mexican Spanish,2022-03-29_06h39.35,german,2021.2.3,MacIntel,58.82352941,,,fat,1,0,1.527,0,13,13,43,1,conditions/french/fat_7_2.wav,conditions/french/fit_7_2.wav,conditions/french/pat_7_2.wav,conditions/french/pic_7_2.wav
,,,,,,,,,,,,,28,0,5bcc60b95c2b810001dc68e2,Mexican Spanish,2022-03-29_06h39.35,german,2021.2.3,MacIntel,58.82352941,,,pat,1,0,1.524,0,14,14,27,1,conditions/french/fat_4_7.wav,conditions/french/fit_4_7.wav,conditions/french/pat_4_7.wav,conditions/french/pic_4_7.wav
,,,,,,,,,,,,,2,0,5bcc60b95c2b810001dc68e2,Mexican Spanish,2022-03-29_06h39.35,german,2021.2.3,MacIntel,58.82352941,,,fit,1,0,1.377,0,15,15,1,1,conditions/french/fat_1_2.wav,conditions/french/fit_1_2.wav,conditions/french/pat_1_2.wav,conditions/french/pic_1_2.wav
,,,,,,,,,,,,,34,0,5bcc60b95c2b810001dc68e2,Mexican Spanish,2022-03-29_06h39.35,german,2021.2.3,MacIntel,58.82352941,,,pic,1,0,1.494,0,16,16,33,1,conditions/french/fat_5_6.wav,conditions/french/fit_5_6.wav,conditions/french/pat_5_6.wav,conditions/french/pic_5_6.wav
,,,,,,,,,,,,,49,1,5bcc60b95c2b810001dc68e2,Mexican Spanish,2022-03-29_06h39.35,german,2021.2.3,MacIntel,58.82352941,,,fat,1,1,1.459,0,17,17,48,1,conditions/french/fat_7_7.wav,conditions/french/fit_7_7.wav,conditions/french/pat_7_7.wav,conditions/french/pic_7_7.wav
,,,,,,,,,,,,,43,0,5bcc60b95c2b810001dc68e2,Mexican Spanish,2022-03-29_06h39.35,german,2021.2.3,MacIntel,58.82352941,,,fat,0,1,1.442,0,18,18,42,1,conditions/french/fat_7_1.wav,conditions/french/fit_7_1.wav,conditions/french/pat_7_1.wav,conditions/french/pic_7_1.wav
,,,,,,,,,,,,,38,0,5bcc60b95c2b810001dc68e2,Mexican Spanish,2022-03-29_06h39.35,german,2021.2.3,MacIntel,58.82352941,,,pic,0,1,1.86,0,19,19,37,1,conditions/french/fat_6_3.wav,conditions/french/fit_6_3.wav,conditions/french/pat_6_3.wav,conditions/french/pic_6_3.wav
,,,,,,,,,,,,,8,0,5bcc60b95c2b810001dc68e2,Mexican Spanish,2022-03-29_06h39.35,german,2021.2.3,MacIntel,58.82352941,,,pic,0,1,2.086,0,20,20,7,1,conditions/french/fat_2_1.wav,conditions/french/fit_2_1.wav,conditions/french/pat_2_1.wav,conditions/french/pic_2_1.wav
,,,,,,,,,,,,,11,0,5bcc60b95c2b810001dc68e2,Mexican Spanish,2022-03-29_06h39.35,german,2021.2.3,MacIntel,58.82352941,,,pic,1,0,1.541,0,21,21,10,1,conditions/french/fat_2_4.wav,conditions/french/fit_2_4.wav,conditions/french/pat_2_4.wav,conditions/french/pic_2_4.wav
,,,,,,,,,,,,,36,0,5bcc60b95c2b810001dc68e2,Mexican Spanish,2022-03-29_06h39.35,german,2021.2.3,MacIntel,58.82352941,,,pic,1,0,1.603,0,22,22,35,1,conditions/french/fat_6_1.wav,conditions/french/fit_6_1.wav,conditions/french/pat_6_1.wav,conditions/french/pic_6_1.wav
,,,,,,,,,,,,,27,0,5bcc60b95c2b810001dc68e2,Mexican Spanish,2022-03-29_06h39.35,german,2021.2.3,MacIntel,58.82352941,,,pat,1,0,2.026,0,23,23,26,1,conditions/french/fat_4_6.wav,conditions/french/fit_4_6.wav,conditions/french/pat_4_6.wav,conditions/french/pic_4_6.wav
,,,,,,,,,,,,,25,1,5bcc60b95c2b810001dc68e2,Mexican Spanish,2022-03-29_06h39.35,german,2021.2.3,MacIntel,58.82352941,,,pat,1,1,1.443,0,24,24,24,1,conditions/french/fat_4_4.wav,conditions/french/fit_4_4.wav,conditions/french/pat_4_4.wav,conditions/french/pic_4_4.wav
,,,,,,,,,,,,,12,0,5bcc60b95c2b810001dc68e2,Mexican Spanish,2022-03-29_06h39.35,german,2021.2.3,MacIntel,58.82352941,,,pat,1,0,1.503,0,25,25,11,1,conditions/french/fat_2_5.wav,conditions/french/fit_2_5.wav,conditions/french/pat_2_5.wav,conditions/french/pic_2_5.wav
,,,,,,,,,,,,,29,0,5bcc60b95c2b810001dc68e2,Mexican Spanish,2022-03-29_06h39.35,german,2021.2.3,MacIntel,58.82352941,,,pic,1,0,1.786,0,26,26,28,1,conditions/french/fat_5_1.wav,conditions/french/fit_5_1.wav,conditions/french/pat_5_1.wav,conditions/french/pic_5_1.wav
,,,,,,,,,,,,,1,1,5bcc60b95c2b810001dc68e2,Mexican Spanish,2022-03-29_06h39.35,german,2021.2.3,MacIntel,58.82352941,,,pat,1,1,1.492,0,27,27,0,1,conditions/french/fat_1_1.wav,conditions/french/fit_1_1.wav,conditions/french/pat_1_1.wav,conditions/french/pic_1_1.wav
,,,,,,,,,,,,,5,0,5bcc60b95c2b810001dc68e2,Mexican Spanish,2022-03-29_06h39.35,german,2021.2.3,MacIntel,58.82352941,,,fat,1,0,1.66,0,28,28,4,1,conditions/french/fat_1_5.wav,conditions/french/fit_1_5.wav,conditions/french/pat_1_5.wav,conditions/french/pic_1_5.wav
,,,,,,,,,,,,,37,0,5bcc60b95c2b810001dc68e2,Mexican Spanish,2022-03-29_06h39.35,german,2021.2.3,MacIntel,58.82352941,,,fit,1,0,1.36,0,29,29,36,1,conditions/french/fat_6_2.wav,conditions/french/fit_6_2.wav,conditions/french/pat_6_2.wav,conditions/french/pic_6_2.wav
,,,,,,,,,,,,,39,0,5bcc60b95c2b810001dc68e2,Mexican Spanish,2022-03-29_06h39.35,german,2021.2.3,MacIntel,58.82352941,,,fit,1,0,1.259,0,30,30,38,1,conditions/french/fat_6_4.wav,conditions/french/fit_6_4.wav,conditions/french/pat_6_4.wav,conditions/french/pic_6_4.wav
,,,,,,,,,,,,,33,1,5bcc60b95c2b810001dc68e2,Mexican Spanish,2022-03-29_06h39.35,german,2021.2.3,MacIntel,58.82352941,,,pat,1,1,1.526,0,31,31,32,1,conditions/french/fat_5_5.wav,conditions/french/fit_5_5.wav,conditions/french/pat_5_5.wav,conditions/french/pic_5_5.wav
,,,,,,,,,,,,,24,0,5bcc60b95c2b810001dc68e2,Mexican Spanish,2022-03-29_06h39.35,german,2021.2.3,MacIntel,58.82352941,,,fat,1,0,1.528,0,32,32,23,1,conditions/french/fat_4_3.wav,conditions/french/fit_4_3.wav,conditions/french/pat_4_3.wav,conditions/french/pic_4_3.wav
,,,,,,,,,,,,,41,1,5bcc60b95c2b810001dc68e2,Mexican Spanish,2022-03-29_06h39.35,german,2021.2.3,MacIntel,58.82352941,,,pat,1,1,1.405,0,33,33,40,1,conditions/french/fat_6_6.wav,conditions/french/fit_6_6.wav,conditions/french/pat_6_6.wav,conditions/french/pic_6_6.wav
,,,,,,,,,,,,,15,0,5bcc60b95c2b810001dc68e2,Mexican Spanish,2022-03-29_06h39.35,german,2021.2.3,MacIntel,58.82352941,,,pat,1,0,1.375,0,34,34,14,1,conditions/french/fat_3_1.wav,conditions/french/fit_3_1.wav,conditions/french/pat_3_1.wav,conditions/french/pic_3_1.wav
,,,,,,,,,,,,,17,1,5bcc60b95c2b810001dc68e2,Mexican Spanish,2022-03-29_06h39.35,german,2021.2.3,MacIntel,58.82352941,,,pat,1,1,1.386,0,35,35,16,1,conditions/french/fat_3_3.wav,conditions/french/fit_3_3.wav,conditions/french/pat_3_3.wav,conditions/french/pic_3_3.wav
,,,,,,,,,,,,,3,0,5bcc60b95c2b810001dc68e2,Mexican Spanish,2022-03-29_06h39.35,german,2021.2.3,MacIntel,58.82352941,,,pat,1,0,1.486,0,36,36,2,1,conditions/french/fat_1_3.wav,conditions/french/fit_1_3.wav,conditions/french/pat_1_3.wav,conditions/french/pic_1_3.wav
,,,,,,,,,,,,,31,0,5bcc60b95c2b810001dc68e2,Mexican Spanish,2022-03-29_06h39.35,german,2021.2.3,MacIntel,58.82352941,,,fit,1,0,1.406,0,37,37,30,1,conditions/french/fat_5_3.wav,conditions/french/fit_5_3.wav,conditions/french/pat_5_3.wav,conditions/french/pic_5_3.wav
,,,,,,,,,,,,,47,0,5bcc60b95c2b810001dc68e2,Mexican Spanish,2022-03-29_06h39.35,german,2021.2.3,MacIntel,58.82352941,,,fit,1,0,1.276,0,38,38,46,1,conditions/french/fat_7_5.wav,conditions/french/fit_7_5.wav,conditions/french/pat_7_5.wav,conditions/french/pic_7_5.wav
,,,,,,,,,,,,,21,0,5bcc60b95c2b810001dc68e2,Mexican Spanish,2022-03-29_06h39.35,german,2021.2.3,MacIntel,58.82352941,,,fit,1,0,1.253,0,39,39,20,1,conditions/french/fat_3_7.wav,conditions/french/fit_3_7.wav,conditions/french/pat_3_7.wav,conditions/french/pic_3_7.wav
,,,,,,,,,,,,,20,0,5bcc60b95c2b810001dc68e2,Mexican Spanish,2022-03-29_06h39.35,german,2021.2.3,MacIntel,58.82352941,,,pat,1,0,1.409,0,40,40,19,1,conditions/french/fat_3_6.wav,conditions/french/fit_3_6.wav,conditions/french/pat_3_6.wav,conditions/french/pic_3_6.wav
,,,,,,,,,,,,,35,0,5bcc60b95c2b810001dc68e2,Mexican Spanish,2022-03-29_06h39.35,german,2021.2.3,MacIntel,58.82352941,,,pic,1,0,1.589,0,41,41,34,1,conditions/french/fat_5_7.wav,conditions/french/fit_5_7.wav,conditions/french/pat_5_7.wav,conditions/french/pic_5_7.wav
,,,,,,,,,,,,,19,0,5bcc60b95c2b810001dc68e2,Mexican Spanish,2022-03-29_06h39.35,german,2021.2.3,MacIntel,58.82352941,,,pat,1,0,1.402,0,42,42,18,1,conditions/french/fat_3_5.wav,conditions/french/fit_3_5.wav,conditions/french/pat_3_5.wav,conditions/french/pic_3_5.wav
,,,,,,,,,,,,,14,0,5bcc60b95c2b810001dc68e2,Mexican Spanish,2022-03-29_06h39.35,german,2021.2.3,MacIntel,58.82352941,,,fit,1,0,1.411,0,43,43,13,1,conditions/french/fat_2_7.wav,conditions/french/fit_2_7.wav,conditions/french/pat_2_7.wav,conditions/french/pic_2_7.wav
,,,,,,,,,,,,,42,0,5bcc60b95c2b810001dc68e2,Mexican Spanish,2022-03-29_06h39.35,german,2021.2.3,MacIntel,58.82352941,,,fat,1,0,1.506,0,44,44,41,1,conditions/french/fat_6_7.wav,conditions/french/fit_6_7.wav,conditions/french/pat_6_7.wav,conditions/french/pic_6_7.wav
,,,,,,,,,,,,,18,0,5bcc60b95c2b810001dc68e2,Mexican Spanish,2022-03-29_06h39.35,german,2021.2.3,MacIntel,58.82352941,,,pat,1,0,1.376,0,45,45,17,1,conditions/french/fat_3_4.wav,conditions/french/fit_3_4.wav,conditions/french/pat_3_4.wav,conditions/french/pic_3_4.wav
,,,,,,,,,,,,,13,0,5bcc60b95c2b810001dc68e2,Mexican Spanish,2022-03-29_06h39.35,german,2021.2.3,MacIntel,58.82352941,,,pat,1,0,1.308,0,46,46,12,1,conditions/french/fat_2_6.wav,conditions/french/fit_2_6.wav,conditions/french/pat_2_6.wav,conditions/french/pic_2_6.wav
,,,,,,,,,,,,,4,0,5bcc60b95c2b810001dc68e2,Mexican Spanish,2022-03-29_06h39.35,german,2021.2.3,MacIntel,58.82352941,,,fit,1,0,1.27,0,47,47,3,1,conditions/french/fat_1_4.wav,conditions/french/fit_1_4.wav,conditions/french/pat_1_4.wav,conditions/french/pic_1_4.wav
,,,,,,,,,,,,,9,1,5bcc60b95c2b810001dc68e2,Mexican Spanish,2022-03-29_06h39.35,german,2021.2.3,MacIntel,58.82352941,,,pat,1,1,1.39,0,48,48,8,1,conditions/french/fat_2_2.wav,conditions/french/fit_2_2.wav,conditions/french/pat_2_2.wav,conditions/french/pic_2_2.wav
