the_col,key_resp_2afc_trial.keys,key_resp_2afc_trial.corr,key_resp_2afc_trial.rt,trials_2afc_loop.thisRepN,trials_2afc_loop.thisTrialN,trials_2afc_loop.thisN,trials_2afc_loop.thisIndex,trials_2afc_loop.ran,pisch,fisch,pake,pike,item_num,correct_response,id,Variety of Spanish that is most familiar to you?,date,expName,psychopyVersion,OS,frameRate,key_resp.keys,key_resp.rt,the_col_fr,key_resp_2afc_trial_2.keys,key_resp_2afc_trial_2.corr,key_resp_2afc_trial_2.rt,trials.thisRepN,trials.thisTrialN,trials.thisN,trials.thisIndex,trials.ran,fat,fit,pat,pic
fisch,1,0,18.4826,0,0,0,12,1,conditions/german/pisch_2_6.wav,conditions/german/fisch_2_6.wav,conditions/german/pake_2_6.wav,conditions/german/pike_2_6.wav,13,0,5e3f7b673ba9991dc9cabcfa,Mexican,2022-03-23_15h39.45.446,german,2021.2.3,Win32,59.326056,,,,,,,,,,,,,,,
pisch,0,1,3.0539,0,1,1,26,1,conditions/german/pisch_4_6.wav,conditions/german/fisch_4_6.wav,conditions/german/pake_4_6.wav,conditions/german/pike_4_6.wav,27,0,5e3f7b673ba9991dc9cabcfa,Mexican,2022-03-23_15h39.45.446,german,2021.2.3,Win32,59.326056,,,,,,,,,,,,,,,
pisch,1,0,1.9592,0,2,2,9,1,conditions/german/pisch_2_3.wav,conditions/german/fisch_2_3.wav,conditions/german/pake_2_3.wav,conditions/german/pike_2_3.wav,10,0,5e3f7b673ba9991dc9cabcfa,Mexican,2022-03-23_15h39.45.446,german,2021.2.3,Win32,59.326056,,,,,,,,,,,,,,,
pike,0,1,2.3685,0,3,3,10,1,conditions/german/pisch_2_4.wav,conditions/german/fisch_2_4.wav,conditions/german/pake_2_4.wav,conditions/german/pike_2_4.wav,11,0,5e3f7b673ba9991dc9cabcfa,Mexican,2022-03-23_15h39.45.446,german,2021.2.3,Win32,59.326056,,,,,,,,,,,,,,,
pake,1,0,2.8665,0,4,4,44,1,conditions/german/pisch_7_3.wav,conditions/german/fisch_7_3.wav,conditions/german/pake_7_3.wav,conditions/german/pike_7_3.wav,45,0,5e3f7b673ba9991dc9cabcfa,Mexican,2022-03-23_15h39.45.446,german,2021.2.3,Win32,59.326056,,,,,,,,,,,,,,,
pike,0,1,2.549,0,5,5,43,1,conditions/german/pisch_7_2.wav,conditions/german/fisch_7_2.wav,conditions/german/pake_7_2.wav,conditions/german/pike_7_2.wav,44,0,5e3f7b673ba9991dc9cabcfa,Mexican,2022-03-23_15h39.45.446,german,2021.2.3,Win32,59.326056,,,,,,,,,,,,,,,
pake,0,1,3.9846,0,6,6,13,1,conditions/german/pisch_2_7.wav,conditions/german/fisch_2_7.wav,conditions/german/pake_2_7.wav,conditions/german/pike_2_7.wav,14,0,5e3f7b673ba9991dc9cabcfa,Mexican,2022-03-23_15h39.45.446,german,2021.2.3,Win32,59.326056,,,,,,,,,,,,,,,
fisch,1,0,3.0994,0,7,7,30,1,conditions/german/pisch_5_3.wav,conditions/german/fisch_5_3.wav,conditions/german/pake_5_3.wav,conditions/german/pike_5_3.wav,31,0,5e3f7b673ba9991dc9cabcfa,Mexican,2022-03-23_15h39.45.446,german,2021.2.3,Win32,59.326056,,,,,,,,,,,,,,,
pisch,1,1,1.973,0,8,8,24,1,conditions/german/pisch_4_4.wav,conditions/german/fisch_4_4.wav,conditions/german/pake_4_4.wav,conditions/german/pike_4_4.wav,25,1,5e3f7b673ba9991dc9cabcfa,Mexican,2022-03-23_15h39.45.446,german,2021.2.3,Win32,59.326056,,,,,,,,,,,,,,,
pisch,1,0,1.9497,0,9,9,15,1,conditions/german/pisch_3_2.wav,conditions/german/fisch_3_2.wav,conditions/german/pake_3_2.wav,conditions/german/pike_3_2.wav,16,0,5e3f7b673ba9991dc9cabcfa,Mexican,2022-03-23_15h39.45.446,german,2021.2.3,Win32,59.326056,,,,,,,,,,,,,,,
pake,1,0,1.9834,0,10,10,41,1,conditions/german/pisch_6_7.wav,conditions/german/fisch_6_7.wav,conditions/german/pake_6_7.wav,conditions/german/pike_6_7.wav,42,0,5e3f7b673ba9991dc9cabcfa,Mexican,2022-03-23_15h39.45.446,german,2021.2.3,Win32,59.326056,,,,,,,,,,,,,,,
pisch,0,1,3.8308,0,11,11,5,1,conditions/german/pisch_1_6.wav,conditions/german/fisch_1_6.wav,conditions/german/pake_1_6.wav,conditions/german/pike_1_6.wav,6,0,5e3f7b673ba9991dc9cabcfa,Mexican,2022-03-23_15h39.45.446,german,2021.2.3,Win32,59.326056,,,,,,,,,,,,,,,
pake,1,0,2.6307,0,12,12,22,1,conditions/german/pisch_4_2.wav,conditions/german/fisch_4_2.wav,conditions/german/pake_4_2.wav,conditions/german/pike_4_2.wav,23,0,5e3f7b673ba9991dc9cabcfa,Mexican,2022-03-23_15h39.45.446,german,2021.2.3,Win32,59.326056,,,,,,,,,,,,,,,
pake,1,1,2.0489,0,13,13,40,1,conditions/german/pisch_6_6.wav,conditions/german/fisch_6_6.wav,conditions/german/pake_6_6.wav,conditions/german/pike_6_6.wav,41,1,5e3f7b673ba9991dc9cabcfa,Mexican,2022-03-23_15h39.45.446,german,2021.2.3,Win32,59.326056,,,,,,,,,,,,,,,
pisch,0,1,2.464,0,14,14,37,1,conditions/german/pisch_6_3.wav,conditions/german/fisch_6_3.wav,conditions/german/pake_6_3.wav,conditions/german/pike_6_3.wav,38,0,5e3f7b673ba9991dc9cabcfa,Mexican,2022-03-23_15h39.45.446,german,2021.2.3,Win32,59.326056,,,,,,,,,,,,,,,
pake,1,0,2.73,0,15,15,2,1,conditions/german/pisch_1_3.wav,conditions/german/fisch_1_3.wav,conditions/german/pake_1_3.wav,conditions/german/pike_1_3.wav,3,0,5e3f7b673ba9991dc9cabcfa,Mexican,2022-03-23_15h39.45.446,german,2021.2.3,Win32,59.326056,,,,,,,,,,,,,,,
pisch,1,0,2.6742,0,16,16,1,1,conditions/german/pisch_1_2.wav,conditions/german/fisch_1_2.wav,conditions/german/pake_1_2.wav,conditions/german/pike_1_2.wav,2,0,5e3f7b673ba9991dc9cabcfa,Mexican,2022-03-23_15h39.45.446,german,2021.2.3,Win32,59.326056,,,,,,,,,,,,,,,
pisch,0,1,2.6479,0,17,17,46,1,conditions/german/pisch_7_5.wav,conditions/german/fisch_7_5.wav,conditions/german/pake_7_5.wav,conditions/german/pike_7_5.wav,47,0,5e3f7b673ba9991dc9cabcfa,Mexican,2022-03-23_15h39.45.446,german,2021.2.3,Win32,59.326056,,,,,,,,,,,,,,,
pisch,1,0,2.3262,0,18,18,45,1,conditions/german/pisch_7_4.wav,conditions/german/fisch_7_4.wav,conditions/german/pake_7_4.wav,conditions/german/pike_7_4.wav,46,0,5e3f7b673ba9991dc9cabcfa,Mexican,2022-03-23_15h39.45.446,german,2021.2.3,Win32,59.326056,,,,,,,,,,,,,,,
fisch,0,1,3.4868,0,19,19,14,1,conditions/german/pisch_3_1.wav,conditions/german/fisch_3_1.wav,conditions/german/pake_3_1.wav,conditions/german/pike_3_1.wav,15,0,5e3f7b673ba9991dc9cabcfa,Mexican,2022-03-23_15h39.45.446,german,2021.2.3,Win32,59.326056,,,,,,,,,,,,,,,
pisch,1,0,2.1914,0,20,20,31,1,conditions/german/pisch_5_4.wav,conditions/german/fisch_5_4.wav,conditions/german/pake_5_4.wav,conditions/german/pike_5_4.wav,32,0,5e3f7b673ba9991dc9cabcfa,Mexican,2022-03-23_15h39.45.446,german,2021.2.3,Win32,59.326056,,,,,,,,,,,,,,,
pake,1,0,3.8405,0,21,21,20,1,conditions/german/pisch_3_7.wav,conditions/german/fisch_3_7.wav,conditions/german/pake_3_7.wav,conditions/german/pike_3_7.wav,21,0,5e3f7b673ba9991dc9cabcfa,Mexican,2022-03-23_15h39.45.446,german,2021.2.3,Win32,59.326056,,,,,,,,,,,,,,,
pike,0,1,2.507,0,22,22,29,1,conditions/german/pisch_5_2.wav,conditions/german/fisch_5_2.wav,conditions/german/pake_5_2.wav,conditions/german/pike_5_2.wav,30,0,5e3f7b673ba9991dc9cabcfa,Mexican,2022-03-23_15h39.45.446,german,2021.2.3,Win32,59.326056,,,,,,,,,,,,,,,
pisch,1,0,2.7044,0,23,23,27,1,conditions/german/pisch_4_7.wav,conditions/german/fisch_4_7.wav,conditions/german/pake_4_7.wav,conditions/german/pike_4_7.wav,28,0,5e3f7b673ba9991dc9cabcfa,Mexican,2022-03-23_15h39.45.446,german,2021.2.3,Win32,59.326056,,,,,,,,,,,,,,,
pake,1,0,2.4356,0,24,24,47,1,conditions/german/pisch_7_6.wav,conditions/german/fisch_7_6.wav,conditions/german/pake_7_6.wav,conditions/german/pike_7_6.wav,48,0,5e3f7b673ba9991dc9cabcfa,Mexican,2022-03-23_15h39.45.446,german,2021.2.3,Win32,59.326056,,,,,,,,,,,,,,,
pike,1,0,2.0562,0,25,25,39,1,conditions/german/pisch_6_5.wav,conditions/german/fisch_6_5.wav,conditions/german/pake_6_5.wav,conditions/german/pike_6_5.wav,40,0,5e3f7b673ba9991dc9cabcfa,Mexican,2022-03-23_15h39.45.446,german,2021.2.3,Win32,59.326056,,,,,,,,,,,,,,,
fisch,1,0,2.2817,0,26,26,23,1,conditions/german/pisch_4_3.wav,conditions/german/fisch_4_3.wav,conditions/german/pake_4_3.wav,conditions/german/pike_4_3.wav,24,0,5e3f7b673ba9991dc9cabcfa,Mexican,2022-03-23_15h39.45.446,german,2021.2.3,Win32,59.326056,,,,,,,,,,,,,,,
pisch,1,0,2.0483,0,27,27,35,1,conditions/german/pisch_6_1.wav,conditions/german/fisch_6_1.wav,conditions/german/pake_6_1.wav,conditions/german/pike_6_1.wav,36,0,5e3f7b673ba9991dc9cabcfa,Mexican,2022-03-23_15h39.45.446,german,2021.2.3,Win32,59.326056,,,,,,,,,,,,,,,
pisch,0,1,2.3231,0,28,28,34,1,conditions/german/pisch_5_7.wav,conditions/german/fisch_5_7.wav,conditions/german/pake_5_7.wav,conditions/german/pike_5_7.wav,35,0,5e3f7b673ba9991dc9cabcfa,Mexican,2022-03-23_15h39.45.446,german,2021.2.3,Win32,59.326056,,,,,,,,,,,,,,,
pake,1,1,2.2155,0,29,29,32,1,conditions/german/pisch_5_5.wav,conditions/german/fisch_5_5.wav,conditions/german/pake_5_5.wav,conditions/german/pike_5_5.wav,33,1,5e3f7b673ba9991dc9cabcfa,Mexican,2022-03-23_15h39.45.446,german,2021.2.3,Win32,59.326056,,,,,,,,,,,,,,,
pisch,0,0,2.5503,0,30,30,8,1,conditions/german/pisch_2_2.wav,conditions/german/fisch_2_2.wav,conditions/german/pake_2_2.wav,conditions/german/pike_2_2.wav,9,1,5e3f7b673ba9991dc9cabcfa,Mexican,2022-03-23_15h39.45.446,german,2021.2.3,Win32,59.326056,,,,,,,,,,,,,,,
pike,0,1,2.7578,0,31,31,38,1,conditions/german/pisch_6_4.wav,conditions/german/fisch_6_4.wav,conditions/german/pake_6_4.wav,conditions/german/pike_6_4.wav,39,0,5e3f7b673ba9991dc9cabcfa,Mexican,2022-03-23_15h39.45.446,german,2021.2.3,Win32,59.326056,,,,,,,,,,,,,,,
pake,0,1,3.2473,0,32,32,28,1,conditions/german/pisch_5_1.wav,conditions/german/fisch_5_1.wav,conditions/german/pake_5_1.wav,conditions/german/pike_5_1.wav,29,0,5e3f7b673ba9991dc9cabcfa,Mexican,2022-03-23_15h39.45.446,german,2021.2.3,Win32,59.326056,,,,,,,,,,,,,,,
pisch,0,0,3.0027,0,33,33,0,1,conditions/german/pisch_1_1.wav,conditions/german/fisch_1_1.wav,conditions/german/pake_1_1.wav,conditions/german/pike_1_1.wav,1,1,5e3f7b673ba9991dc9cabcfa,Mexican,2022-03-23_15h39.45.446,german,2021.2.3,Win32,59.326056,,,,,,,,,,,,,,,
pike,0,1,2.2983,0,34,34,3,1,conditions/german/pisch_1_4.wav,conditions/german/fisch_1_4.wav,conditions/german/pake_1_4.wav,conditions/german/pike_1_4.wav,4,0,5e3f7b673ba9991dc9cabcfa,Mexican,2022-03-23_15h39.45.446,german,2021.2.3,Win32,59.326056,,,,,,,,,,,,,,,
fisch,0,1,2.3071,0,35,35,19,1,conditions/german/pisch_3_6.wav,conditions/german/fisch_3_6.wav,conditions/german/pake_3_6.wav,conditions/german/pike_3_6.wav,20,0,5e3f7b673ba9991dc9cabcfa,Mexican,2022-03-23_15h39.45.446,german,2021.2.3,Win32,59.326056,,,,,,,,,,,,,,,
pake,1,0,2.2188,0,36,36,25,1,conditions/german/pisch_4_5.wav,conditions/german/fisch_4_5.wav,conditions/german/pake_4_5.wav,conditions/german/pike_4_5.wav,26,0,5e3f7b673ba9991dc9cabcfa,Mexican,2022-03-23_15h39.45.446,german,2021.2.3,Win32,59.326056,,,,,,,,,,,,,,,
pike,1,0,4.2555,0,37,37,18,1,conditions/german/pisch_3_5.wav,conditions/german/fisch_3_5.wav,conditions/german/pake_3_5.wav,conditions/german/pike_3_5.wav,19,0,5e3f7b673ba9991dc9cabcfa,Mexican,2022-03-23_15h39.45.446,german,2021.2.3,Win32,59.326056,,,,,,,,,,,,,,,
pake,0,1,2.3678,0,38,38,6,1,conditions/german/pisch_1_7.wav,conditions/german/fisch_1_7.wav,conditions/german/pake_1_7.wav,conditions/german/pike_1_7.wav,7,0,5e3f7b673ba9991dc9cabcfa,Mexican,2022-03-23_15h39.45.446,german,2021.2.3,Win32,59.326056,,,,,,,,,,,,,,,
pake,1,0,2.7214,0,39,39,21,1,conditions/german/pisch_4_1.wav,conditions/german/fisch_4_1.wav,conditions/german/pake_4_1.wav,conditions/german/pike_4_1.wav,22,0,5e3f7b673ba9991dc9cabcfa,Mexican,2022-03-23_15h39.45.446,german,2021.2.3,Win32,59.326056,,,,,,,,,,,,,,,
fisch,0,1,2.6047,0,40,40,33,1,conditions/german/pisch_5_6.wav,conditions/german/fisch_5_6.wav,conditions/german/pake_5_6.wav,conditions/german/pike_5_6.wav,34,0,5e3f7b673ba9991dc9cabcfa,Mexican,2022-03-23_15h39.45.446,german,2021.2.3,Win32,59.326056,,,,,,,,,,,,,,,
pike,0,1,2.4064,0,41,41,7,1,conditions/german/pisch_2_1.wav,conditions/german/fisch_2_1.wav,conditions/german/pake_2_1.wav,conditions/german/pike_2_1.wav,8,0,5e3f7b673ba9991dc9cabcfa,Mexican,2022-03-23_15h39.45.446,german,2021.2.3,Win32,59.326056,,,,,,,,,,,,,,,
fisch,1,1,3.0302,0,42,42,16,1,conditions/german/pisch_3_3.wav,conditions/german/fisch_3_3.wav,conditions/german/pake_3_3.wav,conditions/german/pike_3_3.wav,17,1,5e3f7b673ba9991dc9cabcfa,Mexican,2022-03-23_15h39.45.446,german,2021.2.3,Win32,59.326056,,,,,,,,,,,,,,,
pisch,1,0,2.5649,0,43,43,11,1,conditions/german/pisch_2_5.wav,conditions/german/fisch_2_5.wav,conditions/german/pake_2_5.wav,conditions/german/pike_2_5.wav,12,0,5e3f7b673ba9991dc9cabcfa,Mexican,2022-03-23_15h39.45.446,german,2021.2.3,Win32,59.326056,,,,,,,,,,,,,,,
pike,1,0,2.5918,0,44,44,17,1,conditions/german/pisch_3_4.wav,conditions/german/fisch_3_4.wav,conditions/german/pake_3_4.wav,conditions/german/pike_3_4.wav,18,0,5e3f7b673ba9991dc9cabcfa,Mexican,2022-03-23_15h39.45.446,german,2021.2.3,Win32,59.326056,,,,,,,,,,,,,,,
pake,1,0,3.1663,0,45,45,36,1,conditions/german/pisch_6_2.wav,conditions/german/fisch_6_2.wav,conditions/german/pake_6_2.wav,conditions/german/pike_6_2.wav,37,0,5e3f7b673ba9991dc9cabcfa,Mexican,2022-03-23_15h39.45.446,german,2021.2.3,Win32,59.326056,,,,,,,,,,,,,,,
pike,0,1,2.0939,0,46,46,4,1,conditions/german/pisch_1_5.wav,conditions/german/fisch_1_5.wav,conditions/german/pake_1_5.wav,conditions/german/pike_1_5.wav,5,0,5e3f7b673ba9991dc9cabcfa,Mexican,2022-03-23_15h39.45.446,german,2021.2.3,Win32,59.326056,,,,,,,,,,,,,,,
fisch,1,1,3.0482,0,47,47,48,1,conditions/german/pisch_7_7.wav,conditions/german/fisch_7_7.wav,conditions/german/pake_7_7.wav,conditions/german/pike_7_7.wav,49,1,5e3f7b673ba9991dc9cabcfa,Mexican,2022-03-23_15h39.45.446,german,2021.2.3,Win32,59.326056,,,,,,,,,,,,,,,
pike,0,1,2.1423,0,48,48,42,1,conditions/german/pisch_7_1.wav,conditions/german/fisch_7_1.wav,conditions/german/pake_7_1.wav,conditions/german/pike_7_1.wav,43,0,5e3f7b673ba9991dc9cabcfa,Mexican,2022-03-23_15h39.45.446,german,2021.2.3,Win32,59.326056,,,,,,,,,,,,,,,
,,,,,,,,,,,,,43,0,5e3f7b673ba9991dc9cabcfa,Mexican,2022-03-23_15h39.45.446,german,2021.2.3,Win32,59.326056,space,1.217,pic,0,1,4.1002,0,0,0,42,1,conditions/french/fat_7_1.wav,conditions/french/fit_7_1.wav,conditions/french/pat_7_1.wav,conditions/french/pic_7_1.wav
,,,,,,,,,,,,,44,0,5e3f7b673ba9991dc9cabcfa,Mexican,2022-03-23_15h39.45.446,german,2021.2.3,Win32,59.326056,,,fit,0,1,1.8663,0,1,1,43,1,conditions/french/fat_7_2.wav,conditions/french/fit_7_2.wav,conditions/french/pat_7_2.wav,conditions/french/pic_7_2.wav
,,,,,,,,,,,,,46,0,5e3f7b673ba9991dc9cabcfa,Mexican,2022-03-23_15h39.45.446,german,2021.2.3,Win32,59.326056,,,pat,0,1,1.7848,0,2,2,45,1,conditions/french/fat_7_4.wav,conditions/french/fit_7_4.wav,conditions/french/pat_7_4.wav,conditions/french/pic_7_4.wav
,,,,,,,,,,,,,21,0,5e3f7b673ba9991dc9cabcfa,Mexican,2022-03-23_15h39.45.446,german,2021.2.3,Win32,59.326056,,,fat,0,1,1.9771,0,3,3,20,1,conditions/french/fat_3_7.wav,conditions/french/fit_3_7.wav,conditions/french/pat_3_7.wav,conditions/french/pic_3_7.wav
,,,,,,,,,,,,,6,0,5e3f7b673ba9991dc9cabcfa,Mexican,2022-03-23_15h39.45.446,german,2021.2.3,Win32,59.326056,,,fit,0,1,2.061,0,4,4,5,1,conditions/french/fat_1_6.wav,conditions/french/fit_1_6.wav,conditions/french/pat_1_6.wav,conditions/french/pic_1_6.wav
,,,,,,,,,,,,,15,0,5e3f7b673ba9991dc9cabcfa,Mexican,2022-03-23_15h39.45.446,german,2021.2.3,Win32,59.326056,,,fit,1,0,2.0542,0,5,5,14,1,conditions/french/fat_3_1.wav,conditions/french/fit_3_1.wav,conditions/french/pat_3_1.wav,conditions/french/pic_3_1.wav
,,,,,,,,,,,,,28,0,5e3f7b673ba9991dc9cabcfa,Mexican,2022-03-23_15h39.45.446,german,2021.2.3,Win32,59.326056,,,pat,0,1,2.5374,0,6,6,27,1,conditions/french/fat_4_7.wav,conditions/french/fit_4_7.wav,conditions/french/pat_4_7.wav,conditions/french/pic_4_7.wav
,,,,,,,,,,,,,23,0,5e3f7b673ba9991dc9cabcfa,Mexican,2022-03-23_15h39.45.446,german,2021.2.3,Win32,59.326056,,,fit,0,1,2.159,0,7,7,22,1,conditions/french/fat_4_2.wav,conditions/french/fit_4_2.wav,conditions/french/pat_4_2.wav,conditions/french/pic_4_2.wav
,,,,,,,,,,,,,9,1,5e3f7b673ba9991dc9cabcfa,Mexican,2022-03-23_15h39.45.446,german,2021.2.3,Win32,59.326056,,,pat,1,1,1.8704,0,8,8,8,1,conditions/french/fat_2_2.wav,conditions/french/fit_2_2.wav,conditions/french/pat_2_2.wav,conditions/french/pic_2_2.wav
,,,,,,,,,,,,,12,0,5e3f7b673ba9991dc9cabcfa,Mexican,2022-03-23_15h39.45.446,german,2021.2.3,Win32,59.326056,,,fit,0,1,1.8362,0,9,9,11,1,conditions/french/fat_2_5.wav,conditions/french/fit_2_5.wav,conditions/french/pat_2_5.wav,conditions/french/pic_2_5.wav
,,,,,,,,,,,,,19,0,5e3f7b673ba9991dc9cabcfa,Mexican,2022-03-23_15h39.45.446,german,2021.2.3,Win32,59.326056,,,fat,0,1,1.8474,0,10,10,18,1,conditions/french/fat_3_5.wav,conditions/french/fit_3_5.wav,conditions/french/pat_3_5.wav,conditions/french/pic_3_5.wav
,,,,,,,,,,,,,33,1,5e3f7b673ba9991dc9cabcfa,Mexican,2022-03-23_15h39.45.446,german,2021.2.3,Win32,59.326056,,,fit,1,1,1.7082,0,11,11,32,1,conditions/french/fat_5_5.wav,conditions/french/fit_5_5.wav,conditions/french/pat_5_5.wav,conditions/french/pic_5_5.wav
,,,,,,,,,,,,,31,0,5e3f7b673ba9991dc9cabcfa,Mexican,2022-03-23_15h39.45.446,german,2021.2.3,Win32,59.326056,,,pat,0,1,2.607,0,12,12,30,1,conditions/french/fat_5_3.wav,conditions/french/fit_5_3.wav,conditions/french/pat_5_3.wav,conditions/french/pic_5_3.wav
,,,,,,,,,,,,,3,0,5e3f7b673ba9991dc9cabcfa,Mexican,2022-03-23_15h39.45.446,german,2021.2.3,Win32,59.326056,,,fat,1,0,2.4316,0,13,13,2,1,conditions/french/fat_1_3.wav,conditions/french/fit_1_3.wav,conditions/french/pat_1_3.wav,conditions/french/pic_1_3.wav
,,,,,,,,,,,,,20,0,5e3f7b673ba9991dc9cabcfa,Mexican,2022-03-23_15h39.45.446,german,2021.2.3,Win32,59.326056,,,fit,0,1,2.0653,0,14,14,19,1,conditions/french/fat_3_6.wav,conditions/french/fit_3_6.wav,conditions/french/pat_3_6.wav,conditions/french/pic_3_6.wav
,,,,,,,,,,,,,22,0,5e3f7b673ba9991dc9cabcfa,Mexican,2022-03-23_15h39.45.446,german,2021.2.3,Win32,59.326056,,,pat,0,1,2.2258,0,15,15,21,1,conditions/french/fat_4_1.wav,conditions/french/fit_4_1.wav,conditions/french/pat_4_1.wav,conditions/french/pic_4_1.wav
,,,,,,,,,,,,,34,0,5e3f7b673ba9991dc9cabcfa,Mexican,2022-03-23_15h39.45.446,german,2021.2.3,Win32,59.326056,,,pat,0,1,1.8883,0,16,16,33,1,conditions/french/fat_5_6.wav,conditions/french/fit_5_6.wav,conditions/french/pat_5_6.wav,conditions/french/pic_5_6.wav
,,,,,,,,,,,,,18,0,5e3f7b673ba9991dc9cabcfa,Mexican,2022-03-23_15h39.45.446,german,2021.2.3,Win32,59.326056,,,fit,1,0,2.153,0,17,17,17,1,conditions/french/fat_3_4.wav,conditions/french/fit_3_4.wav,conditions/french/pat_3_4.wav,conditions/french/pic_3_4.wav
,,,,,,,,,,,,,13,0,5e3f7b673ba9991dc9cabcfa,Mexican,2022-03-23_15h39.45.446,german,2021.2.3,Win32,59.326056,,,pat,0,1,1.8844,0,18,18,12,1,conditions/french/fat_2_6.wav,conditions/french/fit_2_6.wav,conditions/french/pat_2_6.wav,conditions/french/pic_2_6.wav
,,,,,,,,,,,,,48,0,5e3f7b673ba9991dc9cabcfa,Mexican,2022-03-23_15h39.45.446,german,2021.2.3,Win32,59.326056,,,pat,1,0,2.2412,0,19,19,47,1,conditions/french/fat_7_6.wav,conditions/french/fit_7_6.wav,conditions/french/pat_7_6.wav,conditions/french/pic_7_6.wav
,,,,,,,,,,,,,8,0,5e3f7b673ba9991dc9cabcfa,Mexican,2022-03-23_15h39.45.446,german,2021.2.3,Win32,59.326056,,,fit,0,1,1.9214,0,20,20,7,1,conditions/french/fat_2_1.wav,conditions/french/fit_2_1.wav,conditions/french/pat_2_1.wav,conditions/french/pic_2_1.wav
,,,,,,,,,,,,,1,1,5e3f7b673ba9991dc9cabcfa,Mexican,2022-03-23_15h39.45.446,german,2021.2.3,Win32,59.326056,,,pic,0,0,2.1834,0,21,21,0,1,conditions/french/fat_1_1.wav,conditions/french/fit_1_1.wav,conditions/french/pat_1_1.wav,conditions/french/pic_1_1.wav
,,,,,,,,,,,,,49,1,5e3f7b673ba9991dc9cabcfa,Mexican,2022-03-23_15h39.45.446,german,2021.2.3,Win32,59.326056,,,fat,1,1,5.7123,0,22,22,48,1,conditions/french/fat_7_7.wav,conditions/french/fit_7_7.wav,conditions/french/pat_7_7.wav,conditions/french/pic_7_7.wav
,,,,,,,,,,,,,30,0,5e3f7b673ba9991dc9cabcfa,Mexican,2022-03-23_15h39.45.446,german,2021.2.3,Win32,59.326056,,,fat,0,1,1.97,0,23,23,29,1,conditions/french/fat_5_2.wav,conditions/french/fit_5_2.wav,conditions/french/pat_5_2.wav,conditions/french/pic_5_2.wav
,,,,,,,,,,,,,10,0,5e3f7b673ba9991dc9cabcfa,Mexican,2022-03-23_15h39.45.446,german,2021.2.3,Win32,59.326056,,,pat,1,0,1.7572,0,24,24,9,1,conditions/french/fat_2_3.wav,conditions/french/fit_2_3.wav,conditions/french/pat_2_3.wav,conditions/french/pic_2_3.wav
,,,,,,,,,,,,,17,1,5e3f7b673ba9991dc9cabcfa,Mexican,2022-03-23_15h39.45.446,german,2021.2.3,Win32,59.326056,,,pic,1,1,1.9526,0,25,25,16,1,conditions/french/fat_3_3.wav,conditions/french/fit_3_3.wav,conditions/french/pat_3_3.wav,conditions/french/pic_3_3.wav
,,,,,,,,,,,,,32,0,5e3f7b673ba9991dc9cabcfa,Mexican,2022-03-23_15h39.45.446,german,2021.2.3,Win32,59.326056,,,pic,1,0,2.0006,0,26,26,31,1,conditions/french/fat_5_4.wav,conditions/french/fit_5_4.wav,conditions/french/pat_5_4.wav,conditions/french/pic_5_4.wav
,,,,,,,,,,,,,24,0,5e3f7b673ba9991dc9cabcfa,Mexican,2022-03-23_15h39.45.446,german,2021.2.3,Win32,59.326056,,,pic,0,1,1.7656,0,27,27,23,1,conditions/french/fat_4_3.wav,conditions/french/fit_4_3.wav,conditions/french/pat_4_3.wav,conditions/french/pic_4_3.wav
,,,,,,,,,,,,,11,0,5e3f7b673ba9991dc9cabcfa,Mexican,2022-03-23_15h39.45.446,german,2021.2.3,Win32,59.326056,,,fit,0,1,2.5366,0,28,28,10,1,conditions/french/fat_2_4.wav,conditions/french/fit_2_4.wav,conditions/french/pat_2_4.wav,conditions/french/pic_2_4.wav
,,,,,,,,,,,,,38,0,5e3f7b673ba9991dc9cabcfa,Mexican,2022-03-23_15h39.45.446,german,2021.2.3,Win32,59.326056,,,fit,0,1,1.8215,0,29,29,37,1,conditions/french/fat_6_3.wav,conditions/french/fit_6_3.wav,conditions/french/pat_6_3.wav,conditions/french/pic_6_3.wav
,,,,,,,,,,,,,45,0,5e3f7b673ba9991dc9cabcfa,Mexican,2022-03-23_15h39.45.446,german,2021.2.3,Win32,59.326056,,,fit,0,1,1.4675,0,30,30,44,1,conditions/french/fat_7_3.wav,conditions/french/fit_7_3.wav,conditions/french/pat_7_3.wav,conditions/french/pic_7_3.wav
,,,,,,,,,,,,,26,0,5e3f7b673ba9991dc9cabcfa,Mexican,2022-03-23_15h39.45.446,german,2021.2.3,Win32,59.326056,,,fit,1,0,1.6907,0,31,31,25,1,conditions/french/fat_4_5.wav,conditions/french/fit_4_5.wav,conditions/french/pat_4_5.wav,conditions/french/pic_4_5.wav
,,,,,,,,,,,,,40,0,5e3f7b673ba9991dc9cabcfa,Mexican,2022-03-23_15h39.45.446,german,2021.2.3,Win32,59.326056,,,pat,1,0,1.6996,0,32,32,39,1,conditions/french/fat_6_5.wav,conditions/french/fit_6_5.wav,conditions/french/pat_6_5.wav,conditions/french/pic_6_5.wav
,,,,,,,,,,,,,35,0,5e3f7b673ba9991dc9cabcfa,Mexican,2022-03-23_15h39.45.446,german,2021.2.3,Win32,59.326056,,,fat,0,1,2.7881,0,33,33,34,1,conditions/french/fat_5_7.wav,conditions/french/fit_5_7.wav,conditions/french/pat_5_7.wav,conditions/french/pic_5_7.wav
,,,,,,,,,,,,,42,0,5e3f7b673ba9991dc9cabcfa,Mexican,2022-03-23_15h39.45.446,german,2021.2.3,Win32,59.326056,,,fat,1,0,1.9436,0,34,34,41,1,conditions/french/fat_6_7.wav,conditions/french/fit_6_7.wav,conditions/french/pat_6_7.wav,conditions/french/pic_6_7.wav
,,,,,,,,,,,,,7,0,5e3f7b673ba9991dc9cabcfa,Mexican,2022-03-23_15h39.45.446,german,2021.2.3,Win32,59.326056,,,pic,0,1,2.1166,0,35,35,6,1,conditions/french/fat_1_7.wav,conditions/french/fit_1_7.wav,conditions/french/pat_1_7.wav,conditions/french/pic_1_7.wav
,,,,,,,,,,,,,14,0,5e3f7b673ba9991dc9cabcfa,Mexican,2022-03-23_15h39.45.446,german,2021.2.3,Win32,59.326056,,,fat,0,1,1.9232,0,36,36,13,1,conditions/french/fat_2_7.wav,conditions/french/fit_2_7.wav,conditions/french/pat_2_7.wav,conditions/french/pic_2_7.wav
,,,,,,,,,,,,,25,1,5e3f7b673ba9991dc9cabcfa,Mexican,2022-03-23_15h39.45.446,german,2021.2.3,Win32,59.326056,,,pic,1,1,2.3582,0,37,37,24,1,conditions/french/fat_4_4.wav,conditions/french/fit_4_4.wav,conditions/french/pat_4_4.wav,conditions/french/pic_4_4.wav
,,,,,,,,,,,,,4,0,5e3f7b673ba9991dc9cabcfa,Mexican,2022-03-23_15h39.45.446,german,2021.2.3,Win32,59.326056,,,pat,0,1,1.7867,0,38,38,3,1,conditions/french/fat_1_4.wav,conditions/french/fit_1_4.wav,conditions/french/pat_1_4.wav,conditions/french/pic_1_4.wav
,,,,,,,,,,,,,39,0,5e3f7b673ba9991dc9cabcfa,Mexican,2022-03-23_15h39.45.446,german,2021.2.3,Win32,59.326056,,,pic,1,0,1.9877,0,39,39,38,1,conditions/french/fat_6_4.wav,conditions/french/fit_6_4.wav,conditions/french/pat_6_4.wav,conditions/french/pic_6_4.wav
,,,,,,,,,,,,,37,0,5e3f7b673ba9991dc9cabcfa,Mexican,2022-03-23_15h39.45.446,german,2021.2.3,Win32,59.326056,,,pat,0,1,1.6823,0,40,40,36,1,conditions/french/fat_6_2.wav,conditions/french/fit_6_2.wav,conditions/french/pat_6_2.wav,conditions/french/pic_6_2.wav
,,,,,,,,,,,,,47,0,5e3f7b673ba9991dc9cabcfa,Mexican,2022-03-23_15h39.45.446,german,2021.2.3,Win32,59.326056,,,fat,1,0,1.6565,0,41,41,46,1,conditions/french/fat_7_5.wav,conditions/french/fit_7_5.wav,conditions/french/pat_7_5.wav,conditions/french/pic_7_5.wav
,,,,,,,,,,,,,27,0,5e3f7b673ba9991dc9cabcfa,Mexican,2022-03-23_15h39.45.446,german,2021.2.3,Win32,59.326056,,,pic,1,0,2.5246,0,42,42,26,1,conditions/french/fat_4_6.wav,conditions/french/fit_4_6.wav,conditions/french/pat_4_6.wav,conditions/french/pic_4_6.wav
,,,,,,,,,,,,,36,0,5e3f7b673ba9991dc9cabcfa,Mexican,2022-03-23_15h39.45.446,german,2021.2.3,Win32,59.326056,,,pat,0,1,1.8242,0,43,43,35,1,conditions/french/fat_6_1.wav,conditions/french/fit_6_1.wav,conditions/french/pat_6_1.wav,conditions/french/pic_6_1.wav
,,,,,,,,,,,,,5,0,5e3f7b673ba9991dc9cabcfa,Mexican,2022-03-23_15h39.45.446,german,2021.2.3,Win32,59.326056,,,pic,0,1,1.7682,0,44,44,4,1,conditions/french/fat_1_5.wav,conditions/french/fit_1_5.wav,conditions/french/pat_1_5.wav,conditions/french/pic_1_5.wav
,,,,,,,,,,,,,2,0,5e3f7b673ba9991dc9cabcfa,Mexican,2022-03-23_15h39.45.446,german,2021.2.3,Win32,59.326056,,,pat,1,0,1.6396,0,45,45,1,1,conditions/french/fat_1_2.wav,conditions/french/fit_1_2.wav,conditions/french/pat_1_2.wav,conditions/french/pic_1_2.wav
,,,,,,,,,,,,,16,0,5e3f7b673ba9991dc9cabcfa,Mexican,2022-03-23_15h39.45.446,german,2021.2.3,Win32,59.326056,,,pat,1,0,1.5609,0,46,46,15,1,conditions/french/fat_3_2.wav,conditions/french/fit_3_2.wav,conditions/french/pat_3_2.wav,conditions/french/pic_3_2.wav
,,,,,,,,,,,,,29,0,5e3f7b673ba9991dc9cabcfa,Mexican,2022-03-23_15h39.45.446,german,2021.2.3,Win32,59.326056,,,fat,0,1,1.821,0,47,47,28,1,conditions/french/fat_5_1.wav,conditions/french/fit_5_1.wav,conditions/french/pat_5_1.wav,conditions/french/pic_5_1.wav
,,,,,,,,,,,,,41,1,5e3f7b673ba9991dc9cabcfa,Mexican,2022-03-23_15h39.45.446,german,2021.2.3,Win32,59.326056,,,fit,1,1,1.8082,0,48,48,40,1,conditions/french/fat_6_6.wav,conditions/french/fit_6_6.wav,conditions/french/pat_6_6.wav,conditions/french/pic_6_6.wav
