key_resp_2.keys,key_resp_2.rt,key_resp_5.keys,key_resp_5.rt,slider_2.response,slider_2.rt,trials_2.thisRepN,trials_2.thisTrialN,trials_2.thisN,trials_2.thisIndex,trials_2.ran,stim,participant,session,date,expName,psychopyVersion,OS,frameRate,key_resp_3.keys,key_resp_3.rt,key_resp_4.keys,key_resp_4.rt,slider.response,slider.rt,trials.thisRepN,trials.thisTrialN,trials.thisN,trials.thisIndex,trials.ran,key_resp.keys,key_resp.rt
space,7.3917,q,9.4273,5.983229167,4.4624,0,0,0,0,1,stim/sis.wav,60fd721cef9ca5a0df902e9a,001,2021-10-23_14h28.24.941,phoneme_categorization_task,2021.2.3,MacIntel,59.99880002,,,,,,,,,,,,,
,,m,10.7191,4.437708333,2.4074,0,1,1,1,1,stim/sos.wav,60fd721cef9ca5a0df902e9a,001,2021-10-23_14h28.24.941,phoneme_categorization_task,2021.2.3,MacIntel,59.99880002,,,,,,,,,,,,,
,,,,,,,,,,,stim/sus.wav,60fd721cef9ca5a0df902e9a,001,2021-10-23_14h28.24.941,phoneme_categorization_task,2021.2.3,MacIntel,59.99880002,space,1.4985,p,7.5758,2.805026042,1.8295,0,0,0,2,1,,
,,,,,,,,,,,stim/sis.wav,60fd721cef9ca5a0df902e9a,001,2021-10-23_14h28.24.941,phoneme_categorization_task,2021.2.3,MacIntel,59.99880002,,,z,3.8997,6.79046875,1.9875,0,1,1,0,1,,
,,,,,,,,,,,stim/sos.wav,60fd721cef9ca5a0df902e9a,001,2021-10-23_14h28.24.941,phoneme_categorization_task,2021.2.3,MacIntel,59.99880002,,,m,6.1892,5.978880208,1.3462,0,2,2,1,1,,
,,,,,,,,,,,stim/sys.wav,60fd721cef9ca5a0df902e9a,001,2021-10-23_14h28.24.941,phoneme_categorization_task,2021.2.3,MacIntel,59.99880002,,,z,3.9203,6.994947917,1.7144,0,3,3,3,1,,
,,,,,,,,,,,stim/sos.wav,60fd721cef9ca5a0df902e9a,001,2021-10-23_14h28.24.941,phoneme_categorization_task,2021.2.3,MacIntel,59.99880002,,,y,4.6497,5.844088542,1.3347,1,0,4,1,1,,
,,,,,,,,,,,stim/sus.wav,60fd721cef9ca5a0df902e9a,001,2021-10-23_14h28.24.941,phoneme_categorization_task,2021.2.3,MacIntel,59.99880002,,,p,6.6777,2.726276042,1.1131,1,1,5,2,1,,
,,,,,,,,,,,stim/sis.wav,60fd721cef9ca5a0df902e9a,001,2021-10-23_14h28.24.941,phoneme_categorization_task,2021.2.3,MacIntel,59.99880002,,,q,3.4361,6.996302083,1.1986,1,2,6,0,1,,
,,,,,,,,,,,stim/sys.wav,60fd721cef9ca5a0df902e9a,001,2021-10-23_14h28.24.941,phoneme_categorization_task,2021.2.3,MacIntel,59.99880002,,,q,6.1485,6.405625,1.0313,1,3,7,3,1,,
,,,,,,,,,,,stim/sus.wav,60fd721cef9ca5a0df902e9a,001,2021-10-23_14h28.24.941,phoneme_categorization_task,2021.2.3,MacIntel,59.99880002,,,p,9.2521,3.208072917,2.0475,2,0,8,2,1,,
,,,,,,,,,,,stim/sos.wav,60fd721cef9ca5a0df902e9a,001,2021-10-23_14h28.24.941,phoneme_categorization_task,2021.2.3,MacIntel,59.99880002,,,m,4.0058,6.987734375,1.2126,2,1,9,1,1,,
,,,,,,,,,,,stim/sis.wav,60fd721cef9ca5a0df902e9a,001,2021-10-23_14h28.24.941,phoneme_categorization_task,2021.2.3,MacIntel,59.99880002,,,q,4.7737,6.294791667,1.0705,2,2,10,0,1,,
,,,,,,,,,,,stim/sys.wav,60fd721cef9ca5a0df902e9a,001,2021-10-23_14h28.24.941,phoneme_categorization_task,2021.2.3,MacIntel,59.99880002,,,z,2.405,6.681432292,0.9247,2,3,11,3,1,,
,,,,,,,,,,,stim/sis.wav,60fd721cef9ca5a0df902e9a,001,2021-10-23_14h28.24.941,phoneme_categorization_task,2021.2.3,MacIntel,59.99880002,,,q,2.7711,6.780885417,1.1749,3,0,12,0,1,,
,,,,,,,,,,,stim/sos.wav,60fd721cef9ca5a0df902e9a,001,2021-10-23_14h28.24.941,phoneme_categorization_task,2021.2.3,MacIntel,59.99880002,,,m,4.1693,6.533697917,2.2964,3,1,13,1,1,,
,,,,,,,,,,,stim/sys.wav,60fd721cef9ca5a0df902e9a,001,2021-10-23_14h28.24.941,phoneme_categorization_task,2021.2.3,MacIntel,59.99880002,,,z,2.8886,6.712473958,1.8825,3,2,14,3,1,,
,,,,,,,,,,,stim/sus.wav,60fd721cef9ca5a0df902e9a,001,2021-10-23_14h28.24.941,phoneme_categorization_task,2021.2.3,MacIntel,59.99880002,,,p,3.7072,3.129088542,1.1864,3,3,15,2,1,,
,,,,,,,,,,,stim/sus.wav,60fd721cef9ca5a0df902e9a,001,2021-10-23_14h28.24.941,phoneme_categorization_task,2021.2.3,MacIntel,59.99880002,,,p,2.223,3.120364583,0.6431,4,0,16,2,1,,
,,,,,,,,,,,stim/sos.wav,60fd721cef9ca5a0df902e9a,001,2021-10-23_14h28.24.941,phoneme_categorization_task,2021.2.3,MacIntel,59.99880002,,,m,3.452,6.937786458,1.6174,4,1,17,1,1,,
,,,,,,,,,,,stim/sys.wav,60fd721cef9ca5a0df902e9a,001,2021-10-23_14h28.24.941,phoneme_categorization_task,2021.2.3,MacIntel,59.99880002,,,q,3.374,6.102317708,1.4974,4,2,18,3,1,,
,,,,,,,,,,,stim/sis.wav,60fd721cef9ca5a0df902e9a,001,2021-10-23_14h28.24.941,phoneme_categorization_task,2021.2.3,MacIntel,59.99880002,,,q,1.9514,6.9525,1.0002,4,3,19,0,1,,
,,,,,,,,,,,,60fd721cef9ca5a0df902e9a,001,2021-10-23_14h28.24.941,phoneme_categorization_task,2021.2.3,MacIntel,59.99880002,,,,,,,,,,,,space,14.6335
