key_resp_3.keys,key_resp_3.rt,key_resp_7.keys,key_resp_7.rt,key_resp_2.keys,key_resp_2.rt,slider.response,slider.rt,trials.thisRepN,trials.thisTrialN,trials.thisN,trials.thisIndex,trials.ran,stim,participant,session,date,expName,psychopyVersion,OS,frameRate,key_resp_5.keys,key_resp_5.rt,key_resp.keys,key_resp.rt,slider_2.response,slider_2.rt,trials_2.thisRepN,trials_2.thisTrialN,trials_2.thisN,trials_2.thisIndex,trials_2.ran,key_resp_6.keys,key_resp_6.rt
2,23.375,space,53.804,2,20.505,4.982222222,15.913,0,0,0,7,1,stim/f_schwa_g.wav,614413848bec31a0e770cc25,001,2022-03-18_11h29.14.860,span_vct,2021.2.3,MacIntel,500,,,,,,,,,,,,,
,,,,3,24.603,3.991111111,4.978,0,1,1,1,1,stim/pief_g.wav,614413848bec31a0e770cc25,001,2022-03-18_11h29.14.860,span_vct,2021.2.3,MacIntel,500,,,,,,,,,,,,,
,,,,7,15.031,2.013333333,7.386,0,2,2,5,1,stim/fief_g.wav,614413848bec31a0e770cc25,001,2022-03-18_11h29.14.860,span_vct,2021.2.3,MacIntel,500,,,,,,,,,,,,,
,,,,2,6.884,4.004444444,1.634,0,3,3,3,1,stim/p_schwa_g.wav,614413848bec31a0e770cc25,001,2022-03-18_11h29.14.860,span_vct,2021.2.3,MacIntel,500,,,,,,,,,,,,,
,,,,4,6.695,2.733333333,2.037,0,4,4,6,1,stim/feuf_g.wav,614413848bec31a0e770cc25,001,2022-03-18_11h29.14.860,span_vct,2021.2.3,MacIntel,500,,,,,,,,,,,,,
,,,,4,12.018,2.502222222,15.473,0,5,5,2,1,stim/peuf_g.wav,614413848bec31a0e770cc25,001,2022-03-18_11h29.14.860,span_vct,2021.2.3,MacIntel,500,,,,,,,,,,,,,
,,,,2,13.592,3.031111111,7.797,0,6,6,4,1,stim/fof_g.wav,614413848bec31a0e770cc25,001,2022-03-18_11h29.14.860,span_vct,2021.2.3,MacIntel,500,,,,,,,,,,,,,
,,,,2,5.436,3.053333333,1.405,0,7,7,0,1,stim/pof_g.wav,614413848bec31a0e770cc25,001,2022-03-18_11h29.14.860,span_vct,2021.2.3,MacIntel,500,,,,,,,,,,,,,
,,,,2,14.866,2.017777778,2.616,1,0,8,7,1,stim/f_schwa_g.wav,614413848bec31a0e770cc25,001,2022-03-18_11h29.14.860,span_vct,2021.2.3,MacIntel,500,,,,,,,,,,,,,
,,,,3,5.554,2.568888889,1.619,1,1,9,1,1,stim/pief_g.wav,614413848bec31a0e770cc25,001,2022-03-18_11h29.14.860,span_vct,2021.2.3,MacIntel,500,,,,,,,,,,,,,
,,,,4,5.592,2.991111111,3.629,1,2,10,6,1,stim/feuf_g.wav,614413848bec31a0e770cc25,001,2022-03-18_11h29.14.860,span_vct,2021.2.3,MacIntel,500,,,,,,,,,,,,,
,,,,4,7.332,2.995555556,2.114,1,3,11,0,1,stim/pof_g.wav,614413848bec31a0e770cc25,001,2022-03-18_11h29.14.860,span_vct,2021.2.3,MacIntel,500,,,,,,,,,,,,,
,,,,4,3.568,3.026666667,1.164,1,4,12,4,1,stim/fof_g.wav,614413848bec31a0e770cc25,001,2022-03-18_11h29.14.860,span_vct,2021.2.3,MacIntel,500,,,,,,,,,,,,,
,,,,3,3.102,3.546666667,1.991,1,5,13,5,1,stim/fief_g.wav,614413848bec31a0e770cc25,001,2022-03-18_11h29.14.860,span_vct,2021.2.3,MacIntel,500,,,,,,,,,,,,,
,,,,4,16.958,2.355555556,1.488,1,6,14,2,1,stim/peuf_g.wav,614413848bec31a0e770cc25,001,2022-03-18_11h29.14.860,span_vct,2021.2.3,MacIntel,500,,,,,,,,,,,,,
,,,,2,4.468,3.017777778,1.439,1,7,15,3,1,stim/p_schwa_g.wav,614413848bec31a0e770cc25,001,2022-03-18_11h29.14.860,span_vct,2021.2.3,MacIntel,500,,,,,,,,,,,,,
,,,,4,8.349,3.271111111,1.431,2,0,16,0,1,stim/pof_g.wav,614413848bec31a0e770cc25,001,2022-03-18_11h29.14.860,span_vct,2021.2.3,MacIntel,500,,,,,,,,,,,,,
,,,,4,45.064,2.582222222,1.951,2,1,17,4,1,stim/fof_g.wav,614413848bec31a0e770cc25,001,2022-03-18_11h29.14.860,span_vct,2021.2.3,MacIntel,500,,,,,,,,,,,,,
,,,,3,3.915,3.973333333,1.972,2,2,18,5,1,stim/fief_g.wav,614413848bec31a0e770cc25,001,2022-03-18_11h29.14.860,span_vct,2021.2.3,MacIntel,500,,,,,,,,,,,,,
,,,,2,4.544,4,1.22,2,3,19,3,1,stim/p_schwa_g.wav,614413848bec31a0e770cc25,001,2022-03-18_11h29.14.860,span_vct,2021.2.3,MacIntel,500,,,,,,,,,,,,,
,,,,3,3.051,4,0.603,2,4,20,1,1,stim/pief_g.wav,614413848bec31a0e770cc25,001,2022-03-18_11h29.14.860,span_vct,2021.2.3,MacIntel,500,,,,,,,,,,,,,
,,,,4,36.858,4,1.607,2,5,21,2,1,stim/peuf_g.wav,614413848bec31a0e770cc25,001,2022-03-18_11h29.14.860,span_vct,2021.2.3,MacIntel,500,,,,,,,,,,,,,
,,,,6,9.716,4,1.138,2,6,22,6,1,stim/feuf_g.wav,614413848bec31a0e770cc25,001,2022-03-18_11h29.14.860,span_vct,2021.2.3,MacIntel,500,,,,,,,,,,,,,
,,,,2,2.979,4.026666667,0.722,2,7,23,7,1,stim/f_schwa_g.wav,614413848bec31a0e770cc25,001,2022-03-18_11h29.14.860,span_vct,2021.2.3,MacIntel,500,,,,,,,,,,,,,
,,,,4,16.233,3.626666667,1.614,3,0,24,0,1,stim/pof_g.wav,614413848bec31a0e770cc25,001,2022-03-18_11h29.14.860,span_vct,2021.2.3,MacIntel,500,,,,,,,,,,,,,
,,,,2,3.094,4.017777778,1.581,3,1,25,3,1,stim/p_schwa_g.wav,614413848bec31a0e770cc25,001,2022-03-18_11h29.14.860,span_vct,2021.2.3,MacIntel,500,,,,,,,,,,,,,
,,,,4,15.247,4.017777778,0.595,3,2,26,2,1,stim/peuf_g.wav,614413848bec31a0e770cc25,001,2022-03-18_11h29.14.860,span_vct,2021.2.3,MacIntel,500,,,,,,,,,,,,,
,,,,3,4.052,4.017777778,2.52,3,3,27,1,1,stim/pief_g.wav,614413848bec31a0e770cc25,001,2022-03-18_11h29.14.860,span_vct,2021.2.3,MacIntel,500,,,,,,,,,,,,,
,,,,4,2.38,4.017777778,0.386,3,4,28,4,1,stim/fof_g.wav,614413848bec31a0e770cc25,001,2022-03-18_11h29.14.860,span_vct,2021.2.3,MacIntel,500,,,,,,,,,,,,,
,,,,3,1.796,4.017777778,0.837,3,5,29,5,1,stim/fief_g.wav,614413848bec31a0e770cc25,001,2022-03-18_11h29.14.860,span_vct,2021.2.3,MacIntel,500,,,,,,,,,,,,,
,,,,4,7.56,4.017777778,0.697,3,6,30,6,1,stim/feuf_g.wav,614413848bec31a0e770cc25,001,2022-03-18_11h29.14.860,span_vct,2021.2.3,MacIntel,500,,,,,,,,,,,,,
,,,,2,2.486,4.017777778,0.912,3,7,31,7,1,stim/f_schwa_g.wav,614413848bec31a0e770cc25,001,2022-03-18_11h29.14.860,span_vct,2021.2.3,MacIntel,500,,,,,,,,,,,,,
,,,,7,21.264,3.595555556,1.252,4,0,32,1,1,stim/pief_g.wav,614413848bec31a0e770cc25,001,2022-03-18_11h29.14.860,span_vct,2021.2.3,MacIntel,500,,,,,,,,,,,,,
,,,,2,1.965,3.986666667,1.153,4,1,33,7,1,stim/f_schwa_g.wav,614413848bec31a0e770cc25,001,2022-03-18_11h29.14.860,span_vct,2021.2.3,MacIntel,500,,,,,,,,,,,,,
,,,,7,3.761,3.986666667,1.631,4,2,34,5,1,stim/fief_g.wav,614413848bec31a0e770cc25,001,2022-03-18_11h29.14.860,span_vct,2021.2.3,MacIntel,500,,,,,,,,,,,,,
,,,,4,4.068,3.986666667,0.462,4,3,35,6,1,stim/feuf_g.wav,614413848bec31a0e770cc25,001,2022-03-18_11h29.14.860,span_vct,2021.2.3,MacIntel,500,,,,,,,,,,,,,
,,,,1,7.623,3.635555556,1.115,4,4,36,0,1,stim/pof_g.wav,614413848bec31a0e770cc25,001,2022-03-18_11h29.14.860,span_vct,2021.2.3,MacIntel,500,,,,,,,,,,,,,
,,,,4,13.292,3.862222222,1.064,4,5,37,2,1,stim/peuf_g.wav,614413848bec31a0e770cc25,001,2022-03-18_11h29.14.860,span_vct,2021.2.3,MacIntel,500,,,,,,,,,,,,,
,,,,2,2.717,3.862222222,0.419,4,6,38,3,1,stim/p_schwa_g.wav,614413848bec31a0e770cc25,001,2022-03-18_11h29.14.860,span_vct,2021.2.3,MacIntel,500,,,,,,,,,,,,,
,,,,4,12.015,3.862222222,0.365,4,7,39,4,1,stim/fof_g.wav,614413848bec31a0e770cc25,001,2022-03-18_11h29.14.860,span_vct,2021.2.3,MacIntel,500,,,,,,,,,,,,,
,,,,,,,,,,,,,stim/pof_f.wav,614413848bec31a0e770cc25,001,2022-03-18_11h29.14.860,span_vct,2021.2.3,MacIntel,500,space,10.351,2,17.073,4.026666667,1.315,0,0,0,0,1,,
,,,,,,,,,,,,,stim/peuf_f.wav,614413848bec31a0e770cc25,001,2022-03-18_11h29.14.860,span_vct,2021.2.3,MacIntel,500,,,3,20.085,3.648888889,1.156,0,1,1,2,1,,
,,,,,,,,,,,,,stim/feuf_f.wav,614413848bec31a0e770cc25,001,2022-03-18_11h29.14.860,span_vct,2021.2.3,MacIntel,500,,,6,7.509,4.111111111,1.188,0,2,2,6,1,,
,,,,,,,,,,,,,stim/f_schwa_f.wav,614413848bec31a0e770cc25,001,2022-03-18_11h29.14.860,span_vct,2021.2.3,MacIntel,500,,,5,5.013,4.044444444,1.195,0,3,3,7,1,,
,,,,,,,,,,,,,stim/p_schwa_f.wav,614413848bec31a0e770cc25,001,2022-03-18_11h29.14.860,span_vct,2021.2.3,MacIntel,500,,,2,3.963,4.044444444,0.466,0,4,4,3,1,,
,,,,,,,,,,,,,stim/fif_f.wav,614413848bec31a0e770cc25,001,2022-03-18_11h29.14.860,span_vct,2021.2.3,MacIntel,500,,,7,2.991,4.044444444,0.454,0,5,5,5,1,,
,,,,,,,,,,,,,stim/fof_f.wav,614413848bec31a0e770cc25,001,2022-03-18_11h29.14.860,span_vct,2021.2.3,MacIntel,500,,,2,2.711,3.955555556,0.881,0,6,6,4,1,,
,,,,,,,,,,,,,stim/pif_f.wav,614413848bec31a0e770cc25,001,2022-03-18_11h29.14.860,span_vct,2021.2.3,MacIntel,500,,,3,13.159,3.631111111,1.037,0,7,7,1,1,,
,,,,,,,,,,,,,stim/fif_f.wav,614413848bec31a0e770cc25,001,2022-03-18_11h29.14.860,span_vct,2021.2.3,MacIntel,500,,,7,6.634,3.857777778,1.029,1,0,8,5,1,,
,,,,,,,,,,,,,stim/pof_f.wav,614413848bec31a0e770cc25,001,2022-03-18_11h29.14.860,span_vct,2021.2.3,MacIntel,500,,,2,2.862,3.857777778,0.796,1,1,9,0,1,,
,,,,,,,,,,,,,stim/fof_f.wav,614413848bec31a0e770cc25,001,2022-03-18_11h29.14.860,span_vct,2021.2.3,MacIntel,500,,,2,1.962,3.857777778,0.524,1,2,10,4,1,,
,,,,,,,,,,,,,stim/feuf_f.wav,614413848bec31a0e770cc25,001,2022-03-18_11h29.14.860,span_vct,2021.2.3,MacIntel,500,,,6,3.152,3.973333333,1.666,1,3,11,6,1,,
,,,,,,,,,,,,,stim/pif_f.wav,614413848bec31a0e770cc25,001,2022-03-18_11h29.14.860,span_vct,2021.2.3,MacIntel,500,,,7,5.633,3.813333333,1.27,1,4,12,1,1,,
,,,,,,,,,,,,,stim/f_schwa_f.wav,614413848bec31a0e770cc25,001,2022-03-18_11h29.14.860,span_vct,2021.2.3,MacIntel,500,,,2,9.85,3.933333333,0.981,1,5,13,7,1,,
,,,,,,,,,,,,,stim/p_schwa_f.wav,614413848bec31a0e770cc25,001,2022-03-18_11h29.14.860,span_vct,2021.2.3,MacIntel,500,,,2,2.888,3.933333333,0.854,1,6,14,3,1,,
,,,,,,,,,,,,,stim/peuf_f.wav,614413848bec31a0e770cc25,001,2022-03-18_11h29.14.860,span_vct,2021.2.3,MacIntel,500,,,6,12.797,3.933333333,2.654,1,7,15,2,1,,
,,,,,,,,,,,,,stim/peuf_f.wav,614413848bec31a0e770cc25,001,2022-03-18_11h29.14.860,span_vct,2021.2.3,MacIntel,500,,,6,3.993,3.933333333,0.647,2,0,16,2,1,,
,,,,,,,,,,,,,stim/fof_f.wav,614413848bec31a0e770cc25,001,2022-03-18_11h29.14.860,span_vct,2021.2.3,MacIntel,500,,,2,3.071,3.933333333,1.412,2,1,17,4,1,,
,,,,,,,,,,,,,stim/pof_f.wav,614413848bec31a0e770cc25,001,2022-03-18_11h29.14.860,span_vct,2021.2.3,MacIntel,500,,,2,2.35,3.933333333,0.681,2,2,18,0,1,,
,,,,,,,,,,,,,stim/pif_f.wav,614413848bec31a0e770cc25,001,2022-03-18_11h29.14.860,span_vct,2021.2.3,MacIntel,500,,,7,3.155,4.008888889,1.048,2,3,19,1,1,,
,,,,,,,,,,,,,stim/fif_f.wav,614413848bec31a0e770cc25,001,2022-03-18_11h29.14.860,span_vct,2021.2.3,MacIntel,500,,,7,4.899,4.008888889,0.547,2,4,20,5,1,,
,,,,,,,,,,,,,stim/feuf_f.wav,614413848bec31a0e770cc25,001,2022-03-18_11h29.14.860,span_vct,2021.2.3,MacIntel,500,,,7,3.98,4.008888889,0.471,2,5,21,6,1,,
,,,,,,,,,,,,,stim/p_schwa_f.wav,614413848bec31a0e770cc25,001,2022-03-18_11h29.14.860,span_vct,2021.2.3,MacIntel,500,,,2,2.787,3.902222222,2.13,2,6,22,3,1,,
,,,,,,,,,,,,,stim/f_schwa_f.wav,614413848bec31a0e770cc25,001,2022-03-18_11h29.14.860,span_vct,2021.2.3,MacIntel,500,,,2,1.553,3.902222222,0.58,2,7,23,7,1,,
,,,,,,,,,,,,,stim/f_schwa_f.wav,614413848bec31a0e770cc25,001,2022-03-18_11h29.14.860,span_vct,2021.2.3,MacIntel,500,,,2,1.512,3.902222222,0.455,3,0,24,7,1,,
,,,,,,,,,,,,,stim/peuf_f.wav,614413848bec31a0e770cc25,001,2022-03-18_11h29.14.860,span_vct,2021.2.3,MacIntel,500,,,6,4.492,3.991111111,0.918,3,1,25,2,1,,
,,,,,,,,,,,,,stim/pif_f.wav,614413848bec31a0e770cc25,001,2022-03-18_11h29.14.860,span_vct,2021.2.3,MacIntel,500,,,7,2.753,3.991111111,0.571,3,2,26,1,1,,
,,,,,,,,,,,,,stim/pof_f.wav,614413848bec31a0e770cc25,001,2022-03-18_11h29.14.860,span_vct,2021.2.3,MacIntel,500,,,2,2.16,3.991111111,0.419,3,3,27,0,1,,
,,,,,,,,,,,,,stim/feuf_f.wav,614413848bec31a0e770cc25,001,2022-03-18_11h29.14.860,span_vct,2021.2.3,MacIntel,500,,,6,2.834,4.111111111,1.296,3,4,28,6,1,,
,,,,,,,,,,,,,stim/p_schwa_f.wav,614413848bec31a0e770cc25,001,2022-03-18_11h29.14.860,span_vct,2021.2.3,MacIntel,500,,,2,2.686,3.991111111,0.814,3,5,29,3,1,,
,,,,,,,,,,,,,stim/fif_f.wav,614413848bec31a0e770cc25,001,2022-03-18_11h29.14.860,span_vct,2021.2.3,MacIntel,500,,,7,2.178,4.008888889,0.831,3,6,30,5,1,,
,,,,,,,,,,,,,stim/fof_f.wav,614413848bec31a0e770cc25,001,2022-03-18_11h29.14.860,span_vct,2021.2.3,MacIntel,500,,,2,1.703,4.008888889,0.401,3,7,31,4,1,,
,,,,,,,,,,,,,stim/fof_f.wav,614413848bec31a0e770cc25,001,2022-03-18_11h29.14.860,span_vct,2021.2.3,MacIntel,500,,,2,1.54,4.008888889,0.387,4,0,32,4,1,,
,,,,,,,,,,,,,stim/feuf_f.wav,614413848bec31a0e770cc25,001,2022-03-18_11h29.14.860,span_vct,2021.2.3,MacIntel,500,,,6,2.318,4.062222222,1.248,4,1,33,6,1,,
,,,,,,,,,,,,,stim/peuf_f.wav,614413848bec31a0e770cc25,001,2022-03-18_11h29.14.860,span_vct,2021.2.3,MacIntel,500,,,6,5.952,4.062222222,0.867,4,2,34,2,1,,
,,,,,,,,,,,,,stim/p_schwa_f.wav,614413848bec31a0e770cc25,001,2022-03-18_11h29.14.860,span_vct,2021.2.3,MacIntel,500,,,2,2.393,3.991111111,1.17,4,3,35,3,1,,
,,,,,,,,,,,,,stim/fif_f.wav,614413848bec31a0e770cc25,001,2022-03-18_11h29.14.860,span_vct,2021.2.3,MacIntel,500,,,7,2.503,4.008888889,0.902,4,4,36,5,1,,
,,,,,,,,,,,,,stim/f_schwa_f.wav,614413848bec31a0e770cc25,001,2022-03-18_11h29.14.860,span_vct,2021.2.3,MacIntel,500,,,2,1.666,4.008888889,0.397,4,5,37,7,1,,
,,,,,,,,,,,,,stim/pof_f.wav,614413848bec31a0e770cc25,001,2022-03-18_11h29.14.860,span_vct,2021.2.3,MacIntel,500,,,2,5.38,4.008888889,0.389,4,6,38,0,1,,
,,,,,,,,,,,,,stim/pif_f.wav,614413848bec31a0e770cc25,001,2022-03-18_11h29.14.860,span_vct,2021.2.3,MacIntel,500,,,7,2.608,4.026666667,0.846,4,7,39,1,1,,
,,,,,,,,,,,,,,614413848bec31a0e770cc25,001,2022-03-18_11h29.14.860,span_vct,2021.2.3,MacIntel,500,,,,,,,,,,,,space,24.017
