stim,trials.thisRepN,trials.thisTrialN,trials.thisN,trials.thisIndex,trials_2.thisRepN,trials_2.thisTrialN,trials_2.thisN,trials_2.thisIndex,key_resp_3.keys,key_resp_3.rt,key_resp_3.started,key_resp_3.stopped,text_3.started,text_3.stopped,text_4.started,text_4.stopped,text_5.started,text_5.stopped,ins.started,ins.stopped,key_resp_7.keys,key_resp_7.rt,key_resp_7.started,key_resp_7.stopped,fun.started,fun.stopped,fought.started,fought.stopped,feel.started,feel.stopped,fool.started,fool.stopped,son.started,son.stopped,su.started,su.stopped,fin.started,fin.stopped,instructions_task.started,instructions_task.stopped,key_resp_2.keys,key_resp_2.rt,key_resp_2.started,key_resp_2.stopped,stimulus.started,stimulus.stopped,text_2.started,text_2.stopped,slider.response,slider.rt,slider.started,slider.stopped,text_6.started,text_6.stopped,key_resp_5.keys,key_resp_5.rt,key_resp_5.started,key_resp_5.stopped,text_7.started,text_7.stopped,fun_2.started,fun_2.stopped,fought_2.started,fought_2.stopped,feel_2.started,feel_2.stopped,fool_2.started,fool_2.stopped,son_2.started,son_2.stopped,su_2.started,su_2.stopped,fin_2.started,fin_2.stopped,instructions_task_2.started,instructions_task_2.stopped,key_resp.keys,key_resp.rt,key_resp.started,key_resp.stopped,stimulus_2.started,stimulus_2.stopped,text.started,text.stopped,slider_2.response,slider_2.rt,slider_2.started,slider_2.stopped,text_9.started,text_9.stopped,key_resp_6.keys,key_resp_6.rt,key_resp_6.started,key_resp_6.stopped,text_10.started,text_10.stopped,participant,session,date,expName,psychopyVersion,frameRate,
,,,,,,,,,1,2.001525457992102,25.57614512500004,None,,,,,,,,,,,,,,,,,,,,,,,,,,,,,,,,,,,,,,,,,,,,,,,,,,,,,,,,,,,,,,,,,,,,,,,,,,,,,,,,,,,,,,001,2022_Mar_17_1705,span_vct,2021.2.3,59.79345844660919,
,,,,,,,,,,,,,25.57614512500004,None,25.57614512500004,None,25.57614512500004,None,27.607520374993328,None,space,2.922180166002363,27.607520374993328,None,,,,,,,,,,,,,,,,,,,,,,,,,,,,,,,,,,,,,,,,,,,,,,,,,,,,,,,,,,,,,,,,,,,,,,,,,,001,2022_Mar_17_1705,span_vct,2021.2.3,59.79345844660919,
stim/feuf_g.wav,0,0,0,6,,,,,,,,,,,,,,,,,,,,,30.82459054100036,None,30.82459054100036,None,30.82459054100036,None,30.82459054100036,None,30.82459054100036,None,30.82459054100036,None,30.82459054100036,None,30.587495540996315,None,1,1.8254520409973338,30.587495540996315,None,30.874463212191767,None,30.587495540996315,30.79228549999243,3.1555555555555554,1.664467208989663,32.45026470799348,None,32.45026470799348,None,,,,,,,,,,,,,,,,,,,,,,,,,,,,,,,,,,,,,,,,,,,,001,2022_Mar_17_1705,span_vct,2021.2.3,59.79345844660919,
stim/peuf_g.wav,0,1,1,2,,,,,,,,,,,,,,,,,,,,,34.35782379099692,None,34.35782379099692,None,34.35782379099692,None,34.35782379099692,None,34.35782379099692,None,34.35782379099692,None,34.35782379099692,None,34.12459841599048,None,1,1.045136624990846,34.12459841599048,None,34.40811833719927,None,34.12459841599048,34.32534179100185,3.1555555555555554,0.33021699999517296,35.2005605000013,None,35.2005605000013,None,,,,,,,,,,,,,,,,,,,,,,,,,,,,,,,,,,,,,,,,,,,,001,2022_Mar_17_1705,span_vct,2021.2.3,59.79345844660919,
stim/pof_g.wav,0,2,2,0,,,,,,,,,,,,,,,,,,,,,35.775354582990985,None,35.775354582990985,None,35.775354582990985,None,35.775354582990985,None,35.775354582990985,None,35.775354582990985,None,35.775354582990985,None,35.541323333003675,None,1,0.3104889579990413,35.541323333003675,None,35.826730379190124,None,35.541323333003675,35.741982457999256,3.1555555555555554,0.33155820799584035,35.87667270799284,None,35.87667270799284,None,,,,,,,,,,,,,,,,,,,,,,,,,,,,,,,,,,,,,,,,,,,,001,2022_Mar_17_1705,span_vct,2021.2.3,59.79345844660919,
stim/p_schwa_g.wav,0,3,3,3,,,,,,,,,,,,,,,,,,,,,36.45802041600109,None,36.45802041600109,None,36.45802041600109,None,36.45802041600109,None,36.45802041600109,None,36.45802041600109,None,36.45802041600109,None,36.2246300830011,None,1,0.2351259580027545,36.2246300830011,None,None,None,36.2246300830011,36.425303165990044,3.1555555555555554,0.38075883299461566,36.491394415992545,None,36.491394415992545,None,,,,,,,,,,,,,,,,,,,,,,,,,,,,,,,,,,,,,,,,,,,,001,2022_Mar_17_1705,span_vct,2021.2.3,59.79345844660919,
stim/fof_g.wav,0,4,4,4,,,,,,,,,,,,,,,,,,,,,37.12488012500398,None,37.12488012500398,None,37.12488012500398,None,37.12488012500398,None,37.12488012500398,None,37.12488012500398,None,37.12488012500398,None,36.89151733300241,None,1,0.2721468329982599,36.89151733300241,None,37.174752754198565,None,36.89151733300241,37.091596332989866,3.1555555555555554,0.31493604100251105,37.19342216599034,None,37.19342216599034,None,,,,,,,,,,,,,,,,,,,,,,,,,,,,,,,,,,,,,,,,,,,,001,2022_Mar_17_1705,span_vct,2021.2.3,59.79345844660919,
stim/f_schwa_g.wav,0,5,5,7,,,,,,,,,,,,,,,,,,,,,37.75818445799814,None,37.75818445799814,None,37.75818445799814,None,37.75818445799814,None,37.75818445799814,None,37.75818445799814,None,37.75818445799814,None,37.52508279099129,None,1,0.2676967080042232,37.52508279099129,None,37.80810900419165,None,37.52508279099129,37.74215687499964,3.1555555555555554,0.3648489159968449,37.82451595799648,None,37.82451595799648,None,,,,,,,,,,,,,,,,,,,,,,,,,,,,,,,,,,,,,,,,,,,,001,2022_Mar_17_1705,span_vct,2021.2.3,59.79345844660919,
stim/fief_g.wav,0,6,6,5,,,,,,,,,,,,,,,,,,,,,38.44101487500302,None,38.44101487500302,None,38.44101487500302,None,38.44101487500302,None,38.44101487500302,None,38.44101487500302,None,38.44101487500302,None,38.20779429099639,None,1,0.666092583007412,38.20779429099639,None,38.491243504201705,None,38.20779429099639,38.40882425000018,3.1555555555555554,0.38158454099902883,38.893914540996775,None,38.893914540996775,None,,,,,,,,,,,,,,,,,,,,,,,,,,,,,,,,,,,,,,,,,,,,001,2022_Mar_17_1705,span_vct,2021.2.3,59.79345844660919,
stim/pief_g.wav,0,7,7,1,,,,,,,,,,,,,,,,,,,,,39.52516429100069,None,39.52516429100069,None,39.52516429100069,None,39.52516429100069,None,39.52516429100069,None,39.52516429100069,None,39.52516429100069,None,39.29140491600265,None,1,0.27939262399740983,39.29140491600265,None,39.57358933719952,None,39.29140491600265,39.49244383299083,3.1555555555555554,0.31349104100081604,39.59441499999957,None,39.59441499999957,None,,,,,,,,,,,,,,,,,,,,,,,,,,,,,,,,,,,,,,,,,,,,001,2022_Mar_17_1705,span_vct,2021.2.3,59.79345844660919,
stim/f_schwa_g.wav,1,0,8,7,,,,,,,,,,,,,,,,,,,,,40.158334291001665,None,40.158334291001665,None,40.158334291001665,None,40.158334291001665,None,40.158334291001665,None,40.158334291001665,None,40.158334291001665,None,39.92504091600131,None,1,0.34678354099742137,39.92504091600131,None,40.20839037920378,None,39.92504091600131,40.12511879099475,3.1555555555555554,0.34830958300153725,40.29447979100223,None,40.29447979100223,None,,,,,,,,,,,,,,,,,,,,,,,,,,,,,,,,,,,,,,,,,,,,001,2022_Mar_17_1705,span_vct,2021.2.3,59.79345844660919,
stim/fief_g.wav,1,1,9,5,,,,,,,,,,,,,,,,,,,,,40.891357874992536,None,40.891357874992536,None,40.891357874992536,None,40.891357874992536,None,40.891357874992536,None,40.891357874992536,None,40.891357874992536,None,40.65801291599928,None,1,0.2966839569999138,40.65801291599928,None,40.941501045202315,None,40.65801291599928,40.8584931660007,3.1555555555555554,0.5483286660019075,40.97781820798991,None,40.97781820798991,None,,,,,,,,,,,,,,,,,,,,,,,,,,,,,,,,,,,,,,,,,,,,001,2022_Mar_17_1705,span_vct,2021.2.3,59.79345844660919,
stim/fof_g.wav,1,2,10,4,,,,,,,,,,,,,,,,,,,,,41.774938754194594,None,41.774938754194594,None,41.774938754194594,None,41.774938754194594,None,41.774938754194594,None,41.774938754194594,None,41.774938754194594,None,41.54090133299178,None,1,0.20569775000330992,41.54090133299178,None,None,None,41.54090133299178,41.742201999993995,3.1555555555555554,0.7473065829981351,41.77780058300414,None,41.77780058300414,None,,,,,,,,,,,,,,,,,,,,,,,,,,,,,,,,,,,,,,,,,,,,001,2022_Mar_17_1705,span_vct,2021.2.3,59.79345844660919,
stim/peuf_g.wav,1,3,11,2,,,,,,,,,,,,,,,,,,,,,None,None,None,None,None,None,None,None,None,None,None,None,None,None,42.541879333002726,None,1,0.1279692500102101,42.541879333002726,None,None,None,42.541879333002726,None,3.1555555555555554,0.3639752079907339,42.69528074999107,None,42.69528074999107,None,,,,,,,,,,,,,,,,,,,,,,,,,,,,,,,,,,,,,,,,,,,,001,2022_Mar_17_1705,span_vct,2021.2.3,59.79345844660919,
stim/feuf_g.wav,1,4,12,6,,,,,,,,,,,,,,,,,,,,,None,None,None,None,None,None,None,None,None,None,None,None,None,None,43.073823083002935,None,1,0.19796304099145345,43.073823083002935,None,None,None,43.073823083002935,43.275859375004075,3.1555555555555554,0.3463951660087332,43.296582915994804,None,43.296582915994804,None,,,,,,,,,,,,,,,,,,,,,,,,,,,,,,,,,,,,,,,,,,,,001,2022_Mar_17_1705,span_vct,2021.2.3,59.79345844660919,
stim/pof_g.wav,1,5,13,0,,,,,,,,,,,,,,,,,,,,,None,None,None,None,None,None,None,None,None,None,None,None,None,None,43.65798604099837,None,1,0.1168368739890866,43.65798604099837,None,None,None,43.65798604099837,None,3.1555555555555554,0.3806869580002967,43.79441025000415,None,43.79441025000415,None,,,,,,,,,,,,,,,,,,,,,,,,,,,,,,,,,,,,,,,,,,,,001,2022_Mar_17_1705,span_vct,2021.2.3,59.79345844660919,
stim/pief_g.wav,1,6,14,1,,,,,,,,,,,,,,,,,,,,,None,None,None,None,None,None,None,None,None,None,None,None,None,None,44.19149870799447,None,1,0.08434737400966696,44.19149870799447,None,None,None,44.19149870799447,None,3.1555555555555554,0.3307772499974817,44.30906391599274,None,44.30906391599274,None,,,,,,,,,,,,,,,,,,,,,,,,,,,,,,,,,,,,,,,,,,,,001,2022_Mar_17_1705,span_vct,2021.2.3,59.79345844660919,
stim/p_schwa_g.wav,1,7,15,3,,,,,,,,,,,,,,,,,,,,,44.89194987919036,None,44.89194987919036,None,44.89194987919036,None,44.89194987919036,None,44.89194987919036,None,44.89194987919036,None,44.89194987919036,None,44.65813245800382,None,1,0.20884887399733998,44.65813245800382,None,None,None,44.65813245800382,44.858852416000445,3.1555555555555554,0.31360824999865144,44.89508179099357,None,44.89508179099357,None,,,,,,,,,,,,,,,,,,,,,,,,,,,,,,,,,,,,,,,,,,,,001,2022_Mar_17_1705,span_vct,2021.2.3,59.79345844660919,
stim/pof_g.wav,2,0,16,0,,,,,,,,,,,,,,,,,,,,,None,None,None,None,None,None,None,None,None,None,None,None,None,None,45.22468308299722,None,1,0.14007491600932553,45.22468308299722,None,None,None,45.22468308299722,None,3.1555555555555554,0.29818854200129863,45.39441129099578,None,45.39441129099578,None,,,,,,,,,,,,,,,,,,,,,,,,,,,,,,,,,,,,,,,,,,,,001,2022_Mar_17_1705,span_vct,2021.2.3,59.79345844660919,
stim/pief_g.wav,2,1,17,1,,,,,,,,,,,,,,,,,,,,,45.94134175419022,None,45.94134175419022,None,45.94134175419022,None,45.94134175419022,None,45.94134175419022,None,45.94134175419022,None,45.94134175419022,None,45.708129833001294,None,1,0.2065242909884546,45.708129833001294,None,None,None,45.708129833001294,45.9096119159949,3.1555555555555554,0.2814212499943096,45.944390124990605,None,45.944390124990605,None,,,,,,,,,,,,,,,,,,,,,,,,,,,,,,,,,,,,,,,,,,,,001,2022_Mar_17_1705,span_vct,2021.2.3,59.79345844660919,
stim/f_schwa_g.wav,2,2,18,7,,,,,,,,,,,,,,,,,,,,,None,None,None,None,None,None,None,None,None,None,None,None,None,None,46.24177187499299,None,1,0.17214483200223185,46.24177187499299,None,None,None,46.24177187499299,None,3.1555555555555554,0.3474300000088988,46.44535433300189,None,46.44535433300189,None,,,,,,,,,,,,,,,,,,,,,,,,,,,,,,,,,,,,,,,,,,,,001,2022_Mar_17_1705,span_vct,2021.2.3,59.79345844660919,
stim/feuf_g.wav,2,3,19,6,,,,,,,,,,,,,,,,,,,,,None,None,None,None,None,None,None,None,None,None,None,None,None,None,46.8082644160022,None,1,0.08054979100415949,46.8082644160022,None,None,None,46.8082644160022,None,3.1555555555555554,0.3794902919908054,46.91145270799461,None,46.91145270799461,None,,,,,,,,,,,,,,,,,,,,,,,,,,,,,,,,,,,,,,,,,,,,001,2022_Mar_17_1705,span_vct,2021.2.3,59.79345844660919,
stim/p_schwa_g.wav,2,4,20,3,,,,,,,,,,,,,,,,,,,,,None,None,None,None,None,None,None,None,None,None,None,None,None,None,47.307889832998626,None,1,0.16985779099923093,47.307889832998626,None,None,None,47.307889832998626,None,3.1555555555555554,0.2811975420045201,47.511108207996585,None,47.511108207996585,None,,,,,,,,,,,,,,,,,,,,,,,,,,,,,,,,,,,,,,,,,,,,001,2022_Mar_17_1705,span_vct,2021.2.3,59.79345844660919,
stim/peuf_g.wav,2,5,21,2,,,,,,,,,,,,,,,,,,,,,48.041000790995895,None,48.041000790995895,None,48.041000790995895,None,48.041000790995895,None,48.041000790995895,None,48.041000790995895,None,48.041000790995895,None,47.80837304099987,None,1,0.22429512400412932,47.80837304099987,None,None,None,47.80837304099987,48.009131790997344,3.1555555555555554,0.3491134579962818,48.06050887500169,None,48.06050887500169,None,,,,,,,,,,,,,,,,,,,,,,,,,,,,,,,,,,,,,,,,,,,,001,2022_Mar_17_1705,span_vct,2021.2.3,59.79345844660919,
stim/fof_g.wav,2,6,22,4,,,,,,,,,,,,,,,,,,,,,None,None,None,None,None,None,None,None,None,None,None,None,None,None,48.42505249999522,None,1,0.08983062399784103,48.42505249999522,None,None,None,48.42505249999522,None,3.1555555555555554,0.33142500001122244,48.54537387499295,None,48.54537387499295,None,,,,,,,,,,,,,,,,,,,,,,,,,,,,,,,,,,,,,,,,,,,,001,2022_Mar_17_1705,span_vct,2021.2.3,59.79345844660919,
stim/fief_g.wav,2,7,23,5,,,,,,,,,,,,,,,,,,,,,None,None,None,None,None,None,None,None,None,None,None,None,None,None,48.892015541001456,None,1,0.07563324899820145,48.892015541001456,None,None,None,48.892015541001456,None,3.1555555555555554,0.3473444999981439,48.99422404100187,None,48.99422404100187,None,,,,,,,,,,,,,,,,,,,,,,,,,,,,,,,,,,,,,,,,,,,,001,2022_Mar_17_1705,span_vct,2021.2.3,59.79345844660919,
stim/p_schwa_g.wav,3,0,24,3,,,,,,,,,,,,,,,,,,,,,None,None,None,None,None,None,None,None,None,None,None,None,None,None,49.35844337499293,None,1,0.04222274900530465,49.35844337499293,None,None,None,49.35844337499293,None,3.1555555555555554,0.36525545800395776,49.427860750001855,None,49.427860750001855,None,,,,,,,,,,,,,,,,,,,,,,,,,,,,,,,,,,,,,,,,,,,,001,2022_Mar_17_1705,span_vct,2021.2.3,59.79345844660919,
stim/peuf_g.wav,3,1,25,2,,,,,,,,,,,,,,,,,,,,,None,None,None,None,None,None,None,None,None,None,None,None,None,None,49.80807745800121,None,1,0.01975000000675209,49.80807745800121,None,None,None,49.80807745800121,None,3.1555555555555554,0.38140633299190085,49.86137937499734,None,49.86137937499734,None,,,,,,,,,,,,,,,,,,,,,,,,,,,,,,,,,,,,,,,,,,,,001,2022_Mar_17_1705,span_vct,2021.2.3,59.79345844660919,
stim/feuf_g.wav,3,2,26,6,,,,,,,,,,,,,,,,,,,,,None,None,None,None,None,None,None,None,None,None,None,None,None,None,50.258527790996595,None,1,0.12027599899738561,50.258527790996595,None,None,None,50.258527790996595,None,3.1555555555555554,0.3481231250043493,50.41131216599024,None,50.41131216599024,None,,,,,,,,,,,,,,,,,,,,,,,,,,,,,,,,,,,,,,,,,,,,001,2022_Mar_17_1705,span_vct,2021.2.3,59.79345844660919,
stim/pof_g.wav,3,3,27,0,,,,,,,,,,,,,,,,,,,,,None,None,None,None,None,None,None,None,None,None,None,None,None,None,50.77508745799423,None,1,0.026663500000722706,50.77508745799423,None,None,None,50.77508745799423,None,3.1555555555555554,0.38080904199159704,50.82925645800424,None,50.82925645800424,None,,,,,,,,,,,,,,,,,,,,,,,,,,,,,,,,,,,,,,,,,,,,001,2022_Mar_17_1705,span_vct,2021.2.3,59.79345844660919,
stim/fof_g.wav,3,4,28,4,,,,,,,,,,,,,,,,,,,,,None,None,None,None,None,None,None,None,None,None,None,None,None,None,51.22529666600167,None,1,0.14451112400274724,51.22529666600167,None,None,None,51.22529666600167,None,3.1555555555555554,0.28034504200331867,51.395565500002704,None,51.395565500002704,None,,,,,,,,,,,,,,,,,,,,,,,,,,,,,,,,,,,,,,,,,,,,001,2022_Mar_17_1705,span_vct,2021.2.3,59.79345844660919,
stim/pief_g.wav,3,5,29,1,,,,,,,,,,,,,,,,,,,,,None,None,None,None,None,None,None,None,None,None,None,None,None,None,51.6918347079918,None,1,0.08103112399112433,51.6918347079918,None,None,None,51.6918347079918,None,3.1555555555555554,0.38134929099760484,51.79426154099929,None,51.79426154099929,None,,,,,,,,,,,,,,,,,,,,,,,,,,,,,,,,,,,,,,,,,,,,001,2022_Mar_17_1705,span_vct,2021.2.3,59.79345844660919,
stim/f_schwa_g.wav,3,6,30,7,,,,,,,,,,,,,,,,,,,,,None,None,None,None,None,None,None,None,None,None,None,None,None,None,52.19183308299398,None,1,0.10102408300735988,52.19183308299398,None,None,None,52.19183308299398,None,3.1555555555555554,0.3311175420094514,52.3251417499996,None,52.3251417499996,None,,,,,,,,,,,,,,,,,,,,,,,,,,,,,,,,,,,,,,,,,,,,001,2022_Mar_17_1705,span_vct,2021.2.3,59.79345844660919,
stim/fief_g.wav,3,7,31,5,,,,,,,,,,,,,,,,,,,,,None,None,None,None,None,None,None,None,None,None,None,None,None,None,52.67468874999031,None,1,0.10607854099362157,52.67468874999031,None,None,None,52.67468874999031,None,3.1555555555555554,0.3478065829986008,52.81150441599311,None,52.81150441599311,None,,,,,,,,,,,,,,,,,,,,,,,,,,,,,,,,,,,,,,,,,,,,001,2022_Mar_17_1705,span_vct,2021.2.3,59.79345844660919,
stim/pof_g.wav,4,0,32,0,,,,,,,,,,,,,,,,,,,,,None,None,None,None,None,None,None,None,None,None,None,None,None,None,53.17563524999423,None,1,0.011267666006460786,53.17563524999423,None,None,None,53.17563524999423,None,3.1555555555555554,0.3981483750103507,53.210832915996434,None,53.210832915996434,None,,,,,,,,,,,,,,,,,,,,,,,,,,,,,,,,,,,,,,,,,,,,001,2022_Mar_17_1705,span_vct,2021.2.3,59.79345844660919,
stim/feuf_g.wav,4,1,33,6,,,,,,,,,,,,,,,,,,,,,None,None,None,None,None,None,None,None,None,None,None,None,None,None,53.62513466599921,None,1,0.013691666012164205,53.62513466599921,None,None,None,53.62513466599921,None,3.1555555555555554,0.448166542002582,53.66314999999304,None,53.66314999999304,None,,,,,,,,,,,,,,,,,,,,,,,,,,,,,,,,,,,,,,,,,,,,001,2022_Mar_17_1705,span_vct,2021.2.3,59.79345844660919,
stim/f_schwa_g.wav,4,2,34,7,,,,,,,,,,,,,,,,,,,,,54.357668249998824,None,54.357668249998824,None,54.357668249998824,None,54.357668249998824,None,54.357668249998824,None,54.357668249998824,None,54.357668249998824,None,54.12537966600212,None,1,0.2675038739980664,54.12537966600212,None,54.4075402542032,None,54.12537966600212,54.3266387499898,3.1555555555555554,0.016051291997428052,54.42663299999549,None,54.42663299999549,None,,,,,,,,,,,,,,,,,,,,,,,,,,,,,,,,,,,,,,,,,,,,001,2022_Mar_17_1705,span_vct,2021.2.3,59.79345844660919,
stim/fief_g.wav,4,3,35,5,,,,,,,,,,,,,,,,,,,,,None,None,None,None,None,None,None,None,None,None,None,None,None,None,54.45897308299027,None,1,0.19406841600721236,54.45897308299027,None,None,None,54.45897308299027,54.65907129099651,3.151111111111111,0.613477499995497,54.679227290995186,None,54.679227290995186,None,,,,,,,,,,,,,,,,,,,,,,,,,,,,,,,,,,,,,,,,,,,,001,2022_Mar_17_1705,span_vct,2021.2.3,59.79345844660919,
stim/fof_g.wav,4,4,36,4,,,,,,,,,,,,,,,,,,,,,None,None,None,None,None,None,None,None,None,None,None,None,None,None,55.3089610409952,None,1,0.13297662399418186,55.3089610409952,None,None,None,55.3089610409952,None,3.1555555555555554,0.297503499998129,55.46187225000176,None,55.46187225000176,None,,,,,,,,,,,,,,,,,,,,,,,,,,,,,,,,,,,,,,,,,,,,001,2022_Mar_17_1705,span_vct,2021.2.3,59.79345844660919,
stim/pief_g.wav,4,5,37,1,,,,,,,,,,,,,,,,,,,,,56.00871533299505,None,56.00871533299505,None,56.00871533299505,None,56.00871533299505,None,56.00871533299505,None,56.00871533299505,None,56.00871533299505,None,55.775621499997214,None,1,0.24938445701263845,55.775621499997214,None,None,None,55.775621499997214,55.97587054099131,3.151111111111111,0.23137233400484547,56.04557241599832,None,56.04557241599832,None,,,,,,,,,,,,,,,,,,,,,,,,,,,,,,,,,,,,,,,,,,,,001,2022_Mar_17_1705,span_vct,2021.2.3,59.79345844660919,
stim/p_schwa_g.wav,4,6,38,3,,,,,,,,,,,,,,,,,,,,,56.52553633299249,None,56.52553633299249,None,56.52553633299249,None,56.52553633299249,None,56.52553633299249,None,56.52553633299249,None,56.52553633299249,None,56.29207091599528,None,1,0.3036798329994781,56.29207091599528,None,56.57493883720163,None,56.29207091599528,56.49186108299182,3.151111111111111,0.3808015420072479,56.62555679099751,None,56.62555679099751,None,,,,,,,,,,,,,,,,,,,,,,,,,,,,,,,,,,,,,,,,,,,,001,2022_Mar_17_1705,span_vct,2021.2.3,59.79345844660919,
stim/peuf_g.wav,4,7,39,2,,,,,,,,,,,,,,,,,,,,,57.25881854099862,None,57.25881854099862,None,57.25881854099862,None,57.25881854099862,None,57.25881854099862,None,57.25881854099862,None,57.25881854099862,None,57.02540012499958,None,1,0.23530699899129104,57.02540012499958,None,None,None,57.02540012499958,57.22618183300074,3.151111111111111,0.26537916700181086,57.291239540994866,None,57.291239540994866,None,,,,,,,,,,,,,,,,,,,,,,,,,,,,,,,,,,,,,,,,,,,,001,2022_Mar_17_1705,span_vct,2021.2.3,59.79345844660919,
,,,,,,,,,,,,,,,,,,,,,,,,,,,,,,,,,,,,,,,,,,,,,,,,,,,,,,,space,2.5682671239919728,57.575455165992025,None,,,,,,,,,,,,,,,,,,,,,,,,,,,,,,,,,,,,,,,,001,2022_Mar_17_1705,span_vct,2021.2.3,59.79345844660919,
stim/pif_f.wav,,,,,0,0,0,1,,,,,,,,,,,,,,,,,,,,,,,,,,,,,,,,,,,,,,,,,,,,,,,,,,,57.575455165992025,None,60.42483674999676,None,60.42483674999676,None,60.42483674999676,None,60.42483674999676,None,60.42483674999676,None,60.42483674999676,None,60.42483674999676,None,60.180244916002266,None,1,1.2316311660106294,60.180244916002266,None,60.47502587920026,None,60.180244916002266,60.39323879100266,3.151111111111111,3.080654790988774,61.44345954099845,None,61.44345954099845,None,,,,,,,,001,2022_Mar_17_1705,span_vct,2021.2.3,59.79345844660919,
stim/pof_f.wav,,,,,0,1,1,0,,,,,,,,,,,,,,,,,,,,,,,,,,,,,,,,,,,,,,,,,,,,,,,,,,,,,64.77558849999332,None,64.77558849999332,None,64.77558849999332,None,64.77558849999332,None,64.77558849999332,None,64.77558849999332,None,64.77558849999332,None,64.5419017910026,None,1,0.5269878320104908,64.5419017910026,None,64.8253354201981,None,64.5419017910026,64.74311858299188,3.151111111111111,0.31494258299062494,65.09494308299327,None,65.09494308299327,None,,,,,,,,001,2022_Mar_17_1705,span_vct,2021.2.3,59.79345844660919,
stim/p_schwa_f.wav,,,,,0,2,2,3,,,,,,,,,,,,,,,,,,,,,,,,,,,,,,,,,,,,,,,,,,,,,,,,,,,,,65.65863649999665,None,65.65863649999665,None,65.65863649999665,None,65.65863649999665,None,65.65863649999665,None,65.65863649999665,None,65.65863649999665,None,65.42543379099516,None,1,0.5793072499945993,65.42543379099516,None,65.70859862920334,None,65.42543379099516,65.626126749994,3.151111111111111,0.3310731669917004,66.0288414999959,None,66.0288414999959,None,,,,,,,,001,2022_Mar_17_1705,span_vct,2021.2.3,59.79345844660919,
stim/fif_f.wav,,,,,0,3,3,5,,,,,,,,,,,,,,,,,,,,,,,,,,,,,,,,,,,,,,,,,,,,,,,,,,,,,66.60907237499487,None,66.60907237499487,None,66.60907237499487,None,66.60907237499487,None,66.60907237499487,None,66.60907237499487,None,66.60907237499487,None,66.37535674999526,None,1,0.9377500820119167,66.37535674999526,None,66.65885150419054,None,66.37535674999526,66.57582674999139,3.151111111111111,0.24880608401144855,67.34478254099668,None,67.34478254099668,None,,,,,,,,001,2022_Mar_17_1705,span_vct,2021.2.3,59.79345844660919,
stim/feuf_f.wav,,,,,0,4,4,6,,,,,,,,,,,,,,,,,,,,,,,,,,,,,,,,,,,,,,,,,,,,,,,,,,,,,67.84212791599566,None,67.84212791599566,None,67.84212791599566,None,67.84212791599566,None,67.84212791599566,None,67.84212791599566,None,67.84212791599566,None,67.6085177079949,None,1,0.4773558329907246,67.6085177079949,None,67.89200550419191,None,67.6085177079949,67.80945387500105,3.151111111111111,0.31499574999907054,68.11142229099642,None,68.11142229099642,None,,,,,,,,001,2022_Mar_17_1705,span_vct,2021.2.3,59.79345844660919,
stim/fof_f.wav,,,,,0,5,5,4,,,,,,,,,,,,,,,,,,,,,,,,,,,,,,,,,,,,,,,,,,,,,,,,,,,,,68.67561637499603,None,68.67561637499603,None,68.67561637499603,None,68.67561637499603,None,68.67561637499603,None,68.67561637499603,None,68.67561637499603,None,68.44213512499118,None,1,0.5796901249996154,68.44213512499118,None,68.72539292019356,None,68.44213512499118,68.6431933749991,3.151111111111111,0.28358412500529084,69.04469629099185,None,69.04469629099185,None,,,,,,,,001,2022_Mar_17_1705,span_vct,2021.2.3,59.79345844660919,
stim/f_schwa_f.wav,,,,,0,6,6,7,,,,,,,,,,,,,,,,,,,,,,,,,,,,,,,,,,,,,,,,,,,,,,,,,,,,,69.57637279099436,None,69.57637279099436,None,69.57637279099436,None,69.57637279099436,None,69.57637279099436,None,69.57637279099436,None,69.57637279099436,None,69.34205516599468,None,1,1.7428291240066756,69.34205516599468,None,69.6253082541909,None,69.34205516599468,69.54348979100178,3.151111111111111,0.1476138329890091,71.1122325000033,None,71.1122325000033,None,,,,,,,,001,2022_Mar_17_1705,span_vct,2021.2.3,59.79345844660919,
stim/peuf_f.wav,,,,,0,7,7,2,,,,,,,,,,,,,,,,,,,,,,,,,,,,,,,,,,,,,,,,,,,,,,,,,,,,,71.5092806659959,None,71.5092806659959,None,71.5092806659959,None,71.5092806659959,None,71.5092806659959,None,71.5092806659959,None,71.5092806659959,None,71.2752834999992,None,1,0.4953684989886824,71.2752834999992,None,71.55861225419649,None,71.2752834999992,71.47675266599981,3.151111111111111,0.21356416700291447,71.79500495799584,None,71.79500495799584,None,,,,,,,,001,2022_Mar_17_1705,span_vct,2021.2.3,59.79345844660919,
stim/peuf_f.wav,,,,,1,0,8,2,,,,,,,,,,,,,,,,,,,,,,,,,,,,,,,,,,,,,,,,,,,,,,,,,,,,,72.25859008300176,None,72.25859008300176,None,72.25859008300176,None,72.25859008300176,None,72.25859008300176,None,72.25859008300176,None,72.25859008300176,None,72.02532358300232,None,1,0.2745516240102006,72.02532358300232,None,72.30905033720337,None,72.02532358300232,72.22640629099624,3.151111111111111,0.2654365839989623,72.32779866599594,None,72.32779866599594,None,,,,,,,,001,2022_Mar_17_1705,span_vct,2021.2.3,59.79345844660919,
stim/pof_f.wav,,,,,1,1,9,0,,,,,,,,,,,,,,,,,,,,,,,,,,,,,,,,,,,,,,,,,,,,,,,,,,,,,72.84240399999544,None,72.84240399999544,None,72.84240399999544,None,72.84240399999544,None,72.84240399999544,None,72.84240399999544,None,72.84240399999544,None,72.60895249999885,None,1,0.31580670800758526,72.60895249999885,None,72.89261083719175,None,72.60895249999885,72.80852116599272,3.151111111111111,0.33138829199015163,72.94456083299883,None,72.94456083299883,None,,,,,,,,001,2022_Mar_17_1705,span_vct,2021.2.3,59.79345844660919,
stim/fif_f.wav,,,,,1,2,10,5,,,,,,,,,,,,,,,,,,,,,,,,,,,,,,,,,,,,,,,,,,,,,,,,,,,,,73.52555704099359,None,73.52555704099359,None,73.52555704099359,None,73.52555704099359,None,73.52555704099359,None,73.52555704099359,None,73.52555704099359,None,73.29234579099284,None,1,0.25131495800451376,73.29234579099284,None,73.57480292020337,None,73.29234579099284,73.49331387499114,3.151111111111111,0.3156597920024069,73.57581195799867,None,73.57581195799867,None,,,,,,,,001,2022_Mar_17_1705,span_vct,2021.2.3,59.79345844660919,
stim/p_schwa_f.wav,,,,,1,3,11,3,,,,,,,,,,,,,,,,,,,,,,,,,,,,,,,,,,,,,,,,,,,,,,,,,,,,,None,None,None,None,None,None,None,None,None,None,None,None,None,None,73.90919312500046,None,1,0.13750345799780916,73.90919312500046,None,None,None,73.90919312500046,None,3.151111111111111,0.3986070410028333,74.07757399999537,None,74.07757399999537,None,,,,,,,,001,2022_Mar_17_1705,span_vct,2021.2.3,59.79345844660919,
stim/fof_f.wav,,,,,1,4,12,4,,,,,,,,,,,,,,,,,,,,,,,,,,,,,,,,,,,,,,,,,,,,,,,,,,,,,None,None,None,None,None,None,None,None,None,None,None,None,None,None,74.49266020799405,None,1,0.13292204099707305,74.49266020799405,None,None,None,74.49266020799405,None,3.151111111111111,0.31454729099641554,74.64545008300047,None,74.64545008300047,None,,,,,,,,001,2022_Mar_17_1705,span_vct,2021.2.3,59.79345844660919,
stim/feuf_f.wav,,,,,1,5,13,6,,,,,,,,,,,,,,,,,,,,,,,,,,,,,,,,,,,,,,,,,,,,,,,,,,,,,75.20856245799223,None,75.20856245799223,None,75.20856245799223,None,75.20856245799223,None,75.20856245799223,None,75.20856245799223,None,75.20856245799223,None,74.97572349999973,None,1,0.32697258300322574,74.97572349999973,None,75.2585138792012,None,74.97572349999973,75.17579070800275,3.151111111111111,0.3147369170037564,75.32806641599745,None,75.32806641599745,None,,,,,,,,001,2022_Mar_17_1705,span_vct,2021.2.3,59.79345844660919,
stim/pif_f.wav,,,,,1,6,14,1,,,,,,,,,,,,,,,,,,,,,,,,,,,,,,,,,,,,,,,,,,,,,,,,,,,,,75.89181287499378,None,75.89181287499378,None,75.89181287499378,None,75.89181287499378,None,75.89181287499378,None,75.89181287499378,None,75.89181287499378,None,75.65864945799694,None,1,0.23128479099250399,75.65864945799694,None,None,None,75.65864945799694,75.85952212499978,3.151111111111111,0.21557345800101757,75.91169254099077,None,75.91169254099077,None,,,,,,,,001,2022_Mar_17_1705,span_vct,2021.2.3,59.79345844660919,
stim/f_schwa_f.wav,,,,,1,7,15,7,,,,,,,,,,,,,,,,,,,,,,,,,,,,,,,,,,,,,,,,,,,,,,,,,,,,,76.37515179099864,None,76.37515179099864,None,76.37515179099864,None,76.37515179099864,None,76.37515179099864,None,76.37515179099864,None,76.37515179099864,None,76.14203441599966,None,1,0.3378287490049843,76.14203441599966,None,76.42563017019275,None,76.14203441599966,76.3422421659925,3.151111111111111,0.2815166660002433,76.51180333299271,None,76.51180333299271,None,,,,,,,,001,2022_Mar_17_1705,span_vct,2021.2.3,59.79345844660919,
stim/fof_f.wav,,,,,2,0,16,4,,,,,,,,,,,,,,,,,,,,,,,,,,,,,,,,,,,,,,,,,,,,,,,,,,,,,77.04213891600375,None,77.04213891600375,None,77.04213891600375,None,77.04213891600375,None,77.04213891600375,None,77.04213891600375,None,77.04213891600375,None,76.8087752499996,None,1,0.29603716600104235,76.8087752499996,None,77.09229279520078,None,76.8087752499996,77.01012008299585,3.151111111111111,0.331903083002544,77.1285616660025,None,77.1285616660025,None,,,,,,,,001,2022_Mar_17_1705,span_vct,2021.2.3,59.79345844660919,
stim/pif_f.wav,,,,,2,1,17,1,,,,,,,,,,,,,,,,,,,,,,,,,,,,,,,,,,,,,,,,,,,,,,,,,,,,,None,None,None,None,None,None,None,None,None,None,None,None,None,None,77.47563245799392,None,1,0.15925616600725334,77.47563245799392,None,None,None,77.47563245799392,None,3.151111111111111,0.36202425000374205,77.66508304099261,None,77.66508304099261,None,,,,,,,,001,2022_Mar_17_1705,span_vct,2021.2.3,59.79345844660919,
stim/feuf_f.wav,,,,,2,2,18,6,,,,,,,,,,,,,,,,,,,,,,,,,,,,,,,,,,,,,,,,,,,,,,,,,,,,,None,None,None,None,None,None,None,None,None,None,None,None,None,None,78.04248541599372,None,1,0.1262252489977982,78.04248541599372,None,None,None,78.04248541599372,None,3.151111111111111,0.3652947079972364,78.19478750000417,None,78.19478750000417,None,,,,,,,,001,2022_Mar_17_1705,span_vct,2021.2.3,59.79345844660919,
stim/fif_f.wav,,,,,2,3,19,5,,,,,,,,,,,,,,,,,,,,,,,,,,,,,,,,,,,,,,,,,,,,,,,,,,,,,78.80875116599782,None,78.80875116599782,None,78.80875116599782,None,78.80875116599782,None,78.80875116599782,None,78.80875116599782,None,78.80875116599782,None,78.575004540995,None,1,0.35593637499550823,78.575004540995,None,78.85877375419223,None,78.575004540995,78.77576187500381,3.151111111111111,0.16489458399883006,78.96231008299219,None,78.96231008299219,None,,,,,,,,001,2022_Mar_17_1705,span_vct,2021.2.3,59.79345844660919,
stim/f_schwa_f.wav,,,,,2,4,20,7,,,,,,,,,,,,,,,,,,,,,,,,,,,,,,,,,,,,,,,,,,,,,,,,,,,,,79.37544233299559,None,79.37544233299559,None,79.37544233299559,None,79.37544233299559,None,79.37544233299559,None,79.37544233299559,None,79.37544233299559,None,79.14243587499368,None,1,0.2371770409954479,79.14243587499368,None,None,None,79.14243587499368,79.34265774999221,3.151111111111111,0.38310666699544527,79.41054674999032,None,79.41054674999032,None,,,,,,,,001,2022_Mar_17_1705,span_vct,2021.2.3,59.79345844660919,
stim/p_schwa_f.wav,,,,,2,5,21,3,,,,,,,,,,,,,,,,,,,,,,,,,,,,,,,,,,,,,,,,,,,,,,,,,,,,,None,None,None,None,None,None,None,None,None,None,None,None,None,None,79.80885645799572,None,1,0.13901658299437258,79.80885645799572,None,None,None,79.80885645799572,None,3.151111111111111,0.36484116700012237,79.97878750000382,None,79.97878750000382,None,,,,,,,,001,2022_Mar_17_1705,span_vct,2021.2.3,59.79345844660919,
stim/pof_f.wav,,,,,2,6,22,0,,,,,,,,,,,,,,,,,,,,,,,,,,,,,,,,,,,,,,,,,,,,,,,,,,,,,None,None,None,None,None,None,None,None,None,None,None,None,None,None,80.35900158299773,None,1,0.11681220699392725,80.35900158299773,None,None,None,80.35900158299773,None,3.151111111111111,0.4314882089965977,80.49578541600204,None,80.49578541600204,None,,,,,,,,001,2022_Mar_17_1705,span_vct,2021.2.3,59.79345844660919,
stim/peuf_f.wav,,,,,2,7,23,2,,,,,,,,,,,,,,,,,,,,,,,,,,,,,,,,,,,,,,,,,,,,,,,,,,,,,None,None,None,None,None,None,None,None,None,None,None,None,None,None,80.9423538330011,None,1,0.07657829100207891,80.9423538330011,None,None,None,80.9423538330011,None,3.151111111111111,0.43095566700503696,81.04681349999737,None,81.04681349999737,None,,,,,,,,001,2022_Mar_17_1705,span_vct,2021.2.3,59.79345844660919,
stim/feuf_f.wav,,,,,3,0,24,6,,,,,,,,,,,,,,,,,,,,,,,,,,,,,,,,,,,,,,,,,,,,,,,,,,,,,None,None,None,None,None,None,None,None,None,None,None,None,None,None,81.4923953749967,None,1,0.10956749899196438,81.4923953749967,None,None,None,81.4923953749967,None,3.151111111111111,0.3972193329973379,81.62940537500253,None,81.62940537500253,None,,,,,,,,001,2022_Mar_17_1705,span_vct,2021.2.3,59.79345844660919,
stim/p_schwa_f.wav,,,,,3,1,25,3,,,,,,,,,,,,,,,,,,,,,,,,,,,,,,,,,,,,,,,,,,,,,,,,,,,,,None,None,None,None,None,None,None,None,None,None,None,None,None,None,82.04244345799088,None,1,0.12030766600219067,82.04244345799088,None,None,None,82.04244345799088,None,3.151111111111111,0.480733375006821,82.19499554099457,None,82.19499554099457,None,,,,,,,,001,2022_Mar_17_1705,span_vct,2021.2.3,59.79345844660919,
stim/fof_f.wav,,,,,3,2,26,4,,,,,,,,,,,,,,,,,,,,,,,,,,,,,,,,,,,,,,,,,,,,,,,,,,,,,None,None,None,None,None,None,None,None,None,None,None,None,None,None,82.69243345799623,None,1,0.06547520800086204,82.69243345799623,None,None,None,82.69243345799623,None,3.151111111111111,0.4134595000068657,82.7789454159938,None,82.7789454159938,None,,,,,,,,001,2022_Mar_17_1705,span_vct,2021.2.3,59.79345844660919,
stim/f_schwa_f.wav,,,,,3,3,27,7,,,,,,,,,,,,,,,,,,,,,,,,,,,,,,,,,,,,,,,,,,,,,,,,,,,,,83.44247645800351,None,83.44247645800351,None,83.44247645800351,None,83.44247645800351,None,83.44247645800351,None,83.44247645800351,None,83.44247645800351,None,83.20899154100334,None,1,0.23300787499465514,83.20899154100334,None,None,None,83.20899154100334,83.4096334999922,3.151111111111111,0.364893750011106,83.46171962500375,None,83.46171962500375,None,,,,,,,,001,2022_Mar_17_1705,span_vct,2021.2.3,59.79345844660919,
stim/peuf_f.wav,,,,,3,4,28,2,,,,,,,,,,,,,,,,,,,,,,,,,,,,,,,,,,,,,,,,,,,,,,,,,,,,,84.07565179099038,None,84.07565179099038,None,84.07565179099038,None,84.07565179099038,None,84.07565179099038,None,84.07565179099038,None,84.07565179099038,None,83.84238349999941,None,1,0.2793561660073465,83.84238349999941,None,84.12545417020301,None,83.84238349999941,84.04253379099828,3.151111111111111,0.43132920800417196,84.14560858299956,None,84.14560858299956,None,,,,,,,,001,2022_Mar_17_1705,span_vct,2021.2.3,59.79345844660919,
stim/pif_f.wav,,,,,3,5,29,1,,,,,,,,,,,,,,,,,,,,,,,,,,,,,,,,,,,,,,,,,,,,,,,,,,,,,84.82598529099778,None,84.82598529099778,None,84.82598529099778,None,84.82598529099778,None,84.82598529099778,None,84.82598529099778,None,84.82598529099778,None,84.59262579100323,None,1,0.2552624160016421,84.59262579100323,None,84.87596521219093,None,84.59262579100323,84.79291162500158,3.151111111111111,0.4319940829882398,84.87881770799868,None,84.87881770799868,None,,,,,,,,001,2022_Mar_17_1705,span_vct,2021.2.3,59.79345844660919,
stim/pof_f.wav,,,,,3,6,30,0,,,,,,,,,,,,,,,,,,,,,,,,,,,,,,,,,,,,,,,,,,,,,,,,,,,,,85.55933020799421,None,85.55933020799421,None,85.55933020799421,None,85.55933020799421,None,85.55933020799421,None,85.55933020799421,None,85.55933020799421,None,85.32574983299128,None,1,0.3312008750071982,85.32574983299128,None,85.60901921220211,None,85.32574983299128,85.52621566600283,3.151111111111111,0.38110183298704214,85.67876045800222,None,85.67876045800222,None,,,,,,,,001,2022_Mar_17_1705,span_vct,2021.2.3,59.79345844660919,
stim/fif_f.wav,,,,,3,7,31,5,,,,,,,,,,,,,,,,,,,,,,,,,,,,,,,,,,,,,,,,,,,,,,,,,,,,,86.30923216599331,None,86.30923216599331,None,86.30923216599331,None,86.30923216599331,None,86.30923216599331,None,86.30923216599331,None,86.30923216599331,None,86.07593012499274,None,1,0.24311858300643507,86.07593012499274,None,None,None,86.07593012499274,86.27610887499759,3.151111111111111,0.38196037500165403,86.34487558300316,None,86.34487558300316,None,,,,,,,,001,2022_Mar_17_1705,span_vct,2021.2.3,59.79345844660919,
stim/f_schwa_f.wav,,,,,4,0,32,7,,,,,,,,,,,,,,,,,,,,,,,,,,,,,,,,,,,,,,,,,,,,,,,,,,,,,86.97604204100207,None,86.97604204100207,None,86.97604204100207,None,86.97604204100207,None,86.97604204100207,None,86.97604204100207,None,86.97604204100207,None,86.74253158300417,None,1,0.22819720799452625,86.74253158300417,None,None,None,86.74253158300417,86.94208900000376,3.151111111111111,0.4469947920006234,86.99523504100216,None,86.99523504100216,None,,,,,,,,001,2022_Mar_17_1705,span_vct,2021.2.3,59.79345844660919,
stim/p_schwa_f.wav,,,,,4,1,33,3,,,,,,,,,,,,,,,,,,,,,,,,,,,,,,,,,,,,,,,,,,,,,,,,,,,,,None,None,None,None,None,None,None,None,None,None,None,None,None,None,87.4593114159943,None,1,0.17755041598866228,87.4593114159943,None,None,None,87.4593114159943,None,3.151111111111111,0.43030854099197313,87.66369916599069,None,87.66369916599069,None,,,,,,,,001,2022_Mar_17_1705,span_vct,2021.2.3,59.79345844660919,
stim/feuf_f.wav,,,,,4,2,34,6,,,,,,,,,,,,,,,,,,,,,,,,,,,,,,,,,,,,,,,,,,,,,,,,,,,,,88.34247679100372,None,88.34247679100372,None,88.34247679100372,None,88.34247679100372,None,88.34247679100372,None,88.34247679100372,None,88.34247679100372,None,88.11352662499121,None,1,0.2970888739946531,88.11352662499121,None,88.3925495451942,None,88.11352662499121,88.32574120799836,3.151111111111111,0.3487770000065211,88.44292154099094,None,88.44292154099094,None,,,,,,,,001,2022_Mar_17_1705,span_vct,2021.2.3,59.79345844660919,
stim/pof_f.wav,,,,,4,3,35,0,,,,,,,,,,,,,,,,,,,,,,,,,,,,,,,,,,,,,,,,,,,,,,,,,,,,,89.04278116599016,None,89.04278116599016,None,89.04278116599016,None,89.04278116599016,None,89.04278116599016,None,89.04278116599016,None,89.04278116599016,None,88.80829849999282,None,1,0.45064845800516196,88.80829849999282,None,89.0925350451973,None,88.80829849999282,89.00908979099768,3.151111111111111,0.24902754100912716,89.27917795800022,None,89.27917795800022,None,,,,,,,,001,2022_Mar_17_1705,span_vct,2021.2.3,59.79345844660919,
stim/pif_f.wav,,,,,4,4,36,1,,,,,,,,,,,,,,,,,,,,,,,,,,,,,,,,,,,,,,,,,,,,,,,,,,,,,89.77587737499562,None,89.77587737499562,None,89.77587737499562,None,89.77587737499562,None,89.77587737499562,None,89.77587737499562,None,89.77587737499562,None,89.54181404100382,None,1,0.46109570800035726,89.54181404100382,None,89.82566033719486,None,89.54181404100382,89.74337220800226,3.151111111111111,0.39689070799795445,90.02887729099893,None,90.02887729099893,None,,,,,,,,001,2022_Mar_17_1705,span_vct,2021.2.3,59.79345844660919,
stim/peuf_f.wav,,,,,4,5,37,2,,,,,,,,,,,,,,,,,,,,,,,,,,,,,,,,,,,,,,,,,,,,,,,,,,,,,90.67578091598989,None,90.67578091598989,None,90.67578091598989,None,90.67578091598989,None,90.67578091598989,None,90.67578091598989,None,90.67578091598989,None,90.44271762500284,None,1,0.32813437399454415,90.44271762500284,None,90.7258372541939,None,90.44271762500284,90.64238504099194,3.151111111111111,0.3138392500113696,90.79553462499462,None,90.79553462499462,None,,,,,,,,001,2022_Mar_17_1705,span_vct,2021.2.3,59.79345844660919,
stim/fof_f.wav,,,,,4,6,38,4,,,,,,,,,,,,,,,,,,,,,,,,,,,,,,,,,,,,,,,,,,,,,,,,,,,,,91.3593404580024,None,91.3593404580024,None,91.3593404580024,None,91.3593404580024,None,91.3593404580024,None,91.3593404580024,None,91.3593404580024,None,91.12601133299177,None,1,0.32369004099746235,91.12601133299177,None,91.4090968791963,None,91.12601133299177,91.32597816600173,3.151111111111111,0.29809620800369885,91.47824949999631,None,91.47824949999631,None,,,,,,,,001,2022_Mar_17_1705,span_vct,2021.2.3,59.79345844660919,
stim/fif_f.wav,,,,,4,7,39,5,,,,,,,,,,,,,,,,,,,,,,,,,,,,,,,,,,,,,,,,,,,,,,,,,,,,,92.02605249999033,None,92.02605249999033,None,92.02605249999033,None,92.02605249999033,None,92.02605249999033,None,92.02605249999033,None,92.02605249999033,None,91.79271966600209,None,1,0.23886179100372829,91.79271966600209,None,None,None,91.79271966600209,91.99156204100291,3.151111111111111,0.34769324999069795,92.06365379100316,None,92.06365379100316,None,,,,,,,,001,2022_Mar_17_1705,span_vct,2021.2.3,59.79345844660919,
,,,,,,,,,,,,,,,,,,,,,,,,,,,,,,,,,,,,,,,,,,,,,,,,,,,,,,,,,,,,,,,,,,,,,,,,,,,,,,,,,,,,,,,,,,,space,2.366541290990426,92.42641270799504,None,,,,001,2022_Mar_17_1705,span_vct,2021.2.3,59.79345844660919,
,,,,,,,,,,,,,,,,,,,,,,,,,,,,,,,,,,,,,,,,,,,,,,,,,,,,,,,,,,,,,,,,,,,,,,,,,,,,,,,,,,,,,,,,,,,,,,,92.42641270799504,None,,,,,,,
