key_resp_3.keys,key_resp_3.rt,key_resp_7.keys,key_resp_7.rt,key_resp_2.keys,key_resp_2.rt,slider.response,slider.rt,trials.thisRepN,trials.thisTrialN,trials.thisN,trials.thisIndex,trials.ran,stim,participant,session,date,expName,psychopyVersion,OS,frameRate,key_resp_5.keys,key_resp_5.rt,key_resp.keys,key_resp.rt,slider_2.response,slider_2.rt,trials_2.thisRepN,trials_2.thisTrialN,trials_2.thisN,trials_2.thisIndex,trials_2.ran,key_resp_6.keys,key_resp_6.rt
2,4.0405,space,180.0582,1,8.7499,2.985057891,8.1273,0,0,0,6,1,stim/feuf_g.wav,,001,2022-03-17_16h25.21.734,span_vct,2021.2.3,MacIntel,59.99880002,,,,,,,,,,,,,
,,,,2,5.449,3.963263547,2.2583,0,1,1,4,1,stim/fof_g.wav,,001,2022-03-17_16h25.21.734,span_vct,2021.2.3,MacIntel,59.99880002,,,,,,,,,,,,,
,,,,1,6.999,2.039128648,1.5951,0,2,2,3,1,stim/p_schwa_g.wav,,001,2022-03-17_16h25.21.734,span_vct,2021.2.3,MacIntel,59.99880002,,,,,,,,,,,,,
,,,,4,3.4426,4.0798947,1.9302,0,3,3,1,1,stim/pief_g.wav,,001,2022-03-17_16h25.21.734,span_vct,2021.2.3,MacIntel,59.99880002,,,,,,,,,,,,,
,,,,7,4.1199,3.721467183,1.8819,0,4,4,5,1,stim/fief_g.wav,,001,2022-03-17_16h25.21.734,span_vct,2021.2.3,MacIntel,59.99880002,,,,,,,,,,,,,
,,,,6,4.7338,2.385274358,1.7605,0,5,5,2,1,stim/peuf_g.wav,,001,2022-03-17_16h25.21.734,span_vct,2021.2.3,MacIntel,59.99880002,,,,,,,,,,,,,
,,,,5,4.4211,2.181443779,1.1966,0,6,6,0,1,stim/pof_g.wav,,001,2022-03-17_16h25.21.734,span_vct,2021.2.3,MacIntel,59.99880002,,,,,,,,,,,,,
,,,,2,1.8106,4.725597442,1.6562,0,7,7,7,1,stim/f_schwa_g.wav,,001,2022-03-17_16h25.21.734,span_vct,2021.2.3,MacIntel,59.99880002,,,,,,,,,,,,,
,,,,2,1.9828,4.725597442,0.8061,1,0,8,7,1,stim/f_schwa_g.wav,,001,2022-03-17_16h25.21.734,span_vct,2021.2.3,MacIntel,59.99880002,,,,,,,,,,,,,
,,,,3,3.4231,3.620649567,1.4294,1,1,9,1,1,stim/pief_g.wav,,001,2022-03-17_16h25.21.734,span_vct,2021.2.3,MacIntel,59.99880002,,,,,,,,,,,,,
,,,,4,2.8665,3.620649567,0.756,1,2,10,2,1,stim/peuf_g.wav,,001,2022-03-17_16h25.21.734,span_vct,2021.2.3,MacIntel,59.99880002,,,,,,,,,,,,,
,,,,3,3.6535,3.96645495,0.971,1,3,11,5,1,stim/fief_g.wav,,001,2022-03-17_16h25.21.734,span_vct,2021.2.3,MacIntel,59.99880002,,,,,,,,,,,,,
,,,,4,3.7556,2.491074487,1.5297,1,4,12,3,1,stim/p_schwa_g.wav,,001,2022-03-17_16h25.21.734,span_vct,2021.2.3,MacIntel,59.99880002,,,,,,,,,,,,,
,,,,5,4.805,3.992999811,1.3474,1,5,13,0,1,stim/pof_g.wav,,001,2022-03-17_16h25.21.734,span_vct,2021.2.3,MacIntel,59.99880002,,,,,,,,,,,,,
,,,,7,2.8859,4.47531815,1.1429,1,6,14,6,1,stim/feuf_g.wav,,001,2022-03-17_16h25.21.734,span_vct,2021.2.3,MacIntel,59.99880002,,,,,,,,,,,,,
,,,,2,2.0332,4.072795449,1.239,1,7,15,4,1,stim/fof_g.wav,,001,2022-03-17_16h25.21.734,span_vct,2021.2.3,MacIntel,59.99880002,,,,,,,,,,,,,
,,,,2,1.5207,4.341213686,1.2897,2,0,16,4,1,stim/fof_g.wav,,001,2022-03-17_16h25.21.734,span_vct,2021.2.3,MacIntel,59.99880002,,,,,,,,,,,,,
,,,,3,2.7515,3.781343949,1.2409,2,1,17,1,1,stim/pief_g.wav,,001,2022-03-17_16h25.21.734,span_vct,2021.2.3,MacIntel,59.99880002,,,,,,,,,,,,,
,,,,5,3.2902,4.139346777,1.2258,2,2,18,3,1,stim/p_schwa_g.wav,,001,2022-03-17_16h25.21.734,span_vct,2021.2.3,MacIntel,59.99880002,,,,,,,,,,,,,
,,,,1,4.3057,2.234551395,1.9123,2,3,19,2,1,stim/peuf_g.wav,,001,2022-03-17_16h25.21.734,span_vct,2021.2.3,MacIntel,59.99880002,,,,,,,,,,,,,
,,,,3,2.0883,3.83514596,0.8577,2,4,20,5,1,stim/fief_g.wav,,001,2022-03-17_16h25.21.734,span_vct,2021.2.3,MacIntel,59.99880002,,,,,,,,,,,,,
,,,,1,3.6237,3.468526311,0.7746,2,5,21,7,1,stim/f_schwa_g.wav,,001,2022-03-17_16h25.21.734,span_vct,2021.2.3,MacIntel,59.99880002,,,,,,,,,,,,,
,,,,4,3.2342,4.066059532,2.0249,2,6,22,6,1,stim/feuf_g.wav,,001,2022-03-17_16h25.21.734,span_vct,2021.2.3,MacIntel,59.99880002,,,,,,,,,,,,,
,,,,5,4.4739,3.028643064,1.6996,2,7,23,0,1,stim/pof_g.wav,,001,2022-03-17_16h25.21.734,span_vct,2021.2.3,MacIntel,59.99880002,,,,,,,,,,,,,
,,,,3,3.2392,3.905520454,0.965,3,0,24,1,1,stim/pief_g.wav,,001,2022-03-17_16h25.21.734,span_vct,2021.2.3,MacIntel,59.99880002,,,,,,,,,,,,,
,,,,4,2.6354,2.695162948,1.628,3,1,25,3,1,stim/p_schwa_g.wav,,001,2022-03-17_16h25.21.734,span_vct,2021.2.3,MacIntel,59.99880002,,,,,,,,,,,,,
,,,,4,5.705,2.999504689,0.8136,3,2,26,2,1,stim/peuf_g.wav,,001,2022-03-17_16h25.21.734,span_vct,2021.2.3,MacIntel,59.99880002,,,,,,,,,,,,,
,,,,2,3.5721,3.984877342,1.4288,3,3,27,4,1,stim/fof_g.wav,,001,2022-03-17_16h25.21.734,span_vct,2021.2.3,MacIntel,59.99880002,,,,,,,,,,,,,
,,,,4,3.8901,3.579756332,0.7772,3,4,28,6,1,stim/feuf_g.wav,,001,2022-03-17_16h25.21.734,span_vct,2021.2.3,MacIntel,59.99880002,,,,,,,,,,,,,
,,,,2,1.64,3.579756332,0.5731,3,5,29,7,1,stim/f_schwa_g.wav,,001,2022-03-17_16h25.21.734,span_vct,2021.2.3,MacIntel,59.99880002,,,,,,,,,,,,,
,,,,5,3.3733,2.567555373,1.3806,3,6,30,0,1,stim/pof_g.wav,,001,2022-03-17_16h25.21.734,span_vct,2021.2.3,MacIntel,59.99880002,,,,,,,,,,,,,
,,,,3,2.4898,3.377960684,0.9994,3,7,31,5,1,stim/fief_g.wav,,001,2022-03-17_16h25.21.734,span_vct,2021.2.3,MacIntel,59.99880002,,,,,,,,,,,,,
,,,,2,1.6885,4.427099737,0.9415,4,0,32,7,1,stim/f_schwa_g.wav,,001,2022-03-17_16h25.21.734,span_vct,2021.2.3,MacIntel,59.99880002,,,,,,,,,,,,,
,,,,3,2.7517,3.59503046,1.1124,4,1,33,1,1,stim/pief_g.wav,,001,2022-03-17_16h25.21.734,span_vct,2021.2.3,MacIntel,59.99880002,,,,,,,,,,,,,
,,,,3,1.5858,3.597244023,0.8949,4,2,34,5,1,stim/fief_g.wav,,001,2022-03-17_16h25.21.734,span_vct,2021.2.3,MacIntel,59.99880002,,,,,,,,,,,,,
,,,,5,3.056,2.401738511,1.0246,4,3,35,0,1,stim/pof_g.wav,,001,2022-03-17_16h25.21.734,span_vct,2021.2.3,MacIntel,59.99880002,,,,,,,,,,,,,
,,,,1,2.4478,2.298550111,0.992,4,4,36,6,1,stim/feuf_g.wav,,001,2022-03-17_16h25.21.734,span_vct,2021.2.3,MacIntel,59.99880002,,,,,,,,,,,,,
,,,,4,3.4096,3.385577616,1.0665,4,5,37,3,1,stim/p_schwa_g.wav,,001,2022-03-17_16h25.21.734,span_vct,2021.2.3,MacIntel,59.99880002,,,,,,,,,,,,,
,,,,2,2.9071,4.268825671,1.7093,4,6,38,4,1,stim/fof_g.wav,,001,2022-03-17_16h25.21.734,span_vct,2021.2.3,MacIntel,59.99880002,,,,,,,,,,,,,
,,,,2,3.7081,2.786457481,0.9989,4,7,39,2,1,stim/peuf_g.wav,,001,2022-03-17_16h25.21.734,span_vct,2021.2.3,MacIntel,59.99880002,,,,,,,,,,,,,
,,,,,,,,,,,,,stim/f_schwa_f.wav,,001,2022-03-17_16h25.21.734,span_vct,2021.2.3,MacIntel,59.99880002,space,61.4326,3,2.8168,2.527992448,0.9629,0,0,0,7,1,,
,,,,,,,,,,,,,stim/pif_f.wav,,001,2022-03-17_16h25.21.734,span_vct,2021.2.3,MacIntel,59.99880002,,,7,4.2035,2.341287823,2.3067,0,1,1,1,1,,
,,,,,,,,,,,,,stim/peuf_f.wav,,001,2022-03-17_16h25.21.734,span_vct,2021.2.3,MacIntel,59.99880002,,,2,3.3744,2.752805061,0.73,0,2,2,2,1,,
,,,,,,,,,,,,,stim/fif_f.wav,,001,2022-03-17_16h25.21.734,span_vct,2021.2.3,MacIntel,59.99880002,,,3,6.0008,3.398801154,0.9087,0,3,3,5,1,,
,,,,,,,,,,,,,stim/fof_f.wav,,001,2022-03-17_16h25.21.734,span_vct,2021.2.3,MacIntel,59.99880002,,,4,2.2345,2.560961658,1.1316,0,4,4,4,1,,
,,,,,,,,,,,,,stim/pof_f.wav,,001,2022-03-17_16h25.21.734,span_vct,2021.2.3,MacIntel,59.99880002,,,6,3.3438,1.629208869,1.2039,0,5,5,0,1,,
,,,,,,,,,,,,,stim/feuf_f.wav,,001,2022-03-17_16h25.21.734,span_vct,2021.2.3,MacIntel,59.99880002,,,4,4.0774,2.42691759,1.0075,0,6,6,6,1,,
,,,,,,,,,,,,,stim/p_schwa_f.wav,,001,2022-03-17_16h25.21.734,span_vct,2021.2.3,MacIntel,59.99880002,,,3,2.9611,2.30324854,0.7504,0,7,7,3,1,,
,,,,,,,,,,,,,stim/fof_f.wav,,001,2022-03-17_16h25.21.734,span_vct,2021.2.3,MacIntel,59.99880002,,,2,2.2885,1.949138222,0.9826,1,0,8,4,1,,
,,,,,,,,,,,,,stim/pif_f.wav,,001,2022-03-17_16h25.21.734,span_vct,2021.2.3,MacIntel,59.99880002,,,3,3.2748,3.350162846,1.0707,1,1,9,1,1,,
,,,,,,,,,,,,,stim/peuf_f.wav,,001,2022-03-17_16h25.21.734,span_vct,2021.2.3,MacIntel,59.99880002,,,1,4.5683,2.486405777,1.1541,1,2,10,2,1,,
,,,,,,,,,,,,,stim/pof_f.wav,,001,2022-03-17_16h25.21.734,span_vct,2021.2.3,MacIntel,59.99880002,,,4,3.9005,2.182296993,0.8038,1,3,11,0,1,,
,,,,,,,,,,,,,stim/fif_f.wav,,001,2022-03-17_16h25.21.734,span_vct,2021.2.3,MacIntel,59.99880002,,,3,2.6197,2.351518082,0.9375,1,4,12,5,1,,
,,,,,,,,,,,,,stim/f_schwa_f.wav,,001,2022-03-17_16h25.21.734,span_vct,2021.2.3,MacIntel,59.99880002,,,3,3.0386,1.288241242,0.66,1,5,13,7,1,,
,,,,,,,,,,,,,stim/feuf_f.wav,,001,2022-03-17_16h25.21.734,span_vct,2021.2.3,MacIntel,59.99880002,,,1,2.8196,2.02259547,1.3943,1,6,14,6,1,,
,,,,,,,,,,,,,stim/p_schwa_f.wav,,001,2022-03-17_16h25.21.734,span_vct,2021.2.3,MacIntel,59.99880002,,,3,2.9112,3.080047448,0.9789,1,7,15,3,1,,
,,,,,,,,,,,,,stim/f_schwa_f.wav,,001,2022-03-17_16h25.21.734,span_vct,2021.2.3,MacIntel,59.99880002,,,3,1.5201,3.244023028,0.6862,2,0,16,7,1,,
,,,,,,,,,,,,,stim/fof_f.wav,,001,2022-03-17_16h25.21.734,span_vct,2021.2.3,MacIntel,59.99880002,,,2,2.3679,2.762477056,0.8646,2,1,17,4,1,,
,,,,,,,,,,,,,stim/peuf_f.wav,,001,2022-03-17_16h25.21.734,span_vct,2021.2.3,MacIntel,59.99880002,,,1,3.012,2.509511578,0.8292,2,2,18,2,1,,
,,,,,,,,,,,,,stim/pof_f.wav,,001,2022-03-17_16h25.21.734,span_vct,2021.2.3,MacIntel,59.99880002,,,5,4.2707,2.894999399,1.1605,2,3,19,0,1,,
,,,,,,,,,,,,,stim/fif_f.wav,,001,2022-03-17_16h25.21.734,span_vct,2021.2.3,MacIntel,59.99880002,,,3,2.5331,3.227135144,0.8059,2,4,20,5,1,,
,,,,,,,,,,,,,stim/pif_f.wav,,001,2022-03-17_16h25.21.734,span_vct,2021.2.3,MacIntel,59.99880002,,,3,2.6516,3.227135144,0.7323,2,5,21,1,1,,
,,,,,,,,,,,,,stim/p_schwa_f.wav,,001,2022-03-17_16h25.21.734,span_vct,2021.2.3,MacIntel,59.99880002,,,7,5.0154,2.548166005,1.0912,2,6,22,3,1,,
,,,,,,,,,,,,,stim/feuf_f.wav,,001,2022-03-17_16h25.21.734,span_vct,2021.2.3,MacIntel,59.99880002,,,4,2.6541,2.638593584,0.6955,2,7,23,6,1,,
,,,,,,,,,,,,,stim/feuf_f.wav,,001,2022-03-17_16h25.21.734,span_vct,2021.2.3,MacIntel,59.99880002,,,4,1.6203,2.194133978,1.088,3,0,24,6,1,,
,,,,,,,,,,,,,stim/f_schwa_f.wav,,001,2022-03-17_16h25.21.734,span_vct,2021.2.3,MacIntel,59.99880002,,,3,1.9873,3.399814146,1.0546,3,1,25,7,1,,
,,,,,,,,,,,,,stim/fif_f.wav,,001,2022-03-17_16h25.21.734,span_vct,2021.2.3,MacIntel,59.99880002,,,7,3.2544,2.373324889,1.0881,3,2,26,5,1,,
,,,,,,,,,,,,,stim/peuf_f.wav,,001,2022-03-17_16h25.21.734,span_vct,2021.2.3,MacIntel,59.99880002,,,1,2.6072,1.440990188,1.0549,3,3,27,2,1,,
,,,,,,,,,,,,,stim/pif_f.wav,,001,2022-03-17_16h25.21.734,span_vct,2021.2.3,MacIntel,59.99880002,,,3,3.2222,3.131462696,0.905,3,4,28,1,1,,
,,,,,,,,,,,,,stim/pof_f.wav,,001,2022-03-17_16h25.21.734,span_vct,2021.2.3,MacIntel,59.99880002,,,4,3.1698,2.495387212,1.3473,3,5,29,0,1,,
,,,,,,,,,,,,,stim/fof_f.wav,,001,2022-03-17_16h25.21.734,span_vct,2021.2.3,MacIntel,59.99880002,,,4,1.7824,2.495387212,0.4245,3,6,30,4,1,,
,,,,,,,,,,,,,stim/p_schwa_f.wav,,001,2022-03-17_16h25.21.734,span_vct,2021.2.3,MacIntel,59.99880002,,,4,4.9032,2.474784172,0.6789,3,7,31,3,1,,
,,,,,,,,,,,,,stim/fof_f.wav,,001,2022-03-17_16h25.21.734,span_vct,2021.2.3,MacIntel,59.99880002,,,2,1.372,2.005226015,0.8557,4,0,32,4,1,,
,,,,,,,,,,,,,stim/p_schwa_f.wav,,001,2022-03-17_16h25.21.734,span_vct,2021.2.3,MacIntel,59.99880002,,,2,1.8521,3.279291123,1.0396,4,1,33,3,1,,
,,,,,,,,,,,,,stim/pof_f.wav,,001,2022-03-17_16h25.21.734,span_vct,2021.2.3,MacIntel,59.99880002,,,2,1.8769,3.91050137,1.1393,4,2,34,0,1,,
,,,,,,,,,,,,,stim/fif_f.wav,,001,2022-03-17_16h25.21.734,span_vct,2021.2.3,MacIntel,59.99880002,,,3,2.1021,2.697291189,0.8897,4,3,35,5,1,,
,,,,,,,,,,,,,stim/pif_f.wav,,001,2022-03-17_16h25.21.734,span_vct,2021.2.3,MacIntel,59.99880002,,,3,2.17,3.087870493,0.6882,4,4,36,1,1,,
,,,,,,,,,,,,,stim/feuf_f.wav,,001,2022-03-17_16h25.21.734,span_vct,2021.2.3,MacIntel,59.99880002,,,4,2.4176,3.087870493,0.6571,4,5,37,6,1,,
,,,,,,,,,,,,,stim/f_schwa_f.wav,,001,2022-03-17_16h25.21.734,span_vct,2021.2.3,MacIntel,59.99880002,,,3,2.052,3.690270549,1.1746,4,6,38,7,1,,
,,,,,,,,,,,,,stim/peuf_f.wav,,001,2022-03-17_16h25.21.734,span_vct,2021.2.3,MacIntel,59.99880002,,,1,2.8919,2.502228902,2.1282,4,7,39,2,1,,
,,,,,,,,,,,,,,,001,2022-03-17_16h25.21.734,span_vct,2021.2.3,MacIntel,59.99880002,,,,,,,,,,,,space,19.3215
