key_resp_3.keys,key_resp_3.rt,key_resp_7.keys,key_resp_7.rt,key_resp_2.keys,key_resp_2.rt,slider.response,slider.rt,trials.thisRepN,trials.thisTrialN,trials.thisN,trials.thisIndex,trials.ran,stim,participant,session,date,expName,psychopyVersion,OS,frameRate,key_resp_5.keys,key_resp_5.rt,key_resp.keys,key_resp.rt,slider_2.response,slider_2.rt,trials_2.thisRepN,trials_2.thisTrialN,trials_2.thisN,trials_2.thisIndex,trials_2.ran,key_resp_6.keys,key_resp_6.rt
2,4.0275,space,37.3798,1,9.8674,4.018518745,3.2832,0,0,0,7,1,stim/f_schwa_g.wav,,001,2022-03-17_17h38.10.572,span_vct,2021.2.3,Win32,144.1337561,,,,,,,,,,,,,
,,,,2,7.6725,4.948148261,3.1613,0,1,1,4,1,stim/fof_g.wav,,001,2022-03-17_17h38.10.572,span_vct,2021.2.3,Win32,144.1337561,,,,,,,,,,,,,
,,,,4,10.2005,2.118518575,0.8658,0,2,2,2,1,stim/peuf_g.wav,,001,2022-03-17_17h38.10.572,span_vct,2021.2.3,Win32,144.1337561,,,,,,,,,,,,,
,,,,1,4.3349,2.933333333,0.7341,0,3,3,6,1,stim/feuf_g.wav,,001,2022-03-17_17h38.10.572,span_vct,2021.2.3,Win32,144.1337561,,,,,,,,,,,,,
,,,,2,3.5489,3.83703715,1.6328,0,4,4,0,1,stim/pof_g.wav,,001,2022-03-17_17h38.10.572,span_vct,2021.2.3,Win32,144.1337561,,,,,,,,,,,,,
,,,,7,8.4688,3.140740967,1.4139,0,5,5,5,1,stim/fief_g.wav,,001,2022-03-17_17h38.10.572,span_vct,2021.2.3,Win32,144.1337561,,,,,,,,,,,,,
,,,,3,4.7484,2.270370483,1.2328,0,6,6,1,1,stim/pief_g.wav,,001,2022-03-17_17h38.10.572,span_vct,2021.2.3,Win32,144.1337561,,,,,,,,,,,,,
,,,,1,5.1327,1.994444444,0.7856,0,7,7,3,1,stim/p_schwa_g.wav,,001,2022-03-17_17h38.10.572,span_vct,2021.2.3,Win32,144.1337561,,,,,,,,,,,,,
,,,,3,3.2832,3.122222222,1.6324,1,0,8,1,1,stim/pief_g.wav,,001,2022-03-17_17h38.10.572,span_vct,2021.2.3,Win32,144.1337561,,,,,,,,,,,,,
,,,,2,2.0832,3.95,0.7493,1,1,9,4,1,stim/fof_g.wav,,001,2022-03-17_17h38.10.572,span_vct,2021.2.3,Win32,144.1337561,,,,,,,,,,,,,
,,,,1,6.5506,1.055555556,1.1659,1,2,10,3,1,stim/p_schwa_g.wav,,001,2022-03-17_17h38.10.572,span_vct,2021.2.3,Win32,144.1337561,,,,,,,,,,,,,
,,,,3,2.617,2.981481595,0.8493,1,3,11,5,1,stim/fief_g.wav,,001,2022-03-17_17h38.10.572,span_vct,2021.2.3,Win32,144.1337561,,,,,,,,,,,,,
,,,,1,2.566,3.888888889,1.1041,1,4,12,7,1,stim/f_schwa_g.wav,,001,2022-03-17_17h38.10.572,span_vct,2021.2.3,Win32,144.1337561,,,,,,,,,,,,,
,,,,4,4.5671,3.107407633,0.9535,1,5,13,6,1,stim/feuf_g.wav,,001,2022-03-17_17h38.10.572,span_vct,2021.2.3,Win32,144.1337561,,,,,,,,,,,,,
,,,,2,5.8999,3.005555556,0.7834,1,6,14,0,1,stim/pof_g.wav,,001,2022-03-17_17h38.10.572,span_vct,2021.2.3,Win32,144.1337561,,,,,,,,,,,,,
,,,,5,6.0332,2.214814928,0.6151,1,7,15,2,1,stim/peuf_g.wav,,001,2022-03-17_17h38.10.572,span_vct,2021.2.3,Win32,144.1337561,,,,,,,,,,,,,
,,,,4,3.6004,2.990740967,1.5493,2,0,16,6,1,stim/feuf_g.wav,,001,2022-03-17_17h38.10.572,span_vct,2021.2.3,Win32,144.1337561,,,,,,,,,,,,,
,,,,3,3.0168,2.022222222,0.7507,2,1,17,5,1,stim/fief_g.wav,,001,2022-03-17_17h38.10.572,span_vct,2021.2.3,Win32,144.1337561,,,,,,,,,,,,,
,,,,2,1.667,3.018518745,0.7824,2,2,18,4,1,stim/fof_g.wav,,001,2022-03-17_17h38.10.572,span_vct,2021.2.3,Win32,144.1337561,,,,,,,,,,,,,
,,,,3,4.2833,1.844444444,0.5845,2,3,19,1,1,stim/pief_g.wav,,001,2022-03-17_17h38.10.572,span_vct,2021.2.3,Win32,144.1337561,,,,,,,,,,,,,
,,,,2,2.1657,3.901852078,0.7994,2,4,20,0,1,stim/pof_g.wav,,001,2022-03-17_17h38.10.572,span_vct,2021.2.3,Win32,144.1337561,,,,,,,,,,,,,
,,,,1,3.618,3.011111111,0.6986,2,5,21,3,1,stim/p_schwa_g.wav,,001,2022-03-17_17h38.10.572,span_vct,2021.2.3,Win32,144.1337561,,,,,,,,,,,,,
,,,,4,5.9022,3.007407633,0.7306,2,6,22,2,1,stim/peuf_g.wav,,001,2022-03-17_17h38.10.572,span_vct,2021.2.3,Win32,144.1337561,,,,,,,,,,,,,
,,,,2,1.7843,3.970370483,1.1488,2,7,23,7,1,stim/f_schwa_g.wav,,001,2022-03-17_17h38.10.572,span_vct,2021.2.3,Win32,144.1337561,,,,,,,,,,,,,
,,,,4,2.4838,3.185185411,1.3859,3,0,24,6,1,stim/feuf_g.wav,,001,2022-03-17_17h38.10.572,span_vct,2021.2.3,Win32,144.1337561,,,,,,,,,,,,,
,,,,7,3.3836,2.18703715,0.8281,3,1,25,5,1,stim/fief_g.wav,,001,2022-03-17_17h38.10.572,span_vct,2021.2.3,Win32,144.1337561,,,,,,,,,,,,,
,,,,2,4.3838,2.8740743,0.8327,3,2,26,0,1,stim/pof_g.wav,,001,2022-03-17_17h38.10.572,span_vct,2021.2.3,Win32,144.1337561,,,,,,,,,,,,,
,,,,4,3.2997,1.212963019,0.9856,3,3,27,1,1,stim/pief_g.wav,,001,2022-03-17_17h38.10.572,span_vct,2021.2.3,Win32,144.1337561,,,,,,,,,,,,,
,,,,4,3.7641,2.120370483,1.1998,3,4,28,2,1,stim/peuf_g.wav,,001,2022-03-17_17h38.10.572,span_vct,2021.2.3,Win32,144.1337561,,,,,,,,,,,,,
,,,,2,2.8332,3.162963189,0.9001,3,5,29,7,1,stim/f_schwa_g.wav,,001,2022-03-17_17h38.10.572,span_vct,2021.2.3,Win32,144.1337561,,,,,,,,,,,,,
,,,,2,2.0172,2.042592706,1.1657,3,6,30,4,1,stim/fof_g.wav,,001,2022-03-17_17h38.10.572,span_vct,2021.2.3,Win32,144.1337561,,,,,,,,,,,,,
,,,,4,4.2511,2.177777778,1.3322,3,7,31,3,1,stim/p_schwa_g.wav,,001,2022-03-17_17h38.10.572,span_vct,2021.2.3,Win32,144.1337561,,,,,,,,,,,,,
,,,,2,1.7671,3.862963189,1.0512,4,0,32,4,1,stim/fof_g.wav,,001,2022-03-17_17h38.10.572,span_vct,2021.2.3,Win32,144.1337561,,,,,,,,,,,,,
,,,,7,3.5177,2.212963019,0.7487,4,1,33,1,1,stim/pief_g.wav,,001,2022-03-17_17h38.10.572,span_vct,2021.2.3,Win32,144.1337561,,,,,,,,,,,,,
,,,,3,2.1837,3.062963189,0.4863,4,2,34,5,1,stim/fief_g.wav,,001,2022-03-17_17h38.10.572,span_vct,2021.2.3,Win32,144.1337561,,,,,,,,,,,,,
,,,,5,4.3317,3.920370483,0.95,4,3,35,3,1,stim/p_schwa_g.wav,,001,2022-03-17_17h38.10.572,span_vct,2021.2.3,Win32,144.1337561,,,,,,,,,,,,,
,,,,4,2.6504,3.096296522,0.8827,4,4,36,6,1,stim/feuf_g.wav,,001,2022-03-17_17h38.10.572,span_vct,2021.2.3,Win32,144.1337561,,,,,,,,,,,,,
,,,,2,3.1009,3.068518745,0.5824,4,5,37,2,1,stim/peuf_g.wav,,001,2022-03-17_17h38.10.572,span_vct,2021.2.3,Win32,144.1337561,,,,,,,,,,,,,
,,,,2,2.0356,4.027777778,1.3309,4,6,38,7,1,stim/f_schwa_g.wav,,001,2022-03-17_17h38.10.572,span_vct,2021.2.3,Win32,144.1337561,,,,,,,,,,,,,
,,,,5,4.5011,1.953703817,0.8156,4,7,39,0,1,stim/pof_g.wav,,001,2022-03-17_17h38.10.572,span_vct,2021.2.3,Win32,144.1337561,,,,,,,,,,,,,
,,,,,,,,,,,,,stim/feuf_f.wav,,001,2022-03-17_17h38.10.572,span_vct,2021.2.3,Win32,144.1337561,space,3.5665,1,3.9172,1.851851908,2.1667,0,0,0,6,1,,
,,,,,,,,,,,,,stim/pof_f.wav,,001,2022-03-17_17h38.10.572,span_vct,2021.2.3,Win32,144.1337561,,,2,3.267,2.7240743,0.5495,0,1,1,0,1,,
,,,,,,,,,,,,,stim/fof_f.wav,,001,2022-03-17_17h38.10.572,span_vct,2021.2.3,Win32,144.1337561,,,2,1.9338,2.961111111,0.4665,0,2,2,4,1,,
,,,,,,,,,,,,,stim/fif_f.wav,,001,2022-03-17_17h38.10.572,span_vct,2021.2.3,Win32,144.1337561,,,2,2.5336,1.988888889,0.8992,0,3,3,5,1,,
,,,,,,,,,,,,,stim/peuf_f.wav,,001,2022-03-17_17h38.10.572,span_vct,2021.2.3,Win32,144.1337561,,,6,3.7717,3.722222222,0.6282,0,4,4,2,1,,
,,,,,,,,,,,,,stim/pif_f.wav,,001,2022-03-17_17h38.10.572,span_vct,2021.2.3,Win32,144.1337561,,,3,3.7503,2.959259372,0.6826,0,5,5,1,1,,
,,,,,,,,,,,,,stim/p_schwa_f.wav,,001,2022-03-17_17h38.10.572,span_vct,2021.2.3,Win32,144.1337561,,,2,3.217,2.238888889,0.9828,0,6,6,3,1,,
,,,,,,,,,,,,,stim/f_schwa_f.wav,,001,2022-03-17_17h38.10.572,span_vct,2021.2.3,Win32,144.1337561,,,6,4.2514,3.761111111,0.6983,0,7,7,7,1,,
,,,,,,,,,,,,,stim/pif_f.wav,,001,2022-03-17_17h38.10.572,span_vct,2021.2.3,Win32,144.1337561,,,3,2.8001,3.9740743,0.9994,1,0,8,1,1,,
,,,,,,,,,,,,,stim/fof_f.wav,,001,2022-03-17_17h38.10.572,span_vct,2021.2.3,Win32,144.1337561,,,2,2.1842,3.309259372,0.8189,1,1,9,4,1,,
,,,,,,,,,,,,,stim/fif_f.wav,,001,2022-03-17_17h38.10.572,span_vct,2021.2.3,Win32,144.1337561,,,3,1.747,4.031481595,0.5826,1,2,10,5,1,,
,,,,,,,,,,,,,stim/f_schwa_f.wav,,001,2022-03-17_17h38.10.572,span_vct,2021.2.3,Win32,144.1337561,,,2,6.4674,2.05,0.6163,1,3,11,7,1,,
,,,,,,,,,,,,,stim/feuf_f.wav,,001,2022-03-17_17h38.10.572,span_vct,2021.2.3,Win32,144.1337561,,,1,3.6307,3.088888889,0.8001,1,4,12,6,1,,
,,,,,,,,,,,,,stim/peuf_f.wav,,001,2022-03-17_17h38.10.572,span_vct,2021.2.3,Win32,144.1337561,,,1,3.1003,1.868518575,0.6329,1,5,13,2,1,,
,,,,,,,,,,,,,stim/p_schwa_f.wav,,001,2022-03-17_17h38.10.572,span_vct,2021.2.3,Win32,144.1337561,,,2,3.2504,2.929629856,0.6669,1,6,14,3,1,,
,,,,,,,,,,,,,stim/pof_f.wav,,001,2022-03-17_17h38.10.572,span_vct,2021.2.3,Win32,144.1337561,,,4,3.8828,1.868518575,0.7998,1,7,15,0,1,,
,,,,,,,,,,,,,stim/feuf_f.wav,,001,2022-03-17_17h38.10.572,span_vct,2021.2.3,Win32,144.1337561,,,4,6.8516,4.740740967,2.1649,2,0,16,6,1,,
,,,,,,,,,,,,,stim/f_schwa_f.wav,,001,2022-03-17_17h38.10.572,span_vct,2021.2.3,Win32,144.1337561,,,2,3.1504,2.025926039,0.6492,2,1,17,7,1,,
,,,,,,,,,,,,,stim/fif_f.wav,,001,2022-03-17_17h38.10.572,span_vct,2021.2.3,Win32,144.1337561,,,7,3.3496,3.981481595,1.0824,2,2,18,5,1,,
,,,,,,,,,,,,,stim/pof_f.wav,,001,2022-03-17_17h38.10.572,span_vct,2021.2.3,Win32,144.1337561,,,1,6.4209,3.0740743,0.6629,2,3,19,0,1,,
,,,,,,,,,,,,,stim/peuf_f.wav,,001,2022-03-17_17h38.10.572,span_vct,2021.2.3,Win32,144.1337561,,,6,4.3502,1.957407464,0.9993,2,4,20,2,1,,
,,,,,,,,,,,,,stim/p_schwa_f.wav,,001,2022-03-17_17h38.10.572,span_vct,2021.2.3,Win32,144.1337561,,,4,7.2338,1.940740797,1.5717,2,5,21,3,1,,
,,,,,,,,,,,,,stim/fof_f.wav,,001,2022-03-17_17h38.10.572,span_vct,2021.2.3,Win32,144.1337561,,,2,1.7859,3.894444444,0.8125,2,6,22,4,1,,
,,,,,,,,,,,,,stim/pif_f.wav,,001,2022-03-17_17h38.10.572,span_vct,2021.2.3,Win32,144.1337561,,,3,2.5677,2.861111111,1.0158,2,7,23,1,1,,
,,,,,,,,,,,,,stim/feuf_f.wav,,001,2022-03-17_17h38.10.572,span_vct,2021.2.3,Win32,144.1337561,,,1,2.5337,3.883333333,0.7494,3,0,24,6,1,,
,,,,,,,,,,,,,stim/p_schwa_f.wav,,001,2022-03-17_17h38.10.572,span_vct,2021.2.3,Win32,144.1337561,,,5,4.2489,1.938888889,1.017,3,1,25,3,1,,
,,,,,,,,,,,,,stim/fof_f.wav,,001,2022-03-17_17h38.10.572,span_vct,2021.2.3,Win32,144.1337561,,,2,3.4502,3.864814928,1.2161,3,2,26,4,1,,
,,,,,,,,,,,,,stim/pif_f.wav,,001,2022-03-17_17h38.10.572,span_vct,2021.2.3,Win32,144.1337561,,,1,3.9862,2.053703817,0.8464,3,3,27,1,1,,
,,,,,,,,,,,,,stim/fif_f.wav,,001,2022-03-17_17h38.10.572,span_vct,2021.2.3,Win32,144.1337561,,,3,1.9651,3.9740743,0.7502,3,4,28,5,1,,
,,,,,,,,,,,,,stim/peuf_f.wav,,001,2022-03-17_17h38.10.572,span_vct,2021.2.3,Win32,144.1337561,,,4,2.8505,2.109259372,1.2698,3,5,29,2,1,,
,,,,,,,,,,,,,stim/pof_f.wav,,001,2022-03-17_17h38.10.572,span_vct,2021.2.3,Win32,144.1337561,,,1,4.2811,1.912963019,0.6345,3,6,30,0,1,,
,,,,,,,,,,,,,stim/f_schwa_f.wav,,001,2022-03-17_17h38.10.572,span_vct,2021.2.3,Win32,144.1337561,,,5,3.5999,3.027777778,0.716,3,7,31,7,1,,
,,,,,,,,,,,,,stim/pif_f.wav,,001,2022-03-17_17h38.10.572,span_vct,2021.2.3,Win32,144.1337561,,,3,2.8004,3.764814928,0.7994,4,0,32,1,1,,
,,,,,,,,,,,,,stim/peuf_f.wav,,001,2022-03-17_17h38.10.572,span_vct,2021.2.3,Win32,144.1337561,,,2,3.067,2.118518575,0.766,4,1,33,2,1,,
,,,,,,,,,,,,,stim/pof_f.wav,,001,2022-03-17_17h38.10.572,span_vct,2021.2.3,Win32,144.1337561,,,2,4.2851,3.927777778,1.2651,4,2,34,0,1,,
,,,,,,,,,,,,,stim/p_schwa_f.wav,,001,2022-03-17_17h38.10.572,span_vct,2021.2.3,Win32,144.1337561,,,2,3.9164,4.131481595,0.9185,4,3,35,3,1,,
,,,,,,,,,,,,,stim/fif_f.wav,,001,2022-03-17_17h38.10.572,span_vct,2021.2.3,Win32,144.1337561,,,3,2.3019,1.931481595,1.7155,4,4,36,5,1,,
,,,,,,,,,,,,,stim/f_schwa_f.wav,,001,2022-03-17_17h38.10.572,span_vct,2021.2.3,Win32,144.1337561,,,2,2.1669,3.207407633,0.6165,4,5,37,7,1,,
,,,,,,,,,,,,,stim/feuf_f.wav,,001,2022-03-17_17h38.10.572,span_vct,2021.2.3,Win32,144.1337561,,,1,2.049,4.216666667,0.5659,4,6,38,6,1,,
,,,,,,,,,,,,,stim/fof_f.wav,,001,2022-03-17_17h38.10.572,span_vct,2021.2.3,Win32,144.1337561,,,2,1.7363,3.983333333,0.5467,4,7,39,4,1,,
,,,,,,,,,,,,,,,001,2022-03-17_17h38.10.572,span_vct,2021.2.3,Win32,144.1337561,,,,,,,,,,,,space,11.0505
