key_resp_3.keys,key_resp_3.rt,key_resp_4.keys,key_resp_4.rt,key_resp_2.keys,key_resp_2.rt,slider.response,slider.rt,trials.thisRepN,trials.thisTrialN,trials.thisN,trials.thisIndex,trials.ran,stim,participant,session,date,expName,psychopyVersion,OS,frameRate,key_resp_5.keys,key_resp_5.rt,key_resp.keys,key_resp.rt,slider_2.response,slider_2.rt,trials_2.thisRepN,trials_2.thisTrialN,trials_2.thisN,trials_2.thisIndex,trials_2.ran,key_resp_6.keys,key_resp_6.rt
1,2.4179,space,14.4149,7,30.5172,3.998968008,8.4336,0,0,0,4,1,stim/fof_g.wav,5bef41fa54277d000114d6ad,001,2022-03-18_15h43.30.838,task,2021.2.3,Win32,60.0528465,,,,,,,,,,,,,
,,,,6,15.3023,2.987616099,3.8689,0,1,1,2,1,stim/peuf_g.wav,5bef41fa54277d000114d6ad,001,2022-03-18_15h43.30.838,task,2021.2.3,Win32,60.0528465,,,,,,,,,,,,,
,,,,6,5.0005,5,3.9246,0,2,2,7,1,stim/f_schwa_g.wav,5bef41fa54277d000114d6ad,001,2022-03-18_15h43.30.838,task,2021.2.3,Win32,60.0528465,,,,,,,,,,,,,
,,,,4,2.7361,5,0.7724,0,3,3,0,1,stim/pof_g.wav,5bef41fa54277d000114d6ad,001,2022-03-18_15h43.30.838,task,2021.2.3,Win32,60.0528465,,,,,,,,,,,,,
,,,,1,9.3928,1.996904025,1.8167,0,4,4,3,1,stim/p_schwa_g.wav,5bef41fa54277d000114d6ad,001,2022-03-18_15h43.30.838,task,2021.2.3,Win32,60.0528465,,,,,,,,,,,,,
,,,,6,2.4415,4.011351909,1.1417,0,5,5,6,1,stim/feuf_g.wav,5bef41fa54277d000114d6ad,001,2022-03-18_15h43.30.838,task,2021.2.3,Win32,60.0528465,,,,,,,,,,,,,
,,,,3,7.0833,3.990712074,1.1838,0,6,6,1,1,stim/pief_g.wav,5bef41fa54277d000114d6ad,001,2022-03-18_15h43.30.838,task,2021.2.3,Win32,60.0528465,,,,,,,,,,,,,
,,,,3,4.1593,2.979360165,1.6885,0,7,7,5,1,stim/fief_g.wav,5bef41fa54277d000114d6ad,001,2022-03-18_15h43.30.838,task,2021.2.3,Win32,60.0528465,,,,,,,,,,,,,
,,,,3,2.8168,2.979360165,0.5924,1,0,8,5,1,stim/fief_g.wav,5bef41fa54277d000114d6ad,001,2022-03-18_15h43.30.838,task,2021.2.3,Win32,60.0528465,,,,,,,,,,,,,
,,,,6,7.6071,2.009287926,1.2882,1,1,9,3,1,stim/p_schwa_g.wav,5bef41fa54277d000114d6ad,001,2022-03-18_15h43.30.838,task,2021.2.3,Win32,60.0528465,,,,,,,,,,,,,
,,,,4,2.2884,2.979360165,1.2665,1,2,10,4,1,stim/fof_g.wav,5bef41fa54277d000114d6ad,001,2022-03-18_15h43.30.838,task,2021.2.3,Win32,60.0528465,,,,,,,,,,,,,
,,,,2,3.7375,3.012383901,1.3876,1,3,11,7,1,stim/f_schwa_g.wav,5bef41fa54277d000114d6ad,001,2022-03-18_15h43.30.838,task,2021.2.3,Win32,60.0528465,,,,,,,,,,,,,
,,,,4,5.3408,3,2.4601,1,4,12,6,1,stim/feuf_g.wav,5bef41fa54277d000114d6ad,001,2022-03-18_15h43.30.838,task,2021.2.3,Win32,60.0528465,,,,,,,,,,,,,
,,,,3,8.6305,3,0.6829,1,5,13,1,1,stim/pief_g.wav,5bef41fa54277d000114d6ad,001,2022-03-18_15h43.30.838,task,2021.2.3,Win32,60.0528465,,,,,,,,,,,,,
,,,,5,4.376,3.008255934,1.1772,1,6,14,0,1,stim/pof_g.wav,5bef41fa54277d000114d6ad,001,2022-03-18_15h43.30.838,task,2021.2.3,Win32,60.0528465,,,,,,,,,,,,,
,,,,7,4.0005,3.008255934,2.1324,1,7,15,2,1,stim/peuf_g.wav,5bef41fa54277d000114d6ad,001,2022-03-18_15h43.30.838,task,2021.2.3,Win32,60.0528465,,,,,,,,,,,,,
,,,,4,3.3726,4.011351909,1.1561,2,0,16,0,1,stim/pof_g.wav,5bef41fa54277d000114d6ad,001,2022-03-18_15h43.30.838,task,2021.2.3,Win32,60.0528465,,,,,,,,,,,,,
,,,,3,2.867,4.007223942,2.8064,2,1,17,5,1,stim/fief_g.wav,5bef41fa54277d000114d6ad,001,2022-03-18_15h43.30.838,task,2021.2.3,Win32,60.0528465,,,,,,,,,,,,,
,,,,3,3.9838,2.987616099,0.9004,2,2,18,1,1,stim/pief_g.wav,5bef41fa54277d000114d6ad,001,2022-03-18_15h43.30.838,task,2021.2.3,Win32,60.0528465,,,,,,,,,,,,,
,,,,4,4.1559,2.021671827,2.0842,2,3,19,2,1,stim/peuf_g.wav,5bef41fa54277d000114d6ad,001,2022-03-18_15h43.30.838,task,2021.2.3,Win32,60.0528465,,,,,,,,,,,,,
,,,,4,1.8576,3.994840041,1.0949,2,4,20,4,1,stim/fof_g.wav,5bef41fa54277d000114d6ad,001,2022-03-18_15h43.30.838,task,2021.2.3,Win32,60.0528465,,,,,,,,,,,,,
,,,,4,1.667,1.980392157,1.0049,2,5,21,6,1,stim/feuf_g.wav,5bef41fa54277d000114d6ad,001,2022-03-18_15h43.30.838,task,2021.2.3,Win32,60.0528465,,,,,,,,,,,,,
,,,,4,1.6224,2.005159959,1.7154,2,6,22,7,1,stim/f_schwa_g.wav,5bef41fa54277d000114d6ad,001,2022-03-18_15h43.30.838,task,2021.2.3,Win32,60.0528465,,,,,,,,,,,,,
,,,,1,2.4377,4.011351909,0.7537,2,7,23,3,1,stim/p_schwa_g.wav,5bef41fa54277d000114d6ad,001,2022-03-18_15h43.30.838,task,2021.2.3,Win32,60.0528465,,,,,,,,,,,,,
,,,,4,2.0333,4.007223942,0.9551,3,0,24,4,1,stim/fof_g.wav,5bef41fa54277d000114d6ad,001,2022-03-18_15h43.30.838,task,2021.2.3,Win32,60.0528465,,,,,,,,,,,,,
,,,,3,4.2579,2.001031992,1.3331,3,1,25,1,1,stim/pief_g.wav,5bef41fa54277d000114d6ad,001,2022-03-18_15h43.30.838,task,2021.2.3,Win32,60.0528465,,,,,,,,,,,,,
,,,,2,2.4226,2.005159959,2.3435,3,2,26,3,1,stim/p_schwa_g.wav,5bef41fa54277d000114d6ad,001,2022-03-18_15h43.30.838,task,2021.2.3,Win32,60.0528465,,,,,,,,,,,,,
,,,,2,1.9255,3.008255934,0.9126,3,3,27,7,1,stim/f_schwa_g.wav,5bef41fa54277d000114d6ad,001,2022-03-18_15h43.30.838,task,2021.2.3,Win32,60.0528465,,,,,,,,,,,,,
,,,,4,2.2518,2.013415893,1.4248,3,4,28,5,1,stim/fief_g.wav,5bef41fa54277d000114d6ad,001,2022-03-18_15h43.30.838,task,2021.2.3,Win32,60.0528465,,,,,,,,,,,,,
,,,,3,2.6268,3.012383901,0.6664,3,5,29,2,1,stim/peuf_g.wav,5bef41fa54277d000114d6ad,001,2022-03-18_15h43.30.838,task,2021.2.3,Win32,60.0528465,,,,,,,,,,,,,
,,,,4,3.4961,3.008255934,0.5068,3,6,30,0,1,stim/pof_g.wav,5bef41fa54277d000114d6ad,001,2022-03-18_15h43.30.838,task,2021.2.3,Win32,60.0528465,,,,,,,,,,,,,
,,,,3,2.4871,3.008255934,0.5255,3,7,31,6,1,stim/feuf_g.wav,5bef41fa54277d000114d6ad,001,2022-03-18_15h43.30.838,task,2021.2.3,Win32,60.0528465,,,,,,,,,,,,,
,,,,3,1.3451,4.011351909,1.3216,4,0,32,5,1,stim/fief_g.wav,5bef41fa54277d000114d6ad,001,2022-03-18_15h43.30.838,task,2021.2.3,Win32,60.0528465,,,,,,,,,,,,,
,,,,2,5.3164,3.024767802,1.1186,4,1,33,3,1,stim/p_schwa_g.wav,5bef41fa54277d000114d6ad,001,2022-03-18_15h43.30.838,task,2021.2.3,Win32,60.0528465,,,,,,,,,,,,,
,,,,3,3.0028,3.016511868,0.4589,4,2,34,2,1,stim/peuf_g.wav,5bef41fa54277d000114d6ad,001,2022-03-18_15h43.30.838,task,2021.2.3,Win32,60.0528465,,,,,,,,,,,,,
,,,,4,2.3644,3.016511868,0.408,4,3,35,0,1,stim/pof_g.wav,5bef41fa54277d000114d6ad,001,2022-03-18_15h43.30.838,task,2021.2.3,Win32,60.0528465,,,,,,,,,,,,,
,,,,2,2.3249,3.004127967,0.9555,4,4,36,7,1,stim/f_schwa_g.wav,5bef41fa54277d000114d6ad,001,2022-03-18_15h43.30.838,task,2021.2.3,Win32,60.0528465,,,,,,,,,,,,,
,,,,4,2.3719,3.98245614,1.1074,4,5,37,4,1,stim/fof_g.wav,5bef41fa54277d000114d6ad,001,2022-03-18_15h43.30.838,task,2021.2.3,Win32,60.0528465,,,,,,,,,,,,,
,,,,4,3.0891,2.005159959,1.2847,4,6,38,6,1,stim/feuf_g.wav,5bef41fa54277d000114d6ad,001,2022-03-18_15h43.30.838,task,2021.2.3,Win32,60.0528465,,,,,,,,,,,,,
,,,,3,2.9169,3.986584107,1.7182,4,7,39,1,1,stim/pief_g.wav,5bef41fa54277d000114d6ad,001,2022-03-18_15h43.30.838,task,2021.2.3,Win32,60.0528465,,,,,,,,,,,,,
,,,,,,,,,,,,,stim/pof_f.wav,5bef41fa54277d000114d6ad,001,2022-03-18_15h43.30.838,task,2021.2.3,Win32,60.0528465,space,3.9116,4,6.6188,2.966976264,1.7061,0,0,0,0,1,,
,,,,,,,,,,,,,stim/peuf_f.wav,5bef41fa54277d000114d6ad,001,2022-03-18_15h43.30.838,task,2021.2.3,Win32,60.0528465,,,3,5.7595,2.005159959,1.4004,0,1,1,2,1,,
,,,,,,,,,,,,,stim/feuf_f.wav,5bef41fa54277d000114d6ad,001,2022-03-18_15h43.30.838,task,2021.2.3,Win32,60.0528465,,,3,1.561,2.975232198,1.2275,0,2,2,6,1,,
,,,,,,,,,,,,,stim/fof_f.wav,5bef41fa54277d000114d6ad,001,2022-03-18_15h43.30.838,task,2021.2.3,Win32,60.0528465,,,4,6.1205,4.007223942,1.3681,0,3,3,4,1,,
,,,,,,,,,,,,,stim/p_schwa_f.wav,5bef41fa54277d000114d6ad,001,2022-03-18_15h43.30.838,task,2021.2.3,Win32,60.0528465,,,3,4.318,2.009287926,0.9334,0,4,4,3,1,,
,,,,,,,,,,,,,stim/f_schwa_f.wav,5bef41fa54277d000114d6ad,001,2022-03-18_15h43.30.838,task,2021.2.3,Win32,60.0528465,,,3,1.4747,1.980392157,1.1634,0,5,5,7,1,,
,,,,,,,,,,,,,stim/pif_f.wav,5bef41fa54277d000114d6ad,001,2022-03-18_15h43.30.838,task,2021.2.3,Win32,60.0528465,,,3,3.9059,3.990712074,0.9563,0,6,6,1,1,,
,,,,,,,,,,,,,stim/fif_f.wav,5bef41fa54277d000114d6ad,001,2022-03-18_15h43.30.838,task,2021.2.3,Win32,60.0528465,,,3,1.5595,3.986584107,0.9056,0,7,7,5,1,,
,,,,,,,,,,,,,stim/pof_f.wav,5bef41fa54277d000114d6ad,001,2022-03-18_15h43.30.838,task,2021.2.3,Win32,60.0528465,,,4,3.05,2.001031992,2.7306,1,0,8,0,1,,
,,,,,,,,,,,,,stim/fif_f.wav,5bef41fa54277d000114d6ad,001,2022-03-18_15h43.30.838,task,2021.2.3,Win32,60.0528465,,,4,1.9254,5,1.9625,1,1,9,5,1,,
,,,,,,,,,,,,,stim/f_schwa_f.wav,5bef41fa54277d000114d6ad,001,2022-03-18_15h43.30.838,task,2021.2.3,Win32,60.0528465,,,3,2.8765,3.012383901,1.082,1,2,10,7,1,,
,,,,,,,,,,,,,stim/pif_f.wav,5bef41fa54277d000114d6ad,001,2022-03-18_15h43.30.838,task,2021.2.3,Win32,60.0528465,,,3,2.4533,5,0.9976,1,3,11,1,1,,
,,,,,,,,,,,,,stim/fof_f.wav,5bef41fa54277d000114d6ad,001,2022-03-18_15h43.30.838,task,2021.2.3,Win32,60.0528465,,,4,2.258,2.005159959,1.0779,1,4,12,4,1,,
,,,,,,,,,,,,,stim/p_schwa_f.wav,5bef41fa54277d000114d6ad,001,2022-03-18_15h43.30.838,task,2021.2.3,Win32,60.0528465,,,3,6.5354,2.013415893,1.0822,1,5,13,3,1,,
,,,,,,,,,,,,,stim/feuf_f.wav,5bef41fa54277d000114d6ad,001,2022-03-18_15h43.30.838,task,2021.2.3,Win32,60.0528465,,,4,2.8526,2.979360165,1.8095,1,6,14,6,1,,
,,,,,,,,,,,,,stim/peuf_f.wav,5bef41fa54277d000114d6ad,001,2022-03-18_15h43.30.838,task,2021.2.3,Win32,60.0528465,,,4,1.8201,2.979360165,0.494,1,7,15,2,1,,
,,,,,,,,,,,,,stim/pif_f.wav,5bef41fa54277d000114d6ad,001,2022-03-18_15h43.30.838,task,2021.2.3,Win32,60.0528465,,,3,2.9077,5,0.9913,2,0,16,1,1,,
,,,,,,,,,,,,,stim/peuf_f.wav,5bef41fa54277d000114d6ad,001,2022-03-18_15h43.30.838,task,2021.2.3,Win32,60.0528465,,,4,2.3999,3.020639835,1.4122,2,1,17,2,1,,
,,,,,,,,,,,,,stim/feuf_f.wav,5bef41fa54277d000114d6ad,001,2022-03-18_15h43.30.838,task,2021.2.3,Win32,60.0528465,,,4,1.0876,3.020639835,0.3385,2,2,18,6,1,,
,,,,,,,,,,,,,stim/fof_f.wav,5bef41fa54277d000114d6ad,001,2022-03-18_15h43.30.838,task,2021.2.3,Win32,60.0528465,,,4,2.5669,4.015479876,1.9537,2,3,19,4,1,,
,,,,,,,,,,,,,stim/fif_f.wav,5bef41fa54277d000114d6ad,001,2022-03-18_15h43.30.838,task,2021.2.3,Win32,60.0528465,,,3,2.2562,4.977296182,0.8934,2,4,20,5,1,,
,,,,,,,,,,,,,stim/f_schwa_f.wav,5bef41fa54277d000114d6ad,001,2022-03-18_15h43.30.838,task,2021.2.3,Win32,60.0528465,,,4,6.7362,2.005159959,0.8426,2,5,21,7,1,,
,,,,,,,,,,,,,stim/pof_f.wav,5bef41fa54277d000114d6ad,001,2022-03-18_15h43.30.838,task,2021.2.3,Win32,60.0528465,,,4,2.1663,2.995872033,0.9077,2,6,22,0,1,,
,,,,,,,,,,,,,stim/p_schwa_f.wav,5bef41fa54277d000114d6ad,001,2022-03-18_15h43.30.838,task,2021.2.3,Win32,60.0528465,,,3,9.1693,1.010319917,1.4682,2,7,23,3,1,,
,,,,,,,,,,,,,stim/fif_f.wav,5bef41fa54277d000114d6ad,001,2022-03-18_15h43.30.838,task,2021.2.3,Win32,60.0528465,,,3,2.3665,3.994840041,1.2055,3,0,24,5,1,,
,,,,,,,,,,,,,stim/pif_f.wav,5bef41fa54277d000114d6ad,001,2022-03-18_15h43.30.838,task,2021.2.3,Win32,60.0528465,,,3,1.9335,4.019607843,1.3626,3,1,25,1,1,,
,,,,,,,,,,,,,stim/f_schwa_f.wav,5bef41fa54277d000114d6ad,001,2022-03-18_15h43.30.838,task,2021.2.3,Win32,60.0528465,,,2,3.8027,1.996904025,0.8523,3,2,26,7,1,,
,,,,,,,,,,,,,stim/feuf_f.wav,5bef41fa54277d000114d6ad,001,2022-03-18_15h43.30.838,task,2021.2.3,Win32,60.0528465,,,4,2.8266,3.98245614,1.8723,3,3,27,6,1,,
,,,,,,,,,,,,,stim/fof_f.wav,5bef41fa54277d000114d6ad,001,2022-03-18_15h43.30.838,task,2021.2.3,Win32,60.0528465,,,2,3.1434,4.007223942,0.7279,3,4,28,4,1,,
,,,,,,,,,,,,,stim/pof_f.wav,5bef41fa54277d000114d6ad,001,2022-03-18_15h43.30.838,task,2021.2.3,Win32,60.0528465,,,2,1.818,3.98245614,0.524,3,5,29,0,1,,
,,,,,,,,,,,,,stim/p_schwa_f.wav,5bef41fa54277d000114d6ad,001,2022-03-18_15h43.30.838,task,2021.2.3,Win32,60.0528465,,,3,4.5882,2.975232198,1.4189,3,6,30,3,1,,
,,,,,,,,,,,,,stim/peuf_f.wav,5bef41fa54277d000114d6ad,001,2022-03-18_15h43.30.838,task,2021.2.3,Win32,60.0528465,,,1,3.717,2.025799794,1.5308,3,7,31,2,1,,
,,,,,,,,,,,,,stim/fif_f.wav,5bef41fa54277d000114d6ad,001,2022-03-18_15h43.30.838,task,2021.2.3,Win32,60.0528465,,,3,2.5189,4.02373581,0.788,4,0,32,5,1,,
,,,,,,,,,,,,,stim/pof_f.wav,5bef41fa54277d000114d6ad,001,2022-03-18_15h43.30.838,task,2021.2.3,Win32,60.0528465,,,2,4.0924,2.966976264,0.8855,4,1,33,0,1,,
,,,,,,,,,,,,,stim/peuf_f.wav,5bef41fa54277d000114d6ad,001,2022-03-18_15h43.30.838,task,2021.2.3,Win32,60.0528465,,,4,5.3837,2.995872033,1.6006,4,2,34,2,1,,
,,,,,,,,,,,,,stim/feuf_f.wav,5bef41fa54277d000114d6ad,001,2022-03-18_15h43.30.838,task,2021.2.3,Win32,60.0528465,,,4,1.6495,2.995872033,0.3605,4,3,35,6,1,,
,,,,,,,,,,,,,stim/fof_f.wav,5bef41fa54277d000114d6ad,001,2022-03-18_15h43.30.838,task,2021.2.3,Win32,60.0528465,,,1,2.8546,2.995872033,0.5057,4,4,36,4,1,,
,,,,,,,,,,,,,stim/pif_f.wav,5bef41fa54277d000114d6ad,001,2022-03-18_15h43.30.838,task,2021.2.3,Win32,60.0528465,,,3,2.8538,2.995872033,0.3182,4,5,37,1,1,,
,,,,,,,,,,,,,stim/p_schwa_f.wav,5bef41fa54277d000114d6ad,001,2022-03-18_15h43.30.838,task,2021.2.3,Win32,60.0528465,,,2,4.5842,1.030959752,1.1656,4,6,38,3,1,,
,,,,,,,,,,,,,stim/f_schwa_f.wav,5bef41fa54277d000114d6ad,001,2022-03-18_15h43.30.838,task,2021.2.3,Win32,60.0528465,,,2,1.5849,1,0.292,4,7,39,7,1,,
,,,,,,,,,,,,,,5bef41fa54277d000114d6ad,001,2022-03-18_15h43.30.838,task,2021.2.3,Win32,60.0528465,,,,,,,,,,,,space,24.9538
