key_resp.keys,key_resp.rt,key_resp_2.keys,key_resp_2.rt,slider.response,slider.rt,trials.thisRepN,trials.thisTrialN,trials.thisN,trials.thisIndex,trials.ran,stim,participant,session,date,expName,psychopyVersion,OS,frameRate,key_resp_trial.keys,key_resp_trial.corr,trials_2.thisRepN,trials_2.thisTrialN,trials_2.thisN,trials_2.thisIndex,trials_2.ran,stim1,stim2,distance,isCorrect,key_resp_trial.rt
space,476.2102,4,10.4877,2.888888889,7.2583,0,0,0,0,1,stim/f_schwa_g.wav,5da8b26395be5f0017360ad5,001,2022-03-09_14h13.17.217,vct_new,2021.2.3,Win32,59.91611744,,,,,,,,,,,,
,,2,4.4085,3.011111111,2.6507,0,1,1,3,1,stim/fof_g.wav,5da8b26395be5f0017360ad5,001,2022-03-09_14h13.17.217,vct_new,2021.2.3,Win32,59.91611744,,,,,,,,,,,,
,,2,2.1931,3.011111111,1.3568,0,2,2,7,1,stim/pof_g.wav,5da8b26395be5f0017360ad5,001,2022-03-09_14h13.17.217,vct_new,2021.2.3,Win32,59.91611744,,,,,,,,,,,,
,,2,2.8853,2.259259259,2.5052,0,3,3,2,1,stim/fif_g.wav,5da8b26395be5f0017360ad5,001,2022-03-09_14h13.17.217,vct_new,2021.2.3,Win32,59.91611744,,,,,,,,,,,,
,,2,4.3746,3.018518519,1.1322,0,4,4,1,1,stim/faf_g.wav,5da8b26395be5f0017360ad5,001,2022-03-09_14h13.17.217,vct_new,2021.2.3,Win32,59.91611744,,,,,,,,,,,,
,,2,2.9335,1.959259259,1.9571,0,5,5,5,1,stim/paf_g.wav,5da8b26395be5f0017360ad5,001,2022-03-09_14h13.17.217,vct_new,2021.2.3,Win32,59.91611744,,,,,,,,,,,,
,,2,4.4949,2.996296296,2.7137,0,6,6,4,1,stim/p_schwa_g.wav,5da8b26395be5f0017360ad5,001,2022-03-09_14h13.17.217,vct_new,2021.2.3,Win32,59.91611744,,,,,,,,,,,,
,,3,2.7185,3.977777778,1.0229,0,7,7,6,1,stim/piep_g.wav,5da8b26395be5f0017360ad5,001,2022-03-09_14h13.17.217,vct_new,2021.2.3,Win32,59.91611744,,,,,,,,,,,,
,,2,2.4418,3.985185185,1.0992,1,0,8,3,1,stim/fof_g.wav,5da8b26395be5f0017360ad5,001,2022-03-09_14h13.17.217,vct_new,2021.2.3,Win32,59.91611744,,,,,,,,,,,,
,,3,2.3185,3.948148148,0.8397,1,1,9,2,1,stim/fif_g.wav,5da8b26395be5f0017360ad5,001,2022-03-09_14h13.17.217,vct_new,2021.2.3,Win32,59.91611744,,,,,,,,,,,,
,,4,3.8691,2.025925926,0.7761,1,2,10,4,1,stim/p_schwa_g.wav,5da8b26395be5f0017360ad5,001,2022-03-09_14h13.17.217,vct_new,2021.2.3,Win32,59.91611744,,,,,,,,,,,,
,,4,2.7345,2,1.3984,1,3,11,1,1,stim/faf_g.wav,5da8b26395be5f0017360ad5,001,2022-03-09_14h13.17.217,vct_new,2021.2.3,Win32,59.91611744,,,,,,,,,,,,
,,4,2.6682,2.988888889,0.7724,1,4,12,0,1,stim/f_schwa_g.wav,5da8b26395be5f0017360ad5,001,2022-03-09_14h13.17.217,vct_new,2021.2.3,Win32,59.91611744,,,,,,,,,,,,
,,4,1.7688,2.948148148,0.7399,1,5,13,5,1,stim/paf_g.wav,5da8b26395be5f0017360ad5,001,2022-03-09_14h13.17.217,vct_new,2021.2.3,Win32,59.91611744,,,,,,,,,,,,
,,3,2.2351,4.040740741,0.7784,1,6,14,6,1,stim/piep_g.wav,5da8b26395be5f0017360ad5,001,2022-03-09_14h13.17.217,vct_new,2021.2.3,Win32,59.91611744,,,,,,,,,,,,
,,4,2.4552,2.962962963,0.6883,1,7,15,7,1,stim/pof_g.wav,5da8b26395be5f0017360ad5,001,2022-03-09_14h13.17.217,vct_new,2021.2.3,Win32,59.91611744,,,,,,,,,,,,
,,3,2.1177,2.944444444,0.9313,2,0,16,6,1,stim/piep_g.wav,5da8b26395be5f0017360ad5,001,2022-03-09_14h13.17.217,vct_new,2021.2.3,Win32,59.91611744,,,,,,,,,,,,
,,2,2.0255,2.203703704,0.7036,2,1,17,0,1,stim/f_schwa_g.wav,5da8b26395be5f0017360ad5,001,2022-03-09_14h13.17.217,vct_new,2021.2.3,Win32,59.91611744,,,,,,,,,,,,
,,2,1.2357,1.859259259,0.5635,2,2,18,1,1,stim/faf_g.wav,5da8b26395be5f0017360ad5,001,2022-03-09_14h13.17.217,vct_new,2021.2.3,Win32,59.91611744,,,,,,,,,,,,
,,2,1.0173,1.974074074,0.5719,2,3,19,4,1,stim/p_schwa_g.wav,5da8b26395be5f0017360ad5,001,2022-03-09_14h13.17.217,vct_new,2021.2.3,Win32,59.91611744,,,,,,,,,,,,
,,4,1.9351,2.822222222,0.9155,2,4,20,7,1,stim/pof_g.wav,5da8b26395be5f0017360ad5,001,2022-03-09_14h13.17.217,vct_new,2021.2.3,Win32,59.91611744,,,,,,,,,,,,
,,2,2.2198,3.051851852,0.5886,2,5,21,5,1,stim/paf_g.wav,5da8b26395be5f0017360ad5,001,2022-03-09_14h13.17.217,vct_new,2021.2.3,Win32,59.91611744,,,,,,,,,,,,
,,3,2.0678,2.014814815,0.8249,2,6,22,2,1,stim/fif_g.wav,5da8b26395be5f0017360ad5,001,2022-03-09_14h13.17.217,vct_new,2021.2.3,Win32,59.91611744,,,,,,,,,,,,
,,4,2.9619,2.085185185,0.8056,2,7,23,3,1,stim/fof_g.wav,5da8b26395be5f0017360ad5,001,2022-03-09_14h13.17.217,vct_new,2021.2.3,Win32,59.91611744,,,,,,,,,,,,
,,,,,,,,,,,,5da8b26395be5f0017360ad5,001,2022-03-09_14h13.17.217,vct_new,2021.2.3,Win32,59.91611744,,0,0,0,0,3,1,stim/Step_1.wav,stim/Step_4.wav,-3,1,
,,,,,,,,,,,,5da8b26395be5f0017360ad5,001,2022-03-09_14h13.17.217,vct_new,2021.2.3,Win32,59.91611744,,0,0,1,1,7,1,stim/Step_2.wav,stim/Step_1.wav,1,1,
,,,,,,,,,,,,5da8b26395be5f0017360ad5,001,2022-03-09_14h13.17.217,vct_new,2021.2.3,Win32,59.91611744,,0,0,2,2,46,1,stim/Step_7.wav,stim/Step_5.wav,2,1,
,,,,,,,,,,,,5da8b26395be5f0017360ad5,001,2022-03-09_14h13.17.217,vct_new,2021.2.3,Win32,59.91611744,,0,0,3,3,39,1,stim/Step_6.wav,stim/Step_5.wav,1,1,
,,,,,,,,,,,,5da8b26395be5f0017360ad5,001,2022-03-09_14h13.17.217,vct_new,2021.2.3,Win32,59.91611744,,0,0,4,4,22,1,stim/Step_4.wav,stim/Step_2.wav,2,1,
,,,,,,,,,,,,5da8b26395be5f0017360ad5,001,2022-03-09_14h13.17.217,vct_new,2021.2.3,Win32,59.91611744,,0,0,5,5,11,1,stim/Step_2.wav,stim/Step_5.wav,-3,1,
,,,,,,,,,,,,5da8b26395be5f0017360ad5,001,2022-03-09_14h13.17.217,vct_new,2021.2.3,Win32,59.91611744,,0,0,6,6,33,1,stim/Step_5.wav,stim/Step_6.wav,-1,1,
,,,,,,,,,,,,5da8b26395be5f0017360ad5,001,2022-03-09_14h13.17.217,vct_new,2021.2.3,Win32,59.91611744,,0,0,7,7,37,1,stim/Step_6.wav,stim/Step_3.wav,3,1,
,,,,,,,,,,,,5da8b26395be5f0017360ad5,001,2022-03-09_14h13.17.217,vct_new,2021.2.3,Win32,59.91611744,,0,0,8,8,40,1,stim/Step_6.wav,stim/Step_6.wav,0,0,
,,,,,,,,,,,,5da8b26395be5f0017360ad5,001,2022-03-09_14h13.17.217,vct_new,2021.2.3,Win32,59.91611744,,0,0,9,9,43,1,stim/Step_7.wav,stim/Step_2.wav,5,1,
,,,,,,,,,,,,5da8b26395be5f0017360ad5,001,2022-03-09_14h13.17.217,vct_new,2021.2.3,Win32,59.91611744,,0,0,10,10,13,1,stim/Step_2.wav,stim/Step_7.wav,-5,1,
,,,,,,,,,,,,5da8b26395be5f0017360ad5,001,2022-03-09_14h13.17.217,vct_new,2021.2.3,Win32,59.91611744,,0,0,11,11,0,1,stim/Step_1.wav,stim/Step_1.wav,0,0,
,,,,,,,,,,,,5da8b26395be5f0017360ad5,001,2022-03-09_14h13.17.217,vct_new,2021.2.3,Win32,59.91611744,,0,0,12,12,9,1,stim/Step_2.wav,stim/Step_3.wav,-1,1,
,,,,,,,,,,,,5da8b26395be5f0017360ad5,001,2022-03-09_14h13.17.217,vct_new,2021.2.3,Win32,59.91611744,,0,0,13,13,48,1,stim/Step_7.wav,stim/Step_7.wav,0,0,
,,,,,,,,,,,,5da8b26395be5f0017360ad5,001,2022-03-09_14h13.17.217,vct_new,2021.2.3,Win32,59.91611744,,0,0,14,14,41,1,stim/Step_6.wav,stim/Step_7.wav,-1,1,
,,,,,,,,,,,,5da8b26395be5f0017360ad5,001,2022-03-09_14h13.17.217,vct_new,2021.2.3,Win32,59.91611744,,0,0,15,15,18,1,stim/Step_3.wav,stim/Step_5.wav,-2,1,
,,,,,,,,,,,,5da8b26395be5f0017360ad5,001,2022-03-09_14h13.17.217,vct_new,2021.2.3,Win32,59.91611744,,0,0,16,16,30,1,stim/Step_5.wav,stim/Step_3.wav,2,1,
,,,,,,,,,,,,5da8b26395be5f0017360ad5,001,2022-03-09_14h13.17.217,vct_new,2021.2.3,Win32,59.91611744,,0,0,17,17,38,1,stim/Step_6.wav,stim/Step_4.wav,2,1,
,,,,,,,,,,,,5da8b26395be5f0017360ad5,001,2022-03-09_14h13.17.217,vct_new,2021.2.3,Win32,59.91611744,,0,0,18,18,29,1,stim/Step_5.wav,stim/Step_2.wav,3,1,
,,,,,,,,,,,,5da8b26395be5f0017360ad5,001,2022-03-09_14h13.17.217,vct_new,2021.2.3,Win32,59.91611744,,0,0,19,19,21,1,stim/Step_4.wav,stim/Step_1.wav,3,1,
,,,,,,,,,,,,5da8b26395be5f0017360ad5,001,2022-03-09_14h13.17.217,vct_new,2021.2.3,Win32,59.91611744,,0,0,20,20,15,1,stim/Step_3.wav,stim/Step_2.wav,1,1,
,,,,,,,,,,,,5da8b26395be5f0017360ad5,001,2022-03-09_14h13.17.217,vct_new,2021.2.3,Win32,59.91611744,,0,0,21,21,45,1,stim/Step_7.wav,stim/Step_4.wav,3,1,
,,,,,,,,,,,,5da8b26395be5f0017360ad5,001,2022-03-09_14h13.17.217,vct_new,2021.2.3,Win32,59.91611744,,0,0,22,22,20,1,stim/Step_3.wav,stim/Step_7.wav,-4,1,
,,,,,,,,,,,,5da8b26395be5f0017360ad5,001,2022-03-09_14h13.17.217,vct_new,2021.2.3,Win32,59.91611744,,0,0,23,23,24,1,stim/Step_4.wav,stim/Step_4.wav,0,0,
,,,,,,,,,,,,5da8b26395be5f0017360ad5,001,2022-03-09_14h13.17.217,vct_new,2021.2.3,Win32,59.91611744,,0,0,24,24,4,1,stim/Step_1.wav,stim/Step_5.wav,-4,1,
,,,,,,,,,,,,5da8b26395be5f0017360ad5,001,2022-03-09_14h13.17.217,vct_new,2021.2.3,Win32,59.91611744,,0,0,25,25,32,1,stim/Step_5.wav,stim/Step_5.wav,0,0,
,,,,,,,,,,,,5da8b26395be5f0017360ad5,001,2022-03-09_14h13.17.217,vct_new,2021.2.3,Win32,59.91611744,,0,0,26,26,17,1,stim/Step_3.wav,stim/Step_4.wav,-1,1,
,,,,,,,,,,,,5da8b26395be5f0017360ad5,001,2022-03-09_14h13.17.217,vct_new,2021.2.3,Win32,59.91611744,,0,0,27,27,42,1,stim/Step_7.wav,stim/Step_1.wav,6,1,
,,,,,,,,,,,,5da8b26395be5f0017360ad5,001,2022-03-09_14h13.17.217,vct_new,2021.2.3,Win32,59.91611744,,0,0,28,28,35,1,stim/Step_6.wav,stim/Step_1.wav,5,1,
,,,,,,,,,,,,5da8b26395be5f0017360ad5,001,2022-03-09_14h13.17.217,vct_new,2021.2.3,Win32,59.91611744,,0,0,29,29,27,1,stim/Step_4.wav,stim/Step_7.wav,-3,1,
,,,,,,,,,,,,5da8b26395be5f0017360ad5,001,2022-03-09_14h13.17.217,vct_new,2021.2.3,Win32,59.91611744,,0,0,30,30,14,1,stim/Step_3.wav,stim/Step_1.wav,2,1,
,,,,,,,,,,,,5da8b26395be5f0017360ad5,001,2022-03-09_14h13.17.217,vct_new,2021.2.3,Win32,59.91611744,,0,0,31,31,25,1,stim/Step_4.wav,stim/Step_5.wav,-1,1,
,,,,,,,,,,,,5da8b26395be5f0017360ad5,001,2022-03-09_14h13.17.217,vct_new,2021.2.3,Win32,59.91611744,,0,0,32,32,1,1,stim/Step_1.wav,stim/Step_2.wav,-1,1,
,,,,,,,,,,,,5da8b26395be5f0017360ad5,001,2022-03-09_14h13.17.217,vct_new,2021.2.3,Win32,59.91611744,,0,0,33,33,5,1,stim/Step_1.wav,stim/Step_6.wav,-5,1,
,,,,,,,,,,,,5da8b26395be5f0017360ad5,001,2022-03-09_14h13.17.217,vct_new,2021.2.3,Win32,59.91611744,,0,0,34,34,44,1,stim/Step_7.wav,stim/Step_3.wav,4,1,
,,,,,,,,,,,,5da8b26395be5f0017360ad5,001,2022-03-09_14h13.17.217,vct_new,2021.2.3,Win32,59.91611744,,0,0,35,35,47,1,stim/Step_7.wav,stim/Step_6.wav,1,1,
,,,,,,,,,,,,5da8b26395be5f0017360ad5,001,2022-03-09_14h13.17.217,vct_new,2021.2.3,Win32,59.91611744,,0,0,36,36,6,1,stim/Step_1.wav,stim/Step_7.wav,-6,1,
,,,,,,,,,,,,5da8b26395be5f0017360ad5,001,2022-03-09_14h13.17.217,vct_new,2021.2.3,Win32,59.91611744,,0,0,37,37,16,1,stim/Step_3.wav,stim/Step_3.wav,0,0,
,,,,,,,,,,,,5da8b26395be5f0017360ad5,001,2022-03-09_14h13.17.217,vct_new,2021.2.3,Win32,59.91611744,,0,0,38,38,23,1,stim/Step_4.wav,stim/Step_3.wav,1,1,
,,,,,,,,,,,,5da8b26395be5f0017360ad5,001,2022-03-09_14h13.17.217,vct_new,2021.2.3,Win32,59.91611744,,0,0,39,39,28,1,stim/Step_5.wav,stim/Step_1.wav,4,1,
,,,,,,,,,,,,5da8b26395be5f0017360ad5,001,2022-03-09_14h13.17.217,vct_new,2021.2.3,Win32,59.91611744,,0,0,40,40,36,1,stim/Step_6.wav,stim/Step_2.wav,4,1,
,,,,,,,,,,,,5da8b26395be5f0017360ad5,001,2022-03-09_14h13.17.217,vct_new,2021.2.3,Win32,59.91611744,,0,0,41,41,8,1,stim/Step_2.wav,stim/Step_2.wav,0,0,
,,,,,,,,,,,,5da8b26395be5f0017360ad5,001,2022-03-09_14h13.17.217,vct_new,2021.2.3,Win32,59.91611744,,0,0,42,42,2,1,stim/Step_1.wav,stim/Step_3.wav,-2,1,
,,,,,,,,,,,,5da8b26395be5f0017360ad5,001,2022-03-09_14h13.17.217,vct_new,2021.2.3,Win32,59.91611744,,0,0,43,43,31,1,stim/Step_5.wav,stim/Step_4.wav,1,1,
,,,,,,,,,,,,5da8b26395be5f0017360ad5,001,2022-03-09_14h13.17.217,vct_new,2021.2.3,Win32,59.91611744,,0,0,44,44,12,1,stim/Step_2.wav,stim/Step_6.wav,-4,1,
,,,,,,,,,,,,5da8b26395be5f0017360ad5,001,2022-03-09_14h13.17.217,vct_new,2021.2.3,Win32,59.91611744,,0,0,45,45,19,1,stim/Step_3.wav,stim/Step_6.wav,-3,1,
,,,,,,,,,,,,5da8b26395be5f0017360ad5,001,2022-03-09_14h13.17.217,vct_new,2021.2.3,Win32,59.91611744,,0,0,46,46,34,1,stim/Step_5.wav,stim/Step_7.wav,-2,1,
,,,,,,,,,,,,5da8b26395be5f0017360ad5,001,2022-03-09_14h13.17.217,vct_new,2021.2.3,Win32,59.91611744,,0,0,47,47,26,1,stim/Step_4.wav,stim/Step_6.wav,-2,1,
,,,,,,,,,,,,5da8b26395be5f0017360ad5,001,2022-03-09_14h13.17.217,vct_new,2021.2.3,Win32,59.91611744,,0,0,48,48,10,1,stim/Step_2.wav,stim/Step_4.wav,-2,1,
,,,,,,,,,,,,5da8b26395be5f0017360ad5,001,2022-03-09_14h13.17.217,vct_new,2021.2.3,Win32,59.91611744,,0,1,0,49,11,1,stim/Step_2.wav,stim/Step_5.wav,-3,1,
,,,,,,,,,,,,5da8b26395be5f0017360ad5,001,2022-03-09_14h13.17.217,vct_new,2021.2.3,Win32,59.91611744,,0,1,1,50,26,1,stim/Step_4.wav,stim/Step_6.wav,-2,1,
,,,,,,,,,,,,5da8b26395be5f0017360ad5,001,2022-03-09_14h13.17.217,vct_new,2021.2.3,Win32,59.91611744,,0,1,2,51,13,1,stim/Step_2.wav,stim/Step_7.wav,-5,1,
,,,,,,,,,,,,5da8b26395be5f0017360ad5,001,2022-03-09_14h13.17.217,vct_new,2021.2.3,Win32,59.91611744,,0,1,3,52,47,1,stim/Step_7.wav,stim/Step_6.wav,1,1,
,,,,,,,,,,,,5da8b26395be5f0017360ad5,001,2022-03-09_14h13.17.217,vct_new,2021.2.3,Win32,59.91611744,,0,1,4,53,31,1,stim/Step_5.wav,stim/Step_4.wav,1,1,
,,,,,,,,,,,,5da8b26395be5f0017360ad5,001,2022-03-09_14h13.17.217,vct_new,2021.2.3,Win32,59.91611744,,0,1,5,54,2,1,stim/Step_1.wav,stim/Step_3.wav,-2,1,
,,,,,,,,,,,,5da8b26395be5f0017360ad5,001,2022-03-09_14h13.17.217,vct_new,2021.2.3,Win32,59.91611744,,0,1,6,55,32,1,stim/Step_5.wav,stim/Step_5.wav,0,0,
,,,,,,,,,,,,5da8b26395be5f0017360ad5,001,2022-03-09_14h13.17.217,vct_new,2021.2.3,Win32,59.91611744,,0,1,7,56,40,1,stim/Step_6.wav,stim/Step_6.wav,0,0,
,,,,,,,,,,,,5da8b26395be5f0017360ad5,001,2022-03-09_14h13.17.217,vct_new,2021.2.3,Win32,59.91611744,,0,1,8,57,29,1,stim/Step_5.wav,stim/Step_2.wav,3,1,
,,,,,,,,,,,,5da8b26395be5f0017360ad5,001,2022-03-09_14h13.17.217,vct_new,2021.2.3,Win32,59.91611744,,0,1,9,58,21,1,stim/Step_4.wav,stim/Step_1.wav,3,1,
,,,,,,,,,,,,5da8b26395be5f0017360ad5,001,2022-03-09_14h13.17.217,vct_new,2021.2.3,Win32,59.91611744,,0,1,10,59,42,1,stim/Step_7.wav,stim/Step_1.wav,6,1,
,,,,,,,,,,,,5da8b26395be5f0017360ad5,001,2022-03-09_14h13.17.217,vct_new,2021.2.3,Win32,59.91611744,,0,1,11,60,9,1,stim/Step_2.wav,stim/Step_3.wav,-1,1,
,,,,,,,,,,,,5da8b26395be5f0017360ad5,001,2022-03-09_14h13.17.217,vct_new,2021.2.3,Win32,59.91611744,,0,1,12,61,22,1,stim/Step_4.wav,stim/Step_2.wav,2,1,
,,,,,,,,,,,,5da8b26395be5f0017360ad5,001,2022-03-09_14h13.17.217,vct_new,2021.2.3,Win32,59.91611744,,0,1,13,62,45,1,stim/Step_7.wav,stim/Step_4.wav,3,1,
,,,,,,,,,,,,5da8b26395be5f0017360ad5,001,2022-03-09_14h13.17.217,vct_new,2021.2.3,Win32,59.91611744,,0,1,14,63,6,1,stim/Step_1.wav,stim/Step_7.wav,-6,1,
,,,,,,,,,,,,5da8b26395be5f0017360ad5,001,2022-03-09_14h13.17.217,vct_new,2021.2.3,Win32,59.91611744,,0,1,15,64,25,1,stim/Step_4.wav,stim/Step_5.wav,-1,1,
,,,,,,,,,,,,5da8b26395be5f0017360ad5,001,2022-03-09_14h13.17.217,vct_new,2021.2.3,Win32,59.91611744,,0,1,16,65,5,1,stim/Step_1.wav,stim/Step_6.wav,-5,1,
,,,,,,,,,,,,5da8b26395be5f0017360ad5,001,2022-03-09_14h13.17.217,vct_new,2021.2.3,Win32,59.91611744,,0,1,17,66,35,1,stim/Step_6.wav,stim/Step_1.wav,5,1,
,,,,,,,,,,,,5da8b26395be5f0017360ad5,001,2022-03-09_14h13.17.217,vct_new,2021.2.3,Win32,59.91611744,,0,1,18,67,15,1,stim/Step_3.wav,stim/Step_2.wav,1,1,
,,,,,,,,,,,,5da8b26395be5f0017360ad5,001,2022-03-09_14h13.17.217,vct_new,2021.2.3,Win32,59.91611744,,0,1,19,68,1,1,stim/Step_1.wav,stim/Step_2.wav,-1,1,
,,,,,,,,,,,,5da8b26395be5f0017360ad5,001,2022-03-09_14h13.17.217,vct_new,2021.2.3,Win32,59.91611744,,0,1,20,69,14,1,stim/Step_3.wav,stim/Step_1.wav,2,1,
,,,,,,,,,,,,5da8b26395be5f0017360ad5,001,2022-03-09_14h13.17.217,vct_new,2021.2.3,Win32,59.91611744,,0,1,21,70,3,1,stim/Step_1.wav,stim/Step_4.wav,-3,1,
,,,,,,,,,,,,5da8b26395be5f0017360ad5,001,2022-03-09_14h13.17.217,vct_new,2021.2.3,Win32,59.91611744,,0,1,22,71,24,1,stim/Step_4.wav,stim/Step_4.wav,0,0,
,,,,,,,,,,,,5da8b26395be5f0017360ad5,001,2022-03-09_14h13.17.217,vct_new,2021.2.3,Win32,59.91611744,,0,1,23,72,10,1,stim/Step_2.wav,stim/Step_4.wav,-2,1,
,,,,,,,,,,,,5da8b26395be5f0017360ad5,001,2022-03-09_14h13.17.217,vct_new,2021.2.3,Win32,59.91611744,,0,1,24,73,48,1,stim/Step_7.wav,stim/Step_7.wav,0,0,
,,,,,,,,,,,,5da8b26395be5f0017360ad5,001,2022-03-09_14h13.17.217,vct_new,2021.2.3,Win32,59.91611744,,0,1,25,74,4,1,stim/Step_1.wav,stim/Step_5.wav,-4,1,
,,,,,,,,,,,,5da8b26395be5f0017360ad5,001,2022-03-09_14h13.17.217,vct_new,2021.2.3,Win32,59.91611744,,0,1,26,75,27,1,stim/Step_4.wav,stim/Step_7.wav,-3,1,
,,,,,,,,,,,,5da8b26395be5f0017360ad5,001,2022-03-09_14h13.17.217,vct_new,2021.2.3,Win32,59.91611744,,0,1,27,76,17,1,stim/Step_3.wav,stim/Step_4.wav,-1,1,
,,,,,,,,,,,,5da8b26395be5f0017360ad5,001,2022-03-09_14h13.17.217,vct_new,2021.2.3,Win32,59.91611744,,0,1,28,77,0,1,stim/Step_1.wav,stim/Step_1.wav,0,0,
,,,,,,,,,,,,5da8b26395be5f0017360ad5,001,2022-03-09_14h13.17.217,vct_new,2021.2.3,Win32,59.91611744,,0,1,29,78,34,1,stim/Step_5.wav,stim/Step_7.wav,-2,1,
,,,,,,,,,,,,5da8b26395be5f0017360ad5,001,2022-03-09_14h13.17.217,vct_new,2021.2.3,Win32,59.91611744,,0,1,30,79,44,1,stim/Step_7.wav,stim/Step_3.wav,4,1,
,,,,,,,,,,,,5da8b26395be5f0017360ad5,001,2022-03-09_14h13.17.217,vct_new,2021.2.3,Win32,59.91611744,,0,1,31,80,19,1,stim/Step_3.wav,stim/Step_6.wav,-3,1,
,,,,,,,,,,,,5da8b26395be5f0017360ad5,001,2022-03-09_14h13.17.217,vct_new,2021.2.3,Win32,59.91611744,,0,1,32,81,37,1,stim/Step_6.wav,stim/Step_3.wav,3,1,
,,,,,,,,,,,,5da8b26395be5f0017360ad5,001,2022-03-09_14h13.17.217,vct_new,2021.2.3,Win32,59.91611744,,0,1,33,82,12,1,stim/Step_2.wav,stim/Step_6.wav,-4,1,
,,,,,,,,,,,,5da8b26395be5f0017360ad5,001,2022-03-09_14h13.17.217,vct_new,2021.2.3,Win32,59.91611744,,0,1,34,83,16,1,stim/Step_3.wav,stim/Step_3.wav,0,0,
,,,,,,,,,,,,5da8b26395be5f0017360ad5,001,2022-03-09_14h13.17.217,vct_new,2021.2.3,Win32,59.91611744,,0,1,35,84,33,1,stim/Step_5.wav,stim/Step_6.wav,-1,1,
,,,,,,,,,,,,5da8b26395be5f0017360ad5,001,2022-03-09_14h13.17.217,vct_new,2021.2.3,Win32,59.91611744,,0,1,36,85,46,1,stim/Step_7.wav,stim/Step_5.wav,2,1,
,,,,,,,,,,,,5da8b26395be5f0017360ad5,001,2022-03-09_14h13.17.217,vct_new,2021.2.3,Win32,59.91611744,,0,1,37,86,18,1,stim/Step_3.wav,stim/Step_5.wav,-2,1,
,,,,,,,,,,,,5da8b26395be5f0017360ad5,001,2022-03-09_14h13.17.217,vct_new,2021.2.3,Win32,59.91611744,,0,1,38,87,8,1,stim/Step_2.wav,stim/Step_2.wav,0,0,
,,,,,,,,,,,,5da8b26395be5f0017360ad5,001,2022-03-09_14h13.17.217,vct_new,2021.2.3,Win32,59.91611744,,0,1,39,88,39,1,stim/Step_6.wav,stim/Step_5.wav,1,1,
,,,,,,,,,,,,5da8b26395be5f0017360ad5,001,2022-03-09_14h13.17.217,vct_new,2021.2.3,Win32,59.91611744,1,1,1,40,89,23,1,stim/Step_4.wav,stim/Step_3.wav,1,1,0.735
,,,,,,,,,,,,5da8b26395be5f0017360ad5,001,2022-03-09_14h13.17.217,vct_new,2021.2.3,Win32,59.91611744,1,1,1,41,90,28,1,stim/Step_5.wav,stim/Step_1.wav,4,1,0.6516
,,,,,,,,,,,,5da8b26395be5f0017360ad5,001,2022-03-09_14h13.17.217,vct_new,2021.2.3,Win32,59.91611744,1,1,1,42,91,36,1,stim/Step_6.wav,stim/Step_2.wav,4,1,0.7018
,,,,,,,,,,,,5da8b26395be5f0017360ad5,001,2022-03-09_14h13.17.217,vct_new,2021.2.3,Win32,59.91611744,,0,1,43,92,30,1,stim/Step_5.wav,stim/Step_3.wav,2,1,
,,,,,,,,,,,,5da8b26395be5f0017360ad5,001,2022-03-09_14h13.17.217,vct_new,2021.2.3,Win32,59.91611744,,0,1,44,93,20,1,stim/Step_3.wav,stim/Step_7.wav,-4,1,
,,,,,,,,,,,,5da8b26395be5f0017360ad5,001,2022-03-09_14h13.17.217,vct_new,2021.2.3,Win32,59.91611744,1,1,1,45,94,7,1,stim/Step_2.wav,stim/Step_1.wav,1,1,0.9006
,,,,,,,,,,,,5da8b26395be5f0017360ad5,001,2022-03-09_14h13.17.217,vct_new,2021.2.3,Win32,59.91611744,,0,1,46,95,43,1,stim/Step_7.wav,stim/Step_2.wav,5,1,
,,,,,,,,,,,,5da8b26395be5f0017360ad5,001,2022-03-09_14h13.17.217,vct_new,2021.2.3,Win32,59.91611744,1,1,1,47,96,41,1,stim/Step_6.wav,stim/Step_7.wav,-1,1,0.8713
,,,,,,,,,,,,5da8b26395be5f0017360ad5,001,2022-03-09_14h13.17.217,vct_new,2021.2.3,Win32,59.91611744,,0,1,48,97,38,1,stim/Step_6.wav,stim/Step_4.wav,2,1,
,,,,,,,,,,,,5da8b26395be5f0017360ad5,001,2022-03-09_14h13.17.217,vct_new,2021.2.3,Win32,59.91611744,1,0,2,0,98,40,1,stim/Step_6.wav,stim/Step_6.wav,0,0,2.1366
,,,,,,,,,,,,5da8b26395be5f0017360ad5,001,2022-03-09_14h13.17.217,vct_new,2021.2.3,Win32,59.91611744,1,1,2,1,99,17,1,stim/Step_3.wav,stim/Step_4.wav,-1,1,0.6826
,,,,,,,,,,,,5da8b26395be5f0017360ad5,001,2022-03-09_14h13.17.217,vct_new,2021.2.3,Win32,59.91611744,,0,2,2,100,13,1,stim/Step_2.wav,stim/Step_7.wav,-5,1,
,,,,,,,,,,,,5da8b26395be5f0017360ad5,001,2022-03-09_14h13.17.217,vct_new,2021.2.3,Win32,59.91611744,,0,2,3,101,30,1,stim/Step_5.wav,stim/Step_3.wav,2,1,
,,,,,,,,,,,,5da8b26395be5f0017360ad5,001,2022-03-09_14h13.17.217,vct_new,2021.2.3,Win32,59.91611744,,0,2,4,102,27,1,stim/Step_4.wav,stim/Step_7.wav,-3,1,
,,,,,,,,,,,,5da8b26395be5f0017360ad5,001,2022-03-09_14h13.17.217,vct_new,2021.2.3,Win32,59.91611744,,0,2,5,103,15,1,stim/Step_3.wav,stim/Step_2.wav,1,1,
,,,,,,,,,,,,5da8b26395be5f0017360ad5,001,2022-03-09_14h13.17.217,vct_new,2021.2.3,Win32,59.91611744,,0,2,6,104,19,1,stim/Step_3.wav,stim/Step_6.wav,-3,1,
,,,,,,,,,,,,5da8b26395be5f0017360ad5,001,2022-03-09_14h13.17.217,vct_new,2021.2.3,Win32,59.91611744,1,0,2,7,105,32,1,stim/Step_5.wav,stim/Step_5.wav,0,0,0.8918
,,,,,,,,,,,,5da8b26395be5f0017360ad5,001,2022-03-09_14h13.17.217,vct_new,2021.2.3,Win32,59.91611744,,0,2,8,106,3,1,stim/Step_1.wav,stim/Step_4.wav,-3,1,
,,,,,,,,,,,,5da8b26395be5f0017360ad5,001,2022-03-09_14h13.17.217,vct_new,2021.2.3,Win32,59.91611744,,0,2,9,107,6,1,stim/Step_1.wav,stim/Step_7.wav,-6,1,
,,,,,,,,,,,,5da8b26395be5f0017360ad5,001,2022-03-09_14h13.17.217,vct_new,2021.2.3,Win32,59.91611744,,0,2,10,108,42,1,stim/Step_7.wav,stim/Step_1.wav,6,1,
,,,,,,,,,,,,5da8b26395be5f0017360ad5,001,2022-03-09_14h13.17.217,vct_new,2021.2.3,Win32,59.91611744,1,1,2,11,109,23,1,stim/Step_4.wav,stim/Step_3.wav,1,1,0.8526
,,,,,,,,,,,,5da8b26395be5f0017360ad5,001,2022-03-09_14h13.17.217,vct_new,2021.2.3,Win32,59.91611744,1,0,2,12,110,0,1,stim/Step_1.wav,stim/Step_1.wav,0,0,0.735
,,,,,,,,,,,,5da8b26395be5f0017360ad5,001,2022-03-09_14h13.17.217,vct_new,2021.2.3,Win32,59.91611744,,0,2,13,111,26,1,stim/Step_4.wav,stim/Step_6.wav,-2,1,
,,,,,,,,,,,,5da8b26395be5f0017360ad5,001,2022-03-09_14h13.17.217,vct_new,2021.2.3,Win32,59.91611744,,0,2,14,112,9,1,stim/Step_2.wav,stim/Step_3.wav,-1,1,
,,,,,,,,,,,,5da8b26395be5f0017360ad5,001,2022-03-09_14h13.17.217,vct_new,2021.2.3,Win32,59.91611744,1,1,2,15,113,21,1,stim/Step_4.wav,stim/Step_1.wav,3,1,0.8014
,,,,,,,,,,,,5da8b26395be5f0017360ad5,001,2022-03-09_14h13.17.217,vct_new,2021.2.3,Win32,59.91611744,,0,2,16,114,43,1,stim/Step_7.wav,stim/Step_2.wav,5,1,
,,,,,,,,,,,,5da8b26395be5f0017360ad5,001,2022-03-09_14h13.17.217,vct_new,2021.2.3,Win32,59.91611744,1,1,2,17,115,41,1,stim/Step_6.wav,stim/Step_7.wav,-1,1,0.7897
,,,,,,,,,,,,5da8b26395be5f0017360ad5,001,2022-03-09_14h13.17.217,vct_new,2021.2.3,Win32,59.91611744,1,1,2,18,116,31,1,stim/Step_5.wav,stim/Step_4.wav,1,1,0.9517
,,,,,,,,,,,,5da8b26395be5f0017360ad5,001,2022-03-09_14h13.17.217,vct_new,2021.2.3,Win32,59.91611744,1,1,2,19,117,38,1,stim/Step_6.wav,stim/Step_4.wav,2,1,0.7259
,,,,,,,,,,,,5da8b26395be5f0017360ad5,001,2022-03-09_14h13.17.217,vct_new,2021.2.3,Win32,59.91611744,,0,2,20,118,28,1,stim/Step_5.wav,stim/Step_1.wav,4,1,
,,,,,,,,,,,,5da8b26395be5f0017360ad5,001,2022-03-09_14h13.17.217,vct_new,2021.2.3,Win32,59.91611744,1,1,2,21,119,33,1,stim/Step_5.wav,stim/Step_6.wav,-1,1,1.2187
,,,,,,,,,,,,5da8b26395be5f0017360ad5,001,2022-03-09_14h13.17.217,vct_new,2021.2.3,Win32,59.91611744,,0,2,22,120,11,1,stim/Step_2.wav,stim/Step_5.wav,-3,1,
,,,,,,,,,,,,5da8b26395be5f0017360ad5,001,2022-03-09_14h13.17.217,vct_new,2021.2.3,Win32,59.91611744,1,1,2,23,121,29,1,stim/Step_5.wav,stim/Step_2.wav,3,1,1.0778
,,,,,,,,,,,,5da8b26395be5f0017360ad5,001,2022-03-09_14h13.17.217,vct_new,2021.2.3,Win32,59.91611744,,0,2,24,122,46,1,stim/Step_7.wav,stim/Step_5.wav,2,1,
,,,,,,,,,,,,5da8b26395be5f0017360ad5,001,2022-03-09_14h13.17.217,vct_new,2021.2.3,Win32,59.91611744,,0,2,25,123,37,1,stim/Step_6.wav,stim/Step_3.wav,3,1,
,,,,,,,,,,,,5da8b26395be5f0017360ad5,001,2022-03-09_14h13.17.217,vct_new,2021.2.3,Win32,59.91611744,,0,2,26,124,10,1,stim/Step_2.wav,stim/Step_4.wav,-2,1,
,,,,,,,,,,,,5da8b26395be5f0017360ad5,001,2022-03-09_14h13.17.217,vct_new,2021.2.3,Win32,59.91611744,,0,2,27,125,36,1,stim/Step_6.wav,stim/Step_2.wav,4,1,
,,,,,,,,,,,,5da8b26395be5f0017360ad5,001,2022-03-09_14h13.17.217,vct_new,2021.2.3,Win32,59.91611744,,0,2,28,126,34,1,stim/Step_5.wav,stim/Step_7.wav,-2,1,
,,,,,,,,,,,,5da8b26395be5f0017360ad5,001,2022-03-09_14h13.17.217,vct_new,2021.2.3,Win32,59.91611744,1,0,2,29,127,24,1,stim/Step_4.wav,stim/Step_4.wav,0,0,0.6151
,,,,,,,,,,,,5da8b26395be5f0017360ad5,001,2022-03-09_14h13.17.217,vct_new,2021.2.3,Win32,59.91611744,1,1,2,30,128,4,1,stim/Step_1.wav,stim/Step_5.wav,-4,1,0.6341
,,,,,,,,,,,,5da8b26395be5f0017360ad5,001,2022-03-09_14h13.17.217,vct_new,2021.2.3,Win32,59.91611744,1,1,2,31,129,1,1,stim/Step_1.wav,stim/Step_2.wav,-1,1,0.6062
,,,,,,,,,,,,5da8b26395be5f0017360ad5,001,2022-03-09_14h13.17.217,vct_new,2021.2.3,Win32,59.91611744,1,1,2,32,130,25,1,stim/Step_4.wav,stim/Step_5.wav,-1,1,0.8372
,,,,,,,,,,,,5da8b26395be5f0017360ad5,001,2022-03-09_14h13.17.217,vct_new,2021.2.3,Win32,59.91611744,1,0,2,33,131,8,1,stim/Step_2.wav,stim/Step_2.wav,0,0,0.481
,,,,,,,,,,,,5da8b26395be5f0017360ad5,001,2022-03-09_14h13.17.217,vct_new,2021.2.3,Win32,59.91611744,,0,2,34,132,16,1,stim/Step_3.wav,stim/Step_3.wav,0,0,
,,,,,,,,,,,,5da8b26395be5f0017360ad5,001,2022-03-09_14h13.17.217,vct_new,2021.2.3,Win32,59.91611744,1,1,2,35,133,35,1,stim/Step_6.wav,stim/Step_1.wav,5,1,1.2614
,,,,,,,,,,,,5da8b26395be5f0017360ad5,001,2022-03-09_14h13.17.217,vct_new,2021.2.3,Win32,59.91611744,,0,2,36,134,18,1,stim/Step_3.wav,stim/Step_5.wav,-2,1,
,,,,,,,,,,,,5da8b26395be5f0017360ad5,001,2022-03-09_14h13.17.217,vct_new,2021.2.3,Win32,59.91611744,1,1,2,37,135,22,1,stim/Step_4.wav,stim/Step_2.wav,2,1,0.4946
,,,,,,,,,,,,5da8b26395be5f0017360ad5,001,2022-03-09_14h13.17.217,vct_new,2021.2.3,Win32,59.91611744,,0,2,38,136,2,1,stim/Step_1.wav,stim/Step_3.wav,-2,1,
,,,,,,,,,,,,5da8b26395be5f0017360ad5,001,2022-03-09_14h13.17.217,vct_new,2021.2.3,Win32,59.91611744,,0,2,39,137,5,1,stim/Step_1.wav,stim/Step_6.wav,-5,1,
,,,,,,,,,,,,5da8b26395be5f0017360ad5,001,2022-03-09_14h13.17.217,vct_new,2021.2.3,Win32,59.91611744,,0,2,40,138,44,1,stim/Step_7.wav,stim/Step_3.wav,4,1,
,,,,,,,,,,,,5da8b26395be5f0017360ad5,001,2022-03-09_14h13.17.217,vct_new,2021.2.3,Win32,59.91611744,,0,2,41,139,45,1,stim/Step_7.wav,stim/Step_4.wav,3,1,
,,,,,,,,,,,,5da8b26395be5f0017360ad5,001,2022-03-09_14h13.17.217,vct_new,2021.2.3,Win32,59.91611744,1,1,2,42,140,47,1,stim/Step_7.wav,stim/Step_6.wav,1,1,0.7223
,,,,,,,,,,,,5da8b26395be5f0017360ad5,001,2022-03-09_14h13.17.217,vct_new,2021.2.3,Win32,59.91611744,1,0,2,43,141,48,1,stim/Step_7.wav,stim/Step_7.wav,0,0,0.6337
,,,,,,,,,,,,5da8b26395be5f0017360ad5,001,2022-03-09_14h13.17.217,vct_new,2021.2.3,Win32,59.91611744,,0,2,44,142,12,1,stim/Step_2.wav,stim/Step_6.wav,-4,1,
,,,,,,,,,,,,5da8b26395be5f0017360ad5,001,2022-03-09_14h13.17.217,vct_new,2021.2.3,Win32,59.91611744,1,1,2,45,143,14,1,stim/Step_3.wav,stim/Step_1.wav,2,1,0.7323
,,,,,,,,,,,,5da8b26395be5f0017360ad5,001,2022-03-09_14h13.17.217,vct_new,2021.2.3,Win32,59.91611744,1,1,2,46,144,7,1,stim/Step_2.wav,stim/Step_1.wav,1,1,0.5516
,,,,,,,,,,,,5da8b26395be5f0017360ad5,001,2022-03-09_14h13.17.217,vct_new,2021.2.3,Win32,59.91611744,1,1,2,47,145,39,1,stim/Step_6.wav,stim/Step_5.wav,1,1,0.5166
,,,,,,,,,,,,5da8b26395be5f0017360ad5,001,2022-03-09_14h13.17.217,vct_new,2021.2.3,Win32,59.91611744,1,1,2,48,146,20,1,stim/Step_3.wav,stim/Step_7.wav,-4,1,0.6658
