key_resp_3.keys,key_resp_3.rt,key_resp_4.keys,key_resp_4.rt,key_resp_2.keys,key_resp_2.rt,slider.response,slider.rt,trials.thisRepN,trials.thisTrialN,trials.thisN,trials.thisIndex,trials.ran,stim,participant,session,date,expName,psychopyVersion,OS,frameRate,key_resp_5.keys,key_resp_5.rt,key_resp.keys,key_resp.rt,slider_2.response,slider_2.rt,trials_2.thisRepN,trials_2.thisTrialN,trials_2.thisN,trials_2.thisIndex,trials_2.ran,key_resp_6.keys,key_resp_6.rt
1,2.7367,space,11.1831,4,11.5555,2.951851852,3.7396,0,0,0,6,1,stim/feuf_g.wav,601e1253bbecc3279e4fb472,001,2022-03-15_21h34.53.270,task,2021.2.3,Win32,29.43860579,,,,,,,,,,,,,
,,,,3,5.5358,3.011111111,4.1444,0,1,1,1,1,stim/pief_g.wav,601e1253bbecc3279e4fb472,001,2022-03-15_21h34.53.270,task,2021.2.3,Win32,29.43860579,,,,,,,,,,,,,
,,,,1,7.772,3.037037037,1.4884,0,2,2,7,1,stim/f_schwa_g.wav,601e1253bbecc3279e4fb472,001,2022-03-15_21h34.53.270,task,2021.2.3,Win32,29.43860579,,,,,,,,,,,,,
,,,,3,2.7929,3.988888889,0.8303,0,3,3,5,1,stim/fief_g.wav,601e1253bbecc3279e4fb472,001,2022-03-15_21h34.53.270,task,2021.2.3,Win32,29.43860579,,,,,,,,,,,,,
,,,,3,3.343,2.007407407,1.8287,0,4,4,0,1,stim/pof_g.wav,601e1253bbecc3279e4fb472,001,2022-03-15_21h34.53.270,task,2021.2.3,Win32,29.43860579,,,,,,,,,,,,,
,,,,2,0.0007,2.007407407,1.6685,0,5,5,4,1,stim/fof_g.wav,601e1253bbecc3279e4fb472,001,2022-03-15_21h34.53.270,task,2021.2.3,Win32,29.43860579,,,,,,,,,,,,,
,,,,6,7.0457,2.992592593,2.5427,0,6,6,2,1,stim/peuf_g.wav,601e1253bbecc3279e4fb472,001,2022-03-15_21h34.53.270,task,2021.2.3,Win32,29.43860579,,,,,,,,,,,,,
,,,,1,8.9321,4.018518519,2.4082,0,7,7,3,1,stim/p_schwa_g.wav,601e1253bbecc3279e4fb472,001,2022-03-15_21h34.53.270,task,2021.2.3,Win32,29.43860579,,,,,,,,,,,,,
,,,,3,4.8568,2.944444444,1.9958,1,0,8,5,1,stim/fief_g.wav,601e1253bbecc3279e4fb472,001,2022-03-15_21h34.53.270,task,2021.2.3,Win32,29.43860579,,,,,,,,,,,,,
,,,,1,4.947,2.959259259,1.7144,1,1,9,3,1,stim/p_schwa_g.wav,601e1253bbecc3279e4fb472,001,2022-03-15_21h34.53.270,task,2021.2.3,Win32,29.43860579,,,,,,,,,,,,,
,,,,4,2.8106,3.725925926,2.8,1,2,10,4,1,stim/fof_g.wav,601e1253bbecc3279e4fb472,001,2022-03-15_21h34.53.270,task,2021.2.3,Win32,29.43860579,,,,,,,,,,,,,
,,,,2,2.2986,2.981481481,0.7905,1,3,11,7,1,stim/f_schwa_g.wav,601e1253bbecc3279e4fb472,001,2022-03-15_21h34.53.270,task,2021.2.3,Win32,29.43860579,,,,,,,,,,,,,
,,,,3,4.0329,2.67037037,1.0961,1,4,12,1,1,stim/pief_g.wav,601e1253bbecc3279e4fb472,001,2022-03-15_21h34.53.270,task,2021.2.3,Win32,29.43860579,,,,,,,,,,,,,
,,,,4,4.0092,3.466666667,1.0136,1,5,13,2,1,stim/peuf_g.wav,601e1253bbecc3279e4fb472,001,2022-03-15_21h34.53.270,task,2021.2.3,Win32,29.43860579,,,,,,,,,,,,,
,,,,1,4.879,3.048148148,0.8413,1,6,14,0,1,stim/pof_g.wav,601e1253bbecc3279e4fb472,001,2022-03-15_21h34.53.270,task,2021.2.3,Win32,29.43860579,,,,,,,,,,,,,
,,,,4,4.627,3.940740741,1.3211,1,7,15,6,1,stim/feuf_g.wav,601e1253bbecc3279e4fb472,001,2022-03-15_21h34.53.270,task,2021.2.3,Win32,29.43860579,,,,,,,,,,,,,
,,,,2,1.7767,3.481481481,0.5335,2,0,16,4,1,stim/fof_g.wav,601e1253bbecc3279e4fb472,001,2022-03-15_21h34.53.270,task,2021.2.3,Win32,29.43860579,,,,,,,,,,,,,
,,,,4,2.3568,3.140740741,0.6122,2,1,17,2,1,stim/peuf_g.wav,601e1253bbecc3279e4fb472,001,2022-03-15_21h34.53.270,task,2021.2.3,Win32,29.43860579,,,,,,,,,,,,,
,,,,4,5.5552,2.096296296,0.8635,2,2,18,0,1,stim/pof_g.wav,601e1253bbecc3279e4fb472,001,2022-03-15_21h34.53.270,task,2021.2.3,Win32,29.43860579,,,,,,,,,,,,,
,,,,3,2.3521,2.8,0.9621,2,3,19,5,1,stim/fief_g.wav,601e1253bbecc3279e4fb472,001,2022-03-15_21h34.53.270,task,2021.2.3,Win32,29.43860579,,,,,,,,,,,,,
,,,,1,1.628,2.222222222,0.562,2,4,20,7,1,stim/f_schwa_g.wav,601e1253bbecc3279e4fb472,001,2022-03-15_21h34.53.270,task,2021.2.3,Win32,29.43860579,,,,,,,,,,,,,
,,,,1,2.3303,2.940740741,0.7086,2,5,21,3,1,stim/p_schwa_g.wav,601e1253bbecc3279e4fb472,001,2022-03-15_21h34.53.270,task,2021.2.3,Win32,29.43860579,,,,,,,,,,,,,
,,,,4,2.4695,2.466666667,0.5255,2,6,22,6,1,stim/feuf_g.wav,601e1253bbecc3279e4fb472,001,2022-03-15_21h34.53.270,task,2021.2.3,Win32,29.43860579,,,,,,,,,,,,,
,,,,3,2.5417,3.551851852,0.6436,2,7,23,1,1,stim/pief_g.wav,601e1253bbecc3279e4fb472,001,2022-03-15_21h34.53.270,task,2021.2.3,Win32,29.43860579,,,,,,,,,,,,,
,,,,4,3.12,3.537037037,0.4836,3,0,24,4,1,stim/fof_g.wav,601e1253bbecc3279e4fb472,001,2022-03-15_21h34.53.270,task,2021.2.3,Win32,29.43860579,,,,,,,,,,,,,
,,,,4,3.5202,3.52962963,0.3743,3,1,25,6,1,stim/feuf_g.wav,601e1253bbecc3279e4fb472,001,2022-03-15_21h34.53.270,task,2021.2.3,Win32,29.43860579,,,,,,,,,,,,,
,,,,1,1.7218,2.188888889,0.6496,3,2,26,7,1,stim/f_schwa_g.wav,601e1253bbecc3279e4fb472,001,2022-03-15_21h34.53.270,task,2021.2.3,Win32,29.43860579,,,,,,,,,,,,,
,,,,1,1.9674,3.159259259,0.3954,3,3,27,3,1,stim/p_schwa_g.wav,601e1253bbecc3279e4fb472,001,2022-03-15_21h34.53.270,task,2021.2.3,Win32,29.43860579,,,,,,,,,,,,,
,,,,3,2.6655,3.47037037,0.4414,3,4,28,1,1,stim/pief_g.wav,601e1253bbecc3279e4fb472,001,2022-03-15_21h34.53.270,task,2021.2.3,Win32,29.43860579,,,,,,,,,,,,,
,,,,4,2.3291,3.051851852,0.4193,3,5,29,2,1,stim/peuf_g.wav,601e1253bbecc3279e4fb472,001,2022-03-15_21h34.53.270,task,2021.2.3,Win32,29.43860579,,,,,,,,,,,,,
,,,,3,2.1099,3.044444444,0.541,3,6,30,5,1,stim/fief_g.wav,601e1253bbecc3279e4fb472,001,2022-03-15_21h34.53.270,task,2021.2.3,Win32,29.43860579,,,,,,,,,,,,,
,,,,1,1.8414,3.188888889,0.3945,3,7,31,0,1,stim/pof_g.wav,601e1253bbecc3279e4fb472,001,2022-03-15_21h34.53.270,task,2021.2.3,Win32,29.43860579,,,,,,,,,,,,,
,,,,3,3.1387,2.837037037,0.5471,4,0,32,1,1,stim/pief_g.wav,601e1253bbecc3279e4fb472,001,2022-03-15_21h34.53.270,task,2021.2.3,Win32,29.43860579,,,,,,,,,,,,,
,,,,2,2.3873,3.011111111,0.7384,4,1,33,0,1,stim/pof_g.wav,601e1253bbecc3279e4fb472,001,2022-03-15_21h34.53.270,task,2021.2.3,Win32,29.43860579,,,,,,,,,,,,,
,,,,4,5.1953,3.359259259,0.3868,4,2,34,2,1,stim/peuf_g.wav,601e1253bbecc3279e4fb472,001,2022-03-15_21h34.53.270,task,2021.2.3,Win32,29.43860579,,,,,,,,,,,,,
,,,,1,2.0142,3.466666667,0.5814,4,3,35,7,1,stim/f_schwa_g.wav,601e1253bbecc3279e4fb472,001,2022-03-15_21h34.53.270,task,2021.2.3,Win32,29.43860579,,,,,,,,,,,,,
,,,,1,2.3098,2.518518519,0.5202,4,4,36,3,1,stim/p_schwa_g.wav,601e1253bbecc3279e4fb472,001,2022-03-15_21h34.53.270,task,2021.2.3,Win32,29.43860579,,,,,,,,,,,,,
,,,,3,1.3869,3.237037037,0.4787,4,5,37,5,1,stim/fief_g.wav,601e1253bbecc3279e4fb472,001,2022-03-15_21h34.53.270,task,2021.2.3,Win32,29.43860579,,,,,,,,,,,,,
,,,,4,3.8391,3.362962963,0.4049,4,6,38,6,1,stim/feuf_g.wav,601e1253bbecc3279e4fb472,001,2022-03-15_21h34.53.270,task,2021.2.3,Win32,29.43860579,,,,,,,,,,,,,
,,,,4,3.1278,3.203703704,0.3275,4,7,39,4,1,stim/fof_g.wav,601e1253bbecc3279e4fb472,001,2022-03-15_21h34.53.270,task,2021.2.3,Win32,29.43860579,,,,,,,,,,,,,
,,,,,,,,,,,,,stim/p_schwa_f.wav,601e1253bbecc3279e4fb472,001,2022-03-15_21h34.53.270,task,2021.2.3,Win32,29.43860579,space,11.6021,1,14.1138,2.392592593,0.7738,0,0,0,3,1,,
,,,,,,,,,,,,,stim/feuf_f.wav,601e1253bbecc3279e4fb472,001,2022-03-15_21h34.53.270,task,2021.2.3,Win32,29.43860579,,,4,1.882,2.811111111,0.3719,0,1,1,6,1,,
,,,,,,,,,,,,,stim/fif_f.wav,601e1253bbecc3279e4fb472,001,2022-03-15_21h34.53.270,task,2021.2.3,Win32,29.43860579,,,3,2.0497,3.340740741,0.3899,0,2,2,5,1,,
,,,,,,,,,,,,,stim/fof_f.wav,601e1253bbecc3279e4fb472,001,2022-03-15_21h34.53.270,task,2021.2.3,Win32,29.43860579,,,1,3.1108,1.940740741,0.6057,0,3,3,4,1,,
,,,,,,,,,,,,,stim/pif_f.wav,601e1253bbecc3279e4fb472,001,2022-03-15_21h34.53.270,task,2021.2.3,Win32,29.43860579,,,3,2.261,2.392592593,0.4324,0,4,4,1,1,,
,,,,,,,,,,,,,stim/pof_f.wav,601e1253bbecc3279e4fb472,001,2022-03-15_21h34.53.270,task,2021.2.3,Win32,29.43860579,,,1,2.4817,3.514814815,0.3002,0,5,5,0,1,,
,,,,,,,,,,,,,stim/f_schwa_f.wav,601e1253bbecc3279e4fb472,001,2022-03-15_21h34.53.270,task,2021.2.3,Win32,29.43860579,,,2,1.4755,3.207407407,0.3902,0,6,6,7,1,,
,,,,,,,,,,,,,stim/peuf_f.wav,601e1253bbecc3279e4fb472,001,2022-03-15_21h34.53.270,task,2021.2.3,Win32,29.43860579,,,4,2.2512,3.114814815,0.4134,0,7,7,2,1,,
,,,,,,,,,,,,,stim/f_schwa_f.wav,601e1253bbecc3279e4fb472,001,2022-03-15_21h34.53.270,task,2021.2.3,Win32,29.43860579,,,1,12.4194,2.466666667,0.96,1,0,8,7,1,,
,,,,,,,,,,,,,stim/peuf_f.wav,601e1253bbecc3279e4fb472,001,2022-03-15_21h34.53.270,task,2021.2.3,Win32,29.43860579,,,4,3.7616,3.114814815,0.4886,1,1,9,2,1,,
,,,,,,,,,,,,,stim/fof_f.wav,601e1253bbecc3279e4fb472,001,2022-03-15_21h34.53.270,task,2021.2.3,Win32,29.43860579,,,1,1.8885,3.481481481,0.3254,1,2,10,4,1,,
,,,,,,,,,,,,,stim/p_schwa_f.wav,601e1253bbecc3279e4fb472,001,2022-03-15_21h34.53.270,task,2021.2.3,Win32,29.43860579,,,2,6.5051,3.22962963,0.4222,1,3,11,3,1,,
,,,,,,,,,,,,,stim/pif_f.wav,601e1253bbecc3279e4fb472,001,2022-03-15_21h34.53.270,task,2021.2.3,Win32,29.43860579,,,3,2.3628,2.459259259,0.5474,1,4,12,1,1,,
,,,,,,,,,,,,,stim/fif_f.wav,601e1253bbecc3279e4fb472,001,2022-03-15_21h34.53.270,task,2021.2.3,Win32,29.43860579,,,3,1.4694,3.162962963,0.5328,1,5,13,5,1,,
,,,,,,,,,,,,,stim/feuf_f.wav,601e1253bbecc3279e4fb472,001,2022-03-15_21h34.53.270,task,2021.2.3,Win32,29.43860579,,,4,3.3628,3.137037037,0.3062,1,6,14,6,1,,
,,,,,,,,,,,,,stim/pof_f.wav,601e1253bbecc3279e4fb472,001,2022-03-15_21h34.53.270,task,2021.2.3,Win32,29.43860579,,,1,2.6546,2.440740741,0.4279,1,7,15,0,1,,
,,,,,,,,,,,,,stim/fof_f.wav,601e1253bbecc3279e4fb472,001,2022-03-15_21h34.53.270,task,2021.2.3,Win32,29.43860579,,,1,1.3307,2.862962963,0.3478,2,0,16,4,1,,
,,,,,,,,,,,,,stim/feuf_f.wav,601e1253bbecc3279e4fb472,001,2022-03-15_21h34.53.270,task,2021.2.3,Win32,29.43860579,,,2,2.1973,3.2,0.4132,2,1,17,6,1,,
,,,,,,,,,,,,,stim/pof_f.wav,601e1253bbecc3279e4fb472,001,2022-03-15_21h34.53.270,task,2021.2.3,Win32,29.43860579,,,2,1.8479,3.303703704,0.3038,2,2,18,0,1,,
,,,,,,,,,,,,,stim/p_schwa_f.wav,601e1253bbecc3279e4fb472,001,2022-03-15_21h34.53.270,task,2021.2.3,Win32,29.43860579,,,2,5.8502,3.407407407,0.2716,2,3,19,3,1,,
,,,,,,,,,,,,,stim/f_schwa_f.wav,601e1253bbecc3279e4fb472,001,2022-03-15_21h34.53.270,task,2021.2.3,Win32,29.43860579,,,1,2.1584,3.403703704,0.303,2,4,20,7,1,,
,,,,,,,,,,,,,stim/fif_f.wav,601e1253bbecc3279e4fb472,001,2022-03-15_21h34.53.270,task,2021.2.3,Win32,29.43860579,,,3,2.2313,3.403703704,0.3085,2,5,21,5,1,,
,,,,,,,,,,,,,stim/peuf_f.wav,601e1253bbecc3279e4fb472,001,2022-03-15_21h34.53.270,task,2021.2.3,Win32,29.43860579,,,4,1.896,3.540740741,0.646,2,6,22,2,1,,
,,,,,,,,,,,,,stim/pif_f.wav,601e1253bbecc3279e4fb472,001,2022-03-15_21h34.53.270,task,2021.2.3,Win32,29.43860579,,,3,2.2002,3.588888889,0.4579,2,7,23,1,1,,
,,,,,,,,,,,,,stim/fif_f.wav,601e1253bbecc3279e4fb472,001,2022-03-15_21h34.53.270,task,2021.2.3,Win32,29.43860579,,,3,1.3074,3.355555556,0.4413,3,0,24,5,1,,
,,,,,,,,,,,,,stim/f_schwa_f.wav,601e1253bbecc3279e4fb472,001,2022-03-15_21h34.53.270,task,2021.2.3,Win32,29.43860579,,,2,1.6636,2.977777778,0.3994,3,1,25,7,1,,
,,,,,,,,,,,,,stim/pif_f.wav,601e1253bbecc3279e4fb472,001,2022-03-15_21h34.53.270,task,2021.2.3,Win32,29.43860579,,,3,2.3459,2.733333333,0.5206,3,2,26,1,1,,
,,,,,,,,,,,,,stim/p_schwa_f.wav,601e1253bbecc3279e4fb472,001,2022-03-15_21h34.53.270,task,2021.2.3,Win32,29.43860579,,,2,1.9311,3.07037037,0.3518,3,3,27,3,1,,
,,,,,,,,,,,,,stim/feuf_f.wav,601e1253bbecc3279e4fb472,001,2022-03-15_21h34.53.270,task,2021.2.3,Win32,29.43860579,,,4,1.6455,3.425925926,0.4506,3,4,28,6,1,,
,,,,,,,,,,,,,stim/peuf_f.wav,601e1253bbecc3279e4fb472,001,2022-03-15_21h34.53.270,task,2021.2.3,Win32,29.43860579,,,4,1.6887,3.425925926,0.3052,3,5,29,2,1,,
,,,,,,,,,,,,,stim/fof_f.wav,601e1253bbecc3279e4fb472,001,2022-03-15_21h34.53.270,task,2021.2.3,Win32,29.43860579,,,2,1.607,3.425925926,0.3001,3,6,30,4,1,,
,,,,,,,,,,,,,stim/pof_f.wav,601e1253bbecc3279e4fb472,001,2022-03-15_21h34.53.270,task,2021.2.3,Win32,29.43860579,,,1,2.0499,3.425925926,0.2946,3,7,31,0,1,,
,,,,,,,,,,,,,stim/pif_f.wav,601e1253bbecc3279e4fb472,001,2022-03-15_21h34.53.270,task,2021.2.3,Win32,29.43860579,,,3,2.2587,3.425925926,0.339,4,0,32,1,1,,
,,,,,,,,,,,,,stim/fif_f.wav,601e1253bbecc3279e4fb472,001,2022-03-15_21h34.53.270,task,2021.2.3,Win32,29.43860579,,,3,2.243,3.425925926,0.2589,4,1,33,5,1,,
,,,,,,,,,,,,,stim/fof_f.wav,601e1253bbecc3279e4fb472,001,2022-03-15_21h34.53.270,task,2021.2.3,Win32,29.43860579,,,1,1.9691,3.425925926,0.2151,4,2,34,4,1,,
,,,,,,,,,,,,,stim/peuf_f.wav,601e1253bbecc3279e4fb472,001,2022-03-15_21h34.53.270,task,2021.2.3,Win32,29.43860579,,,4,2.1074,3.425925926,0.3957,4,3,35,2,1,,
,,,,,,,,,,,,,stim/pof_f.wav,601e1253bbecc3279e4fb472,001,2022-03-15_21h34.53.270,task,2021.2.3,Win32,29.43860579,,,1,1.9748,2.666666667,0.2972,4,4,36,0,1,,
,,,,,,,,,,,,,stim/p_schwa_f.wav,601e1253bbecc3279e4fb472,001,2022-03-15_21h34.53.270,task,2021.2.3,Win32,29.43860579,,,2,2.2278,2.925925926,0.2414,4,5,37,3,1,,
,,,,,,,,,,,,,stim/f_schwa_f.wav,601e1253bbecc3279e4fb472,001,2022-03-15_21h34.53.270,task,2021.2.3,Win32,29.43860579,,,2,1.2702,2.774074074,0.3084,4,6,38,7,1,,
,,,,,,,,,,,,,stim/feuf_f.wav,601e1253bbecc3279e4fb472,001,2022-03-15_21h34.53.270,task,2021.2.3,Win32,29.43860579,,,4,2.2768,3.007407407,0.4167,4,7,39,6,1,,
,,,,,,,,,,,,,,601e1253bbecc3279e4fb472,001,2022-03-15_21h34.53.270,task,2021.2.3,Win32,29.43860579,,,,,,,,,,,,space,59.1513
