key_resp_3.keys,key_resp_3.rt,key_resp_4.keys,key_resp_4.rt,key_resp_2.keys,key_resp_2.rt,slider.response,slider.rt,trials.thisRepN,trials.thisTrialN,trials.thisN,trials.thisIndex,trials.ran,stim,participant,session,date,expName,psychopyVersion,OS,frameRate,key_resp_5.keys,key_resp_5.rt,key_resp.keys,key_resp.rt,slider_2.response,slider_2.rt,trials_2.thisRepN,trials_2.thisTrialN,trials_2.thisN,trials_2.thisIndex,trials_2.ran,key_resp_6.keys,key_resp_6.rt
1,5.349,space,77.611,1,59.3392,5,8.9108,0,0,0,7,1,stim/f_schwa_g.wav,6105ac9411551a0880809277,001,2022-03-14_19h35.21.266,task,2021.2.3,Win32,59.81218972,,,,,,,,,,,,,
,,,,5,55.2219,4.951851739,13.753,0,1,1,6,1,stim/feuf_g.wav,6105ac9411551a0880809277,001,2022-03-14_19h35.21.266,task,2021.2.3,Win32,59.81218972,,,,,,,,,,,,,
,,,,5,23.3357,4.966666893,9.4178,0,2,2,3,1,stim/p_schwa_g.wav,6105ac9411551a0880809277,001,2022-03-14_19h35.21.266,task,2021.2.3,Win32,59.81218972,,,,,,,,,,,,,
,,,,4,7.6999,3.981481481,4.6749,0,3,3,4,1,stim/fof_g.wav,6105ac9411551a0880809277,001,2022-03-14_19h35.21.266,task,2021.2.3,Win32,59.81218972,,,,,,,,,,,,,
,,,,7,9.8653,4.977778117,5.2208,0,4,4,5,1,stim/fief_g.wav,6105ac9411551a0880809277,001,2022-03-14_19h35.21.266,task,2021.2.3,Win32,59.81218972,,,,,,,,,,,,,
,,,,4,12.0696,4.992592706,3.2802,0,5,5,2,1,stim/peuf_g.wav,6105ac9411551a0880809277,001,2022-03-14_19h35.21.266,task,2021.2.3,Win32,59.81218972,,,,,,,,,,,,,
,,,,6,11.1657,4,3.1942,0,6,6,0,1,stim/pof_g.wav,6105ac9411551a0880809277,001,2022-03-14_19h35.21.266,task,2021.2.3,Win32,59.81218972,,,,,,,,,,,,,
,,,,7,8.682,4.985185411,4.1871,0,7,7,1,1,stim/pief_g.wav,6105ac9411551a0880809277,001,2022-03-14_19h35.21.266,task,2021.2.3,Win32,59.81218972,,,,,,,,,,,,,
,,,,7,8.4355,4.981481481,1.9456,1,0,8,5,1,stim/fief_g.wav,6105ac9411551a0880809277,001,2022-03-14_19h35.21.266,task,2021.2.3,Win32,59.81218972,,,,,,,,,,,,,
,,,,6,11.5898,3.996296353,5.8262,1,1,9,6,1,stim/feuf_g.wav,6105ac9411551a0880809277,001,2022-03-14_19h35.21.266,task,2021.2.3,Win32,59.81218972,,,,,,,,,,,,,
,,,,6,13.5014,1,7.6034,1,2,10,7,1,stim/f_schwa_g.wav,6105ac9411551a0880809277,001,2022-03-14_19h35.21.266,task,2021.2.3,Win32,59.81218972,,,,,,,,,,,,,
,,,,7,10.9213,4.014814871,2.1697,1,3,11,1,1,stim/pief_g.wav,6105ac9411551a0880809277,001,2022-03-14_19h35.21.266,task,2021.2.3,Win32,59.81218972,,,,,,,,,,,,,
,,,,6,13.2463,3.988889058,2.7888,1,4,12,3,1,stim/p_schwa_g.wav,6105ac9411551a0880809277,001,2022-03-14_19h35.21.266,task,2021.2.3,Win32,59.81218972,,,,,,,,,,,,,
,,,,6,6.5989,2.996296353,1.9963,1,5,13,4,1,stim/fof_g.wav,6105ac9411551a0880809277,001,2022-03-14_19h35.21.266,task,2021.2.3,Win32,59.81218972,,,,,,,,,,,,,
,,,,6,8.9507,2.988889058,4.1817,1,6,14,0,1,stim/pof_g.wav,6105ac9411551a0880809277,001,2022-03-14_19h35.21.266,task,2021.2.3,Win32,59.81218972,,,,,,,,,,,,,
,,,,6,11.0647,2.985185129,2.8867,1,7,15,2,1,stim/peuf_g.wav,6105ac9411551a0880809277,001,2022-03-14_19h35.21.266,task,2021.2.3,Win32,59.81218972,,,,,,,,,,,,,
,,,,6,7.6208,2.981481481,2.0655,2,0,16,4,1,stim/fof_g.wav,6105ac9411551a0880809277,001,2022-03-14_19h35.21.266,task,2021.2.3,Win32,59.81218972,,,,,,,,,,,,,
,,,,5,11.2339,2.007407577,1.7957,2,1,17,7,1,stim/f_schwa_g.wav,6105ac9411551a0880809277,001,2022-03-14_19h35.21.266,task,2021.2.3,Win32,59.81218972,,,,,,,,,,,,,
,,,,7,8.6522,2.992592706,2.2941,2,2,18,5,1,stim/fief_g.wav,6105ac9411551a0880809277,001,2022-03-14_19h35.21.266,task,2021.2.3,Win32,59.81218972,,,,,,,,,,,,,
,,,,6,7.932,2.974074187,1.9006,2,3,19,6,1,stim/feuf_g.wav,6105ac9411551a0880809277,001,2022-03-14_19h35.21.266,task,2021.2.3,Win32,59.81218972,,,,,,,,,,,,,
,,,,6,8.9159,3,1.7099,2,4,20,2,1,stim/peuf_g.wav,6105ac9411551a0880809277,001,2022-03-14_19h35.21.266,task,2021.2.3,Win32,59.81218972,,,,,,,,,,,,,
,,,,7,8.199,3.977777834,2.8186,2,5,21,1,1,stim/pief_g.wav,6105ac9411551a0880809277,001,2022-03-14_19h35.21.266,task,2021.2.3,Win32,59.81218972,,,,,,,,,,,,,
,,,,5,9.5158,2.996296353,2.0188,2,6,22,3,1,stim/p_schwa_g.wav,6105ac9411551a0880809277,001,2022-03-14_19h35.21.266,task,2021.2.3,Win32,59.81218972,,,,,,,,,,,,,
,,,,2,13.1879,3.003703647,3.1944,2,7,23,0,1,stim/pof_g.wav,6105ac9411551a0880809277,001,2022-03-14_19h35.21.266,task,2021.2.3,Win32,59.81218972,,,,,,,,,,,,,
,,,,7,8.0021,3.014814871,2.2629,3,0,24,1,1,stim/pief_g.wav,6105ac9411551a0880809277,001,2022-03-14_19h35.21.266,task,2021.2.3,Win32,59.81218972,,,,,,,,,,,,,
,,,,6,8.6405,2.96666661,3.0937,3,1,25,2,1,stim/peuf_g.wav,6105ac9411551a0880809277,001,2022-03-14_19h35.21.266,task,2021.2.3,Win32,59.81218972,,,,,,,,,,,,,
,,,,7,8.8012,1.003703788,3.6934,3,2,26,5,1,stim/fief_g.wav,6105ac9411551a0880809277,001,2022-03-14_19h35.21.266,task,2021.2.3,Win32,59.81218972,,,,,,,,,,,,,
,,,,6,14.8423,1.011111083,5.9274,3,3,27,0,1,stim/pof_g.wav,6105ac9411551a0880809277,001,2022-03-14_19h35.21.266,task,2021.2.3,Win32,59.81218972,,,,,,,,,,,,,
,,,,6,9.7742,1.985185129,2.9849,3,4,28,3,1,stim/p_schwa_g.wav,6105ac9411551a0880809277,001,2022-03-14_19h35.21.266,task,2021.2.3,Win32,59.81218972,,,,,,,,,,,,,
,,,,6,11.4108,1.974074187,2.1316,3,5,29,4,1,stim/fof_g.wav,6105ac9411551a0880809277,001,2022-03-14_19h35.21.266,task,2021.2.3,Win32,59.81218972,,,,,,,,,,,,,
,,,,6,6.5859,3.981481481,3.2046,3,6,30,6,1,stim/feuf_g.wav,6105ac9411551a0880809277,001,2022-03-14_19h35.21.266,task,2021.2.3,Win32,59.81218972,,,,,,,,,,,,,
,,,,6,8.1324,2.022222166,2.1533,3,7,31,7,1,stim/f_schwa_g.wav,6105ac9411551a0880809277,001,2022-03-14_19h35.21.266,task,2021.2.3,Win32,59.81218972,,,,,,,,,,,,,
,,,,5,9.6728,2.996296353,2.3294,4,0,32,3,1,stim/p_schwa_g.wav,6105ac9411551a0880809277,001,2022-03-14_19h35.21.266,task,2021.2.3,Win32,59.81218972,,,,,,,,,,,,,
,,,,6,7.0485,3.022222166,2.0718,4,1,33,2,1,stim/peuf_g.wav,6105ac9411551a0880809277,001,2022-03-14_19h35.21.266,task,2021.2.3,Win32,59.81218972,,,,,,,,,,,,,
,,,,7,7.069,3.029629743,2.347,4,2,34,5,1,stim/fief_g.wav,6105ac9411551a0880809277,001,2022-03-14_19h35.21.266,task,2021.2.3,Win32,59.81218972,,,,,,,,,,,,,
,,,,5,8.3083,3.018518519,2.4446,4,3,35,4,1,stim/fof_g.wav,6105ac9411551a0880809277,001,2022-03-14_19h35.21.266,task,2021.2.3,Win32,59.81218972,,,,,,,,,,,,,
,,,,6,7.8764,3.025926095,1.8653,4,4,36,6,1,stim/feuf_g.wav,6105ac9411551a0880809277,001,2022-03-14_19h35.21.266,task,2021.2.3,Win32,59.81218972,,,,,,,,,,,,,
,,,,7,8.1155,3.988889058,2.2202,4,5,37,1,1,stim/pief_g.wav,6105ac9411551a0880809277,001,2022-03-14_19h35.21.266,task,2021.2.3,Win32,59.81218972,,,,,,,,,,,,,
,,,,6,17.6089,1.03333339,2.4481,4,6,38,7,1,stim/f_schwa_g.wav,6105ac9411551a0880809277,001,2022-03-14_19h35.21.266,task,2021.2.3,Win32,59.81218972,,,,,,,,,,,,,
,,,,6,14.3444,3.003703647,2.3824,4,7,39,0,1,stim/pof_g.wav,6105ac9411551a0880809277,001,2022-03-14_19h35.21.266,task,2021.2.3,Win32,59.81218972,,,,,,,,,,,,,
,,,,,,,,,,,,,stim/pif_f.wav,6105ac9411551a0880809277,001,2022-03-14_19h35.21.266,task,2021.2.3,Win32,59.81218972,space,6.318,7,8.5253,3.018518519,2.5191,0,0,0,1,1,,
,,,,,,,,,,,,,stim/fif_f.wav,6105ac9411551a0880809277,001,2022-03-14_19h35.21.266,task,2021.2.3,Win32,59.81218972,,,7,10.899,2.96666661,2.3179,0,1,1,5,1,,
,,,,,,,,,,,,,stim/pof_f.wav,6105ac9411551a0880809277,001,2022-03-14_19h35.21.266,task,2021.2.3,Win32,59.81218972,,,6,18.3171,2.985185129,1.8647,0,2,2,0,1,,
,,,,,,,,,,,,,stim/p_schwa_f.wav,6105ac9411551a0880809277,001,2022-03-14_19h35.21.266,task,2021.2.3,Win32,59.81218972,,,6,14.6551,1,4.5029,0,3,3,3,1,,
,,,,,,,,,,,,,stim/peuf_f.wav,6105ac9411551a0880809277,001,2022-03-14_19h35.21.266,task,2021.2.3,Win32,59.81218972,,,6,9.3259,1.96666661,2.0208,0,4,4,2,1,,
,,,,,,,,,,,,,stim/feuf_f.wav,6105ac9411551a0880809277,001,2022-03-14_19h35.21.266,task,2021.2.3,Win32,59.81218972,,,6,6.7025,1.988889058,1.9608,0,5,5,6,1,,
,,,,,,,,,,,,,stim/f_schwa_f.wav,6105ac9411551a0880809277,001,2022-03-14_19h35.21.266,task,2021.2.3,Win32,59.81218972,,,6,9.2353,1.018518519,5.8955,0,6,6,7,1,,
,,,,,,,,,,,,,stim/fof_f.wav,6105ac9411551a0880809277,001,2022-03-14_19h35.21.266,task,2021.2.3,Win32,59.81218972,,,6,11.9012,1.003703788,5.7198,0,7,7,4,1,,
,,,,,,,,,,,,,stim/f_schwa_f.wav,6105ac9411551a0880809277,001,2022-03-14_19h35.21.266,task,2021.2.3,Win32,59.81218972,,,6,12.0901,1.011111083,6.3794,1,0,8,7,1,,
,,,,,,,,,,,,,stim/feuf_f.wav,6105ac9411551a0880809277,001,2022-03-14_19h35.21.266,task,2021.2.3,Win32,59.81218972,,,6,7.9684,2,2.0523,1,1,9,6,1,,
,,,,,,,,,,,,,stim/fof_f.wav,6105ac9411551a0880809277,001,2022-03-14_19h35.21.266,task,2021.2.3,Win32,59.81218972,,,6,16.6637,1.014814871,4.2287,1,2,10,4,1,,
,,,,,,,,,,,,,stim/pof_f.wav,6105ac9411551a0880809277,001,2022-03-14_19h35.21.266,task,2021.2.3,Win32,59.81218972,,,6,8.5191,1.007407436,1.7779,1,3,11,0,1,,
,,,,,,,,,,,,,stim/pif_f.wav,6105ac9411551a0880809277,001,2022-03-14_19h35.21.266,task,2021.2.3,Win32,59.81218972,,,7,8.1265,1.981481481,3.0659,1,4,12,1,1,,
,,,,,,,,,,,,,stim/fif_f.wav,6105ac9411551a0880809277,001,2022-03-14_19h35.21.266,task,2021.2.3,Win32,59.81218972,,,6,25.78,2.007407577,2.2857,1,5,13,5,1,,
,,,,,,,,,,,,,stim/peuf_f.wav,6105ac9411551a0880809277,001,2022-03-14_19h35.21.266,task,2021.2.3,Win32,59.81218972,,,6,9.0146,1.996296353,2.0773,1,6,14,2,1,,
,,,,,,,,,,,,,stim/p_schwa_f.wav,6105ac9411551a0880809277,001,2022-03-14_19h35.21.266,task,2021.2.3,Win32,59.81218972,,,6,12.7298,1,6.4013,1,7,15,3,1,,
,,,,,,,,,,,,,stim/peuf_f.wav,6105ac9411551a0880809277,001,2022-03-14_19h35.21.266,task,2021.2.3,Win32,59.81218972,,,6,8.6669,1.014814871,2.0493,2,0,16,2,1,,
,,,,,,,,,,,,,stim/pif_f.wav,6105ac9411551a0880809277,001,2022-03-14_19h35.21.266,task,2021.2.3,Win32,59.81218972,,,7,6.2885,1.992592706,2.5062,2,1,17,1,1,,
,,,,,,,,,,,,,stim/f_schwa_f.wav,6105ac9411551a0880809277,001,2022-03-14_19h35.21.266,task,2021.2.3,Win32,59.81218972,,,6,6.5149,1.992592706,2.4963,2,2,18,7,1,,
,,,,,,,,,,,,,stim/fof_f.wav,6105ac9411551a0880809277,001,2022-03-14_19h35.21.266,task,2021.2.3,Win32,59.81218972,,,1,43.5574,1.029629601,6.0352,2,3,19,4,1,,
,,,,,,,,,,,,,stim/p_schwa_f.wav,6105ac9411551a0880809277,001,2022-03-14_19h35.21.266,task,2021.2.3,Win32,59.81218972,,,1,7.2568,1.992592706,3.912,2,4,20,3,1,,
,,,,,,,,,,,,,stim/feuf_f.wav,6105ac9411551a0880809277,001,2022-03-14_19h35.21.266,task,2021.2.3,Win32,59.81218972,,,4,5.9321,1.985185129,2.2274,2,5,21,6,1,,
,,,,,,,,,,,,,stim/pof_f.wav,6105ac9411551a0880809277,001,2022-03-14_19h35.21.266,task,2021.2.3,Win32,59.81218972,,,2,15.0871,1.011111083,3.4868,2,6,22,0,1,,
,,,,,,,,,,,,,stim/fif_f.wav,6105ac9411551a0880809277,001,2022-03-14_19h35.21.266,task,2021.2.3,Win32,59.81218972,,,3,7.6733,2,2.2821,2,7,23,5,1,,
,,,,,,,,,,,,,stim/feuf_f.wav,6105ac9411551a0880809277,001,2022-03-14_19h35.21.266,task,2021.2.3,Win32,59.81218972,,,6,6.3857,1.996296353,4.4503,3,0,24,6,1,,
,,,,,,,,,,,,,stim/fof_f.wav,6105ac9411551a0880809277,001,2022-03-14_19h35.21.266,task,2021.2.3,Win32,59.81218972,,,2,21.5968,2.003703647,2.5609,3,1,25,4,1,,
,,,,,,,,,,,,,stim/p_schwa_f.wav,6105ac9411551a0880809277,001,2022-03-14_19h35.21.266,task,2021.2.3,Win32,59.81218972,,,1,9.1133,1.011111083,2.851,3,2,26,3,1,,
,,,,,,,,,,,,,stim/peuf_f.wav,6105ac9411551a0880809277,001,2022-03-14_19h35.21.266,task,2021.2.3,Win32,59.81218972,,,4,5.9311,2.022222166,2.171,3,3,27,2,1,,
,,,,,,,,,,,,,stim/pif_f.wav,6105ac9411551a0880809277,001,2022-03-14_19h35.21.266,task,2021.2.3,Win32,59.81218972,,,7,8.7564,2.003703647,2.4333,3,4,28,1,1,,
,,,,,,,,,,,,,stim/fif_f.wav,6105ac9411551a0880809277,001,2022-03-14_19h35.21.266,task,2021.2.3,Win32,59.81218972,,,7,10.7732,2.03333339,2.4836,3,5,29,5,1,,
,,,,,,,,,,,,,stim/pof_f.wav,6105ac9411551a0880809277,001,2022-03-14_19h35.21.266,task,2021.2.3,Win32,59.81218972,,,6,8.4855,1.977777834,2.311,3,6,30,0,1,,
,,,,,,,,,,,,,stim/f_schwa_f.wav,6105ac9411551a0880809277,001,2022-03-14_19h35.21.266,task,2021.2.3,Win32,59.81218972,,,1,8.1635,1.992592706,2.8605,3,7,31,7,1,,
,,,,,,,,,,,,,stim/pif_f.wav,6105ac9411551a0880809277,001,2022-03-14_19h35.21.266,task,2021.2.3,Win32,59.81218972,,,7,9.473,2,2.6873,4,0,32,1,1,,
,,,,,,,,,,,,,stim/peuf_f.wav,6105ac9411551a0880809277,001,2022-03-14_19h35.21.266,task,2021.2.3,Win32,59.81218972,,,4,7.5141,3.018518519,2.5119,4,1,33,2,1,,
,,,,,,,,,,,,,stim/p_schwa_f.wav,6105ac9411551a0880809277,001,2022-03-14_19h35.21.266,task,2021.2.3,Win32,59.81218972,,,1,14.0545,1.037037037,2.2944,4,2,34,3,1,,
,,,,,,,,,,,,,stim/f_schwa_f.wav,6105ac9411551a0880809277,001,2022-03-14_19h35.21.266,task,2021.2.3,Win32,59.81218972,,,1,6.8525,1.04814812,2.0787,4,3,35,7,1,,
,,,,,,,,,,,,,stim/fif_f.wav,6105ac9411551a0880809277,001,2022-03-14_19h35.21.266,task,2021.2.3,Win32,59.81218972,,,3,12.2629,2.011111224,2.7015,4,4,36,5,1,,
,,,,,,,,,,,,,stim/pof_f.wav,6105ac9411551a0880809277,001,2022-03-14_19h35.21.266,task,2021.2.3,Win32,59.81218972,,,1,8.0527,1.025925954,2.1444,4,5,37,0,1,,
,,,,,,,,,,,,,stim/feuf_f.wav,6105ac9411551a0880809277,001,2022-03-14_19h35.21.266,task,2021.2.3,Win32,59.81218972,,,4,5.0429,2.014814871,2.0122,4,6,38,6,1,,
,,,,,,,,,,,,,stim/fof_f.wav,6105ac9411551a0880809277,001,2022-03-14_19h35.21.266,task,2021.2.3,Win32,59.81218972,,,6,14.8657,1.014814871,2.717,4,7,39,4,1,,
,,,,,,,,,,,,,,6105ac9411551a0880809277,001,2022-03-14_19h35.21.266,task,2021.2.3,Win32,59.81218972,,,,,,,,,,,,space,2.1722
